SpectraSuite Data File
++++++++++++++++++++++++++++++++++++
Date: Thu May 05 21:10:40 CEST 2016
User: root
Dark Spectrum Present: No
Reference Spectrum Present: No
Number of Sampled Component Spectra: 1
Spectrometers: USB4C02835
Integration Time (usec): 100000 (USB4C02835)
Spectra Averaged: 1 (USB4C02835)
Boxcar Smoothing: 0 (USB4C02835)
Correct for Electrical Dark: No (USB4C02835)
Strobe/Lamp Enabled: No (USB4C02835)
Correct for Detector Non-linearity: No (USB4C02835)
Correct for Stray Light: No (USB4C02835)
Number of Pixels in Processed Spectrum: 3648
>>>>>Begin Processed Spectral Data<<<<<
177.47	2148.32
177.69	2148.32
177.91	2148.32
178.13	2174.94
178.36	2156.51
178.58	2691.03
178.80	2875.35
179.02	2635.74
179.24	2850.77
179.46	2627.54
179.68	2688.98
179.90	2973.65
180.13	2998.23
180.35	2482.14
180.57	2650.07
180.79	3030.99
181.01	3026.90
181.23	2680.79
181.45	2738.13
181.67	3127.25
181.90	3168.21
182.12	2691.03
182.34	2541.53
182.56	3035.09
182.78	3102.67
183.00	2652.12
183.22	2748.37
183.44	2684.89
183.66	3432.40
183.89	2848.72
184.11	2772.95
184.33	3080.14
184.55	3155.92
184.77	2693.08
184.99	2781.14
185.21	2914.26
185.43	3452.88
185.65	2697.17
185.87	2629.59
186.10	3465.16
186.32	3346.38
186.54	2815.96
186.76	2709.46
186.98	3137.49
187.20	2926.55
187.42	2697.17
187.64	2693.08
187.86	3012.56
188.08	3139.54
188.30	2605.02
188.52	2705.37
188.75	3205.07
188.97	3264.46
189.19	2703.32
189.41	2652.12
189.63	3071.95
189.85	2975.70
190.07	2529.24
190.29	2541.53
190.51	3041.23
190.73	2736.09
190.95	2863.06
191.17	2744.28
191.39	2703.32
191.61	2889.68
191.84	2643.93
192.06	2740.18
192.28	2744.28
192.50	3477.45
192.72	2861.01
192.94	2789.33
193.16	3096.53
193.38	3078.10
193.60	2633.69
193.82	2805.72
194.04	3141.58
194.26	3123.15
194.48	2662.36
194.70	2684.89
194.92	2861.01
195.14	3074.00
195.36	2729.94
195.58	2758.61
195.80	2979.79
196.02	2815.96
196.24	2605.02
196.46	2791.38
196.69	2869.20
196.91	3348.43
197.13	2713.56
197.35	2664.41
197.57	3270.61
197.79	3092.43
198.01	2697.17
198.23	2803.67
198.45	3096.53
198.67	2697.17
198.89	2549.72
199.11	2764.76
199.33	2869.20
199.55	2586.58
199.77	2670.55
199.99	2813.91
200.21	2893.78
200.43	3043.28
200.65	2600.92
200.87	2559.96
201.09	2963.41
201.31	2912.21
201.53	2721.75
201.75	2756.57
201.97	3037.14
202.19	2990.03
202.41	2801.62
202.63	2881.49
202.85	3106.77
203.07	3084.24
203.29	2766.81
203.51	2627.54
203.73	2826.20
203.95	3436.49
204.17	2707.41
204.39	2820.05
204.61	2924.50
204.83	2863.06
205.05	2885.59
205.27	2729.94
205.49	3393.48
205.71	2983.89
205.93	2615.26
206.15	2605.02
206.37	3022.80
206.59	2914.26
206.81	2586.58
207.03	2609.11
207.25	2885.59
207.47	3172.30
207.69	2666.46
207.91	2899.92
208.13	3278.80
208.34	2897.88
208.56	2635.74
208.78	2654.17
209.00	2936.79
209.22	2930.64
209.44	2713.56
209.66	2645.98
209.88	3020.75
210.10	2899.92
210.32	2707.41
210.54	2725.85
210.76	3014.61
210.98	3198.93
211.20	2602.97
211.42	2785.24
211.64	3194.83
211.86	3067.86
212.08	2744.28
212.30	2691.03
212.52	2985.94
212.74	3106.77
212.96	2779.09
213.17	2707.41
213.39	3086.29
213.61	3241.93
213.83	2703.32
214.05	2506.71
214.27	3256.27
214.49	2725.85
214.71	2613.21
214.93	2799.57
215.15	2971.60
215.37	3160.02
215.59	2557.91
215.81	2701.27
216.03	3254.22
216.24	3008.47
216.46	2754.52
216.68	2787.29
216.90	3137.49
217.12	3164.11
217.34	2623.45
217.56	2789.33
217.78	3282.89
218.00	3076.05
218.22	2838.48
218.44	2789.33
218.66	3067.86
218.87	3534.79
219.09	2572.25
219.31	2734.04
219.53	3096.53
219.75	2949.08
219.97	2781.14
220.19	2766.81
220.41	2924.50
220.63	3303.37
220.85	2756.57
221.06	2746.33
221.28	3198.93
221.50	3096.53
221.72	2684.89
221.94	2623.45
222.16	3092.43
222.38	3229.65
222.60	2762.71
222.82	2678.74
223.03	3174.35
223.25	2803.67
223.47	2715.61
223.69	2979.79
223.91	3133.39
224.13	3002.32
224.35	2576.34
224.57	2854.87
224.78	3008.47
225.00	2818.00
225.22	2760.66
225.44	2676.70
225.66	3147.73
225.88	2912.21
226.10	2738.13
226.32	2719.70
226.53	3243.98
226.75	2920.40
226.97	2764.76
227.19	2707.41
227.41	2861.01
227.63	2959.31
227.85	2521.05
228.06	2824.15
228.28	3041.23
228.50	3207.12
228.72	2570.20
228.94	2738.13
229.16	2752.47
229.37	2865.11
229.59	2658.26
229.81	2942.93
230.03	2881.49
230.25	2752.47
230.47	2512.86
230.69	2691.03
230.90	3104.72
231.12	2836.44
231.34	2740.18
231.56	2740.18
231.78	2754.52
232.00	3053.52
232.21	2805.72
232.43	2707.41
232.65	2633.69
232.87	3131.34
233.09	2521.05
233.30	2609.11
233.52	3215.31
233.74	2858.96
233.96	2623.45
234.18	2895.83
234.40	3080.14
234.61	3327.95
234.83	2521.05
235.05	2572.25
235.27	3452.88
235.49	3194.83
235.70	2566.10
235.92	2682.84
236.14	3125.20
236.36	3344.33
236.58	2557.91
236.79	2750.42
237.01	2916.31
237.23	2957.27
237.45	2801.62
237.67	2734.04
237.88	3020.75
238.10	3246.03
238.32	2592.73
238.54	2672.60
238.76	2994.13
238.97	2848.72
239.19	2564.06
239.41	2693.08
239.63	3117.01
239.85	2893.78
240.06	2680.79
240.28	2682.84
240.50	3233.74
240.72	2975.70
240.93	2578.39
241.15	2725.85
241.37	2951.12
241.59	3272.65
241.81	2715.61
242.02	2772.95
242.24	2969.55
242.46	3061.71
242.68	2547.67
242.89	2623.45
243.11	3119.06
243.33	2951.12
243.55	2678.74
243.76	2691.03
243.98	2852.82
244.20	2983.89
244.42	2648.02
244.64	2686.94
244.85	2752.47
245.07	2793.43
245.29	2662.36
245.51	2672.60
245.72	3092.43
245.94	3104.72
246.16	2684.89
246.38	2775.00
246.59	2908.12
246.81	2850.77
247.03	2629.59
247.24	2508.76
247.46	2944.98
247.68	3033.04
247.90	2648.02
248.11	2727.89
248.33	3127.25
248.55	2963.41
248.77	2678.74
248.98	2830.29
249.20	3293.13
249.42	2973.65
249.64	2682.84
249.85	2621.40
250.07	2775.00
250.29	3086.29
250.50	2744.28
250.72	2629.59
250.94	3067.86
251.16	3387.34
251.37	2695.13
251.59	2762.71
251.81	3024.85
252.02	3174.35
252.24	2588.63
252.46	2781.14
252.68	2828.24
252.89	2877.40
253.11	2541.53
253.33	2869.20
253.54	3358.67
253.76	2785.24
253.98	2719.70
254.20	2707.41
254.41	2775.00
254.63	2944.98
254.85	2564.06
255.06	2818.00
255.28	3133.39
255.50	2893.78
255.71	2598.87
255.93	2486.23
256.15	2926.55
256.36	3143.63
256.58	2543.58
256.80	2643.93
257.02	2938.84
257.23	2916.31
257.45	2744.28
257.67	2789.33
257.88	2955.22
258.10	3108.82
258.32	2762.71
258.53	2744.28
258.75	3336.14
258.97	2842.58
259.18	2588.63
259.40	2639.83
259.62	3209.17
259.83	3270.61
260.05	2701.27
260.27	3567.56
260.48	3157.97
260.70	2840.53
260.92	2607.06
261.13	2734.04
261.35	3039.19
261.57	3102.67
261.78	2607.06
262.00	2617.30
262.22	3074.00
262.43	2818.00
262.65	2725.85
262.86	2734.04
263.08	3405.77
263.30	2971.60
263.51	2494.43
263.73	2668.50
263.95	3219.41
264.16	2848.72
264.38	2559.96
264.60	2654.17
264.81	2899.92
265.03	3141.58
265.25	3049.43
265.46	2701.27
265.68	3178.45
265.89	3069.91
266.11	2516.95
266.33	2674.65
266.54	3117.01
266.76	3137.49
266.98	2836.44
267.19	2811.86
267.41	3194.83
267.62	2891.73
267.84	2527.19
268.06	2789.33
268.27	3012.56
268.49	3164.11
268.70	2820.05
268.92	2697.17
269.14	2848.72
269.35	2738.13
269.57	2731.99
269.79	2795.48
270.00	2815.96
270.22	3276.75
270.43	2564.06
270.65	2555.86
270.87	3037.14
271.08	3123.15
271.30	2807.77
271.51	2787.29
271.73	3071.95
271.95	3260.37
272.16	2623.45
272.38	2850.77
272.59	2953.17
272.81	3037.14
273.02	2703.32
273.24	2721.75
273.46	3131.34
273.67	2754.52
273.89	2672.60
274.10	2654.17
274.32	3174.35
274.54	2977.75
274.75	2832.34
274.97	2791.38
275.18	3114.96
275.40	2910.16
275.61	2779.09
275.83	2826.20
276.05	2848.72
276.26	2936.79
276.48	2785.24
276.69	2807.77
276.91	2916.31
277.12	3151.82
277.34	2873.30
277.55	2881.49
277.77	2944.98
277.99	2887.64
278.20	2731.99
278.42	2641.88
278.63	2861.01
278.85	2811.86
279.06	2781.14
279.28	2881.49
279.49	3094.48
279.71	3190.74
279.93	2836.44
280.14	2858.96
280.36	2963.41
280.57	3139.54
280.79	2951.12
281.00	2725.85
281.22	2877.40
281.43	3147.73
281.65	2564.06
281.86	2742.23
282.08	2990.03
282.29	3344.33
282.51	2701.27
282.73	2715.61
282.94	2742.23
283.16	3102.67
283.37	2906.07
283.59	2818.00
283.80	3096.53
284.02	2963.41
284.23	2861.01
284.45	2758.61
284.66	2858.96
284.88	2820.05
285.09	2693.08
285.31	2797.53
285.52	3076.05
285.74	2762.71
285.95	2920.40
286.17	2832.34
286.38	3094.48
286.60	2877.40
286.81	2744.28
287.03	2703.32
287.24	2975.70
287.46	3104.72
287.67	2897.88
287.89	2959.31
288.10	2975.70
288.32	3014.61
288.53	2928.60
288.75	2895.83
288.96	3098.58
289.18	2787.29
289.39	2738.13
289.61	2942.93
289.82	3385.29
290.04	3276.75
290.25	2738.13
290.47	2889.68
290.68	3010.51
290.90	3196.88
291.11	2666.46
291.33	2846.68
291.54	2760.66
291.76	2983.89
291.97	2856.92
292.18	2869.20
292.40	2981.84
292.61	2832.34
292.83	3078.10
293.04	2844.63
293.26	3067.86
293.47	2963.41
293.69	2736.09
293.90	2721.75
294.12	3198.93
294.33	2967.51
294.55	2830.29
294.76	2924.50
294.97	3321.81
295.19	3362.76
295.40	2783.19
295.62	2922.45
295.83	3082.19
296.05	2822.10
296.26	2987.99
296.48	2822.10
296.69	3014.61
296.90	2994.13
297.12	2899.92
297.33	2947.03
297.55	2985.94
297.76	3057.62
297.98	2916.31
298.19	2899.92
298.41	2930.64
298.62	2813.91
298.83	3010.51
299.05	2897.88
299.26	2955.22
299.48	2811.86
299.69	2889.68
299.90	2766.81
300.12	2822.10
300.33	3106.77
300.55	2891.73
300.76	2826.20
300.98	2787.29
301.19	3137.49
301.40	2838.48
301.62	2775.00
301.83	3024.85
302.05	2981.84
302.26	2738.13
302.47	2928.60
302.69	2848.72
302.90	2916.31
303.12	2705.37
303.33	2955.22
303.54	3254.22
303.76	3010.51
303.97	2815.96
304.19	2895.83
304.40	2824.15
304.61	2967.51
304.83	2985.94
305.04	2916.31
305.26	3155.92
305.47	2918.36
305.68	2820.05
305.90	2707.41
306.11	3221.45
306.33	2871.25
306.54	2613.21
306.75	2805.72
306.97	2734.04
307.18	2842.58
307.39	2832.34
307.61	2891.73
307.82	3024.85
308.04	3090.38
308.25	2670.55
308.46	2967.51
308.68	2990.03
308.89	2934.74
309.10	2934.74
309.32	2920.40
309.53	3018.71
309.74	3067.86
309.96	2746.33
310.17	2920.40
310.39	2940.88
310.60	3153.87
310.81	2842.58
311.03	2697.17
311.24	3143.63
311.45	3028.95
311.67	2944.98
311.88	2863.06
312.09	2912.21
312.31	2805.72
312.52	2738.13
312.73	2807.77
312.95	2721.75
313.16	2828.24
313.37	2922.45
313.59	2942.93
313.80	3133.39
314.01	3246.03
314.23	2729.94
314.44	2754.52
314.65	2717.65
314.87	2858.96
315.08	2750.42
315.29	2838.48
315.51	2838.48
315.72	2717.65
315.93	2832.34
316.15	2889.68
316.36	2910.16
316.57	3082.19
316.79	2807.77
317.00	2736.09
317.21	3092.43
317.43	2836.44
317.64	2840.53
317.85	2748.37
318.07	2875.35
318.28	2863.06
318.49	2881.49
318.70	3092.43
318.92	3039.19
319.13	2969.55
319.34	3026.90
319.56	2803.67
319.77	2996.18
319.98	3035.09
320.20	3014.61
320.41	2858.96
320.62	3088.34
320.83	2811.86
321.05	2996.18
321.26	2832.34
321.47	2977.75
321.69	3123.15
321.90	2707.41
322.11	2707.41
322.32	2987.99
322.54	3313.61
322.75	2803.67
322.96	3598.28
323.18	2764.76
323.39	2775.00
323.60	2693.08
323.81	2959.31
324.03	2875.35
324.24	3043.28
324.45	2881.49
324.66	2748.37
324.88	3090.38
325.09	3227.60
325.30	2766.81
325.52	2709.46
325.73	3121.10
325.94	2858.96
326.15	2684.89
326.37	2711.51
326.58	3080.14
326.79	3344.33
327.00	2768.85
327.22	2744.28
327.43	2951.12
327.64	2789.33
327.85	2961.36
328.07	2824.15
328.28	3309.52
328.49	2897.88
328.70	2787.29
328.92	2807.77
329.13	2901.97
329.34	2971.60
329.55	2992.08
329.76	2998.23
329.98	2906.07
330.19	3237.84
330.40	2858.96
330.61	2920.40
330.83	3106.77
331.04	2789.33
331.25	2846.68
331.46	2844.63
331.68	2695.13
331.89	3145.68
332.10	2836.44
332.31	2658.26
332.52	2947.03
332.74	3223.50
332.95	2744.28
333.16	2738.13
333.37	3076.05
333.58	2922.45
333.80	2824.15
334.01	2650.07
334.22	3033.04
334.43	2881.49
334.64	2701.27
334.86	2688.98
335.07	2873.30
335.28	3297.23
335.49	2666.46
335.70	2940.88
335.92	3182.54
336.13	3362.76
336.34	2858.96
336.55	2863.06
336.76	3022.80
336.98	2576.34
337.19	2826.20
337.40	2920.40
337.61	3512.27
337.82	3012.56
338.04	2840.53
338.25	2705.37
338.46	2971.60
338.67	3033.04
338.88	2680.79
339.09	2703.32
339.31	2910.16
339.52	2699.22
339.73	2828.24
339.94	2832.34
340.15	3071.95
340.36	2910.16
340.58	2938.84
340.79	2703.32
341.00	3074.00
341.21	2856.92
341.42	3018.71
341.63	2789.33
341.85	3131.34
342.06	3080.14
342.27	2760.66
342.48	2983.89
342.69	2738.13
342.90	3067.86
343.12	3078.10
343.33	2731.99
343.54	3110.86
343.75	3254.22
343.96	2914.26
344.17	2639.83
344.38	3016.66
344.60	2885.59
344.81	2680.79
345.02	2799.57
345.23	3209.17
345.44	3456.97
345.65	2916.31
345.86	2887.64
346.07	3061.71
346.29	2840.53
346.50	2916.31
346.71	2858.96
346.92	3170.26
347.13	3340.24
347.34	2885.59
347.55	2711.51
347.76	3203.02
347.98	2699.22
348.19	2889.68
348.40	2992.08
348.61	2861.01
348.82	3270.61
349.03	2858.96
349.24	2734.04
349.45	3379.15
349.66	2699.22
349.88	2727.89
350.09	2754.52
350.30	3264.46
350.51	3125.20
350.72	2944.98
350.93	2838.48
351.14	2934.74
351.35	3071.95
351.56	2820.05
351.77	2820.05
351.99	3049.43
352.20	3190.74
352.41	2895.83
352.62	2625.50
352.83	2994.13
353.04	3002.32
353.25	2764.76
353.46	2858.96
353.67	3119.06
353.88	2672.60
354.09	2775.00
354.30	2846.68
354.52	3037.14
354.73	2955.22
354.94	2758.61
355.15	2842.58
355.36	3213.26
355.57	2877.40
355.78	2783.19
355.99	2768.85
356.20	2951.12
356.41	3258.32
356.62	2852.82
356.83	2830.29
357.04	3250.13
357.25	2727.89
357.46	2799.57
357.68	2664.41
357.89	2760.66
358.10	3028.95
358.31	2832.34
358.52	2877.40
358.73	2764.76
358.94	2850.77
359.15	2867.16
359.36	2947.03
359.57	2983.89
359.78	2930.64
359.99	3000.27
360.20	2742.23
360.41	2938.84
360.62	3033.04
360.83	2844.63
361.04	2813.91
361.25	3004.37
361.46	3323.85
361.67	2916.31
361.88	2883.54
362.09	3139.54
362.30	3035.09
362.51	2736.09
362.72	2848.72
362.93	3168.21
363.14	3178.45
363.35	2854.87
363.56	2781.14
363.78	3192.78
363.99	3119.06
364.20	2705.37
364.41	2871.25
364.62	3246.03
364.83	3084.24
365.04	2785.24
365.25	2897.88
365.46	3309.52
365.67	2852.82
365.88	2994.13
366.09	2854.87
366.30	2912.21
366.51	2985.94
366.72	2760.66
366.93	2772.95
367.14	2983.89
367.35	3174.35
367.56	2770.90
367.77	2916.31
367.98	2936.79
368.18	3059.67
368.39	2973.65
368.60	2691.03
368.81	3055.57
369.02	3047.38
369.23	2858.96
369.44	2686.94
369.65	2957.27
369.86	3145.68
370.07	2942.93
370.28	2691.03
370.49	3022.80
370.70	3006.42
370.91	2717.65
371.12	2656.22
371.33	3176.40
371.54	2863.06
371.75	2961.36
371.96	2637.78
372.17	3030.99
372.38	2887.64
372.59	2807.77
372.80	2727.89
373.01	2971.60
373.22	2963.41
373.43	2838.48
373.64	2775.00
373.85	3221.45
374.06	3225.55
374.26	2975.70
374.47	2951.12
374.68	3313.61
374.89	3018.71
375.10	2811.86
375.31	2908.12
375.52	2983.89
375.73	2969.55
375.94	2768.85
376.15	2963.41
376.36	2877.40
376.57	2947.03
376.78	2824.15
376.99	2887.64
377.20	3229.65
377.40	3002.32
377.61	3182.54
377.82	2783.19
378.03	3221.45
378.24	3123.15
378.45	2877.40
378.66	2856.92
378.87	2799.57
379.08	2746.33
379.29	2832.34
379.50	2961.36
379.71	2924.50
379.91	3090.38
380.12	2783.19
380.33	2836.44
380.54	2990.03
380.75	2965.46
380.96	2863.06
381.17	2922.45
381.38	2992.08
381.59	3026.90
381.80	2781.14
382.00	3026.90
382.21	3020.75
382.42	3172.30
382.63	3164.11
382.84	2944.98
383.05	3080.14
383.26	3260.37
383.47	2947.03
383.68	2740.18
383.88	3043.28
384.09	3008.47
384.30	3008.47
384.51	2901.97
384.72	2965.46
384.93	2756.57
385.14	2916.31
385.35	3008.47
385.55	2777.05
385.76	3205.07
385.97	2801.62
386.18	2682.84
386.39	2895.83
386.60	2846.68
386.81	2850.77
387.02	2731.99
387.22	2701.27
387.43	3069.91
387.64	2926.55
387.85	3020.75
388.06	3008.47
388.27	4003.78
388.48	7245.71
388.68	10864.47
388.89	13244.21
389.10	14608.16
389.31	13999.91
389.52	11226.96
389.73	9623.41
389.93	8793.98
390.14	7952.26
390.35	7180.18
390.56	6637.47
390.77	5691.31
390.98	4261.82
391.18	3661.77
391.39	3379.15
391.60	3106.77
391.81	3110.86
392.02	2906.07
392.23	3391.44
392.43	3055.57
392.64	2889.68
392.85	2895.83
393.06	3219.41
393.27	2969.55
393.47	2731.99
393.68	2832.34
393.89	2912.21
394.10	3164.11
394.31	2846.68
394.52	2795.48
394.72	2901.97
394.93	3227.60
395.14	2650.07
395.35	2967.51
395.56	2881.49
395.76	3000.27
395.97	2797.53
396.18	2967.51
396.39	3078.10
396.60	3497.93
396.80	3098.58
397.01	3039.19
397.22	3164.11
397.43	3176.40
397.64	2783.19
397.84	2914.26
398.05	3276.75
398.26	2977.75
398.47	2981.84
398.67	3123.15
398.88	2908.12
399.09	3153.87
399.30	2883.54
399.51	2861.01
399.71	2813.91
399.92	2953.17
400.13	2971.60
400.34	2930.64
400.54	3014.61
400.75	3235.79
400.96	2942.93
401.17	3117.01
401.37	3065.81
401.58	2920.40
401.79	2863.06
402.00	2977.75
402.21	3448.78
402.41	3080.14
402.62	3051.47
402.83	3221.45
403.04	3319.76
403.24	3655.62
403.45	2887.64
403.66	3084.24
403.87	3176.40
404.07	3289.04
404.28	3119.06
404.49	3041.23
404.70	3117.01
404.90	3145.68
405.11	2848.72
405.32	3020.75
405.52	2834.39
405.73	2916.31
405.94	2648.02
406.15	2820.05
406.35	3114.96
406.56	3094.48
406.77	2897.88
406.98	2826.20
407.18	2926.55
407.39	3231.69
407.60	2867.16
407.80	2983.89
408.01	2908.12
408.22	3110.86
408.43	2754.52
408.63	2912.21
408.84	3176.40
409.05	3088.34
409.25	2758.61
409.46	2850.77
409.67	2940.88
409.88	2889.68
410.08	2865.11
410.29	2809.81
410.50	3182.54
410.70	3149.78
410.91	2842.58
411.12	2838.48
411.32	2961.36
411.53	2877.40
411.74	2834.39
411.95	2918.36
412.15	3000.27
412.36	3082.19
412.57	3033.04
412.77	3008.47
412.98	2938.84
413.19	2885.59
413.39	2985.94
413.60	2893.78
413.81	3258.32
414.01	2797.53
414.22	2799.57
414.43	3026.90
414.63	2904.02
414.84	3192.78
415.05	2904.02
415.25	2668.50
415.46	3112.91
415.67	2922.45
415.87	2848.72
416.08	2809.81
416.29	2885.59
416.49	3074.00
416.70	2822.10
416.91	2852.82
417.11	2924.50
417.32	3121.10
417.53	2934.74
417.73	2944.98
417.94	2955.22
418.15	2994.13
418.35	2889.68
418.56	2795.48
418.77	3446.73
418.97	2981.84
419.18	2918.36
419.38	2461.66
419.59	2967.51
419.80	3239.89
420.00	2787.29
420.21	2893.78
420.42	3182.54
420.62	3010.51
420.83	2836.44
421.04	2852.82
421.24	3000.27
421.45	3057.62
421.65	2832.34
421.86	2805.72
422.07	3110.86
422.27	3194.83
422.48	2701.27
422.69	2668.50
422.89	2969.55
423.10	2965.46
423.30	2789.33
423.51	2885.59
423.72	3022.80
423.92	3108.82
424.13	2688.98
424.33	2926.55
424.54	3123.15
424.75	3078.10
424.95	3088.34
425.16	2801.62
425.36	3037.14
425.57	3250.13
425.78	2967.51
425.98	2910.16
426.19	2977.75
426.39	2861.01
426.60	2994.13
426.81	2965.46
427.01	3076.05
427.22	2811.86
427.42	2641.88
427.63	2703.32
427.83	3104.72
428.04	3274.70
428.25	2885.59
428.45	2951.12
428.66	3178.45
428.86	3004.37
429.07	2908.12
429.28	2906.07
429.48	2959.31
429.69	2852.82
429.89	2938.84
430.10	2764.76
430.30	3110.86
430.51	3241.93
430.71	2777.05
430.92	2828.24
431.13	2811.86
431.33	3157.97
431.54	2877.40
431.74	3143.63
431.95	3319.76
432.15	2772.95
432.36	2842.58
432.56	2985.94
432.77	3307.47
432.98	3344.33
433.18	2942.93
433.39	2815.96
433.59	2998.23
433.80	3438.54
434.00	3098.58
434.21	2832.34
434.41	2871.25
434.62	3381.20
434.82	2695.13
435.03	2734.04
435.23	3049.43
435.44	2734.04
435.64	2791.38
435.85	2879.44
436.06	3026.90
436.26	3168.21
436.47	2809.81
436.67	2717.65
436.88	2875.35
437.08	3235.79
437.29	3006.42
437.49	2977.75
437.70	3264.46
437.90	2944.98
438.11	3125.20
438.31	2926.55
438.52	3266.51
438.72	3076.05
438.93	3043.28
439.13	2883.54
439.34	3147.73
439.54	2918.36
439.75	2936.79
439.95	2934.74
440.16	2807.77
440.36	2977.75
440.57	2822.10
440.77	2803.67
440.98	2969.55
441.18	3119.06
441.39	2721.75
441.59	2699.22
441.80	3350.48
442.00	2985.94
442.21	2957.27
442.41	2707.41
442.62	3219.41
442.82	2873.30
443.02	2883.54
443.23	2910.16
443.43	2914.26
443.64	3168.21
443.84	2758.61
444.05	2910.16
444.25	2990.03
444.46	2973.65
444.66	2840.53
444.87	3055.57
445.07	2789.33
445.28	2975.70
445.48	2951.12
445.69	2844.63
445.89	3362.76
446.09	3020.75
446.30	3114.96
446.50	3176.40
446.71	4628.41
446.91	5789.61
447.12	6598.56
447.32	7032.72
447.53	6842.26
447.73	5818.28
447.93	5089.20
448.14	4784.06
448.34	4804.53
448.55	4116.42
448.75	4046.79
448.96	3844.04
449.16	3688.39
449.36	3604.42
449.57	3151.82
449.77	2928.60
449.98	2996.18
450.18	2981.84
450.39	2836.44
450.59	3045.33
450.79	3012.56
451.00	2815.96
451.20	2942.93
451.41	2828.24
451.61	2975.70
451.81	2932.69
452.02	2873.30
452.22	2844.63
452.43	2908.12
452.63	2930.64
452.84	2987.99
453.04	2772.95
453.24	2994.13
453.45	2932.69
453.65	2918.36
453.86	2912.21
454.06	2985.94
454.26	3022.80
454.47	2811.86
454.67	3045.33
454.87	3084.24
455.08	2920.40
455.28	2979.79
455.49	3000.27
455.69	2848.72
455.89	3311.57
456.10	2852.82
456.30	2799.57
456.51	3143.63
456.71	3000.27
456.91	2969.55
457.12	2838.48
457.32	3012.56
457.52	2775.00
457.73	2936.79
457.93	2969.55
458.14	2969.55
458.34	2721.75
458.54	2932.69
458.75	2836.44
458.95	3082.19
459.15	3039.19
459.36	2809.81
459.56	2897.88
459.76	3473.36
459.97	3000.27
460.17	2883.54
460.37	2959.31
460.58	2936.79
460.78	3061.71
460.99	2789.33
461.19	2867.16
461.39	2842.58
461.60	2953.17
461.80	2852.82
462.00	2662.36
462.21	2936.79
462.41	2807.77
462.61	2758.61
462.82	2627.54
463.02	3026.90
463.22	2916.31
463.43	2942.93
463.63	2895.83
463.83	3246.03
464.04	3037.14
464.24	2799.57
464.44	2793.43
464.64	3041.23
464.85	3149.78
465.05	2914.26
465.25	2813.91
465.46	2826.20
465.66	3157.97
465.86	3012.56
466.07	2779.09
466.27	2944.98
466.47	2775.00
466.68	2711.51
466.88	2979.79
467.08	3092.43
467.29	3164.11
467.49	2889.68
467.69	2936.79
467.89	3053.52
468.10	3049.43
468.30	2994.13
468.50	2881.49
468.71	3164.11
468.91	2750.42
469.11	3094.48
469.31	2944.98
469.52	2811.86
469.72	3237.84
469.92	3106.77
470.13	2781.14
470.33	2996.18
470.53	3076.05
470.73	3178.45
470.94	3526.60
471.14	3602.38
471.34	4130.75
471.54	3878.85
471.75	3520.46
471.95	3383.24
472.15	3246.03
472.36	3370.96
472.56	3153.87
472.76	3438.54
472.96	3309.52
473.17	3061.71
473.37	2990.03
473.57	2934.74
473.77	2998.23
473.98	2940.88
474.18	2770.90
474.38	3549.13
474.58	2930.64
474.79	2785.24
474.99	3000.27
475.19	3170.26
475.39	2789.33
475.60	2924.50
475.80	2807.77
476.00	2967.51
476.20	2969.55
476.41	2963.41
476.61	2924.50
476.81	3192.78
477.01	2885.59
477.21	3039.19
477.42	3061.71
477.62	2865.11
477.82	3059.67
478.02	2770.90
478.23	2926.55
478.43	2893.78
478.63	2908.12
478.83	2932.69
479.03	2893.78
479.24	3274.70
479.44	3297.23
479.64	2807.77
479.84	2693.08
480.04	2930.64
480.25	3160.02
480.45	2807.77
480.65	2828.24
480.85	3307.47
481.06	2959.31
481.26	2914.26
481.46	2901.97
481.66	3084.24
481.86	2799.57
482.06	3055.57
482.27	2897.88
482.47	2920.40
482.67	3059.67
482.87	2879.44
483.07	2912.21
483.28	2891.73
483.48	2873.30
483.68	2834.39
483.88	2781.14
484.08	2678.74
484.29	2772.95
484.49	2985.94
484.69	2742.23
484.89	3305.42
485.09	3125.20
485.29	2920.40
485.50	3026.90
485.70	2910.16
485.90	3141.58
486.10	3035.09
486.30	2822.10
486.50	3160.02
486.71	2930.64
486.91	3006.42
487.11	3008.47
487.31	2719.70
487.51	3114.96
487.71	2752.47
487.91	2729.94
488.12	2842.58
488.32	2537.43
488.52	2834.39
488.72	2600.92
488.92	3000.27
489.12	3194.83
489.32	2981.84
489.53	2883.54
489.73	2764.76
489.93	3233.74
490.13	2758.61
490.33	2650.07
490.53	3016.66
490.73	3127.25
490.94	2746.33
491.14	2926.55
491.34	3076.05
491.54	3151.82
491.74	3774.41
491.94	4188.10
492.14	4620.22
492.34	4655.03
492.54	4415.42
492.75	3700.68
492.95	3878.85
493.15	3616.71
493.35	3532.75
493.55	3401.68
493.75	3358.67
493.95	3463.12
494.15	3110.86
494.35	2983.89
494.56	2967.51
494.76	2891.73
494.96	2908.12
495.16	2811.86
495.36	2967.51
495.56	3043.28
495.76	2881.49
495.96	2820.05
496.16	2848.72
496.36	3370.96
496.56	2768.85
496.77	2930.64
496.97	2994.13
497.17	3264.46
497.37	2672.60
497.57	2914.26
497.77	3035.09
497.97	2801.62
498.17	2852.82
498.37	2883.54
498.57	3082.19
498.77	2904.02
498.97	3002.32
499.17	3139.54
499.38	2924.50
499.58	3106.77
499.78	3033.04
499.98	3008.47
500.18	2867.16
500.38	2877.40
500.58	3008.47
500.78	3362.76
500.98	5554.09
501.18	7364.50
501.38	8933.24
501.58	9744.24
501.78	9801.58
501.98	8079.24
502.18	6741.91
502.38	5912.49
502.58	5765.03
502.78	5013.43
502.98	4831.16
503.18	4683.70
503.38	4292.54
503.59	3778.50
503.79	3725.26
503.99	3422.16
504.19	3493.83
504.39	3422.16
504.59	3321.81
504.79	3237.84
504.99	3504.07
505.19	3160.02
505.39	2992.08
505.59	3231.69
505.79	3383.24
505.99	3117.01
506.19	2865.11
506.39	3094.48
506.59	2858.96
506.79	2932.69
506.99	3045.33
507.19	2815.96
507.39	3153.87
507.59	2697.17
507.79	2830.29
507.99	2768.85
508.19	3051.47
508.39	2895.83
508.59	2885.59
508.79	2971.60
508.99	3420.11
509.19	2861.01
509.39	2959.31
509.59	2764.76
509.79	2850.77
509.99	3033.04
510.19	2985.94
510.39	2994.13
510.59	3086.29
510.79	2863.06
510.99	2631.64
511.19	2813.91
511.39	3284.94
511.59	3205.07
511.79	2967.51
511.99	2908.12
512.19	3325.90
512.38	2994.13
512.58	2742.23
512.78	2807.77
512.98	3129.30
513.18	3235.79
513.38	2734.04
513.58	2940.88
513.78	2959.31
513.98	2959.31
514.18	2842.58
514.38	2869.20
514.58	3055.57
514.78	2863.06
514.98	2768.85
515.18	2887.64
515.38	2736.09
515.58	3268.56
515.78	2820.05
515.98	2826.20
516.18	3139.54
516.38	3014.61
516.57	2791.38
516.77	2840.53
516.97	3086.29
517.17	2936.79
517.37	2709.46
517.57	2953.17
517.77	3035.09
517.97	2850.77
518.17	2920.40
518.37	2746.33
518.57	2848.72
518.77	2910.16
518.97	2811.86
519.16	2926.55
519.36	3176.40
519.56	2893.78
519.76	2738.13
519.96	2879.44
520.16	3207.12
520.36	2785.24
520.56	3012.56
520.76	2783.19
520.96	2953.17
521.16	3176.40
521.35	3024.85
521.55	3012.56
521.75	3069.91
521.95	2897.88
522.15	2813.91
522.35	2711.51
522.55	2801.62
522.75	3065.81
522.95	2758.61
523.14	2752.47
523.34	3086.29
523.54	2871.25
523.74	2893.78
523.94	2940.88
524.14	2760.66
524.34	2979.79
524.54	3123.15
524.73	2910.16
524.93	3084.24
525.13	3016.66
525.33	2709.46
525.53	3100.62
525.73	3164.11
525.93	2953.17
526.13	2871.25
526.32	2760.66
526.52	3178.45
526.72	3078.10
526.92	2844.63
527.12	2725.85
527.32	2754.52
527.52	3059.67
527.71	2840.53
527.91	2850.77
528.11	3016.66
528.31	2983.89
528.51	2836.44
528.71	2971.60
528.90	3078.10
529.10	3129.30
529.30	2885.59
529.50	2664.41
529.70	3098.58
529.90	2885.59
530.09	2877.40
530.29	2736.09
530.49	2787.29
530.69	3493.83
530.89	3004.37
531.09	2920.40
531.28	2828.24
531.48	3178.45
531.68	2875.35
531.88	2953.17
532.08	3184.59
532.28	2975.70
532.47	2926.55
532.67	2928.60
532.87	3035.09
533.07	2799.57
533.27	2893.78
533.46	2920.40
533.66	3051.47
533.86	2920.40
534.06	2938.84
534.26	2865.11
534.45	2961.36
534.65	3100.62
534.85	2906.07
535.05	2844.63
535.25	3135.44
535.44	2686.94
535.64	2981.84
535.84	2918.36
536.04	2877.40
536.24	2938.84
536.43	2811.86
536.63	2934.74
536.83	2969.55
537.03	3004.37
537.22	2639.83
537.42	2699.22
537.62	2996.18
537.82	2848.72
538.02	3065.81
538.21	3053.52
538.41	3542.99
538.61	3074.00
538.81	2926.55
539.00	2940.88
539.20	2725.85
539.40	2875.35
539.60	2854.87
539.79	3094.48
539.99	3020.75
540.19	2867.16
540.39	2846.68
540.58	2877.40
540.78	3223.50
540.98	3047.38
541.18	3069.91
541.37	2957.27
541.57	2961.36
541.77	3108.82
541.97	2791.38
542.16	2744.28
542.36	2901.97
542.56	2938.84
542.76	3092.43
542.95	2955.22
543.15	2951.12
543.35	3047.38
543.54	2785.24
543.74	2772.95
543.94	3274.70
544.14	2922.45
544.33	2992.08
544.53	2897.88
544.73	2942.93
544.93	2971.60
545.12	2887.64
545.32	2834.39
545.52	2854.87
545.71	2693.08
545.91	2781.14
546.11	2797.53
546.30	2856.92
546.50	2944.98
546.70	3045.33
546.90	2889.68
547.09	2697.17
547.29	3065.81
547.49	2926.55
547.68	2908.12
547.88	2877.40
548.08	3012.56
548.27	3205.07
548.47	2830.29
548.67	2834.39
548.87	2959.31
549.06	2797.53
549.26	2914.26
549.46	3090.38
549.65	2961.36
549.85	2881.49
550.05	2897.88
550.24	2766.81
550.44	3022.80
550.64	2820.05
550.83	2971.60
551.03	3219.41
551.23	3164.11
551.42	2922.45
551.62	2836.44
551.82	3012.56
552.01	2996.18
552.21	3157.97
552.41	2992.08
552.60	3151.82
552.80	2963.41
553.00	2772.95
553.19	2822.10
553.39	3338.19
553.59	2736.09
553.78	2973.65
553.98	2830.29
554.17	2723.80
554.37	3080.14
554.57	2828.24
554.76	2750.42
554.96	2926.55
555.16	2983.89
555.35	2947.03
555.55	2965.46
555.75	3026.90
555.94	3145.68
556.14	2701.27
556.33	2969.55
556.53	2936.79
556.73	2994.13
556.92	2938.84
557.12	2914.26
557.32	3313.61
557.51	3203.02
557.71	2906.07
557.90	2992.08
558.10	3229.65
558.30	2795.48
558.49	2850.77
558.69	2889.68
558.88	3129.30
559.08	3014.61
559.28	2885.59
559.47	2879.44
559.67	3016.66
559.86	3413.96
560.06	2875.35
560.26	2895.83
560.45	3080.14
560.65	2953.17
560.84	3037.14
561.04	2779.09
561.24	3110.86
561.43	2787.29
561.63	3067.86
561.82	3000.27
562.02	3125.20
562.22	2844.63
562.41	2807.77
562.61	2791.38
562.80	2861.01
563.00	3473.36
563.19	2883.54
563.39	2936.79
563.59	3071.95
563.78	2738.13
563.98	2672.60
564.17	2818.00
564.37	2715.61
564.56	2936.79
564.76	2740.18
564.96	3049.43
565.15	3000.27
565.35	3358.67
565.54	2858.96
565.74	2918.36
565.93	3086.29
566.13	2969.55
566.32	2924.50
566.52	2992.08
566.71	2932.69
566.91	3133.39
567.11	2959.31
567.30	2834.39
567.50	3057.62
567.69	3067.86
567.89	2863.06
568.08	2848.72
568.28	2971.60
568.47	2836.44
568.67	2899.92
568.86	2838.48
569.06	3078.10
569.25	2934.74
569.45	2711.51
569.64	2953.17
569.84	2955.22
570.04	3010.51
570.23	2883.54
570.43	2863.06
570.62	3053.52
570.82	3291.09
571.01	2686.94
571.21	2805.72
571.40	2844.63
571.60	3119.06
571.79	2910.16
571.99	2826.20
572.18	2803.67
572.38	3039.19
572.57	2971.60
572.77	2967.51
572.96	3434.44
573.16	2987.99
573.35	2850.77
573.55	3051.47
573.74	3010.51
573.94	3002.32
574.13	2914.26
574.33	3008.47
574.52	3151.82
574.71	3069.91
574.91	2953.17
575.10	2775.00
575.30	2953.17
575.49	2858.96
575.69	2785.24
575.88	2865.11
576.08	2953.17
576.27	3114.96
576.47	2764.76
576.66	2922.45
576.86	3225.55
577.05	3086.29
577.25	2879.44
577.44	3086.29
577.64	2842.58
577.83	3168.21
578.02	2803.67
578.22	3106.77
578.41	3243.98
578.61	2858.96
578.80	2709.46
579.00	2922.45
579.19	2975.70
579.39	3084.24
579.58	2955.22
579.77	2832.34
579.97	3188.69
580.16	3270.61
580.36	2949.08
580.55	2932.69
580.75	3106.77
580.94	3033.04
581.13	2990.03
581.33	3080.14
581.52	3035.09
581.72	3379.15
581.91	2944.98
582.11	2854.87
582.30	3153.87
582.49	3059.67
582.69	3108.82
582.88	2910.16
583.08	3008.47
583.27	3194.83
583.47	2918.36
583.66	2783.19
583.85	2863.06
584.05	2930.64
584.24	2967.51
584.44	2863.06
584.63	3205.07
584.82	3162.06
585.02	3119.06
585.21	3010.51
585.41	3106.77
585.60	3098.58
585.79	3162.06
585.99	3211.22
586.18	3071.95
586.37	3889.09
586.57	5889.96
586.76	16805.63
586.96	35530.21
587.15	48801.05
587.34	56951.96
587.54	61318.23
587.73	55012.54
587.93	39017.90
588.12	29582.91
588.31	24262.29
588.51	21247.68
588.70	19816.15
588.89	17409.78
589.09	14704.42
589.28	12711.74
589.47	9863.02
589.67	7470.99
589.86	6002.60
590.06	4618.17
590.25	4075.46
590.44	3565.51
590.64	3360.72
590.83	3291.09
591.02	3278.80
591.22	2940.88
591.41	2998.23
591.60	3016.66
591.80	3450.83
591.99	2645.98
592.18	2875.35
592.38	3090.38
592.57	2871.25
592.76	2908.12
592.96	2848.72
593.15	2969.55
593.34	3086.29
593.54	2850.77
593.73	2981.84
593.92	3041.23
594.12	3094.48
594.31	2906.07
594.50	3125.20
594.70	3112.91
594.89	3487.69
595.08	2801.62
595.28	2936.79
595.47	3485.64
595.66	3121.10
595.86	2748.37
596.05	2734.04
596.24	2904.02
596.43	3192.78
596.63	3035.09
596.82	2955.22
597.01	3143.63
597.21	3319.76
597.40	2844.63
597.59	2938.84
597.79	2959.31
597.98	3182.54
598.17	3010.51
598.36	2942.93
598.56	3194.83
598.75	2961.36
598.94	2969.55
599.14	2942.93
599.33	2934.74
599.52	3162.06
599.71	2877.40
599.91	2977.75
600.10	3080.14
600.29	3022.80
600.48	2936.79
600.68	2996.18
600.87	3088.34
601.06	2869.20
601.26	2940.88
601.45	2985.94
601.64	2953.17
601.83	3274.70
602.03	2777.05
602.22	2768.85
602.41	3162.06
602.60	3424.20
602.80	2949.08
602.99	3055.57
603.18	2856.92
603.37	3069.91
603.57	2893.78
603.76	2897.88
603.95	3104.72
604.14	2899.92
604.34	2721.75
604.53	2930.64
604.72	2959.31
604.91	3129.30
605.10	2891.73
605.30	2738.13
605.49	3393.48
605.68	3117.01
605.87	2926.55
606.07	2742.23
606.26	2987.99
606.45	3119.06
606.64	2914.26
606.84	2731.99
607.03	3022.80
607.22	3182.54
607.41	2908.12
607.60	2768.85
607.80	3160.02
607.99	3028.95
608.18	2877.40
608.37	2936.79
608.56	2924.50
608.76	3153.87
608.95	3026.90
609.14	2848.72
609.33	3246.03
609.52	3250.13
609.72	3012.56
609.91	3012.56
610.10	2985.94
610.29	3291.09
610.48	3000.27
610.68	2961.36
610.87	2920.40
611.06	3047.38
611.25	2799.57
611.44	3061.71
611.63	2920.40
611.83	3174.35
612.02	2748.37
612.21	2918.36
612.40	2684.89
612.59	2775.00
612.79	2809.81
612.98	2854.87
613.17	3289.04
613.36	2949.08
613.55	3020.75
613.74	2942.93
613.93	3074.00
614.13	3069.91
614.32	2985.94
614.51	2906.07
614.70	3033.04
614.89	2922.45
615.08	2963.41
615.28	3237.84
615.47	2854.87
615.66	3086.29
615.85	2891.73
616.04	2965.46
616.23	3018.71
616.42	3018.71
616.62	2953.17
616.81	2912.21
617.00	2926.55
617.19	3084.24
617.38	2858.96
617.57	2934.74
617.76	3096.53
617.95	3125.20
618.15	2973.65
618.34	3071.95
618.53	2676.70
618.72	3182.54
618.91	2969.55
619.10	2951.12
619.29	2957.27
619.48	2826.20
619.68	2695.13
619.87	2815.96
620.06	2699.22
620.25	3043.28
620.44	2826.20
620.63	2879.44
620.82	3067.86
621.01	2990.03
621.20	2889.68
621.39	2920.40
621.59	3018.71
621.78	2957.27
621.97	2904.02
622.16	3043.28
622.35	3033.04
622.54	3168.21
622.73	2971.60
622.92	2678.74
623.11	3139.54
623.30	2967.51
623.49	2955.22
623.68	2729.94
623.88	3207.12
624.07	2883.54
624.26	2871.25
624.45	2942.93
624.64	3000.27
624.83	2990.03
625.02	2834.39
625.21	2916.31
625.40	3026.90
625.59	3119.06
625.78	2936.79
625.97	2932.69
626.16	3221.45
626.35	3133.39
626.54	2869.20
626.74	3090.38
626.93	2934.74
627.12	3020.75
627.31	2961.36
627.50	2922.45
627.69	3090.38
627.88	2887.64
628.07	2830.29
628.26	2736.09
628.45	2881.49
628.64	2723.80
628.83	2830.29
629.02	2658.26
629.21	3030.99
629.40	2996.18
629.59	2791.38
629.78	2852.82
629.97	3035.09
630.16	2967.51
630.35	2949.08
630.54	2936.79
630.73	2951.12
630.92	2906.07
631.11	2832.34
631.30	2924.50
631.49	3221.45
631.68	2912.21
631.87	2936.79
632.06	2678.74
632.25	3379.15
632.44	2985.94
632.63	2885.59
632.82	2826.20
633.01	2844.63
633.20	3059.67
633.39	2883.54
633.58	2707.41
633.77	3065.81
633.96	3114.96
634.15	3016.66
634.34	2981.84
634.53	3069.91
634.72	2891.73
634.91	2686.94
635.10	2912.21
635.29	3028.95
635.48	3000.27
635.67	2791.38
635.86	2670.55
636.05	3241.93
636.24	2983.89
636.43	2834.39
636.62	2936.79
636.81	2619.35
637.00	3067.86
637.19	2770.90
637.38	2813.91
637.57	2881.49
637.76	2983.89
637.95	2985.94
638.14	2930.64
638.33	3045.33
638.52	2981.84
638.71	2684.89
638.89	2699.22
639.08	3434.44
639.27	3098.58
639.46	2934.74
639.65	3278.80
639.84	3358.67
640.03	3573.71
640.22	3311.57
640.41	3299.28
640.60	3012.56
640.79	3248.08
640.98	2994.13
641.17	3063.76
641.36	3145.68
641.55	3053.52
641.74	2674.65
641.92	2746.33
642.11	2875.35
642.30	2924.50
642.49	2805.72
642.68	2852.82
642.87	3071.95
643.06	3082.19
643.25	2785.24
643.44	2652.12
643.63	2944.98
643.82	3215.31
644.00	2781.14
644.19	2871.25
644.38	2869.20
644.57	3096.53
644.76	2856.92
644.95	2887.64
645.14	2914.26
645.33	2924.50
645.52	2854.87
645.71	2705.37
645.89	2809.81
646.08	2908.12
646.27	2854.87
646.46	3114.96
646.65	2826.20
646.84	2985.94
647.03	2740.18
647.22	3033.04
647.40	3008.47
647.59	2926.55
647.78	2697.17
647.97	2912.21
648.16	2901.97
648.35	3194.83
648.54	3133.39
648.73	2799.57
648.91	3125.20
649.10	2998.23
649.29	2795.48
649.48	2838.48
649.67	3041.23
649.86	3024.85
650.05	2805.72
650.23	3024.85
650.42	2863.06
650.61	3221.45
650.80	3053.52
650.99	3166.16
651.18	3188.69
651.36	3174.35
651.55	2828.24
651.74	2973.65
651.93	3076.05
652.12	2910.16
652.31	2881.49
652.49	2940.88
652.68	2846.68
652.87	3264.46
653.06	2875.35
653.25	3084.24
653.44	2932.69
653.62	3221.45
653.81	2842.58
654.00	2844.63
654.19	3149.78
654.38	3393.48
654.56	3002.32
654.75	2822.10
654.94	3184.59
655.13	2998.23
655.32	2805.72
655.51	2918.36
655.69	2899.92
655.88	3039.19
656.07	2707.41
656.26	2869.20
656.45	2777.05
656.63	2994.13
656.82	2899.92
657.01	3057.62
657.20	2869.20
657.38	3196.88
657.57	2754.52
657.76	2717.65
657.95	3059.67
658.14	2895.83
658.32	3000.27
658.51	2697.17
658.70	3092.43
658.89	3045.33
659.08	2885.59
659.26	3108.82
659.45	2832.34
659.64	3035.09
659.83	2826.20
660.01	3250.13
660.20	3057.62
660.39	3145.68
660.58	2592.73
660.76	2904.02
660.95	2695.13
661.14	3041.23
661.33	2715.61
661.51	2795.48
661.70	2942.93
661.89	3012.56
662.08	2879.44
662.26	2738.13
662.45	2838.48
662.64	3348.43
662.83	2910.16
663.01	2740.18
663.20	2885.59
663.39	3184.59
663.58	2828.24
663.76	2770.90
663.95	3106.77
664.14	2793.43
664.32	2867.16
664.51	2801.62
664.70	2627.54
664.89	3067.86
665.07	2703.32
665.26	2979.79
665.45	2719.70
665.64	3149.78
665.82	2875.35
666.01	2951.12
666.20	2861.01
666.38	3117.01
666.57	3135.44
666.76	4884.41
666.95	10940.25
667.13	17448.69
667.32	21659.32
667.51	24116.88
667.69	24886.92
667.88	21343.93
668.07	15259.42
668.25	12908.35
668.44	11368.27
668.63	9617.26
668.81	8730.49
669.00	7497.61
669.19	6838.17
669.38	5971.88
669.56	5078.96
669.75	4368.32
669.94	3889.09
670.12	3446.73
670.31	3112.91
670.50	3162.06
670.68	3180.50
670.87	3139.54
671.06	2826.20
671.24	2969.55
671.43	3211.22
671.62	3043.28
671.80	2883.54
671.99	2951.12
672.18	3030.99
672.36	3164.11
672.55	2975.70
672.74	2951.12
672.92	2875.35
673.11	3123.15
673.29	2674.65
673.48	3041.23
673.67	2973.65
673.85	3065.81
674.04	2764.76
674.23	2949.08
674.41	3270.61
674.60	2772.95
674.79	2676.70
674.97	2746.33
675.16	3104.72
675.34	3133.39
675.53	2789.33
675.72	2912.21
675.90	3297.23
676.09	2938.84
676.28	2928.60
676.46	2682.84
676.65	3178.45
676.83	2801.62
677.02	2961.36
677.21	2967.51
677.39	3024.85
677.58	2867.16
677.77	2813.91
677.95	2762.71
678.14	2969.55
678.32	2881.49
678.51	2830.29
678.70	3213.26
678.88	2936.79
679.07	3004.37
679.25	2940.88
679.44	2873.30
679.63	2707.41
679.81	2971.60
680.00	3061.71
680.18	2926.55
680.37	3213.26
680.55	2953.17
680.74	2756.57
680.93	2562.01
681.11	3016.66
681.30	2955.22
681.48	2908.12
681.67	2887.64
681.85	3006.42
682.04	2840.53
682.23	3012.56
682.41	2987.99
682.60	2918.36
682.78	2953.17
682.97	2709.46
683.15	2922.45
683.34	3012.56
683.53	3160.02
683.71	2721.75
683.90	2934.74
684.08	3315.66
684.27	2815.96
684.45	2947.03
684.64	3010.51
684.82	3008.47
685.01	2987.99
685.19	2889.68
685.38	3098.58
685.57	2944.98
685.75	2922.45
685.94	2799.57
686.12	2848.72
686.31	2854.87
686.49	3237.84
686.68	2656.22
686.86	2949.08
687.05	2922.45
687.23	3274.70
687.42	2930.64
687.60	2762.71
687.79	3166.16
687.97	3243.98
688.16	3045.33
688.34	3012.56
688.53	2746.33
688.71	3143.63
688.90	3200.98
689.08	2930.64
689.27	2682.84
689.45	3055.57
689.64	3033.04
689.82	2897.88
690.01	2969.55
690.19	2955.22
690.38	2992.08
690.56	3012.56
690.75	2844.63
690.93	2863.06
691.12	2852.82
691.30	2918.36
691.49	2893.78
691.67	2934.74
691.86	3215.31
692.04	2910.16
692.23	2908.12
692.41	2906.07
692.60	3186.64
692.78	3125.20
692.97	3008.47
693.15	3119.06
693.34	3121.10
693.52	3069.91
693.71	2844.63
693.89	2936.79
694.08	2674.65
694.26	2938.84
694.44	3094.48
694.63	3041.23
694.81	2805.72
695.00	2813.91
695.18	3110.86
695.37	3373.00
695.55	2936.79
695.74	2926.55
695.92	2824.15
696.10	3225.55
696.29	2736.09
696.47	2885.59
696.66	2813.91
696.84	2797.53
697.03	2875.35
697.21	3088.34
697.40	4378.56
697.58	3207.12
697.76	2854.87
697.95	2770.90
698.13	2836.44
698.32	2869.20
698.50	2885.59
698.68	2912.21
698.87	3006.42
699.05	3282.89
699.24	2893.78
699.42	2656.22
699.61	2922.45
699.79	2985.94
699.97	2815.96
700.16	2734.04
700.34	2775.00
700.53	3051.47
700.71	3067.86
700.89	2963.41
701.08	2920.40
701.26	2947.03
701.45	3350.48
701.63	2787.29
701.81	2869.20
702.00	2840.53
702.18	2881.49
702.37	2869.20
702.55	3168.21
702.73	2967.51
702.92	2842.58
703.10	3157.97
703.28	3147.73
703.47	2848.72
703.65	3053.52
703.84	2949.08
704.02	2881.49
704.20	3235.79
704.39	2772.95
704.57	2863.06
704.75	3162.06
704.94	3016.66
705.12	3010.51
705.30	3438.54
705.49	6715.29
705.67	13008.70
705.86	18487.01
706.04	20747.97
706.22	22855.33
706.41	22304.43
706.59	17102.59
706.77	13176.63
706.96	11300.69
707.14	10458.98
707.32	8918.90
707.51	7997.32
707.69	6563.74
707.87	5492.65
708.06	4577.21
708.24	4001.73
708.42	3594.19
708.61	3606.47
708.79	2861.01
708.97	3045.33
709.16	3110.86
709.34	3022.80
709.52	2879.44
709.71	2858.96
709.89	3157.97
710.07	2779.09
710.26	2740.18
710.44	2820.05
710.62	3123.15
710.80	2985.94
710.99	2967.51
711.17	3098.58
711.35	2912.21
711.54	2904.02
711.72	3074.00
711.90	2955.22
712.09	3028.95
712.27	2920.40
712.45	3049.43
712.63	2850.77
712.82	3045.33
713.00	2947.03
713.18	3045.33
713.37	3035.09
713.55	3123.15
713.73	3110.86
713.91	2996.18
714.10	3002.32
714.28	2908.12
714.46	3018.71
714.65	2914.26
714.83	2908.12
715.01	3063.76
715.19	2959.31
715.38	2770.90
715.56	3000.27
715.74	2910.16
715.92	2820.05
716.11	3067.86
716.29	2568.15
716.47	3059.67
716.65	2904.02
716.84	2746.33
717.02	2965.46
717.20	2752.47
717.38	2920.40
717.57	3020.75
717.75	2908.12
717.93	2889.68
718.11	3043.28
718.30	2807.77
718.48	2983.89
718.66	3196.88
718.84	3162.06
719.03	2889.68
719.21	2703.32
719.39	3215.31
719.57	3069.91
719.75	2955.22
719.94	2807.77
720.12	2942.93
720.30	3006.42
720.48	2934.74
720.67	2912.21
720.85	2883.54
721.03	2940.88
721.21	2793.43
721.39	2975.70
721.58	3141.58
721.76	2979.79
721.94	2899.92
722.12	2953.17
722.30	3319.76
722.49	2863.06
722.67	2901.97
722.85	2895.83
723.03	2799.57
723.21	2877.40
723.40	2875.35
723.58	3057.62
723.76	3028.95
723.94	3200.98
724.12	2928.60
724.30	3080.14
724.49	3157.97
724.67	2848.72
724.85	3061.71
725.03	2617.30
725.21	3141.58
725.40	3258.32
725.58	2826.20
725.76	3084.24
725.94	3094.48
726.12	2781.14
726.30	2926.55
726.49	2832.34
726.67	2932.69
726.85	3055.57
727.03	3467.21
727.21	4411.32
727.39	5472.17
727.57	5912.49
727.76	6293.41
727.94	6250.40
728.12	5636.01
728.30	4790.20
728.48	4431.80
728.66	4118.47
728.84	3923.91
729.03	3540.94
729.21	3342.28
729.39	3127.25
729.57	3000.27
729.75	3063.76
729.93	2947.03
730.11	2877.40
730.30	2910.16
730.48	2947.03
730.66	2998.23
730.84	3028.95
731.02	2928.60
731.20	2852.82
731.38	2987.99
731.56	2783.19
731.74	2791.38
731.93	3028.95
732.11	2887.64
732.29	2877.40
732.47	3092.43
732.65	2975.70
732.83	3100.62
733.01	2881.49
733.19	2934.74
733.37	3092.43
733.56	2885.59
733.74	2746.33
733.92	3274.70
734.10	2875.35
734.28	3061.71
734.46	2701.27
734.64	2940.88
734.82	2934.74
735.00	2877.40
735.18	2775.00
735.36	3114.96
735.54	2955.22
735.73	2836.44
735.91	3049.43
736.09	3260.37
736.27	2955.22
736.45	2985.94
736.63	2568.15
736.81	2846.68
736.99	3137.49
737.17	3162.06
737.35	2805.72
737.53	3024.85
737.71	2928.60
737.89	2967.51
738.07	2807.77
738.25	2844.63
738.43	2686.94
738.61	2891.73
738.80	2697.17
738.98	2789.33
739.16	2881.49
739.34	2846.68
739.52	3149.78
739.70	2944.98
739.88	3205.07
740.06	3063.76
740.24	2738.13
740.42	3180.50
740.60	2768.85
740.78	2799.57
740.96	2584.54
741.14	2951.12
741.32	2930.64
741.50	2729.94
741.68	3119.06
741.86	3219.41
742.04	2791.38
742.22	2752.47
742.40	2932.69
742.58	2979.79
742.76	2787.29
742.94	3065.81
743.12	2688.98
743.30	2979.79
743.48	3090.38
743.66	2844.63
743.84	2867.16
744.02	2920.40
744.20	2951.12
744.38	2721.75
744.56	2826.20
744.74	3262.41
744.92	3061.71
745.10	3045.33
745.28	2838.48
745.46	3317.71
745.64	2961.36
745.82	2983.89
746.00	2805.72
746.18	3063.76
746.36	2873.30
746.54	2953.17
746.72	2848.72
746.90	2803.67
747.08	3248.08
747.26	2824.15
747.44	2996.18
747.62	3008.47
747.80	3049.43
747.98	2877.40
748.15	2813.91
748.33	3297.23
748.51	2918.36
748.69	2981.84
748.87	2752.47
749.05	2942.93
749.23	2977.75
749.41	2895.83
749.59	2846.68
749.77	3127.25
749.95	2987.99
750.13	2783.19
750.31	3051.47
750.49	2947.03
750.67	3069.91
750.85	3028.95
751.03	2990.03
751.20	3307.47
751.38	2949.08
751.56	2877.40
751.74	2887.64
751.92	2942.93
752.10	2844.63
752.28	3092.43
752.46	2828.24
752.64	2861.01
752.82	2963.41
753.00	3020.75
753.18	2820.05
753.35	2910.16
753.53	2969.55
753.71	2770.90
753.89	2889.68
754.07	2985.94
754.25	3160.02
754.43	2967.51
754.61	2768.85
754.79	3071.95
754.97	3000.27
755.14	3022.80
755.32	2734.04
755.50	2928.60
755.68	3071.95
755.86	2781.14
756.04	2838.48
756.22	2629.59
756.40	3102.67
756.57	3143.63
756.75	2832.34
756.93	3145.68
757.11	3211.22
757.29	2785.24
757.47	2721.75
757.65	2742.23
757.82	2629.59
758.00	2691.03
758.18	2803.67
758.36	2852.82
758.54	3209.17
758.72	2619.35
758.90	3051.47
759.07	2985.94
759.25	2777.05
759.43	2938.84
759.61	2727.89
759.79	4241.34
759.97	3135.44
760.15	2832.34
760.32	2803.67
760.50	3039.19
760.68	3207.12
760.86	2652.12
761.04	3043.28
761.22	3119.06
761.39	3006.42
761.57	3014.61
761.75	2869.20
761.93	2965.46
762.11	2992.08
762.28	2947.03
762.46	2738.13
762.64	3182.54
762.82	2793.43
763.00	2803.67
763.18	3061.71
763.35	2838.48
763.53	3049.43
763.71	2842.58
763.89	2854.87
764.07	3012.56
764.24	2977.75
764.42	2979.79
764.60	2852.82
764.78	3153.87
764.96	3037.14
765.13	3110.86
765.31	2811.86
765.49	3121.10
765.67	2848.72
765.84	2791.38
766.02	2760.66
766.20	2750.42
766.38	3057.62
766.56	2971.60
766.73	2994.13
766.91	2926.55
767.09	3071.95
767.27	2899.92
767.44	2709.46
767.62	3043.28
767.80	2994.13
767.98	2818.00
768.15	2865.11
768.33	3035.09
768.51	3155.92
768.69	2912.21
768.87	2832.34
769.04	3045.33
769.22	3440.59
769.40	3028.95
769.58	3016.66
769.75	3065.81
769.93	3254.22
770.11	2873.30
770.28	2789.33
770.46	3110.86
770.64	2994.13
770.82	2883.54
770.99	2795.48
771.17	3057.62
771.35	2904.02
771.53	2928.60
771.70	2834.39
771.88	3069.91
772.06	2992.08
772.23	2836.44
772.41	2930.64
772.59	2938.84
772.77	2856.92
772.94	2938.84
773.12	2918.36
773.30	2863.06
773.47	3078.10
773.65	2783.19
773.83	3024.85
774.01	2906.07
774.18	2727.89
774.36	2803.67
774.54	2715.61
774.71	3049.43
774.89	2756.57
775.07	2781.14
775.24	2834.39
775.42	2879.44
775.60	3330.00
775.78	2818.00
775.95	2789.33
776.13	2676.70
776.31	2635.74
776.48	3002.32
776.66	3078.10
776.84	2953.17
777.01	2783.19
777.19	2826.20
777.37	2824.15
777.54	3112.91
777.72	3301.33
777.90	2969.55
778.07	2854.87
778.25	3489.74
778.43	3198.93
778.60	2815.96
778.78	2899.92
778.96	3174.35
779.13	2766.81
779.31	3004.37
779.49	2949.08
779.66	3008.47
779.84	2977.75
780.01	2846.68
780.19	2762.71
780.37	3145.68
780.54	3100.62
780.72	2725.85
780.90	2912.21
781.07	2885.59
781.25	2799.57
781.43	3057.62
781.60	2727.89
781.78	3200.98
781.95	3022.80
782.13	2764.76
782.31	2877.40
782.48	2654.17
782.66	2983.89
782.83	3102.67
783.01	3049.43
783.19	3194.83
783.36	2899.92
783.54	2777.05
783.72	3002.32
783.89	2985.94
784.07	2947.03
784.24	2971.60
784.42	3030.99
784.60	3000.27
784.77	2983.89
784.95	2629.59
785.12	2828.24
785.30	2957.27
785.47	2813.91
785.65	2809.81
785.83	2885.59
786.00	2953.17
786.18	2981.84
786.35	2764.76
786.53	2807.77
786.71	3166.16
786.88	2981.84
787.06	2918.36
787.23	2942.93
787.41	2744.28
787.58	2920.40
787.76	2830.29
787.94	2901.97
788.11	2992.08
788.29	2797.53
788.46	2840.53
788.64	2668.50
788.81	2904.02
788.99	2893.78
789.16	2779.09
789.34	2830.29
789.52	2910.16
789.69	2858.96
789.87	2654.17
790.04	2824.15
790.22	2932.69
790.39	3350.48
790.57	2717.65
790.74	2770.90
790.92	3151.82
791.09	2787.29
791.27	2953.17
791.44	2959.31
791.62	2893.78
791.79	3155.92
791.97	2875.35
792.15	3221.45
792.32	3016.66
792.50	3092.43
792.67	3057.62
792.85	3129.30
793.02	2973.65
793.20	2805.72
793.37	2725.85
793.55	2846.68
793.72	2691.03
793.90	3004.37
794.07	2846.68
794.25	2891.73
794.42	3051.47
794.60	2961.36
794.77	2910.16
794.95	2977.75
795.12	3127.25
795.30	2979.79
795.47	2656.22
795.65	3166.16
795.82	3106.77
796.00	2861.01
796.17	2881.49
796.34	2801.62
796.52	3053.52
796.69	3088.34
796.87	2953.17
797.04	3018.71
797.22	3098.58
797.39	3018.71
797.57	3071.95
797.74	2914.26
797.92	2944.98
798.09	2863.06
798.27	3143.63
798.44	2867.16
798.62	2873.30
798.79	3018.71
798.96	2912.21
799.14	2871.25
799.31	3364.81
799.49	2922.45
799.66	2863.06
799.84	2867.16
800.01	2752.47
800.19	3041.23
800.36	2650.07
800.53	2944.98
800.71	3117.01
800.88	3256.27
801.06	2818.00
801.23	2801.62
801.41	2830.29
801.58	2858.96
801.75	2691.03
801.93	2908.12
802.10	3033.04
802.28	2844.63
802.45	2838.48
802.63	2963.41
802.80	3184.59
802.97	2901.97
803.15	2850.77
803.32	2791.38
803.50	2754.52
803.67	2840.53
803.84	2793.43
804.02	2936.79
804.19	2940.88
804.37	2619.35
804.54	2688.98
804.71	2795.48
804.89	2930.64
805.06	2822.10
805.24	2770.90
805.41	2688.98
805.58	2826.20
805.76	3422.16
805.93	2793.43
806.10	3086.29
806.28	3024.85
806.45	2912.21
806.63	2947.03
806.80	2975.70
806.97	3096.53
807.15	3024.85
807.32	2912.21
807.49	3002.32
807.67	2787.29
807.84	3094.48
808.01	2605.02
808.19	3047.38
808.36	3313.61
808.54	2910.16
808.71	2883.54
808.88	2826.20
809.06	3217.36
809.23	3225.55
809.40	2834.39
809.58	2854.87
809.75	2971.60
809.92	2717.65
810.10	3178.45
810.27	2729.94
810.44	3033.04
810.62	3104.72
810.79	2916.31
810.96	2895.83
811.14	2947.03
811.31	3137.49
811.48	3006.42
811.66	2881.49
811.83	3192.78
812.00	3125.20
812.18	2942.93
812.35	3207.12
812.52	2961.36
812.69	2924.50
812.87	2891.73
813.04	2772.95
813.21	2924.50
813.39	2770.90
813.56	2719.70
813.73	3084.24
813.91	2752.47
814.08	2977.75
814.25	2924.50
814.42	2756.57
814.60	2924.50
814.77	2981.84
814.94	2873.30
815.12	2891.73
815.29	3233.74
815.46	2848.72
815.63	2961.36
815.81	2867.16
815.98	2863.06
816.15	3045.33
816.33	2928.60
816.50	2895.83
816.67	2947.03
816.84	2865.11
817.02	2676.70
817.19	2811.86
817.36	3069.91
817.53	3018.71
817.71	2705.37
817.88	2885.59
818.05	2930.64
818.22	2936.79
818.40	3080.14
818.57	2871.25
818.74	3008.47
818.91	2920.40
819.09	2985.94
819.26	2994.13
819.43	2815.96
819.60	2893.78
819.78	3112.91
819.95	2969.55
820.12	2787.29
820.29	3229.65
820.47	3076.05
820.64	2834.39
820.81	2734.04
820.98	2854.87
821.15	2811.86
821.33	2987.99
821.50	2699.22
821.67	3051.47
821.84	2756.57
822.02	2914.26
822.19	3096.53
822.36	2906.07
822.53	2740.18
822.70	2713.56
822.88	2869.20
823.05	3221.45
823.22	2910.16
823.39	2938.84
823.56	2953.17
823.74	3323.85
823.91	2697.17
824.08	2777.05
824.25	2828.24
824.42	3332.05
824.60	2744.28
824.77	2953.17
824.94	2955.22
825.11	3069.91
825.28	2674.65
825.45	3016.66
825.63	3063.76
825.80	2807.77
825.97	2969.55
826.14	2967.51
826.31	2670.55
826.48	3112.91
826.66	2842.58
826.83	2865.11
827.00	2936.79
827.17	2820.05
827.34	2842.58
827.51	2838.48
827.69	2959.31
827.86	2723.80
828.03	2914.26
828.20	2947.03
828.37	2846.68
828.54	3037.14
828.71	2766.81
828.89	2992.08
829.06	2990.03
829.23	3223.50
829.40	2840.53
829.57	2846.68
829.74	3053.52
829.91	2799.57
830.09	2772.95
830.26	2951.12
830.43	3188.69
830.60	2895.83
830.77	2936.79
830.94	3090.38
831.11	3061.71
831.28	2811.86
831.46	2930.64
831.63	2881.49
831.80	3043.28
831.97	2889.68
832.14	2836.44
832.31	2922.45
832.48	3018.71
832.65	3174.35
832.82	2992.08
832.99	2893.78
833.17	2772.95
833.34	3217.36
833.51	2891.73
833.68	2600.92
833.85	3133.39
834.02	2781.14
834.19	2830.29
834.36	2781.14
834.53	3022.80
834.70	3207.12
834.87	2799.57
835.04	2703.32
835.22	2807.77
835.39	2875.35
835.56	2725.85
835.73	2795.48
835.90	3174.35
836.07	2813.91
836.24	2969.55
836.41	2725.85
836.58	2863.06
836.75	3133.39
836.92	2734.04
837.09	2676.70
837.26	3078.10
837.43	3069.91
837.60	2768.85
837.77	2738.13
837.94	3080.14
838.12	3137.49
838.29	2664.41
838.46	2695.13
838.63	2805.72
838.80	3196.88
838.97	2750.42
839.14	2688.98
839.31	3006.42
839.48	3108.82
839.65	2740.18
839.82	2815.96
839.99	2971.60
840.16	2908.12
840.33	2695.13
840.50	2750.42
840.67	2836.44
840.84	2559.96
841.01	2717.65
841.18	2723.80
841.35	2955.22
841.52	3098.58
841.69	3037.14
841.86	2715.61
842.03	2934.74
842.20	3086.29
842.37	2783.19
842.54	2775.00
842.71	2953.17
842.88	2754.52
843.05	2729.94
843.22	2691.03
843.39	3125.20
843.56	2826.20
843.73	2729.94
843.90	2764.76
844.07	2934.74
844.24	3110.86
844.41	2824.15
844.58	2803.67
844.75	2967.51
844.92	3028.95
845.09	2752.47
845.26	2654.17
845.43	3071.95
845.60	2977.75
845.77	2863.06
845.94	2805.72
846.10	3182.54
846.27	2691.03
846.44	2652.12
846.61	2598.87
846.78	3090.38
846.95	3063.76
847.12	2615.26
847.29	2742.23
847.46	2850.77
847.63	3086.29
847.80	2699.22
847.97	2705.37
848.14	3305.42
848.31	2887.64
848.48	2623.45
848.65	2738.13
848.82	2908.12
848.98	3475.40
849.15	2861.01
849.32	2893.78
849.49	3192.78
849.66	2985.94
849.83	2678.74
850.00	2602.97
850.17	3096.53
850.34	2887.64
850.51	2676.70
850.68	2731.99
850.85	3282.89
851.01	3018.71
851.18	2754.52
851.35	2731.99
851.52	3069.91
851.69	3246.03
851.86	2697.17
852.03	2609.11
852.20	3149.78
852.37	2928.60
852.53	2658.26
852.70	2738.13
852.87	2985.94
853.04	3100.62
853.21	2725.85
853.38	2965.46
853.55	3125.20
853.72	3139.54
853.89	2656.22
854.05	2676.70
854.22	2996.18
854.39	2897.88
854.56	2746.33
854.73	2908.12
854.90	2867.16
855.07	2887.64
855.23	2684.89
855.40	2707.41
855.57	2858.96
855.74	2645.98
855.91	2936.79
856.08	2639.83
856.25	2768.85
856.41	2867.16
856.58	2772.95
856.75	2686.94
856.92	2791.38
857.09	3074.00
857.26	2643.93
857.42	2713.56
857.59	3129.30
857.76	2854.87
857.93	2713.56
858.10	2826.20
858.27	2738.13
858.43	2983.89
858.60	2643.93
858.77	2613.21
858.94	2867.16
859.11	3145.68
859.27	2818.00
859.44	2627.54
859.61	3299.28
859.78	3080.14
859.95	2703.32
860.12	2664.41
860.28	3327.95
860.45	3217.36
860.62	2762.71
860.79	2877.40
860.95	2908.12
861.12	2836.44
861.29	2645.98
861.46	2699.22
861.63	2922.45
861.79	3016.66
861.96	2572.25
862.13	2756.57
862.30	3209.17
862.47	2899.92
862.63	2664.41
862.80	2770.90
862.97	3172.30
863.14	3057.62
863.30	2811.86
863.47	2623.45
863.64	3196.88
863.81	3055.57
863.97	2674.65
864.14	2734.04
864.31	2893.78
864.48	2981.84
864.65	2691.03
864.81	2830.29
864.98	2953.17
865.15	3117.01
865.32	2781.14
865.48	2820.05
865.65	3223.50
865.82	2852.82
865.98	2779.09
866.15	2838.48
866.32	2957.27
866.49	2873.30
866.65	2809.81
866.82	2678.74
866.99	2953.17
867.16	2840.53
867.32	2740.18
867.49	2648.02
867.66	2867.16
867.83	2858.96
867.99	2619.35
868.16	2770.90
868.33	2787.29
868.49	2920.40
868.66	2777.05
868.83	2805.72
868.99	2938.84
869.16	2912.21
869.33	2877.40
869.50	2885.59
869.66	3051.47
869.83	2938.84
870.00	2648.02
870.16	2805.72
870.33	2951.12
870.50	3114.96
870.66	2805.72
870.83	2742.23
871.00	2957.27
871.17	3010.51
871.33	2709.46
871.50	2779.09
871.67	2969.55
871.83	2772.95
872.00	2875.35
872.17	2742.23
872.33	3272.65
872.50	3137.49
872.67	2727.89
872.83	2697.17
873.00	3045.33
873.17	3002.32
873.33	2832.34
873.50	2799.57
873.67	2869.20
873.83	2838.48
874.00	2832.34
874.16	2885.59
874.33	3063.76
874.50	2711.51
874.66	2725.85
874.83	2818.00
875.00	3198.93
875.16	3252.17
875.33	2899.92
875.50	2527.19
875.66	2879.44
875.83	2975.70
875.99	2760.66
876.16	2803.67
876.33	2828.24
876.49	2918.36
876.66	2777.05
876.83	2738.13
876.99	2688.98
877.16	2910.16
877.32	2639.83
877.49	2797.53
877.66	3147.73
877.82	3178.45
877.99	2850.77
878.15	2924.50
878.32	3086.29
878.49	3074.00
878.65	2777.05
878.82	3028.95
878.98	2850.77
879.15	3145.68
879.32	2850.77
879.48	2992.08
879.65	2949.08
879.81	2955.22
879.98	2783.19
880.15	2775.00
880.31	3133.39
880.48	2852.82
880.64	2828.24
880.81	2889.68
880.97	3256.27
881.14	3174.35
881.31	2762.71
881.47	2887.64
881.64	2940.88
881.80	2779.09
881.97	2906.07
882.13	2777.05
882.30	2682.84
882.47	2906.07
882.63	2713.56
882.80	2748.37
882.96	2883.54
883.13	3221.45
883.29	2740.18
883.46	2752.47
883.62	3393.48
883.79	3008.47
883.95	2920.40
884.12	2717.65
884.29	3235.79
884.45	2940.88
884.62	2818.00
884.78	2670.55
884.95	3289.04
885.11	2815.96
885.28	2879.44
885.44	2772.95
885.61	3117.01
885.77	3241.93
885.94	2856.92
886.10	2805.72
886.27	3043.28
886.43	3262.41
886.60	2949.08
886.76	2783.19
886.93	2920.40
887.09	3033.04
887.26	2611.16
887.42	2779.09
887.59	3155.92
887.75	3348.43
887.92	2904.02
888.08	2805.72
888.25	3364.81
888.41	3067.86
888.58	2809.81
888.74	2729.94
888.91	2805.72
>>>>>End Processed Spectral Data<<<<<
