SpectraSuite Data File
++++++++++++++++++++++++++++++++++++
Date: Thu May 05 21:10:46 CEST 2016
User: root
Dark Spectrum Present: No
Reference Spectrum Present: No
Number of Sampled Component Spectra: 1
Spectrometers: USB4C02835
Integration Time (usec): 100000 (USB4C02835)
Spectra Averaged: 1 (USB4C02835)
Boxcar Smoothing: 0 (USB4C02835)
Correct for Electrical Dark: No (USB4C02835)
Strobe/Lamp Enabled: No (USB4C02835)
Correct for Detector Non-linearity: No (USB4C02835)
Correct for Stray Light: No (USB4C02835)
Number of Pixels in Processed Spectrum: 3648
>>>>>Begin Processed Spectral Data<<<<<
177.47	2158.56
177.69	2158.56
177.91	2158.56
178.13	2111.46
178.36	2150.37
178.58	2842.58
178.80	2897.88
179.02	2719.70
179.24	2836.44
179.46	2615.26
179.68	2641.88
179.90	2936.79
180.13	3098.58
180.35	2594.78
180.57	2574.30
180.79	3123.15
181.01	2949.08
181.23	2676.70
181.45	2813.91
181.67	3102.67
181.90	3104.72
182.12	2703.32
182.34	2576.34
182.56	3106.77
182.78	3041.23
183.00	2654.17
183.22	2688.98
183.44	2684.89
183.66	3497.93
183.89	2772.95
184.11	2709.46
184.33	3102.67
184.55	3184.59
184.77	2684.89
184.99	2596.82
185.21	2973.65
185.43	3491.79
185.65	2725.85
185.87	2633.69
186.10	3430.35
186.32	3405.77
186.54	2822.10
186.76	2736.09
186.98	3211.22
187.20	2957.27
187.42	2740.18
187.64	2658.26
187.86	2942.93
188.08	3221.45
188.30	2664.41
188.52	2738.13
188.75	3231.69
188.97	3200.98
189.19	2719.70
189.41	2656.22
189.63	3039.19
189.85	2865.11
190.07	2568.15
190.29	2445.27
190.51	3053.52
190.73	2832.34
190.95	2885.59
191.17	2787.29
191.39	2764.76
191.61	3010.51
191.84	2672.60
192.06	2795.48
192.28	2721.75
192.50	3526.60
192.72	2783.19
192.94	2772.95
193.16	3243.98
193.38	3053.52
193.60	2596.82
193.82	2772.95
194.04	3157.97
194.26	2977.75
194.48	2705.37
194.70	2738.13
194.92	2965.46
195.14	3078.10
195.36	2592.73
195.58	2762.71
195.80	2983.89
196.02	2871.25
196.24	2643.93
196.46	2754.52
196.69	2936.79
196.91	3387.34
197.13	2611.16
197.35	2744.28
197.57	3270.61
197.79	3022.80
198.01	2775.00
198.23	2656.22
198.45	3006.42
198.67	2803.67
198.89	2508.76
199.11	2750.42
199.33	2854.87
199.55	2625.50
199.77	2619.35
199.99	2844.63
200.21	2942.93
200.43	3010.51
200.65	2535.39
200.87	2514.91
201.09	3028.95
201.31	3055.57
201.53	2717.65
201.75	2740.18
201.97	3104.72
202.19	3014.61
202.41	2791.38
202.63	2824.15
202.85	3051.47
203.07	2930.64
203.29	2754.52
203.51	2666.46
203.73	2885.59
203.95	3416.01
204.17	2615.26
204.39	2836.44
204.61	2947.03
204.83	2916.31
205.05	2871.25
205.27	2705.37
205.49	3385.29
205.71	2936.79
205.93	2551.77
206.15	2541.53
206.37	2971.60
206.59	2865.11
206.81	2535.39
207.03	2596.82
207.25	2742.23
207.47	3172.30
207.69	2643.93
207.91	2906.07
208.13	3252.17
208.34	2889.68
208.56	2627.54
208.78	2629.59
209.00	2936.79
209.22	2893.78
209.44	2686.94
209.66	2650.07
209.88	3024.85
210.10	2957.27
210.32	2746.33
210.54	2711.51
210.76	2975.70
210.98	3282.89
211.20	2574.30
211.42	2709.46
211.64	3254.22
211.86	3026.90
212.08	2750.42
212.30	2738.13
212.52	2805.72
212.74	3035.09
212.96	2785.24
213.17	2731.99
213.39	3123.15
213.61	3248.08
213.83	2699.22
214.05	2594.78
214.27	3102.67
214.49	2830.29
214.71	2639.83
214.93	2824.15
215.15	3018.71
215.37	3170.26
215.59	2553.82
215.81	2813.91
216.03	3266.51
216.24	2977.75
216.46	2680.79
216.68	2768.85
216.90	3151.82
217.12	3233.74
217.34	2713.56
217.56	2877.40
217.78	3299.28
218.00	3055.57
218.22	2758.61
218.44	2723.80
218.66	3024.85
218.87	3432.40
219.09	2721.75
219.31	2725.85
219.53	3020.75
219.75	2922.45
219.97	2662.36
220.19	2723.80
220.41	2934.74
220.63	3305.42
220.85	2705.37
221.06	2662.36
221.28	3194.83
221.50	3088.34
221.72	2686.94
221.94	2566.10
222.16	3082.19
222.38	3155.92
222.60	2656.22
222.82	2648.02
223.03	3123.15
223.25	2770.90
223.47	2602.97
223.69	2895.83
223.91	3082.19
224.13	2992.08
224.35	2602.97
224.57	2852.82
224.78	3088.34
225.00	2813.91
225.22	2756.57
225.44	2672.60
225.66	3135.44
225.88	2940.88
226.10	2822.10
226.32	2656.22
226.53	3235.79
226.75	2918.36
226.97	2717.65
227.19	2709.46
227.41	2875.35
227.63	2906.07
227.85	2504.67
228.06	2785.24
228.28	2994.13
228.50	3037.14
228.72	2523.10
228.94	2717.65
229.16	2734.04
229.37	2713.56
229.59	2592.73
229.81	2910.16
230.03	2949.08
230.25	2785.24
230.47	2488.28
230.69	2566.10
230.90	3153.87
231.12	2932.69
231.34	2748.37
231.56	2650.07
231.78	2750.42
232.00	2979.79
232.21	2770.90
232.43	2709.46
232.65	2598.87
232.87	3125.20
233.09	2607.06
233.30	2594.78
233.52	3176.40
233.74	2981.84
233.96	2574.30
234.18	2770.90
234.40	2959.31
234.61	3411.92
234.83	2660.31
235.05	2631.64
235.27	3418.06
235.49	3190.74
235.70	2586.58
235.92	2705.37
236.14	3071.95
236.36	3319.76
236.58	2578.39
236.79	2797.53
237.01	2965.46
237.23	2975.70
237.45	2869.20
237.67	2674.65
237.88	3065.81
238.10	3282.89
238.32	2602.97
238.54	2674.65
238.76	2994.13
238.97	2842.58
239.19	2619.35
239.41	2678.74
239.63	3278.80
239.85	2965.46
240.06	2695.13
240.28	2719.70
240.50	3174.35
240.72	3037.14
240.93	2592.73
241.15	2770.90
241.37	3024.85
241.59	3184.59
241.81	2625.50
242.02	2727.89
242.24	3043.28
242.46	3106.77
242.68	2541.53
242.89	2688.98
243.11	3117.01
243.33	3084.24
243.55	2748.37
243.76	2682.84
243.98	2838.48
244.20	2912.21
244.42	2678.74
244.64	2682.84
244.85	2756.57
245.07	2797.53
245.29	2645.98
245.51	2699.22
245.72	3000.27
245.94	3162.06
246.16	2668.50
246.38	2750.42
246.59	2885.59
246.81	2899.92
247.03	2611.16
247.24	2566.10
247.46	2830.29
247.68	3026.90
247.90	2580.44
248.11	2697.17
248.33	3125.20
248.55	2994.13
248.77	2701.27
248.98	2805.72
249.20	3203.02
249.42	3051.47
249.64	2699.22
249.85	2668.50
250.07	2865.11
250.29	3057.62
250.50	2842.58
250.72	2611.16
250.94	3028.95
251.16	3379.15
251.37	2684.89
251.59	2813.91
251.81	3149.78
252.02	3205.07
252.24	2691.03
252.46	2766.81
252.68	2762.71
252.89	2834.39
253.11	2508.76
253.33	2850.77
253.54	3330.00
253.76	2813.91
253.98	2674.65
254.20	2652.12
254.41	2807.77
254.63	3008.47
254.85	2596.82
255.06	2742.23
255.28	3014.61
255.50	3026.90
255.71	2607.06
255.93	2570.20
256.15	2893.78
256.36	2987.99
256.58	2629.59
256.80	2662.36
257.02	2930.64
257.23	2901.97
257.45	2678.74
257.67	2783.19
257.88	2893.78
258.10	3037.14
258.32	2633.69
258.53	2801.62
258.75	3342.28
258.97	2942.93
259.18	2666.46
259.40	2648.02
259.62	3278.80
259.83	3211.22
260.05	2721.75
260.27	3487.69
260.48	3168.21
260.70	2822.10
260.92	2566.10
261.13	2701.27
261.35	2977.75
261.57	3114.96
261.78	2598.87
262.00	2617.30
262.22	3069.91
262.43	2783.19
262.65	2713.56
262.86	2734.04
263.08	3430.35
263.30	2979.79
263.51	2523.10
263.73	2580.44
263.95	3272.65
264.16	2887.64
264.38	2605.02
264.60	2625.50
264.81	2985.94
265.03	3157.97
265.25	2987.99
265.46	2629.59
265.68	3209.17
265.89	3086.29
266.11	2619.35
266.33	2617.30
266.54	3205.07
266.76	3045.33
266.98	2760.66
267.19	2781.14
267.41	3164.11
267.62	2924.50
267.84	2539.48
268.06	2787.29
268.27	3014.61
268.49	3149.78
268.70	2680.79
268.92	2691.03
269.14	2875.35
269.35	2756.57
269.57	2760.66
269.79	2826.20
270.00	2881.49
270.22	3309.52
270.43	2459.61
270.65	2504.67
270.87	3020.75
271.08	3074.00
271.30	2805.72
271.51	2703.32
271.73	3119.06
271.95	3213.26
272.16	2693.08
272.38	2768.85
272.59	2881.49
272.81	3117.01
273.02	2731.99
273.24	2688.98
273.46	3192.78
273.67	2795.48
273.89	2615.26
274.10	2600.92
274.32	3229.65
274.54	2977.75
274.75	2713.56
274.97	2781.14
275.18	3088.34
275.40	3088.34
275.61	2752.47
275.83	2824.15
276.05	2742.23
276.26	2951.12
276.48	2754.52
276.69	2785.24
276.91	2926.55
277.12	3246.03
277.34	2897.88
277.55	2990.03
277.77	3055.57
277.99	2926.55
278.20	2768.85
278.42	2684.89
278.63	2863.06
278.85	2803.67
279.06	2815.96
279.28	2865.11
279.49	3117.01
279.71	3082.19
279.93	2861.01
280.14	2824.15
280.36	2826.20
280.57	3215.31
280.79	2863.06
281.00	2697.17
281.22	2930.64
281.43	3241.93
281.65	2621.40
281.86	2686.94
282.08	3094.48
282.29	3301.33
282.51	2648.02
282.73	2658.26
282.94	2740.18
283.16	3129.30
283.37	2897.88
283.59	2858.96
283.80	3139.54
284.02	2992.08
284.23	2815.96
284.45	2838.48
284.66	2838.48
284.88	2883.54
285.09	2758.61
285.31	2869.20
285.52	2963.41
285.74	2701.27
285.95	2940.88
286.17	2840.53
286.38	3225.55
286.60	2856.92
286.81	2729.94
287.03	2764.76
287.24	2926.55
287.46	3043.28
287.67	2914.26
287.89	3030.99
288.10	2973.65
288.32	2951.12
288.53	2973.65
288.75	2865.11
288.96	3082.19
289.18	2949.08
289.39	2807.77
289.61	2854.87
289.82	3348.43
290.04	3276.75
290.25	2670.55
290.47	2787.29
290.68	2977.75
290.90	3215.31
291.11	2602.97
291.33	2932.69
291.54	2912.21
291.76	2877.40
291.97	2854.87
292.18	2893.78
292.40	2865.11
292.61	2836.44
292.83	3049.43
293.04	2901.97
293.26	2994.13
293.47	2914.26
293.69	2709.46
293.90	2695.13
294.12	3149.78
294.33	2979.79
294.55	2785.24
294.76	2992.08
294.97	3276.75
295.19	3395.53
295.40	2725.85
295.62	2938.84
295.83	3127.25
296.05	2836.44
296.26	2944.98
296.48	2791.38
296.69	2942.93
296.90	3010.51
297.12	2901.97
297.33	2920.40
297.55	3000.27
297.76	3137.49
297.98	2885.59
298.19	2969.55
298.41	2934.74
298.62	2838.48
298.83	2949.08
299.05	2850.77
299.26	2914.26
299.48	2803.67
299.69	2889.68
299.90	2803.67
300.12	2895.83
300.33	3041.23
300.55	2906.07
300.76	2883.54
300.98	2791.38
301.19	3084.24
301.40	2820.05
301.62	2799.57
301.83	3090.38
302.05	3010.51
302.26	2848.72
302.47	2891.73
302.69	2828.24
302.90	2953.17
303.12	2598.87
303.33	2920.40
303.54	3327.95
303.76	2848.72
303.97	2783.19
304.19	3071.95
304.40	2795.48
304.61	3112.91
304.83	2959.31
305.04	2928.60
305.26	3108.82
305.47	2815.96
305.68	2813.91
305.90	2723.80
306.11	3172.30
306.33	2942.93
306.54	2717.65
306.75	2731.99
306.97	2756.57
307.18	2875.35
307.39	2758.61
307.61	2793.43
307.82	2926.55
308.04	3065.81
308.25	2736.09
308.46	3000.27
308.68	2973.65
308.89	2967.51
309.10	2922.45
309.32	2783.19
309.53	3035.09
309.74	2998.23
309.96	2744.28
310.17	2922.45
310.39	2926.55
310.60	3139.54
310.81	2811.86
311.03	2701.27
311.24	3168.21
311.45	2940.88
311.67	3014.61
311.88	2838.48
312.09	2832.34
312.31	2869.20
312.52	2750.42
312.73	2834.39
312.95	2750.42
313.16	2815.96
313.37	3022.80
313.59	2906.07
313.80	3151.82
314.01	3233.74
314.23	2838.48
314.44	2731.99
314.65	2789.33
314.87	2901.97
315.08	2754.52
315.29	2762.71
315.51	2844.63
315.72	2697.17
315.93	2869.20
316.15	2809.81
316.36	2899.92
316.57	2973.65
316.79	2852.82
317.00	2766.81
317.21	3076.05
317.43	2863.06
317.64	2852.82
317.85	2734.04
318.07	2858.96
318.28	2904.02
318.49	2990.03
318.70	3024.85
318.92	3053.52
319.13	3033.04
319.34	2957.27
319.56	2772.95
319.77	3045.33
319.98	3147.73
320.20	3067.86
320.41	2973.65
320.62	3008.47
320.83	2850.77
321.05	3002.32
321.26	2887.64
321.47	3016.66
321.69	3246.03
321.90	2691.03
322.11	2781.14
322.32	2975.70
322.54	3297.23
322.75	2828.24
322.96	3520.46
323.18	2746.33
323.39	2717.65
323.60	2701.27
323.81	2793.43
324.03	2858.96
324.24	3014.61
324.45	2881.49
324.66	2760.66
324.88	3190.74
325.09	3217.36
325.30	2762.71
325.52	2791.38
325.73	3022.80
325.94	2879.44
326.15	2713.56
326.37	2705.37
326.58	3096.53
326.79	3397.58
327.00	2791.38
327.22	2856.92
327.43	2944.98
327.64	2752.47
327.85	2873.30
328.07	2805.72
328.28	3289.04
328.49	2871.25
328.70	2768.85
328.92	2836.44
329.13	2938.84
329.34	3088.34
329.55	3016.66
329.76	2910.16
329.98	2914.26
330.19	3149.78
330.40	2883.54
330.61	2822.10
330.83	3133.39
331.04	2824.15
331.25	2867.16
331.46	2811.86
331.68	2772.95
331.89	3133.39
332.10	2807.77
332.31	2660.31
332.52	3069.91
332.74	3223.50
332.95	2641.88
333.16	2809.81
333.37	3190.74
333.58	2899.92
333.80	2820.05
334.01	2600.92
334.22	3006.42
334.43	2807.77
334.64	2766.81
334.86	2734.04
335.07	2801.62
335.28	3246.03
335.49	2736.09
335.70	2906.07
335.92	3198.93
336.13	3350.48
336.34	2834.39
336.55	2795.48
336.76	3061.71
336.98	2627.54
337.19	2842.58
337.40	2912.21
337.61	3434.44
337.82	2957.27
338.04	2914.26
338.25	2590.68
338.46	2959.31
338.67	2922.45
338.88	2697.17
339.09	2707.41
339.31	2920.40
339.52	2803.67
339.73	2721.75
339.94	2901.97
340.15	3041.23
340.36	2854.87
340.58	2889.68
340.79	2707.41
341.00	3028.95
341.21	2789.33
341.42	2990.03
341.63	2824.15
341.85	3086.29
342.06	2985.94
342.27	2787.29
342.48	2973.65
342.69	2740.18
342.90	3002.32
343.12	3125.20
343.33	2744.28
343.54	3129.30
343.75	3192.78
343.96	2871.25
344.17	2617.30
344.38	2889.68
344.60	2813.91
344.81	2719.70
345.02	2770.90
345.23	3178.45
345.44	3311.57
345.65	2893.78
345.86	2852.82
346.07	2949.08
346.29	2772.95
346.50	2955.22
346.71	2854.87
346.92	3229.65
347.13	3452.88
347.34	2811.86
347.55	2680.79
347.76	3114.96
347.98	2736.09
348.19	2840.53
348.40	2944.98
348.61	2889.68
348.82	3235.79
349.03	2910.16
349.24	2787.29
349.45	3305.42
349.66	2688.98
349.88	2797.53
350.09	2684.89
350.30	3174.35
350.51	3248.08
350.72	2897.88
350.93	2822.10
351.14	2891.73
351.35	3006.42
351.56	2844.63
351.77	2785.24
351.99	3117.01
352.20	3262.41
352.41	2906.07
352.62	2627.54
352.83	2973.65
353.04	2959.31
353.25	2746.33
353.46	2871.25
353.67	3209.17
353.88	2674.65
354.09	2738.13
354.30	2795.48
354.52	3143.63
354.73	2951.12
354.94	2752.47
355.15	2861.01
355.36	3370.96
355.57	2877.40
355.78	2842.58
355.99	2787.29
356.20	2887.64
356.41	3211.22
356.62	2842.58
356.83	2807.77
357.04	3260.37
357.25	2684.89
357.46	2863.06
357.68	2619.35
357.89	2777.05
358.10	2959.31
358.31	2766.81
358.52	2830.29
358.73	2824.15
358.94	2742.23
359.15	2754.52
359.36	2861.01
359.57	2912.21
359.78	2955.22
359.99	2971.60
360.20	2691.03
360.41	2959.31
360.62	3088.34
360.83	2879.44
361.04	2840.53
361.25	3076.05
361.46	3344.33
361.67	2930.64
361.88	2850.77
362.09	3209.17
362.30	3002.32
362.51	2711.51
362.72	2904.02
362.93	3133.39
363.14	3033.04
363.35	2881.49
363.56	2703.32
363.78	3137.49
363.99	3119.06
364.20	2758.61
364.41	2893.78
364.62	3327.95
364.83	3014.61
365.04	2852.82
365.25	2873.30
365.46	3252.17
365.67	2873.30
365.88	2891.73
366.09	2824.15
366.30	2924.50
366.51	2957.27
366.72	2762.71
366.93	2787.29
367.14	2951.12
367.35	3198.93
367.56	2779.09
367.77	2852.82
367.98	2926.55
368.18	3045.33
368.39	2875.35
368.60	2770.90
368.81	3039.19
369.02	3076.05
369.23	2850.77
369.44	2713.56
369.65	2844.63
369.86	3082.19
370.07	2934.74
370.28	2697.17
370.49	3119.06
370.70	3018.71
370.91	2717.65
371.12	2674.65
371.33	3194.83
371.54	2883.54
371.75	2949.08
371.96	2596.82
372.17	3053.52
372.38	2963.41
372.59	2803.67
372.80	2799.57
373.01	2932.69
373.22	3055.57
373.43	2744.28
373.64	2672.60
373.85	3213.26
374.06	3293.13
374.26	2990.03
374.47	2973.65
374.68	3280.85
374.89	3051.47
375.10	2828.24
375.31	2975.70
375.52	2957.27
375.73	2955.22
375.94	2662.36
376.15	2932.69
376.36	2822.10
376.57	2863.06
376.78	2787.29
376.99	2811.86
377.20	3246.03
377.40	2901.97
377.61	3074.00
377.82	2801.62
378.03	3243.98
378.24	3102.67
378.45	2901.97
378.66	2889.68
378.87	2758.61
379.08	2801.62
379.29	2858.96
379.50	3045.33
379.71	2883.54
379.91	3092.43
380.12	2756.57
380.33	2828.24
380.54	3018.71
380.75	3016.66
380.96	2797.53
381.17	2852.82
381.38	2990.03
381.59	2979.79
381.80	2811.86
382.00	3008.47
382.21	3090.38
382.42	3327.95
382.63	3164.11
382.84	2926.55
383.05	3059.67
383.26	3176.40
383.47	2873.30
383.68	2818.00
383.88	3100.62
384.09	3022.80
384.30	3051.47
384.51	2916.31
384.72	2885.59
384.93	2750.42
385.14	2885.59
385.35	3010.51
385.55	2725.85
385.76	3162.06
385.97	2805.72
386.18	2654.17
386.39	2723.80
386.60	2951.12
386.81	2809.81
387.02	2709.46
387.22	2744.28
387.43	3106.77
387.64	2861.01
387.85	3067.86
388.06	3074.00
388.27	3968.96
388.48	7307.15
388.68	10921.82
388.89	13420.34
389.10	14616.35
389.31	14229.29
389.52	11325.27
389.73	9680.75
389.93	8830.84
390.14	8171.40
390.35	7356.30
390.56	6789.02
390.77	5642.15
390.98	4206.53
391.18	3592.14
391.39	3336.14
391.60	3006.42
391.81	3039.19
392.02	2885.59
392.23	3389.39
392.43	3035.09
392.64	2930.64
392.85	2916.31
393.06	3301.33
393.27	2977.75
393.47	2801.62
393.68	2840.53
393.89	2932.69
394.10	3168.21
394.31	2754.52
394.52	2703.32
394.72	2885.59
394.93	3170.26
395.14	2715.61
395.35	2893.78
395.56	2840.53
395.76	2922.45
395.97	2858.96
396.18	2942.93
396.39	2992.08
396.60	3581.90
396.80	3162.06
397.01	2985.94
397.22	3078.10
397.43	3211.22
397.64	2854.87
397.84	2867.16
398.05	3264.46
398.26	2928.60
398.47	2901.97
398.67	3012.56
398.88	2901.97
399.09	3119.06
399.30	2756.57
399.51	2996.18
399.71	2885.59
399.92	2856.92
400.13	2856.92
400.34	2824.15
400.54	2992.08
400.75	3301.33
400.96	3016.66
401.17	3112.91
401.37	3078.10
401.58	2973.65
401.79	2775.00
402.00	2879.44
402.21	3530.70
402.41	3172.30
402.62	3127.25
402.83	3233.74
403.04	3438.54
403.24	3637.19
403.45	2916.31
403.66	3117.01
403.87	3266.51
404.07	3223.50
404.28	3082.19
404.49	3157.97
404.70	3135.44
404.90	3045.33
405.11	2848.72
405.32	2938.84
405.52	2906.07
405.73	2844.63
405.94	2750.42
406.15	2813.91
406.35	3139.54
406.56	3053.52
406.77	2979.79
406.98	2818.00
407.18	2818.00
407.39	3225.55
407.60	2893.78
407.80	2992.08
408.01	2928.60
408.22	3106.77
408.43	2648.02
408.63	2961.36
408.84	3139.54
409.05	3186.64
409.25	2797.53
409.46	2865.11
409.67	2916.31
409.88	2934.74
410.08	2858.96
410.29	2811.86
410.50	3086.29
410.70	3024.85
410.91	2695.13
411.12	2908.12
411.32	3043.28
411.53	2842.58
411.74	2875.35
411.95	2910.16
412.15	3063.76
412.36	3096.53
412.57	3059.67
412.77	3002.32
412.98	2971.60
413.19	2957.27
413.39	2934.74
413.60	2904.02
413.81	3213.26
414.01	2815.96
414.22	2748.37
414.43	3006.42
414.63	2928.60
414.84	3196.88
415.05	2928.60
415.25	2707.41
415.46	3164.11
415.67	2820.05
415.87	2826.20
416.08	2818.00
416.29	2940.88
416.49	3043.28
416.70	2756.57
416.91	2861.01
417.11	2828.24
417.32	3149.78
417.53	2940.88
417.73	2934.74
417.94	2959.31
418.15	3028.95
418.35	2961.36
418.56	2846.68
418.77	3418.06
418.97	3049.43
419.18	2910.16
419.38	2527.19
419.59	3012.56
419.80	3235.79
420.00	2832.34
420.21	2775.00
420.42	3221.45
420.62	3082.19
420.83	2850.77
421.04	2901.97
421.24	3014.61
421.45	3026.90
421.65	2883.54
421.86	2813.91
422.07	3147.73
422.27	3022.80
422.48	2830.29
422.69	2633.69
422.89	2975.70
423.10	2912.21
423.30	2691.03
423.51	2852.82
423.72	3092.43
423.92	3096.53
424.13	2719.70
424.33	2932.69
424.54	3123.15
424.75	3008.47
424.95	3053.52
425.16	2803.67
425.36	2893.78
425.57	3153.87
425.78	2918.36
425.98	2918.36
426.19	2906.07
426.39	2836.44
426.60	2928.60
426.81	2998.23
427.01	3014.61
427.22	2832.34
427.42	2576.34
427.63	2717.65
427.83	3080.14
428.04	3284.94
428.25	2854.87
428.45	3030.99
428.66	3106.77
428.86	2955.22
429.07	2881.49
429.28	2832.34
429.48	2944.98
429.69	2826.20
429.89	2916.31
430.10	2772.95
430.30	3076.05
430.51	3237.84
430.71	2779.09
430.92	2914.26
431.13	2944.98
431.33	3184.59
431.54	2906.07
431.74	3100.62
431.95	3368.91
432.15	2832.34
432.36	2906.07
432.56	2910.16
432.77	3309.52
432.98	3258.32
433.18	2961.36
433.39	2721.75
433.59	2957.27
433.80	3342.28
434.00	3039.19
434.21	2871.25
434.41	2805.72
434.62	3405.77
434.82	2772.95
435.03	2748.37
435.23	3123.15
435.44	2758.61
435.64	2779.09
435.85	2959.31
436.06	3065.81
436.26	3065.81
436.47	2895.83
436.67	2822.10
436.88	2977.75
437.08	3074.00
437.29	2992.08
437.49	3004.37
437.70	3067.86
437.90	2981.84
438.11	3000.27
438.31	2883.54
438.52	3268.56
438.72	3112.91
438.93	3143.63
439.13	2926.55
439.34	3137.49
439.54	2951.12
439.75	2967.51
439.95	2906.07
440.16	2875.35
440.36	2932.69
440.57	2856.92
440.77	2856.92
440.98	2930.64
441.18	3055.57
441.39	2803.67
441.59	2717.65
441.80	3383.24
442.00	3018.71
442.21	2893.78
442.41	2652.12
442.62	3121.10
442.82	2865.11
443.02	2783.19
443.23	2842.58
443.43	2957.27
443.64	3160.02
443.84	2752.47
444.05	2951.12
444.25	2949.08
444.46	2852.82
444.66	2838.48
444.87	3061.71
445.07	2650.07
445.28	2969.55
445.48	3014.61
445.69	2944.98
445.89	3467.21
446.09	2852.82
446.30	3166.16
446.50	3274.70
446.71	4728.76
446.91	5738.41
447.12	6559.64
447.32	6940.57
447.53	6868.89
447.73	5707.69
447.93	5115.83
448.14	4745.14
448.34	4800.44
448.55	4085.70
448.75	4128.70
448.96	3776.45
449.16	3612.62
449.36	3596.23
449.57	3026.90
449.77	2811.86
449.98	2887.64
450.18	3057.62
450.39	2830.29
450.59	3065.81
450.79	2916.31
451.00	2926.55
451.20	2963.41
451.41	2746.33
451.61	3059.67
451.81	3100.62
452.02	2752.47
452.22	2869.20
452.43	2904.02
452.63	2852.82
452.84	2871.25
453.04	2803.67
453.24	3084.24
453.45	2811.86
453.65	2942.93
453.86	2899.92
454.06	3035.09
454.26	2951.12
454.47	2858.96
454.67	2990.03
454.87	3028.95
455.08	2916.31
455.28	3014.61
455.49	2977.75
455.69	2838.48
455.89	3311.57
456.10	2938.84
456.30	2789.33
456.51	3157.97
456.71	3057.62
456.91	2914.26
457.12	2932.69
457.32	2981.84
457.52	2701.27
457.73	2979.79
457.93	3000.27
458.14	2901.97
458.34	2725.85
458.54	2838.48
458.75	2877.40
458.95	3162.06
459.15	3067.86
459.36	2918.36
459.56	2916.31
459.76	3364.81
459.97	3028.95
460.17	2848.72
460.37	2944.98
460.58	3000.27
460.78	3114.96
460.99	2912.21
461.19	2861.01
461.39	2844.63
461.60	2893.78
461.80	2938.84
462.00	2715.61
462.21	3059.67
462.41	2824.15
462.61	2797.53
462.82	2660.31
463.02	3082.19
463.22	3012.56
463.43	3010.51
463.63	2834.39
463.83	3192.78
464.04	3016.66
464.24	2801.62
464.44	2783.19
464.64	3004.37
464.85	3117.01
465.05	2875.35
465.25	2815.96
465.46	2881.49
465.66	3078.10
465.86	2938.84
466.07	2760.66
466.27	2920.40
466.47	2723.80
466.68	2750.42
466.88	2971.60
467.08	3074.00
467.29	3256.27
467.49	2887.64
467.69	2977.75
467.89	3125.20
468.10	2924.50
468.30	2848.72
468.50	2949.08
468.71	3037.14
468.91	2803.67
469.11	3030.99
469.31	2865.11
469.52	2838.48
469.72	3241.93
469.92	3030.99
470.13	2856.92
470.33	2965.46
470.53	3051.47
470.73	3241.93
470.94	3473.36
471.14	3669.96
471.34	4126.66
471.54	3895.24
471.75	3653.58
471.95	3348.43
472.15	3311.57
472.36	3260.37
472.56	3231.69
472.76	3502.03
472.96	3266.51
473.17	3117.01
473.37	2967.51
473.57	2924.50
473.77	3127.25
473.98	3000.27
474.18	2760.66
474.38	3465.16
474.58	2891.73
474.79	2756.57
474.99	2961.36
475.19	3213.26
475.39	2799.57
475.60	2959.31
475.80	2836.44
476.00	3035.09
476.20	2930.64
476.41	2885.59
476.61	2906.07
476.81	3180.50
477.01	2920.40
477.21	3006.42
477.42	2977.75
477.62	2824.15
477.82	3051.47
478.02	2858.96
478.23	2901.97
478.43	2826.20
478.63	2951.12
478.83	2873.30
479.03	2820.05
479.24	3225.55
479.44	3366.86
479.64	2731.99
479.84	2738.13
480.04	2889.68
480.25	3117.01
480.45	2783.19
480.65	2889.68
480.85	3207.12
481.06	2846.68
481.26	2910.16
481.46	2906.07
481.66	3074.00
481.86	2779.09
482.06	2932.69
482.27	2836.44
482.47	2947.03
482.67	3080.14
482.87	2869.20
483.07	2899.92
483.28	2895.83
483.48	2777.05
483.68	2861.01
483.88	2742.23
484.08	2709.46
484.29	2766.81
484.49	2944.98
484.69	2682.84
484.89	3213.26
485.09	3157.97
485.29	2885.59
485.50	3094.48
485.70	2916.31
485.90	3137.49
486.10	2971.60
486.30	2908.12
486.50	3209.17
486.71	3010.51
486.91	2901.97
487.11	2992.08
487.31	2805.72
487.51	3028.95
487.71	2754.52
487.91	2756.57
488.12	2803.67
488.32	2570.20
488.52	2858.96
488.72	2629.59
488.92	3028.95
489.12	3225.55
489.32	3028.95
489.53	2895.83
489.73	2783.19
489.93	3413.96
490.13	2826.20
490.33	2705.37
490.53	3071.95
490.73	3184.59
490.94	2631.64
491.14	2928.60
491.34	3014.61
491.54	3069.91
491.74	3637.19
491.94	4198.34
492.14	4569.02
492.34	4681.66
492.54	4321.21
492.75	3880.90
492.95	3942.34
493.15	3610.57
493.35	3491.79
493.55	3362.76
493.75	3235.79
493.95	3454.92
494.15	3002.32
494.35	2887.64
494.56	2963.41
494.76	2826.20
494.96	2985.94
495.16	2846.68
495.36	2994.13
495.56	2996.18
495.76	2869.20
495.96	2897.88
496.16	2869.20
496.36	3362.76
496.56	2924.50
496.77	2955.22
496.97	2936.79
497.17	3221.45
497.37	2660.31
497.57	2932.69
497.77	2985.94
497.97	2863.06
498.17	2834.39
498.37	2822.10
498.57	3086.29
498.77	2850.77
498.97	3004.37
499.17	3188.69
499.38	3024.85
499.58	3014.61
499.78	2979.79
499.98	3010.51
500.18	2893.78
500.38	2822.10
500.58	3063.76
500.78	3393.48
500.98	5498.80
501.18	7405.46
501.38	8773.50
501.58	9736.04
501.78	9592.69
501.98	7905.16
502.18	6659.99
502.38	5969.83
502.58	5689.26
502.78	5033.91
502.98	4868.02
503.18	4546.49
503.38	4247.49
503.59	3733.45
503.79	3585.99
503.99	3424.20
504.19	3452.88
504.39	3403.72
504.59	3377.10
504.79	3237.84
504.99	3467.21
505.19	3178.45
505.39	2973.65
505.59	3180.50
505.79	3276.75
505.99	3198.93
506.19	2885.59
506.39	3088.34
506.59	2873.30
506.79	2944.98
506.99	3061.71
507.19	2838.48
507.39	3053.52
507.59	2789.33
507.79	2832.34
507.99	2715.61
508.19	2967.51
508.39	2940.88
508.59	2809.81
508.79	2996.18
508.99	3358.67
509.19	2904.02
509.39	2936.79
509.59	2815.96
509.79	2811.86
509.99	3020.75
510.19	2967.51
510.39	3037.14
510.59	3022.80
510.79	3000.27
510.99	2637.78
511.19	2779.09
511.39	3354.57
511.59	3112.91
511.79	3037.14
511.99	2844.63
512.19	3284.94
512.38	3098.58
512.58	2768.85
512.78	2811.86
512.98	3246.03
513.18	3346.38
513.38	2795.48
513.58	2916.31
513.78	2959.31
513.98	2944.98
514.18	2797.53
514.38	2858.96
514.58	3102.67
514.78	2838.48
514.98	2869.20
515.18	2840.53
515.38	2811.86
515.58	3319.76
515.78	2840.53
515.98	2836.44
516.18	3117.01
516.38	2924.50
516.57	2820.05
516.77	2848.72
516.97	3055.57
517.17	2879.44
517.37	2621.40
517.57	2889.68
517.77	3008.47
517.97	2891.73
518.17	2887.64
518.37	2660.31
518.57	2879.44
518.77	2865.11
518.97	2873.30
519.16	2879.44
519.36	3196.88
519.56	2865.11
519.76	2736.09
519.96	2799.57
520.16	3188.69
520.36	2834.39
520.56	3033.04
520.76	2787.29
520.96	2938.84
521.16	3182.54
521.35	3047.38
521.55	2971.60
521.75	2965.46
521.95	2969.55
522.15	2803.67
522.35	2686.94
522.55	2873.30
522.75	3149.78
522.95	2756.57
523.14	2736.09
523.34	3051.47
523.54	2940.88
523.74	2934.74
523.94	2977.75
524.14	2785.24
524.34	3002.32
524.54	3053.52
524.73	2893.78
524.93	3059.67
525.13	2979.79
525.33	2777.05
525.53	3047.38
525.73	3133.39
525.93	2949.08
526.13	2899.92
526.32	2826.20
526.52	3151.82
526.72	3188.69
526.92	2815.96
527.12	2820.05
527.32	2713.56
527.52	3008.47
527.71	2881.49
527.91	2867.16
528.11	2973.65
528.31	2975.70
528.51	2854.87
528.71	3010.51
528.90	3153.87
529.10	3098.58
529.30	2912.21
529.50	2617.30
529.70	3045.33
529.90	2990.03
530.09	2801.62
530.29	2701.27
530.49	2791.38
530.69	3450.83
530.89	2891.73
531.09	2985.94
531.28	2850.77
531.48	3149.78
531.68	2871.25
531.88	2895.83
532.08	3168.21
532.28	2879.44
532.47	3018.71
532.67	3004.37
532.87	3108.82
533.07	2871.25
533.27	2910.16
533.46	2940.88
533.66	2994.13
533.86	3006.42
534.06	2881.49
534.26	2787.29
534.45	2901.97
534.65	3096.53
534.85	2979.79
535.05	2877.40
535.25	3190.74
535.44	2787.29
535.64	2916.31
535.84	2887.64
536.04	2973.65
536.24	2934.74
536.43	2871.25
536.63	2830.29
536.83	2955.22
537.03	2916.31
537.22	2734.04
537.42	2672.60
537.62	3022.80
537.82	2813.91
538.02	3028.95
538.21	2987.99
538.41	3477.45
538.61	3059.67
538.81	2922.45
539.00	2998.23
539.20	2709.46
539.40	2881.49
539.60	2875.35
539.79	3028.95
539.99	2979.79
540.19	2822.10
540.39	2783.19
540.58	2908.12
540.78	3276.75
540.98	3024.85
541.18	2990.03
541.37	2967.51
541.57	3061.71
541.77	3055.57
541.97	2738.13
542.16	2674.65
542.36	2822.10
542.56	2965.46
542.76	3096.53
542.95	2893.78
543.15	3127.25
543.35	3100.62
543.54	2826.20
543.74	2824.15
543.94	3205.07
544.14	2856.92
544.33	2973.65
544.53	2871.25
544.73	2924.50
544.93	2944.98
545.12	2858.96
545.32	2838.48
545.52	2928.60
545.71	2813.91
545.91	2850.77
546.11	2787.29
546.30	2791.38
546.50	2949.08
546.70	2947.03
546.90	2875.35
547.09	2639.83
547.29	2914.26
547.49	3045.33
547.68	2914.26
547.88	2912.21
548.08	3026.90
548.27	3260.37
548.47	2783.19
548.67	2856.92
548.87	3121.10
549.06	2846.68
549.26	2858.96
549.46	3035.09
549.65	2879.44
549.85	2832.34
550.05	2901.97
550.24	2779.09
550.44	3002.32
550.64	2871.25
550.83	2850.77
551.03	3184.59
551.23	3151.82
551.42	2848.72
551.62	2895.83
551.82	2971.60
552.01	2940.88
552.21	3139.54
552.41	2910.16
552.60	3196.88
552.80	2983.89
553.00	2834.39
553.19	2951.12
553.39	3299.28
553.59	2801.62
553.78	2914.26
553.98	2809.81
554.17	2809.81
554.37	3065.81
554.57	2951.12
554.76	2760.66
554.96	2893.78
555.16	2994.13
555.35	2947.03
555.55	3028.95
555.75	2955.22
555.94	3131.34
556.14	2742.23
556.33	2828.24
556.53	3039.19
556.73	2934.74
556.92	2861.01
557.12	2865.11
557.32	3383.24
557.51	3176.40
557.71	3028.95
557.90	3108.82
558.10	3203.02
558.30	2850.77
558.49	2840.53
558.69	2891.73
558.88	3053.52
559.08	2953.17
559.28	2893.78
559.47	2836.44
559.67	3143.63
559.86	3342.28
560.06	2826.20
560.26	2844.63
560.45	3131.34
560.65	2820.05
560.84	3147.73
561.04	2787.29
561.24	2992.08
561.43	2797.53
561.63	3112.91
561.82	2955.22
562.02	3135.44
562.22	2809.81
562.41	2754.52
562.61	2822.10
562.80	2824.15
563.00	3422.16
563.19	2867.16
563.39	2930.64
563.59	3102.67
563.78	2787.29
563.98	2625.50
564.17	2830.29
564.37	2719.70
564.56	2963.41
564.76	2654.17
564.96	3004.37
565.15	3065.81
565.35	3475.40
565.54	2797.53
565.74	2881.49
565.93	3121.10
566.13	2951.12
566.32	2949.08
566.52	3010.51
566.71	3014.61
566.91	3119.06
567.11	2971.60
567.30	2809.81
567.50	3100.62
567.69	3110.86
567.89	2785.24
568.08	2676.70
568.28	2961.36
568.47	2799.57
568.67	2832.34
568.86	2789.33
569.06	3030.99
569.25	2947.03
569.45	2672.60
569.64	2770.90
569.84	2901.97
570.04	3069.91
570.23	2865.11
570.43	2813.91
570.62	2971.60
570.82	3274.70
571.01	2758.61
571.21	2811.86
571.40	2850.77
571.60	3100.62
571.79	2928.60
571.99	2801.62
572.18	2807.77
572.38	3082.19
572.57	2883.54
572.77	2994.13
572.96	3461.07
573.16	3119.06
573.35	2809.81
573.55	3020.75
573.74	3082.19
573.94	2889.68
574.13	2877.40
574.33	3055.57
574.52	3135.44
574.71	2930.64
574.91	2895.83
575.10	2717.65
575.30	2901.97
575.49	2904.02
575.69	2719.70
575.88	2908.12
576.08	2983.89
576.27	3125.20
576.47	2834.39
576.66	3002.32
576.86	3186.64
577.05	3002.32
577.25	3020.75
577.44	3147.73
577.64	2901.97
577.83	3149.78
578.02	2908.12
578.22	3057.62
578.41	3309.52
578.61	2979.79
578.80	2750.42
579.00	2924.50
579.19	3010.51
579.39	3096.53
579.58	2971.60
579.77	2910.16
579.97	3129.30
580.16	3221.45
580.36	3026.90
580.55	2961.36
580.75	3076.05
580.94	3069.91
581.13	3053.52
581.33	3080.14
581.52	2983.89
581.72	3311.57
581.91	3065.81
582.11	2846.68
582.30	3184.59
582.49	3059.67
582.69	3250.13
582.88	2856.92
583.08	2992.08
583.27	3219.41
583.47	3018.71
583.66	2793.43
583.85	2789.33
584.05	2940.88
584.24	2967.51
584.44	2944.98
584.63	3203.02
584.82	3090.38
585.02	3092.43
585.21	3033.04
585.41	3098.58
585.60	3004.37
585.79	3010.51
585.99	3196.88
586.18	3020.75
586.37	3944.39
586.57	5875.62
586.76	16758.53
586.96	35513.83
587.15	48862.49
587.34	57328.79
587.54	61520.98
587.73	54799.55
587.93	39075.24
588.12	29740.60
588.31	24120.98
588.51	21239.48
588.70	19810.00
588.89	17284.86
589.09	14731.04
589.28	12855.10
589.47	9772.91
589.67	7620.49
589.86	6047.65
590.06	4630.46
590.25	4016.07
590.44	3573.71
590.64	3323.85
590.83	3260.37
591.02	3330.00
591.22	2889.68
591.41	2961.36
591.60	2926.55
591.80	3358.67
591.99	2729.94
592.18	2818.00
592.38	3155.92
592.57	2779.09
592.76	2850.77
592.96	3030.99
593.15	2953.17
593.34	3270.61
593.54	2807.77
593.73	2985.94
593.92	3139.54
594.12	3104.72
594.31	2973.65
594.50	3069.91
594.70	3037.14
594.89	3438.54
595.08	2758.61
595.28	2961.36
595.47	3475.40
595.66	3125.20
595.86	2772.95
596.05	2809.81
596.24	2942.93
596.43	3338.19
596.63	2973.65
596.82	3022.80
597.01	3125.20
597.21	3295.18
597.40	2901.97
597.59	2885.59
597.79	2981.84
597.98	3182.54
598.17	2975.70
598.36	2910.16
598.56	3153.87
598.75	2901.97
598.94	2967.51
599.14	2916.31
599.33	2910.16
599.52	3129.30
599.71	2920.40
599.91	2932.69
600.10	3114.96
600.29	3037.14
600.48	2897.88
600.68	2977.75
600.87	3028.95
601.06	2912.21
601.26	2969.55
601.45	3008.47
601.64	3053.52
601.83	3260.37
602.03	2809.81
602.22	2770.90
602.41	3217.36
602.60	3358.67
602.80	2926.55
602.99	3043.28
603.18	2809.81
603.37	2967.51
603.57	2740.18
603.76	2901.97
603.95	3198.93
604.14	2953.17
604.34	2873.30
604.53	2869.20
604.72	2994.13
604.91	3155.92
605.10	2813.91
605.30	2701.27
605.49	3393.48
605.68	3049.43
605.87	2949.08
606.07	2826.20
606.26	2998.23
606.45	3028.95
606.64	2897.88
606.84	2758.61
607.03	2992.08
607.22	3174.35
607.41	2908.12
607.60	2787.29
607.80	3164.11
607.99	2910.16
608.18	2830.29
608.37	2815.96
608.56	2908.12
608.76	3186.64
608.95	2947.03
609.14	2813.91
609.33	3182.54
609.52	3239.89
609.72	2938.84
609.91	2934.74
610.10	3074.00
610.29	3252.17
610.48	2994.13
610.68	2959.31
610.87	3037.14
611.06	3106.77
611.25	2904.02
611.44	3024.85
611.63	2940.88
611.83	3221.45
612.02	2746.33
612.21	3026.90
612.40	2787.29
612.59	2746.33
612.79	2850.77
612.98	2908.12
613.17	3297.23
613.36	3020.75
613.55	3047.38
613.74	2955.22
613.93	2981.84
614.13	3102.67
614.32	3026.90
614.51	2928.60
614.70	2910.16
614.89	2934.74
615.08	2971.60
615.28	3362.76
615.47	2842.58
615.66	3069.91
615.85	2916.31
616.04	2985.94
616.23	2987.99
616.42	3030.99
616.62	2844.63
616.81	2910.16
617.00	2994.13
617.19	3074.00
617.38	2832.34
617.57	2922.45
617.76	3139.54
617.95	3108.82
618.15	2967.51
618.34	3096.53
618.53	2815.96
618.72	3131.34
618.91	2994.13
619.10	2987.99
619.29	2957.27
619.48	2899.92
619.68	2742.23
619.87	2830.29
620.06	2775.00
620.25	3051.47
620.44	2815.96
620.63	2852.82
620.82	3000.27
621.01	2944.98
621.20	2897.88
621.39	2953.17
621.59	3002.32
621.78	2973.65
621.97	2828.24
622.16	3016.66
622.35	2998.23
622.54	3094.48
622.73	2979.79
622.92	2650.07
623.11	3061.71
623.30	2959.31
623.49	2920.40
623.68	2789.33
623.88	3205.07
624.07	2842.58
624.26	2867.16
624.45	2852.82
624.64	2885.59
624.83	3045.33
625.02	2889.68
625.21	2838.48
625.40	3078.10
625.59	3178.45
625.78	2846.68
625.97	2996.18
626.16	3145.68
626.35	3194.83
626.54	2914.26
626.74	3033.04
626.93	2910.16
627.12	2867.16
627.31	2981.84
627.50	2910.16
627.69	3114.96
627.88	2926.55
628.07	2815.96
628.26	2670.55
628.45	2918.36
628.64	2858.96
628.83	2875.35
629.02	2664.41
629.21	3119.06
629.40	3016.66
629.59	2781.14
629.78	2787.29
629.97	3090.38
630.16	3030.99
630.35	2834.39
630.54	2899.92
630.73	2861.01
630.92	2983.89
631.11	2793.43
631.30	2867.16
631.49	3211.22
631.68	3014.61
631.87	2881.49
632.06	2723.80
632.25	3393.48
632.44	2994.13
632.63	2930.64
632.82	2826.20
633.01	2871.25
633.20	3030.99
633.39	2834.39
633.58	2641.88
633.77	3020.75
633.96	3057.62
634.15	3090.38
634.34	2959.31
634.53	3041.23
634.72	2938.84
634.91	2684.89
635.10	2881.49
635.29	3100.62
635.48	2973.65
635.67	2775.00
635.86	2750.42
636.05	3194.83
636.24	3018.71
636.43	2781.14
636.62	2951.12
636.81	2621.40
637.00	2975.70
637.19	2842.58
637.38	2869.20
637.57	2926.55
637.76	2979.79
637.95	3020.75
638.14	2844.63
638.33	3037.14
638.52	3041.23
638.71	2727.89
638.89	2766.81
639.08	3452.88
639.27	3221.45
639.46	3030.99
639.65	3317.71
639.84	3295.18
640.03	3540.94
640.22	3221.45
640.41	3241.93
640.60	3071.95
640.79	3145.68
640.98	2867.16
641.17	3049.43
641.36	3170.26
641.55	3180.50
641.74	2768.85
641.92	2801.62
642.11	2779.09
642.30	2930.64
642.49	2801.62
642.68	2846.68
642.87	3022.80
643.06	3030.99
643.25	2811.86
643.44	2725.85
643.63	2881.49
643.82	3112.91
644.00	2828.24
644.19	2877.40
644.38	2822.10
644.57	3129.30
644.76	2928.60
644.95	2922.45
645.14	2967.51
645.33	2940.88
645.52	2930.64
645.71	2635.74
645.89	2852.82
646.08	2983.89
646.27	2815.96
646.46	3112.91
646.65	2758.61
646.84	3010.51
647.03	2779.09
647.22	3051.47
647.40	3086.29
647.59	2985.94
647.78	2695.13
647.97	2770.90
648.16	2852.82
648.35	3196.88
648.54	3129.30
648.73	2879.44
648.91	3114.96
649.10	3067.86
649.29	2748.37
649.48	2842.58
649.67	2979.79
649.86	3018.71
650.05	2879.44
650.23	3065.81
650.42	2809.81
650.61	3188.69
650.80	3012.56
650.99	3092.43
651.18	3137.49
651.36	3174.35
651.55	2787.29
651.74	3002.32
651.93	2947.03
652.12	2971.60
652.31	2891.73
652.49	2842.58
652.68	2789.33
652.87	3168.21
653.06	2897.88
653.25	3110.86
653.44	3020.75
653.62	3289.04
653.81	2840.53
654.00	2867.16
654.19	3129.30
654.38	3405.77
654.56	2891.73
654.75	2848.72
654.94	3137.49
655.13	3069.91
655.32	2809.81
655.51	2969.55
655.69	2963.41
655.88	3145.68
656.07	2693.08
656.26	2930.64
656.45	2779.09
656.63	2994.13
656.82	2797.53
657.01	3045.33
657.20	2836.44
657.38	3309.52
657.57	2828.24
657.76	2695.13
657.95	3166.16
658.14	2926.55
658.32	2850.77
658.51	2680.79
658.70	2992.08
658.89	3076.05
659.08	2883.54
659.26	3065.81
659.45	2828.24
659.64	3078.10
659.83	2832.34
660.01	3235.79
660.20	3000.27
660.39	3295.18
660.58	2680.79
660.76	2936.79
660.95	2795.48
661.14	3028.95
661.33	2742.23
661.51	2828.24
661.70	2914.26
661.89	3008.47
662.08	2940.88
662.26	2723.80
662.45	2865.11
662.64	3370.96
662.83	2938.84
663.01	2701.27
663.20	2920.40
663.39	3213.26
663.58	2820.05
663.76	2793.43
663.95	3024.85
664.14	2811.86
664.32	2830.29
664.51	2752.47
664.70	2770.90
664.89	2983.89
665.07	2627.54
665.26	2998.23
665.45	2723.80
665.64	3086.29
665.82	2799.57
666.01	2979.79
666.20	2785.24
666.38	3030.99
666.57	3121.10
666.76	4794.29
666.95	11118.42
667.13	17776.37
667.32	21442.23
667.51	24225.42
667.69	25423.48
667.88	21202.62
668.07	15378.20
668.25	12795.71
668.44	11032.41
668.63	9973.61
668.81	8454.02
669.00	7382.93
669.19	6778.78
669.38	5932.97
669.56	5038.00
669.75	4466.62
669.94	3993.54
670.12	3387.34
670.31	3110.86
670.50	3139.54
670.68	3143.63
670.87	3053.52
671.06	2852.82
671.24	2916.31
671.43	3297.23
671.62	3004.37
671.80	2783.19
671.99	2914.26
672.18	3033.04
672.36	3088.34
672.55	2998.23
672.74	2990.03
672.92	2813.91
673.11	3071.95
673.29	2738.13
673.48	3037.14
673.67	2949.08
673.85	3176.40
674.04	2813.91
674.23	2918.36
674.41	3354.57
674.60	2811.86
674.79	2674.65
674.97	2727.89
675.16	3096.53
675.34	3209.17
675.53	2834.39
675.72	2867.16
675.90	3332.05
676.09	2951.12
676.28	2922.45
676.46	2672.60
676.65	3094.48
676.83	2791.38
677.02	2889.68
677.21	2977.75
677.39	3074.00
677.58	2828.24
677.77	2879.44
677.95	2750.42
678.14	2850.77
678.32	2949.08
678.51	2863.06
678.70	3180.50
678.88	2871.25
679.07	3041.23
679.25	2908.12
679.44	2893.78
679.63	2799.57
679.81	3061.71
680.00	3082.19
680.18	2987.99
680.37	3160.02
680.55	2926.55
680.74	2684.89
680.93	2631.64
681.11	3053.52
681.30	3061.71
681.48	2895.83
681.67	2883.54
681.85	2959.31
682.04	2861.01
682.23	3002.32
682.41	2953.17
682.60	2918.36
682.78	2926.55
682.97	2805.72
683.15	2918.36
683.34	3024.85
683.53	3223.50
683.71	2713.56
683.90	2990.03
684.08	3301.33
684.27	2985.94
684.45	2938.84
684.64	3028.95
684.82	3022.80
685.01	3121.10
685.19	2893.78
685.38	3190.74
685.57	3045.33
685.75	2861.01
685.94	2803.67
686.12	2822.10
686.31	2875.35
686.49	3303.37
686.68	2674.65
686.86	2918.36
687.05	2992.08
687.23	3215.31
687.42	2832.34
687.60	2772.95
687.79	3143.63
687.97	3258.32
688.16	2969.55
688.34	3053.52
688.53	2688.98
688.71	3033.04
688.90	3088.34
689.08	2793.43
689.27	2731.99
689.45	3114.96
689.64	2912.21
689.82	2906.07
690.01	3008.47
690.19	3020.75
690.38	2947.03
690.56	3059.67
690.75	2760.66
690.93	2904.02
691.12	2795.48
691.30	2953.17
691.49	2891.73
691.67	2912.21
691.86	3110.86
692.04	2818.00
692.23	2865.11
692.41	2918.36
692.60	3151.82
692.78	3047.38
692.97	3006.42
693.15	3117.01
693.34	3102.67
693.52	2959.31
693.71	2811.86
693.89	2953.17
694.08	2705.37
694.26	2918.36
694.44	3131.34
694.63	3094.48
694.81	2684.89
695.00	2904.02
695.18	3194.83
695.37	3461.07
695.55	2928.60
695.74	2969.55
695.92	2889.68
696.10	3305.42
696.29	2750.42
696.47	2824.15
696.66	2762.71
696.84	2885.59
697.03	3004.37
697.21	3057.62
697.40	4472.76
697.58	3207.12
697.76	2873.30
697.95	2828.24
698.13	2766.81
698.32	2914.26
698.50	2787.29
698.68	2920.40
698.87	2979.79
699.05	3221.45
699.24	2852.82
699.42	2828.24
699.61	2983.89
699.79	2928.60
699.97	2899.92
700.16	2717.65
700.34	2736.09
700.53	3004.37
700.71	3108.82
700.89	2987.99
701.08	2938.84
701.26	3004.37
701.45	3274.70
701.63	2848.72
701.81	2848.72
702.00	2836.44
702.18	2940.88
702.37	2785.24
702.55	3139.54
702.73	3051.47
702.92	2916.31
703.10	3207.12
703.28	3129.30
703.47	2824.15
703.65	3037.14
703.84	3057.62
704.02	2875.35
704.20	3241.93
704.39	2799.57
704.57	2830.29
704.75	3059.67
704.94	3065.81
705.12	2914.26
705.30	3411.92
705.49	6748.06
705.67	12912.44
705.86	18456.29
706.04	20655.81
706.22	23115.42
706.41	22228.65
706.59	16940.80
706.77	13141.82
706.96	11390.80
707.14	10487.65
707.32	9013.11
707.51	7999.37
707.69	6434.72
707.87	5345.20
708.06	4620.22
708.24	4097.99
708.42	3569.61
708.61	3624.90
708.79	2932.69
708.97	3051.47
709.16	3080.14
709.34	2987.99
709.52	2848.72
709.71	2955.22
709.89	3106.77
710.07	2840.53
710.26	2822.10
710.44	2936.79
710.62	3110.86
710.80	2944.98
710.99	2992.08
711.17	2951.12
711.35	2875.35
711.54	2883.54
711.72	3076.05
711.90	2910.16
712.09	3049.43
712.27	2885.59
712.45	2922.45
712.63	2820.05
712.82	2996.18
713.00	2994.13
713.18	2965.46
713.37	3014.61
713.55	3121.10
713.73	3098.58
713.91	2887.64
714.10	2824.15
714.28	2944.98
714.46	3012.56
714.65	2990.03
714.83	2961.36
715.01	2932.69
715.19	2955.22
715.38	2836.44
715.56	3004.37
715.74	2840.53
715.92	2852.82
716.11	3065.81
716.29	2631.64
716.47	3000.27
716.65	2934.74
716.84	2721.75
717.02	2953.17
717.20	2736.09
717.38	2842.58
717.57	3002.32
717.75	2928.60
717.93	2861.01
718.11	3125.20
718.30	2742.23
718.48	2881.49
718.66	3184.59
718.84	3090.38
719.03	2877.40
719.21	2688.98
719.39	3205.07
719.57	3053.52
719.75	2961.36
719.94	2752.47
720.12	2873.30
720.30	2949.08
720.48	2949.08
720.67	2824.15
720.85	2842.58
721.03	2936.79
721.21	2740.18
721.39	2961.36
721.58	3076.05
721.76	2955.22
721.94	2818.00
722.12	2914.26
722.30	3258.32
722.49	2918.36
722.67	2881.49
722.85	2846.68
723.03	2803.67
723.21	2877.40
723.40	2881.49
723.58	3012.56
723.76	3135.44
723.94	3121.10
724.12	2983.89
724.30	3108.82
724.49	3155.92
724.67	2789.33
724.85	3026.90
725.03	2672.60
725.21	3106.77
725.40	3147.73
725.58	2899.92
725.76	3024.85
725.94	3071.95
726.12	2858.96
726.30	2871.25
726.49	2879.44
726.67	2863.06
726.85	3084.24
727.03	3321.81
727.21	4347.84
727.39	5478.32
727.57	5799.85
727.76	6238.11
727.94	6340.51
728.12	5586.86
728.30	4675.51
728.48	4433.85
728.66	4272.06
728.84	3930.05
729.03	3514.31
729.21	3442.64
729.39	3221.45
729.57	3008.47
729.75	2973.65
729.93	2940.88
730.11	2861.01
730.30	2885.59
730.48	2887.64
730.66	3016.66
730.84	3016.66
731.02	2918.36
731.20	2906.07
731.38	2953.17
731.56	2731.99
731.74	2744.28
731.93	2912.21
732.11	2934.74
732.29	2858.96
732.47	3104.72
732.65	2992.08
732.83	2979.79
733.01	2957.27
733.19	2850.77
733.37	3094.48
733.56	2904.02
733.74	2791.38
733.92	3252.17
734.10	2940.88
734.28	2992.08
734.46	2691.03
734.64	2873.30
734.82	2838.48
735.00	2809.81
735.18	2777.05
735.36	3030.99
735.54	2944.98
735.73	2766.81
735.91	2965.46
736.09	3168.21
736.27	2963.41
736.45	2910.16
736.63	2682.84
736.81	2861.01
736.99	3078.10
737.17	3035.09
737.35	2818.00
737.53	3055.57
737.71	2934.74
737.89	3065.81
738.07	2795.48
738.25	2815.96
738.43	2721.75
738.61	2899.92
738.80	2787.29
738.98	2844.63
739.16	2940.88
739.34	2783.19
739.52	3188.69
739.70	2944.98
739.88	2985.94
740.06	2977.75
740.24	2668.50
740.42	3151.82
740.60	2676.70
740.78	2803.67
740.96	2666.46
741.14	2963.41
741.32	3069.91
741.50	2688.98
741.68	3090.38
741.86	3155.92
742.04	2877.40
742.22	2797.53
742.40	2834.39
742.58	3074.00
742.76	2854.87
742.94	3033.04
743.12	2727.89
743.30	3002.32
743.48	2990.03
743.66	2836.44
743.84	2828.24
744.02	2953.17
744.20	2879.44
744.38	2813.91
744.56	2813.91
744.74	3325.90
744.92	3084.24
745.10	3100.62
745.28	2891.73
745.46	3299.28
745.64	2969.55
745.82	2891.73
746.00	2930.64
746.18	3006.42
746.36	2832.34
746.54	2940.88
746.72	2926.55
746.90	2840.53
747.08	3248.08
747.26	2850.77
747.44	2953.17
747.62	3059.67
747.80	3041.23
747.98	2987.99
748.15	2871.25
748.33	3272.65
748.51	2947.03
748.69	2936.79
748.87	2701.27
749.05	2889.68
749.23	2914.26
749.41	2809.81
749.59	2889.68
749.77	3168.21
749.95	2867.16
750.13	2856.92
750.31	2985.94
750.49	2940.88
750.67	3137.49
750.85	3063.76
751.03	2844.63
751.20	3317.71
751.38	2953.17
751.56	2897.88
751.74	2875.35
751.92	2848.72
752.10	2699.22
752.28	3069.91
752.46	2852.82
752.64	2994.13
752.82	2977.75
753.00	3071.95
753.18	2797.53
753.35	2891.73
753.53	2938.84
753.71	2889.68
753.89	2893.78
754.07	3057.62
754.25	3157.97
754.43	2942.93
754.61	2791.38
754.79	3067.86
754.97	2854.87
755.14	3084.24
755.32	2781.14
755.50	3092.43
755.68	2985.94
755.86	2725.85
756.04	2699.22
756.22	2721.75
756.40	3180.50
756.57	3164.11
756.75	2850.77
756.93	3147.73
757.11	3098.58
757.29	2838.48
757.47	2752.47
757.65	2809.81
757.82	2535.39
758.00	2850.77
758.18	2799.57
758.36	2805.72
758.54	3282.89
758.72	2688.98
758.90	3018.71
759.07	3106.77
759.25	2926.55
759.43	3022.80
759.61	2682.84
759.79	4310.97
759.97	3141.58
760.15	2971.60
760.32	2869.20
760.50	3110.86
760.68	3327.95
760.86	2748.37
761.04	3084.24
761.22	3123.15
761.39	2953.17
761.57	2930.64
761.75	2828.24
761.93	3018.71
762.11	3039.19
762.28	2955.22
762.46	2824.15
762.64	3178.45
762.82	2746.33
763.00	2881.49
763.18	3074.00
763.35	2799.57
763.53	3106.77
763.71	2918.36
763.89	2867.16
764.07	3026.90
764.24	3002.32
764.42	3006.42
764.60	2926.55
764.78	3086.29
764.96	3170.26
765.13	3067.86
765.31	2758.61
765.49	3133.39
765.67	2793.43
765.84	2826.20
766.02	2746.33
766.20	2750.42
766.38	3037.14
766.56	2957.27
766.73	2996.18
766.91	2975.70
767.09	2914.26
767.27	2973.65
767.44	2781.14
767.62	3078.10
767.80	2957.27
767.98	2801.62
768.15	2848.72
768.33	3100.62
768.51	3106.77
768.69	2985.94
768.87	2836.44
769.04	3053.52
769.22	3495.88
769.40	2940.88
769.58	3024.85
769.75	3024.85
769.93	3192.78
770.11	2904.02
770.28	2809.81
770.46	3094.48
770.64	3008.47
770.82	2863.06
770.99	2838.48
771.17	3125.20
771.35	2869.20
771.53	2844.63
771.70	2750.42
771.88	3088.34
772.06	2953.17
772.23	2846.68
772.41	2983.89
772.59	2936.79
772.77	2748.37
772.94	2920.40
773.12	2871.25
773.30	2820.05
773.47	2959.31
773.65	2813.91
773.83	2985.94
774.01	2920.40
774.18	2754.52
774.36	2854.87
774.54	2674.65
774.71	3045.33
774.89	2781.14
775.07	2736.09
775.24	2715.61
775.42	2869.20
775.60	3239.89
775.78	2820.05
775.95	2717.65
776.13	2783.19
776.31	2701.27
776.48	2957.27
776.66	3102.67
776.84	2951.12
777.01	2801.62
777.19	2750.42
777.37	2832.34
777.54	3043.28
777.72	3270.61
777.90	2944.98
778.07	2820.05
778.25	3534.79
778.43	3155.92
778.60	2809.81
778.78	2822.10
778.96	3252.17
779.13	2809.81
779.31	2912.21
779.49	2899.92
779.66	2912.21
779.84	2861.01
780.01	2834.39
780.19	2766.81
780.37	3227.60
780.54	3045.33
780.72	2701.27
780.90	2928.60
781.07	2944.98
781.25	2889.68
781.43	3004.37
781.60	2840.53
781.78	3114.96
781.95	2955.22
782.13	2838.48
782.31	2840.53
782.48	2619.35
782.66	3014.61
782.83	3104.72
783.01	2918.36
783.19	3143.63
783.36	2908.12
783.54	2744.28
783.72	2879.44
783.89	2856.92
784.07	3065.81
784.24	3014.61
784.42	3051.47
784.60	3076.05
784.77	3010.51
784.95	2609.11
785.12	2836.44
785.30	3002.32
785.47	2842.58
785.65	2785.24
785.83	2854.87
786.00	2987.99
786.18	2953.17
786.35	2779.09
786.53	2834.39
786.71	3119.06
786.88	3041.23
787.06	2889.68
787.23	2953.17
787.41	2852.82
787.58	2918.36
787.76	2756.57
787.94	2914.26
788.11	2938.84
788.29	2799.57
788.46	2854.87
788.64	2645.98
788.81	2863.06
788.99	2801.62
789.16	2686.94
789.34	2918.36
789.52	2824.15
789.69	2887.64
789.87	2676.70
790.04	2758.61
790.22	3059.67
790.39	3266.51
790.57	2752.47
790.74	2803.67
790.92	3119.06
791.09	2709.46
791.27	2901.97
791.44	2969.55
791.62	2975.70
791.79	3088.34
791.97	2901.97
792.15	3260.37
792.32	3080.14
792.50	3078.10
792.67	3010.51
792.85	3157.97
793.02	3016.66
793.20	2889.68
793.37	2758.61
793.55	2818.00
793.72	2783.19
793.90	2992.08
794.07	2803.67
794.25	2785.24
794.42	2983.89
794.60	2830.29
794.77	3004.37
794.95	3000.27
795.12	3004.37
795.30	3022.80
795.47	2680.79
795.65	3278.80
795.82	3045.33
796.00	2842.58
796.17	2871.25
796.34	2818.00
796.52	3014.61
796.69	3061.71
796.87	2951.12
797.04	2895.83
797.22	3045.33
797.39	3004.37
797.57	2969.55
797.74	2994.13
797.92	3078.10
798.09	2910.16
798.27	3065.81
798.44	2830.29
798.62	2805.72
798.79	3002.32
798.96	2936.79
799.14	2897.88
799.31	3450.83
799.49	2930.64
799.66	2871.25
799.84	2918.36
800.01	2701.27
800.19	3069.91
800.36	2688.98
800.53	2912.21
800.71	3071.95
800.88	3231.69
801.06	2795.48
801.23	2840.53
801.41	2936.79
801.58	2861.01
801.75	2799.57
801.93	2832.34
802.10	3117.01
802.28	2926.55
802.45	2924.50
802.63	2975.70
802.80	3215.31
802.97	2922.45
803.15	2863.06
803.32	2799.57
803.50	2881.49
803.67	2852.82
803.84	2793.43
804.02	2910.16
804.19	2887.64
804.37	2592.73
804.54	2758.61
804.71	2756.57
804.89	2871.25
805.06	2822.10
805.24	2807.77
805.41	2713.56
805.58	2797.53
805.76	3387.34
805.93	2842.58
806.10	2971.60
806.28	3059.67
806.45	2977.75
806.63	2928.60
806.80	2967.51
806.97	3035.09
807.15	3084.24
807.32	2951.12
807.49	2889.68
807.67	2809.81
807.84	3020.75
808.01	2611.16
808.19	3086.29
808.36	3317.71
808.54	2861.01
808.71	2775.00
808.88	2834.39
809.06	3194.83
809.23	3241.93
809.40	2854.87
809.58	2834.39
809.75	3004.37
809.92	2783.19
810.10	3131.34
810.27	2873.30
810.44	3080.14
810.62	3092.43
810.79	2877.40
810.96	2889.68
811.14	2844.63
811.31	3067.86
811.48	2996.18
811.66	2813.91
811.83	3172.30
812.00	3010.51
812.18	2934.74
812.35	3213.26
812.52	2979.79
812.69	2865.11
812.87	2871.25
813.04	2756.57
813.21	2959.31
813.39	2893.78
813.56	2826.20
813.73	3155.92
813.91	2742.23
814.08	2932.69
814.25	2957.27
814.42	2637.78
814.60	2971.60
814.77	2979.79
814.94	2824.15
815.12	2967.51
815.29	3289.04
815.46	2846.68
815.63	2889.68
815.81	2875.35
815.98	2916.31
816.15	2961.36
816.33	2848.72
816.50	2922.45
816.67	2969.55
816.84	2901.97
817.02	2742.23
817.19	2815.96
817.36	3000.27
817.53	2985.94
817.71	2795.48
817.88	2895.83
818.05	2926.55
818.22	2916.31
818.40	3094.48
818.57	2824.15
818.74	3012.56
818.91	2985.94
819.09	2998.23
819.26	2951.12
819.43	2803.67
819.60	2944.98
819.78	2998.23
819.95	2924.50
820.12	2844.63
820.29	3221.45
820.47	3063.76
820.64	2764.76
820.81	2723.80
820.98	2818.00
821.15	2764.76
821.33	3020.75
821.50	2795.48
821.67	3069.91
821.84	2822.10
822.02	2951.12
822.19	3092.43
822.36	2930.64
822.53	2869.20
822.70	2656.22
822.88	2910.16
823.05	3293.13
823.22	2942.93
823.39	2951.12
823.56	3028.95
823.74	3286.99
823.91	2799.57
824.08	2686.94
824.25	2844.63
824.42	3299.28
824.60	2672.60
824.77	3008.47
824.94	2928.60
825.11	3119.06
825.28	2680.79
825.45	3010.51
825.63	2983.89
825.80	2795.48
825.97	2914.26
826.14	2914.26
826.31	2736.09
826.48	3045.33
826.66	2801.62
826.83	2791.38
827.00	2901.97
827.17	2789.33
827.34	2858.96
827.51	2822.10
827.69	2981.84
827.86	2738.13
828.03	2920.40
828.20	2881.49
828.37	2787.29
828.54	3035.09
828.71	2723.80
828.89	3004.37
829.06	3051.47
829.23	3168.21
829.40	2772.95
829.57	2858.96
829.74	3055.57
829.91	2828.24
830.09	2783.19
830.26	2955.22
830.43	3344.33
830.60	2983.89
830.77	2936.79
830.94	3071.95
831.11	3022.80
831.28	2906.07
831.46	3045.33
831.63	2795.48
831.80	3082.19
831.97	2848.72
832.14	2918.36
832.31	2983.89
832.48	2977.75
832.65	3180.50
832.82	2965.46
832.99	2930.64
833.17	2832.34
833.34	3241.93
833.51	2873.30
833.68	2627.54
833.85	3139.54
834.02	2766.81
834.19	2707.41
834.36	2775.00
834.53	2975.70
834.70	3127.25
834.87	2842.58
835.04	2688.98
835.22	2850.77
835.39	2983.89
835.56	2662.36
835.73	2731.99
835.90	3139.54
836.07	2811.86
836.24	2906.07
836.41	2713.56
836.58	2895.83
836.75	3106.77
836.92	2756.57
837.09	2639.83
837.26	3055.57
837.43	3061.71
837.60	2768.85
837.77	2805.72
837.94	3057.62
838.12	3145.68
838.29	2715.61
838.46	2625.50
838.63	2836.44
838.80	3299.28
838.97	2840.53
839.14	2756.57
839.31	3020.75
839.48	3047.38
839.65	2723.80
839.82	2846.68
839.99	2922.45
840.16	2928.60
840.33	2705.37
840.50	2758.61
840.67	2861.01
840.84	2521.05
841.01	2715.61
841.18	2711.51
841.35	2887.64
841.52	3151.82
841.69	3024.85
841.86	2764.76
842.03	2940.88
842.20	3166.16
842.37	2725.85
842.54	2770.90
842.71	2953.17
842.88	2756.57
843.05	2797.53
843.22	2717.65
843.39	3203.02
843.56	2824.15
843.73	2682.84
843.90	2754.52
844.07	3018.71
844.24	3114.96
844.41	2818.00
844.58	2781.14
844.75	2932.69
844.92	3049.43
845.09	2777.05
845.26	2721.75
845.43	3119.06
845.60	2854.87
845.77	2861.01
845.94	2869.20
846.10	3143.63
846.27	2775.00
846.44	2654.17
846.61	2594.78
846.78	3106.77
846.95	3063.76
847.12	2770.90
847.29	2713.56
847.46	2893.78
847.63	3139.54
847.80	2701.27
847.97	2674.65
848.14	3311.57
848.31	2883.54
848.48	2645.98
848.65	2695.13
848.82	2883.54
848.98	3442.64
849.15	2815.96
849.32	2840.53
849.49	3096.53
849.66	2975.70
849.83	2656.22
850.00	2695.13
850.17	3149.78
850.34	2834.39
850.51	2713.56
850.68	2809.81
850.85	3368.91
851.01	3004.37
851.18	2699.22
851.35	2762.71
851.52	3080.14
851.69	3258.32
851.86	2707.41
852.03	2641.88
852.20	3145.68
852.37	2918.36
852.53	2590.68
852.70	2627.54
852.87	2959.31
853.04	3088.34
853.21	2631.64
853.38	2957.27
853.55	3170.26
853.72	3160.02
853.89	2664.41
854.05	2693.08
854.22	2916.31
854.39	2951.12
854.56	2797.53
854.73	2879.44
854.90	2766.81
855.07	2947.03
855.23	2762.71
855.40	2715.61
855.57	3000.27
855.74	2605.02
855.91	2963.41
856.08	2650.07
856.25	2711.51
856.41	2971.60
856.58	2707.41
856.75	2731.99
856.92	2744.28
857.09	3176.40
857.26	2605.02
857.42	2758.61
857.59	3200.98
857.76	2955.22
857.93	2762.71
858.10	2811.86
858.27	2809.81
858.43	3016.66
858.60	2701.27
858.77	2545.63
858.94	2811.86
859.11	3139.54
859.27	2834.39
859.44	2707.41
859.61	3332.05
859.78	3069.91
859.95	2781.14
860.12	2670.55
860.28	3299.28
860.45	3375.05
860.62	2764.76
860.79	2754.52
860.95	2881.49
861.12	2858.96
861.29	2721.75
861.46	2717.65
861.63	2914.26
861.79	3002.32
861.96	2639.83
862.13	2775.00
862.30	3180.50
862.47	2844.63
862.63	2652.12
862.80	2779.09
862.97	3102.67
863.14	3067.86
863.30	2766.81
863.47	2674.65
863.64	3207.12
863.81	3051.47
863.97	2652.12
864.14	2744.28
864.31	2936.79
864.48	3012.56
864.65	2736.09
864.81	2822.10
864.98	3026.90
865.15	3129.30
865.32	2795.48
865.48	2836.44
865.65	3205.07
865.82	2850.77
865.98	2764.76
866.15	2834.39
866.32	2971.60
866.49	2869.20
866.65	2922.45
866.82	2688.98
866.99	2979.79
867.16	2848.72
867.32	2684.89
867.49	2660.31
867.66	2951.12
867.83	2818.00
867.99	2598.87
868.16	2818.00
868.33	2748.37
868.49	2985.94
868.66	2783.19
868.83	2811.86
868.99	2992.08
869.16	2940.88
869.33	2955.22
869.50	2777.05
869.66	2979.79
869.83	2924.50
870.00	2594.78
870.16	2875.35
870.33	2891.73
870.50	3084.24
870.66	2760.66
870.83	2705.37
871.00	3037.14
871.17	3018.71
871.33	2807.77
871.50	2676.70
871.67	2912.21
871.83	2691.03
872.00	2818.00
872.17	2752.47
872.33	3299.28
872.50	3162.06
872.67	2781.14
872.83	2791.38
873.00	3014.61
873.17	2953.17
873.33	2850.77
873.50	2764.76
873.67	2908.12
873.83	2875.35
874.00	2746.33
874.16	2891.73
874.33	2947.03
874.50	2775.00
874.66	2668.50
874.83	2772.95
875.00	3213.26
875.16	3084.24
875.33	2818.00
875.50	2545.63
875.66	2844.63
875.83	2992.08
875.99	2897.88
876.16	2766.81
876.33	2861.01
876.49	2916.31
876.66	2721.75
876.83	2746.33
876.99	2744.28
877.16	2981.84
877.32	2703.32
877.49	2783.19
877.66	3043.28
877.82	3270.61
877.99	2846.68
878.15	2977.75
878.32	3037.14
878.49	3067.86
878.65	2840.53
878.82	2977.75
878.98	2961.36
879.15	3076.05
879.32	2947.03
879.48	2877.40
879.65	2897.88
879.81	2852.82
879.98	2781.14
880.15	2736.09
880.31	3207.12
880.48	2805.72
880.64	2846.68
880.81	2846.68
880.97	3225.55
881.14	3223.50
881.31	2731.99
881.47	2897.88
881.64	2897.88
881.80	2627.54
881.97	2850.77
882.13	2760.66
882.30	2711.51
882.47	2822.10
882.63	2719.70
882.80	2664.41
882.96	2947.03
883.13	3157.97
883.29	2793.43
883.46	2727.89
883.62	3262.41
883.79	2963.41
883.95	2908.12
884.12	2740.18
884.29	3166.16
884.45	2994.13
884.62	2809.81
884.78	2736.09
884.95	3274.70
885.11	2844.63
885.28	2822.10
885.44	2797.53
885.61	2998.23
885.77	3131.34
885.94	2922.45
886.10	2820.05
886.27	2998.23
886.43	3293.13
886.60	2932.69
886.76	2811.86
886.93	2811.86
887.09	3016.66
887.26	2643.93
887.42	2736.09
887.59	3135.44
887.75	3289.04
887.92	2987.99
888.08	2865.11
888.25	3262.41
888.41	3143.63
888.58	2844.63
888.74	2746.33
888.91	2893.78
>>>>>End Processed Spectral Data<<<<<
