SpectraSuite Data File
++++++++++++++++++++++++++++++++++++
Date: Thu May 05 21:10:45 CEST 2016
User: root
Dark Spectrum Present: No
Reference Spectrum Present: No
Number of Sampled Component Spectra: 1
Spectrometers: USB4C02835
Integration Time (usec): 100000 (USB4C02835)
Spectra Averaged: 1 (USB4C02835)
Boxcar Smoothing: 0 (USB4C02835)
Correct for Electrical Dark: No (USB4C02835)
Strobe/Lamp Enabled: No (USB4C02835)
Correct for Detector Non-linearity: No (USB4C02835)
Correct for Stray Light: No (USB4C02835)
Number of Pixels in Processed Spectrum: 3648
>>>>>Begin Processed Spectral Data<<<<<
177.47	2164.70
177.69	2164.70
177.91	2164.70
178.13	2172.89
178.36	2168.80
178.58	2697.17
178.80	2883.54
179.02	2822.10
179.24	2777.05
179.46	2648.02
179.68	2658.26
179.90	2992.08
180.13	3104.72
180.35	2533.34
180.57	2627.54
180.79	3133.39
181.01	2904.02
181.23	2674.65
181.45	2824.15
181.67	3063.76
181.90	3162.06
182.12	2744.28
182.34	2453.47
182.56	3098.58
182.78	3057.62
183.00	2602.97
183.22	2746.33
183.44	2607.06
183.66	3522.51
183.89	2783.19
184.11	2697.17
184.33	3088.34
184.55	3180.50
184.77	2650.07
184.99	2734.04
185.21	2910.16
185.43	3461.07
185.65	2686.94
185.87	2621.40
186.10	3452.88
186.32	3395.53
186.54	2805.72
186.76	2762.71
186.98	3258.32
187.20	2887.64
187.42	2783.19
187.64	2664.41
187.86	2983.89
188.08	3112.91
188.30	2596.82
188.52	2731.99
188.75	3172.30
188.97	3217.36
189.19	2691.03
189.41	2688.98
189.63	2990.03
189.85	2971.60
190.07	2543.58
190.29	2529.24
190.51	3131.34
190.73	2746.33
190.95	2871.25
191.17	2697.17
191.39	2772.95
191.61	2897.88
191.84	2729.94
192.06	2803.67
192.28	2699.22
192.50	3483.59
192.72	2760.66
192.94	2740.18
193.16	3149.78
193.38	3063.76
193.60	2629.59
193.82	2897.88
194.04	3196.88
194.26	3096.53
194.48	2580.44
194.70	2713.56
194.92	2922.45
195.14	3061.71
195.36	2699.22
195.58	2758.61
195.80	2967.51
196.02	2918.36
196.24	2645.98
196.46	2852.82
196.69	2918.36
196.91	3444.68
197.13	2684.89
197.35	2672.60
197.57	3280.85
197.79	3123.15
198.01	2682.84
198.23	2740.18
198.45	3084.24
198.67	2805.72
198.89	2557.91
199.11	2768.85
199.33	2858.96
199.55	2582.49
199.77	2639.83
199.99	2887.64
200.21	2861.01
200.43	2996.18
200.65	2533.34
200.87	2578.39
201.09	2983.89
201.31	2940.88
201.53	2691.03
201.75	2738.13
201.97	3024.85
202.19	3012.56
202.41	2834.39
202.63	2803.67
202.85	3135.44
203.07	3061.71
203.29	2750.42
203.51	2609.11
203.73	2965.46
203.95	3491.79
204.17	2693.08
204.39	2824.15
204.61	3004.37
204.83	2863.06
205.05	2869.20
205.27	2672.60
205.49	3336.14
205.71	2934.74
205.93	2645.98
206.15	2625.50
206.37	2916.31
206.59	2877.40
206.81	2574.30
207.03	2580.44
207.25	2836.44
207.47	3004.37
207.69	2738.13
207.91	2869.20
208.13	3268.56
208.34	2936.79
208.56	2674.65
208.78	2791.38
209.00	2961.36
209.22	2885.59
209.44	2801.62
209.66	2648.02
209.88	2973.65
210.10	2947.03
210.32	2650.07
210.54	2729.94
210.76	2965.46
210.98	3112.91
211.20	2584.54
211.42	2760.66
211.64	3241.93
211.86	3119.06
212.08	2830.29
212.30	2717.65
212.52	2949.08
212.74	3123.15
212.96	2770.90
213.17	2758.61
213.39	3094.48
213.61	3209.17
213.83	2684.89
214.05	2582.49
214.27	3239.89
214.49	2895.83
214.71	2695.13
214.93	2781.14
215.15	2951.12
215.37	3203.02
215.59	2572.25
215.81	2729.94
216.03	3254.22
216.24	2961.36
216.46	2693.08
216.68	2844.63
216.90	3080.14
217.12	3170.26
217.34	2676.70
217.56	2861.01
217.78	3207.12
218.00	3133.39
218.22	2820.05
218.44	2734.04
218.66	3084.24
218.87	3477.45
219.09	2684.89
219.31	2703.32
219.53	3127.25
219.75	2914.26
219.97	2758.61
220.19	2723.80
220.41	2951.12
220.63	3194.83
220.85	2619.35
221.06	2674.65
221.28	3334.09
221.50	3067.86
221.72	2772.95
221.94	2547.67
222.16	3039.19
222.38	3035.09
222.60	2600.92
222.82	2680.79
223.03	3196.88
223.25	2822.10
223.47	2631.64
223.69	2901.97
223.91	3137.49
224.13	3067.86
224.35	2609.11
224.57	2820.05
224.78	3059.67
225.00	2848.72
225.22	2791.38
225.44	2598.87
225.66	3033.04
225.88	2873.30
226.10	2822.10
226.32	2699.22
226.53	3293.13
226.75	2844.63
226.97	2805.72
227.19	2658.26
227.41	2883.54
227.63	2889.68
227.85	2484.19
228.06	2695.13
228.28	3076.05
228.50	3108.82
228.72	2582.49
228.94	2680.79
229.16	2731.99
229.37	2705.37
229.59	2602.97
229.81	2883.54
230.03	2969.55
230.25	2740.18
230.47	2525.15
230.69	2715.61
230.90	3037.14
231.12	2908.12
231.34	2791.38
231.56	2760.66
231.78	2820.05
232.00	3022.80
232.21	2693.08
232.43	2656.22
232.65	2705.37
232.87	3114.96
233.09	2584.54
233.30	2664.41
233.52	3266.51
233.74	3076.05
233.96	2697.17
234.18	2779.09
234.40	3016.66
234.61	3409.87
234.83	2637.78
235.05	2602.97
235.27	3485.64
235.49	3176.40
235.70	2609.11
235.92	2715.61
236.14	3164.11
236.36	3416.01
236.58	2641.88
236.79	2840.53
237.01	3020.75
237.23	2994.13
237.45	2836.44
237.67	2719.70
237.88	3061.71
238.10	3352.52
238.32	2662.36
238.54	2643.93
238.76	2996.18
238.97	2824.15
239.19	2611.16
239.41	2783.19
239.63	3153.87
239.85	2910.16
240.06	2688.98
240.28	2598.87
240.50	3221.45
240.72	2973.65
240.93	2576.34
241.15	2779.09
241.37	2996.18
241.59	3155.92
241.81	2668.50
242.02	2729.94
242.24	2990.03
242.46	3174.35
242.68	2547.67
242.89	2680.79
243.11	3067.86
243.33	2953.17
243.55	2645.98
243.76	2738.13
243.98	2846.68
244.20	2957.27
244.42	2668.50
244.64	2715.61
244.85	2750.42
245.07	2832.34
245.29	2703.32
245.51	2656.22
245.72	3047.38
245.94	3141.58
246.16	2703.32
246.38	2709.46
246.59	2891.73
246.81	2879.44
247.03	2590.68
247.24	2590.68
247.46	2881.49
247.68	3071.95
247.90	2568.15
248.11	2695.13
248.33	3147.73
248.55	2936.79
248.77	2815.96
248.98	2715.61
249.20	3227.60
249.42	2996.18
249.64	2619.35
249.85	2592.73
250.07	2891.73
250.29	3129.30
250.50	2762.71
250.72	2564.06
250.94	3051.47
251.16	3313.61
251.37	2680.79
251.59	2746.33
251.81	3016.66
252.02	3258.32
252.24	2654.17
252.46	2848.72
252.68	2781.14
252.89	2879.44
253.11	2529.24
253.33	2840.53
253.54	3190.74
253.76	2756.57
253.98	2713.56
254.20	2670.55
254.41	2709.46
254.63	2996.18
254.85	2557.91
255.06	2793.43
255.28	3053.52
255.50	2979.79
255.71	2645.98
255.93	2555.86
256.15	2936.79
256.36	3104.72
256.58	2482.14
256.80	2658.26
257.02	2985.94
257.23	2959.31
257.45	2717.65
257.67	2775.00
257.88	2875.35
258.10	3055.57
258.32	2680.79
258.53	2772.95
258.75	3198.93
258.97	2834.39
259.18	2533.34
259.40	2664.41
259.62	3289.04
259.83	3239.89
260.05	2652.12
260.27	3397.58
260.48	3108.82
260.70	2762.71
260.92	2588.63
261.13	2703.32
261.35	3084.24
261.57	3059.67
261.78	2551.77
262.00	2627.54
262.22	3065.81
262.43	2828.24
262.65	2686.94
262.86	2785.24
263.08	3375.05
263.30	3086.29
263.51	2535.39
263.73	2609.11
263.95	3217.36
264.16	2863.06
264.38	2670.55
264.60	2625.50
264.81	3008.47
265.03	3178.45
265.25	3026.90
265.46	2605.02
265.68	3274.70
265.89	3074.00
266.11	2559.96
266.33	2607.06
266.54	3129.30
266.76	3057.62
266.98	2785.24
267.19	2789.33
267.41	3090.38
267.62	3014.61
267.84	2525.15
268.06	2820.05
268.27	3028.95
268.49	3180.50
268.70	2781.14
268.92	2660.31
269.14	2822.10
269.35	2836.44
269.57	2742.23
269.79	2740.18
270.00	2852.82
270.22	3284.94
270.43	2611.16
270.65	2516.95
270.87	2996.18
271.08	3092.43
271.30	2752.47
271.51	2625.50
271.73	3067.86
271.95	3225.55
272.16	2615.26
272.38	2809.81
272.59	2932.69
272.81	3028.95
273.02	2668.50
273.24	2746.33
273.46	3143.63
273.67	2799.57
273.89	2531.29
274.10	2670.55
274.32	3286.99
274.54	3049.43
274.75	2785.24
274.97	2791.38
275.18	3133.39
275.40	3090.38
275.61	2658.26
275.83	2830.29
276.05	2813.91
276.26	2998.23
276.48	2748.37
276.69	2844.63
276.91	2893.78
277.12	3209.17
277.34	2873.30
277.55	2983.89
277.77	3047.38
277.99	2969.55
278.20	2760.66
278.42	2695.13
278.63	2844.63
278.85	2832.34
279.06	2648.02
279.28	2897.88
279.49	3145.68
279.71	3114.96
279.93	2893.78
280.14	2871.25
280.36	2889.68
280.57	3080.14
280.79	2926.55
281.00	2664.41
281.22	2920.40
281.43	3250.13
281.65	2594.78
281.86	2713.56
282.08	2953.17
282.29	3239.89
282.51	2643.93
282.73	2701.27
282.94	2764.76
283.16	3088.34
283.37	2940.88
283.59	2777.05
283.80	3141.58
284.02	2963.41
284.23	2803.67
284.45	2795.48
284.66	2875.35
284.88	2809.81
285.09	2705.37
285.31	2914.26
285.52	3086.29
285.74	2711.51
285.95	3014.61
286.17	2772.95
286.38	3141.58
286.60	2813.91
286.81	2762.71
287.03	2764.76
287.24	2979.79
287.46	3076.05
287.67	2861.01
287.89	3030.99
288.10	2949.08
288.32	2922.45
288.53	2955.22
288.75	2852.82
288.96	3098.58
289.18	2777.05
289.39	2719.70
289.61	2822.10
289.82	3336.14
290.04	3303.37
290.25	2731.99
290.47	2783.19
290.68	2926.55
290.90	3164.11
291.11	2693.08
291.33	2910.16
291.54	2797.53
291.76	2863.06
291.97	2940.88
292.18	2832.34
292.40	2871.25
292.61	2856.92
292.83	3160.02
293.04	2848.72
293.26	3080.14
293.47	2953.17
293.69	2725.85
293.90	2684.89
294.12	3258.32
294.33	3033.04
294.55	2760.66
294.76	2975.70
294.97	3198.93
295.19	3434.44
295.40	2713.56
295.62	2901.97
295.83	3076.05
296.05	2828.24
296.26	3002.32
296.48	2824.15
296.69	2983.89
296.90	2977.75
297.12	2897.88
297.33	2981.84
297.55	2942.93
297.76	3059.67
297.98	2922.45
298.19	2936.79
298.41	2955.22
298.62	2928.60
298.83	3022.80
299.05	2871.25
299.26	2867.16
299.48	2885.59
299.69	2807.77
299.90	2785.24
300.12	2787.29
300.33	3133.39
300.55	2942.93
300.76	2901.97
300.98	2699.22
301.19	3088.34
301.40	2760.66
301.62	2805.72
301.83	3039.19
302.05	2967.51
302.26	2834.39
302.47	2795.48
302.69	2854.87
302.90	3051.47
303.12	2629.59
303.33	2899.92
303.54	3266.51
303.76	2973.65
303.97	2793.43
304.19	2985.94
304.40	2865.11
304.61	3067.86
304.83	3006.42
305.04	2873.30
305.26	3153.87
305.47	2834.39
305.68	2852.82
305.90	2668.50
306.11	3260.37
306.33	2871.25
306.54	2674.65
306.75	2770.90
306.97	2676.70
307.18	2736.09
307.39	2756.57
307.61	2846.68
307.82	2840.53
308.04	3000.27
308.25	2623.45
308.46	2899.92
308.68	2971.60
308.89	2987.99
309.10	2920.40
309.32	2846.68
309.53	2985.94
309.74	3094.48
309.96	2734.04
310.17	2969.55
310.39	2818.00
310.60	3108.82
310.81	2766.81
311.03	2691.03
311.24	3094.48
311.45	2998.23
311.67	2973.65
311.88	2881.49
312.09	2928.60
312.31	2828.24
312.52	2766.81
312.73	2783.19
312.95	2807.77
313.16	2813.91
313.37	2908.12
313.59	2963.41
313.80	3180.50
314.01	3166.16
314.23	2824.15
314.44	2791.38
314.65	2754.52
314.87	2875.35
315.08	2742.23
315.29	2760.66
315.51	2801.62
315.72	2758.61
315.93	2877.40
316.15	2781.14
316.36	2955.22
316.57	3028.95
316.79	2785.24
317.00	2723.80
317.21	3096.53
317.43	2865.11
317.64	2889.68
317.85	2715.61
318.07	2938.84
318.28	2865.11
318.49	2883.54
318.70	3059.67
318.92	3030.99
319.13	3061.71
319.34	3020.75
319.56	2758.61
319.77	3082.19
319.98	3119.06
320.20	3022.80
320.41	2979.79
320.62	3092.43
320.83	2885.59
321.05	3088.34
321.26	2850.77
321.47	2969.55
321.69	3114.96
321.90	2723.80
322.11	2756.57
322.32	3016.66
322.54	3276.75
322.75	2725.85
322.96	3563.47
323.18	2723.80
323.39	2695.13
323.60	2746.33
323.81	2883.54
324.03	2840.53
324.24	2969.55
324.45	2910.16
324.66	2799.57
324.88	3303.37
325.09	3127.25
325.30	2838.48
325.52	2746.33
325.73	3018.71
325.94	2813.91
326.15	2629.59
326.37	2721.75
326.58	3147.73
326.79	3198.93
327.00	2736.09
327.22	2815.96
327.43	2852.82
327.64	2803.67
327.85	2981.84
328.07	2861.01
328.28	3368.91
328.49	2838.48
328.70	2848.72
328.92	2824.15
329.13	2944.98
329.34	3108.82
329.55	3008.47
329.76	2930.64
329.98	2867.16
330.19	3207.12
330.40	2906.07
330.61	2836.44
330.83	3219.41
331.04	2856.92
331.25	2850.77
331.46	2838.48
331.68	2842.58
331.89	3096.53
332.10	2793.43
332.31	2670.55
332.52	2967.51
332.74	3213.26
332.95	2600.92
333.16	2789.33
333.37	3117.01
333.58	2904.02
333.80	2799.57
334.01	2590.68
334.22	2979.79
334.43	2826.20
334.64	2779.09
334.86	2723.80
335.07	2793.43
335.28	3270.61
335.49	2799.57
335.70	2815.96
335.92	3203.02
336.13	3401.68
336.34	2899.92
336.55	2850.77
336.76	3096.53
336.98	2717.65
337.19	2799.57
337.40	2887.64
337.61	3411.92
337.82	2955.22
338.04	2916.31
338.25	2613.21
338.46	2940.88
338.67	2994.13
338.88	2684.89
339.09	2688.98
339.31	2906.07
339.52	2775.00
339.73	2770.90
339.94	2785.24
340.15	3117.01
340.36	2951.12
340.58	2881.49
340.79	2701.27
341.00	3110.86
341.21	2809.81
341.42	3090.38
341.63	2768.85
341.85	3141.58
342.06	3008.47
342.27	2729.94
342.48	2979.79
342.69	2848.72
342.90	3092.43
343.12	3127.25
343.33	2705.37
343.54	3114.96
343.75	3280.85
343.96	2975.70
344.17	2619.35
344.38	3020.75
344.60	2838.48
344.81	2680.79
345.02	2742.23
345.23	3119.06
345.44	3448.78
345.65	2901.97
345.86	2832.34
346.07	3057.62
346.29	2897.88
346.50	2912.21
346.71	2854.87
346.92	3200.98
347.13	3428.30
347.34	2850.77
347.55	2674.65
347.76	3051.47
347.98	2734.04
348.19	2875.35
348.40	2963.41
348.61	2914.26
348.82	3207.12
349.03	2846.68
349.24	2766.81
349.45	3424.20
349.66	2662.36
349.88	2754.52
350.09	2770.90
350.30	3176.40
350.51	3239.89
350.72	2983.89
350.93	2820.05
351.14	2944.98
351.35	3084.24
351.56	2805.72
351.77	2861.01
351.99	3067.86
352.20	3196.88
352.41	2963.41
352.62	2699.22
352.83	2998.23
353.04	3004.37
353.25	2803.67
353.46	2797.53
353.67	3160.02
353.88	2693.08
354.09	2803.67
354.30	2820.05
354.52	3076.05
354.73	2918.36
354.94	2764.76
355.15	2787.29
355.36	3319.76
355.57	2887.64
355.78	2834.39
355.99	2768.85
356.20	2944.98
356.41	3172.30
356.62	2881.49
356.83	2901.97
357.04	3182.54
357.25	2746.33
357.46	2801.62
357.68	2707.41
357.89	2803.67
358.10	3026.90
358.31	2775.00
358.52	2838.48
358.73	2799.57
358.94	2867.16
359.15	2848.72
359.36	2828.24
359.57	2959.31
359.78	2971.60
359.99	2985.94
360.20	2781.14
360.41	2957.27
360.62	3059.67
360.83	2897.88
361.04	2811.86
361.25	3024.85
361.46	3203.02
361.67	2998.23
361.88	2926.55
362.09	3063.76
362.30	3043.28
362.51	2727.89
362.72	2758.61
362.93	3125.20
363.14	3061.71
363.35	2824.15
363.56	2699.22
363.78	3207.12
363.99	3180.50
364.20	2791.38
364.41	2861.01
364.62	3332.05
364.83	3016.66
365.04	2842.58
365.25	2818.00
365.46	3334.09
365.67	2813.91
365.88	2996.18
366.09	2791.38
366.30	2932.69
366.51	3051.47
366.72	2725.85
366.93	2760.66
367.14	3061.71
367.35	3258.32
367.56	2707.41
367.77	2998.23
367.98	2998.23
368.18	3065.81
368.39	2861.01
368.60	2809.81
368.81	3135.44
369.02	3117.01
369.23	2850.77
369.44	2654.17
369.65	2951.12
369.86	3016.66
370.07	2969.55
370.28	2674.65
370.49	3018.71
370.70	3086.29
370.91	2717.65
371.12	2738.13
371.33	3168.21
371.54	2791.38
371.75	2953.17
371.96	2498.52
372.17	3010.51
372.38	2934.74
372.59	2799.57
372.80	2797.53
373.01	2936.79
373.22	2983.89
373.43	2699.22
373.64	2682.84
373.85	3223.50
374.06	3317.71
374.26	2955.22
374.47	2967.51
374.68	3268.56
374.89	3004.37
375.10	2742.23
375.31	2891.73
375.52	2965.46
375.73	3084.24
375.94	2643.93
376.15	2899.92
376.36	2912.21
376.57	2990.03
376.78	2811.86
376.99	2885.59
377.20	3246.03
377.40	2916.31
377.61	3022.80
377.82	2762.71
378.03	3217.36
378.24	3096.53
378.45	2904.02
378.66	2875.35
378.87	2666.46
379.08	2691.03
379.29	2854.87
379.50	2920.40
379.71	2957.27
379.91	3180.50
380.12	2783.19
380.33	2803.67
380.54	2918.36
380.75	2955.22
380.96	2783.19
381.17	2848.72
381.38	3086.29
381.59	3004.37
381.80	2856.92
382.00	3010.51
382.21	3051.47
382.42	3268.56
382.63	3104.72
382.84	2951.12
383.05	3139.54
383.26	3237.84
383.47	2934.74
383.68	2830.29
383.88	3053.52
384.09	2934.74
384.30	3106.77
384.51	2944.98
384.72	2838.48
384.93	2795.48
385.14	2764.76
385.35	2994.13
385.55	2842.58
385.76	3100.62
385.97	2895.83
386.18	2662.36
386.39	2877.40
386.60	2910.16
386.81	2830.29
387.02	2742.23
387.22	2764.76
387.43	3149.78
387.64	2906.07
387.85	3018.71
388.06	3014.61
388.27	4106.18
388.48	7258.00
388.68	10774.36
388.89	13453.11
389.10	14491.43
389.31	14065.45
389.52	11327.32
389.73	9897.83
389.93	8900.47
390.14	7960.45
390.35	7444.37
390.56	6832.02
390.77	5687.21
390.98	4337.60
391.18	3696.58
391.39	3416.01
391.60	3004.37
391.81	3033.04
392.02	2861.01
392.23	3362.76
392.43	3045.33
392.64	2949.08
392.85	2875.35
393.06	3248.08
393.27	2957.27
393.47	2758.61
393.68	2856.92
393.89	2869.20
394.10	3170.26
394.31	2848.72
394.52	2789.33
394.72	2899.92
394.93	3186.64
395.14	2699.22
395.35	2963.41
395.56	2947.03
395.76	2969.55
395.97	2809.81
396.18	3020.75
396.39	2979.79
396.60	3553.23
396.80	3106.77
397.01	3012.56
397.22	3182.54
397.43	3133.39
397.64	2740.18
397.84	3039.19
398.05	3330.00
398.26	2930.64
398.47	2875.35
398.67	2975.70
398.88	2944.98
399.09	3166.16
399.30	2750.42
399.51	2963.41
399.71	2815.96
399.92	2963.41
400.13	2891.73
400.34	2856.92
400.54	3006.42
400.75	3237.84
400.96	2940.88
401.17	3200.98
401.37	3014.61
401.58	2969.55
401.79	2762.71
402.00	2940.88
402.21	3444.68
402.41	3133.39
402.62	3055.57
402.83	3188.69
403.04	3334.09
403.24	3694.54
403.45	2932.69
403.66	3082.19
403.87	3176.40
404.07	3274.70
404.28	3020.75
404.49	3098.58
404.70	2973.65
404.90	3086.29
405.11	2824.15
405.32	2861.01
405.52	2867.16
405.73	2906.07
405.94	2738.13
406.15	2928.60
406.35	3033.04
406.56	3211.22
406.77	2873.30
406.98	2822.10
407.18	2871.25
407.39	3262.41
407.60	2918.36
407.80	2930.64
408.01	2928.60
408.22	3008.47
408.43	2813.91
408.63	2944.98
408.84	3143.63
409.05	3117.01
409.25	2803.67
409.46	2830.29
409.67	2934.74
409.88	2830.29
410.08	2949.08
410.29	2799.57
410.50	3084.24
410.70	3145.68
410.91	2738.13
411.12	2897.88
411.32	2973.65
411.53	2805.72
411.74	2883.54
411.95	2979.79
412.15	3045.33
412.36	3084.24
412.57	2981.84
412.77	3035.09
412.98	2918.36
413.19	2940.88
413.39	2881.49
413.60	2924.50
413.81	3221.45
414.01	2805.72
414.22	2873.30
414.43	2959.31
414.63	2863.06
414.84	3149.78
415.05	2928.60
415.25	2701.27
415.46	3057.62
415.67	2811.86
415.87	2944.98
416.08	2861.01
416.29	2908.12
416.49	3129.30
416.70	2852.82
416.91	2836.44
417.11	2947.03
417.32	3303.37
417.53	2979.79
417.73	2899.92
417.94	2979.79
418.15	3026.90
418.35	2840.53
418.56	2924.50
418.77	3426.25
418.97	3053.52
419.18	2881.49
419.38	2602.97
419.59	2977.75
419.80	3250.13
420.00	2803.67
420.21	2861.01
420.42	3231.69
420.62	3016.66
420.83	2811.86
421.04	2803.67
421.24	2916.31
421.45	3086.29
421.65	2869.20
421.86	2861.01
422.07	3041.23
422.27	3057.62
422.48	2787.29
422.69	2695.13
422.89	2985.94
423.10	2928.60
423.30	2756.57
423.51	2844.63
423.72	3065.81
423.92	3127.25
424.13	2746.33
424.33	2875.35
424.54	3123.15
424.75	3051.47
424.95	3080.14
425.16	2877.40
425.36	3018.71
425.57	3155.92
425.78	3012.56
425.98	2885.59
426.19	2936.79
426.39	2930.64
426.60	2875.35
426.81	3012.56
427.01	2971.60
427.22	2828.24
427.42	2623.45
427.63	2781.14
427.83	3106.77
428.04	3266.51
428.25	2873.30
428.45	2926.55
428.66	3160.02
428.86	2940.88
429.07	2795.48
429.28	2877.40
429.48	2994.13
429.69	2846.68
429.89	2957.27
430.10	2756.57
430.30	3108.82
430.51	3123.15
430.71	2762.71
430.92	2912.21
431.13	2971.60
431.33	3063.76
431.54	2838.48
431.74	3033.04
431.95	3338.19
432.15	2877.40
432.36	2830.29
432.56	2869.20
432.77	3303.37
432.98	3370.96
433.18	2850.77
433.39	2756.57
433.59	2899.92
433.80	3262.41
434.00	2998.23
434.21	2889.68
434.41	2848.72
434.62	3450.83
434.82	2768.85
435.03	2746.33
435.23	3057.62
435.44	2684.89
435.64	2797.53
435.85	2834.39
436.06	3119.06
436.26	3164.11
436.47	2838.48
436.67	2764.76
436.88	2971.60
437.08	3155.92
437.29	3053.52
437.49	3051.47
437.70	3254.22
437.90	2873.30
438.11	2998.23
438.31	2949.08
438.52	3164.11
438.72	3198.93
438.93	3135.44
439.13	2996.18
439.34	3153.87
439.54	2932.69
439.75	2961.36
439.95	2918.36
440.16	2820.05
440.36	2914.26
440.57	2791.38
440.77	2897.88
440.98	3035.09
441.18	3092.43
441.39	2789.33
441.59	2734.04
441.80	3340.24
442.00	2940.88
442.21	2854.87
442.41	2762.71
442.62	3108.82
442.82	2897.88
443.02	2867.16
443.23	2830.29
443.43	2904.02
443.64	3190.74
443.84	2801.62
444.05	3010.51
444.25	3008.47
444.46	2906.07
444.66	2746.33
444.87	3012.56
445.07	2731.99
445.28	2981.84
445.48	3071.95
445.69	2949.08
445.89	3440.59
446.09	2895.83
446.30	3203.02
446.50	3252.17
446.71	4722.62
446.91	5738.41
447.12	6621.08
447.32	6948.76
447.53	6832.02
447.73	5834.66
447.93	4988.85
448.14	4784.06
448.34	4906.93
448.55	4106.18
448.75	3960.77
448.96	3817.41
449.16	3565.51
449.36	3456.97
449.57	3125.20
449.77	2973.65
449.98	2881.49
450.18	3010.51
450.39	2815.96
450.59	3035.09
450.79	2881.49
451.00	2828.24
451.20	2944.98
451.41	2760.66
451.61	3022.80
451.81	2871.25
452.02	2713.56
452.22	2826.20
452.43	2924.50
452.63	2871.25
452.84	2852.82
453.04	2742.23
453.24	3002.32
453.45	2863.06
453.65	2914.26
453.86	2924.50
454.06	3096.53
454.26	2994.13
454.47	2762.71
454.67	3094.48
454.87	3057.62
455.08	2953.17
455.28	2947.03
455.49	2990.03
455.69	2889.68
455.89	3340.24
456.10	2942.93
456.30	2754.52
456.51	3117.01
456.71	3002.32
456.91	2924.50
457.12	2928.60
457.32	3010.51
457.52	2813.91
457.73	2901.97
457.93	3028.95
458.14	2938.84
458.34	2682.84
458.54	2805.72
458.75	2801.62
458.95	3203.02
459.15	3094.48
459.36	2844.63
459.56	2893.78
459.76	3538.89
459.97	2934.74
460.17	2820.05
460.37	2926.55
460.58	3037.14
460.78	3100.62
460.99	2920.40
461.19	2781.14
461.39	2912.21
461.60	2938.84
461.80	2987.99
462.00	2715.61
462.21	2910.16
462.41	2779.09
462.61	2721.75
462.82	2629.59
463.02	3008.47
463.22	2977.75
463.43	2973.65
463.63	2807.77
463.83	3180.50
464.04	3067.86
464.24	2848.72
464.44	2766.81
464.64	2985.94
464.85	3119.06
465.05	2922.45
465.25	2865.11
465.46	2891.73
465.66	3022.80
465.86	2973.65
466.07	2865.11
466.27	2953.17
466.47	2740.18
466.68	2656.22
466.88	2949.08
467.08	3112.91
467.29	3176.40
467.49	2934.74
467.69	2990.03
467.89	3028.95
468.10	2985.94
468.30	2899.92
468.50	2977.75
468.71	3135.44
468.91	2832.34
469.11	2992.08
469.31	2809.81
469.52	2818.00
469.72	3250.13
469.92	3121.10
470.13	2875.35
470.33	2977.75
470.53	3086.29
470.73	3262.41
470.94	3446.73
471.14	3483.59
471.34	4089.79
471.54	3807.17
471.75	3573.71
471.95	3393.48
472.15	3407.82
472.36	3311.57
472.56	3194.83
472.76	3483.59
472.96	3266.51
473.17	3067.86
473.37	3016.66
473.57	2949.08
473.77	3041.23
473.98	2959.31
474.18	2795.48
474.38	3522.51
474.58	2944.98
474.79	2668.50
474.99	2987.99
475.19	3094.48
475.39	2783.19
475.60	2934.74
475.80	2822.10
476.00	3028.95
476.20	2940.88
476.41	2926.55
476.61	2936.79
476.81	3200.98
477.01	2924.50
477.21	3086.29
477.42	2920.40
477.62	2858.96
477.82	3153.87
478.02	2768.85
478.23	2926.55
478.43	2830.29
478.63	2981.84
478.83	2873.30
479.03	2938.84
479.24	3246.03
479.44	3352.52
479.64	2725.85
479.84	2656.22
480.04	2891.73
480.25	3098.58
480.45	2758.61
480.65	2848.72
480.85	3246.03
481.06	2842.58
481.26	2994.13
481.46	2805.72
481.66	3041.23
481.86	2871.25
482.06	2998.23
482.27	2904.02
482.47	2826.20
482.67	3014.61
482.87	2852.82
483.07	2936.79
483.28	2852.82
483.48	2822.10
483.68	2893.78
483.88	2734.04
484.08	2676.70
484.29	2725.85
484.49	2920.40
484.69	2662.36
484.89	3338.19
485.09	3090.38
485.29	2924.50
485.50	3071.95
485.70	2875.35
485.90	3272.65
486.10	2973.65
486.30	2914.26
486.50	3168.21
486.71	3076.05
486.91	2949.08
487.11	2869.20
487.31	2824.15
487.51	3078.10
487.71	2746.33
487.91	2795.48
488.12	2879.44
488.32	2670.55
488.52	2826.20
488.72	2617.30
488.92	3074.00
489.12	3164.11
489.32	2971.60
489.53	2967.51
489.73	2668.50
489.93	3303.37
490.13	2799.57
490.33	2693.08
490.53	2990.03
490.73	3123.15
490.94	2639.83
491.14	2901.97
491.34	3121.10
491.54	3123.15
491.74	3723.21
491.94	4235.20
492.14	4612.03
492.34	4755.38
492.54	4446.14
492.75	3741.64
492.95	3882.95
493.15	3643.34
493.35	3454.92
493.55	3356.62
493.75	3323.85
493.95	3497.93
494.15	3108.82
494.35	2942.93
494.56	2990.03
494.76	2852.82
494.96	2955.22
495.16	2789.33
495.36	2908.12
495.56	3086.29
495.76	2881.49
495.96	2861.01
496.16	2869.20
496.36	3303.37
496.56	2797.53
496.77	2918.36
496.97	2979.79
497.17	3248.08
497.37	2678.74
497.57	2967.51
497.77	3039.19
497.97	2850.77
498.17	2899.92
498.37	2828.24
498.57	3143.63
498.77	3008.47
498.97	3000.27
499.17	3229.65
499.38	2901.97
499.58	3108.82
499.78	3110.86
499.98	2975.70
500.18	3010.51
500.38	2871.25
500.58	3092.43
500.78	3456.97
500.98	5582.76
501.18	7417.74
501.38	8908.66
501.58	9934.70
501.78	9768.81
501.98	7946.12
502.18	6815.64
502.38	5785.51
502.58	5724.07
502.78	5101.49
502.98	4798.39
503.18	4663.22
503.38	4396.99
503.59	3790.79
503.79	3647.43
503.99	3340.24
504.19	3469.26
504.39	3508.17
504.59	3315.66
504.79	3229.65
504.99	3493.83
505.19	3119.06
505.39	3057.62
505.59	3194.83
505.79	3215.31
505.99	3180.50
506.19	2918.36
506.39	3194.83
506.59	2955.22
506.79	3014.61
506.99	3004.37
507.19	2793.43
507.39	2998.23
507.59	2670.55
507.79	2832.34
507.99	2756.57
508.19	3014.61
508.39	2963.41
508.59	2881.49
508.79	3024.85
508.99	3354.57
509.19	2879.44
509.39	3041.23
509.59	2805.72
509.79	2906.07
509.99	3006.42
510.19	3016.66
510.39	2922.45
510.59	2944.98
510.79	2834.39
510.99	2781.14
511.19	2828.24
511.39	3260.37
511.59	3153.87
511.79	3022.80
511.99	2830.29
512.19	3354.57
512.38	3053.52
512.58	2801.62
512.78	2803.67
512.98	3219.41
513.18	3196.88
513.38	2799.57
513.58	2920.40
513.78	2953.17
513.98	2961.36
514.18	2807.77
514.38	2822.10
514.58	3059.67
514.78	2906.07
514.98	2748.37
515.18	2863.06
515.38	2762.71
515.58	3274.70
515.78	2830.29
515.98	2791.38
516.18	3100.62
516.38	2951.12
516.57	2826.20
516.77	2861.01
516.97	3047.38
517.17	2889.68
517.37	2701.27
517.57	2953.17
517.77	2994.13
517.97	2899.92
518.17	2959.31
518.37	2703.32
518.57	2803.67
518.77	2957.27
518.97	2838.48
519.16	2889.68
519.36	3227.60
519.56	2828.24
519.76	2811.86
519.96	2940.88
520.16	3266.51
520.36	2795.48
520.56	3028.95
520.76	2736.09
520.96	2865.11
521.16	3174.35
521.35	3061.71
521.55	3051.47
521.75	2916.31
521.95	2861.01
522.15	2768.85
522.35	2770.90
522.55	2904.02
522.75	3041.23
522.95	2779.09
523.14	2684.89
523.34	3037.14
523.54	2887.64
523.74	2983.89
523.94	2906.07
524.14	2727.89
524.34	3000.27
524.54	3004.37
524.73	2815.96
524.93	3037.14
525.13	2992.08
525.33	2787.29
525.53	3043.28
525.73	3117.01
525.93	3102.67
526.13	2889.68
526.32	2779.09
526.52	3131.34
526.72	3092.43
526.92	2848.72
527.12	2836.44
527.32	2707.41
527.52	3024.85
527.71	2922.45
527.91	2871.25
528.11	2926.55
528.31	2992.08
528.51	2807.77
528.71	2961.36
528.90	3135.44
529.10	3114.96
529.30	2985.94
529.50	2547.67
529.70	3018.71
529.90	2969.55
530.09	2865.11
530.29	2697.17
530.49	2824.15
530.69	3510.22
530.89	3002.32
531.09	2938.84
531.28	2899.92
531.48	3151.82
531.68	2852.82
531.88	2893.78
532.08	3114.96
532.28	2920.40
532.47	3012.56
532.67	2994.13
532.87	3026.90
533.07	2813.91
533.27	2887.64
533.46	2924.50
533.66	3065.81
533.86	2824.15
534.06	2914.26
534.26	2838.48
534.45	2893.78
534.65	3102.67
534.85	2930.64
535.05	2805.72
535.25	3160.02
535.44	2768.85
535.64	2895.83
535.84	2908.12
536.04	2893.78
536.24	2965.46
536.43	2766.81
536.63	2881.49
536.83	2910.16
537.03	2990.03
537.22	2715.61
537.42	2693.08
537.62	3047.38
537.82	2893.78
538.02	3043.28
538.21	2981.84
538.41	3491.79
538.61	3045.33
538.81	2889.68
539.00	2959.31
539.20	2729.94
539.40	2871.25
539.60	2906.07
539.79	3045.33
539.99	3000.27
540.19	2842.58
540.39	2791.38
540.58	2926.55
540.78	3227.60
540.98	2985.94
541.18	3059.67
541.37	2949.08
541.57	2934.74
541.77	3076.05
541.97	2684.89
542.16	2666.46
542.36	2961.36
542.56	2928.60
542.76	3045.33
542.95	2990.03
543.15	3026.90
543.35	3049.43
543.54	2744.28
543.74	2848.72
543.94	3286.99
544.14	2863.06
544.33	2961.36
544.53	2852.82
544.73	2910.16
544.93	2985.94
545.12	2873.30
545.32	2838.48
545.52	2947.03
545.71	2826.20
545.91	2838.48
546.11	2830.29
546.30	2809.81
546.50	2936.79
546.70	2973.65
546.90	2899.92
547.09	2688.98
547.29	3026.90
547.49	2967.51
547.68	2836.44
547.88	2926.55
548.08	3098.58
548.27	3207.12
548.47	2822.10
548.67	2826.20
548.87	3012.56
549.06	2740.18
549.26	2811.86
549.46	3092.43
549.65	2842.58
549.85	2942.93
550.05	2944.98
550.24	2836.44
550.44	2924.50
550.64	2930.64
550.83	2906.07
551.03	3160.02
551.23	3196.88
551.42	2936.79
551.62	2934.74
551.82	3012.56
552.01	2885.59
552.21	3141.58
552.41	2848.72
552.60	3186.64
552.80	2971.60
553.00	2953.17
553.19	2906.07
553.39	3225.55
553.59	2803.67
553.78	3008.47
553.98	2877.40
554.17	2787.29
554.37	2992.08
554.57	3004.37
554.76	2707.41
554.96	2949.08
555.16	3067.86
555.35	2910.16
555.55	3008.47
555.75	3080.14
555.94	3098.58
556.14	2752.47
556.33	2828.24
556.53	2983.89
556.73	2887.64
556.92	3006.42
557.12	2865.11
557.32	3352.52
557.51	3192.78
557.71	2852.82
557.90	3053.52
558.10	3198.93
558.30	2908.12
558.49	2846.68
558.69	2930.64
558.88	3184.59
559.08	3045.33
559.28	2908.12
559.47	2832.34
559.67	3139.54
559.86	3391.44
560.06	2893.78
560.26	2930.64
560.45	3092.43
560.65	2971.60
560.84	3143.63
561.04	2727.89
561.24	3078.10
561.43	2795.48
561.63	3102.67
561.82	3008.47
562.02	3166.16
562.22	2830.29
562.41	2813.91
562.61	2785.24
562.80	2875.35
563.00	3368.91
563.19	2953.17
563.39	2977.75
563.59	3123.15
563.78	2848.72
563.98	2648.02
564.17	2850.77
564.37	2707.41
564.56	2973.65
564.76	2744.28
564.96	3008.47
565.15	3012.56
565.35	3368.91
565.54	2803.67
565.74	2944.98
565.93	3135.44
566.13	3051.47
566.32	2883.54
566.52	2951.12
566.71	3004.37
566.91	3104.72
567.11	2975.70
567.30	2809.81
567.50	3037.14
567.69	3106.77
567.89	2852.82
568.08	2695.13
568.28	3020.75
568.47	2738.13
568.67	2951.12
568.86	2822.10
569.06	3162.06
569.25	2901.97
569.45	2783.19
569.64	2840.53
569.84	2951.12
570.04	2985.94
570.23	2873.30
570.43	2920.40
570.62	3047.38
570.82	3315.66
571.01	2723.80
571.21	2854.87
571.40	2803.67
571.60	3170.26
571.79	2938.84
571.99	2850.77
572.18	2846.68
572.38	2981.84
572.57	2867.16
572.77	2955.22
572.96	3504.07
573.16	3061.71
573.35	2879.44
573.55	2897.88
573.74	2924.50
573.94	2830.29
574.13	2895.83
574.33	3026.90
574.52	3205.07
574.71	3004.37
574.91	2873.30
575.10	2768.85
575.30	2873.30
575.49	2783.19
575.69	2783.19
575.88	2893.78
576.08	2955.22
576.27	3157.97
576.47	2803.67
576.66	3108.82
576.86	3135.44
577.05	3006.42
577.25	2936.79
577.44	3067.86
577.64	2865.11
577.83	3139.54
578.02	2811.86
578.22	2983.89
578.41	3327.95
578.61	2926.55
578.80	2723.80
579.00	2871.25
579.19	2967.51
579.39	3055.57
579.58	3022.80
579.77	2908.12
579.97	3256.27
580.16	3227.60
580.36	3045.33
580.55	2963.41
580.75	3045.33
580.94	3016.66
581.13	3018.71
581.33	3080.14
581.52	2910.16
581.72	3379.15
581.91	2969.55
582.11	2844.63
582.30	3129.30
582.49	3135.44
582.69	3108.82
582.88	2975.70
583.08	3053.52
583.27	3207.12
583.47	2965.46
583.66	2801.62
583.85	2871.25
584.05	2930.64
584.24	2938.84
584.44	2914.26
584.63	3102.67
584.82	3209.17
585.02	3039.19
585.21	3037.14
585.41	3069.91
585.60	3022.80
585.79	3123.15
585.99	3145.68
586.18	3033.04
586.37	3885.00
586.57	5828.52
586.76	16877.31
586.96	35735.01
587.15	48631.07
587.34	57236.63
587.54	61371.48
587.73	54637.76
587.93	38825.39
588.12	29736.51
588.31	24202.89
588.51	21157.57
588.70	19728.08
588.89	17180.41
589.09	14841.63
589.28	12582.72
589.47	9951.08
589.67	7483.28
589.86	5975.97
590.06	4661.18
590.25	4120.51
590.44	3618.76
590.64	3239.89
590.83	3270.61
591.02	3172.30
591.22	2920.40
591.41	2965.46
591.60	3012.56
591.80	3448.78
591.99	2682.84
592.18	2844.63
592.38	3135.44
592.57	2926.55
592.76	2906.07
592.96	2985.94
593.15	3065.81
593.34	3227.60
593.54	2832.34
593.73	3018.71
593.92	3147.73
594.12	3200.98
594.31	2869.20
594.50	3104.72
594.70	3088.34
594.89	3520.46
595.08	2738.13
595.28	2961.36
595.47	3526.60
595.66	3114.96
595.86	2789.33
596.05	2715.61
596.24	2889.68
596.43	3358.67
596.63	3047.38
596.82	3076.05
597.01	2977.75
597.21	3246.03
597.40	2861.01
597.59	2904.02
597.79	2953.17
597.98	3127.25
598.17	2949.08
598.36	2813.91
598.56	3147.73
598.75	2965.46
598.94	2916.31
599.14	2942.93
599.33	2949.08
599.52	3100.62
599.71	2963.41
599.91	2940.88
600.10	3172.30
600.29	2985.94
600.48	2926.55
600.68	2944.98
600.87	3028.95
601.06	2938.84
601.26	2918.36
601.45	2983.89
601.64	2936.79
601.83	3198.93
602.03	2729.94
602.22	2783.19
602.41	3178.45
602.60	3397.58
602.80	2973.65
602.99	3012.56
603.18	2936.79
603.37	3016.66
603.57	2791.38
603.76	2895.83
603.95	3237.84
604.14	2918.36
604.34	2779.09
604.53	2834.39
604.72	3020.75
604.91	3043.28
605.10	2916.31
605.30	2734.04
605.49	3358.67
605.68	3084.24
605.87	2973.65
606.07	2826.20
606.26	2994.13
606.45	3069.91
606.64	2897.88
606.84	2748.37
607.03	2949.08
607.22	3145.68
607.41	2856.92
607.60	2803.67
607.80	3096.53
607.99	3008.47
608.18	2922.45
608.37	2901.97
608.56	2924.50
608.76	3235.79
608.95	3006.42
609.14	2856.92
609.33	3170.26
609.52	3164.11
609.72	2985.94
609.91	2920.40
610.10	3057.62
610.29	3266.51
610.48	3006.42
610.68	3000.27
610.87	2967.51
611.06	3198.93
611.25	2910.16
611.44	2969.55
611.63	2979.79
611.83	3182.54
612.02	2770.90
612.21	2963.41
612.40	2779.09
612.59	2740.18
612.79	2770.90
612.98	2967.51
613.17	3190.74
613.36	2910.16
613.55	2942.93
613.74	2897.88
613.93	2951.12
614.13	3026.90
614.32	2955.22
614.51	2971.60
614.70	2967.51
614.89	2893.78
615.08	2922.45
615.28	3196.88
615.47	2766.81
615.66	3049.43
615.85	2936.79
616.04	2936.79
616.23	2985.94
616.42	3004.37
616.62	2856.92
616.81	2871.25
617.00	2951.12
617.19	3065.81
617.38	2877.40
617.57	2947.03
617.76	3102.67
617.95	3143.63
618.15	3014.61
618.34	3166.16
618.53	2791.38
618.72	3080.14
618.91	3059.67
619.10	3000.27
619.29	2961.36
619.48	3041.23
619.68	2723.80
619.87	2803.67
620.06	2840.53
620.25	3106.77
620.44	2754.52
620.63	2963.41
620.82	2967.51
621.01	3041.23
621.20	2904.02
621.39	2910.16
621.59	3043.28
621.78	2928.60
621.97	2867.16
622.16	2947.03
622.35	3143.63
622.54	3258.32
622.73	2983.89
622.92	2590.68
623.11	3205.07
623.30	2928.60
623.49	2981.84
623.68	2680.79
623.88	3217.36
624.07	2891.73
624.26	2807.77
624.45	2897.88
624.64	2983.89
624.83	2979.79
625.02	2820.05
625.21	2858.96
625.40	2899.92
625.59	3176.40
625.78	2963.41
625.97	2963.41
626.16	3203.02
626.35	3061.71
626.54	2852.82
626.74	3026.90
626.93	2985.94
627.12	2908.12
627.31	2897.88
627.50	2969.55
627.69	3139.54
627.88	2871.25
628.07	2754.52
628.26	2711.51
628.45	2875.35
628.64	2838.48
628.83	2869.20
629.02	2740.18
629.21	3082.19
629.40	3057.62
629.59	2785.24
629.78	2791.38
629.97	3000.27
630.16	3039.19
630.35	2840.53
630.54	2996.18
630.73	2906.07
630.92	2963.41
631.11	2826.20
631.30	2811.86
631.49	3192.78
631.68	2971.60
631.87	2850.77
632.06	2723.80
632.25	3370.96
632.44	2961.36
632.63	2877.40
632.82	2906.07
633.01	2842.58
633.20	3096.53
633.39	2906.07
633.58	2742.23
633.77	3061.71
633.96	3074.00
634.15	3004.37
634.34	2994.13
634.53	3071.95
634.72	2885.59
634.91	2764.76
635.10	2969.55
635.29	3069.91
635.48	3053.52
635.67	2793.43
635.86	2680.79
636.05	3280.85
636.24	2983.89
636.43	2881.49
636.62	2899.92
636.81	2502.62
637.00	2953.17
637.19	2840.53
637.38	2871.25
637.57	2848.72
637.76	3051.47
637.95	3030.99
638.14	2861.01
638.33	3002.32
638.52	2990.03
638.71	2723.80
638.89	2723.80
639.08	3413.96
639.27	3145.68
639.46	3020.75
639.65	3319.76
639.84	3387.34
640.03	3575.75
640.22	3133.39
640.41	3205.07
640.60	3024.85
640.79	3200.98
640.98	3110.86
641.17	3067.86
641.36	3221.45
641.55	3039.19
641.74	2699.22
641.92	2797.53
642.11	2850.77
642.30	2979.79
642.49	2748.37
642.68	2826.20
642.87	3053.52
643.06	3037.14
643.25	2699.22
643.44	2828.24
643.63	2949.08
643.82	3207.12
644.00	2744.28
644.19	2869.20
644.38	2828.24
644.57	3049.43
644.76	2881.49
644.95	2879.44
645.14	2979.79
645.33	2936.79
645.52	2887.64
645.71	2693.08
645.89	2781.14
646.08	2983.89
646.27	2858.96
646.46	3078.10
646.65	2727.89
646.84	2951.12
647.03	2772.95
647.22	3049.43
647.40	3053.52
647.59	2969.55
647.78	2648.02
647.97	2801.62
648.16	2906.07
648.35	3254.22
648.54	3108.82
648.73	2822.10
648.91	3149.78
649.10	2969.55
649.29	2793.43
649.48	2764.76
649.67	2971.60
649.86	3020.75
650.05	2865.11
650.23	2973.65
650.42	2940.88
650.61	3149.78
650.80	3008.47
650.99	3114.96
651.18	3196.88
651.36	3203.02
651.55	2891.73
651.74	3010.51
651.93	2932.69
652.12	2961.36
652.31	2891.73
652.49	2865.11
652.68	2926.55
652.87	3157.97
653.06	2973.65
653.25	3160.02
653.44	2975.70
653.62	3198.93
653.81	2904.02
654.00	2969.55
654.19	3164.11
654.38	3442.64
654.56	2920.40
654.75	2863.06
654.94	3223.50
655.13	3074.00
655.32	2893.78
655.51	3008.47
655.69	2961.36
655.88	3151.82
656.07	2713.56
656.26	2858.96
656.45	2725.85
656.63	3076.05
656.82	2793.43
657.01	3084.24
657.20	2877.40
657.38	3237.84
657.57	2760.66
657.76	2715.61
657.95	3127.25
658.14	2899.92
658.32	2891.73
658.51	2781.14
658.70	3008.47
658.89	3043.28
659.08	2887.64
659.26	3041.23
659.45	2815.96
659.64	3088.34
659.83	2861.01
660.01	3246.03
660.20	3024.85
660.39	3311.57
660.58	2650.07
660.76	2887.64
660.95	2775.00
661.14	2975.70
661.33	2727.89
661.51	2883.54
661.70	2930.64
661.89	3098.58
662.08	2955.22
662.26	2693.08
662.45	2826.20
662.64	3332.05
662.83	2928.60
663.01	2770.90
663.20	2850.77
663.39	3239.89
663.58	2803.67
663.76	2811.86
663.95	3080.14
664.14	2891.73
664.32	2926.55
664.51	2789.33
664.70	2731.99
664.89	2969.55
665.07	2748.37
665.26	2942.93
665.45	2746.33
665.64	3069.91
665.82	2889.68
666.01	2961.36
666.20	2797.53
666.38	3108.82
666.57	3082.19
666.76	4804.53
666.95	10991.45
667.13	17819.38
667.32	21518.01
667.51	24053.39
667.69	25218.69
667.88	21198.52
668.07	15126.30
668.25	13027.13
668.44	11206.48
668.63	9641.84
668.81	8728.44
669.00	7497.61
669.19	6643.61
669.38	5986.21
669.56	4999.09
669.75	4333.50
669.94	3925.96
670.12	3489.74
670.31	3170.26
670.50	3090.38
670.68	3149.78
670.87	3123.15
671.06	2799.57
671.24	2850.77
671.43	3186.64
671.62	2951.12
671.80	2881.49
671.99	2899.92
672.18	3022.80
672.36	3117.01
672.55	3022.80
672.74	2877.40
672.92	2930.64
673.11	3057.62
673.29	2748.37
673.48	2959.31
673.67	2930.64
673.85	3160.02
674.04	2811.86
674.23	2914.26
674.41	3332.05
674.60	2762.71
674.79	2736.09
674.97	2777.05
675.16	3063.76
675.34	3184.59
675.53	2848.72
675.72	2869.20
675.90	3203.02
676.09	2981.84
676.28	2971.60
676.46	2734.04
676.65	3162.06
676.83	2858.96
677.02	2965.46
677.21	2912.21
677.39	2967.51
677.58	2799.57
677.77	2852.82
677.95	2820.05
678.14	2885.59
678.32	2967.51
678.51	2801.62
678.70	3157.97
678.88	2822.10
679.07	3016.66
679.25	2863.06
679.44	2910.16
679.63	2856.92
679.81	3049.43
680.00	3131.34
680.18	2973.65
680.37	3276.75
680.55	2973.65
680.74	2625.50
680.93	2637.78
681.11	3084.24
681.30	3071.95
681.48	2912.21
681.67	2822.10
681.85	3045.33
682.04	2963.41
682.23	3008.47
682.41	2977.75
682.60	2881.49
682.78	2863.06
682.97	2766.81
683.15	2914.26
683.34	3071.95
683.53	3246.03
683.71	2641.88
683.90	2955.22
684.08	3188.69
684.27	2850.77
684.45	2920.40
684.64	3108.82
684.82	2996.18
685.01	3096.53
685.19	2777.05
685.38	3172.30
685.57	2944.98
685.75	2846.68
685.94	2740.18
686.12	2760.66
686.31	2944.98
686.49	3184.59
686.68	2625.50
686.86	2840.53
687.05	2973.65
687.23	3231.69
687.42	2865.11
687.60	2682.84
687.79	3141.58
687.97	3227.60
688.16	3059.67
688.34	3043.28
688.53	2707.41
688.71	3035.09
688.90	3121.10
689.08	2922.45
689.27	2699.22
689.45	3112.91
689.64	2998.23
689.82	2971.60
690.01	3076.05
690.19	2992.08
690.38	2940.88
690.56	2981.84
690.75	2830.29
690.93	2910.16
691.12	2922.45
691.30	2957.27
691.49	2908.12
691.67	2926.55
691.86	3176.40
692.04	2852.82
692.23	2906.07
692.41	3000.27
692.60	3192.78
692.78	3008.47
692.97	2977.75
693.15	3051.47
693.34	3086.29
693.52	3117.01
693.71	2856.92
693.89	2871.25
694.08	2748.37
694.26	2983.89
694.44	3071.95
694.63	3092.43
694.81	2752.47
695.00	2846.68
695.18	3217.36
695.37	3440.59
695.55	3033.04
695.74	2893.78
695.92	2949.08
696.10	3198.93
696.29	2715.61
696.47	2871.25
696.66	2770.90
696.84	2811.86
697.03	2938.84
697.21	3100.62
697.40	4403.13
697.58	3264.46
697.76	2879.44
697.95	2789.33
698.13	2887.64
698.32	2936.79
698.50	2838.48
698.68	2842.58
698.87	3055.57
699.05	3276.75
699.24	2885.59
699.42	2783.19
699.61	3039.19
699.79	2932.69
699.97	2879.44
700.16	2717.65
700.34	2836.44
700.53	3063.76
700.71	3121.10
700.89	2926.55
701.08	2949.08
701.26	2897.88
701.45	3305.42
701.63	2795.48
701.81	2834.39
702.00	2922.45
702.18	2891.73
702.37	2908.12
702.55	3225.55
702.73	3102.67
702.92	2785.24
703.10	3104.72
703.28	3100.62
703.47	2809.81
703.65	3125.20
703.84	3033.04
704.02	2891.73
704.20	3254.22
704.39	2846.68
704.57	2768.85
704.75	3151.82
704.94	3133.39
705.12	2887.64
705.30	3485.64
705.49	6698.91
705.67	12986.17
705.86	18380.52
706.04	20465.35
706.22	23092.90
706.41	22337.20
706.59	17010.43
706.77	13199.16
706.96	11300.69
707.14	10397.54
707.32	8955.77
707.51	8028.04
707.69	6563.74
707.87	5484.46
708.06	4607.93
708.24	3948.48
708.42	3645.38
708.61	3735.50
708.79	2883.54
708.97	3010.51
709.16	3104.72
709.34	3055.57
709.52	2961.36
709.71	2947.03
709.89	3166.16
710.07	2834.39
710.26	2750.42
710.44	2908.12
710.62	3084.24
710.80	2893.78
710.99	2957.27
711.17	2992.08
711.35	2824.15
711.54	2869.20
711.72	3055.57
711.90	2953.17
712.09	3082.19
712.27	2813.91
712.45	3028.95
712.63	2834.39
712.82	2979.79
713.00	2973.65
713.18	3018.71
713.37	2994.13
713.55	3162.06
713.73	3071.95
713.91	2985.94
714.10	2893.78
714.28	2955.22
714.46	3053.52
714.65	2951.12
714.83	2869.20
715.01	3014.61
715.19	2959.31
715.38	2766.81
715.56	2994.13
715.74	2846.68
715.92	2822.10
716.11	3035.09
716.29	2590.68
716.47	2940.88
716.65	2916.31
716.84	2705.37
717.02	2998.23
717.20	2686.94
717.38	2820.05
717.57	2910.16
717.75	2879.44
717.93	2863.06
718.11	3008.47
718.30	2783.19
718.48	2846.68
718.66	3160.02
718.84	3090.38
719.03	2842.58
719.21	2809.81
719.39	3303.37
719.57	3069.91
719.75	3004.37
719.94	2813.91
720.12	2940.88
720.30	2959.31
720.48	2979.79
720.67	2820.05
720.85	2811.86
721.03	2879.44
721.21	2811.86
721.39	2959.31
721.58	3035.09
721.76	3002.32
721.94	2899.92
722.12	3047.38
722.30	3293.13
722.49	2912.21
722.67	2930.64
722.85	2897.88
723.03	2746.33
723.21	2924.50
723.40	2889.68
723.58	3024.85
723.76	3092.43
723.94	3137.49
724.12	2832.34
724.30	3035.09
724.49	3080.14
724.67	2803.67
724.85	3024.85
725.03	2697.17
725.21	3108.82
725.40	3123.15
725.58	2901.97
725.76	3086.29
725.94	3076.05
726.12	2846.68
726.30	2928.60
726.49	2766.81
726.67	2893.78
726.85	3059.67
727.03	3379.15
727.21	4417.47
727.39	5482.41
727.57	5883.81
727.76	6416.29
727.94	6375.33
728.12	5695.40
728.30	4702.14
728.48	4542.39
728.66	4126.66
728.84	3989.44
729.03	3469.26
729.21	3399.63
729.39	3153.87
729.57	3090.38
729.75	2996.18
729.93	2957.27
730.11	2729.94
730.30	2951.12
730.48	2983.89
730.66	2947.03
730.84	3004.37
731.02	3039.19
731.20	2918.36
731.38	2922.45
731.56	2729.94
731.74	2705.37
731.93	2969.55
732.11	2973.65
732.29	2830.29
732.47	3094.48
732.65	2987.99
732.83	3061.71
733.01	2981.84
733.19	2936.79
733.37	3026.90
733.56	2953.17
733.74	2834.39
733.92	3260.37
734.10	2920.40
734.28	3059.67
734.46	2635.74
734.64	2973.65
734.82	2944.98
735.00	2811.86
735.18	2815.96
735.36	3037.14
735.54	2963.41
735.73	2877.40
735.91	2969.55
736.09	3141.58
736.27	2996.18
736.45	2887.64
736.63	2744.28
736.81	2899.92
736.99	3151.82
737.17	3129.30
737.35	2871.25
737.53	2971.60
737.71	2901.97
737.89	3102.67
738.07	2793.43
738.25	2777.05
738.43	2721.75
738.61	2820.05
738.80	2731.99
738.98	2846.68
739.16	2893.78
739.34	2850.77
739.52	3112.91
739.70	2891.73
739.88	3157.97
740.06	3018.71
740.24	2562.01
740.42	3196.88
740.60	2658.26
740.78	2867.16
740.96	2682.84
741.14	2867.16
741.32	2965.46
741.50	2650.07
741.68	3100.62
741.86	3166.16
742.04	2887.64
742.22	2867.16
742.40	2899.92
742.58	3049.43
742.76	2869.20
742.94	3080.14
743.12	2645.98
743.30	3004.37
743.48	3061.71
743.66	2744.28
743.84	2854.87
744.02	2932.69
744.20	2967.51
744.38	2789.33
744.56	2762.71
744.74	3293.13
744.92	3119.06
745.10	3155.92
745.28	2908.12
745.46	3309.52
745.64	2936.79
745.82	2908.12
746.00	2838.48
746.18	3059.67
746.36	2811.86
746.54	2875.35
746.72	2877.40
746.90	2826.20
747.08	3221.45
747.26	2838.48
747.44	2990.03
747.62	3051.47
747.80	3100.62
747.98	3041.23
748.15	2844.63
748.33	3305.42
748.51	3006.42
748.69	2953.17
748.87	2877.40
749.05	2856.92
749.23	2893.78
749.41	2936.79
749.59	2879.44
749.77	3160.02
749.95	2910.16
750.13	2830.29
750.31	3016.66
750.49	2953.17
750.67	3143.63
750.85	3063.76
751.03	2854.87
751.20	3323.85
751.38	2942.93
751.56	2965.46
751.74	2969.55
751.92	3008.47
752.10	2809.81
752.28	3045.33
752.46	2854.87
752.64	3010.51
752.82	2953.17
753.00	2981.84
753.18	2746.33
753.35	2889.68
753.53	2928.60
753.71	2852.82
753.89	2977.75
754.07	3006.42
754.25	3141.58
754.43	2977.75
754.61	2830.29
754.79	3082.19
754.97	2924.50
755.14	3149.78
755.32	2803.67
755.50	3006.42
755.68	3026.90
755.86	2742.23
756.04	2906.07
756.22	2731.99
756.40	3143.63
756.57	3129.30
756.75	2824.15
756.93	3162.06
757.11	3121.10
757.29	2797.53
757.47	2748.37
757.65	2731.99
757.82	2654.17
758.00	2744.28
758.18	2740.18
758.36	2854.87
758.54	3291.09
758.72	2684.89
758.90	2967.51
759.07	3051.47
759.25	2799.57
759.43	2983.89
759.61	2701.27
759.79	4093.89
759.97	3102.67
760.15	2875.35
760.32	2930.64
760.50	3018.71
760.68	3229.65
760.86	2738.13
761.04	3063.76
761.22	3160.02
761.39	2959.31
761.57	3037.14
761.75	2879.44
761.93	3051.47
762.11	2996.18
762.28	2957.27
762.46	2754.52
762.64	3186.64
762.82	2693.08
763.00	2836.44
763.18	3065.81
763.35	2772.95
763.53	3049.43
763.71	2971.60
763.89	2840.53
764.07	2985.94
764.24	2985.94
764.42	3026.90
764.60	2928.60
764.78	3039.19
764.96	3139.54
765.13	3061.71
765.31	2781.14
765.49	3080.14
765.67	2834.39
765.84	2889.68
766.02	2750.42
766.20	2666.46
766.38	2979.79
766.56	2957.27
766.73	2975.70
766.91	3000.27
767.09	3082.19
767.27	2967.51
767.44	2787.29
767.62	3106.77
767.80	3090.38
767.98	2760.66
768.15	2826.20
768.33	3133.39
768.51	3139.54
768.69	2951.12
768.87	2932.69
769.04	2965.46
769.22	3502.03
769.40	2944.98
769.58	3090.38
769.75	2969.55
769.93	3139.54
770.11	2852.82
770.28	2697.17
770.46	3155.92
770.64	3041.23
770.82	2918.36
770.99	2779.09
771.17	3028.95
771.35	2887.64
771.53	2906.07
771.70	2787.29
771.88	3090.38
772.06	2899.92
772.23	2793.43
772.41	2924.50
772.59	2883.54
772.77	2820.05
772.94	2887.64
773.12	3026.90
773.30	2879.44
773.47	2944.98
773.65	2799.57
773.83	3024.85
774.01	2983.89
774.18	2648.02
774.36	2895.83
774.54	2701.27
774.71	3045.33
774.89	2676.70
775.07	2797.53
775.24	2815.96
775.42	2916.31
775.60	3266.51
775.78	2746.33
775.95	2703.32
776.13	2721.75
776.31	2676.70
776.48	2942.93
776.66	3090.38
776.84	2889.68
777.01	2854.87
777.19	2809.81
777.37	2789.33
777.54	3098.58
777.72	3319.76
777.90	2967.51
778.07	2820.05
778.25	3581.90
778.43	3186.64
778.60	2731.99
778.78	2918.36
778.96	3293.13
779.13	2832.34
779.31	2924.50
779.49	2926.55
779.66	2936.79
779.84	3037.14
780.01	2973.65
780.19	2789.33
780.37	3221.45
780.54	3125.20
780.72	2738.13
780.90	2834.39
781.07	2904.02
781.25	2828.24
781.43	3049.43
781.60	2867.16
781.78	3166.16
781.95	2973.65
782.13	2910.16
782.31	2811.86
782.48	2678.74
782.66	2914.26
782.83	3125.20
783.01	2959.31
783.19	3129.30
783.36	2897.88
783.54	2672.60
783.72	3026.90
783.89	2922.45
784.07	2922.45
784.24	2895.83
784.42	2985.94
784.60	3004.37
784.77	3016.66
784.95	2686.94
785.12	2867.16
785.30	3065.81
785.47	2852.82
785.65	2785.24
785.83	2885.59
786.00	2867.16
786.18	2971.60
786.35	2746.33
786.53	2758.61
786.71	3170.26
786.88	3061.71
787.06	2959.31
787.23	2842.58
787.41	2777.05
787.58	3033.04
787.76	2795.48
787.94	2865.11
788.11	3041.23
788.29	2744.28
788.46	2846.68
788.64	2705.37
788.81	2951.12
788.99	2826.20
789.16	2744.28
789.34	2848.72
789.52	2852.82
789.69	2990.03
789.87	2697.17
790.04	2801.62
790.22	2987.99
790.39	3319.76
790.57	2785.24
790.74	2807.77
790.92	3096.53
791.09	2721.75
791.27	2887.64
791.44	2963.41
791.62	2865.11
791.79	3098.58
791.97	2899.92
792.15	3160.02
792.32	3114.96
792.50	3145.68
792.67	3139.54
792.85	3182.54
793.02	3051.47
793.20	2887.64
793.37	2719.70
793.55	2787.29
793.72	2715.61
793.90	3030.99
794.07	2916.31
794.25	2762.71
794.42	2985.94
794.60	2910.16
794.77	2863.06
794.95	2963.41
795.12	3059.67
795.30	2994.13
795.47	2631.64
795.65	3221.45
795.82	2973.65
796.00	2838.48
796.17	2875.35
796.34	2830.29
796.52	2959.31
796.69	3108.82
796.87	2979.79
797.04	2973.65
797.22	3172.30
797.39	3049.43
797.57	3049.43
797.74	2920.40
797.92	3030.99
798.09	2838.48
798.27	3139.54
798.44	2844.63
798.62	2883.54
798.79	3043.28
798.96	2895.83
799.14	2924.50
799.31	3471.31
799.49	2934.74
799.66	2838.48
799.84	2967.51
800.01	2750.42
800.19	3119.06
800.36	2621.40
800.53	2901.97
800.71	3114.96
800.88	3227.60
801.06	2811.86
801.23	2838.48
801.41	2875.35
801.58	2881.49
801.75	2836.44
801.93	2899.92
802.10	3110.86
802.28	2895.83
802.45	2799.57
802.63	2957.27
802.80	3104.72
802.97	2893.78
803.15	2861.01
803.32	2887.64
803.50	2775.00
803.67	2834.39
803.84	2791.38
804.02	2910.16
804.19	2947.03
804.37	2582.49
804.54	2736.09
804.71	2822.10
804.89	2949.08
805.06	2883.54
805.24	2852.82
805.41	2660.31
805.58	2908.12
805.76	3391.44
805.93	2875.35
806.10	2990.03
806.28	3078.10
806.45	2955.22
806.63	2992.08
806.80	2842.58
806.97	3098.58
807.15	2897.88
807.32	2947.03
807.49	2834.39
807.67	2777.05
807.84	3012.56
808.01	2666.46
808.19	2983.89
808.36	3352.52
808.54	2791.38
808.71	2818.00
808.88	2818.00
809.06	3149.78
809.23	3307.47
809.40	2775.00
809.58	2873.30
809.75	2979.79
809.92	2867.16
810.10	3094.48
810.27	2854.87
810.44	3024.85
810.62	3088.34
810.79	2983.89
810.96	2852.82
811.14	2871.25
811.31	3045.33
811.48	3002.32
811.66	2848.72
811.83	3164.11
812.00	3047.38
812.18	2938.84
812.35	3219.41
812.52	2906.07
812.69	3002.32
812.87	2885.59
813.04	2754.52
813.21	2955.22
813.39	2822.10
813.56	2727.89
813.73	3139.54
813.91	2750.42
814.08	3037.14
814.25	2815.96
814.42	2688.98
814.60	2906.07
814.77	2947.03
814.94	2803.67
815.12	2965.46
815.29	3286.99
815.46	2867.16
815.63	2932.69
815.81	2844.63
815.98	2871.25
816.15	2963.41
816.33	2807.77
816.50	2938.84
816.67	2977.75
816.84	2967.51
817.02	2746.33
817.19	2887.64
817.36	3030.99
817.53	3002.32
817.71	2760.66
817.88	2848.72
818.05	2938.84
818.22	3002.32
818.40	3098.58
818.57	2815.96
818.74	3041.23
818.91	2850.77
819.09	3100.62
819.26	2912.21
819.43	2897.88
819.60	2820.05
819.78	3004.37
819.95	2920.40
820.12	2740.18
820.29	3270.61
820.47	3110.86
820.64	2809.81
820.81	2740.18
820.98	2809.81
821.15	2832.34
821.33	2920.40
821.50	2731.99
821.67	3041.23
821.84	2807.77
822.02	2869.20
822.19	3092.43
822.36	2854.87
822.53	2830.29
822.70	2760.66
822.88	2901.97
823.05	3256.27
823.22	2942.93
823.39	2858.96
823.56	2965.46
823.74	3366.86
823.91	2719.70
824.08	2686.94
824.25	2760.66
824.42	3303.37
824.60	2719.70
824.77	3008.47
824.94	2885.59
825.11	3065.81
825.28	2656.22
825.45	3012.56
825.63	3082.19
825.80	2891.73
825.97	2990.03
826.14	2906.07
826.31	2658.26
826.48	3053.52
826.66	2742.23
826.83	2772.95
827.00	2949.08
827.17	2820.05
827.34	2926.55
827.51	2805.72
827.69	2891.73
827.86	2756.57
828.03	2818.00
828.20	2949.08
828.37	2850.77
828.54	2965.46
828.71	2789.33
828.89	2983.89
829.06	3008.47
829.23	3170.26
829.40	2789.33
829.57	2781.14
829.74	3061.71
829.91	2932.69
830.09	2795.48
830.26	2983.89
830.43	3250.13
830.60	2891.73
830.77	2975.70
830.94	3061.71
831.11	3106.77
831.28	2881.49
831.46	2965.46
831.63	2852.82
831.80	3090.38
831.97	2779.09
832.14	2830.29
832.31	2936.79
832.48	3039.19
832.65	3205.07
832.82	2926.55
832.99	2979.79
833.17	2815.96
833.34	3270.61
833.51	2832.34
833.68	2633.69
833.85	3094.48
834.02	2803.67
834.19	2711.51
834.36	2793.43
834.53	3016.66
834.70	3100.62
834.87	2897.88
835.04	2621.40
835.22	2875.35
835.39	2920.40
835.56	2723.80
835.73	2746.33
835.90	3088.34
836.07	2809.81
836.24	2840.53
836.41	2717.65
836.58	2867.16
836.75	3172.30
836.92	2781.14
837.09	2721.75
837.26	3051.47
837.43	3102.67
837.60	2729.94
837.77	2764.76
837.94	3112.91
838.12	3092.43
838.29	2721.75
838.46	2639.83
838.63	2826.20
838.80	3272.65
838.97	2760.66
839.14	2731.99
839.31	2994.13
839.48	3092.43
839.65	2709.46
839.82	2801.62
839.99	3076.05
840.16	2934.74
840.33	2639.83
840.50	2719.70
840.67	2854.87
840.84	2670.55
841.01	2713.56
841.18	2678.74
841.35	2949.08
841.52	3147.73
841.69	3008.47
841.86	2758.61
842.03	3010.51
842.20	3100.62
842.37	2674.65
842.54	2762.71
842.71	3008.47
842.88	2678.74
843.05	2740.18
843.22	2680.79
843.39	3065.81
843.56	2856.92
843.73	2781.14
843.90	2824.15
844.07	2949.08
844.24	3096.53
844.41	2879.44
844.58	2777.05
844.75	2916.31
844.92	3057.62
845.09	2791.38
845.26	2740.18
845.43	3076.05
845.60	2885.59
845.77	2828.24
845.94	2875.35
846.10	3192.78
846.27	2734.04
846.44	2615.26
846.61	2648.02
846.78	3008.47
846.95	3145.68
847.12	2723.80
847.29	2731.99
847.46	2797.53
847.63	3104.72
847.80	2662.36
847.97	2787.29
848.14	3387.34
848.31	2901.97
848.48	2674.65
848.65	2766.81
848.82	2875.35
848.98	3467.21
849.15	2861.01
849.32	2818.00
849.49	3203.02
849.66	2977.75
849.83	2717.65
850.00	2672.60
850.17	3035.09
850.34	2891.73
850.51	2715.61
850.68	2838.48
850.85	3340.24
851.01	3030.99
851.18	2756.57
851.35	2822.10
851.52	3030.99
851.69	3227.60
851.86	2645.98
852.03	2729.94
852.20	3147.73
852.37	2967.51
852.53	2641.88
852.70	2699.22
852.87	2969.55
853.04	3123.15
853.21	2742.23
853.38	2908.12
853.55	3162.06
853.72	3127.25
853.89	2650.07
854.05	2719.70
854.22	2934.74
854.39	2918.36
854.56	2785.24
854.73	2895.83
854.90	2848.72
855.07	3045.33
855.23	2691.03
855.40	2648.02
855.57	2930.64
855.74	2590.68
855.91	2885.59
856.08	2615.26
856.25	2795.48
856.41	2918.36
856.58	2699.22
856.75	2783.19
856.92	2799.57
857.09	3149.78
857.26	2623.45
857.42	2818.00
857.59	3045.33
857.76	2863.06
857.93	2754.52
858.10	2818.00
858.27	2863.06
858.43	2891.73
858.60	2598.87
858.77	2641.88
858.94	2858.96
859.11	3098.58
859.27	2746.33
859.44	2658.26
859.61	3307.47
859.78	3141.58
859.95	2705.37
860.12	2750.42
860.28	3375.05
860.45	3282.89
860.62	2662.36
860.79	2865.11
860.95	3008.47
861.12	2789.33
861.29	2662.36
861.46	2631.64
861.63	3033.04
861.79	3030.99
861.96	2707.41
862.13	2736.09
862.30	3268.56
862.47	2865.11
862.63	2609.11
862.80	2777.05
862.97	3149.78
863.14	3053.52
863.30	2875.35
863.47	2682.84
863.64	3319.76
863.81	3065.81
863.97	2627.54
864.14	2713.56
864.31	2871.25
864.48	2977.75
864.65	2738.13
864.81	2822.10
864.98	3078.10
865.15	3059.67
865.32	2772.95
865.48	2897.88
865.65	3250.13
865.82	2828.24
865.98	2797.53
866.15	2760.66
866.32	2973.65
866.49	2926.55
866.65	2899.92
866.82	2701.27
866.99	2904.02
867.16	2932.69
867.32	2762.71
867.49	2631.64
867.66	2971.60
867.83	2828.24
867.99	2639.83
868.16	2723.80
868.33	2758.61
868.49	3014.61
868.66	2736.09
868.83	2830.29
868.99	3043.28
869.16	2971.60
869.33	2940.88
869.50	2760.66
869.66	3028.95
869.83	2865.11
870.00	2666.46
870.16	2944.98
870.33	2985.94
870.50	3086.29
870.66	2850.77
870.83	2873.30
871.00	2912.21
871.17	3018.71
871.33	2807.77
871.50	2666.46
871.67	2944.98
871.83	2670.55
872.00	2811.86
872.17	2789.33
872.33	3268.56
872.50	3190.74
872.67	2736.09
872.83	2715.61
873.00	3133.39
873.17	2977.75
873.33	2768.85
873.50	2811.86
873.67	2795.48
873.83	2928.60
874.00	2660.31
874.16	2869.20
874.33	3018.71
874.50	2723.80
874.66	2686.94
874.83	2809.81
875.00	3147.73
875.16	3039.19
875.33	2824.15
875.50	2467.80
875.66	2861.01
875.83	2934.74
875.99	2791.38
876.16	2828.24
876.33	2901.97
876.49	2893.78
876.66	2789.33
876.83	2734.04
876.99	2686.94
877.16	2918.36
877.32	2676.70
877.49	2748.37
877.66	3030.99
877.82	3182.54
877.99	2803.67
878.15	2906.07
878.32	2949.08
878.49	2938.84
878.65	2725.85
878.82	3028.95
878.98	2928.60
879.15	3117.01
879.32	2863.06
879.48	2934.74
879.65	2910.16
879.81	2887.64
879.98	2664.41
880.15	2801.62
880.31	3123.15
880.48	2828.24
880.64	2783.19
880.81	2813.91
880.97	3241.93
881.14	3147.73
881.31	2813.91
881.47	2965.46
881.64	2871.25
881.80	2705.37
881.97	2924.50
882.13	2691.03
882.30	2861.01
882.47	2897.88
882.63	2699.22
882.80	2711.51
882.96	2854.87
883.13	3100.62
883.29	2750.42
883.46	2670.55
883.62	3360.72
883.79	3039.19
883.95	2942.93
884.12	2715.61
884.29	3153.87
884.45	2914.26
884.62	2744.28
884.78	2660.31
884.95	3289.04
885.11	2768.85
885.28	2815.96
885.44	2777.05
885.61	3098.58
885.77	3223.50
885.94	2906.07
886.10	2797.53
886.27	2983.89
886.43	3362.76
886.60	2949.08
886.76	2762.71
886.93	2854.87
887.09	3033.04
887.26	2613.21
887.42	2787.29
887.59	3092.43
887.75	3262.41
887.92	2910.16
888.08	2879.44
888.25	3336.14
888.41	3133.39
888.58	2764.76
888.74	2787.29
888.91	2959.31
>>>>>End Processed Spectral Data<<<<<
