SpectraSuite Data File
++++++++++++++++++++++++++++++++++++
Date: Thu May 05 21:10:42 CEST 2016
User: root
Dark Spectrum Present: No
Reference Spectrum Present: No
Number of Sampled Component Spectra: 1
Spectrometers: USB4C02835
Integration Time (usec): 100000 (USB4C02835)
Spectra Averaged: 1 (USB4C02835)
Boxcar Smoothing: 0 (USB4C02835)
Correct for Electrical Dark: No (USB4C02835)
Strobe/Lamp Enabled: No (USB4C02835)
Correct for Detector Non-linearity: No (USB4C02835)
Correct for Stray Light: No (USB4C02835)
Number of Pixels in Processed Spectrum: 3648
>>>>>Begin Processed Spectral Data<<<<<
177.47	2119.65
177.69	2119.65
177.91	2119.65
178.13	2099.17
178.36	2213.85
178.58	2815.96
178.80	2881.49
179.02	2707.41
179.24	2801.62
179.46	2635.74
179.68	2717.65
179.90	2942.93
180.13	2959.31
180.35	2537.43
180.57	2607.06
180.79	3059.67
181.01	2930.64
181.23	2680.79
181.45	2766.81
181.67	3094.48
181.90	3094.48
182.12	2715.61
182.34	2557.91
182.56	3053.52
182.78	3004.37
183.00	2631.64
183.22	2729.94
183.44	2709.46
183.66	3549.13
183.89	2756.57
184.11	2717.65
184.33	3047.38
184.55	3209.17
184.77	2684.89
184.99	2643.93
185.21	2938.84
185.43	3389.39
185.65	2686.94
185.87	2633.69
186.10	3377.10
186.32	3397.58
186.54	2875.35
186.76	2805.72
186.98	3119.06
187.20	2891.73
187.42	2713.56
187.64	2709.46
187.86	3080.14
188.08	3174.35
188.30	2594.78
188.52	2783.19
188.75	3180.50
188.97	3205.07
189.19	2586.58
189.41	2691.03
189.63	3098.58
189.85	2938.84
190.07	2576.34
190.29	2537.43
190.51	3018.71
190.73	2721.75
190.95	2918.36
191.17	2752.47
191.39	2699.22
191.61	3018.71
191.84	2654.17
192.06	2740.18
192.28	2662.36
192.50	3528.65
192.72	2856.92
192.94	2701.27
193.16	3215.31
193.38	3065.81
193.60	2697.17
193.82	2729.94
194.04	3180.50
194.26	3010.51
194.48	2701.27
194.70	2715.61
194.92	2863.06
195.14	3131.34
195.36	2658.26
195.58	2824.15
195.80	2961.36
196.02	2920.40
196.24	2631.64
196.46	2744.28
196.69	2836.44
196.91	3418.06
197.13	2633.69
197.35	2725.85
197.57	3268.56
197.79	3131.34
198.01	2781.14
198.23	2674.65
198.45	3057.62
198.67	2697.17
198.89	2562.01
199.11	2854.87
199.33	2918.36
199.55	2576.34
199.77	2590.68
199.99	2713.56
200.21	2924.50
200.43	3037.14
200.65	2621.40
200.87	2533.34
201.09	2990.03
201.31	2928.60
201.53	2664.41
201.75	2799.57
201.97	2981.84
202.19	2942.93
202.41	2815.96
202.63	2922.45
202.85	3157.97
203.07	3018.71
203.29	2725.85
203.51	2682.84
203.73	2871.25
203.95	3491.79
204.17	2623.45
204.39	2824.15
204.61	2967.51
204.83	2887.64
205.05	2848.72
205.27	2703.32
205.49	3373.00
205.71	2969.55
205.93	2508.76
206.15	2629.59
206.37	2942.93
206.59	2994.13
206.81	2535.39
207.03	2611.16
207.25	2830.29
207.47	3078.10
207.69	2746.33
207.91	2918.36
208.13	3317.71
208.34	2904.02
208.56	2664.41
208.78	2736.09
209.00	2957.27
209.22	2932.69
209.44	2676.70
209.66	2652.12
209.88	2930.64
210.10	2981.84
210.32	2602.97
210.54	2772.95
210.76	2930.64
210.98	3100.62
211.20	2533.34
211.42	2787.29
211.64	3133.39
211.86	3000.27
212.08	2783.19
212.30	2721.75
212.52	2967.51
212.74	2998.23
212.96	2754.52
213.17	2734.04
213.39	3004.37
213.61	3282.89
213.83	2574.30
214.05	2531.29
214.27	3162.06
214.49	2838.48
214.71	2643.93
214.93	2748.37
215.15	2906.07
215.37	3162.06
215.59	2535.39
215.81	2744.28
216.03	3182.54
216.24	2955.22
216.46	2742.23
216.68	2762.71
216.90	3121.10
217.12	3229.65
217.34	2648.02
217.56	2840.53
217.78	3225.55
218.00	3114.96
218.22	2738.13
218.44	2789.33
218.66	2920.40
218.87	3342.28
219.09	2713.56
219.31	2729.94
219.53	3043.28
219.75	2983.89
219.97	2729.94
220.19	2721.75
220.41	2926.55
220.63	3291.09
220.85	2754.52
221.06	2734.04
221.28	3266.51
221.50	3049.43
221.72	2658.26
221.94	2590.68
222.16	3051.47
222.38	3135.44
222.60	2586.58
222.82	2736.09
223.03	3203.02
223.25	2731.99
223.47	2711.51
223.69	2879.44
223.91	3213.26
224.13	3014.61
224.35	2594.78
224.57	2826.20
224.78	3125.20
225.00	2815.96
225.22	2807.77
225.44	2676.70
225.66	3092.43
225.88	2916.31
226.10	2781.14
226.32	2711.51
226.53	3284.94
226.75	2838.48
226.97	2766.81
227.19	2672.60
227.41	2883.54
227.63	2842.58
227.85	2484.19
228.06	2738.13
228.28	3026.90
228.50	3153.87
228.72	2502.62
228.94	2543.58
229.16	2709.46
229.37	2813.91
229.59	2605.02
229.81	2863.06
230.03	2856.92
230.25	2729.94
230.47	2586.58
230.69	2705.37
230.90	3147.73
231.12	2863.06
231.34	2807.77
231.56	2748.37
231.78	2803.67
232.00	2942.93
232.21	2746.33
232.43	2723.80
232.65	2619.35
232.87	3043.28
233.09	2596.82
233.30	2648.02
233.52	3166.16
233.74	2926.55
233.96	2693.08
234.18	2846.68
234.40	2940.88
234.61	3364.81
234.83	2584.54
235.05	2611.16
235.27	3491.79
235.49	3229.65
235.70	2600.92
235.92	2738.13
236.14	3100.62
236.36	3420.11
236.58	2553.82
236.79	2762.71
237.01	3002.32
237.23	2936.79
237.45	2895.83
237.67	2740.18
237.88	3131.34
238.10	3325.90
238.32	2572.25
238.54	2596.82
238.76	2863.06
238.97	2820.05
239.19	2631.64
239.41	2725.85
239.63	3176.40
239.85	2912.21
240.06	2725.85
240.28	2637.78
240.50	3078.10
240.72	2944.98
240.93	2559.96
241.15	2828.24
241.37	3022.80
241.59	3243.98
241.81	2658.26
242.02	2723.80
242.24	3010.51
242.46	3090.38
242.68	2559.96
242.89	2590.68
243.11	3096.53
243.33	2951.12
243.55	2682.84
243.76	2674.65
243.98	2885.59
244.20	2942.93
244.42	2719.70
244.64	2723.80
244.85	2715.61
245.07	2822.10
245.29	2711.51
245.51	2756.57
245.72	3045.33
245.94	3141.58
246.16	2666.46
246.38	2746.33
246.59	2848.72
246.81	2893.78
247.03	2596.82
247.24	2525.15
247.46	2899.92
247.68	2932.69
247.90	2576.34
248.11	2721.75
248.33	3082.19
248.55	2961.36
248.77	2813.91
248.98	2764.76
249.20	3284.94
249.42	3071.95
249.64	2725.85
249.85	2658.26
250.07	2924.50
250.29	3037.14
250.50	2772.95
250.72	2648.02
250.94	2996.18
251.16	3315.66
251.37	2725.85
251.59	2754.52
251.81	3069.91
252.02	3360.72
252.24	2533.34
252.46	2797.53
252.68	2877.40
252.89	2822.10
253.11	2527.19
253.33	2809.81
253.54	3233.74
253.76	2772.95
253.98	2742.23
254.20	2682.84
254.41	2766.81
254.63	2985.94
254.85	2605.02
255.06	2787.29
255.28	3041.23
255.50	2967.51
255.71	2639.83
255.93	2545.63
256.15	2967.51
256.36	3127.25
256.58	2539.48
256.80	2643.93
257.02	2910.16
257.23	2873.30
257.45	2695.13
257.67	2850.77
257.88	2869.20
258.10	3069.91
258.32	2652.12
258.53	2775.00
258.75	3350.48
258.97	2875.35
259.18	2627.54
259.40	2623.45
259.62	3260.37
259.83	3268.56
260.05	2686.94
260.27	3563.47
260.48	3174.35
260.70	2830.29
260.92	2531.29
261.13	2775.00
261.35	3047.38
261.57	3006.42
261.78	2570.20
262.00	2590.68
262.22	3117.01
262.43	2746.33
262.65	2787.29
262.86	2701.27
263.08	3397.58
263.30	3020.75
263.51	2447.32
263.73	2717.65
263.95	3176.40
264.16	2850.77
264.38	2547.67
264.60	2623.45
264.81	2912.21
265.03	3289.04
265.25	3082.19
265.46	2688.98
265.68	3160.02
265.89	3094.48
266.11	2490.33
266.33	2680.79
266.54	3166.16
266.76	3030.99
266.98	2818.00
267.19	2813.91
267.41	3139.54
267.62	2918.36
267.84	2508.76
268.06	2762.71
268.27	3071.95
268.49	3200.98
268.70	2820.05
268.92	2777.05
269.14	2832.34
269.35	2736.09
269.57	2756.57
269.79	2719.70
270.00	2930.64
270.22	3286.99
270.43	2588.63
270.65	2602.97
270.87	3012.56
271.08	3129.30
271.30	2752.47
271.51	2678.74
271.73	3078.10
271.95	3342.28
272.16	2686.94
272.38	2777.05
272.59	2895.83
272.81	3205.07
273.02	2641.88
273.24	2799.57
273.46	3252.17
273.67	2793.43
273.89	2576.34
274.10	2729.94
274.32	3157.97
274.54	2949.08
274.75	2760.66
274.97	2777.05
275.18	3147.73
275.40	3059.67
275.61	2754.52
275.83	2807.77
276.05	2721.75
276.26	2979.79
276.48	2736.09
276.69	2805.72
276.91	2836.44
277.12	3205.07
277.34	2904.02
277.55	2934.74
277.77	3026.90
277.99	2953.17
278.20	2785.24
278.42	2783.19
278.63	2854.87
278.85	2856.92
279.06	2783.19
279.28	2879.44
279.49	3211.22
279.71	3196.88
279.93	2850.77
280.14	2813.91
280.36	2897.88
280.57	3129.30
280.79	2818.00
281.00	2731.99
281.22	2914.26
281.43	3205.07
281.65	2676.70
281.86	2725.85
282.08	3022.80
282.29	3330.00
282.51	2740.18
282.73	2686.94
282.94	2750.42
283.16	3131.34
283.37	2908.12
283.59	2775.00
283.80	2981.84
284.02	2955.22
284.23	2861.01
284.45	2861.01
284.66	2811.86
284.88	2918.36
285.09	2705.37
285.31	2850.77
285.52	3010.51
285.74	2770.90
285.95	2955.22
286.17	2856.92
286.38	3157.97
286.60	2867.16
286.81	2764.76
287.03	2740.18
287.24	3008.47
287.46	3117.01
287.67	2891.73
287.89	3022.80
288.10	2998.23
288.32	3012.56
288.53	2983.89
288.75	2797.53
288.96	3092.43
289.18	2879.44
289.39	2727.89
289.61	2826.20
289.82	3399.63
290.04	3307.47
290.25	2734.04
290.47	2844.63
290.68	2985.94
290.90	3129.30
291.11	2719.70
291.33	2924.50
291.54	2846.68
291.76	2891.73
291.97	2858.96
292.18	2854.87
292.40	2922.45
292.61	2887.64
292.83	3121.10
293.04	2863.06
293.26	3061.71
293.47	2992.08
293.69	2713.56
293.90	2693.08
294.12	3194.83
294.33	3000.27
294.55	2789.33
294.76	2895.83
294.97	3211.22
295.19	3280.85
295.40	2832.34
295.62	2869.20
295.83	3153.87
296.05	2844.63
296.26	3071.95
296.48	2850.77
296.69	2922.45
296.90	2957.27
297.12	2926.55
297.33	2998.23
297.55	2983.89
297.76	3108.82
297.98	2930.64
298.19	2908.12
298.41	3014.61
298.62	2805.72
298.83	2914.26
299.05	2899.92
299.26	2805.72
299.48	2879.44
299.69	2830.29
299.90	2803.67
300.12	2820.05
300.33	3051.47
300.55	2867.16
300.76	2963.41
300.98	2789.33
301.19	3137.49
301.40	2754.52
301.62	2744.28
301.83	3104.72
302.05	3018.71
302.26	2795.48
302.47	2818.00
302.69	2809.81
302.90	3063.76
303.12	2602.97
303.33	2883.54
303.54	3311.57
303.76	2873.30
303.97	2807.77
304.19	3018.71
304.40	2815.96
304.61	3117.01
304.83	2990.03
305.04	2865.11
305.26	3143.63
305.47	2895.83
305.68	2830.29
305.90	2664.41
306.11	3178.45
306.33	2922.45
306.54	2643.93
306.75	2787.29
306.97	2752.47
307.18	2807.77
307.39	2832.34
307.61	2867.16
307.82	2979.79
308.04	2987.99
308.25	2731.99
308.46	2918.36
308.68	2936.79
308.89	2930.64
309.10	2901.97
309.32	2914.26
309.53	2928.60
309.74	3082.19
309.96	2768.85
310.17	2891.73
310.39	2908.12
310.60	3108.82
310.81	2740.18
311.03	2701.27
311.24	3223.50
311.45	2916.31
311.67	3074.00
311.88	2881.49
312.09	2944.98
312.31	2844.63
312.52	2871.25
312.73	2865.11
312.95	2838.48
313.16	2740.18
313.37	2930.64
313.59	2967.51
313.80	3082.19
314.01	3243.98
314.23	2820.05
314.44	2678.74
314.65	2840.53
314.87	2811.86
315.08	2791.38
315.29	2797.53
315.51	2873.30
315.72	2758.61
315.93	2926.55
316.15	2891.73
316.36	2916.31
316.57	3076.05
316.79	2797.53
317.00	2834.39
317.21	3057.62
317.43	2815.96
317.64	2871.25
317.85	2660.31
318.07	2807.77
318.28	2930.64
318.49	2932.69
318.70	3026.90
318.92	3106.77
319.13	3108.82
319.34	3000.27
319.56	2797.53
319.77	3110.86
319.98	3123.15
320.20	2996.18
320.41	2926.55
320.62	2963.41
320.83	2731.99
321.05	3053.52
321.26	2789.33
321.47	2973.65
321.69	3153.87
321.90	2727.89
322.11	2779.09
322.32	2979.79
322.54	3170.26
322.75	2785.24
322.96	3553.23
323.18	2787.29
323.39	2625.50
323.60	2709.46
323.81	2877.40
324.03	2863.06
324.24	2877.40
324.45	2936.79
324.66	2705.37
324.88	3315.66
325.09	3260.37
325.30	2850.77
325.52	2691.03
325.73	3026.90
325.94	2807.77
326.15	2664.41
326.37	2719.70
326.58	3149.78
326.79	3225.55
327.00	2736.09
327.22	2805.72
327.43	2926.55
327.64	2748.37
327.85	2930.64
328.07	2795.48
328.28	3282.89
328.49	2846.68
328.70	2762.71
328.92	2795.48
329.13	2922.45
329.34	3035.09
329.55	3022.80
329.76	2881.49
329.98	2949.08
330.19	3219.41
330.40	2846.68
330.61	2854.87
330.83	3121.10
331.04	2797.53
331.25	2867.16
331.46	2867.16
331.68	2838.48
331.89	3194.83
332.10	2807.77
332.31	2701.27
332.52	2998.23
332.74	3233.74
332.95	2648.02
333.16	2779.09
333.37	2953.17
333.58	2983.89
333.80	2861.01
334.01	2600.92
334.22	2983.89
334.43	2965.46
334.64	2723.80
334.86	2635.74
335.07	2848.72
335.28	3225.55
335.49	2668.50
335.70	2908.12
335.92	3211.22
336.13	3336.14
336.34	2861.01
336.55	2777.05
336.76	3119.06
336.98	2711.51
337.19	2807.77
337.40	2877.40
337.61	3444.68
337.82	2871.25
338.04	2877.40
338.25	2596.82
338.46	2867.16
338.67	2922.45
338.88	2756.57
339.09	2676.70
339.31	2979.79
339.52	2830.29
339.73	2758.61
339.94	2836.44
340.15	3098.58
340.36	2834.39
340.58	2875.35
340.79	2762.71
341.00	3135.44
341.21	2748.37
341.42	2922.45
341.63	2826.20
341.85	3162.06
342.06	2992.08
342.27	2758.61
342.48	3016.66
342.69	2793.43
342.90	3084.24
343.12	3086.29
343.33	2768.85
343.54	3246.03
343.75	3166.16
343.96	2901.97
344.17	2740.18
344.38	3018.71
344.60	2813.91
344.81	2693.08
345.02	2787.29
345.23	3233.74
345.44	3354.57
345.65	2922.45
345.86	2850.77
346.07	3037.14
346.29	2861.01
346.50	2906.07
346.71	2818.00
346.92	3151.82
347.13	3334.09
347.34	2918.36
347.55	2758.61
347.76	3045.33
347.98	2795.48
348.19	2850.77
348.40	2949.08
348.61	2842.58
348.82	3209.17
349.03	2885.59
349.24	2699.22
349.45	3274.70
349.66	2633.69
349.88	2813.91
350.09	2707.41
350.30	3178.45
350.51	3209.17
350.72	2987.99
350.93	2844.63
351.14	2936.79
351.35	3114.96
351.56	2889.68
351.77	2820.05
351.99	3022.80
352.20	3219.41
352.41	2912.21
352.62	2639.83
352.83	2953.17
353.04	3008.47
353.25	2789.33
353.46	2865.11
353.67	3129.30
353.88	2641.88
354.09	2705.37
354.30	2840.53
354.52	3010.51
354.73	2897.88
354.94	2768.85
355.15	2885.59
355.36	3246.03
355.57	2852.82
355.78	2772.95
355.99	2783.19
356.20	2934.74
356.41	3264.46
356.62	2830.29
356.83	2811.86
357.04	3205.07
357.25	2758.61
357.46	2811.86
357.68	2668.50
357.89	2738.13
358.10	2922.45
358.31	2869.20
358.52	2858.96
358.73	2879.44
358.94	2721.75
359.15	2873.30
359.36	2852.82
359.57	2996.18
359.78	2879.44
359.99	2951.12
360.20	2736.09
360.41	2985.94
360.62	3074.00
360.83	2811.86
361.04	2762.71
361.25	2953.17
361.46	3194.83
361.67	2926.55
361.88	2818.00
362.09	3188.69
362.30	3000.27
362.51	2746.33
362.72	2840.53
362.93	3180.50
363.14	3026.90
363.35	2867.16
363.56	2664.41
363.78	3207.12
363.99	3149.78
364.20	2838.48
364.41	2971.60
364.62	3348.43
364.83	2987.99
365.04	2785.24
365.25	2815.96
365.46	3319.76
365.67	2783.19
365.88	2965.46
366.09	2809.81
366.30	2813.91
366.51	3033.04
366.72	2627.54
366.93	2738.13
367.14	2985.94
367.35	3203.02
367.56	2740.18
367.77	2910.16
367.98	3010.51
368.18	3082.19
368.39	2893.78
368.60	2811.86
368.81	3157.97
369.02	3012.56
369.23	2842.58
369.44	2584.54
369.65	2967.51
369.86	3063.76
370.07	2906.07
370.28	2723.80
370.49	3041.23
370.70	3018.71
370.91	2752.47
371.12	2621.40
371.33	3096.53
371.54	2850.77
371.75	2871.25
371.96	2568.15
372.17	3026.90
372.38	2949.08
372.59	2830.29
372.80	2707.41
373.01	2885.59
373.22	3069.91
373.43	2775.00
373.64	2580.44
373.85	3289.04
374.06	3239.89
374.26	2977.75
374.47	2932.69
374.68	3241.93
374.89	2998.23
375.10	2820.05
375.31	2938.84
375.52	2965.46
375.73	2994.13
375.94	2686.94
376.15	2914.26
376.36	2797.53
376.57	2867.16
376.78	2867.16
376.99	2865.11
377.20	3178.45
377.40	2877.40
377.61	3055.57
377.82	2764.76
378.03	3274.70
378.24	3016.66
378.45	2865.11
378.66	2918.36
378.87	2723.80
379.08	2691.03
379.29	2797.53
379.50	2938.84
379.71	3002.32
379.91	3153.87
380.12	2805.72
380.33	2881.49
380.54	2992.08
380.75	2899.92
380.96	2729.94
381.17	2844.63
381.38	2951.12
381.59	3100.62
381.80	2811.86
382.00	3026.90
382.21	3028.95
382.42	3323.85
382.63	3129.30
382.84	2975.70
383.05	3133.39
383.26	3190.74
383.47	2955.22
383.68	2787.29
383.88	3026.90
384.09	3055.57
384.30	3051.47
384.51	2992.08
384.72	2885.59
384.93	2701.27
385.14	2869.20
385.35	3006.42
385.55	2779.09
385.76	3166.16
385.97	2764.76
386.18	2672.60
386.39	2840.53
386.60	2942.93
386.81	2791.38
387.02	2731.99
387.22	2713.56
387.43	3084.24
387.64	2947.03
387.85	3016.66
388.06	3051.47
388.27	4126.66
388.48	7368.59
388.68	11001.69
388.89	13504.31
389.10	14599.97
389.31	14194.47
389.52	11396.95
389.73	9854.83
389.93	9004.92
390.14	8228.74
390.35	7409.55
390.56	6823.83
390.77	5658.54
390.98	4263.87
391.18	3592.14
391.39	3368.91
391.60	2947.03
391.81	3076.05
392.02	2889.68
392.23	3352.52
392.43	3076.05
392.64	2938.84
392.85	2836.44
393.06	3286.99
393.27	2965.46
393.47	2725.85
393.68	2799.57
393.89	2932.69
394.10	3266.51
394.31	2801.62
394.52	2678.74
394.72	2830.29
394.93	3260.37
395.14	2645.98
395.35	2852.82
395.56	2979.79
395.76	2969.55
395.97	2910.16
396.18	2955.22
396.39	3022.80
396.60	3532.75
396.80	3117.01
397.01	3092.43
397.22	3069.91
397.43	3149.78
397.64	2768.85
397.84	2906.07
398.05	3403.72
398.26	2944.98
398.47	2949.08
398.67	3043.28
398.88	3049.43
399.09	3127.25
399.30	2871.25
399.51	2930.64
399.71	2858.96
399.92	2928.60
400.13	2932.69
400.34	2754.52
400.54	2965.46
400.75	3305.42
400.96	2992.08
401.17	3092.43
401.37	3123.15
401.58	3055.57
401.79	2850.77
402.00	2936.79
402.21	3481.55
402.41	3233.74
402.62	3053.52
402.83	3286.99
403.04	3327.95
403.24	3655.62
403.45	2979.79
403.66	3069.91
403.87	3184.59
404.07	3233.74
404.28	3082.19
404.49	3147.73
404.70	3078.10
404.90	3133.39
405.11	2895.83
405.32	2965.46
405.52	2961.36
405.73	2869.20
405.94	2725.85
406.15	2932.69
406.35	3067.86
406.56	3016.66
406.77	2938.84
406.98	2832.34
407.18	2838.48
407.39	3256.27
407.60	2887.64
407.80	2897.88
408.01	2854.87
408.22	3123.15
408.43	2756.57
408.63	3012.56
408.84	3188.69
409.05	3090.38
409.25	2697.17
409.46	2799.57
409.67	2906.07
409.88	2893.78
410.08	2865.11
410.29	2787.29
410.50	3135.44
410.70	3057.62
410.91	2760.66
411.12	2930.64
411.32	2944.98
411.53	2772.95
411.74	2854.87
411.95	2928.60
412.15	3035.09
412.36	3059.67
412.57	2877.40
412.77	2922.45
412.98	2963.41
413.19	2930.64
413.39	2914.26
413.60	2908.12
413.81	3362.76
414.01	2768.85
414.22	2971.60
414.43	2944.98
414.63	2914.26
414.84	3110.86
415.05	2914.26
415.25	2721.75
415.46	3016.66
415.67	2770.90
415.87	2832.34
416.08	2842.58
416.29	2899.92
416.49	3024.85
416.70	2858.96
416.91	2809.81
417.11	2959.31
417.32	3129.30
417.53	2936.79
417.73	2863.06
417.94	2969.55
418.15	3086.29
418.35	2928.60
418.56	2953.17
418.77	3327.95
418.97	2944.98
419.18	2885.59
419.38	2609.11
419.59	3076.05
419.80	3215.31
420.00	2711.51
420.21	2877.40
420.42	3225.55
420.62	3071.95
420.83	2807.77
421.04	2844.63
421.24	3037.14
421.45	3108.82
421.65	2828.24
421.86	2826.20
422.07	3067.86
422.27	3129.30
422.48	2777.05
422.69	2731.99
422.89	2981.84
423.10	2944.98
423.30	2768.85
423.51	2897.88
423.72	3055.57
423.92	3104.72
424.13	2664.41
424.33	2918.36
424.54	3088.34
424.75	2916.31
424.95	3037.14
425.16	2770.90
425.36	2953.17
425.57	3143.63
425.78	3004.37
425.98	2928.60
426.19	2891.73
426.39	2758.61
426.60	2861.01
426.81	2963.41
427.01	3076.05
427.22	2828.24
427.42	2664.41
427.63	2867.16
427.83	3143.63
428.04	3213.26
428.25	2879.44
428.45	3041.23
428.66	3129.30
428.86	2977.75
429.07	2815.96
429.28	2881.49
429.48	3004.37
429.69	2858.96
429.89	2914.26
430.10	2772.95
430.30	3043.28
430.51	3164.11
430.71	2781.14
430.92	2889.68
431.13	2867.16
431.33	3039.19
431.54	2975.70
431.74	3059.67
431.95	3360.72
432.15	2904.02
432.36	2820.05
432.56	2889.68
432.77	3289.04
432.98	3352.52
433.18	2967.51
433.39	2734.04
433.59	2883.54
433.80	3295.18
434.00	3078.10
434.21	2875.35
434.41	2838.48
434.62	3336.14
434.82	2729.94
435.03	2766.81
435.23	3037.14
435.44	2727.89
435.64	2826.20
435.85	2918.36
436.06	3117.01
436.26	3110.86
436.47	2818.00
436.67	2762.71
436.88	2899.92
437.08	3196.88
437.29	2926.55
437.49	2959.31
437.70	3172.30
437.90	2922.45
438.11	3100.62
438.31	2963.41
438.52	3217.36
438.72	3192.78
438.93	3153.87
439.13	2969.55
439.34	3174.35
439.54	2820.05
439.75	3037.14
439.95	2893.78
440.16	2928.60
440.36	2951.12
440.57	2836.44
440.77	2914.26
440.98	2918.36
441.18	3114.96
441.39	2852.82
441.59	2752.47
441.80	3368.91
442.00	2963.41
442.21	3006.42
442.41	2684.89
442.62	3182.54
442.82	2887.64
443.02	2824.15
443.23	2957.27
443.43	3041.23
443.64	3231.69
443.84	2803.67
444.05	2926.55
444.25	2965.46
444.46	2959.31
444.66	2842.58
444.87	3041.23
445.07	2731.99
445.28	2934.74
445.48	2975.70
445.69	2912.21
445.89	3520.46
446.09	2887.64
446.30	3162.06
446.50	3196.88
446.71	4661.18
446.91	5855.14
447.12	6627.23
447.32	6946.71
447.53	6893.46
447.73	5822.38
447.93	5040.05
448.14	4771.77
448.34	4741.05
448.55	4100.03
448.75	4083.65
448.96	3878.85
449.16	3649.48
449.36	3553.23
449.57	3110.86
449.77	2963.41
449.98	2994.13
450.18	3016.66
450.39	2793.43
450.59	3020.75
450.79	3037.14
451.00	2811.86
451.20	3045.33
451.41	2809.81
451.61	3092.43
451.81	2906.07
452.02	2840.53
452.22	2799.57
452.43	2895.83
452.63	2785.24
452.84	2928.60
453.04	2826.20
453.24	3004.37
453.45	2824.15
453.65	2922.45
453.86	2916.31
454.06	2985.94
454.26	2947.03
454.47	2772.95
454.67	3039.19
454.87	3106.77
455.08	2893.78
455.28	3026.90
455.49	2963.41
455.69	2881.49
455.89	3440.59
456.10	2959.31
456.30	2858.96
456.51	3084.24
456.71	3063.76
456.91	3022.80
457.12	2850.77
457.32	3094.48
457.52	2789.33
457.73	3047.38
457.93	3024.85
458.14	2875.35
458.34	2742.23
458.54	2854.87
458.75	2799.57
458.95	3123.15
459.15	2994.13
459.36	2965.46
459.56	2885.59
459.76	3485.64
459.97	2963.41
460.17	2875.35
460.37	2957.27
460.58	2957.27
460.78	3125.20
460.99	2818.00
461.19	2830.29
461.39	2938.84
461.60	2963.41
461.80	2910.16
462.00	2713.56
462.21	2967.51
462.41	2818.00
462.61	2719.70
462.82	2652.12
463.02	3076.05
463.22	2967.51
463.43	2944.98
463.63	2922.45
463.83	3172.30
464.04	3018.71
464.24	2893.78
464.44	2793.43
464.64	2987.99
464.85	3098.58
465.05	2871.25
465.25	2707.41
465.46	2865.11
465.66	3123.15
465.86	2996.18
466.07	2820.05
466.27	3004.37
466.47	2772.95
466.68	2697.17
466.88	3037.14
467.08	3078.10
467.29	3180.50
467.49	2916.31
467.69	2914.26
467.89	3100.62
468.10	2940.88
468.30	2953.17
468.50	2967.51
468.71	3117.01
468.91	2783.19
469.11	3059.67
469.31	2936.79
469.52	2908.12
469.72	3295.18
469.92	3098.58
470.13	2766.81
470.33	3002.32
470.53	3108.82
470.73	3198.93
470.94	3479.50
471.14	3608.52
471.34	4089.79
471.54	3880.90
471.75	3592.14
471.95	3348.43
472.15	3330.00
472.36	3340.24
472.56	3211.22
472.76	3440.59
472.96	3340.24
473.17	3065.81
473.37	2992.08
473.57	2973.65
473.77	3067.86
473.98	2965.46
474.18	2736.09
474.38	3526.60
474.58	2953.17
474.79	2740.18
474.99	2963.41
475.19	3155.92
475.39	2830.29
475.60	2955.22
475.80	2758.61
476.00	3004.37
476.20	2949.08
476.41	2990.03
476.61	2975.70
476.81	3336.14
477.01	2863.06
477.21	3076.05
477.42	2910.16
477.62	2932.69
477.82	3098.58
478.02	2820.05
478.23	2932.69
478.43	2918.36
478.63	2926.55
478.83	2889.68
479.03	2832.34
479.24	3243.98
479.44	3344.33
479.64	2770.90
479.84	2652.12
480.04	2787.29
480.25	3172.30
480.45	2717.65
480.65	2705.37
480.85	3291.09
481.06	2848.72
481.26	2969.55
481.46	2830.29
481.66	2996.18
481.86	2865.11
482.06	3039.19
482.27	2815.96
482.47	2926.55
482.67	3051.47
482.87	2885.59
483.07	2901.97
483.28	2869.20
483.48	2799.57
483.68	2820.05
483.88	2758.61
484.08	2631.64
484.29	2852.82
484.49	2893.78
484.69	2635.74
484.89	3237.84
485.09	3114.96
485.29	2928.60
485.50	3026.90
485.70	2953.17
485.90	3186.64
486.10	2957.27
486.30	2885.59
486.50	3213.26
486.71	3074.00
486.91	2889.68
487.11	3071.95
487.31	2729.94
487.51	3229.65
487.71	2797.53
487.91	2742.23
488.12	2869.20
488.32	2654.17
488.52	2824.15
488.72	2617.30
488.92	3008.47
489.12	3129.30
489.32	2934.74
489.53	2922.45
489.73	2693.08
489.93	3323.85
490.13	2799.57
490.33	2723.80
490.53	3051.47
490.73	3080.14
490.94	2666.46
491.14	2955.22
491.34	3096.53
491.54	3153.87
491.74	3715.02
491.94	4257.73
492.14	4722.62
492.34	4765.62
492.54	4313.02
492.75	3753.93
492.95	3989.44
493.15	3688.39
493.35	3465.16
493.55	3540.94
493.75	3233.74
493.95	3485.64
494.15	3098.58
494.35	2953.17
494.56	3076.05
494.76	2926.55
494.96	3047.38
495.16	2828.24
495.36	3016.66
495.56	2957.27
495.76	2815.96
495.96	2869.20
496.16	2834.39
496.36	3260.37
496.56	2803.67
496.77	2910.16
496.97	2916.31
497.17	3282.89
497.37	2777.05
497.57	2961.36
497.77	3004.37
497.97	2824.15
498.17	2873.30
498.37	2797.53
498.57	2994.13
498.77	2928.60
498.97	2981.84
499.17	3086.29
499.38	2869.20
499.58	3033.04
499.78	3045.33
499.98	3002.32
500.18	3028.95
500.38	2863.06
500.58	3024.85
500.78	3438.54
500.98	5599.15
501.18	7430.03
501.38	8787.83
501.58	9627.50
501.78	9799.53
501.98	8095.62
502.18	6928.28
502.38	5859.24
502.58	5777.32
502.78	4978.61
502.98	4935.60
503.18	4591.55
503.38	4319.17
503.59	3819.46
503.79	3639.24
503.99	3475.40
504.19	3502.03
504.39	3440.59
504.59	3270.61
504.79	3272.65
504.99	3536.84
505.19	3280.85
505.39	3024.85
505.59	3225.55
505.79	3364.81
505.99	3092.43
506.19	2879.44
506.39	3160.02
506.59	2871.25
506.79	2869.20
506.99	3024.85
507.19	2848.72
507.39	3098.58
507.59	2740.18
507.79	2838.48
507.99	2785.24
508.19	3043.28
508.39	2897.88
508.59	2793.43
508.79	2996.18
508.99	3348.43
509.19	2861.01
509.39	2961.36
509.59	2711.51
509.79	2877.40
509.99	3098.58
510.19	3043.28
510.39	2969.55
510.59	3024.85
510.79	2912.21
510.99	2699.22
511.19	2844.63
511.39	3243.98
511.59	3160.02
511.79	3008.47
511.99	2801.62
512.19	3413.96
512.38	3010.51
512.58	2830.29
512.78	2764.76
512.98	3262.41
513.18	3211.22
513.38	2746.33
513.58	2904.02
513.78	2899.92
513.98	2977.75
514.18	2858.96
514.38	2824.15
514.58	3076.05
514.78	2856.92
514.98	2729.94
515.18	2901.97
515.38	2779.09
515.58	3295.18
515.78	2879.44
515.98	2873.30
516.18	3063.76
516.38	2996.18
516.57	2826.20
516.77	2830.29
516.97	3151.82
517.17	2932.69
517.37	2684.89
517.57	2877.40
517.77	2953.17
517.97	2846.68
518.17	2901.97
518.37	2715.61
518.57	2840.53
518.77	2987.99
518.97	2861.01
519.16	2895.83
519.36	3194.83
519.56	2918.36
519.76	2856.92
519.96	2856.92
520.16	3268.56
520.36	2779.09
520.56	3033.04
520.76	2752.47
520.96	3035.09
521.16	3147.73
521.35	3000.27
521.55	2983.89
521.75	2985.94
521.95	2897.88
522.15	2727.89
522.35	2664.41
522.55	2873.30
522.75	3100.62
522.95	2848.72
523.14	2695.13
523.34	3041.23
523.54	2901.97
523.74	2928.60
523.94	2942.93
524.14	2805.72
524.34	3051.47
524.54	3098.58
524.73	2850.77
524.93	3102.67
525.13	3006.42
525.33	2752.47
525.53	3135.44
525.73	3125.20
525.93	2951.12
526.13	2856.92
526.32	2801.62
526.52	3200.98
526.72	3182.54
526.92	2858.96
527.12	2838.48
527.32	2785.24
527.52	3008.47
527.71	2916.31
527.91	2844.63
528.11	2889.68
528.31	3002.32
528.51	2770.90
528.71	2967.51
528.90	3094.48
529.10	3178.45
529.30	2881.49
529.50	2621.40
529.70	3063.76
529.90	2961.36
530.09	2815.96
530.29	2713.56
530.49	2762.71
530.69	3401.68
530.89	2944.98
531.09	2910.16
531.28	2813.91
531.48	3190.74
531.68	2815.96
531.88	2854.87
532.08	3086.29
532.28	2961.36
532.47	2893.78
532.67	3010.51
532.87	3037.14
533.07	2818.00
533.27	2881.49
533.46	2975.70
533.66	3043.28
533.86	3028.95
534.06	2883.54
534.26	2850.77
534.45	2873.30
534.65	3088.34
534.85	2863.06
535.05	2783.19
535.25	3104.72
535.44	2768.85
535.64	2897.88
535.84	2869.20
536.04	2944.98
536.24	2887.64
536.43	2820.05
536.63	2834.39
536.83	2979.79
537.03	2965.46
537.22	2746.33
537.42	2588.63
537.62	3039.19
537.82	2893.78
538.02	3002.32
538.21	2967.51
538.41	3600.33
538.61	2983.89
538.81	2885.59
539.00	2967.51
539.20	2707.41
539.40	2861.01
539.60	2852.82
539.79	3053.52
539.99	3012.56
540.19	2887.64
540.39	2758.61
540.58	2922.45
540.78	3233.74
540.98	3024.85
541.18	3043.28
541.37	3002.32
541.57	3076.05
541.77	3016.66
541.97	2736.09
542.16	2727.89
542.36	2953.17
542.56	2854.87
542.76	2990.03
542.95	3035.09
543.15	2994.13
543.35	3174.35
543.54	2787.29
543.74	2795.48
543.94	3139.54
544.14	2871.25
544.33	2979.79
544.53	2973.65
544.73	2990.03
544.93	2926.55
545.12	2824.15
545.32	2834.39
545.52	2918.36
545.71	2758.61
545.91	2795.48
546.11	2801.62
546.30	2818.00
546.50	2990.03
546.70	2942.93
546.90	2904.02
547.09	2727.89
547.29	2971.60
547.49	2920.40
547.68	2842.58
547.88	2818.00
548.08	3123.15
548.27	3266.51
548.47	2805.72
548.67	2934.74
548.87	3051.47
549.06	2846.68
549.26	2793.43
549.46	3020.75
549.65	2906.07
549.85	2940.88
550.05	2875.35
550.24	2746.33
550.44	2936.79
550.64	2893.78
550.83	2873.30
551.03	3262.41
551.23	3180.50
551.42	2971.60
551.62	2850.77
551.82	3041.23
552.01	2856.92
552.21	3071.95
552.41	2922.45
552.60	3289.04
552.80	2990.03
553.00	2736.09
553.19	2899.92
553.39	3291.09
553.59	2799.57
553.78	3026.90
553.98	2871.25
554.17	2750.42
554.37	2963.41
554.57	2863.06
554.76	2777.05
554.96	2809.81
555.16	2967.51
555.35	2922.45
555.55	2992.08
555.75	3039.19
555.94	3084.24
556.14	2697.17
556.33	2854.87
556.53	2967.51
556.73	3035.09
556.92	2930.64
557.12	2856.92
557.32	3358.67
557.51	3264.46
557.71	2936.79
557.90	2994.13
558.10	3254.22
558.30	2938.84
558.49	2766.81
558.69	2899.92
558.88	3098.58
559.08	3002.32
559.28	2869.20
559.47	2998.23
559.67	3041.23
559.86	3313.61
560.06	2834.39
560.26	2838.48
560.45	3051.47
560.65	2922.45
560.84	3061.71
561.04	2772.95
561.24	3129.30
561.43	2836.44
561.63	3094.48
561.82	2977.75
562.02	3129.30
562.22	2781.14
562.41	2803.67
562.61	2770.90
562.80	2803.67
563.00	3434.44
563.19	2961.36
563.39	2942.93
563.59	3057.62
563.78	2840.53
563.98	2596.82
564.17	2785.24
564.37	2719.70
564.56	2916.31
564.76	2713.56
564.96	2951.12
565.15	3129.30
565.35	3366.86
565.54	2826.20
565.74	2961.36
565.93	2994.13
566.13	3014.61
566.32	2990.03
566.52	3000.27
566.71	3059.67
566.91	3176.40
567.11	2914.26
567.30	2777.05
567.50	3084.24
567.69	3039.19
567.89	2795.48
568.08	2791.38
568.28	3024.85
568.47	2840.53
568.67	2912.21
568.86	2779.09
569.06	3162.06
569.25	2975.70
569.45	2668.50
569.64	2899.92
569.84	2834.39
570.04	3057.62
570.23	2807.77
570.43	2920.40
570.62	3078.10
570.82	3196.88
571.01	2734.04
571.21	2777.05
571.40	2815.96
571.60	3084.24
571.79	2897.88
571.99	2838.48
572.18	2779.09
572.38	3000.27
572.57	2879.44
572.77	2881.49
572.96	3446.73
573.16	3006.42
573.35	2865.11
573.55	2992.08
573.74	3067.86
573.94	2942.93
574.13	2809.81
574.33	3123.15
574.52	3186.64
574.71	3086.29
574.91	2910.16
575.10	2688.98
575.30	2938.84
575.49	2820.05
575.69	2846.68
575.88	2832.34
576.08	2944.98
576.27	3114.96
576.47	2842.58
576.66	3028.95
576.86	3207.12
577.05	3039.19
577.25	2963.41
577.44	3030.99
577.64	2947.03
577.83	3147.73
578.02	2832.34
578.22	3057.62
578.41	3241.93
578.61	2979.79
578.80	2762.71
579.00	2863.06
579.19	2963.41
579.39	2942.93
579.58	2981.84
579.77	2861.01
579.97	3211.22
580.16	3123.15
580.36	3053.52
580.55	2967.51
580.75	3071.95
580.94	2979.79
581.13	3106.77
581.33	3069.91
581.52	3006.42
581.72	3297.23
581.91	3004.37
582.11	2873.30
582.30	3147.73
582.49	3006.42
582.69	3170.26
582.88	2961.36
583.08	2924.50
583.27	3270.61
583.47	2977.75
583.66	2813.91
583.85	2836.44
584.05	3008.47
584.24	2996.18
584.44	2895.83
584.63	3114.96
584.82	3178.45
585.02	3061.71
585.21	3078.10
585.41	3135.44
585.60	2994.13
585.79	3125.20
585.99	3160.02
586.18	2996.18
586.37	3928.00
586.57	5863.33
586.76	16848.64
586.96	36132.31
587.15	49034.52
587.34	57795.73
587.54	61324.38
587.73	55196.85
587.93	39218.60
588.12	29836.86
588.31	24362.64
588.51	21499.58
588.70	19920.59
588.89	17307.38
589.09	14636.83
589.28	12781.37
589.47	9957.22
589.67	7546.76
589.86	6107.04
590.06	4720.57
590.25	4032.45
590.44	3577.80
590.64	3258.32
590.83	3264.46
591.02	3151.82
591.22	2899.92
591.41	2981.84
591.60	2891.73
591.80	3348.43
591.99	2748.37
592.18	2934.74
592.38	3186.64
592.57	2906.07
592.76	2994.13
592.96	3004.37
593.15	2983.89
593.34	3196.88
593.54	2854.87
593.73	2955.22
593.92	3080.14
594.12	3080.14
594.31	2932.69
594.50	3000.27
594.70	3196.88
594.89	3452.88
595.08	2826.20
595.28	3014.61
595.47	3502.03
595.66	3059.67
595.86	2803.67
596.05	2834.39
596.24	2887.64
596.43	3276.75
596.63	2928.60
596.82	2967.51
597.01	3069.91
597.21	3319.76
597.40	2871.25
597.59	2897.88
597.79	2967.51
597.98	3100.62
598.17	2975.70
598.36	2949.08
598.56	3272.65
598.75	2973.65
598.94	2899.92
599.14	2934.74
599.33	2942.93
599.52	3106.77
599.71	2891.73
599.91	2944.98
600.10	3039.19
600.29	3002.32
600.48	2949.08
600.68	2983.89
600.87	2979.79
601.06	2877.40
601.26	2852.82
601.45	2895.83
601.64	2955.22
601.83	3260.37
602.03	2787.29
602.22	2879.44
602.41	3178.45
602.60	3444.68
602.80	2936.79
602.99	2973.65
603.18	2977.75
603.37	2944.98
603.57	2828.24
603.76	2949.08
603.95	3237.84
604.14	2906.07
604.34	2729.94
604.53	2867.16
604.72	2981.84
604.91	3084.24
605.10	2910.16
605.30	2721.75
605.49	3332.05
605.68	3121.10
605.87	2914.26
606.07	2830.29
606.26	2955.22
606.45	3119.06
606.64	2889.68
606.84	2791.38
607.03	2963.41
607.22	3114.96
607.41	2957.27
607.60	2813.91
607.80	3151.82
607.99	2994.13
608.18	2854.87
608.37	2813.91
608.56	2906.07
608.76	3180.50
608.95	3004.37
609.14	2875.35
609.33	3121.10
609.52	3198.93
609.72	2928.60
609.91	3030.99
610.10	2987.99
610.29	3215.31
610.48	2973.65
610.68	2922.45
610.87	3008.47
611.06	3176.40
611.25	2779.09
611.44	3047.38
611.63	2885.59
611.83	3254.22
612.02	2721.75
612.21	2934.74
612.40	2686.94
612.59	2852.82
612.79	2828.24
612.98	2918.36
613.17	3248.08
613.36	2985.94
613.55	3100.62
613.74	2852.82
613.93	3024.85
614.13	3059.67
614.32	3008.47
614.51	2955.22
614.70	2942.93
614.89	2940.88
615.08	3006.42
615.28	3276.75
615.47	2883.54
615.66	3018.71
615.85	2901.97
616.04	2994.13
616.23	2973.65
616.42	2996.18
616.62	2908.12
616.81	2834.39
617.00	3016.66
617.19	3061.71
617.38	2891.73
617.57	2906.07
617.76	3028.95
617.95	3104.72
618.15	3004.37
618.34	3041.23
618.53	2865.11
618.72	3117.01
618.91	3026.90
619.10	2953.17
619.29	2910.16
619.48	2910.16
619.68	2734.04
619.87	2832.34
620.06	2715.61
620.25	3071.95
620.44	2781.14
620.63	2809.81
620.82	3002.32
621.01	2983.89
621.20	2873.30
621.39	2959.31
621.59	3063.76
621.78	2955.22
621.97	2848.72
622.16	2963.41
622.35	3071.95
622.54	3192.78
622.73	2899.92
622.92	2658.26
623.11	3129.30
623.30	2987.99
623.49	3035.09
623.68	2803.67
623.88	3239.89
624.07	2766.81
624.26	2803.67
624.45	2822.10
624.64	2879.44
624.83	3049.43
625.02	2813.91
625.21	2840.53
625.40	3041.23
625.59	3215.31
625.78	2879.44
625.97	2951.12
626.16	3162.06
626.35	3207.12
626.54	2885.59
626.74	3055.57
626.93	2928.60
627.12	2918.36
627.31	2920.40
627.50	2990.03
627.69	3168.21
627.88	2873.30
628.07	2850.77
628.26	2721.75
628.45	2889.68
628.64	2889.68
628.83	2731.99
629.02	2699.22
629.21	3104.72
629.40	3033.04
629.59	2783.19
629.78	2881.49
629.97	2947.03
630.16	3008.47
630.35	2815.96
630.54	2957.27
630.73	2914.26
630.92	2936.79
631.11	2744.28
631.30	2856.92
631.49	3086.29
631.68	2936.79
631.87	2949.08
632.06	2699.22
632.25	3348.43
632.44	2899.92
632.63	2889.68
632.82	2840.53
633.01	2811.86
633.20	3082.19
633.39	2885.59
633.58	2693.08
633.77	3094.48
633.96	3037.14
634.15	3102.67
634.34	2908.12
634.53	3035.09
634.72	2858.96
634.91	2701.27
635.10	2899.92
635.29	3143.63
635.48	2983.89
635.67	2697.17
635.86	2656.22
636.05	3131.34
636.24	2975.70
636.43	2861.01
636.62	2977.75
636.81	2639.83
637.00	3004.37
637.19	2897.88
637.38	2865.11
637.57	2942.93
637.76	2920.40
637.95	3024.85
638.14	2850.77
638.33	2979.79
638.52	2955.22
638.71	2775.00
638.89	2699.22
639.08	3477.45
639.27	3137.49
639.46	3053.52
639.65	3293.13
639.84	3295.18
640.03	3581.90
640.22	3248.08
640.41	3243.98
640.60	3006.42
640.79	3155.92
640.98	2969.55
641.17	3049.43
641.36	3127.25
641.55	3186.64
641.74	2668.50
641.92	2811.86
642.11	2852.82
642.30	2965.46
642.49	2795.48
642.68	2746.33
642.87	3059.67
643.06	3125.20
643.25	2811.86
643.44	2760.66
643.63	3000.27
643.82	3110.86
644.00	2682.84
644.19	2971.60
644.38	2791.38
644.57	3092.43
644.76	2846.68
644.95	2912.21
645.14	3069.91
645.33	2959.31
645.52	2922.45
645.71	2670.55
645.89	2883.54
646.08	3020.75
646.27	2830.29
646.46	3061.71
646.65	2762.71
646.84	3086.29
647.03	2803.67
647.22	2916.31
647.40	3084.24
647.59	2897.88
647.78	2639.83
647.97	2795.48
648.16	2848.72
648.35	3180.50
648.54	3065.81
648.73	2795.48
648.91	3121.10
649.10	2983.89
649.29	2760.66
649.48	2799.57
649.67	3049.43
649.86	3002.32
650.05	2832.34
650.23	3008.47
650.42	2914.26
650.61	3219.41
650.80	2971.60
650.99	3074.00
651.18	3123.15
651.36	3252.17
651.55	2779.09
651.74	3057.62
651.93	2940.88
652.12	3000.27
652.31	2891.73
652.49	2820.05
652.68	2818.00
652.87	3239.89
653.06	2951.12
653.25	3112.91
653.44	2992.08
653.62	3256.27
653.81	2852.82
654.00	2865.11
654.19	3198.93
654.38	3346.38
654.56	2904.02
654.75	2791.38
654.94	3084.24
655.13	2971.60
655.32	2846.68
655.51	2942.93
655.69	2918.36
655.88	3149.78
656.07	2699.22
656.26	2910.16
656.45	2809.81
656.63	3008.47
656.82	2797.53
657.01	3131.34
657.20	2840.53
657.38	3276.75
657.57	2815.96
657.76	2615.26
657.95	3088.34
658.14	2881.49
658.32	2959.31
658.51	2711.51
658.70	2992.08
658.89	3037.14
659.08	2932.69
659.26	3076.05
659.45	2861.01
659.64	3100.62
659.83	2842.58
660.01	3217.36
660.20	2924.50
660.39	3198.93
660.58	2617.30
660.76	2934.74
660.95	2742.23
661.14	2957.27
661.33	2713.56
661.51	2836.44
661.70	2893.78
661.89	2998.23
662.08	2834.39
662.26	2756.57
662.45	2813.91
662.64	3354.57
662.83	2942.93
663.01	2711.51
663.20	2863.06
663.39	3168.21
663.58	2852.82
663.76	2881.49
663.95	3088.34
664.14	2813.91
664.32	2906.07
664.51	2734.04
664.70	2660.31
664.89	3094.48
665.07	2707.41
665.26	3049.43
665.45	2818.00
665.64	3131.34
665.82	2834.39
666.01	2963.41
666.20	2719.70
666.38	3139.54
666.57	3151.82
666.76	4779.96
666.95	11001.69
667.13	17630.96
667.32	21630.65
667.51	24508.04
667.69	25374.33
667.88	21321.40
668.07	15279.89
668.25	13051.70
668.44	11425.62
668.63	9867.11
668.81	8683.39
669.00	7557.00
669.19	6721.43
669.38	5771.18
669.56	5146.55
669.75	4462.52
669.94	3885.00
670.12	3389.39
670.31	3057.62
670.50	3080.14
670.68	3168.21
670.87	3112.91
671.06	2877.40
671.24	2981.84
671.43	3260.37
671.62	3080.14
671.80	2787.29
671.99	2914.26
672.18	2965.46
672.36	3119.06
672.55	3051.47
672.74	2867.16
672.92	2897.88
673.11	3135.44
673.29	2721.75
673.48	2985.94
673.67	2832.34
673.85	3243.98
674.04	2756.57
674.23	2932.69
674.41	3278.80
674.60	2803.67
674.79	2717.65
674.97	2865.11
675.16	3117.01
675.34	3203.02
675.53	2873.30
675.72	2926.55
675.90	3291.09
676.09	2871.25
676.28	3012.56
676.46	2754.52
676.65	3069.91
676.83	2815.96
677.02	2955.22
677.21	3002.32
677.39	3000.27
677.58	2803.67
677.77	2861.01
677.95	2805.72
678.14	2985.94
678.32	2908.12
678.51	2875.35
678.70	3223.50
678.88	2854.87
679.07	3022.80
679.25	2904.02
679.44	2949.08
679.63	2846.68
679.81	3096.53
680.00	3030.99
680.18	2877.40
680.37	3278.80
680.55	2975.70
680.74	2676.70
680.93	2688.98
681.11	3024.85
681.30	2928.60
681.48	2891.73
681.67	2904.02
681.85	3004.37
682.04	2863.06
682.23	3008.47
682.41	2953.17
682.60	2891.73
682.78	3022.80
682.97	2707.41
683.15	2867.16
683.34	2957.27
683.53	3233.74
683.71	2643.93
683.90	2901.97
684.08	3327.95
684.27	2922.45
684.45	2914.26
684.64	2985.94
684.82	2940.88
685.01	3102.67
685.19	2863.06
685.38	3112.91
685.57	2930.64
685.75	2824.15
685.94	2775.00
686.12	2768.85
686.31	2961.36
686.49	3221.45
686.68	2566.10
686.86	2897.88
687.05	2901.97
687.23	3205.07
687.42	2813.91
687.60	2731.99
687.79	3155.92
687.97	3254.22
688.16	3020.75
688.34	3037.14
688.53	2590.68
688.71	3006.42
688.90	3127.25
689.08	2856.92
689.27	2770.90
689.45	3106.77
689.64	2996.18
689.82	2996.18
690.01	3094.48
690.19	3051.47
690.38	2893.78
690.56	3020.75
690.75	2854.87
690.93	2889.68
691.12	2815.96
691.30	2940.88
691.49	2912.21
691.67	2938.84
691.86	3192.78
692.04	2873.30
692.23	2828.24
692.41	2977.75
692.60	3147.73
692.78	3016.66
692.97	3006.42
693.15	3160.02
693.34	3112.91
693.52	3033.04
693.71	2936.79
693.89	2865.11
694.08	2734.04
694.26	2979.79
694.44	3190.74
694.63	3127.25
694.81	2766.81
695.00	2873.30
695.18	3102.67
695.37	3391.44
695.55	2969.55
695.74	2934.74
695.92	2850.77
696.10	3164.11
696.29	2670.55
696.47	2787.29
696.66	2904.02
696.84	2815.96
697.03	2891.73
697.21	3114.96
697.40	4460.48
697.58	3170.26
697.76	2801.62
697.95	2930.64
698.13	2883.54
698.32	2893.78
698.50	2893.78
698.68	2908.12
698.87	3014.61
699.05	3282.89
699.24	2953.17
699.42	2840.53
699.61	3049.43
699.79	2949.08
699.97	2856.92
700.16	2762.71
700.34	2793.43
700.53	3024.85
700.71	3053.52
700.89	2969.55
701.08	2928.60
701.26	2994.13
701.45	3225.55
701.63	2834.39
701.81	2869.20
702.00	2992.08
702.18	2957.27
702.37	2791.38
702.55	3196.88
702.73	2987.99
702.92	2805.72
703.10	3178.45
703.28	3153.87
703.47	2863.06
703.65	2992.08
703.84	2971.60
704.02	2887.64
704.20	3239.89
704.39	2877.40
704.57	2832.34
704.75	3139.54
704.94	3041.23
705.12	2934.74
705.30	3528.65
705.49	6739.87
705.67	13113.14
705.86	18386.66
706.04	20915.90
706.22	23180.96
706.41	22437.55
706.59	17112.83
706.77	13338.42
706.96	11437.91
707.14	10438.50
707.32	9107.32
707.51	7939.97
707.69	6477.73
707.87	5504.94
708.06	4577.21
708.24	3923.91
708.42	3608.52
708.61	3725.26
708.79	2967.51
708.97	2971.60
709.16	3071.95
709.34	2975.70
709.52	2838.48
709.71	2885.59
709.89	3162.06
710.07	2877.40
710.26	2666.46
710.44	2787.29
710.62	3074.00
710.80	3049.43
710.99	2944.98
711.17	3104.72
711.35	2912.21
711.54	2854.87
711.72	3051.47
711.90	2985.94
712.09	3026.90
712.27	2861.01
712.45	2914.26
712.63	2877.40
712.82	3018.71
713.00	2953.17
713.18	3008.47
713.37	3045.33
713.55	3088.34
713.73	3030.99
713.91	2994.13
714.10	2869.20
714.28	2918.36
714.46	3041.23
714.65	3061.71
714.83	2983.89
715.01	2985.94
715.19	2998.23
715.38	2764.76
715.56	3002.32
715.74	2820.05
715.92	2813.91
716.11	3131.34
716.29	2631.64
716.47	2938.84
716.65	2803.67
716.84	2785.24
717.02	2944.98
717.20	2701.27
717.38	2824.15
717.57	3028.95
717.75	2901.97
717.93	2822.10
718.11	3088.34
718.30	2744.28
718.48	2891.73
718.66	3114.96
718.84	3155.92
719.03	2809.81
719.21	2709.46
719.39	3319.76
719.57	3145.68
719.75	3006.42
719.94	2738.13
720.12	2955.22
720.30	3067.86
720.48	2967.51
720.67	2883.54
720.85	2815.96
721.03	2922.45
721.21	2729.94
721.39	2944.98
721.58	3071.95
721.76	3033.04
721.94	2959.31
722.12	2971.60
722.30	3248.08
722.49	2889.68
722.67	2863.06
722.85	2947.03
723.03	2744.28
723.21	2846.68
723.40	2930.64
723.58	3012.56
723.76	3114.96
723.94	3368.91
724.12	2852.82
724.30	3092.43
724.49	3098.58
724.67	2781.14
724.85	3053.52
725.03	2725.85
725.21	3076.05
725.40	3125.20
725.58	2742.23
725.76	3119.06
725.94	3088.34
726.12	2797.53
726.30	2891.73
726.49	2854.87
726.67	2940.88
726.85	3035.09
727.03	3440.59
727.21	4380.61
727.39	5525.42
727.57	5881.77
727.76	6328.22
727.94	6348.70
728.12	5693.35
728.30	4732.86
728.48	4478.91
728.66	4052.93
728.84	3854.28
729.03	3518.41
729.21	3360.72
729.39	3246.03
729.57	2981.84
729.75	3018.71
729.93	2844.63
730.11	2822.10
730.30	2865.11
730.48	2969.55
730.66	2963.41
730.84	2981.84
731.02	2947.03
731.20	2846.68
731.38	2910.16
731.56	2760.66
731.74	2750.42
731.93	3049.43
732.11	2885.59
732.29	2803.67
732.47	3082.19
732.65	2977.75
732.83	3065.81
733.01	2891.73
733.19	2863.06
733.37	3104.72
733.56	2938.84
733.74	2832.34
733.92	3295.18
734.10	2987.99
734.28	3024.85
734.46	2680.79
734.64	2861.01
734.82	2901.97
735.00	2820.05
735.18	2766.81
735.36	3022.80
735.54	3004.37
735.73	2830.29
735.91	2908.12
736.09	3125.20
736.27	2981.84
736.45	2893.78
736.63	2564.06
736.81	2949.08
736.99	3180.50
737.17	3078.10
737.35	2779.09
737.53	2990.03
737.71	2867.16
737.89	3037.14
738.07	2811.86
738.25	2844.63
738.43	2770.90
738.61	2883.54
738.80	2762.71
738.98	2828.24
739.16	2834.39
739.34	2809.81
739.52	3149.78
739.70	2947.03
739.88	3028.95
740.06	3035.09
740.24	2627.54
740.42	3178.45
740.60	2715.61
740.78	2844.63
740.96	2697.17
741.14	2926.55
741.32	2994.13
741.50	2744.28
741.68	3129.30
741.86	3180.50
742.04	2842.58
742.22	2838.48
742.40	2867.16
742.58	3074.00
742.76	2889.68
742.94	2959.31
743.12	2721.75
743.30	2996.18
743.48	3016.66
743.66	2764.76
743.84	2934.74
744.02	2961.36
744.20	2961.36
744.38	2744.28
744.56	2803.67
744.74	3305.42
744.92	3049.43
745.10	3078.10
745.28	2912.21
745.46	3278.80
745.64	2924.50
745.82	2973.65
746.00	2805.72
746.18	3057.62
746.36	2787.29
746.54	2863.06
746.72	2885.59
746.90	2826.20
747.08	3192.78
747.26	2850.77
747.44	2979.79
747.62	3080.14
747.80	3082.19
747.98	2959.31
748.15	2854.87
748.33	3311.57
748.51	2947.03
748.69	2957.27
748.87	2809.81
749.05	2944.98
749.23	2951.12
749.41	2899.92
749.59	2856.92
749.77	3141.58
749.95	2895.83
750.13	2797.53
750.31	2961.36
750.49	2918.36
750.67	3121.10
750.85	3055.57
751.03	2912.21
751.20	3354.57
751.38	2910.16
751.56	2834.39
751.74	2926.55
751.92	2981.84
752.10	2801.62
752.28	3033.04
752.46	2838.48
752.64	3000.27
752.82	2979.79
753.00	3055.57
753.18	2797.53
753.35	2983.89
753.53	2914.26
753.71	2899.92
753.89	2947.03
754.07	3033.04
754.25	3170.26
754.43	2932.69
754.61	2822.10
754.79	2998.23
754.97	2897.88
755.14	3041.23
755.32	2793.43
755.50	3039.19
755.68	3012.56
755.86	2688.98
756.04	2799.57
756.22	2693.08
756.40	3129.30
756.57	3157.97
756.75	2809.81
756.93	3243.98
757.11	3250.13
757.29	2766.81
757.47	2750.42
757.65	2729.94
757.82	2615.26
758.00	2781.14
758.18	2801.62
758.36	2863.06
758.54	3190.74
758.72	2668.50
758.90	3051.47
759.07	3053.52
759.25	2803.67
759.43	2901.97
759.61	2738.13
759.79	4169.66
759.97	3067.86
760.15	2797.53
760.32	2836.44
760.50	3026.90
760.68	3289.04
760.86	2748.37
761.04	2994.13
761.22	3084.24
761.39	3004.37
761.57	2848.72
761.75	2822.10
761.93	3090.38
762.11	2975.70
762.28	2926.55
762.46	2766.81
762.64	3241.93
762.82	2764.76
763.00	2785.24
763.18	3074.00
763.35	2818.00
763.53	3098.58
763.71	2883.54
763.89	2856.92
764.07	2996.18
764.24	2906.07
764.42	3049.43
764.60	2807.77
764.78	3082.19
764.96	3086.29
765.13	3051.47
765.31	2807.77
765.49	3037.14
765.67	2740.18
765.84	2789.33
766.02	2738.13
766.20	2719.70
766.38	2987.99
766.56	3043.28
766.73	3041.23
766.91	2924.50
767.09	2994.13
767.27	2934.74
767.44	2727.89
767.62	3084.24
767.80	3002.32
767.98	2836.44
768.15	2801.62
768.33	3117.01
768.51	3155.92
768.69	3010.51
768.87	2916.31
769.04	2961.36
769.22	3516.36
769.40	3037.14
769.58	3006.42
769.75	3043.28
769.93	3164.11
770.11	2858.96
770.28	2770.90
770.46	3225.55
770.64	2981.84
770.82	2879.44
770.99	2844.63
771.17	3033.04
771.35	2904.02
771.53	2916.31
771.70	2828.24
771.88	3016.66
772.06	2953.17
772.23	2811.86
772.41	2885.59
772.59	2951.12
772.77	2828.24
772.94	2920.40
773.12	2897.88
773.30	2885.59
773.47	3041.23
773.65	2815.96
773.83	3035.09
774.01	2940.88
774.18	2705.37
774.36	2854.87
774.54	2697.17
774.71	2998.23
774.89	2697.17
775.07	2738.13
775.24	2795.48
775.42	2828.24
775.60	3268.56
775.78	2863.06
775.95	2709.46
776.13	2680.79
776.31	2637.78
776.48	2969.55
776.66	3117.01
776.84	2920.40
777.01	2924.50
777.19	2727.89
777.37	2797.53
777.54	3102.67
777.72	3289.04
777.90	2957.27
778.07	2781.14
778.25	3555.27
778.43	3069.91
778.60	2828.24
778.78	2932.69
778.96	3207.12
779.13	2787.29
779.31	2994.13
779.49	2832.34
779.66	2959.31
779.84	2934.74
780.01	2850.77
780.19	2713.56
780.37	3121.10
780.54	3123.15
780.72	2736.09
780.90	2916.31
781.07	2951.12
781.25	2844.63
781.43	3088.34
781.60	2775.00
781.78	3117.01
781.95	3016.66
782.13	2881.49
782.31	2854.87
782.48	2639.83
782.66	3053.52
782.83	3125.20
783.01	2942.93
783.19	3125.20
783.36	2818.00
783.54	2791.38
783.72	2916.31
783.89	2840.53
784.07	3000.27
784.24	2971.60
784.42	3053.52
784.60	2987.99
784.77	3020.75
784.95	2625.50
785.12	2838.48
785.30	2971.60
785.47	2768.85
785.65	2758.61
785.83	2881.49
786.00	2887.64
786.18	2983.89
786.35	2772.95
786.53	2754.52
786.71	3145.68
786.88	3030.99
787.06	2932.69
787.23	2895.83
787.41	2818.00
787.58	2926.55
787.76	2762.71
787.94	2834.39
788.11	3047.38
788.29	2815.96
788.46	2914.26
788.64	2680.79
788.81	2844.63
788.99	2889.68
789.16	2838.48
789.34	2805.72
789.52	2889.68
789.69	2947.03
789.87	2627.54
790.04	2815.96
790.22	2940.88
790.39	3327.95
790.57	2789.33
790.74	2781.14
790.92	3119.06
791.09	2701.27
791.27	2895.83
791.44	3010.51
791.62	2910.16
791.79	3084.24
791.97	2926.55
792.15	3229.65
792.32	3074.00
792.50	3119.06
792.67	3104.72
792.85	3123.15
793.02	3018.71
793.20	2901.97
793.37	2641.88
793.55	2807.77
793.72	2709.46
793.90	3133.39
794.07	2815.96
794.25	2848.72
794.42	2985.94
794.60	2856.92
794.77	2883.54
794.95	3010.51
795.12	3174.35
795.30	2953.17
795.47	2633.69
795.65	3180.50
795.82	3069.91
796.00	2920.40
796.17	2875.35
796.34	2789.33
796.52	3078.10
796.69	3057.62
796.87	3037.14
797.04	2951.12
797.22	3125.20
797.39	3055.57
797.57	2994.13
797.74	2934.74
797.92	2969.55
798.09	2928.60
798.27	3090.38
798.44	2820.05
798.62	2879.44
798.79	3016.66
798.96	2994.13
799.14	2809.81
799.31	3358.67
799.49	2944.98
799.66	2914.26
799.84	2926.55
800.01	2752.47
800.19	3014.61
800.36	2664.41
800.53	2926.55
800.71	3053.52
800.88	3264.46
801.06	2910.16
801.23	2852.82
801.41	2957.27
801.58	2840.53
801.75	2854.87
801.93	2955.22
802.10	3055.57
802.28	2912.21
802.45	2822.10
802.63	2947.03
802.80	3241.93
802.97	2887.64
803.15	2967.51
803.32	2770.90
803.50	2836.44
803.67	2811.86
803.84	2809.81
804.02	2994.13
804.19	2951.12
804.37	2643.93
804.54	2734.04
804.71	2801.62
804.89	2906.07
805.06	2828.24
805.24	2822.10
805.41	2705.37
805.58	2783.19
805.76	3389.39
805.93	2824.15
806.10	3006.42
806.28	3010.51
806.45	3055.57
806.63	3010.51
806.80	2961.36
806.97	2992.08
807.15	2961.36
807.32	2947.03
807.49	2822.10
807.67	2752.47
807.84	2914.26
808.01	2703.32
808.19	3063.76
808.36	3334.09
808.54	2893.78
808.71	2789.33
808.88	2809.81
809.06	3160.02
809.23	3176.40
809.40	2889.68
809.58	2865.11
809.75	2977.75
809.92	2795.48
810.10	3164.11
810.27	2799.57
810.44	3074.00
810.62	3092.43
810.79	2916.31
810.96	2869.20
811.14	2846.68
811.31	3114.96
811.48	3002.32
811.66	2871.25
811.83	3119.06
812.00	3074.00
812.18	2998.23
812.35	3123.15
812.52	2936.79
812.69	2899.92
812.87	2850.77
813.04	2756.57
813.21	2953.17
813.39	2832.34
813.56	2748.37
813.73	3114.96
813.91	2729.94
814.08	2953.17
814.25	2897.88
814.42	2664.41
814.60	2873.30
814.77	3037.14
814.94	2863.06
815.12	2873.30
815.29	3225.55
815.46	2840.53
815.63	2834.39
815.81	2801.62
815.98	3004.37
816.15	2918.36
816.33	2973.65
816.50	2779.09
816.67	2934.74
816.84	2959.31
817.02	2768.85
817.19	2863.06
817.36	3012.56
817.53	3041.23
817.71	2699.22
817.88	2959.31
818.05	2893.78
818.22	2934.74
818.40	3080.14
818.57	2834.39
818.74	2987.99
818.91	2881.49
819.09	3041.23
819.26	2971.60
819.43	2830.29
819.60	2883.54
819.78	3028.95
819.95	2908.12
820.12	2818.00
820.29	3221.45
820.47	3094.48
820.64	2772.95
820.81	2746.33
820.98	2846.68
821.15	2795.48
821.33	2920.40
821.50	2789.33
821.67	3176.40
821.84	2824.15
822.02	2820.05
822.19	3065.81
822.36	2846.68
822.53	2811.86
822.70	2668.50
822.88	2850.77
823.05	3166.16
823.22	2832.34
823.39	2871.25
823.56	2967.51
823.74	3299.28
823.91	2713.56
824.08	2807.77
824.25	2879.44
824.42	3241.93
824.60	2807.77
824.77	2893.78
824.94	2975.70
825.11	3037.14
825.28	2625.50
825.45	2967.51
825.63	3018.71
825.80	2731.99
825.97	2944.98
826.14	2891.73
826.31	2731.99
826.48	3106.77
826.66	2795.48
826.83	2910.16
827.00	2889.68
827.17	2723.80
827.34	2844.63
827.51	2842.58
827.69	2934.74
827.86	2674.65
828.03	2826.20
828.20	2801.62
828.37	2861.01
828.54	3033.04
828.71	2748.37
828.89	2936.79
829.06	3030.99
829.23	3198.93
829.40	2781.14
829.57	2756.57
829.74	3012.56
829.91	2918.36
830.09	2764.76
830.26	2951.12
830.43	3284.94
830.60	2895.83
830.77	2926.55
830.94	3028.95
831.11	3155.92
831.28	2936.79
831.46	3059.67
831.63	2809.81
831.80	3211.22
831.97	2838.48
832.14	2818.00
832.31	2975.70
832.48	2938.84
832.65	3149.78
832.82	2881.49
832.99	2852.82
833.17	2820.05
833.34	3264.46
833.51	2807.77
833.68	2639.83
833.85	3090.38
834.02	2885.59
834.19	2815.96
834.36	2826.20
834.53	3067.86
834.70	3100.62
834.87	2842.58
835.04	2717.65
835.22	2852.82
835.39	2936.79
835.56	2695.13
835.73	2762.71
835.90	3119.06
836.07	2813.91
836.24	2904.02
836.41	2684.89
836.58	2871.25
836.75	3114.96
836.92	2826.20
837.09	2744.28
837.26	3112.91
837.43	3041.23
837.60	2762.71
837.77	2758.61
837.94	3209.17
838.12	3203.02
838.29	2670.55
838.46	2574.30
838.63	2797.53
838.80	3243.98
838.97	2764.76
839.14	2748.37
839.31	3012.56
839.48	3037.14
839.65	2748.37
839.82	2863.06
839.99	3055.57
840.16	2963.41
840.33	2736.09
840.50	2807.77
840.67	2764.76
840.84	2633.69
841.01	2738.13
841.18	2695.13
841.35	2916.31
841.52	3119.06
841.69	3010.51
841.86	2783.19
842.03	2947.03
842.20	3139.54
842.37	2676.70
842.54	2807.77
842.71	2947.03
842.88	2785.24
843.05	2822.10
843.22	2713.56
843.39	3016.66
843.56	2936.79
843.73	2762.71
843.90	2805.72
844.07	2949.08
844.24	3053.52
844.41	2764.76
844.58	2801.62
844.75	2852.82
844.92	2967.51
845.09	2721.75
845.26	2666.46
845.43	3067.86
845.60	2830.29
845.77	2801.62
845.94	2883.54
846.10	3129.30
846.27	2754.52
846.44	2609.11
846.61	2637.78
846.78	3092.43
846.95	3082.19
847.12	2645.98
847.29	2770.90
847.46	2858.96
847.63	3114.96
847.80	2676.70
847.97	2809.81
848.14	3375.05
848.31	2953.17
848.48	2652.12
848.65	2750.42
848.82	2928.60
848.98	3485.64
849.15	2856.92
849.32	2838.48
849.49	3188.69
849.66	2949.08
849.83	2746.33
850.00	2639.83
850.17	3080.14
850.34	2867.16
850.51	2734.04
850.68	2768.85
850.85	3274.70
851.01	3071.95
851.18	2758.61
851.35	2793.43
851.52	3121.10
851.69	3286.99
851.86	2729.94
852.03	2736.09
852.20	3080.14
852.37	3061.71
852.53	2629.59
852.70	2645.98
852.87	3014.61
853.04	3110.86
853.21	2723.80
853.38	2901.97
853.55	3235.79
853.72	3180.50
853.89	2674.65
854.05	2654.17
854.22	2869.20
854.39	2836.44
854.56	2693.08
854.73	2967.51
854.90	2723.80
855.07	2998.23
855.23	2668.50
855.40	2680.79
855.57	2940.88
855.74	2635.74
855.91	2906.07
856.08	2619.35
856.25	2736.09
856.41	2906.07
856.58	2793.43
856.75	2729.94
856.92	2731.99
857.09	3119.06
857.26	2605.02
857.42	2684.89
857.59	3059.67
857.76	2889.68
857.93	2723.80
858.10	2758.61
858.27	2766.81
858.43	3010.51
858.60	2744.28
858.77	2613.21
858.94	2803.67
859.11	3123.15
859.27	2742.23
859.44	2717.65
859.61	3284.94
859.78	2981.84
859.95	2727.89
860.12	2707.41
860.28	3403.72
860.45	3332.05
860.62	2795.48
860.79	2826.20
860.95	2926.55
861.12	2830.29
861.29	2635.74
861.46	2641.88
861.63	2932.69
861.79	3012.56
861.96	2678.74
862.13	2738.13
862.30	3221.45
862.47	2893.78
862.63	2654.17
862.80	2779.09
862.97	3135.44
863.14	3117.01
863.30	2740.18
863.47	2676.70
863.64	3172.30
863.81	2983.89
863.97	2619.35
864.14	2863.06
864.31	2914.26
864.48	3030.99
864.65	2783.19
864.81	2815.96
864.98	3071.95
865.15	3074.00
865.32	2844.63
865.48	2822.10
865.65	3233.74
865.82	2895.83
865.98	2770.90
866.15	2832.34
866.32	2938.84
866.49	2836.44
866.65	2828.24
866.82	2734.04
866.99	3004.37
867.16	2850.77
867.32	2734.04
867.49	2668.50
867.66	2953.17
867.83	2836.44
867.99	2752.47
868.16	2777.05
868.33	2850.77
868.49	2959.31
868.66	2734.04
868.83	2846.68
868.99	3088.34
869.16	2994.13
869.33	2865.11
869.50	2852.82
869.66	2990.03
869.83	2973.65
870.00	2658.26
870.16	2891.73
870.33	2942.93
870.50	3114.96
870.66	2746.33
870.83	2844.63
871.00	3055.57
871.17	3043.28
871.33	2777.05
871.50	2684.89
871.67	2942.93
871.83	2738.13
872.00	2840.53
872.17	2697.17
872.33	3297.23
872.50	3268.56
872.67	2750.42
872.83	2707.41
873.00	3030.99
873.17	2963.41
873.33	2850.77
873.50	2756.57
873.67	2830.29
873.83	2836.44
874.00	2709.46
874.16	2897.88
874.33	2992.08
874.50	2842.58
874.66	2678.74
874.83	2742.23
875.00	3149.78
875.16	3141.58
875.33	2768.85
875.50	2605.02
875.66	2899.92
875.83	3088.34
875.99	2836.44
876.16	2863.06
876.33	2865.11
876.49	2955.22
876.66	2775.00
876.83	2822.10
876.99	2731.99
877.16	2877.40
877.32	2672.60
877.49	2846.68
877.66	3051.47
877.82	3248.08
877.99	2781.14
878.15	2965.46
878.32	3020.75
878.49	3028.95
878.65	2797.53
878.82	2963.41
878.98	2916.31
879.15	3123.15
879.32	2838.48
879.48	2875.35
879.65	2936.79
879.81	2889.68
879.98	2775.00
880.15	2775.00
880.31	3145.68
880.48	2826.20
880.64	2777.05
880.81	2879.44
880.97	3340.24
881.14	3104.72
881.31	2709.46
881.47	2936.79
881.64	2893.78
881.80	2631.64
881.97	2891.73
882.13	2729.94
882.30	2775.00
882.47	2805.72
882.63	2680.79
882.80	2727.89
882.96	2883.54
883.13	3061.71
883.29	2742.23
883.46	2711.51
883.62	3291.09
883.79	2959.31
883.95	2795.48
884.12	2754.52
884.29	3200.98
884.45	2944.98
884.62	2789.33
884.78	2643.93
884.95	3252.17
885.11	2824.15
885.28	2772.95
885.44	2734.04
885.61	3090.38
885.77	3145.68
885.94	2805.72
886.10	2846.68
886.27	3006.42
886.43	3237.84
886.60	2883.54
886.76	2713.56
886.93	2836.44
887.09	2987.99
887.26	2652.12
887.42	2832.34
887.59	3078.10
887.75	3366.86
887.92	2861.01
888.08	2828.24
888.25	3225.55
888.41	3164.11
888.58	2770.90
888.74	2688.98
888.91	2924.50
>>>>>End Processed Spectral Data<<<<<
