SpectraSuite Data File
++++++++++++++++++++++++++++++++++++
Date: Thu May 05 21:10:47 CEST 2016
User: root
Dark Spectrum Present: No
Reference Spectrum Present: No
Number of Sampled Component Spectra: 1
Spectrometers: USB4C02835
Integration Time (usec): 100000 (USB4C02835)
Spectra Averaged: 1 (USB4C02835)
Boxcar Smoothing: 0 (USB4C02835)
Correct for Electrical Dark: No (USB4C02835)
Strobe/Lamp Enabled: No (USB4C02835)
Correct for Detector Non-linearity: No (USB4C02835)
Correct for Stray Light: No (USB4C02835)
Number of Pixels in Processed Spectrum: 3648
>>>>>Begin Processed Spectral Data<<<<<
177.47	2084.83
177.69	2084.83
177.91	2084.83
178.13	2101.22
178.36	2185.18
178.58	2818.00
178.80	2918.36
179.02	2725.85
179.24	2828.24
179.46	2658.26
179.68	2719.70
179.90	2967.51
180.13	2953.17
180.35	2531.29
180.57	2617.30
180.79	3112.91
181.01	2940.88
181.23	2736.09
181.45	2838.48
181.67	3086.29
181.90	3082.19
182.12	2729.94
182.34	2529.24
182.56	3084.24
182.78	3074.00
183.00	2691.03
183.22	2709.46
183.44	2662.36
183.66	3522.51
183.89	2791.38
184.11	2736.09
184.33	3047.38
184.55	3141.58
184.77	2682.84
184.99	2789.33
185.21	2863.06
185.43	3424.20
185.65	2717.65
185.87	2572.25
186.10	3354.57
186.32	3364.81
186.54	2850.77
186.76	2793.43
186.98	3143.63
187.20	2969.55
187.42	2680.79
187.64	2701.27
187.86	3090.38
188.08	3186.64
188.30	2568.15
188.52	2738.13
188.75	3276.75
188.97	3166.16
189.19	2619.35
189.41	2672.60
189.63	3076.05
189.85	2940.88
190.07	2547.67
190.29	2506.71
190.51	3065.81
190.73	2777.05
190.95	2848.72
191.17	2762.71
191.39	2818.00
191.61	2998.23
191.84	2656.22
192.06	2820.05
192.28	2725.85
192.50	3542.99
192.72	2799.57
192.94	2779.09
193.16	3170.26
193.38	3119.06
193.60	2580.44
193.82	2775.00
194.04	3102.67
194.26	3026.90
194.48	2662.36
194.70	2625.50
194.92	2766.81
195.14	3125.20
195.36	2578.39
195.58	2736.09
195.80	2906.07
196.02	2901.97
196.24	2627.54
196.46	2787.29
196.69	2910.16
196.91	3416.01
197.13	2688.98
197.35	2779.09
197.57	3250.13
197.79	3096.53
198.01	2731.99
198.23	2662.36
198.45	3057.62
198.67	2803.67
198.89	2590.68
199.11	2777.05
199.33	2854.87
199.55	2623.45
199.77	2598.87
199.99	2734.04
200.21	2953.17
200.43	3022.80
200.65	2639.83
200.87	2494.43
201.09	2985.94
201.31	2924.50
201.53	2670.55
201.75	2729.94
201.97	3082.19
202.19	3008.47
202.41	2731.99
202.63	2869.20
202.85	3076.05
203.07	3084.24
203.29	2721.75
203.51	2564.06
203.73	2881.49
203.95	3454.92
204.17	2709.46
204.39	2877.40
204.61	3057.62
204.83	2826.20
205.05	2832.34
205.27	2682.84
205.49	3340.24
205.71	2975.70
205.93	2611.16
206.15	2611.16
206.37	2932.69
206.59	2963.41
206.81	2568.15
207.03	2609.11
207.25	2922.45
207.47	3090.38
207.69	2731.99
207.91	2942.93
208.13	3211.22
208.34	2885.59
208.56	2629.59
208.78	2715.61
209.00	2934.74
209.22	2863.06
209.44	2639.83
209.66	2648.02
209.88	2920.40
210.10	2953.17
210.32	2711.51
210.54	2725.85
210.76	2973.65
210.98	3184.59
211.20	2566.10
211.42	2744.28
211.64	3155.92
211.86	3110.86
212.08	2789.33
212.30	2672.60
212.52	2904.02
212.74	3076.05
212.96	2795.48
213.17	2746.33
213.39	3100.62
213.61	3241.93
213.83	2645.98
214.05	2600.92
214.27	3217.36
214.49	2834.39
214.71	2639.83
214.93	2715.61
215.15	2963.41
215.37	3108.82
215.59	2666.46
215.81	2768.85
216.03	3266.51
216.24	2992.08
216.46	2660.31
216.68	2799.57
216.90	3096.53
217.12	3160.02
217.34	2648.02
217.56	2805.72
217.78	3262.41
218.00	3104.72
218.22	2867.16
218.44	2752.47
218.66	3037.14
218.87	3413.96
219.09	2715.61
219.31	2664.41
219.53	2985.94
219.75	2928.60
219.97	2766.81
220.19	2707.41
220.41	2963.41
220.63	3266.51
220.85	2709.46
221.06	2775.00
221.28	3164.11
221.50	3129.30
221.72	2656.22
221.94	2611.16
222.16	3045.33
222.38	3049.43
222.60	2691.03
222.82	2721.75
223.03	3200.98
223.25	2842.58
223.47	2654.17
223.69	2885.59
223.91	3157.97
224.13	3018.71
224.35	2680.79
224.57	2873.30
224.78	3098.58
225.00	2766.81
225.22	2721.75
225.44	2666.46
225.66	3114.96
225.88	2879.44
226.10	2789.33
226.32	2684.89
226.53	3246.03
226.75	2983.89
226.97	2772.95
227.19	2707.41
227.41	2836.44
227.63	2856.92
227.85	2527.19
228.06	2684.89
228.28	3016.66
228.50	3172.30
228.72	2488.28
228.94	2656.22
229.16	2668.50
229.37	2736.09
229.59	2572.25
229.81	2963.41
230.03	2904.02
230.25	2742.23
230.47	2564.06
230.69	2594.78
230.90	3119.06
231.12	2797.53
231.34	2713.56
231.56	2750.42
231.78	2875.35
232.00	2990.03
232.21	2699.22
232.43	2766.81
232.65	2586.58
232.87	3096.53
233.09	2641.88
233.30	2674.65
233.52	3119.06
233.74	2994.13
233.96	2650.07
234.18	2889.68
234.40	3008.47
234.61	3418.06
234.83	2598.87
235.05	2621.40
235.27	3418.06
235.49	3217.36
235.70	2557.91
235.92	2688.98
236.14	3110.86
236.36	3346.38
236.58	2559.96
236.79	2779.09
237.01	2940.88
237.23	2994.13
237.45	2883.54
237.67	2738.13
237.88	3096.53
238.10	3264.46
238.32	2674.65
238.54	2643.93
238.76	2957.27
238.97	2832.34
239.19	2615.26
239.41	2670.55
239.63	3160.02
239.85	2877.40
240.06	2772.95
240.28	2670.55
240.50	3160.02
240.72	2934.74
240.93	2590.68
241.15	2793.43
241.37	2930.64
241.59	3184.59
241.81	2631.64
242.02	2670.55
242.24	3002.32
242.46	3098.58
242.68	2545.63
242.89	2627.54
243.11	3139.54
243.33	2961.36
243.55	2725.85
243.76	2719.70
243.98	2930.64
244.20	3026.90
244.42	2772.95
244.64	2709.46
244.85	2777.05
245.07	2822.10
245.29	2715.61
245.51	2617.30
245.72	3061.71
245.94	3137.49
246.16	2678.74
246.38	2697.17
246.59	2879.44
246.81	2801.62
247.03	2621.40
247.24	2582.49
247.46	2836.44
247.68	2936.79
247.90	2641.88
248.11	2686.94
248.33	3119.06
248.55	2979.79
248.77	2760.66
248.98	2797.53
249.20	3260.37
249.42	2957.27
249.64	2697.17
249.85	2662.36
250.07	2934.74
250.29	3057.62
250.50	2791.38
250.72	2594.78
250.94	3008.47
251.16	3379.15
251.37	2623.45
251.59	2770.90
251.81	3090.38
252.02	3164.11
252.24	2623.45
252.46	2832.34
252.68	2959.31
252.89	2899.92
253.11	2553.82
253.33	2863.06
253.54	3278.80
253.76	2897.88
253.98	2664.41
254.20	2668.50
254.41	2797.53
254.63	2920.40
254.85	2559.96
255.06	2727.89
255.28	2987.99
255.50	2895.83
255.71	2629.59
255.93	2541.53
256.15	2928.60
256.36	3061.71
256.58	2580.44
256.80	2652.12
257.02	2928.60
257.23	2969.55
257.45	2686.94
257.67	2861.01
257.88	2967.51
258.10	3030.99
258.32	2586.58
258.53	2785.24
258.75	3235.79
258.97	2875.35
259.18	2613.21
259.40	2625.50
259.62	3295.18
259.83	3340.24
260.05	2654.17
260.27	3436.49
260.48	3123.15
260.70	2881.49
260.92	2574.30
261.13	2750.42
261.35	3008.47
261.57	3076.05
261.78	2611.16
262.00	2705.37
262.22	3067.86
262.43	2871.25
262.65	2746.33
262.86	2719.70
263.08	3434.44
263.30	2961.36
263.51	2543.58
263.73	2586.58
263.95	3364.81
264.16	2832.34
264.38	2574.30
264.60	2691.03
264.81	3022.80
265.03	3203.02
265.25	2987.99
265.46	2680.79
265.68	3223.50
265.89	3033.04
266.11	2578.39
266.33	2691.03
266.54	3160.02
266.76	3133.39
266.98	2912.21
267.19	2828.24
267.41	3176.40
267.62	3041.23
267.84	2506.71
268.06	2838.48
268.27	3030.99
268.49	3221.45
268.70	2744.28
268.92	2715.61
269.14	2793.43
269.35	2752.47
269.57	2775.00
269.79	2766.81
270.00	2899.92
270.22	3262.41
270.43	2598.87
270.65	2510.81
270.87	2998.23
271.08	3069.91
271.30	2795.48
271.51	2613.21
271.73	3205.07
271.95	3246.03
272.16	2613.21
272.38	2838.48
272.59	2955.22
272.81	3057.62
273.02	2684.89
273.24	2791.38
273.46	3100.62
273.67	2731.99
273.89	2586.58
274.10	2688.98
274.32	3190.74
274.54	3016.66
274.75	2756.57
274.97	2797.53
275.18	3147.73
275.40	3049.43
275.61	2744.28
275.83	2838.48
276.05	2766.81
276.26	2904.02
276.48	2754.52
276.69	2805.72
276.91	2865.11
277.12	3160.02
277.34	2897.88
277.55	2961.36
277.77	2961.36
277.99	2924.50
278.20	2791.38
278.42	2662.36
278.63	2899.92
278.85	2809.81
279.06	2701.27
279.28	2875.35
279.49	3170.26
279.71	3043.28
279.93	2854.87
280.14	2836.44
280.36	2836.44
280.57	3235.79
280.79	2885.59
281.00	2731.99
281.22	2881.49
281.43	3203.02
281.65	2574.30
281.86	2717.65
282.08	3084.24
282.29	3317.71
282.51	2654.17
282.73	2688.98
282.94	2789.33
283.16	3182.54
283.37	2947.03
283.59	2815.96
283.80	2990.03
284.02	3016.66
284.23	2838.48
284.45	2805.72
284.66	2861.01
284.88	2897.88
285.09	2754.52
285.31	2883.54
285.52	3090.38
285.74	2711.51
285.95	2994.13
286.17	2854.87
286.38	3209.17
286.60	2846.68
286.81	2717.65
287.03	2766.81
287.24	3020.75
287.46	2994.13
287.67	2826.20
287.89	3012.56
288.10	2918.36
288.32	3004.37
288.53	2963.41
288.75	2803.67
288.96	3061.71
289.18	2889.68
289.39	2740.18
289.61	2869.20
289.82	3276.75
290.04	3305.42
290.25	2637.78
290.47	2811.86
290.68	2947.03
290.90	3149.78
291.11	2688.98
291.33	2936.79
291.54	2850.77
291.76	2893.78
291.97	2906.07
292.18	2852.82
292.40	2873.30
292.61	2863.06
292.83	3100.62
293.04	2828.24
293.26	3020.75
293.47	2957.27
293.69	2736.09
293.90	2770.90
294.12	3301.33
294.33	3004.37
294.55	2883.54
294.76	2963.41
294.97	3209.17
295.19	3330.00
295.40	2736.09
295.62	2891.73
295.83	3180.50
296.05	2834.39
296.26	3106.77
296.48	2764.76
296.69	2963.41
296.90	3004.37
297.12	2926.55
297.33	2918.36
297.55	3049.43
297.76	2916.31
297.98	2928.60
298.19	2932.69
298.41	3014.61
298.62	2887.64
298.83	2963.41
299.05	2834.39
299.26	2936.79
299.48	2875.35
299.69	2799.57
299.90	2805.72
300.12	2818.00
300.33	3039.19
300.55	2772.95
300.76	2863.06
300.98	2801.62
301.19	3162.06
301.40	2809.81
301.62	2768.85
301.83	3133.39
302.05	2971.60
302.26	2877.40
302.47	2940.88
302.69	2791.38
302.90	3057.62
303.12	2551.77
303.33	2879.44
303.54	3405.77
303.76	2891.73
303.97	2826.20
304.19	2963.41
304.40	2820.05
304.61	3008.47
304.83	2828.24
305.04	2934.74
305.26	3108.82
305.47	2861.01
305.68	2846.68
305.90	2598.87
306.11	3276.75
306.33	3022.80
306.54	2746.33
306.75	2762.71
306.97	2670.55
307.18	2850.77
307.39	2777.05
307.61	2832.34
307.82	2971.60
308.04	3024.85
308.25	2688.98
308.46	2967.51
308.68	2975.70
308.89	3006.42
309.10	2910.16
309.32	2901.97
309.53	2953.17
309.74	3069.91
309.96	2758.61
310.17	2953.17
310.39	2873.30
310.60	3069.91
310.81	2822.10
311.03	2713.56
311.24	3098.58
311.45	2969.55
311.67	3008.47
311.88	2873.30
312.09	2961.36
312.31	2815.96
312.52	2807.77
312.73	2813.91
312.95	2777.05
313.16	2807.77
313.37	3000.27
313.59	2938.84
313.80	3145.68
314.01	3321.81
314.23	2801.62
314.44	2680.79
314.65	2746.33
314.87	2854.87
315.08	2777.05
315.29	2750.42
315.51	2805.72
315.72	2693.08
315.93	2830.29
316.15	2832.34
316.36	2920.40
316.57	3024.85
316.79	2818.00
317.00	2750.42
317.21	3041.23
317.43	2775.00
317.64	2873.30
317.85	2711.51
318.07	2869.20
318.28	2807.77
318.49	2885.59
318.70	3049.43
318.92	3071.95
319.13	3067.86
319.34	3043.28
319.56	2742.23
319.77	3045.33
319.98	3065.81
320.20	3033.04
320.41	2949.08
320.62	3084.24
320.83	2881.49
321.05	3006.42
321.26	2822.10
321.47	2979.79
321.69	3098.58
321.90	2725.85
322.11	2656.22
322.32	2955.22
322.54	3205.07
322.75	2856.92
322.96	3504.07
323.18	2709.46
323.39	2582.49
323.60	2719.70
323.81	2983.89
324.03	2881.49
324.24	2969.55
324.45	2938.84
324.66	2691.03
324.88	3209.17
325.09	3172.30
325.30	2738.13
325.52	2731.99
325.73	3026.90
325.94	2809.81
326.15	2662.36
326.37	2760.66
326.58	3117.01
326.79	3315.66
327.00	2746.33
327.22	2748.37
327.43	2975.70
327.64	2740.18
327.85	2877.40
328.07	2834.39
328.28	3282.89
328.49	2858.96
328.70	2799.57
328.92	2734.04
329.13	2926.55
329.34	3049.43
329.55	3022.80
329.76	2969.55
329.98	2930.64
330.19	3190.74
330.40	2805.72
330.61	2918.36
330.83	3119.06
331.04	2865.11
331.25	2908.12
331.46	2820.05
331.68	2768.85
331.89	3209.17
332.10	2908.12
332.31	2731.99
332.52	3000.27
332.74	3094.48
332.95	2645.98
333.16	2854.87
333.37	3129.30
333.58	2897.88
333.80	2893.78
334.01	2596.82
334.22	3014.61
334.43	2979.79
334.64	2752.47
334.86	2727.89
335.07	2826.20
335.28	3280.85
335.49	2695.13
335.70	2854.87
335.92	3248.08
336.13	3346.38
336.34	2879.44
336.55	2826.20
336.76	3014.61
336.98	2650.07
337.19	2764.76
337.40	2869.20
337.61	3473.36
337.82	3035.09
338.04	2961.36
338.25	2594.78
338.46	2947.03
338.67	2908.12
338.88	2703.32
339.09	2688.98
339.31	2918.36
339.52	2783.19
339.73	2818.00
339.94	2772.95
340.15	3069.91
340.36	2852.82
340.58	2785.24
340.79	2680.79
341.00	3098.58
341.21	2815.96
341.42	2977.75
341.63	2815.96
341.85	3104.72
342.06	3010.51
342.27	2760.66
342.48	2893.78
342.69	2805.72
342.90	3002.32
343.12	3104.72
343.33	2766.81
343.54	3170.26
343.75	3209.17
343.96	2934.74
344.17	2699.22
344.38	2981.84
344.60	2879.44
344.81	2705.37
345.02	2795.48
345.23	3178.45
345.44	3387.34
345.65	2830.29
345.86	2854.87
346.07	2955.22
346.29	2940.88
346.50	2947.03
346.71	2795.48
346.92	3246.03
347.13	3338.19
347.34	2893.78
347.55	2699.22
347.76	3074.00
347.98	2740.18
348.19	2848.72
348.40	2928.60
348.61	2928.60
348.82	3168.21
349.03	2877.40
349.24	2701.27
349.45	3280.85
349.66	2637.78
349.88	2754.52
350.09	2717.65
350.30	3323.85
350.51	3133.39
350.72	3020.75
350.93	2828.24
351.14	2912.21
351.35	3096.53
351.56	2777.05
351.77	2883.54
351.99	3086.29
352.20	3252.17
352.41	2926.55
352.62	2543.58
352.83	2967.51
353.04	2965.46
353.25	2820.05
353.46	2785.24
353.67	3086.29
353.88	2633.69
354.09	2719.70
354.30	2832.34
354.52	3076.05
354.73	2953.17
354.94	2738.13
355.15	2783.19
355.36	3338.19
355.57	2922.45
355.78	2805.72
355.99	2723.80
356.20	2912.21
356.41	3172.30
356.62	2852.82
356.83	2887.64
357.04	3241.93
357.25	2682.84
357.46	2731.99
357.68	2703.32
357.89	2797.53
358.10	3024.85
358.31	2815.96
358.52	2791.38
358.73	2787.29
358.94	2813.91
359.15	2762.71
359.36	2824.15
359.57	3094.48
359.78	2936.79
359.99	2992.08
360.20	2781.14
360.41	2981.84
360.62	3096.53
360.83	2820.05
361.04	2820.05
361.25	2994.13
361.46	3252.17
361.67	2871.25
361.88	2805.72
362.09	3157.97
362.30	3059.67
362.51	2736.09
362.72	2856.92
362.93	3127.25
363.14	3037.14
363.35	2871.25
363.56	2748.37
363.78	3166.16
363.99	3151.82
364.20	2764.76
364.41	2895.83
364.62	3348.43
364.83	3045.33
365.04	2830.29
365.25	2881.49
365.46	3311.57
365.67	2815.96
365.88	2908.12
366.09	2838.48
366.30	2897.88
366.51	2983.89
366.72	2670.55
366.93	2756.57
367.14	2932.69
367.35	3264.46
367.56	2731.99
367.77	2867.16
367.98	2996.18
368.18	3051.47
368.39	2895.83
368.60	2709.46
368.81	3092.43
369.02	3028.95
369.23	2838.48
369.44	2633.69
369.65	2906.07
369.86	3117.01
370.07	2901.97
370.28	2764.76
370.49	2942.93
370.70	3024.85
370.91	2740.18
371.12	2701.27
371.33	3203.02
371.54	2899.92
371.75	2918.36
371.96	2512.86
372.17	2979.79
372.38	3000.27
372.59	2854.87
372.80	2813.91
373.01	2824.15
373.22	3037.14
373.43	2762.71
373.64	2701.27
373.85	3188.69
374.06	3360.72
374.26	2922.45
374.47	2973.65
374.68	3188.69
374.89	3043.28
375.10	2836.44
375.31	2979.79
375.52	2965.46
375.73	3010.51
375.94	2658.26
376.15	2916.31
376.36	2893.78
376.57	3067.86
376.78	2789.33
376.99	2830.29
377.20	3315.66
377.40	2967.51
377.61	3090.38
377.82	2705.37
378.03	3149.78
378.24	3035.09
378.45	2897.88
378.66	2901.97
378.87	2707.41
379.08	2754.52
379.29	2785.24
379.50	2910.16
379.71	2949.08
379.91	3127.25
380.12	2795.48
380.33	2822.10
380.54	2981.84
380.75	2938.84
380.96	2820.05
381.17	2822.10
381.38	3010.51
381.59	3016.66
381.80	2822.10
382.00	2975.70
382.21	3010.51
382.42	3254.22
382.63	3119.06
382.84	3024.85
383.05	3119.06
383.26	3235.79
383.47	2869.20
383.68	2785.24
383.88	3033.04
384.09	2932.69
384.30	3114.96
384.51	2867.16
384.72	2875.35
384.93	2797.53
385.14	2873.30
385.35	3014.61
385.55	2729.94
385.76	3178.45
385.97	2848.72
386.18	2697.17
386.39	2779.09
386.60	2938.84
386.81	2824.15
387.02	2715.61
387.22	2764.76
387.43	3059.67
387.64	2918.36
387.85	3004.37
388.06	3071.95
388.27	4042.69
388.48	7319.44
388.68	10917.72
388.89	13399.86
389.10	14671.65
389.31	14268.20
389.52	11261.78
389.73	9789.29
389.93	8697.72
390.14	8185.73
390.35	7276.43
390.56	6602.65
390.77	5586.86
390.98	4353.98
391.18	3639.24
391.39	3444.68
391.60	2969.55
391.81	2992.08
392.02	2791.38
392.23	3352.52
392.43	3014.61
392.64	3033.04
392.85	2887.64
393.06	3264.46
393.27	2987.99
393.47	2742.23
393.68	2924.50
393.89	2918.36
394.10	3186.64
394.31	2873.30
394.52	2779.09
394.72	2877.40
394.93	3278.80
395.14	2754.52
395.35	2877.40
395.56	2918.36
395.76	2996.18
395.97	2793.43
396.18	2879.44
396.39	3100.62
396.60	3594.19
396.80	3074.00
397.01	3018.71
397.22	3176.40
397.43	3178.45
397.64	2861.01
397.84	2942.93
398.05	3364.81
398.26	3045.33
398.47	2973.65
398.67	3016.66
398.88	2897.88
399.09	3200.98
399.30	2834.39
399.51	2877.40
399.71	2826.20
399.92	3006.42
400.13	2967.51
400.34	2863.06
400.54	2942.93
400.75	3278.80
400.96	3014.61
401.17	3129.30
401.37	3166.16
401.58	3030.99
401.79	2805.72
402.00	3014.61
402.21	3481.55
402.41	3139.54
402.62	3123.15
402.83	3121.10
403.04	3358.67
403.24	3645.38
403.45	2910.16
403.66	3145.68
403.87	3147.73
404.07	3272.65
404.28	3104.72
404.49	3121.10
404.70	3030.99
404.90	3110.86
405.11	2891.73
405.32	2924.50
405.52	2852.82
405.73	2981.84
405.94	2752.47
406.15	2940.88
406.35	3055.57
406.56	3098.58
406.77	2940.88
406.98	2883.54
407.18	2908.12
407.39	3221.45
407.60	2877.40
407.80	2895.83
408.01	2895.83
408.22	3026.90
408.43	2721.75
408.63	2977.75
408.84	3143.63
409.05	3098.58
409.25	2811.86
409.46	2848.72
409.67	2885.59
409.88	2885.59
410.08	2852.82
410.29	2822.10
410.50	3119.06
410.70	3043.28
410.91	2736.09
411.12	2852.82
411.32	2961.36
411.53	2805.72
411.74	2844.63
411.95	2897.88
412.15	2973.65
412.36	3074.00
412.57	2957.27
412.77	2987.99
412.98	2885.59
413.19	2926.55
413.39	2930.64
413.60	2908.12
413.81	3190.74
414.01	2824.15
414.22	2875.35
414.43	2992.08
414.63	2811.86
414.84	3176.40
415.05	2881.49
415.25	2680.79
415.46	3112.91
415.67	2934.74
415.87	2897.88
416.08	2922.45
416.29	2975.70
416.49	3080.14
416.70	2848.72
416.91	2869.20
417.11	2912.21
417.32	3123.15
417.53	3004.37
417.73	2959.31
417.94	2944.98
418.15	3006.42
418.35	2854.87
418.56	2897.88
418.77	3379.15
418.97	2899.92
419.18	2873.30
419.38	2510.81
419.59	2973.65
419.80	3198.93
420.00	2789.33
420.21	2844.63
420.42	3200.98
420.62	2977.75
420.83	2762.71
421.04	2887.64
421.24	3037.14
421.45	3178.45
421.65	2877.40
421.86	2912.21
422.07	3147.73
422.27	2969.55
422.48	2785.24
422.69	2717.65
422.89	2940.88
423.10	2895.83
423.30	2682.84
423.51	2930.64
423.72	3147.73
423.92	3164.11
424.13	2715.61
424.33	2934.74
424.54	3133.39
424.75	3102.67
424.95	3082.19
425.16	2791.38
425.36	2994.13
425.57	3129.30
425.78	2908.12
425.98	2947.03
426.19	2949.08
426.39	2889.68
426.60	2947.03
426.81	2985.94
427.01	2979.79
427.22	2818.00
427.42	2607.06
427.63	2783.19
427.83	3137.49
428.04	3280.85
428.25	2922.45
428.45	2959.31
428.66	3155.92
428.86	2938.84
429.07	2807.77
429.28	2852.82
429.48	2934.74
429.69	2830.29
429.89	2895.83
430.10	2717.65
430.30	3033.04
430.51	3123.15
430.71	2797.53
430.92	2756.57
431.13	2928.60
431.33	3143.63
431.54	2920.40
431.74	3008.47
431.95	3366.86
432.15	2828.24
432.36	2803.67
432.56	2863.06
432.77	3344.33
432.98	3295.18
433.18	2899.92
433.39	2725.85
433.59	2975.70
433.80	3323.85
434.00	3035.09
434.21	2844.63
434.41	2858.96
434.62	3444.68
434.82	2752.47
435.03	2785.24
435.23	3004.37
435.44	2762.71
435.64	2760.66
435.85	2912.21
436.06	3067.86
436.26	3221.45
436.47	2895.83
436.67	2832.34
436.88	2996.18
437.08	3215.31
437.29	2961.36
437.49	2979.79
437.70	3123.15
437.90	2985.94
438.11	3030.99
438.31	2951.12
438.52	3225.55
438.72	3141.58
438.93	3194.83
439.13	2965.46
439.34	3192.78
439.54	2951.12
439.75	2949.08
439.95	2836.44
440.16	2893.78
440.36	2992.08
440.57	2918.36
440.77	2799.57
440.98	2908.12
441.18	3061.71
441.39	2752.47
441.59	2650.07
441.80	3268.56
442.00	2926.55
442.21	2895.83
442.41	2707.41
442.62	3127.25
442.82	2918.36
443.02	2848.72
443.23	2881.49
443.43	2926.55
443.64	3258.32
443.84	2772.95
444.05	2906.07
444.25	2975.70
444.46	2854.87
444.66	2807.77
444.87	3166.16
445.07	2750.42
445.28	2951.12
445.48	3045.33
445.69	2832.34
445.89	3502.03
446.09	2928.60
446.30	3170.26
446.50	3209.17
446.71	4702.14
446.91	5754.79
447.12	6504.35
447.32	7055.25
447.53	6891.41
447.73	5754.79
447.93	5052.34
448.14	4749.24
448.34	4931.51
448.55	4063.17
448.75	4149.18
448.96	3835.85
449.16	3600.33
449.36	3502.03
449.57	3074.00
449.77	2920.40
449.98	2971.60
450.18	3053.52
450.39	2766.81
450.59	3035.09
450.79	3030.99
451.00	2867.16
451.20	3033.04
451.41	2832.34
451.61	3024.85
451.81	2938.84
452.02	2828.24
452.22	2846.68
452.43	2832.34
452.63	2824.15
452.84	3006.42
453.04	2844.63
453.24	3063.76
453.45	2832.34
453.65	2846.68
453.86	2901.97
454.06	2998.23
454.26	2936.79
454.47	2781.14
454.67	3074.00
454.87	3055.57
455.08	2959.31
455.28	2947.03
455.49	2967.51
455.69	2840.53
455.89	3411.92
456.10	2906.07
456.30	2824.15
456.51	3145.68
456.71	3002.32
456.91	2959.31
457.12	2738.13
457.32	3078.10
457.52	2840.53
457.73	3024.85
457.93	3057.62
458.14	2895.83
458.34	2672.60
458.54	2858.96
458.75	2838.48
458.95	3137.49
459.15	3090.38
459.36	2846.68
459.56	2924.50
459.76	3352.52
459.97	2977.75
460.17	2850.77
460.37	2912.21
460.58	2996.18
460.78	3055.57
460.99	2805.72
461.19	2815.96
461.39	2887.64
461.60	2981.84
461.80	2914.26
462.00	2752.47
462.21	3049.43
462.41	2811.86
462.61	2697.17
462.82	2688.98
463.02	3041.23
463.22	3020.75
463.43	2891.73
463.63	2793.43
463.83	3143.63
464.04	3018.71
464.24	2826.20
464.44	2695.13
464.64	3016.66
464.85	3063.76
465.05	2877.40
465.25	2805.72
465.46	2869.20
465.66	3074.00
465.86	2973.65
466.07	2822.10
466.27	2969.55
466.47	2815.96
466.68	2686.94
466.88	3028.95
467.08	3157.97
467.29	3194.83
467.49	2881.49
467.69	3033.04
467.89	3061.71
468.10	2858.96
468.30	2959.31
468.50	3018.71
468.71	3039.19
468.91	2809.81
469.11	3049.43
469.31	2918.36
469.52	2895.83
469.72	3305.42
469.92	3131.34
470.13	2828.24
470.33	2981.84
470.53	3061.71
470.73	3256.27
470.94	3665.86
471.14	3606.47
471.34	4091.84
471.54	3831.75
471.75	3569.61
471.95	3411.92
472.15	3317.71
472.36	3307.47
472.56	3274.70
472.76	3473.36
472.96	3311.57
473.17	3125.20
473.37	3006.42
473.57	2938.84
473.77	3057.62
473.98	2979.79
474.18	2723.80
474.38	3518.41
474.58	2807.77
474.79	2693.08
474.99	2969.55
475.19	3180.50
475.39	2889.68
475.60	2918.36
475.80	2799.57
476.00	3002.32
476.20	2848.72
476.41	2877.40
476.61	2893.78
476.81	3297.23
477.01	2901.97
477.21	3110.86
477.42	2975.70
477.62	2809.81
477.82	3096.53
478.02	2854.87
478.23	2869.20
478.43	2895.83
478.63	3043.28
478.83	2854.87
479.03	2781.14
479.24	3227.60
479.44	3362.76
479.64	2803.67
479.84	2705.37
480.04	2930.64
480.25	3108.82
480.45	2785.24
480.65	2801.62
480.85	3286.99
481.06	2836.44
481.26	2854.87
481.46	2910.16
481.66	3041.23
481.86	2942.93
482.06	3041.23
482.27	2885.59
482.47	2949.08
482.67	3121.10
482.87	2889.68
483.07	2928.60
483.28	2863.06
483.48	2848.72
483.68	2803.67
483.88	2822.10
484.08	2721.75
484.29	2801.62
484.49	2963.41
484.69	2750.42
484.89	3233.74
485.09	3133.39
485.29	2949.08
485.50	2955.22
485.70	2871.25
485.90	3258.32
486.10	2979.79
486.30	2822.10
486.50	3252.17
486.71	3022.80
486.91	2951.12
487.11	2959.31
487.31	2756.57
487.51	3094.48
487.71	2824.15
487.91	2715.61
488.12	2887.64
488.32	2594.78
488.52	2820.05
488.72	2617.30
488.92	2983.89
489.12	3180.50
489.32	3033.04
489.53	2887.64
489.73	2729.94
489.93	3334.09
490.13	2844.63
490.33	2607.06
490.53	2977.75
490.73	3086.29
490.94	2734.04
491.14	2967.51
491.34	3094.48
491.54	3149.78
491.74	3682.25
491.94	4147.14
492.14	4749.24
492.34	4812.73
492.54	4362.17
492.75	3704.78
492.95	3864.52
493.15	3629.00
493.35	3426.25
493.55	3475.40
493.75	3413.96
493.95	3469.26
494.15	3065.81
494.35	2889.68
494.56	2971.60
494.76	2936.79
494.96	2928.60
495.16	2848.72
495.36	2961.36
495.56	2904.02
495.76	2850.77
495.96	2811.86
496.16	2889.68
496.36	3317.71
496.56	2826.20
496.77	2949.08
496.97	3024.85
497.17	3268.56
497.37	2652.12
497.57	2955.22
497.77	2998.23
497.97	2744.28
498.17	2949.08
498.37	2848.72
498.57	3033.04
498.77	2922.45
498.97	3006.42
499.17	3227.60
499.38	2924.50
499.58	3035.09
499.78	3065.81
499.98	2959.31
500.18	2875.35
500.38	2918.36
500.58	3039.19
500.78	3424.20
500.98	5502.89
501.18	7309.20
501.38	8656.76
501.58	9858.92
501.78	9580.40
501.98	8005.51
502.18	6707.10
502.38	5867.43
502.58	5711.78
502.78	5066.67
502.98	4827.06
503.18	4585.40
503.38	4362.17
503.59	3704.78
503.79	3684.30
503.99	3436.49
504.19	3463.12
504.39	3502.03
504.59	3373.00
504.79	3272.65
504.99	3545.03
505.19	3174.35
505.39	3065.81
505.59	3217.36
505.79	3342.28
505.99	3141.58
506.19	2799.57
506.39	3069.91
506.59	2885.59
506.79	2957.27
506.99	3110.86
507.19	2908.12
507.39	3000.27
507.59	2779.09
507.79	2848.72
507.99	2766.81
508.19	2965.46
508.39	2885.59
508.59	2826.20
508.79	2961.36
508.99	3370.96
509.19	3033.04
509.39	2883.54
509.59	2731.99
509.79	2885.59
509.99	3020.75
510.19	3022.80
510.39	2994.13
510.59	2994.13
510.79	2873.30
510.99	2674.65
511.19	2803.67
511.39	3225.55
511.59	3147.73
511.79	3012.56
511.99	2858.96
512.19	3342.28
512.38	2987.99
512.58	2840.53
512.78	2746.33
512.98	3157.97
513.18	3227.60
513.38	2703.32
513.58	2930.64
513.78	2973.65
513.98	2961.36
514.18	2887.64
514.38	2871.25
514.58	3022.80
514.78	2914.26
514.98	2719.70
515.18	2893.78
515.38	2754.52
515.58	3246.03
515.78	2828.24
515.98	2820.05
516.18	3076.05
516.38	3016.66
516.57	2873.30
516.77	2861.01
516.97	3133.39
517.17	2840.53
517.37	2660.31
517.57	2910.16
517.77	2969.55
517.97	2772.95
518.17	2953.17
518.37	2721.75
518.57	2914.26
518.77	2916.31
518.97	2951.12
519.16	2871.25
519.36	3219.41
519.56	2975.70
519.76	2824.15
519.96	2865.11
520.16	3330.00
520.36	2783.19
520.56	3024.85
520.76	2842.58
520.96	2971.60
521.16	3170.26
521.35	3053.52
521.55	3002.32
521.75	3065.81
521.95	2901.97
522.15	2846.68
522.35	2750.42
522.55	2863.06
522.75	3168.21
522.95	2734.04
523.14	2736.09
523.34	3137.49
523.54	2861.01
523.74	2961.36
523.94	2932.69
524.14	2797.53
524.34	3106.77
524.54	3121.10
524.73	2912.21
524.93	3162.06
525.13	3002.32
525.33	2734.04
525.53	3026.90
525.73	3067.86
525.93	3026.90
526.13	2797.53
526.32	2822.10
526.52	3198.93
526.72	3104.72
526.92	2811.86
527.12	2834.39
527.32	2695.13
527.52	3114.96
527.71	2928.60
527.91	2869.20
528.11	3026.90
528.31	2969.55
528.51	2785.24
528.71	2992.08
528.90	3131.34
529.10	3174.35
529.30	2940.88
529.50	2617.30
529.70	3047.38
529.90	2938.84
530.09	2887.64
530.29	2750.42
530.49	2811.86
530.69	3473.36
530.89	2957.27
531.09	2904.02
531.28	2899.92
531.48	3250.13
531.68	2824.15
531.88	2889.68
532.08	3198.93
532.28	2979.79
532.47	2914.26
532.67	3037.14
532.87	3033.04
533.07	2820.05
533.27	2891.73
533.46	2879.44
533.66	3053.52
533.86	2983.89
534.06	2842.58
534.26	2828.24
534.45	2979.79
534.65	3180.50
534.85	2967.51
535.05	2822.10
535.25	3229.65
535.44	2643.93
535.64	2899.92
535.84	2918.36
536.04	2875.35
536.24	2944.98
536.43	2791.38
536.63	2850.77
536.83	3084.24
537.03	2910.16
537.22	2727.89
537.42	2682.84
537.62	2955.22
537.82	2861.01
538.02	3071.95
538.21	2932.69
538.41	3536.84
538.61	3078.10
538.81	2906.07
539.00	2971.60
539.20	2709.46
539.40	3008.47
539.60	2854.87
539.79	3008.47
539.99	3024.85
540.19	2777.05
540.39	2893.78
540.58	2844.63
540.78	3100.62
540.98	3018.71
541.18	3127.25
541.37	2957.27
541.57	2990.03
541.77	3065.81
541.97	2721.75
542.16	2744.28
542.36	2871.25
542.56	2924.50
542.76	3049.43
542.95	2985.94
543.15	3041.23
543.35	3182.54
543.54	2768.85
543.74	2729.94
543.94	3293.13
544.14	2926.55
544.33	2983.89
544.53	2791.38
544.73	2906.07
544.93	2918.36
545.12	2826.20
545.32	2875.35
545.52	2953.17
545.71	2793.43
545.91	2854.87
546.11	2830.29
546.30	2861.01
546.50	2949.08
546.70	2910.16
546.90	2850.77
547.09	2705.37
547.29	2977.75
547.49	2994.13
547.68	2793.43
547.88	2861.01
548.08	3114.96
548.27	3205.07
548.47	2723.80
548.67	2879.44
548.87	3094.48
549.06	2828.24
549.26	2805.72
549.46	2992.08
549.65	2863.06
549.85	2848.72
550.05	2910.16
550.24	2775.00
550.44	2994.13
550.64	2897.88
550.83	2920.40
551.03	3284.94
551.23	3172.30
551.42	3018.71
551.62	2844.63
551.82	3010.51
552.01	2967.51
552.21	3057.62
552.41	2838.48
552.60	3233.74
552.80	3020.75
553.00	2820.05
553.19	2887.64
553.39	3254.22
553.59	2801.62
553.78	2897.88
553.98	2877.40
554.17	2742.23
554.37	3030.99
554.57	3000.27
554.76	2764.76
554.96	2842.58
555.16	3110.86
555.35	2861.01
555.55	3047.38
555.75	2983.89
555.94	3084.24
556.14	2713.56
556.33	2893.78
556.53	2942.93
556.73	2938.84
556.92	2961.36
557.12	2832.34
557.32	3340.24
557.51	3262.41
557.71	2897.88
557.90	3028.95
558.10	3157.97
558.30	2877.40
558.49	2873.30
558.69	2781.14
558.88	3059.67
559.08	3055.57
559.28	2736.09
559.47	2895.83
559.67	3205.07
559.86	3493.83
560.06	2871.25
560.26	2824.15
560.45	3135.44
560.65	2924.50
560.84	3016.66
561.04	2811.86
561.24	3078.10
561.43	2760.66
561.63	3170.26
561.82	2930.64
562.02	3114.96
562.22	2918.36
562.41	2809.81
562.61	2910.16
562.80	2715.61
563.00	3399.63
563.19	2889.68
563.39	2883.54
563.59	3133.39
563.78	2760.66
563.98	2664.41
564.17	2889.68
564.37	2666.46
564.56	2959.31
564.76	2676.70
564.96	2996.18
565.15	3063.76
565.35	3336.14
565.54	2920.40
565.74	2893.78
565.93	3100.62
566.13	2992.08
566.32	2942.93
566.52	2922.45
566.71	3016.66
566.91	3129.30
567.11	2983.89
567.30	2734.04
567.50	3096.53
567.69	3041.23
567.89	2820.05
568.08	2805.72
568.28	3063.76
568.47	2854.87
568.67	2871.25
568.86	2871.25
569.06	3065.81
569.25	2922.45
569.45	2686.94
569.64	2869.20
569.84	3014.61
570.04	3065.81
570.23	2836.44
570.43	2867.16
570.62	3043.28
570.82	3315.66
571.01	2742.23
571.21	2813.91
571.40	2824.15
571.60	3119.06
571.79	2979.79
571.99	2893.78
572.18	2822.10
572.38	2990.03
572.57	2797.53
572.77	2934.74
572.96	3454.92
573.16	3053.52
573.35	2785.24
573.55	2985.94
573.74	3037.14
573.94	2924.50
574.13	2852.82
574.33	3033.04
574.52	3209.17
574.71	2983.89
574.91	2973.65
575.10	2734.04
575.30	2899.92
575.49	2881.49
575.69	2768.85
575.88	2901.97
576.08	2996.18
576.27	3139.54
576.47	2840.53
576.66	3043.28
576.86	3172.30
577.05	3018.71
577.25	2861.01
577.44	3092.43
577.64	2875.35
577.83	3151.82
578.02	2834.39
578.22	3028.95
578.41	3448.78
578.61	3018.71
578.80	2801.62
579.00	2834.39
579.19	2983.89
579.39	3104.72
579.58	3022.80
579.77	2887.64
579.97	3284.94
580.16	3176.40
580.36	3112.91
580.55	3016.66
580.75	3063.76
580.94	2994.13
581.13	3078.10
581.33	3100.62
581.52	2922.45
581.72	3313.61
581.91	3016.66
582.11	2848.72
582.30	3166.16
582.49	2994.13
582.69	3141.58
582.88	2873.30
583.08	2961.36
583.27	3200.98
583.47	2877.40
583.66	2738.13
583.85	2922.45
584.05	2906.07
584.24	3020.75
584.44	2877.40
584.63	3110.86
584.82	3194.83
585.02	3160.02
585.21	3067.86
585.41	3086.29
585.60	3080.14
585.79	3082.19
585.99	3176.40
586.18	3033.04
586.37	3887.04
586.57	5863.33
586.76	16936.70
586.96	35644.90
587.15	49112.34
587.34	57492.63
587.54	61359.19
587.73	55020.73
587.93	39251.37
588.12	29916.73
588.31	24266.38
588.51	21350.07
588.70	19728.08
588.89	17258.23
589.09	14700.32
589.28	12461.89
589.47	9783.15
589.67	7632.78
589.86	6021.03
590.06	4652.98
590.25	4177.86
590.44	3561.42
590.64	3356.62
590.83	3213.26
591.02	3233.74
591.22	2893.78
591.41	2998.23
591.60	3028.95
591.80	3438.54
591.99	2758.61
592.18	2842.58
592.38	3153.87
592.57	2893.78
592.76	2938.84
592.96	3014.61
593.15	2987.99
593.34	3176.40
593.54	2760.66
593.73	2981.84
593.92	3059.67
594.12	3082.19
594.31	2969.55
594.50	3114.96
594.70	3067.86
594.89	3473.36
595.08	2789.33
595.28	3033.04
595.47	3483.59
595.66	3133.39
595.86	2809.81
596.05	2795.48
596.24	2904.02
596.43	3383.24
596.63	2998.23
596.82	2938.84
597.01	3037.14
597.21	3311.57
597.40	2846.68
597.59	2936.79
597.79	2969.55
597.98	3205.07
598.17	2867.16
598.36	2963.41
598.56	3174.35
598.75	2994.13
598.94	2967.51
599.14	2959.31
599.33	2992.08
599.52	3045.33
599.71	2969.55
599.91	2930.64
600.10	3082.19
600.29	3010.51
600.48	2951.12
600.68	3022.80
600.87	3037.14
601.06	2865.11
601.26	2987.99
601.45	2959.31
601.64	2979.79
601.83	3276.75
602.03	2818.00
602.22	2797.53
602.41	3127.25
602.60	3483.59
602.80	2955.22
602.99	2979.79
603.18	2987.99
603.37	3053.52
603.57	2785.24
603.76	2877.40
603.95	3188.69
604.14	2963.41
604.34	2815.96
604.53	2830.29
604.72	3049.43
604.91	3082.19
605.10	2836.44
605.30	2838.48
605.49	3323.85
605.68	3145.68
605.87	2918.36
606.07	2766.81
606.26	3049.43
606.45	3049.43
606.64	2914.26
606.84	2830.29
607.03	2975.70
607.22	3200.98
607.41	2846.68
607.60	2777.05
607.80	3151.82
607.99	2981.84
608.18	2904.02
608.37	2895.83
608.56	2879.44
608.76	3135.44
608.95	3006.42
609.14	2887.64
609.33	3184.59
609.52	3303.37
609.72	2957.27
609.91	2965.46
610.10	3051.47
610.29	3266.51
610.48	2987.99
610.68	2971.60
610.87	2951.12
611.06	3135.44
611.25	2830.29
611.44	2987.99
611.63	2877.40
611.83	3295.18
612.02	2787.29
612.21	3012.56
612.40	2701.27
612.59	2873.30
612.79	2736.09
612.98	2914.26
613.17	3286.99
613.36	2994.13
613.55	2983.89
613.74	2836.44
613.93	2930.64
614.13	3018.71
614.32	3039.19
614.51	2926.55
614.70	2979.79
614.89	2977.75
615.08	2910.16
615.28	3307.47
615.47	2758.61
615.66	3088.34
615.85	2928.60
616.04	2901.97
616.23	2994.13
616.42	2949.08
616.62	2895.83
616.81	2852.82
617.00	2879.44
617.19	3065.81
617.38	2889.68
617.57	2918.36
617.76	3178.45
617.95	3100.62
618.15	2979.79
618.34	3123.15
618.53	2830.29
618.72	3194.83
618.91	2977.75
619.10	2975.70
619.29	2924.50
619.48	2998.23
619.68	2807.77
619.87	2832.34
620.06	2701.27
620.25	3035.09
620.44	2863.06
620.63	2828.24
620.82	3096.53
621.01	2910.16
621.20	2928.60
621.39	2893.78
621.59	3119.06
621.78	2979.79
621.97	2930.64
622.16	2985.94
622.35	2987.99
622.54	3098.58
622.73	2930.64
622.92	2676.70
623.11	3090.38
623.30	2918.36
623.49	3061.71
623.68	2795.48
623.88	3213.26
624.07	2928.60
624.26	2813.91
624.45	2854.87
624.64	2938.84
624.83	3084.24
625.02	2805.72
625.21	2893.78
625.40	3002.32
625.59	3172.30
625.78	2899.92
625.97	2908.12
626.16	3258.32
626.35	3090.38
626.54	2957.27
626.74	3067.86
626.93	2912.21
627.12	2942.93
627.31	3035.09
627.50	2949.08
627.69	3194.83
627.88	2836.44
628.07	2852.82
628.26	2713.56
628.45	2920.40
628.64	2836.44
628.83	2756.57
629.02	2709.46
629.21	2990.03
629.40	3063.76
629.59	2750.42
629.78	2820.05
629.97	2981.84
630.16	2985.94
630.35	2793.43
630.54	2920.40
630.73	2850.77
630.92	3063.76
631.11	2764.76
631.30	2922.45
631.49	3125.20
631.68	2957.27
631.87	2893.78
632.06	2752.47
632.25	3370.96
632.44	2973.65
632.63	2891.73
632.82	2836.44
633.01	2805.72
633.20	3033.04
633.39	2920.40
633.58	2650.07
633.77	3008.47
633.96	3133.39
634.15	2994.13
634.34	2944.98
634.53	3090.38
634.72	2877.40
634.91	2688.98
635.10	2879.44
635.29	3100.62
635.48	2932.69
635.67	2803.67
635.86	2693.08
636.05	3239.89
636.24	2985.94
636.43	2852.82
636.62	2985.94
636.81	2621.40
637.00	3022.80
637.19	2852.82
637.38	2832.34
637.57	2924.50
637.76	2998.23
637.95	2967.51
638.14	2828.24
638.33	2994.13
638.52	2949.08
638.71	2719.70
638.89	2701.27
639.08	3493.83
639.27	3160.02
639.46	2977.75
639.65	3291.09
639.84	3413.96
640.03	3598.28
640.22	3278.80
640.41	3272.65
640.60	3110.86
640.79	3053.52
640.98	2897.88
641.17	3059.67
641.36	3129.30
641.55	3125.20
641.74	2736.09
641.92	2779.09
642.11	2840.53
642.30	2895.83
642.49	2740.18
642.68	2805.72
642.87	3020.75
643.06	3063.76
643.25	2717.65
643.44	2856.92
643.63	2971.60
643.82	3207.12
644.00	2740.18
644.19	2856.92
644.38	2805.72
644.57	3131.34
644.76	2893.78
644.95	2871.25
645.14	3018.71
645.33	2981.84
645.52	2873.30
645.71	2688.98
645.89	2834.39
646.08	2920.40
646.27	2883.54
646.46	3078.10
646.65	2805.72
646.84	3020.75
647.03	2781.14
647.22	3000.27
647.40	3018.71
647.59	2985.94
647.78	2648.02
647.97	2848.72
648.16	2897.88
648.35	3223.50
648.54	3053.52
648.73	2840.53
648.91	3106.77
649.10	2963.41
649.29	2824.15
649.48	2785.24
649.67	3033.04
649.86	2994.13
650.05	2863.06
650.23	3020.75
650.42	2820.05
650.61	3213.26
650.80	3045.33
650.99	3213.26
651.18	3157.97
651.36	3221.45
651.55	2797.53
651.74	3026.90
651.93	2961.36
652.12	2996.18
652.31	2924.50
652.49	2918.36
652.68	2865.11
652.87	3198.93
653.06	2940.88
653.25	3096.53
653.44	2963.41
653.62	3223.50
653.81	2942.93
654.00	2805.72
654.19	3135.44
654.38	3358.67
654.56	2920.40
654.75	2910.16
654.94	3180.50
655.13	3000.27
655.32	2805.72
655.51	2975.70
655.69	2934.74
655.88	3155.92
656.07	2666.46
656.26	2897.88
656.45	2764.76
656.63	2961.36
656.82	2908.12
657.01	3155.92
657.20	2865.11
657.38	3262.41
657.57	2834.39
657.76	2725.85
657.95	3104.72
658.14	2973.65
658.32	3004.37
658.51	2699.22
658.70	3002.32
658.89	3063.76
659.08	2959.31
659.26	3043.28
659.45	2795.48
659.64	3153.87
659.83	2820.05
660.01	3215.31
660.20	3035.09
660.39	3307.47
660.58	2615.26
660.76	2908.12
660.95	2723.80
661.14	2971.60
661.33	2645.98
661.51	2844.63
661.70	2981.84
661.89	3131.34
662.08	2830.29
662.26	2742.23
662.45	2813.91
662.64	3205.07
662.83	2924.50
663.01	2672.60
663.20	2815.96
663.39	3182.54
663.58	2887.64
663.76	2770.90
663.95	3143.63
664.14	2781.14
664.32	2871.25
664.51	2760.66
664.70	2727.89
664.89	3010.51
665.07	2660.31
665.26	3028.95
665.45	2779.09
665.64	3084.24
665.82	2861.01
666.01	3006.42
666.20	2781.14
666.38	3227.60
666.57	3088.34
666.76	4759.48
666.95	10934.11
667.13	17696.50
667.32	21903.03
667.51	24397.45
667.69	25282.17
667.88	21200.57
668.07	15529.75
668.25	12891.96
668.44	11257.68
668.63	9768.81
668.81	8515.45
669.00	7524.24
669.19	6778.78
669.38	6016.93
669.56	5095.35
669.75	4392.89
669.94	3968.96
670.12	3418.06
670.31	3086.29
670.50	3119.06
670.68	3123.15
670.87	3147.73
671.06	2904.02
671.24	2906.07
671.43	3266.51
671.62	2996.18
671.80	2822.10
671.99	2922.45
672.18	3000.27
672.36	3090.38
672.55	2971.60
672.74	2942.93
672.92	2865.11
673.11	3104.72
673.29	2791.38
673.48	3024.85
673.67	2928.60
673.85	3133.39
674.04	2695.13
674.23	2930.64
674.41	3370.96
674.60	2807.77
674.79	2729.94
674.97	2719.70
675.16	3123.15
675.34	3119.06
675.53	2818.00
675.72	2887.64
675.90	3327.95
676.09	2871.25
676.28	2957.27
676.46	2697.17
676.65	3117.01
676.83	2777.05
677.02	2924.50
677.21	3010.51
677.39	3059.67
677.58	2826.20
677.77	2842.58
677.95	2809.81
678.14	2961.36
678.32	3008.47
678.51	2818.00
678.70	3243.98
678.88	2826.20
679.07	3024.85
679.25	2891.73
679.44	2869.20
679.63	2799.57
679.81	2963.41
680.00	3119.06
680.18	2967.51
680.37	3209.17
680.55	3014.61
680.74	2723.80
680.93	2678.74
681.11	3119.06
681.30	2979.79
681.48	2844.63
681.67	2908.12
681.85	2926.55
682.04	2828.24
682.23	2981.84
682.41	3006.42
682.60	3002.32
682.78	2889.68
682.97	2734.04
683.15	2955.22
683.34	3028.95
683.53	3307.47
683.71	2762.71
683.90	2949.08
684.08	3293.13
684.27	2842.58
684.45	2930.64
684.64	3033.04
684.82	2992.08
685.01	3080.14
685.19	2865.11
685.38	3149.78
685.57	2979.79
685.75	2854.87
685.94	2785.24
686.12	2727.89
686.31	2887.64
686.49	3303.37
686.68	2699.22
686.86	2908.12
687.05	2891.73
687.23	3239.89
687.42	2863.06
687.60	2680.79
687.79	3117.01
687.97	3213.26
688.16	3033.04
688.34	3082.19
688.53	2754.52
688.71	3092.43
688.90	3082.19
689.08	2856.92
689.27	2766.81
689.45	3117.01
689.64	2895.83
689.82	2967.51
690.01	3006.42
690.19	3074.00
690.38	2975.70
690.56	3004.37
690.75	2844.63
690.93	2908.12
691.12	2871.25
691.30	2990.03
691.49	2947.03
691.67	3026.90
691.86	3231.69
692.04	2795.48
692.23	2883.54
692.41	2863.06
692.60	3198.93
692.78	3043.28
692.97	3020.75
693.15	3098.58
693.34	3147.73
693.52	3037.14
693.71	2789.33
693.89	2891.73
694.08	2709.46
694.26	2965.46
694.44	3067.86
694.63	3026.90
694.81	2824.15
695.00	2856.92
695.18	3117.01
695.37	3401.68
695.55	2942.93
695.74	2918.36
695.92	2887.64
696.10	3182.54
696.29	2699.22
696.47	2838.48
696.66	2754.52
696.84	2795.48
697.03	2936.79
697.21	3180.50
697.40	4470.72
697.58	3262.41
697.76	2822.10
697.95	2828.24
698.13	2815.96
698.32	3026.90
698.50	2877.40
698.68	2869.20
698.87	3092.43
699.05	3338.19
699.24	2912.21
699.42	2822.10
699.61	3008.47
699.79	2910.16
699.97	2910.16
700.16	2762.71
700.34	2822.10
700.53	2992.08
700.71	3119.06
700.89	2971.60
701.08	2953.17
701.26	2936.79
701.45	3270.61
701.63	2766.81
701.81	2940.88
702.00	2838.48
702.18	2879.44
702.37	2850.77
702.55	3268.56
702.73	3061.71
702.92	2906.07
703.10	3129.30
703.28	3041.23
703.47	2877.40
703.65	3106.77
703.84	2934.74
704.02	2901.97
704.20	3254.22
704.39	2881.49
704.57	2910.16
704.75	3229.65
704.94	3098.58
705.12	2957.27
705.30	3461.07
705.49	6760.34
705.67	13031.23
705.86	18523.88
706.04	20956.86
706.22	22941.35
706.41	22296.24
706.59	17168.12
706.77	13154.10
706.96	11464.53
707.14	10415.97
707.32	8963.96
707.51	7976.84
707.69	6582.17
707.87	5418.93
708.06	4571.07
708.24	3975.11
708.42	3573.71
708.61	3749.83
708.79	3004.37
708.97	2949.08
709.16	3194.83
709.34	3010.51
709.52	2985.94
709.71	2846.68
709.89	3182.54
710.07	2799.57
710.26	2768.85
710.44	2951.12
710.62	3174.35
710.80	3059.67
710.99	2938.84
711.17	2994.13
711.35	2832.34
711.54	2879.44
711.72	2985.94
711.90	2912.21
712.09	3043.28
712.27	2916.31
712.45	3014.61
712.63	2869.20
712.82	3063.76
713.00	2987.99
713.18	3006.42
713.37	2957.27
713.55	3057.62
713.73	2959.31
713.91	2914.26
714.10	2891.73
714.28	2938.84
714.46	3020.75
714.65	2940.88
714.83	2938.84
715.01	2967.51
715.19	2990.03
715.38	2760.66
715.56	2926.55
715.74	2867.16
715.92	2893.78
716.11	3166.16
716.29	2666.46
716.47	2926.55
716.65	2881.49
716.84	2705.37
717.02	2987.99
717.20	2703.32
717.38	2785.24
717.57	2990.03
717.75	2924.50
717.93	2838.48
718.11	3186.64
718.30	2719.70
718.48	2938.84
718.66	3174.35
718.84	3092.43
719.03	2881.49
719.21	2709.46
719.39	3321.81
719.57	3110.86
719.75	2932.69
719.94	2752.47
720.12	2969.55
720.30	3018.71
720.48	3000.27
720.67	2897.88
720.85	2883.54
721.03	2942.93
721.21	2674.65
721.39	3045.33
721.58	3125.20
721.76	2992.08
721.94	2973.65
722.12	2930.64
722.30	3233.74
722.49	2957.27
722.67	2875.35
722.85	2944.98
723.03	2729.94
723.21	2934.74
723.40	2852.82
723.58	3028.95
723.76	3071.95
723.94	3160.02
724.12	2914.26
724.30	3094.48
724.49	3162.06
724.67	2779.09
724.85	3049.43
725.03	2719.70
725.21	3096.53
725.40	3188.69
725.58	2928.60
725.76	2969.55
725.94	3102.67
726.12	2840.53
726.30	2908.12
726.49	2848.72
726.67	2932.69
726.85	3051.47
727.03	3426.25
727.21	4321.21
727.39	5656.49
727.57	6016.93
727.76	6256.54
727.94	6231.97
728.12	5560.24
728.30	4800.44
728.48	4497.34
728.66	4108.23
728.84	3979.20
729.03	3618.76
729.21	3424.20
729.39	3170.26
729.57	3035.09
729.75	3033.04
729.93	2959.31
730.11	2840.53
730.30	2893.78
730.48	2973.65
730.66	3024.85
730.84	2932.69
731.02	3049.43
731.20	2842.58
731.38	2852.82
731.56	2809.81
731.74	2842.58
731.93	3006.42
732.11	3004.37
732.29	2879.44
732.47	3030.99
732.65	3065.81
732.83	3078.10
733.01	2910.16
733.19	2934.74
733.37	3018.71
733.56	2983.89
733.74	2795.48
733.92	3221.45
734.10	2908.12
734.28	3024.85
734.46	2660.31
734.64	2957.27
734.82	2861.01
735.00	2875.35
735.18	2844.63
735.36	3010.51
735.54	2947.03
735.73	2803.67
735.91	2965.46
736.09	3256.27
736.27	3010.51
736.45	2990.03
736.63	2568.15
736.81	2947.03
736.99	3157.97
737.17	3047.38
737.35	2731.99
737.53	3018.71
737.71	2850.77
737.89	3090.38
738.07	2738.13
738.25	2924.50
738.43	2713.56
738.61	2848.72
738.80	2754.52
738.98	2775.00
739.16	2861.01
739.34	2803.67
739.52	3061.71
739.70	2979.79
739.88	3129.30
740.06	2901.97
740.24	2590.68
740.42	3213.26
740.60	2672.60
740.78	2842.58
740.96	2754.52
741.14	2871.25
741.32	3020.75
741.50	2717.65
741.68	3100.62
741.86	3135.44
742.04	2779.09
742.22	2725.85
742.40	2848.72
742.58	3061.71
742.76	2811.86
742.94	3057.62
743.12	2762.71
743.30	3012.56
743.48	3043.28
743.66	2758.61
743.84	2996.18
744.02	2963.41
744.20	2942.93
744.38	2795.48
744.56	2789.33
744.74	3350.48
744.92	3051.47
745.10	3098.58
745.28	2973.65
745.46	3235.79
745.64	2965.46
745.82	3000.27
746.00	2858.96
746.18	3026.90
746.36	2807.77
746.54	2932.69
746.72	2856.92
746.90	2861.01
747.08	3153.87
747.26	2815.96
747.44	3057.62
747.62	3069.91
747.80	3078.10
747.98	2992.08
748.15	2822.10
748.33	3299.28
748.51	3024.85
748.69	2942.93
748.87	2686.94
749.05	2893.78
749.23	2983.89
749.41	2942.93
749.59	2885.59
749.77	3114.96
749.95	2844.63
750.13	2781.14
750.31	3012.56
750.49	2889.68
750.67	3133.39
750.85	3094.48
751.03	2858.96
751.20	3377.10
751.38	2990.03
751.56	2883.54
751.74	2918.36
751.92	2957.27
752.10	2766.81
752.28	3123.15
752.46	2772.95
752.64	2961.36
752.82	3045.33
753.00	3002.32
753.18	2799.57
753.35	2908.12
753.53	2883.54
753.71	2811.86
753.89	2983.89
754.07	2977.75
754.25	3127.25
754.43	2961.36
754.61	2738.13
754.79	3065.81
754.97	2996.18
755.14	3008.47
755.32	2750.42
755.50	2996.18
755.68	3030.99
755.86	2721.75
756.04	2807.77
756.22	2684.89
756.40	3164.11
756.57	3063.76
756.75	2811.86
756.93	3170.26
757.11	3133.39
757.29	2824.15
757.47	2826.20
757.65	2783.19
757.82	2658.26
758.00	2768.85
758.18	2824.15
758.36	2834.39
758.54	3243.98
758.72	2738.13
758.90	3022.80
759.07	3084.24
759.25	2764.76
759.43	2951.12
759.61	2746.33
759.79	4224.96
759.97	3082.19
760.15	2908.12
760.32	2793.43
760.50	3022.80
760.68	3213.26
760.86	2629.59
761.04	3024.85
761.22	3061.71
761.39	3000.27
761.57	3024.85
761.75	2885.59
761.93	3168.21
762.11	2936.79
762.28	2961.36
762.46	2770.90
762.64	3117.01
762.82	2750.42
763.00	2791.38
763.18	3047.38
763.35	2861.01
763.53	3112.91
763.71	2916.31
763.89	2895.83
764.07	3037.14
764.24	2994.13
764.42	3028.95
764.60	2893.78
764.78	3012.56
764.96	3076.05
765.13	2981.84
765.31	2787.29
765.49	3114.96
765.67	2781.14
765.84	2789.33
766.02	2789.33
766.20	2705.37
766.38	3041.23
766.56	2979.79
766.73	3006.42
766.91	3018.71
767.09	2994.13
767.27	2963.41
767.44	2705.37
767.62	3102.67
767.80	3033.04
767.98	2881.49
768.15	2854.87
768.33	3182.54
768.51	3114.96
768.69	2942.93
768.87	2895.83
769.04	2973.65
769.22	3436.49
769.40	3065.81
769.58	3022.80
769.75	3067.86
769.93	3188.69
770.11	2979.79
770.28	2709.46
770.46	3082.19
770.64	2969.55
770.82	2895.83
770.99	2836.44
771.17	3155.92
771.35	2887.64
771.53	2879.44
771.70	2818.00
771.88	3004.37
772.06	2942.93
772.23	2772.95
772.41	2883.54
772.59	2908.12
772.77	2873.30
772.94	2893.78
773.12	2959.31
773.30	2947.03
773.47	3000.27
773.65	2865.11
773.83	3018.71
774.01	2947.03
774.18	2680.79
774.36	2742.23
774.54	2734.04
774.71	3002.32
774.89	2783.19
775.07	2777.05
775.24	2883.54
775.42	2844.63
775.60	3254.22
775.78	2768.85
775.95	2684.89
776.13	2672.60
776.31	2713.56
776.48	2930.64
776.66	3057.62
776.84	2922.45
777.01	2867.16
777.19	2809.81
777.37	2846.68
777.54	3030.99
777.72	3315.66
777.90	2979.79
778.07	2848.72
778.25	3542.99
778.43	3117.01
778.60	2793.43
778.78	2871.25
778.96	3209.17
779.13	2734.04
779.31	2979.79
779.49	2887.64
779.66	2930.64
779.84	2840.53
780.01	2844.63
780.19	2787.29
780.37	3121.10
780.54	3020.75
780.72	2764.76
780.90	2889.68
781.07	2953.17
781.25	2861.01
781.43	3043.28
781.60	2848.72
781.78	3196.88
781.95	3096.53
782.13	2832.34
782.31	2834.39
782.48	2605.02
782.66	2901.97
782.83	3147.73
783.01	2987.99
783.19	3100.62
783.36	2934.74
783.54	2779.09
783.72	3014.61
783.89	2869.20
784.07	2959.31
784.24	2912.21
784.42	2994.13
784.60	3030.99
784.77	2963.41
784.95	2576.34
785.12	2936.79
785.30	2949.08
785.47	2871.25
785.65	2748.37
785.83	2818.00
786.00	2858.96
786.18	2961.36
786.35	2731.99
786.53	2764.76
786.71	3129.30
786.88	3117.01
787.06	2955.22
787.23	2924.50
787.41	2783.19
787.58	2971.60
787.76	2770.90
787.94	2938.84
788.11	2969.55
788.29	2787.29
788.46	2842.58
788.64	2602.97
788.81	2947.03
788.99	2795.48
789.16	2832.34
789.34	2785.24
789.52	2930.64
789.69	2877.40
789.87	2674.65
790.04	2791.38
790.22	2985.94
790.39	3315.66
790.57	2783.19
790.74	2744.28
790.92	3164.11
791.09	2658.26
791.27	2979.79
791.44	2985.94
791.62	2969.55
791.79	3108.82
791.97	2820.05
792.15	3155.92
792.32	3030.99
792.50	3127.25
792.67	3069.91
792.85	3160.02
793.02	3028.95
793.20	2942.93
793.37	2801.62
793.55	2820.05
793.72	2744.28
793.90	3139.54
794.07	2746.33
794.25	2840.53
794.42	2990.03
794.60	2938.84
794.77	2932.69
794.95	2994.13
795.12	3147.73
795.30	2985.94
795.47	2619.35
795.65	3223.50
795.82	3037.14
796.00	2836.44
796.17	2889.68
796.34	2809.81
796.52	3006.42
796.69	3125.20
796.87	2985.94
797.04	2926.55
797.22	3108.82
797.39	2994.13
797.57	3041.23
797.74	2916.31
797.92	3026.90
798.09	2848.72
798.27	3104.72
798.44	2852.82
798.62	2914.26
798.79	2967.51
798.96	2912.21
799.14	2908.12
799.31	3370.96
799.49	2922.45
799.66	2795.48
799.84	2813.91
800.01	2746.33
800.19	3018.71
800.36	2760.66
800.53	2920.40
800.71	3143.63
800.88	3233.74
801.06	2762.71
801.23	2852.82
801.41	2889.68
801.58	2799.57
801.75	2775.00
801.93	2863.06
802.10	3049.43
802.28	2916.31
802.45	2875.35
802.63	3002.32
802.80	3147.73
802.97	2818.00
803.15	2871.25
803.32	2793.43
803.50	2865.11
803.67	2813.91
803.84	2762.71
804.02	2906.07
804.19	2914.26
804.37	2605.02
804.54	2662.36
804.71	2832.34
804.89	3018.71
805.06	2865.11
805.24	2844.63
805.41	2740.18
805.58	2797.53
805.76	3395.53
805.93	2944.98
806.10	3033.04
806.28	3065.81
806.45	2928.60
806.63	2992.08
806.80	2908.12
806.97	2973.65
807.15	2959.31
807.32	2912.21
807.49	2877.40
807.67	2762.71
807.84	3094.48
808.01	2742.23
808.19	3071.95
808.36	3379.15
808.54	2869.20
808.71	2785.24
808.88	2861.01
809.06	3141.58
809.23	3237.84
809.40	2850.77
809.58	2858.96
809.75	2990.03
809.92	2764.76
810.10	3078.10
810.27	2922.45
810.44	2983.89
810.62	3112.91
810.79	2881.49
810.96	2772.95
811.14	2842.58
811.31	3037.14
811.48	2965.46
811.66	2949.08
811.83	3203.02
812.00	3078.10
812.18	2965.46
812.35	3190.74
812.52	2920.40
812.69	2936.79
812.87	2887.64
813.04	2721.75
813.21	2918.36
813.39	2899.92
813.56	2779.09
813.73	3090.38
813.91	2772.95
814.08	2932.69
814.25	2846.68
814.42	2682.84
814.60	3008.47
814.77	2985.94
814.94	2865.11
815.12	2961.36
815.29	3235.79
815.46	2856.92
815.63	2893.78
815.81	2822.10
815.98	2973.65
816.15	2869.20
816.33	2934.74
816.50	2834.39
816.67	2965.46
816.84	2932.69
817.02	2725.85
817.19	2783.19
817.36	2963.41
817.53	3012.56
817.71	2785.24
817.88	2891.73
818.05	2924.50
818.22	2934.74
818.40	3033.04
818.57	2856.92
818.74	3067.86
818.91	2983.89
819.09	2971.60
819.26	3084.24
819.43	2932.69
819.60	2930.64
819.78	3071.95
819.95	2936.79
820.12	2805.72
820.29	3272.65
820.47	3106.77
820.64	2826.20
820.81	2779.09
820.98	2842.58
821.15	2789.33
821.33	2899.92
821.50	2772.95
821.67	3004.37
821.84	2838.48
822.02	2963.41
822.19	3100.62
822.36	2904.02
822.53	2832.34
822.70	2758.61
822.88	2883.54
823.05	3254.22
823.22	2971.60
823.39	2936.79
823.56	2944.98
823.74	3209.17
823.91	2797.53
824.08	2793.43
824.25	2772.95
824.42	3213.26
824.60	2766.81
824.77	2871.25
824.94	2908.12
825.11	3026.90
825.28	2709.46
825.45	2953.17
825.63	3059.67
825.80	2744.28
825.97	2969.55
826.14	2967.51
826.31	2701.27
826.48	3114.96
826.66	2754.52
826.83	2879.44
827.00	2932.69
827.17	2772.95
827.34	2877.40
827.51	2805.72
827.69	3047.38
827.86	2699.22
828.03	2885.59
828.20	2899.92
828.37	2899.92
828.54	3086.29
828.71	2789.33
828.89	2961.36
829.06	2955.22
829.23	3291.09
829.40	2822.10
829.57	2867.16
829.74	3112.91
829.91	2844.63
830.09	2750.42
830.26	2901.97
830.43	3219.41
830.60	2949.08
830.77	2951.12
830.94	3088.34
831.11	3151.82
831.28	2836.44
831.46	3030.99
831.63	2893.78
831.80	3155.92
831.97	2852.82
832.14	2801.62
832.31	2934.74
832.48	2930.64
832.65	3145.68
832.82	2936.79
832.99	2953.17
833.17	2805.72
833.34	3157.97
833.51	2856.92
833.68	2684.89
833.85	3121.10
834.02	2828.24
834.19	2727.89
834.36	2809.81
834.53	2973.65
834.70	3125.20
834.87	2920.40
835.04	2650.07
835.22	2826.20
835.39	2863.06
835.56	2691.03
835.73	2748.37
835.90	3074.00
836.07	2799.57
836.24	2912.21
836.41	2762.71
836.58	2822.10
836.75	3143.63
836.92	2711.51
837.09	2674.65
837.26	3127.25
837.43	3041.23
837.60	2742.23
837.77	2768.85
837.94	3088.34
838.12	3123.15
838.29	2686.94
838.46	2645.98
838.63	2832.34
838.80	3252.17
838.97	2858.96
839.14	2770.90
839.31	2996.18
839.48	3053.52
839.65	2738.13
839.82	2758.61
839.99	3047.38
840.16	3043.28
840.33	2625.50
840.50	2670.55
840.67	2856.92
840.84	2541.53
841.01	2639.83
841.18	2686.94
841.35	2926.55
841.52	3133.39
841.69	3045.33
841.86	2781.14
842.03	2920.40
842.20	3074.00
842.37	2772.95
842.54	2738.13
842.71	2967.51
842.88	2852.82
843.05	2697.17
843.22	2705.37
843.39	3074.00
843.56	2815.96
843.73	2711.51
843.90	2820.05
844.07	2887.64
844.24	3024.85
844.41	2834.39
844.58	2789.33
844.75	2944.98
844.92	3016.66
845.09	2842.58
845.26	2719.70
845.43	3100.62
845.60	2875.35
845.77	2910.16
845.94	2838.48
846.10	3160.02
846.27	2703.32
846.44	2613.21
846.61	2660.31
846.78	3094.48
846.95	3067.86
847.12	2701.27
847.29	2828.24
847.46	2793.43
847.63	3184.59
847.80	2641.88
847.97	2736.09
848.14	3319.76
848.31	2895.83
848.48	2619.35
848.65	2748.37
848.82	2928.60
848.98	3407.82
849.15	2863.06
849.32	2906.07
849.49	3157.97
849.66	2983.89
849.83	2705.37
850.00	2660.31
850.17	3098.58
850.34	2904.02
850.51	2727.89
850.68	2844.63
850.85	3334.09
851.01	3020.75
851.18	2731.99
851.35	2779.09
851.52	2979.79
851.69	3248.08
851.86	2721.75
852.03	2676.70
852.20	3049.43
852.37	2891.73
852.53	2551.77
852.70	2664.41
852.87	3006.42
853.04	3207.12
853.21	2686.94
853.38	2959.31
853.55	3112.91
853.72	3198.93
853.89	2631.64
854.05	2643.93
854.22	2895.83
854.39	2838.48
854.56	2723.80
854.73	2854.87
854.90	2854.87
855.07	2953.17
855.23	2701.27
855.40	2670.55
855.57	2912.21
855.74	2643.93
855.91	2918.36
856.08	2598.87
856.25	2709.46
856.41	2846.68
856.58	2717.65
856.75	2783.19
856.92	2871.25
857.09	3155.92
857.26	2605.02
857.42	2656.22
857.59	3055.57
857.76	2885.59
857.93	2719.70
858.10	2772.95
858.27	2680.79
858.43	3059.67
858.60	2750.42
858.77	2586.58
858.94	2906.07
859.11	3094.48
859.27	2752.47
859.44	2721.75
859.61	3307.47
859.78	3069.91
859.95	2752.47
860.12	2611.16
860.28	3430.35
860.45	3291.09
860.62	2654.17
860.79	2854.87
860.95	2942.93
861.12	2772.95
861.29	2623.45
861.46	2705.37
861.63	2918.36
861.79	2975.70
861.96	2605.02
862.13	2658.26
862.30	3190.74
862.47	2844.63
862.63	2627.54
862.80	2785.24
862.97	3049.43
863.14	2926.55
863.30	2824.15
863.47	2639.83
863.64	3332.05
863.81	3030.99
863.97	2621.40
864.14	2783.19
864.31	2893.78
864.48	2992.08
864.65	2664.41
864.81	2881.49
864.98	3055.57
865.15	3196.88
865.32	2856.92
865.48	2826.20
865.65	3166.16
865.82	2936.79
865.98	2815.96
866.15	2805.72
866.32	2967.51
866.49	2869.20
866.65	2873.30
866.82	2731.99
866.99	2852.82
867.16	2840.53
867.32	2670.55
867.49	2621.40
867.66	2963.41
867.83	2897.88
867.99	2625.50
868.16	2701.27
868.33	2848.72
868.49	2938.84
868.66	2699.22
868.83	2809.81
868.99	3000.27
869.16	2957.27
869.33	2908.12
869.50	2770.90
869.66	2994.13
869.83	2949.08
870.00	2559.96
870.16	2897.88
870.33	2949.08
870.50	3074.00
870.66	2846.68
870.83	2783.19
871.00	2967.51
871.17	3088.34
871.33	2748.37
871.50	2736.09
871.67	2934.74
871.83	2752.47
872.00	2861.01
872.17	2834.39
872.33	3229.65
872.50	3205.07
872.67	2705.37
872.83	2748.37
873.00	2959.31
873.17	2985.94
873.33	2744.28
873.50	2785.24
873.67	2807.77
873.83	2820.05
874.00	2772.95
874.16	2992.08
874.33	3053.52
874.50	2731.99
874.66	2635.74
874.83	2832.34
875.00	3088.34
875.16	3231.69
875.33	2779.09
875.50	2557.91
875.66	2891.73
875.83	2963.41
875.99	2805.72
876.16	2904.02
876.33	2842.58
876.49	2904.02
876.66	2811.86
876.83	2740.18
876.99	2670.55
877.16	2904.02
877.32	2731.99
877.49	2781.14
877.66	3127.25
877.82	3219.41
877.99	2813.91
878.15	3041.23
878.32	3094.48
878.49	2996.18
878.65	2783.19
878.82	3049.43
878.98	2861.01
879.15	3090.38
879.32	2883.54
879.48	2836.44
879.65	2875.35
879.81	2883.54
879.98	2752.47
880.15	2789.33
880.31	3067.86
880.48	2815.96
880.64	2871.25
880.81	2891.73
880.97	3280.85
881.14	3180.50
881.31	2705.37
881.47	2918.36
881.64	2953.17
881.80	2705.37
881.97	2938.84
882.13	2744.28
882.30	2758.61
882.47	2877.40
882.63	2754.52
882.80	2746.33
882.96	2854.87
883.13	3209.17
883.29	2713.56
883.46	2688.98
883.62	3354.57
883.79	3039.19
883.95	2869.20
884.12	2627.54
884.29	3133.39
884.45	3055.57
884.62	2719.70
884.78	2697.17
884.95	3170.26
885.11	2799.57
885.28	2844.63
885.44	2781.14
885.61	3092.43
885.77	3049.43
885.94	2865.11
886.10	2805.72
886.27	2912.21
886.43	3246.03
886.60	2996.18
886.76	2772.95
886.93	2832.34
887.09	3028.95
887.26	2674.65
887.42	2861.01
887.59	3127.25
887.75	3282.89
887.92	2926.55
888.08	2846.68
888.25	3215.31
888.41	3125.20
888.58	2777.05
888.74	2686.94
888.91	2867.16
>>>>>End Processed Spectral Data<<<<<
