SpectraSuite Data File
++++++++++++++++++++++++++++++++++++
Date: Thu May 05 21:10:41 CEST 2016
User: root
Dark Spectrum Present: No
Reference Spectrum Present: No
Number of Sampled Component Spectra: 1
Spectrometers: USB4C02835
Integration Time (usec): 100000 (USB4C02835)
Spectra Averaged: 1 (USB4C02835)
Boxcar Smoothing: 0 (USB4C02835)
Correct for Electrical Dark: No (USB4C02835)
Strobe/Lamp Enabled: No (USB4C02835)
Correct for Detector Non-linearity: No (USB4C02835)
Correct for Stray Light: No (USB4C02835)
Number of Pixels in Processed Spectrum: 3648
>>>>>Begin Processed Spectral Data<<<<<
177.47	2140.13
177.69	2140.13
177.91	2140.13
178.13	2136.03
178.36	2136.03
178.58	2799.57
178.80	2912.21
179.02	2723.80
179.24	2719.70
179.46	2635.74
179.68	2637.78
179.90	2947.03
180.13	3045.33
180.35	2500.57
180.57	2660.31
180.79	3059.67
181.01	2983.89
181.23	2650.07
181.45	2805.72
181.67	3039.19
181.90	3112.91
182.12	2688.98
182.34	2578.39
182.56	2998.23
182.78	3061.71
183.00	2670.55
183.22	2637.78
183.44	2684.89
183.66	3508.17
183.89	2838.48
184.11	2715.61
184.33	3110.86
184.55	3104.72
184.77	2703.32
184.99	2699.22
185.21	2889.68
185.43	3360.72
185.65	2729.94
185.87	2625.50
186.10	3358.67
186.32	3356.62
186.54	2777.05
186.76	2764.76
186.98	3071.95
187.20	3010.51
187.42	2725.85
187.64	2645.98
187.86	3000.27
188.08	3180.50
188.30	2600.92
188.52	2760.66
188.75	3239.89
188.97	3305.42
189.19	2699.22
189.41	2684.89
189.63	3055.57
189.85	2957.27
190.07	2572.25
190.29	2598.87
190.51	3096.53
190.73	2731.99
190.95	2869.20
191.17	2746.33
191.39	2701.27
191.61	2949.08
191.84	2693.08
192.06	2877.40
192.28	2772.95
192.50	3567.56
192.72	2820.05
192.94	2701.27
193.16	3209.17
193.38	3039.19
193.60	2633.69
193.82	2762.71
194.04	3178.45
194.26	3057.62
194.48	2715.61
194.70	2658.26
194.92	2940.88
195.14	3063.76
195.36	2613.21
195.58	2686.94
195.80	2873.30
196.02	2852.82
196.24	2598.87
196.46	2775.00
196.69	2916.31
196.91	3375.05
197.13	2699.22
197.35	2707.41
197.57	3184.59
197.79	3074.00
198.01	2725.85
198.23	2662.36
198.45	3155.92
198.67	2752.47
198.89	2578.39
199.11	2768.85
199.33	2813.91
199.55	2641.88
199.77	2672.60
199.99	2779.09
200.21	2955.22
200.43	3016.66
200.65	2578.39
200.87	2531.29
201.09	2963.41
201.31	3008.47
201.53	2688.98
201.75	2676.70
201.97	3022.80
202.19	2969.55
202.41	2754.52
202.63	2834.39
202.85	3164.11
203.07	3030.99
203.29	2738.13
203.51	2625.50
203.73	2818.00
203.95	3508.17
204.17	2645.98
204.39	2803.67
204.61	3051.47
204.83	2815.96
205.05	2830.29
205.27	2727.89
205.49	3362.76
205.71	2953.17
205.93	2564.06
206.15	2648.02
206.37	3010.51
206.59	2979.79
206.81	2539.48
207.03	2611.16
207.25	2768.85
207.47	3155.92
207.69	2678.74
207.91	2944.98
208.13	3262.41
208.34	2863.06
208.56	2635.74
208.78	2695.13
209.00	2981.84
209.22	2877.40
209.44	2701.27
209.66	2660.31
209.88	3006.42
210.10	2949.08
210.32	2678.74
210.54	2754.52
210.76	2979.79
210.98	3123.15
211.20	2531.29
211.42	2805.72
211.64	3170.26
211.86	3012.56
212.08	2740.18
212.30	2709.46
212.52	2944.98
212.74	3049.43
212.96	2912.21
213.17	2834.39
213.39	3106.77
213.61	3272.65
213.83	2717.65
214.05	2654.17
214.27	3200.98
214.49	2805.72
214.71	2602.97
214.93	2783.19
215.15	2918.36
215.37	3100.62
215.59	2580.44
215.81	2746.33
216.03	3203.02
216.24	2930.64
216.46	2666.46
216.68	2705.37
216.90	3211.22
217.12	3137.49
217.34	2656.22
217.56	2887.64
217.78	3260.37
218.00	3010.51
218.22	2713.56
218.44	2783.19
218.66	2985.94
218.87	3344.33
219.09	2781.14
219.31	2693.08
219.53	3039.19
219.75	2881.49
219.97	2756.57
220.19	2674.65
220.41	3012.56
220.63	3366.86
220.85	2740.18
221.06	2734.04
221.28	3178.45
221.50	3039.19
221.72	2639.83
221.94	2559.96
222.16	2971.60
222.38	3147.73
222.60	2756.57
222.82	2772.95
223.03	3147.73
223.25	2793.43
223.47	2688.98
223.69	2910.16
223.91	3192.78
224.13	2951.12
224.35	2586.58
224.57	2901.97
224.78	3080.14
225.00	2854.87
225.22	2789.33
225.44	2609.11
225.66	3117.01
225.88	2944.98
226.10	2811.86
226.32	2721.75
226.53	3225.55
226.75	2944.98
226.97	2670.55
227.19	2756.57
227.41	2930.64
227.63	2881.49
227.85	2566.10
228.06	2613.21
228.28	3057.62
228.50	3180.50
228.72	2551.77
228.94	2691.03
229.16	2652.12
229.37	2852.82
229.59	2625.50
229.81	2920.40
230.03	2885.59
230.25	2818.00
230.47	2574.30
230.69	2617.30
230.90	3092.43
231.12	2897.88
231.34	2682.84
231.56	2789.33
231.78	2838.48
232.00	2940.88
232.21	2744.28
232.43	2643.93
232.65	2576.34
232.87	3004.37
233.09	2512.86
233.30	2596.82
233.52	3157.97
233.74	2899.92
233.96	2625.50
234.18	2822.10
234.40	2908.12
234.61	3379.15
234.83	2576.34
235.05	2664.41
235.27	3377.10
235.49	3309.52
235.70	2596.82
235.92	2781.14
236.14	3069.91
236.36	3483.59
236.58	2562.01
236.79	2861.01
237.01	3020.75
237.23	3033.04
237.45	2834.39
237.67	2795.48
237.88	3078.10
238.10	3336.14
238.32	2617.30
238.54	2559.96
238.76	2963.41
238.97	2858.96
239.19	2596.82
239.41	2783.19
239.63	3209.17
239.85	2947.03
240.06	2705.37
240.28	2623.45
240.50	3248.08
240.72	3010.51
240.93	2633.69
241.15	2805.72
241.37	2965.46
241.59	3262.41
241.81	2688.98
242.02	2748.37
242.24	3121.10
242.46	3133.39
242.68	2551.77
242.89	2586.58
243.11	3246.03
243.33	2940.88
243.55	2643.93
243.76	2643.93
243.98	2838.48
244.20	3014.61
244.42	2650.07
244.64	2664.41
244.85	2856.92
245.07	2805.72
245.29	2648.02
245.51	2721.75
245.72	3086.29
245.94	3112.91
246.16	2740.18
246.38	2719.70
246.59	2895.83
246.81	2852.82
247.03	2656.22
247.24	2582.49
247.46	2891.73
247.68	3037.14
247.90	2574.30
248.11	2697.17
248.33	3061.71
248.55	2922.45
248.77	2740.18
248.98	2850.77
249.20	3315.66
249.42	3104.72
249.64	2664.41
249.85	2650.07
250.07	2811.86
250.29	3051.47
250.50	2707.41
250.72	2588.63
250.94	3084.24
251.16	3303.37
251.37	2629.59
251.59	2750.42
251.81	3051.47
252.02	3311.57
252.24	2652.12
252.46	2836.44
252.68	2846.68
252.89	2844.63
253.11	2490.33
253.33	2797.53
253.54	3205.07
253.76	2781.14
253.98	2717.65
254.20	2703.32
254.41	2772.95
254.63	2934.74
254.85	2582.49
255.06	2742.23
255.28	3076.05
255.50	2944.98
255.71	2684.89
255.93	2537.43
256.15	2992.08
256.36	3000.27
256.58	2553.82
256.80	2635.74
257.02	2928.60
257.23	2891.73
257.45	2738.13
257.67	2781.14
257.88	2836.44
258.10	3088.34
258.32	2691.03
258.53	2764.76
258.75	3133.39
258.97	2901.97
259.18	2572.25
259.40	2627.54
259.62	3280.85
259.83	3188.69
260.05	2779.09
260.27	3487.69
260.48	3149.78
260.70	2754.52
260.92	2664.41
261.13	2693.08
261.35	3028.95
261.57	3104.72
261.78	2584.54
262.00	2596.82
262.22	3059.67
262.43	2836.44
262.65	2744.28
262.86	2701.27
263.08	3377.10
263.30	3026.90
263.51	2629.59
263.73	2580.44
263.95	3225.55
264.16	2861.01
264.38	2568.15
264.60	2588.63
264.81	2895.83
265.03	3162.06
265.25	3061.71
265.46	2623.45
265.68	3162.06
265.89	3160.02
266.11	2500.57
266.33	2654.17
266.54	3166.16
266.76	3028.95
266.98	2736.09
267.19	2889.68
267.41	3176.40
267.62	2975.70
267.84	2531.29
268.06	2697.17
268.27	3061.71
268.49	3176.40
268.70	2795.48
268.92	2742.23
269.14	2772.95
269.35	2725.85
269.57	2762.71
269.79	2750.42
270.00	2918.36
270.22	3319.76
270.43	2545.63
270.65	2516.95
270.87	3100.62
271.08	3125.20
271.30	2764.76
271.51	2707.41
271.73	3090.38
271.95	3164.11
272.16	2648.02
272.38	2848.72
272.59	3012.56
272.81	3047.38
273.02	2625.50
273.24	2725.85
273.46	3188.69
273.67	2785.24
273.89	2543.58
274.10	2607.06
274.32	3196.88
274.54	2973.65
274.75	2713.56
274.97	2809.81
275.18	3168.21
275.40	3030.99
275.61	2770.90
275.83	2779.09
276.05	2832.34
276.26	2885.59
276.48	2805.72
276.69	2846.68
276.91	2916.31
277.12	3274.70
277.34	2877.40
277.55	2994.13
277.77	2940.88
277.99	2938.84
278.20	2777.05
278.42	2672.60
278.63	2877.40
278.85	2869.20
279.06	2711.51
279.28	2957.27
279.49	3200.98
279.71	3051.47
279.93	2785.24
280.14	2811.86
280.36	2795.48
280.57	3184.59
280.79	2910.16
281.00	2674.65
281.22	2865.11
281.43	3172.30
281.65	2645.98
281.86	2684.89
282.08	3041.23
282.29	3319.76
282.51	2725.85
282.73	2656.22
282.94	2797.53
283.16	3084.24
283.37	2953.17
283.59	2758.61
283.80	3030.99
284.02	2967.51
284.23	2832.34
284.45	2846.68
284.66	2953.17
284.88	2854.87
285.09	2746.33
285.31	2832.34
285.52	3059.67
285.74	2781.14
285.95	2959.31
286.17	2844.63
286.38	3157.97
286.60	2895.83
286.81	2799.57
287.03	2785.24
287.24	2942.93
287.46	3082.19
287.67	2887.64
287.89	3014.61
288.10	2973.65
288.32	3059.67
288.53	2969.55
288.75	2844.63
288.96	3123.15
289.18	2887.64
289.39	2797.53
289.61	2869.20
289.82	3350.48
290.04	3289.04
290.25	2641.88
290.47	2797.53
290.68	2930.64
290.90	3108.82
291.11	2650.07
291.33	2869.20
291.54	2811.86
291.76	2951.12
291.97	2944.98
292.18	2873.30
292.40	2932.69
292.61	2865.11
292.83	3074.00
293.04	2826.20
293.26	3084.24
293.47	2901.97
293.69	2734.04
293.90	2742.23
294.12	3164.11
294.33	3012.56
294.55	2861.01
294.76	2981.84
294.97	3219.41
295.19	3352.52
295.40	2873.30
295.62	2854.87
295.83	3172.30
296.05	2850.77
296.26	3000.27
296.48	2813.91
296.69	2951.12
296.90	2977.75
297.12	2963.41
297.33	2996.18
297.55	2928.60
297.76	3127.25
297.98	2793.43
298.19	2940.88
298.41	3039.19
298.62	2840.53
298.83	2994.13
299.05	2873.30
299.26	2949.08
299.48	2781.14
299.69	2865.11
299.90	2734.04
300.12	2830.29
300.33	3135.44
300.55	2824.15
300.76	2856.92
300.98	2746.33
301.19	3014.61
301.40	2830.29
301.62	2736.09
301.83	3039.19
302.05	2926.55
302.26	2820.05
302.47	2889.68
302.69	2768.85
302.90	3065.81
303.12	2617.30
303.33	2928.60
303.54	3334.09
303.76	2916.31
303.97	2801.62
304.19	3024.85
304.40	2721.75
304.61	3041.23
304.83	2934.74
305.04	2889.68
305.26	3059.67
305.47	2877.40
305.68	2818.00
305.90	2676.70
306.11	3180.50
306.33	2953.17
306.54	2619.35
306.75	2789.33
306.97	2787.29
307.18	2897.88
307.39	2813.91
307.61	2906.07
307.82	2938.84
308.04	3078.10
308.25	2705.37
308.46	2912.21
308.68	2975.70
308.89	3055.57
309.10	3002.32
309.32	2897.88
309.53	2996.18
309.74	2985.94
309.96	2727.89
310.17	2908.12
310.39	2936.79
310.60	3127.25
310.81	2822.10
311.03	2758.61
311.24	3084.24
311.45	2912.21
311.67	3065.81
311.88	2893.78
312.09	2959.31
312.31	2799.57
312.52	2795.48
312.73	2822.10
312.95	2781.14
313.16	2793.43
313.37	3020.75
313.59	2967.51
313.80	3112.91
314.01	3252.17
314.23	2752.47
314.44	2746.33
314.65	2777.05
314.87	2783.19
315.08	2725.85
315.29	2787.29
315.51	2879.44
315.72	2666.46
315.93	2830.29
316.15	2904.02
316.36	2844.63
316.57	2957.27
316.79	2883.54
317.00	2760.66
317.21	3100.62
317.43	2820.05
317.64	2830.29
317.85	2731.99
318.07	2883.54
318.28	2916.31
318.49	2934.74
318.70	3051.47
318.92	3033.04
319.13	3018.71
319.34	2979.79
319.56	2781.14
319.77	3131.34
319.98	3217.36
320.20	3000.27
320.41	2930.64
320.62	3145.68
320.83	2754.52
321.05	2977.75
321.26	2836.44
321.47	2990.03
321.69	3235.79
321.90	2660.31
322.11	2682.84
322.32	2940.88
322.54	3217.36
322.75	2836.44
322.96	3536.84
323.18	2684.89
323.39	2678.74
323.60	2643.93
323.81	2901.97
324.03	2848.72
324.24	3018.71
324.45	2852.82
324.66	2723.80
324.88	3164.11
325.09	3160.02
325.30	2777.05
325.52	2750.42
325.73	3033.04
325.94	2764.76
326.15	2615.26
326.37	2686.94
326.58	3137.49
326.79	3264.46
327.00	2686.94
327.22	2727.89
327.43	2924.50
327.64	2764.76
327.85	2922.45
328.07	2940.88
328.28	3250.13
328.49	2836.44
328.70	2840.53
328.92	2822.10
329.13	2924.50
329.34	3022.80
329.55	3016.66
329.76	2930.64
329.98	2977.75
330.19	3137.49
330.40	2885.59
330.61	2912.21
330.83	3149.78
331.04	2787.29
331.25	2899.92
331.46	2781.14
331.68	2713.56
331.89	3153.87
332.10	2883.54
332.31	2643.93
332.52	2926.55
332.74	3223.50
332.95	2619.35
333.16	2777.05
333.37	3166.16
333.58	2838.48
333.80	2811.86
334.01	2594.78
334.22	3000.27
334.43	2949.08
334.64	2764.76
334.86	2738.13
335.07	2803.67
335.28	3198.93
335.49	2729.94
335.70	2826.20
335.92	3137.49
336.13	3332.05
336.34	2891.73
336.55	2887.64
336.76	3053.52
336.98	2676.70
337.19	2809.81
337.40	2879.44
337.61	3520.46
337.82	2904.02
338.04	2947.03
338.25	2623.45
338.46	2985.94
338.67	2957.27
338.88	2666.46
339.09	2695.13
339.31	2934.74
339.52	2781.14
339.73	2760.66
339.94	2928.60
340.15	3010.51
340.36	2762.71
340.58	2863.06
340.79	2740.18
341.00	3078.10
341.21	2717.65
341.42	3065.81
341.63	2785.24
341.85	3155.92
342.06	3024.85
342.27	2752.47
342.48	2975.70
342.69	2754.52
342.90	3006.42
343.12	3057.62
343.33	2736.09
343.54	3153.87
343.75	3239.89
343.96	2858.96
344.17	2793.43
344.38	3018.71
344.60	2852.82
344.81	2697.17
345.02	2865.11
345.23	3092.43
345.44	3344.33
345.65	2799.57
345.86	2850.77
346.07	3094.48
346.29	2938.84
346.50	2932.69
346.71	2895.83
346.92	3174.35
347.13	3317.71
347.34	2846.68
347.55	2738.13
347.76	3030.99
347.98	2723.80
348.19	2881.49
348.40	3078.10
348.61	2955.22
348.82	3260.37
349.03	2856.92
349.24	2748.37
349.45	3313.61
349.66	2652.12
349.88	2758.61
350.09	2686.94
350.30	3227.60
350.51	3198.93
350.72	2932.69
350.93	2770.90
351.14	2869.20
351.35	3082.19
351.56	2869.20
351.77	2836.44
351.99	3082.19
352.20	3166.16
352.41	2914.26
352.62	2551.77
352.83	2983.89
353.04	2992.08
353.25	2781.14
353.46	2805.72
353.67	3123.15
353.88	2699.22
354.09	2705.37
354.30	2795.48
354.52	3028.95
354.73	2875.35
354.94	2834.39
355.15	2840.53
355.36	3356.62
355.57	2897.88
355.78	2754.52
355.99	2701.27
356.20	2959.31
356.41	3215.31
356.62	2850.77
356.83	2811.86
357.04	3213.26
357.25	2754.52
357.46	2740.18
357.68	2631.64
357.89	2879.44
358.10	3039.19
358.31	2795.48
358.52	2707.41
358.73	2723.80
358.94	2799.57
359.15	2840.53
359.36	2775.00
359.57	3030.99
359.78	2920.40
359.99	2934.74
360.20	2664.41
360.41	3016.66
360.62	3207.12
360.83	2883.54
361.04	2852.82
361.25	3014.61
361.46	3213.26
361.67	2959.31
361.88	2885.59
362.09	3084.24
362.30	3037.14
362.51	2738.13
362.72	2875.35
362.93	3151.82
363.14	3084.24
363.35	2934.74
363.56	2709.46
363.78	3084.24
363.99	3057.62
364.20	2740.18
364.41	2830.29
364.62	3325.90
364.83	3045.33
365.04	2850.77
365.25	2813.91
365.46	3387.34
365.67	2828.24
365.88	2910.16
366.09	2781.14
366.30	2940.88
366.51	2924.50
366.72	2742.23
366.93	2783.19
367.14	3006.42
367.35	3254.22
367.56	2750.42
367.77	2850.77
367.98	2930.64
368.18	3012.56
368.39	2920.40
368.60	2705.37
368.81	3102.67
369.02	3147.73
369.23	2850.77
369.44	2693.08
369.65	2881.49
369.86	3045.33
370.07	2953.17
370.28	2684.89
370.49	3057.62
370.70	2967.51
370.91	2738.13
371.12	2709.46
371.33	3157.97
371.54	2881.49
371.75	3016.66
371.96	2564.06
372.17	3049.43
372.38	2942.93
372.59	2797.53
372.80	2713.56
373.01	2965.46
373.22	3067.86
373.43	2822.10
373.64	2684.89
373.85	3223.50
374.06	3266.51
374.26	2994.13
374.47	2822.10
374.68	3282.89
374.89	3051.47
375.10	2850.77
375.31	2893.78
375.52	2992.08
375.73	3008.47
375.94	2729.94
376.15	2955.22
376.36	2912.21
376.57	2916.31
376.78	2834.39
376.99	2869.20
377.20	3200.98
377.40	2858.96
377.61	3108.82
377.82	2746.33
378.03	3219.41
378.24	3041.23
378.45	2889.68
378.66	2928.60
378.87	2715.61
379.08	2744.28
379.29	2805.72
379.50	3006.42
379.71	3018.71
379.91	3174.35
380.12	2779.09
380.33	2957.27
380.54	2932.69
380.75	2947.03
380.96	2779.09
381.17	2818.00
381.38	3028.95
381.59	3012.56
381.80	2840.53
382.00	3039.19
382.21	3049.43
382.42	3295.18
382.63	3125.20
382.84	3016.66
383.05	3137.49
383.26	3215.31
383.47	2924.50
383.68	2809.81
383.88	3129.30
384.09	3026.90
384.30	3051.47
384.51	2922.45
384.72	2893.78
384.93	2738.13
385.14	2889.68
385.35	3041.23
385.55	2815.96
385.76	3223.50
385.97	2875.35
386.18	2738.13
386.39	2779.09
386.60	2914.26
386.81	2748.37
387.02	2688.98
387.22	2764.76
387.43	3082.19
387.64	2992.08
387.85	3028.95
388.06	3059.67
388.27	4030.40
388.48	7307.15
388.68	10762.08
388.89	13238.07
389.10	14534.43
389.31	14063.40
389.52	11269.97
389.73	9623.41
389.93	8744.83
390.14	7896.97
390.35	7276.43
390.56	6793.11
390.77	5572.52
390.98	4263.87
391.18	3680.20
391.39	3461.07
391.60	3026.90
391.81	2992.08
392.02	2820.05
392.23	3356.62
392.43	3074.00
392.64	2955.22
392.85	2957.27
393.06	3235.79
393.27	2914.26
393.47	2727.89
393.68	2881.49
393.89	2863.06
394.10	3239.89
394.31	2783.19
394.52	2770.90
394.72	2811.86
394.93	3233.74
395.14	2715.61
395.35	2842.58
395.56	2918.36
395.76	3030.99
395.97	2746.33
396.18	2936.79
396.39	3084.24
396.60	3655.62
396.80	3092.43
397.01	2987.99
397.22	3223.50
397.43	3145.68
397.64	2856.92
397.84	2916.31
398.05	3332.05
398.26	2981.84
398.47	2975.70
398.67	3067.86
398.88	3018.71
399.09	3076.05
399.30	2768.85
399.51	2904.02
399.71	2856.92
399.92	2887.64
400.13	2922.45
400.34	2770.90
400.54	3030.99
400.75	3368.91
400.96	2936.79
401.17	3205.07
401.37	2990.03
401.58	3067.86
401.79	2852.82
402.00	2934.74
402.21	3491.79
402.41	3117.01
402.62	3084.24
402.83	3223.50
403.04	3411.92
403.24	3575.75
403.45	2846.68
403.66	3194.83
403.87	3162.06
404.07	3291.09
404.28	3063.76
404.49	3082.19
404.70	3063.76
404.90	3151.82
405.11	2897.88
405.32	2967.51
405.52	2875.35
405.73	2928.60
405.94	2791.38
406.15	2916.31
406.35	3102.67
406.56	3108.82
406.77	2832.34
406.98	2809.81
407.18	2873.30
407.39	3229.65
407.60	2836.44
407.80	2906.07
408.01	2820.05
408.22	2994.13
408.43	2772.95
408.63	2934.74
408.84	3100.62
409.05	3127.25
409.25	2713.56
409.46	2846.68
409.67	2901.97
409.88	2906.07
410.08	2840.53
410.29	2789.33
410.50	3176.40
410.70	3119.06
410.91	2799.57
411.12	2854.87
411.32	2983.89
411.53	2852.82
411.74	2856.92
411.95	2899.92
412.15	3108.82
412.36	3086.29
412.57	2938.84
412.77	2975.70
412.98	2963.41
413.19	2914.26
413.39	2990.03
413.60	2940.88
413.81	3186.64
414.01	2881.49
414.22	2838.48
414.43	2979.79
414.63	2961.36
414.84	3203.02
415.05	2830.29
415.25	2703.32
415.46	3129.30
415.67	2869.20
415.87	2883.54
416.08	2848.72
416.29	2987.99
416.49	3008.47
416.70	2801.62
416.91	2799.57
417.11	2920.40
417.32	3170.26
417.53	2914.26
417.73	2953.17
417.94	2936.79
418.15	2994.13
418.35	2924.50
418.56	2852.82
418.77	3389.39
418.97	3028.95
419.18	2881.49
419.38	2592.73
419.59	3026.90
419.80	3268.56
420.00	2791.38
420.21	2889.68
420.42	3172.30
420.62	3080.14
420.83	2822.10
421.04	2858.96
421.24	2942.93
421.45	3098.58
421.65	2856.92
421.86	2906.07
422.07	3147.73
422.27	3102.67
422.48	2797.53
422.69	2703.32
422.89	2961.36
423.10	3035.09
423.30	2783.19
423.51	2889.68
423.72	3057.62
423.92	3129.30
424.13	2705.37
424.33	2881.49
424.54	3088.34
424.75	3008.47
424.95	3114.96
425.16	2889.68
425.36	2985.94
425.57	3143.63
425.78	2856.92
425.98	2979.79
426.19	2893.78
426.39	2877.40
426.60	2840.53
426.81	2936.79
427.01	3008.47
427.22	2832.34
427.42	2717.65
427.63	2791.38
427.83	3151.82
428.04	3313.61
428.25	2924.50
428.45	2908.12
428.66	3135.44
428.86	2938.84
429.07	2840.53
429.28	2805.72
429.48	2961.36
429.69	2760.66
429.89	2813.91
430.10	2756.57
430.30	3137.49
430.51	3119.06
430.71	2756.57
430.92	2897.88
431.13	2836.44
431.33	3092.43
431.54	2924.50
431.74	3000.27
431.95	3387.34
432.15	2924.50
432.36	2844.63
432.56	2850.77
432.77	3377.10
432.98	3207.12
433.18	2885.59
433.39	2734.04
433.59	3012.56
433.80	3270.61
434.00	3057.62
434.21	2854.87
434.41	2820.05
434.62	3360.72
434.82	2693.08
435.03	2795.48
435.23	3022.80
435.44	2662.36
435.64	2813.91
435.85	2914.26
436.06	3092.43
436.26	3098.58
436.47	2893.78
436.67	2803.67
436.88	3033.04
437.08	3176.40
437.29	2975.70
437.49	2910.16
437.70	3217.36
437.90	2994.13
438.11	3030.99
438.31	2953.17
438.52	3157.97
438.72	3170.26
438.93	3145.68
439.13	2947.03
439.34	3063.76
439.54	2897.88
439.75	3014.61
439.95	2906.07
440.16	2836.44
440.36	3020.75
440.57	2920.40
440.77	2836.44
440.98	2994.13
441.18	3041.23
441.39	2783.19
441.59	2820.05
441.80	3399.63
442.00	2985.94
442.21	2985.94
442.41	2762.71
442.62	3196.88
442.82	2924.50
443.02	2901.97
443.23	2828.24
443.43	2996.18
443.64	3239.89
443.84	2807.77
444.05	2944.98
444.25	2998.23
444.46	2973.65
444.66	2832.34
444.87	3117.01
445.07	2729.94
445.28	2965.46
445.48	3016.66
445.69	2918.36
445.89	3373.00
446.09	2977.75
446.30	3135.44
446.50	3196.88
446.71	4695.99
446.91	5842.85
447.12	6676.38
447.32	6926.23
447.53	6774.68
447.73	5728.17
447.93	5011.38
448.14	4712.38
448.34	4886.45
448.55	4116.42
448.75	4081.60
448.96	3846.09
449.16	3569.61
449.36	3565.51
449.57	3090.38
449.77	2918.36
449.98	2963.41
450.18	3092.43
450.39	2766.81
450.59	3041.23
450.79	3045.33
451.00	2865.11
451.20	2983.89
451.41	2818.00
451.61	3065.81
451.81	2955.22
452.02	2824.15
452.22	2854.87
452.43	2959.31
452.63	2893.78
452.84	2934.74
453.04	2822.10
453.24	2992.08
453.45	2834.39
453.65	2908.12
453.86	2875.35
454.06	3147.73
454.26	2893.78
454.47	2838.48
454.67	3080.14
454.87	3018.71
455.08	2944.98
455.28	3030.99
455.49	2965.46
455.69	2779.09
455.89	3366.86
456.10	3028.95
456.30	2838.48
456.51	3139.54
456.71	2944.98
456.91	3010.51
457.12	2887.64
457.32	3028.95
457.52	2807.77
457.73	2987.99
457.93	3033.04
458.14	2979.79
458.34	2682.84
458.54	2928.60
458.75	2740.18
458.95	3184.59
459.15	3041.23
459.36	2904.02
459.56	2975.70
459.76	3407.82
459.97	2971.60
460.17	2867.16
460.37	2928.60
460.58	2938.84
460.78	3123.15
460.99	2820.05
461.19	2858.96
461.39	2912.21
461.60	2981.84
461.80	2910.16
462.00	2756.57
462.21	3004.37
462.41	2832.34
462.61	2682.84
462.82	2650.07
463.02	3080.14
463.22	2983.89
463.43	2955.22
463.63	2838.48
463.83	3164.11
464.04	3024.85
464.24	2861.01
464.44	2830.29
464.64	3047.38
464.85	3084.24
465.05	2904.02
465.25	2875.35
465.46	2977.75
465.66	3172.30
465.86	2924.50
466.07	2793.43
466.27	2897.88
466.47	2746.33
466.68	2668.50
466.88	3028.95
467.08	3080.14
467.29	3274.70
467.49	2951.12
467.69	2908.12
467.89	3057.62
468.10	2912.21
468.30	2947.03
468.50	2977.75
468.71	3117.01
468.91	2775.00
469.11	3022.80
469.31	2824.15
469.52	2826.20
469.72	3229.65
469.92	3139.54
470.13	2799.57
470.33	2965.46
470.53	2963.41
470.73	3196.88
470.94	3432.40
471.14	3536.84
471.34	4128.70
471.54	3915.72
471.75	3639.24
471.95	3366.86
472.15	3280.85
472.36	3399.63
472.56	3262.41
472.76	3379.15
472.96	3260.37
473.17	3098.58
473.37	2975.70
473.57	2906.07
473.77	3094.48
473.98	2932.69
474.18	2795.48
474.38	3569.61
474.58	2828.24
474.79	2719.70
474.99	2961.36
475.19	3198.93
475.39	2830.29
475.60	2949.08
475.80	2844.63
476.00	3047.38
476.20	2910.16
476.41	2938.84
476.61	2922.45
476.81	3200.98
477.01	2918.36
477.21	3047.38
477.42	3008.47
477.62	2861.01
477.82	3143.63
478.02	2858.96
478.23	2897.88
478.43	2818.00
478.63	2985.94
478.83	2848.72
479.03	2967.51
479.24	3155.92
479.44	3313.61
479.64	2719.70
479.84	2680.79
480.04	2867.16
480.25	3047.38
480.45	2818.00
480.65	2842.58
480.85	3227.60
481.06	2787.29
481.26	2961.36
481.46	2918.36
481.66	3000.27
481.86	2828.24
482.06	2996.18
482.27	2891.73
482.47	2873.30
482.67	3033.04
482.87	2908.12
483.07	2908.12
483.28	2858.96
483.48	2731.99
483.68	2912.21
483.88	2643.93
484.08	2701.27
484.29	2848.72
484.49	2932.69
484.69	2686.94
484.89	3227.60
485.09	3155.92
485.29	2848.72
485.50	2961.36
485.70	2869.20
485.90	3192.78
486.10	2969.55
486.30	2852.82
486.50	3205.07
486.71	2971.60
486.91	2973.65
487.11	2932.69
487.31	2783.19
487.51	3024.85
487.71	2818.00
487.91	2852.82
488.12	2799.57
488.32	2588.63
488.52	2760.66
488.72	2557.91
488.92	2979.79
489.12	3186.64
489.32	3012.56
489.53	2832.34
489.73	2713.56
489.93	3252.17
490.13	2811.86
490.33	2639.83
490.53	2947.03
490.73	3239.89
490.94	2660.31
491.14	2981.84
491.34	3108.82
491.54	3147.73
491.74	3596.23
491.94	4200.38
492.14	4505.53
492.34	4722.62
492.54	4356.03
492.75	3848.13
492.95	3864.52
493.15	3635.14
493.35	3491.79
493.55	3444.68
493.75	3289.04
493.95	3395.53
494.15	3086.29
494.35	2983.89
494.56	2975.70
494.76	2838.48
494.96	3047.38
495.16	2889.68
495.36	2949.08
495.56	2987.99
495.76	2934.74
495.96	2824.15
496.16	2828.24
496.36	3358.67
496.56	2885.59
496.77	2963.41
496.97	2957.27
497.17	3278.80
497.37	2699.22
497.57	2949.08
497.77	3006.42
497.97	2746.33
498.17	2830.29
498.37	2828.24
498.57	3127.25
498.77	2906.07
498.97	2969.55
499.17	3170.26
499.38	2914.26
499.58	3084.24
499.78	3061.71
499.98	2963.41
500.18	2987.99
500.38	2865.11
500.58	3018.71
500.78	3356.62
500.98	5550.00
501.18	7188.37
501.38	8677.24
501.58	9555.82
501.78	9613.17
501.98	8058.76
502.18	6664.09
502.38	5873.57
502.58	5752.74
502.78	5062.58
502.98	4915.12
503.18	4573.11
503.38	4339.65
503.59	3862.47
503.79	3678.15
503.99	3385.29
504.19	3364.81
504.39	3448.78
504.59	3354.57
504.79	3217.36
504.99	3502.03
505.19	3209.17
505.39	2992.08
505.59	3174.35
505.79	3260.37
505.99	3207.12
506.19	2887.64
506.39	3106.77
506.59	2885.59
506.79	2930.64
506.99	3139.54
507.19	2797.53
507.39	2942.93
507.59	2785.24
507.79	2752.47
507.99	2828.24
508.19	3059.67
508.39	2971.60
508.59	2910.16
508.79	2973.65
508.99	3311.57
509.19	2930.64
509.39	2957.27
509.59	2731.99
509.79	2936.79
509.99	3026.90
510.19	2932.69
510.39	2955.22
510.59	3076.05
510.79	2805.72
510.99	2760.66
511.19	2818.00
511.39	3354.57
511.59	3209.17
511.79	2987.99
511.99	2955.22
512.19	3299.28
512.38	3022.80
512.58	2879.44
512.78	2748.37
512.98	3186.64
513.18	3243.98
513.38	2736.09
513.58	2947.03
513.78	2873.30
513.98	2912.21
514.18	2891.73
514.38	2865.11
514.58	3049.43
514.78	2949.08
514.98	2729.94
515.18	2840.53
515.38	2725.85
515.58	3301.33
515.78	2770.90
515.98	2856.92
516.18	3155.92
516.38	2996.18
516.57	2772.95
516.77	2787.29
516.97	3078.10
517.17	2836.44
517.37	2617.30
517.57	2963.41
517.77	2975.70
517.97	2818.00
518.17	2928.60
518.37	2754.52
518.57	2865.11
518.77	2885.59
518.97	2850.77
519.16	2975.70
519.36	3172.30
519.56	2916.31
519.76	2863.06
519.96	2899.92
520.16	3207.12
520.36	2873.30
520.56	3004.37
520.76	2789.33
520.96	2875.35
521.16	3213.26
521.35	3037.14
521.55	2994.13
521.75	3088.34
521.95	2932.69
522.15	2834.39
522.35	2668.50
522.55	2826.20
522.75	3088.34
522.95	2770.90
523.14	2668.50
523.34	3067.86
523.54	2820.05
523.74	2940.88
523.94	2901.97
524.14	2709.46
524.34	2992.08
524.54	3063.76
524.73	2889.68
524.93	3123.15
525.13	3051.47
525.33	2711.51
525.53	3057.62
525.73	3188.69
525.93	3037.14
526.13	2836.44
526.32	2815.96
526.52	3104.72
526.72	3127.25
526.92	2928.60
527.12	2779.09
527.32	2731.99
527.52	3086.29
527.71	2869.20
527.91	2848.72
528.11	2906.07
528.31	2922.45
528.51	2740.18
528.71	3014.61
528.90	3049.43
529.10	3237.84
529.30	2932.69
529.50	2641.88
529.70	3082.19
529.90	2936.79
530.09	2838.48
530.29	2693.08
530.49	2863.06
530.69	3477.45
530.89	2983.89
531.09	2992.08
531.28	2820.05
531.48	3227.60
531.68	2766.81
531.88	2807.77
532.08	3186.64
532.28	3041.23
532.47	2947.03
532.67	2977.75
532.87	3104.72
533.07	2746.33
533.27	2881.49
533.46	2912.21
533.66	3090.38
533.86	2959.31
534.06	2818.00
534.26	2746.33
534.45	2920.40
534.65	3157.97
534.85	2969.55
535.05	2875.35
535.25	3174.35
535.44	2746.33
535.64	2922.45
535.84	2836.44
536.04	2899.92
536.24	2887.64
536.43	2832.34
536.63	2830.29
536.83	2971.60
537.03	2944.98
537.22	2740.18
537.42	2697.17
537.62	2926.55
537.82	2887.64
538.02	2977.75
538.21	2977.75
538.41	3520.46
538.61	3108.82
538.81	2875.35
539.00	2938.84
539.20	2770.90
539.40	3000.27
539.60	2797.53
539.79	3047.38
539.99	2994.13
540.19	2850.77
540.39	2818.00
540.58	2957.27
540.78	3129.30
540.98	2871.25
541.18	3057.62
541.37	2934.74
541.57	2936.79
541.77	3100.62
541.97	2793.43
542.16	2664.41
542.36	2889.68
542.56	2916.31
542.76	3133.39
542.95	2981.84
543.15	3059.67
543.35	3110.86
543.54	2729.94
543.74	2828.24
543.94	3209.17
544.14	2840.53
544.33	2953.17
544.53	2863.06
544.73	2920.40
544.93	2877.40
545.12	2844.63
545.32	2875.35
545.52	2987.99
545.71	2770.90
545.91	2865.11
546.11	2797.53
546.30	2830.29
546.50	2875.35
546.70	2916.31
546.90	2785.24
547.09	2705.37
547.29	3022.80
547.49	2967.51
547.68	2865.11
547.88	2832.34
548.08	3047.38
548.27	3278.80
548.47	2822.10
548.67	2889.68
548.87	3030.99
549.06	2840.53
549.26	2840.53
549.46	3102.67
549.65	2863.06
549.85	2832.34
550.05	2895.83
550.24	2738.13
550.44	3010.51
550.64	2881.49
550.83	2891.73
551.03	3190.74
551.23	3174.35
551.42	2971.60
551.62	2936.79
551.82	2942.93
552.01	2977.75
552.21	3119.06
552.41	2897.88
552.60	3297.23
552.80	3043.28
553.00	2770.90
553.19	2953.17
553.39	3246.03
553.59	2779.09
553.78	2877.40
553.98	2926.55
554.17	2789.33
554.37	3049.43
554.57	2924.50
554.76	2844.63
554.96	2889.68
555.16	3028.95
555.35	2928.60
555.55	3004.37
555.75	3000.27
555.94	3074.00
556.14	2678.74
556.33	2887.64
556.53	2985.94
556.73	3000.27
556.92	2920.40
557.12	2854.87
557.32	3358.67
557.51	3237.84
557.71	2922.45
557.90	3100.62
558.10	3207.12
558.30	2928.60
558.49	2797.53
558.69	2875.35
558.88	3028.95
559.08	2944.98
559.28	2934.74
559.47	2858.96
559.67	3088.34
559.86	3379.15
560.06	2834.39
560.26	2883.54
560.45	3057.62
560.65	2983.89
560.84	3112.91
561.04	2789.33
561.24	3074.00
561.43	2740.18
561.63	3108.82
561.82	2920.40
562.02	3098.58
562.22	2664.41
562.41	2832.34
562.61	2842.58
562.80	2895.83
563.00	3413.96
563.19	2875.35
563.39	2981.84
563.59	3114.96
563.78	2820.05
563.98	2676.70
564.17	2865.11
564.37	2658.26
564.56	2979.79
564.76	2727.89
564.96	3010.51
565.15	3098.58
565.35	3370.96
565.54	2842.58
565.74	2891.73
565.93	3127.25
566.13	2965.46
566.32	2906.07
566.52	2996.18
566.71	3014.61
566.91	3157.97
567.11	2963.41
567.30	2785.24
567.50	3041.23
567.69	3026.90
567.89	2699.22
568.08	2793.43
568.28	3035.09
568.47	2760.66
568.67	2953.17
568.86	2789.33
569.06	3108.82
569.25	2924.50
569.45	2666.46
569.64	2893.78
569.84	2871.25
570.04	3080.14
570.23	2863.06
570.43	2901.97
570.62	2985.94
570.82	3254.22
571.01	2682.84
571.21	2756.57
571.40	2848.72
571.60	3176.40
571.79	3043.28
571.99	2809.81
572.18	2908.12
572.38	3057.62
572.57	2879.44
572.77	2893.78
572.96	3473.36
573.16	3043.28
573.35	2901.97
573.55	3047.38
573.74	3000.27
573.94	2928.60
574.13	2846.68
574.33	3002.32
574.52	3194.83
574.71	3057.62
574.91	2924.50
575.10	2639.83
575.30	2846.68
575.49	2858.96
575.69	2709.46
575.88	2852.82
576.08	3026.90
576.27	3100.62
576.47	2766.81
576.66	3059.67
576.86	3268.56
577.05	2967.51
577.25	2967.51
577.44	3033.04
577.64	2981.84
577.83	3164.11
578.02	2883.54
578.22	3024.85
578.41	3340.24
578.61	2953.17
578.80	2748.37
579.00	2916.31
579.19	2979.79
579.39	3010.51
579.58	2957.27
579.77	2844.63
579.97	3209.17
580.16	3215.31
580.36	3018.71
580.55	2887.64
580.75	3096.53
580.94	3004.37
581.13	2957.27
581.33	3049.43
581.52	2975.70
581.72	3301.33
581.91	2981.84
582.11	2842.58
582.30	3172.30
582.49	3018.71
582.69	3151.82
582.88	2914.26
583.08	3008.47
583.27	3131.34
583.47	2922.45
583.66	2746.33
583.85	2844.63
584.05	3012.56
584.24	2971.60
584.44	2969.55
584.63	3160.02
584.82	3178.45
585.02	3053.52
585.21	2965.46
585.41	3080.14
585.60	2985.94
585.79	3106.77
585.99	3241.93
586.18	3033.04
586.37	3975.11
586.57	5760.94
586.76	16660.23
586.96	35812.83
587.15	48727.32
587.34	56835.23
587.54	61111.39
587.73	54299.84
587.93	38837.68
588.12	29474.37
588.31	24012.43
588.51	21126.85
588.70	19601.11
588.89	17190.65
589.09	14567.20
589.28	12511.04
589.47	9983.85
589.67	7520.14
589.86	5900.20
590.06	4765.62
590.25	4136.90
590.44	3631.05
590.64	3266.51
590.83	3233.74
591.02	3246.03
591.22	2975.70
591.41	2963.41
591.60	2922.45
591.80	3456.97
591.99	2779.09
592.18	2842.58
592.38	3090.38
592.57	2967.51
592.76	2869.20
592.96	2955.22
593.15	3006.42
593.34	3155.92
593.54	2854.87
593.73	2996.18
593.92	3024.85
594.12	3112.91
594.31	2936.79
594.50	2955.22
594.70	3147.73
594.89	3565.51
595.08	2764.76
595.28	3088.34
595.47	3596.23
595.66	3215.31
595.86	2768.85
596.05	2818.00
596.24	2940.88
596.43	3297.23
596.63	3010.51
596.82	3049.43
597.01	3076.05
597.21	3254.22
597.40	2820.05
597.59	2830.29
597.79	2951.12
597.98	3106.77
598.17	2906.07
598.36	2887.64
598.56	3086.29
598.75	2924.50
598.94	3043.28
599.14	2924.50
599.33	2901.97
599.52	3080.14
599.71	2858.96
599.91	2885.59
600.10	3092.43
600.29	3006.42
600.48	2910.16
600.68	2987.99
600.87	3102.67
601.06	2811.86
601.26	3000.27
601.45	2947.03
601.64	3004.37
601.83	3227.60
602.03	2775.00
602.22	2738.13
602.41	3131.34
602.60	3352.52
602.80	2996.18
602.99	2983.89
603.18	2834.39
603.37	3069.91
603.57	2836.44
603.76	2934.74
603.95	3174.35
604.14	2891.73
604.34	2760.66
604.53	2826.20
604.72	2971.60
604.91	3063.76
605.10	2910.16
605.30	2781.14
605.49	3377.10
605.68	3157.97
605.87	2969.55
606.07	2807.77
606.26	2992.08
606.45	3059.67
606.64	2869.20
606.84	2830.29
607.03	3026.90
607.22	3149.78
607.41	2875.35
607.60	2781.14
607.80	3151.82
607.99	2940.88
608.18	2908.12
608.37	2934.74
608.56	2830.29
608.76	3155.92
608.95	3004.37
609.14	2875.35
609.33	3164.11
609.52	3198.93
609.72	2973.65
609.91	2959.31
610.10	2990.03
610.29	3297.23
610.48	2951.12
610.68	2971.60
610.87	2957.27
611.06	3141.58
611.25	2904.02
611.44	2979.79
611.63	2918.36
611.83	3246.03
612.02	2824.15
612.21	3033.04
612.40	2699.22
612.59	2805.72
612.79	2777.05
612.98	2893.78
613.17	3284.94
613.36	3035.09
613.55	3000.27
613.74	2893.78
613.93	3006.42
614.13	3067.86
614.32	2969.55
614.51	2873.30
614.70	3002.32
614.89	2990.03
615.08	2998.23
615.28	3321.81
615.47	2818.00
615.66	3135.44
615.85	2899.92
616.04	2961.36
616.23	2987.99
616.42	2940.88
616.62	2891.73
616.81	2852.82
617.00	3037.14
617.19	3102.67
617.38	2906.07
617.57	2914.26
617.76	3051.47
617.95	3102.67
618.15	3049.43
618.34	3028.95
618.53	2750.42
618.72	3198.93
618.91	2985.94
619.10	3000.27
619.29	2983.89
619.48	3094.48
619.68	2756.57
619.87	2895.83
620.06	2723.80
620.25	2940.88
620.44	2897.88
620.63	2809.81
620.82	3043.28
621.01	2987.99
621.20	2906.07
621.39	2944.98
621.59	2987.99
621.78	3004.37
621.97	2951.12
622.16	3020.75
622.35	3137.49
622.54	3219.41
622.73	2926.55
622.92	2697.17
623.11	3139.54
623.30	3028.95
623.49	2953.17
623.68	2760.66
623.88	3276.75
624.07	2863.06
624.26	2811.86
624.45	2805.72
624.64	2914.26
624.83	3047.38
625.02	2895.83
625.21	2832.34
625.40	3008.47
625.59	3229.65
625.78	2854.87
625.97	2983.89
626.16	3170.26
626.35	3213.26
626.54	2854.87
626.74	3043.28
626.93	2885.59
627.12	3000.27
627.31	2969.55
627.50	2936.79
627.69	3117.01
627.88	2820.05
628.07	2824.15
628.26	2686.94
628.45	2824.15
628.64	2809.81
628.83	2875.35
629.02	2736.09
629.21	3149.78
629.40	3004.37
629.59	2750.42
629.78	2781.14
629.97	3051.47
630.16	3030.99
630.35	2879.44
630.54	2967.51
630.73	2875.35
630.92	2930.64
631.11	2762.71
631.30	2836.44
631.49	3157.97
631.68	2955.22
631.87	2947.03
632.06	2762.71
632.25	3395.53
632.44	2942.93
632.63	2904.02
632.82	2826.20
633.01	2887.64
633.20	3102.67
633.39	2805.72
633.58	2705.37
633.77	3074.00
633.96	3108.82
634.15	3008.47
634.34	2955.22
634.53	3125.20
634.72	2877.40
634.91	2713.56
635.10	2850.77
635.29	3098.58
635.48	3057.62
635.67	2736.09
635.86	2731.99
636.05	3305.42
636.24	2969.55
636.43	2877.40
636.62	2912.21
636.81	2553.82
637.00	2932.69
637.19	2863.06
637.38	2897.88
637.57	2869.20
637.76	2979.79
637.95	3033.04
638.14	2820.05
638.33	3041.23
638.52	2990.03
638.71	2764.76
638.89	2660.31
639.08	3493.83
639.27	3190.74
639.46	2987.99
639.65	3336.14
639.84	3467.21
640.03	3512.27
640.22	3258.32
640.41	3280.85
640.60	3074.00
640.79	3151.82
640.98	3080.14
641.17	3045.33
641.36	3141.58
641.55	3164.11
641.74	2770.90
641.92	2803.67
642.11	2830.29
642.30	2928.60
642.49	2797.53
642.68	2871.25
642.87	3069.91
643.06	3067.86
643.25	2787.29
643.44	2676.70
643.63	2967.51
643.82	3178.45
644.00	2695.13
644.19	2922.45
644.38	2811.86
644.57	3205.07
644.76	2910.16
644.95	2844.63
645.14	2996.18
645.33	2977.75
645.52	2994.13
645.71	2715.61
645.89	2842.58
646.08	2901.97
646.27	2844.63
646.46	3014.61
646.65	2723.80
646.84	2994.13
647.03	2834.39
647.22	3084.24
647.40	3071.95
647.59	2875.35
647.78	2625.50
647.97	2789.33
648.16	2729.94
648.35	3237.84
648.54	3092.43
648.73	2842.58
648.91	3098.58
649.10	3000.27
649.29	2881.49
649.48	2815.96
649.67	3041.23
649.86	2926.55
650.05	2811.86
650.23	3076.05
650.42	3020.75
650.61	3176.40
650.80	3028.95
650.99	3110.86
651.18	3125.20
651.36	3192.78
651.55	2869.20
651.74	3051.47
651.93	2887.64
652.12	3008.47
652.31	2969.55
652.49	2895.83
652.68	2967.51
652.87	3246.03
653.06	2904.02
653.25	3100.62
653.44	2975.70
653.62	3190.74
653.81	2840.53
654.00	2938.84
654.19	3237.84
654.38	3438.54
654.56	2928.60
654.75	2818.00
654.94	3166.16
655.13	2936.79
655.32	2834.39
655.51	2963.41
655.69	2883.54
655.88	3076.05
656.07	2789.33
656.26	2940.88
656.45	2697.17
656.63	3041.23
656.82	2893.78
657.01	3125.20
657.20	2877.40
657.38	3246.03
657.57	2793.43
657.76	2707.41
657.95	3094.48
658.14	2856.92
658.32	2994.13
658.51	2684.89
658.70	3047.38
658.89	3028.95
659.08	2901.97
659.26	3053.52
659.45	2815.96
659.64	3039.19
659.83	2815.96
660.01	3233.74
660.20	3102.67
660.39	3270.61
660.58	2641.88
660.76	2920.40
660.95	2783.19
661.14	2942.93
661.33	2701.27
661.51	2848.72
661.70	2924.50
661.89	3061.71
662.08	2850.77
662.26	2664.41
662.45	2777.05
662.64	3334.09
662.83	2998.23
663.01	2770.90
663.20	2840.53
663.39	3246.03
663.58	2938.84
663.76	2869.20
663.95	3145.68
664.14	2783.19
664.32	2850.77
664.51	2779.09
664.70	2717.65
664.89	3033.04
665.07	2789.33
665.26	3033.04
665.45	2775.00
665.64	3041.23
665.82	2830.29
666.01	2944.98
666.20	2709.46
666.38	3149.78
666.57	3147.73
666.76	4806.58
666.95	10880.86
667.13	17499.89
667.32	21323.45
667.51	24186.51
667.69	24645.26
667.88	20782.79
668.07	15017.75
668.25	12683.07
668.44	11196.25
668.63	9756.52
668.81	8486.78
669.00	7270.29
669.19	6692.76
669.38	5896.10
669.56	5146.55
669.75	4407.23
669.94	3936.20
670.12	3424.20
670.31	3155.92
670.50	3129.30
670.68	3155.92
670.87	3069.91
671.06	2871.25
671.24	2979.79
671.43	3166.16
671.62	3063.76
671.80	2867.16
671.99	2920.40
672.18	3006.42
672.36	3141.58
672.55	2901.97
672.74	2924.50
672.92	2889.68
673.11	3071.95
673.29	2695.13
673.48	2967.51
673.67	2979.79
673.85	3131.34
674.04	2813.91
674.23	2947.03
674.41	3252.17
674.60	2795.48
674.79	2658.26
674.97	2787.29
675.16	3127.25
675.34	3149.78
675.53	2848.72
675.72	2928.60
675.90	3385.29
676.09	2871.25
676.28	2971.60
676.46	2715.61
676.65	3045.33
676.83	2818.00
677.02	2924.50
677.21	2947.03
677.39	3051.47
677.58	2822.10
677.77	2914.26
677.95	2807.77
678.14	2944.98
678.32	2944.98
678.51	2856.92
678.70	3157.97
678.88	2920.40
679.07	3125.20
679.25	2895.83
679.44	2822.10
679.63	2799.57
679.81	2981.84
680.00	3112.91
680.18	3039.19
680.37	3278.80
680.55	2951.12
680.74	2682.84
680.93	2580.44
681.11	3016.66
681.30	2996.18
681.48	2856.92
681.67	2891.73
681.85	2996.18
682.04	2879.44
682.23	2998.23
682.41	2934.74
682.60	2914.26
682.78	2938.84
682.97	2766.81
683.15	2930.64
683.34	3018.71
683.53	3182.54
683.71	2703.32
683.90	2932.69
684.08	3170.26
684.27	2930.64
684.45	2983.89
684.64	3039.19
684.82	2961.36
685.01	3053.52
685.19	2832.34
685.38	3121.10
685.57	2994.13
685.75	2807.77
685.94	2766.81
686.12	2772.95
686.31	2848.72
686.49	3246.03
686.68	2623.45
686.86	2885.59
687.05	2871.25
687.23	3221.45
687.42	2811.86
687.60	2770.90
687.79	3149.78
687.97	3174.35
688.16	2936.79
688.34	3108.82
688.53	2668.50
688.71	3102.67
688.90	3145.68
689.08	2801.62
689.27	2715.61
689.45	3147.73
689.64	3026.90
689.82	2967.51
690.01	3033.04
690.19	2992.08
690.38	2895.83
690.56	2992.08
690.75	2803.67
690.93	2912.21
691.12	2838.48
691.30	2799.57
691.49	3002.32
691.67	2996.18
691.86	3166.16
692.04	2891.73
692.23	2910.16
692.41	2918.36
692.60	3239.89
692.78	3018.71
692.97	2955.22
693.15	3074.00
693.34	3094.48
693.52	3033.04
693.71	2916.31
693.89	2895.83
694.08	2770.90
694.26	2928.60
694.44	3045.33
694.63	3078.10
694.81	2795.48
695.00	2871.25
695.18	3141.58
695.37	3456.97
695.55	2936.79
695.74	2910.16
695.92	2863.06
696.10	3256.27
696.29	2768.85
696.47	2846.68
696.66	2748.37
696.84	2820.05
697.03	2887.64
697.21	3217.36
697.40	4497.34
697.58	3164.11
697.76	2815.96
697.95	2877.40
698.13	2850.77
698.32	2844.63
698.50	2844.63
698.68	2936.79
698.87	3024.85
699.05	3293.13
699.24	2912.21
699.42	2777.05
699.61	3035.09
699.79	2979.79
699.97	2834.39
700.16	2775.00
700.34	2858.96
700.53	3002.32
700.71	3104.72
700.89	2938.84
701.08	2869.20
701.26	2955.22
701.45	3227.60
701.63	2842.58
701.81	2944.98
702.00	2867.16
702.18	2951.12
702.37	2805.72
702.55	3145.68
702.73	3014.61
702.92	2865.11
703.10	3190.74
703.28	3137.49
703.47	2850.77
703.65	3121.10
703.84	2969.55
704.02	2949.08
704.20	3258.32
704.39	2834.39
704.57	2836.44
704.75	3117.01
704.94	3094.48
705.12	3016.66
705.30	3454.92
705.49	6600.60
705.67	12742.46
705.86	18087.66
706.04	20573.89
706.22	22705.83
706.41	22087.34
706.59	16629.51
706.77	13139.77
706.96	11349.84
707.14	10440.54
707.32	8984.44
707.51	7860.10
707.69	6492.06
707.87	5402.54
708.06	4546.49
708.24	4046.79
708.42	3616.71
708.61	3682.25
708.79	2975.70
708.97	3053.52
709.16	3098.58
709.34	2987.99
709.52	2869.20
709.71	2883.54
709.89	3121.10
710.07	2901.97
710.26	2760.66
710.44	2920.40
710.62	3178.45
710.80	2987.99
710.99	2918.36
711.17	3018.71
711.35	2834.39
711.54	2863.06
711.72	3084.24
711.90	2940.88
712.09	3043.28
712.27	2908.12
712.45	3026.90
712.63	2803.67
712.82	2979.79
713.00	2963.41
713.18	2951.12
713.37	3049.43
713.55	3225.55
713.73	3098.58
713.91	2949.08
714.10	2871.25
714.28	2990.03
714.46	3065.81
714.65	2922.45
714.83	2922.45
715.01	2998.23
715.19	3047.38
715.38	2832.34
715.56	2959.31
715.74	2828.24
715.92	2836.44
716.11	3086.29
716.29	2678.74
716.47	2924.50
716.65	2973.65
716.84	2721.75
717.02	2901.97
717.20	2793.43
717.38	2856.92
717.57	2965.46
717.75	2959.31
717.93	2901.97
718.11	3010.51
718.30	2836.44
718.48	2893.78
718.66	3196.88
718.84	3162.06
719.03	2899.92
719.21	2686.94
719.39	3293.13
719.57	3125.20
719.75	2924.50
719.94	2811.86
720.12	2881.49
720.30	2985.94
720.48	3049.43
720.67	2791.38
720.85	2820.05
721.03	2838.48
721.21	2891.73
721.39	2983.89
721.58	3147.73
721.76	3065.81
721.94	2926.55
722.12	2949.08
722.30	3211.22
722.49	2904.02
722.67	2918.36
722.85	2897.88
723.03	2738.13
723.21	2854.87
723.40	2975.70
723.58	3022.80
723.76	3092.43
723.94	3127.25
724.12	2908.12
724.30	3043.28
724.49	3131.34
724.67	2834.39
724.85	2975.70
725.03	2717.65
725.21	3092.43
725.40	3221.45
725.58	2854.87
725.76	3000.27
725.94	3018.71
726.12	2807.77
726.30	2899.92
726.49	2822.10
726.67	2881.49
726.85	3125.20
727.03	3342.28
727.21	4437.95
727.39	5447.60
727.57	5830.57
727.76	6145.95
727.94	6324.13
728.12	5552.04
728.30	4554.68
728.48	4302.78
728.66	4190.14
728.84	3909.57
729.03	3516.36
729.21	3348.43
729.39	3264.46
729.57	3055.57
729.75	3018.71
729.93	3002.32
730.11	2850.77
730.30	2883.54
730.48	2987.99
730.66	2971.60
730.84	3033.04
731.02	2959.31
731.20	2955.22
731.38	2920.40
731.56	2707.41
731.74	2731.99
731.93	3010.51
732.11	2938.84
732.29	2848.72
732.47	3069.91
732.65	3008.47
732.83	3117.01
733.01	3024.85
733.19	2820.05
733.37	3059.67
733.56	2934.74
733.74	2787.29
733.92	3233.74
734.10	2992.08
734.28	3049.43
734.46	2617.30
734.64	2975.70
734.82	2992.08
735.00	2885.59
735.18	2807.77
735.36	2920.40
735.54	2983.89
735.73	2865.11
735.91	2979.79
736.09	3166.16
736.27	2977.75
736.45	2949.08
736.63	2617.30
736.81	2856.92
736.99	3147.73
737.17	3080.14
737.35	2803.67
737.53	2963.41
737.71	2942.93
737.89	3043.28
738.07	2731.99
738.25	2863.06
738.43	2711.51
738.61	2901.97
738.80	2738.13
738.98	2830.29
739.16	2914.26
739.34	2801.62
739.52	3149.78
739.70	2830.29
739.88	3076.05
740.06	3024.85
740.24	2549.72
740.42	3205.07
740.60	2768.85
740.78	2818.00
740.96	2635.74
741.14	2924.50
741.32	2944.98
741.50	2768.85
741.68	3123.15
741.86	3225.55
742.04	2752.47
742.22	2809.81
742.40	2879.44
742.58	3084.24
742.76	2861.01
742.94	2992.08
743.12	2648.02
743.30	2985.94
743.48	3133.39
743.66	2811.86
743.84	2961.36
744.02	2994.13
744.20	2983.89
744.38	2734.04
744.56	2805.72
744.74	3373.00
744.92	3082.19
745.10	3088.34
745.28	2994.13
745.46	3276.75
745.64	2895.83
745.82	3018.71
746.00	2893.78
746.18	3074.00
746.36	2750.42
746.54	2957.27
746.72	2906.07
746.90	2787.29
747.08	3221.45
747.26	2940.88
747.44	3020.75
747.62	3090.38
747.80	2979.79
747.98	2938.84
748.15	2740.18
748.33	3307.47
748.51	2924.50
748.69	2912.21
748.87	2748.37
749.05	2949.08
749.23	2885.59
749.41	2828.24
749.59	2828.24
749.77	3256.27
749.95	2914.26
750.13	2838.48
750.31	2994.13
750.49	2994.13
750.67	3127.25
750.85	3035.09
751.03	2893.78
751.20	3284.94
751.38	3004.37
751.56	2901.97
751.74	2879.44
751.92	2850.77
752.10	2777.05
752.28	3045.33
752.46	2820.05
752.64	2996.18
752.82	3057.62
753.00	2985.94
753.18	2789.33
753.35	2912.21
753.53	2961.36
753.71	2834.39
753.89	2969.55
754.07	3063.76
754.25	3069.91
754.43	2959.31
754.61	2754.52
754.79	3078.10
754.97	2838.48
755.14	3131.34
755.32	2762.71
755.50	2916.31
755.68	3012.56
755.86	2717.65
756.04	2795.48
756.22	2715.61
756.40	3082.19
756.57	3182.54
756.75	2846.68
756.93	3155.92
757.11	3207.12
757.29	2828.24
757.47	2836.44
757.65	2664.41
757.82	2623.45
758.00	2850.77
758.18	2795.48
758.36	2832.34
758.54	3229.65
758.72	2699.22
758.90	3006.42
759.07	3055.57
759.25	2777.05
759.43	3028.95
759.61	2691.03
759.79	4296.64
759.97	3172.30
760.15	2885.59
760.32	2852.82
760.50	3063.76
760.68	3299.28
760.86	2717.65
761.04	3129.30
761.22	3104.72
761.39	2969.55
761.57	2934.74
761.75	2879.44
761.93	3213.26
762.11	3010.51
762.28	2906.07
762.46	2803.67
762.64	3088.34
762.82	2775.00
763.00	2861.01
763.18	3145.68
763.35	2824.15
763.53	2975.70
763.71	2904.02
763.89	2818.00
764.07	3024.85
764.24	2967.51
764.42	3043.28
764.60	2807.77
764.78	3012.56
764.96	3084.24
765.13	3022.80
765.31	2756.57
765.49	3059.67
765.67	2850.77
765.84	2844.63
766.02	2725.85
766.20	2777.05
766.38	3057.62
766.56	2893.78
766.73	2947.03
766.91	2998.23
767.09	2936.79
767.27	2987.99
767.44	2750.42
767.62	3192.78
767.80	3012.56
767.98	2809.81
768.15	2777.05
768.33	3117.01
768.51	3108.82
768.69	2969.55
768.87	2879.44
769.04	3055.57
769.22	3397.58
769.40	3041.23
769.58	2992.08
769.75	3016.66
769.93	3176.40
770.11	2875.35
770.28	2875.35
770.46	3110.86
770.64	2955.22
770.82	2852.82
770.99	2858.96
771.17	3041.23
771.35	2867.16
771.53	2916.31
771.70	2844.63
771.88	2998.23
772.06	2981.84
772.23	2912.21
772.41	2867.16
772.59	2992.08
772.77	2793.43
772.94	2899.92
773.12	2916.31
773.30	2947.03
773.47	2983.89
773.65	2783.19
773.83	3012.56
774.01	2942.93
774.18	2721.75
774.36	2877.40
774.54	2740.18
774.71	3051.47
774.89	2752.47
775.07	2779.09
775.24	2854.87
775.42	2871.25
775.60	3348.43
775.78	2750.42
775.95	2705.37
776.13	2643.93
776.31	2752.47
776.48	3020.75
776.66	3131.34
776.84	2867.16
777.01	2852.82
777.19	2670.55
777.37	2826.20
777.54	3174.35
777.72	3370.96
777.90	3000.27
778.07	2881.49
778.25	3530.70
778.43	3096.53
778.60	2893.78
778.78	2963.41
778.96	3239.89
779.13	2807.77
779.31	2936.79
779.49	2938.84
779.66	2910.16
779.84	2961.36
780.01	2858.96
780.19	2803.67
780.37	3231.69
780.54	3076.05
780.72	2719.70
780.90	2832.34
781.07	2975.70
781.25	2840.53
781.43	3096.53
781.60	2877.40
781.78	3203.02
781.95	2969.55
782.13	2748.37
782.31	2818.00
782.48	2652.12
782.66	2942.93
782.83	3076.05
783.01	2934.74
783.19	3213.26
783.36	3020.75
783.54	2768.85
783.72	2920.40
783.89	2928.60
784.07	3012.56
784.24	2926.55
784.42	3063.76
784.60	3051.47
784.77	3108.82
784.95	2641.88
785.12	2797.53
785.30	2977.75
785.47	2783.19
785.65	2748.37
785.83	2893.78
786.00	2895.83
786.18	2930.64
786.35	2770.90
786.53	2764.76
786.71	3088.34
786.88	2983.89
787.06	2922.45
787.23	2838.48
787.41	2775.00
787.58	2959.31
787.76	2775.00
787.94	2951.12
788.11	3110.86
788.29	2766.81
788.46	2826.20
788.64	2697.17
788.81	2861.01
788.99	2742.23
789.16	2758.61
789.34	2877.40
789.52	2856.92
789.69	2861.01
789.87	2678.74
790.04	2844.63
790.22	3037.14
790.39	3327.95
790.57	2762.71
790.74	2830.29
790.92	3104.72
791.09	2678.74
791.27	2910.16
791.44	2992.08
791.62	2975.70
791.79	3182.54
791.97	2848.72
792.15	3262.41
792.32	3127.25
792.50	3125.20
792.67	3076.05
792.85	3112.91
793.02	2979.79
793.20	2934.74
793.37	2688.98
793.55	2820.05
793.72	2840.53
793.90	3071.95
794.07	2811.86
794.25	2781.14
794.42	2990.03
794.60	2875.35
794.77	2979.79
794.95	2930.64
795.12	3125.20
795.30	3018.71
795.47	2637.78
795.65	3278.80
795.82	3008.47
796.00	2830.29
796.17	2949.08
796.34	2705.37
796.52	3049.43
796.69	3223.50
796.87	3012.56
797.04	2942.93
797.22	3160.02
797.39	3002.32
797.57	3049.43
797.74	2906.07
797.92	2971.60
798.09	2846.68
798.27	3135.44
798.44	2781.14
798.62	2846.68
798.79	2936.79
798.96	2940.88
799.14	2908.12
799.31	3411.92
799.49	3014.61
799.66	2818.00
799.84	2916.31
800.01	2699.22
800.19	2994.13
800.36	2672.60
800.53	2904.02
800.71	3131.34
800.88	3219.41
801.06	2799.57
801.23	2793.43
801.41	2981.84
801.58	2858.96
801.75	2772.95
801.93	2906.07
802.10	3129.30
802.28	2934.74
802.45	2787.29
802.63	2922.45
802.80	3237.84
802.97	2873.30
803.15	2990.03
803.32	2811.86
803.50	2838.48
803.67	2854.87
803.84	2815.96
804.02	2934.74
804.19	2973.65
804.37	2576.34
804.54	2781.14
804.71	2799.57
804.89	2965.46
805.06	2770.90
805.24	2799.57
805.41	2723.80
805.58	2871.25
805.76	3383.24
805.93	2875.35
806.10	2996.18
806.28	3162.06
806.45	2957.27
806.63	2951.12
806.80	2924.50
806.97	3067.86
807.15	2920.40
807.32	2940.88
807.49	2889.68
807.67	2717.65
807.84	2983.89
808.01	2662.36
808.19	3010.51
808.36	3411.92
808.54	2908.12
808.71	2824.15
808.88	2904.02
809.06	3149.78
809.23	3291.09
809.40	2826.20
809.58	2852.82
809.75	2912.21
809.92	2750.42
810.10	3069.91
810.27	2852.82
810.44	3049.43
810.62	3117.01
810.79	2895.83
810.96	2920.40
811.14	2893.78
811.31	3065.81
811.48	3012.56
811.66	2901.97
811.83	3155.92
812.00	3086.29
812.18	2983.89
812.35	3162.06
812.52	2891.73
812.69	2893.78
812.87	2826.20
813.04	2754.52
813.21	2940.88
813.39	2826.20
813.56	2826.20
813.73	2985.94
813.91	2723.80
814.08	2967.51
814.25	2867.16
814.42	2652.12
814.60	2879.44
814.77	3069.91
814.94	2856.92
815.12	3035.09
815.29	3258.32
815.46	2809.81
815.63	2936.79
815.81	2807.77
815.98	2930.64
816.15	2928.60
816.33	2893.78
816.50	2877.40
816.67	2969.55
816.84	2963.41
817.02	2777.05
817.19	2799.57
817.36	3045.33
817.53	3045.33
817.71	2801.62
817.88	2836.44
818.05	2928.60
818.22	2918.36
818.40	2967.51
818.57	2838.48
818.74	3014.61
818.91	2953.17
819.09	3051.47
819.26	3104.72
819.43	2785.24
819.60	2850.77
819.78	2938.84
819.95	2992.08
820.12	2766.81
820.29	3344.33
820.47	3043.28
820.64	2897.88
820.81	2770.90
820.98	2834.39
821.15	2842.58
821.33	3004.37
821.50	2695.13
821.67	3082.19
821.84	2858.96
822.02	2930.64
822.19	3043.28
822.36	2887.64
822.53	2801.62
822.70	2684.89
822.88	2934.74
823.05	3237.84
823.22	2850.77
823.39	2877.40
823.56	2998.23
823.74	3334.09
823.91	2742.23
824.08	2791.38
824.25	2824.15
824.42	3239.89
824.60	2748.37
824.77	2889.68
824.94	3002.32
825.11	3121.10
825.28	2725.85
825.45	3028.95
825.63	3006.42
825.80	2832.34
825.97	3000.27
826.14	2942.93
826.31	2770.90
826.48	3041.23
826.66	2742.23
826.83	2799.57
827.00	2920.40
827.17	2824.15
827.34	2949.08
827.51	2752.47
827.69	2965.46
827.86	2731.99
828.03	2824.15
828.20	2830.29
828.37	2889.68
828.54	3078.10
828.71	2787.29
828.89	3065.81
829.06	2889.68
829.23	3305.42
829.40	2818.00
829.57	2836.44
829.74	3143.63
829.91	2895.83
830.09	2918.36
830.26	3006.42
830.43	3217.36
830.60	2951.12
830.77	2973.65
830.94	3098.58
831.11	3110.86
831.28	3006.42
831.46	3069.91
831.63	2809.81
831.80	3155.92
831.97	2846.68
832.14	2824.15
832.31	2912.21
832.48	3061.71
832.65	3102.67
832.82	2967.51
832.99	2938.84
833.17	2787.29
833.34	3149.78
833.51	2815.96
833.68	2602.97
833.85	3176.40
834.02	2838.48
834.19	2766.81
834.36	2736.09
834.53	3057.62
834.70	3104.72
834.87	2877.40
835.04	2680.79
835.22	2930.64
835.39	2904.02
835.56	2666.46
835.73	2734.04
835.90	3061.71
836.07	2858.96
836.24	2899.92
836.41	2762.71
836.58	2795.48
836.75	3133.39
836.92	2805.72
837.09	2660.31
837.26	3114.96
837.43	2990.03
837.60	2783.19
837.77	2789.33
837.94	3090.38
838.12	3184.59
838.29	2611.16
838.46	2617.30
838.63	2811.86
838.80	3231.69
838.97	2758.61
839.14	2742.23
839.31	2951.12
839.48	3074.00
839.65	2828.24
839.82	2824.15
839.99	2992.08
840.16	3016.66
840.33	2670.55
840.50	2815.96
840.67	2813.91
840.84	2613.21
841.01	2775.00
841.18	2641.88
841.35	2959.31
841.52	3053.52
841.69	3065.81
841.86	2770.90
842.03	2971.60
842.20	3100.62
842.37	2699.22
842.54	2721.75
842.71	3006.42
842.88	2709.46
843.05	2699.22
843.22	2648.02
843.39	3084.24
843.56	2875.35
843.73	2791.38
843.90	2844.63
844.07	2914.26
844.24	3155.92
844.41	2762.71
844.58	2746.33
844.75	2975.70
844.92	3067.86
845.09	2793.43
845.26	2699.22
845.43	3051.47
845.60	2815.96
845.77	2877.40
845.94	2813.91
846.10	3088.34
846.27	2738.13
846.44	2631.64
846.61	2637.78
846.78	3016.66
846.95	3125.20
847.12	2674.65
847.29	2738.13
847.46	2856.92
847.63	3119.06
847.80	2707.41
847.97	2709.46
848.14	3313.61
848.31	2916.31
848.48	2611.16
848.65	2770.90
848.82	2809.81
848.98	3354.57
849.15	2809.81
849.32	2869.20
849.49	3139.54
849.66	3010.51
849.83	2672.60
850.00	2723.80
850.17	3094.48
850.34	2877.40
850.51	2721.75
850.68	2752.47
850.85	3356.62
851.01	3096.53
851.18	2740.18
851.35	2811.86
851.52	2940.88
851.69	3272.65
851.86	2703.32
852.03	2684.89
852.20	3059.67
852.37	2916.31
852.53	2652.12
852.70	2668.50
852.87	2938.84
853.04	3157.97
853.21	2752.47
853.38	2942.93
853.55	3172.30
853.72	3207.12
853.89	2709.46
854.05	2674.65
854.22	2883.54
854.39	2824.15
854.56	2631.64
854.73	2861.01
854.90	2789.33
855.07	2936.79
855.23	2752.47
855.40	2697.17
855.57	2893.78
855.74	2686.94
855.91	2983.89
856.08	2656.22
856.25	2697.17
856.41	2879.44
856.58	2684.89
856.75	2750.42
856.92	2793.43
857.09	3088.34
857.26	2584.54
857.42	2830.29
857.59	3100.62
857.76	2930.64
857.93	2777.05
858.10	2797.53
858.27	2731.99
858.43	2918.36
858.60	2760.66
858.77	2666.46
858.94	2854.87
859.11	3233.74
859.27	2785.24
859.44	2686.94
859.61	3286.99
859.78	3059.67
859.95	2760.66
860.12	2725.85
860.28	3317.71
860.45	3299.28
860.62	2648.02
860.79	2844.63
860.95	2936.79
861.12	2887.64
861.29	2656.22
861.46	2734.04
861.63	2953.17
861.79	3061.71
861.96	2602.97
862.13	2777.05
862.30	3219.41
862.47	2779.09
862.63	2576.34
862.80	2801.62
862.97	3182.54
863.14	3039.19
863.30	2717.65
863.47	2721.75
863.64	3243.98
863.81	2998.23
863.97	2645.98
864.14	2807.77
864.31	2955.22
864.48	2959.31
864.65	2691.03
864.81	2789.33
864.98	3090.38
865.15	3151.82
865.32	2775.00
865.48	2828.24
865.65	3241.93
865.82	2918.36
865.98	2895.83
866.15	2832.34
866.32	2944.98
866.49	2836.44
866.65	2871.25
866.82	2779.09
866.99	2963.41
867.16	2932.69
867.32	2805.72
867.49	2707.41
867.66	2932.69
867.83	2826.20
867.99	2629.59
868.16	2744.28
868.33	2795.48
868.49	3014.61
868.66	2752.47
868.83	2754.52
868.99	3047.38
869.16	2969.55
869.33	2869.20
869.50	2842.58
869.66	2965.46
869.83	2871.25
870.00	2664.41
870.16	2881.49
870.33	2879.44
870.50	3041.23
870.66	2803.67
870.83	2813.91
871.00	2949.08
871.17	3071.95
871.33	2852.82
871.50	2705.37
871.67	2891.73
871.83	2697.17
872.00	2801.62
872.17	2736.09
872.33	3319.76
872.50	3074.00
872.67	2772.95
872.83	2725.85
873.00	3059.67
873.17	3008.47
873.33	2811.86
873.50	2858.96
873.67	2844.63
873.83	2834.39
874.00	2727.89
874.16	2951.12
874.33	2910.16
874.50	2713.56
874.66	2650.07
874.83	2820.05
875.00	3067.86
875.16	3110.86
875.33	2813.91
875.50	2512.86
875.66	2885.59
875.83	2910.16
875.99	2840.53
876.16	2772.95
876.33	2781.14
876.49	2920.40
876.66	2772.95
876.83	2785.24
876.99	2713.56
877.16	3053.52
877.32	2688.98
877.49	2822.10
877.66	2985.94
877.82	3237.84
877.99	2768.85
878.15	2942.93
878.32	3008.47
878.49	3049.43
878.65	2762.71
878.82	2947.03
878.98	2879.44
879.15	3104.72
879.32	2963.41
879.48	2787.29
879.65	2955.22
879.81	2971.60
879.98	2766.81
880.15	2795.48
880.31	3063.76
880.48	2848.72
880.64	2842.58
880.81	2801.62
880.97	3164.11
881.14	3155.92
881.31	2725.85
881.47	2904.02
881.64	2918.36
881.80	2729.94
881.97	2987.99
882.13	2742.23
882.30	2731.99
882.47	2830.29
882.63	2711.51
882.80	2717.65
882.96	2889.68
883.13	3127.25
883.29	2717.65
883.46	2760.66
883.62	3284.94
883.79	3024.85
883.95	2938.84
884.12	2678.74
884.29	3018.71
884.45	2963.41
884.62	2691.03
884.78	2707.41
884.95	3246.03
885.11	2834.39
885.28	2856.92
885.44	2801.62
885.61	3127.25
885.77	3186.64
885.94	2869.20
886.10	2897.88
886.27	2955.22
886.43	3229.65
886.60	2936.79
886.76	2785.24
886.93	2801.62
887.09	3030.99
887.26	2596.82
887.42	2824.15
887.59	3211.22
887.75	3350.48
887.92	2936.79
888.08	2856.92
888.25	3272.65
888.41	3039.19
888.58	2764.76
888.74	2686.94
888.91	2822.10
>>>>>End Processed Spectral Data<<<<<
