SpectraSuite Data File
++++++++++++++++++++++++++++++++++++
Date: Thu May 05 21:10:43 CEST 2016
User: root
Dark Spectrum Present: No
Reference Spectrum Present: No
Number of Sampled Component Spectra: 1
Spectrometers: USB4C02835
Integration Time (usec): 100000 (USB4C02835)
Spectra Averaged: 1 (USB4C02835)
Boxcar Smoothing: 0 (USB4C02835)
Correct for Electrical Dark: No (USB4C02835)
Strobe/Lamp Enabled: No (USB4C02835)
Correct for Detector Non-linearity: No (USB4C02835)
Correct for Stray Light: No (USB4C02835)
Number of Pixels in Processed Spectrum: 3648
>>>>>Begin Processed Spectral Data<<<<<
177.47	2152.42
177.69	2152.42
177.91	2152.42
178.13	2133.98
178.36	2086.88
178.58	2881.49
178.80	2926.55
179.02	2686.94
179.24	2858.96
179.46	2645.98
179.68	2723.80
179.90	2930.64
180.13	3028.95
180.35	2545.63
180.57	2555.86
180.79	3143.63
181.01	2981.84
181.23	2717.65
181.45	2822.10
181.67	3110.86
181.90	3067.86
182.12	2775.00
182.34	2463.71
182.56	3174.35
182.78	3061.71
183.00	2598.87
183.22	2705.37
183.44	2756.57
183.66	3493.83
183.89	2811.86
184.11	2666.46
184.33	3002.32
184.55	3186.64
184.77	2701.27
184.99	2721.75
185.21	2920.40
185.43	3360.72
185.65	2699.22
185.87	2615.26
186.10	3459.02
186.32	3354.57
186.54	2736.09
186.76	2826.20
186.98	3108.82
187.20	2901.97
187.42	2656.22
187.64	2682.84
187.86	3020.75
188.08	3192.78
188.30	2631.64
188.52	2783.19
188.75	3225.55
188.97	3170.26
189.19	2680.79
189.41	2668.50
189.63	3016.66
189.85	2947.03
190.07	2611.16
190.29	2576.34
190.51	3082.19
190.73	2736.09
190.95	2852.82
191.17	2775.00
191.39	2752.47
191.61	3026.90
191.84	2631.64
192.06	2738.13
192.28	2752.47
192.50	3551.18
192.72	2838.48
192.94	2768.85
193.16	3180.50
193.38	3074.00
193.60	2615.26
193.82	2873.30
194.04	3252.17
194.26	3037.14
194.48	2797.53
194.70	2662.36
194.92	2938.84
195.14	3076.05
195.36	2625.50
195.58	2725.85
195.80	3020.75
196.02	2889.68
196.24	2643.93
196.46	2740.18
196.69	2922.45
196.91	3428.30
197.13	2729.94
197.35	2674.65
197.57	3243.98
197.79	3106.77
198.01	2754.52
198.23	2809.81
198.45	3147.73
198.67	2838.48
198.89	2562.01
199.11	2701.27
199.33	2889.68
199.55	2697.17
199.77	2635.74
199.99	2856.92
200.21	2916.31
200.43	3114.96
200.65	2631.64
200.87	2570.20
201.09	2940.88
201.31	2975.70
201.53	2727.89
201.75	2766.81
201.97	3047.38
202.19	3004.37
202.41	2772.95
202.63	2875.35
202.85	3071.95
203.07	3080.14
203.29	2686.94
203.51	2557.91
203.73	2889.68
203.95	3379.15
204.17	2691.03
204.39	2748.37
204.61	2969.55
204.83	2867.16
205.05	2867.16
205.27	2740.18
205.49	3364.81
205.71	3024.85
205.93	2621.40
206.15	2543.58
206.37	2979.79
206.59	2961.36
206.81	2535.39
207.03	2543.58
207.25	2873.30
207.47	3149.78
207.69	2729.94
207.91	2895.83
208.13	3309.52
208.34	2908.12
208.56	2693.08
208.78	2736.09
209.00	2967.51
209.22	2799.57
209.44	2607.06
209.66	2654.17
209.88	3026.90
210.10	2926.55
210.32	2609.11
210.54	2809.81
210.76	2983.89
210.98	3176.40
211.20	2525.15
211.42	2691.03
211.64	3276.75
211.86	3037.14
212.08	2736.09
212.30	2731.99
212.52	2893.78
212.74	3012.56
212.96	2785.24
213.17	2699.22
213.39	3125.20
213.61	3231.69
213.83	2639.83
214.05	2637.78
214.27	3135.44
214.49	2752.47
214.71	2658.26
214.93	2676.70
215.15	3051.47
215.37	3192.78
215.59	2598.87
215.81	2783.19
216.03	3246.03
216.24	2969.55
216.46	2676.70
216.68	2807.77
216.90	3086.29
217.12	3192.78
217.34	2592.73
217.56	2822.10
217.78	3225.55
218.00	3035.09
218.22	2752.47
218.44	2801.62
218.66	3110.86
218.87	3411.92
219.09	2723.80
219.31	2729.94
219.53	3137.49
219.75	2901.97
219.97	2748.37
220.19	2693.08
220.41	3014.61
220.63	3334.09
220.85	2701.27
221.06	2748.37
221.28	3217.36
221.50	3076.05
221.72	2736.09
221.94	2588.63
222.16	2992.08
222.38	3174.35
222.60	2709.46
222.82	2752.47
223.03	3119.06
223.25	2822.10
223.47	2678.74
223.69	2981.84
223.91	3213.26
224.13	3039.19
224.35	2588.63
224.57	2906.07
224.78	3121.10
225.00	2879.44
225.22	2764.76
225.44	2613.21
225.66	3049.43
225.88	2863.06
226.10	2840.53
226.32	2680.79
226.53	3268.56
226.75	2852.82
226.97	2731.99
227.19	2652.12
227.41	2885.59
227.63	2918.36
227.85	2506.71
228.06	2738.13
228.28	3035.09
228.50	3209.17
228.72	2586.58
228.94	2654.17
229.16	2629.59
229.37	2772.95
229.59	2631.64
229.81	2990.03
230.03	2953.17
230.25	2734.04
230.47	2586.58
230.69	2588.63
230.90	3205.07
231.12	2803.67
231.34	2695.13
231.56	2736.09
231.78	2820.05
232.00	3084.24
232.21	2699.22
232.43	2783.19
232.65	2742.23
232.87	3090.38
233.09	2527.19
233.30	2549.72
233.52	3203.02
233.74	3055.57
233.96	2635.74
234.18	2861.01
234.40	2936.79
234.61	3391.44
234.83	2527.19
235.05	2686.94
235.27	3381.20
235.49	3139.54
235.70	2639.83
235.92	2701.27
236.14	3129.30
236.36	3481.55
236.58	2584.54
236.79	2770.90
237.01	3010.51
237.23	2987.99
237.45	2844.63
237.67	2639.83
237.88	3082.19
238.10	3319.76
238.32	2621.40
238.54	2676.70
238.76	3053.52
238.97	2754.52
239.19	2572.25
239.41	2772.95
239.63	3184.59
239.85	2904.02
240.06	2746.33
240.28	2635.74
240.50	3215.31
240.72	2942.93
240.93	2600.92
241.15	2756.57
241.37	3012.56
241.59	3225.55
241.81	2719.70
242.02	2756.57
242.24	3024.85
242.46	3129.30
242.68	2582.49
242.89	2723.80
243.11	3131.34
243.33	2969.55
243.55	2592.73
243.76	2654.17
243.98	2766.81
244.20	2904.02
244.42	2711.51
244.64	2764.76
244.85	2811.86
245.07	2850.77
245.29	2688.98
245.51	2746.33
245.72	3069.91
245.94	3192.78
246.16	2695.13
246.38	2703.32
246.59	2922.45
246.81	2793.43
247.03	2605.02
247.24	2547.67
247.46	2869.20
247.68	3065.81
247.90	2613.21
248.11	2662.36
248.33	3151.82
248.55	2944.98
248.77	2785.24
248.98	2756.57
249.20	3319.76
249.42	3026.90
249.64	2660.31
249.85	2711.51
250.07	2908.12
250.29	3168.21
250.50	2723.80
250.72	2596.82
250.94	3086.29
251.16	3389.39
251.37	2607.06
251.59	2791.38
251.81	3037.14
252.02	3180.50
252.24	2609.11
252.46	2756.57
252.68	2824.15
252.89	2924.50
253.11	2566.10
253.33	2801.62
253.54	3309.52
253.76	2809.81
253.98	2699.22
254.20	2676.70
254.41	2795.48
254.63	2936.79
254.85	2602.97
255.06	2764.76
255.28	3067.86
255.50	2971.60
255.71	2666.46
255.93	2566.10
256.15	3045.33
256.36	3207.12
256.58	2486.23
256.80	2592.73
257.02	2990.03
257.23	2901.97
257.45	2748.37
257.67	2770.90
257.88	2987.99
258.10	3065.81
258.32	2619.35
258.53	2777.05
258.75	3274.70
258.97	2893.78
259.18	2580.44
259.40	2496.47
259.62	3225.55
259.83	3211.22
260.05	2705.37
260.27	3430.35
260.48	3088.34
260.70	2811.86
260.92	2613.21
261.13	2709.46
261.35	3030.99
261.57	3082.19
261.78	2625.50
262.00	2566.10
262.22	3104.72
262.43	2828.24
262.65	2719.70
262.86	2615.26
263.08	3403.72
263.30	2938.84
263.51	2510.81
263.73	2635.74
263.95	3270.61
264.16	2826.20
264.38	2594.78
264.60	2654.17
264.81	2940.88
265.03	3143.63
265.25	3084.24
265.46	2664.41
265.68	3280.85
265.89	3018.71
266.11	2498.52
266.33	2656.22
266.54	3198.93
266.76	2961.36
266.98	2713.56
267.19	2879.44
267.41	3186.64
267.62	2926.55
267.84	2547.67
268.06	2729.94
268.27	3030.99
268.49	3151.82
268.70	2699.22
268.92	2643.93
269.14	2893.78
269.35	2676.70
269.57	2789.33
269.79	2766.81
270.00	2875.35
270.22	3246.03
270.43	2602.97
270.65	2551.77
270.87	2961.36
271.08	3135.44
271.30	2775.00
271.51	2703.32
271.73	3119.06
271.95	3231.69
272.16	2684.89
272.38	2775.00
272.59	2899.92
272.81	3092.43
273.02	2639.83
273.24	2783.19
273.46	3069.91
273.67	2711.51
273.89	2531.29
274.10	2709.46
274.32	3178.45
274.54	3063.76
274.75	2760.66
274.97	2754.52
275.18	3026.90
275.40	3086.29
275.61	2752.47
275.83	2783.19
276.05	2818.00
276.26	2983.89
276.48	2820.05
276.69	2799.57
276.91	2904.02
277.12	3211.22
277.34	2830.29
277.55	2897.88
277.77	3006.42
277.99	2901.97
278.20	2766.81
278.42	2680.79
278.63	2895.83
278.85	2799.57
279.06	2742.23
279.28	2856.92
279.49	3145.68
279.71	3143.63
279.93	2922.45
280.14	2938.84
280.36	2883.54
280.57	3121.10
280.79	2908.12
281.00	2705.37
281.22	2836.44
281.43	3248.08
281.65	2594.78
281.86	2717.65
282.08	3149.78
282.29	3313.61
282.51	2742.23
282.73	2707.41
282.94	2707.41
283.16	3147.73
283.37	2887.64
283.59	2791.38
283.80	3045.33
284.02	3026.90
284.23	2858.96
284.45	2889.68
284.66	2824.15
284.88	2858.96
285.09	2746.33
285.31	2916.31
285.52	3063.76
285.74	2748.37
285.95	2957.27
286.17	2815.96
286.38	3170.26
286.60	2885.59
286.81	2791.38
287.03	2752.47
287.24	2975.70
287.46	3033.04
287.67	2842.58
287.89	3035.09
288.10	2981.84
288.32	2951.12
288.53	2992.08
288.75	2871.25
288.96	3151.82
289.18	2799.57
289.39	2760.66
289.61	2826.20
289.82	3256.27
290.04	3342.28
290.25	2686.94
290.47	2881.49
290.68	2887.64
290.90	3069.91
291.11	2631.64
291.33	2910.16
291.54	2979.79
291.76	2895.83
291.97	2932.69
292.18	2879.44
292.40	2928.60
292.61	2840.53
292.83	3012.56
293.04	2770.90
293.26	3037.14
293.47	2914.26
293.69	2668.50
293.90	2746.33
294.12	3102.67
294.33	3000.27
294.55	2815.96
294.76	2983.89
294.97	3190.74
295.19	3405.77
295.40	2772.95
295.62	2893.78
295.83	3114.96
296.05	2881.49
296.26	2957.27
296.48	2815.96
296.69	2944.98
296.90	2969.55
297.12	2916.31
297.33	2998.23
297.55	3028.95
297.76	3057.62
297.98	2885.59
298.19	2936.79
298.41	2924.50
298.62	2852.82
298.83	2967.51
299.05	2893.78
299.26	2848.72
299.48	2854.87
299.69	2867.16
299.90	2822.10
300.12	2891.73
300.33	3141.58
300.55	2768.85
300.76	2912.21
300.98	2838.48
301.19	2990.03
301.40	2824.15
301.62	2811.86
301.83	3084.24
302.05	2961.36
302.26	2809.81
302.47	2834.39
302.69	2836.44
302.90	3008.47
303.12	2637.78
303.33	2912.21
303.54	3381.20
303.76	2883.54
303.97	2770.90
304.19	3043.28
304.40	2805.72
304.61	3024.85
304.83	3014.61
305.04	2869.20
305.26	3065.81
305.47	2877.40
305.68	2850.77
305.90	2682.84
306.11	3131.34
306.33	2936.79
306.54	2617.30
306.75	2818.00
306.97	2775.00
307.18	2840.53
307.39	2830.29
307.61	2867.16
307.82	2942.93
308.04	3004.37
308.25	2740.18
308.46	2879.44
308.68	3039.19
308.89	2963.41
309.10	2922.45
309.32	2906.07
309.53	3028.95
309.74	3002.32
309.96	2766.81
310.17	2940.88
310.39	2844.63
310.60	3137.49
310.81	2901.97
311.03	2738.13
311.24	3209.17
311.45	2924.50
311.67	2959.31
311.88	2953.17
312.09	2914.26
312.31	2838.48
312.52	2731.99
312.73	2693.08
312.95	2789.33
313.16	2813.91
313.37	2936.79
313.59	2947.03
313.80	3106.77
314.01	3293.13
314.23	2756.57
314.44	2684.89
314.65	2840.53
314.87	2891.73
315.08	2760.66
315.29	2787.29
315.51	2852.82
315.72	2758.61
315.93	2873.30
316.15	2877.40
316.36	2879.44
316.57	3035.09
316.79	2871.25
317.00	2791.38
317.21	3102.67
317.43	2818.00
317.64	2799.57
317.85	2660.31
318.07	2768.85
318.28	2947.03
318.49	2811.86
318.70	3049.43
318.92	3022.80
319.13	3045.33
319.34	3000.27
319.56	2881.49
319.77	3131.34
319.98	3147.73
320.20	3024.85
320.41	2877.40
320.62	3057.62
320.83	2830.29
321.05	3026.90
321.26	2832.34
321.47	2992.08
321.69	3170.26
321.90	2740.18
322.11	2715.61
322.32	3080.14
322.54	3217.36
322.75	2828.24
322.96	3526.60
323.18	2756.57
323.39	2676.70
323.60	2562.01
323.81	2871.25
324.03	2838.48
324.24	2983.89
324.45	2930.64
324.66	2764.76
324.88	3012.56
325.09	3264.46
325.30	2736.09
325.52	2756.57
325.73	3039.19
325.94	2725.85
326.15	2674.65
326.37	2686.94
326.58	3243.98
326.79	3278.80
327.00	2750.42
327.22	2758.61
327.43	2930.64
327.64	2807.77
327.85	2916.31
328.07	2820.05
328.28	3272.65
328.49	2867.16
328.70	2815.96
328.92	2832.34
329.13	2906.07
329.34	3094.48
329.55	2975.70
329.76	2944.98
329.98	2944.98
330.19	3178.45
330.40	2899.92
330.61	2914.26
330.83	3149.78
331.04	2871.25
331.25	2871.25
331.46	2906.07
331.68	2721.75
331.89	3117.01
332.10	2820.05
332.31	2668.50
332.52	2983.89
332.74	3092.43
332.95	2631.64
333.16	2803.67
333.37	3037.14
333.58	2897.88
333.80	2770.90
334.01	2629.59
334.22	2959.31
334.43	2951.12
334.64	2791.38
334.86	2639.83
335.07	2775.00
335.28	3135.44
335.49	2734.04
335.70	2887.64
335.92	3239.89
336.13	3368.91
336.34	2944.98
336.55	2824.15
336.76	3067.86
336.98	2652.12
337.19	2830.29
337.40	2889.68
337.61	3473.36
337.82	2951.12
338.04	2871.25
338.25	2584.54
338.46	2893.78
338.67	2934.74
338.88	2664.41
339.09	2744.28
339.31	2928.60
339.52	2826.20
339.73	2727.89
339.94	2740.18
340.15	3160.02
340.36	2926.55
340.58	2865.11
340.79	2791.38
341.00	3071.95
341.21	2797.53
341.42	3020.75
341.63	2850.77
341.85	3135.44
342.06	2942.93
342.27	2785.24
342.48	2971.60
342.69	2766.81
342.90	3061.71
343.12	3020.75
343.33	2746.33
343.54	3221.45
343.75	3221.45
343.96	2850.77
344.17	2764.76
344.38	2932.69
344.60	2834.39
344.81	2736.09
345.02	2781.14
345.23	3233.74
345.44	3485.64
345.65	2879.44
345.86	2908.12
346.07	3117.01
346.29	2863.06
346.50	2947.03
346.71	2891.73
346.92	3256.27
347.13	3385.29
347.34	2852.82
347.55	2703.32
347.76	2994.13
347.98	2783.19
348.19	2854.87
348.40	2979.79
348.61	2879.44
348.82	3282.89
349.03	2854.87
349.24	2633.69
349.45	3227.60
349.66	2756.57
349.88	2750.42
350.09	2715.61
350.30	3325.90
350.51	3196.88
350.72	3006.42
350.93	2818.00
351.14	2928.60
351.35	3035.09
351.56	2869.20
351.77	2836.44
351.99	3045.33
352.20	3196.88
352.41	2940.88
352.62	2660.31
352.83	2973.65
353.04	3020.75
353.25	2805.72
353.46	2820.05
353.67	3225.55
353.88	2701.27
354.09	2772.95
354.30	2815.96
354.52	3096.53
354.73	2957.27
354.94	2760.66
355.15	2869.20
355.36	3280.85
355.57	2922.45
355.78	2824.15
355.99	2813.91
356.20	2953.17
356.41	3205.07
356.62	2963.41
356.83	2824.15
357.04	3221.45
357.25	2740.18
357.46	2760.66
357.68	2629.59
357.89	2791.38
358.10	2994.13
358.31	2762.71
358.52	2787.29
358.73	2787.29
358.94	2811.86
359.15	2807.77
359.36	2789.33
359.57	2963.41
359.78	2951.12
359.99	2908.12
360.20	2707.41
360.41	2889.68
360.62	3145.68
360.83	2930.64
361.04	2869.20
361.25	2967.51
361.46	3278.80
361.67	2938.84
361.88	2836.44
362.09	3125.20
362.30	2969.55
362.51	2615.26
362.72	2904.02
362.93	3092.43
363.14	3108.82
363.35	2834.39
363.56	2736.09
363.78	3166.16
363.99	3114.96
364.20	2736.09
364.41	2840.53
364.62	3393.48
364.83	2996.18
365.04	2830.29
365.25	2856.92
365.46	3434.44
365.67	2844.63
365.88	2916.31
366.09	2795.48
366.30	2967.51
366.51	2936.79
366.72	2676.70
366.93	2805.72
367.14	3012.56
367.35	3231.69
367.56	2756.57
367.77	2912.21
367.98	3055.57
368.18	3041.23
368.39	2928.60
368.60	2639.83
368.81	3125.20
369.02	3028.95
369.23	2811.86
369.44	2713.56
369.65	2795.48
369.86	3014.61
370.07	2963.41
370.28	2760.66
370.49	3078.10
370.70	3000.27
370.91	2711.51
371.12	2656.22
371.33	3170.26
371.54	2842.58
371.75	2899.92
371.96	2545.63
372.17	2979.79
372.38	3037.14
372.59	2836.44
372.80	2799.57
373.01	2916.31
373.22	2926.55
373.43	2846.68
373.64	2711.51
373.85	3194.83
374.06	3188.69
374.26	3000.27
374.47	2914.26
374.68	3221.45
374.89	3069.91
375.10	2680.79
375.31	2940.88
375.52	2971.60
375.73	3057.62
375.94	2688.98
376.15	2904.02
376.36	2861.01
376.57	2932.69
376.78	2777.05
376.99	2815.96
377.20	3127.25
377.40	2918.36
377.61	3133.39
377.82	2754.52
378.03	3241.93
378.24	3065.81
378.45	2887.64
378.66	2869.20
378.87	2697.17
379.08	2707.41
379.29	2793.43
379.50	3063.76
379.71	2957.27
379.91	3112.91
380.12	2762.71
380.33	2828.24
380.54	2926.55
380.75	3035.09
380.96	2775.00
381.17	2826.20
381.38	2949.08
381.59	2885.59
381.80	2940.88
382.00	2944.98
382.21	2994.13
382.42	3356.62
382.63	3231.69
382.84	2996.18
383.05	3145.68
383.26	3237.84
383.47	2830.29
383.68	2783.19
383.88	3018.71
384.09	2949.08
384.30	3053.52
384.51	2971.60
384.72	2883.54
384.93	2777.05
385.14	2920.40
385.35	3076.05
385.55	2731.99
385.76	3250.13
385.97	2854.87
386.18	2709.46
386.39	2887.64
386.60	2891.73
386.81	2826.20
387.02	2715.61
387.22	2725.85
387.43	3155.92
387.64	2965.46
387.85	3010.51
388.06	3059.67
388.27	4011.97
388.48	7298.96
388.68	10907.48
388.89	13299.51
389.10	14427.94
389.31	14173.99
389.52	11161.43
389.73	9779.05
389.93	8984.44
390.14	8128.39
390.35	7407.50
390.56	6647.71
390.77	5568.43
390.98	4300.73
391.18	3645.38
391.39	3430.35
391.60	3033.04
391.81	3033.04
392.02	2844.63
392.23	3325.90
392.43	3061.71
392.64	2987.99
392.85	2854.87
393.06	3295.18
393.27	2967.51
393.47	2887.64
393.68	2893.78
393.89	3002.32
394.10	3147.73
394.31	2822.10
394.52	2775.00
394.72	2944.98
394.93	3291.09
395.14	2654.17
395.35	2996.18
395.56	2809.81
395.76	3014.61
395.97	2828.24
396.18	2932.69
396.39	3049.43
396.60	3536.84
396.80	3194.83
397.01	2971.60
397.22	3074.00
397.43	3119.06
397.64	2781.14
397.84	2908.12
398.05	3338.19
398.26	2832.34
398.47	3018.71
398.67	3078.10
398.88	2969.55
399.09	3164.11
399.30	2791.38
399.51	2897.88
399.71	2854.87
399.92	2914.26
400.13	2869.20
400.34	2762.71
400.54	3037.14
400.75	3278.80
400.96	2940.88
401.17	3100.62
401.37	3028.95
401.58	2942.93
401.79	2891.73
402.00	2930.64
402.21	3442.64
402.41	3125.20
402.62	3119.06
402.83	3174.35
403.04	3350.48
403.24	3682.25
403.45	2918.36
403.66	3133.39
403.87	3172.30
404.07	3203.02
404.28	3047.38
404.49	3117.01
404.70	3014.61
404.90	3110.86
405.11	2723.80
405.32	3024.85
405.52	2975.70
405.73	2906.07
405.94	2715.61
406.15	2908.12
406.35	3149.78
406.56	3117.01
406.77	2861.01
406.98	2932.69
407.18	2873.30
407.39	3231.69
407.60	2883.54
407.80	2957.27
408.01	2828.24
408.22	3076.05
408.43	2787.29
408.63	2934.74
408.84	3164.11
409.05	3104.72
409.25	2736.09
409.46	2789.33
409.67	2924.50
409.88	2832.34
410.08	2869.20
410.29	2811.86
410.50	3106.77
410.70	3108.82
410.91	2783.19
411.12	2918.36
411.32	2965.46
411.53	2836.44
411.74	2885.59
411.95	2973.65
412.15	2977.75
412.36	3153.87
412.57	2969.55
412.77	3016.66
412.98	2971.60
413.19	2805.72
413.39	2914.26
413.60	2926.55
413.81	3188.69
414.01	2822.10
414.22	2863.06
414.43	2930.64
414.63	2871.25
414.84	3192.78
415.05	2848.72
415.25	2725.85
415.46	3104.72
415.67	2836.44
415.87	2858.96
416.08	2813.91
416.29	2881.49
416.49	3067.86
416.70	2863.06
416.91	2807.77
417.11	3014.61
417.32	3178.45
417.53	2987.99
417.73	2873.30
417.94	2990.03
418.15	3002.32
418.35	2867.16
418.56	2840.53
418.77	3368.91
418.97	3022.80
419.18	2836.44
419.38	2582.49
419.59	3014.61
419.80	3280.85
420.00	2736.09
420.21	2942.93
420.42	3241.93
420.62	3094.48
420.83	2805.72
421.04	2838.48
421.24	2967.51
421.45	3092.43
421.65	2879.44
421.86	2912.21
422.07	3100.62
422.27	3028.95
422.48	2789.33
422.69	2652.12
422.89	3022.80
423.10	2916.31
423.30	2807.77
423.51	2830.29
423.72	3098.58
423.92	3160.02
424.13	2713.56
424.33	2891.73
424.54	3133.39
424.75	3033.04
424.95	3065.81
425.16	2846.68
425.36	3026.90
425.57	3192.78
425.78	2979.79
425.98	2983.89
426.19	2901.97
426.39	2783.19
426.60	2811.86
426.81	2990.03
427.01	2969.55
427.22	2865.11
427.42	2648.02
427.63	2838.48
427.83	3112.91
428.04	3270.61
428.25	2920.40
428.45	2901.97
428.66	3151.82
428.86	2961.36
429.07	2797.53
429.28	2789.33
429.48	3010.51
429.69	2856.92
429.89	2899.92
430.10	2834.39
430.30	3094.48
430.51	3190.74
430.71	2807.77
430.92	2828.24
431.13	2957.27
431.33	3030.99
431.54	2926.55
431.74	3069.91
431.95	3364.81
432.15	2822.10
432.36	2828.24
432.56	2983.89
432.77	3289.04
432.98	3270.61
433.18	2885.59
433.39	2715.61
433.59	2912.21
433.80	3422.16
434.00	3080.14
434.21	2830.29
434.41	2863.06
434.62	3377.10
434.82	2715.61
435.03	2881.49
435.23	3030.99
435.44	2693.08
435.64	2815.96
435.85	2957.27
436.06	3084.24
436.26	3178.45
436.47	2795.48
436.67	2754.52
436.88	2922.45
437.08	3131.34
437.29	3030.99
437.49	2936.79
437.70	3219.41
437.90	2875.35
438.11	3100.62
438.31	2897.88
438.52	3211.22
438.72	3203.02
438.93	3157.97
439.13	2908.12
439.34	3108.82
439.54	2912.21
439.75	2977.75
439.95	2904.02
440.16	2899.92
440.36	3016.66
440.57	2861.01
440.77	2846.68
440.98	3043.28
441.18	3127.25
441.39	2772.95
441.59	2719.70
441.80	3313.61
442.00	3045.33
442.21	2934.74
442.41	2744.28
442.62	3102.67
442.82	2906.07
443.02	2836.44
443.23	2818.00
443.43	2973.65
443.64	3192.78
443.84	2840.53
444.05	2959.31
444.25	2961.36
444.46	2854.87
444.66	2873.30
444.87	3147.73
445.07	2715.61
445.28	3024.85
445.48	3020.75
445.69	2934.74
445.89	3381.20
446.09	2854.87
446.30	3180.50
446.50	3182.54
446.71	4683.70
446.91	5769.13
447.12	6438.81
447.32	6956.95
447.53	6682.52
447.73	5633.96
447.93	5033.91
448.14	4859.83
448.34	4790.20
448.55	4034.50
448.75	4022.21
448.96	3704.78
449.16	3583.95
449.36	3598.28
449.57	3086.29
449.77	2865.11
449.98	2914.26
450.18	3061.71
450.39	2871.25
450.59	2992.08
450.79	3012.56
451.00	2775.00
451.20	3076.05
451.41	2842.58
451.61	3053.52
451.81	2901.97
452.02	2856.92
452.22	2834.39
452.43	2887.64
452.63	2865.11
452.84	2881.49
453.04	2838.48
453.24	3078.10
453.45	2934.74
453.65	2785.24
453.86	2889.68
454.06	2994.13
454.26	3069.91
454.47	2742.23
454.67	3014.61
454.87	3043.28
455.08	2963.41
455.28	2969.55
455.49	2953.17
455.69	2852.82
455.89	3330.00
456.10	2951.12
456.30	2889.68
456.51	3157.97
456.71	3004.37
456.91	2965.46
457.12	2852.82
457.32	2963.41
457.52	2764.76
457.73	3018.71
457.93	2987.99
458.14	2914.26
458.34	2727.89
458.54	2901.97
458.75	2811.86
458.95	3160.02
459.15	3078.10
459.36	2910.16
459.56	2938.84
459.76	3373.00
459.97	3022.80
460.17	2854.87
460.37	2965.46
460.58	3026.90
460.78	3080.14
460.99	2809.81
461.19	2842.58
461.39	2856.92
461.60	2861.01
461.80	2928.60
462.00	2674.65
462.21	2959.31
462.41	2836.44
462.61	2725.85
462.82	2645.98
463.02	3117.01
463.22	2973.65
463.43	2934.74
463.63	2822.10
463.83	3243.98
464.04	3117.01
464.24	2926.55
464.44	2772.95
464.64	3059.67
464.85	3123.15
465.05	2918.36
465.25	2781.14
465.46	2834.39
465.66	3067.86
465.86	2926.55
466.07	2799.57
466.27	2904.02
466.47	2756.57
466.68	2674.65
466.88	3002.32
467.08	3024.85
467.29	3117.01
467.49	2854.87
467.69	3004.37
467.89	3100.62
468.10	2973.65
468.30	2924.50
468.50	2904.02
468.71	3143.63
468.91	2830.29
469.11	3053.52
469.31	2893.78
469.52	2893.78
469.72	3293.13
469.92	3162.06
470.13	2865.11
470.33	2985.94
470.53	3016.66
470.73	3198.93
470.94	3497.93
471.14	3534.79
471.34	4114.37
471.54	3864.52
471.75	3598.28
471.95	3416.01
472.15	3375.05
472.36	3305.42
472.56	3184.59
472.76	3467.21
472.96	3317.71
473.17	3104.72
473.37	3039.19
473.57	2928.60
473.77	3080.14
473.98	2926.55
474.18	2703.32
474.38	3512.27
474.58	2830.29
474.79	2695.13
474.99	3041.23
475.19	3227.60
475.39	2789.33
475.60	2895.83
475.80	2813.91
476.00	3041.23
476.20	2899.92
476.41	2955.22
476.61	2885.59
476.81	3221.45
477.01	2852.82
477.21	3053.52
477.42	2910.16
477.62	2848.72
477.82	3127.25
478.02	2826.20
478.23	2820.05
478.43	2838.48
478.63	2934.74
478.83	2838.48
479.03	2918.36
479.24	3248.08
479.44	3391.44
479.64	2727.89
479.84	2688.98
480.04	2916.31
480.25	3180.50
480.45	2760.66
480.65	2836.44
480.85	3280.85
481.06	2944.98
481.26	2904.02
481.46	2850.77
481.66	3053.52
481.86	2838.48
482.06	3043.28
482.27	2918.36
482.47	2908.12
482.67	3055.57
482.87	2826.20
483.07	3006.42
483.28	2869.20
483.48	2768.85
483.68	2883.54
483.88	2781.14
484.08	2711.51
484.29	2762.71
484.49	2924.50
484.69	2750.42
484.89	3221.45
485.09	3196.88
485.29	2897.88
485.50	3000.27
485.70	2818.00
485.90	3256.27
486.10	3004.37
486.30	2887.64
486.50	3207.12
486.71	3098.58
486.91	2971.60
487.11	2949.08
487.31	2828.24
487.51	3094.48
487.71	2770.90
487.91	2742.23
488.12	2742.23
488.32	2617.30
488.52	2815.96
488.72	2539.48
488.92	2938.84
489.12	3229.65
489.32	3002.32
489.53	2926.55
489.73	2760.66
489.93	3344.33
490.13	2758.61
490.33	2697.17
490.53	3114.96
490.73	3180.50
490.94	2660.31
491.14	2983.89
491.34	3139.54
491.54	3069.91
491.74	3635.14
491.94	4140.99
492.14	4632.51
492.34	4691.90
492.54	4323.26
492.75	3770.31
492.95	3954.63
493.15	3573.71
493.35	3502.03
493.55	3477.45
493.75	3293.13
493.95	3510.22
494.15	3098.58
494.35	2901.97
494.56	2922.45
494.76	2873.30
494.96	2985.94
495.16	2904.02
495.36	2865.11
495.56	3074.00
495.76	2875.35
495.96	2764.76
496.16	2842.58
496.36	3358.67
496.56	2844.63
496.77	2869.20
496.97	3028.95
497.17	3274.70
497.37	2682.84
497.57	2932.69
497.77	2932.69
497.97	2869.20
498.17	2850.77
498.37	2832.34
498.57	3147.73
498.77	2959.31
498.97	2994.13
499.17	3225.55
499.38	3000.27
499.58	2967.51
499.78	2983.89
499.98	3049.43
500.18	2922.45
500.38	2895.83
500.58	3125.20
500.78	3411.92
500.98	5461.93
501.18	7360.40
501.38	8654.72
501.58	9738.09
501.78	9502.58
501.98	7925.64
502.18	6881.18
502.38	5904.29
502.58	5709.74
502.78	4978.61
502.98	4767.67
503.18	4687.80
503.38	4313.02
503.59	3868.61
503.79	3708.87
503.99	3438.54
504.19	3463.12
504.39	3405.77
504.59	3301.33
504.79	3164.11
504.99	3495.88
505.19	3196.88
505.39	3076.05
505.59	3200.98
505.79	3325.90
505.99	3149.78
506.19	2897.88
506.39	3102.67
506.59	2863.06
506.79	2938.84
506.99	2973.65
507.19	2889.68
507.39	2981.84
507.59	2840.53
507.79	2834.39
507.99	2789.33
508.19	3037.14
508.39	2904.02
508.59	2863.06
508.79	2959.31
508.99	3375.05
509.19	2807.77
509.39	2893.78
509.59	2791.38
509.79	2910.16
509.99	3082.19
510.19	3014.61
510.39	3037.14
510.59	2969.55
510.79	2924.50
510.99	2664.41
511.19	2807.77
511.39	3215.31
511.59	3229.65
511.79	3039.19
511.99	2906.07
512.19	3301.33
512.38	3039.19
512.58	2805.72
512.78	2834.39
512.98	3209.17
513.18	3284.94
513.38	2701.27
513.58	2955.22
513.78	2969.55
513.98	2998.23
514.18	2832.34
514.38	2826.20
514.58	3002.32
514.78	2887.64
514.98	2758.61
515.18	2856.92
515.38	2787.29
515.58	3291.09
515.78	2799.57
515.98	2867.16
516.18	3162.06
516.38	3004.37
516.57	2740.18
516.77	2748.37
516.97	3149.78
517.17	2910.16
517.37	2623.45
517.57	2922.45
517.77	3043.28
517.97	2838.48
518.17	2910.16
518.37	2717.65
518.57	2861.01
518.77	2940.88
518.97	2828.24
519.16	2932.69
519.36	3155.92
519.56	2856.92
519.76	2863.06
519.96	2914.26
520.16	3223.50
520.36	2760.66
520.56	3057.62
520.76	2932.69
520.96	2949.08
521.16	3127.25
521.35	3061.71
521.55	2975.70
521.75	3006.42
521.95	2846.68
522.15	2807.77
522.35	2664.41
522.55	2852.82
522.75	3172.30
522.95	2858.96
523.14	2699.22
523.34	3119.06
523.54	2858.96
523.74	2926.55
523.94	2934.74
524.14	2727.89
524.34	3033.04
524.54	3059.67
524.73	2916.31
524.93	3112.91
525.13	2977.75
525.33	2824.15
525.53	3121.10
525.73	3131.34
525.93	2910.16
526.13	2869.20
526.32	2799.57
526.52	3123.15
526.72	3131.34
526.92	2901.97
527.12	2787.29
527.32	2740.18
527.52	3024.85
527.71	2942.93
527.91	2930.64
528.11	2975.70
528.31	2963.41
528.51	2772.95
528.71	2985.94
528.90	2990.03
529.10	3215.31
529.30	2947.03
529.50	2584.54
529.70	3061.71
529.90	2930.64
530.09	2824.15
530.29	2725.85
530.49	2873.30
530.69	3416.01
530.89	3022.80
531.09	2920.40
531.28	2875.35
531.48	3145.68
531.68	2885.59
531.88	2918.36
532.08	3114.96
532.28	2932.69
532.47	3010.51
532.67	2994.13
532.87	3057.62
533.07	2787.29
533.27	2955.22
533.46	2901.97
533.66	3074.00
533.86	2840.53
534.06	2850.77
534.26	2830.29
534.45	3008.47
534.65	3149.78
534.85	3002.32
535.05	2740.18
535.25	3174.35
535.44	2699.22
535.64	2904.02
535.84	2887.64
536.04	2830.29
536.24	2908.12
536.43	2754.52
536.63	2904.02
536.83	3045.33
537.03	2961.36
537.22	2654.17
537.42	2656.22
537.62	3002.32
537.82	2807.77
538.02	3143.63
538.21	2998.23
538.41	3581.90
538.61	3125.20
538.81	2869.20
539.00	2959.31
539.20	2709.46
539.40	2865.11
539.60	2873.30
539.79	3030.99
539.99	2881.49
540.19	2791.38
540.39	2777.05
540.58	2930.64
540.78	3194.83
540.98	3026.90
541.18	2965.46
541.37	2932.69
541.57	3035.09
541.77	3014.61
541.97	2787.29
542.16	2684.89
542.36	2869.20
542.56	2920.40
542.76	3104.72
542.95	2957.27
543.15	3117.01
543.35	3061.71
543.54	2779.09
543.74	2791.38
543.94	3200.98
544.14	2858.96
544.33	2949.08
544.53	2826.20
544.73	2914.26
544.93	2861.01
545.12	2832.34
545.32	2885.59
545.52	2949.08
545.71	2772.95
545.91	2766.81
546.11	2848.72
546.30	2867.16
546.50	2942.93
546.70	2951.12
546.90	2889.68
547.09	2660.31
547.29	2951.12
547.49	2955.22
547.68	2863.06
547.88	2924.50
548.08	3000.27
548.27	3155.92
548.47	2809.81
548.67	2848.72
548.87	3059.67
549.06	2867.16
549.26	2834.39
549.46	3000.27
549.65	2871.25
549.85	2856.92
550.05	2883.54
550.24	2736.09
550.44	3000.27
550.64	2861.01
550.83	2897.88
551.03	3180.50
551.23	3168.21
551.42	2987.99
551.62	2865.11
551.82	2973.65
552.01	2959.31
552.21	3035.09
552.41	2916.31
552.60	3252.17
552.80	3024.85
553.00	2883.54
553.19	2899.92
553.39	3235.79
553.59	2752.47
553.78	3053.52
553.98	2891.73
554.17	2727.89
554.37	3047.38
554.57	2963.41
554.76	2680.79
554.96	2863.06
555.16	3004.37
555.35	2965.46
555.55	2983.89
555.75	3008.47
555.94	3104.72
556.14	2676.70
556.33	2908.12
556.53	2887.64
556.73	2994.13
556.92	2947.03
557.12	2852.82
557.32	3377.10
557.51	3217.36
557.71	2901.97
557.90	3002.32
558.10	3184.59
558.30	2891.73
558.49	2899.92
558.69	2899.92
558.88	3051.47
559.08	3020.75
559.28	2752.47
559.47	2938.84
559.67	3045.33
559.86	3311.57
560.06	2770.90
560.26	2967.51
560.45	3049.43
560.65	2904.02
560.84	3106.77
561.04	2768.85
561.24	3065.81
561.43	2852.82
561.63	3106.77
561.82	2967.51
562.02	3133.39
562.22	2770.90
562.41	2793.43
562.61	2811.86
562.80	2815.96
563.00	3436.49
563.19	2897.88
563.39	2940.88
563.59	3067.86
563.78	2820.05
563.98	2648.02
564.17	2824.15
564.37	2707.41
564.56	2930.64
564.76	2723.80
564.96	2922.45
565.15	3074.00
565.35	3303.37
565.54	2850.77
565.74	2914.26
565.93	3061.71
566.13	2920.40
566.32	2877.40
566.52	2934.74
566.71	3022.80
566.91	3162.06
567.11	2930.64
567.30	2752.47
567.50	3051.47
567.69	3133.39
567.89	2906.07
568.08	2811.86
568.28	2987.99
568.47	2746.33
568.67	2863.06
568.86	2828.24
569.06	3143.63
569.25	2924.50
569.45	2676.70
569.64	2940.88
569.84	2955.22
570.04	2987.99
570.23	2842.58
570.43	2869.20
570.62	3074.00
570.82	3205.07
571.01	2754.52
571.21	2787.29
571.40	2854.87
571.60	3139.54
571.79	2936.79
571.99	2818.00
572.18	2848.72
572.38	2975.70
572.57	2844.63
572.77	2861.01
572.96	3403.72
573.16	3012.56
573.35	2865.11
573.55	3010.51
573.74	3002.32
573.94	2930.64
574.13	2869.20
574.33	3000.27
574.52	3274.70
574.71	3022.80
574.91	2891.73
575.10	2736.09
575.30	2975.70
575.49	2766.81
575.69	2828.24
575.88	2887.64
576.08	2949.08
576.27	3174.35
576.47	2811.86
576.66	2981.84
576.86	3229.65
577.05	3063.76
577.25	2932.69
577.44	2998.23
577.64	2949.08
577.83	3084.24
578.02	2863.06
578.22	3092.43
578.41	3237.84
578.61	2928.60
578.80	2779.09
579.00	2891.73
579.19	2938.84
579.39	3119.06
579.58	2973.65
579.77	2953.17
579.97	3178.45
580.16	3196.88
580.36	3022.80
580.55	2918.36
580.75	3024.85
580.94	2973.65
581.13	3010.51
581.33	3139.54
581.52	3053.52
581.72	3325.90
581.91	2985.94
582.11	2856.92
582.30	3127.25
582.49	3098.58
582.69	3071.95
582.88	2871.25
583.08	2971.60
583.27	3114.96
583.47	2953.17
583.66	2795.48
583.85	2834.39
584.05	2887.64
584.24	2947.03
584.44	2893.78
584.63	3223.50
584.82	3186.64
585.02	3102.67
585.21	2990.03
585.41	3059.67
585.60	3043.28
585.79	3147.73
585.99	3153.87
586.18	3016.66
586.37	3903.43
586.57	5810.09
586.76	16611.07
586.96	35597.79
587.15	48817.43
587.34	56898.72
587.54	61422.68
587.73	54658.24
587.93	38968.75
588.12	29554.24
588.31	24127.12
588.51	21401.27
588.70	19785.43
588.89	17420.02
589.09	14606.11
589.28	12560.19
589.47	9838.44
589.67	7546.76
589.86	6014.88
590.06	4605.88
590.25	4120.51
590.44	3549.13
590.64	3282.89
590.83	3231.69
591.02	3203.02
591.22	2963.41
591.41	2928.60
591.60	2875.35
591.80	3393.48
591.99	2727.89
592.18	2805.72
592.38	3149.78
592.57	2906.07
592.76	2865.11
592.96	3026.90
593.15	2975.70
593.34	3200.98
593.54	2891.73
593.73	2979.79
593.92	3045.33
594.12	3104.72
594.31	2877.40
594.50	3106.77
594.70	3131.34
594.89	3528.65
595.08	2762.71
595.28	3129.30
595.47	3536.84
595.66	3155.92
595.86	2762.71
596.05	2797.53
596.24	2908.12
596.43	3377.10
596.63	2947.03
596.82	2977.75
597.01	3008.47
597.21	3330.00
597.40	2785.24
597.59	2877.40
597.79	2949.08
597.98	3123.15
598.17	2897.88
598.36	2836.44
598.56	3178.45
598.75	2918.36
598.94	2914.26
599.14	2885.59
599.33	2965.46
599.52	3180.50
599.71	2867.16
599.91	2992.08
600.10	3080.14
600.29	2930.64
600.48	2965.46
600.68	2971.60
600.87	3086.29
601.06	2826.20
601.26	2840.53
601.45	2973.65
601.64	2783.19
601.83	3143.63
602.03	2775.00
602.22	2785.24
602.41	3143.63
602.60	3379.15
602.80	3014.61
602.99	2918.36
603.18	2856.92
603.37	3074.00
603.57	2846.68
603.76	2914.26
603.95	3170.26
604.14	2951.12
604.34	2777.05
604.53	2834.39
604.72	3012.56
604.91	3139.54
605.10	2908.12
605.30	2693.08
605.49	3368.91
605.68	3176.40
605.87	2918.36
606.07	2858.96
606.26	2971.60
606.45	3043.28
606.64	2895.83
606.84	2738.13
607.03	2992.08
607.22	3219.41
607.41	2867.16
607.60	2852.82
607.80	3235.79
607.99	2955.22
608.18	2875.35
608.37	2854.87
608.56	2842.58
608.76	3188.69
608.95	3074.00
609.14	2840.53
609.33	3125.20
609.52	3248.08
609.72	2983.89
609.91	2918.36
610.10	2996.18
610.29	3231.69
610.48	2969.55
610.68	2985.94
610.87	3028.95
611.06	3096.53
611.25	2846.68
611.44	2940.88
611.63	2922.45
611.83	3110.86
612.02	2822.10
612.21	3000.27
612.40	2682.84
612.59	2873.30
612.79	2783.19
612.98	2947.03
613.17	3426.25
613.36	2916.31
613.55	3010.51
613.74	2897.88
613.93	2959.31
614.13	3039.19
614.32	3041.23
614.51	2924.50
614.70	3000.27
614.89	2891.73
615.08	2973.65
615.28	3286.99
615.47	2832.34
615.66	3086.29
615.85	2928.60
616.04	2942.93
616.23	3024.85
616.42	3028.95
616.62	2861.01
616.81	2895.83
617.00	2983.89
617.19	3106.77
617.38	2858.96
617.57	2944.98
617.76	3090.38
617.95	3176.40
618.15	2983.89
618.34	3182.54
618.53	2777.05
618.72	3213.26
618.91	2973.65
619.10	2987.99
619.29	2910.16
619.48	3061.71
619.68	2717.65
619.87	2795.48
620.06	2777.05
620.25	3051.47
620.44	2904.02
620.63	2762.71
620.82	3121.10
621.01	2953.17
621.20	2912.21
621.39	2881.49
621.59	3061.71
621.78	2961.36
621.97	2875.35
622.16	3049.43
622.35	3004.37
622.54	3108.82
622.73	2994.13
622.92	2613.21
623.11	3121.10
623.30	2940.88
623.49	2961.36
623.68	2731.99
623.88	3289.04
624.07	2852.82
624.26	2832.34
624.45	2949.08
624.64	2928.60
624.83	3078.10
625.02	2867.16
625.21	2828.24
625.40	3076.05
625.59	3221.45
625.78	2914.26
625.97	3000.27
626.16	3221.45
626.35	3069.91
626.54	2889.68
626.74	3071.95
626.93	2965.46
627.12	2918.36
627.31	2967.51
627.50	2871.25
627.69	3069.91
627.88	2930.64
628.07	2826.20
628.26	2734.04
628.45	2877.40
628.64	2746.33
628.83	2824.15
629.02	2781.14
629.21	3082.19
629.40	3065.81
629.59	2799.57
629.78	2820.05
629.97	2965.46
630.16	2947.03
630.35	2877.40
630.54	2897.88
630.73	2861.01
630.92	2965.46
631.11	2791.38
631.30	2848.72
631.49	3178.45
631.68	2951.12
631.87	2856.92
632.06	2820.05
632.25	3403.72
632.44	2987.99
632.63	2936.79
632.82	2908.12
633.01	2852.82
633.20	3030.99
633.39	2836.44
633.58	2582.49
633.77	3041.23
633.96	3053.52
634.15	3016.66
634.34	2836.44
634.53	3020.75
634.72	2893.78
634.91	2678.74
635.10	2858.96
635.29	3129.30
635.48	2951.12
635.67	2783.19
635.86	2693.08
636.05	3149.78
636.24	2983.89
636.43	2811.86
636.62	2961.36
636.81	2572.25
637.00	2924.50
637.19	2875.35
637.38	2852.82
637.57	2924.50
637.76	3018.71
637.95	3092.43
638.14	2805.72
638.33	3033.04
638.52	2990.03
638.71	2764.76
638.89	2729.94
639.08	3461.07
639.27	3131.34
639.46	2967.51
639.65	3321.81
639.84	3489.74
640.03	3502.03
640.22	3196.88
640.41	3362.76
640.60	3039.19
640.79	3184.59
640.98	2961.36
641.17	3010.51
641.36	3160.02
641.55	3139.54
641.74	2678.74
641.92	2785.24
642.11	2795.48
642.30	2854.87
642.49	2727.89
642.68	2744.28
642.87	3112.91
643.06	3155.92
643.25	2719.70
643.44	2793.43
643.63	2940.88
643.82	3123.15
644.00	2801.62
644.19	2932.69
644.38	2846.68
644.57	3100.62
644.76	2924.50
644.95	2871.25
645.14	3059.67
645.33	2951.12
645.52	3026.90
645.71	2707.41
645.89	2801.62
646.08	2934.74
646.27	2891.73
646.46	3059.67
646.65	2789.33
646.84	2973.65
647.03	2734.04
647.22	3020.75
647.40	3049.43
647.59	2967.51
647.78	2668.50
647.97	2832.34
648.16	2865.11
648.35	3258.32
648.54	3125.20
648.73	2840.53
648.91	3076.05
649.10	3037.14
649.29	2770.90
649.48	2883.54
649.67	3057.62
649.86	2981.84
650.05	2922.45
650.23	3104.72
650.42	2875.35
650.61	3160.02
650.80	3030.99
650.99	3090.38
651.18	3129.30
651.36	3170.26
651.55	2791.38
651.74	3049.43
651.93	2959.31
652.12	2861.01
652.31	2863.06
652.49	2928.60
652.68	2955.22
652.87	3221.45
653.06	2951.12
653.25	3162.06
653.44	3020.75
653.62	3278.80
653.81	2891.73
654.00	2791.38
654.19	3078.10
654.38	3393.48
654.56	2951.12
654.75	2750.42
654.94	3102.67
655.13	3008.47
655.32	2889.68
655.51	2953.17
655.69	2871.25
655.88	3174.35
656.07	2670.55
656.26	2942.93
656.45	2830.29
656.63	3049.43
656.82	2856.92
657.01	3074.00
657.20	2869.20
657.38	3164.11
657.57	2846.68
657.76	2740.18
657.95	3172.30
658.14	2895.83
658.32	2914.26
658.51	2738.13
658.70	3016.66
658.89	3024.85
659.08	2906.07
659.26	3094.48
659.45	2770.90
659.64	3135.44
659.83	2828.24
660.01	3307.47
660.20	2987.99
660.39	3266.51
660.58	2629.59
660.76	2912.21
660.95	2760.66
661.14	2908.12
661.33	2701.27
661.51	2785.24
661.70	2936.79
661.89	3047.38
662.08	2899.92
662.26	2744.28
662.45	2752.47
662.64	3311.57
662.83	2983.89
663.01	2777.05
663.20	2914.26
663.39	3235.79
663.58	2848.72
663.76	2807.77
663.95	3110.86
664.14	2820.05
664.32	2848.72
664.51	2760.66
664.70	2731.99
664.89	3067.86
665.07	2760.66
665.26	3033.04
665.45	2699.22
665.64	3000.27
665.82	2893.78
666.01	2959.31
666.20	2754.52
666.38	3184.59
666.57	3129.30
666.76	4814.77
666.95	11089.75
667.13	17573.62
667.32	21477.05
667.51	24288.91
667.69	25134.72
667.88	21184.19
668.07	15327.00
668.25	12943.16
668.44	11286.36
668.63	9594.73
668.81	8550.27
669.00	7286.67
669.19	6686.62
669.38	6023.08
669.56	5113.78
669.75	4313.02
669.94	3917.76
670.12	3442.64
670.31	3200.98
670.50	3131.34
670.68	3207.12
670.87	3094.48
671.06	2897.88
671.24	2936.79
671.43	3213.26
671.62	2973.65
671.80	2809.81
671.99	2875.35
672.18	3065.81
672.36	3139.54
672.55	2910.16
672.74	2904.02
672.92	2867.16
673.11	3135.44
673.29	2736.09
673.48	2983.89
673.67	2895.83
673.85	3129.30
674.04	2822.10
674.23	2893.78
674.41	3315.66
674.60	2836.44
674.79	2699.22
674.97	2797.53
675.16	3106.77
675.34	3123.15
675.53	2803.67
675.72	2938.84
675.90	3344.33
676.09	2850.77
676.28	2899.92
676.46	2688.98
676.65	3123.15
676.83	2863.06
677.02	2914.26
677.21	3000.27
677.39	2979.79
677.58	2885.59
677.77	2762.71
677.95	2713.56
678.14	3000.27
678.32	2867.16
678.51	2906.07
678.70	3237.84
678.88	2867.16
679.07	3006.42
679.25	2895.83
679.44	2914.26
679.63	2734.04
679.81	3047.38
680.00	3086.29
680.18	2951.12
680.37	3313.61
680.55	3026.90
680.74	2856.92
680.93	2680.79
681.11	3078.10
681.30	2994.13
681.48	2947.03
681.67	2840.53
681.85	3018.71
682.04	2772.95
682.23	3010.51
682.41	2957.27
682.60	2850.77
682.78	2985.94
682.97	2744.28
683.15	2875.35
683.34	2996.18
683.53	3215.31
683.71	2768.85
683.90	2975.70
684.08	3319.76
684.27	2904.02
684.45	2942.93
684.64	3069.91
684.82	2947.03
685.01	3063.76
685.19	2828.24
685.38	3125.20
685.57	3028.95
685.75	2914.26
685.94	2758.61
686.12	2850.77
686.31	2920.40
686.49	3229.65
686.68	2744.28
686.86	2889.68
687.05	2885.59
687.23	3223.50
687.42	2830.29
687.60	2703.32
687.79	3137.49
687.97	3248.08
688.16	2957.27
688.34	2985.94
688.53	2713.56
688.71	3133.39
688.90	3078.10
689.08	2891.73
689.27	2717.65
689.45	3133.39
689.64	2973.65
689.82	2940.88
690.01	2926.55
690.19	3094.48
690.38	2920.40
690.56	3002.32
690.75	2740.18
690.93	2940.88
691.12	2858.96
691.30	2928.60
691.49	2977.75
691.67	3004.37
691.86	3282.89
692.04	2848.72
692.23	2936.79
692.41	2969.55
692.60	3215.31
692.78	3117.01
692.97	2957.27
693.15	3117.01
693.34	3092.43
693.52	3149.78
693.71	2867.16
693.89	2914.26
694.08	2725.85
694.26	2877.40
694.44	3205.07
694.63	3125.20
694.81	2748.37
695.00	2787.29
695.18	3223.50
695.37	3456.97
695.55	2881.49
695.74	2861.01
695.92	2871.25
696.10	3188.69
696.29	2731.99
696.47	2785.24
696.66	2830.29
696.84	2779.09
697.03	2830.29
697.21	3088.34
697.40	4370.37
697.58	3186.64
697.76	2762.71
697.95	2805.72
698.13	2762.71
698.32	2928.60
698.50	2875.35
698.68	2850.77
698.87	3069.91
699.05	3174.35
699.24	2811.86
699.42	2736.09
699.61	3041.23
699.79	2963.41
699.97	2854.87
700.16	2738.13
700.34	2811.86
700.53	2981.84
700.71	2979.79
700.89	2969.55
701.08	2965.46
701.26	2977.75
701.45	3227.60
701.63	2832.34
701.81	2856.92
702.00	2885.59
702.18	2955.22
702.37	2813.91
702.55	3215.31
702.73	3057.62
702.92	2889.68
703.10	3125.20
703.28	3209.17
703.47	2822.10
703.65	3112.91
703.84	3012.56
704.02	2875.35
704.20	3188.69
704.39	2838.48
704.57	2824.15
704.75	3170.26
704.94	3043.28
705.12	3037.14
705.30	3520.46
705.49	6668.19
705.67	13039.42
705.86	18134.76
706.04	20895.43
706.22	22892.19
706.41	22175.41
706.59	17006.33
706.77	13233.97
706.96	11437.91
707.14	10145.64
707.32	9031.54
707.51	8040.33
707.69	6461.34
707.87	5380.01
708.06	4513.72
708.24	3930.05
708.42	3585.99
708.61	3770.31
708.79	2947.03
708.97	2842.58
709.16	3065.81
709.34	3018.71
709.52	2846.68
709.71	2852.82
709.89	3174.35
710.07	2750.42
710.26	2781.14
710.44	2838.48
710.62	3143.63
710.80	2985.94
710.99	2934.74
711.17	2936.79
711.35	2885.59
711.54	2879.44
711.72	2998.23
711.90	2920.40
712.09	3119.06
712.27	2842.58
712.45	3022.80
712.63	2828.24
712.82	3026.90
713.00	2961.36
713.18	2985.94
713.37	2975.70
713.55	3094.48
713.73	3123.15
713.91	3010.51
714.10	2908.12
714.28	2877.40
714.46	3030.99
714.65	2922.45
714.83	2893.78
715.01	2963.41
715.19	3026.90
715.38	2846.68
715.56	3030.99
715.74	2832.34
715.92	2877.40
716.11	3182.54
716.29	2605.02
716.47	2977.75
716.65	2908.12
716.84	2703.32
717.02	2936.79
717.20	2748.37
717.38	2906.07
717.57	3010.51
717.75	2969.55
717.93	2881.49
718.11	3082.19
718.30	2809.81
718.48	2928.60
718.66	3172.30
718.84	3166.16
719.03	2889.68
719.21	2729.94
719.39	3282.89
719.57	3074.00
719.75	2992.08
719.94	2848.72
720.12	2914.26
720.30	2967.51
720.48	2973.65
720.67	2807.77
720.85	2795.48
721.03	2873.30
721.21	2762.71
721.39	2990.03
721.58	3016.66
721.76	3008.47
721.94	2875.35
722.12	2965.46
722.30	3178.45
722.49	2885.59
722.67	2906.07
722.85	2881.49
723.03	2783.19
723.21	2906.07
723.40	2936.79
723.58	3033.04
723.76	3016.66
723.94	3145.68
724.12	2912.21
724.30	3035.09
724.49	3117.01
724.67	2846.68
724.85	2938.84
725.03	2758.61
725.21	3059.67
725.40	3178.45
725.58	2824.15
725.76	3057.62
725.94	3155.92
726.12	2820.05
726.30	2914.26
726.49	2826.20
726.67	2881.49
726.85	3102.67
727.03	3446.73
727.21	4353.98
727.39	5568.43
727.57	5941.16
727.76	6356.90
727.94	6289.31
728.12	5574.57
728.30	4593.59
728.48	4386.75
728.66	4179.90
728.84	3938.24
729.03	3573.71
729.21	3334.09
729.39	3229.65
729.57	3076.05
729.75	3067.86
729.93	2922.45
730.11	2875.35
730.30	2928.60
730.48	3008.47
730.66	2906.07
730.84	2926.55
731.02	2981.84
731.20	2889.68
731.38	2942.93
731.56	2791.38
731.74	2797.53
731.93	3035.09
732.11	2944.98
732.29	2807.77
732.47	3104.72
732.65	2987.99
732.83	3110.86
733.01	2930.64
733.19	2867.16
733.37	3065.81
733.56	2910.16
733.74	2764.76
733.92	3215.31
734.10	2885.59
734.28	2959.31
734.46	2641.88
734.64	2971.60
734.82	2914.26
735.00	2826.20
735.18	2793.43
735.36	3086.29
735.54	2953.17
735.73	2822.10
735.91	3051.47
736.09	3188.69
736.27	2990.03
736.45	2981.84
736.63	2568.15
736.81	2875.35
736.99	3196.88
737.17	3092.43
737.35	2750.42
737.53	2985.94
737.71	2949.08
737.89	3069.91
738.07	2775.00
738.25	2865.11
738.43	2799.57
738.61	2924.50
738.80	2760.66
738.98	2820.05
739.16	2918.36
739.34	2799.57
739.52	3160.02
739.70	2922.45
739.88	3131.34
740.06	3076.05
740.24	2652.12
740.42	3157.97
740.60	2697.17
740.78	2904.02
740.96	2545.63
741.14	2908.12
741.32	3020.75
741.50	2713.56
741.68	3114.96
741.86	3196.88
742.04	2809.81
742.22	2805.72
742.40	2973.65
742.58	3151.82
742.76	2828.24
742.94	3063.76
743.12	2725.85
743.30	3014.61
743.48	3078.10
743.66	2770.90
743.84	2928.60
744.02	2953.17
744.20	2877.40
744.38	2756.57
744.56	2768.85
744.74	3276.75
744.92	3074.00
745.10	3110.86
745.28	2936.79
745.46	3272.65
745.64	2912.21
745.82	3000.27
746.00	2838.48
746.18	3074.00
746.36	2797.53
746.54	2969.55
746.72	2863.06
746.90	2787.29
747.08	3160.02
747.26	2904.02
747.44	3004.37
747.62	2992.08
747.80	3094.48
747.98	2990.03
748.15	2834.39
748.33	3327.95
748.51	2953.17
748.69	3028.95
748.87	2834.39
749.05	2959.31
749.23	2901.97
749.41	2852.82
749.59	2881.49
749.77	3178.45
749.95	2949.08
750.13	2818.00
750.31	3008.47
750.49	2951.12
750.67	3114.96
750.85	3000.27
751.03	2863.06
751.20	3346.38
751.38	2920.40
751.56	2928.60
751.74	2912.21
751.92	2914.26
752.10	2822.10
752.28	3047.38
752.46	2807.77
752.64	2994.13
752.82	2951.12
753.00	3071.95
753.18	2844.63
753.35	2930.64
753.53	2891.73
753.71	2811.86
753.89	2957.27
754.07	3018.71
754.25	3125.20
754.43	2938.84
754.61	2713.56
754.79	3008.47
754.97	2949.08
755.14	3074.00
755.32	2846.68
755.50	2987.99
755.68	2928.60
755.86	2725.85
756.04	2842.58
756.22	2731.99
756.40	3110.86
756.57	3110.86
756.75	2877.40
756.93	3133.39
757.11	3018.71
757.29	2820.05
757.47	2768.85
757.65	2750.42
757.82	2566.10
758.00	2893.78
758.18	2865.11
758.36	2840.53
758.54	3309.52
758.72	2660.31
758.90	3071.95
759.07	3022.80
759.25	2848.72
759.43	2994.13
759.61	2709.46
759.79	4274.11
759.97	3065.81
760.15	2901.97
760.32	2846.68
760.50	3061.71
760.68	3280.85
760.86	2680.79
761.04	3057.62
761.22	3039.19
761.39	2979.79
761.57	2930.64
761.75	2818.00
761.93	3100.62
762.11	2953.17
762.28	2947.03
762.46	2785.24
762.64	3164.11
762.82	2826.20
763.00	2869.20
763.18	2990.03
763.35	2850.77
763.53	3076.05
763.71	2957.27
763.89	2881.49
764.07	2990.03
764.24	2926.55
764.42	3086.29
764.60	2920.40
764.78	3053.52
764.96	3137.49
765.13	3069.91
765.31	2807.77
765.49	3125.20
765.67	2799.57
765.84	2711.51
766.02	2766.81
766.20	2697.17
766.38	3006.42
766.56	2965.46
766.73	2916.31
766.91	2987.99
767.09	3026.90
767.27	3004.37
767.44	2811.86
767.62	3110.86
767.80	3082.19
767.98	2742.23
768.15	2873.30
768.33	3102.67
768.51	3180.50
768.69	2881.49
768.87	2893.78
769.04	2975.70
769.22	3448.78
769.40	3065.81
769.58	3004.37
769.75	3047.38
769.93	3180.50
770.11	2944.98
770.28	2760.66
770.46	3074.00
770.64	2910.16
770.82	2955.22
770.99	2848.72
771.17	3194.83
771.35	2906.07
771.53	2942.93
771.70	2805.72
771.88	3059.67
772.06	2983.89
772.23	2936.79
772.41	2815.96
772.59	2975.70
772.77	2736.09
772.94	2916.31
773.12	2953.17
773.30	2901.97
773.47	3049.43
773.65	2813.91
773.83	2987.99
774.01	2949.08
774.18	2721.75
774.36	2930.64
774.54	2781.14
774.71	3076.05
774.89	2697.17
775.07	2750.42
775.24	2742.23
775.42	2799.57
775.60	3264.46
775.78	2793.43
775.95	2752.47
776.13	2686.94
776.31	2609.11
776.48	3041.23
776.66	3129.30
776.84	2897.88
777.01	2797.53
777.19	2781.14
777.37	2801.62
777.54	3051.47
777.72	3299.28
777.90	2936.79
778.07	2799.57
778.25	3557.32
778.43	3121.10
778.60	2785.24
778.78	2963.41
778.96	3223.50
779.13	2801.62
779.31	3000.27
779.49	2861.01
779.66	2973.65
779.84	2871.25
780.01	2834.39
780.19	2729.94
780.37	3180.50
780.54	3069.91
780.72	2654.17
780.90	2805.72
781.07	2977.75
781.25	2791.38
781.43	3057.62
781.60	2865.11
781.78	3180.50
781.95	3071.95
782.13	2791.38
782.31	2772.95
782.48	2670.55
782.66	3002.32
782.83	3162.06
783.01	3008.47
783.19	3194.83
783.36	2924.50
783.54	2750.42
783.72	2891.73
783.89	2914.26
784.07	2969.55
784.24	2922.45
784.42	3028.95
784.60	3026.90
784.77	2955.22
784.95	2701.27
785.12	2768.85
785.30	2987.99
785.47	2793.43
785.65	2858.96
785.83	2861.01
786.00	2885.59
786.18	2975.70
786.35	2711.51
786.53	2793.43
786.71	3235.79
786.88	3067.86
787.06	2850.77
787.23	2910.16
787.41	2820.05
787.58	3004.37
787.76	2813.91
787.94	2885.59
788.11	3020.75
788.29	2709.46
788.46	2777.05
788.64	2594.78
788.81	2883.54
788.99	2809.81
789.16	2813.91
789.34	2947.03
789.52	2901.97
789.69	2922.45
789.87	2744.28
790.04	2861.01
790.22	2975.70
790.39	3381.20
790.57	2744.28
790.74	2797.53
790.92	3160.02
791.09	2764.76
791.27	2969.55
791.44	2920.40
791.62	2969.55
791.79	3090.38
791.97	2928.60
792.15	3203.02
792.32	3057.62
792.50	3123.15
792.67	2990.03
792.85	3123.15
793.02	3045.33
793.20	2897.88
793.37	2695.13
793.55	2873.30
793.72	2770.90
793.90	3002.32
794.07	2850.77
794.25	2709.46
794.42	3033.04
794.60	2926.55
794.77	2959.31
794.95	2969.55
795.12	3145.68
795.30	2914.26
795.47	2705.37
795.65	3264.46
795.82	3039.19
796.00	2805.72
796.17	2930.64
796.34	2754.52
796.52	2934.74
796.69	3192.78
796.87	2949.08
797.04	2940.88
797.22	3168.21
797.39	3002.32
797.57	2994.13
797.74	2977.75
797.92	2985.94
798.09	2877.40
798.27	3035.09
798.44	2807.77
798.62	2852.82
798.79	3024.85
798.96	2971.60
799.14	2910.16
799.31	3377.10
799.49	3039.19
799.66	2803.67
799.84	2895.83
800.01	2756.57
800.19	3057.62
800.36	2643.93
800.53	2918.36
800.71	3114.96
800.88	3237.84
801.06	2715.61
801.23	2803.67
801.41	2893.78
801.58	2875.35
801.75	2865.11
801.93	2965.46
802.10	3082.19
802.28	2957.27
802.45	2856.92
802.63	2951.12
802.80	3289.04
802.97	2897.88
803.15	2926.55
803.32	2826.20
803.50	2783.19
803.67	2869.20
803.84	2770.90
804.02	2920.40
804.19	2906.07
804.37	2643.93
804.54	2736.09
804.71	2791.38
804.89	2899.92
805.06	2777.05
805.24	2844.63
805.41	2717.65
805.58	2850.77
805.76	3436.49
805.93	2811.86
806.10	3022.80
806.28	3162.06
806.45	2953.17
806.63	2990.03
806.80	2893.78
806.97	2998.23
807.15	3084.24
807.32	2947.03
807.49	2869.20
807.67	2770.90
807.84	2971.60
808.01	2705.37
808.19	3055.57
808.36	3381.20
808.54	2865.11
808.71	2842.58
808.88	2881.49
809.06	3039.19
809.23	3227.60
809.40	2770.90
809.58	2852.82
809.75	2906.07
809.92	2803.67
810.10	3137.49
810.27	2854.87
810.44	3035.09
810.62	3174.35
810.79	2881.49
810.96	2895.83
811.14	2897.88
811.31	3057.62
811.48	2961.36
811.66	3033.04
811.83	3092.43
812.00	3129.30
812.18	3026.90
812.35	3112.91
812.52	2887.64
812.69	2865.11
812.87	2926.55
813.04	2764.76
813.21	2953.17
813.39	2873.30
813.56	2762.71
813.73	3090.38
813.91	2721.75
814.08	2973.65
814.25	2854.87
814.42	2701.27
814.60	2955.22
814.77	2998.23
814.94	2807.77
815.12	2934.74
815.29	3303.37
815.46	2836.44
815.63	2897.88
815.81	2815.96
815.98	2969.55
816.15	2967.51
816.33	2910.16
816.50	2936.79
816.67	2957.27
816.84	3057.62
817.02	2777.05
817.19	2895.83
817.36	3030.99
817.53	3041.23
817.71	2779.09
817.88	2904.02
818.05	3000.27
818.22	2955.22
818.40	3071.95
818.57	2871.25
818.74	3030.99
818.91	2838.48
819.09	3049.43
819.26	2953.17
819.43	2877.40
819.60	2889.68
819.78	2977.75
819.95	2926.55
820.12	2824.15
820.29	3270.61
820.47	3090.38
820.64	2779.09
820.81	2781.14
820.98	2934.74
821.15	2873.30
821.33	2969.55
821.50	2736.09
821.67	3043.28
821.84	2752.47
822.02	2869.20
822.19	3119.06
822.36	2912.21
822.53	2820.05
822.70	2744.28
822.88	2877.40
823.05	3243.98
823.22	2928.60
823.39	2871.25
823.56	2975.70
823.74	3270.61
823.91	2736.09
824.08	2744.28
824.25	2828.24
824.42	3239.89
824.60	2807.77
824.77	2959.31
824.94	2928.60
825.11	3035.09
825.28	2658.26
825.45	3026.90
825.63	2930.64
825.80	2772.95
825.97	2914.26
826.14	2897.88
826.31	2738.13
826.48	3035.09
826.66	2809.81
826.83	2848.72
827.00	2916.31
827.17	2830.29
827.34	2844.63
827.51	2764.76
827.69	2971.60
827.86	2740.18
828.03	2854.87
828.20	2891.73
828.37	2848.72
828.54	3123.15
828.71	2695.13
828.89	3012.56
829.06	3026.90
829.23	3256.27
829.40	2779.09
829.57	2815.96
829.74	3088.34
829.91	2865.11
830.09	2834.39
830.26	2981.84
830.43	3291.09
830.60	2996.18
830.77	2934.74
830.94	3090.38
831.11	3098.58
831.28	2951.12
831.46	3012.56
831.63	2803.67
831.80	3190.74
831.97	2871.25
832.14	2781.14
832.31	2914.26
832.48	3014.61
832.65	3153.87
832.82	2920.40
832.99	2953.17
833.17	2740.18
833.34	3219.41
833.51	2873.30
833.68	2605.02
833.85	3198.93
834.02	2768.85
834.19	2727.89
834.36	2809.81
834.53	2987.99
834.70	3129.30
834.87	2840.53
835.04	2736.09
835.22	2850.77
835.39	3000.27
835.56	2699.22
835.73	2754.52
835.90	3149.78
836.07	2836.44
836.24	2887.64
836.41	2676.70
836.58	2824.15
836.75	3121.10
836.92	2736.09
837.09	2682.84
837.26	3063.76
837.43	3057.62
837.60	2717.65
837.77	2740.18
837.94	3123.15
838.12	3155.92
838.29	2670.55
838.46	2664.41
838.63	2781.14
838.80	3172.30
838.97	2834.39
839.14	2746.33
839.31	3035.09
839.48	3055.57
839.65	2750.42
839.82	2818.00
839.99	3061.71
840.16	2992.08
840.33	2693.08
840.50	2736.09
840.67	2830.29
840.84	2615.26
841.01	2699.22
841.18	2619.35
841.35	2863.06
841.52	3000.27
841.69	2998.23
841.86	2815.96
842.03	2916.31
842.20	3067.86
842.37	2668.50
842.54	2813.91
842.71	3053.52
842.88	2707.41
843.05	2660.31
843.22	2678.74
843.39	3057.62
843.56	2901.97
843.73	2797.53
843.90	2746.33
844.07	2969.55
844.24	3096.53
844.41	2820.05
844.58	2740.18
844.75	3043.28
844.92	3008.47
845.09	2731.99
845.26	2820.05
845.43	3100.62
845.60	2865.11
845.77	2701.27
845.94	2846.68
846.10	3141.58
846.27	2725.85
846.44	2650.07
846.61	2658.26
846.78	3041.23
846.95	3141.58
847.12	2600.92
847.29	2721.75
847.46	2893.78
847.63	3084.24
847.80	2627.54
847.97	2750.42
848.14	3411.92
848.31	2930.64
848.48	2617.30
848.65	2820.05
848.82	2883.54
848.98	3454.92
849.15	2869.20
849.32	2797.53
849.49	3184.59
849.66	2891.73
849.83	2719.70
850.00	2617.30
850.17	3106.77
850.34	2934.74
850.51	2602.97
850.68	2727.89
850.85	3360.72
851.01	2992.08
851.18	2674.65
851.35	2793.43
851.52	3141.58
851.69	3174.35
851.86	2637.78
852.03	2797.53
852.20	3209.17
852.37	2901.97
852.53	2527.19
852.70	2672.60
852.87	2985.94
853.04	3108.82
853.21	2674.65
853.38	2899.92
853.55	3145.68
853.72	3196.88
853.89	2654.17
854.05	2639.83
854.22	2959.31
854.39	2887.64
854.56	2707.41
854.73	2873.30
854.90	2871.25
855.07	2971.60
855.23	2623.45
855.40	2713.56
855.57	2951.12
855.74	2684.89
855.91	3008.47
856.08	2611.16
856.25	2740.18
856.41	2838.48
856.58	2740.18
856.75	2748.37
856.92	2783.19
857.09	3139.54
857.26	2641.88
857.42	2783.19
857.59	3192.78
857.76	2891.73
857.93	2725.85
858.10	2807.77
858.27	2770.90
858.43	3018.71
858.60	2775.00
858.77	2588.63
858.94	2854.87
859.11	3092.43
859.27	2731.99
859.44	2660.31
859.61	3411.92
859.78	3016.66
859.95	2676.70
860.12	2648.02
860.28	3325.90
860.45	3256.27
860.62	2650.07
860.79	2844.63
860.95	2920.40
861.12	2856.92
861.29	2639.83
861.46	2734.04
861.63	3000.27
861.79	3004.37
861.96	2617.30
862.13	2680.79
862.30	3127.25
862.47	2893.78
862.63	2541.53
862.80	2848.72
862.97	3192.78
863.14	3043.28
863.30	2836.44
863.47	2662.36
863.64	3256.27
863.81	3008.47
863.97	2688.98
864.14	2811.86
864.31	2906.07
864.48	3039.19
864.65	2746.33
864.81	2871.25
864.98	3117.01
865.15	3018.71
865.32	2811.86
865.48	2781.14
865.65	3274.70
865.82	2848.72
865.98	2805.72
866.15	2789.33
866.32	2924.50
866.49	2863.06
866.65	2867.16
866.82	2748.37
866.99	2899.92
867.16	2901.97
867.32	2803.67
867.49	2770.90
867.66	2940.88
867.83	2922.45
867.99	2609.11
868.16	2762.71
868.33	2807.77
868.49	2969.55
868.66	2754.52
868.83	2756.57
868.99	3061.71
869.16	2971.60
869.33	2908.12
869.50	2893.78
869.66	2967.51
869.83	2930.64
870.00	2621.40
870.16	2873.30
870.33	2920.40
870.50	3188.69
870.66	2756.57
870.83	2795.48
871.00	2938.84
871.17	3092.43
871.33	2787.29
871.50	2777.05
871.67	3030.99
871.83	2740.18
872.00	2838.48
872.17	2697.17
872.33	3379.15
872.50	3205.07
872.67	2744.28
872.83	2748.37
873.00	3043.28
873.17	2979.79
873.33	2805.72
873.50	2805.72
873.67	2858.96
873.83	2797.53
874.00	2795.48
874.16	2842.58
874.33	2949.08
874.50	2631.64
874.66	2701.27
874.83	2858.96
875.00	3162.06
875.16	3131.34
875.33	2811.86
875.50	2566.10
875.66	2867.16
875.83	2967.51
875.99	2795.48
876.16	2838.48
876.33	2783.19
876.49	2963.41
876.66	2758.61
876.83	2809.81
876.99	2697.17
877.16	2924.50
877.32	2711.51
877.49	2820.05
877.66	3018.71
877.82	3246.03
877.99	2822.10
878.15	3024.85
878.32	3088.34
878.49	3094.48
878.65	2775.00
878.82	2990.03
878.98	2826.20
879.15	3102.67
879.32	2947.03
879.48	2942.93
879.65	2965.46
879.81	3006.42
879.98	2764.76
880.15	2846.68
880.31	3137.49
880.48	2832.34
880.64	2842.58
880.81	2793.43
880.97	3303.37
881.14	3233.74
881.31	2725.85
881.47	2854.87
881.64	2914.26
881.80	2688.98
881.97	2877.40
882.13	2760.66
882.30	2725.85
882.47	2854.87
882.63	2756.57
882.80	2734.04
882.96	2869.20
883.13	3174.35
883.29	2801.62
883.46	2697.17
883.62	3276.75
883.79	2963.41
883.95	2947.03
884.12	2676.70
884.29	3139.54
884.45	2959.31
884.62	2758.61
884.78	2688.98
884.95	3303.37
885.11	2777.05
885.28	2869.20
885.44	2758.61
885.61	3092.43
885.77	3211.22
885.94	2944.98
886.10	2863.06
886.27	2928.60
886.43	3254.22
886.60	2938.84
886.76	2740.18
886.93	2764.76
887.09	2998.23
887.26	2584.54
887.42	2768.85
887.59	3157.97
887.75	3362.76
887.92	2971.60
888.08	2906.07
888.25	3252.17
888.41	3125.20
888.58	2881.49
888.74	2672.60
888.91	2848.72
>>>>>End Processed Spectral Data<<<<<
