SpectraSuite Data File
++++++++++++++++++++++++++++++++++++
Date: Thu May 05 21:10:38 CEST 2016
User: root
Dark Spectrum Present: No
Reference Spectrum Present: No
Number of Sampled Component Spectra: 1
Spectrometers: USB4C02835
Integration Time (usec): 100000 (USB4C02835)
Spectra Averaged: 1 (USB4C02835)
Boxcar Smoothing: 0 (USB4C02835)
Correct for Electrical Dark: No (USB4C02835)
Strobe/Lamp Enabled: No (USB4C02835)
Correct for Detector Non-linearity: No (USB4C02835)
Correct for Stray Light: No (USB4C02835)
Number of Pixels in Processed Spectrum: 3648
>>>>>Begin Processed Spectral Data<<<<<
177.47	2125.79
177.69	2125.79
177.91	2125.79
178.13	2144.22
178.36	2138.08
178.58	2723.80
178.80	2922.45
179.02	2719.70
179.24	2826.20
179.46	2588.63
179.68	2715.61
179.90	2924.50
180.13	2953.17
180.35	2527.19
180.57	2584.54
180.79	3086.29
181.01	2953.17
181.23	2699.22
181.45	2914.26
181.67	3117.01
181.90	3110.86
182.12	2705.37
182.34	2510.81
182.56	3168.21
182.78	3110.86
183.00	2578.39
183.22	2766.81
183.44	2738.13
183.66	3456.97
183.89	2815.96
184.11	2764.76
184.33	3022.80
184.55	3203.02
184.77	2617.30
184.99	2697.17
185.21	2928.60
185.43	3491.79
185.65	2699.22
185.87	2672.60
186.10	3405.77
186.32	3461.07
186.54	2809.81
186.76	2754.52
186.98	3268.56
187.20	3033.04
187.42	2717.65
187.64	2627.54
187.86	3022.80
188.08	3182.54
188.30	2629.59
188.52	2697.17
188.75	3213.26
188.97	3192.78
189.19	2648.02
189.41	2650.07
189.63	3061.71
189.85	2932.69
190.07	2539.48
190.29	2594.78
190.51	3026.90
190.73	2764.76
190.95	2801.62
191.17	2674.65
191.39	2695.13
191.61	3033.04
191.84	2686.94
192.06	2764.76
192.28	2785.24
192.50	3551.18
192.72	2797.53
192.94	2738.13
193.16	3170.26
193.38	3041.23
193.60	2527.19
193.82	2795.48
194.04	3153.87
194.26	3123.15
194.48	2723.80
194.70	2662.36
194.92	2908.12
195.14	3166.16
195.36	2701.27
195.58	2787.29
195.80	2990.03
196.02	2856.92
196.24	2672.60
196.46	2746.33
196.69	2979.79
196.91	3499.98
197.13	2625.50
197.35	2695.13
197.57	3237.84
197.79	3108.82
198.01	2691.03
198.23	2721.75
198.45	3074.00
198.67	2744.28
198.89	2547.67
199.11	2768.85
199.33	2879.44
199.55	2654.17
199.77	2625.50
199.99	2830.29
200.21	2901.97
200.43	3026.90
200.65	2533.34
200.87	2502.62
201.09	3004.37
201.31	2922.45
201.53	2650.07
201.75	2772.95
201.97	3004.37
202.19	2975.70
202.41	2777.05
202.63	2826.20
202.85	3049.43
203.07	3086.29
203.29	2748.37
203.51	2625.50
203.73	2920.40
203.95	3422.16
204.17	2613.21
204.39	2783.19
204.61	2987.99
204.83	2838.48
205.05	2858.96
205.27	2723.80
205.49	3358.67
205.71	2947.03
205.93	2500.57
206.15	2643.93
206.37	2967.51
206.59	2895.83
206.81	2494.43
207.03	2580.44
207.25	2818.00
207.47	3112.91
207.69	2731.99
207.91	2912.21
208.13	3196.88
208.34	2820.05
208.56	2572.25
208.78	2725.85
209.00	3002.32
209.22	2906.07
209.44	2615.26
209.66	2738.13
209.88	2951.12
210.10	2916.31
210.32	2641.88
210.54	2791.38
210.76	2942.93
210.98	3135.44
211.20	2588.63
211.42	2768.85
211.64	3217.36
211.86	3123.15
212.08	2709.46
212.30	2729.94
212.52	2899.92
212.74	3002.32
212.96	2762.71
213.17	2770.90
213.39	3200.98
213.61	3217.36
213.83	2637.78
214.05	2582.49
214.27	3241.93
214.49	2789.33
214.71	2668.50
214.93	2777.05
215.15	3026.90
215.37	3094.48
215.59	2611.16
215.81	2807.77
216.03	3172.30
216.24	3047.38
216.46	2688.98
216.68	2680.79
216.90	3131.34
217.12	3172.30
217.34	2590.68
217.56	2795.48
217.78	3184.59
218.00	3117.01
218.22	2779.09
218.44	2762.71
218.66	2963.41
218.87	3393.48
219.09	2785.24
219.31	2731.99
219.53	3026.90
219.75	3045.33
219.97	2674.65
220.19	2709.46
220.41	2920.40
220.63	3336.14
220.85	2703.32
221.06	2617.30
221.28	3303.37
221.50	2990.03
221.72	2662.36
221.94	2607.06
222.16	3082.19
222.38	3155.92
222.60	2705.37
222.82	2766.81
223.03	3086.29
223.25	2777.05
223.47	2637.78
223.69	2910.16
223.91	3045.33
224.13	2992.08
224.35	2674.65
224.57	2834.39
224.78	3078.10
225.00	2824.15
225.22	2764.76
225.44	2594.78
225.66	3239.89
225.88	2920.40
226.10	2852.82
226.32	2729.94
226.53	3274.70
226.75	2971.60
226.97	2758.61
227.19	2723.80
227.41	2852.82
227.63	2863.06
227.85	2562.01
228.06	2691.03
228.28	3022.80
228.50	3076.05
228.72	2543.58
228.94	2656.22
229.16	2678.74
229.37	2777.05
229.59	2598.87
229.81	2973.65
230.03	2930.64
230.25	2795.48
230.47	2549.72
230.69	2648.02
230.90	3168.21
231.12	2951.12
231.34	2770.90
231.56	2752.47
231.78	2895.83
232.00	2994.13
232.21	2760.66
232.43	2719.70
232.65	2648.02
232.87	2983.89
233.09	2543.58
233.30	2658.26
233.52	3168.21
233.74	2932.69
233.96	2680.79
234.18	2895.83
234.40	3047.38
234.61	3446.73
234.83	2549.72
235.05	2645.98
235.27	3479.50
235.49	3295.18
235.70	2664.41
235.92	2744.28
236.14	3065.81
236.36	3368.91
236.58	2611.16
236.79	2734.04
237.01	2971.60
237.23	2977.75
237.45	2914.26
237.67	2715.61
237.88	3002.32
238.10	3350.48
238.32	2531.29
238.54	2738.13
238.76	3006.42
238.97	2789.33
239.19	2625.50
239.41	2795.48
239.63	3225.55
239.85	2865.11
240.06	2740.18
240.28	2680.79
240.50	3170.26
240.72	3002.32
240.93	2551.77
241.15	2789.33
241.37	3024.85
241.59	3252.17
241.81	2688.98
242.02	2729.94
242.24	3035.09
242.46	3123.15
242.68	2506.71
242.89	2598.87
243.11	3227.60
243.33	2895.83
243.55	2617.30
243.76	2738.13
243.98	2822.10
244.20	2967.51
244.42	2701.27
244.64	2740.18
244.85	2861.01
245.07	2832.34
245.29	2680.79
245.51	2717.65
245.72	3012.56
245.94	3090.38
246.16	2607.06
246.38	2764.76
246.59	2879.44
246.81	2891.73
247.03	2611.16
247.24	2590.68
247.46	2996.18
247.68	3059.67
247.90	2643.93
248.11	2723.80
248.33	3094.48
248.55	3014.61
248.77	2729.94
248.98	2885.59
249.20	3219.41
249.42	3010.51
249.64	2697.17
249.85	2703.32
250.07	2893.78
250.29	3211.22
250.50	2824.15
250.72	2570.20
250.94	3063.76
251.16	3348.43
251.37	2711.51
251.59	2789.33
251.81	3104.72
252.02	3270.61
252.24	2639.83
252.46	2756.57
252.68	2867.16
252.89	2951.12
253.11	2469.85
253.33	2799.57
253.54	3276.75
253.76	2832.34
253.98	2674.65
254.20	2756.57
254.41	2785.24
254.63	2934.74
254.85	2545.63
255.06	2725.85
255.28	3065.81
255.50	2949.08
255.71	2662.36
255.93	2531.29
256.15	2981.84
256.36	3043.28
256.58	2576.34
256.80	2674.65
257.02	3000.27
257.23	2957.27
257.45	2742.23
257.67	2777.05
257.88	2893.78
258.10	3092.43
258.32	2719.70
258.53	2752.47
258.75	3227.60
258.97	2871.25
259.18	2568.15
259.40	2650.07
259.62	3299.28
259.83	3166.16
260.05	2682.84
260.27	3532.75
260.48	3174.35
260.70	2846.68
260.92	2578.39
261.13	2781.14
261.35	2994.13
261.57	3028.95
261.78	2621.40
262.00	2611.16
262.22	3168.21
262.43	2850.77
262.65	2731.99
262.86	2658.26
263.08	3522.51
263.30	3071.95
263.51	2553.82
263.73	2623.45
263.95	3180.50
264.16	2848.72
264.38	2582.49
264.60	2652.12
264.81	2928.60
265.03	3080.14
265.25	3133.39
265.46	2641.88
265.68	3215.31
265.89	3043.28
266.11	2557.91
266.33	2658.26
266.54	3133.39
266.76	3049.43
266.98	2752.47
267.19	2873.30
267.41	3137.49
267.62	2953.17
267.84	2498.52
268.06	2850.77
268.27	3041.23
268.49	3198.93
268.70	2783.19
268.92	2754.52
269.14	2891.73
269.35	2721.75
269.57	2754.52
269.79	2729.94
270.00	2809.81
270.22	3264.46
270.43	2631.64
270.65	2586.58
270.87	3026.90
271.08	3135.44
271.30	2889.68
271.51	2715.61
271.73	3084.24
271.95	3215.31
272.16	2664.41
272.38	2803.67
272.59	2934.74
272.81	3133.39
273.02	2676.70
273.24	2830.29
273.46	3198.93
273.67	2818.00
273.89	2607.06
274.10	2717.65
274.32	3131.34
274.54	3063.76
274.75	2797.53
274.97	2756.57
275.18	3102.67
275.40	2990.03
275.61	2697.17
275.83	2834.39
276.05	2807.77
276.26	3039.19
276.48	2834.39
276.69	2750.42
276.91	2918.36
277.12	3186.64
277.34	2805.72
277.55	2901.97
277.77	3047.38
277.99	2912.21
278.20	2787.29
278.42	2691.03
278.63	2830.29
278.85	2856.92
279.06	2731.99
279.28	2865.11
279.49	3135.44
279.71	3057.62
279.93	2869.20
280.14	2809.81
280.36	2955.22
280.57	3114.96
280.79	2867.16
281.00	2697.17
281.22	2959.31
281.43	3151.82
281.65	2471.90
281.86	2770.90
282.08	3135.44
282.29	3346.38
282.51	2666.46
282.73	2709.46
282.94	2736.09
283.16	3174.35
283.37	2975.70
283.59	2836.44
283.80	3024.85
284.02	3059.67
284.23	2899.92
284.45	2813.91
284.66	2826.20
284.88	2813.91
285.09	2772.95
285.31	2904.02
285.52	3039.19
285.74	2744.28
285.95	3053.52
286.17	2885.59
286.38	3186.64
286.60	2842.58
286.81	2731.99
287.03	2789.33
287.24	3059.67
287.46	3059.67
287.67	2850.77
287.89	2963.41
288.10	2885.59
288.32	2985.94
288.53	2965.46
288.75	2813.91
288.96	3114.96
289.18	2889.68
289.39	2756.57
289.61	2883.54
289.82	3401.68
290.04	3299.28
290.25	2688.98
290.47	2863.06
290.68	2895.83
290.90	3217.36
291.11	2605.02
291.33	2920.40
291.54	2846.68
291.76	2840.53
291.97	2908.12
292.18	2873.30
292.40	2875.35
292.61	2893.78
292.83	3082.19
293.04	2901.97
293.26	3024.85
293.47	2924.50
293.69	2703.32
293.90	2693.08
294.12	3200.98
294.33	2920.40
294.55	2842.58
294.76	3012.56
294.97	3250.13
295.19	3327.95
295.40	2719.70
295.62	2820.05
295.83	3041.23
296.05	2863.06
296.26	2961.36
296.48	2791.38
296.69	2979.79
296.90	2992.08
297.12	2985.94
297.33	3000.27
297.55	3074.00
297.76	3125.20
297.98	2910.16
298.19	2867.16
298.41	2979.79
298.62	2828.24
298.83	2994.13
299.05	2897.88
299.26	2949.08
299.48	2783.19
299.69	2856.92
299.90	2717.65
300.12	2854.87
300.33	3133.39
300.55	2881.49
300.76	2893.78
300.98	2850.77
301.19	3155.92
301.40	2834.39
301.62	2818.00
301.83	3143.63
302.05	2932.69
302.26	2772.95
302.47	2805.72
302.69	2783.19
302.90	3002.32
303.12	2615.26
303.33	2922.45
303.54	3399.63
303.76	2961.36
303.97	2842.58
304.19	2942.93
304.40	2830.29
304.61	3053.52
304.83	2899.92
305.04	2951.12
305.26	3114.96
305.47	2932.69
305.68	2750.42
305.90	2709.46
306.11	3237.84
306.33	2848.72
306.54	2658.26
306.75	2799.57
306.97	2717.65
307.18	2916.31
307.39	2818.00
307.61	2906.07
307.82	2963.41
308.04	3100.62
308.25	2697.17
308.46	2893.78
308.68	2979.79
308.89	2967.51
309.10	2992.08
309.32	2858.96
309.53	3002.32
309.74	3057.62
309.96	2723.80
310.17	2973.65
310.39	2916.31
310.60	3084.24
310.81	2838.48
311.03	2740.18
311.24	3033.04
311.45	2969.55
311.67	3112.91
311.88	2795.48
312.09	2815.96
312.31	2932.69
312.52	2811.86
312.73	2846.68
312.95	2803.67
313.16	2787.29
313.37	2924.50
313.59	2918.36
313.80	3149.78
314.01	3311.57
314.23	2799.57
314.44	2697.17
314.65	2795.48
314.87	2953.17
315.08	2772.95
315.29	2775.00
315.51	2899.92
315.72	2734.04
315.93	2914.26
316.15	2873.30
316.36	2971.60
316.57	3037.14
316.79	2799.57
317.00	2684.89
317.21	3035.09
317.43	2869.20
317.64	2867.16
317.85	2684.89
318.07	2789.33
318.28	2885.59
318.49	2944.98
318.70	3049.43
318.92	3010.51
319.13	3053.52
319.34	3008.47
319.56	2740.18
319.77	3016.66
319.98	3153.87
320.20	3078.10
320.41	2967.51
320.62	3043.28
320.83	2848.72
321.05	3014.61
321.26	2895.83
321.47	3016.66
321.69	3176.40
321.90	2717.65
322.11	2721.75
322.32	3026.90
322.54	3233.74
322.75	2803.67
322.96	3583.95
323.18	2789.33
323.39	2678.74
323.60	2725.85
323.81	2867.16
324.03	2832.34
324.24	2889.68
324.45	2846.68
324.66	2731.99
324.88	3188.69
325.09	3246.03
325.30	2824.15
325.52	2818.00
325.73	3051.47
325.94	2826.20
326.15	2748.37
326.37	2674.65
326.58	3074.00
326.79	3180.50
327.00	2723.80
327.22	2762.71
327.43	2930.64
327.64	2856.92
327.85	2904.02
328.07	2873.30
328.28	3243.98
328.49	2893.78
328.70	2797.53
328.92	2891.73
329.13	2826.20
329.34	3102.67
329.55	3051.47
329.76	2975.70
329.98	2807.77
330.19	3141.58
330.40	2912.21
330.61	2893.78
330.83	3117.01
331.04	2836.44
331.25	2953.17
331.46	2852.82
331.68	2707.41
331.89	3157.97
332.10	2846.68
332.31	2676.70
332.52	2934.74
332.74	3151.82
332.95	2658.26
333.16	2777.05
333.37	3180.50
333.58	2836.44
333.80	2850.77
334.01	2598.87
334.22	2998.23
334.43	2951.12
334.64	2801.62
334.86	2734.04
335.07	2846.68
335.28	3147.73
335.49	2701.27
335.70	2846.68
335.92	3237.84
336.13	3420.11
336.34	2848.72
336.55	2766.81
336.76	2969.55
336.98	2650.07
337.19	2850.77
337.40	2881.49
337.61	3397.58
337.82	3010.51
338.04	2932.69
338.25	2637.78
338.46	2891.73
338.67	2922.45
338.88	2766.81
339.09	2779.09
339.31	2949.08
339.52	2807.77
339.73	2799.57
339.94	2779.09
340.15	3049.43
340.36	2891.73
340.58	2965.46
340.79	2721.75
341.00	3071.95
341.21	2764.76
341.42	3069.91
341.63	2893.78
341.85	3153.87
342.06	2981.84
342.27	2721.75
342.48	2996.18
342.69	2770.90
342.90	3057.62
343.12	3080.14
343.33	2701.27
343.54	3200.98
343.75	3237.84
343.96	2815.96
344.17	2709.46
344.38	2920.40
344.60	2918.36
344.81	2721.75
345.02	2789.33
345.23	3235.79
345.44	3381.20
345.65	2865.11
345.86	2844.63
346.07	3067.86
346.29	2848.72
346.50	2947.03
346.71	2865.11
346.92	3278.80
347.13	3395.53
347.34	2926.55
347.55	2740.18
347.76	3057.62
347.98	2715.61
348.19	2885.59
348.40	2977.75
348.61	2914.26
348.82	3213.26
349.03	2901.97
349.24	2750.42
349.45	3352.52
349.66	2660.31
349.88	2770.90
350.09	2701.27
350.30	3258.32
350.51	3188.69
350.72	3002.32
350.93	2809.81
351.14	2906.07
351.35	3096.53
351.56	2783.19
351.77	2848.72
351.99	3065.81
352.20	3221.45
352.41	2987.99
352.62	2572.25
352.83	2936.79
353.04	2910.16
353.25	2832.34
353.46	2844.63
353.67	3227.60
353.88	2668.50
354.09	2789.33
354.30	2830.29
354.52	3108.82
354.73	2963.41
354.94	2785.24
355.15	2901.97
355.36	3342.28
355.57	2867.16
355.78	2772.95
355.99	2834.39
356.20	2926.55
356.41	3174.35
356.62	2856.92
356.83	2906.07
357.04	3254.22
357.25	2775.00
357.46	2834.39
357.68	2688.98
357.89	2881.49
358.10	2957.27
358.31	2770.90
358.52	2766.81
358.73	2703.32
358.94	2731.99
359.15	2797.53
359.36	2865.11
359.57	2940.88
359.78	2959.31
359.99	2965.46
360.20	2748.37
360.41	2953.17
360.62	3061.71
360.83	2899.92
361.04	2887.64
361.25	2983.89
361.46	3301.33
361.67	2910.16
361.88	2824.15
362.09	3149.78
362.30	3022.80
362.51	2656.22
362.72	2830.29
362.93	3090.38
363.14	3018.71
363.35	2928.60
363.56	2744.28
363.78	3174.35
363.99	3067.86
364.20	2770.90
364.41	2873.30
364.62	3366.86
364.83	2932.69
365.04	2863.06
365.25	2797.53
365.46	3358.67
365.67	2805.72
365.88	2901.97
366.09	2783.19
366.30	2930.64
366.51	2979.79
366.72	2670.55
366.93	2832.34
367.14	2983.89
367.35	3256.27
367.56	2809.81
367.77	2912.21
367.98	2955.22
368.18	3117.01
368.39	2873.30
368.60	2701.27
368.81	3033.04
369.02	3055.57
369.23	2873.30
369.44	2676.70
369.65	2942.93
369.86	3057.62
370.07	3018.71
370.28	2699.22
370.49	3049.43
370.70	3082.19
370.91	2768.85
371.12	2691.03
371.33	3114.96
371.54	2889.68
371.75	2865.11
371.96	2621.40
372.17	3039.19
372.38	2856.92
372.59	2836.44
372.80	2787.29
373.01	2983.89
373.22	3016.66
373.43	2793.43
373.64	2770.90
373.85	3266.51
374.06	3227.60
374.26	2971.60
374.47	2910.16
374.68	3157.97
374.89	3053.52
375.10	2731.99
375.31	2977.75
375.52	2971.60
375.73	2906.07
375.94	2652.12
376.15	2895.83
376.36	2801.62
376.57	2824.15
376.78	2912.21
376.99	2912.21
377.20	3297.23
377.40	2967.51
377.61	3063.76
377.82	2756.57
378.03	3174.35
378.24	3024.85
378.45	2959.31
378.66	2863.06
378.87	2731.99
379.08	2764.76
379.29	2811.86
379.50	2949.08
379.71	2910.16
379.91	3135.44
380.12	2842.58
380.33	2822.10
380.54	2947.03
380.75	3012.56
380.96	2791.38
381.17	2838.48
381.38	2951.12
381.59	2940.88
381.80	2789.33
382.00	3014.61
382.21	2998.23
382.42	3104.72
382.63	3104.72
382.84	2904.02
383.05	3094.48
383.26	3196.88
383.47	2971.60
383.68	2809.81
383.88	3100.62
384.09	2971.60
384.30	3063.76
384.51	2906.07
384.72	2828.24
384.93	2746.33
385.14	2822.10
385.35	3016.66
385.55	2707.41
385.76	3280.85
385.97	2820.05
386.18	2617.30
386.39	2818.00
386.60	2842.58
386.81	2766.81
387.02	2697.17
387.22	2787.29
387.43	3127.25
387.64	2901.97
387.85	2994.13
388.06	3002.32
388.27	4071.36
388.48	7288.72
388.68	10835.80
388.89	13600.56
389.10	14694.18
389.31	14194.47
389.52	11372.37
389.73	9750.38
389.93	8951.67
390.14	8144.77
390.35	7456.65
390.56	6819.74
390.77	5664.68
390.98	4284.35
391.18	3604.42
391.39	3385.29
391.60	3010.51
391.81	3133.39
392.02	2856.92
392.23	3284.94
392.43	3047.38
392.64	2897.88
392.85	2916.31
393.06	3229.65
393.27	3008.47
393.47	2822.10
393.68	2844.63
393.89	2938.84
394.10	3229.65
394.31	2826.20
394.52	2785.24
394.72	2906.07
394.93	3225.55
395.14	2734.04
395.35	2889.68
395.56	2934.74
395.76	2996.18
395.97	2772.95
396.18	3004.37
396.39	3049.43
396.60	3581.90
396.80	3215.31
397.01	3010.51
397.22	3155.92
397.43	3149.78
397.64	2846.68
397.84	2926.55
398.05	3319.76
398.26	2940.88
398.47	2947.03
398.67	3020.75
398.88	2940.88
399.09	3137.49
399.30	2772.95
399.51	2979.79
399.71	2826.20
399.92	3012.56
400.13	2869.20
400.34	2873.30
400.54	3053.52
400.75	3196.88
400.96	3065.81
401.17	3088.34
401.37	3071.95
401.58	2871.25
401.79	2844.63
402.00	2936.79
402.21	3446.73
402.41	3211.22
402.62	3129.30
402.83	3213.26
403.04	3422.16
403.24	3567.56
403.45	2951.12
403.66	3188.69
403.87	3168.21
404.07	3241.93
404.28	3065.81
404.49	3088.34
404.70	3045.33
404.90	3112.91
405.11	2824.15
405.32	3008.47
405.52	2885.59
405.73	2891.73
405.94	2717.65
406.15	2846.68
406.35	3071.95
406.56	3137.49
406.77	2891.73
406.98	2906.07
407.18	2813.91
407.39	3223.50
407.60	2805.72
407.80	2949.08
408.01	2848.72
408.22	2987.99
408.43	2781.14
408.63	2961.36
408.84	3170.26
409.05	3143.63
409.25	2717.65
409.46	2805.72
409.67	2885.59
409.88	2924.50
410.08	2869.20
410.29	2818.00
410.50	3131.34
410.70	3123.15
410.91	2803.67
411.12	2889.68
411.32	3041.23
411.53	2828.24
411.74	2897.88
411.95	2926.55
412.15	2985.94
412.36	3057.62
412.57	2981.84
412.77	3039.19
412.98	2942.93
413.19	2854.87
413.39	2893.78
413.60	2846.68
413.81	3151.82
414.01	2822.10
414.22	2838.48
414.43	2967.51
414.63	2938.84
414.84	3186.64
415.05	2906.07
415.25	2688.98
415.46	3094.48
415.67	2879.44
415.87	2930.64
416.08	2805.72
416.29	2910.16
416.49	3117.01
416.70	2904.02
416.91	2893.78
417.11	2987.99
417.32	3219.41
417.53	2940.88
417.73	2895.83
417.94	3022.80
418.15	3067.86
418.35	2758.61
418.56	2865.11
418.77	3375.05
418.97	2953.17
419.18	2977.75
419.38	2666.46
419.59	2920.40
419.80	3252.17
420.00	2811.86
420.21	2944.98
420.42	3219.41
420.62	3063.76
420.83	2803.67
421.04	2791.38
421.24	3061.71
421.45	3137.49
421.65	2897.88
421.86	2883.54
422.07	3160.02
422.27	3092.43
422.48	2797.53
422.69	2682.84
422.89	3018.71
423.10	2977.75
423.30	2777.05
423.51	2906.07
423.72	3092.43
423.92	3074.00
424.13	2684.89
424.33	2908.12
424.54	3200.98
424.75	2959.31
424.95	3117.01
425.16	2842.58
425.36	2961.36
425.57	3178.45
425.78	3002.32
425.98	2977.75
426.19	2942.93
426.39	2770.90
426.60	2926.55
426.81	3045.33
427.01	2969.55
427.22	2852.82
427.42	2658.26
427.63	2731.99
427.83	3141.58
428.04	3246.03
428.25	2901.97
428.45	2979.79
428.66	3104.72
428.86	2967.51
429.07	2928.60
429.28	2844.63
429.48	2912.21
429.69	2781.14
429.89	2959.31
430.10	2705.37
430.30	3057.62
430.51	3123.15
430.71	2811.86
430.92	2879.44
431.13	2914.26
431.33	3045.33
431.54	2854.87
431.74	3055.57
431.95	3434.44
432.15	2830.29
432.36	2834.39
432.56	2910.16
432.77	3303.37
432.98	3289.04
433.18	2897.88
433.39	2729.94
433.59	2912.21
433.80	3327.95
434.00	2979.79
434.21	2992.08
434.41	2899.92
434.62	3356.62
434.82	2711.51
435.03	2781.14
435.23	3078.10
435.44	2721.75
435.64	2832.34
435.85	2914.26
436.06	3037.14
436.26	3076.05
436.47	2797.53
436.67	2803.67
436.88	2918.36
437.08	3149.78
437.29	2971.60
437.49	2994.13
437.70	3248.08
437.90	2930.64
438.11	3100.62
438.31	2877.40
438.52	3209.17
438.72	3076.05
438.93	3164.11
439.13	2895.83
439.34	3145.68
439.54	2914.26
439.75	2953.17
439.95	2955.22
440.16	2875.35
440.36	2895.83
440.57	2854.87
440.77	2858.96
440.98	3016.66
441.18	3051.47
441.39	2709.46
441.59	2750.42
441.80	3471.31
442.00	2955.22
442.21	2926.55
442.41	2688.98
442.62	3215.31
442.82	2920.40
443.02	2789.33
443.23	2805.72
443.43	2996.18
443.64	3276.75
443.84	2811.86
444.05	3000.27
444.25	2983.89
444.46	2904.02
444.66	2803.67
444.87	3110.86
445.07	2764.76
445.28	2992.08
445.48	3024.85
445.69	2977.75
445.89	3416.01
446.09	2942.93
446.30	3200.98
446.50	3235.79
446.71	4753.34
446.91	5756.84
447.12	6657.95
447.32	6993.81
447.53	6862.74
447.73	5744.55
447.93	5054.39
448.14	4751.29
448.34	4814.77
448.55	4149.18
448.75	4016.07
448.96	3909.57
449.16	3575.75
449.36	3561.42
449.57	3096.53
449.77	2912.21
449.98	2877.40
450.18	3096.53
450.39	2873.30
450.59	3008.47
450.79	2926.55
451.00	2840.53
451.20	2944.98
451.41	2803.67
451.61	3100.62
451.81	2910.16
452.02	2760.66
452.22	2820.05
452.43	2928.60
452.63	2895.83
452.84	2904.02
453.04	2787.29
453.24	2977.75
453.45	2891.73
453.65	2897.88
453.86	2889.68
454.06	3047.38
454.26	2957.27
454.47	2738.13
454.67	2975.70
454.87	3028.95
455.08	2965.46
455.28	3006.42
455.49	3006.42
455.69	2869.20
455.89	3428.30
456.10	2938.84
456.30	2789.33
456.51	3184.59
456.71	3039.19
456.91	2987.99
457.12	2926.55
457.32	3022.80
457.52	2795.48
457.73	2908.12
457.93	3078.10
458.14	2799.57
458.34	2641.88
458.54	2826.20
458.75	2766.81
458.95	3180.50
459.15	3084.24
459.36	2897.88
459.56	2801.62
459.76	3418.06
459.97	2953.17
460.17	2904.02
460.37	2951.12
460.58	2957.27
460.78	3016.66
460.99	2824.15
461.19	2787.29
461.39	2848.72
461.60	2895.83
461.80	2940.88
462.00	2815.96
462.21	3028.95
462.41	2838.48
462.61	2686.94
462.82	2613.21
463.02	3080.14
463.22	2977.75
463.43	2883.54
463.63	2768.85
463.83	3262.41
464.04	3098.58
464.24	2861.01
464.44	2807.77
464.64	3014.61
464.85	3082.19
465.05	2967.51
465.25	2805.72
465.46	2875.35
465.66	3147.73
465.86	2912.21
466.07	2850.77
466.27	2949.08
466.47	2748.37
466.68	2693.08
466.88	2963.41
467.08	3108.82
467.29	3250.13
467.49	2848.72
467.69	2944.98
467.89	3033.04
468.10	2971.60
468.30	2869.20
468.50	3004.37
468.71	3164.11
468.91	2731.99
469.11	3096.53
469.31	2975.70
469.52	2822.10
469.72	3256.27
469.92	3055.57
470.13	2920.40
470.33	3020.75
470.53	3051.47
470.73	3190.74
470.94	3487.69
471.14	3647.43
471.34	4143.04
471.54	3905.48
471.75	3612.62
471.95	3366.86
472.15	3354.57
472.36	3366.86
472.56	3164.11
472.76	3461.07
472.96	3368.91
473.17	3127.25
473.37	3057.62
473.57	2926.55
473.77	3088.34
473.98	2942.93
474.18	2772.95
474.38	3442.64
474.58	2869.20
474.79	2734.04
474.99	2985.94
475.19	3227.60
475.39	2727.89
475.60	2895.83
475.80	2885.59
476.00	3039.19
476.20	2914.26
476.41	2830.29
476.61	2959.31
476.81	3235.79
477.01	2865.11
477.21	2990.03
477.42	3033.04
477.62	2867.16
477.82	3219.41
478.02	2772.95
478.23	2973.65
478.43	2848.72
478.63	2887.64
478.83	2873.30
479.03	2897.88
479.24	3270.61
479.44	3444.68
479.64	2764.76
479.84	2625.50
480.04	2873.30
480.25	3135.44
480.45	2807.77
480.65	2895.83
480.85	3205.07
481.06	2901.97
481.26	2879.44
481.46	2867.16
481.66	2932.69
481.86	2861.01
482.06	2983.89
482.27	2828.24
482.47	2947.03
482.67	2977.75
482.87	2930.64
483.07	2877.40
483.28	2873.30
483.48	2760.66
483.68	2881.49
483.88	2770.90
484.08	2629.59
484.29	2693.08
484.49	2901.97
484.69	2691.03
484.89	3211.22
485.09	3182.54
485.29	2934.74
485.50	2983.89
485.70	2916.31
485.90	3141.58
486.10	2977.75
486.30	2854.87
486.50	3153.87
486.71	3016.66
486.91	2947.03
487.11	2977.75
487.31	2809.81
487.51	3018.71
487.71	2815.96
487.91	2783.19
488.12	2828.24
488.32	2666.46
488.52	2852.82
488.72	2555.86
488.92	3076.05
489.12	3180.50
489.32	3074.00
489.53	2918.36
489.73	2764.76
489.93	3246.03
490.13	2793.43
490.33	2760.66
490.53	3082.19
490.73	3254.22
490.94	2736.09
491.14	2893.78
491.34	3200.98
491.54	3053.52
491.74	3721.16
491.94	4274.11
492.14	4759.48
492.34	4706.23
492.54	4345.79
492.75	3854.28
492.95	3899.33
493.15	3639.24
493.35	3512.27
493.55	3377.10
493.75	3356.62
493.95	3588.04
494.15	3086.29
494.35	2897.88
494.56	2996.18
494.76	2932.69
494.96	3024.85
495.16	2820.05
495.36	2953.17
495.56	3018.71
495.76	2893.78
495.96	2836.44
496.16	2901.97
496.36	3327.95
496.56	2828.24
496.77	2934.74
496.97	3010.51
497.17	3200.98
497.37	2736.09
497.57	2963.41
497.77	2942.93
497.97	2770.90
498.17	2842.58
498.37	2879.44
498.57	3160.02
498.77	2971.60
498.97	3041.23
499.17	3123.15
499.38	2920.40
499.58	3061.71
499.78	3030.99
499.98	2955.22
500.18	2969.55
500.38	2844.63
500.58	3086.29
500.78	3465.16
500.98	5656.49
501.18	7448.46
501.38	8826.75
501.58	9672.56
501.78	9621.36
501.98	8132.48
502.18	6760.34
502.38	5918.63
502.58	5750.70
502.78	5056.43
502.98	4814.77
503.18	4642.75
503.38	4333.50
503.59	3774.41
503.79	3667.91
503.99	3428.30
504.19	3430.35
504.39	3399.63
504.59	3383.24
504.79	3260.37
504.99	3518.41
505.19	3172.30
505.39	3071.95
505.59	3211.22
505.79	3317.71
505.99	3213.26
506.19	2949.08
506.39	3057.62
506.59	2897.88
506.79	2918.36
506.99	3006.42
507.19	2836.44
507.39	3071.95
507.59	2824.15
507.79	2822.10
507.99	2807.77
508.19	3022.80
508.39	2979.79
508.59	2863.06
508.79	2961.36
508.99	3346.38
509.19	2854.87
509.39	2938.84
509.59	2779.09
509.79	2844.63
509.99	3112.91
510.19	2985.94
510.39	2987.99
510.59	3094.48
510.79	2992.08
510.99	2635.74
511.19	2828.24
511.39	3289.04
511.59	3203.02
511.79	3014.61
511.99	2879.44
512.19	3258.32
512.38	2944.98
512.58	2729.94
512.78	2826.20
512.98	3166.16
513.18	3258.32
513.38	2766.81
513.58	2975.70
513.78	2895.83
513.98	3037.14
514.18	2815.96
514.38	2799.57
514.58	3049.43
514.78	2869.20
514.98	2789.33
515.18	2830.29
515.38	2840.53
515.58	3258.32
515.78	2873.30
515.98	2846.68
516.18	3180.50
516.38	2918.36
516.57	2785.24
516.77	2791.38
516.97	3074.00
517.17	2887.64
517.37	2605.02
517.57	2918.36
517.77	3043.28
517.97	2869.20
518.17	2879.44
518.37	2721.75
518.57	2818.00
518.77	2887.64
518.97	2844.63
519.16	2861.01
519.36	3121.10
519.56	2887.64
519.76	2811.86
519.96	2947.03
520.16	3198.93
520.36	2852.82
520.56	3010.51
520.76	2822.10
520.96	2932.69
521.16	3172.30
521.35	3055.57
521.55	2942.93
521.75	3045.33
521.95	2871.25
522.15	2842.58
522.35	2717.65
522.55	2865.11
522.75	3151.82
522.95	2723.80
523.14	2742.23
523.34	3065.81
523.54	2858.96
523.74	2922.45
523.94	2848.72
524.14	2701.27
524.34	3020.75
524.54	3076.05
524.73	2813.91
524.93	3135.44
525.13	2983.89
525.33	2770.90
525.53	3127.25
525.73	3153.87
525.93	3018.71
526.13	2895.83
526.32	2815.96
526.52	3176.40
526.72	3143.63
526.92	2879.44
527.12	2795.48
527.32	2807.77
527.52	3041.23
527.71	2887.64
527.91	2838.48
528.11	2891.73
528.31	2891.73
528.51	2822.10
528.71	2990.03
528.90	3080.14
529.10	3182.54
529.30	2947.03
529.50	2551.77
529.70	3033.04
529.90	2959.31
530.09	2826.20
530.29	2686.94
530.49	2951.12
530.69	3448.78
530.89	2975.70
531.09	2967.51
531.28	2959.31
531.48	3119.06
531.68	2858.96
531.88	2834.39
532.08	3174.35
532.28	2920.40
532.47	2983.89
532.67	2922.45
532.87	3104.72
533.07	2842.58
533.27	2992.08
533.46	2930.64
533.66	3098.58
533.86	2981.84
534.06	2891.73
534.26	2858.96
534.45	2967.51
534.65	3074.00
534.85	2975.70
535.05	2818.00
535.25	3071.95
535.44	2701.27
535.64	2901.97
535.84	2877.40
536.04	2895.83
536.24	2840.53
536.43	2803.67
536.63	2824.15
536.83	2990.03
537.03	2936.79
537.22	2770.90
537.42	2697.17
537.62	3006.42
537.82	2834.39
538.02	3041.23
538.21	2944.98
538.41	3434.44
538.61	3102.67
538.81	2914.26
539.00	2965.46
539.20	2764.76
539.40	2983.89
539.60	2828.24
539.79	3090.38
539.99	2983.89
540.19	2838.48
540.39	2854.87
540.58	2832.34
540.78	3160.02
540.98	3035.09
541.18	3125.20
541.37	2996.18
541.57	3082.19
541.77	3024.85
541.97	2758.61
542.16	2746.33
542.36	2877.40
542.56	2904.02
542.76	3043.28
542.95	2955.22
543.15	3092.43
543.35	3074.00
543.54	2852.82
543.74	2805.72
543.94	3241.93
544.14	2863.06
544.33	2924.50
544.53	2832.34
544.73	2904.02
544.93	2922.45
545.12	2893.78
545.32	2832.34
545.52	2914.26
545.71	2736.09
545.91	2818.00
546.11	2822.10
546.30	2742.23
546.50	3000.27
546.70	2959.31
546.90	2877.40
547.09	2770.90
547.29	3041.23
547.49	3008.47
547.68	2883.54
547.88	2879.44
548.08	3086.29
548.27	3227.60
548.47	2820.05
548.67	2883.54
548.87	3020.75
549.06	2768.85
549.26	2856.92
549.46	3024.85
549.65	2856.92
549.85	2842.58
550.05	2901.97
550.24	2779.09
550.44	2965.46
550.64	2865.11
550.83	2875.35
551.03	3321.81
551.23	3057.62
551.42	2942.93
551.62	2912.21
551.82	3053.52
552.01	2953.17
552.21	3207.12
552.41	2809.81
552.60	3258.32
552.80	2977.75
553.00	2879.44
553.19	2910.16
553.39	3346.38
553.59	2858.96
553.78	3000.27
553.98	2799.57
554.17	2736.09
554.37	3063.76
554.57	2949.08
554.76	2734.04
554.96	2873.30
555.16	3016.66
555.35	2959.31
555.55	3014.61
555.75	3059.67
555.94	3084.24
556.14	2688.98
556.33	2881.49
556.53	2942.93
556.73	2926.55
556.92	2951.12
557.12	2842.58
557.32	3323.85
557.51	3219.41
557.71	2918.36
557.90	3090.38
558.10	3139.54
558.30	2926.55
558.49	2899.92
558.69	2811.86
558.88	3061.71
559.08	3074.00
559.28	2846.68
559.47	2947.03
559.67	3164.11
559.86	3309.52
560.06	2832.34
560.26	2840.53
560.45	3082.19
560.65	2914.26
560.84	3135.44
561.04	2779.09
561.24	3061.71
561.43	2889.68
561.63	3090.38
561.82	2942.93
562.02	3155.92
562.22	2793.43
562.41	2746.33
562.61	2785.24
562.80	2801.62
563.00	3346.38
563.19	2881.49
563.39	2916.31
563.59	3080.14
563.78	2803.67
563.98	2605.02
564.17	2768.85
564.37	2744.28
564.56	2975.70
564.76	2764.76
564.96	3008.47
565.15	3035.09
565.35	3327.95
565.54	2852.82
565.74	2883.54
565.93	3069.91
566.13	3069.91
566.32	2955.22
566.52	2924.50
566.71	3028.95
566.91	3149.78
567.11	2901.97
567.30	2822.10
567.50	3057.62
567.69	3108.82
567.89	2846.68
568.08	2691.03
568.28	3016.66
568.47	2779.09
568.67	2893.78
568.86	2813.91
569.06	3139.54
569.25	2887.64
569.45	2727.89
569.64	2893.78
569.84	2883.54
570.04	3012.56
570.23	2854.87
570.43	2877.40
570.62	3061.71
570.82	3213.26
571.01	2785.24
571.21	2809.81
571.40	2809.81
571.60	3094.48
571.79	2887.64
571.99	2848.72
572.18	2877.40
572.38	3008.47
572.57	2885.59
572.77	2985.94
572.96	3495.88
573.16	3055.57
573.35	2844.63
573.55	3010.51
573.74	2990.03
573.94	2928.60
574.13	2893.78
574.33	3039.19
574.52	3135.44
574.71	2959.31
574.91	2938.84
575.10	2727.89
575.30	2938.84
575.49	2869.20
575.69	2815.96
575.88	2783.19
576.08	2942.93
576.27	3168.21
576.47	2848.72
576.66	3084.24
576.86	3219.41
577.05	3080.14
577.25	2938.84
577.44	3082.19
577.64	2842.58
577.83	3168.21
578.02	2777.05
578.22	2992.08
578.41	3368.91
578.61	2955.22
578.80	2686.94
579.00	2910.16
579.19	3002.32
579.39	3117.01
579.58	2983.89
579.77	2906.07
579.97	3170.26
580.16	3114.96
580.36	3067.86
580.55	2940.88
580.75	3172.30
580.94	3008.47
581.13	3059.67
581.33	3061.71
581.52	2955.22
581.72	3364.81
581.91	2985.94
582.11	2836.44
582.30	3194.83
582.49	3059.67
582.69	3180.50
582.88	2926.55
583.08	2998.23
583.27	3190.74
583.47	2924.50
583.66	2912.21
583.85	2805.72
584.05	2985.94
584.24	3067.86
584.44	2932.69
584.63	3133.39
584.82	3127.25
585.02	3088.34
585.21	2951.12
585.41	3098.58
585.60	3026.90
585.79	3162.06
585.99	3182.54
586.18	3026.90
586.37	3825.61
586.57	5752.74
586.76	16926.46
586.96	36009.43
587.15	49249.55
587.34	57758.86
587.54	62202.95
587.73	54949.05
587.93	39048.62
588.12	30307.89
588.31	24153.74
588.51	21565.11
588.70	19730.13
588.89	17325.82
589.09	14735.14
589.28	12756.80
589.47	9899.88
589.67	7522.19
589.86	5971.88
590.06	4636.60
590.25	4059.07
590.44	3561.42
590.64	3289.04
590.83	3162.06
591.02	3254.22
591.22	2891.73
591.41	2912.21
591.60	2969.55
591.80	3381.20
591.99	2750.42
592.18	2842.58
592.38	3121.10
592.57	2885.59
592.76	2973.65
592.96	2955.22
593.15	2934.74
593.34	3141.58
593.54	2863.06
593.73	3024.85
593.92	3051.47
594.12	3039.19
594.31	2977.75
594.50	2938.84
594.70	3098.58
594.89	3428.30
595.08	2725.85
595.28	2947.03
595.47	3499.98
595.66	3217.36
595.86	2785.24
596.05	2809.81
596.24	2893.78
596.43	3336.14
596.63	2975.70
596.82	3024.85
597.01	3104.72
597.21	3377.10
597.40	2895.83
597.59	2858.96
597.79	2940.88
597.98	3049.43
598.17	2895.83
598.36	2887.64
598.56	3104.72
598.75	2918.36
598.94	2936.79
599.14	2846.68
599.33	2858.96
599.52	3190.74
599.71	2926.55
599.91	2963.41
600.10	3108.82
600.29	3000.27
600.48	2979.79
600.68	3045.33
600.87	3063.76
601.06	2887.64
601.26	2953.17
601.45	3051.47
601.64	2951.12
601.83	3223.50
602.03	2830.29
602.22	2787.29
602.41	3153.87
602.60	3491.79
602.80	3004.37
602.99	3012.56
603.18	2895.83
603.37	3065.81
603.57	2803.67
603.76	2908.12
603.95	3178.45
604.14	2936.79
604.34	2820.05
604.53	2877.40
604.72	3047.38
604.91	3076.05
605.10	2871.25
605.30	2727.89
605.49	3364.81
605.68	3166.16
605.87	2947.03
606.07	2828.24
606.26	2965.46
606.45	3053.52
606.64	2885.59
606.84	2754.52
607.03	2953.17
607.22	3184.59
607.41	2906.07
607.60	2799.57
607.80	3114.96
607.99	2914.26
608.18	2906.07
608.37	2875.35
608.56	2820.05
608.76	3170.26
608.95	3096.53
609.14	2889.68
609.33	3207.12
609.52	3139.54
609.72	2891.73
609.91	3055.57
610.10	2959.31
610.29	3246.03
610.48	3016.66
610.68	2934.74
610.87	2922.45
611.06	3051.47
611.25	2893.78
611.44	3039.19
611.63	2914.26
611.83	3133.39
612.02	2725.85
612.21	2889.68
612.40	2727.89
612.59	2779.09
612.79	2750.42
612.98	2944.98
613.17	3227.60
613.36	2965.46
613.55	2959.31
613.74	2820.05
613.93	3000.27
614.13	3006.42
614.32	3045.33
614.51	2813.91
614.70	2863.06
614.89	2942.93
615.08	2916.31
615.28	3293.13
615.47	2842.58
615.66	3108.82
615.85	2910.16
616.04	2959.31
616.23	2977.75
616.42	2998.23
616.62	2832.34
616.81	2867.16
617.00	3045.33
617.19	3127.25
617.38	2852.82
617.57	2930.64
617.76	3055.57
617.95	3135.44
618.15	2953.17
618.34	3071.95
618.53	2709.46
618.72	3180.50
618.91	3061.71
619.10	2944.98
619.29	3004.37
619.48	3014.61
619.68	2736.09
619.87	2875.35
620.06	2744.28
620.25	3219.41
620.44	2752.47
620.63	2828.24
620.82	2981.84
621.01	2947.03
621.20	2963.41
621.39	2875.35
621.59	3008.47
621.78	3076.05
621.97	2953.17
622.16	2983.89
622.35	3090.38
622.54	3155.92
622.73	2967.51
622.92	2621.40
623.11	3090.38
623.30	2947.03
623.49	3002.32
623.68	2746.33
623.88	3223.50
624.07	2879.44
624.26	2797.53
624.45	2885.59
624.64	2926.55
624.83	3024.85
625.02	2901.97
625.21	2912.21
625.40	3090.38
625.59	3219.41
625.78	2920.40
625.97	3000.27
626.16	3231.69
626.35	3135.44
626.54	2914.26
626.74	3033.04
626.93	2899.92
627.12	2930.64
627.31	2877.40
627.50	2899.92
627.69	3196.88
627.88	2879.44
628.07	2805.72
628.26	2623.45
628.45	2916.31
628.64	2803.67
628.83	2850.77
629.02	2731.99
629.21	2957.27
629.40	3035.09
629.59	2789.33
629.78	2926.55
629.97	2969.55
630.16	3043.28
630.35	2818.00
630.54	2867.16
630.73	2889.68
630.92	3002.32
631.11	2791.38
631.30	2920.40
631.49	3137.49
631.68	2955.22
631.87	2875.35
632.06	2762.71
632.25	3340.24
632.44	2959.31
632.63	2916.31
632.82	2871.25
633.01	2899.92
633.20	3010.51
633.39	2867.16
633.58	2717.65
633.77	3088.34
633.96	3129.30
634.15	2906.07
634.34	2955.22
634.53	2994.13
634.72	2901.97
634.91	2678.74
635.10	2820.05
635.29	3139.54
635.48	3037.14
635.67	2748.37
635.86	2707.41
636.05	3227.60
636.24	3000.27
636.43	2836.44
636.62	2983.89
636.81	2588.63
637.00	2979.79
637.19	2830.29
637.38	2914.26
637.57	3035.09
637.76	2840.53
637.95	3012.56
638.14	2840.53
638.33	2979.79
638.52	2981.84
638.71	2842.58
638.89	2768.85
639.08	3454.92
639.27	3157.97
639.46	3030.99
639.65	3338.19
639.84	3409.87
640.03	3571.66
640.22	3178.45
640.41	3248.08
640.60	3026.90
640.79	3127.25
640.98	3055.57
641.17	3043.28
641.36	3153.87
641.55	3143.63
641.74	2748.37
641.92	2766.81
642.11	2846.68
642.30	2959.31
642.49	2779.09
642.68	2822.10
642.87	3119.06
643.06	3069.91
643.25	2768.85
643.44	2715.61
643.63	2951.12
643.82	3248.08
644.00	2748.37
644.19	2885.59
644.38	2795.48
644.57	3012.56
644.76	2861.01
644.95	3041.23
645.14	2959.31
645.33	2996.18
645.52	2889.68
645.71	2775.00
645.89	2869.20
646.08	2990.03
646.27	2775.00
646.46	3123.15
646.65	2805.72
646.84	3006.42
647.03	2750.42
647.22	2934.74
647.40	3049.43
647.59	2885.59
647.78	2691.03
647.97	2746.33
648.16	2770.90
648.35	3250.13
648.54	3104.72
648.73	2899.92
648.91	3123.15
649.10	3010.51
649.29	2836.44
649.48	2879.44
649.67	3098.58
649.86	3026.90
650.05	2850.77
650.23	3024.85
650.42	2854.87
650.61	3133.39
650.80	3100.62
650.99	3221.45
651.18	3182.54
651.36	3184.59
651.55	2783.19
651.74	3014.61
651.93	2975.70
652.12	2928.60
652.31	2897.88
652.49	2910.16
652.68	2944.98
652.87	3221.45
653.06	2951.12
653.25	3110.86
653.44	2969.55
653.62	3243.98
653.81	2893.78
654.00	2854.87
654.19	3147.73
654.38	3461.07
654.56	2969.55
654.75	2842.58
654.94	3104.72
655.13	3018.71
655.32	2799.57
655.51	2893.78
655.69	2938.84
655.88	3207.12
656.07	2727.89
656.26	2924.50
656.45	2756.57
656.63	2981.84
656.82	2871.25
657.01	3069.91
657.20	2916.31
657.38	3198.93
657.57	2818.00
657.76	2719.70
657.95	3129.30
658.14	2908.12
658.32	2949.08
658.51	2740.18
658.70	3018.71
658.89	3035.09
659.08	2822.10
659.26	3016.66
659.45	2861.01
659.64	3065.81
659.83	2842.58
660.01	3278.80
660.20	3065.81
660.39	3174.35
660.58	2656.22
660.76	2938.84
660.95	2699.22
661.14	3051.47
661.33	2688.98
661.51	2881.49
661.70	2881.49
661.89	3053.52
662.08	2920.40
662.26	2682.84
662.45	2760.66
662.64	3297.23
662.83	3006.42
663.01	2691.03
663.20	2869.20
663.39	3178.45
663.58	2762.71
663.76	2768.85
663.95	3088.34
664.14	2856.92
664.32	2828.24
664.51	2781.14
664.70	2680.79
664.89	3043.28
665.07	2686.94
665.26	2949.08
665.45	2715.61
665.64	2963.41
665.82	2813.91
666.01	2955.22
666.20	2762.71
666.38	3127.25
666.57	3178.45
666.76	4857.78
666.95	11136.85
667.13	17884.91
667.32	21647.03
667.51	24198.80
667.69	25343.61
667.88	21325.50
668.07	15249.18
668.25	13082.42
668.44	11290.45
668.63	9785.19
668.81	8759.16
669.00	7430.03
669.19	6735.77
669.38	5846.95
669.56	5066.67
669.75	4427.71
669.94	3940.29
670.12	3418.06
670.31	3160.02
670.50	3112.91
670.68	3166.16
670.87	3057.62
671.06	2883.54
671.24	2918.36
671.43	3213.26
671.62	2924.50
671.80	2842.58
671.99	3057.62
672.18	2987.99
672.36	3205.07
672.55	2922.45
672.74	2930.64
672.92	2891.73
673.11	3067.86
673.29	2711.51
673.48	2953.17
673.67	2920.40
673.85	3071.95
674.04	2807.77
674.23	2854.87
674.41	3266.51
674.60	2807.77
674.79	2684.89
674.97	2721.75
675.16	3157.97
675.34	3198.93
675.53	2873.30
675.72	2887.64
675.90	3307.47
676.09	2916.31
676.28	2877.40
676.46	2668.50
676.65	3143.63
676.83	2836.44
677.02	2932.69
677.21	2994.13
677.39	3018.71
677.58	2840.53
677.77	2877.40
677.95	2826.20
678.14	2944.98
678.32	2899.92
678.51	2881.49
678.70	3155.92
678.88	2928.60
679.07	2985.94
679.25	2906.07
679.44	2885.59
679.63	2758.61
679.81	2998.23
680.00	3088.34
680.18	2992.08
680.37	3215.31
680.55	3051.47
680.74	2682.84
680.93	2658.26
681.11	3002.32
681.30	2940.88
681.48	2799.57
681.67	2889.68
681.85	3026.90
682.04	2830.29
682.23	2987.99
682.41	3014.61
682.60	2918.36
682.78	2863.06
682.97	2760.66
683.15	2926.55
683.34	3018.71
683.53	3151.82
683.71	2711.51
683.90	2922.45
684.08	3305.42
684.27	2756.57
684.45	2938.84
684.64	2953.17
684.82	2944.98
685.01	3133.39
685.19	2865.11
685.38	3205.07
685.57	2904.02
685.75	2820.05
685.94	2885.59
686.12	2705.37
686.31	2899.92
686.49	3219.41
686.68	2725.85
686.86	2928.60
687.05	2926.55
687.23	3196.88
687.42	2844.63
687.60	2707.41
687.79	3211.22
687.97	3200.98
688.16	3004.37
688.34	2977.75
688.53	2744.28
688.71	3090.38
688.90	3110.86
689.08	2850.77
689.27	2760.66
689.45	3100.62
689.64	3035.09
689.82	2926.55
690.01	3022.80
690.19	2985.94
690.38	2936.79
690.56	3002.32
690.75	2793.43
690.93	2873.30
691.12	2842.58
691.30	2867.16
691.49	2955.22
691.67	2942.93
691.86	3178.45
692.04	2836.44
692.23	2959.31
692.41	2979.79
692.60	3162.06
692.78	3098.58
692.97	2918.36
693.15	3092.43
693.34	3157.97
693.52	3028.95
693.71	2963.41
693.89	2820.05
694.08	2717.65
694.26	2930.64
694.44	3147.73
694.63	3106.77
694.81	2758.61
695.00	2926.55
695.18	3178.45
695.37	3420.11
695.55	2938.84
695.74	2914.26
695.92	2848.72
696.10	3110.86
696.29	2693.08
696.47	2879.44
696.66	2701.27
696.84	2809.81
697.03	2910.16
697.21	3131.34
697.40	4370.37
697.58	3211.22
697.76	2850.77
697.95	2799.57
698.13	2824.15
698.32	2863.06
698.50	2834.39
698.68	2893.78
698.87	3063.76
699.05	3239.89
699.24	2828.24
699.42	2856.92
699.61	3047.38
699.79	2961.36
699.97	2904.02
700.16	2779.09
700.34	2813.91
700.53	2936.79
700.71	3112.91
700.89	2940.88
701.08	2848.72
701.26	2963.41
701.45	3307.47
701.63	2879.44
701.81	2852.82
702.00	2942.93
702.18	2893.78
702.37	2818.00
702.55	3166.16
702.73	3024.85
702.92	2846.68
703.10	3174.35
703.28	3131.34
703.47	2801.62
703.65	3071.95
703.84	2977.75
704.02	2885.59
704.20	3110.86
704.39	2820.05
704.57	2844.63
704.75	3069.91
704.94	2998.23
705.12	2914.26
705.30	3413.96
705.49	6631.32
705.67	13068.09
705.86	18421.48
706.04	20801.22
706.22	23289.50
706.41	22636.20
706.59	17000.19
706.77	13123.38
706.96	11538.26
707.14	10516.32
707.32	8976.25
707.51	7997.32
707.69	6563.74
707.87	5488.56
708.06	4652.98
708.24	3942.34
708.42	3694.54
708.61	3686.34
708.79	2979.79
708.97	2983.89
709.16	3043.28
709.34	3061.71
709.52	2842.58
709.71	2910.16
709.89	3123.15
710.07	2842.58
710.26	2762.71
710.44	2895.83
710.62	3129.30
710.80	2990.03
710.99	2961.36
711.17	2985.94
711.35	2838.48
711.54	2987.99
711.72	3104.72
711.90	2922.45
712.09	2981.84
712.27	2832.34
712.45	3026.90
712.63	2803.67
712.82	3024.85
713.00	2965.46
713.18	3084.24
713.37	2967.51
713.55	3114.96
713.73	3010.51
713.91	2990.03
714.10	2940.88
714.28	2918.36
714.46	3059.67
714.65	2963.41
714.83	2994.13
715.01	2973.65
715.19	3016.66
715.38	2803.67
715.56	2959.31
715.74	2871.25
715.92	2840.53
716.11	3098.58
716.29	2662.36
716.47	2930.64
716.65	2891.73
716.84	2666.46
717.02	3004.37
717.20	2731.99
717.38	2869.20
717.57	3012.56
717.75	2895.83
717.93	2899.92
718.11	3033.04
718.30	2678.74
718.48	2932.69
718.66	3215.31
718.84	3119.06
719.03	2869.20
719.21	2764.76
719.39	3348.43
719.57	3145.68
719.75	3014.61
719.94	2736.09
720.12	2955.22
720.30	3035.09
720.48	2951.12
720.67	2852.82
720.85	2834.39
721.03	2916.31
721.21	2762.71
721.39	2983.89
721.58	3131.34
721.76	3004.37
721.94	2967.51
722.12	2924.50
722.30	3258.32
722.49	2869.20
722.67	2858.96
722.85	2858.96
723.03	2682.84
723.21	2912.21
723.40	2934.74
723.58	3037.14
723.76	3153.87
723.94	3229.65
724.12	2947.03
724.30	3133.39
724.49	3166.16
724.67	2793.43
724.85	2996.18
725.03	2721.75
725.21	3114.96
725.40	3178.45
725.58	2834.39
725.76	3043.28
725.94	3098.58
726.12	2697.17
726.30	2834.39
726.49	2787.29
726.67	2908.12
726.85	3037.14
727.03	3416.01
727.21	4368.32
727.39	5478.32
727.57	5900.20
727.76	6193.06
727.94	6320.03
728.12	5705.64
728.30	4689.85
728.48	4442.04
728.66	4128.70
728.84	3839.94
729.03	3512.27
729.21	3319.76
729.39	3190.74
729.57	3102.67
729.75	3084.24
729.93	3020.75
730.11	2815.96
730.30	2938.84
730.48	2983.89
730.66	2916.31
730.84	2924.50
731.02	2969.55
731.20	2824.15
731.38	2951.12
731.56	2736.09
731.74	2793.43
731.93	3053.52
732.11	2955.22
732.29	2889.68
732.47	3080.14
732.65	3100.62
732.83	3086.29
733.01	3041.23
733.19	2869.20
733.37	3053.52
733.56	2914.26
733.74	2791.38
733.92	3254.22
734.10	2965.46
734.28	3069.91
734.46	2641.88
734.64	2983.89
734.82	2969.55
735.00	2813.91
735.18	2795.48
735.36	2963.41
735.54	2895.83
735.73	2861.01
735.91	2996.18
736.09	3145.68
736.27	2971.60
736.45	2924.50
736.63	2701.27
736.81	2879.44
736.99	3112.91
737.17	3051.47
737.35	2828.24
737.53	3024.85
737.71	2981.84
737.89	3076.05
738.07	2775.00
738.25	2822.10
738.43	2781.14
738.61	2906.07
738.80	2793.43
738.98	2750.42
739.16	2920.40
739.34	2768.85
739.52	3137.49
739.70	2848.72
739.88	3053.52
740.06	3028.95
740.24	2668.50
740.42	3231.69
740.60	2637.78
740.78	2875.35
740.96	2621.40
741.14	2930.64
741.32	3067.86
741.50	2697.17
741.68	3106.77
741.86	3215.31
742.04	2772.95
742.22	2824.15
742.40	2877.40
742.58	3063.76
742.76	2887.64
742.94	3024.85
743.12	2635.74
743.30	2889.68
743.48	3088.34
743.66	2793.43
743.84	2885.59
744.02	2865.11
744.20	2930.64
744.38	2785.24
744.56	2838.48
744.74	3213.26
744.92	3008.47
745.10	3123.15
745.28	2910.16
745.46	3305.42
745.64	2912.21
745.82	3008.47
746.00	2904.02
746.18	2992.08
746.36	2926.55
746.54	2955.22
746.72	2877.40
746.90	2736.09
747.08	3309.52
747.26	2904.02
747.44	2994.13
747.62	3057.62
747.80	3002.32
747.98	3010.51
748.15	2854.87
748.33	3268.56
748.51	2922.45
748.69	2938.84
748.87	2729.94
749.05	2932.69
749.23	2914.26
749.41	2877.40
749.59	2832.34
749.77	3106.77
749.95	2901.97
750.13	2754.52
750.31	2983.89
750.49	2996.18
750.67	3030.99
750.85	3067.86
751.03	2822.10
751.20	3344.33
751.38	2951.12
751.56	2940.88
751.74	2934.74
751.92	2936.79
752.10	2762.71
752.28	3051.47
752.46	2836.44
752.64	2957.27
752.82	2938.84
753.00	2924.50
753.18	2748.37
753.35	2953.17
753.53	2848.72
753.71	2768.85
753.89	2928.60
754.07	3076.05
754.25	3129.30
754.43	2912.21
754.61	2775.00
754.79	3071.95
754.97	2928.60
755.14	3108.82
755.32	2756.57
755.50	2934.74
755.68	3022.80
755.86	2764.76
756.04	2848.72
756.22	2682.84
756.40	3121.10
756.57	3033.04
756.75	2887.64
756.93	3141.58
757.11	3098.58
757.29	2781.14
757.47	2754.52
757.65	2684.89
757.82	2557.91
758.00	2807.77
758.18	2879.44
758.36	2863.06
758.54	3282.89
758.72	2695.13
758.90	2947.03
759.07	3106.77
759.25	2877.40
759.43	2944.98
759.61	2711.51
759.79	4247.49
759.97	3194.83
760.15	2930.64
760.32	2873.30
760.50	3012.56
760.68	3356.62
760.86	2727.89
761.04	3057.62
761.22	3094.48
761.39	2957.27
761.57	2963.41
761.75	2854.87
761.93	3086.29
762.11	3057.62
762.28	2904.02
762.46	2840.53
762.64	3100.62
762.82	2809.81
763.00	2916.31
763.18	3074.00
763.35	2736.09
763.53	3063.76
763.71	2881.49
763.89	2873.30
764.07	2908.12
764.24	3008.47
764.42	2951.12
764.60	2856.92
764.78	3071.95
764.96	3157.97
765.13	3006.42
765.31	2863.06
765.49	3147.73
765.67	2912.21
765.84	2863.06
766.02	2842.58
766.20	2662.36
766.38	3065.81
766.56	3024.85
766.73	3016.66
766.91	3030.99
767.09	3004.37
767.27	2873.30
767.44	2754.52
767.62	3090.38
767.80	3045.33
767.98	2797.53
768.15	2803.67
768.33	3112.91
768.51	3108.82
768.69	2901.97
768.87	2926.55
769.04	2887.64
769.22	3385.29
769.40	3059.67
769.58	3106.77
769.75	3043.28
769.93	3166.16
770.11	2881.49
770.28	2711.51
770.46	3045.33
770.64	3114.96
770.82	2820.05
770.99	2852.82
771.17	3108.82
771.35	2875.35
771.53	2824.15
771.70	2813.91
771.88	3110.86
772.06	2942.93
772.23	2899.92
772.41	2904.02
772.59	2906.07
772.77	2828.24
772.94	2891.73
773.12	2955.22
773.30	2908.12
773.47	2981.84
773.65	2809.81
773.83	3039.19
774.01	2987.99
774.18	2697.17
774.36	2873.30
774.54	2725.85
774.71	3043.28
774.89	2756.57
775.07	2688.98
775.24	2742.23
775.42	2906.07
775.60	3213.26
775.78	2787.29
775.95	2723.80
776.13	2693.08
776.31	2680.79
776.48	2981.84
776.66	3090.38
776.84	2922.45
777.01	2861.01
777.19	2803.67
777.37	2756.57
777.54	3164.11
777.72	3299.28
777.90	2961.36
778.07	2820.05
778.25	3571.66
778.43	3198.93
778.60	2785.24
778.78	3022.80
778.96	3248.08
779.13	2852.82
779.31	2981.84
779.49	2885.59
779.66	3022.80
779.84	2938.84
780.01	2772.95
780.19	2731.99
780.37	3166.16
780.54	3047.38
780.72	2789.33
780.90	2930.64
781.07	2965.46
781.25	2926.55
781.43	2940.88
781.60	2858.96
781.78	3186.64
781.95	2977.75
782.13	2846.68
782.31	2877.40
782.48	2662.36
782.66	2996.18
782.83	3145.68
783.01	2944.98
783.19	3045.33
783.36	2885.59
783.54	2797.53
783.72	2901.97
783.89	2871.25
784.07	3002.32
784.24	2944.98
784.42	3041.23
784.60	2994.13
784.77	3016.66
784.95	2691.03
785.12	2861.01
785.30	2977.75
785.47	2777.05
785.65	2764.76
785.83	2895.83
786.00	2936.79
786.18	3037.14
786.35	2826.20
786.53	2754.52
786.71	3084.24
786.88	3088.34
787.06	2947.03
787.23	2906.07
787.41	2801.62
787.58	2977.75
787.76	2799.57
787.94	2889.68
788.11	3008.47
788.29	2783.19
788.46	2854.87
788.64	2592.73
788.81	2858.96
788.99	2797.53
789.16	2779.09
789.34	2971.60
789.52	2820.05
789.69	2928.60
789.87	2648.02
790.04	2871.25
790.22	3014.61
790.39	3405.77
790.57	2734.04
790.74	2807.77
790.92	3104.72
791.09	2682.84
791.27	2951.12
791.44	2977.75
791.62	2910.16
791.79	3170.26
791.97	2926.55
792.15	3280.85
792.32	3170.26
792.50	3123.15
792.67	3053.52
792.85	3184.59
793.02	3016.66
793.20	2889.68
793.37	2719.70
793.55	2809.81
793.72	2740.18
793.90	3020.75
794.07	2832.34
794.25	2791.38
794.42	2940.88
794.60	2975.70
794.77	2893.78
794.95	3033.04
795.12	3094.48
795.30	2955.22
795.47	2676.70
795.65	3207.12
795.82	2981.84
796.00	2901.97
796.17	2846.68
796.34	2781.14
796.52	2977.75
796.69	3186.64
796.87	2983.89
797.04	2922.45
797.22	3198.93
797.39	3022.80
797.57	2916.31
797.74	2951.12
797.92	3096.53
798.09	2914.26
798.27	3137.49
798.44	2832.34
798.62	2828.24
798.79	2981.84
798.96	3018.71
799.14	2834.39
799.31	3446.73
799.49	2926.55
799.66	2750.42
799.84	2932.69
800.01	2707.41
800.19	3000.27
800.36	2707.41
800.53	2916.31
800.71	3084.24
800.88	3289.04
801.06	2865.11
801.23	2768.85
801.41	2881.49
801.58	2840.53
801.75	2854.87
801.93	2994.13
802.10	3137.49
802.28	2994.13
802.45	2832.34
802.63	2983.89
802.80	3205.07
802.97	2883.54
803.15	2883.54
803.32	2727.89
803.50	2914.26
803.67	2744.28
803.84	2791.38
804.02	2865.11
804.19	2959.31
804.37	2607.06
804.54	2770.90
804.71	2762.71
804.89	3059.67
805.06	2783.19
805.24	2742.23
805.41	2668.50
805.58	2844.63
805.76	3303.37
805.93	2852.82
806.10	3026.90
806.28	3061.71
806.45	2992.08
806.63	2975.70
806.80	3024.85
806.97	3094.48
807.15	3049.43
807.32	2885.59
807.49	2818.00
807.67	2791.38
807.84	2979.79
808.01	2672.60
808.19	3020.75
808.36	3235.79
808.54	2818.00
808.71	2842.58
808.88	2922.45
809.06	3129.30
809.23	3205.07
809.40	2793.43
809.58	2873.30
809.75	2908.12
809.92	2815.96
810.10	3057.62
810.27	2877.40
810.44	3043.28
810.62	3074.00
810.79	2871.25
810.96	2844.63
811.14	2918.36
811.31	3084.24
811.48	2975.70
811.66	2918.36
811.83	3096.53
812.00	3076.05
812.18	2891.73
812.35	3127.25
812.52	2942.93
812.69	2899.92
812.87	2807.77
813.04	2844.63
813.21	3014.61
813.39	2865.11
813.56	2779.09
813.73	3108.82
813.91	2777.05
814.08	2949.08
814.25	2795.48
814.42	2648.02
814.60	2975.70
814.77	2990.03
814.94	2818.00
815.12	2961.36
815.29	3223.50
815.46	2840.53
815.63	2918.36
815.81	2856.92
815.98	2918.36
816.15	2971.60
816.33	2934.74
816.50	2836.44
816.67	2969.55
816.84	2828.24
817.02	2836.44
817.19	2858.96
817.36	2965.46
817.53	3047.38
817.71	2766.81
817.88	2854.87
818.05	2881.49
818.22	2920.40
818.40	3096.53
818.57	2877.40
818.74	3078.10
818.91	2942.93
819.09	3053.52
819.26	3012.56
819.43	2822.10
819.60	2908.12
819.78	3006.42
819.95	2938.84
820.12	2783.19
820.29	3153.87
820.47	3117.01
820.64	2820.05
820.81	2750.42
820.98	2848.72
821.15	2830.29
821.33	3000.27
821.50	2660.31
821.67	3049.43
821.84	2813.91
822.02	2789.33
822.19	3143.63
822.36	2924.50
822.53	2758.61
822.70	2727.89
822.88	2959.31
823.05	3227.60
823.22	2848.72
823.39	2875.35
823.56	3004.37
823.74	3256.27
823.91	2758.61
824.08	2785.24
824.25	2781.14
824.42	3301.33
824.60	2762.71
824.77	2928.60
824.94	2926.55
825.11	3094.48
825.28	2686.94
825.45	3000.27
825.63	2961.36
825.80	2826.20
825.97	2912.21
826.14	2793.43
826.31	2635.74
826.48	3094.48
826.66	2858.96
826.83	2758.61
827.00	2965.46
827.17	2822.10
827.34	2856.92
827.51	2785.24
827.69	2928.60
827.86	2662.36
828.03	2875.35
828.20	2932.69
828.37	2850.77
828.54	3022.80
828.71	2758.61
828.89	2965.46
829.06	3022.80
829.23	3184.59
829.40	2799.57
829.57	2791.38
829.74	3125.20
829.91	2904.02
830.09	2856.92
830.26	2971.60
830.43	3332.05
830.60	2963.41
830.77	2959.31
830.94	3123.15
831.11	3071.95
831.28	2883.54
831.46	2992.08
831.63	2822.10
831.80	3090.38
831.97	2885.59
832.14	2875.35
832.31	2906.07
832.48	3067.86
832.65	3143.63
832.82	2942.93
832.99	3057.62
833.17	2760.66
833.34	3200.98
833.51	2842.58
833.68	2615.26
833.85	3133.39
834.02	2799.57
834.19	2754.52
834.36	2818.00
834.53	2961.36
834.70	3114.96
834.87	2807.77
835.04	2721.75
835.22	2789.33
835.39	2906.07
835.56	2645.98
835.73	2727.89
835.90	3172.30
836.07	2865.11
836.24	2906.07
836.41	2715.61
836.58	2777.05
836.75	3141.58
836.92	2744.28
837.09	2721.75
837.26	3059.67
837.43	2951.12
837.60	2775.00
837.77	2793.43
837.94	3108.82
838.12	3164.11
838.29	2635.74
838.46	2691.03
838.63	2795.48
838.80	3194.83
838.97	2818.00
839.14	2705.37
839.31	3024.85
839.48	3151.82
839.65	2699.22
839.82	2779.09
839.99	2983.89
840.16	2967.51
840.33	2627.54
840.50	2787.29
840.67	2848.72
840.84	2533.34
841.01	2643.93
841.18	2682.84
841.35	2985.94
841.52	2963.41
841.69	3053.52
841.86	2717.65
842.03	2975.70
842.20	3149.78
842.37	2756.57
842.54	2766.81
842.71	2893.78
842.88	2701.27
843.05	2703.32
843.22	2697.17
843.39	3071.95
843.56	2942.93
843.73	2719.70
843.90	2787.29
844.07	2977.75
844.24	3117.01
844.41	2826.20
844.58	2787.29
844.75	2975.70
844.92	3135.44
845.09	2772.95
845.26	2756.57
845.43	3030.99
845.60	2926.55
845.77	2850.77
845.94	2871.25
846.10	3153.87
846.27	2723.80
846.44	2688.98
846.61	2619.35
846.78	3082.19
846.95	3153.87
847.12	2695.13
847.29	2764.76
847.46	2858.96
847.63	3162.06
847.80	2695.13
847.97	2779.09
848.14	3323.85
848.31	2940.88
848.48	2643.93
848.65	2770.90
848.82	2772.95
848.98	3411.92
849.15	2838.48
849.32	2813.91
849.49	3213.26
849.66	2959.31
849.83	2682.84
850.00	2727.89
850.17	3190.74
850.34	2863.06
850.51	2711.51
850.68	2731.99
850.85	3450.83
851.01	3000.27
851.18	2779.09
851.35	2742.23
851.52	3090.38
851.69	3211.22
851.86	2631.64
852.03	2709.46
852.20	3094.48
852.37	3074.00
852.53	2633.69
852.70	2691.03
852.87	3061.71
853.04	3098.58
853.21	2715.61
853.38	2951.12
853.55	3184.59
853.72	3246.03
853.89	2660.31
854.05	2703.32
854.22	2985.94
854.39	2820.05
854.56	2631.64
854.73	2924.50
854.90	2877.40
855.07	2942.93
855.23	2641.88
855.40	2633.69
855.57	3026.90
855.74	2709.46
855.91	2918.36
856.08	2637.78
856.25	2736.09
856.41	2871.25
856.58	2752.47
856.75	2779.09
856.92	2785.24
857.09	2979.79
857.26	2586.58
857.42	2754.52
857.59	3147.73
857.76	2906.07
857.93	2742.23
858.10	2811.86
858.27	2772.95
858.43	3043.28
858.60	2750.42
858.77	2639.83
858.94	2910.16
859.11	3084.24
859.27	2785.24
859.44	2611.16
859.61	3389.39
859.78	3117.01
859.95	2707.41
860.12	2711.51
860.28	3403.72
860.45	3291.09
860.62	2727.89
860.79	2818.00
860.95	2906.07
861.12	2918.36
861.29	2643.93
861.46	2629.59
861.63	2942.93
861.79	2996.18
861.96	2625.50
862.13	2639.83
862.30	3176.40
862.47	2987.99
862.63	2609.11
862.80	2731.99
862.97	3184.59
863.14	3051.47
863.30	2764.76
863.47	2639.83
863.64	3227.60
863.81	3012.56
863.97	2688.98
864.14	2695.13
864.31	2971.60
864.48	2951.12
864.65	2676.70
864.81	2844.63
864.98	3065.81
865.15	3088.34
865.32	2756.57
865.48	2805.72
865.65	3289.04
865.82	2910.16
865.98	2789.33
866.15	2885.59
866.32	2930.64
866.49	2992.08
866.65	2934.74
866.82	2772.95
866.99	2957.27
867.16	2879.44
867.32	2727.89
867.49	2686.94
867.66	2934.74
867.83	2815.96
867.99	2631.64
868.16	2721.75
868.33	2803.67
868.49	2955.22
868.66	2660.31
868.83	2781.14
868.99	3063.76
869.16	3012.56
869.33	2865.11
869.50	2820.05
869.66	3037.14
869.83	2916.31
870.00	2699.22
870.16	2910.16
870.33	2994.13
870.50	3121.10
870.66	2809.81
870.83	2820.05
871.00	2977.75
871.17	3088.34
871.33	2838.48
871.50	2713.56
871.67	2852.82
871.83	2701.27
872.00	2920.40
872.17	2789.33
872.33	3307.47
872.50	3071.95
872.67	2740.18
872.83	2746.33
873.00	3129.30
873.17	2955.22
873.33	2803.67
873.50	2809.81
873.67	2840.53
873.83	2793.43
874.00	2772.95
874.16	2893.78
874.33	2977.75
874.50	2789.33
874.66	2840.53
874.83	2842.58
875.00	3121.10
875.16	3065.81
875.33	2820.05
875.50	2549.72
875.66	2936.79
875.83	2889.68
875.99	2840.53
876.16	2779.09
876.33	2727.89
876.49	2934.74
876.66	2760.66
876.83	2848.72
876.99	2752.47
877.16	2904.02
877.32	2742.23
877.49	2822.10
877.66	3018.71
877.82	3246.03
877.99	2856.92
878.15	2928.60
878.32	2977.75
878.49	2957.27
878.65	2797.53
878.82	2930.64
878.98	2815.96
879.15	3188.69
879.32	2848.72
879.48	2906.07
879.65	2971.60
879.81	2846.68
879.98	2754.52
880.15	2834.39
880.31	3069.91
880.48	2797.53
880.64	2818.00
880.81	2936.79
880.97	3289.04
881.14	3192.78
881.31	2707.41
881.47	2944.98
881.64	2906.07
881.80	2674.65
881.97	2887.64
882.13	2697.17
882.30	2838.48
882.47	2861.01
882.63	2693.08
882.80	2711.51
882.96	2848.72
883.13	3323.85
883.29	2844.63
883.46	2740.18
883.62	3139.54
883.79	2959.31
883.95	2920.40
884.12	2693.08
884.29	3096.53
884.45	2996.18
884.62	2729.94
884.78	2711.51
884.95	3256.27
885.11	2838.48
885.28	2850.77
885.44	2795.48
885.61	3190.74
885.77	3194.83
885.94	2787.29
886.10	2836.44
886.27	2926.55
886.43	3291.09
886.60	2912.21
886.76	2729.94
886.93	2805.72
887.09	3000.27
887.26	2637.78
887.42	2867.16
887.59	3080.14
887.75	3325.90
887.92	2904.02
888.08	2924.50
888.25	3243.98
888.41	3078.10
888.58	2818.00
888.74	2641.88
888.91	2889.68
>>>>>End Processed Spectral Data<<<<<
