SpectraSuite Data File
++++++++++++++++++++++++++++++++++++
Date: Thu May 05 21:10:39 CEST 2016
User: root
Dark Spectrum Present: No
Reference Spectrum Present: No
Number of Sampled Component Spectra: 1
Spectrometers: USB4C02835
Integration Time (usec): 100000 (USB4C02835)
Spectra Averaged: 1 (USB4C02835)
Boxcar Smoothing: 0 (USB4C02835)
Correct for Electrical Dark: No (USB4C02835)
Strobe/Lamp Enabled: No (USB4C02835)
Correct for Detector Non-linearity: No (USB4C02835)
Correct for Stray Light: No (USB4C02835)
Number of Pixels in Processed Spectrum: 3648
>>>>>Begin Processed Spectral Data<<<<<
177.47	2176.99
177.69	2176.99
177.91	2176.99
178.13	2146.27
178.36	2136.03
178.58	2846.68
178.80	2897.88
179.02	2709.46
179.24	2818.00
179.46	2539.48
179.68	2633.69
179.90	2973.65
180.13	2981.84
180.35	2551.77
180.57	2631.64
180.79	3092.43
181.01	2979.79
181.23	2703.32
181.45	2740.18
181.67	3117.01
181.90	3143.63
182.12	2791.38
182.34	2508.76
182.56	3065.81
182.78	3155.92
183.00	2650.07
183.22	2777.05
183.44	2705.37
183.66	3450.83
183.89	2846.68
184.11	2680.79
184.33	3053.52
184.55	3196.88
184.77	2707.41
184.99	2725.85
185.21	2842.58
185.43	3452.88
185.65	2666.46
185.87	2666.46
186.10	3420.11
186.32	3420.11
186.54	2850.77
186.76	2748.37
186.98	3184.59
187.20	2977.75
187.42	2742.23
187.64	2656.22
187.86	3008.47
188.08	3088.34
188.30	2572.25
188.52	2717.65
188.75	3178.45
188.97	3207.12
189.19	2664.41
189.41	2631.64
189.63	3002.32
189.85	2922.45
190.07	2490.33
190.29	2559.96
190.51	2998.23
190.73	2734.04
190.95	2834.39
191.17	2650.07
191.39	2666.46
191.61	3000.27
191.84	2721.75
192.06	2875.35
192.28	2734.04
192.50	3461.07
192.72	2809.81
192.94	2693.08
193.16	3180.50
193.38	3071.95
193.60	2609.11
193.82	2852.82
194.04	3112.91
194.26	3035.09
194.48	2744.28
194.70	2635.74
194.92	2895.83
195.14	3047.38
195.36	2637.78
195.58	2779.09
195.80	2940.88
196.02	2891.73
196.24	2633.69
196.46	2748.37
196.69	2977.75
196.91	3411.92
197.13	2744.28
197.35	2645.98
197.57	3248.08
197.79	3100.62
198.01	2695.13
198.23	2705.37
198.45	3084.24
198.67	2633.69
198.89	2566.10
199.11	2838.48
199.33	2840.53
199.55	2594.78
199.77	2672.60
199.99	2815.96
200.21	2926.55
200.43	2969.55
200.65	2562.01
200.87	2482.14
201.09	2953.17
201.31	2918.36
201.53	2740.18
201.75	2729.94
201.97	2983.89
202.19	3041.23
202.41	2750.42
202.63	2848.72
202.85	3149.78
203.07	3022.80
203.29	2779.09
203.51	2594.78
203.73	2811.86
203.95	3444.68
204.17	2715.61
204.39	2824.15
204.61	2947.03
204.83	2910.16
205.05	2832.34
205.27	2688.98
205.49	3405.77
205.71	2930.64
205.93	2611.16
206.15	2645.98
206.37	3018.71
206.59	2922.45
206.81	2568.15
207.03	2557.91
207.25	2803.67
207.47	3112.91
207.69	2688.98
207.91	2922.45
208.13	3284.94
208.34	2871.25
208.56	2619.35
208.78	2697.17
209.00	2938.84
209.22	2904.02
209.44	2715.61
209.66	2779.09
209.88	2959.31
210.10	2992.08
210.32	2717.65
210.54	2674.65
210.76	2940.88
210.98	3168.21
211.20	2449.37
211.42	2791.38
211.64	3102.67
211.86	2994.13
212.08	2731.99
212.30	2738.13
212.52	2881.49
212.74	3024.85
212.96	2713.56
213.17	2748.37
213.39	3057.62
213.61	3262.41
213.83	2709.46
214.05	2551.77
214.27	3129.30
214.49	2822.10
214.71	2676.70
214.93	2801.62
215.15	3055.57
215.37	3065.81
215.59	2525.15
215.81	2682.84
216.03	3338.19
216.24	2887.64
216.46	2738.13
216.68	2705.37
216.90	3016.66
217.12	3160.02
217.34	2648.02
217.56	2779.09
217.78	3268.56
218.00	3061.71
218.22	2772.95
218.44	2772.95
218.66	3039.19
218.87	3315.66
219.09	2635.74
219.31	2709.46
219.53	3055.57
219.75	2883.54
219.97	2717.65
220.19	2721.75
220.41	2953.17
220.63	3266.51
220.85	2715.61
221.06	2725.85
221.28	3223.50
221.50	3022.80
221.72	2600.92
221.94	2519.00
222.16	3100.62
222.38	3174.35
222.60	2656.22
222.82	2715.61
223.03	3164.11
223.25	2805.72
223.47	2764.76
223.69	2961.36
223.91	3239.89
224.13	3020.75
224.35	2639.83
224.57	2832.34
224.78	3119.06
225.00	2828.24
225.22	2752.47
225.44	2592.73
225.66	3090.38
225.88	2875.35
226.10	2799.57
226.32	2781.14
226.53	3149.78
226.75	2936.79
226.97	2775.00
227.19	2738.13
227.41	2861.01
227.63	2832.34
227.85	2559.96
228.06	2719.70
228.28	3012.56
228.50	3219.41
228.72	2473.95
228.94	2629.59
229.16	2654.17
229.37	2832.34
229.59	2525.15
229.81	2830.29
230.03	2969.55
230.25	2787.29
230.47	2514.91
230.69	2627.54
230.90	3162.06
231.12	2889.68
231.34	2762.71
231.56	2768.85
231.78	2775.00
232.00	3037.14
232.21	2707.41
232.43	2727.89
232.65	2688.98
232.87	3039.19
233.09	2527.19
233.30	2676.70
233.52	3211.22
233.74	2961.36
233.96	2662.36
234.18	2869.20
234.40	3041.23
234.61	3418.06
234.83	2521.05
235.05	2668.50
235.27	3389.39
235.49	3180.50
235.70	2592.73
235.92	2789.33
236.14	3047.38
236.36	3344.33
236.58	2605.02
236.79	2803.67
237.01	2961.36
237.23	2983.89
237.45	2889.68
237.67	2688.98
237.88	3024.85
238.10	3321.81
238.32	2586.58
238.54	2707.41
238.76	2914.26
238.97	2879.44
239.19	2588.63
239.41	2691.03
239.63	3217.36
239.85	2910.16
240.06	2693.08
240.28	2731.99
240.50	3153.87
240.72	3008.47
240.93	2621.40
241.15	2764.76
241.37	3039.19
241.59	3157.97
241.81	2588.63
242.02	2748.37
242.24	3024.85
242.46	3051.47
242.68	2502.62
242.89	2605.02
243.11	3135.44
243.33	2895.83
243.55	2643.93
243.76	2664.41
243.98	2832.34
244.20	2947.03
244.42	2662.36
244.64	2645.98
244.85	2777.05
245.07	2828.24
245.29	2734.04
245.51	2641.88
245.72	2983.89
245.94	3196.88
246.16	2674.65
246.38	2783.19
246.59	2940.88
246.81	2879.44
247.03	2580.44
247.24	2555.86
247.46	2979.79
247.68	2987.99
247.90	2625.50
248.11	2676.70
248.33	3125.20
248.55	2963.41
248.77	2721.75
248.98	2830.29
249.20	3311.57
249.42	3002.32
249.64	2682.84
249.85	2674.65
250.07	2877.40
250.29	3194.83
250.50	2783.19
250.72	2617.30
250.94	3053.52
251.16	3346.38
251.37	2717.65
251.59	2760.66
251.81	3102.67
252.02	3282.89
252.24	2629.59
252.46	2830.29
252.68	2842.58
252.89	2863.06
253.11	2568.15
253.33	2836.44
253.54	3235.79
253.76	2793.43
253.98	2717.65
254.20	2715.61
254.41	2850.77
254.63	2951.12
254.85	2521.05
255.06	2777.05
255.28	3037.14
255.50	2920.40
255.71	2658.26
255.93	2547.67
256.15	2949.08
256.36	3059.67
256.58	2562.01
256.80	2662.36
257.02	2998.23
257.23	2901.97
257.45	2725.85
257.67	2740.18
257.88	2953.17
258.10	3067.86
258.32	2619.35
258.53	2772.95
258.75	3209.17
258.97	2850.77
259.18	2643.93
259.40	2660.31
259.62	3293.13
259.83	3254.22
260.05	2617.30
260.27	3477.45
260.48	3164.11
260.70	2754.52
260.92	2553.82
261.13	2719.70
261.35	3010.51
261.57	3076.05
261.78	2537.43
262.00	2590.68
262.22	3090.38
262.43	2858.96
262.65	2731.99
262.86	2697.17
263.08	3545.03
263.30	3010.51
263.51	2527.19
263.73	2662.36
263.95	3198.93
264.16	2795.48
264.38	2586.58
264.60	2645.98
264.81	2932.69
265.03	3227.60
265.25	3045.33
265.46	2691.03
265.68	3112.91
265.89	3049.43
266.11	2498.52
266.33	2656.22
266.54	3162.06
266.76	3100.62
266.98	2815.96
267.19	2820.05
267.41	3235.79
267.62	2957.27
267.84	2463.71
268.06	2856.92
268.27	3045.33
268.49	3207.12
268.70	2756.57
268.92	2719.70
269.14	2818.00
269.35	2752.47
269.57	2699.22
269.79	2760.66
270.00	2875.35
270.22	3225.55
270.43	2592.73
270.65	2541.53
270.87	3006.42
271.08	3045.33
271.30	2811.86
271.51	2699.22
271.73	3045.33
271.95	3297.23
272.16	2705.37
272.38	2787.29
272.59	3004.37
272.81	3147.73
273.02	2664.41
273.24	2805.72
273.46	3151.82
273.67	2764.76
273.89	2559.96
274.10	2672.60
274.32	3123.15
274.54	3026.90
274.75	2611.16
274.97	2854.87
275.18	3123.15
275.40	3037.14
275.61	2717.65
275.83	2951.12
276.05	2822.10
276.26	3035.09
276.48	2783.19
276.69	2775.00
276.91	2865.11
277.12	3262.41
277.34	2854.87
277.55	3043.28
277.77	3010.51
277.99	2942.93
278.20	2760.66
278.42	2658.26
278.63	2760.66
278.85	2775.00
279.06	2680.79
279.28	2863.06
279.49	3121.10
279.71	3127.25
279.93	2805.72
280.14	2803.67
280.36	2910.16
280.57	3180.50
280.79	2899.92
281.00	2598.87
281.22	2877.40
281.43	3123.15
281.65	2566.10
281.86	2760.66
282.08	3063.76
282.29	3391.44
282.51	2676.70
282.73	2707.41
282.94	2762.71
283.16	3131.34
283.37	2979.79
283.59	2789.33
283.80	3133.39
284.02	2961.36
284.23	2805.72
284.45	2807.77
284.66	2861.01
284.88	2766.81
285.09	2758.61
285.31	2865.11
285.52	3045.33
285.74	2736.09
285.95	2942.93
286.17	2852.82
286.38	3096.53
286.60	2828.24
286.81	2701.27
287.03	2707.41
287.24	2994.13
287.46	3020.75
287.67	2834.39
287.89	3018.71
288.10	2938.84
288.32	3022.80
288.53	3000.27
288.75	2895.83
288.96	3088.34
289.18	2830.29
289.39	2697.17
289.61	2873.30
289.82	3385.29
290.04	3297.23
290.25	2629.59
290.47	2844.63
290.68	2985.94
290.90	3178.45
291.11	2596.82
291.33	2926.55
291.54	2820.05
291.76	2856.92
291.97	2977.75
292.18	2912.21
292.40	2910.16
292.61	2887.64
292.83	3012.56
293.04	2818.00
293.26	3049.43
293.47	2951.12
293.69	2764.76
293.90	2709.46
294.12	3200.98
294.33	3078.10
294.55	2840.53
294.76	2987.99
294.97	3213.26
295.19	3360.72
295.40	2813.91
295.62	2895.83
295.83	3137.49
296.05	2846.68
296.26	3033.04
296.48	2805.72
296.69	2942.93
296.90	2940.88
297.12	2924.50
297.33	2940.88
297.55	2940.88
297.76	3059.67
297.98	2869.20
298.19	2926.55
298.41	2967.51
298.62	2832.34
298.83	2936.79
299.05	2893.78
299.26	2889.68
299.48	2809.81
299.69	2895.83
299.90	2815.96
300.12	2770.90
300.33	3100.62
300.55	2889.68
300.76	2848.72
300.98	2799.57
301.19	3104.72
301.40	2844.63
301.62	2742.23
301.83	3121.10
302.05	2967.51
302.26	2783.19
302.47	2824.15
302.69	2775.00
302.90	2969.55
303.12	2674.65
303.33	2881.49
303.54	3346.38
303.76	2897.88
303.97	2752.47
304.19	2992.08
304.40	2799.57
304.61	3088.34
304.83	2973.65
305.04	2908.12
305.26	3065.81
305.47	2820.05
305.68	2918.36
305.90	2721.75
306.11	3168.21
306.33	2885.59
306.54	2680.79
306.75	2723.80
306.97	2697.17
307.18	2813.91
307.39	2772.95
307.61	2938.84
307.82	2981.84
308.04	3133.39
308.25	2664.41
308.46	2975.70
308.68	3035.09
308.89	2955.22
309.10	2906.07
309.32	2914.26
309.53	2955.22
309.74	3170.26
309.96	2684.89
310.17	2959.31
310.39	2934.74
310.60	3196.88
310.81	2850.77
311.03	2631.64
311.24	3131.34
311.45	3014.61
311.67	3035.09
311.88	2832.34
312.09	2920.40
312.31	2918.36
312.52	2721.75
312.73	2838.48
312.95	2762.71
313.16	2797.53
313.37	3010.51
313.59	2953.17
313.80	3104.72
314.01	3295.18
314.23	2754.52
314.44	2713.56
314.65	2764.76
314.87	2850.77
315.08	2785.24
315.29	2758.61
315.51	2813.91
315.72	2799.57
315.93	2895.83
316.15	2846.68
316.36	2967.51
316.57	2967.51
316.79	2811.86
317.00	2615.26
317.21	3090.38
317.43	2879.44
317.64	2904.02
317.85	2686.94
318.07	2901.97
318.28	2985.94
318.49	2963.41
318.70	3000.27
318.92	3000.27
319.13	3074.00
319.34	2908.12
319.56	2750.42
319.77	3123.15
319.98	3067.86
320.20	2977.75
320.41	2940.88
320.62	3121.10
320.83	2818.00
321.05	3022.80
321.26	2787.29
321.47	2912.21
321.69	3184.59
321.90	2654.17
322.11	2693.08
322.32	3022.80
322.54	3315.66
322.75	2803.67
322.96	3547.08
323.18	2678.74
323.39	2721.75
323.60	2602.97
323.81	2944.98
324.03	2801.62
324.24	3082.19
324.45	2828.24
324.66	2818.00
324.88	3153.87
325.09	3272.65
325.30	2660.31
325.52	2781.14
325.73	3076.05
325.94	2777.05
326.15	2703.32
326.37	2611.16
326.58	3125.20
326.79	3246.03
327.00	2693.08
327.22	2758.61
327.43	2897.88
327.64	2863.06
327.85	2928.60
328.07	2797.53
328.28	3391.44
328.49	2901.97
328.70	2834.39
328.92	2910.16
329.13	2947.03
329.34	3067.86
329.55	2985.94
329.76	2912.21
329.98	2863.06
330.19	3192.78
330.40	2850.77
330.61	2908.12
330.83	3104.72
331.04	2836.44
331.25	2893.78
331.46	2822.10
331.68	2676.70
331.89	3172.30
332.10	2811.86
332.31	2707.41
332.52	2971.60
332.74	3139.54
332.95	2580.44
333.16	2746.33
333.37	3063.76
333.58	2971.60
333.80	2779.09
334.01	2572.25
334.22	2949.08
334.43	2852.82
334.64	2693.08
334.86	2654.17
335.07	2805.72
335.28	3305.42
335.49	2711.51
335.70	2873.30
335.92	3241.93
336.13	3325.90
336.34	2883.54
336.55	2791.38
336.76	3106.77
336.98	2650.07
337.19	2772.95
337.40	2885.59
337.61	3405.77
337.82	2869.20
338.04	2889.68
338.25	2707.41
338.46	2875.35
338.67	2969.55
338.88	2754.52
339.09	2699.22
339.31	2871.25
339.52	2731.99
339.73	2764.76
339.94	2775.00
340.15	3131.34
340.36	2867.16
340.58	2797.53
340.79	2707.41
341.00	3069.91
341.21	2813.91
341.42	3092.43
341.63	2822.10
341.85	3114.96
342.06	3016.66
342.27	2799.57
342.48	2940.88
342.69	2742.23
342.90	3127.25
343.12	3135.44
343.33	2717.65
343.54	3182.54
343.75	3256.27
343.96	2856.92
344.17	2777.05
344.38	2881.49
344.60	2850.77
344.81	2758.61
345.02	2803.67
345.23	3168.21
345.44	3428.30
345.65	2840.53
345.86	2895.83
346.07	3110.86
346.29	2815.96
346.50	2922.45
346.71	2916.31
346.92	3235.79
347.13	3389.39
347.34	2844.63
347.55	2727.89
347.76	3119.06
347.98	2707.41
348.19	2869.20
348.40	3016.66
348.61	2893.78
348.82	3160.02
349.03	2830.29
349.24	2729.94
349.45	3243.98
349.66	2707.41
349.88	2799.57
350.09	2762.71
350.30	3241.93
350.51	3172.30
350.72	2987.99
350.93	2803.67
351.14	2922.45
351.35	3039.19
351.56	2854.87
351.77	2828.24
351.99	3051.47
352.20	3336.14
352.41	2932.69
352.62	2672.60
352.83	2990.03
353.04	2904.02
353.25	2783.19
353.46	2895.83
353.67	3127.25
353.88	2699.22
354.09	2787.29
354.30	2926.55
354.52	3117.01
354.73	2861.01
354.94	2713.56
355.15	2787.29
355.36	3313.61
355.57	2953.17
355.78	2779.09
355.99	2756.57
356.20	2918.36
356.41	3129.30
356.62	2795.48
356.83	2809.81
357.04	3180.50
357.25	2672.60
357.46	2783.19
357.68	2584.54
357.89	2801.62
358.10	3053.52
358.31	2752.47
358.52	2844.63
358.73	2803.67
358.94	2770.90
359.15	2834.39
359.36	2799.57
359.57	2930.64
359.78	3016.66
359.99	2904.02
360.20	2756.57
360.41	2887.64
360.62	3067.86
360.83	2863.06
361.04	2842.58
361.25	2908.12
361.46	3336.14
361.67	2928.60
361.88	2836.44
362.09	3114.96
362.30	2998.23
362.51	2756.57
362.72	2836.44
362.93	3123.15
363.14	3125.20
363.35	2912.21
363.56	2686.94
363.78	3164.11
363.99	3125.20
364.20	2787.29
364.41	2928.60
364.62	3221.45
364.83	3043.28
365.04	2795.48
365.25	2820.05
365.46	3434.44
365.67	2881.49
365.88	2881.49
366.09	2717.65
366.30	2920.40
366.51	3000.27
366.72	2717.65
366.93	2768.85
367.14	2975.70
367.35	3213.26
367.56	2785.24
367.77	2940.88
367.98	2957.27
368.18	3061.71
368.39	2908.12
368.60	2748.37
368.81	3067.86
369.02	3090.38
369.23	2830.29
369.44	2627.54
369.65	2856.92
369.86	3016.66
370.07	2944.98
370.28	2703.32
370.49	3028.95
370.70	3108.82
370.91	2697.17
371.12	2701.27
371.33	3139.54
371.54	2842.58
371.75	2951.12
371.96	2539.48
372.17	3045.33
372.38	2934.74
372.59	2875.35
372.80	2725.85
373.01	2961.36
373.22	3006.42
373.43	2793.43
373.64	2650.07
373.85	3117.01
374.06	3266.51
374.26	2967.51
374.47	2901.97
374.68	3207.12
374.89	2942.93
375.10	2818.00
375.31	2811.86
375.52	2985.94
375.73	3139.54
375.94	2697.17
376.15	2920.40
376.36	2897.88
376.57	2867.16
376.78	2838.48
376.99	2832.34
377.20	3284.94
377.40	2858.96
377.61	3117.01
377.82	2787.29
378.03	3186.64
378.24	3098.58
378.45	2891.73
378.66	2871.25
378.87	2744.28
379.08	2723.80
379.29	2887.64
379.50	2957.27
379.71	2887.64
379.91	3139.54
380.12	2840.53
380.33	2934.74
380.54	2930.64
380.75	2987.99
380.96	2760.66
381.17	2787.29
381.38	2863.06
381.59	2957.27
381.80	2865.11
382.00	3049.43
382.21	2967.51
382.42	3198.93
382.63	3135.44
382.84	2928.60
383.05	3129.30
383.26	3286.99
383.47	3022.80
383.68	2779.09
383.88	3102.67
384.09	3043.28
384.30	2992.08
384.51	2928.60
384.72	2881.49
384.93	2721.75
385.14	2881.49
385.35	2998.23
385.55	2793.43
385.76	3186.64
385.97	2793.43
386.18	2729.94
386.39	2865.11
386.60	2914.26
386.81	2861.01
387.02	2766.81
387.22	2723.80
387.43	3096.53
387.64	2944.98
387.85	3010.51
388.06	3051.47
388.27	4007.87
388.48	7049.11
388.68	11018.07
388.89	13377.33
389.10	14724.90
389.31	14032.68
389.52	11290.45
389.73	9662.32
389.93	8853.37
390.14	8122.24
390.35	7387.02
390.56	6737.82
390.77	5599.15
390.98	4272.06
391.18	3649.48
391.39	3399.63
391.60	2994.13
391.81	3110.86
392.02	2932.69
392.23	3420.11
392.43	2998.23
392.64	2953.17
392.85	2934.74
393.06	3209.17
393.27	3024.85
393.47	2727.89
393.68	2871.25
393.89	2932.69
394.10	3233.74
394.31	2895.83
394.52	2729.94
394.72	2858.96
394.93	3196.88
395.14	2746.33
395.35	2871.25
395.56	2934.74
395.76	2928.60
395.97	2830.29
396.18	2885.59
396.39	3135.44
396.60	3573.71
396.80	3096.53
397.01	3022.80
397.22	3129.30
397.43	3168.21
397.64	2881.49
397.84	3016.66
398.05	3264.46
398.26	3010.51
398.47	3016.66
398.67	2949.08
398.88	2998.23
399.09	3078.10
399.30	2744.28
399.51	2893.78
399.71	2887.64
399.92	3049.43
400.13	2852.82
400.34	2748.37
400.54	2981.84
400.75	3340.24
400.96	2987.99
401.17	3157.97
401.37	3074.00
401.58	2987.99
401.79	2791.38
402.00	2920.40
402.21	3495.88
402.41	3209.17
402.62	3137.49
402.83	3186.64
403.04	3350.48
403.24	3706.82
403.45	2887.64
403.66	3198.93
403.87	3243.98
404.07	3293.13
404.28	3086.29
404.49	3145.68
404.70	2992.08
404.90	3100.62
405.11	2861.01
405.32	2936.79
405.52	2924.50
405.73	2828.24
405.94	2750.42
406.15	2926.55
406.35	3102.67
406.56	3188.69
406.77	2897.88
406.98	2850.77
407.18	2881.49
407.39	3219.41
407.60	2879.44
407.80	2959.31
408.01	2863.06
408.22	3108.82
408.43	2779.09
408.63	2897.88
408.84	3119.06
409.05	3133.39
409.25	2691.03
409.46	2824.15
409.67	2912.21
409.88	2899.92
410.08	2830.29
410.29	2879.44
410.50	3104.72
410.70	3084.24
410.91	2758.61
411.12	2963.41
411.32	3071.95
411.53	2916.31
411.74	2789.33
411.95	2947.03
412.15	3067.86
412.36	3114.96
412.57	3002.32
412.77	3008.47
412.98	2879.44
413.19	2904.02
413.39	2932.69
413.60	2852.82
413.81	3254.22
414.01	2787.29
414.22	2899.92
414.43	3016.66
414.63	2834.39
414.84	3082.19
415.05	2832.34
415.25	2656.22
415.46	3096.53
415.67	2854.87
415.87	2858.96
416.08	2836.44
416.29	2850.77
416.49	3094.48
416.70	2920.40
416.91	2807.77
417.11	2994.13
417.32	3100.62
417.53	2967.51
417.73	2914.26
417.94	2912.21
418.15	3002.32
418.35	2858.96
418.56	2899.92
418.77	3395.53
418.97	2889.68
419.18	2928.60
419.38	2617.30
419.59	2963.41
419.80	3250.13
420.00	2836.44
420.21	2848.72
420.42	3217.36
420.62	3047.38
420.83	2764.76
421.04	2867.16
421.24	2955.22
421.45	3108.82
421.65	2916.31
421.86	2787.29
422.07	3117.01
422.27	3084.24
422.48	2793.43
422.69	2719.70
422.89	2981.84
423.10	2928.60
423.30	2781.14
423.51	2881.49
423.72	2977.75
423.92	3037.14
424.13	2713.56
424.33	2904.02
424.54	3153.87
424.75	3039.19
424.95	3016.66
425.16	2850.77
425.36	2983.89
425.57	3246.03
425.78	2953.17
425.98	2926.55
426.19	2953.17
426.39	2834.39
426.60	2883.54
426.81	2996.18
427.01	3039.19
427.22	2834.39
427.42	2686.94
427.63	2746.33
427.83	3176.40
428.04	3270.61
428.25	2940.88
428.45	2985.94
428.66	3178.45
428.86	2906.07
429.07	2844.63
429.28	2813.91
429.48	2883.54
429.69	2842.58
429.89	2934.74
430.10	2691.03
430.30	3117.01
430.51	3246.03
430.71	2852.82
430.92	2764.76
431.13	2889.68
431.33	3139.54
431.54	2932.69
431.74	3035.09
431.95	3332.05
432.15	2815.96
432.36	2828.24
432.56	2947.03
432.77	3317.71
432.98	3254.22
433.18	2881.49
433.39	2813.91
433.59	2895.83
433.80	3360.72
434.00	3080.14
434.21	2844.63
434.41	2775.00
434.62	3383.24
434.82	2703.32
435.03	2752.47
435.23	3024.85
435.44	2762.71
435.64	2824.15
435.85	2928.60
436.06	3149.78
436.26	3131.34
436.47	2772.95
436.67	2781.14
436.88	2957.27
437.08	3076.05
437.29	3020.75
437.49	2928.60
437.70	3127.25
437.90	3002.32
438.11	3018.71
438.31	2953.17
438.52	3188.69
438.72	3223.50
438.93	3108.82
439.13	2990.03
439.34	3133.39
439.54	3004.37
439.75	3016.66
439.95	2881.49
440.16	2869.20
440.36	2983.89
440.57	2865.11
440.77	2811.86
440.98	2992.08
441.18	3121.10
441.39	2797.53
441.59	2756.57
441.80	3418.06
442.00	3033.04
442.21	2955.22
442.41	2686.94
442.62	3178.45
442.82	2889.68
443.02	2828.24
443.23	2871.25
443.43	2940.88
443.64	3143.63
443.84	2760.66
444.05	2981.84
444.25	2985.94
444.46	2938.84
444.66	2828.24
444.87	3080.14
445.07	2725.85
445.28	3039.19
445.48	3049.43
445.69	2916.31
445.89	3340.24
446.09	2926.55
446.30	3153.87
446.50	3264.46
446.71	4650.94
446.91	5719.98
447.12	6692.76
447.32	6987.67
447.53	6909.85
447.73	5695.40
447.93	5044.15
448.14	4825.01
448.34	4794.29
448.55	4069.31
448.75	3995.59
448.96	3790.79
449.16	3645.38
449.36	3682.25
449.57	3096.53
449.77	2961.36
449.98	2863.06
450.18	3092.43
450.39	2846.68
450.59	3041.23
450.79	3016.66
451.00	2854.87
451.20	2893.78
451.41	2736.09
451.61	3143.63
451.81	2961.36
452.02	2795.48
452.22	2766.81
452.43	2932.69
452.63	2879.44
452.84	2906.07
453.04	2795.48
453.24	3114.96
453.45	2844.63
453.65	2852.82
453.86	2901.97
454.06	2942.93
454.26	3114.96
454.47	2785.24
454.67	3049.43
454.87	3121.10
455.08	2899.92
455.28	3002.32
455.49	2987.99
455.69	2828.24
455.89	3307.47
456.10	3002.32
456.30	2867.16
456.51	3086.29
456.71	3002.32
456.91	2953.17
457.12	2818.00
457.32	3051.47
457.52	2858.96
457.73	2965.46
457.93	3055.57
458.14	2828.24
458.34	2688.98
458.54	2928.60
458.75	2869.20
458.95	3090.38
459.15	3065.81
459.36	2869.20
459.56	2928.60
459.76	3387.34
459.97	3024.85
460.17	2795.48
460.37	2949.08
460.58	3030.99
460.78	3237.84
460.99	2893.78
461.19	2818.00
461.39	2869.20
461.60	2942.93
461.80	2924.50
462.00	2764.76
462.21	2930.64
462.41	2852.82
462.61	2783.19
462.82	2658.26
463.02	3086.29
463.22	2942.93
463.43	2947.03
463.63	2867.16
463.83	3198.93
464.04	2998.23
464.24	2803.67
464.44	2762.71
464.64	3045.33
464.85	3096.53
465.05	2967.51
465.25	2795.48
465.46	2893.78
465.66	3061.71
465.86	2979.79
466.07	2805.72
466.27	3008.47
466.47	2811.86
466.68	2635.74
466.88	2996.18
467.08	3135.44
467.29	3127.25
467.49	2850.77
467.69	2979.79
467.89	3043.28
468.10	3008.47
468.30	2961.36
468.50	2940.88
468.71	3114.96
468.91	2844.63
469.11	3082.19
469.31	2912.21
469.52	2850.77
469.72	3268.56
469.92	3084.24
470.13	2863.06
470.33	3057.62
470.53	3074.00
470.73	3225.55
470.94	3487.69
471.14	3551.18
471.34	4212.67
471.54	3917.76
471.75	3520.46
471.95	3332.05
472.15	3270.61
472.36	3356.62
472.56	3231.69
472.76	3452.88
472.96	3348.43
473.17	3112.91
473.37	2996.18
473.57	2979.79
473.77	3076.05
473.98	2969.55
474.18	2748.37
474.38	3471.31
474.58	2969.55
474.79	2777.05
474.99	2871.25
475.19	3155.92
475.39	2861.01
475.60	2969.55
475.80	2824.15
476.00	3018.71
476.20	2932.69
476.41	2971.60
476.61	2867.16
476.81	3241.93
477.01	2852.82
477.21	3123.15
477.42	2951.12
477.62	2858.96
477.82	3108.82
478.02	2793.43
478.23	2973.65
478.43	2881.49
478.63	2936.79
478.83	2885.59
479.03	2844.63
479.24	3188.69
479.44	3321.81
479.64	2742.23
479.84	2643.93
480.04	2914.26
480.25	3114.96
480.45	2818.00
480.65	2781.14
480.85	3276.75
481.06	2889.68
481.26	2942.93
481.46	2789.33
481.66	2959.31
481.86	2852.82
482.06	3088.34
482.27	2871.25
482.47	3002.32
482.67	3047.38
482.87	2912.21
483.07	2983.89
483.28	2938.84
483.48	2842.58
483.68	2895.83
483.88	2752.47
484.08	2637.78
484.29	2822.10
484.49	2848.72
484.69	2809.81
484.89	3237.84
485.09	3135.44
485.29	2830.29
485.50	3026.90
485.70	2848.72
485.90	3239.89
486.10	2981.84
486.30	2916.31
486.50	3205.07
486.71	3022.80
486.91	2875.35
487.11	2975.70
487.31	2779.09
487.51	3082.19
487.71	2752.47
487.91	2818.00
488.12	2832.34
488.32	2639.83
488.52	2775.00
488.72	2566.10
488.92	2977.75
489.12	3151.82
489.32	3008.47
489.53	2883.54
489.73	2834.39
489.93	3342.28
490.13	2760.66
490.33	2670.55
490.53	2990.03
490.73	3088.34
490.94	2652.12
491.14	3024.85
491.34	3084.24
491.54	3184.59
491.74	3719.11
491.94	4159.42
492.14	4757.43
492.34	4581.31
492.54	4251.58
492.75	3733.45
492.95	3880.90
493.15	3608.52
493.35	3526.60
493.55	3487.69
493.75	3379.15
493.95	3504.07
494.15	3086.29
494.35	2887.64
494.56	2951.12
494.76	2887.64
494.96	2897.88
495.16	2838.48
495.36	3000.27
495.56	3094.48
495.76	2854.87
495.96	2820.05
496.16	2688.98
496.36	3411.92
496.56	2852.82
496.77	2879.44
496.97	2934.74
497.17	3172.30
497.37	2600.92
497.57	2971.60
497.77	3102.67
497.97	2865.11
498.17	2904.02
498.37	2899.92
498.57	3063.76
498.77	2934.74
498.97	2920.40
499.17	3133.39
499.38	2975.70
499.58	3155.92
499.78	2967.51
499.98	2996.18
500.18	2942.93
500.38	2840.53
500.58	3076.05
500.78	3424.20
500.98	5392.30
501.18	7358.35
501.38	8691.58
501.58	9881.45
501.78	9557.87
501.98	8060.80
502.18	6709.15
502.38	5762.98
502.58	5658.54
502.78	4992.95
502.98	4798.39
503.18	4624.31
503.38	4376.51
503.59	3772.36
503.79	3674.06
503.99	3370.96
504.19	3506.12
504.39	3565.51
504.59	3319.76
504.79	3172.30
504.99	3532.75
505.19	3125.20
505.39	3033.04
505.59	3182.54
505.79	3319.76
505.99	3217.36
506.19	2871.25
506.39	3114.96
506.59	2850.77
506.79	3016.66
506.99	3053.52
507.19	2949.08
507.39	3002.32
507.59	2725.85
507.79	2811.86
507.99	2752.47
508.19	3059.67
508.39	2889.68
508.59	2830.29
508.79	2930.64
508.99	3268.56
509.19	2912.21
509.39	2936.79
509.59	2754.52
509.79	2873.30
509.99	2987.99
510.19	3016.66
510.39	2971.60
510.59	3135.44
510.79	2924.50
510.99	2705.37
511.19	2787.29
511.39	3213.26
511.59	3194.83
511.79	3059.67
511.99	2844.63
512.19	3284.94
512.38	2981.84
512.58	2858.96
512.78	2844.63
512.98	3170.26
513.18	3311.57
513.38	2686.94
513.58	2887.64
513.78	3002.32
513.98	2987.99
514.18	2871.25
514.38	2844.63
514.58	3043.28
514.78	2879.44
514.98	2645.98
515.18	2877.40
515.38	2762.71
515.58	3243.98
515.78	2785.24
515.98	2891.73
516.18	3125.20
516.38	2949.08
516.57	2762.71
516.77	2873.30
516.97	3149.78
517.17	2944.98
517.37	2666.46
517.57	2967.51
517.77	2967.51
517.97	2899.92
518.17	3012.56
518.37	2678.74
518.57	2883.54
518.77	2920.40
518.97	2914.26
519.16	2893.78
519.36	3174.35
519.56	2858.96
519.76	2873.30
519.96	2854.87
520.16	3250.13
520.36	2879.44
520.56	2992.08
520.76	2836.44
520.96	2953.17
521.16	3102.67
521.35	3059.67
521.55	3051.47
521.75	3016.66
521.95	2914.26
522.15	2758.61
522.35	2660.31
522.55	2895.83
522.75	3172.30
522.95	2750.42
523.14	2711.51
523.34	3078.10
523.54	2889.68
523.74	2932.69
523.94	2930.64
524.14	2775.00
524.34	2955.22
524.54	3076.05
524.73	2879.44
524.93	3106.77
525.13	2957.27
525.33	2770.90
525.53	3096.53
525.73	3045.33
525.93	2930.64
526.13	2891.73
526.32	2795.48
526.52	3164.11
526.72	3096.53
526.92	2832.34
527.12	2793.43
527.32	2809.81
527.52	3112.91
527.71	2973.65
527.91	2895.83
528.11	2875.35
528.31	2906.07
528.51	2736.09
528.71	2996.18
528.90	3110.86
529.10	3246.03
529.30	2957.27
529.50	2654.17
529.70	3082.19
529.90	2928.60
530.09	2895.83
530.29	2748.37
530.49	2805.72
530.69	3487.69
530.89	2871.25
531.09	2942.93
531.28	2828.24
531.48	3229.65
531.68	2820.05
531.88	2826.20
532.08	3170.26
532.28	2922.45
532.47	2877.40
532.67	2940.88
532.87	3059.67
533.07	2873.30
533.27	2975.70
533.46	2901.97
533.66	3033.04
533.86	2996.18
534.06	2875.35
534.26	2901.97
534.45	3002.32
534.65	3127.25
534.85	2920.40
535.05	2768.85
535.25	3102.67
535.44	2693.08
535.64	2951.12
535.84	2867.16
536.04	2940.88
536.24	2977.75
536.43	2803.67
536.63	2842.58
536.83	3010.51
537.03	3026.90
537.22	2717.65
537.42	2688.98
537.62	2992.08
537.82	2818.00
538.02	3026.90
538.21	2949.08
538.41	3409.87
538.61	3096.53
538.81	2904.02
539.00	3006.42
539.20	2740.18
539.40	2850.77
539.60	2834.39
539.79	3082.19
539.99	3014.61
540.19	2811.86
540.39	2815.96
540.58	2983.89
540.78	3080.14
540.98	3030.99
541.18	3172.30
541.37	2932.69
541.57	2969.55
541.77	3012.56
541.97	2750.42
542.16	2674.65
542.36	2951.12
542.56	2873.30
542.76	3065.81
542.95	2944.98
543.15	3092.43
543.35	3096.53
543.54	2781.14
543.74	2834.39
543.94	3139.54
544.14	2871.25
544.33	2930.64
544.53	2772.95
544.73	2979.79
544.93	2897.88
545.12	2826.20
545.32	2897.88
545.52	2912.21
545.71	2789.33
545.91	2826.20
546.11	2793.43
546.30	2824.15
546.50	2959.31
546.70	2985.94
546.90	2807.77
547.09	2645.98
547.29	2965.46
547.49	3039.19
547.68	2836.44
547.88	2922.45
548.08	3096.53
548.27	3231.69
548.47	2783.19
548.67	2916.31
548.87	2961.36
549.06	2904.02
549.26	2770.90
549.46	3014.61
549.65	2891.73
549.85	2889.68
550.05	2928.60
550.24	2809.81
550.44	2987.99
550.64	2869.20
550.83	2973.65
551.03	3196.88
551.23	3200.98
551.42	2955.22
551.62	2918.36
551.82	2973.65
552.01	2918.36
552.21	3147.73
552.41	2924.50
552.60	3307.47
552.80	2959.31
553.00	2807.77
553.19	2957.27
553.39	3358.67
553.59	2791.38
553.78	2826.20
553.98	2815.96
554.17	2785.24
554.37	2959.31
554.57	2957.27
554.76	2758.61
554.96	2889.68
555.16	3033.04
555.35	2961.36
555.55	2987.99
555.75	3053.52
555.94	3125.20
556.14	2717.65
556.33	2930.64
556.53	3016.66
556.73	2961.36
556.92	2914.26
557.12	2738.13
557.32	3393.48
557.51	3241.93
557.71	2932.69
557.90	3057.62
558.10	3219.41
558.30	2947.03
558.49	2861.01
558.69	2887.64
558.88	3039.19
559.08	2971.60
559.28	2822.10
559.47	2922.45
559.67	3117.01
559.86	3303.37
560.06	2842.58
560.26	2873.30
560.45	3039.19
560.65	2953.17
560.84	3059.67
561.04	2768.85
561.24	3076.05
561.43	2785.24
561.63	3033.04
561.82	2977.75
562.02	3045.33
562.22	2768.85
562.41	2805.72
562.61	2820.05
562.80	2822.10
563.00	3411.92
563.19	2918.36
563.39	2947.03
563.59	3049.43
563.78	2777.05
563.98	2617.30
564.17	2809.81
564.37	2713.56
564.56	2936.79
564.76	2736.09
564.96	2992.08
565.15	3078.10
565.35	3424.20
565.54	2926.55
565.74	2861.01
565.93	3045.33
566.13	2953.17
566.32	2897.88
566.52	2973.65
566.71	2961.36
566.91	3094.48
567.11	2930.64
567.30	2793.43
567.50	3074.00
567.69	3071.95
567.89	2873.30
568.08	2717.65
568.28	3119.06
568.47	2813.91
568.67	2918.36
568.86	2811.86
569.06	3176.40
569.25	2828.24
569.45	2789.33
569.64	2844.63
569.84	2940.88
570.04	3088.34
570.23	2828.24
570.43	2906.07
570.62	2981.84
570.82	3268.56
571.01	2756.57
571.21	2719.70
571.40	2881.49
571.60	3061.71
571.79	2949.08
571.99	2875.35
572.18	2824.15
572.38	2987.99
572.57	2824.15
572.77	2947.03
572.96	3409.87
573.16	3090.38
573.35	2885.59
573.55	3090.38
573.74	2994.13
573.94	2918.36
574.13	2772.95
574.33	2977.75
574.52	3262.41
574.71	2975.70
574.91	2938.84
575.10	2727.89
575.30	2885.59
575.49	2813.91
575.69	2818.00
575.88	2789.33
576.08	2987.99
576.27	3162.06
576.47	2815.96
576.66	2990.03
576.86	3264.46
577.05	2944.98
577.25	2985.94
577.44	3010.51
577.64	2899.92
577.83	3108.82
578.02	2826.20
578.22	2973.65
578.41	3321.81
578.61	2883.54
578.80	2727.89
579.00	2959.31
579.19	3045.33
579.39	3045.33
579.58	3010.51
579.77	2846.68
579.97	3207.12
580.16	3149.78
580.36	3131.34
580.55	2920.40
580.75	3102.67
580.94	3071.95
581.13	3094.48
581.33	3096.53
581.52	2932.69
581.72	3289.04
581.91	3041.23
582.11	2949.08
582.30	3047.38
582.49	3092.43
582.69	3186.64
582.88	2996.18
583.08	3018.71
583.27	3149.78
583.47	3047.38
583.66	2799.57
583.85	2803.67
584.05	2901.97
584.24	3002.32
584.44	2912.21
584.63	3231.69
584.82	3219.41
585.02	3121.10
585.21	2998.23
585.41	3172.30
585.60	3061.71
585.79	3053.52
585.99	3160.02
586.18	3016.66
586.37	3827.65
586.57	5824.42
586.76	16654.08
586.96	35534.31
587.15	48880.92
587.34	57115.80
587.54	61520.98
587.73	54584.51
587.93	38974.89
588.12	29742.65
588.31	24262.29
588.51	21339.83
588.70	19578.58
588.89	17137.40
589.09	14839.58
589.28	12656.45
589.47	9867.11
589.67	7729.03
589.86	5906.34
590.06	4569.02
590.25	4011.97
590.44	3493.83
590.64	3319.76
590.83	3258.32
591.02	3231.69
591.22	2877.40
591.41	3000.27
591.60	3012.56
591.80	3483.59
591.99	2701.27
592.18	2875.35
592.38	3229.65
592.57	2895.83
592.76	2889.68
592.96	2844.63
593.15	2973.65
593.34	3256.27
593.54	2815.96
593.73	3049.43
593.92	3104.72
594.12	3090.38
594.31	2936.79
594.50	3063.76
594.70	3092.43
594.89	3502.03
595.08	2779.09
595.28	3002.32
595.47	3530.70
595.66	3207.12
595.86	2805.72
596.05	2709.46
596.24	3016.66
596.43	3381.20
596.63	3006.42
596.82	2998.23
597.01	3182.54
597.21	3192.78
597.40	2850.77
597.59	2887.64
597.79	2983.89
597.98	3049.43
598.17	2967.51
598.36	2850.77
598.56	3127.25
598.75	2836.44
598.94	2908.12
599.14	2914.26
599.33	2834.39
599.52	3160.02
599.71	2951.12
599.91	2916.31
600.10	3160.02
600.29	2967.51
600.48	2942.93
600.68	2977.75
600.87	3067.86
601.06	2799.57
601.26	2971.60
601.45	2901.97
601.64	2961.36
601.83	3215.31
602.03	2828.24
602.22	2631.64
602.41	3100.62
602.60	3364.81
602.80	3022.80
602.99	3000.27
603.18	2811.86
603.37	2990.03
603.57	2818.00
603.76	2924.50
603.95	3129.30
604.14	2852.82
604.34	2791.38
604.53	2899.92
604.72	2983.89
604.91	3076.05
605.10	2930.64
605.30	2643.93
605.49	3391.44
605.68	3074.00
605.87	2922.45
606.07	2705.37
606.26	2899.92
606.45	3010.51
606.64	2861.01
606.84	2797.53
607.03	2940.88
607.22	3123.15
607.41	2889.68
607.60	2889.68
607.80	3190.74
607.99	2920.40
608.18	2863.06
608.37	2826.20
608.56	2850.77
608.76	3117.01
608.95	3016.66
609.14	2883.54
609.33	3094.48
609.52	3264.46
609.72	2961.36
609.91	2977.75
610.10	3037.14
610.29	3205.07
610.48	2912.21
610.68	3022.80
610.87	2936.79
611.06	3059.67
611.25	2916.31
611.44	2987.99
611.63	2861.01
611.83	3260.37
612.02	2772.95
612.21	2953.17
612.40	2719.70
612.59	2748.37
612.79	2762.71
612.98	2873.30
613.17	3344.33
613.36	2926.55
613.55	2992.08
613.74	2869.20
613.93	3022.80
614.13	3108.82
614.32	3012.56
614.51	3006.42
614.70	3020.75
614.89	2856.92
615.08	2940.88
615.28	3354.57
615.47	2832.34
615.66	3082.19
615.85	2877.40
616.04	2979.79
616.23	2963.41
616.42	2992.08
616.62	2867.16
616.81	2944.98
617.00	2918.36
617.19	3100.62
617.38	2942.93
617.57	2961.36
617.76	3114.96
617.95	3086.29
618.15	2912.21
618.34	3137.49
618.53	2772.95
618.72	3262.41
618.91	2957.27
619.10	2899.92
619.29	2871.25
619.48	2985.94
619.68	2754.52
619.87	2799.57
620.06	2676.70
620.25	3094.48
620.44	2791.38
620.63	2803.67
620.82	2998.23
621.01	2953.17
621.20	2977.75
621.39	2881.49
621.59	2981.84
621.78	2979.79
621.97	2830.29
622.16	2983.89
622.35	3051.47
622.54	3065.81
622.73	2959.31
622.92	2664.41
623.11	3123.15
623.30	2897.88
623.49	2930.64
623.68	2815.96
623.88	3215.31
624.07	2891.73
624.26	2764.76
624.45	2942.93
624.64	2932.69
624.83	3067.86
625.02	2981.84
625.21	2912.21
625.40	3020.75
625.59	3164.11
625.78	2879.44
625.97	3035.09
626.16	3184.59
626.35	3139.54
626.54	2932.69
626.74	3090.38
626.93	2940.88
627.12	2936.79
627.31	2924.50
627.50	2877.40
627.69	3127.25
627.88	2875.35
628.07	2781.14
628.26	2672.60
628.45	2906.07
628.64	2740.18
628.83	2910.16
629.02	2764.76
629.21	3100.62
629.40	3049.43
629.59	2807.77
629.78	2807.77
629.97	2949.08
630.16	3010.51
630.35	2830.29
630.54	2940.88
630.73	2848.72
630.92	2992.08
631.11	2750.42
631.30	2906.07
631.49	3110.86
631.68	2910.16
631.87	2899.92
632.06	2734.04
632.25	3448.78
632.44	2938.84
632.63	2877.40
632.82	2848.72
633.01	2865.11
633.20	2981.84
633.39	2815.96
633.58	2734.04
633.77	2985.94
633.96	3096.53
634.15	2983.89
634.34	3014.61
634.53	3041.23
634.72	2901.97
634.91	2662.36
635.10	2959.31
635.29	3139.54
635.48	3096.53
635.67	2762.71
635.86	2623.45
636.05	3258.32
636.24	3059.67
636.43	2904.02
636.62	2953.17
636.81	2490.33
637.00	3008.47
637.19	2807.77
637.38	2818.00
637.57	2930.64
637.76	3008.47
637.95	2957.27
638.14	2881.49
638.33	2987.99
638.52	2973.65
638.71	2695.13
638.89	2721.75
639.08	3473.36
639.27	3112.91
639.46	3049.43
639.65	3340.24
639.84	3364.81
640.03	3514.31
640.22	3211.22
640.41	3243.98
640.60	3028.95
640.79	3039.19
640.98	3057.62
641.17	3049.43
641.36	3117.01
641.55	3104.72
641.74	2785.24
641.92	2783.19
642.11	2901.97
642.30	2951.12
642.49	2764.76
642.68	2762.71
642.87	3067.86
643.06	3096.53
643.25	2807.77
643.44	2756.57
643.63	2967.51
643.82	3209.17
644.00	2777.05
644.19	2891.73
644.38	2783.19
644.57	3086.29
644.76	2869.20
644.95	2906.07
645.14	3020.75
645.33	3010.51
645.52	2877.40
645.71	2731.99
645.89	2840.53
646.08	3030.99
646.27	2875.35
646.46	3065.81
646.65	2676.70
646.84	2983.89
647.03	2750.42
647.22	3012.56
647.40	3018.71
647.59	3045.33
647.78	2607.06
647.97	2869.20
648.16	2811.86
648.35	3196.88
648.54	3076.05
648.73	2938.84
648.91	3174.35
649.10	3024.85
649.29	2824.15
649.48	2813.91
649.67	3084.24
649.86	2977.75
650.05	2889.68
650.23	3074.00
650.42	2895.83
650.61	3217.36
650.80	3065.81
650.99	3141.58
651.18	3188.69
651.36	3065.81
651.55	2854.87
651.74	2955.22
651.93	2908.12
652.12	2944.98
652.31	2942.93
652.49	2901.97
652.68	2899.92
652.87	3231.69
653.06	2975.70
653.25	3102.67
653.44	2906.07
653.62	3278.80
653.81	2942.93
654.00	2944.98
654.19	3139.54
654.38	3444.68
654.56	2961.36
654.75	2803.67
654.94	3170.26
655.13	2977.75
655.32	2858.96
655.51	2959.31
655.69	2953.17
655.88	3090.38
656.07	2715.61
656.26	2904.02
656.45	2840.53
656.63	2992.08
656.82	2838.48
657.01	3141.58
657.20	2891.73
657.38	3205.07
657.57	2850.77
657.76	2703.32
657.95	3110.86
658.14	2901.97
658.32	2979.79
658.51	2711.51
658.70	3037.14
658.89	3100.62
659.08	2908.12
659.26	3127.25
659.45	2834.39
659.64	3071.95
659.83	2856.92
660.01	3327.95
660.20	3024.85
660.39	3221.45
660.58	2633.69
660.76	2998.23
660.95	2650.07
661.14	2987.99
661.33	2637.78
661.51	2832.34
661.70	2916.31
661.89	3041.23
662.08	2895.83
662.26	2707.41
662.45	2768.85
662.64	3293.13
662.83	2873.30
663.01	2744.28
663.20	2883.54
663.39	3160.02
663.58	2842.58
663.76	2904.02
663.95	3033.04
664.14	2797.53
664.32	2852.82
664.51	2772.95
664.70	2709.46
664.89	2975.70
665.07	2707.41
665.26	2983.89
665.45	2754.52
665.64	3045.33
665.82	2844.63
666.01	2955.22
666.20	2785.24
666.38	3164.11
666.57	3117.01
666.76	4771.77
666.95	11081.56
667.13	17762.03
667.32	21462.71
667.51	24374.92
667.69	25058.95
667.88	21200.57
668.07	15142.68
668.25	12959.55
668.44	11288.40
668.63	9643.88
668.81	8525.69
669.00	7405.46
669.19	6733.72
669.38	5844.90
669.56	5113.78
669.75	4399.04
669.94	3962.82
670.12	3454.92
670.31	3092.43
670.50	3180.50
670.68	3229.65
670.87	3067.86
671.06	2832.34
671.24	2918.36
671.43	3246.03
671.62	3000.27
671.80	2858.96
671.99	3039.19
672.18	2981.84
672.36	3178.45
672.55	3014.61
672.74	2865.11
672.92	2824.15
673.11	3117.01
673.29	2781.14
673.48	3039.19
673.67	3016.66
673.85	3151.82
674.04	2830.29
674.23	2861.01
674.41	3297.23
674.60	2787.29
674.79	2686.94
674.97	2748.37
675.16	3119.06
675.34	3172.30
675.53	2777.05
675.72	2881.49
675.90	3254.22
676.09	2879.44
676.28	2895.83
676.46	2635.74
676.65	3086.29
676.83	2822.10
677.02	2932.69
677.21	2899.92
677.39	3028.95
677.58	2748.37
677.77	2815.96
677.95	2781.14
678.14	3018.71
678.32	2865.11
678.51	2705.37
678.70	3147.73
678.88	2875.35
679.07	2996.18
679.25	2922.45
679.44	2893.78
679.63	2770.90
679.81	3008.47
680.00	3080.14
680.18	3045.33
680.37	3307.47
680.55	2922.45
680.74	2746.33
680.93	2703.32
681.11	3084.24
681.30	2994.13
681.48	2834.39
681.67	2969.55
681.85	2955.22
682.04	2779.09
682.23	3051.47
682.41	2992.08
682.60	2932.69
682.78	2883.54
682.97	2775.00
683.15	2885.59
683.34	3033.04
683.53	3229.65
683.71	2818.00
683.90	2848.72
684.08	3299.28
684.27	2871.25
684.45	2881.49
684.64	3014.61
684.82	2846.68
685.01	3045.33
685.19	2908.12
685.38	3135.44
685.57	3106.77
685.75	2844.63
685.94	2799.57
686.12	2760.66
686.31	2856.92
686.49	3272.65
686.68	2607.06
686.86	2928.60
687.05	2985.94
687.23	3215.31
687.42	2906.07
687.60	2731.99
687.79	3121.10
687.97	3301.33
688.16	3041.23
688.34	3020.75
688.53	2715.61
688.71	3131.34
688.90	3024.85
689.08	2869.20
689.27	2697.17
689.45	3121.10
689.64	3049.43
689.82	2912.21
690.01	3164.11
690.19	3063.76
690.38	2856.92
690.56	2879.44
690.75	2944.98
690.93	2889.68
691.12	2848.72
691.30	2942.93
691.49	2944.98
691.67	2963.41
691.86	3209.17
692.04	2873.30
692.23	2854.87
692.41	2953.17
692.60	3233.74
692.78	3016.66
692.97	2938.84
693.15	3100.62
693.34	3123.15
693.52	3039.19
693.71	2975.70
693.89	2904.02
694.08	2639.83
694.26	3012.56
694.44	3106.77
694.63	3090.38
694.81	2779.09
695.00	2760.66
695.18	3100.62
695.37	3426.25
695.55	3020.75
695.74	2897.88
695.92	2826.20
696.10	3295.18
696.29	2729.94
696.47	2828.24
696.66	2742.23
696.84	2869.20
697.03	3002.32
697.21	3143.63
697.40	4323.26
697.58	3219.41
697.76	2858.96
697.95	2766.81
698.13	2803.67
698.32	2840.53
698.50	2832.34
698.68	2906.07
698.87	3037.14
699.05	3262.41
699.24	2850.77
699.42	2785.24
699.61	2942.93
699.79	2955.22
699.97	2942.93
700.16	2688.98
700.34	2803.67
700.53	2938.84
700.71	3053.52
700.89	3078.10
701.08	2885.59
701.26	2936.79
701.45	3246.03
701.63	2785.24
701.81	2854.87
702.00	2818.00
702.18	2967.51
702.37	2834.39
702.55	3176.40
702.73	3051.47
702.92	2858.96
703.10	3094.48
703.28	3078.10
703.47	2826.20
703.65	3121.10
703.84	2936.79
704.02	2922.45
704.20	3270.61
704.39	2723.80
704.57	2818.00
704.75	3096.53
704.94	3076.05
705.12	2916.31
705.30	3469.26
705.49	6743.96
705.67	12928.83
705.86	18321.13
706.04	20651.72
706.22	22988.45
706.41	22124.21
706.59	17159.93
706.77	13346.61
706.96	11405.14
707.14	10483.55
707.32	9015.16
707.51	7995.27
707.69	6383.52
707.87	5302.19
708.06	4622.27
708.24	4030.40
708.42	3694.54
708.61	3678.15
708.79	2846.68
708.97	2883.54
709.16	3112.91
709.34	2998.23
709.52	2807.77
709.71	2826.20
709.89	3051.47
710.07	2758.61
710.26	2764.76
710.44	2863.06
710.62	3090.38
710.80	2930.64
710.99	3012.56
711.17	2977.75
711.35	2889.68
711.54	2801.62
711.72	3041.23
711.90	2906.07
712.09	3051.47
712.27	2881.49
712.45	3010.51
712.63	2824.15
712.82	3053.52
713.00	3012.56
713.18	2987.99
713.37	2932.69
713.55	3137.49
713.73	3139.54
713.91	2977.75
714.10	2873.30
714.28	3000.27
714.46	3030.99
714.65	2957.27
714.83	2897.88
715.01	3047.38
715.19	3043.28
715.38	2811.86
715.56	3000.27
715.74	2881.49
715.92	2813.91
716.11	3094.48
716.29	2617.30
716.47	2949.08
716.65	2912.21
716.84	2734.04
717.02	2985.94
717.20	2719.70
717.38	2863.06
717.57	2996.18
717.75	2869.20
717.93	2875.35
718.11	3026.90
718.30	2695.13
718.48	2846.68
718.66	3182.54
718.84	3235.79
719.03	2852.82
719.21	2736.09
719.39	3327.95
719.57	3092.43
719.75	2936.79
719.94	2740.18
720.12	2885.59
720.30	3008.47
720.48	3010.51
720.67	2877.40
720.85	2783.19
721.03	2836.44
721.21	2846.68
721.39	2934.74
721.58	3143.63
721.76	2934.74
721.94	2906.07
722.12	2973.65
722.30	3213.26
722.49	2926.55
722.67	2891.73
722.85	2963.41
723.03	2836.44
723.21	2871.25
723.40	2906.07
723.58	2961.36
723.76	3053.52
723.94	3104.72
724.12	2912.21
724.30	3067.86
724.49	3182.54
724.67	2836.44
724.85	2977.75
725.03	2746.33
725.21	3112.91
725.40	3157.97
725.58	2930.64
725.76	3065.81
725.94	3096.53
726.12	2789.33
726.30	2953.17
726.49	2906.07
726.67	2920.40
726.85	2928.60
727.03	3413.96
727.21	4435.90
727.39	5416.88
727.57	5892.01
727.76	6223.78
727.94	6252.45
728.12	5523.37
728.30	4716.47
728.48	4556.73
728.66	4167.62
728.84	3901.38
729.03	3549.13
729.21	3389.39
729.39	3131.34
729.57	2981.84
729.75	3086.29
729.93	2912.21
730.11	2797.53
730.30	2889.68
730.48	2942.93
730.66	2971.60
730.84	2967.51
731.02	2918.36
731.20	2928.60
731.38	2877.40
731.56	2840.53
731.74	2719.70
731.93	3033.04
732.11	2981.84
732.29	2875.35
732.47	3018.71
732.65	3078.10
732.83	3084.24
733.01	2951.12
733.19	2885.59
733.37	3078.10
733.56	2889.68
733.74	2799.57
733.92	3188.69
734.10	2871.25
734.28	3012.56
734.46	2643.93
734.64	2955.22
734.82	2875.35
735.00	2836.44
735.18	2861.01
735.36	2869.20
735.54	2873.30
735.73	2887.64
735.91	2940.88
736.09	3162.06
736.27	3035.09
736.45	2965.46
736.63	2635.74
736.81	2838.48
736.99	3209.17
737.17	3053.52
737.35	2748.37
737.53	3004.37
737.71	2947.03
737.89	3092.43
738.07	2625.50
738.25	2877.40
738.43	2791.38
738.61	2858.96
738.80	2709.46
738.98	2834.39
739.16	2924.50
739.34	2856.92
739.52	3102.67
739.70	2947.03
739.88	3033.04
740.06	2979.79
740.24	2609.11
740.42	3260.37
740.60	2691.03
740.78	2844.63
740.96	2629.59
741.14	2897.88
741.32	3022.80
741.50	2693.08
741.68	3123.15
741.86	3180.50
742.04	2789.33
742.22	2785.24
742.40	2871.25
742.58	3043.28
742.76	2885.59
742.94	3147.73
743.12	2731.99
743.30	2969.55
743.48	3086.29
743.66	2797.53
743.84	2897.88
744.02	2942.93
744.20	2963.41
744.38	2717.65
744.56	2807.77
744.74	3203.02
744.92	3088.34
745.10	3149.78
745.28	2858.96
745.46	3258.32
745.64	2955.22
745.82	2942.93
746.00	2820.05
746.18	3043.28
746.36	2815.96
746.54	2957.27
746.72	2879.44
746.90	2815.96
747.08	3196.88
747.26	2787.29
747.44	2998.23
747.62	3033.04
747.80	3043.28
747.98	2990.03
748.15	2836.44
748.33	3301.33
748.51	2994.13
748.69	3004.37
748.87	2775.00
749.05	2942.93
749.23	2871.25
749.41	2803.67
749.59	2844.63
749.77	3131.34
749.95	2881.49
750.13	2818.00
750.31	2959.31
750.49	2949.08
750.67	3051.47
750.85	3012.56
751.03	2838.48
751.20	3362.76
751.38	2897.88
751.56	2805.72
751.74	2867.16
751.92	2908.12
752.10	2772.95
752.28	2983.89
752.46	2752.47
752.64	2949.08
752.82	3010.51
753.00	3024.85
753.18	2834.39
753.35	2861.01
753.53	2928.60
753.71	2820.05
753.89	2951.12
754.07	2985.94
754.25	3143.63
754.43	3008.47
754.61	2861.01
754.79	3045.33
754.97	2910.16
755.14	3059.67
755.32	2797.53
755.50	3049.43
755.68	2955.22
755.86	2705.37
756.04	2926.55
756.22	2717.65
756.40	3135.44
756.57	3094.48
756.75	2848.72
756.93	3176.40
757.11	3174.35
757.29	2783.19
757.47	2740.18
757.65	2676.70
757.82	2605.02
758.00	2633.69
758.18	2742.23
758.36	2805.72
758.54	3338.19
758.72	2676.70
758.90	2922.45
759.07	3020.75
759.25	2852.82
759.43	2975.70
759.61	2791.38
759.79	4229.06
759.97	3160.02
760.15	2891.73
760.32	2897.88
760.50	3030.99
760.68	3180.50
760.86	2695.13
761.04	3030.99
761.22	3139.54
761.39	2963.41
761.57	2951.12
761.75	2815.96
761.93	3125.20
762.11	3008.47
762.28	2904.02
762.46	2830.29
762.64	3086.29
762.82	2756.57
763.00	2852.82
763.18	3090.38
763.35	2777.05
763.53	3063.76
763.71	2977.75
763.89	2914.26
764.07	2922.45
764.24	3035.09
764.42	3049.43
764.60	2803.67
764.78	3069.91
764.96	3049.43
765.13	3026.90
765.31	2787.29
765.49	3155.92
765.67	2764.76
765.84	2815.96
766.02	2758.61
766.20	2740.18
766.38	3026.90
766.56	2961.36
766.73	2914.26
766.91	3002.32
767.09	2975.70
767.27	2969.55
767.44	2877.40
767.62	3037.14
767.80	2936.79
767.98	2787.29
768.15	2826.20
768.33	3133.39
768.51	3100.62
768.69	2973.65
768.87	2865.11
769.04	3012.56
769.22	3375.05
769.40	3045.33
769.58	2973.65
769.75	3006.42
769.93	3301.33
770.11	2828.24
770.28	2754.52
770.46	3102.67
770.64	3014.61
770.82	2852.82
770.99	2789.33
771.17	3071.95
771.35	2949.08
771.53	2861.01
771.70	2838.48
771.88	3026.90
772.06	3024.85
772.23	2846.68
772.41	2930.64
772.59	2883.54
772.77	2785.24
772.94	2871.25
773.12	2920.40
773.30	2840.53
773.47	3039.19
773.65	2801.62
773.83	2981.84
774.01	2953.17
774.18	2650.07
774.36	2865.11
774.54	2736.09
774.71	3024.85
774.89	2723.80
775.07	2715.61
775.24	2871.25
775.42	2885.59
775.60	3321.81
775.78	2779.09
775.95	2756.57
776.13	2754.52
776.31	2670.55
776.48	2967.51
776.66	3100.62
776.84	2904.02
777.01	2760.66
777.19	2699.22
777.37	2766.81
777.54	3082.19
777.72	3321.81
777.90	3047.38
778.07	2793.43
778.25	3571.66
778.43	3119.06
778.60	2772.95
778.78	3024.85
778.96	3209.17
779.13	2760.66
779.31	2961.36
779.49	2879.44
779.66	2990.03
779.84	2955.22
780.01	2899.92
780.19	2777.05
780.37	3170.26
780.54	3127.25
780.72	2779.09
780.90	2803.67
781.07	2901.97
781.25	2877.40
781.43	3028.95
781.60	2815.96
781.78	3200.98
781.95	3014.61
782.13	2811.86
782.31	2883.54
782.48	2699.22
782.66	2906.07
782.83	3071.95
783.01	2934.74
783.19	3133.39
783.36	2940.88
783.54	2729.94
783.72	3061.71
783.89	2871.25
784.07	2963.41
784.24	3000.27
784.42	3016.66
784.60	2985.94
784.77	3059.67
784.95	2574.30
785.12	2846.68
785.30	3090.38
785.47	2799.57
785.65	2779.09
785.83	2916.31
786.00	2973.65
786.18	2969.55
786.35	2717.65
786.53	2760.66
786.71	3071.95
786.88	3094.48
787.06	2920.40
787.23	2908.12
787.41	2772.95
787.58	2973.65
787.76	2826.20
787.94	2897.88
788.11	3061.71
788.29	2805.72
788.46	2818.00
788.64	2666.46
788.81	2969.55
788.99	2887.64
789.16	2826.20
789.34	2877.40
789.52	2951.12
789.69	2877.40
789.87	2621.40
790.04	2791.38
790.22	2942.93
790.39	3354.57
790.57	2731.99
790.74	2781.14
790.92	3119.06
791.09	2695.13
791.27	2863.06
791.44	2938.84
791.62	2951.12
791.79	3160.02
791.97	2928.60
792.15	3145.68
792.32	3102.67
792.50	3143.63
792.67	3092.43
792.85	3139.54
793.02	2996.18
793.20	2906.07
793.37	2725.85
793.55	2850.77
793.72	2742.23
793.90	3100.62
794.07	2858.96
794.25	2754.52
794.42	3051.47
794.60	2942.93
794.77	2879.44
794.95	3014.61
795.12	3104.72
795.30	2971.60
795.47	2598.87
795.65	3248.08
795.82	3127.25
796.00	2844.63
796.17	2951.12
796.34	2740.18
796.52	2981.84
796.69	3123.15
796.87	2910.16
797.04	2973.65
797.22	3143.63
797.39	3010.51
797.57	3065.81
797.74	2971.60
797.92	3106.77
798.09	2885.59
798.27	3106.77
798.44	2820.05
798.62	2770.90
798.79	2983.89
798.96	2881.49
799.14	2904.02
799.31	3360.72
799.49	2953.17
799.66	2822.10
799.84	2883.54
800.01	2705.37
800.19	2992.08
800.36	2668.50
800.53	2867.16
800.71	3096.53
800.88	3305.42
801.06	2824.15
801.23	2826.20
801.41	2975.70
801.58	2889.68
801.75	2750.42
801.93	2942.93
802.10	3080.14
802.28	2981.84
802.45	2906.07
802.63	3024.85
802.80	3176.40
802.97	2967.51
803.15	2928.60
803.32	2805.72
803.50	2873.30
803.67	2805.72
803.84	2752.47
804.02	2850.77
804.19	2887.64
804.37	2574.30
804.54	2783.19
804.71	2818.00
804.89	3106.77
805.06	2832.34
805.24	2744.28
805.41	2713.56
805.58	2766.81
805.76	3399.63
805.93	2770.90
806.10	3069.91
806.28	3086.29
806.45	3006.42
806.63	2951.12
806.80	2920.40
806.97	3006.42
807.15	3018.71
807.32	2940.88
807.49	2836.44
807.67	2787.29
807.84	3065.81
808.01	2643.93
808.19	3018.71
808.36	3436.49
808.54	2867.16
808.71	2772.95
808.88	2897.88
809.06	3180.50
809.23	3176.40
809.40	2889.68
809.58	2895.83
809.75	2969.55
809.92	2807.77
810.10	3119.06
810.27	2779.09
810.44	3022.80
810.62	3151.82
810.79	2924.50
810.96	2891.73
811.14	2871.25
811.31	3051.47
811.48	3004.37
811.66	2922.45
811.83	3098.58
812.00	3137.49
812.18	2930.64
812.35	3219.41
812.52	2920.40
812.69	2828.24
812.87	2906.07
813.04	2791.38
813.21	2994.13
813.39	2854.87
813.56	2797.53
813.73	3139.54
813.91	2658.26
814.08	2889.68
814.25	2924.50
814.42	2713.56
814.60	2955.22
814.77	2934.74
814.94	2822.10
815.12	2867.16
815.29	3219.41
815.46	2789.33
815.63	2912.21
815.81	2811.86
815.98	2942.93
816.15	2944.98
816.33	2944.98
816.50	2926.55
816.67	3043.28
816.84	2930.64
817.02	2789.33
817.19	2840.53
817.36	3045.33
817.53	2998.23
817.71	2752.47
817.88	2926.55
818.05	2942.93
818.22	2977.75
818.40	3074.00
818.57	2811.86
818.74	3108.82
818.91	2930.64
819.09	2987.99
819.26	2975.70
819.43	2822.10
819.60	2840.53
819.78	2961.36
819.95	2949.08
820.12	2795.48
820.29	3160.02
820.47	3119.06
820.64	2697.17
820.81	2805.72
820.98	2824.15
821.15	2865.11
821.33	2961.36
821.50	2764.76
821.67	3143.63
821.84	2879.44
822.02	2928.60
822.19	3110.86
822.36	2850.77
822.53	2867.16
822.70	2738.13
822.88	2928.60
823.05	3147.73
823.22	2940.88
823.39	2910.16
823.56	2914.26
823.74	3325.90
823.91	2703.32
824.08	2766.81
824.25	2809.81
824.42	3295.18
824.60	2734.04
824.77	2967.51
824.94	2914.26
825.11	3047.38
825.28	2744.28
825.45	3035.09
825.63	2949.08
825.80	2836.44
825.97	2949.08
826.14	2947.03
826.31	2748.37
826.48	3014.61
826.66	2869.20
826.83	2779.09
827.00	2885.59
827.17	2785.24
827.34	2836.44
827.51	2746.33
827.69	2990.03
827.86	2701.27
828.03	2920.40
828.20	2928.60
828.37	2901.97
828.54	3074.00
828.71	2803.67
828.89	3020.75
829.06	3065.81
829.23	3192.78
829.40	2793.43
829.57	2842.58
829.74	3133.39
829.91	2832.34
830.09	2789.33
830.26	2994.13
830.43	3299.28
830.60	2963.41
830.77	2883.54
830.94	3033.04
831.11	3067.86
831.28	2910.16
831.46	3028.95
831.63	2803.67
831.80	3086.29
831.97	2822.10
832.14	2846.68
832.31	2924.50
832.48	2955.22
832.65	3205.07
832.82	2934.74
832.99	2961.36
833.17	2836.44
833.34	3241.93
833.51	2875.35
833.68	2617.30
833.85	3110.86
834.02	2762.71
834.19	2818.00
834.36	2748.37
834.53	2979.79
834.70	3123.15
834.87	2901.97
835.04	2666.46
835.22	2844.63
835.39	2895.83
835.56	2684.89
835.73	2787.29
835.90	3102.67
836.07	2809.81
836.24	2901.97
836.41	2770.90
836.58	2799.57
836.75	3114.96
836.92	2734.04
837.09	2693.08
837.26	3014.61
837.43	3028.95
837.60	2813.91
837.77	2754.52
837.94	3084.24
838.12	3215.31
838.29	2662.36
838.46	2658.26
838.63	2736.09
838.80	3256.27
838.97	2719.70
839.14	2654.17
839.31	2967.51
839.48	3141.58
839.65	2711.51
839.82	2840.53
839.99	2979.79
840.16	3061.71
840.33	2648.02
840.50	2742.23
840.67	2789.33
840.84	2543.58
841.01	2602.97
841.18	2709.46
841.35	3002.32
841.52	3002.32
841.69	3004.37
841.86	2805.72
842.03	2914.26
842.20	3213.26
842.37	2758.61
842.54	2777.05
842.71	2893.78
842.88	2752.47
843.05	2779.09
843.22	2758.61
843.39	3106.77
843.56	2906.07
843.73	2779.09
843.90	2830.29
844.07	2934.74
844.24	3061.71
844.41	2863.06
844.58	2711.51
844.75	2947.03
844.92	3098.58
845.09	2752.47
845.26	2787.29
845.43	3004.37
845.60	2916.31
845.77	2820.05
845.94	2779.09
846.10	3155.92
846.27	2830.29
846.44	2635.74
846.61	2695.13
846.78	3037.14
846.95	3119.06
847.12	2670.55
847.29	2787.29
847.46	2885.59
847.63	3063.76
847.80	2727.89
847.97	2713.56
848.14	3385.29
848.31	2971.60
848.48	2590.68
848.65	2721.75
848.82	2879.44
848.98	3434.44
849.15	2934.74
849.32	2809.81
849.49	3227.60
849.66	2942.93
849.83	2713.56
850.00	2600.92
850.17	3057.62
850.34	2906.07
850.51	2736.09
850.68	2746.33
850.85	3301.33
851.01	3002.32
851.18	2744.28
851.35	2813.91
851.52	3026.90
851.69	3215.31
851.86	2682.84
852.03	2738.13
852.20	3092.43
852.37	2955.22
852.53	2592.73
852.70	2703.32
852.87	3057.62
853.04	3094.48
853.21	2772.95
853.38	3039.19
853.55	3137.49
853.72	3155.92
853.89	2719.70
854.05	2711.51
854.22	2969.55
854.39	2891.73
854.56	2635.74
854.73	2867.16
854.90	2813.91
855.07	2928.60
855.23	2701.27
855.40	2693.08
855.57	2920.40
855.74	2648.02
855.91	2879.44
856.08	2555.86
856.25	2766.81
856.41	2809.81
856.58	2785.24
856.75	2807.77
856.92	2766.81
857.09	3108.82
857.26	2611.16
857.42	2721.75
857.59	3012.56
857.76	2858.96
857.93	2760.66
858.10	2789.33
858.27	2779.09
858.43	2979.79
858.60	2738.13
858.77	2623.45
858.94	2865.11
859.11	3246.03
859.27	2848.72
859.44	2588.63
859.61	3332.05
859.78	3174.35
859.95	2779.09
860.12	2699.22
860.28	3391.44
860.45	3301.33
860.62	2703.32
860.79	2791.38
860.95	2895.83
861.12	2785.24
861.29	2641.88
861.46	2795.48
861.63	2983.89
861.79	3010.51
861.96	2643.93
862.13	2686.94
862.30	3149.78
862.47	2938.84
862.63	2600.92
862.80	2828.24
862.97	3080.14
863.14	3020.75
863.30	2781.14
863.47	2680.79
863.64	3272.65
863.81	3065.81
863.97	2605.02
864.14	2754.52
864.31	2889.68
864.48	3053.52
864.65	2699.22
864.81	2838.48
864.98	3004.37
865.15	3053.52
865.32	2875.35
865.48	2854.87
865.65	3286.99
865.82	2871.25
865.98	2775.00
866.15	2789.33
866.32	3018.71
866.49	2832.34
866.65	2930.64
866.82	2775.00
866.99	2926.55
867.16	2885.59
867.32	2727.89
867.49	2607.06
867.66	2957.27
867.83	2822.10
867.99	2707.41
868.16	2738.13
868.33	2803.67
868.49	2990.03
868.66	2756.57
868.83	2856.92
868.99	2944.98
869.16	2975.70
869.33	2783.19
869.50	2865.11
869.66	3016.66
869.83	2852.82
870.00	2602.97
870.16	2854.87
870.33	2994.13
870.50	3051.47
870.66	2779.09
870.83	2822.10
871.00	3010.51
871.17	3078.10
871.33	2775.00
871.50	2705.37
871.67	2992.08
871.83	2672.60
872.00	2858.96
872.17	2760.66
872.33	3268.56
872.50	3170.26
872.67	2742.23
872.83	2705.37
873.00	3018.71
873.17	2942.93
873.33	2863.06
873.50	2828.24
873.67	2861.01
873.83	2815.96
874.00	2764.76
874.16	2906.07
874.33	2957.27
874.50	2705.37
874.66	2670.55
874.83	2871.25
875.00	3119.06
875.16	3151.82
875.33	2754.52
875.50	2609.11
875.66	2850.77
875.83	2992.08
875.99	2844.63
876.16	2797.53
876.33	2799.57
876.49	2871.25
876.66	2824.15
876.83	2838.48
876.99	2631.64
877.16	3022.80
877.32	2705.37
877.49	2791.38
877.66	3045.33
877.82	3100.62
877.99	2744.28
878.15	2949.08
878.32	3049.43
878.49	2965.46
878.65	2754.52
878.82	3074.00
878.98	2889.68
879.15	3110.86
879.32	2889.68
879.48	2928.60
879.65	2893.78
879.81	2836.44
879.98	2734.04
880.15	2746.33
880.31	3133.39
880.48	2838.48
880.64	2891.73
880.81	2877.40
880.97	3317.71
881.14	3114.96
881.31	2750.42
881.47	2918.36
881.64	2852.82
881.80	2770.90
881.97	2858.96
882.13	2699.22
882.30	2772.95
882.47	2893.78
882.63	2705.37
882.80	2660.31
882.96	2889.68
883.13	3213.26
883.29	2750.42
883.46	2656.22
883.62	3362.76
883.79	2955.22
883.95	2981.84
884.12	2725.85
884.29	3133.39
884.45	2930.64
884.62	2756.57
884.78	2695.13
884.95	3225.55
885.11	2770.90
885.28	2873.30
885.44	2801.62
885.61	3145.68
885.77	3225.55
885.94	2891.73
886.10	2795.48
886.27	2928.60
886.43	3215.31
886.60	2979.79
886.76	2795.48
886.93	2834.39
887.09	3104.72
887.26	2627.54
887.42	2752.47
887.59	3172.30
887.75	3352.52
887.92	2926.55
888.08	2904.02
888.25	3153.87
888.41	3178.45
888.58	2861.01
888.74	2680.79
888.91	2803.67
>>>>>End Processed Spectral Data<<<<<
