SpectraSuite Data File
++++++++++++++++++++++++++++++++++++
Date: Thu May 05 21:10:44 CEST 2016
User: root
Dark Spectrum Present: No
Reference Spectrum Present: No
Number of Sampled Component Spectra: 1
Spectrometers: USB4C02835
Integration Time (usec): 100000 (USB4C02835)
Spectra Averaged: 1 (USB4C02835)
Boxcar Smoothing: 0 (USB4C02835)
Correct for Electrical Dark: No (USB4C02835)
Strobe/Lamp Enabled: No (USB4C02835)
Correct for Detector Non-linearity: No (USB4C02835)
Correct for Stray Light: No (USB4C02835)
Number of Pixels in Processed Spectrum: 3648
>>>>>Begin Processed Spectral Data<<<<<
177.47	2162.66
177.69	2162.66
177.91	2162.66
178.13	2113.50
178.36	2095.07
178.58	2826.20
178.80	2959.31
179.02	2682.84
179.24	2832.34
179.46	2691.03
179.68	2713.56
179.90	3035.09
180.13	2992.08
180.35	2533.34
180.57	2609.11
180.79	3053.52
181.01	3028.95
181.23	2697.17
181.45	2770.90
181.67	3125.20
181.90	3125.20
182.12	2672.60
182.34	2516.95
182.56	3100.62
182.78	3074.00
183.00	2615.26
183.22	2770.90
183.44	2715.61
183.66	3444.68
183.89	2795.48
184.11	2713.56
184.33	3090.38
184.55	3114.96
184.77	2699.22
184.99	2723.80
185.21	2891.73
185.43	3385.29
185.65	2719.70
185.87	2545.63
186.10	3315.66
186.32	3360.72
186.54	2758.61
186.76	2775.00
186.98	3190.74
187.20	2953.17
187.42	2750.42
187.64	2623.45
187.86	3055.57
188.08	3121.10
188.30	2549.72
188.52	2674.65
188.75	3180.50
188.97	3192.78
189.19	2602.97
189.41	2682.84
189.63	3088.34
189.85	2901.97
190.07	2508.76
190.29	2488.28
190.51	3086.29
190.73	2754.52
190.95	2832.34
191.17	2740.18
191.39	2754.52
191.61	2959.31
191.84	2697.17
192.06	2791.38
192.28	2734.04
192.50	3565.51
192.72	2813.91
192.94	2756.57
193.16	3157.97
193.38	3010.51
193.60	2611.16
193.82	2791.38
194.04	3215.31
194.26	3035.09
194.48	2664.41
194.70	2695.13
194.92	2953.17
195.14	3053.52
195.36	2711.51
195.58	2781.14
195.80	2916.31
196.02	2871.25
196.24	2598.87
196.46	2797.53
196.69	2955.22
196.91	3434.44
197.13	2639.83
197.35	2711.51
197.57	3231.69
197.79	3139.54
198.01	2756.57
198.23	2727.89
198.45	3102.67
198.67	2820.05
198.89	2519.00
199.11	2809.81
199.33	2861.01
199.55	2607.06
199.77	2670.55
199.99	2871.25
200.21	2875.35
200.43	3028.95
200.65	2590.68
200.87	2535.39
201.09	2906.07
201.31	2938.84
201.53	2766.81
201.75	2867.16
201.97	3057.62
202.19	2965.46
202.41	2727.89
202.63	2803.67
202.85	3100.62
203.07	2996.18
203.29	2699.22
203.51	2629.59
203.73	2871.25
203.95	3491.79
204.17	2633.69
204.39	2758.61
204.61	3071.95
204.83	2910.16
205.05	2863.06
205.27	2715.61
205.49	3344.33
205.71	2928.60
205.93	2504.67
206.15	2645.98
206.37	2990.03
206.59	3000.27
206.81	2559.96
207.03	2566.10
207.25	2803.67
207.47	3061.71
207.69	2711.51
207.91	2879.44
208.13	3286.99
208.34	2897.88
208.56	2678.74
208.78	2715.61
209.00	2871.25
209.22	2910.16
209.44	2707.41
209.66	2631.64
209.88	2971.60
210.10	3014.61
210.32	2721.75
210.54	2736.09
210.76	2951.12
210.98	3149.78
211.20	2543.58
211.42	2789.33
211.64	3190.74
211.86	3088.34
212.08	2736.09
212.30	2607.06
212.52	2928.60
212.74	3094.48
212.96	2818.00
213.17	2752.47
213.39	3112.91
213.61	3327.95
213.83	2639.83
214.05	2658.26
214.27	3137.49
214.49	2846.68
214.71	2666.46
214.93	2748.37
215.15	2957.27
215.37	3155.92
215.59	2539.48
215.81	2699.22
216.03	3164.11
216.24	2969.55
216.46	2699.22
216.68	2705.37
216.90	3057.62
217.12	3157.97
217.34	2633.69
217.56	2850.77
217.78	3336.14
218.00	3080.14
218.22	2762.71
218.44	2883.54
218.66	2979.79
218.87	3440.59
219.09	2637.78
219.31	2721.75
219.53	3127.25
219.75	2990.03
219.97	2672.60
220.19	2719.70
220.41	3045.33
220.63	3237.84
220.85	2662.36
221.06	2629.59
221.28	3180.50
221.50	3020.75
221.72	2688.98
221.94	2633.69
222.16	2963.41
222.38	3137.49
222.60	2555.86
222.82	2793.43
223.03	3176.40
223.25	2785.24
223.47	2684.89
223.69	2971.60
223.91	3121.10
224.13	2951.12
224.35	2600.92
224.57	2889.68
224.78	3098.58
225.00	2856.92
225.22	2723.80
225.44	2625.50
225.66	3153.87
225.88	2824.15
226.10	2815.96
226.32	2664.41
226.53	3237.84
226.75	2838.48
226.97	2752.47
227.19	2688.98
227.41	2809.81
227.63	2971.60
227.85	2512.86
228.06	2744.28
228.28	3012.56
228.50	3211.22
228.72	2559.96
228.94	2650.07
229.16	2609.11
229.37	2838.48
229.59	2586.58
229.81	2858.96
230.03	2932.69
230.25	2770.90
230.47	2562.01
230.69	2648.02
230.90	3047.38
231.12	2877.40
231.34	2754.52
231.56	2707.41
231.78	2811.86
232.00	3049.43
232.21	2703.32
232.43	2740.18
232.65	2656.22
232.87	3061.71
233.09	2570.20
233.30	2594.78
233.52	3219.41
233.74	2955.22
233.96	2652.12
234.18	2777.05
234.40	3000.27
234.61	3373.00
234.83	2549.72
235.05	2652.12
235.27	3551.18
235.49	3215.31
235.70	2564.06
235.92	2729.94
236.14	3084.24
236.36	3381.20
236.58	2664.41
236.79	2779.09
237.01	2918.36
237.23	2930.64
237.45	2959.31
237.67	2740.18
237.88	3065.81
238.10	3334.09
238.32	2611.16
238.54	2676.70
238.76	2893.78
238.97	2820.05
239.19	2639.83
239.41	2699.22
239.63	3096.53
239.85	2871.25
240.06	2707.41
240.28	2650.07
240.50	3141.58
240.72	2979.79
240.93	2617.30
241.15	2850.77
241.37	2961.36
241.59	3227.60
241.81	2699.22
242.02	2738.13
242.24	3082.19
242.46	3082.19
242.68	2500.57
242.89	2629.59
243.11	3074.00
243.33	2887.64
243.55	2711.51
243.76	2762.71
243.98	2897.88
244.20	3028.95
244.42	2684.89
244.64	2674.65
244.85	2738.13
245.07	2818.00
245.29	2629.59
245.51	2695.13
245.72	3076.05
245.94	3147.73
246.16	2756.57
246.38	2754.52
246.59	2901.97
246.81	2842.58
247.03	2586.58
247.24	2541.53
247.46	2828.24
247.68	3006.42
247.90	2574.30
248.11	2772.95
248.33	3145.68
248.55	2992.08
248.77	2744.28
248.98	2768.85
249.20	3284.94
249.42	3006.42
249.64	2637.78
249.85	2639.83
250.07	2928.60
250.29	3127.25
250.50	2742.23
250.72	2547.67
250.94	2990.03
251.16	3311.57
251.37	2672.60
251.59	2734.04
251.81	2979.79
252.02	3176.40
252.24	2592.73
252.46	2906.07
252.68	2883.54
252.89	2793.43
253.11	2570.20
253.33	2850.77
253.54	3194.83
253.76	2803.67
253.98	2670.55
254.20	2576.34
254.41	2801.62
254.63	2975.70
254.85	2529.24
255.06	2791.38
255.28	3069.91
255.50	2934.74
255.71	2625.50
255.93	2543.58
256.15	2977.75
256.36	3063.76
256.58	2582.49
256.80	2656.22
257.02	2891.73
257.23	2899.92
257.45	2795.48
257.67	2777.05
257.88	2936.79
258.10	3030.99
258.32	2652.12
258.53	2697.17
258.75	3338.19
258.97	2916.31
259.18	2631.64
259.40	2652.12
259.62	3313.61
259.83	3254.22
260.05	2691.03
260.27	3397.58
260.48	3143.63
260.70	2760.66
260.92	2553.82
261.13	2717.65
261.35	3020.75
261.57	3110.86
261.78	2562.01
262.00	2549.72
262.22	3096.53
262.43	2811.86
262.65	2701.27
262.86	2760.66
263.08	3450.83
263.30	2969.55
263.51	2537.43
263.73	2658.26
263.95	3354.57
264.16	2811.86
264.38	2557.91
264.60	2693.08
264.81	2944.98
265.03	3117.01
265.25	3067.86
265.46	2635.74
265.68	3215.31
265.89	3041.23
266.11	2562.01
266.33	2666.46
266.54	3223.50
266.76	3106.77
266.98	2793.43
267.19	2895.83
267.41	3215.31
267.62	2934.74
267.84	2545.63
268.06	2783.19
268.27	3018.71
268.49	3141.58
268.70	2717.65
268.92	2729.94
269.14	2830.29
269.35	2705.37
269.57	2723.80
269.79	2740.18
270.00	2944.98
270.22	3235.79
270.43	2660.31
270.65	2559.96
270.87	3043.28
271.08	3100.62
271.30	2789.33
271.51	2768.85
271.73	3100.62
271.95	3262.41
272.16	2660.31
272.38	2740.18
272.59	2914.26
272.81	2996.18
273.02	2668.50
273.24	2836.44
273.46	3164.11
273.67	2752.47
273.89	2631.64
274.10	2672.60
274.32	3192.78
274.54	3035.09
274.75	2815.96
274.97	2727.89
275.18	3117.01
275.40	2961.36
275.61	2678.74
275.83	2863.06
276.05	2772.95
276.26	2926.55
276.48	2752.47
276.69	2803.67
276.91	2856.92
277.12	3280.85
277.34	2914.26
277.55	2938.84
277.77	3012.56
277.99	2957.27
278.20	2721.75
278.42	2734.04
278.63	2842.58
278.85	2834.39
279.06	2764.76
279.28	2883.54
279.49	3137.49
279.71	3098.58
279.93	2811.86
280.14	2772.95
280.36	2932.69
280.57	3149.78
280.79	2877.40
281.00	2754.52
281.22	2910.16
281.43	3276.75
281.65	2582.49
281.86	2666.46
282.08	3092.43
282.29	3350.48
282.51	2631.64
282.73	2639.83
282.94	2652.12
283.16	3063.76
283.37	2891.73
283.59	2869.20
283.80	3084.24
284.02	2957.27
284.23	2897.88
284.45	2803.67
284.66	2848.72
284.88	2877.40
285.09	2820.05
285.31	2879.44
285.52	3028.95
285.74	2693.08
285.95	3000.27
286.17	2885.59
286.38	3190.74
286.60	2881.49
286.81	2748.37
287.03	2795.48
287.24	2904.02
287.46	3110.86
287.67	2914.26
287.89	3028.95
288.10	2908.12
288.32	3004.37
288.53	2975.70
288.75	2779.09
288.96	3065.81
289.18	2926.55
289.39	2750.42
289.61	2838.48
289.82	3418.06
290.04	3327.95
290.25	2658.26
290.47	2848.72
290.68	2930.64
290.90	3133.39
291.11	2654.17
291.33	2944.98
291.54	2848.72
291.76	2893.78
291.97	2922.45
292.18	2883.54
292.40	2916.31
292.61	2805.72
292.83	3008.47
293.04	2893.78
293.26	2971.60
293.47	2961.36
293.69	2674.65
293.90	2791.38
294.12	3176.40
294.33	2957.27
294.55	2807.77
294.76	2969.55
294.97	3182.54
295.19	3325.90
295.40	2738.13
295.62	2856.92
295.83	3104.72
296.05	2834.39
296.26	2979.79
296.48	2826.20
296.69	2990.03
296.90	2955.22
297.12	2994.13
297.33	2936.79
297.55	2957.27
297.76	3086.29
297.98	2961.36
298.19	2883.54
298.41	2891.73
298.62	2856.92
298.83	3047.38
299.05	2908.12
299.26	2992.08
299.48	2779.09
299.69	2895.83
299.90	2777.05
300.12	2795.48
300.33	3114.96
300.55	2891.73
300.76	2805.72
300.98	2693.08
301.19	3119.06
301.40	2787.29
301.62	2697.17
301.83	3094.48
302.05	2975.70
302.26	2791.38
302.47	2891.73
302.69	2877.40
302.90	2975.70
303.12	2717.65
303.33	2955.22
303.54	3319.76
303.76	2879.44
303.97	2740.18
304.19	2944.98
304.40	2805.72
304.61	3047.38
304.83	2983.89
305.04	2875.35
305.26	3108.82
305.47	2840.53
305.68	2715.61
305.90	2719.70
306.11	3250.13
306.33	2979.79
306.54	2693.08
306.75	2740.18
306.97	2731.99
307.18	2875.35
307.39	2807.77
307.61	2895.83
307.82	3000.27
308.04	3039.19
308.25	2684.89
308.46	2815.96
308.68	2985.94
308.89	3012.56
309.10	2861.01
309.32	2813.91
309.53	3004.37
309.74	3155.92
309.96	2664.41
310.17	2861.01
310.39	2983.89
310.60	3100.62
310.81	2854.87
311.03	2668.50
311.24	3078.10
311.45	2977.75
311.67	3104.72
311.88	2904.02
312.09	2965.46
312.31	2887.64
312.52	2803.67
312.73	2772.95
312.95	2713.56
313.16	2867.16
313.37	2987.99
313.59	2953.17
313.80	3043.28
314.01	3235.79
314.23	2723.80
314.44	2803.67
314.65	2719.70
314.87	2787.29
315.08	2768.85
315.29	2789.33
315.51	2818.00
315.72	2766.81
315.93	2944.98
316.15	2815.96
316.36	2906.07
316.57	2975.70
316.79	2815.96
317.00	2791.38
317.21	3084.24
317.43	2867.16
317.64	2850.77
317.85	2709.46
318.07	2889.68
318.28	2895.83
318.49	2965.46
318.70	3016.66
318.92	2983.89
319.13	3022.80
319.34	2961.36
319.56	2772.95
319.77	3049.43
319.98	3074.00
320.20	3030.99
320.41	2926.55
320.62	3059.67
320.83	2775.00
321.05	3043.28
321.26	2805.72
321.47	3016.66
321.69	3076.05
321.90	2748.37
322.11	2772.95
322.32	3053.52
322.54	3223.50
322.75	2772.95
322.96	3594.19
323.18	2715.61
323.39	2682.84
323.60	2660.31
323.81	2899.92
324.03	2818.00
324.24	2998.23
324.45	2910.16
324.66	2717.65
324.88	3112.91
325.09	3137.49
325.30	2815.96
325.52	2742.23
325.73	3080.14
325.94	2811.86
326.15	2656.22
326.37	2742.23
326.58	3092.43
326.79	3205.07
327.00	2736.09
327.22	2809.81
327.43	2934.74
327.64	2717.65
327.85	2955.22
328.07	2844.63
328.28	3379.15
328.49	2961.36
328.70	2830.29
328.92	2869.20
329.13	3020.75
329.34	3039.19
329.55	3004.37
329.76	2926.55
329.98	2975.70
330.19	3205.07
330.40	2883.54
330.61	2901.97
330.83	3102.67
331.04	2924.50
331.25	2844.63
331.46	2854.87
331.68	2764.76
331.89	3139.54
332.10	2787.29
332.31	2801.62
332.52	2996.18
332.74	3166.16
332.95	2611.16
333.16	2795.48
333.37	3143.63
333.58	2838.48
333.80	2846.68
334.01	2582.49
334.22	2965.46
334.43	2832.34
334.64	2772.95
334.86	2717.65
335.07	2869.20
335.28	3241.93
335.49	2703.32
335.70	2955.22
335.92	3243.98
336.13	3323.85
336.34	2865.11
336.55	2836.44
336.76	3033.04
336.98	2656.22
337.19	2844.63
337.40	2904.02
337.61	3418.06
337.82	2873.30
338.04	2951.12
338.25	2637.78
338.46	2969.55
338.67	2838.48
338.88	2709.46
339.09	2766.81
339.31	2969.55
339.52	2799.57
339.73	2734.04
339.94	2875.35
340.15	3182.54
340.36	2748.37
340.58	2799.57
340.79	2660.31
341.00	3096.53
341.21	2832.34
341.42	2990.03
341.63	2828.24
341.85	3198.93
342.06	3002.32
342.27	2820.05
342.48	2983.89
342.69	2791.38
342.90	3016.66
343.12	3121.10
343.33	2725.85
343.54	3182.54
343.75	3291.09
343.96	2885.59
344.17	2719.70
344.38	2951.12
344.60	2848.72
344.81	2709.46
345.02	2727.89
345.23	3119.06
345.44	3391.44
345.65	2838.48
345.86	2871.25
346.07	2979.79
346.29	2865.11
346.50	2904.02
346.71	2838.48
346.92	3282.89
347.13	3362.76
347.34	2871.25
347.55	2715.61
347.76	3084.24
347.98	2766.81
348.19	2834.39
348.40	3033.04
348.61	2914.26
348.82	3243.98
349.03	2830.29
349.24	2668.50
349.45	3323.85
349.66	2641.88
349.88	2842.58
350.09	2713.56
350.30	3317.71
350.51	3237.84
350.72	2861.01
350.93	2789.33
351.14	2922.45
351.35	3028.95
351.56	2838.48
351.77	2850.77
351.99	3106.77
352.20	3286.99
352.41	2904.02
352.62	2639.83
352.83	3016.66
353.04	3002.32
353.25	2822.10
353.46	2770.90
353.67	3172.30
353.88	2605.02
354.09	2768.85
354.30	2932.69
354.52	3080.14
354.73	3020.75
354.94	2705.37
355.15	2781.14
355.36	3340.24
355.57	2893.78
355.78	2740.18
355.99	2807.77
356.20	2922.45
356.41	3186.64
356.62	2848.72
356.83	2779.09
357.04	3174.35
357.25	2680.79
357.46	2834.39
357.68	2656.22
357.89	2781.14
358.10	2969.55
358.31	2764.76
358.52	2791.38
358.73	2783.19
358.94	2744.28
359.15	2781.14
359.36	2861.01
359.57	2926.55
359.78	2944.98
359.99	2981.84
360.20	2797.53
360.41	2916.31
360.62	3074.00
360.83	2914.26
361.04	2850.77
361.25	3053.52
361.46	3235.79
361.67	2865.11
361.88	2936.79
362.09	3143.63
362.30	3030.99
362.51	2813.91
362.72	2770.90
362.93	3137.49
363.14	3051.47
363.35	2881.49
363.56	2727.89
363.78	3213.26
363.99	3139.54
364.20	2772.95
364.41	2830.29
364.62	3309.52
364.83	3033.04
365.04	2891.73
365.25	2787.29
365.46	3286.99
365.67	2834.39
365.88	2985.94
366.09	2818.00
366.30	2922.45
366.51	3028.95
366.72	2736.09
366.93	2844.63
367.14	3006.42
367.35	3362.76
367.56	2775.00
367.77	2973.65
367.98	2994.13
368.18	3108.82
368.39	2926.55
368.60	2727.89
368.81	3096.53
369.02	2996.18
369.23	2867.16
369.44	2633.69
369.65	2869.20
369.86	3010.51
370.07	2936.79
370.28	2668.50
370.49	3088.34
370.70	3108.82
370.91	2727.89
371.12	2658.26
371.33	3209.17
371.54	2928.60
371.75	2928.60
371.96	2527.19
372.17	2971.60
372.38	2916.31
372.59	2908.12
372.80	2750.42
373.01	2942.93
373.22	2963.41
373.43	2840.53
373.64	2691.03
373.85	3190.74
374.06	3239.89
374.26	2961.36
374.47	2904.02
374.68	3307.47
374.89	2987.99
375.10	2836.44
375.31	2824.15
375.52	2936.79
375.73	2981.84
375.94	2660.31
376.15	3002.32
376.36	2807.77
376.57	2863.06
376.78	2811.86
376.99	2879.44
377.20	3200.98
377.40	2926.55
377.61	3127.25
377.82	2699.22
378.03	3106.77
378.24	3086.29
378.45	2906.07
378.66	2936.79
378.87	2713.56
379.08	2734.04
379.29	2826.20
379.50	3016.66
379.71	2987.99
379.91	3102.67
380.12	2793.43
380.33	2858.96
380.54	3018.71
380.75	3053.52
380.96	2736.09
381.17	2916.31
381.38	3102.67
381.59	2893.78
381.80	2785.24
382.00	2994.13
382.21	3014.61
382.42	3344.33
382.63	3071.95
382.84	2910.16
383.05	3133.39
383.26	3170.26
383.47	2949.08
383.68	2813.91
383.88	3104.72
384.09	3033.04
384.30	3002.32
384.51	2897.88
384.72	2906.07
384.93	2799.57
385.14	2897.88
385.35	3016.66
385.55	2750.42
385.76	3176.40
385.97	2871.25
386.18	2662.36
386.39	2858.96
386.60	2912.21
386.81	2799.57
387.02	2713.56
387.22	2738.13
387.43	3086.29
387.64	2848.72
387.85	3051.47
388.06	3053.52
388.27	4104.13
388.48	7333.78
388.68	10745.69
388.89	13268.79
389.10	14479.14
389.31	13956.91
389.52	11138.90
389.73	9643.88
389.93	8851.32
390.14	8093.57
390.35	7415.69
390.56	6688.67
390.77	5631.91
390.98	4319.17
391.18	3678.15
391.39	3340.24
391.60	3030.99
391.81	3043.28
392.02	2850.77
392.23	3344.33
392.43	3037.14
392.64	2961.36
392.85	2965.46
393.06	3284.94
393.27	3002.32
393.47	2738.13
393.68	3016.66
393.89	3000.27
394.10	3221.45
394.31	2818.00
394.52	2818.00
394.72	2865.11
394.93	3280.85
395.14	2750.42
395.35	2930.64
395.56	2953.17
395.76	2926.55
395.97	2775.00
396.18	2981.84
396.39	2969.55
396.60	3565.51
396.80	3069.91
397.01	3057.62
397.22	3053.52
397.43	3176.40
397.64	2809.81
397.84	2916.31
398.05	3383.24
398.26	3008.47
398.47	2895.83
398.67	3078.10
398.88	2961.36
399.09	3039.19
399.30	2820.05
399.51	2844.63
399.71	2736.09
399.92	3008.47
400.13	2926.55
400.34	2828.24
400.54	2992.08
400.75	3332.05
400.96	3059.67
401.17	3117.01
401.37	3020.75
401.58	2936.79
401.79	2830.29
402.00	3018.71
402.21	3428.30
402.41	3114.96
402.62	3149.78
402.83	3121.10
403.04	3319.76
403.24	3620.81
403.45	2906.07
403.66	3190.74
403.87	3243.98
404.07	3379.15
404.28	3033.04
404.49	3076.05
404.70	3098.58
404.90	3131.34
405.11	2899.92
405.32	2912.21
405.52	2867.16
405.73	2877.40
405.94	2746.33
406.15	2818.00
406.35	3131.34
406.56	3049.43
406.77	2846.68
406.98	2799.57
407.18	2908.12
407.39	3250.13
407.60	2824.15
407.80	2951.12
408.01	2965.46
408.22	3049.43
408.43	2770.90
408.63	2897.88
408.84	3129.30
409.05	3117.01
409.25	2727.89
409.46	2770.90
409.67	2930.64
409.88	2828.24
410.08	2850.77
410.29	2818.00
410.50	3121.10
410.70	3059.67
410.91	2695.13
411.12	2963.41
411.32	3000.27
411.53	2760.66
411.74	2815.96
411.95	2899.92
412.15	3022.80
412.36	3041.23
412.57	2996.18
412.77	3078.10
412.98	2942.93
413.19	2895.83
413.39	2920.40
413.60	2867.16
413.81	3334.09
414.01	2844.63
414.22	2852.82
414.43	2983.89
414.63	2889.68
414.84	3067.86
415.05	2881.49
415.25	2750.42
415.46	3071.95
415.67	2832.34
415.87	2840.53
416.08	2797.53
416.29	2942.93
416.49	3086.29
416.70	2867.16
416.91	2836.44
417.11	2932.69
417.32	3207.12
417.53	2914.26
417.73	2906.07
417.94	2944.98
418.15	3065.81
418.35	2895.83
418.56	2854.87
418.77	3360.72
418.97	3010.51
419.18	2883.54
419.38	2621.40
419.59	2942.93
419.80	3301.33
420.00	2879.44
420.21	2799.57
420.42	3233.74
420.62	3043.28
420.83	2779.09
421.04	2865.11
421.24	2885.59
421.45	3129.30
421.65	2955.22
421.86	2803.67
422.07	3084.24
422.27	3082.19
422.48	2801.62
422.69	2633.69
422.89	3016.66
423.10	2863.06
423.30	2742.23
423.51	2854.87
423.72	3024.85
423.92	3114.96
424.13	2680.79
424.33	2904.02
424.54	3078.10
424.75	3088.34
424.95	3110.86
425.16	2807.77
425.36	3002.32
425.57	3135.44
425.78	2922.45
425.98	2955.22
426.19	2908.12
426.39	2787.29
426.60	2951.12
426.81	2947.03
427.01	3053.52
427.22	2932.69
427.42	2713.56
427.63	2723.80
427.83	3143.63
428.04	3319.76
428.25	2904.02
428.45	3008.47
428.66	3137.49
428.86	2930.64
429.07	2852.82
429.28	2858.96
429.48	2944.98
429.69	2844.63
429.89	2987.99
430.10	2682.84
430.30	3059.67
430.51	3172.30
430.71	2818.00
430.92	2781.14
431.13	2947.03
431.33	2998.23
431.54	2983.89
431.74	3110.86
431.95	3438.54
432.15	2893.78
432.36	2887.64
432.56	2926.55
432.77	3354.57
432.98	3289.04
433.18	2895.83
433.39	2811.86
433.59	2979.79
433.80	3297.23
434.00	3020.75
434.21	2887.64
434.41	2844.63
434.62	3436.49
434.82	2674.65
435.03	2711.51
435.23	3074.00
435.44	2715.61
435.64	2811.86
435.85	2906.07
436.06	3047.38
436.26	3192.78
436.47	2844.63
436.67	2842.58
436.88	2967.51
437.08	3205.07
437.29	2973.65
437.49	2906.07
437.70	3221.45
437.90	2910.16
438.11	2967.51
438.31	2887.64
438.52	3200.98
438.72	3096.53
438.93	3164.11
439.13	2959.31
439.34	3190.74
439.54	2906.07
439.75	2951.12
439.95	2873.30
440.16	2869.20
440.36	2983.89
440.57	2873.30
440.77	2877.40
440.98	3039.19
441.18	3061.71
441.39	2813.91
441.59	2697.17
441.80	3346.38
442.00	2930.64
442.21	2918.36
442.41	2678.74
442.62	3170.26
442.82	2893.78
443.02	2826.20
443.23	2963.41
443.43	2965.46
443.64	3219.41
443.84	2734.04
444.05	3035.09
444.25	3018.71
444.46	2942.93
444.66	2807.77
444.87	3010.51
445.07	2738.13
445.28	3002.32
445.48	3018.71
445.69	2940.88
445.89	3350.48
446.09	2899.92
446.30	3243.98
446.50	3166.16
446.71	4607.93
446.91	5754.79
447.12	6594.46
447.32	6952.85
447.53	6774.68
447.73	5771.18
447.93	4962.23
448.14	4747.19
448.34	4865.97
448.55	4044.74
448.75	3889.09
448.96	3762.12
449.16	3647.43
449.36	3502.03
449.57	3094.48
449.77	2908.12
449.98	2887.64
450.18	3080.14
450.39	2863.06
450.59	2959.31
450.79	3018.71
451.00	2795.48
451.20	2985.94
451.41	2850.77
451.61	3076.05
451.81	2924.50
452.02	2756.57
452.22	2895.83
452.43	2944.98
452.63	2879.44
452.84	2877.40
453.04	2754.52
453.24	3018.71
453.45	2840.53
453.65	2918.36
453.86	2865.11
454.06	3071.95
454.26	2985.94
454.47	2760.66
454.67	3071.95
454.87	3067.86
455.08	2895.83
455.28	3094.48
455.49	2895.83
455.69	2889.68
455.89	3338.19
456.10	2957.27
456.30	2906.07
456.51	3186.64
456.71	3090.38
456.91	2904.02
457.12	2852.82
457.32	3057.62
457.52	2793.43
457.73	3045.33
457.93	3049.43
458.14	2832.34
458.34	2711.51
458.54	2899.92
458.75	2822.10
458.95	3198.93
459.15	3125.20
459.36	2883.54
459.56	2877.40
459.76	3379.15
459.97	2965.46
460.17	2852.82
460.37	3008.47
460.58	3065.81
460.78	3147.73
460.99	2832.34
461.19	2844.63
461.39	2863.06
461.60	2961.36
461.80	2875.35
462.00	2705.37
462.21	2998.23
462.41	2873.30
462.61	2785.24
462.82	2676.70
463.02	3102.67
463.22	2996.18
463.43	2908.12
463.63	2834.39
463.83	3196.88
464.04	2990.03
464.24	2869.20
464.44	2809.81
464.64	3002.32
464.85	3082.19
465.05	2920.40
465.25	2834.39
465.46	2875.35
465.66	3114.96
465.86	2865.11
466.07	2779.09
466.27	3000.27
466.47	2711.51
466.68	2641.88
466.88	2994.13
467.08	3133.39
467.29	3141.58
467.49	2858.96
467.69	2951.12
467.89	2957.27
468.10	2928.60
468.30	2885.59
468.50	2963.41
468.71	3151.82
468.91	2701.27
469.11	3045.33
469.31	2924.50
469.52	2879.44
469.72	3252.17
469.92	3024.85
470.13	2873.30
470.33	2908.12
470.53	3082.19
470.73	3196.88
470.94	3426.25
471.14	3565.51
471.34	4122.56
471.54	3794.89
471.75	3614.66
471.95	3291.09
472.15	3200.98
472.36	3313.61
472.56	3225.55
472.76	3483.59
472.96	3280.85
473.17	3155.92
473.37	2891.73
473.57	2951.12
473.77	3141.58
473.98	2963.41
474.18	2719.70
474.38	3524.55
474.58	2818.00
474.79	2783.19
474.99	3041.23
475.19	3227.60
475.39	2875.35
475.60	2889.68
475.80	2969.55
476.00	3063.76
476.20	2914.26
476.41	2891.73
476.61	2904.02
476.81	3307.47
477.01	2844.63
477.21	3041.23
477.42	2998.23
477.62	2844.63
477.82	3178.45
478.02	2756.57
478.23	2885.59
478.43	2881.49
478.63	2969.55
478.83	2879.44
479.03	2947.03
479.24	3229.65
479.44	3309.52
479.64	2779.09
479.84	2564.06
480.04	2850.77
480.25	3100.62
480.45	2824.15
480.65	2807.77
480.85	3194.83
481.06	2961.36
481.26	2891.73
481.46	2828.24
481.66	3024.85
481.86	2910.16
482.06	2938.84
482.27	2871.25
482.47	2947.03
482.67	2959.31
482.87	2805.72
483.07	3018.71
483.28	2938.84
483.48	2738.13
483.68	2848.72
483.88	2740.18
484.08	2637.78
484.29	2789.33
484.49	2889.68
484.69	2734.04
484.89	3174.35
485.09	3160.02
485.29	2910.16
485.50	2961.36
485.70	2875.35
485.90	3203.02
486.10	2951.12
486.30	2801.62
486.50	3217.36
486.71	3028.95
486.91	2953.17
487.11	2924.50
487.31	2766.81
487.51	3035.09
487.71	2861.01
487.91	2750.42
488.12	2838.48
488.32	2582.49
488.52	2844.63
488.72	2551.77
488.92	2957.27
489.12	3151.82
489.32	3069.91
489.53	2883.54
489.73	2793.43
489.93	3338.19
490.13	2861.01
490.33	2707.41
490.53	2979.79
490.73	3176.40
490.94	2760.66
491.14	3057.62
491.34	3028.95
491.54	3131.34
491.74	3674.06
491.94	4276.16
492.14	4566.97
492.34	4698.04
492.54	4358.08
492.75	3772.36
492.95	3973.06
493.15	3633.10
493.35	3545.03
493.55	3436.49
493.75	3448.78
493.95	3440.59
494.15	3065.81
494.35	2918.36
494.56	2981.84
494.76	2867.16
494.96	2992.08
495.16	2824.15
495.36	2951.12
495.56	3018.71
495.76	2846.68
495.96	2781.14
496.16	2895.83
496.36	3272.65
496.56	2789.33
496.77	2883.54
496.97	2944.98
497.17	3278.80
497.37	2672.60
497.57	3002.32
497.77	3098.58
497.97	2861.01
498.17	2854.87
498.37	2793.43
498.57	3065.81
498.77	2887.64
498.97	2949.08
499.17	3180.50
499.38	2990.03
499.58	3067.86
499.78	3016.66
499.98	2928.60
500.18	2944.98
500.38	2852.82
500.58	2981.84
500.78	3389.39
500.98	5562.28
501.18	7432.08
501.38	8724.35
501.58	9668.46
501.78	9584.49
501.98	7882.63
502.18	6770.58
502.38	5846.95
502.58	5742.50
502.78	5023.67
502.98	4906.93
503.18	4583.35
503.38	4421.56
503.59	3764.17
503.79	3598.28
503.99	3409.87
504.19	3381.20
504.39	3450.83
504.59	3246.03
504.79	3284.94
504.99	3444.68
505.19	3219.41
505.39	3069.91
505.59	3203.02
505.79	3299.28
505.99	3211.22
506.19	2861.01
506.39	3121.10
506.59	2942.93
506.79	2944.98
506.99	3055.57
507.19	2856.92
507.39	3051.47
507.59	2695.13
507.79	2801.62
507.99	2754.52
508.19	3026.90
508.39	2959.31
508.59	2834.39
508.79	3047.38
508.99	3289.04
509.19	2897.88
509.39	2895.83
509.59	2736.09
509.79	2977.75
509.99	3069.91
510.19	2998.23
510.39	2947.03
510.59	2959.31
510.79	2858.96
510.99	2707.41
511.19	2805.72
511.39	3295.18
511.59	3147.73
511.79	3016.66
511.99	2908.12
512.19	3373.00
512.38	3004.37
512.58	2840.53
512.78	2725.85
512.98	3102.67
513.18	3323.85
513.38	2760.66
513.58	2918.36
513.78	3006.42
513.98	2969.55
514.18	2852.82
514.38	2906.07
514.58	3026.90
514.78	2916.31
514.98	2791.38
515.18	2848.72
515.38	2756.57
515.58	3336.14
515.78	2826.20
515.98	2830.29
516.18	3149.78
516.38	2924.50
516.57	2762.71
516.77	2838.48
516.97	3114.96
517.17	2824.15
517.37	2652.12
517.57	2908.12
517.77	2893.78
517.97	2846.68
518.17	2904.02
518.37	2805.72
518.57	2848.72
518.77	2904.02
518.97	2904.02
519.16	2865.11
519.36	3254.22
519.56	2914.26
519.76	2858.96
519.96	2854.87
520.16	3321.81
520.36	2799.57
520.56	3010.51
520.76	2758.61
520.96	2936.79
521.16	3215.31
521.35	3092.43
521.55	2959.31
521.75	2934.74
521.95	2869.20
522.15	2793.43
522.35	2615.26
522.55	2889.68
522.75	3114.96
522.95	2764.76
523.14	2754.52
523.34	3018.71
523.54	2914.26
523.74	2965.46
523.94	2959.31
524.14	2770.90
524.34	3053.52
524.54	3039.19
524.73	2822.10
524.93	3082.19
525.13	3065.81
525.33	2783.19
525.53	3121.10
525.73	3162.06
525.93	3035.09
526.13	2856.92
526.32	2820.05
526.52	3114.96
526.72	3145.68
526.92	2832.34
527.12	2734.04
527.32	2731.99
527.52	3047.38
527.71	2942.93
527.91	2846.68
528.11	2940.88
528.31	2965.46
528.51	2779.09
528.71	2924.50
528.90	3045.33
529.10	3182.54
529.30	2899.92
529.50	2574.30
529.70	3004.37
529.90	2916.31
530.09	2844.63
530.29	2688.98
530.49	2803.67
530.69	3497.93
530.89	2969.55
531.09	2910.16
531.28	2893.78
531.48	3192.78
531.68	2889.68
531.88	2930.64
532.08	3184.59
532.28	2920.40
532.47	2924.50
532.67	2930.64
532.87	3086.29
533.07	2854.87
533.27	2906.07
533.46	2881.49
533.66	3096.53
533.86	2910.16
534.06	2918.36
534.26	2869.20
534.45	2916.31
534.65	3102.67
534.85	2983.89
535.05	2832.34
535.25	3088.34
535.44	2670.55
535.64	2912.21
535.84	2801.62
536.04	2869.20
536.24	2836.44
536.43	2779.09
536.63	2875.35
536.83	2932.69
537.03	2893.78
537.22	2654.17
537.42	2652.12
537.62	3010.51
537.82	2805.72
538.02	3012.56
538.21	3000.27
538.41	3491.79
538.61	3002.32
538.81	2838.48
539.00	2985.94
539.20	2801.62
539.40	2904.02
539.60	2822.10
539.79	2990.03
539.99	2949.08
540.19	2799.57
540.39	2768.85
540.58	2865.11
540.78	3076.05
540.98	3008.47
541.18	3026.90
541.37	2869.20
541.57	2957.27
541.77	3006.42
541.97	2777.05
542.16	2715.61
542.36	2985.94
542.56	2815.96
542.76	3088.34
542.95	2936.79
543.15	3071.95
543.35	3039.19
543.54	2779.09
543.74	2742.23
543.94	3182.54
544.14	2867.16
544.33	2973.65
544.53	2881.49
544.73	2981.84
544.93	2908.12
545.12	2914.26
545.32	2875.35
545.52	2967.51
545.71	2756.57
545.91	2883.54
546.11	2752.47
546.30	2783.19
546.50	2967.51
546.70	2928.60
546.90	2883.54
547.09	2676.70
547.29	2998.23
547.49	2971.60
547.68	2854.87
547.88	2932.69
548.08	3065.81
548.27	3278.80
548.47	2797.53
548.67	2920.40
548.87	3135.44
549.06	2828.24
549.26	2879.44
549.46	3053.52
549.65	2873.30
549.85	2932.69
550.05	2854.87
550.24	2867.16
550.44	2996.18
550.64	2942.93
550.83	2893.78
551.03	3106.77
551.23	3114.96
551.42	2901.97
551.62	2789.33
551.82	3030.99
552.01	2914.26
552.21	3047.38
552.41	2871.25
552.60	3217.36
552.80	3008.47
553.00	2881.49
553.19	2920.40
553.39	3375.05
553.59	2840.53
553.78	2918.36
553.98	2820.05
554.17	2789.33
554.37	2998.23
554.57	2977.75
554.76	2725.85
554.96	2881.49
555.16	3000.27
555.35	2975.70
555.55	3047.38
555.75	2942.93
555.94	3170.26
556.14	2666.46
556.33	2910.16
556.53	2924.50
556.73	3004.37
556.92	2904.02
557.12	2793.43
557.32	3377.10
557.51	3313.61
557.71	2926.55
557.90	3022.80
558.10	3211.22
558.30	2897.88
558.49	2830.29
558.69	2815.96
558.88	3057.62
559.08	2996.18
559.28	2891.73
559.47	2826.20
559.67	3102.67
559.86	3311.57
560.06	2836.44
560.26	2895.83
560.45	3028.95
560.65	2895.83
560.84	3033.04
561.04	2731.99
561.24	3045.33
561.43	2750.42
561.63	3028.95
561.82	2969.55
562.02	3129.30
562.22	2844.63
562.41	2781.14
562.61	2799.57
562.80	2791.38
563.00	3370.96
563.19	2940.88
563.39	2947.03
563.59	3055.57
563.78	2754.52
563.98	2639.83
564.17	2764.76
564.37	2731.99
564.56	3018.71
564.76	2703.32
564.96	2934.74
565.15	3059.67
565.35	3327.95
565.54	2867.16
565.74	2852.82
565.93	3051.47
566.13	2944.98
566.32	2942.93
566.52	3014.61
566.71	3030.99
566.91	3098.58
567.11	2994.13
567.30	2748.37
567.50	3139.54
567.69	3028.95
567.89	2809.81
568.08	2738.13
568.28	2951.12
568.47	2736.09
568.67	2901.97
568.86	2815.96
569.06	3086.29
569.25	2985.94
569.45	2727.89
569.64	2799.57
569.84	2895.83
570.04	3024.85
570.23	2830.29
570.43	2836.44
570.62	2996.18
570.82	3268.56
571.01	2772.95
571.21	2910.16
571.40	2838.48
571.60	3157.97
571.79	2957.27
571.99	2863.06
572.18	2830.29
572.38	3133.39
572.57	2985.94
572.77	2924.50
572.96	3463.12
573.16	3006.42
573.35	2906.07
573.55	2967.51
573.74	2971.60
573.94	2977.75
574.13	2830.29
574.33	2998.23
574.52	3149.78
574.71	3090.38
574.91	2891.73
575.10	2682.84
575.30	2944.98
575.49	2871.25
575.69	2764.76
575.88	2770.90
576.08	2861.01
576.27	3104.72
576.47	2830.29
576.66	3002.32
576.86	3188.69
577.05	3078.10
577.25	2967.51
577.44	3094.48
577.64	2975.70
577.83	3239.89
578.02	2865.11
578.22	3055.57
578.41	3346.38
578.61	2906.07
578.80	2738.13
579.00	2910.16
579.19	3030.99
579.39	3035.09
579.58	2994.13
579.77	2832.34
579.97	3196.88
580.16	3221.45
580.36	2971.60
580.55	2895.83
580.75	3067.86
580.94	3010.51
581.13	3016.66
581.33	3137.49
581.52	2998.23
581.72	3354.57
581.91	2975.70
582.11	2873.30
582.30	3139.54
582.49	2994.13
582.69	3145.68
582.88	2934.74
583.08	2987.99
583.27	3254.22
583.47	3049.43
583.66	2822.10
583.85	2848.72
584.05	2924.50
584.24	2990.03
584.44	2940.88
584.63	3145.68
584.82	3074.00
585.02	3135.44
585.21	3018.71
585.41	3082.19
585.60	3057.62
585.79	3149.78
585.99	3256.27
586.18	3063.76
586.37	3835.85
586.57	5767.08
586.76	16523.01
586.96	35231.21
587.15	48387.36
587.34	56908.96
587.54	60869.73
587.73	54351.04
587.93	38573.49
588.12	29621.82
588.31	23697.05
588.51	21087.93
588.70	19617.49
588.89	17049.34
589.09	14548.77
589.28	12515.14
589.47	9895.78
589.67	7591.82
589.86	6010.79
590.06	4794.29
590.25	4104.13
590.44	3553.23
590.64	3330.00
590.83	3233.74
591.02	3223.50
591.22	2858.96
591.41	2932.69
591.60	2908.12
591.80	3473.36
591.99	2746.33
592.18	2820.05
592.38	3096.53
592.57	2963.41
592.76	2904.02
592.96	3026.90
593.15	2934.74
593.34	3090.38
593.54	2875.35
593.73	3014.61
593.92	3067.86
594.12	3106.77
594.31	2947.03
594.50	3059.67
594.70	3149.78
594.89	3542.99
595.08	2815.96
595.28	2998.23
595.47	3538.89
595.66	3182.54
595.86	2801.62
596.05	2854.87
596.24	2934.74
596.43	3356.62
596.63	2920.40
596.82	2983.89
597.01	3035.09
597.21	3266.51
597.40	2873.30
597.59	2885.59
597.79	2932.69
597.98	3131.34
598.17	2987.99
598.36	2949.08
598.56	3211.22
598.75	2899.92
598.94	3004.37
599.14	2938.84
599.33	2863.06
599.52	3168.21
599.71	2940.88
599.91	2869.20
600.10	3098.58
600.29	2996.18
600.48	2947.03
600.68	2977.75
600.87	3125.20
601.06	2944.98
601.26	3030.99
601.45	2936.79
601.64	2881.49
601.83	3311.57
602.03	2791.38
602.22	2768.85
602.41	3221.45
602.60	3497.93
602.80	2926.55
602.99	3026.90
603.18	2912.21
603.37	3045.33
603.57	2867.16
603.76	2938.84
603.95	3182.54
604.14	2953.17
604.34	2789.33
604.53	2828.24
604.72	3004.37
604.91	3074.00
605.10	2928.60
605.30	2752.47
605.49	3389.39
605.68	3084.24
605.87	2879.44
606.07	2863.06
606.26	3035.09
606.45	3071.95
606.64	2897.88
606.84	2805.72
607.03	3004.37
607.22	3131.34
607.41	2850.77
607.60	2867.16
607.80	3168.21
607.99	3076.05
608.18	2953.17
608.37	2867.16
608.56	2904.02
608.76	3198.93
608.95	3012.56
609.14	2830.29
609.33	3112.91
609.52	3192.78
609.72	2942.93
609.91	3000.27
610.10	3133.39
610.29	3254.22
610.48	2969.55
610.68	2938.84
610.87	2994.13
611.06	3127.25
611.25	2924.50
611.44	2977.75
611.63	2944.98
611.83	3270.61
612.02	2766.81
612.21	3057.62
612.40	2781.14
612.59	2836.44
612.79	2717.65
612.98	2838.48
613.17	3254.22
613.36	2930.64
613.55	2947.03
613.74	2846.68
613.93	2955.22
614.13	3110.86
614.32	3022.80
614.51	2910.16
614.70	2936.79
614.89	2881.49
615.08	2901.97
615.28	3262.41
615.47	2828.24
615.66	3047.38
615.85	2865.11
616.04	2912.21
616.23	3059.67
616.42	2975.70
616.62	2932.69
616.81	2914.26
617.00	3000.27
617.19	3037.14
617.38	2838.48
617.57	2983.89
617.76	3037.14
617.95	3071.95
618.15	3071.95
618.34	3061.71
618.53	2754.52
618.72	3121.10
618.91	3037.14
619.10	2977.75
619.29	2949.08
619.48	2990.03
619.68	2789.33
619.87	2770.90
620.06	2797.53
620.25	3039.19
620.44	2795.48
620.63	2752.47
620.82	2990.03
621.01	3000.27
621.20	2873.30
621.39	2934.74
621.59	3067.86
621.78	3028.95
621.97	2904.02
622.16	3002.32
622.35	3026.90
622.54	3080.14
622.73	2930.64
622.92	2691.03
623.11	3096.53
623.30	3020.75
623.49	3049.43
623.68	2822.10
623.88	3280.85
624.07	2938.84
624.26	2828.24
624.45	2918.36
624.64	2953.17
624.83	2930.64
625.02	2858.96
625.21	2873.30
625.40	3014.61
625.59	3260.37
625.78	2901.97
625.97	2965.46
626.16	3246.03
626.35	3088.34
626.54	2891.73
626.74	3117.01
626.93	2926.55
627.12	3071.95
627.31	3010.51
627.50	2918.36
627.69	3133.39
627.88	2863.06
628.07	2727.89
628.26	2713.56
628.45	2795.48
628.64	2901.97
628.83	2852.82
629.02	2734.04
629.21	3086.29
629.40	3006.42
629.59	2754.52
629.78	2791.38
629.97	2959.31
630.16	3037.14
630.35	2818.00
630.54	2983.89
630.73	2906.07
630.92	2908.12
631.11	2815.96
631.30	2920.40
631.49	3117.01
631.68	3018.71
631.87	2916.31
632.06	2807.77
632.25	3430.35
632.44	3012.56
632.63	2846.68
632.82	2779.09
633.01	2815.96
633.20	2957.27
633.39	2770.90
633.58	2723.80
633.77	2990.03
633.96	3106.77
634.15	2987.99
634.34	2990.03
634.53	3125.20
634.72	2879.44
634.91	2723.80
635.10	2844.63
635.29	3176.40
635.48	3082.19
635.67	2772.95
635.86	2688.98
636.05	3203.02
636.24	2987.99
636.43	2910.16
636.62	2951.12
636.81	2588.63
637.00	3012.56
637.19	2875.35
637.38	2815.96
637.57	2887.64
637.76	2957.27
637.95	3020.75
638.14	2836.44
638.33	3008.47
638.52	3053.52
638.71	2805.72
638.89	2723.80
639.08	3465.16
639.27	3223.50
639.46	2981.84
639.65	3375.05
639.84	3389.39
640.03	3532.75
640.22	3194.83
640.41	3243.98
640.60	3008.47
640.79	3143.63
640.98	3117.01
641.17	3028.95
641.36	3117.01
641.55	3170.26
641.74	2781.14
641.92	2791.38
642.11	2891.73
642.30	2949.08
642.49	2826.20
642.68	2877.40
642.87	3022.80
643.06	3153.87
643.25	2742.23
643.44	2811.86
643.63	2938.84
643.82	3178.45
644.00	2736.09
644.19	2830.29
644.38	2934.74
644.57	3074.00
644.76	2844.63
644.95	2940.88
645.14	3012.56
645.33	2844.63
645.52	2924.50
645.71	2691.03
645.89	2756.57
646.08	2887.64
646.27	2891.73
646.46	3053.52
646.65	2750.42
646.84	2875.35
647.03	2766.81
647.22	3049.43
647.40	2918.36
647.59	2983.89
647.78	2695.13
647.97	2799.57
648.16	2906.07
648.35	3203.02
648.54	3160.02
648.73	2942.93
648.91	3125.20
649.10	3026.90
649.29	2764.76
649.48	2811.86
649.67	3012.56
649.86	3119.06
650.05	2824.15
650.23	3131.34
650.42	2844.63
650.61	3114.96
650.80	3090.38
650.99	3192.78
651.18	3176.40
651.36	3176.40
651.55	2791.38
651.74	2930.64
651.93	2938.84
652.12	2985.94
652.31	2965.46
652.49	2852.82
652.68	2940.88
652.87	3239.89
653.06	2963.41
653.25	3137.49
653.44	2947.03
653.62	3344.33
653.81	2846.68
654.00	2818.00
654.19	3123.15
654.38	3452.88
654.56	2947.03
654.75	2789.33
654.94	3127.25
655.13	3000.27
655.32	2846.68
655.51	2975.70
655.69	2873.30
655.88	3100.62
656.07	2695.13
656.26	2897.88
656.45	2787.29
656.63	3049.43
656.82	2854.87
657.01	3082.19
657.20	2908.12
657.38	3221.45
657.57	2793.43
657.76	2668.50
657.95	3078.10
658.14	2881.49
658.32	2897.88
658.51	2746.33
658.70	3004.37
658.89	3106.77
659.08	2914.26
659.26	3104.72
659.45	2869.20
659.64	3135.44
659.83	2854.87
660.01	3233.74
660.20	3074.00
660.39	3239.89
660.58	2648.02
660.76	2940.88
660.95	2727.89
661.14	2938.84
661.33	2705.37
661.51	2824.15
661.70	2990.03
661.89	3080.14
662.08	2959.31
662.26	2664.41
662.45	2828.24
662.64	3268.56
662.83	2965.46
663.01	2775.00
663.20	2803.67
663.39	3196.88
663.58	2920.40
663.76	2754.52
663.95	3168.21
664.14	2871.25
664.32	2863.06
664.51	2762.71
664.70	2697.17
664.89	3018.71
665.07	2746.33
665.26	3043.28
665.45	2783.19
665.64	3074.00
665.82	2856.92
666.01	2971.60
666.20	2754.52
666.38	3131.34
666.57	3110.86
666.76	4779.96
666.95	10948.44
667.13	17616.63
667.32	21495.48
667.51	23873.17
667.69	24956.55
667.88	21135.04
668.07	15097.63
668.25	12715.84
668.44	11233.11
668.63	9615.21
668.81	8787.83
669.00	7278.48
669.19	6703.00
669.38	5973.92
669.56	5072.82
669.75	4394.94
669.94	3975.11
670.12	3395.53
670.31	3164.11
670.50	3137.49
670.68	3125.20
670.87	3076.05
671.06	2840.53
671.24	2846.68
671.43	3307.47
671.62	2983.89
671.80	2807.77
671.99	2918.36
672.18	3010.51
672.36	3141.58
672.55	2979.79
672.74	2992.08
672.92	2940.88
673.11	3061.71
673.29	2783.19
673.48	3037.14
673.67	2891.73
673.85	3125.20
674.04	2750.42
674.23	2846.68
674.41	3278.80
674.60	2846.68
674.79	2609.11
674.97	2740.18
675.16	3186.64
675.34	3131.34
675.53	2869.20
675.72	2920.40
675.90	3266.51
676.09	2914.26
676.28	2971.60
676.46	2729.94
676.65	3069.91
676.83	2908.12
677.02	2906.07
677.21	2959.31
677.39	2981.84
677.58	2822.10
677.77	2877.40
677.95	2797.53
678.14	2951.12
678.32	2944.98
678.51	2799.57
678.70	3176.40
678.88	2928.60
679.07	2994.13
679.25	2940.88
679.44	2906.07
679.63	2820.05
679.81	2994.13
680.00	3112.91
680.18	2932.69
680.37	3198.93
680.55	3051.47
680.74	2727.89
680.93	2582.49
681.11	2955.22
681.30	2994.13
681.48	2906.07
681.67	2873.30
681.85	2953.17
682.04	2764.76
682.23	3004.37
682.41	2983.89
682.60	2930.64
682.78	3000.27
682.97	2799.57
683.15	2891.73
683.34	3008.47
683.53	3260.37
683.71	2793.43
683.90	2936.79
684.08	3256.27
684.27	2875.35
684.45	2953.17
684.64	3051.47
684.82	2949.08
685.01	3168.21
685.19	2875.35
685.38	3225.55
685.57	3008.47
685.75	2840.53
685.94	2879.44
686.12	2742.23
686.31	2887.64
686.49	3264.46
686.68	2684.89
686.86	2875.35
687.05	2973.65
687.23	3254.22
687.42	2942.93
687.60	2711.51
687.79	3176.40
687.97	3203.02
688.16	3033.04
688.34	3137.49
688.53	2734.04
688.71	3069.91
688.90	3151.82
689.08	2875.35
689.27	2783.19
689.45	3139.54
689.64	2885.59
689.82	2791.38
690.01	3006.42
690.19	2998.23
690.38	2887.64
690.56	3008.47
690.75	2785.24
690.93	2953.17
691.12	2811.86
691.30	2936.79
691.49	3022.80
691.67	2994.13
691.86	3180.50
692.04	2926.55
692.23	2899.92
692.41	2969.55
692.60	3121.10
692.78	3020.75
692.97	2969.55
693.15	3063.76
693.34	3090.38
693.52	3094.48
693.71	2906.07
693.89	2910.16
694.08	2699.22
694.26	2881.49
694.44	3139.54
694.63	3069.91
694.81	2697.17
695.00	2777.05
695.18	3151.82
695.37	3440.59
695.55	2930.64
695.74	2901.97
695.92	2881.49
696.10	3125.20
696.29	2713.56
696.47	2881.49
696.66	2729.94
696.84	2863.06
697.03	2920.40
697.21	3121.10
697.40	4442.04
697.58	3223.50
697.76	2867.16
697.95	2811.86
698.13	2807.77
698.32	2897.88
698.50	2873.30
698.68	2914.26
698.87	3049.43
699.05	3282.89
699.24	2867.16
699.42	2725.85
699.61	3041.23
699.79	3016.66
699.97	2983.89
700.16	2803.67
700.34	2754.52
700.53	3049.43
700.71	3196.88
700.89	3037.14
701.08	2994.13
701.26	2947.03
701.45	3241.93
701.63	2883.54
701.81	2895.83
702.00	2869.20
702.18	2914.26
702.37	2783.19
702.55	3078.10
702.73	3002.32
702.92	2858.96
703.10	3119.06
703.28	3151.82
703.47	2850.77
703.65	3088.34
703.84	2930.64
704.02	2840.53
704.20	3307.47
704.39	2742.23
704.57	2877.40
704.75	3147.73
704.94	3102.67
705.12	2957.27
705.30	3401.68
705.49	6698.91
705.67	12814.14
705.86	18308.84
706.04	20385.48
706.22	22818.47
706.41	22066.86
706.59	16955.13
706.77	13098.81
706.96	11497.30
707.14	10358.63
707.32	8906.62
707.51	7837.58
707.69	6551.45
707.87	5357.49
708.06	4503.48
708.24	4065.22
708.42	3571.66
708.61	3723.21
708.79	2987.99
708.97	3053.52
709.16	3196.88
709.34	2998.23
709.52	2867.16
709.71	2901.97
709.89	3106.77
710.07	2830.29
710.26	2746.33
710.44	2928.60
710.62	3098.58
710.80	2973.65
710.99	3000.27
711.17	2932.69
711.35	2899.92
711.54	2940.88
711.72	3092.43
711.90	2979.79
712.09	3033.04
712.27	2830.29
712.45	3024.85
712.63	2832.34
712.82	2998.23
713.00	2877.40
713.18	2955.22
713.37	3041.23
713.55	3102.67
713.73	3170.26
713.91	3026.90
714.10	2830.29
714.28	2992.08
714.46	3074.00
714.65	2965.46
714.83	2901.97
715.01	3012.56
715.19	3028.95
715.38	2865.11
715.56	3004.37
715.74	2867.16
715.92	2877.40
716.11	3110.86
716.29	2557.91
716.47	2875.35
716.65	3045.33
716.84	2711.51
717.02	3057.62
717.20	2697.17
717.38	2887.64
717.57	2983.89
717.75	2967.51
717.93	2877.40
718.11	3033.04
718.30	2760.66
718.48	2852.82
718.66	3135.44
718.84	3100.62
719.03	2828.24
719.21	2770.90
719.39	3352.52
719.57	3090.38
719.75	2971.60
719.94	2744.28
720.12	2969.55
720.30	2994.13
720.48	3026.90
720.67	2885.59
720.85	2842.58
721.03	2912.21
721.21	2815.96
721.39	2944.98
721.58	3020.75
721.76	3022.80
721.94	2985.94
722.12	3002.32
722.30	3221.45
722.49	2891.73
722.67	2914.26
722.85	2914.26
723.03	2801.62
723.21	2916.31
723.40	2828.24
723.58	3012.56
723.76	3078.10
723.94	3149.78
724.12	2891.73
724.30	3190.74
724.49	3139.54
724.67	2881.49
724.85	2983.89
725.03	2656.22
725.21	3051.47
725.40	3176.40
725.58	2772.95
725.76	3102.67
725.94	3096.53
726.12	2779.09
726.30	2867.16
726.49	2791.38
726.67	2871.25
726.85	3137.49
727.03	3336.14
727.21	4444.09
727.39	5418.93
727.57	5935.01
727.76	6096.80
727.94	6219.68
728.12	5605.29
728.30	4702.14
728.48	4362.17
728.66	4108.23
728.84	3905.48
729.03	3485.64
729.21	3319.76
729.39	3223.50
729.57	3045.33
729.75	3035.09
729.93	2916.31
730.11	2785.24
730.30	2893.78
730.48	2920.40
730.66	2994.13
730.84	3000.27
731.02	3016.66
731.20	2846.68
731.38	2979.79
731.56	2791.38
731.74	2770.90
731.93	3059.67
732.11	2949.08
732.29	2818.00
732.47	3090.38
732.65	3004.37
732.83	3014.61
733.01	2922.45
733.19	2799.57
733.37	3098.58
733.56	2934.74
733.74	2746.33
733.92	3258.32
734.10	2912.21
734.28	3045.33
734.46	2760.66
734.64	2910.16
734.82	2979.79
735.00	2854.87
735.18	2807.77
735.36	3014.61
735.54	3006.42
735.73	2861.01
735.91	2998.23
736.09	3213.26
736.27	2996.18
736.45	2924.50
736.63	2639.83
736.81	2924.50
736.99	3131.34
737.17	3014.61
737.35	2881.49
737.53	3059.67
737.71	3028.95
737.89	3045.33
738.07	2734.04
738.25	2844.63
738.43	2775.00
738.61	2869.20
738.80	2734.04
738.98	2799.57
739.16	2889.68
739.34	2818.00
739.52	3119.06
739.70	2906.07
739.88	3049.43
740.06	3018.71
740.24	2680.79
740.42	3237.84
740.60	2682.84
740.78	2777.05
740.96	2582.49
741.14	2879.44
741.32	2975.70
741.50	2738.13
741.68	3129.30
741.86	3151.82
742.04	2801.62
742.22	2781.14
742.40	2904.02
742.58	3020.75
742.76	2891.73
742.94	3092.43
743.12	2697.17
743.30	2942.93
743.48	2987.99
743.66	2797.53
743.84	2865.11
744.02	2901.97
744.20	2990.03
744.38	2807.77
744.56	2842.58
744.74	3305.42
744.92	3102.67
745.10	3151.82
745.28	3043.28
745.46	3305.42
745.64	2985.94
745.82	3006.42
746.00	2850.77
746.18	3074.00
746.36	2828.24
746.54	2971.60
746.72	2848.72
746.90	2879.44
747.08	3248.08
747.26	2906.07
747.44	3010.51
747.62	3051.47
747.80	2987.99
747.98	2998.23
748.15	2863.06
748.33	3229.65
748.51	2979.79
748.69	2959.31
748.87	2787.29
749.05	2899.92
749.23	2969.55
749.41	2838.48
749.59	2801.62
749.77	3143.63
749.95	2893.78
750.13	2813.91
750.31	2951.12
750.49	2967.51
750.67	3133.39
750.85	2994.13
751.03	2912.21
751.20	3186.64
751.38	3033.04
751.56	2836.44
751.74	2893.78
751.92	2951.12
752.10	2686.94
752.28	3014.61
752.46	2815.96
752.64	2969.55
752.82	2953.17
753.00	3022.80
753.18	2848.72
753.35	2940.88
753.53	2955.22
753.71	2752.47
753.89	2938.84
754.07	2932.69
754.25	3121.10
754.43	2944.98
754.61	2746.33
754.79	3037.14
754.97	2912.21
755.14	2973.65
755.32	2785.24
755.50	2992.08
755.68	2975.70
755.86	2777.05
756.04	2828.24
756.22	2703.32
756.40	3086.29
756.57	3160.02
756.75	2799.57
756.93	3176.40
757.11	3135.44
757.29	2752.47
757.47	2715.61
757.65	2717.65
757.82	2656.22
758.00	2789.33
758.18	2838.48
758.36	2848.72
758.54	3221.45
758.72	2684.89
758.90	3006.42
759.07	3057.62
759.25	2848.72
759.43	2967.51
759.61	2709.46
759.79	4308.93
759.97	3108.82
760.15	2738.13
760.32	2861.01
760.50	3041.23
760.68	3254.22
760.86	2762.71
761.04	3133.39
761.22	3106.77
761.39	2908.12
761.57	3020.75
761.75	2809.81
761.93	3057.62
762.11	2918.36
762.28	2920.40
762.46	2807.77
762.64	3145.68
762.82	2811.86
763.00	2820.05
763.18	3051.47
763.35	2795.48
763.53	3088.34
763.71	2850.77
763.89	2834.39
764.07	2994.13
764.24	2916.31
764.42	2971.60
764.60	2807.77
764.78	2930.64
764.96	3084.24
765.13	3059.67
765.31	2811.86
765.49	3055.57
765.67	2803.67
765.84	2881.49
766.02	2795.48
766.20	2762.71
766.38	3018.71
766.56	2971.60
766.73	2965.46
766.91	3024.85
767.09	3053.52
767.27	3041.23
767.44	2787.29
767.62	3061.71
767.80	3041.23
767.98	2881.49
768.15	2824.15
768.33	3063.76
768.51	3121.10
768.69	2998.23
768.87	2863.06
769.04	2998.23
769.22	3411.92
769.40	3026.90
769.58	2965.46
769.75	3065.81
769.93	3200.98
770.11	2873.30
770.28	2762.71
770.46	3114.96
770.64	2971.60
770.82	2875.35
770.99	2717.65
771.17	3149.78
771.35	2975.70
771.53	2897.88
771.70	2770.90
771.88	3061.71
772.06	2930.64
772.23	2856.92
772.41	2920.40
772.59	2975.70
772.77	2779.09
772.94	2881.49
773.12	2830.29
773.30	2883.54
773.47	3002.32
773.65	2822.10
773.83	3010.51
774.01	2990.03
774.18	2658.26
774.36	2875.35
774.54	2693.08
774.71	3106.77
774.89	2711.51
775.07	2799.57
775.24	2783.19
775.42	2914.26
775.60	3348.43
775.78	2781.14
775.95	2707.41
776.13	2691.03
776.31	2656.22
776.48	3006.42
776.66	3057.62
776.84	2883.54
777.01	2832.34
777.19	2783.19
777.37	2744.28
777.54	3135.44
777.72	3313.61
777.90	3059.67
778.07	2850.77
778.25	3547.08
778.43	3133.39
778.60	2750.42
778.78	2977.75
778.96	3200.98
779.13	2777.05
779.31	2951.12
779.49	2920.40
779.66	2936.79
779.84	2856.92
780.01	2897.88
780.19	2731.99
780.37	3209.17
780.54	3112.91
780.72	2648.02
780.90	2840.53
781.07	3033.04
781.25	2867.16
781.43	3112.91
781.60	2914.26
781.78	3162.06
781.95	3080.14
782.13	2762.71
782.31	2832.34
782.48	2664.41
782.66	3035.09
782.83	3180.50
783.01	2924.50
783.19	3102.67
783.36	2951.12
783.54	2740.18
783.72	2955.22
783.89	2934.74
784.07	3090.38
784.24	2914.26
784.42	3094.48
784.60	2981.84
784.77	3018.71
784.95	2664.41
785.12	2801.62
785.30	3014.61
785.47	2822.10
785.65	2682.84
785.83	2926.55
786.00	2871.25
786.18	3030.99
786.35	2801.62
786.53	2832.34
786.71	3164.11
786.88	3063.76
787.06	3037.14
787.23	2897.88
787.41	2914.26
787.58	3014.61
787.76	2756.57
787.94	2940.88
788.11	2979.79
788.29	2811.86
788.46	2795.48
788.64	2645.98
788.81	2944.98
788.99	2844.63
789.16	2770.90
789.34	2867.16
789.52	2899.92
789.69	2877.40
789.87	2654.17
790.04	2844.63
790.22	2981.84
790.39	3303.37
790.57	2777.05
790.74	2738.13
790.92	3092.43
791.09	2770.90
791.27	2938.84
791.44	3043.28
791.62	2904.02
791.79	3149.78
791.97	2951.12
792.15	3231.69
792.32	3119.06
792.50	3098.58
792.67	3039.19
792.85	3164.11
793.02	3000.27
793.20	2959.31
793.37	2752.47
793.55	2846.68
793.72	2719.70
793.90	3076.05
794.07	2760.66
794.25	2793.43
794.42	3102.67
794.60	2916.31
794.77	2904.02
794.95	2967.51
795.12	3098.58
795.30	2936.79
795.47	2633.69
795.65	3239.89
795.82	3006.42
796.00	2852.82
796.17	2836.44
796.34	2799.57
796.52	3063.76
796.69	3160.02
796.87	2994.13
797.04	2975.70
797.22	3117.01
797.39	3030.99
797.57	3030.99
797.74	2815.96
797.92	3004.37
798.09	2863.06
798.27	3100.62
798.44	2842.58
798.62	2861.01
798.79	2947.03
798.96	3016.66
799.14	2879.44
799.31	3463.12
799.49	3033.04
799.66	2828.24
799.84	2910.16
800.01	2721.75
800.19	3020.75
800.36	2598.87
800.53	2979.79
800.71	3123.15
800.88	3299.28
801.06	2756.57
801.23	2797.53
801.41	2871.25
801.58	2871.25
801.75	2830.29
801.93	2906.07
802.10	3098.58
802.28	2889.68
802.45	2881.49
802.63	3018.71
802.80	3301.33
802.97	2967.51
803.15	2947.03
803.32	2797.53
803.50	2916.31
803.67	2852.82
803.84	2809.81
804.02	2904.02
804.19	2873.30
804.37	2617.30
804.54	2756.57
804.71	2820.05
804.89	2987.99
805.06	2791.38
805.24	2766.81
805.41	2736.09
805.58	2744.28
805.76	3426.25
805.93	2922.45
806.10	3004.37
806.28	3057.62
806.45	3078.10
806.63	2953.17
806.80	2936.79
806.97	3074.00
807.15	3002.32
807.32	2893.78
807.49	2887.64
807.67	2848.72
807.84	3020.75
808.01	2684.89
808.19	3041.23
808.36	3401.68
808.54	2854.87
808.71	2811.86
808.88	2887.64
809.06	3233.74
809.23	3274.70
809.40	2858.96
809.58	2856.92
809.75	3035.09
809.92	2795.48
810.10	3127.25
810.27	2820.05
810.44	3088.34
810.62	3059.67
810.79	2969.55
810.96	2754.52
811.14	2887.64
811.31	3055.57
811.48	3026.90
811.66	2944.98
811.83	3137.49
812.00	3014.61
812.18	2922.45
812.35	3106.77
812.52	2897.88
812.69	2904.02
812.87	2815.96
813.04	2678.74
813.21	2932.69
813.39	2811.86
813.56	2781.14
813.73	3022.80
813.91	2783.19
814.08	2996.18
814.25	2920.40
814.42	2725.85
814.60	2967.51
814.77	2969.55
814.94	2826.20
815.12	2922.45
815.29	3332.05
815.46	2883.54
815.63	2949.08
815.81	2791.38
815.98	2922.45
816.15	2951.12
816.33	2922.45
816.50	2830.29
816.67	2940.88
816.84	2834.39
817.02	2734.04
817.19	2854.87
817.36	3049.43
817.53	3041.23
817.71	2695.13
817.88	2922.45
818.05	2934.74
818.22	2922.45
818.40	3094.48
818.57	2787.29
818.74	3055.57
818.91	2977.75
819.09	2987.99
819.26	2936.79
819.43	2811.86
819.60	2920.40
819.78	3000.27
819.95	2918.36
820.12	2775.00
820.29	3186.64
820.47	3180.50
820.64	2699.22
820.81	2863.06
820.98	2815.96
821.15	2889.68
821.33	3004.37
821.50	2715.61
821.67	2990.03
821.84	2879.44
822.02	2873.30
822.19	3133.39
822.36	2879.44
822.53	2818.00
822.70	2781.14
822.88	2914.26
823.05	3250.13
823.22	2963.41
823.39	2932.69
823.56	2979.79
823.74	3325.90
823.91	2758.61
824.08	2775.00
824.25	2779.09
824.42	3266.51
824.60	2713.56
824.77	2949.08
824.94	2901.97
825.11	3088.34
825.28	2637.78
825.45	2965.46
825.63	3082.19
825.80	2826.20
825.97	3045.33
826.14	2904.02
826.31	2734.04
826.48	3043.28
826.66	2891.73
826.83	2815.96
827.00	2951.12
827.17	2772.95
827.34	2885.59
827.51	2809.81
827.69	2920.40
827.86	2697.17
828.03	2873.30
828.20	2867.16
828.37	2854.87
828.54	3084.24
828.71	2785.24
828.89	2918.36
829.06	2957.27
829.23	3172.30
829.40	2787.29
829.57	2844.63
829.74	3123.15
829.91	2858.96
830.09	2758.61
830.26	2944.98
830.43	3198.93
830.60	2963.41
830.77	2920.40
830.94	3043.28
831.11	3112.91
831.28	2932.69
831.46	2971.60
831.63	2856.92
831.80	3123.15
831.97	2795.48
832.14	2844.63
832.31	2969.55
832.48	3012.56
832.65	3016.66
832.82	2953.17
832.99	2869.20
833.17	2789.33
833.34	3205.07
833.51	2848.72
833.68	2590.68
833.85	3215.31
834.02	2828.24
834.19	2762.71
834.36	2844.63
834.53	3059.67
834.70	3112.91
834.87	2899.92
835.04	2686.94
835.22	2869.20
835.39	2918.36
835.56	2617.30
835.73	2680.79
835.90	3172.30
836.07	2762.71
836.24	2836.44
836.41	2721.75
836.58	2873.30
836.75	3119.06
836.92	2809.81
837.09	2731.99
837.26	3086.29
837.43	3010.51
837.60	2750.42
837.77	2734.04
837.94	3268.56
838.12	3207.12
838.29	2680.79
838.46	2596.82
838.63	2826.20
838.80	3196.88
838.97	2809.81
839.14	2764.76
839.31	3008.47
839.48	3030.99
839.65	2738.13
839.82	2893.78
839.99	3041.23
840.16	3033.04
840.33	2705.37
840.50	2783.19
840.67	2840.53
840.84	2535.39
841.01	2727.89
841.18	2658.26
841.35	2916.31
841.52	3002.32
841.69	3041.23
841.86	2746.33
842.03	2916.31
842.20	3039.19
842.37	2654.17
842.54	2787.29
842.71	2916.31
842.88	2691.03
843.05	2725.85
843.22	2740.18
843.39	3080.14
843.56	2856.92
843.73	2725.85
843.90	2754.52
844.07	2887.64
844.24	3131.34
844.41	2881.49
844.58	2781.14
844.75	3016.66
844.92	3035.09
845.09	2842.58
845.26	2699.22
845.43	3114.96
845.60	2996.18
845.77	2889.68
845.94	2772.95
846.10	3018.71
846.27	2697.17
846.44	2602.97
846.61	2682.84
846.78	3016.66
846.95	3137.49
847.12	2695.13
847.29	2721.75
847.46	2797.53
847.63	3135.44
847.80	2656.22
847.97	2770.90
848.14	3407.82
848.31	2940.88
848.48	2576.34
848.65	2766.81
848.82	2906.07
848.98	3459.02
849.15	2846.68
849.32	2811.86
849.49	3071.95
849.66	2996.18
849.83	2738.13
850.00	2678.74
850.17	3086.29
850.34	2840.53
850.51	2666.46
850.68	2762.71
850.85	3342.28
851.01	2969.55
851.18	2727.89
851.35	2869.20
851.52	3047.38
851.69	3180.50
851.86	2650.07
852.03	2734.04
852.20	3065.81
852.37	3010.51
852.53	2605.02
852.70	2656.22
852.87	3016.66
853.04	3119.06
853.21	2734.04
853.38	2953.17
853.55	3108.82
853.72	3192.78
853.89	2672.60
854.05	2648.02
854.22	2957.27
854.39	2871.25
854.56	2750.42
854.73	2838.48
854.90	2856.92
855.07	2852.82
855.23	2678.74
855.40	2656.22
855.57	2875.35
855.74	2662.36
855.91	3020.75
856.08	2600.92
856.25	2719.70
856.41	2848.72
856.58	2758.61
856.75	2834.39
856.92	2826.20
857.09	3047.38
857.26	2629.59
857.42	2768.85
857.59	3102.67
857.76	2942.93
857.93	2719.70
858.10	2682.84
858.27	2699.22
858.43	2975.70
858.60	2723.80
858.77	2588.63
858.94	2940.88
859.11	3160.02
859.27	2783.19
859.44	2633.69
859.61	3276.75
859.78	3069.91
859.95	2723.80
860.12	2662.36
860.28	3344.33
860.45	3321.81
860.62	2731.99
860.79	2809.81
860.95	2977.75
861.12	2916.31
861.29	2648.02
861.46	2738.13
861.63	2971.60
861.79	2996.18
861.96	2676.70
862.13	2674.65
862.30	3121.10
862.47	2901.97
862.63	2566.10
862.80	2813.91
862.97	3147.73
863.14	3078.10
863.30	2762.71
863.47	2639.83
863.64	3297.23
863.81	2985.94
863.97	2580.44
864.14	2727.89
864.31	2881.49
864.48	2961.36
864.65	2725.85
864.81	2854.87
864.98	3047.38
865.15	3147.73
865.32	2801.62
865.48	2807.77
865.65	3186.64
865.82	2820.05
865.98	2793.43
866.15	2758.61
866.32	2959.31
866.49	2893.78
866.65	2897.88
866.82	2736.09
866.99	3000.27
867.16	2940.88
867.32	2729.94
867.49	2686.94
867.66	2959.31
867.83	2844.63
867.99	2684.89
868.16	2738.13
868.33	2754.52
868.49	2904.02
868.66	2754.52
868.83	2795.48
868.99	2949.08
869.16	3010.51
869.33	2920.40
869.50	2768.85
869.66	2981.84
869.83	2885.59
870.00	2600.92
870.16	2879.44
870.33	2908.12
870.50	3162.06
870.66	2775.00
870.83	2826.20
871.00	2920.40
871.17	3061.71
871.33	2785.24
871.50	2664.41
871.67	2947.03
871.83	2734.04
872.00	2803.67
872.17	2740.18
872.33	3243.98
872.50	3196.88
872.67	2752.47
872.83	2691.03
873.00	2990.03
873.17	2955.22
873.33	2836.44
873.50	2781.14
873.67	2856.92
873.83	2897.88
874.00	2809.81
874.16	2922.45
874.33	2996.18
874.50	2760.66
874.66	2680.79
874.83	2820.05
875.00	3127.25
875.16	3135.44
875.33	2863.06
875.50	2512.86
875.66	2838.48
875.83	3041.23
875.99	2803.67
876.16	2916.31
876.33	2828.24
876.49	2897.88
876.66	2791.38
876.83	2820.05
876.99	2711.51
877.16	3020.75
877.32	2658.26
877.49	2789.33
877.66	3006.42
877.82	3125.20
877.99	2779.09
878.15	2901.97
878.32	3020.75
878.49	3012.56
878.65	2707.41
878.82	2906.07
878.98	2805.72
879.15	3149.78
879.32	2897.88
879.48	2865.11
879.65	2944.98
879.81	2848.72
879.98	2754.52
880.15	2795.48
880.31	3022.80
880.48	2752.47
880.64	2846.68
880.81	2951.12
880.97	3305.42
881.14	3219.41
881.31	2738.13
881.47	2977.75
881.64	2908.12
881.80	2731.99
881.97	2920.40
882.13	2699.22
882.30	2768.85
882.47	2779.09
882.63	2727.89
882.80	2664.41
882.96	2881.49
883.13	3119.06
883.29	2695.13
883.46	2762.71
883.62	3266.51
883.79	2942.93
883.95	2871.25
884.12	2785.24
884.29	3104.72
884.45	2934.74
884.62	2799.57
884.78	2731.99
884.95	3229.65
885.11	2815.96
885.28	2852.82
885.44	2803.67
885.61	3094.48
885.77	3135.44
885.94	2842.58
886.10	2815.96
886.27	3076.05
886.43	3254.22
886.60	2916.31
886.76	2803.67
886.93	2758.61
887.09	2977.75
887.26	2688.98
887.42	2844.63
887.59	3190.74
887.75	3336.14
887.92	2985.94
888.08	2846.68
888.25	3227.60
888.41	3008.47
888.58	2850.77
888.74	2637.78
888.91	2828.24
>>>>>End Processed Spectral Data<<<<<
