SpectraSuite Data File
++++++++++++++++++++++++++++++++++++
Date: Thu May 05 21:10:52 CEST 2016
User: root
Dark Spectrum Present: No
Reference Spectrum Present: No
Number of Sampled Component Spectra: 1
Spectrometers: USB4C02835
Integration Time (usec): 100000 (USB4C02835)
Spectra Averaged: 1 (USB4C02835)
Boxcar Smoothing: 0 (USB4C02835)
Correct for Electrical Dark: No (USB4C02835)
Strobe/Lamp Enabled: No (USB4C02835)
Correct for Detector Non-linearity: No (USB4C02835)
Correct for Stray Light: No (USB4C02835)
Number of Pixels in Processed Spectrum: 3648
>>>>>Begin Processed Spectral Data<<<<<
177.47	2123.74
177.69	2123.74
177.91	2123.74
178.13	2154.46
178.36	2209.76
178.58	2838.48
178.80	2973.65
179.02	2682.84
179.24	2783.19
179.46	2607.06
179.68	2621.40
179.90	2918.36
180.13	2887.64
180.35	2478.04
180.57	2590.68
180.79	3166.16
181.01	2942.93
181.23	2721.75
181.45	2799.57
181.67	3207.12
181.90	3114.96
182.12	2734.04
182.34	2557.91
182.56	3090.38
182.78	3037.14
183.00	2709.46
183.22	2643.93
183.44	2654.17
183.66	3475.40
183.89	2791.38
184.11	2699.22
184.33	3090.38
184.55	3155.92
184.77	2631.64
184.99	2688.98
185.21	2897.88
185.43	3422.16
185.65	2662.36
185.87	2654.17
186.10	3399.63
186.32	3319.76
186.54	2785.24
186.76	2801.62
186.98	3172.30
187.20	2951.12
187.42	2625.50
187.64	2654.17
187.86	3028.95
188.08	3209.17
188.30	2553.82
188.52	2713.56
188.75	3266.51
188.97	3137.49
189.19	2652.12
189.41	2648.02
189.63	3063.76
189.85	2901.97
190.07	2504.67
190.29	2553.82
190.51	3053.52
190.73	2766.81
190.95	2852.82
191.17	2740.18
191.39	2766.81
191.61	3020.75
191.84	2717.65
192.06	2754.52
192.28	2777.05
192.50	3547.08
192.72	2801.62
192.94	2811.86
193.16	3188.69
193.38	3100.62
193.60	2611.16
193.82	2764.76
194.04	3207.12
194.26	2975.70
194.48	2674.65
194.70	2693.08
194.92	2910.16
195.14	3207.12
195.36	2709.46
195.58	2734.04
195.80	3108.82
196.02	2897.88
196.24	2574.30
196.46	2766.81
196.69	2858.96
196.91	3493.83
197.13	2750.42
197.35	2717.65
197.57	3248.08
197.79	3024.85
198.01	2815.96
198.23	2631.64
198.45	3080.14
198.67	2736.09
198.89	2533.34
199.11	2762.71
199.33	2803.67
199.55	2652.12
199.77	2598.87
199.99	2803.67
200.21	2785.24
200.43	3055.57
200.65	2559.96
200.87	2547.67
201.09	2957.27
201.31	2858.96
201.53	2766.81
201.75	2713.56
201.97	3063.76
202.19	2992.08
202.41	2783.19
202.63	2758.61
202.85	3129.30
203.07	2987.99
203.29	2750.42
203.51	2549.72
203.73	2863.06
203.95	3405.77
204.17	2629.59
204.39	2754.52
204.61	2965.46
204.83	2914.26
205.05	2840.53
205.27	2713.56
205.49	3387.34
205.71	3006.42
205.93	2588.63
206.15	2441.18
206.37	3039.19
206.59	2953.17
206.81	2529.24
207.03	2619.35
207.25	2809.81
207.47	3082.19
207.69	2686.94
207.91	2916.31
208.13	3340.24
208.34	2848.72
208.56	2676.70
208.78	2641.88
209.00	2949.08
209.22	2869.20
209.44	2670.55
209.66	2625.50
209.88	2955.22
210.10	3057.62
210.32	2625.50
210.54	2731.99
210.76	2846.68
210.98	3160.02
211.20	2588.63
211.42	2764.76
211.64	3219.41
211.86	3100.62
212.08	2760.66
212.30	2707.41
212.52	2901.97
212.74	3035.09
212.96	2766.81
213.17	2795.48
213.39	3100.62
213.61	3268.56
213.83	2697.17
214.05	2531.29
214.27	3108.82
214.49	2781.14
214.71	2670.55
214.93	2746.33
215.15	3030.99
215.37	3188.69
215.59	2545.63
215.81	2748.37
216.03	3162.06
216.24	2928.60
216.46	2621.40
216.68	2650.07
216.90	3045.33
217.12	3180.50
217.34	2635.74
217.56	2867.16
217.78	3207.12
218.00	3039.19
218.22	2736.09
218.44	2680.79
218.66	3033.04
218.87	3362.76
219.09	2699.22
219.31	2641.88
219.53	3041.23
219.75	2920.40
219.97	2797.53
220.19	2772.95
220.41	2912.21
220.63	3190.74
220.85	2740.18
221.06	2674.65
221.28	3143.63
221.50	3243.98
221.72	2680.79
221.94	2648.02
222.16	3049.43
222.38	3188.69
222.60	2656.22
222.82	2619.35
223.03	3223.50
223.25	2697.17
223.47	2678.74
223.69	2928.60
223.91	3164.11
224.13	3049.43
224.35	2578.39
224.57	2830.29
224.78	3127.25
225.00	2828.24
225.22	2760.66
225.44	2688.98
225.66	3157.97
225.88	2861.01
226.10	2820.05
226.32	2701.27
226.53	3278.80
226.75	2944.98
226.97	2764.76
227.19	2693.08
227.41	2824.15
227.63	2899.92
227.85	2494.43
228.06	2740.18
228.28	2996.18
228.50	3186.64
228.72	2473.95
228.94	2705.37
229.16	2664.41
229.37	2711.51
229.59	2607.06
229.81	2844.63
230.03	2840.53
230.25	2852.82
230.47	2570.20
230.69	2658.26
230.90	3123.15
231.12	2863.06
231.34	2809.81
231.56	2777.05
231.78	2772.95
232.00	2971.60
232.21	2754.52
232.43	2754.52
232.65	2621.40
232.87	3092.43
233.09	2566.10
233.30	2645.98
233.52	3188.69
233.74	3026.90
233.96	2584.54
234.18	2906.07
234.40	2938.84
234.61	3352.52
234.83	2553.82
235.05	2731.99
235.27	3407.82
235.49	3254.22
235.70	2555.86
235.92	2727.89
236.14	3035.09
236.36	3399.63
236.58	2598.87
236.79	2781.14
237.01	2934.74
237.23	2975.70
237.45	2957.27
237.67	2750.42
237.88	3049.43
238.10	3344.33
238.32	2566.10
238.54	2605.02
238.76	2975.70
238.97	2793.43
239.19	2545.63
239.41	2729.94
239.63	3157.97
239.85	2897.88
240.06	2693.08
240.28	2650.07
240.50	3166.16
240.72	3076.05
240.93	2602.97
241.15	2781.14
241.37	2975.70
241.59	3239.89
241.81	2682.84
242.02	2760.66
242.24	3090.38
242.46	3157.97
242.68	2611.16
242.89	2672.60
243.11	3114.96
243.33	3004.37
243.55	2772.95
243.76	2740.18
243.98	2805.72
244.20	2942.93
244.42	2666.46
244.64	2666.46
244.85	2711.51
245.07	2791.38
245.29	2803.67
245.51	2672.60
245.72	3084.24
245.94	3141.58
246.16	2711.51
246.38	2830.29
246.59	2818.00
246.81	2873.30
247.03	2631.64
247.24	2557.91
247.46	2942.93
247.68	3002.32
247.90	2594.78
248.11	2707.41
248.33	3145.68
248.55	3000.27
248.77	2680.79
248.98	2746.33
249.20	3227.60
249.42	3006.42
249.64	2662.36
249.85	2635.74
250.07	2879.44
250.29	3194.83
250.50	2820.05
250.72	2639.83
250.94	3039.19
251.16	3364.81
251.37	2670.55
251.59	2768.85
251.81	3057.62
252.02	3262.41
252.24	2602.97
252.46	2799.57
252.68	2869.20
252.89	2789.33
253.11	2455.51
253.33	2701.27
253.54	3235.79
253.76	2762.71
253.98	2641.88
254.20	2736.09
254.41	2848.72
254.63	2942.93
254.85	2582.49
255.06	2756.57
255.28	2967.51
255.50	2897.88
255.71	2602.97
255.93	2582.49
256.15	2938.84
256.36	3071.95
256.58	2596.82
256.80	2650.07
257.02	2918.36
257.23	2918.36
257.45	2701.27
257.67	2783.19
257.88	2787.29
258.10	3076.05
258.32	2670.55
258.53	2684.89
258.75	3262.41
258.97	2885.59
259.18	2598.87
259.40	2631.64
259.62	3258.32
259.83	3260.37
260.05	2746.33
260.27	3549.13
260.48	3178.45
260.70	2934.74
260.92	2648.02
261.13	2738.13
261.35	2973.65
261.57	3014.61
261.78	2623.45
262.00	2582.49
262.22	3055.57
262.43	2783.19
262.65	2678.74
262.86	2662.36
263.08	3432.40
263.30	3024.85
263.51	2568.15
263.73	2734.04
263.95	3237.84
264.16	2883.54
264.38	2611.16
264.60	2607.06
264.81	3002.32
265.03	3235.79
265.25	3049.43
265.46	2631.64
265.68	3104.72
265.89	3102.67
266.11	2500.57
266.33	2709.46
266.54	3168.21
266.76	2973.65
266.98	2787.29
267.19	2811.86
267.41	3155.92
267.62	2944.98
267.84	2559.96
268.06	2795.48
268.27	3035.09
268.49	3180.50
268.70	2691.03
268.92	2674.65
269.14	2729.94
269.35	2791.38
269.57	2807.77
269.79	2742.23
270.00	2840.53
270.22	3311.57
270.43	2578.39
270.65	2506.71
270.87	3076.05
271.08	3162.06
271.30	2801.62
271.51	2609.11
271.73	3055.57
271.95	3227.60
272.16	2666.46
272.38	2877.40
272.59	2942.93
272.81	3026.90
273.02	2668.50
273.24	2746.33
273.46	3219.41
273.67	2746.33
273.89	2586.58
274.10	2670.55
274.32	3143.63
274.54	3053.52
274.75	2740.18
274.97	2727.89
275.18	3155.92
275.40	3078.10
275.61	2701.27
275.83	2871.25
276.05	2742.23
276.26	2973.65
276.48	2838.48
276.69	2815.96
276.91	2869.20
277.12	3190.74
277.34	2895.83
277.55	2924.50
277.77	2992.08
277.99	2869.20
278.20	2793.43
278.42	2693.08
278.63	2869.20
278.85	2811.86
279.06	2729.94
279.28	2828.24
279.49	3110.86
279.71	3166.16
279.93	2777.05
280.14	2838.48
280.36	2867.16
280.57	3160.02
280.79	2944.98
281.00	2768.85
281.22	2850.77
281.43	3190.74
281.65	2547.67
281.86	2775.00
282.08	3084.24
282.29	3278.80
282.51	2699.22
282.73	2643.93
282.94	2756.57
283.16	3039.19
283.37	2922.45
283.59	2813.91
283.80	3061.71
284.02	2930.64
284.23	2850.77
284.45	2844.63
284.66	2852.82
284.88	2863.06
285.09	2764.76
285.31	2836.44
285.52	3110.86
285.74	2723.80
285.95	2979.79
286.17	2785.24
286.38	3121.10
286.60	2969.55
286.81	2795.48
287.03	2746.33
287.24	2973.65
287.46	3086.29
287.67	2873.30
287.89	3047.38
288.10	2959.31
288.32	2971.60
288.53	2904.02
288.75	2824.15
288.96	3135.44
289.18	2873.30
289.39	2729.94
289.61	2856.92
289.82	3297.23
290.04	3229.65
290.25	2676.70
290.47	2822.10
290.68	2852.82
290.90	3133.39
291.11	2623.45
291.33	2936.79
291.54	2815.96
291.76	2846.68
291.97	2922.45
292.18	2822.10
292.40	2895.83
292.61	2840.53
292.83	3020.75
293.04	2772.95
293.26	3022.80
293.47	3000.27
293.69	2707.41
293.90	2721.75
294.12	3219.41
294.33	2977.75
294.55	2883.54
294.76	2990.03
294.97	3205.07
295.19	3416.01
295.40	2777.05
295.62	2799.57
295.83	3137.49
296.05	2899.92
296.26	2918.36
296.48	2785.24
296.69	2965.46
296.90	2897.88
297.12	2879.44
297.33	3004.37
297.55	3041.23
297.76	3076.05
297.98	2885.59
298.19	2922.45
298.41	3039.19
298.62	2799.57
298.83	3090.38
299.05	2885.59
299.26	2899.92
299.48	2801.62
299.69	2904.02
299.90	2758.61
300.12	2822.10
300.33	3110.86
300.55	2883.54
300.76	2854.87
300.98	2752.47
301.19	3074.00
301.40	2789.33
301.62	2795.48
301.83	3125.20
302.05	2955.22
302.26	2748.37
302.47	2785.24
302.69	2801.62
302.90	2944.98
303.12	2572.25
303.33	2889.68
303.54	3364.81
303.76	2875.35
303.97	2797.53
304.19	2987.99
304.40	2822.10
304.61	3008.47
304.83	2869.20
305.04	2840.53
305.26	3090.38
305.47	2904.02
305.68	2809.81
305.90	2697.17
306.11	3137.49
306.33	2947.03
306.54	2590.68
306.75	2734.04
306.97	2744.28
307.18	2781.14
307.39	2865.11
307.61	2926.55
307.82	2983.89
308.04	3035.09
308.25	2709.46
308.46	2981.84
308.68	2934.74
308.89	2965.46
309.10	2869.20
309.32	2856.92
309.53	3024.85
309.74	3100.62
309.96	2789.33
310.17	2969.55
310.39	2906.07
310.60	3082.19
310.81	2813.91
311.03	2715.61
311.24	3061.71
311.45	2983.89
311.67	3084.24
311.88	2873.30
312.09	2848.72
312.31	2861.01
312.52	2725.85
312.73	2742.23
312.95	2785.24
313.16	2731.99
313.37	2979.79
313.59	2969.55
313.80	3209.17
314.01	3258.32
314.23	2881.49
314.44	2770.90
314.65	2811.86
314.87	2813.91
315.08	2787.29
315.29	2789.33
315.51	2787.29
315.72	2756.57
315.93	2893.78
316.15	2822.10
316.36	2942.93
316.57	3000.27
316.79	2799.57
317.00	2764.76
317.21	3106.77
317.43	2852.82
317.64	2875.35
317.85	2705.37
318.07	2768.85
318.28	2951.12
318.49	2891.73
318.70	3061.71
318.92	2992.08
319.13	3002.32
319.34	2938.84
319.56	2709.46
319.77	3067.86
319.98	3061.71
320.20	2987.99
320.41	2856.92
320.62	3000.27
320.83	2738.13
321.05	3033.04
321.26	2818.00
321.47	3045.33
321.69	3176.40
321.90	2686.94
322.11	2742.23
322.32	3000.27
322.54	3250.13
322.75	2768.85
322.96	3495.88
323.18	2639.83
323.39	2727.89
323.60	2668.50
323.81	2848.72
324.03	2818.00
324.24	2906.07
324.45	2885.59
324.66	2750.42
324.88	3166.16
325.09	3225.55
325.30	2715.61
325.52	2736.09
325.73	3043.28
325.94	2777.05
326.15	2668.50
326.37	2656.22
326.58	3123.15
326.79	3233.74
327.00	2709.46
327.22	2783.19
327.43	2969.55
327.64	2781.14
327.85	2881.49
328.07	2809.81
328.28	3297.23
328.49	2879.44
328.70	2854.87
328.92	2801.62
329.13	2936.79
329.34	3086.29
329.55	3045.33
329.76	3016.66
329.98	2928.60
330.19	3205.07
330.40	2865.11
330.61	2916.31
330.83	3143.63
331.04	2920.40
331.25	2813.91
331.46	2854.87
331.68	2777.05
331.89	3215.31
332.10	2815.96
332.31	2701.27
332.52	2992.08
332.74	3160.02
332.95	2664.41
333.16	2723.80
333.37	3131.34
333.58	2838.48
333.80	2856.92
334.01	2621.40
334.22	2871.25
334.43	2887.64
334.64	2758.61
334.86	2637.78
335.07	2885.59
335.28	3311.57
335.49	2779.09
335.70	2850.77
335.92	3227.60
336.13	3475.40
336.34	2908.12
336.55	2846.68
336.76	2957.27
336.98	2639.83
337.19	2731.99
337.40	2861.01
337.61	3416.01
337.82	2897.88
338.04	2840.53
338.25	2666.46
338.46	2932.69
338.67	2920.40
338.88	2731.99
339.09	2734.04
339.31	2873.30
339.52	2772.95
339.73	2697.17
339.94	2871.25
340.15	3151.82
340.36	2932.69
340.58	2861.01
340.79	2709.46
341.00	3149.78
341.21	2828.24
341.42	3024.85
341.63	2815.96
341.85	3080.14
342.06	2906.07
342.27	2744.28
342.48	2887.64
342.69	2828.24
342.90	3049.43
343.12	3198.93
343.33	2766.81
343.54	3182.54
343.75	3205.07
343.96	2834.39
344.17	2813.91
344.38	2953.17
344.60	2785.24
344.81	2848.72
345.02	2756.57
345.23	3211.22
345.44	3446.73
345.65	2828.24
345.86	2838.48
346.07	3108.82
346.29	2865.11
346.50	2908.12
346.71	2867.16
346.92	3174.35
347.13	3344.33
347.34	2852.82
347.55	2637.78
347.76	3076.05
347.98	2682.84
348.19	2832.34
348.40	2928.60
348.61	2963.41
348.82	3235.79
349.03	2861.01
349.24	2758.61
349.45	3403.72
349.66	2625.50
349.88	2748.37
350.09	2670.55
350.30	3127.25
350.51	3139.54
350.72	2918.36
350.93	2797.53
351.14	2955.22
351.35	2961.36
351.56	2869.20
351.77	2865.11
351.99	3080.14
352.20	3256.27
352.41	2959.31
352.62	2688.98
352.83	2971.60
353.04	2987.99
353.25	2865.11
353.46	2832.34
353.67	3168.21
353.88	2721.75
354.09	2748.37
354.30	2877.40
354.52	3022.80
354.73	2934.74
354.94	2766.81
355.15	2803.67
355.36	3254.22
355.57	2942.93
355.78	2793.43
355.99	2772.95
356.20	2932.69
356.41	3157.97
356.62	2895.83
356.83	2822.10
357.04	3278.80
357.25	2750.42
357.46	2758.61
357.68	2656.22
357.89	2764.76
358.10	2983.89
358.31	2725.85
358.52	2846.68
358.73	2746.33
358.94	2850.77
359.15	2775.00
359.36	2836.44
359.57	2967.51
359.78	2963.41
359.99	2969.55
360.20	2697.17
360.41	2973.65
360.62	3033.04
360.83	2881.49
361.04	2820.05
361.25	2961.36
361.46	3297.23
361.67	2926.55
361.88	2811.86
362.09	3157.97
362.30	3096.53
362.51	2789.33
362.72	2807.77
362.93	3168.21
363.14	3037.14
363.35	2961.36
363.56	2701.27
363.78	3225.55
363.99	3094.48
364.20	2758.61
364.41	2879.44
364.62	3233.74
364.83	3086.29
365.04	2824.15
365.25	2803.67
365.46	3305.42
365.67	2756.57
365.88	2912.21
366.09	2787.29
366.30	2875.35
366.51	2992.08
366.72	2682.84
366.93	2746.33
367.14	2947.03
367.35	3299.28
367.56	2772.95
367.77	2885.59
367.98	2852.82
368.18	3041.23
368.39	2897.88
368.60	2719.70
368.81	3059.67
369.02	3045.33
369.23	2809.81
369.44	2594.78
369.65	2961.36
369.86	3098.58
370.07	2881.49
370.28	2721.75
370.49	3022.80
370.70	3057.62
370.91	2783.19
371.12	2670.55
371.33	3219.41
371.54	2887.64
371.75	2973.65
371.96	2551.77
372.17	2947.03
372.38	2883.54
372.59	2920.40
372.80	2828.24
373.01	2918.36
373.22	3004.37
373.43	2766.81
373.64	2734.04
373.85	3235.79
374.06	3307.47
374.26	2975.70
374.47	2877.40
374.68	3211.22
374.89	2944.98
375.10	2797.53
375.31	2856.92
375.52	3037.14
375.73	2953.17
375.94	2617.30
376.15	2953.17
376.36	2840.53
376.57	2891.73
376.78	2809.81
376.99	2897.88
377.20	3188.69
377.40	2951.12
377.61	3098.58
377.82	2789.33
378.03	3274.70
378.24	3125.20
378.45	2879.44
378.66	2906.07
378.87	2684.89
379.08	2670.55
379.29	2807.77
379.50	2912.21
379.71	2992.08
379.91	3182.54
380.12	2805.72
380.33	2865.11
380.54	2940.88
380.75	2973.65
380.96	2750.42
381.17	2881.49
381.38	2926.55
381.59	3094.48
381.80	2811.86
382.00	3035.09
382.21	2961.36
382.42	3282.89
382.63	3182.54
382.84	2901.97
383.05	3102.67
383.26	3215.31
383.47	2963.41
383.68	2736.09
383.88	3059.67
384.09	2983.89
384.30	3039.19
384.51	2942.93
384.72	2889.68
384.93	2686.94
385.14	2781.14
385.35	2994.13
385.55	2695.13
385.76	3184.59
385.97	2893.78
386.18	2738.13
386.39	2779.09
386.60	2887.64
386.81	2873.30
387.02	2746.33
387.22	2787.29
387.43	3157.97
387.64	2940.88
387.85	3057.62
388.06	3026.90
388.27	4089.79
388.48	7270.29
388.68	10784.60
388.89	13383.48
389.10	14489.38
389.31	14053.16
389.52	11159.38
389.73	9711.47
389.93	8873.85
390.14	8079.24
390.35	7247.76
390.56	6846.36
390.77	5511.08
390.98	4399.04
391.18	3647.43
391.39	3473.36
391.60	2973.65
391.81	3037.14
392.02	2758.61
392.23	3420.11
392.43	3014.61
392.64	2926.55
392.85	2869.20
393.06	3270.61
393.27	2996.18
393.47	2869.20
393.68	2865.11
393.89	2887.64
394.10	3162.06
394.31	2834.39
394.52	2781.14
394.72	2856.92
394.93	3196.88
395.14	2727.89
395.35	2953.17
395.56	2908.12
395.76	2973.65
395.97	2811.86
396.18	2930.64
396.39	3002.32
396.60	3581.90
396.80	3160.02
397.01	3090.38
397.22	3041.23
397.43	3227.60
397.64	2764.76
397.84	2904.02
398.05	3393.48
398.26	2967.51
398.47	2922.45
398.67	3006.42
398.88	2965.46
399.09	3135.44
399.30	2824.15
399.51	2910.16
399.71	2824.15
399.92	2947.03
400.13	2987.99
400.34	2813.91
400.54	3059.67
400.75	3162.06
400.96	3008.47
401.17	3127.25
401.37	3102.67
401.58	2992.08
401.79	2852.82
402.00	2844.63
402.21	3461.07
402.41	3092.43
402.62	3065.81
402.83	3229.65
403.04	3471.31
403.24	3606.47
403.45	2824.15
403.66	3125.20
403.87	3162.06
404.07	3225.55
404.28	3088.34
404.49	3055.57
404.70	3069.91
404.90	3117.01
405.11	2766.81
405.32	2973.65
405.52	2963.41
405.73	2985.94
405.94	2758.61
406.15	2875.35
406.35	3153.87
406.56	3121.10
406.77	2920.40
406.98	2826.20
407.18	2897.88
407.39	3213.26
407.60	2834.39
407.80	2889.68
408.01	2863.06
408.22	3041.23
408.43	2770.90
408.63	2996.18
408.84	3127.25
409.05	3067.86
409.25	2766.81
409.46	2789.33
409.67	2906.07
409.88	2891.73
410.08	2842.58
410.29	2893.78
410.50	3180.50
410.70	3135.44
410.91	2723.80
411.12	2916.31
411.32	3006.42
411.53	2840.53
411.74	2883.54
411.95	2951.12
412.15	2963.41
412.36	3102.67
412.57	2969.55
412.77	3057.62
412.98	2881.49
413.19	2936.79
413.39	2916.31
413.60	2887.64
413.81	3213.26
414.01	2861.01
414.22	2861.01
414.43	2990.03
414.63	2928.60
414.84	3153.87
415.05	2840.53
415.25	2637.78
415.46	3076.05
415.67	2801.62
415.87	2836.44
416.08	2818.00
416.29	3028.95
416.49	3067.86
416.70	2809.81
416.91	2867.16
417.11	2906.07
417.32	3123.15
417.53	2920.40
417.73	3016.66
417.94	2994.13
418.15	3166.16
418.35	2942.93
418.56	2869.20
418.77	3430.35
418.97	2994.13
419.18	2893.78
419.38	2564.06
419.59	2961.36
419.80	3291.09
420.00	2770.90
420.21	2912.21
420.42	3178.45
420.62	3018.71
420.83	2772.95
421.04	2861.01
421.24	2901.97
421.45	3117.01
421.65	2873.30
421.86	2801.62
422.07	3174.35
422.27	3059.67
422.48	2754.52
422.69	2734.04
422.89	2959.31
423.10	2920.40
423.30	2750.42
423.51	2959.31
423.72	3057.62
423.92	3147.73
424.13	2750.42
424.33	2916.31
424.54	3110.86
424.75	3012.56
424.95	3084.24
425.16	2828.24
425.36	2990.03
425.57	3145.68
425.78	3022.80
425.98	2987.99
426.19	2949.08
426.39	2856.92
426.60	2869.20
426.81	2932.69
427.01	3078.10
427.22	2883.54
427.42	2678.74
427.63	2779.09
427.83	3162.06
428.04	3198.93
428.25	2893.78
428.45	2940.88
428.66	3200.98
428.86	3008.47
429.07	2897.88
429.28	2930.64
429.48	2994.13
429.69	2848.72
429.89	2875.35
430.10	2723.80
430.30	3131.34
430.51	3151.82
430.71	2799.57
430.92	3000.27
431.13	2885.59
431.33	3004.37
431.54	2975.70
431.74	3014.61
431.95	3389.39
432.15	2768.85
432.36	2840.53
432.56	2861.01
432.77	3342.28
432.98	3256.27
433.18	2912.21
433.39	2752.47
433.59	2979.79
433.80	3346.38
434.00	3041.23
434.21	2949.08
434.41	2828.24
434.62	3405.77
434.82	2791.38
435.03	2750.42
435.23	3088.34
435.44	2750.42
435.64	2838.48
435.85	2897.88
436.06	3119.06
436.26	3256.27
436.47	2820.05
436.67	2820.05
436.88	2910.16
437.08	3164.11
437.29	2949.08
437.49	2965.46
437.70	3108.82
437.90	2975.70
438.11	2949.08
438.31	2922.45
438.52	3264.46
438.72	3155.92
438.93	3180.50
439.13	2924.50
439.34	3141.58
439.54	2934.74
439.75	2949.08
439.95	2881.49
440.16	2901.97
440.36	2912.21
440.57	2803.67
440.77	2865.11
440.98	2969.55
441.18	3119.06
441.39	2775.00
441.59	2713.56
441.80	3409.87
442.00	3035.09
442.21	2922.45
442.41	2674.65
442.62	3248.08
442.82	2879.44
443.02	2793.43
443.23	2910.16
443.43	2961.36
443.64	3213.26
443.84	2729.94
444.05	2985.94
444.25	3028.95
444.46	2992.08
444.66	2828.24
444.87	3047.38
445.07	2797.53
445.28	2920.40
445.48	3059.67
445.69	2910.16
445.89	3411.92
446.09	2854.87
446.30	3164.11
446.50	3215.31
446.71	4745.14
446.91	5881.77
447.12	6547.36
447.32	7079.83
447.53	6797.21
447.73	5658.54
447.93	4972.47
448.14	4736.95
448.34	4886.45
448.55	4106.18
448.75	4052.93
448.96	3790.79
449.16	3747.78
449.36	3495.88
449.57	3084.24
449.77	2987.99
449.98	2957.27
450.18	3051.47
450.39	2887.64
450.59	2983.89
450.79	2901.97
451.00	2861.01
451.20	2957.27
451.41	2889.68
451.61	3049.43
451.81	2926.55
452.02	2799.57
452.22	2787.29
452.43	2856.92
452.63	2887.64
452.84	2955.22
453.04	2854.87
453.24	3051.47
453.45	2822.10
453.65	2934.74
453.86	2893.78
454.06	3049.43
454.26	3018.71
454.47	2754.52
454.67	3061.71
454.87	3010.51
455.08	2877.40
455.28	2994.13
455.49	3028.95
455.69	2836.44
455.89	3340.24
456.10	2887.64
456.30	2818.00
456.51	3057.62
456.71	3024.85
456.91	2912.21
457.12	2836.44
457.32	3012.56
457.52	2729.94
457.73	2957.27
457.93	3039.19
458.14	2809.81
458.34	2711.51
458.54	2887.64
458.75	2766.81
458.95	3129.30
459.15	3069.91
459.36	2949.08
459.56	2803.67
459.76	3399.63
459.97	3049.43
460.17	2844.63
460.37	2967.51
460.58	2940.88
460.78	3076.05
460.99	2877.40
461.19	2858.96
461.39	2985.94
461.60	2871.25
461.80	2850.77
462.00	2721.75
462.21	3020.75
462.41	2881.49
462.61	2617.30
462.82	2688.98
463.02	3076.05
463.22	2985.94
463.43	2912.21
463.63	2813.91
463.83	3282.89
464.04	3043.28
464.24	2891.73
464.44	2721.75
464.64	2930.64
464.85	3096.53
465.05	2832.34
465.25	2791.38
465.46	2811.86
465.66	3143.63
465.86	2908.12
466.07	2801.62
466.27	2963.41
466.47	2701.27
466.68	2672.60
466.88	2996.18
467.08	3141.58
467.29	3182.54
467.49	2906.07
467.69	2944.98
467.89	3074.00
468.10	2904.02
468.30	2856.92
468.50	3004.37
468.71	3090.38
468.91	2758.61
469.11	3074.00
469.31	2906.07
469.52	2852.82
469.72	3227.60
469.92	3117.01
470.13	2820.05
470.33	3010.51
470.53	3045.33
470.73	3184.59
470.94	3512.27
471.14	3545.03
471.34	4091.84
471.54	3776.45
471.75	3559.37
471.95	3430.35
472.15	3233.74
472.36	3413.96
472.56	3184.59
472.76	3454.92
472.96	3307.47
473.17	3106.77
473.37	3000.27
473.57	2969.55
473.77	3076.05
473.98	2965.46
474.18	2711.51
474.38	3514.31
474.58	2930.64
474.79	2799.57
474.99	2955.22
475.19	3139.54
475.39	2879.44
475.60	2901.97
475.80	2871.25
476.00	3055.57
476.20	2953.17
476.41	2838.48
476.61	3014.61
476.81	3188.69
477.01	2889.68
477.21	3022.80
477.42	2967.51
477.62	2893.78
477.82	3127.25
478.02	2801.62
478.23	2838.48
478.43	2807.77
478.63	2955.22
478.83	2809.81
479.03	2883.54
479.24	3217.36
479.44	3387.34
479.64	2783.19
479.84	2709.46
480.04	2772.95
480.25	3094.48
480.45	2783.19
480.65	2801.62
480.85	3278.80
481.06	2973.65
481.26	2959.31
481.46	2877.40
481.66	3114.96
481.86	2805.72
482.06	3035.09
482.27	2832.34
482.47	2916.31
482.67	3088.34
482.87	2895.83
483.07	2922.45
483.28	2850.77
483.48	2858.96
483.68	2883.54
483.88	2717.65
484.08	2684.89
484.29	2777.05
484.49	2824.15
484.69	2719.70
484.89	3309.52
485.09	3086.29
485.29	2942.93
485.50	3016.66
485.70	2899.92
485.90	3231.69
486.10	2928.60
486.30	2832.34
486.50	3231.69
486.71	3002.32
486.91	2934.74
487.11	2893.78
487.31	2754.52
487.51	3178.45
487.71	2684.89
487.91	2766.81
488.12	2877.40
488.32	2564.06
488.52	2836.44
488.72	2566.10
488.92	3098.58
489.12	3225.55
489.32	3014.61
489.53	2852.82
489.73	2750.42
489.93	3327.95
490.13	2772.95
490.33	2686.94
490.53	3104.72
490.73	3143.63
490.94	2762.71
491.14	2955.22
491.34	3084.24
491.54	3135.44
491.74	3649.48
491.94	4126.66
492.14	4648.89
492.34	4732.86
492.54	4382.65
492.75	3770.31
492.95	3934.15
493.15	3706.82
493.35	3547.08
493.55	3479.50
493.75	3239.89
493.95	3395.53
494.15	3020.75
494.35	2924.50
494.56	2926.55
494.76	2869.20
494.96	2926.55
495.16	2770.90
495.36	2920.40
495.56	2994.13
495.76	2899.92
495.96	2873.30
496.16	2805.72
496.36	3323.85
496.56	2873.30
496.77	2861.01
496.97	2985.94
497.17	3157.97
497.37	2688.98
497.57	3051.47
497.77	3010.51
497.97	2775.00
498.17	2918.36
498.37	2957.27
498.57	3051.47
498.77	2901.97
498.97	3049.43
499.17	3162.06
499.38	2897.88
499.58	3098.58
499.78	2910.16
499.98	2994.13
500.18	3026.90
500.38	2873.30
500.58	3147.73
500.78	3375.05
500.98	5455.79
501.18	7274.38
501.38	8761.21
501.58	9613.17
501.78	9525.10
501.98	7964.55
502.18	6686.62
502.38	5922.73
502.58	5836.71
502.78	5074.87
502.98	4853.69
503.18	4726.71
503.38	4319.17
503.59	3717.06
503.79	3655.62
503.99	3401.68
504.19	3465.16
504.39	3438.54
504.59	3334.09
504.79	3319.76
504.99	3522.51
505.19	3166.16
505.39	2992.08
505.59	3248.08
505.79	3250.13
505.99	3170.26
506.19	2906.07
506.39	3043.28
506.59	2861.01
506.79	2983.89
506.99	3133.39
507.19	2852.82
507.39	2967.51
507.59	2832.34
507.79	2828.24
507.99	2842.58
508.19	2998.23
508.39	2875.35
508.59	2895.83
508.79	3022.80
508.99	3260.37
509.19	2910.16
509.39	2906.07
509.59	2779.09
509.79	2893.78
509.99	3016.66
510.19	2885.59
510.39	2961.36
510.59	3024.85
510.79	2797.53
510.99	2740.18
511.19	2883.54
511.39	3401.68
511.59	3065.81
511.79	2957.27
511.99	2818.00
512.19	3319.76
512.38	3092.43
512.58	2791.38
512.78	2854.87
512.98	3213.26
513.18	3270.61
513.38	2625.50
513.58	2965.46
513.78	2897.88
513.98	2969.55
514.18	2858.96
514.38	2934.74
514.58	3053.52
514.78	2803.67
514.98	2709.46
515.18	2899.92
515.38	2721.75
515.58	3293.13
515.78	2813.91
515.98	2920.40
516.18	3039.19
516.38	3041.23
516.57	2801.62
516.77	2840.53
516.97	3024.85
517.17	2846.68
517.37	2678.74
517.57	2938.84
517.77	3030.99
517.97	2869.20
518.17	2910.16
518.37	2654.17
518.57	2844.63
518.77	2895.83
518.97	2920.40
519.16	2881.49
519.36	3207.12
519.56	2795.48
519.76	2793.43
519.96	2873.30
520.16	3264.46
520.36	2785.24
520.56	3008.47
520.76	2813.91
520.96	2973.65
521.16	3264.46
521.35	3039.19
521.55	3022.80
521.75	3065.81
521.95	2904.02
522.15	2793.43
522.35	2701.27
522.55	2914.26
522.75	3114.96
522.95	2777.05
523.14	2707.41
523.34	2992.08
523.54	2906.07
523.74	3002.32
523.94	2969.55
524.14	2744.28
524.34	3026.90
524.54	3043.28
524.73	2889.68
524.93	3071.95
525.13	2971.60
525.33	2721.75
525.53	3092.43
525.73	3094.48
525.93	3006.42
526.13	2787.29
526.32	2813.91
526.52	3268.56
526.72	3166.16
526.92	2848.72
527.12	2807.77
527.32	2695.13
527.52	3004.37
527.71	2936.79
527.91	2889.68
528.11	2983.89
528.31	2920.40
528.51	2764.76
528.71	2893.78
528.90	3086.29
529.10	3196.88
529.30	2957.27
529.50	2576.34
529.70	3004.37
529.90	2920.40
530.09	2891.73
530.29	2770.90
530.49	2742.23
530.69	3499.98
530.89	3045.33
531.09	2928.60
531.28	2957.27
531.48	3149.78
531.68	2873.30
531.88	2885.59
532.08	3133.39
532.28	2906.07
532.47	2908.12
532.67	2961.36
532.87	3086.29
533.07	2879.44
533.27	3016.66
533.46	2885.59
533.66	3110.86
533.86	3022.80
534.06	2856.92
534.26	2789.33
534.45	2963.41
534.65	3153.87
534.85	2975.70
535.05	2850.77
535.25	3217.36
535.44	2740.18
535.64	2893.78
535.84	2838.48
536.04	2891.73
536.24	2951.12
536.43	2834.39
536.63	2844.63
536.83	2953.17
537.03	3000.27
537.22	2670.55
537.42	2627.54
537.62	2971.60
537.82	2797.53
538.02	3037.14
538.21	2979.79
538.41	3495.88
538.61	3123.15
538.81	2863.06
539.00	2961.36
539.20	2734.04
539.40	2867.16
539.60	2852.82
539.79	3002.32
539.99	3000.27
540.19	2742.23
540.39	2770.90
540.58	2944.98
540.78	3151.82
540.98	2990.03
541.18	3078.10
541.37	2977.75
541.57	3006.42
541.77	2942.93
541.97	2744.28
542.16	2709.46
542.36	2899.92
542.56	2861.01
542.76	3035.09
542.95	2975.70
543.15	3078.10
543.35	3022.80
543.54	2799.57
543.74	2779.09
543.94	3274.70
544.14	2861.01
544.33	2916.31
544.53	2783.19
544.73	2985.94
544.93	2967.51
545.12	2873.30
545.32	2832.34
545.52	2938.84
545.71	2850.77
545.91	2826.20
546.11	2785.24
546.30	2873.30
546.50	3039.19
546.70	2881.49
546.90	2861.01
547.09	2736.09
547.29	2998.23
547.49	2994.13
547.68	2803.67
547.88	2891.73
548.08	3184.59
548.27	3235.79
548.47	2807.77
548.67	2877.40
548.87	3053.52
549.06	2830.29
549.26	2805.72
549.46	2987.99
549.65	2957.27
549.85	2922.45
550.05	2973.65
550.24	2791.38
550.44	2977.75
550.64	2887.64
550.83	2934.74
551.03	3200.98
551.23	3196.88
551.42	2899.92
551.62	2914.26
551.82	2977.75
552.01	2961.36
552.21	3143.63
552.41	2811.86
552.60	3219.41
552.80	3006.42
553.00	2787.29
553.19	2922.45
553.39	3282.89
553.59	2832.34
553.78	2975.70
553.98	2865.11
554.17	2705.37
554.37	3049.43
554.57	2967.51
554.76	2645.98
554.96	2842.58
555.16	2983.89
555.35	2922.45
555.55	2955.22
555.75	2955.22
555.94	3076.05
556.14	2766.81
556.33	2924.50
556.53	2979.79
556.73	2969.55
556.92	2885.59
557.12	2863.06
557.32	3381.20
557.51	3307.47
557.71	2885.59
557.90	3065.81
558.10	3254.22
558.30	2838.48
558.49	2846.68
558.69	2738.13
558.88	3117.01
559.08	3018.71
559.28	2766.81
559.47	2840.53
559.67	3057.62
559.86	3319.76
560.06	2840.53
560.26	2824.15
560.45	3008.47
560.65	2877.40
560.84	3088.34
561.04	2770.90
561.24	3119.06
561.43	2793.43
561.63	3037.14
561.82	2965.46
562.02	3067.86
562.22	2895.83
562.41	2789.33
562.61	2863.06
562.80	2764.76
563.00	3454.92
563.19	2912.21
563.39	2951.12
563.59	3076.05
563.78	2820.05
563.98	2568.15
564.17	2836.44
564.37	2723.80
564.56	2934.74
564.76	2676.70
564.96	3004.37
565.15	3039.19
565.35	3409.87
565.54	2891.73
565.74	2899.92
565.93	3102.67
566.13	2942.93
566.32	2951.12
566.52	3002.32
566.71	3016.66
566.91	3096.53
567.11	3041.23
567.30	2785.24
567.50	3108.82
567.69	3196.88
567.89	2818.00
568.08	2711.51
568.28	3063.76
568.47	2811.86
568.67	2883.54
568.86	2834.39
569.06	3078.10
569.25	2869.20
569.45	2775.00
569.64	2834.39
569.84	2873.30
570.04	2949.08
570.23	2805.72
570.43	2881.49
570.62	2957.27
570.82	3295.18
571.01	2754.52
571.21	2820.05
571.40	2854.87
571.60	3039.19
571.79	2895.83
571.99	2791.38
572.18	2777.05
572.38	3035.09
572.57	2813.91
572.77	2871.25
572.96	3430.35
573.16	2953.17
573.35	2799.57
573.55	3035.09
573.74	2987.99
573.94	2877.40
574.13	2828.24
574.33	3022.80
574.52	3207.12
574.71	2992.08
574.91	2899.92
575.10	2738.13
575.30	2861.01
575.49	2842.58
575.69	2820.05
575.88	2807.77
576.08	2928.60
576.27	3137.49
576.47	2834.39
576.66	3094.48
576.86	3129.30
577.05	3045.33
577.25	2848.72
577.44	3055.57
577.64	2893.78
577.83	3153.87
578.02	2836.44
578.22	3018.71
578.41	3411.92
578.61	2928.60
578.80	2713.56
579.00	2912.21
579.19	3006.42
579.39	3053.52
579.58	2926.55
579.77	2897.88
579.97	3250.13
580.16	3139.54
580.36	3028.95
580.55	3014.61
580.75	3104.72
580.94	2981.84
581.13	3055.57
581.33	3149.78
581.52	2922.45
581.72	3325.90
581.91	3004.37
582.11	2805.72
582.30	3129.30
582.49	3041.23
582.69	3205.07
582.88	2877.40
583.08	3133.39
583.27	3147.73
583.47	2922.45
583.66	2748.37
583.85	2832.34
584.05	2856.92
584.24	3020.75
584.44	2908.12
584.63	3200.98
584.82	3155.92
585.02	3059.67
585.21	2971.60
585.41	3114.96
585.60	2992.08
585.79	3151.82
585.99	3162.06
586.18	3119.06
586.37	3903.43
586.57	5769.13
586.76	16617.22
586.96	35462.63
587.15	48229.66
587.34	56765.60
587.54	60730.47
587.73	54510.78
587.93	38997.42
588.12	29355.58
588.31	23961.23
588.51	21110.46
588.70	19369.69
588.89	17102.59
589.09	14675.74
589.28	12746.56
589.47	9791.34
589.67	7602.06
589.86	5855.14
590.06	4542.39
590.25	4100.03
590.44	3545.03
590.64	3219.41
590.83	3168.21
591.02	3190.74
591.22	2881.49
591.41	3002.32
591.60	2924.50
591.80	3411.92
591.99	2768.85
592.18	2875.35
592.38	3114.96
592.57	2832.34
592.76	2912.21
592.96	3069.91
593.15	2971.60
593.34	3039.19
593.54	2889.68
593.73	3059.67
593.92	3086.29
594.12	3018.71
594.31	2893.78
594.50	3108.82
594.70	3129.30
594.89	3542.99
595.08	2830.29
595.28	3065.81
595.47	3614.66
595.66	3192.78
595.86	2766.81
596.05	2824.15
596.24	2932.69
596.43	3299.28
596.63	2979.79
596.82	3008.47
597.01	3004.37
597.21	3321.81
597.40	2883.54
597.59	2879.44
597.79	2990.03
597.98	3045.33
598.17	2924.50
598.36	2861.01
598.56	3024.85
598.75	2942.93
598.94	2932.69
599.14	2840.53
599.33	2881.49
599.52	3057.62
599.71	2981.84
599.91	2981.84
600.10	3108.82
600.29	2924.50
600.48	2936.79
600.68	3045.33
600.87	3112.91
601.06	2887.64
601.26	2944.98
601.45	2920.40
601.64	2893.78
601.83	3262.41
602.03	2781.14
602.22	2748.37
602.41	3178.45
602.60	3401.68
602.80	2977.75
602.99	2940.88
603.18	2934.74
603.37	3055.57
603.57	2840.53
603.76	2846.68
603.95	3149.78
604.14	2838.48
604.34	2768.85
604.53	2877.40
604.72	3010.51
604.91	3061.71
605.10	2877.40
605.30	2762.71
605.49	3379.15
605.68	3117.01
605.87	3000.27
606.07	2846.68
606.26	3039.19
606.45	3033.04
606.64	2936.79
606.84	2787.29
607.03	3018.71
607.22	3110.86
607.41	3016.66
607.60	2797.53
607.80	3194.83
607.99	2955.22
608.18	2938.84
608.37	2901.97
608.56	2922.45
608.76	3084.24
608.95	3000.27
609.14	2885.59
609.33	3184.59
609.52	3182.54
609.72	2924.50
609.91	3043.28
610.10	3014.61
610.29	3254.22
610.48	2992.08
610.68	2963.41
610.87	3018.71
611.06	3035.09
611.25	2877.40
611.44	2920.40
611.63	2957.27
611.83	3215.31
612.02	2766.81
612.21	2998.23
612.40	2666.46
612.59	2850.77
612.79	2795.48
612.98	2949.08
613.17	3225.55
613.36	2994.13
613.55	3000.27
613.74	2891.73
613.93	2973.65
614.13	2979.79
614.32	3041.23
614.51	2877.40
614.70	2932.69
614.89	2916.31
615.08	2938.84
615.28	3297.23
615.47	2867.16
615.66	3049.43
615.85	2836.44
616.04	2977.75
616.23	2934.74
616.42	3004.37
616.62	2867.16
616.81	2914.26
617.00	3000.27
617.19	3092.43
617.38	2881.49
617.57	2957.27
617.76	3076.05
617.95	3104.72
618.15	3016.66
618.34	3102.67
618.53	2703.32
618.72	3123.15
618.91	2996.18
619.10	2942.93
619.29	2985.94
619.48	3030.99
619.68	2766.81
619.87	2834.39
620.06	2744.28
620.25	3147.73
620.44	2783.19
620.63	2813.91
620.82	3004.37
621.01	3020.75
621.20	2926.55
621.39	2936.79
621.59	3051.47
621.78	2965.46
621.97	2928.60
622.16	2975.70
622.35	3096.53
622.54	3131.34
622.73	2885.59
622.92	2643.93
623.11	3080.14
623.30	2858.96
623.49	2987.99
623.68	2764.76
623.88	3229.65
624.07	2914.26
624.26	2762.71
624.45	2916.31
624.64	2949.08
624.83	3100.62
625.02	2777.05
625.21	2918.36
625.40	2922.45
625.59	3209.17
625.78	2926.55
625.97	2920.40
626.16	3188.69
626.35	3176.40
626.54	2912.21
626.74	3084.24
626.93	2863.06
627.12	2947.03
627.31	2975.70
627.50	3000.27
627.69	3092.43
627.88	2785.24
628.07	2850.77
628.26	2707.41
628.45	2813.91
628.64	2787.29
628.83	2840.53
629.02	2639.83
629.21	3147.73
629.40	3102.67
629.59	2727.89
629.78	2820.05
629.97	2977.75
630.16	3028.95
630.35	2725.85
630.54	2852.82
630.73	2877.40
630.92	2856.92
631.11	2863.06
631.30	2885.59
631.49	3102.67
631.68	2975.70
631.87	2914.26
632.06	2746.33
632.25	3456.97
632.44	3061.71
632.63	2844.63
632.82	2742.23
633.01	2858.96
633.20	3043.28
633.39	2809.81
633.58	2686.94
633.77	3014.61
633.96	3074.00
634.15	2901.97
634.34	2904.02
634.53	3069.91
634.72	2969.55
634.91	2623.45
635.10	2850.77
635.29	3207.12
635.48	3055.57
635.67	2719.70
635.86	2752.47
636.05	3174.35
636.24	3010.51
636.43	2867.16
636.62	2971.60
636.81	2619.35
637.00	3014.61
637.19	2879.44
637.38	2828.24
637.57	2957.27
637.76	2994.13
637.95	3055.57
638.14	2863.06
638.33	3084.24
638.52	3014.61
638.71	2813.91
638.89	2738.13
639.08	3485.64
639.27	3229.65
639.46	2996.18
639.65	3352.52
639.84	3360.72
640.03	3551.18
640.22	3139.54
640.41	3176.40
640.60	3026.90
640.79	3174.35
640.98	2879.44
641.17	2994.13
641.36	3125.20
641.55	3133.39
641.74	2721.75
641.92	2824.15
642.11	2818.00
642.30	2922.45
642.49	2842.58
642.68	2809.81
642.87	2983.89
643.06	3065.81
643.25	2783.19
643.44	2758.61
643.63	3020.75
643.82	3172.30
644.00	2734.04
644.19	2910.16
644.38	2901.97
644.57	3096.53
644.76	2840.53
644.95	2901.97
645.14	2891.73
645.33	3059.67
645.52	2961.36
645.71	2691.03
645.89	2863.06
646.08	2906.07
646.27	2858.96
646.46	3090.38
646.65	2789.33
646.84	3061.71
647.03	2762.71
647.22	3082.19
647.40	2981.84
647.59	2947.03
647.78	2639.83
647.97	2738.13
648.16	2885.59
648.35	3203.02
648.54	3139.54
648.73	2756.57
648.91	3184.59
649.10	2971.60
649.29	2762.71
649.48	2787.29
649.67	3033.04
649.86	3074.00
650.05	2899.92
650.23	3000.27
650.42	2969.55
650.61	3258.32
650.80	3069.91
650.99	3162.06
651.18	3186.64
651.36	3135.44
651.55	2842.58
651.74	2926.55
651.93	2932.69
652.12	2875.35
652.31	2811.86
652.49	2887.64
652.68	2922.45
652.87	3239.89
653.06	2883.54
653.25	3084.24
653.44	2918.36
653.62	3258.32
653.81	2928.60
654.00	2877.40
654.19	3082.19
654.38	3391.44
654.56	2977.75
654.75	2783.19
654.94	3051.47
655.13	3086.29
655.32	2846.68
655.51	2889.68
655.69	2908.12
655.88	3022.80
656.07	2750.42
656.26	2877.40
656.45	2795.48
656.63	2920.40
656.82	2904.02
657.01	3100.62
657.20	2881.49
657.38	3293.13
657.57	2842.58
657.76	2676.70
657.95	3129.30
658.14	2906.07
658.32	2967.51
658.51	2721.75
658.70	3018.71
658.89	2983.89
659.08	2910.16
659.26	2992.08
659.45	2809.81
659.64	3074.00
659.83	2873.30
660.01	3254.22
660.20	3030.99
660.39	3211.22
660.58	2574.30
660.76	3004.37
660.95	2775.00
661.14	3022.80
661.33	2713.56
661.51	2848.72
661.70	2871.25
661.89	3104.72
662.08	2865.11
662.26	2670.55
662.45	2809.81
662.64	3338.19
662.83	2971.60
663.01	2795.48
663.20	2818.00
663.39	3276.75
663.58	2811.86
663.76	2766.81
663.95	3033.04
664.14	2846.68
664.32	2885.59
664.51	2789.33
664.70	2770.90
664.89	3047.38
665.07	2701.27
665.26	2987.99
665.45	2803.67
665.64	3096.53
665.82	2824.15
666.01	2934.74
666.20	2787.29
666.38	3153.87
666.57	3051.47
666.76	4810.68
666.95	11099.99
667.13	17377.01
667.32	21413.56
667.51	24301.20
667.69	24766.09
667.88	21298.88
668.07	15066.91
668.25	12961.59
668.44	11163.48
668.63	9662.32
668.81	8525.69
669.00	7384.98
669.19	6705.05
669.38	5943.21
669.56	5062.58
669.75	4450.24
669.94	3876.80
670.12	3446.73
670.31	3250.13
670.50	3112.91
670.68	3207.12
670.87	3117.01
671.06	2889.68
671.24	2942.93
671.43	3293.13
671.62	2973.65
671.80	2715.61
671.99	3000.27
672.18	2994.13
672.36	3074.00
672.55	2990.03
672.74	2910.16
672.92	2947.03
673.11	3108.82
673.29	2742.23
673.48	2983.89
673.67	2996.18
673.85	3166.16
674.04	2836.44
674.23	2881.49
674.41	3289.04
674.60	2840.53
674.79	2746.33
674.97	2736.09
675.16	3196.88
675.34	3217.36
675.53	2787.29
675.72	2920.40
675.90	3311.57
676.09	2899.92
676.28	2844.63
676.46	2723.80
676.65	3125.20
676.83	2856.92
677.02	2901.97
677.21	2973.65
677.39	3033.04
677.58	2861.01
677.77	2777.05
677.95	2775.00
678.14	2889.68
678.32	2965.46
678.51	2809.81
678.70	3225.55
678.88	2926.55
679.07	3059.67
679.25	2877.40
679.44	2965.46
679.63	2779.09
679.81	2949.08
680.00	3082.19
680.18	2861.01
680.37	3194.83
680.55	3041.23
680.74	2777.05
680.93	2635.74
681.11	3065.81
681.30	3008.47
681.48	2944.98
681.67	2840.53
681.85	2998.23
682.04	2789.33
682.23	2959.31
682.41	2951.12
682.60	2922.45
682.78	3006.42
682.97	2793.43
683.15	2981.84
683.34	2998.23
683.53	3219.41
683.71	2756.57
683.90	2961.36
684.08	3221.45
684.27	2930.64
684.45	2885.59
684.64	3012.56
684.82	3024.85
685.01	3104.72
685.19	2848.72
685.38	3147.73
685.57	3018.71
685.75	2785.24
685.94	2785.24
686.12	2783.19
686.31	2969.55
686.49	3321.81
686.68	2672.60
686.86	2906.07
687.05	2955.22
687.23	3176.40
687.42	2840.53
687.60	2738.13
687.79	3119.06
687.97	3323.85
688.16	2996.18
688.34	3088.34
688.53	2736.09
688.71	3037.14
688.90	3170.26
689.08	2881.49
689.27	2740.18
689.45	3125.20
689.64	2977.75
689.82	2994.13
690.01	3069.91
690.19	3018.71
690.38	2938.84
690.56	2992.08
690.75	2822.10
690.93	2912.21
691.12	2775.00
691.30	2924.50
691.49	2944.98
691.67	2895.83
691.86	3231.69
692.04	2879.44
692.23	2875.35
692.41	2975.70
692.60	3180.50
692.78	2979.79
692.97	2908.12
693.15	3098.58
693.34	3059.67
693.52	3065.81
693.71	2873.30
693.89	2838.48
694.08	2656.22
694.26	2969.55
694.44	3110.86
694.63	3119.06
694.81	2785.24
695.00	2803.67
695.18	3135.44
695.37	3479.50
695.55	2920.40
695.74	2908.12
695.92	2775.00
696.10	3178.45
696.29	2777.05
696.47	2844.63
696.66	2803.67
696.84	2813.91
697.03	2942.93
697.21	3178.45
697.40	4388.80
697.58	3123.15
697.76	2818.00
697.95	2848.72
698.13	2838.48
698.32	2828.24
698.50	2871.25
698.68	2891.73
698.87	3024.85
699.05	3274.70
699.24	2973.65
699.42	2734.04
699.61	3069.91
699.79	2944.98
699.97	2916.31
700.16	2713.56
700.34	2770.90
700.53	3028.95
700.71	3049.43
700.89	3049.43
701.08	2987.99
701.26	3010.51
701.45	3248.08
701.63	2813.91
701.81	2893.78
702.00	2820.05
702.18	2914.26
702.37	2813.91
702.55	3166.16
702.73	3012.56
702.92	2883.54
703.10	3147.73
703.28	3184.59
703.47	2744.28
703.65	3037.14
703.84	2969.55
704.02	2881.49
704.20	3248.08
704.39	2852.82
704.57	2828.24
704.75	3117.01
704.94	3022.80
705.12	3020.75
705.30	3532.75
705.49	6506.40
705.67	12834.62
705.86	18267.88
706.04	20418.25
706.22	22468.27
706.41	22023.86
706.59	16893.69
706.77	13033.27
706.96	11362.13
707.14	10395.49
707.32	8912.76
707.51	7847.82
707.69	6467.49
707.87	5388.21
708.06	4499.39
708.24	4024.26
708.42	3565.51
708.61	3737.54
708.79	2916.31
708.97	3000.27
709.16	3037.14
709.34	3155.92
709.52	2889.68
709.71	2912.21
709.89	3110.86
710.07	2791.38
710.26	2707.41
710.44	2818.00
710.62	3151.82
710.80	2965.46
710.99	2973.65
711.17	2985.94
711.35	2826.20
711.54	2906.07
711.72	3084.24
711.90	2934.74
712.09	3061.71
712.27	2893.78
712.45	3074.00
712.63	2844.63
712.82	3057.62
713.00	2887.64
713.18	3004.37
713.37	2971.60
713.55	3147.73
713.73	3102.67
713.91	3039.19
714.10	2920.40
714.28	2998.23
714.46	2998.23
714.65	2985.94
714.83	2932.69
715.01	3071.95
715.19	2934.74
715.38	2779.09
715.56	2998.23
715.74	2803.67
715.92	2793.43
716.11	3147.73
716.29	2658.26
716.47	2963.41
716.65	2949.08
716.84	2758.61
717.02	2957.27
717.20	2731.99
717.38	2885.59
717.57	2979.79
717.75	2904.02
717.93	2877.40
718.11	3059.67
718.30	2813.91
718.48	2940.88
718.66	3170.26
718.84	3166.16
719.03	2893.78
719.21	2723.80
719.39	3248.08
719.57	3053.52
719.75	3000.27
719.94	2799.57
720.12	2932.69
720.30	2983.89
720.48	2998.23
720.67	2836.44
720.85	2721.75
721.03	2922.45
721.21	2783.19
721.39	3043.28
721.58	3055.57
721.76	2953.17
721.94	2938.84
722.12	2928.60
722.30	3225.55
722.49	2910.16
722.67	2910.16
722.85	2961.36
723.03	2697.17
723.21	2822.10
723.40	2928.60
723.58	3047.38
723.76	3131.34
723.94	3160.02
724.12	2828.24
724.30	3104.72
724.49	3145.68
724.67	2764.76
724.85	2987.99
725.03	2664.41
725.21	3074.00
725.40	3106.77
725.58	2889.68
725.76	3059.67
725.94	3037.14
726.12	2772.95
726.30	2979.79
726.49	2799.57
726.67	2891.73
726.85	3043.28
727.03	3354.57
727.21	4440.00
727.39	5420.97
727.57	5865.38
727.76	6352.80
727.94	6274.98
728.12	5584.81
728.30	4693.94
728.48	4415.42
728.66	4140.99
728.84	3985.35
729.03	3581.90
729.21	3356.62
729.39	3182.54
729.57	3012.56
729.75	3049.43
729.93	3069.91
730.11	2758.61
730.30	2840.53
730.48	2977.75
730.66	2973.65
730.84	3026.90
731.02	2981.84
731.20	2889.68
731.38	2897.88
731.56	2760.66
731.74	2783.19
731.93	2977.75
732.11	2897.88
732.29	2895.83
732.47	3168.21
732.65	3035.09
732.83	3084.24
733.01	2992.08
733.19	2889.68
733.37	3049.43
733.56	2895.83
733.74	2803.67
733.92	3213.26
734.10	2944.98
734.28	3008.47
734.46	2699.22
734.64	2893.78
734.82	2895.83
735.00	2869.20
735.18	2838.48
735.36	3002.32
735.54	2979.79
735.73	2904.02
735.91	2928.60
736.09	3188.69
736.27	2926.55
736.45	2987.99
736.63	2672.60
736.81	2877.40
736.99	3094.48
737.17	3170.26
737.35	2801.62
737.53	2969.55
737.71	2891.73
737.89	3094.48
738.07	2717.65
738.25	2854.87
738.43	2746.33
738.61	2848.72
738.80	2764.76
738.98	2752.47
739.16	2908.12
739.34	2727.89
739.52	3096.53
739.70	3039.19
739.88	3076.05
740.06	2979.79
740.24	2570.20
740.42	3239.89
740.60	2684.89
740.78	2846.68
740.96	2584.54
741.14	2875.35
741.32	2926.55
741.50	2693.08
741.68	3117.01
741.86	3246.03
742.04	2756.57
742.22	2846.68
742.40	2877.40
742.58	3090.38
742.76	2854.87
742.94	3039.19
743.12	2725.85
743.30	2901.97
743.48	3030.99
743.66	2779.09
743.84	2965.46
744.02	2965.46
744.20	2942.93
744.38	2758.61
744.56	2723.80
744.74	3293.13
744.92	3076.05
745.10	3143.63
745.28	2918.36
745.46	3221.45
745.64	2920.40
745.82	3008.47
746.00	2852.82
746.18	2992.08
746.36	2871.25
746.54	2867.16
746.72	2887.64
746.90	2873.30
747.08	3215.31
747.26	2848.72
747.44	2985.94
747.62	3041.23
747.80	2981.84
747.98	3026.90
748.15	2838.48
748.33	3362.76
748.51	3059.67
748.69	3024.85
748.87	2697.17
749.05	2951.12
749.23	2908.12
749.41	2828.24
749.59	2838.48
749.77	3194.83
749.95	2953.17
750.13	2815.96
750.31	2981.84
750.49	2959.31
750.67	3074.00
750.85	3053.52
751.03	2844.63
751.20	3295.18
751.38	2973.65
751.56	2875.35
751.74	2893.78
751.92	2873.30
752.10	2803.67
752.28	3094.48
752.46	2803.67
752.64	2922.45
752.82	2971.60
753.00	3008.47
753.18	2842.58
753.35	2922.45
753.53	2936.79
753.71	2789.33
753.89	2957.27
754.07	3045.33
754.25	3164.11
754.43	3030.99
754.61	2727.89
754.79	3061.71
754.97	3037.14
755.14	3039.19
755.32	2717.65
755.50	2955.22
755.68	3053.52
755.86	2826.20
756.04	2858.96
756.22	2721.75
756.40	3141.58
756.57	3155.92
756.75	2838.48
756.93	3127.25
757.11	3084.24
757.29	2727.89
757.47	2752.47
757.65	2752.47
757.82	2682.84
758.00	2740.18
758.18	2744.28
758.36	2897.88
758.54	3276.75
758.72	2668.50
758.90	2977.75
759.07	3055.57
759.25	2748.37
759.43	2914.26
759.61	2676.70
759.79	4284.35
759.97	3141.58
760.15	2971.60
760.32	2897.88
760.50	2983.89
760.68	3383.24
760.86	2768.85
761.04	3016.66
761.22	3151.82
761.39	3049.43
761.57	2971.60
761.75	2875.35
761.93	3069.91
762.11	3055.57
762.28	2953.17
762.46	2754.52
762.64	3123.15
762.82	2693.08
763.00	2809.81
763.18	3047.38
763.35	2768.85
763.53	3090.38
763.71	2969.55
763.89	2875.35
764.07	3071.95
764.24	2967.51
764.42	3000.27
764.60	2842.58
764.78	3035.09
764.96	3168.21
765.13	3071.95
765.31	2738.13
765.49	3100.62
765.67	2811.86
765.84	2832.34
766.02	2746.33
766.20	2740.18
766.38	2992.08
766.56	2942.93
766.73	2936.79
766.91	2977.75
767.09	2854.87
767.27	2934.74
767.44	2777.05
767.62	3049.43
767.80	3022.80
767.98	2777.05
768.15	2887.64
768.33	3076.05
768.51	3071.95
768.69	2949.08
768.87	2869.20
769.04	3002.32
769.22	3452.88
769.40	2994.13
769.58	3094.48
769.75	3090.38
769.93	3153.87
770.11	2881.49
770.28	2758.61
770.46	3112.91
770.64	2975.70
770.82	2895.83
770.99	2760.66
771.17	3069.91
771.35	2965.46
771.53	2852.82
771.70	2867.16
771.88	3016.66
772.06	2961.36
772.23	2818.00
772.41	2912.21
772.59	2944.98
772.77	2897.88
772.94	2803.67
773.12	2985.94
773.30	2885.59
773.47	3055.57
773.65	2754.52
773.83	2996.18
774.01	2973.65
774.18	2695.13
774.36	2850.77
774.54	2678.74
774.71	3074.00
774.89	2734.04
775.07	2754.52
775.24	2832.34
775.42	2930.64
775.60	3250.13
775.78	2748.37
775.95	2770.90
776.13	2725.85
776.31	2660.31
776.48	2977.75
776.66	3080.14
776.84	2901.97
777.01	2910.16
777.19	2791.38
777.37	2740.18
777.54	3039.19
777.72	3243.98
777.90	2895.83
778.07	2789.33
778.25	3489.74
778.43	3119.06
778.60	2869.20
778.78	3004.37
778.96	3200.98
779.13	2813.91
779.31	2940.88
779.49	2889.68
779.66	3030.99
779.84	3020.75
780.01	2830.29
780.19	2760.66
780.37	3225.55
780.54	3137.49
780.72	2688.98
780.90	2828.24
781.07	2949.08
781.25	2863.06
781.43	2979.79
781.60	2854.87
781.78	3176.40
781.95	2992.08
782.13	2848.72
782.31	2867.16
782.48	2658.26
782.66	2971.60
782.83	3096.53
783.01	3006.42
783.19	3121.10
783.36	2928.60
783.54	2785.24
783.72	2881.49
783.89	2944.98
784.07	3035.09
784.24	2981.84
784.42	3041.23
784.60	2936.79
784.77	2994.13
784.95	2625.50
785.12	2822.10
785.30	2985.94
785.47	2865.11
785.65	2801.62
785.83	2910.16
786.00	2891.73
786.18	3010.51
786.35	2785.24
786.53	2858.96
786.71	3096.53
786.88	3074.00
787.06	2906.07
787.23	2850.77
787.41	2754.52
787.58	3004.37
787.76	2738.13
787.94	2842.58
788.11	2944.98
788.29	2756.57
788.46	2875.35
788.64	2660.31
788.81	2865.11
788.99	2836.44
789.16	2766.81
789.34	2906.07
789.52	2889.68
789.69	2928.60
789.87	2736.09
790.04	2877.40
790.22	2994.13
790.39	3332.05
790.57	2707.41
790.74	2746.33
790.92	3108.82
791.09	2770.90
791.27	2942.93
791.44	3018.71
791.62	2942.93
791.79	3112.91
791.97	2904.02
792.15	3211.22
792.32	3078.10
792.50	3160.02
792.67	3094.48
792.85	3141.58
793.02	2965.46
793.20	2918.36
793.37	2770.90
793.55	2863.06
793.72	2758.61
793.90	3106.77
794.07	2873.30
794.25	2750.42
794.42	2983.89
794.60	2920.40
794.77	2863.06
794.95	3002.32
795.12	3160.02
795.30	2887.64
795.47	2703.32
795.65	3276.75
795.82	3043.28
796.00	2803.67
796.17	2858.96
796.34	2805.72
796.52	3084.24
796.69	3114.96
796.87	2922.45
797.04	2926.55
797.22	3106.77
797.39	3030.99
797.57	3088.34
797.74	2893.78
797.92	3018.71
798.09	2908.12
798.27	3112.91
798.44	2787.29
798.62	2844.63
798.79	2963.41
798.96	2914.26
799.14	2832.34
799.31	3409.87
799.49	2871.25
799.66	2834.39
799.84	2914.26
800.01	2654.17
800.19	3065.81
800.36	2615.26
800.53	2924.50
800.71	3035.09
800.88	3258.32
801.06	2799.57
801.23	2846.68
801.41	2883.54
801.58	2842.58
801.75	2789.33
801.93	2942.93
802.10	3057.62
802.28	2901.97
802.45	2871.25
802.63	2934.74
802.80	3194.83
802.97	2922.45
803.15	2838.48
803.32	2863.06
803.50	2873.30
803.67	2912.21
803.84	2768.85
804.02	2953.17
804.19	2975.70
804.37	2531.29
804.54	2715.61
804.71	2809.81
804.89	2953.17
805.06	2752.47
805.24	2752.47
805.41	2711.51
805.58	2818.00
805.76	3473.36
805.93	2854.87
806.10	2967.51
806.28	3039.19
806.45	2979.79
806.63	2949.08
806.80	3010.51
806.97	3004.37
807.15	3024.85
807.32	2949.08
807.49	2820.05
807.67	2709.46
807.84	3037.14
808.01	2738.13
808.19	3053.52
808.36	3323.85
808.54	2871.25
808.71	2861.01
808.88	2965.46
809.06	3125.20
809.23	3231.69
809.40	2965.46
809.58	2910.16
809.75	2942.93
809.92	2777.05
810.10	3157.97
810.27	2799.57
810.44	3051.47
810.62	3057.62
810.79	2899.92
810.96	2740.18
811.14	2889.68
811.31	3082.19
811.48	3018.71
811.66	2871.25
811.83	3192.78
812.00	3026.90
812.18	3037.14
812.35	3209.17
812.52	2906.07
812.69	2955.22
812.87	2842.58
813.04	2836.44
813.21	2967.51
813.39	2754.52
813.56	2756.57
813.73	3059.67
813.91	2691.03
814.08	3059.67
814.25	2908.12
814.42	2678.74
814.60	2914.26
814.77	2936.79
814.94	2783.19
815.12	2899.92
815.29	3225.55
815.46	2908.12
815.63	2906.07
815.81	2772.95
815.98	2869.20
816.15	2949.08
816.33	2842.58
816.50	2826.20
816.67	2953.17
816.84	2957.27
817.02	2758.61
817.19	2867.16
817.36	3033.04
817.53	3102.67
817.71	2736.09
817.88	2934.74
818.05	2934.74
818.22	2930.64
818.40	3030.99
818.57	2762.71
818.74	3006.42
818.91	2926.55
819.09	2963.41
819.26	3022.80
819.43	2805.72
819.60	2889.68
819.78	2998.23
819.95	3014.61
820.12	2838.48
820.29	3184.59
820.47	3024.85
820.64	2758.61
820.81	2709.46
820.98	2854.87
821.15	2824.15
821.33	2934.74
821.50	2725.85
821.67	3002.32
821.84	2799.57
822.02	2830.29
822.19	3030.99
822.36	2947.03
822.53	2871.25
822.70	2715.61
822.88	2918.36
823.05	3215.31
823.22	2889.68
823.39	2924.50
823.56	2916.31
823.74	3330.00
823.91	2736.09
824.08	2705.37
824.25	2789.33
824.42	3264.46
824.60	2717.65
824.77	2990.03
824.94	2861.01
825.11	3086.29
825.28	2643.93
825.45	2949.08
825.63	3057.62
825.80	2766.81
825.97	2977.75
826.14	2904.02
826.31	2750.42
826.48	3030.99
826.66	2783.19
826.83	2826.20
827.00	2975.70
827.17	2826.20
827.34	2861.01
827.51	2832.34
827.69	2996.18
827.86	2729.94
828.03	2832.34
828.20	2887.64
828.37	2869.20
828.54	3082.19
828.71	2775.00
828.89	3006.42
829.06	3014.61
829.23	3182.54
829.40	2805.72
829.57	2840.53
829.74	3123.15
829.91	2930.64
830.09	2818.00
830.26	2965.46
830.43	3233.74
830.60	2930.64
830.77	2955.22
830.94	3112.91
831.11	3088.34
831.28	2930.64
831.46	3018.71
831.63	2877.40
831.80	3235.79
831.97	2824.15
832.14	2830.29
832.31	2879.44
832.48	3024.85
832.65	3100.62
832.82	2971.60
832.99	2887.64
833.17	2811.86
833.34	3229.65
833.51	2799.57
833.68	2559.96
833.85	3139.54
834.02	2811.86
834.19	2768.85
834.36	2779.09
834.53	3033.04
834.70	3194.83
834.87	2863.06
835.04	2650.07
835.22	2895.83
835.39	2901.97
835.56	2688.98
835.73	2699.22
835.90	3149.78
836.07	2842.58
836.24	2996.18
836.41	2777.05
836.58	2809.81
836.75	3188.69
836.92	2762.71
837.09	2637.78
837.26	3106.77
837.43	3069.91
837.60	2758.61
837.77	2715.61
837.94	3125.20
838.12	3137.49
838.29	2605.02
838.46	2648.02
838.63	2723.80
838.80	3166.16
838.97	2799.57
839.14	2729.94
839.31	2987.99
839.48	3061.71
839.65	2734.04
839.82	2775.00
839.99	2904.02
840.16	3051.47
840.33	2711.51
840.50	2715.61
840.67	2863.06
840.84	2555.86
841.01	2719.70
841.18	2699.22
841.35	2938.84
841.52	3059.67
841.69	3020.75
841.86	2738.13
842.03	3026.90
842.20	3045.33
842.37	2787.29
842.54	2858.96
842.71	3018.71
842.88	2662.36
843.05	2717.65
843.22	2742.23
843.39	3069.91
843.56	2881.49
843.73	2709.46
843.90	2783.19
844.07	2990.03
844.24	3082.19
844.41	2797.53
844.58	2785.24
844.75	2951.12
844.92	3071.95
845.09	2830.29
845.26	2693.08
845.43	3131.34
845.60	2885.59
845.77	2768.85
845.94	2801.62
846.10	3155.92
846.27	2754.52
846.44	2635.74
846.61	2609.11
846.78	3082.19
846.95	3117.01
847.12	2697.17
847.29	2760.66
847.46	2848.72
847.63	3100.62
847.80	2637.78
847.97	2762.71
848.14	3330.00
848.31	2879.44
848.48	2594.78
848.65	2750.42
848.82	2871.25
848.98	3395.53
849.15	2807.77
849.32	2858.96
849.49	3174.35
849.66	2889.68
849.83	2693.08
850.00	2717.65
850.17	3100.62
850.34	2914.26
850.51	2738.13
850.68	2693.08
850.85	3311.57
851.01	2985.94
851.18	2664.41
851.35	2805.72
851.52	3078.10
851.69	3250.13
851.86	2703.32
852.03	2721.75
852.20	3145.68
852.37	2934.74
852.53	2619.35
852.70	2643.93
852.87	3096.53
853.04	3074.00
853.21	2738.13
853.38	2987.99
853.55	3225.55
853.72	3162.06
853.89	2635.74
854.05	2641.88
854.22	2961.36
854.39	2951.12
854.56	2725.85
854.73	2844.63
854.90	2807.77
855.07	2936.79
855.23	2643.93
855.40	2680.79
855.57	2926.55
855.74	2674.65
855.91	2899.92
856.08	2639.83
856.25	2764.76
856.41	2815.96
856.58	2729.94
856.75	2756.57
856.92	2742.23
857.09	3096.53
857.26	2625.50
857.42	2789.33
857.59	3145.68
857.76	2867.16
857.93	2754.52
858.10	2846.68
858.27	2748.37
858.43	2963.41
858.60	2746.33
858.77	2539.48
858.94	2867.16
859.11	3119.06
859.27	2799.57
859.44	2650.07
859.61	3299.28
859.78	3076.05
859.95	2688.98
860.12	2674.65
860.28	3411.92
860.45	3373.00
860.62	2680.79
860.79	2875.35
860.95	2875.35
861.12	2801.62
861.29	2547.67
861.46	2639.83
861.63	2871.25
861.79	3026.90
861.96	2697.17
862.13	2740.18
862.30	3237.84
862.47	2830.29
862.63	2602.97
862.80	2820.05
862.97	3096.53
863.14	2990.03
863.30	2842.58
863.47	2693.08
863.64	3254.22
863.81	2996.18
863.97	2627.54
864.14	2766.81
864.31	2893.78
864.48	3045.33
864.65	2803.67
864.81	2824.15
864.98	3071.95
865.15	3096.53
865.32	2822.10
865.48	2775.00
865.65	3235.79
865.82	2924.50
865.98	2826.20
866.15	2858.96
866.32	2926.55
866.49	2846.68
866.65	2850.77
866.82	2818.00
866.99	2949.08
867.16	2951.12
867.32	2678.74
867.49	2719.70
867.66	2889.68
867.83	2832.34
867.99	2672.60
868.16	2834.39
868.33	2754.52
868.49	2891.73
868.66	2799.57
868.83	2828.24
868.99	3033.04
869.16	3061.71
869.33	2783.19
869.50	2799.57
869.66	2951.12
869.83	2877.40
870.00	2674.65
870.16	2793.43
870.33	2969.55
870.50	3104.72
870.66	2756.57
870.83	2805.72
871.00	3043.28
871.17	3055.57
871.33	2775.00
871.50	2791.38
871.67	2987.99
871.83	2660.31
872.00	2815.96
872.17	2779.09
872.33	3264.46
872.50	3203.02
872.67	2705.37
872.83	2701.27
873.00	3039.19
873.17	2877.40
873.33	2783.19
873.50	2801.62
873.67	2824.15
873.83	2861.01
874.00	2744.28
874.16	2910.16
874.33	2992.08
874.50	2799.57
874.66	2695.13
874.83	2848.72
875.00	3139.54
875.16	3135.44
875.33	2815.96
875.50	2562.01
875.66	2932.69
875.83	3026.90
875.99	2783.19
876.16	2764.76
876.33	2834.39
876.49	2961.36
876.66	2820.05
876.83	2768.85
876.99	2670.55
877.16	2940.88
877.32	2719.70
877.49	2858.96
877.66	3135.44
877.82	3131.34
877.99	2897.88
878.15	2985.94
878.32	2965.46
878.49	2985.94
878.65	2793.43
878.82	3074.00
878.98	2930.64
879.15	3049.43
879.32	2924.50
879.48	2901.97
879.65	2932.69
879.81	2844.63
879.98	2699.22
880.15	2809.81
880.31	2971.60
880.48	2844.63
880.64	2844.63
880.81	2854.87
880.97	3282.89
881.14	3088.34
881.31	2727.89
881.47	2904.02
881.64	2924.50
881.80	2648.02
881.97	2820.05
882.13	2760.66
882.30	2768.85
882.47	2881.49
882.63	2758.61
882.80	2729.94
882.96	2818.00
883.13	3143.63
883.29	2793.43
883.46	2783.19
883.62	3311.57
883.79	2953.17
883.95	2830.29
884.12	2764.76
884.29	3147.73
884.45	2947.03
884.62	2848.72
884.78	2650.07
884.95	3254.22
885.11	2863.06
885.28	2807.77
885.44	2781.14
885.61	3061.71
885.77	3164.11
885.94	2848.72
886.10	2744.28
886.27	3026.90
886.43	3377.10
886.60	2992.08
886.76	2766.81
886.93	2871.25
887.09	2975.70
887.26	2645.98
887.42	2844.63
887.59	3168.21
887.75	3321.81
887.92	2994.13
888.08	2865.11
888.25	3262.41
888.41	3151.82
888.58	2830.29
888.74	2738.13
888.91	2938.84
>>>>>End Processed Spectral Data<<<<<
