SpectraSuite Data File
++++++++++++++++++++++++++++++++++++
Date: Thu May 05 21:10:54 CEST 2016
User: root
Dark Spectrum Present: No
Reference Spectrum Present: No
Number of Sampled Component Spectra: 1
Spectrometers: USB4C02835
Integration Time (usec): 100000 (USB4C02835)
Spectra Averaged: 1 (USB4C02835)
Boxcar Smoothing: 0 (USB4C02835)
Correct for Electrical Dark: No (USB4C02835)
Strobe/Lamp Enabled: No (USB4C02835)
Correct for Detector Non-linearity: No (USB4C02835)
Correct for Stray Light: No (USB4C02835)
Number of Pixels in Processed Spectrum: 3648
>>>>>Begin Processed Spectral Data<<<<<
177.47	2111.46
177.69	2111.46
177.91	2111.46
178.13	2109.41
178.36	2170.85
178.58	2779.09
178.80	2971.60
179.02	2701.27
179.24	2834.39
179.46	2537.43
179.68	2648.02
179.90	2942.93
180.13	3035.09
180.35	2414.56
180.57	2590.68
180.79	3135.44
181.01	3006.42
181.23	2701.27
181.45	2795.48
181.67	3149.78
181.90	3188.69
182.12	2775.00
182.34	2519.00
182.56	3051.47
182.78	3030.99
183.00	2658.26
183.22	2764.76
183.44	2656.22
183.66	3506.12
183.89	2760.66
184.11	2713.56
184.33	3108.82
184.55	3223.50
184.77	2639.83
184.99	2633.69
185.21	2973.65
185.43	3440.59
185.65	2693.08
185.87	2693.08
186.10	3330.00
186.32	3346.38
186.54	2803.67
186.76	2858.96
186.98	3141.58
187.20	2965.46
187.42	2756.57
187.64	2672.60
187.86	3123.15
188.08	3180.50
188.30	2570.20
188.52	2787.29
188.75	3235.79
188.97	3258.32
189.19	2684.89
189.41	2734.04
189.63	3045.33
189.85	2867.16
190.07	2605.02
190.29	2467.80
190.51	3012.56
190.73	2822.10
190.95	2875.35
191.17	2717.65
191.39	2791.38
191.61	3008.47
191.84	2607.06
192.06	2748.37
192.28	2768.85
192.50	3532.75
192.72	2797.53
192.94	2797.53
193.16	3168.21
193.38	3125.20
193.60	2619.35
193.82	2770.90
194.04	3147.73
194.26	3098.58
194.48	2742.23
194.70	2672.60
194.92	2906.07
195.14	3102.67
195.36	2607.06
195.58	2727.89
195.80	2914.26
196.02	2899.92
196.24	2660.31
196.46	2777.05
196.69	2883.54
196.91	3426.25
197.13	2688.98
197.35	2725.85
197.57	3207.12
197.79	3157.97
198.01	2703.32
198.23	2664.41
198.45	3041.23
198.67	2686.94
198.89	2525.15
199.11	2770.90
199.33	2852.82
199.55	2613.21
199.77	2654.17
199.99	2779.09
200.21	2828.24
200.43	3008.47
200.65	2588.63
200.87	2566.10
201.09	2985.94
201.31	2961.36
201.53	2715.61
201.75	2748.37
201.97	3061.71
202.19	3012.56
202.41	2670.55
202.63	2893.78
202.85	3012.56
203.07	3059.67
203.29	2738.13
203.51	2613.21
203.73	2942.93
203.95	3545.03
204.17	2660.31
204.39	2756.57
204.61	3016.66
204.83	2897.88
205.05	2875.35
205.27	2715.61
205.49	3377.10
205.71	2979.79
205.93	2525.15
206.15	2562.01
206.37	3082.19
206.59	3033.04
206.81	2502.62
207.03	2570.20
207.25	2887.64
207.47	3100.62
207.69	2668.50
207.91	2961.36
208.13	3223.50
208.34	2965.46
208.56	2623.45
208.78	2709.46
209.00	2916.31
209.22	2899.92
209.44	2639.83
209.66	2652.12
209.88	3030.99
210.10	3016.66
210.32	2682.84
210.54	2830.29
210.76	2922.45
210.98	3205.07
211.20	2502.62
211.42	2775.00
211.64	3217.36
211.86	3074.00
212.08	2731.99
212.30	2713.56
212.52	2891.73
212.74	3063.76
212.96	2805.72
213.17	2791.38
213.39	3100.62
213.61	3188.69
213.83	2631.64
214.05	2559.96
214.27	3123.15
214.49	2858.96
214.71	2699.22
214.93	2740.18
215.15	2969.55
215.37	3139.54
215.59	2543.58
215.81	2693.08
216.03	3147.73
216.24	2953.17
216.46	2713.56
216.68	2705.37
216.90	3121.10
217.12	3233.74
217.34	2648.02
217.56	2867.16
217.78	3117.01
218.00	3102.67
218.22	2717.65
218.44	2795.48
218.66	2983.89
218.87	3395.53
219.09	2717.65
219.31	2705.37
219.53	3092.43
219.75	2873.30
219.97	2686.94
220.19	2789.33
220.41	2959.31
220.63	3209.17
220.85	2740.18
221.06	2736.09
221.28	3254.22
221.50	3028.95
221.72	2727.89
221.94	2613.21
222.16	3018.71
222.38	3117.01
222.60	2674.65
222.82	2656.22
223.03	3112.91
223.25	2879.44
223.47	2688.98
223.69	2877.40
223.91	3133.39
224.13	2998.23
224.35	2678.74
224.57	2815.96
224.78	3110.86
225.00	2895.83
225.22	2783.19
225.44	2666.46
225.66	3114.96
225.88	2887.64
226.10	2772.95
226.32	2752.47
226.53	3172.30
226.75	2969.55
226.97	2766.81
227.19	2650.07
227.41	2871.25
227.63	2906.07
227.85	2514.91
228.06	2682.84
228.28	3002.32
228.50	3184.59
228.72	2545.63
228.94	2652.12
229.16	2723.80
229.37	2848.72
229.59	2523.10
229.81	2920.40
230.03	2934.74
230.25	2848.72
230.47	2557.91
230.69	2668.50
230.90	3104.72
231.12	2801.62
231.34	2824.15
231.56	2746.33
231.78	2766.81
232.00	3074.00
232.21	2656.22
232.43	2662.36
232.65	2631.64
232.87	3014.61
233.09	2576.34
233.30	2609.11
233.52	3160.02
233.74	2963.41
233.96	2615.26
234.18	2899.92
234.40	2961.36
234.61	3502.03
234.83	2543.58
235.05	2607.06
235.27	3475.40
235.49	3166.16
235.70	2602.97
235.92	2709.46
236.14	3108.82
236.36	3411.92
236.58	2656.22
236.79	2791.38
237.01	2942.93
237.23	2940.88
237.45	2826.20
237.67	2656.22
237.88	3051.47
238.10	3330.00
238.32	2590.68
238.54	2658.26
238.76	2998.23
238.97	2809.81
239.19	2576.34
239.41	2770.90
239.63	3178.45
239.85	2908.12
240.06	2701.27
240.28	2674.65
240.50	3209.17
240.72	2936.79
240.93	2596.82
241.15	2795.48
241.37	2940.88
241.59	3190.74
241.81	2670.55
242.02	2758.61
242.24	2963.41
242.46	3076.05
242.68	2564.06
242.89	2652.12
243.11	3203.02
243.33	2977.75
243.55	2766.81
243.76	2686.94
243.98	2897.88
244.20	2969.55
244.42	2650.07
244.64	2682.84
244.85	2731.99
245.07	2820.05
245.29	2656.22
245.51	2680.79
245.72	3076.05
245.94	3084.24
246.16	2713.56
246.38	2750.42
246.59	2959.31
246.81	2887.64
247.03	2590.68
247.24	2568.15
247.46	2824.15
247.68	3002.32
247.90	2602.97
248.11	2617.30
248.33	3065.81
248.55	2987.99
248.77	2656.22
248.98	2709.46
249.20	3229.65
249.42	3024.85
249.64	2664.41
249.85	2684.89
250.07	2824.15
250.29	3108.82
250.50	2801.62
250.72	2475.99
250.94	3143.63
251.16	3303.37
251.37	2695.13
251.59	2787.29
251.81	3061.71
252.02	3289.04
252.24	2609.11
252.46	2844.63
252.68	2838.48
252.89	2889.68
253.11	2572.25
253.33	2834.39
253.54	3215.31
253.76	2885.59
253.98	2707.41
254.20	2666.46
254.41	2781.14
254.63	2965.46
254.85	2570.20
255.06	2834.39
255.28	3104.72
255.50	2953.17
255.71	2658.26
255.93	2527.19
256.15	2985.94
256.36	3082.19
256.58	2486.23
256.80	2650.07
257.02	2934.74
257.23	2971.60
257.45	2691.03
257.67	2721.75
257.88	2807.77
258.10	3074.00
258.32	2703.32
258.53	2723.80
258.75	3260.37
258.97	2770.90
259.18	2586.58
259.40	2590.68
259.62	3346.38
259.83	3229.65
260.05	2770.90
260.27	3473.36
260.48	3131.34
260.70	2820.05
260.92	2670.55
261.13	2713.56
261.35	2992.08
261.57	3139.54
261.78	2592.73
262.00	2623.45
262.22	3061.71
262.43	2787.29
262.65	2705.37
262.86	2674.65
263.08	3487.69
263.30	3016.66
263.51	2527.19
263.73	2662.36
263.95	3221.45
264.16	2789.33
264.38	2576.34
264.60	2664.41
264.81	2977.75
265.03	3147.73
265.25	3014.61
265.46	2578.39
265.68	3286.99
265.89	3104.72
266.11	2572.25
266.33	2662.36
266.54	3137.49
266.76	3145.68
266.98	2760.66
267.19	2820.05
267.41	3194.83
267.62	2934.74
267.84	2514.91
268.06	2820.05
268.27	3061.71
268.49	3080.14
268.70	2781.14
268.92	2684.89
269.14	2811.86
269.35	2742.23
269.57	2744.28
269.79	2770.90
270.00	2875.35
270.22	3282.89
270.43	2582.49
270.65	2529.24
270.87	3067.86
271.08	3112.91
271.30	2848.72
271.51	2625.50
271.73	3110.86
271.95	3194.83
272.16	2635.74
272.38	2762.71
272.59	2891.73
272.81	3100.62
273.02	2670.55
273.24	2736.09
273.46	3192.78
273.67	2752.47
273.89	2588.63
274.10	2678.74
274.32	3166.16
274.54	2998.23
274.75	2797.53
274.97	2820.05
275.18	3057.62
275.40	3045.33
275.61	2713.56
275.83	2854.87
276.05	2926.55
276.26	2947.03
276.48	2770.90
276.69	2793.43
276.91	2895.83
277.12	3254.22
277.34	2889.68
277.55	2836.44
277.77	3049.43
277.99	2965.46
278.20	2725.85
278.42	2641.88
278.63	2951.12
278.85	2766.81
279.06	2731.99
279.28	2947.03
279.49	3151.82
279.71	3147.73
279.93	2844.63
280.14	2818.00
280.36	2848.72
280.57	3106.77
280.79	2934.74
281.00	2711.51
281.22	2916.31
281.43	3123.15
281.65	2574.30
281.86	2738.13
282.08	3063.76
282.29	3344.33
282.51	2717.65
282.73	2674.65
282.94	2680.79
283.16	3057.62
283.37	2871.25
283.59	2801.62
283.80	3041.23
284.02	2973.65
284.23	2789.33
284.45	2740.18
284.66	2850.77
284.88	2944.98
285.09	2734.04
285.31	2861.01
285.52	3039.19
285.74	2727.89
285.95	2983.89
286.17	2783.19
286.38	3125.20
286.60	2873.30
286.81	2799.57
287.03	2869.20
287.24	3002.32
287.46	3057.62
287.67	2863.06
287.89	3037.14
288.10	2947.03
288.32	2983.89
288.53	3004.37
288.75	2869.20
288.96	3129.30
289.18	2787.29
289.39	2723.80
289.61	2844.63
289.82	3413.96
290.04	3237.84
290.25	2654.17
290.47	2869.20
290.68	2951.12
290.90	3231.69
291.11	2596.82
291.33	2865.11
291.54	2887.64
291.76	2926.55
291.97	2920.40
292.18	2973.65
292.40	2885.59
292.61	2803.67
292.83	3100.62
293.04	2826.20
293.26	3012.56
293.47	2932.69
293.69	2715.61
293.90	2725.85
294.12	3162.06
294.33	2932.69
294.55	2815.96
294.76	3002.32
294.97	3248.08
295.19	3352.52
295.40	2731.99
295.62	2848.72
295.83	3125.20
296.05	2916.31
296.26	3065.81
296.48	2832.34
296.69	2934.74
296.90	2865.11
297.12	2959.31
297.33	2981.84
297.55	3082.19
297.76	3055.57
297.98	2852.82
298.19	2879.44
298.41	2983.89
298.62	2865.11
298.83	2981.84
299.05	2914.26
299.26	2865.11
299.48	2942.93
299.69	2867.16
299.90	2799.57
300.12	2940.88
300.33	3061.71
300.55	2840.53
300.76	2887.64
300.98	2738.13
301.19	3160.02
301.40	2906.07
301.62	2801.62
301.83	3121.10
302.05	2971.60
302.26	2801.62
302.47	2940.88
302.69	2719.70
302.90	3045.33
303.12	2656.22
303.33	2912.21
303.54	3366.86
303.76	2906.07
303.97	2766.81
304.19	2977.75
304.40	2779.09
304.61	3153.87
304.83	2899.92
305.04	2885.59
305.26	3149.78
305.47	2891.73
305.68	2852.82
305.90	2703.32
306.11	3172.30
306.33	2899.92
306.54	2672.60
306.75	2707.41
306.97	2727.89
307.18	2846.68
307.39	2828.24
307.61	2893.78
307.82	2838.48
308.04	3074.00
308.25	2650.07
308.46	2897.88
308.68	2965.46
308.89	3008.47
309.10	2936.79
309.32	2842.58
309.53	2985.94
309.74	3088.34
309.96	2777.05
310.17	2934.74
310.39	2944.98
310.60	3188.69
310.81	2824.15
311.03	2768.85
311.24	3155.92
311.45	3012.56
311.67	3037.14
311.88	2885.59
312.09	2850.77
312.31	2811.86
312.52	2727.89
312.73	2822.10
312.95	2770.90
313.16	2832.34
313.37	2895.83
313.59	2951.12
313.80	3110.86
314.01	3262.41
314.23	2758.61
314.44	2701.27
314.65	2785.24
314.87	2811.86
315.08	2791.38
315.29	2834.39
315.51	2822.10
315.72	2695.13
315.93	2893.78
316.15	2811.86
316.36	2940.88
316.57	3041.23
316.79	2875.35
317.00	2729.94
317.21	3137.49
317.43	2807.77
317.64	2883.54
317.85	2789.33
318.07	2869.20
318.28	2820.05
318.49	2877.40
318.70	3026.90
318.92	3049.43
319.13	3047.38
319.34	2957.27
319.56	2824.15
319.77	3041.23
319.98	3176.40
320.20	3047.38
320.41	2977.75
320.62	3108.82
320.83	2836.44
321.05	3061.71
321.26	2869.20
321.47	2967.51
321.69	3178.45
321.90	2672.60
322.11	2793.43
322.32	2916.31
322.54	3205.07
322.75	2856.92
322.96	3579.85
323.18	2775.00
323.39	2590.68
323.60	2783.19
323.81	2893.78
324.03	2807.77
324.24	2951.12
324.45	2887.64
324.66	2740.18
324.88	3205.07
325.09	3250.13
325.30	2865.11
325.52	2703.32
325.73	3067.86
325.94	2762.71
326.15	2670.55
326.37	2719.70
326.58	3117.01
326.79	3332.05
327.00	2717.65
327.22	2807.77
327.43	2885.59
327.64	2777.05
327.85	2844.63
328.07	2818.00
328.28	3311.57
328.49	2944.98
328.70	2867.16
328.92	2820.05
329.13	2967.51
329.34	3125.20
329.55	3006.42
329.76	2934.74
329.98	2934.74
330.19	3229.65
330.40	2848.72
330.61	2922.45
330.83	3063.76
331.04	2799.57
331.25	2906.07
331.46	2858.96
331.68	2772.95
331.89	3143.63
332.10	2818.00
332.31	2635.74
332.52	3000.27
332.74	3227.60
332.95	2596.82
333.16	2717.65
333.37	3143.63
333.58	2858.96
333.80	2830.29
334.01	2611.16
334.22	2947.03
334.43	2867.16
334.64	2750.42
334.86	2746.33
335.07	2877.40
335.28	3190.74
335.49	2748.37
335.70	2861.01
335.92	3233.74
336.13	3360.72
336.34	2854.87
336.55	2797.53
336.76	2979.79
336.98	2627.54
337.19	2822.10
337.40	2813.91
337.61	3483.59
337.82	2895.83
338.04	2881.49
338.25	2652.12
338.46	2940.88
338.67	2828.24
338.88	2762.71
339.09	2641.88
339.31	2856.92
339.52	2783.19
339.73	2768.85
339.94	2746.33
340.15	3078.10
340.36	2801.62
340.58	2764.76
340.79	2658.26
341.00	3100.62
341.21	2703.32
341.42	3069.91
341.63	2834.39
341.85	3184.59
342.06	2985.94
342.27	2734.04
342.48	3006.42
342.69	2775.00
342.90	3035.09
343.12	3041.23
343.33	2850.77
343.54	3133.39
343.75	3268.56
343.96	2844.63
344.17	2719.70
344.38	2916.31
344.60	2875.35
344.81	2721.75
345.02	2820.05
345.23	3198.93
345.44	3438.54
345.65	2887.64
345.86	2865.11
346.07	3053.52
346.29	2889.68
346.50	2918.36
346.71	2861.01
346.92	3243.98
347.13	3366.86
347.34	2863.06
347.55	2709.46
347.76	3010.51
347.98	2768.85
348.19	2781.14
348.40	3012.56
348.61	2916.31
348.82	3254.22
349.03	2901.97
349.24	2693.08
349.45	3272.65
349.66	2697.17
349.88	2762.71
350.09	2711.51
350.30	3241.93
350.51	3213.26
350.72	2959.31
350.93	2789.33
351.14	2996.18
351.35	3106.77
351.56	2768.85
351.77	2834.39
351.99	3047.38
352.20	3254.22
352.41	2934.74
352.62	2574.30
352.83	2977.75
353.04	2996.18
353.25	2725.85
353.46	2897.88
353.67	3149.78
353.88	2633.69
354.09	2740.18
354.30	2850.77
354.52	3016.66
354.73	2926.55
354.94	2764.76
355.15	2897.88
355.36	3303.37
355.57	2969.55
355.78	2717.65
355.99	2686.94
356.20	2955.22
356.41	3178.45
356.62	2869.20
356.83	2768.85
357.04	3252.17
357.25	2723.80
357.46	2815.96
357.68	2664.41
357.89	2797.53
358.10	2955.22
358.31	2797.53
358.52	2840.53
358.73	2842.58
358.94	2803.67
359.15	2805.72
359.36	2852.82
359.57	2934.74
359.78	2899.92
359.99	2992.08
360.20	2764.76
360.41	2983.89
360.62	3039.19
360.83	2852.82
361.04	2842.58
361.25	2985.94
361.46	3284.94
361.67	2904.02
361.88	2879.44
362.09	3223.50
362.30	3010.51
362.51	2779.09
362.72	2875.35
362.93	3084.24
363.14	3090.38
363.35	2877.40
363.56	2748.37
363.78	3286.99
363.99	3213.26
364.20	2852.82
364.41	2869.20
364.62	3289.04
364.83	3133.39
365.04	2793.43
365.25	2799.57
365.46	3252.17
365.67	2861.01
365.88	2885.59
366.09	2826.20
366.30	2850.77
366.51	3000.27
366.72	2725.85
366.93	2822.10
367.14	2992.08
367.35	3227.60
367.56	2707.41
367.77	2901.97
367.98	2967.51
368.18	3082.19
368.39	2901.97
368.60	2721.75
368.81	3084.24
369.02	2985.94
369.23	2797.53
369.44	2676.70
369.65	2914.26
369.86	3139.54
370.07	2895.83
370.28	2703.32
370.49	2985.94
370.70	2987.99
370.91	2760.66
371.12	2662.36
371.33	3063.76
371.54	2926.55
371.75	2893.78
371.96	2639.83
372.17	2963.41
372.38	2926.55
372.59	2791.38
372.80	2775.00
373.01	2981.84
373.22	3065.81
373.43	2852.82
373.64	2633.69
373.85	3229.65
374.06	3282.89
374.26	2922.45
374.47	2926.55
374.68	3250.13
374.89	2992.08
375.10	2766.81
375.31	2959.31
375.52	3035.09
375.73	3133.39
375.94	2654.17
376.15	2930.64
376.36	2875.35
376.57	2887.64
376.78	2822.10
376.99	2770.90
377.20	3168.21
377.40	2912.21
377.61	3043.28
377.82	2740.18
378.03	3246.03
378.24	3061.71
378.45	2887.64
378.66	2901.97
378.87	2809.81
379.08	2760.66
379.29	2785.24
379.50	2967.51
379.71	2965.46
379.91	3110.86
380.12	2785.24
380.33	2865.11
380.54	2957.27
380.75	2998.23
380.96	2801.62
381.17	2844.63
381.38	3000.27
381.59	3008.47
381.80	2799.57
382.00	3033.04
382.21	3071.95
382.42	3264.46
382.63	3096.53
382.84	2959.31
383.05	3203.02
383.26	3155.92
383.47	2908.12
383.68	2824.15
383.88	3110.86
384.09	2977.75
384.30	3067.86
384.51	2940.88
384.72	2899.92
384.93	2697.17
385.14	2858.96
385.35	2994.13
385.55	2746.33
385.76	3198.93
385.97	2850.77
386.18	2650.07
386.39	2783.19
386.60	2938.84
386.81	2754.52
387.02	2625.50
387.22	2762.71
387.43	3039.19
387.64	2920.40
387.85	3127.25
388.06	3059.67
388.27	4028.35
388.48	7186.32
388.68	10819.42
388.89	13467.44
389.10	14475.04
389.31	14071.59
389.52	11274.07
389.73	9713.52
389.93	8791.93
390.14	8083.33
390.35	7329.68
390.56	6444.96
390.77	5560.24
390.98	4192.19
391.18	3747.78
391.39	3434.44
391.60	2967.51
391.81	3063.76
392.02	2836.44
392.23	3370.96
392.43	2979.79
392.64	2887.64
392.85	2881.49
393.06	3313.61
393.27	2983.89
393.47	2756.57
393.68	2885.59
393.89	2938.84
394.10	3168.21
394.31	2805.72
394.52	2762.71
394.72	2899.92
394.93	3276.75
395.14	2731.99
395.35	2965.46
395.56	2906.07
395.76	2985.94
395.97	2807.77
396.18	2942.93
396.39	3022.80
396.60	3551.18
396.80	3254.22
397.01	3030.99
397.22	3090.38
397.43	3129.30
397.64	2777.05
397.84	2869.20
398.05	3311.57
398.26	2977.75
398.47	2979.79
398.67	2987.99
398.88	2981.84
399.09	3139.54
399.30	2826.20
399.51	2861.01
399.71	2881.49
399.92	2930.64
400.13	2893.78
400.34	2854.87
400.54	3045.33
400.75	3305.42
400.96	2834.39
401.17	3086.29
401.37	3108.82
401.58	2959.31
401.79	2854.87
402.00	2975.70
402.21	3348.43
402.41	3071.95
402.62	3108.82
402.83	3170.26
403.04	3276.75
403.24	3672.01
403.45	3014.61
403.66	3139.54
403.87	3194.83
404.07	3360.72
404.28	3110.86
404.49	3164.11
404.70	3082.19
404.90	3071.95
405.11	2795.48
405.32	2965.46
405.52	2904.02
405.73	2897.88
405.94	2793.43
406.15	2869.20
406.35	3192.78
406.56	3102.67
406.77	2891.73
406.98	2910.16
407.18	2818.00
407.39	3266.51
407.60	2842.58
407.80	2918.36
408.01	2865.11
408.22	3014.61
408.43	2807.77
408.63	2934.74
408.84	3217.36
409.05	3227.60
409.25	2688.98
409.46	2854.87
409.67	2936.79
409.88	2877.40
410.08	2877.40
410.29	2854.87
410.50	3006.42
410.70	3041.23
410.91	2719.70
411.12	2899.92
411.32	2975.70
411.53	2891.73
411.74	2861.01
411.95	2944.98
412.15	3012.56
412.36	3133.39
412.57	2996.18
412.77	3024.85
412.98	2987.99
413.19	2904.02
413.39	2873.30
413.60	2922.45
413.81	3246.03
414.01	2822.10
414.22	2848.72
414.43	3020.75
414.63	2895.83
414.84	3094.48
415.05	2875.35
415.25	2672.60
415.46	3117.01
415.67	2861.01
415.87	2873.30
416.08	2871.25
416.29	2924.50
416.49	3069.91
416.70	2828.24
416.91	2832.34
417.11	2938.84
417.32	3205.07
417.53	2899.92
417.73	2944.98
417.94	2951.12
418.15	2992.08
418.35	2834.39
418.56	2879.44
418.77	3426.25
418.97	2944.98
419.18	2848.72
419.38	2566.10
419.59	2951.12
419.80	3223.50
420.00	2895.83
420.21	2893.78
420.42	3170.26
420.62	3074.00
420.83	2848.72
421.04	2797.53
421.24	3051.47
421.45	3119.06
421.65	2944.98
421.86	2832.34
422.07	3108.82
422.27	3086.29
422.48	2815.96
422.69	2695.13
422.89	2957.27
423.10	2944.98
423.30	2818.00
423.51	2893.78
423.72	3008.47
423.92	3127.25
424.13	2695.13
424.33	2877.40
424.54	3200.98
424.75	2994.13
424.95	3086.29
425.16	2807.77
425.36	2955.22
425.57	3100.62
425.78	3043.28
425.98	2969.55
426.19	2928.60
426.39	2791.38
426.60	2922.45
426.81	2963.41
427.01	3002.32
427.22	2850.77
427.42	2699.22
427.63	2785.24
427.83	3147.73
428.04	3215.31
428.25	2916.31
428.45	2977.75
428.66	3162.06
428.86	2949.08
429.07	2867.16
429.28	2971.60
429.48	3014.61
429.69	2906.07
429.89	2914.26
430.10	2711.51
430.30	3168.21
430.51	3098.58
430.71	2746.33
430.92	2881.49
431.13	2861.01
431.33	3094.48
431.54	2959.31
431.74	3094.48
431.95	3430.35
432.15	2850.77
432.36	2848.72
432.56	2826.20
432.77	3301.33
432.98	3282.89
433.18	2875.35
433.39	2725.85
433.59	2828.24
433.80	3221.45
434.00	3037.14
434.21	2830.29
434.41	2910.16
434.62	3393.48
434.82	2803.67
435.03	2676.70
435.23	3033.04
435.44	2772.95
435.64	2805.72
435.85	2881.49
436.06	3100.62
436.26	3180.50
436.47	2856.92
436.67	2766.81
436.88	2944.98
437.08	3209.17
437.29	2961.36
437.49	2996.18
437.70	3196.88
437.90	2985.94
438.11	3094.48
438.31	2875.35
438.52	3227.60
438.72	3096.53
438.93	3112.91
439.13	2858.96
439.34	3131.34
439.54	2858.96
439.75	2967.51
439.95	2918.36
440.16	2799.57
440.36	3012.56
440.57	2815.96
440.77	2826.20
440.98	3006.42
441.18	3090.38
441.39	2781.14
441.59	2701.27
441.80	3391.44
442.00	3010.51
442.21	2971.60
442.41	2678.74
442.62	3200.98
442.82	2932.69
443.02	2869.20
443.23	2914.26
443.43	2967.51
443.64	3133.39
443.84	2738.13
444.05	2971.60
444.25	3045.33
444.46	2781.14
444.66	2858.96
444.87	3065.81
445.07	2736.09
445.28	2895.83
445.48	2955.22
445.69	2967.51
445.89	3403.72
446.09	3000.27
446.30	3217.36
446.50	3217.36
446.71	4630.46
446.91	5820.33
447.12	6492.06
447.32	6934.42
447.53	6682.52
447.73	5805.99
447.93	4992.95
448.14	4792.25
448.34	4857.78
448.55	4024.26
448.75	4028.35
448.96	3784.65
449.16	3555.27
449.36	3434.44
449.57	3082.19
449.77	2959.31
449.98	2959.31
450.18	3037.14
450.39	2850.77
450.59	3098.58
450.79	2969.55
451.00	2867.16
451.20	3082.19
451.41	2797.53
451.61	3039.19
451.81	2973.65
452.02	2854.87
452.22	2805.72
452.43	2891.73
452.63	2854.87
452.84	2918.36
453.04	2744.28
453.24	3006.42
453.45	2877.40
453.65	2863.06
453.86	2871.25
454.06	3041.23
454.26	2916.31
454.47	2826.20
454.67	3082.19
454.87	3002.32
455.08	2932.69
455.28	3020.75
455.49	3004.37
455.69	2828.24
455.89	3375.05
456.10	2994.13
456.30	2811.86
456.51	3131.34
456.71	2910.16
456.91	2994.13
457.12	2842.58
457.32	3084.24
457.52	2789.33
457.73	3012.56
457.93	3028.95
458.14	2881.49
458.34	2615.26
458.54	2856.92
458.75	2856.92
458.95	3123.15
459.15	3012.56
459.36	2883.54
459.56	2887.64
459.76	3463.12
459.97	3082.19
460.17	2908.12
460.37	2977.75
460.58	2977.75
460.78	3112.91
460.99	2854.87
461.19	2885.59
461.39	2957.27
461.60	2924.50
461.80	2873.30
462.00	2715.61
462.21	2940.88
462.41	2822.10
462.61	2701.27
462.82	2600.92
463.02	3100.62
463.22	3004.37
463.43	2867.16
463.63	2760.66
463.83	3200.98
464.04	3022.80
464.24	2867.16
464.44	2813.91
464.64	3020.75
464.85	3102.67
465.05	2891.73
465.25	2842.58
465.46	2861.01
465.66	3102.67
465.86	2942.93
466.07	2799.57
466.27	2936.79
466.47	2731.99
466.68	2721.75
466.88	3071.95
467.08	3084.24
467.29	3155.92
467.49	2893.78
467.69	2910.16
467.89	2983.89
468.10	2992.08
468.30	2934.74
468.50	2963.41
468.71	3119.06
468.91	2795.48
469.11	3039.19
469.31	2895.83
469.52	2856.92
469.72	3235.79
469.92	3104.72
470.13	2781.14
470.33	2998.23
470.53	3051.47
470.73	3258.32
470.94	3446.73
471.14	3637.19
471.34	4067.27
471.54	3825.61
471.75	3551.18
471.95	3311.57
472.15	3313.61
472.36	3344.33
472.56	3215.31
472.76	3395.53
472.96	3286.99
473.17	3049.43
473.37	2971.60
473.57	2897.88
473.77	3055.57
473.98	2996.18
474.18	2756.57
474.38	3491.79
474.58	2924.50
474.79	2670.55
474.99	2983.89
475.19	3203.02
475.39	2822.10
475.60	2936.79
475.80	2791.38
476.00	3049.43
476.20	2910.16
476.41	2881.49
476.61	2904.02
476.81	3223.50
477.01	3024.85
477.21	2951.12
477.42	3000.27
477.62	2854.87
477.82	3002.32
478.02	2826.20
478.23	2820.05
478.43	2826.20
478.63	2879.44
478.83	2852.82
479.03	2901.97
479.24	3297.23
479.44	3465.16
479.64	2824.15
479.84	2615.26
480.04	2830.29
480.25	3143.63
480.45	2703.32
480.65	2852.82
480.85	3270.61
481.06	2863.06
481.26	2947.03
481.46	2920.40
481.66	3030.99
481.86	2852.82
482.06	3030.99
482.27	2877.40
482.47	2881.49
482.67	3114.96
482.87	2826.20
483.07	2992.08
483.28	2914.26
483.48	2795.48
483.68	2877.40
483.88	2713.56
484.08	2641.88
484.29	2742.23
484.49	2873.30
484.69	2682.84
484.89	3106.77
485.09	3139.54
485.29	2889.68
485.50	2971.60
485.70	2824.15
485.90	3221.45
486.10	3039.19
486.30	2854.87
486.50	3170.26
486.71	3061.71
486.91	2953.17
487.11	3020.75
487.31	2666.46
487.51	3137.49
487.71	2799.57
487.91	2863.06
488.12	2828.24
488.32	2637.78
488.52	2793.43
488.72	2574.30
488.92	2990.03
489.12	3141.58
489.32	3014.61
489.53	2891.73
489.73	2822.10
489.93	3157.97
490.13	2840.53
490.33	2738.13
490.53	3049.43
490.73	3078.10
490.94	2707.41
491.14	2985.94
491.34	3108.82
491.54	3102.67
491.74	3686.34
491.94	4138.94
492.14	4599.74
492.34	4757.43
492.54	4341.69
492.75	3721.16
492.95	3854.28
493.15	3620.81
493.35	3506.12
493.55	3430.35
493.75	3301.33
493.95	3495.88
494.15	3135.44
494.35	2889.68
494.56	3000.27
494.76	2809.81
494.96	2904.02
495.16	2805.72
495.36	3049.43
495.56	3131.34
495.76	2936.79
495.96	2869.20
496.16	2836.44
496.36	3409.87
496.56	2854.87
496.77	2928.60
496.97	2918.36
497.17	3207.12
497.37	2660.31
497.57	2926.55
497.77	3028.95
497.97	2820.05
498.17	2844.63
498.37	2820.05
498.57	3057.62
498.77	2861.01
498.97	2965.46
499.17	3164.11
499.38	3049.43
499.58	3133.39
499.78	3041.23
499.98	3037.14
500.18	2979.79
500.38	2820.05
500.58	3063.76
500.78	3424.20
500.98	5582.76
501.18	7350.16
501.38	8687.48
501.58	9641.84
501.78	9680.75
501.98	8042.37
502.18	6768.54
502.38	5875.62
502.58	5724.07
502.78	5091.25
502.98	4820.92
503.18	4591.55
503.38	4323.26
503.59	3790.79
503.79	3719.11
503.99	3391.44
504.19	3502.03
504.39	3493.83
504.59	3344.33
504.79	3262.41
504.99	3473.36
505.19	3155.92
505.39	3063.76
505.59	3233.74
505.79	3299.28
505.99	3133.39
506.19	2953.17
506.39	3086.29
506.59	2873.30
506.79	2930.64
506.99	3082.19
507.19	2877.40
507.39	3012.56
507.59	2811.86
507.79	2912.21
507.99	2746.33
508.19	2953.17
508.39	2871.25
508.59	2822.10
508.79	2953.17
508.99	3323.85
509.19	2891.73
509.39	2901.97
509.59	2676.70
509.79	2875.35
509.99	2967.51
510.19	2969.55
510.39	2987.99
510.59	3026.90
510.79	2848.72
510.99	2623.45
511.19	2852.82
511.39	3315.66
511.59	3188.69
511.79	3037.14
511.99	2869.20
512.19	3293.13
512.38	3014.61
512.58	2797.53
512.78	2824.15
512.98	3293.13
513.18	3289.04
513.38	2748.37
513.58	2963.41
513.78	2969.55
513.98	3041.23
514.18	2854.87
514.38	2850.77
514.58	3018.71
514.78	2842.58
514.98	2727.89
515.18	2895.83
515.38	2836.44
515.58	3307.47
515.78	2858.96
515.98	2963.41
516.18	3112.91
516.38	2889.68
516.57	2815.96
516.77	2848.72
516.97	3149.78
517.17	2918.36
517.37	2658.26
517.57	2936.79
517.77	3010.51
517.97	2873.30
518.17	2895.83
518.37	2779.09
518.57	2863.06
518.77	2858.96
518.97	2887.64
519.16	2877.40
519.36	3172.30
519.56	2875.35
519.76	2805.72
519.96	2899.92
520.16	3217.36
520.36	2785.24
520.56	3037.14
520.76	2822.10
520.96	2967.51
521.16	3170.26
521.35	3065.81
521.55	3000.27
521.75	3024.85
521.95	2838.48
522.15	2863.06
522.35	2639.83
522.55	2867.16
522.75	3157.97
522.95	2787.29
523.14	2752.47
523.34	3014.61
523.54	2936.79
523.74	3074.00
523.94	2922.45
524.14	2815.96
524.34	3018.71
524.54	3047.38
524.73	2897.88
524.93	3065.81
525.13	2951.12
525.33	2746.33
525.53	3092.43
525.73	3196.88
525.93	3059.67
526.13	2893.78
526.32	2764.76
526.52	3184.59
526.72	3110.86
526.92	2834.39
527.12	2754.52
527.32	2656.22
527.52	3071.95
527.71	2858.96
527.91	2836.44
528.11	2942.93
528.31	2987.99
528.51	2852.82
528.71	3012.56
528.90	3008.47
529.10	3057.62
529.30	2899.92
529.50	2607.06
529.70	3119.06
529.90	3006.42
530.09	2858.96
530.29	2697.17
530.49	2832.34
530.69	3510.22
530.89	2959.31
531.09	2951.12
531.28	2940.88
531.48	3241.93
531.68	2963.41
531.88	2809.81
532.08	3198.93
532.28	2893.78
532.47	2951.12
532.67	2854.87
532.87	3057.62
533.07	2869.20
533.27	2901.97
533.46	2965.46
533.66	3114.96
533.86	2916.31
534.06	2936.79
534.26	2820.05
534.45	2942.93
534.65	3172.30
534.85	2875.35
535.05	2803.67
535.25	3131.34
535.44	2701.27
535.64	2965.46
535.84	2858.96
536.04	2893.78
536.24	2889.68
536.43	2822.10
536.63	2867.16
536.83	2940.88
537.03	2987.99
537.22	2658.26
537.42	2607.06
537.62	3000.27
537.82	2828.24
538.02	2969.55
538.21	2930.64
538.41	3512.27
538.61	3157.97
538.81	2965.46
539.00	2895.83
539.20	2711.51
539.40	2910.16
539.60	2840.53
539.79	3018.71
539.99	3000.27
540.19	2791.38
540.39	2904.02
540.58	2918.36
540.78	3119.06
540.98	3016.66
541.18	3074.00
541.37	2947.03
541.57	2973.65
541.77	2996.18
541.97	2809.81
542.16	2639.83
542.36	2813.91
542.56	2899.92
542.76	3057.62
542.95	2918.36
543.15	3174.35
543.35	3162.06
543.54	2818.00
543.74	2807.77
543.94	3233.74
544.14	2844.63
544.33	3018.71
544.53	2807.77
544.73	2998.23
544.93	2887.64
545.12	2832.34
545.32	2893.78
545.52	2863.06
545.71	2674.65
545.91	2791.38
546.11	2711.51
546.30	2813.91
546.50	2928.60
546.70	2908.12
546.90	2861.01
547.09	2676.70
547.29	2871.25
547.49	2920.40
547.68	2832.34
547.88	2795.48
548.08	3086.29
548.27	3243.98
548.47	2807.77
548.67	2918.36
548.87	3037.14
549.06	2787.29
549.26	2738.13
549.46	3059.67
549.65	2848.72
549.85	2877.40
550.05	2885.59
550.24	2766.81
550.44	2936.79
550.64	2930.64
550.83	2889.68
551.03	3188.69
551.23	3149.78
551.42	2861.01
551.62	2787.29
551.82	2994.13
552.01	2875.35
552.21	3223.50
552.41	2854.87
552.60	3291.09
552.80	2973.65
553.00	2791.38
553.19	2914.26
553.39	3307.47
553.59	2779.09
553.78	2953.17
553.98	2826.20
554.17	2785.24
554.37	2994.13
554.57	2932.69
554.76	2705.37
554.96	2877.40
555.16	3018.71
555.35	2947.03
555.55	2975.70
555.75	3035.09
555.94	3172.30
556.14	2731.99
556.33	2854.87
556.53	2961.36
556.73	3020.75
556.92	2910.16
557.12	2820.05
557.32	3309.52
557.51	3315.66
557.71	2897.88
557.90	3043.28
558.10	3264.46
558.30	2836.44
558.49	2930.64
558.69	2938.84
558.88	2983.89
559.08	3012.56
559.28	2877.40
559.47	2865.11
559.67	3059.67
559.86	3305.42
560.06	2811.86
560.26	2895.83
560.45	3119.06
560.65	2979.79
560.84	3086.29
561.04	2750.42
561.24	3151.82
561.43	2723.80
561.63	3112.91
561.82	2926.55
562.02	3057.62
562.22	2832.34
562.41	2746.33
562.61	2846.68
562.80	2795.48
563.00	3397.58
563.19	2828.24
563.39	2959.31
563.59	3117.01
563.78	2838.48
563.98	2660.31
564.17	2803.67
564.37	2731.99
564.56	2889.68
564.76	2754.52
564.96	3098.58
565.15	2961.36
565.35	3432.40
565.54	2803.67
565.74	2969.55
565.93	3051.47
566.13	3010.51
566.32	3016.66
566.52	2969.55
566.71	2996.18
566.91	3127.25
567.11	2987.99
567.30	2799.57
567.50	3018.71
567.69	3028.95
567.89	2721.75
568.08	2717.65
568.28	3096.53
568.47	2836.44
568.67	2877.40
568.86	2772.95
569.06	3117.01
569.25	2918.36
569.45	2734.04
569.64	2826.20
569.84	2912.21
570.04	2953.17
570.23	2801.62
570.43	2836.44
570.62	3028.95
570.82	3305.42
571.01	2688.98
571.21	2826.20
571.40	2840.53
571.60	3061.71
571.79	2953.17
571.99	2899.92
572.18	2914.26
572.38	3143.63
572.57	2813.91
572.77	2873.30
572.96	3416.01
573.16	3059.67
573.35	2910.16
573.55	3071.95
573.74	2977.75
573.94	2961.36
574.13	2830.29
574.33	3006.42
574.52	3190.74
574.71	3045.33
574.91	2871.25
575.10	2693.08
575.30	2934.74
575.49	2807.77
575.69	2766.81
575.88	2881.49
576.08	2938.84
576.27	3200.98
576.47	2803.67
576.66	3012.56
576.86	3217.36
577.05	3055.57
577.25	3004.37
577.44	3149.78
577.64	2928.60
577.83	3178.45
578.02	2768.85
578.22	3002.32
578.41	3309.52
578.61	2904.02
578.80	2762.71
579.00	2842.58
579.19	3000.27
579.39	3092.43
579.58	3063.76
579.77	2949.08
579.97	3254.22
580.16	3180.50
580.36	2983.89
580.55	2981.84
580.75	3067.86
580.94	2944.98
581.13	3084.24
581.33	3016.66
581.52	2889.68
581.72	3293.13
581.91	3043.28
582.11	2795.48
582.30	3157.97
582.49	2971.60
582.69	3071.95
582.88	2891.73
583.08	3071.95
583.27	3180.50
583.47	2996.18
583.66	2813.91
583.85	2807.77
584.05	2979.79
584.24	2973.65
584.44	2944.98
584.63	3160.02
584.82	3200.98
585.02	3092.43
585.21	2981.84
585.41	3082.19
585.60	2983.89
585.79	3090.38
585.99	3198.93
586.18	3096.53
586.37	3930.05
586.57	5822.38
586.76	16627.46
586.96	35702.24
587.15	48418.08
587.34	57031.83
587.54	61133.92
587.73	54582.46
587.93	38880.69
588.12	29576.76
588.31	24389.26
588.51	21173.95
588.70	19529.43
588.89	17053.44
589.09	14798.62
589.28	12730.17
589.47	9785.19
589.67	7569.29
589.86	5973.92
590.06	4655.03
590.25	4122.56
590.44	3583.95
590.64	3270.61
590.83	3188.69
591.02	3229.65
591.22	2912.21
591.41	2922.45
591.60	2987.99
591.80	3418.06
591.99	2721.75
592.18	2879.44
592.38	3114.96
592.57	2985.94
592.76	2920.40
592.96	2981.84
593.15	2994.13
593.34	3155.92
593.54	2834.39
593.73	3026.90
593.92	3108.82
594.12	3037.14
594.31	2871.25
594.50	3160.02
594.70	3000.27
594.89	3413.96
595.08	2742.23
595.28	2990.03
595.47	3588.04
595.66	3164.11
595.86	2799.57
596.05	2682.84
596.24	2856.92
596.43	3231.69
596.63	2985.94
596.82	3000.27
597.01	3069.91
597.21	3211.22
597.40	2871.25
597.59	2897.88
597.79	2934.74
597.98	3147.73
598.17	2854.87
598.36	2897.88
598.56	3102.67
598.75	2865.11
598.94	2965.46
599.14	2834.39
599.33	2967.51
599.52	3123.15
599.71	2981.84
599.91	2899.92
600.10	3045.33
600.29	3028.95
600.48	2901.97
600.68	3033.04
600.87	3090.38
601.06	2854.87
601.26	3012.56
601.45	3030.99
601.64	2899.92
601.83	3295.18
602.03	2877.40
602.22	2697.17
602.41	3133.39
602.60	3385.29
602.80	2947.03
602.99	2979.79
603.18	2930.64
603.37	3010.51
603.57	2871.25
603.76	2877.40
603.95	3274.70
604.14	2944.98
604.34	2840.53
604.53	2764.76
604.72	3014.61
604.91	3143.63
605.10	2908.12
605.30	2811.86
605.49	3391.44
605.68	3033.04
605.87	2928.60
606.07	2787.29
606.26	3002.32
606.45	3074.00
606.64	2869.20
606.84	2772.95
607.03	2955.22
607.22	3162.06
607.41	2887.64
607.60	2820.05
607.80	3145.68
607.99	2975.70
608.18	2893.78
608.37	2811.86
608.56	2842.58
608.76	3223.50
608.95	2996.18
609.14	2922.45
609.33	3213.26
609.52	3186.64
609.72	2967.51
609.91	2936.79
610.10	3088.34
610.29	3219.41
610.48	3018.71
610.68	2977.75
610.87	2983.89
611.06	3137.49
611.25	2832.34
611.44	2955.22
611.63	2930.64
611.83	3180.50
612.02	2811.86
612.21	3020.75
612.40	2701.27
612.59	2828.24
612.79	2772.95
612.98	2979.79
613.17	3239.89
613.36	3022.80
613.55	2926.55
613.74	2887.64
613.93	2992.08
614.13	2969.55
614.32	3086.29
614.51	2940.88
614.70	3022.80
614.89	2918.36
615.08	2918.36
615.28	3327.95
615.47	2770.90
615.66	3043.28
615.85	2881.49
616.04	2901.97
616.23	2910.16
616.42	2897.88
616.62	2916.31
616.81	2877.40
617.00	2994.13
617.19	3082.19
617.38	2856.92
617.57	2893.78
617.76	3024.85
617.95	3098.58
618.15	2916.31
618.34	3080.14
618.53	2852.82
618.72	3229.65
618.91	3059.67
619.10	2961.36
619.29	2951.12
619.48	3037.14
619.68	2809.81
619.87	2852.82
620.06	2793.43
620.25	3114.96
620.44	2826.20
620.63	2856.92
620.82	3028.95
621.01	3016.66
621.20	2820.05
621.39	2877.40
621.59	3010.51
621.78	2998.23
621.97	2881.49
622.16	3033.04
622.35	3037.14
622.54	3166.16
622.73	2965.46
622.92	2684.89
623.11	3076.05
623.30	2959.31
623.49	2987.99
623.68	2740.18
623.88	3307.47
624.07	2922.45
624.26	2781.14
624.45	2899.92
624.64	2922.45
624.83	3069.91
625.02	2822.10
625.21	2932.69
625.40	3133.39
625.59	3196.88
625.78	2910.16
625.97	3053.52
626.16	3198.93
626.35	3127.25
626.54	2840.53
626.74	3098.58
626.93	2914.26
627.12	2920.40
627.31	2983.89
627.50	2893.78
627.69	3209.17
627.88	2838.48
628.07	2803.67
628.26	2742.23
628.45	2881.49
628.64	2777.05
628.83	2863.06
629.02	2787.29
629.21	3131.34
629.40	2996.18
629.59	2805.72
629.78	2813.91
629.97	2990.03
630.16	3024.85
630.35	2838.48
630.54	2938.84
630.73	2795.48
630.92	2947.03
631.11	2807.77
631.30	2893.78
631.49	3121.10
631.68	2942.93
631.87	2877.40
632.06	2805.72
632.25	3375.05
632.44	2910.16
632.63	2883.54
632.82	2826.20
633.01	2809.81
633.20	3018.71
633.39	2875.35
633.58	2691.03
633.77	2975.70
633.96	3129.30
634.15	3045.33
634.34	3020.75
634.53	3024.85
634.72	2949.08
634.91	2705.37
635.10	2940.88
635.29	3065.81
635.48	3004.37
635.67	2711.51
635.86	2738.13
636.05	3207.12
636.24	3016.66
636.43	2740.18
636.62	2967.51
636.81	2607.06
637.00	2965.46
637.19	2848.72
637.38	2893.78
637.57	2863.06
637.76	2981.84
637.95	3088.34
638.14	2846.68
638.33	2992.08
638.52	3057.62
638.71	2740.18
638.89	2736.09
639.08	3479.50
639.27	3129.30
639.46	3135.44
639.65	3307.47
639.84	3446.73
640.03	3526.60
640.22	3188.69
640.41	3274.70
640.60	2977.75
640.79	3110.86
640.98	3010.51
641.17	3037.14
641.36	3182.54
641.55	3151.82
641.74	2830.29
641.92	2772.95
642.11	2815.96
642.30	2963.41
642.49	2742.23
642.68	2822.10
642.87	3096.53
643.06	3039.19
643.25	2779.09
643.44	2772.95
643.63	2926.55
643.82	3217.36
644.00	2725.85
644.19	2926.55
644.38	2762.71
644.57	3086.29
644.76	2877.40
644.95	2914.26
645.14	3033.04
645.33	2944.98
645.52	2992.08
645.71	2719.70
645.89	2789.33
646.08	2930.64
646.27	2838.48
646.46	3100.62
646.65	2746.33
646.84	2977.75
647.03	2725.85
647.22	3024.85
647.40	3004.37
647.59	2897.88
647.78	2709.46
647.97	2783.19
648.16	2861.01
648.35	3246.03
648.54	3125.20
648.73	2930.64
648.91	3180.50
649.10	3037.14
649.29	2787.29
649.48	2809.81
649.67	3020.75
649.86	2994.13
650.05	2891.73
650.23	3002.32
650.42	2811.86
650.61	3190.74
650.80	3035.09
650.99	3178.45
651.18	3155.92
651.36	3131.34
651.55	2768.85
651.74	3004.37
651.93	2949.08
652.12	2906.07
652.31	2895.83
652.49	2854.87
652.68	2922.45
652.87	3233.74
653.06	2906.07
653.25	3194.83
653.44	2959.31
653.62	3336.14
653.81	2877.40
654.00	2873.30
654.19	3141.58
654.38	3426.25
654.56	2992.08
654.75	2844.63
654.94	3090.38
655.13	3006.42
655.32	2852.82
655.51	2916.31
655.69	2834.39
655.88	3106.77
656.07	2639.83
656.26	2877.40
656.45	2748.37
656.63	2977.75
656.82	2906.07
657.01	3098.58
657.20	2858.96
657.38	3203.02
657.57	2840.53
657.76	2611.16
657.95	3022.80
658.14	2820.05
658.32	2914.26
658.51	2715.61
658.70	3026.90
658.89	2992.08
659.08	2875.35
659.26	3096.53
659.45	2850.77
659.64	3147.73
659.83	2785.24
660.01	3284.94
660.20	3086.29
660.39	3196.88
660.58	2541.53
660.76	2873.30
660.95	2766.81
661.14	2961.36
661.33	2766.81
661.51	2918.36
661.70	2840.53
661.89	3063.76
662.08	2867.16
662.26	2736.09
662.45	2869.20
662.64	3295.18
662.83	2957.27
663.01	2768.85
663.20	2938.84
663.39	3135.44
663.58	2807.77
663.76	2770.90
663.95	2985.94
664.14	2815.96
664.32	2830.29
664.51	2787.29
664.70	2682.84
664.89	3002.32
665.07	2723.80
665.26	2928.60
665.45	2766.81
665.64	3016.66
665.82	2813.91
666.01	2969.55
666.20	2871.25
666.38	3125.20
666.57	3125.20
666.76	4827.06
666.95	10991.45
667.13	17743.60
667.32	21403.32
667.51	24104.59
667.69	25222.78
667.88	20969.15
668.07	15224.60
668.25	13164.34
668.44	11140.95
668.63	9772.91
668.81	8517.50
669.00	7321.49
669.19	6743.96
669.38	5859.24
669.56	5107.63
669.75	4474.81
669.94	3954.63
670.12	3370.96
670.31	3200.98
670.50	3057.62
670.68	3186.64
670.87	3149.78
671.06	2889.68
671.24	2910.16
671.43	3221.45
671.62	2994.13
671.80	2885.59
671.99	2981.84
672.18	2961.36
672.36	3166.16
672.55	2981.84
672.74	2928.60
672.92	2844.63
673.11	3096.53
673.29	2768.85
673.48	3012.56
673.67	2955.22
673.85	3102.67
674.04	2789.33
674.23	2893.78
674.41	3350.48
674.60	2795.48
674.79	2654.17
674.97	2754.52
675.16	3137.49
675.34	3162.06
675.53	2818.00
675.72	2940.88
675.90	3254.22
676.09	2955.22
676.28	2981.84
676.46	2752.47
676.65	3147.73
676.83	2824.15
677.02	2922.45
677.21	2910.16
677.39	3000.27
677.58	2838.48
677.77	2754.52
677.95	2758.61
678.14	2969.55
678.32	2906.07
678.51	2820.05
678.70	3182.54
678.88	2891.73
679.07	2994.13
679.25	2844.63
679.44	2906.07
679.63	2764.76
679.81	3014.61
680.00	3090.38
680.18	2867.16
680.37	3209.17
680.55	2971.60
680.74	2731.99
680.93	2648.02
681.11	3022.80
681.30	2949.08
681.48	2858.96
681.67	2869.20
681.85	3006.42
682.04	2918.36
682.23	2994.13
682.41	2899.92
682.60	2932.69
682.78	2891.73
682.97	2752.47
683.15	2848.72
683.34	3059.67
683.53	3188.69
683.71	2695.13
683.90	2975.70
684.08	3262.41
684.27	2893.78
684.45	2938.84
684.64	2990.03
684.82	2918.36
685.01	3055.57
685.19	2922.45
685.38	3215.31
685.57	2928.60
685.75	2838.48
685.94	2824.15
686.12	2826.20
686.31	2930.64
686.49	3155.92
686.68	2562.01
686.86	2994.13
687.05	2893.78
687.23	3270.61
687.42	2820.05
687.60	2777.05
687.79	3084.24
687.97	3258.32
688.16	2940.88
688.34	3016.66
688.53	2717.65
688.71	3149.78
688.90	3098.58
689.08	2830.29
689.27	2818.00
689.45	3074.00
689.64	2990.03
689.82	3000.27
690.01	3059.67
690.19	2981.84
690.38	2899.92
690.56	3022.80
690.75	2822.10
690.93	2930.64
691.12	2824.15
691.30	2947.03
691.49	2971.60
691.67	2897.88
691.86	3190.74
692.04	2815.96
692.23	2869.20
692.41	2930.64
692.60	3164.11
692.78	3065.81
692.97	2987.99
693.15	3047.38
693.34	3123.15
693.52	3131.34
693.71	2920.40
693.89	2861.01
694.08	2746.33
694.26	2852.82
694.44	3086.29
694.63	3074.00
694.81	2772.95
695.00	2785.24
695.18	3170.26
695.37	3442.64
695.55	2885.59
695.74	2910.16
695.92	2944.98
696.10	3209.17
696.29	2811.86
696.47	2840.53
696.66	2750.42
696.84	2795.48
697.03	2957.27
697.21	3110.86
697.40	4390.84
697.58	3180.50
697.76	2826.20
697.95	2830.29
698.13	2744.28
698.32	2850.77
698.50	2848.72
698.68	2883.54
698.87	3067.86
699.05	3291.09
699.24	2838.48
699.42	2797.53
699.61	2977.75
699.79	2951.12
699.97	2889.68
700.16	2789.33
700.34	2828.24
700.53	2955.22
700.71	3098.58
700.89	2916.31
701.08	2959.31
701.26	2926.55
701.45	3215.31
701.63	2838.48
701.81	2887.64
702.00	2901.97
702.18	2998.23
702.37	2854.87
702.55	3270.61
702.73	3028.95
702.92	2914.26
703.10	3106.77
703.28	3096.53
703.47	2867.16
703.65	3069.91
703.84	3028.95
704.02	2912.21
704.20	3176.40
704.39	2848.72
704.57	2916.31
704.75	3117.01
704.94	3082.19
705.12	2981.84
705.30	3499.98
705.49	6789.02
705.67	12871.48
705.86	18366.18
706.04	20522.69
706.22	22742.69
706.41	22081.20
706.59	17057.53
706.77	13113.14
706.96	11386.71
707.14	10360.67
707.32	9052.02
707.51	7894.92
707.69	6512.54
707.87	5357.49
708.06	4521.92
708.24	3891.14
708.42	3585.99
708.61	3674.06
708.79	2981.84
708.97	2998.23
709.16	3127.25
709.34	3039.19
709.52	2912.21
709.71	2834.39
709.89	3084.24
710.07	2840.53
710.26	2832.34
710.44	2920.40
710.62	3069.91
710.80	2977.75
710.99	3016.66
711.17	2932.69
711.35	2869.20
711.54	2846.68
711.72	3024.85
711.90	2893.78
712.09	3041.23
712.27	2916.31
712.45	2961.36
712.63	2824.15
712.82	3074.00
713.00	2934.74
713.18	2987.99
713.37	3071.95
713.55	3149.78
713.73	3098.58
713.91	2877.40
714.10	2895.83
714.28	2959.31
714.46	3033.04
714.65	3006.42
714.83	2947.03
715.01	2936.79
715.19	2869.20
715.38	2744.28
715.56	2975.70
715.74	2797.53
715.92	2822.10
716.11	3069.91
716.29	2664.41
716.47	2932.69
716.65	2883.54
716.84	2738.13
717.02	2877.40
717.20	2748.37
717.38	2869.20
717.57	3022.80
717.75	2926.55
717.93	2908.12
718.11	3080.14
718.30	2781.14
718.48	2920.40
718.66	3172.30
718.84	3145.68
719.03	2873.30
719.21	2709.46
719.39	3297.23
719.57	3067.86
719.75	2961.36
719.94	2815.96
720.12	2899.92
720.30	2990.03
720.48	2928.60
720.67	2918.36
720.85	2750.42
721.03	2934.74
721.21	2832.34
721.39	2967.51
721.58	3143.63
721.76	2963.41
721.94	2942.93
722.12	2975.70
722.30	3203.02
722.49	2848.72
722.67	2959.31
722.85	2824.15
723.03	2746.33
723.21	2873.30
723.40	2873.30
723.58	2998.23
723.76	3106.77
723.94	3186.64
724.12	2875.35
724.30	3117.01
724.49	3153.87
724.67	2824.15
724.85	3016.66
725.03	2756.57
725.21	3039.19
725.40	3237.84
725.58	2807.77
725.76	3100.62
725.94	3067.86
726.12	2856.92
726.30	2906.07
726.49	2826.20
726.67	2944.98
726.85	3135.44
727.03	3436.49
727.21	4429.76
727.39	5449.64
727.57	5906.34
727.76	6205.35
727.94	6348.70
728.12	5410.73
728.30	4675.51
728.48	4370.37
728.66	4083.65
728.84	3903.43
729.03	3448.78
729.21	3305.42
729.39	3209.17
729.57	3004.37
729.75	3016.66
729.93	2975.70
730.11	2840.53
730.30	2934.74
730.48	2953.17
730.66	2983.89
730.84	3035.09
731.02	2936.79
731.20	2846.68
731.38	3000.27
731.56	2762.71
731.74	2666.46
731.93	3004.37
732.11	2951.12
732.29	2846.68
732.47	3110.86
732.65	2987.99
732.83	3041.23
733.01	3033.04
733.19	2865.11
733.37	3004.37
733.56	2918.36
733.74	2824.15
733.92	3211.22
734.10	2906.07
734.28	3018.71
734.46	2705.37
734.64	2918.36
734.82	2901.97
735.00	2785.24
735.18	2809.81
735.36	2967.51
735.54	3047.38
735.73	2883.54
735.91	2961.36
736.09	3209.17
736.27	2955.22
736.45	2932.69
736.63	2717.65
736.81	2840.53
736.99	3104.72
737.17	3129.30
737.35	2863.06
737.53	2987.99
737.71	2922.45
737.89	3020.75
738.07	2914.26
738.25	2836.44
738.43	2682.84
738.61	2822.10
738.80	2787.29
738.98	2770.90
739.16	2834.39
739.34	2846.68
739.52	3147.73
739.70	2996.18
739.88	3108.82
740.06	3074.00
740.24	2602.97
740.42	3192.78
740.60	2734.04
740.78	2848.72
740.96	2664.41
741.14	2914.26
741.32	3024.85
741.50	2738.13
741.68	3108.82
741.86	3192.78
742.04	2725.85
742.22	2772.95
742.40	2889.68
742.58	2930.64
742.76	2818.00
742.94	3086.29
743.12	2670.55
743.30	2949.08
743.48	3008.47
743.66	2783.19
743.84	2867.16
744.02	2949.08
744.20	2883.54
744.38	2766.81
744.56	2795.48
744.74	3301.33
744.92	3051.47
745.10	3119.06
745.28	2949.08
745.46	3340.24
745.64	2895.83
745.82	2926.55
746.00	2830.29
746.18	3049.43
746.36	2936.79
746.54	2975.70
746.72	2893.78
746.90	2838.48
747.08	3125.20
747.26	2873.30
747.44	3000.27
747.62	3100.62
747.80	3033.04
747.98	3004.37
748.15	2889.68
748.33	3319.76
748.51	3039.19
748.69	3000.27
748.87	2840.53
749.05	2955.22
749.23	2865.11
749.41	2879.44
749.59	2813.91
749.77	3149.78
749.95	2994.13
750.13	2736.09
750.31	2959.31
750.49	3010.51
750.67	3153.87
750.85	2994.13
751.03	2895.83
751.20	3346.38
751.38	2959.31
751.56	2897.88
751.74	2895.83
751.92	2969.55
752.10	2742.23
752.28	3014.61
752.46	2867.16
752.64	2971.60
752.82	3004.37
753.00	3030.99
753.18	2744.28
753.35	2934.74
753.53	2928.60
753.71	2783.19
753.89	2926.55
754.07	2990.03
754.25	3104.72
754.43	2891.73
754.61	2777.05
754.79	3057.62
754.97	2906.07
755.14	3016.66
755.32	2740.18
755.50	2981.84
755.68	3074.00
755.86	2779.09
756.04	2793.43
756.22	2643.93
756.40	3139.54
756.57	3110.86
756.75	2789.33
756.93	3198.93
757.11	2987.99
757.29	2789.33
757.47	2871.25
757.65	2715.61
757.82	2637.78
758.00	2828.24
758.18	2869.20
758.36	2877.40
758.54	3209.17
758.72	2703.32
758.90	2979.79
759.07	3022.80
759.25	2719.70
759.43	2885.59
759.61	2768.85
759.79	4233.15
759.97	3203.02
760.15	2861.01
760.32	2885.59
760.50	3074.00
760.68	3246.03
760.86	2682.84
761.04	3110.86
761.22	3143.63
761.39	2992.08
761.57	2994.13
761.75	2863.06
761.93	3033.04
762.11	2992.08
762.28	2979.79
762.46	2824.15
762.64	3186.64
762.82	2787.29
763.00	2856.92
763.18	3024.85
763.35	2783.19
763.53	3100.62
763.71	2920.40
763.89	2850.77
764.07	2973.65
764.24	2883.54
764.42	3002.32
764.60	2899.92
764.78	3088.34
764.96	3188.69
765.13	3033.04
765.31	2742.23
765.49	3125.20
765.67	2777.05
765.84	2875.35
766.02	2779.09
766.20	2738.13
766.38	3018.71
766.56	2971.60
766.73	2883.54
766.91	3016.66
767.09	2938.84
767.27	2916.31
767.44	2752.47
767.62	3123.15
767.80	2967.51
767.98	2795.48
768.15	2861.01
768.33	3151.82
768.51	3092.43
768.69	2969.55
768.87	2867.16
769.04	3030.99
769.22	3454.92
769.40	3024.85
769.58	3018.71
769.75	3026.90
769.93	3143.63
770.11	2803.67
770.28	2758.61
770.46	3151.82
770.64	3033.04
770.82	2852.82
770.99	2822.10
771.17	3127.25
771.35	2967.51
771.53	2924.50
771.70	2875.35
771.88	3149.78
772.06	3002.32
772.23	2764.76
772.41	2912.21
772.59	2940.88
772.77	2842.58
772.94	2897.88
773.12	2912.21
773.30	2887.64
773.47	2944.98
773.65	2836.44
773.83	3002.32
774.01	2990.03
774.18	2650.07
774.36	2852.82
774.54	2762.71
774.71	3102.67
774.89	2707.41
775.07	2731.99
775.24	2881.49
775.42	2891.73
775.60	3305.42
775.78	2858.96
775.95	2674.65
776.13	2695.13
776.31	2639.83
776.48	2981.84
776.66	3117.01
776.84	2944.98
777.01	2836.44
777.19	2785.24
777.37	2844.63
777.54	3045.33
777.72	3348.43
777.90	3026.90
778.07	2818.00
778.25	3534.79
778.43	3170.26
778.60	2838.48
778.78	2979.79
778.96	3176.40
779.13	2867.16
779.31	2936.79
779.49	2881.49
779.66	3024.85
779.84	2981.84
780.01	2867.16
780.19	2789.33
780.37	3211.22
780.54	3108.82
780.72	2760.66
780.90	2838.48
781.07	2854.87
781.25	2914.26
781.43	3053.52
781.60	2842.58
781.78	3207.12
781.95	3002.32
782.13	2854.87
782.31	2809.81
782.48	2729.94
782.66	3063.76
782.83	3176.40
783.01	2955.22
783.19	3176.40
783.36	2965.46
783.54	2815.96
783.72	2942.93
783.89	2924.50
784.07	2994.13
784.24	2981.84
784.42	3061.71
784.60	2969.55
784.77	3059.67
784.95	2631.64
785.12	2822.10
785.30	3002.32
785.47	2791.38
785.65	2750.42
785.83	2848.72
786.00	2834.39
786.18	2985.94
786.35	2744.28
786.53	2832.34
786.71	3143.63
786.88	2979.79
787.06	2953.17
787.23	2906.07
787.41	2815.96
787.58	2994.13
787.76	2744.28
787.94	2832.34
788.11	2969.55
788.29	2789.33
788.46	2865.11
788.64	2711.51
788.81	2918.36
788.99	2793.43
789.16	2781.14
789.34	2916.31
789.52	2920.40
789.69	2852.82
789.87	2627.54
790.04	2820.05
790.22	2947.03
790.39	3340.24
790.57	2758.61
790.74	2682.84
790.92	3100.62
791.09	2752.47
791.27	2969.55
791.44	2951.12
791.62	2992.08
791.79	3117.01
791.97	2973.65
792.15	3215.31
792.32	3213.26
792.50	3074.00
792.67	3053.52
792.85	3043.28
793.02	2951.12
793.20	2963.41
793.37	2775.00
793.55	2783.19
793.72	2727.89
793.90	3071.95
794.07	2820.05
794.25	2785.24
794.42	3016.66
794.60	2947.03
794.77	2918.36
794.95	2985.94
795.12	3110.86
795.30	3012.56
795.47	2613.21
795.65	3256.27
795.82	3053.52
796.00	2752.47
796.17	2887.64
796.34	2836.44
796.52	2994.13
796.69	3096.53
796.87	2994.13
797.04	2926.55
797.22	3131.34
797.39	3153.87
797.57	3024.85
797.74	2861.01
797.92	2973.65
798.09	2795.48
798.27	3088.34
798.44	2869.20
798.62	2875.35
798.79	2998.23
798.96	2963.41
799.14	2836.44
799.31	3301.33
799.49	2883.54
799.66	2908.12
799.84	2967.51
800.01	2738.13
800.19	3088.34
800.36	2648.02
800.53	2899.92
800.71	3149.78
800.88	3246.03
801.06	2815.96
801.23	2840.53
801.41	2918.36
801.58	2797.53
801.75	2768.85
801.93	2901.97
802.10	3127.25
802.28	2926.55
802.45	2807.77
802.63	2936.79
802.80	3164.11
802.97	2871.25
803.15	2940.88
803.32	2815.96
803.50	2867.16
803.67	2873.30
803.84	2768.85
804.02	2934.74
804.19	2897.88
804.37	2596.82
804.54	2672.60
804.71	2787.29
804.89	3002.32
805.06	2758.61
805.24	2734.04
805.41	2731.99
805.58	2901.97
805.76	3434.44
805.93	2897.88
806.10	2973.65
806.28	3088.34
806.45	3026.90
806.63	2951.12
806.80	2901.97
806.97	2994.13
807.15	3053.52
807.32	2998.23
807.49	2942.93
807.67	2834.39
807.84	3049.43
808.01	2707.41
808.19	3006.42
808.36	3401.68
808.54	2871.25
808.71	2779.09
808.88	2805.72
809.06	3174.35
809.23	3246.03
809.40	2899.92
809.58	2926.55
809.75	2928.60
809.92	2822.10
810.10	3190.74
810.27	2854.87
810.44	3039.19
810.62	3028.95
810.79	2942.93
810.96	2791.38
811.14	2934.74
811.31	3045.33
811.48	2979.79
811.66	2949.08
811.83	3198.93
812.00	3067.86
812.18	3022.80
812.35	3203.02
812.52	2947.03
812.69	2889.68
812.87	2813.91
813.04	2820.05
813.21	2897.88
813.39	2881.49
813.56	2777.05
813.73	3043.28
813.91	2713.56
814.08	2992.08
814.25	2901.97
814.42	2744.28
814.60	2985.94
814.77	3028.95
814.94	2883.54
815.12	2910.16
815.29	3284.94
815.46	2809.81
815.63	2940.88
815.81	2899.92
815.98	2916.31
816.15	3008.47
816.33	2961.36
816.50	2820.05
816.67	2940.88
816.84	2912.21
817.02	2717.65
817.19	2846.68
817.36	2969.55
817.53	3088.34
817.71	2783.19
817.88	2977.75
818.05	2947.03
818.22	2969.55
818.40	3063.76
818.57	2844.63
818.74	3069.91
818.91	2942.93
819.09	3065.81
819.26	2981.84
819.43	2820.05
819.60	2844.63
819.78	3043.28
819.95	3051.47
820.12	2897.88
820.29	3141.58
820.47	3076.05
820.64	2781.14
820.81	2734.04
820.98	2873.30
821.15	2906.07
821.33	2959.31
821.50	2768.85
821.67	3057.62
821.84	2807.77
822.02	2901.97
822.19	3166.16
822.36	2910.16
822.53	2707.41
822.70	2807.77
822.88	2834.39
823.05	3248.08
823.22	2873.30
823.39	2949.08
823.56	2877.40
823.74	3350.48
823.91	2752.47
824.08	2795.48
824.25	2785.24
824.42	3272.65
824.60	2693.08
824.77	3030.99
824.94	2912.21
825.11	3117.01
825.28	2645.98
825.45	2990.03
825.63	2967.51
825.80	2856.92
825.97	2895.83
826.14	2883.54
826.31	2666.46
826.48	3059.67
826.66	2879.44
826.83	2820.05
827.00	2930.64
827.17	2760.66
827.34	2838.48
827.51	2770.90
827.69	2912.21
827.86	2756.57
828.03	2908.12
828.20	2858.96
828.37	2906.07
828.54	3117.01
828.71	2762.71
828.89	3076.05
829.06	2971.60
829.23	3209.17
829.40	2815.96
829.57	2789.33
829.74	3184.59
829.91	2944.98
830.09	2748.37
830.26	2969.55
830.43	3295.18
830.60	2916.31
830.77	2996.18
830.94	3063.76
831.11	3022.80
831.28	2848.72
831.46	3020.75
831.63	2893.78
831.80	3153.87
831.97	2842.58
832.14	2873.30
832.31	2901.97
832.48	3006.42
832.65	3104.72
832.82	2971.60
832.99	2895.83
833.17	2787.29
833.34	3246.03
833.51	2861.01
833.68	2609.11
833.85	3145.68
834.02	2746.33
834.19	2852.82
834.36	2756.57
834.53	3020.75
834.70	3026.90
834.87	2838.48
835.04	2693.08
835.22	2873.30
835.39	2910.16
835.56	2678.74
835.73	2775.00
835.90	3231.69
836.07	2813.91
836.24	2822.10
836.41	2697.17
836.58	2873.30
836.75	3133.39
836.92	2725.85
837.09	2682.84
837.26	3102.67
837.43	2949.08
837.60	2785.24
837.77	2707.41
837.94	3096.53
838.12	3190.74
838.29	2641.88
838.46	2660.31
838.63	2727.89
838.80	3313.61
838.97	2873.30
839.14	2691.03
839.31	2957.27
839.48	3078.10
839.65	2752.47
839.82	2779.09
839.99	2904.02
840.16	2969.55
840.33	2705.37
840.50	2742.23
840.67	2815.96
840.84	2648.02
841.01	2688.98
841.18	2709.46
841.35	2910.16
841.52	3051.47
841.69	3051.47
841.86	2758.61
842.03	2899.92
842.20	3129.30
842.37	2721.75
842.54	2815.96
842.71	3024.85
842.88	2721.75
843.05	2789.33
843.22	2619.35
843.39	3049.43
843.56	2930.64
843.73	2740.18
843.90	2830.29
844.07	2963.41
844.24	3074.00
844.41	2854.87
844.58	2785.24
844.75	2924.50
844.92	3049.43
845.09	2799.57
845.26	2691.03
845.43	3024.85
845.60	2824.15
845.77	2906.07
845.94	2832.34
846.10	3157.97
846.27	2754.52
846.44	2633.69
846.61	2670.55
846.78	3049.43
846.95	3205.07
847.12	2717.65
847.29	2715.61
847.46	2828.24
847.63	3080.14
847.80	2766.81
847.97	2871.25
848.14	3284.94
848.31	2934.74
848.48	2594.78
848.65	2717.65
848.82	2883.54
848.98	3373.00
849.15	2822.10
849.32	2891.73
849.49	3180.50
849.66	2893.78
849.83	2729.94
850.00	2643.93
850.17	3055.57
850.34	2854.87
850.51	2674.65
850.68	2725.85
850.85	3346.38
851.01	3039.19
851.18	2834.39
851.35	2748.37
851.52	3008.47
851.69	3246.03
851.86	2707.41
852.03	2697.17
852.20	3200.98
852.37	2934.74
852.53	2621.40
852.70	2666.46
852.87	3030.99
853.04	3051.47
853.21	2684.89
853.38	2912.21
853.55	3188.69
853.72	3129.30
853.89	2650.07
854.05	2705.37
854.22	2953.17
854.39	2887.64
854.56	2664.41
854.73	2891.73
854.90	2791.38
855.07	2981.84
855.23	2666.46
855.40	2670.55
855.57	2875.35
855.74	2641.88
855.91	2947.03
856.08	2609.11
856.25	2824.15
856.41	2885.59
856.58	2758.61
856.75	2688.98
856.92	2787.29
857.09	3172.30
857.26	2607.06
857.42	2775.00
857.59	3119.06
857.76	2856.92
857.93	2660.31
858.10	2762.71
858.27	2781.14
858.43	3020.75
858.60	2758.61
858.77	2623.45
858.94	2869.20
859.11	3086.29
859.27	2775.00
859.44	2641.88
859.61	3360.72
859.78	3067.86
859.95	2768.85
860.12	2719.70
860.28	3407.82
860.45	3313.61
860.62	2703.32
860.79	2846.68
860.95	2959.31
861.12	2885.59
861.29	2666.46
861.46	2652.12
861.63	2981.84
861.79	2987.99
861.96	2570.20
862.13	2752.47
862.30	3217.36
862.47	2879.44
862.63	2645.98
862.80	2752.47
862.97	3086.29
863.14	2885.59
863.30	2785.24
863.47	2613.21
863.64	3200.98
863.81	2994.13
863.97	2639.83
864.14	2731.99
864.31	2930.64
864.48	2985.94
864.65	2725.85
864.81	2748.37
864.98	3024.85
865.15	3160.02
865.32	2820.05
865.48	2734.04
865.65	3246.03
865.82	2869.20
865.98	2832.34
866.15	2844.63
866.32	2967.51
866.49	2901.97
866.65	2844.63
866.82	2695.13
866.99	2996.18
867.16	2920.40
867.32	2725.85
867.49	2736.09
867.66	2901.97
867.83	2899.92
867.99	2721.75
868.16	2791.38
868.33	2799.57
868.49	2971.60
868.66	2791.38
868.83	2842.58
868.99	2947.03
869.16	2953.17
869.33	2875.35
869.50	2820.05
869.66	2998.23
869.83	2951.12
870.00	2648.02
870.16	2869.20
870.33	2914.26
870.50	3129.30
870.66	2779.09
870.83	2772.95
871.00	2920.40
871.17	2992.08
871.33	2846.68
871.50	2643.93
871.67	2981.84
871.83	2713.56
872.00	2830.29
872.17	2738.13
872.33	3272.65
872.50	3229.65
872.67	2736.09
872.83	2740.18
873.00	2961.36
873.17	2877.40
873.33	2781.14
873.50	2815.96
873.67	2799.57
873.83	2883.54
874.00	2717.65
874.16	2830.29
874.33	2942.93
874.50	2697.17
874.66	2674.65
874.83	2820.05
875.00	3168.21
875.16	3123.15
875.33	2875.35
875.50	2527.19
875.66	2856.92
875.83	3000.27
875.99	2766.81
876.16	2877.40
876.33	2811.86
876.49	2932.69
876.66	2828.24
876.83	2787.29
876.99	2750.42
877.16	3004.37
877.32	2705.37
877.49	2830.29
877.66	3014.61
877.82	3141.58
877.99	2736.09
878.15	2947.03
878.32	3024.85
878.49	3010.51
878.65	2789.33
878.82	2953.17
878.98	2844.63
879.15	3205.07
879.32	2940.88
879.48	2838.48
879.65	2949.08
879.81	2914.26
879.98	2775.00
880.15	2822.10
880.31	3094.48
880.48	2887.64
880.64	2916.31
880.81	2871.25
880.97	3344.33
881.14	3166.16
881.31	2719.70
881.47	2908.12
881.64	2932.69
881.80	2658.26
881.97	2889.68
882.13	2770.90
882.30	2723.80
882.47	2856.92
882.63	2707.41
882.80	2664.41
882.96	2947.03
883.13	3211.22
883.29	2770.90
883.46	2746.33
883.62	3295.18
883.79	3037.14
883.95	2867.16
884.12	2658.26
884.29	3157.97
884.45	2932.69
884.62	2750.42
884.78	2643.93
884.95	3317.71
885.11	2844.63
885.28	2897.88
885.44	2787.29
885.61	2981.84
885.77	3213.26
885.94	2887.64
886.10	2713.56
886.27	2959.31
886.43	3325.90
886.60	2953.17
886.76	2731.99
886.93	2789.33
887.09	2951.12
887.26	2594.78
887.42	2734.04
887.59	3147.73
887.75	3323.85
887.92	2953.17
888.08	2889.68
888.25	3311.57
888.41	3207.12
888.58	2863.06
888.74	2672.60
888.91	2852.82
>>>>>End Processed Spectral Data<<<<<
