SpectraSuite Data File
++++++++++++++++++++++++++++++++++++
Date: Thu May 05 21:10:57 CEST 2016
User: root
Dark Spectrum Present: No
Reference Spectrum Present: No
Number of Sampled Component Spectra: 1
Spectrometers: USB4C02835
Integration Time (usec): 100000 (USB4C02835)
Spectra Averaged: 1 (USB4C02835)
Boxcar Smoothing: 0 (USB4C02835)
Correct for Electrical Dark: No (USB4C02835)
Strobe/Lamp Enabled: No (USB4C02835)
Correct for Detector Non-linearity: No (USB4C02835)
Correct for Stray Light: No (USB4C02835)
Number of Pixels in Processed Spectrum: 3648
>>>>>Begin Processed Spectral Data<<<<<
177.47	2086.88
177.69	2086.88
177.91	2086.88
178.13	2125.79
178.36	2086.88
178.58	2762.71
178.80	2938.84
179.02	2789.33
179.24	2801.62
179.46	2596.82
179.68	2680.79
179.90	2963.41
180.13	2979.79
180.35	2514.91
180.57	2645.98
180.79	3059.67
181.01	3016.66
181.23	2729.94
181.45	2822.10
181.67	3129.30
181.90	3082.19
182.12	2758.61
182.34	2559.96
182.56	3112.91
182.78	3026.90
183.00	2641.88
183.22	2758.61
183.44	2684.89
183.66	3411.92
183.89	2936.79
184.11	2631.64
184.33	3078.10
184.55	3139.54
184.77	2611.16
184.99	2672.60
185.21	2904.02
185.43	3444.68
185.65	2684.89
185.87	2650.07
186.10	3387.34
186.32	3379.15
186.54	2809.81
186.76	2770.90
186.98	3145.68
187.20	2971.60
187.42	2703.32
187.64	2637.78
187.86	3076.05
188.08	3049.43
188.30	2607.06
188.52	2719.70
188.75	3213.26
188.97	3157.97
189.19	2668.50
189.41	2660.31
189.63	3117.01
189.85	2916.31
190.07	2562.01
190.29	2496.47
190.51	3192.78
190.73	2805.72
190.95	2850.77
191.17	2721.75
191.39	2754.52
191.61	2983.89
191.84	2615.26
192.06	2867.16
192.28	2746.33
192.50	3622.86
192.72	2830.29
192.94	2770.90
193.16	3147.73
193.38	3096.53
193.60	2619.35
193.82	2813.91
194.04	3188.69
194.26	3088.34
194.48	2711.51
194.70	2758.61
194.92	3000.27
195.14	3114.96
195.36	2662.36
195.58	2779.09
195.80	2985.94
196.02	2873.30
196.24	2639.83
196.46	2775.00
196.69	2861.01
196.91	3321.81
197.13	2676.70
197.35	2738.13
197.57	3248.08
197.79	3114.96
198.01	2715.61
198.23	2682.84
198.45	3086.29
198.67	2828.24
198.89	2480.09
199.11	2801.62
199.33	2861.01
199.55	2602.97
199.77	2668.50
199.99	2838.48
200.21	2820.05
200.43	3043.28
200.65	2570.20
200.87	2514.91
201.09	2879.44
201.31	2883.54
201.53	2740.18
201.75	2674.65
201.97	3010.51
202.19	2979.79
202.41	2713.56
202.63	2826.20
202.85	3106.77
203.07	3131.34
203.29	2777.05
203.51	2703.32
203.73	2840.53
203.95	3395.53
204.17	2613.21
204.39	2803.67
204.61	3002.32
204.83	2885.59
205.05	2793.43
205.27	2695.13
205.49	3311.57
205.71	2934.74
205.93	2553.82
206.15	2617.30
206.37	2924.50
206.59	3016.66
206.81	2541.53
207.03	2641.88
207.25	2881.49
207.47	3143.63
207.69	2697.17
207.91	2861.01
208.13	3282.89
208.34	2856.92
208.56	2596.82
208.78	2695.13
209.00	2883.54
209.22	2883.54
209.44	2703.32
209.66	2674.65
209.88	3014.61
210.10	2910.16
210.32	2617.30
210.54	2834.39
210.76	2961.36
210.98	3160.02
211.20	2543.58
211.42	2826.20
211.64	3231.69
211.86	2985.94
212.08	2705.37
212.30	2744.28
212.52	2947.03
212.74	3094.48
212.96	2734.04
213.17	2746.33
213.39	3119.06
213.61	3309.52
213.83	2648.02
214.05	2596.82
214.27	3155.92
214.49	2820.05
214.71	2625.50
214.93	2861.01
215.15	3002.32
215.37	3110.86
215.59	2578.39
215.81	2705.37
216.03	3178.45
216.24	3014.61
216.46	2670.55
216.68	2787.29
216.90	3125.20
217.12	3172.30
217.34	2645.98
217.56	2813.91
217.78	3205.07
218.00	3067.86
218.22	2725.85
218.44	2850.77
218.66	3035.09
218.87	3366.86
219.09	2641.88
219.31	2678.74
219.53	2985.94
219.75	2885.59
219.97	2760.66
220.19	2723.80
220.41	2936.79
220.63	3241.93
220.85	2725.85
221.06	2713.56
221.28	3252.17
221.50	3082.19
221.72	2693.08
221.94	2631.64
222.16	3037.14
222.38	3194.83
222.60	2684.89
222.82	2742.23
223.03	3180.50
223.25	2781.14
223.47	2656.22
223.69	2885.59
223.91	3178.45
224.13	3041.23
224.35	2541.53
224.57	2867.16
224.78	3166.16
225.00	2877.40
225.22	2791.38
225.44	2553.82
225.66	3082.19
225.88	2879.44
226.10	2836.44
226.32	2682.84
226.53	3264.46
226.75	2959.31
226.97	2764.76
227.19	2719.70
227.41	2875.35
227.63	2949.08
227.85	2492.38
228.06	2731.99
228.28	3016.66
228.50	3231.69
228.72	2590.68
228.94	2635.74
229.16	2678.74
229.37	2793.43
229.59	2578.39
229.81	2959.31
230.03	3000.27
230.25	2754.52
230.47	2543.58
230.69	2637.78
230.90	3143.63
231.12	2861.01
231.34	2801.62
231.56	2770.90
231.78	2783.19
232.00	3076.05
232.21	2746.33
232.43	2764.76
232.65	2645.98
232.87	3096.53
233.09	2602.97
233.30	2676.70
233.52	3141.58
233.74	2969.55
233.96	2660.31
234.18	2836.44
234.40	3006.42
234.61	3438.54
234.83	2611.16
235.05	2617.30
235.27	3358.67
235.49	3272.65
235.70	2617.30
235.92	2717.65
236.14	3129.30
236.36	3465.16
236.58	2516.95
236.79	2807.77
237.01	2981.84
237.23	2881.49
237.45	2920.40
237.67	2746.33
237.88	3114.96
238.10	3282.89
238.32	2615.26
238.54	2756.57
238.76	2955.22
238.97	2942.93
239.19	2609.11
239.41	2758.61
239.63	3274.70
239.85	2883.54
240.06	2676.70
240.28	2674.65
240.50	3160.02
240.72	3016.66
240.93	2586.58
241.15	2750.42
241.37	3055.57
241.59	3215.31
241.81	2656.22
242.02	2738.13
242.24	3030.99
242.46	3174.35
242.68	2578.39
242.89	2693.08
243.11	3069.91
243.33	2985.94
243.55	2621.40
243.76	2684.89
243.98	2805.72
244.20	2985.94
244.42	2639.83
244.64	2705.37
244.85	2789.33
245.07	2779.09
245.29	2723.80
245.51	2772.95
245.72	3055.57
245.94	3145.68
246.16	2688.98
246.38	2715.61
246.59	2879.44
246.81	2889.68
247.03	2580.44
247.24	2576.34
247.46	2947.03
247.68	2994.13
247.90	2596.82
248.11	2695.13
248.33	3106.77
248.55	2996.18
248.77	2758.61
248.98	2731.99
249.20	3272.65
249.42	3037.14
249.64	2693.08
249.85	2658.26
250.07	3014.61
250.29	3082.19
250.50	2830.29
250.72	2566.10
250.94	3125.20
251.16	3352.52
251.37	2627.54
251.59	2789.33
251.81	3055.57
252.02	3215.31
252.24	2598.87
252.46	2783.19
252.68	2858.96
252.89	2944.98
253.11	2508.76
253.33	2846.68
253.54	3229.65
253.76	2822.10
253.98	2680.79
254.20	2650.07
254.41	2799.57
254.63	3012.56
254.85	2592.73
255.06	2830.29
255.28	3108.82
255.50	2918.36
255.71	2623.45
255.93	2617.30
256.15	2947.03
256.36	3069.91
256.58	2582.49
256.80	2615.26
257.02	2957.27
257.23	2924.50
257.45	2650.07
257.67	2756.57
257.88	2881.49
258.10	3098.58
258.32	2666.46
258.53	2779.09
258.75	3268.56
258.97	2809.81
259.18	2691.03
259.40	2525.15
259.62	3276.75
259.83	3260.37
260.05	2736.09
260.27	3510.22
260.48	3080.14
260.70	2830.29
260.92	2537.43
261.13	2688.98
261.35	3043.28
261.57	3188.69
261.78	2588.63
262.00	2574.30
262.22	3090.38
262.43	2828.24
262.65	2795.48
262.86	2605.02
263.08	3481.55
263.30	3000.27
263.51	2527.19
263.73	2629.59
263.95	3188.69
264.16	2805.72
264.38	2641.88
264.60	2598.87
264.81	3041.23
265.03	3131.34
265.25	2969.55
265.46	2658.26
265.68	3106.77
265.89	3147.73
266.11	2582.49
266.33	2701.27
266.54	3209.17
266.76	3074.00
266.98	2695.13
267.19	2801.62
267.41	3147.73
267.62	2959.31
267.84	2516.95
268.06	2807.77
268.27	2983.89
268.49	3176.40
268.70	2713.56
268.92	2736.09
269.14	2762.71
269.35	2680.79
269.57	2742.23
269.79	2723.80
270.00	2865.11
270.22	3295.18
270.43	2596.82
270.65	2547.67
270.87	2998.23
271.08	3053.52
271.30	2805.72
271.51	2664.41
271.73	3063.76
271.95	3248.08
272.16	2656.22
272.38	2779.09
272.59	2926.55
272.81	2990.03
273.02	2650.07
273.24	2719.70
273.46	3209.17
273.67	2834.39
273.89	2617.30
274.10	2664.41
274.32	3213.26
274.54	2951.12
274.75	2760.66
274.97	2727.89
275.18	3119.06
275.40	3061.71
275.61	2742.23
275.83	2875.35
276.05	2865.11
276.26	2963.41
276.48	2793.43
276.69	2803.67
276.91	2844.63
277.12	3291.09
277.34	2865.11
277.55	2928.60
277.77	2996.18
277.99	3028.95
278.20	2779.09
278.42	2719.70
278.63	2858.96
278.85	2752.47
279.06	2723.80
279.28	2842.58
279.49	3110.86
279.71	3129.30
279.93	2910.16
280.14	2844.63
280.36	2811.86
280.57	3049.43
280.79	2934.74
281.00	2748.37
281.22	2908.12
281.43	3203.02
281.65	2586.58
281.86	2701.27
282.08	3035.09
282.29	3354.57
282.51	2656.22
282.73	2693.08
282.94	2772.95
283.16	3145.68
283.37	2881.49
283.59	2789.33
283.80	3090.38
284.02	2932.69
284.23	2881.49
284.45	2723.80
284.66	2809.81
284.88	2777.05
285.09	2721.75
285.31	2967.51
285.52	3071.95
285.74	2746.33
285.95	3022.80
286.17	2861.01
286.38	3162.06
286.60	2887.64
286.81	2795.48
287.03	2787.29
287.24	3000.27
287.46	3043.28
287.67	2918.36
287.89	3028.95
288.10	2895.83
288.32	2940.88
288.53	2889.68
288.75	2766.81
288.96	3188.69
289.18	2867.16
289.39	2725.85
289.61	2834.39
289.82	3411.92
290.04	3313.61
290.25	2631.64
290.47	2883.54
290.68	2947.03
290.90	3188.69
291.11	2633.69
291.33	2899.92
291.54	2811.86
291.76	2908.12
291.97	2910.16
292.18	2867.16
292.40	2867.16
292.61	2879.44
292.83	3141.58
293.04	2877.40
293.26	2949.08
293.47	2969.55
293.69	2785.24
293.90	2701.27
294.12	3145.68
294.33	3004.37
294.55	2875.35
294.76	2908.12
294.97	3188.69
295.19	3317.71
295.40	2775.00
295.62	2912.21
295.83	3160.02
296.05	2811.86
296.26	2951.12
296.48	2863.06
296.69	2975.70
296.90	2953.17
297.12	2893.78
297.33	2983.89
297.55	2940.88
297.76	2963.41
297.98	2871.25
298.19	2850.77
298.41	2959.31
298.62	2832.34
298.83	2953.17
299.05	2887.64
299.26	2918.36
299.48	2811.86
299.69	2830.29
299.90	2795.48
300.12	2848.72
300.33	3084.24
300.55	2820.05
300.76	2891.73
300.98	2750.42
301.19	3092.43
301.40	2779.09
301.62	2750.42
301.83	3035.09
302.05	3014.61
302.26	2805.72
302.47	2924.50
302.69	2830.29
302.90	2987.99
303.12	2650.07
303.33	2820.05
303.54	3293.13
303.76	2996.18
303.97	2791.38
304.19	2944.98
304.40	2834.39
304.61	3086.29
304.83	2889.68
305.04	2840.53
305.26	3123.15
305.47	2863.06
305.68	2838.48
305.90	2723.80
306.11	3227.60
306.33	2901.97
306.54	2664.41
306.75	2672.60
306.97	2670.55
307.18	2852.82
307.39	2795.48
307.61	2861.01
307.82	2981.84
308.04	3100.62
308.25	2641.88
308.46	2832.34
308.68	3030.99
308.89	2969.55
309.10	2877.40
309.32	2856.92
309.53	3059.67
309.74	3127.25
309.96	2795.48
310.17	2871.25
310.39	2879.44
310.60	3147.73
310.81	2795.48
311.03	2779.09
311.24	3160.02
311.45	2885.59
311.67	3059.67
311.88	2824.15
312.09	2883.54
312.31	2934.74
312.52	2799.57
312.73	2815.96
312.95	2754.52
313.16	2789.33
313.37	2928.60
313.59	2869.20
313.80	3100.62
314.01	3295.18
314.23	2850.77
314.44	2731.99
314.65	2836.44
314.87	2871.25
315.08	2699.22
315.29	2830.29
315.51	2865.11
315.72	2709.46
315.93	2912.21
316.15	2885.59
316.36	2873.30
316.57	3098.58
316.79	2815.96
317.00	2740.18
317.21	3121.10
317.43	2916.31
317.64	2879.44
317.85	2699.22
318.07	2869.20
318.28	2881.49
318.49	3004.37
318.70	3010.51
318.92	3026.90
319.13	3094.48
319.34	2908.12
319.56	2852.82
319.77	3098.58
319.98	3141.58
320.20	3053.52
320.41	2846.68
320.62	3127.25
320.83	2861.01
321.05	3018.71
321.26	2858.96
321.47	2979.79
321.69	3155.92
321.90	2707.41
322.11	2746.33
322.32	3043.28
322.54	3297.23
322.75	2801.62
322.96	3618.76
323.18	2815.96
323.39	2617.30
323.60	2697.17
323.81	2836.44
324.03	2848.72
324.24	2947.03
324.45	2863.06
324.66	2766.81
324.88	3088.34
325.09	3221.45
325.30	2838.48
325.52	2725.85
325.73	3082.19
325.94	2781.14
326.15	2717.65
326.37	2703.32
326.58	3137.49
326.79	3325.90
327.00	2684.89
327.22	2836.44
327.43	2971.60
327.64	2789.33
327.85	2922.45
328.07	2899.92
328.28	3299.28
328.49	2926.55
328.70	2805.72
328.92	2807.77
329.13	2926.55
329.34	3084.24
329.55	2963.41
329.76	2969.55
329.98	2932.69
330.19	3174.35
330.40	2840.53
330.61	2854.87
330.83	3065.81
331.04	2879.44
331.25	2879.44
331.46	2772.95
331.68	2701.27
331.89	3094.48
332.10	2861.01
332.31	2625.50
332.52	2981.84
332.74	3227.60
332.95	2645.98
333.16	2799.57
333.37	3069.91
333.58	2901.97
333.80	2830.29
334.01	2629.59
334.22	2955.22
334.43	2828.24
334.64	2793.43
334.86	2688.98
335.07	2834.39
335.28	3274.70
335.49	2721.75
335.70	2805.72
335.92	3284.94
336.13	3336.14
336.34	2820.05
336.55	2832.34
336.76	3141.58
336.98	2648.02
337.19	2871.25
337.40	2904.02
337.61	3467.21
337.82	2895.83
338.04	2908.12
338.25	2660.31
338.46	2940.88
338.67	2942.93
338.88	2713.56
339.09	2785.24
339.31	3008.47
339.52	2779.09
339.73	2766.81
339.94	2846.68
340.15	3129.30
340.36	2891.73
340.58	2916.31
340.79	2721.75
341.00	3061.71
341.21	2873.30
341.42	2965.46
341.63	2820.05
341.85	3131.34
342.06	3047.38
342.27	2830.29
342.48	2947.03
342.69	2783.19
342.90	2992.08
343.12	3039.19
343.33	2729.94
343.54	3211.22
343.75	3209.17
343.96	2910.16
344.17	2709.46
344.38	2971.60
344.60	2826.20
344.81	2717.65
345.02	2775.00
345.23	3172.30
345.44	3487.69
345.65	2777.05
345.86	2863.06
346.07	3082.19
346.29	2844.63
346.50	2967.51
346.71	2889.68
346.92	3252.17
347.13	3327.95
347.34	2764.76
347.55	2699.22
347.76	3008.47
347.98	2699.22
348.19	2811.86
348.40	2953.17
348.61	2899.92
348.82	3241.93
349.03	2908.12
349.24	2643.93
349.45	3270.61
349.66	2598.87
349.88	2826.20
350.09	2656.22
350.30	3284.94
350.51	3176.40
350.72	2936.79
350.93	2791.38
351.14	2983.89
351.35	3170.26
351.56	2779.09
351.77	2914.26
351.99	3080.14
352.20	3270.61
352.41	2893.78
352.62	2639.83
352.83	2992.08
353.04	2936.79
353.25	2818.00
353.46	2795.48
353.67	3170.26
353.88	2674.65
354.09	2766.81
354.30	2887.64
354.52	3051.47
354.73	2985.94
354.94	2750.42
355.15	2811.86
355.36	3391.44
355.57	2822.10
355.78	2789.33
355.99	2772.95
356.20	2940.88
356.41	3213.26
356.62	2871.25
356.83	2881.49
357.04	3209.17
357.25	2688.98
357.46	2865.11
357.68	2627.54
357.89	2777.05
358.10	2955.22
358.31	2830.29
358.52	2793.43
358.73	2793.43
358.94	2893.78
359.15	2748.37
359.36	2869.20
359.57	2973.65
359.78	2992.08
359.99	2973.65
360.20	2652.12
360.41	2990.03
360.62	3045.33
360.83	2865.11
361.04	2811.86
361.25	3047.38
361.46	3241.93
361.67	2881.49
361.88	2760.66
362.09	3131.34
362.30	3035.09
362.51	2777.05
362.72	2875.35
362.93	3108.82
363.14	3100.62
363.35	2824.15
363.56	2662.36
363.78	3143.63
363.99	3155.92
364.20	2736.09
364.41	2787.29
364.62	3303.37
364.83	2992.08
365.04	2805.72
365.25	2848.72
365.46	3239.89
365.67	2873.30
365.88	2885.59
366.09	2772.95
366.30	2887.64
366.51	3002.32
366.72	2738.13
366.93	2756.57
367.14	3047.38
367.35	3205.07
367.56	2748.37
367.77	2951.12
367.98	3002.32
368.18	3084.24
368.39	3039.19
368.60	2754.52
368.81	3135.44
369.02	3045.33
369.23	2889.68
369.44	2664.41
369.65	2869.20
369.86	3051.47
370.07	2918.36
370.28	2746.33
370.49	2994.13
370.70	3067.86
370.91	2703.32
371.12	2752.47
371.33	3153.87
371.54	2832.34
371.75	2936.79
371.96	2568.15
372.17	3008.47
372.38	2994.13
372.59	2869.20
372.80	2748.37
373.01	2928.60
373.22	2975.70
373.43	2807.77
373.64	2695.13
373.85	3211.22
374.06	3266.51
374.26	2994.13
374.47	2936.79
374.68	3241.93
374.89	2934.74
375.10	2758.61
375.31	2904.02
375.52	3012.56
375.73	3035.09
375.94	2676.70
376.15	2881.49
376.36	2844.63
376.57	2815.96
376.78	2832.34
376.99	2887.64
377.20	3223.50
377.40	2938.84
377.61	3026.90
377.82	2731.99
378.03	3198.93
378.24	3022.80
378.45	2861.01
378.66	2910.16
378.87	2731.99
379.08	2746.33
379.29	2918.36
379.50	3006.42
379.71	2965.46
379.91	3047.38
380.12	2809.81
380.33	2936.79
380.54	2936.79
380.75	2936.79
380.96	2801.62
381.17	2873.30
381.38	3016.66
381.59	2932.69
381.80	2867.16
382.00	2963.41
382.21	3047.38
382.42	3241.93
382.63	3180.50
382.84	2836.44
383.05	3139.54
383.26	3186.64
383.47	2922.45
383.68	2830.29
383.88	3037.14
384.09	2990.03
384.30	3030.99
384.51	2906.07
384.72	2926.55
384.93	2828.24
385.14	2932.69
385.35	2973.65
385.55	2697.17
385.76	3172.30
385.97	2807.77
386.18	2723.80
386.39	2791.38
386.60	2885.59
386.81	2805.72
387.02	2746.33
387.22	2848.72
387.43	3137.49
387.64	2899.92
387.85	3026.90
388.06	3078.10
388.27	3981.25
388.48	7188.37
388.68	10823.51
388.89	13578.03
389.10	14372.64
389.31	14036.78
389.52	11061.08
389.73	9549.68
389.93	8898.42
390.14	8015.75
390.35	7387.02
390.56	6565.79
390.77	5570.48
390.98	4313.02
391.18	3710.92
391.39	3385.29
391.60	2942.93
391.81	3082.19
392.02	2797.53
392.23	3368.91
392.43	3002.32
392.64	2930.64
392.85	2856.92
393.06	3301.33
393.27	2961.36
393.47	2787.29
393.68	2891.73
393.89	2891.73
394.10	3200.98
394.31	2844.63
394.52	2740.18
394.72	2832.34
394.93	3194.83
395.14	2729.94
395.35	2865.11
395.56	2940.88
395.76	2883.54
395.97	2850.77
396.18	2934.74
396.39	3063.76
396.60	3481.55
396.80	3166.16
397.01	2981.84
397.22	3094.48
397.43	3176.40
397.64	2830.29
397.84	2983.89
398.05	3338.19
398.26	3049.43
398.47	2985.94
398.67	3012.56
398.88	3022.80
399.09	3114.96
399.30	2828.24
399.51	2877.40
399.71	2953.17
399.92	2926.55
400.13	2918.36
400.34	2787.29
400.54	3024.85
400.75	3301.33
400.96	3004.37
401.17	3172.30
401.37	3049.43
401.58	2920.40
401.79	2766.81
402.00	2975.70
402.21	3442.64
402.41	3098.58
402.62	3035.09
402.83	3266.51
403.04	3323.85
403.24	3686.34
403.45	2914.26
403.66	3112.91
403.87	3123.15
404.07	3223.50
404.28	3047.38
404.49	3084.24
404.70	3121.10
404.90	3145.68
405.11	2832.34
405.32	2955.22
405.52	2852.82
405.73	2904.02
405.94	2764.76
406.15	2910.16
406.35	3102.67
406.56	3076.05
406.77	2885.59
406.98	2850.77
407.18	2932.69
407.39	3264.46
407.60	2867.16
407.80	2904.02
408.01	2889.68
408.22	3041.23
408.43	2686.94
408.63	2924.50
408.84	3188.69
409.05	3160.02
409.25	2748.37
409.46	2799.57
409.67	2910.16
409.88	2875.35
410.08	2867.16
410.29	2738.13
410.50	3131.34
410.70	3133.39
410.91	2740.18
411.12	2899.92
411.32	2983.89
411.53	2850.77
411.74	2828.24
411.95	2979.79
412.15	2908.12
412.36	3000.27
412.57	2985.94
412.77	2979.79
412.98	2928.60
413.19	2934.74
413.39	2889.68
413.60	2828.24
413.81	3229.65
414.01	2787.29
414.22	2832.34
414.43	3145.68
414.63	2955.22
414.84	3186.64
415.05	2815.96
415.25	2680.79
415.46	3057.62
415.67	2920.40
415.87	2813.91
416.08	2856.92
416.29	2873.30
416.49	3117.01
416.70	2846.68
416.91	2852.82
417.11	2936.79
417.32	3155.92
417.53	2961.36
417.73	2922.45
417.94	3014.61
418.15	3104.72
418.35	2936.79
418.56	2854.87
418.77	3467.21
418.97	3051.47
419.18	2918.36
419.38	2514.91
419.59	2947.03
419.80	3217.36
420.00	2861.01
420.21	2811.86
420.42	3149.78
420.62	3043.28
420.83	2824.15
421.04	2869.20
421.24	2944.98
421.45	3170.26
421.65	2801.62
421.86	2793.43
422.07	3133.39
422.27	3069.91
422.48	2779.09
422.69	2713.56
422.89	3074.00
423.10	2936.79
423.30	2740.18
423.51	2934.74
423.72	3106.77
423.92	3061.71
424.13	2729.94
424.33	2901.97
424.54	3141.58
424.75	3002.32
424.95	3117.01
425.16	2752.47
425.36	2996.18
425.57	3203.02
425.78	3012.56
425.98	2951.12
426.19	2979.79
426.39	2832.34
426.60	2901.97
426.81	3010.51
427.01	3041.23
427.22	2869.20
427.42	2627.54
427.63	2729.94
427.83	3080.14
428.04	3221.45
428.25	2955.22
428.45	2979.79
428.66	3182.54
428.86	3016.66
429.07	2881.49
429.28	2918.36
429.48	3045.33
429.69	2854.87
429.89	2885.59
430.10	2756.57
430.30	3139.54
430.51	3133.39
430.71	2832.34
430.92	2883.54
431.13	2904.02
431.33	3098.58
431.54	2955.22
431.74	3071.95
431.95	3364.81
432.15	2793.43
432.36	2854.87
432.56	2887.64
432.77	3286.99
432.98	3248.08
433.18	2879.44
433.39	2738.13
433.59	2971.60
433.80	3420.11
434.00	3078.10
434.21	2846.68
434.41	2775.00
434.62	3467.21
434.82	2699.22
435.03	2637.78
435.23	3045.33
435.44	2746.33
435.64	2811.86
435.85	2865.11
436.06	3092.43
436.26	3153.87
436.47	2844.63
436.67	2787.29
436.88	2914.26
437.08	3098.58
437.29	2932.69
437.49	2897.88
437.70	3235.79
437.90	2973.65
438.11	3065.81
438.31	2926.55
438.52	3276.75
438.72	3141.58
438.93	3121.10
439.13	2901.97
439.34	3272.65
439.54	2920.40
439.75	2975.70
439.95	2904.02
440.16	2791.38
440.36	3028.95
440.57	2901.97
440.77	2852.82
440.98	2959.31
441.18	3049.43
441.39	2850.77
441.59	2721.75
441.80	3413.96
442.00	2951.12
442.21	2955.22
442.41	2650.07
442.62	3170.26
442.82	2942.93
443.02	2895.83
443.23	2910.16
443.43	2912.21
443.64	3147.73
443.84	2760.66
444.05	2912.21
444.25	3084.24
444.46	2922.45
444.66	2815.96
444.87	3055.57
445.07	2719.70
445.28	3008.47
445.48	3086.29
445.69	2904.02
445.89	3403.72
446.09	2916.31
446.30	3164.11
446.50	3319.76
446.71	4648.89
446.91	5795.75
447.12	6588.32
447.32	6905.75
447.53	6891.41
447.73	5660.59
447.93	4999.09
448.14	4794.29
448.34	4775.86
448.55	3936.20
448.75	4034.50
448.96	3702.73
449.16	3698.63
449.36	3547.08
449.57	3102.67
449.77	2877.40
449.98	2971.60
450.18	3010.51
450.39	2770.90
450.59	3026.90
450.79	3074.00
451.00	2795.48
451.20	3024.85
451.41	2781.14
451.61	3016.66
451.81	2940.88
452.02	2848.72
452.22	2842.58
452.43	2824.15
452.63	2836.44
452.84	2963.41
453.04	2762.71
453.24	3028.95
453.45	2846.68
453.65	2871.25
453.86	2852.82
454.06	3035.09
454.26	2936.79
454.47	2754.52
454.67	3071.95
454.87	3104.72
455.08	2914.26
455.28	3002.32
455.49	2932.69
455.69	2824.15
455.89	3311.57
456.10	2965.46
456.30	2861.01
456.51	3157.97
456.71	2996.18
456.91	3010.51
457.12	2895.83
457.32	3059.67
457.52	2785.24
457.73	2998.23
457.93	3092.43
458.14	2891.73
458.34	2740.18
458.54	2781.14
458.75	2858.96
458.95	3121.10
459.15	3067.86
459.36	2895.83
459.56	2934.74
459.76	3385.29
459.97	3018.71
460.17	2879.44
460.37	2963.41
460.58	3016.66
460.78	3088.34
460.99	2844.63
461.19	2830.29
461.39	2895.83
461.60	3012.56
461.80	2983.89
462.00	2650.07
462.21	2994.13
462.41	2867.16
462.61	2750.42
462.82	2699.22
463.02	3047.38
463.22	3063.76
463.43	2932.69
463.63	2813.91
463.83	3262.41
464.04	3037.14
464.24	2846.68
464.44	2793.43
464.64	3061.71
464.85	3043.28
465.05	2947.03
465.25	2901.97
465.46	2893.78
465.66	3082.19
465.86	2899.92
466.07	2885.59
466.27	2957.27
466.47	2697.17
466.68	2725.85
466.88	2965.46
467.08	3133.39
467.29	3157.97
467.49	2895.83
467.69	2926.55
467.89	3125.20
468.10	2994.13
468.30	2912.21
468.50	2990.03
468.71	3194.83
468.91	2828.24
469.11	3088.34
469.31	2934.74
469.52	2842.58
469.72	3278.80
469.92	3047.38
470.13	2863.06
470.33	3016.66
470.53	3026.90
470.73	3266.51
470.94	3456.97
471.14	3667.91
471.34	4143.04
471.54	3764.17
471.75	3506.12
471.95	3502.03
472.15	3336.14
472.36	3395.53
472.56	3239.89
472.76	3446.73
472.96	3305.42
473.17	3010.51
473.37	2971.60
473.57	3018.71
473.77	3082.19
473.98	2971.60
474.18	2719.70
474.38	3489.74
474.58	2910.16
474.79	2719.70
474.99	2953.17
475.19	3104.72
475.39	2875.35
475.60	2996.18
475.80	2781.14
476.00	3045.33
476.20	2875.35
476.41	2881.49
476.61	2934.74
476.81	3176.40
477.01	2881.49
477.21	3049.43
477.42	2961.36
477.62	2891.73
477.82	3139.54
478.02	2795.48
478.23	2883.54
478.43	2877.40
478.63	2924.50
478.83	2908.12
479.03	2852.82
479.24	3276.75
479.44	3344.33
479.64	2717.65
479.84	2648.02
480.04	2861.01
480.25	3153.87
480.45	2779.09
480.65	2807.77
480.85	3250.13
481.06	2981.84
481.26	2961.36
481.46	2891.73
481.66	3067.86
481.86	2838.48
482.06	2963.41
482.27	2904.02
482.47	2908.12
482.67	3076.05
482.87	2873.30
483.07	2951.12
483.28	2834.39
483.48	2822.10
483.68	2895.83
483.88	2744.28
484.08	2695.13
484.29	2838.48
484.49	2912.21
484.69	2697.17
484.89	3243.98
485.09	3192.78
485.29	2893.78
485.50	2940.88
485.70	2852.82
485.90	3239.89
486.10	2916.31
486.30	2889.68
486.50	3188.69
486.71	2992.08
486.91	2906.07
487.11	2971.60
487.31	2801.62
487.51	3078.10
487.71	2775.00
487.91	2807.77
488.12	2883.54
488.32	2576.34
488.52	2736.09
488.72	2635.74
488.92	3065.81
489.12	3225.55
489.32	3010.51
489.53	2854.87
489.73	2691.03
489.93	3327.95
490.13	2844.63
490.33	2707.41
490.53	2979.79
490.73	3160.02
490.94	2705.37
491.14	2965.46
491.34	3008.47
491.54	3170.26
491.74	3762.12
491.94	4091.84
492.14	4474.81
492.34	4728.76
492.54	4319.17
492.75	3794.89
492.95	3868.61
493.15	3667.91
493.35	3536.84
493.55	3424.20
493.75	3391.44
493.95	3481.55
494.15	3069.91
494.35	2867.16
494.56	2979.79
494.76	2869.20
494.96	3037.14
495.16	2805.72
495.36	3049.43
495.56	3024.85
495.76	2893.78
495.96	2838.48
496.16	2826.20
496.36	3346.38
496.56	2840.53
496.77	2897.88
496.97	3014.61
497.17	3270.61
497.37	2697.17
497.57	2975.70
497.77	3039.19
497.97	2805.72
498.17	2942.93
498.37	2912.21
498.57	3088.34
498.77	2932.69
498.97	2961.36
499.17	3143.63
499.38	2981.84
499.58	3028.95
499.78	3069.91
499.98	2901.97
500.18	2953.17
500.38	2844.63
500.58	3082.19
500.78	3434.44
500.98	5558.19
501.18	7376.78
501.38	8912.76
501.58	9781.10
501.78	9609.07
501.98	7944.07
502.18	6778.78
502.38	5758.89
502.58	5703.59
502.78	5009.33
502.98	4790.20
503.18	4630.46
503.38	4347.84
503.59	3817.41
503.79	3622.86
503.99	3448.78
504.19	3477.45
504.39	3385.29
504.59	3430.35
504.79	3307.47
504.99	3532.75
505.19	3239.89
505.39	3096.53
505.59	3241.93
505.79	3274.70
505.99	3104.72
506.19	2883.54
506.39	3135.44
506.59	2858.96
506.79	2987.99
506.99	3067.86
507.19	2815.96
507.39	3033.04
507.59	2758.61
507.79	2754.52
507.99	2791.38
508.19	3028.95
508.39	2910.16
508.59	2801.62
508.79	2981.84
508.99	3338.19
509.19	2865.11
509.39	2979.79
509.59	2828.24
509.79	2865.11
509.99	3014.61
510.19	3043.28
510.39	2899.92
510.59	2979.79
510.79	2875.35
510.99	2695.13
511.19	2881.49
511.39	3237.84
511.59	3231.69
511.79	3024.85
511.99	2789.33
512.19	3297.23
512.38	2936.79
512.58	2803.67
512.78	2746.33
512.98	3194.83
513.18	3205.07
513.38	2795.48
513.58	2936.79
513.78	2926.55
513.98	2955.22
514.18	2897.88
514.38	2901.97
514.58	3051.47
514.78	2924.50
514.98	2740.18
515.18	2899.92
515.38	2744.28
515.58	3282.89
515.78	2861.01
515.98	2785.24
516.18	3035.09
516.38	2983.89
516.57	2775.00
516.77	2775.00
516.97	3157.97
517.17	2879.44
517.37	2580.44
517.57	2895.83
517.77	2957.27
517.97	2848.72
518.17	2891.73
518.37	2758.61
518.57	2891.73
518.77	2996.18
518.97	2848.72
519.16	2899.92
519.36	3194.83
519.56	2924.50
519.76	2705.37
519.96	2901.97
520.16	3260.37
520.36	2875.35
520.56	2990.03
520.76	2836.44
520.96	2848.72
521.16	3178.45
521.35	3035.09
521.55	2977.75
521.75	3026.90
521.95	2928.60
522.15	2758.61
522.35	2664.41
522.55	2846.68
522.75	3131.34
522.95	2707.41
523.14	2666.46
523.34	3102.67
523.54	2895.83
523.74	2957.27
523.94	2836.44
524.14	2750.42
524.34	3043.28
524.54	3010.51
524.73	2869.20
524.93	3055.57
525.13	2985.94
525.33	2793.43
525.53	3123.15
525.73	3088.34
525.93	2996.18
526.13	2850.77
526.32	2789.33
526.52	3176.40
526.72	3033.04
526.92	2844.63
527.12	2762.71
527.32	2736.09
527.52	3002.32
527.71	2871.25
527.91	2891.73
528.11	2863.06
528.31	2985.94
528.51	2801.62
528.71	3012.56
528.90	2985.94
529.10	3141.58
529.30	2947.03
529.50	2621.40
529.70	2953.17
529.90	2951.12
530.09	2867.16
530.29	2766.81
530.49	2789.33
530.69	3442.64
530.89	2938.84
531.09	3016.66
531.28	2856.92
531.48	3203.02
531.68	2826.20
531.88	2844.63
532.08	3170.26
532.28	2901.97
532.47	2912.21
532.67	2889.68
532.87	3049.43
533.07	2754.52
533.27	2938.84
533.46	2965.46
533.66	3080.14
533.86	2977.75
534.06	2869.20
534.26	2861.01
534.45	2944.98
534.65	3172.30
534.85	2910.16
535.05	2807.77
535.25	3186.64
535.44	2834.39
535.64	2938.84
535.84	2865.11
536.04	2846.68
536.24	2944.98
536.43	2815.96
536.63	2858.96
536.83	2934.74
537.03	2942.93
537.22	2686.94
537.42	2590.68
537.62	2951.12
537.82	2899.92
538.02	2979.79
538.21	2957.27
538.41	3598.28
538.61	3145.68
538.81	2897.88
539.00	2990.03
539.20	2731.99
539.40	2953.17
539.60	2889.68
539.79	2967.51
539.99	2897.88
540.19	2861.01
540.39	2852.82
540.58	2938.84
540.78	3256.27
540.98	2881.49
541.18	3076.05
541.37	2891.73
541.57	3010.51
541.77	3069.91
541.97	2785.24
542.16	2697.17
542.36	2852.82
542.56	2904.02
542.76	3030.99
542.95	2930.64
543.15	3098.58
543.35	3123.15
543.54	2775.00
543.74	2838.48
543.94	3215.31
544.14	2916.31
544.33	3000.27
544.53	2881.49
544.73	2861.01
544.93	2887.64
545.12	2861.01
545.32	2852.82
545.52	2992.08
545.71	2781.14
545.91	2838.48
546.11	2762.71
546.30	2750.42
546.50	2971.60
546.70	2967.51
546.90	2951.12
547.09	2623.45
547.29	2951.12
547.49	2914.26
547.68	2889.68
547.88	2893.78
548.08	3065.81
548.27	3250.13
548.47	2858.96
548.67	2865.11
548.87	3055.57
549.06	2826.20
549.26	2772.95
549.46	3086.29
549.65	2959.31
549.85	2858.96
550.05	2934.74
550.24	2783.19
550.44	3057.62
550.64	2904.02
550.83	2944.98
551.03	3194.83
551.23	3178.45
551.42	2961.36
551.62	2883.54
551.82	2981.84
552.01	2932.69
552.21	3112.91
552.41	2934.74
552.60	3274.70
552.80	2971.60
553.00	2899.92
553.19	2967.51
553.39	3284.94
553.59	2803.67
553.78	2971.60
553.98	2891.73
554.17	2818.00
554.37	3045.33
554.57	2977.75
554.76	2670.55
554.96	2889.68
555.16	3000.27
555.35	2922.45
555.55	3035.09
555.75	3030.99
555.94	3129.30
556.14	2717.65
556.33	2861.01
556.53	2994.13
556.73	3014.61
556.92	2981.84
557.12	2824.15
557.32	3309.52
557.51	3231.69
557.71	2924.50
557.90	3049.43
558.10	3246.03
558.30	2881.49
558.49	2836.44
558.69	2842.58
558.88	3125.20
559.08	2996.18
559.28	2881.49
559.47	2836.44
559.67	3123.15
559.86	3368.91
560.06	2826.20
560.26	2822.10
560.45	3131.34
560.65	2901.97
560.84	3098.58
561.04	2721.75
561.24	3039.19
561.43	2836.44
561.63	3055.57
561.82	2963.41
562.02	3168.21
562.22	2789.33
562.41	2699.22
562.61	2813.91
562.80	2783.19
563.00	3422.16
563.19	2969.55
563.39	2916.31
563.59	3104.72
563.78	2830.29
563.98	2658.26
564.17	2805.72
564.37	2729.94
564.56	3039.19
564.76	2711.51
564.96	2971.60
565.15	3131.34
565.35	3424.20
565.54	2877.40
565.74	2901.97
565.93	3020.75
566.13	2998.23
566.32	2885.59
566.52	2967.51
566.71	2969.55
566.91	3194.83
567.11	2934.74
567.30	2693.08
567.50	3127.25
567.69	3045.33
567.89	2875.35
568.08	2760.66
568.28	3008.47
568.47	2768.85
568.67	2916.31
568.86	2893.78
569.06	3108.82
569.25	3000.27
569.45	2830.29
569.64	2877.40
569.84	2953.17
570.04	3125.20
570.23	2793.43
570.43	2920.40
570.62	3094.48
570.82	3225.55
571.01	2701.27
571.21	2865.11
571.40	2844.63
571.60	3069.91
571.79	2953.17
571.99	2871.25
572.18	2848.72
572.38	3028.95
572.57	2850.77
572.77	2953.17
572.96	3477.45
573.16	2990.03
573.35	2830.29
573.55	3045.33
573.74	2918.36
573.94	2912.21
574.13	2799.57
574.33	3037.14
574.52	3139.54
574.71	3014.61
574.91	2969.55
575.10	2715.61
575.30	2881.49
575.49	2826.20
575.69	2797.53
575.88	2815.96
576.08	2957.27
576.27	3196.88
576.47	2830.29
576.66	3092.43
576.86	3243.98
577.05	3049.43
577.25	2858.96
577.44	3049.43
577.64	2957.27
577.83	3176.40
578.02	2893.78
578.22	3043.28
578.41	3422.16
578.61	2895.83
578.80	2723.80
579.00	2897.88
579.19	2944.98
579.39	3051.47
579.58	2951.12
579.77	2795.48
579.97	3192.78
580.16	3203.02
580.36	2979.79
580.55	3010.51
580.75	3096.53
580.94	3051.47
581.13	3098.58
581.33	3043.28
581.52	2930.64
581.72	3293.13
581.91	3055.57
582.11	2785.24
582.30	3141.58
582.49	3026.90
582.69	3106.77
582.88	2879.44
583.08	3004.37
583.27	3200.98
583.47	2987.99
583.66	2885.59
583.85	2836.44
584.05	2848.72
584.24	2916.31
584.44	2869.20
584.63	3131.34
584.82	3184.59
585.02	3051.47
585.21	3049.43
585.41	3110.86
585.60	3024.85
585.79	3096.53
585.99	3180.50
586.18	3055.57
586.37	3880.90
586.57	5842.85
586.76	16615.17
586.96	35597.79
587.15	48463.13
587.34	57109.66
587.54	60927.07
587.73	54265.03
587.93	38645.17
588.12	29517.37
588.31	23869.08
588.51	21259.96
588.70	19605.20
588.89	17180.41
589.09	14628.64
589.28	12515.14
589.47	9865.07
589.67	7384.98
589.86	5969.83
590.06	4446.14
590.25	4120.51
590.44	3534.79
590.64	3246.03
590.83	3307.47
591.02	3174.35
591.22	2916.31
591.41	3028.95
591.60	3092.43
591.80	3379.15
591.99	2760.66
592.18	2897.88
592.38	3182.54
592.57	2873.30
592.76	2906.07
592.96	2934.74
593.15	2981.84
593.34	3176.40
593.54	2836.44
593.73	2996.18
593.92	3125.20
594.12	3084.24
594.31	2981.84
594.50	3028.95
594.70	3168.21
594.89	3475.40
595.08	2758.61
595.28	3053.52
595.47	3573.71
595.66	3155.92
595.86	2752.47
596.05	2858.96
596.24	2938.84
596.43	3233.74
596.63	2951.12
596.82	2990.03
597.01	3110.86
597.21	3268.56
597.40	2877.40
597.59	2934.74
597.79	3035.09
597.98	3139.54
598.17	2959.31
598.36	2904.02
598.56	3155.92
598.75	2887.64
598.94	2985.94
599.14	2883.54
599.33	2901.97
599.52	3121.10
599.71	2934.74
599.91	2955.22
600.10	3131.34
600.29	3022.80
600.48	2961.36
600.68	3002.32
600.87	3014.61
601.06	2914.26
601.26	2947.03
601.45	3010.51
601.64	2871.25
601.83	3262.41
602.03	2813.91
602.22	2678.74
602.41	3176.40
602.60	3422.16
602.80	2951.12
602.99	3006.42
603.18	2920.40
603.37	3049.43
603.57	2854.87
603.76	2844.63
603.95	3227.60
604.14	2944.98
604.34	2770.90
604.53	2871.25
604.72	3014.61
604.91	3123.15
605.10	2936.79
605.30	2731.99
605.49	3397.58
605.68	3123.15
605.87	2861.01
606.07	2779.09
606.26	3012.56
606.45	3041.23
606.64	2830.29
606.84	2746.33
607.03	2926.55
607.22	3198.93
607.41	2899.92
607.60	2801.62
607.80	3092.43
607.99	2899.92
608.18	2869.20
608.37	2785.24
608.56	2873.30
608.76	3104.72
608.95	3035.09
609.14	2863.06
609.33	3190.74
609.52	3258.32
609.72	2887.64
609.91	3020.75
610.10	2949.08
610.29	3178.45
610.48	3018.71
610.68	2979.79
610.87	2973.65
611.06	3127.25
611.25	2893.78
611.44	3000.27
611.63	2953.17
611.83	3176.40
612.02	2779.09
612.21	2961.36
612.40	2672.60
612.59	2766.81
612.79	2789.33
612.98	2883.54
613.17	3305.42
613.36	2865.11
613.55	3035.09
613.74	2881.49
613.93	3045.33
614.13	3033.04
614.32	3037.14
614.51	2930.64
614.70	2957.27
614.89	3000.27
615.08	2957.27
615.28	3305.42
615.47	2809.81
615.66	3041.23
615.85	2899.92
616.04	2942.93
616.23	3012.56
616.42	2971.60
616.62	2897.88
616.81	2852.82
617.00	2971.60
617.19	3033.04
617.38	2799.57
617.57	2922.45
617.76	3086.29
617.95	3110.86
618.15	2961.36
618.34	3110.86
618.53	2754.52
618.72	3145.68
618.91	2971.60
619.10	2951.12
619.29	2940.88
619.48	3018.71
619.68	2811.86
619.87	2799.57
620.06	2752.47
620.25	3055.57
620.44	2850.77
620.63	2865.11
620.82	3069.91
621.01	3047.38
621.20	2871.25
621.39	2992.08
621.59	3069.91
621.78	3026.90
621.97	2969.55
622.16	2992.08
622.35	2987.99
622.54	3137.49
622.73	2858.96
622.92	2635.74
623.11	3106.77
623.30	2844.63
623.49	3035.09
623.68	2789.33
623.88	3198.93
624.07	2863.06
624.26	2770.90
624.45	2906.07
624.64	2973.65
624.83	3088.34
625.02	2756.57
625.21	2805.72
625.40	3004.37
625.59	3215.31
625.78	2865.11
625.97	2979.79
626.16	3217.36
626.35	3188.69
626.54	2908.12
626.74	3082.19
626.93	2934.74
627.12	2947.03
627.31	2953.17
627.50	2793.43
627.69	3074.00
627.88	2875.35
628.07	2797.53
628.26	2705.37
628.45	2873.30
628.64	2783.19
628.83	2912.21
629.02	2715.61
629.21	3084.24
629.40	3057.62
629.59	2750.42
629.78	2912.21
629.97	2957.27
630.16	2934.74
630.35	2762.71
630.54	2885.59
630.73	2838.48
630.92	3035.09
631.11	2836.44
631.30	2897.88
631.49	3166.16
631.68	2930.64
631.87	2949.08
632.06	2914.26
632.25	3413.96
632.44	2938.84
632.63	2873.30
632.82	2887.64
633.01	2858.96
633.20	2961.36
633.39	2807.77
633.58	2752.47
633.77	3033.04
633.96	3030.99
634.15	2947.03
634.34	2965.46
634.53	3096.53
634.72	2861.01
634.91	2762.71
635.10	2826.20
635.29	3178.45
635.48	3028.95
635.67	2805.72
635.86	2787.29
636.05	3176.40
636.24	3016.66
636.43	2797.53
636.62	2887.64
636.81	2568.15
637.00	3086.29
637.19	2830.29
637.38	2879.44
637.57	2869.20
637.76	2934.74
637.95	3035.09
638.14	2912.21
638.33	3028.95
638.52	2990.03
638.71	2686.94
638.89	2701.27
639.08	3456.97
639.27	3174.35
639.46	3020.75
639.65	3299.28
639.84	3256.27
640.03	3471.31
640.22	3196.88
640.41	3254.22
640.60	2994.13
640.79	3164.11
640.98	3065.81
641.17	3026.90
641.36	3139.54
641.55	3024.85
641.74	2772.95
641.92	2789.33
642.11	2885.59
642.30	2959.31
642.49	2717.65
642.68	2822.10
642.87	3008.47
643.06	3084.24
643.25	2729.94
643.44	2799.57
643.63	3076.05
643.82	3252.17
644.00	2758.61
644.19	2856.92
644.38	2756.57
644.57	3096.53
644.76	2881.49
644.95	2940.88
645.14	2985.94
645.33	2942.93
645.52	2977.75
645.71	2715.61
645.89	2803.67
646.08	3002.32
646.27	2824.15
646.46	3084.24
646.65	2818.00
646.84	2975.70
647.03	2770.90
647.22	2996.18
647.40	3020.75
647.59	2973.65
647.78	2705.37
647.97	2895.83
648.16	2863.06
648.35	3205.07
648.54	3096.53
648.73	2875.35
648.91	3139.54
649.10	2969.55
649.29	2820.05
649.48	2777.05
649.67	3139.54
649.86	2940.88
650.05	2852.82
650.23	3041.23
650.42	2967.51
650.61	3235.79
650.80	3074.00
650.99	3131.34
651.18	3131.34
651.36	3160.02
651.55	2834.39
651.74	3002.32
651.93	2938.84
652.12	2967.51
652.31	2951.12
652.49	2885.59
652.68	2904.02
652.87	3282.89
653.06	2926.55
653.25	3090.38
653.44	2971.60
653.62	3223.50
653.81	2856.92
654.00	2828.24
654.19	3164.11
654.38	3430.35
654.56	2994.13
654.75	2848.72
654.94	3176.40
655.13	2987.99
655.32	2893.78
655.51	2930.64
655.69	2906.07
655.88	3026.90
656.07	2764.76
656.26	2967.51
656.45	2766.81
656.63	2930.64
656.82	2885.59
657.01	3153.87
657.20	2834.39
657.38	3229.65
657.57	2822.10
657.76	2715.61
657.95	3106.77
658.14	2832.34
658.32	2938.84
658.51	2695.13
658.70	3037.14
658.89	3047.38
659.08	2863.06
659.26	3000.27
659.45	2803.67
659.64	3061.71
659.83	2777.05
660.01	3286.99
660.20	3063.76
660.39	3246.03
660.58	2570.20
660.76	2920.40
660.95	2756.57
661.14	3010.51
661.33	2695.13
661.51	2850.77
661.70	2897.88
661.89	2977.75
662.08	2947.03
662.26	2727.89
662.45	2922.45
662.64	3323.85
662.83	2873.30
663.01	2744.28
663.20	2912.21
663.39	3243.98
663.58	2856.92
663.76	2795.48
663.95	3016.66
664.14	2797.53
664.32	2832.34
664.51	2752.47
664.70	2738.13
664.89	2942.93
665.07	2734.04
665.26	2942.93
665.45	2639.83
665.64	3106.77
665.82	2787.29
666.01	2938.84
666.20	2770.90
666.38	3121.10
666.57	3149.78
666.76	4618.17
666.95	11159.38
667.13	17503.99
667.32	21341.88
667.51	24135.31
667.69	24852.10
667.88	21006.02
668.07	15150.87
668.25	12709.69
668.44	11222.87
668.63	9734.00
668.81	8474.49
669.00	7303.06
669.19	6893.46
669.38	5883.81
669.56	5015.48
669.75	4399.04
669.94	3930.05
670.12	3373.00
670.31	3200.98
670.50	3067.86
670.68	3295.18
670.87	3071.95
671.06	2856.92
671.24	2875.35
671.43	3180.50
671.62	2959.31
671.80	2838.48
671.99	3024.85
672.18	2971.60
672.36	3139.54
672.55	2965.46
672.74	2938.84
672.92	2942.93
673.11	3043.28
673.29	2725.85
673.48	2961.36
673.67	2930.64
673.85	3061.71
674.04	2713.56
674.23	2961.36
674.41	3282.89
674.60	2781.14
674.79	2662.36
674.97	2752.47
675.16	3022.80
675.34	3209.17
675.53	2836.44
675.72	2912.21
675.90	3358.67
676.09	2924.50
676.28	2869.20
676.46	2713.56
676.65	3119.06
676.83	2852.82
677.02	2858.96
677.21	2922.45
677.39	3078.10
677.58	2994.13
677.77	2795.48
677.95	2869.20
678.14	2930.64
678.32	2908.12
678.51	2914.26
678.70	3239.89
678.88	2873.30
679.07	3047.38
679.25	2910.16
679.44	2836.44
679.63	2791.38
679.81	3041.23
680.00	3143.63
680.18	2959.31
680.37	3295.18
680.55	3018.71
680.74	2678.74
680.93	2609.11
681.11	3061.71
681.30	3024.85
681.48	2901.97
681.67	2850.77
681.85	3006.42
682.04	2916.31
682.23	3010.51
682.41	2918.36
682.60	2934.74
682.78	2971.60
682.97	2772.95
683.15	2940.88
683.34	2957.27
683.53	3182.54
683.71	2731.99
683.90	2953.17
684.08	3295.18
684.27	2992.08
684.45	2955.22
684.64	3024.85
684.82	3033.04
685.01	3065.81
685.19	2838.48
685.38	3151.82
685.57	2990.03
685.75	2861.01
685.94	2820.05
686.12	2846.68
686.31	2953.17
686.49	3352.52
686.68	2727.89
686.86	2961.36
687.05	2983.89
687.23	3233.74
687.42	2809.81
687.60	2664.41
687.79	3102.67
687.97	3266.51
688.16	2961.36
688.34	3035.09
688.53	2645.98
688.71	3033.04
688.90	3145.68
689.08	2891.73
689.27	2707.41
689.45	3119.06
689.64	3045.33
689.82	2959.31
690.01	3059.67
690.19	2985.94
690.38	2928.60
690.56	3002.32
690.75	2832.34
690.93	2897.88
691.12	2748.37
691.30	2963.41
691.49	2818.00
691.67	2910.16
691.86	3119.06
692.04	2779.09
692.23	2930.64
692.41	2949.08
692.60	3186.64
692.78	3028.95
692.97	2971.60
693.15	3094.48
693.34	3037.14
693.52	3065.81
693.71	2891.73
693.89	2893.78
694.08	2670.55
694.26	2926.55
694.44	3096.53
694.63	3106.77
694.81	2729.94
695.00	2789.33
695.18	3143.63
695.37	3391.44
695.55	3033.04
695.74	2875.35
695.92	2830.29
696.10	3258.32
696.29	2758.61
696.47	2899.92
696.66	2734.04
696.84	2789.33
697.03	2873.30
697.21	3149.78
697.40	4429.76
697.58	3139.54
697.76	2809.81
697.95	2809.81
698.13	2803.67
698.32	2924.50
698.50	2893.78
698.68	2910.16
698.87	2987.99
699.05	3278.80
699.24	2865.11
699.42	2703.32
699.61	2969.55
699.79	3045.33
699.97	2914.26
700.16	2682.84
700.34	2813.91
700.53	2975.70
700.71	3110.86
700.89	3012.56
701.08	2815.96
701.26	2965.46
701.45	3268.56
701.63	2861.01
701.81	2904.02
702.00	2779.09
702.18	2965.46
702.37	2822.10
702.55	3151.82
702.73	3057.62
702.92	2836.44
703.10	3129.30
703.28	3168.21
703.47	2844.63
703.65	3088.34
703.84	3012.56
704.02	2908.12
704.20	3205.07
704.39	2736.09
704.57	2861.01
704.75	3143.63
704.94	3125.20
705.12	2914.26
705.30	3411.92
705.49	6664.09
705.67	12740.41
705.86	18239.21
706.04	20494.02
706.22	22601.38
706.41	22167.21
706.59	16750.34
706.77	13264.69
706.96	11362.13
707.14	10313.57
707.32	9035.64
707.51	7931.78
707.69	6410.14
707.87	5398.45
708.06	4571.07
708.24	3952.58
708.42	3651.53
708.61	3702.73
708.79	2924.50
708.97	2996.18
709.16	3141.58
709.34	3030.99
709.52	2807.77
709.71	2914.26
709.89	3160.02
710.07	2797.53
710.26	2826.20
710.44	2846.68
710.62	3143.63
710.80	2932.69
710.99	2985.94
711.17	2965.46
711.35	2824.15
711.54	2901.97
711.72	3020.75
711.90	2994.13
712.09	3028.95
712.27	2893.78
712.45	2981.84
712.63	2822.10
712.82	3039.19
713.00	2936.79
713.18	2963.41
713.37	3084.24
713.55	3096.53
713.73	3065.81
713.91	2934.74
714.10	2840.53
714.28	2963.41
714.46	3069.91
714.65	2953.17
714.83	2912.21
715.01	2994.13
715.19	2994.13
715.38	2799.57
715.56	2959.31
715.74	2797.53
715.92	2869.20
716.11	3024.85
716.29	2598.87
716.47	3030.99
716.65	3033.04
716.84	2721.75
717.02	2994.13
717.20	2715.61
717.38	2867.16
717.57	2971.60
717.75	2944.98
717.93	2899.92
718.11	3069.91
718.30	2756.57
718.48	2908.12
718.66	3162.06
718.84	3133.39
719.03	2846.68
719.21	2719.70
719.39	3293.13
719.57	3063.76
719.75	2951.12
719.94	2795.48
720.12	2994.13
720.30	2955.22
720.48	2977.75
720.67	2889.68
720.85	2867.16
721.03	2891.73
721.21	2799.57
721.39	2885.59
721.58	3059.67
721.76	3016.66
721.94	2897.88
722.12	2967.51
722.30	3284.94
722.49	2787.29
722.67	2899.92
722.85	2887.64
723.03	2756.57
723.21	2953.17
723.40	2914.26
723.58	2987.99
723.76	3063.76
723.94	3168.21
724.12	2910.16
724.30	3061.71
724.49	3080.14
724.67	2789.33
724.85	2977.75
725.03	2711.51
725.21	3088.34
725.40	3188.69
725.58	2838.48
725.76	3065.81
725.94	3049.43
726.12	2856.92
726.30	2891.73
726.49	2824.15
726.67	2879.44
726.85	3106.77
727.03	3399.63
727.21	4411.32
727.39	5502.89
727.57	5957.54
727.76	6256.54
727.94	6258.59
728.12	5388.21
728.30	4616.12
728.48	4515.77
728.66	4165.57
728.84	3981.25
729.03	3444.68
729.21	3370.96
729.39	3143.63
729.57	3098.58
729.75	3067.86
729.93	2971.60
730.11	2822.10
730.30	2887.64
730.48	2953.17
730.66	2947.03
730.84	3039.19
731.02	3049.43
731.20	2904.02
731.38	2850.77
731.56	2684.89
731.74	2727.89
731.93	3067.86
732.11	3006.42
732.29	2834.39
732.47	3035.09
732.65	3037.14
732.83	3106.77
733.01	2985.94
733.19	2936.79
733.37	3067.86
733.56	2897.88
733.74	2856.92
733.92	3295.18
734.10	2873.30
734.28	2969.55
734.46	2717.65
734.64	2906.07
734.82	2987.99
735.00	2848.72
735.18	2889.68
735.36	3028.95
735.54	2949.08
735.73	2746.33
735.91	2891.73
736.09	3209.17
736.27	3018.71
736.45	2936.79
736.63	2578.39
736.81	2805.72
736.99	3110.86
737.17	3071.95
737.35	2836.44
737.53	2961.36
737.71	2936.79
737.89	3106.77
738.07	2842.58
738.25	2832.34
738.43	2682.84
738.61	2801.62
738.80	2756.57
738.98	2799.57
739.16	2861.01
739.34	2813.91
739.52	3155.92
739.70	2934.74
739.88	3059.67
740.06	3004.37
740.24	2650.07
740.42	3096.53
740.60	2686.94
740.78	2815.96
740.96	2701.27
741.14	2920.40
741.32	3026.90
741.50	2758.61
741.68	3168.21
741.86	3174.35
742.04	2787.29
742.22	2779.09
742.40	2912.21
742.58	3020.75
742.76	2873.30
742.94	3043.28
743.12	2729.94
743.30	2973.65
743.48	3108.82
743.66	2721.75
743.84	2889.68
744.02	2920.40
744.20	2924.50
744.38	2758.61
744.56	2770.90
744.74	3272.65
744.92	3098.58
745.10	3119.06
745.28	2979.79
745.46	3219.41
745.64	2981.84
745.82	2977.75
746.00	2877.40
746.18	3053.52
746.36	2795.48
746.54	2887.64
746.72	2838.48
746.90	2836.44
747.08	3166.16
747.26	2869.20
747.44	2928.60
747.62	3172.30
747.80	3117.01
747.98	3039.19
748.15	2861.01
748.33	3297.23
748.51	3018.71
748.69	2944.98
748.87	2789.33
749.05	2918.36
749.23	2975.70
749.41	2850.77
749.59	2791.38
749.77	3045.33
749.95	2899.92
750.13	2901.97
750.31	3018.71
750.49	3033.04
750.67	3207.12
750.85	3012.56
751.03	2912.21
751.20	3399.63
751.38	2942.93
751.56	2877.40
751.74	2795.48
751.92	2981.84
752.10	2815.96
752.28	2985.94
752.46	2850.77
752.64	3030.99
752.82	2996.18
753.00	2983.89
753.18	2729.94
753.35	2856.92
753.53	2916.31
753.71	2824.15
753.89	2955.22
754.07	2987.99
754.25	3117.01
754.43	2971.60
754.61	2766.81
754.79	3037.14
754.97	2936.79
755.14	3108.82
755.32	2727.89
755.50	3059.67
755.68	3074.00
755.86	2824.15
756.04	2758.61
756.22	2697.17
756.40	3074.00
756.57	3061.71
756.75	2793.43
756.93	3057.62
757.11	3074.00
757.29	2772.95
757.47	2752.47
757.65	2699.22
757.82	2549.72
758.00	2721.75
758.18	2785.24
758.36	2875.35
758.54	3289.04
758.72	2672.60
758.90	2959.31
759.07	3114.96
759.25	2895.83
759.43	2901.97
759.61	2740.18
759.79	4270.01
759.97	3182.54
760.15	2904.02
760.32	2856.92
760.50	3076.05
760.68	3260.37
760.86	2688.98
761.04	3153.87
761.22	3123.15
761.39	3047.38
761.57	2983.89
761.75	2795.48
761.93	3037.14
762.11	2959.31
762.28	2922.45
762.46	2799.57
762.64	3172.30
762.82	2703.32
763.00	2805.72
763.18	3112.91
763.35	2889.68
763.53	3088.34
763.71	2932.69
763.89	2854.87
764.07	3014.61
764.24	2930.64
764.42	2996.18
764.60	2877.40
764.78	3061.71
764.96	3063.76
765.13	3043.28
765.31	2836.44
765.49	3114.96
765.67	2930.64
765.84	2834.39
766.02	2777.05
766.20	2734.04
766.38	2983.89
766.56	2924.50
766.73	2992.08
766.91	2994.13
767.09	2953.17
767.27	2885.59
767.44	2766.81
767.62	3135.44
767.80	3030.99
767.98	2797.53
768.15	2858.96
768.33	3110.86
768.51	3106.77
768.69	2998.23
768.87	2971.60
769.04	3004.37
769.22	3403.72
769.40	3037.14
769.58	3104.72
769.75	3108.82
769.93	3184.59
770.11	2926.55
770.28	2779.09
770.46	3174.35
770.64	3049.43
770.82	2848.72
770.99	2748.37
771.17	3112.91
771.35	2897.88
771.53	2975.70
771.70	2899.92
771.88	3143.63
772.06	3016.66
772.23	2881.49
772.41	2846.68
772.59	2889.68
772.77	2883.54
772.94	2904.02
773.12	2916.31
773.30	2854.87
773.47	2967.51
773.65	2799.57
773.83	3090.38
774.01	2951.12
774.18	2662.36
774.36	2879.44
774.54	2713.56
774.71	3018.71
774.89	2691.03
775.07	2772.95
775.24	2813.91
775.42	2908.12
775.60	3352.52
775.78	2783.19
775.95	2721.75
776.13	2658.26
776.31	2662.36
776.48	3006.42
776.66	3026.90
776.84	2947.03
777.01	2889.68
777.19	2803.67
777.37	2760.66
777.54	3082.19
777.72	3370.96
777.90	2940.88
778.07	2748.37
778.25	3553.23
778.43	3170.26
778.60	2834.39
778.78	2949.08
778.96	3274.70
779.13	2752.47
779.31	3041.23
779.49	2914.26
779.66	3020.75
779.84	2840.53
780.01	2883.54
780.19	2738.13
780.37	3137.49
780.54	3026.90
780.72	2723.80
780.90	2852.82
781.07	2899.92
781.25	2897.88
781.43	3043.28
781.60	2813.91
781.78	3190.74
781.95	3035.09
782.13	2779.09
782.31	2813.91
782.48	2731.99
782.66	2994.13
782.83	3112.91
783.01	2926.55
783.19	3137.49
783.36	2963.41
783.54	2791.38
783.72	2944.98
783.89	2924.50
784.07	3024.85
784.24	2893.78
784.42	3043.28
784.60	3049.43
784.77	2985.94
784.95	2633.69
785.12	2895.83
785.30	3041.23
785.47	2748.37
785.65	2764.76
785.83	2930.64
786.00	2824.15
786.18	3014.61
786.35	2791.38
786.53	2738.13
786.71	3211.22
786.88	3000.27
787.06	2895.83
787.23	2895.83
787.41	2791.38
787.58	2928.60
787.76	2762.71
787.94	2838.48
788.11	3026.90
788.29	2846.68
788.46	2801.62
788.64	2715.61
788.81	2848.72
788.99	2848.72
789.16	2783.19
789.34	2877.40
789.52	2891.73
789.69	2873.30
789.87	2643.93
790.04	2865.11
790.22	2924.50
790.39	3297.23
790.57	2836.44
790.74	2738.13
790.92	3117.01
791.09	2674.65
791.27	2912.21
791.44	2990.03
791.62	2963.41
791.79	3084.24
791.97	2977.75
792.15	3246.03
792.32	3069.91
792.50	3149.78
792.67	3076.05
792.85	3098.58
793.02	3018.71
793.20	2824.15
793.37	2713.56
793.55	2738.13
793.72	2727.89
793.90	3100.62
794.07	2965.46
794.25	2734.04
794.42	3008.47
794.60	2879.44
794.77	2838.48
794.95	2965.46
795.12	3065.81
795.30	2916.31
795.47	2703.32
795.65	3266.51
795.82	3030.99
796.00	2881.49
796.17	2947.03
796.34	2793.43
796.52	3026.90
796.69	3190.74
796.87	2998.23
797.04	2955.22
797.22	3094.48
797.39	3010.51
797.57	3065.81
797.74	2938.84
797.92	3002.32
798.09	2840.53
798.27	3112.91
798.44	2758.61
798.62	2834.39
798.79	2979.79
798.96	2953.17
799.14	2826.20
799.31	3532.75
799.49	3012.56
799.66	2844.63
799.84	2867.16
800.01	2750.42
800.19	3022.80
800.36	2691.03
800.53	2850.77
800.71	3088.34
800.88	3203.02
801.06	2760.66
801.23	2949.08
801.41	2961.36
801.58	2809.81
801.75	2797.53
801.93	2865.11
802.10	3151.82
802.28	2918.36
802.45	2873.30
802.63	2891.73
802.80	3133.39
802.97	2906.07
803.15	2914.26
803.32	2775.00
803.50	2801.62
803.67	2850.77
803.84	2775.00
804.02	2858.96
804.19	2793.43
804.37	2619.35
804.54	2674.65
804.71	2748.37
804.89	2953.17
805.06	2832.34
805.24	2703.32
805.41	2777.05
805.58	2693.08
805.76	3393.48
805.93	2875.35
806.10	2959.31
806.28	3121.10
806.45	3039.19
806.63	2916.31
806.80	2893.78
806.97	3024.85
807.15	3086.29
807.32	2916.31
807.49	2856.92
807.67	2748.37
807.84	3016.66
808.01	2709.46
808.19	3049.43
808.36	3317.71
808.54	2904.02
808.71	2826.20
808.88	2873.30
809.06	3217.36
809.23	3200.98
809.40	2906.07
809.58	2877.40
809.75	2949.08
809.92	2838.48
810.10	3049.43
810.27	2922.45
810.44	3041.23
810.62	3114.96
810.79	2992.08
810.96	2838.48
811.14	2887.64
811.31	3090.38
811.48	3026.90
811.66	2918.36
811.83	3162.06
812.00	3155.92
812.18	2951.12
812.35	3213.26
812.52	2820.05
812.69	2897.88
812.87	2920.40
813.04	2805.72
813.21	2940.88
813.39	2781.14
813.56	2820.05
813.73	3057.62
813.91	2715.61
814.08	2969.55
814.25	2828.24
814.42	2672.60
814.60	2975.70
814.77	2901.97
814.94	2824.15
815.12	2987.99
815.29	3252.17
815.46	2891.73
815.63	2922.45
815.81	2877.40
815.98	2912.21
816.15	2906.07
816.33	2901.97
816.50	2879.44
816.67	2979.79
816.84	2914.26
817.02	2705.37
817.19	2811.86
817.36	3067.86
817.53	3065.81
817.71	2734.04
817.88	2922.45
818.05	2930.64
818.22	2967.51
818.40	3006.42
818.57	2836.44
818.74	3043.28
818.91	2955.22
819.09	3047.38
819.26	3018.71
819.43	2873.30
819.60	2895.83
819.78	2979.79
819.95	2998.23
820.12	2754.52
820.29	3254.22
820.47	3074.00
820.64	2795.48
820.81	2754.52
820.98	2861.01
821.15	2844.63
821.33	2936.79
821.50	2766.81
821.67	3045.33
821.84	2840.53
822.02	2924.50
822.19	3043.28
822.36	2873.30
822.53	2820.05
822.70	2719.70
822.88	2938.84
823.05	3180.50
823.22	2920.40
823.39	2910.16
823.56	2971.60
823.74	3291.09
823.91	2727.89
824.08	2791.38
824.25	2797.53
824.42	3301.33
824.60	2682.84
824.77	2957.27
824.94	2959.31
825.11	3084.24
825.28	2682.84
825.45	2994.13
825.63	2924.50
825.80	2770.90
825.97	2916.31
826.14	2836.44
826.31	2645.98
826.48	3076.05
826.66	2818.00
826.83	2815.96
827.00	2932.69
827.17	2844.63
827.34	2791.38
827.51	2793.43
827.69	2871.25
827.86	2762.71
828.03	2852.82
828.20	2940.88
828.37	2836.44
828.54	2994.13
828.71	2805.72
828.89	2959.31
829.06	3069.91
829.23	3106.77
829.40	2871.25
829.57	2885.59
829.74	3092.43
829.91	2926.55
830.09	2791.38
830.26	2996.18
830.43	3205.07
830.60	2848.72
830.77	2885.59
830.94	3055.57
831.11	3055.57
831.28	2863.06
831.46	3008.47
831.63	2846.68
831.80	3041.23
831.97	2793.43
832.14	2865.11
832.31	2918.36
832.48	2961.36
832.65	3196.88
832.82	2951.12
832.99	2926.55
833.17	2799.57
833.34	3284.94
833.51	2901.97
833.68	2609.11
833.85	3155.92
834.02	2736.09
834.19	2803.67
834.36	2838.48
834.53	2963.41
834.70	3147.73
834.87	2820.05
835.04	2639.83
835.22	2904.02
835.39	3069.91
835.56	2787.29
835.73	2752.47
835.90	3076.05
836.07	2854.87
836.24	2891.73
836.41	2707.41
836.58	2826.20
836.75	3133.39
836.92	2697.17
837.09	2691.03
837.26	3039.19
837.43	3000.27
837.60	2699.22
837.77	2705.37
837.94	3166.16
838.12	3149.78
838.29	2707.41
838.46	2625.50
838.63	2713.56
838.80	3280.85
838.97	2826.20
839.14	2664.41
839.31	2973.65
839.48	3051.47
839.65	2795.48
839.82	2756.57
839.99	2973.65
840.16	3074.00
840.33	2691.03
840.50	2836.44
840.67	2910.16
840.84	2648.02
841.01	2654.17
841.18	2695.13
841.35	2930.64
841.52	3096.53
841.69	3010.51
841.86	2764.76
842.03	2934.74
842.20	3123.15
842.37	2699.22
842.54	2764.76
842.71	2942.93
842.88	2775.00
843.05	2775.00
843.22	2805.72
843.39	3071.95
843.56	2865.11
843.73	2703.32
843.90	2820.05
844.07	3004.37
844.24	3063.76
844.41	2885.59
844.58	2721.75
844.75	2981.84
844.92	3129.30
845.09	2772.95
845.26	2748.37
845.43	3088.34
845.60	2992.08
845.77	2842.58
845.94	2799.57
846.10	3102.67
846.27	2844.63
846.44	2592.73
846.61	2660.31
846.78	3065.81
846.95	3082.19
847.12	2701.27
847.29	2820.05
847.46	2852.82
847.63	3119.06
847.80	2678.74
847.97	2756.57
848.14	3354.57
848.31	2992.08
848.48	2559.96
848.65	2805.72
848.82	2803.67
848.98	3409.87
849.15	2877.40
849.32	2854.87
849.49	3092.43
849.66	2969.55
849.83	2711.51
850.00	2656.22
850.17	3149.78
850.34	2932.69
850.51	2723.80
850.68	2748.37
850.85	3377.10
851.01	2957.27
851.18	2742.23
851.35	2795.48
851.52	2951.12
851.69	3231.69
851.86	2660.31
852.03	2729.94
852.20	3061.71
852.37	2996.18
852.53	2627.54
852.70	2801.62
852.87	2942.93
853.04	3131.34
853.21	2697.17
853.38	2893.78
853.55	3227.60
853.72	3215.31
853.89	2713.56
854.05	2764.76
854.22	2936.79
854.39	2809.81
854.56	2772.95
854.73	2871.25
854.90	2830.29
855.07	2920.40
855.23	2715.61
855.40	2701.27
855.57	2856.92
855.74	2625.50
855.91	2865.11
856.08	2564.06
856.25	2705.37
856.41	2967.51
856.58	2699.22
856.75	2703.32
856.92	2838.48
857.09	3071.95
857.26	2635.74
857.42	2672.60
857.59	3082.19
857.76	2944.98
857.93	2752.47
858.10	2799.57
858.27	2770.90
858.43	3026.90
858.60	2666.46
858.77	2557.91
858.94	2887.64
859.11	3200.98
859.27	2783.19
859.44	2744.28
859.61	3293.13
859.78	3106.77
859.95	2768.85
860.12	2680.79
860.28	3289.04
860.45	3270.61
860.62	2686.94
860.79	2865.11
860.95	2914.26
861.12	2811.86
861.29	2631.64
861.46	2650.07
861.63	2955.22
861.79	3057.62
861.96	2621.40
862.13	2707.41
862.30	3186.64
862.47	2852.82
862.63	2639.83
862.80	2709.46
862.97	3100.62
863.14	2955.22
863.30	2772.95
863.47	2643.93
863.64	3282.89
863.81	3010.51
863.97	2668.50
864.14	2901.97
864.31	2856.92
864.48	2977.75
864.65	2680.79
864.81	2879.44
864.98	3022.80
865.15	3076.05
865.32	2772.95
865.48	2842.58
865.65	3243.98
865.82	2938.84
865.98	2885.59
866.15	2828.24
866.32	2920.40
866.49	2887.64
866.65	2877.40
866.82	2744.28
866.99	2879.44
867.16	2807.77
867.32	2744.28
867.49	2625.50
867.66	2854.87
867.83	2873.30
867.99	2672.60
868.16	2760.66
868.33	2742.23
868.49	2899.92
868.66	2715.61
868.83	2811.86
868.99	2967.51
869.16	2987.99
869.33	2871.25
869.50	2787.29
869.66	2975.70
869.83	2955.22
870.00	2598.87
870.16	2869.20
870.33	2912.21
870.50	3086.29
870.66	2760.66
870.83	2746.33
871.00	2985.94
871.17	3090.38
871.33	2799.57
871.50	2650.07
871.67	2928.60
871.83	2752.47
872.00	2824.15
872.17	2738.13
872.33	3239.89
872.50	3067.86
872.67	2768.85
872.83	2709.46
873.00	3106.77
873.17	2981.84
873.33	2799.57
873.50	2809.81
873.67	2846.68
873.83	2887.64
874.00	2731.99
874.16	2852.82
874.33	2979.79
874.50	2715.61
874.66	2731.99
874.83	2867.16
875.00	3192.78
875.16	3119.06
875.33	2783.19
875.50	2455.51
875.66	2938.84
875.83	2947.03
875.99	2908.12
876.16	2828.24
876.33	2793.43
876.49	2992.08
876.66	2818.00
876.83	2893.78
876.99	2758.61
877.16	2961.36
877.32	2686.94
877.49	2822.10
877.66	2961.36
877.82	3237.84
877.99	2809.81
878.15	2985.94
878.32	3022.80
878.49	3028.95
878.65	2744.28
878.82	3030.99
878.98	2832.34
879.15	3162.06
879.32	2873.30
879.48	2879.44
879.65	2942.93
879.81	2930.64
879.98	2717.65
880.15	2721.75
880.31	3067.86
880.48	2820.05
880.64	2797.53
880.81	2885.59
880.97	3184.59
881.14	3213.26
881.31	2746.33
881.47	2953.17
881.64	3037.14
881.80	2723.80
881.97	2920.40
882.13	2760.66
882.30	2834.39
882.47	2787.29
882.63	2809.81
882.80	2678.74
882.96	2908.12
883.13	3250.13
883.29	2740.18
883.46	2762.71
883.62	3362.76
883.79	2967.51
883.95	2916.31
884.12	2729.94
884.29	3198.93
884.45	2971.60
884.62	2781.14
884.78	2684.89
884.95	3254.22
885.11	2766.81
885.28	2783.19
885.44	2727.89
885.61	3145.68
885.77	3209.17
885.94	2910.16
886.10	2828.24
886.27	2977.75
886.43	3286.99
886.60	2990.03
886.76	2736.09
886.93	2854.87
887.09	2959.31
887.26	2658.26
887.42	2818.00
887.59	3088.34
887.75	3368.91
887.92	2930.64
888.08	2844.63
888.25	3268.56
888.41	3182.54
888.58	2830.29
888.74	2652.12
888.91	2852.82
>>>>>End Processed Spectral Data<<<<<
