SpectraSuite Data File
++++++++++++++++++++++++++++++++++++
Date: Thu May 05 21:10:53 CEST 2016
User: root
Dark Spectrum Present: No
Reference Spectrum Present: No
Number of Sampled Component Spectra: 1
Spectrometers: USB4C02835
Integration Time (usec): 100000 (USB4C02835)
Spectra Averaged: 1 (USB4C02835)
Boxcar Smoothing: 0 (USB4C02835)
Correct for Electrical Dark: No (USB4C02835)
Strobe/Lamp Enabled: No (USB4C02835)
Correct for Detector Non-linearity: No (USB4C02835)
Correct for Stray Light: No (USB4C02835)
Number of Pixels in Processed Spectrum: 3648
>>>>>Begin Processed Spectral Data<<<<<
177.47	2150.37
177.69	2150.37
177.91	2150.37
178.13	2097.12
178.36	2148.32
178.58	2824.15
178.80	2965.46
179.02	2721.75
179.24	2863.06
179.46	2660.31
179.68	2721.75
179.90	3028.95
180.13	3026.90
180.35	2539.48
180.57	2652.12
180.79	3084.24
181.01	3030.99
181.23	2760.66
181.45	2799.57
181.67	3069.91
181.90	3141.58
182.12	2693.08
182.34	2555.86
182.56	3096.53
182.78	2994.13
183.00	2631.64
183.22	2713.56
183.44	2676.70
183.66	3532.75
183.89	2750.42
184.11	2623.45
184.33	3082.19
184.55	3114.96
184.77	2695.13
184.99	2648.02
185.21	2906.07
185.43	3454.92
185.65	2717.65
185.87	2594.78
186.10	3352.52
186.32	3440.59
186.54	2795.48
186.76	2723.80
186.98	3194.83
187.20	2979.79
187.42	2797.53
187.64	2586.58
187.86	3024.85
188.08	3139.54
188.30	2582.49
188.52	2725.85
188.75	3143.63
188.97	3209.17
189.19	2660.31
189.41	2658.26
189.63	3022.80
189.85	2938.84
190.07	2549.72
190.29	2482.14
190.51	3088.34
190.73	2805.72
190.95	2865.11
191.17	2742.23
191.39	2695.13
191.61	2934.74
191.84	2701.27
192.06	2768.85
192.28	2736.09
192.50	3551.18
192.72	2815.96
192.94	2731.99
193.16	3106.77
193.38	3043.28
193.60	2553.82
193.82	2840.53
194.04	3135.44
194.26	2961.36
194.48	2631.64
194.70	2697.17
194.92	2955.22
195.14	3108.82
195.36	2682.84
195.58	2764.76
195.80	2973.65
196.02	2867.16
196.24	2688.98
196.46	2729.94
196.69	2906.07
196.91	3504.07
197.13	2695.13
197.35	2740.18
197.57	3221.45
197.79	3057.62
198.01	2758.61
198.23	2727.89
198.45	3110.86
198.67	2793.43
198.89	2547.67
199.11	2772.95
199.33	2871.25
199.55	2697.17
199.77	2701.27
199.99	2727.89
200.21	2912.21
200.43	2987.99
200.65	2578.39
200.87	2488.28
201.09	3014.61
201.31	2940.88
201.53	2754.52
201.75	2764.76
201.97	3041.23
202.19	2985.94
202.41	2785.24
202.63	2854.87
202.85	3028.95
203.07	3033.04
203.29	2750.42
203.51	2549.72
203.73	2881.49
203.95	3518.41
204.17	2686.94
204.39	2799.57
204.61	2940.88
204.83	2918.36
205.05	2891.73
205.27	2707.41
205.49	3297.23
205.71	2990.03
205.93	2566.10
206.15	2543.58
206.37	2969.55
206.59	2971.60
206.81	2527.19
207.03	2652.12
207.25	2772.95
207.47	3026.90
207.69	2742.23
207.91	2922.45
208.13	3184.59
208.34	2887.64
208.56	2654.17
208.78	2721.75
209.00	2840.53
209.22	2869.20
209.44	2691.03
209.66	2719.70
209.88	2967.51
210.10	2955.22
210.32	2688.98
210.54	2828.24
210.76	2949.08
210.98	3215.31
211.20	2588.63
211.42	2813.91
211.64	3190.74
211.86	3098.58
212.08	2705.37
212.30	2725.85
212.52	2973.65
212.74	3008.47
212.96	2731.99
213.17	2795.48
213.39	3121.10
213.61	3327.95
213.83	2662.36
214.05	2568.15
214.27	3127.25
214.49	2856.92
214.71	2654.17
214.93	2752.47
215.15	2932.69
215.37	3098.58
215.59	2557.91
215.81	2756.57
216.03	3321.81
216.24	2926.55
216.46	2664.41
216.68	2844.63
216.90	3141.58
217.12	3117.01
217.34	2695.13
217.56	2770.90
217.78	3194.83
218.00	3067.86
218.22	2768.85
218.44	2904.02
218.66	3037.14
218.87	3416.01
219.09	2652.12
219.31	2707.41
219.53	3063.76
219.75	2940.88
219.97	2731.99
220.19	2670.55
220.41	2987.99
220.63	3246.03
220.85	2801.62
221.06	2822.10
221.28	3155.92
221.50	3106.77
221.72	2645.98
221.94	2600.92
222.16	3002.32
222.38	3041.23
222.60	2684.89
222.82	2672.60
223.03	3119.06
223.25	2750.42
223.47	2705.37
223.69	2947.03
223.91	3178.45
224.13	3030.99
224.35	2559.96
224.57	2848.72
224.78	3133.39
225.00	2838.48
225.22	2729.94
225.44	2607.06
225.66	3082.19
225.88	2832.34
226.10	2725.85
226.32	2705.37
226.53	3260.37
226.75	2951.12
226.97	2828.24
227.19	2695.13
227.41	2912.21
227.63	2930.64
227.85	2443.23
228.06	2688.98
228.28	3012.56
228.50	3137.49
228.72	2533.34
228.94	2602.97
229.16	2627.54
229.37	2754.52
229.59	2617.30
229.81	2942.93
230.03	2932.69
230.25	2760.66
230.47	2535.39
230.69	2631.64
230.90	3102.67
231.12	2910.16
231.34	2846.68
231.56	2713.56
231.78	2842.58
232.00	3063.76
232.21	2736.09
232.43	2775.00
232.65	2629.59
232.87	3028.95
233.09	2598.87
233.30	2629.59
233.52	3256.27
233.74	2992.08
233.96	2652.12
234.18	2768.85
234.40	2936.79
234.61	3409.87
234.83	2629.59
235.05	2758.61
235.27	3428.30
235.49	3225.55
235.70	2541.53
235.92	2731.99
236.14	3162.06
236.36	3420.11
236.58	2533.34
236.79	2797.53
237.01	3012.56
237.23	3024.85
237.45	2908.12
237.67	2754.52
237.88	3030.99
238.10	3338.19
238.32	2635.74
238.54	2615.26
238.76	3000.27
238.97	2789.33
239.19	2555.86
239.41	2674.65
239.63	3106.77
239.85	2893.78
240.06	2686.94
240.28	2641.88
240.50	3004.37
240.72	2987.99
240.93	2500.57
241.15	2842.58
241.37	2998.23
241.59	3157.97
241.81	2713.56
242.02	2762.71
242.24	3045.33
242.46	3106.77
242.68	2535.39
242.89	2615.26
243.11	3157.97
243.33	2959.31
243.55	2688.98
243.76	2736.09
243.98	2850.77
244.20	2979.79
244.42	2703.32
244.64	2727.89
244.85	2789.33
245.07	2740.18
245.29	2676.70
245.51	2635.74
245.72	3051.47
245.94	3176.40
246.16	2676.70
246.38	2742.23
246.59	2877.40
246.81	2908.12
247.03	2621.40
247.24	2617.30
247.46	2869.20
247.68	2961.36
247.90	2643.93
248.11	2777.05
248.33	3164.11
248.55	2990.03
248.77	2830.29
248.98	2760.66
249.20	3203.02
249.42	3084.24
249.64	2684.89
249.85	2688.98
250.07	2850.77
250.29	3119.06
250.50	2766.81
250.72	2590.68
250.94	3065.81
251.16	3401.68
251.37	2635.74
251.59	2811.86
251.81	3067.86
252.02	3198.93
252.24	2598.87
252.46	2879.44
252.68	2826.20
252.89	2820.05
253.11	2525.15
253.33	2834.39
253.54	3258.32
253.76	2797.53
253.98	2742.23
254.20	2562.01
254.41	2789.33
254.63	2944.98
254.85	2568.15
255.06	2803.67
255.28	3020.75
255.50	2961.36
255.71	2645.98
255.93	2568.15
256.15	2979.79
256.36	3108.82
256.58	2572.25
256.80	2619.35
257.02	2918.36
257.23	2871.25
257.45	2715.61
257.67	2813.91
257.88	2826.20
258.10	3123.15
258.32	2658.26
258.53	2715.61
258.75	3207.12
258.97	2918.36
259.18	2613.21
259.40	2607.06
259.62	3243.98
259.83	3223.50
260.05	2705.37
260.27	3483.59
260.48	3162.06
260.70	2820.05
260.92	2553.82
261.13	2715.61
261.35	3016.66
261.57	3137.49
261.78	2566.10
262.00	2621.40
262.22	3090.38
262.43	2809.81
262.65	2725.85
262.86	2756.57
263.08	3332.05
263.30	2994.13
263.51	2494.43
263.73	2633.69
263.95	3186.64
264.16	2813.91
264.38	2568.15
264.60	2699.22
264.81	2955.22
265.03	3102.67
265.25	3016.66
265.46	2623.45
265.68	3221.45
265.89	3133.39
266.11	2521.05
266.33	2701.27
266.54	3229.65
266.76	3045.33
266.98	2789.33
267.19	2805.72
267.41	3137.49
267.62	2998.23
267.84	2486.23
268.06	2828.24
268.27	2977.75
268.49	3174.35
268.70	2764.76
268.92	2713.56
269.14	2838.48
269.35	2791.38
269.57	2801.62
269.79	2777.05
270.00	2887.64
270.22	3188.69
270.43	2553.82
270.65	2600.92
270.87	3041.23
271.08	3141.58
271.30	2818.00
271.51	2678.74
271.73	3102.67
271.95	3178.45
272.16	2664.41
272.38	2772.95
272.59	2893.78
272.81	3139.54
273.02	2678.74
273.24	2693.08
273.46	3114.96
273.67	2795.48
273.89	2664.41
274.10	2715.61
274.32	3184.59
274.54	3018.71
274.75	2764.76
274.97	2723.80
275.18	3106.77
275.40	3049.43
275.61	2760.66
275.83	2897.88
276.05	2893.78
276.26	2979.79
276.48	2805.72
276.69	2854.87
276.91	2877.40
277.12	3336.14
277.34	2875.35
277.55	2869.20
277.77	2961.36
277.99	3010.51
278.20	2809.81
278.42	2688.98
278.63	2840.53
278.85	2897.88
279.06	2783.19
279.28	2891.73
279.49	3164.11
279.71	3104.72
279.93	2897.88
280.14	2889.68
280.36	2926.55
280.57	3170.26
280.79	2863.06
281.00	2705.37
281.22	2920.40
281.43	3170.26
281.65	2609.11
281.86	2723.80
282.08	3137.49
282.29	3395.53
282.51	2686.94
282.73	2729.94
282.94	2756.57
283.16	3016.66
283.37	2949.08
283.59	2791.38
283.80	2961.36
284.02	3008.47
284.23	2875.35
284.45	2805.72
284.66	2869.20
284.88	2893.78
285.09	2787.29
285.31	2910.16
285.52	3125.20
285.74	2725.85
285.95	2947.03
286.17	2805.72
286.38	3211.22
286.60	2949.08
286.81	2695.13
287.03	2775.00
287.24	3000.27
287.46	3053.52
287.67	2914.26
287.89	3061.71
288.10	2873.30
288.32	2975.70
288.53	2959.31
288.75	2879.44
288.96	3053.52
289.18	2811.86
289.39	2680.79
289.61	2908.12
289.82	3307.47
290.04	3272.65
290.25	2697.17
290.47	2899.92
290.68	2881.49
290.90	3100.62
291.11	2631.64
291.33	2924.50
291.54	2824.15
291.76	2832.34
291.97	2867.16
292.18	2918.36
292.40	3004.37
292.61	2858.96
292.83	3110.86
293.04	2883.54
293.26	3045.33
293.47	2985.94
293.69	2766.81
293.90	2734.04
294.12	3071.95
294.33	2926.55
294.55	2873.30
294.76	3014.61
294.97	3266.51
295.19	3330.00
295.40	2840.53
295.62	2904.02
295.83	3092.43
296.05	2881.49
296.26	2985.94
296.48	2742.23
296.69	2965.46
296.90	2932.69
297.12	2910.16
297.33	2869.20
297.55	2953.17
297.76	3057.62
297.98	2842.58
298.19	2936.79
298.41	2963.41
298.62	2818.00
298.83	2908.12
299.05	2922.45
299.26	3016.66
299.48	2838.48
299.69	2873.30
299.90	2795.48
300.12	2883.54
300.33	3164.11
300.55	2785.24
300.76	2820.05
300.98	2775.00
301.19	3108.82
301.40	2766.81
301.62	2738.13
301.83	3108.82
302.05	3022.80
302.26	2768.85
302.47	2828.24
302.69	2752.47
302.90	3014.61
303.12	2516.95
303.33	2836.44
303.54	3385.29
303.76	2961.36
303.97	2813.91
304.19	2965.46
304.40	2906.07
304.61	3139.54
304.83	2893.78
305.04	2906.07
305.26	3018.71
305.47	2877.40
305.68	2865.11
305.90	2613.21
306.11	3213.26
306.33	3028.95
306.54	2721.75
306.75	2793.43
306.97	2783.19
307.18	2838.48
307.39	2801.62
307.61	2850.77
307.82	3006.42
308.04	3071.95
308.25	2688.98
308.46	2895.83
308.68	2949.08
308.89	2949.08
309.10	2940.88
309.32	2828.24
309.53	2985.94
309.74	2983.89
309.96	2775.00
310.17	2877.40
310.39	2928.60
310.60	3114.96
310.81	2742.23
311.03	2754.52
311.24	3104.72
311.45	2944.98
311.67	2990.03
311.88	2828.24
312.09	2863.06
312.31	2787.29
312.52	2750.42
312.73	2758.61
312.95	2725.85
313.16	2856.92
313.37	2957.27
313.59	2949.08
313.80	3131.34
314.01	3250.13
314.23	2840.53
314.44	2682.84
314.65	2805.72
314.87	2906.07
315.08	2842.58
315.29	2785.24
315.51	2752.47
315.72	2770.90
315.93	2869.20
316.15	2879.44
316.36	2850.77
316.57	3043.28
316.79	2770.90
317.00	2723.80
317.21	3094.48
317.43	2797.53
317.64	2856.92
317.85	2711.51
318.07	2852.82
318.28	2961.36
318.49	2858.96
318.70	3088.34
318.92	3053.52
319.13	3045.33
319.34	2930.64
319.56	2768.85
319.77	3139.54
319.98	3090.38
320.20	2967.51
320.41	2959.31
320.62	3033.04
320.83	2926.55
321.05	3051.47
321.26	2805.72
321.47	2928.60
321.69	3117.01
321.90	2701.27
322.11	2686.94
322.32	3012.56
322.54	3303.37
322.75	2772.95
322.96	3614.66
323.18	2727.89
323.39	2699.22
323.60	2707.41
323.81	2965.46
324.03	2920.40
324.24	2983.89
324.45	2871.25
324.66	2791.38
324.88	3133.39
325.09	3162.06
325.30	2779.09
325.52	2811.86
325.73	3069.91
325.94	2768.85
326.15	2637.78
326.37	2664.41
326.58	3178.45
326.79	3307.47
327.00	2734.04
327.22	2748.37
327.43	2975.70
327.64	2865.11
327.85	2928.60
328.07	2779.09
328.28	3332.05
328.49	2904.02
328.70	2777.05
328.92	2779.09
329.13	2971.60
329.34	3055.57
329.55	3039.19
329.76	2940.88
329.98	2920.40
330.19	3233.74
330.40	2815.96
330.61	2889.68
330.83	3141.58
331.04	2883.54
331.25	2848.72
331.46	2801.62
331.68	2836.44
331.89	3164.11
332.10	2901.97
332.31	2674.65
332.52	3000.27
332.74	3209.17
332.95	2658.26
333.16	2705.37
333.37	3104.72
333.58	2846.68
333.80	2856.92
334.01	2619.35
334.22	2983.89
334.43	2795.48
334.64	2787.29
334.86	2789.33
335.07	2836.44
335.28	3213.26
335.49	2740.18
335.70	2951.12
335.92	3188.69
336.13	3254.22
336.34	2762.71
336.55	2879.44
336.76	3014.61
336.98	2623.45
337.19	2811.86
337.40	2914.26
337.61	3397.58
337.82	2912.21
338.04	2783.19
338.25	2621.40
338.46	2926.55
338.67	2932.69
338.88	2631.64
339.09	2736.09
339.31	2893.78
339.52	2738.13
339.73	2752.47
339.94	2832.34
340.15	3106.77
340.36	2832.34
340.58	2901.97
340.79	2727.89
341.00	3114.96
341.21	2775.00
341.42	3012.56
341.63	2789.33
341.85	3123.15
342.06	2994.13
342.27	2719.70
342.48	2897.88
342.69	2801.62
342.90	3008.47
343.12	3143.63
343.33	2760.66
343.54	3162.06
343.75	3243.98
343.96	2840.53
344.17	2676.70
344.38	2959.31
344.60	2899.92
344.81	2756.57
345.02	2807.77
345.23	3196.88
345.44	3409.87
345.65	2910.16
345.86	2836.44
346.07	2990.03
346.29	2920.40
346.50	2928.60
346.71	2865.11
346.92	3229.65
347.13	3313.61
347.34	2832.34
347.55	2666.46
347.76	3086.29
347.98	2723.80
348.19	2830.29
348.40	2944.98
348.61	2889.68
348.82	3229.65
349.03	2867.16
349.24	2697.17
349.45	3252.17
349.66	2654.17
349.88	2834.39
350.09	2652.12
350.30	3252.17
350.51	3231.69
350.72	2834.39
350.93	2789.33
351.14	2916.31
351.35	3020.75
351.56	2865.11
351.77	2858.96
351.99	3045.33
352.20	3291.09
352.41	2944.98
352.62	2574.30
352.83	2949.08
353.04	3045.33
353.25	2748.37
353.46	2830.29
353.67	3174.35
353.88	2731.99
354.09	2717.65
354.30	2824.15
354.52	3190.74
354.73	2992.08
354.94	2830.29
355.15	2867.16
355.36	3235.79
355.57	2944.98
355.78	2801.62
355.99	2727.89
356.20	2932.69
356.41	3186.64
356.62	2904.02
356.83	2815.96
357.04	3194.83
357.25	2738.13
357.46	2856.92
357.68	2576.34
357.89	2803.67
358.10	2957.27
358.31	2840.53
358.52	2846.68
358.73	2818.00
358.94	2772.95
359.15	2926.55
359.36	2803.67
359.57	2940.88
359.78	2987.99
359.99	2959.31
360.20	2727.89
360.41	2938.84
360.62	3155.92
360.83	2793.43
361.04	2783.19
361.25	3022.80
361.46	3258.32
361.67	2908.12
361.88	2781.14
362.09	3145.68
362.30	3016.66
362.51	2793.43
362.72	2805.72
362.93	3039.19
363.14	3006.42
363.35	2899.92
363.56	2699.22
363.78	3143.63
363.99	3170.26
364.20	2766.81
364.41	2861.01
364.62	3309.52
364.83	3090.38
365.04	2838.48
365.25	2842.58
365.46	3317.71
365.67	2869.20
365.88	2828.24
366.09	2754.52
366.30	2944.98
366.51	2944.98
366.72	2682.84
366.93	2834.39
367.14	3026.90
367.35	3194.83
367.56	2781.14
367.77	2901.97
367.98	2938.84
368.18	3080.14
368.39	2924.50
368.60	2705.37
368.81	3067.86
369.02	3037.14
369.23	2789.33
369.44	2584.54
369.65	2963.41
369.86	3106.77
370.07	2879.44
370.28	2721.75
370.49	3141.58
370.70	3069.91
370.91	2781.14
371.12	2691.03
371.33	3180.50
371.54	2895.83
371.75	2901.97
371.96	2605.02
372.17	2981.84
372.38	2963.41
372.59	2805.72
372.80	2758.61
373.01	2955.22
373.22	3051.47
373.43	2787.29
373.64	2684.89
373.85	3213.26
374.06	3311.57
374.26	2987.99
374.47	2881.49
374.68	3254.22
374.89	3028.95
375.10	2805.72
375.31	2832.34
375.52	2975.70
375.73	3000.27
375.94	2734.04
376.15	3018.71
376.36	2865.11
376.57	2873.30
376.78	2858.96
376.99	2789.33
377.20	3209.17
377.40	2873.30
377.61	3051.47
377.82	2701.27
378.03	3268.56
378.24	3059.67
378.45	2854.87
378.66	2830.29
378.87	2701.27
379.08	2738.13
379.29	2879.44
379.50	2998.23
379.71	2914.26
379.91	3108.82
380.12	2803.67
380.33	2852.82
380.54	2987.99
380.75	2877.40
380.96	2764.76
381.17	2852.82
381.38	2977.75
381.59	2928.60
381.80	2844.63
382.00	3061.71
382.21	2994.13
382.42	3176.40
382.63	3155.92
382.84	2912.21
383.05	3106.77
383.26	3248.08
383.47	2932.69
383.68	2838.48
383.88	3028.95
384.09	3018.71
384.30	3020.75
384.51	2928.60
384.72	2947.03
384.93	2752.47
385.14	2926.55
385.35	2955.22
385.55	2711.51
385.76	3256.27
385.97	2854.87
386.18	2650.07
386.39	2820.05
386.60	2893.78
386.81	2748.37
387.02	2699.22
387.22	2731.99
387.43	3112.91
387.64	2863.06
387.85	2942.93
388.06	3080.14
388.27	3993.54
388.48	7137.17
388.68	10780.51
388.89	13444.91
389.10	14638.88
389.31	13918.00
389.52	11403.09
389.73	9736.04
389.93	8929.14
390.14	8107.91
390.35	7382.93
390.56	6535.07
390.77	5603.24
390.98	4284.35
391.18	3665.86
391.39	3407.82
391.60	2977.75
391.81	2977.75
392.02	2875.35
392.23	3370.96
392.43	2955.22
392.64	2961.36
392.85	2873.30
393.06	3262.41
393.27	2918.36
393.47	2762.71
393.68	2871.25
393.89	2918.36
394.10	3227.60
394.31	2846.68
394.52	2828.24
394.72	2875.35
394.93	3256.27
395.14	2805.72
395.35	2883.54
395.56	2955.22
395.76	3008.47
395.97	2854.87
396.18	2983.89
396.39	3074.00
396.60	3581.90
396.80	3188.69
397.01	2930.64
397.22	3149.78
397.43	3196.88
397.64	2822.10
397.84	2947.03
398.05	3330.00
398.26	2953.17
398.47	2992.08
398.67	2961.36
398.88	2979.79
399.09	3106.77
399.30	2879.44
399.51	2906.07
399.71	2910.16
399.92	2947.03
400.13	2963.41
400.34	2867.16
400.54	2977.75
400.75	3250.13
400.96	2949.08
401.17	3055.57
401.37	3108.82
401.58	2924.50
401.79	2738.13
402.00	2967.51
402.21	3459.02
402.41	3139.54
402.62	3065.81
402.83	3205.07
403.04	3430.35
403.24	3688.39
403.45	2963.41
403.66	3108.82
403.87	3088.34
404.07	3190.74
404.28	3139.54
404.49	3078.10
404.70	3133.39
404.90	3074.00
405.11	2899.92
405.32	3006.42
405.52	2838.48
405.73	2873.30
405.94	2772.95
406.15	2934.74
406.35	3059.67
406.56	3100.62
406.77	2801.62
406.98	2856.92
407.18	2885.59
407.39	3250.13
407.60	2842.58
407.80	2992.08
408.01	2985.94
408.22	3080.14
408.43	2764.76
408.63	2918.36
408.84	3157.97
409.05	3127.25
409.25	2701.27
409.46	2783.19
409.67	2856.92
409.88	2928.60
410.08	2932.69
410.29	2723.80
410.50	3135.44
410.70	3205.07
410.91	2781.14
411.12	2920.40
411.32	3004.37
411.53	2848.72
411.74	2861.01
411.95	2920.40
412.15	3000.27
412.36	3088.34
412.57	2924.50
412.77	3035.09
412.98	2895.83
413.19	2940.88
413.39	2934.74
413.60	2910.16
413.81	3231.69
414.01	2793.43
414.22	2869.20
414.43	3020.75
414.63	2897.88
414.84	3110.86
415.05	2836.44
415.25	2711.51
415.46	3092.43
415.67	2854.87
415.87	2885.59
416.08	2820.05
416.29	2951.12
416.49	3051.47
416.70	2850.77
416.91	2807.77
417.11	3000.27
417.32	3184.59
417.53	2920.40
417.73	2914.26
417.94	2930.64
418.15	3065.81
418.35	2854.87
418.56	2834.39
418.77	3444.68
418.97	3039.19
419.18	2895.83
419.38	2592.73
419.59	2938.84
419.80	3205.07
420.00	2811.86
420.21	2867.16
420.42	3237.84
420.62	3053.52
420.83	2772.95
421.04	2836.44
421.24	2994.13
421.45	3065.81
421.65	2904.02
421.86	2875.35
422.07	3143.63
422.27	3069.91
422.48	2844.63
422.69	2631.64
422.89	3022.80
423.10	2932.69
423.30	2781.14
423.51	2926.55
423.72	3055.57
423.92	3100.62
424.13	2703.32
424.33	2924.50
424.54	3188.69
424.75	3024.85
424.95	3051.47
425.16	2818.00
425.36	2963.41
425.57	3168.21
425.78	2949.08
425.98	2924.50
426.19	2934.74
426.39	2873.30
426.60	2908.12
426.81	2967.51
427.01	3037.14
427.22	2834.39
427.42	2658.26
427.63	2783.19
427.83	3133.39
428.04	3243.98
428.25	2977.75
428.45	3065.81
428.66	3157.97
428.86	2990.03
429.07	2897.88
429.28	2811.86
429.48	2957.27
429.69	2910.16
429.89	2901.97
430.10	2779.09
430.30	3112.91
430.51	3096.53
430.71	2719.70
430.92	2836.44
431.13	2967.51
431.33	3078.10
431.54	2947.03
431.74	2990.03
431.95	3389.39
432.15	2844.63
432.36	2895.83
432.56	2914.26
432.77	3442.64
432.98	3227.60
433.18	2906.07
433.39	2815.96
433.59	2942.93
433.80	3346.38
434.00	2992.08
434.21	2777.05
434.41	2842.58
434.62	3377.10
434.82	2748.37
435.03	2791.38
435.23	3088.34
435.44	2699.22
435.64	2738.13
435.85	2820.05
436.06	3112.91
436.26	3190.74
436.47	2826.20
436.67	2824.15
436.88	2891.73
437.08	3229.65
437.29	2965.46
437.49	3016.66
437.70	3213.26
437.90	2942.93
438.11	3030.99
438.31	2961.36
438.52	3219.41
438.72	3172.30
438.93	3262.41
439.13	2940.88
439.34	3117.01
439.54	2953.17
439.75	2934.74
439.95	2940.88
440.16	2858.96
440.36	2969.55
440.57	2885.59
440.77	2873.30
440.98	2996.18
441.18	3100.62
441.39	2799.57
441.59	2705.37
441.80	3336.14
442.00	2979.79
442.21	2906.07
442.41	2656.22
442.62	3145.68
442.82	2861.01
443.02	2856.92
443.23	2881.49
443.43	2901.97
443.64	3209.17
443.84	2752.47
444.05	2899.92
444.25	2955.22
444.46	2906.07
444.66	2867.16
444.87	3106.77
445.07	2688.98
445.28	2934.74
445.48	3041.23
445.69	2959.31
445.89	3409.87
446.09	3002.32
446.30	3166.16
446.50	3166.16
446.71	4679.61
446.91	5744.55
447.12	6592.41
447.32	7098.26
447.53	6852.50
447.73	5744.55
447.93	5074.87
448.14	4786.10
448.34	4681.66
448.55	3971.01
448.75	3997.64
448.96	3821.51
449.16	3629.00
449.36	3536.84
449.57	3125.20
449.77	2949.08
449.98	2889.68
450.18	3043.28
450.39	2850.77
450.59	2992.08
450.79	3016.66
451.00	2914.26
451.20	3004.37
451.41	2832.34
451.61	3069.91
451.81	2955.22
452.02	2758.61
452.22	2908.12
452.43	2836.44
452.63	2877.40
452.84	2957.27
453.04	2768.85
453.24	2975.70
453.45	2908.12
453.65	2873.30
453.86	2879.44
454.06	3071.95
454.26	3002.32
454.47	2811.86
454.67	3033.04
454.87	3012.56
455.08	2944.98
455.28	2973.65
455.49	2981.84
455.69	2883.54
455.89	3375.05
456.10	2967.51
456.30	2836.44
456.51	3129.30
456.71	2920.40
456.91	3016.66
457.12	2871.25
457.32	3041.23
457.52	2840.53
457.73	2912.21
457.93	3030.99
458.14	2961.36
458.34	2633.69
458.54	2863.06
458.75	2734.04
458.95	3223.50
459.15	3069.91
459.36	2871.25
459.56	2897.88
459.76	3430.35
459.97	2938.84
460.17	2889.68
460.37	2979.79
460.58	2992.08
460.78	3164.11
460.99	2844.63
461.19	2863.06
461.39	2916.31
461.60	3010.51
461.80	2920.40
462.00	2648.02
462.21	2967.51
462.41	2832.34
462.61	2762.71
462.82	2688.98
463.02	3071.95
463.22	2969.55
463.43	2944.98
463.63	2818.00
463.83	3313.61
464.04	3096.53
464.24	2889.68
464.44	2770.90
464.64	2994.13
464.85	3160.02
465.05	2863.06
465.25	2795.48
465.46	2887.64
465.66	3059.67
465.86	2916.31
466.07	2805.72
466.27	3020.75
466.47	2695.13
466.68	2711.51
466.88	2973.65
467.08	3069.91
467.29	3155.92
467.49	2934.74
467.69	2951.12
467.89	3074.00
468.10	2930.64
468.30	2846.68
468.50	2944.98
468.71	3129.30
468.91	2840.53
469.11	3076.05
469.31	2955.22
469.52	2850.77
469.72	3248.08
469.92	3153.87
470.13	2756.57
470.33	3022.80
470.53	3049.43
470.73	3237.84
470.94	3444.68
471.14	3526.60
471.34	4186.05
471.54	3788.74
471.75	3647.43
471.95	3391.44
472.15	3342.28
472.36	3289.04
472.56	3299.28
472.76	3373.00
472.96	3256.27
473.17	3139.54
473.37	2949.08
473.57	2897.88
473.77	3114.96
473.98	2873.30
474.18	2858.96
474.38	3508.17
474.58	2901.97
474.79	2799.57
474.99	2942.93
475.19	3129.30
475.39	2918.36
475.60	2871.25
475.80	2752.47
476.00	3016.66
476.20	2994.13
476.41	2930.64
476.61	2865.11
476.81	3256.27
477.01	2824.15
477.21	3004.37
477.42	3033.04
477.62	2885.59
477.82	3125.20
478.02	2738.13
478.23	2965.46
478.43	2858.96
478.63	2928.60
478.83	2889.68
479.03	2858.96
479.24	3223.50
479.44	3327.95
479.64	2824.15
479.84	2654.17
480.04	2832.34
480.25	3178.45
480.45	2838.48
480.65	2768.85
480.85	3227.60
481.06	2908.12
481.26	3000.27
481.46	2850.77
481.66	3039.19
481.86	2865.11
482.06	3035.09
482.27	2891.73
482.47	2918.36
482.67	3049.43
482.87	2820.05
483.07	3030.99
483.28	2908.12
483.48	2877.40
483.68	2803.67
483.88	2715.61
484.08	2648.02
484.29	2785.24
484.49	2893.78
484.69	2693.08
484.89	3186.64
485.09	3188.69
485.29	2844.63
485.50	2957.27
485.70	2877.40
485.90	3160.02
486.10	3000.27
486.30	2811.86
486.50	3286.99
486.71	3047.38
486.91	2916.31
487.11	3008.47
487.31	2727.89
487.51	3102.67
487.71	2770.90
487.91	2734.04
488.12	2891.73
488.32	2574.30
488.52	2828.24
488.72	2623.45
488.92	3010.51
489.12	3162.06
489.32	3020.75
489.53	2920.40
489.73	2660.31
489.93	3358.67
490.13	2893.78
490.33	2721.75
490.53	3010.51
490.73	3076.05
490.94	2695.13
491.14	2971.60
491.34	3014.61
491.54	3110.86
491.74	3690.44
491.94	4231.10
492.14	4685.75
492.34	4640.70
492.54	4386.75
492.75	3778.50
492.95	3919.81
493.15	3698.63
493.35	3487.69
493.55	3411.92
493.75	3340.24
493.95	3479.50
494.15	3037.14
494.35	2910.16
494.56	2998.23
494.76	2846.68
494.96	3004.37
495.16	2807.77
495.36	2942.93
495.56	3114.96
495.76	2838.48
495.96	2889.68
496.16	2840.53
496.36	3309.52
496.56	2828.24
496.77	2979.79
496.97	2975.70
497.17	3203.02
497.37	2596.82
497.57	2854.87
497.77	2942.93
497.97	2940.88
498.17	2858.96
498.37	2879.44
498.57	3069.91
498.77	2895.83
498.97	2961.36
499.17	3182.54
499.38	3000.27
499.58	3057.62
499.78	3028.95
499.98	2924.50
500.18	2854.87
500.38	2815.96
500.58	3063.76
500.78	3409.87
500.98	5574.57
501.18	7376.78
501.38	8736.63
501.58	9656.17
501.78	9703.28
501.98	8089.48
502.18	6752.15
502.38	5760.94
502.58	5732.26
502.78	4970.42
502.98	4765.62
503.18	4669.37
503.38	4364.22
503.59	3792.84
503.79	3661.77
503.99	3354.57
504.19	3407.82
504.39	3493.83
504.59	3293.13
504.79	3409.87
504.99	3569.61
505.19	3223.50
505.39	3053.52
505.59	3209.17
505.79	3330.00
505.99	3094.48
506.19	2926.55
506.39	3117.01
506.59	2865.11
506.79	3014.61
506.99	2987.99
507.19	2807.77
507.39	3018.71
507.59	2697.17
507.79	2795.48
507.99	2781.14
508.19	3030.99
508.39	3018.71
508.59	2922.45
508.79	2996.18
508.99	3366.86
509.19	2873.30
509.39	2963.41
509.59	2797.53
509.79	2916.31
509.99	2996.18
510.19	3016.66
510.39	2938.84
510.59	2967.51
510.79	2856.92
510.99	2738.13
511.19	2815.96
511.39	3205.07
511.59	3198.93
511.79	2965.46
511.99	2815.96
512.19	3272.65
512.38	2979.79
512.58	2818.00
512.78	2809.81
512.98	3145.68
513.18	3227.60
513.38	2674.65
513.58	2957.27
513.78	3037.14
513.98	2940.88
514.18	2912.21
514.38	2861.01
514.58	3045.33
514.78	2963.41
514.98	2781.14
515.18	2871.25
515.38	2758.61
515.58	3213.26
515.78	2799.57
515.98	2850.77
516.18	3067.86
516.38	3033.04
516.57	2865.11
516.77	2895.83
516.97	3033.04
517.17	2856.92
517.37	2754.52
517.57	2942.93
517.77	3057.62
517.97	2758.61
518.17	2947.03
518.37	2713.56
518.57	2887.64
518.77	2848.72
518.97	2881.49
519.16	2850.77
519.36	3233.74
519.56	2869.20
519.76	2826.20
519.96	2928.60
520.16	3340.24
520.36	2805.72
520.56	3012.56
520.76	2813.91
520.96	2936.79
521.16	3270.61
521.35	3094.48
521.55	2942.93
521.75	2977.75
521.95	2981.84
522.15	2836.44
522.35	2617.30
522.55	2893.78
522.75	3065.81
522.95	2713.56
523.14	2742.23
523.34	3004.37
523.54	2858.96
523.74	2963.41
523.94	2887.64
524.14	2744.28
524.34	3123.15
524.54	3006.42
524.73	2791.38
524.93	3035.09
525.13	2926.55
525.33	2873.30
525.53	3065.81
525.73	3110.86
525.93	3018.71
526.13	2873.30
526.32	2766.81
526.52	3223.50
526.72	3190.74
526.92	2863.06
527.12	2729.94
527.32	2648.02
527.52	3014.61
527.71	2861.01
527.91	2766.81
528.11	2871.25
528.31	2977.75
528.51	2836.44
528.71	2953.17
528.90	3022.80
529.10	3133.39
529.30	3035.09
529.50	2602.97
529.70	3053.52
529.90	3016.66
530.09	2858.96
530.29	2713.56
530.49	2830.29
530.69	3530.70
530.89	3106.77
531.09	2949.08
531.28	2930.64
531.48	3219.41
531.68	2906.07
531.88	2899.92
532.08	3151.82
532.28	2891.73
532.47	2953.17
532.67	2973.65
532.87	3117.01
533.07	2787.29
533.27	2844.63
533.46	2893.78
533.66	3022.80
533.86	2922.45
534.06	2805.72
534.26	2838.48
534.45	2940.88
534.65	3139.54
534.85	2908.12
535.05	2772.95
535.25	3174.35
535.44	2701.27
535.64	2965.46
535.84	2861.01
536.04	2924.50
536.24	3028.95
536.43	2836.44
536.63	2873.30
536.83	3018.71
537.03	2918.36
537.22	2709.46
537.42	2693.08
537.62	3008.47
537.82	2822.10
538.02	3043.28
538.21	2963.41
538.41	3471.31
538.61	3061.71
538.81	2877.40
539.00	3051.47
539.20	2709.46
539.40	2852.82
539.60	2813.91
539.79	3061.71
539.99	2971.60
540.19	2871.25
540.39	2852.82
540.58	2965.46
540.78	3153.87
540.98	2985.94
541.18	3074.00
541.37	2916.31
541.57	3000.27
541.77	2994.13
541.97	2627.54
542.16	2691.03
542.36	2965.46
542.56	2879.44
542.76	3059.67
542.95	2901.97
543.15	3047.38
543.35	3127.25
543.54	2807.77
543.74	2762.71
543.94	3178.45
544.14	2977.75
544.33	2990.03
544.53	2797.53
544.73	2904.02
544.93	2918.36
545.12	2838.48
545.32	2854.87
545.52	3016.66
545.71	2758.61
545.91	2754.52
546.11	2793.43
546.30	2924.50
546.50	2959.31
546.70	2951.12
546.90	2914.26
547.09	2705.37
547.29	3020.75
547.49	3020.75
547.68	2840.53
547.88	2811.86
548.08	3076.05
548.27	3213.26
548.47	2805.72
548.67	2959.31
548.87	3143.63
549.06	2858.96
549.26	2852.82
549.46	3004.37
549.65	2914.26
549.85	2893.78
550.05	2947.03
550.24	2721.75
550.44	2918.36
550.64	2844.63
550.83	2854.87
551.03	3172.30
551.23	3155.92
551.42	2895.83
551.62	2811.86
551.82	2959.31
552.01	2914.26
552.21	3112.91
552.41	2797.53
552.60	3194.83
552.80	3010.51
553.00	2797.53
553.19	2895.83
553.39	3348.43
553.59	2783.19
553.78	2975.70
553.98	2856.92
554.17	2752.47
554.37	3016.66
554.57	2914.26
554.76	2721.75
554.96	2887.64
555.16	3041.23
555.35	2922.45
555.55	2922.45
555.75	3043.28
555.94	3084.24
556.14	2695.13
556.33	2850.77
556.53	2922.45
556.73	3014.61
556.92	2959.31
557.12	2842.58
557.32	3336.14
557.51	3268.56
557.71	2901.97
557.90	3063.76
558.10	3248.08
558.30	2942.93
558.49	2838.48
558.69	2885.59
558.88	3149.78
559.08	2957.27
559.28	2818.00
559.47	2865.11
559.67	3057.62
559.86	3241.93
560.06	2858.96
560.26	2889.68
560.45	3131.34
560.65	2910.16
560.84	3102.67
561.04	2811.86
561.24	3033.04
561.43	2836.44
561.63	3067.86
561.82	2944.98
562.02	3094.48
562.22	2863.06
562.41	2754.52
562.61	2863.06
562.80	2854.87
563.00	3416.01
563.19	2881.49
563.39	2914.26
563.59	3176.40
563.78	2840.53
563.98	2678.74
564.17	2811.86
564.37	2717.65
564.56	2944.98
564.76	2742.23
564.96	3028.95
565.15	2967.51
565.35	3444.68
565.54	2830.29
565.74	2852.82
565.93	3061.71
566.13	2957.27
566.32	2953.17
566.52	3004.37
566.71	2951.12
566.91	3143.63
567.11	2992.08
567.30	2760.66
567.50	3045.33
567.69	3024.85
567.89	2818.00
568.08	2731.99
568.28	3047.38
568.47	2828.24
568.67	2861.01
568.86	2803.67
569.06	3123.15
569.25	2922.45
569.45	2723.80
569.64	2883.54
569.84	2942.93
570.04	3108.82
570.23	2897.88
570.43	2840.53
570.62	3022.80
570.82	3258.32
571.01	2660.31
571.21	2846.68
571.40	2846.68
571.60	3100.62
571.79	2865.11
571.99	2883.54
572.18	2805.72
572.38	3035.09
572.57	2953.17
572.77	3000.27
572.96	3459.02
573.16	3020.75
573.35	2824.15
573.55	3043.28
573.74	3004.37
573.94	2930.64
574.13	2867.16
574.33	2992.08
574.52	3250.13
574.71	3033.04
574.91	2885.59
575.10	2660.31
575.30	2922.45
575.49	2848.72
575.69	2686.94
575.88	2758.61
576.08	2871.25
576.27	3168.21
576.47	2744.28
576.66	3002.32
576.86	3117.01
577.05	3051.47
577.25	2942.93
577.44	3067.86
577.64	2940.88
577.83	3123.15
578.02	2799.57
578.22	3033.04
578.41	3237.84
578.61	2979.79
578.80	2758.61
579.00	2895.83
579.19	3012.56
579.39	3055.57
579.58	2957.27
579.77	2942.93
579.97	3221.45
580.16	3209.17
580.36	2961.36
580.55	2920.40
580.75	3080.14
580.94	3016.66
581.13	3035.09
581.33	3121.10
581.52	2969.55
581.72	3280.85
581.91	2998.23
582.11	2791.38
582.30	3164.11
582.49	3065.81
582.69	3065.81
582.88	2949.08
583.08	3041.23
583.27	3164.11
583.47	2942.93
583.66	2873.30
583.85	2844.63
584.05	2965.46
584.24	2959.31
584.44	2908.12
584.63	3188.69
584.82	3223.50
585.02	3096.53
585.21	2920.40
585.41	3053.52
585.60	3106.77
585.79	3137.49
585.99	3162.06
586.18	3108.82
586.37	3928.00
586.57	5838.76
586.76	16733.95
586.96	36230.62
587.15	48782.62
587.34	57105.56
587.54	61291.61
587.73	54906.04
587.93	39101.87
588.12	29611.58
588.31	24467.08
588.51	21231.29
588.70	19648.21
588.89	17395.45
589.09	14587.68
589.28	12693.31
589.47	9965.42
589.67	7544.72
589.86	6010.79
590.06	4728.76
590.25	4005.83
590.44	3604.42
590.64	3252.17
590.83	3241.93
591.02	3223.50
591.22	2881.49
591.41	2963.41
591.60	2998.23
591.80	3448.78
591.99	2760.66
592.18	2867.16
592.38	3198.93
592.57	2926.55
592.76	2969.55
592.96	3002.32
593.15	3030.99
593.34	3219.41
593.54	2930.64
593.73	3024.85
593.92	3030.99
594.12	3143.63
594.31	2963.41
594.50	3100.62
594.70	3035.09
594.89	3493.83
595.08	2719.70
595.28	2985.94
595.47	3557.32
595.66	3100.62
595.86	2742.23
596.05	2701.27
596.24	2891.73
596.43	3278.80
596.63	2981.84
596.82	3004.37
597.01	3074.00
597.21	3315.66
597.40	2826.20
597.59	2910.16
597.79	2977.75
597.98	3098.58
598.17	2910.16
598.36	2906.07
598.56	3084.24
598.75	2858.96
598.94	3000.27
599.14	2918.36
599.33	2963.41
599.52	3174.35
599.71	2951.12
599.91	2977.75
600.10	3137.49
600.29	3053.52
600.48	3037.14
600.68	2918.36
600.87	3061.71
601.06	2818.00
601.26	2867.16
601.45	2922.45
601.64	3045.33
601.83	3190.74
602.03	2731.99
602.22	2772.95
602.41	3190.74
602.60	3403.72
602.80	2932.69
602.99	3002.32
603.18	2840.53
603.37	2959.31
603.57	2836.44
603.76	2957.27
603.95	3205.07
604.14	2922.45
604.34	2750.42
604.53	2871.25
604.72	2994.13
604.91	3145.68
605.10	2936.79
605.30	2727.89
605.49	3407.82
605.68	3041.23
605.87	2865.11
606.07	2869.20
606.26	2992.08
606.45	3033.04
606.64	2887.64
606.84	2705.37
607.03	2899.92
607.22	3135.44
607.41	2772.95
607.60	2809.81
607.80	3235.79
607.99	2918.36
608.18	2955.22
608.37	2914.26
608.56	2875.35
608.76	3203.02
608.95	3035.09
609.14	2861.01
609.33	3307.47
609.52	3110.86
609.72	2947.03
609.91	2959.31
610.10	3033.04
610.29	3205.07
610.48	3010.51
610.68	3024.85
610.87	2957.27
611.06	3246.03
611.25	2832.34
611.44	3047.38
611.63	2895.83
611.83	3164.11
612.02	2799.57
612.21	3018.71
612.40	2705.37
612.59	2736.09
612.79	2785.24
612.98	2901.97
613.17	3295.18
613.36	2940.88
613.55	2961.36
613.74	2934.74
613.93	3004.37
614.13	3063.76
614.32	2959.31
614.51	2889.68
614.70	3020.75
614.89	2906.07
615.08	2934.74
615.28	3299.28
615.47	2762.71
615.66	3076.05
615.85	2920.40
616.04	3043.28
616.23	2987.99
616.42	3061.71
616.62	2893.78
616.81	2930.64
617.00	3018.71
617.19	3061.71
617.38	2850.77
617.57	2912.21
617.76	3143.63
617.95	3133.39
618.15	2994.13
618.34	3184.59
618.53	2791.38
618.72	3284.94
618.91	3055.57
619.10	2959.31
619.29	3008.47
619.48	2889.68
619.68	2760.66
619.87	2889.68
620.06	2791.38
620.25	3127.25
620.44	2813.91
620.63	2914.26
620.82	3026.90
621.01	3026.90
621.20	2887.64
621.39	2887.64
621.59	3028.95
621.78	2901.97
621.97	2867.16
622.16	3012.56
622.35	3016.66
622.54	3149.78
622.73	2963.41
622.92	2643.93
623.11	3106.77
623.30	2906.07
623.49	3061.71
623.68	2740.18
623.88	3231.69
624.07	2893.78
624.26	2815.96
624.45	2799.57
624.64	2942.93
624.83	2969.55
625.02	2889.68
625.21	2969.55
625.40	3024.85
625.59	3233.74
625.78	2930.64
625.97	2969.55
626.16	3168.21
626.35	3106.77
626.54	2854.87
626.74	3045.33
626.93	2957.27
627.12	2916.31
627.31	2951.12
627.50	2863.06
627.69	3180.50
627.88	2867.16
628.07	2815.96
628.26	2668.50
628.45	2904.02
628.64	2820.05
628.83	2881.49
629.02	2709.46
629.21	2996.18
629.40	2947.03
629.59	2797.53
629.78	2764.76
629.97	2938.84
630.16	2996.18
630.35	2846.68
630.54	2867.16
630.73	2875.35
630.92	2938.84
631.11	2789.33
631.30	2906.07
631.49	3143.63
631.68	2998.23
631.87	2824.15
632.06	2729.94
632.25	3327.95
632.44	3002.32
632.63	2910.16
632.82	2826.20
633.01	2834.39
633.20	3127.25
633.39	2914.26
633.58	2723.80
633.77	3104.72
633.96	3035.09
634.15	2904.02
634.34	2938.84
634.53	3074.00
634.72	2818.00
634.91	2731.99
635.10	2897.88
635.29	3162.06
635.48	3084.24
635.67	2852.82
635.86	2699.22
636.05	3198.93
636.24	2951.12
636.43	2781.14
636.62	2938.84
636.81	2549.72
637.00	3008.47
637.19	2893.78
637.38	2775.00
637.57	2842.58
637.76	2912.21
637.95	3055.57
638.14	2877.40
638.33	3006.42
638.52	3006.42
638.71	2770.90
638.89	2699.22
639.08	3479.50
639.27	3196.88
639.46	3084.24
639.65	3348.43
639.84	3424.20
640.03	3581.90
640.22	3147.73
640.41	3286.99
640.60	3030.99
640.79	3221.45
640.98	2940.88
641.17	3063.76
641.36	3137.49
641.55	3098.58
641.74	2680.79
641.92	2787.29
642.11	2865.11
642.30	2977.75
642.49	2754.52
642.68	2824.15
642.87	3123.15
643.06	3106.77
643.25	2758.61
643.44	2793.43
643.63	2910.16
643.82	3192.78
644.00	2754.52
644.19	2830.29
644.38	2858.96
644.57	3020.75
644.76	2916.31
644.95	2813.91
645.14	2981.84
645.33	2944.98
645.52	2873.30
645.71	2682.84
645.89	2922.45
646.08	2994.13
646.27	2875.35
646.46	3098.58
646.65	2762.71
646.84	2965.46
647.03	2867.16
647.22	2975.70
647.40	3010.51
647.59	2959.31
647.78	2635.74
647.97	2731.99
648.16	2861.01
648.35	3127.25
648.54	3082.19
648.73	2803.67
648.91	3117.01
649.10	2992.08
649.29	2881.49
649.48	2836.44
649.67	3043.28
649.86	2947.03
650.05	2846.68
650.23	3028.95
650.42	2910.16
650.61	3248.08
650.80	3033.04
650.99	3143.63
651.18	3100.62
651.36	3149.78
651.55	2869.20
651.74	3112.91
651.93	2891.73
652.12	2922.45
652.31	2818.00
652.49	2887.64
652.68	3026.90
652.87	3184.59
653.06	2875.35
653.25	3166.16
653.44	2987.99
653.62	3233.74
653.81	2797.53
654.00	2901.97
654.19	3092.43
654.38	3456.97
654.56	3002.32
654.75	2856.92
654.94	3108.82
655.13	3055.57
655.32	2877.40
655.51	2985.94
655.69	2889.68
655.88	3086.29
656.07	2740.18
656.26	2908.12
656.45	2775.00
656.63	2985.94
656.82	2873.30
657.01	3182.54
657.20	2942.93
657.38	3157.97
657.57	2770.90
657.76	2633.69
657.95	3028.95
658.14	2871.25
658.32	2908.12
658.51	2758.61
658.70	3016.66
658.89	2938.84
659.08	2871.25
659.26	3082.19
659.45	2842.58
659.64	3106.77
659.83	2785.24
660.01	3221.45
660.20	3022.80
660.39	3196.88
660.58	2658.26
660.76	2932.69
660.95	2734.04
661.14	3014.61
661.33	2727.89
661.51	2918.36
661.70	2924.50
661.89	3041.23
662.08	2840.53
662.26	2772.95
662.45	2826.20
662.64	3291.09
662.83	2928.60
663.01	2740.18
663.20	2850.77
663.39	3327.95
663.58	2895.83
663.76	2856.92
663.95	3098.58
664.14	2850.77
664.32	2822.10
664.51	2779.09
664.70	2787.29
664.89	3074.00
665.07	2719.70
665.26	2969.55
665.45	2805.72
665.64	3055.57
665.82	2803.67
666.01	2969.55
666.20	2764.76
666.38	3141.58
666.57	3102.67
666.76	4687.80
666.95	10952.54
667.13	17749.75
667.32	21356.22
667.51	24258.19
667.69	25228.93
667.88	21044.93
668.07	15370.01
668.25	13027.13
668.44	11274.07
668.63	9721.71
668.81	8710.01
669.00	7317.39
669.19	6813.59
669.38	5967.78
669.56	5171.12
669.75	4331.45
669.94	4038.59
670.12	3450.83
670.31	3205.07
670.50	3090.38
670.68	3215.31
670.87	3039.19
671.06	2799.57
671.24	2895.83
671.43	3250.13
671.62	3121.10
671.80	2822.10
671.99	3006.42
672.18	2947.03
672.36	3082.19
672.55	2920.40
672.74	2879.44
672.92	2963.41
673.11	3174.35
673.29	2695.13
673.48	3022.80
673.67	2938.84
673.85	3121.10
674.04	2729.94
674.23	2947.03
674.41	3352.52
674.60	2779.09
674.79	2619.35
674.97	2668.50
675.16	3121.10
675.34	3182.54
675.53	2795.48
675.72	2953.17
675.90	3305.42
676.09	2928.60
676.28	2981.84
676.46	2746.33
676.65	3143.63
676.83	2861.01
677.02	2867.16
677.21	2920.40
677.39	3065.81
677.58	2820.05
677.77	2838.48
677.95	2764.76
678.14	2961.36
678.32	2951.12
678.51	2818.00
678.70	3188.69
678.88	2926.55
679.07	2949.08
679.25	2885.59
679.44	2863.06
679.63	2852.82
679.81	3049.43
680.00	3137.49
680.18	2963.41
680.37	3268.56
680.55	2971.60
680.74	2723.80
680.93	2727.89
681.11	3016.66
681.30	2994.13
681.48	2879.44
681.67	2873.30
681.85	3022.80
682.04	2875.35
682.23	3002.32
682.41	2985.94
682.60	2858.96
682.78	2959.31
682.97	2787.29
683.15	2867.16
683.34	3037.14
683.53	3270.61
683.71	2699.22
683.90	3045.33
684.08	3313.61
684.27	2959.31
684.45	2983.89
684.64	3076.05
684.82	2924.50
685.01	3098.58
685.19	2856.92
685.38	3102.67
685.57	3028.95
685.75	2772.95
685.94	2820.05
686.12	2854.87
686.31	2877.40
686.49	3168.21
686.68	2666.46
686.86	2877.40
687.05	3014.61
687.23	3270.61
687.42	2801.62
687.60	2740.18
687.79	3094.48
687.97	3205.07
688.16	3028.95
688.34	3024.85
688.53	2709.46
688.71	3024.85
688.90	3153.87
689.08	2885.59
689.27	2742.23
689.45	3141.58
689.64	3006.42
689.82	2883.54
690.01	3028.95
690.19	3002.32
690.38	2987.99
690.56	3012.56
690.75	2867.16
690.93	2875.35
691.12	2820.05
691.30	2873.30
691.49	2961.36
691.67	3014.61
691.86	3246.03
692.04	2885.59
692.23	3000.27
692.41	2967.51
692.60	3211.22
692.78	3076.05
692.97	3000.27
693.15	3155.92
693.34	3086.29
693.52	3057.62
693.71	2906.07
693.89	2904.02
694.08	2709.46
694.26	3008.47
694.44	3110.86
694.63	3006.42
694.81	2746.33
695.00	2867.16
695.18	3184.59
695.37	3377.10
695.55	2924.50
695.74	2914.26
695.92	2846.68
696.10	3229.65
696.29	2719.70
696.47	2772.95
696.66	2744.28
696.84	2858.96
697.03	2959.31
697.21	3098.58
697.40	4460.48
697.58	3160.02
697.76	2801.62
697.95	2764.76
698.13	2766.81
698.32	2904.02
698.50	2955.22
698.68	2854.87
698.87	3065.81
699.05	3205.07
699.24	2877.40
699.42	2863.06
699.61	2981.84
699.79	2996.18
699.97	2854.87
700.16	2695.13
700.34	2779.09
700.53	2987.99
700.71	3065.81
700.89	2975.70
701.08	2922.45
701.26	2916.31
701.45	3286.99
701.63	2740.18
701.81	2840.53
702.00	2828.24
702.18	2959.31
702.37	2844.63
702.55	3221.45
702.73	3000.27
702.92	2824.15
703.10	3203.02
703.28	3057.62
703.47	2830.29
703.65	3090.38
703.84	2971.60
704.02	2971.60
704.20	3284.94
704.39	2815.96
704.57	2830.29
704.75	3125.20
704.94	3147.73
705.12	2922.45
705.30	3375.05
705.49	6809.50
705.67	12988.22
705.86	18140.91
706.04	20805.31
706.22	22994.59
706.41	22275.76
706.59	17106.68
706.77	13297.46
706.96	11439.95
707.14	10452.83
707.32	9017.21
707.51	8038.28
707.69	6541.21
707.87	5453.74
708.06	4523.96
708.24	4011.97
708.42	3624.90
708.61	3692.49
708.79	2904.02
708.97	2987.99
709.16	3151.82
709.34	3051.47
709.52	2807.77
709.71	2973.65
709.89	3074.00
710.07	2813.91
710.26	2791.38
710.44	2908.12
710.62	3065.81
710.80	2955.22
710.99	2973.65
711.17	3078.10
711.35	2832.34
711.54	2938.84
711.72	3020.75
711.90	2959.31
712.09	3084.24
712.27	2836.44
712.45	3078.10
712.63	2889.68
712.82	3008.47
713.00	2965.46
713.18	3067.86
713.37	3065.81
713.55	3157.97
713.73	3117.01
713.91	2983.89
714.10	2893.78
714.28	2953.17
714.46	3094.48
714.65	2947.03
714.83	2912.21
715.01	2994.13
715.19	2951.12
715.38	2818.00
715.56	2924.50
715.74	2904.02
715.92	2910.16
716.11	3137.49
716.29	2652.12
716.47	2934.74
716.65	2891.73
716.84	2656.22
717.02	2990.03
717.20	2717.65
717.38	2838.48
717.57	2936.79
717.75	2959.31
717.93	2879.44
718.11	3129.30
718.30	2725.85
718.48	2852.82
718.66	3188.69
718.84	3139.54
719.03	2910.16
719.21	2815.96
719.39	3276.75
719.57	3129.30
719.75	3069.91
719.94	2783.19
720.12	2971.60
720.30	2942.93
720.48	3041.23
720.67	2879.44
720.85	2803.67
721.03	2852.82
721.21	2842.58
721.39	3035.09
721.58	3076.05
721.76	3006.42
721.94	2932.69
722.12	2926.55
722.30	3305.42
722.49	2965.46
722.67	2930.64
722.85	2885.59
723.03	2738.13
723.21	2869.20
723.40	2963.41
723.58	3012.56
723.76	3022.80
723.94	3149.78
724.12	2885.59
724.30	3205.07
724.49	3141.58
724.67	2840.53
724.85	2940.88
725.03	2686.94
725.21	3078.10
725.40	3123.15
725.58	2957.27
725.76	3024.85
725.94	3033.04
726.12	2801.62
726.30	2854.87
726.49	2795.48
726.67	2858.96
726.85	3055.57
727.03	3471.31
727.21	4423.61
727.39	5590.95
727.57	5859.24
727.76	6217.63
727.94	6283.17
728.12	5543.85
728.30	4630.46
728.48	4370.37
728.66	4220.86
728.84	4016.07
729.03	3446.73
729.21	3264.46
729.39	3215.31
729.57	3082.19
729.75	3088.34
729.93	2994.13
730.11	2875.35
730.30	2873.30
730.48	2967.51
730.66	2981.84
730.84	2963.41
731.02	3002.32
731.20	2901.97
731.38	2836.44
731.56	2731.99
731.74	2768.85
731.93	3057.62
732.11	2899.92
732.29	2789.33
732.47	3190.74
732.65	2969.55
732.83	3016.66
733.01	2867.16
733.19	2861.01
733.37	3123.15
733.56	2916.31
733.74	2664.41
733.92	3246.03
734.10	2920.40
734.28	3055.57
734.46	2713.56
734.64	2893.78
734.82	2877.40
735.00	2856.92
735.18	2801.62
735.36	3008.47
735.54	2912.21
735.73	2865.11
735.91	3047.38
736.09	3145.68
736.27	2938.84
736.45	2818.00
736.63	2652.12
736.81	2844.63
736.99	3188.69
737.17	3102.67
737.35	2813.91
737.53	3065.81
737.71	2944.98
737.89	3045.33
738.07	2795.48
738.25	2815.96
738.43	2781.14
738.61	2891.73
738.80	2701.27
738.98	2818.00
739.16	2895.83
739.34	2830.29
739.52	3145.68
739.70	2971.60
739.88	3055.57
740.06	2938.84
740.24	2576.34
740.42	3119.06
740.60	2715.61
740.78	2844.63
740.96	2703.32
741.14	2938.84
741.32	2916.31
741.50	2691.03
741.68	3141.58
741.86	3233.74
742.04	2875.35
742.22	2717.65
742.40	2887.64
742.58	3061.71
742.76	2836.44
742.94	3028.95
743.12	2654.17
743.30	2998.23
743.48	2992.08
743.66	2832.34
743.84	2973.65
744.02	2842.58
744.20	2930.64
744.38	2746.33
744.56	2791.38
744.74	3293.13
744.92	3069.91
745.10	3084.24
745.28	2938.84
745.46	3268.56
745.64	2856.92
745.82	2998.23
746.00	2879.44
746.18	3063.76
746.36	2852.82
746.54	2938.84
746.72	2881.49
746.90	2824.15
747.08	3256.27
747.26	2865.11
747.44	3004.37
747.62	3018.71
747.80	3102.67
747.98	2944.98
748.15	2844.63
748.33	3231.69
748.51	3024.85
748.69	2947.03
748.87	2775.00
749.05	2887.64
749.23	2930.64
749.41	2969.55
749.59	2854.87
749.77	3153.87
749.95	2957.27
750.13	2867.16
750.31	2918.36
750.49	2959.31
750.67	3131.34
750.85	3039.19
751.03	2856.92
751.20	3344.33
751.38	3076.05
751.56	2815.96
751.74	2822.10
751.92	2996.18
752.10	2789.33
752.28	3014.61
752.46	2881.49
752.64	2928.60
752.82	3045.33
753.00	2955.22
753.18	2764.76
753.35	2906.07
753.53	2881.49
753.71	2748.37
753.89	2975.70
754.07	3008.47
754.25	3143.63
754.43	2908.12
754.61	2725.85
754.79	3049.43
754.97	2940.88
755.14	3110.86
755.32	2826.20
755.50	2949.08
755.68	3014.61
755.86	2793.43
756.04	2801.62
756.22	2715.61
756.40	3129.30
756.57	3145.68
756.75	2848.72
756.93	3258.32
757.11	3065.81
757.29	2803.67
757.47	2793.43
757.65	2666.46
757.82	2643.93
758.00	2770.90
758.18	2856.92
758.36	2885.59
758.54	3315.66
758.72	2703.32
758.90	2949.08
759.07	3024.85
759.25	2830.29
759.43	2936.79
759.61	2713.56
759.79	4337.60
759.97	3131.34
760.15	2889.68
760.32	2869.20
760.50	2996.18
760.68	3254.22
760.86	2811.86
761.04	3174.35
761.22	3063.76
761.39	2942.93
761.57	2953.17
761.75	2836.44
761.93	3043.28
762.11	3018.71
762.28	2926.55
762.46	2844.63
762.64	3082.19
762.82	2756.57
763.00	2797.53
763.18	3084.24
763.35	2811.86
763.53	3090.38
763.71	2951.12
763.89	2932.69
764.07	2955.22
764.24	3002.32
764.42	2940.88
764.60	2850.77
764.78	3094.48
764.96	3143.63
765.13	3049.43
765.31	2770.90
765.49	3131.34
765.67	2854.87
765.84	2861.01
766.02	2770.90
766.20	2760.66
766.38	2992.08
766.56	3035.09
766.73	2938.84
766.91	2930.64
767.09	3014.61
767.27	2912.21
767.44	2707.41
767.62	3026.90
767.80	3057.62
767.98	2834.39
768.15	2820.05
768.33	3108.82
768.51	3131.34
768.69	2975.70
768.87	2910.16
769.04	3006.42
769.22	3459.02
769.40	3006.42
769.58	3065.81
769.75	3094.48
769.93	3176.40
770.11	2926.55
770.28	2772.95
770.46	3123.15
770.64	3051.47
770.82	2871.25
770.99	2875.35
771.17	3020.75
771.35	2922.45
771.53	2858.96
771.70	2815.96
771.88	3088.34
772.06	2979.79
772.23	2858.96
772.41	3006.42
772.59	2910.16
772.77	2783.19
772.94	2906.07
773.12	2871.25
773.30	2928.60
773.47	3088.34
773.65	2826.20
773.83	3098.58
774.01	2889.68
774.18	2660.31
774.36	2924.50
774.54	2709.46
774.71	3020.75
774.89	2752.47
775.07	2772.95
775.24	2772.95
775.42	2918.36
775.60	3282.89
775.78	2777.05
775.95	2752.47
776.13	2752.47
776.31	2691.03
776.48	3024.85
776.66	2979.79
776.84	2930.64
777.01	2832.34
777.19	2738.13
777.37	2744.28
777.54	3037.14
777.72	3368.91
777.90	2971.60
778.07	2805.72
778.25	3536.84
778.43	3239.89
778.60	2805.72
778.78	2932.69
778.96	3170.26
779.13	2756.57
779.31	3002.32
779.49	2883.54
779.66	2940.88
779.84	2967.51
780.01	2904.02
780.19	2836.44
780.37	3137.49
780.54	3037.14
780.72	2758.61
780.90	2852.82
781.07	2983.89
781.25	2811.86
781.43	3014.61
781.60	2846.68
781.78	3184.59
781.95	3080.14
782.13	2895.83
782.31	2906.07
782.48	2686.94
782.66	3039.19
782.83	3114.96
783.01	2934.74
783.19	3143.63
783.36	2947.03
783.54	2658.26
783.72	2971.60
783.89	2863.06
784.07	3033.04
784.24	2953.17
784.42	3000.27
784.60	3053.52
784.77	3037.14
784.95	2570.20
785.12	2867.16
785.30	2981.84
785.47	2799.57
785.65	2770.90
785.83	2873.30
786.00	2979.79
786.18	2985.94
786.35	2705.37
786.53	2775.00
786.71	3174.35
786.88	3063.76
787.06	2971.60
787.23	2922.45
787.41	2815.96
787.58	2942.93
787.76	2807.77
787.94	2934.74
788.11	3030.99
788.29	2815.96
788.46	2826.20
788.64	2588.63
788.81	2887.64
788.99	2785.24
789.16	2791.38
789.34	2861.01
789.52	2846.68
789.69	2910.16
789.87	2639.83
790.04	2854.87
790.22	3010.51
790.39	3366.86
790.57	2744.28
790.74	2785.24
790.92	3112.91
791.09	2746.33
791.27	2879.44
791.44	2926.55
791.62	2985.94
791.79	3053.52
791.97	2949.08
792.15	3162.06
792.32	3102.67
792.50	3080.14
792.67	3045.33
792.85	3121.10
793.02	2994.13
793.20	2938.84
793.37	2691.03
793.55	2748.37
793.72	2787.29
793.90	3069.91
794.07	2801.62
794.25	2742.23
794.42	3004.37
794.60	3043.28
794.77	2838.48
794.95	2959.31
795.12	3157.97
795.30	2934.74
795.47	2670.55
795.65	3217.36
795.82	3008.47
796.00	2861.01
796.17	2983.89
796.34	2811.86
796.52	2996.18
796.69	3133.39
796.87	2928.60
797.04	2901.97
797.22	3123.15
797.39	2971.60
797.57	2981.84
797.74	2926.55
797.92	3053.52
798.09	2789.33
798.27	3119.06
798.44	2897.88
798.62	2844.63
798.79	2977.75
798.96	2897.88
799.14	2869.20
799.31	3424.20
799.49	3020.75
799.66	2836.44
799.84	2908.12
800.01	2693.08
800.19	3088.34
800.36	2643.93
800.53	2908.12
800.71	3123.15
800.88	3327.95
801.06	2828.24
801.23	2854.87
801.41	2940.88
801.58	2832.34
801.75	2852.82
801.93	2959.31
802.10	3106.77
802.28	3008.47
802.45	2887.64
802.63	2967.51
802.80	3225.55
802.97	2965.46
803.15	2928.60
803.32	2822.10
803.50	2789.33
803.67	2871.25
803.84	2815.96
804.02	2914.26
804.19	2967.51
804.37	2656.22
804.54	2668.50
804.71	2768.85
804.89	2926.55
805.06	2799.57
805.24	2781.14
805.41	2750.42
805.58	2852.82
805.76	3387.34
805.93	2879.44
806.10	3039.19
806.28	3043.28
806.45	3028.95
806.63	3039.19
806.80	3018.71
806.97	3055.57
807.15	2893.78
807.32	2871.25
807.49	2836.44
807.67	2797.53
807.84	2973.65
808.01	2641.88
808.19	3090.38
808.36	3377.10
808.54	2901.97
808.71	2705.37
808.88	2824.15
809.06	3213.26
809.23	3233.74
809.40	2807.77
809.58	2922.45
809.75	3008.47
809.92	2828.24
810.10	3080.14
810.27	2906.07
810.44	3047.38
810.62	3086.29
810.79	2942.93
810.96	2795.48
811.14	2885.59
811.31	3135.44
811.48	2924.50
811.66	2891.73
811.83	3100.62
812.00	3037.14
812.18	2881.49
812.35	3227.60
812.52	2871.25
812.69	2893.78
812.87	2879.44
813.04	2779.09
813.21	3006.42
813.39	2729.94
813.56	2801.62
813.73	3049.43
813.91	2738.13
814.08	2947.03
814.25	2873.30
814.42	2676.70
814.60	2947.03
814.77	3002.32
814.94	2820.05
815.12	2930.64
815.29	3231.69
815.46	2861.01
815.63	2953.17
815.81	2811.86
815.98	2918.36
816.15	2983.89
816.33	2957.27
816.50	2906.07
816.67	2977.75
816.84	2916.31
817.02	2744.28
817.19	2809.81
817.36	3049.43
817.53	3057.62
817.71	2785.24
817.88	2932.69
818.05	2920.40
818.22	2934.74
818.40	3053.52
818.57	2828.24
818.74	3010.51
818.91	2893.78
819.09	3041.23
819.26	2994.13
819.43	2820.05
819.60	2869.20
819.78	2928.60
819.95	2899.92
820.12	2852.82
820.29	3250.13
820.47	3035.09
820.64	2781.14
820.81	2826.20
820.98	2844.63
821.15	2815.96
821.33	2934.74
821.50	2717.65
821.67	3033.04
821.84	2828.24
822.02	2861.01
822.19	3008.47
822.36	2963.41
822.53	2783.19
822.70	2711.51
822.88	2996.18
823.05	3231.69
823.22	2977.75
823.39	2908.12
823.56	2912.21
823.74	3344.33
823.91	2723.80
824.08	2752.47
824.25	2762.71
824.42	3264.46
824.60	2758.61
824.77	2947.03
824.94	2965.46
825.11	3063.76
825.28	2707.41
825.45	2971.60
825.63	2926.55
825.80	2801.62
825.97	2987.99
826.14	2938.84
826.31	2705.37
826.48	3069.91
826.66	2875.35
826.83	2803.67
827.00	2940.88
827.17	2844.63
827.34	2961.36
827.51	2766.81
827.69	2893.78
827.86	2736.09
828.03	2936.79
828.20	2938.84
828.37	2795.48
828.54	3102.67
828.71	2779.09
828.89	2938.84
829.06	2963.41
829.23	3186.64
829.40	2865.11
829.57	2766.81
829.74	3088.34
829.91	2897.88
830.09	2736.09
830.26	2955.22
830.43	3178.45
830.60	2920.40
830.77	2961.36
830.94	3096.53
831.11	3160.02
831.28	2867.16
831.46	3016.66
831.63	2832.34
831.80	3180.50
831.97	2869.20
832.14	2766.81
832.31	2959.31
832.48	3024.85
832.65	3149.78
832.82	2957.27
832.99	2842.58
833.17	2820.05
833.34	3207.12
833.51	2863.06
833.68	2627.54
833.85	3160.02
834.02	2736.09
834.19	2740.18
834.36	2822.10
834.53	3057.62
834.70	3217.36
834.87	2891.73
835.04	2641.88
835.22	2779.09
835.39	2863.06
835.56	2713.56
835.73	2736.09
835.90	3131.34
836.07	2858.96
836.24	2852.82
836.41	2713.56
836.58	2811.86
836.75	3143.63
836.92	2858.96
837.09	2740.18
837.26	3102.67
837.43	3098.58
837.60	2811.86
837.77	2740.18
837.94	3086.29
838.12	3225.55
838.29	2619.35
838.46	2627.54
838.63	2815.96
838.80	3215.31
838.97	2807.77
839.14	2713.56
839.31	2973.65
839.48	3078.10
839.65	2715.61
839.82	2785.24
839.99	3043.28
840.16	2938.84
840.33	2703.32
840.50	2779.09
840.67	2899.92
840.84	2578.39
841.01	2740.18
841.18	2641.88
841.35	3006.42
841.52	3078.10
841.69	3112.91
841.86	2772.95
842.03	2885.59
842.20	3129.30
842.37	2701.27
842.54	2772.95
842.71	3008.47
842.88	2736.09
843.05	2678.74
843.22	2637.78
843.39	3055.57
843.56	2914.26
843.73	2672.60
843.90	2854.87
844.07	2893.78
844.24	3155.92
844.41	2867.16
844.58	2791.38
844.75	3010.51
844.92	3002.32
845.09	2820.05
845.26	2680.79
845.43	3096.53
845.60	2901.97
845.77	2820.05
845.94	2820.05
846.10	3076.05
846.27	2746.33
846.44	2596.82
846.61	2645.98
846.78	3071.95
846.95	3147.73
847.12	2680.79
847.29	2766.81
847.46	2815.96
847.63	3051.47
847.80	2633.69
847.97	2750.42
848.14	3274.70
848.31	2940.88
848.48	2664.41
848.65	2721.75
848.82	2842.58
848.98	3397.58
849.15	2736.09
849.32	2850.77
849.49	3176.40
849.66	3028.95
849.83	2742.23
850.00	2658.26
850.17	3110.86
850.34	2932.69
850.51	2643.93
850.68	2766.81
850.85	3293.13
851.01	3039.19
851.18	2738.13
851.35	2793.43
851.52	3035.09
851.69	3205.07
851.86	2676.70
852.03	2623.45
852.20	3088.34
852.37	2961.36
852.53	2664.41
852.70	2688.98
852.87	2963.41
853.04	3119.06
853.21	2723.80
853.38	2947.03
853.55	3200.98
853.72	3211.22
853.89	2668.50
854.05	2619.35
854.22	2965.46
854.39	2901.97
854.56	2670.55
854.73	2885.59
854.90	2858.96
855.07	2951.12
855.23	2619.35
855.40	2654.17
855.57	2920.40
855.74	2582.49
855.91	2926.55
856.08	2652.12
856.25	2729.94
856.41	2879.44
856.58	2723.80
856.75	2721.75
856.92	2783.19
857.09	3174.35
857.26	2584.54
857.42	2754.52
857.59	3137.49
857.76	2891.73
857.93	2736.09
858.10	2832.34
858.27	2772.95
858.43	2973.65
858.60	2715.61
858.77	2590.68
858.94	2934.74
859.11	3110.86
859.27	2766.81
859.44	2580.44
859.61	3278.80
859.78	3098.58
859.95	2731.99
860.12	2609.11
860.28	3440.59
860.45	3303.37
860.62	2709.46
860.79	2858.96
860.95	2850.77
861.12	2877.40
861.29	2666.46
861.46	2746.33
861.63	2852.82
861.79	2924.50
861.96	2568.15
862.13	2746.33
862.30	3227.60
862.47	2879.44
862.63	2553.82
862.80	2783.19
862.97	3121.10
863.14	3020.75
863.30	2752.47
863.47	2658.26
863.64	3196.88
863.81	3008.47
863.97	2678.74
864.14	2777.05
864.31	2914.26
864.48	3000.27
864.65	2727.89
864.81	2781.14
864.98	3104.72
865.15	3160.02
865.32	2803.67
865.48	2740.18
865.65	3198.93
865.82	2865.11
865.98	2799.57
866.15	2793.43
866.32	2910.16
866.49	2832.34
866.65	2893.78
866.82	2670.55
866.99	2961.36
867.16	2824.15
867.32	2721.75
867.49	2648.02
867.66	2899.92
867.83	2807.77
867.99	2678.74
868.16	2727.89
868.33	2766.81
868.49	3037.14
868.66	2699.22
868.83	2797.53
868.99	3092.43
869.16	3035.09
869.33	2842.58
869.50	2795.48
869.66	3055.57
869.83	2912.21
870.00	2668.50
870.16	2887.64
870.33	3076.05
870.50	3000.27
870.66	2844.63
870.83	2760.66
871.00	2908.12
871.17	3055.57
871.33	2815.96
871.50	2672.60
871.67	3006.42
871.83	2758.61
872.00	2858.96
872.17	2764.76
872.33	3299.28
872.50	3147.73
872.67	2746.33
872.83	2705.37
873.00	3108.82
873.17	2985.94
873.33	2836.44
873.50	2805.72
873.67	2887.64
873.83	2846.68
874.00	2803.67
874.16	2918.36
874.33	3018.71
874.50	2682.84
874.66	2742.23
874.83	2830.29
875.00	3180.50
875.16	3131.34
875.33	2815.96
875.50	2492.38
875.66	2914.26
875.83	2979.79
875.99	2721.75
876.16	2848.72
876.33	2846.68
876.49	2881.49
876.66	2815.96
876.83	2772.95
876.99	2738.13
877.16	2947.03
877.32	2725.85
877.49	2785.24
877.66	3102.67
877.82	3114.96
877.99	2809.81
878.15	3008.47
878.32	2957.27
878.49	2994.13
878.65	2752.47
878.82	2994.13
878.98	2883.54
879.15	3196.88
879.32	2934.74
879.48	2893.78
879.65	2938.84
879.81	2924.50
879.98	2740.18
880.15	2879.44
880.31	3043.28
880.48	2863.06
880.64	2834.39
880.81	2828.24
880.97	3184.59
881.14	3209.17
881.31	2736.09
881.47	2963.41
881.64	2906.07
881.80	2721.75
881.97	2906.07
882.13	2797.53
882.30	2783.19
882.47	2867.16
882.63	2705.37
882.80	2742.23
882.96	2889.68
883.13	3200.98
883.29	2701.27
883.46	2709.46
883.62	3325.90
883.79	2897.88
883.95	2887.64
884.12	2650.07
884.29	3104.72
884.45	2951.12
884.62	2856.92
884.78	2713.56
884.95	3299.28
885.11	2830.29
885.28	2783.19
885.44	2754.52
885.61	3098.58
885.77	3209.17
885.94	2889.68
886.10	2836.44
886.27	2940.88
886.43	3340.24
886.60	3008.47
886.76	2813.91
886.93	2818.00
887.09	2973.65
887.26	2660.31
887.42	2822.10
887.59	3096.53
887.75	3352.52
887.92	2942.93
888.08	2811.86
888.25	3282.89
888.41	3076.05
888.58	2699.22
888.74	2707.41
888.91	2912.21
>>>>>End Processed Spectral Data<<<<<
