SpectraSuite Data File
++++++++++++++++++++++++++++++++++++
Date: Thu May 05 21:10:55 CEST 2016
User: root
Dark Spectrum Present: No
Reference Spectrum Present: No
Number of Sampled Component Spectra: 1
Spectrometers: USB4C02835
Integration Time (usec): 100000 (USB4C02835)
Spectra Averaged: 1 (USB4C02835)
Boxcar Smoothing: 0 (USB4C02835)
Correct for Electrical Dark: No (USB4C02835)
Strobe/Lamp Enabled: No (USB4C02835)
Correct for Detector Non-linearity: No (USB4C02835)
Correct for Stray Light: No (USB4C02835)
Number of Pixels in Processed Spectrum: 3648
>>>>>Begin Processed Spectral Data<<<<<
177.47	2154.46
177.69	2154.46
177.91	2154.46
178.13	2166.75
178.36	2181.09
178.58	2791.38
178.80	2926.55
179.02	2736.09
179.24	2822.10
179.46	2510.81
179.68	2662.36
179.90	2940.88
180.13	2959.31
180.35	2555.86
180.57	2699.22
180.79	3112.91
181.01	3006.42
181.23	2715.61
181.45	2734.04
181.67	3164.11
181.90	3100.62
182.12	2740.18
182.34	2559.96
182.56	3059.67
182.78	3043.28
183.00	2744.28
183.22	2772.95
183.44	2746.33
183.66	3502.03
183.89	2795.48
184.11	2717.65
184.33	3110.86
184.55	3215.31
184.77	2713.56
184.99	2672.60
185.21	2828.24
185.43	3465.16
185.65	2688.98
185.87	2641.88
186.10	3385.29
186.32	3430.35
186.54	2801.62
186.76	2781.14
186.98	3121.10
187.20	2973.65
187.42	2645.98
187.64	2721.75
187.86	3084.24
188.08	3133.39
188.30	2674.65
188.52	2703.32
188.75	3268.56
188.97	3178.45
189.19	2658.26
189.41	2594.78
189.63	3074.00
189.85	2940.88
190.07	2566.10
190.29	2590.68
190.51	3090.38
190.73	2652.12
190.95	2838.48
191.17	2748.37
191.39	2754.52
191.61	3026.90
191.84	2627.54
192.06	2818.00
192.28	2688.98
192.50	3598.28
192.72	2885.59
192.94	2717.65
193.16	3129.30
193.38	3088.34
193.60	2582.49
193.82	2793.43
194.04	3080.14
194.26	3117.01
194.48	2641.88
194.70	2674.65
194.92	2928.60
195.14	3067.86
195.36	2607.06
195.58	2746.33
195.80	2891.73
196.02	2842.58
196.24	2658.26
196.46	2811.86
196.69	2932.69
196.91	3467.21
197.13	2766.81
197.35	2731.99
197.57	3311.57
197.79	3063.76
198.01	2721.75
198.23	2697.17
198.45	2975.70
198.67	2791.38
198.89	2574.30
199.11	2697.17
199.33	2934.74
199.55	2658.26
199.77	2697.17
199.99	2830.29
200.21	2799.57
200.43	3053.52
200.65	2523.10
200.87	2598.87
201.09	3061.71
201.31	2977.75
201.53	2713.56
201.75	2746.33
201.97	3061.71
202.19	3022.80
202.41	2658.26
202.63	2844.63
202.85	3102.67
203.07	3018.71
203.29	2643.93
203.51	2678.74
203.73	2799.57
203.95	3461.07
204.17	2648.02
204.39	2883.54
204.61	2926.55
204.83	2936.79
205.05	2867.16
205.27	2740.18
205.49	3319.76
205.71	2936.79
205.93	2557.91
206.15	2588.63
206.37	2918.36
206.59	2961.36
206.81	2572.25
207.03	2574.30
207.25	2783.19
207.47	3076.05
207.69	2750.42
207.91	2951.12
208.13	3266.51
208.34	2963.41
208.56	2645.98
208.78	2734.04
209.00	2875.35
209.22	2877.40
209.44	2729.94
209.66	2701.27
209.88	2949.08
210.10	2873.30
210.32	2568.15
210.54	2770.90
210.76	3018.71
210.98	3098.58
211.20	2566.10
211.42	2818.00
211.64	3180.50
211.86	3020.75
212.08	2725.85
212.30	2656.22
212.52	2944.98
212.74	3030.99
212.96	2715.61
213.17	2731.99
213.39	3205.07
213.61	3282.89
213.83	2678.74
214.05	2590.68
214.27	3157.97
214.49	2854.87
214.71	2635.74
214.93	2813.91
215.15	3078.10
215.37	3133.39
215.59	2582.49
215.81	2779.09
216.03	3211.22
216.24	3004.37
216.46	2691.03
216.68	2791.38
216.90	3069.91
217.12	3149.78
217.34	2668.50
217.56	2840.53
217.78	3248.08
218.00	3069.91
218.22	2740.18
218.44	2715.61
218.66	2977.75
218.87	3420.11
219.09	2752.47
219.31	2678.74
219.53	3061.71
219.75	2899.92
219.97	2779.09
220.19	2809.81
220.41	2936.79
220.63	3354.57
220.85	2668.50
221.06	2635.74
221.28	3221.45
221.50	3078.10
221.72	2703.32
221.94	2605.02
222.16	3012.56
222.38	3114.96
222.60	2674.65
222.82	2713.56
223.03	3172.30
223.25	2824.15
223.47	2688.98
223.69	2924.50
223.91	3188.69
224.13	2955.22
224.35	2623.45
224.57	2863.06
224.78	3190.74
225.00	2824.15
225.22	2719.70
225.44	2633.69
225.66	3135.44
225.88	2967.51
226.10	2803.67
226.32	2686.94
226.53	3137.49
226.75	2910.16
226.97	2779.09
227.19	2686.94
227.41	2858.96
227.63	2846.68
227.85	2465.75
228.06	2713.56
228.28	2996.18
228.50	3190.74
228.72	2502.62
228.94	2645.98
229.16	2654.17
229.37	2822.10
229.59	2574.30
229.81	2924.50
230.03	2906.07
230.25	2811.86
230.47	2525.15
230.69	2654.17
230.90	3172.30
231.12	2801.62
231.34	2820.05
231.56	2772.95
231.78	2746.33
232.00	3018.71
232.21	2717.65
232.43	2740.18
232.65	2633.69
232.87	3114.96
233.09	2574.30
233.30	2621.40
233.52	3157.97
233.74	2955.22
233.96	2656.22
234.18	2848.72
234.40	2990.03
234.61	3473.36
234.83	2572.25
235.05	2639.83
235.27	3403.72
235.49	3194.83
235.70	2574.30
235.92	2783.19
236.14	3125.20
236.36	3364.81
236.58	2596.82
236.79	2719.70
237.01	2928.60
237.23	2906.07
237.45	2858.96
237.67	2756.57
237.88	3088.34
238.10	3317.71
238.32	2641.88
238.54	2623.45
238.76	3004.37
238.97	2807.77
239.19	2598.87
239.41	2705.37
239.63	3217.36
239.85	2875.35
240.06	2693.08
240.28	2709.46
240.50	3137.49
240.72	3008.47
240.93	2648.02
241.15	2828.24
241.37	2947.03
241.59	3180.50
241.81	2727.89
242.02	2754.52
242.24	3059.67
242.46	3098.58
242.68	2531.29
242.89	2600.92
243.11	3102.67
243.33	2951.12
243.55	2648.02
243.76	2645.98
243.98	2850.77
244.20	3041.23
244.42	2686.94
244.64	2719.70
244.85	2756.57
245.07	2846.68
245.29	2693.08
245.51	2725.85
245.72	3055.57
245.94	3166.16
246.16	2680.79
246.38	2674.65
246.59	2897.88
246.81	2875.35
247.03	2594.78
247.24	2607.06
247.46	2901.97
247.68	3030.99
247.90	2631.64
248.11	2607.06
248.33	3209.17
248.55	2867.16
248.77	2678.74
248.98	2781.14
249.20	3246.03
249.42	2992.08
249.64	2699.22
249.85	2711.51
250.07	2938.84
250.29	3059.67
250.50	2791.38
250.72	2607.06
250.94	3028.95
251.16	3393.48
251.37	2688.98
251.59	2785.24
251.81	3057.62
252.02	3235.79
252.24	2623.45
252.46	2752.47
252.68	2893.78
252.89	2811.86
253.11	2586.58
253.33	2869.20
253.54	3176.40
253.76	2813.91
253.98	2674.65
254.20	2684.89
254.41	2746.33
254.63	2918.36
254.85	2615.26
255.06	2756.57
255.28	3020.75
255.50	2934.74
255.71	2609.11
255.93	2533.34
256.15	2985.94
256.36	3004.37
256.58	2512.86
256.80	2721.75
257.02	3012.56
257.23	2895.83
257.45	2729.94
257.67	2813.91
257.88	2848.72
258.10	3108.82
258.32	2748.37
258.53	2803.67
258.75	3221.45
258.97	2811.86
259.18	2639.83
259.40	2688.98
259.62	3299.28
259.83	3211.22
260.05	2719.70
260.27	3452.88
260.48	3102.67
260.70	2797.53
260.92	2504.67
261.13	2707.41
261.35	3020.75
261.57	3028.95
261.78	2605.02
262.00	2623.45
262.22	3047.38
262.43	2758.61
262.65	2736.09
262.86	2750.42
263.08	3456.97
263.30	3078.10
263.51	2512.86
263.73	2676.70
263.95	3182.54
264.16	2830.29
264.38	2578.39
264.60	2631.64
264.81	2996.18
265.03	3243.98
265.25	3002.32
265.46	2637.78
265.68	3266.51
265.89	3186.64
266.11	2623.45
266.33	2641.88
266.54	3198.93
266.76	3074.00
266.98	2719.70
267.19	2836.44
267.41	3127.25
267.62	3004.37
267.84	2543.58
268.06	2844.63
268.27	3045.33
268.49	3203.02
268.70	2750.42
268.92	2758.61
269.14	2850.77
269.35	2783.19
269.57	2797.53
269.79	2721.75
270.00	2930.64
270.22	3233.74
270.43	2635.74
270.65	2574.30
270.87	2977.75
271.08	3114.96
271.30	2758.61
271.51	2676.70
271.73	3098.58
271.95	3221.45
272.16	2666.46
272.38	2740.18
272.59	2971.60
272.81	3080.14
273.02	2664.41
273.24	2797.53
273.46	3143.63
273.67	2746.33
273.89	2615.26
274.10	2682.84
274.32	3231.69
274.54	3026.90
274.75	2740.18
274.97	2734.04
275.18	3123.15
275.40	3037.14
275.61	2709.46
275.83	2867.16
276.05	2783.19
276.26	3002.32
276.48	2801.62
276.69	2879.44
276.91	2928.60
277.12	3299.28
277.34	2875.35
277.55	2889.68
277.77	2975.70
277.99	2934.74
278.20	2748.37
278.42	2746.33
278.63	2785.24
278.85	2887.64
279.06	2762.71
279.28	2852.82
279.49	3147.73
279.71	3131.34
279.93	2803.67
280.14	2791.38
280.36	2848.72
280.57	3084.24
280.79	2852.82
281.00	2672.60
281.22	2834.39
281.43	3137.49
281.65	2578.39
281.86	2660.31
282.08	2996.18
282.29	3364.81
282.51	2682.84
282.73	2709.46
282.94	2660.31
283.16	3149.78
283.37	2942.93
283.59	2854.87
283.80	3129.30
284.02	2990.03
284.23	2793.43
284.45	2889.68
284.66	2883.54
284.88	2918.36
285.09	2684.89
285.31	2848.72
285.52	3063.76
285.74	2803.67
285.95	2914.26
286.17	2838.48
286.38	3141.58
286.60	2891.73
286.81	2719.70
287.03	2775.00
287.24	2987.99
287.46	3090.38
287.67	2881.49
287.89	3008.47
288.10	2981.84
288.32	3033.04
288.53	2979.79
288.75	2848.72
288.96	3162.06
289.18	2934.74
289.39	2729.94
289.61	2936.79
289.82	3377.10
290.04	3370.96
290.25	2625.50
290.47	2822.10
290.68	2940.88
290.90	3164.11
291.11	2662.36
291.33	2963.41
291.54	2809.81
291.76	2897.88
291.97	2887.64
292.18	2865.11
292.40	2998.23
292.61	2830.29
292.83	2983.89
293.04	2832.34
293.26	3045.33
293.47	2983.89
293.69	2797.53
293.90	2688.98
294.12	3182.54
294.33	2895.83
294.55	2881.49
294.76	3008.47
294.97	3227.60
295.19	3301.33
295.40	2750.42
295.62	2881.49
295.83	3045.33
296.05	2899.92
296.26	2985.94
296.48	2807.77
296.69	2932.69
296.90	3006.42
297.12	2951.12
297.33	3000.27
297.55	3053.52
297.76	3041.23
297.98	2887.64
298.19	2897.88
298.41	2955.22
298.62	2770.90
298.83	3002.32
299.05	2873.30
299.26	2875.35
299.48	2754.52
299.69	2891.73
299.90	2805.72
300.12	2891.73
300.33	3057.62
300.55	2811.86
300.76	2869.20
300.98	2711.51
301.19	3121.10
301.40	2717.65
301.62	2779.09
301.83	3094.48
302.05	3049.43
302.26	2762.71
302.47	2834.39
302.69	2854.87
302.90	3045.33
303.12	2553.82
303.33	2869.20
303.54	3286.99
303.76	2971.60
303.97	2801.62
304.19	2957.27
304.40	2836.44
304.61	3133.39
304.83	2895.83
305.04	2861.01
305.26	3127.25
305.47	2877.40
305.68	2826.20
305.90	2680.79
306.11	3174.35
306.33	2926.55
306.54	2715.61
306.75	2738.13
306.97	2799.57
307.18	2867.16
307.39	2762.71
307.61	2865.11
307.82	3020.75
308.04	3149.78
308.25	2619.35
308.46	2895.83
308.68	2971.60
308.89	2957.27
309.10	2910.16
309.32	2861.01
309.53	2920.40
309.74	3053.52
309.96	2715.61
310.17	2963.41
310.39	2908.12
310.60	3149.78
310.81	2818.00
311.03	2686.94
311.24	3069.91
311.45	2965.46
311.67	3030.99
311.88	2930.64
312.09	2940.88
312.31	2854.87
312.52	2762.71
312.73	2756.57
312.95	2717.65
313.16	2811.86
313.37	2994.13
313.59	2934.74
313.80	3117.01
314.01	3213.26
314.23	2727.89
314.44	2682.84
314.65	2777.05
314.87	2901.97
315.08	2799.57
315.29	2764.76
315.51	2904.02
315.72	2775.00
315.93	2832.34
316.15	2752.47
316.36	2889.68
316.57	3033.04
316.79	2738.13
317.00	2766.81
317.21	3106.77
317.43	2832.34
317.64	2818.00
317.85	2791.38
318.07	2889.68
318.28	3012.56
318.49	2861.01
318.70	3026.90
318.92	2977.75
319.13	3002.32
319.34	2975.70
319.56	2793.43
319.77	3002.32
319.98	3084.24
320.20	3051.47
320.41	2977.75
320.62	3076.05
320.83	2861.01
321.05	3020.75
321.26	2854.87
321.47	3016.66
321.69	3127.25
321.90	2725.85
322.11	2734.04
322.32	3016.66
322.54	3305.42
322.75	2746.33
322.96	3639.24
323.18	2738.13
323.39	2711.51
323.60	2736.09
323.81	2881.49
324.03	2883.54
324.24	2977.75
324.45	3008.47
324.66	2729.94
324.88	3168.21
325.09	3209.17
325.30	2858.96
325.52	2744.28
325.73	3076.05
325.94	2813.91
326.15	2711.51
326.37	2705.37
326.58	3090.38
326.79	3280.85
327.00	2803.67
327.22	2729.94
327.43	2924.50
327.64	2793.43
327.85	2936.79
328.07	2863.06
328.28	3241.93
328.49	2873.30
328.70	2756.57
328.92	2848.72
329.13	3018.71
329.34	3092.43
329.55	3002.32
329.76	2949.08
329.98	2901.97
330.19	3215.31
330.40	2897.88
330.61	2938.84
330.83	3078.10
331.04	2906.07
331.25	2893.78
331.46	2836.44
331.68	2844.63
331.89	3235.79
332.10	2809.81
332.31	2639.83
332.52	2942.93
332.74	3186.64
332.95	2637.78
333.16	2813.91
333.37	3117.01
333.58	2873.30
333.80	2815.96
334.01	2654.17
334.22	2979.79
334.43	2908.12
334.64	2738.13
334.86	2758.61
335.07	2834.39
335.28	3276.75
335.49	2688.98
335.70	2811.86
335.92	3260.37
336.13	3297.23
336.34	2895.83
336.55	2805.72
336.76	3086.29
336.98	2729.94
337.19	2838.48
337.40	2836.44
337.61	3532.75
337.82	3018.71
338.04	2895.83
338.25	2641.88
338.46	2957.27
338.67	2955.22
338.88	2775.00
339.09	2715.61
339.31	2906.07
339.52	2766.81
339.73	2674.65
339.94	2854.87
340.15	3176.40
340.36	2949.08
340.58	2848.72
340.79	2746.33
341.00	3035.09
341.21	2805.72
341.42	2973.65
341.63	2783.19
341.85	3151.82
342.06	2961.36
342.27	2754.52
342.48	3010.51
342.69	2801.62
342.90	3057.62
343.12	3082.19
343.33	2727.89
343.54	3145.68
343.75	3248.08
343.96	2875.35
344.17	2768.85
344.38	2910.16
344.60	2910.16
344.81	2666.46
345.02	2731.99
345.23	3170.26
345.44	3364.81
345.65	2863.06
345.86	2875.35
346.07	2957.27
346.29	2875.35
346.50	2865.11
346.71	2822.10
346.92	3239.89
347.13	3426.25
347.34	2836.44
347.55	2721.75
347.76	2979.79
347.98	2709.46
348.19	2901.97
348.40	3039.19
348.61	2914.26
348.82	3231.69
349.03	2836.44
349.24	2736.09
349.45	3274.70
349.66	2619.35
349.88	2795.48
350.09	2701.27
350.30	3229.65
350.51	3233.74
350.72	2926.55
350.93	2768.85
351.14	2869.20
351.35	3047.38
351.56	2846.68
351.77	2889.68
351.99	3139.54
352.20	3196.88
352.41	2957.27
352.62	2660.31
352.83	3053.52
353.04	3010.51
353.25	2738.13
353.46	2893.78
353.67	3147.73
353.88	2605.02
354.09	2719.70
354.30	2799.57
354.52	3094.48
354.73	2994.13
354.94	2723.80
355.15	2803.67
355.36	3303.37
355.57	2926.55
355.78	2793.43
355.99	2752.47
356.20	2971.60
356.41	3205.07
356.62	2799.57
356.83	2836.44
357.04	3194.83
357.25	2760.66
357.46	2828.24
357.68	2684.89
357.89	2871.25
358.10	2922.45
358.31	2762.71
358.52	2762.71
358.73	2856.92
358.94	2760.66
359.15	2820.05
359.36	2899.92
359.57	3020.75
359.78	2912.21
359.99	3047.38
360.20	2711.51
360.41	2963.41
360.62	3119.06
360.83	2883.54
361.04	2912.21
361.25	3022.80
361.46	3258.32
361.67	2885.59
361.88	2805.72
362.09	3157.97
362.30	2977.75
362.51	2762.71
362.72	2881.49
362.93	3117.01
363.14	3024.85
363.35	2889.68
363.56	2682.84
363.78	3172.30
363.99	3143.63
364.20	2717.65
364.41	2848.72
364.62	3465.16
364.83	3016.66
365.04	2764.76
365.25	2846.68
365.46	3311.57
365.67	2793.43
365.88	2883.54
366.09	2756.57
366.30	2920.40
366.51	2967.51
366.72	2709.46
366.93	2734.04
367.14	3045.33
367.35	3233.74
367.56	2768.85
367.77	2854.87
367.98	2967.51
368.18	3012.56
368.39	2889.68
368.60	2701.27
368.81	3069.91
369.02	3082.19
369.23	2813.91
369.44	2635.74
369.65	2906.07
369.86	3008.47
370.07	2998.23
370.28	2707.41
370.49	3030.99
370.70	3096.53
370.91	2752.47
371.12	2627.54
371.33	3190.74
371.54	2926.55
371.75	2936.79
371.96	2535.39
372.17	3004.37
372.38	2916.31
372.59	2770.90
372.80	2752.47
373.01	2942.93
373.22	3043.28
373.43	2838.48
373.64	2719.70
373.85	3135.44
374.06	3319.76
374.26	3014.61
374.47	2893.78
374.68	3284.94
374.89	3059.67
375.10	2799.57
375.31	3004.37
375.52	3000.27
375.73	3006.42
375.94	2629.59
376.15	2936.79
376.36	2918.36
376.57	2861.01
376.78	2881.49
376.99	2791.38
377.20	3231.69
377.40	2885.59
377.61	3071.95
377.82	2758.61
378.03	3196.88
378.24	3016.66
378.45	2947.03
378.66	2848.72
378.87	2734.04
379.08	2736.09
379.29	2811.86
379.50	3024.85
379.71	3002.32
379.91	3157.97
380.12	2787.29
380.33	2848.72
380.54	3016.66
380.75	2987.99
380.96	2858.96
381.17	2797.53
381.38	2940.88
381.59	3024.85
381.80	2844.63
382.00	2981.84
382.21	3033.04
382.42	3180.50
382.63	3184.59
382.84	2916.31
383.05	3080.14
383.26	3254.22
383.47	2971.60
383.68	2779.09
383.88	3059.67
384.09	3026.90
384.30	3028.95
384.51	2906.07
384.72	2977.75
384.93	2688.98
385.14	2854.87
385.35	3028.95
385.55	2803.67
385.76	3119.06
385.97	2858.96
386.18	2641.88
386.39	2740.18
386.60	2899.92
386.81	2772.95
387.02	2658.26
387.22	2793.43
387.43	3092.43
387.64	2832.34
387.85	3057.62
388.06	3057.62
388.27	4005.83
388.48	7235.47
388.68	10841.95
388.89	13352.76
389.10	14526.24
389.31	14122.79
389.52	11202.39
389.73	9633.64
389.93	8855.42
390.14	8173.44
390.35	7382.93
390.56	6567.84
390.77	5558.19
390.98	4233.15
391.18	3569.61
391.39	3467.21
391.60	3035.09
391.81	3088.34
392.02	2830.29
392.23	3487.69
392.43	3074.00
392.64	2916.31
392.85	2871.25
393.06	3196.88
393.27	3010.51
393.47	2744.28
393.68	2875.35
393.89	2877.40
394.10	3178.45
394.31	2781.14
394.52	2719.70
394.72	2797.53
394.93	3299.28
395.14	2764.76
395.35	2893.78
395.56	2930.64
395.76	2949.08
395.97	2721.75
396.18	2918.36
396.39	3067.86
396.60	3604.42
396.80	3125.20
397.01	3030.99
397.22	3149.78
397.43	3094.48
397.64	2770.90
397.84	2934.74
398.05	3352.52
398.26	2951.12
398.47	2932.69
398.67	3043.28
398.88	3028.95
399.09	3117.01
399.30	2799.57
399.51	2951.12
399.71	2848.72
399.92	2973.65
400.13	2901.97
400.34	2926.55
400.54	2916.31
400.75	3231.69
400.96	2914.26
401.17	3131.34
401.37	3022.80
401.58	2928.60
401.79	2834.39
402.00	2957.27
402.21	3483.59
402.41	3174.35
402.62	3149.78
402.83	3160.02
403.04	3332.05
403.24	3721.16
403.45	2983.89
403.66	3110.86
403.87	3131.34
404.07	3231.69
404.28	3049.43
404.49	3119.06
404.70	3002.32
404.90	3049.43
405.11	2904.02
405.32	2971.60
405.52	2901.97
405.73	2885.59
405.94	2701.27
406.15	2953.17
406.35	3092.43
406.56	3043.28
406.77	2836.44
406.98	2844.63
407.18	2850.77
407.39	3243.98
407.60	2850.77
407.80	2834.39
408.01	2914.26
408.22	3094.48
408.43	2789.33
408.63	2996.18
408.84	3143.63
409.05	3160.02
409.25	2775.00
409.46	2877.40
409.67	2901.97
409.88	2877.40
410.08	2854.87
410.29	2807.77
410.50	3108.82
410.70	3078.10
410.91	2727.89
411.12	2879.44
411.32	2994.13
411.53	2944.98
411.74	2850.77
411.95	2838.48
412.15	2983.89
412.36	3090.38
412.57	2944.98
412.77	2990.03
412.98	2969.55
413.19	2912.21
413.39	2906.07
413.60	2844.63
413.81	3229.65
414.01	2672.60
414.22	2840.53
414.43	2967.51
414.63	2926.55
414.84	3071.95
415.05	2865.11
415.25	2707.41
415.46	3180.50
415.67	2910.16
415.87	2873.30
416.08	2727.89
416.29	2942.93
416.49	3096.53
416.70	2777.05
416.91	2865.11
417.11	3002.32
417.32	3020.75
417.53	3006.42
417.73	2959.31
417.94	3041.23
418.15	3004.37
418.35	2918.36
418.56	2846.68
418.77	3454.92
418.97	2969.55
419.18	2926.55
419.38	2598.87
419.59	2990.03
419.80	3299.28
420.00	2746.33
420.21	2947.03
420.42	3088.34
420.62	3049.43
420.83	2832.34
421.04	2877.40
421.24	2977.75
421.45	3012.56
421.65	2904.02
421.86	2858.96
422.07	3139.54
422.27	3184.59
422.48	2856.92
422.69	2756.57
422.89	2977.75
423.10	2934.74
423.30	2799.57
423.51	2867.16
423.72	3166.16
423.92	3088.34
424.13	2672.60
424.33	2881.49
424.54	3127.25
424.75	3004.37
424.95	3092.43
425.16	2836.44
425.36	2934.74
425.57	3196.88
425.78	2883.54
425.98	2994.13
426.19	2981.84
426.39	2807.77
426.60	2947.03
426.81	3008.47
427.01	3035.09
427.22	2891.73
427.42	2678.74
427.63	2744.28
427.83	3117.01
428.04	3248.08
428.25	2938.84
428.45	3000.27
428.66	3213.26
428.86	3043.28
429.07	2895.83
429.28	2895.83
429.48	2996.18
429.69	2799.57
429.89	2893.78
430.10	2766.81
430.30	3078.10
430.51	3155.92
430.71	2779.09
430.92	2867.16
431.13	2908.12
431.33	3051.47
431.54	2963.41
431.74	3168.21
431.95	3332.05
432.15	2861.01
432.36	2885.59
432.56	2893.78
432.77	3301.33
432.98	3297.23
433.18	2949.08
433.39	2756.57
433.59	3016.66
433.80	3336.14
434.00	3063.76
434.21	2856.92
434.41	2838.48
434.62	3407.82
434.82	2680.79
435.03	2789.33
435.23	3022.80
435.44	2738.13
435.64	2844.63
435.85	2904.02
436.06	3166.16
436.26	3157.97
436.47	2842.58
436.67	2793.43
436.88	2977.75
437.08	3166.16
437.29	2969.55
437.49	2885.59
437.70	3237.84
437.90	2914.26
438.11	3020.75
438.31	2938.84
438.52	3194.83
438.72	3196.88
438.93	3100.62
439.13	2875.35
439.34	3143.63
439.54	2971.60
439.75	2975.70
439.95	2897.88
440.16	2832.34
440.36	2961.36
440.57	2828.24
440.77	2906.07
440.98	3002.32
441.18	2990.03
441.39	2738.13
441.59	2746.33
441.80	3319.76
442.00	3024.85
442.21	2881.49
442.41	2691.03
442.62	3176.40
442.82	2883.54
443.02	2858.96
443.23	2885.59
443.43	2969.55
443.64	3166.16
443.84	2682.84
444.05	2967.51
444.25	2963.41
444.46	2953.17
444.66	2813.91
444.87	3012.56
445.07	2777.05
445.28	2930.64
445.48	3030.99
445.69	2920.40
445.89	3409.87
446.09	2992.08
446.30	3123.15
446.50	3164.11
446.71	4763.58
446.91	5871.53
447.12	6475.68
447.32	6911.89
447.53	6717.34
447.73	5636.01
447.93	4970.42
448.14	4751.29
448.34	4886.45
448.55	4112.32
448.75	4093.89
448.96	3817.41
449.16	3614.66
449.36	3514.31
449.57	3090.38
449.77	2947.03
449.98	2947.03
450.18	3059.67
450.39	2803.67
450.59	3059.67
450.79	2959.31
451.00	2944.98
451.20	2996.18
451.41	2838.48
451.61	3065.81
451.81	2987.99
452.02	2832.34
452.22	2850.77
452.43	2916.31
452.63	2881.49
452.84	2912.21
453.04	2775.00
453.24	3100.62
453.45	2783.19
453.65	2842.58
453.86	2922.45
454.06	3030.99
454.26	3035.09
454.47	2777.05
454.67	3026.90
454.87	3119.06
455.08	3010.51
455.28	3004.37
455.49	2947.03
455.69	2822.10
455.89	3321.81
456.10	2934.74
456.30	2871.25
456.51	3096.53
456.71	3035.09
456.91	2971.60
457.12	2844.63
457.32	2981.84
457.52	2828.24
457.73	2959.31
457.93	3035.09
458.14	2924.50
458.34	2695.13
458.54	2873.30
458.75	2836.44
458.95	3205.07
459.15	3067.86
459.36	2920.40
459.56	2854.87
459.76	3385.29
459.97	2992.08
460.17	2826.20
460.37	2942.93
460.58	2979.79
460.78	3053.52
460.99	2867.16
461.19	2848.72
461.39	2899.92
461.60	2963.41
461.80	2942.93
462.00	2748.37
462.21	2895.83
462.41	2844.63
462.61	2770.90
462.82	2623.45
463.02	3030.99
463.22	3055.57
463.43	2918.36
463.63	2795.48
463.83	3221.45
464.04	3063.76
464.24	2815.96
464.44	2826.20
464.64	3024.85
464.85	3143.63
465.05	2914.26
465.25	2758.61
465.46	2805.72
465.66	3080.14
465.86	2951.12
466.07	2856.92
466.27	2973.65
466.47	2815.96
466.68	2668.50
466.88	2965.46
467.08	3143.63
467.29	3117.01
467.49	2887.64
467.69	2942.93
467.89	3121.10
468.10	2928.60
468.30	2891.73
468.50	3016.66
468.71	3104.72
468.91	2861.01
469.11	3076.05
469.31	2912.21
469.52	2910.16
469.72	3325.90
469.92	3098.58
470.13	2795.48
470.33	2992.08
470.53	3059.67
470.73	3194.83
470.94	3467.21
471.14	3596.23
471.34	4155.33
471.54	3829.70
471.75	3508.17
471.95	3315.66
472.15	3373.00
472.36	3293.13
472.56	3250.13
472.76	3444.68
472.96	3241.93
473.17	3030.99
473.37	3053.52
473.57	2889.68
473.77	3061.71
473.98	2926.55
474.18	2691.03
474.38	3450.83
474.58	2881.49
474.79	2742.23
474.99	2899.92
475.19	3164.11
475.39	2869.20
475.60	2947.03
475.80	2832.34
476.00	2969.55
476.20	2910.16
476.41	2971.60
476.61	2912.21
476.81	3205.07
477.01	2881.49
477.21	3067.86
477.42	2975.70
477.62	2879.44
477.82	3076.05
478.02	2828.24
478.23	2947.03
478.43	2953.17
478.63	2938.84
478.83	2887.64
479.03	2924.50
479.24	3289.04
479.44	3426.25
479.64	2762.71
479.84	2619.35
480.04	2871.25
480.25	3172.30
480.45	2836.44
480.65	2789.33
480.85	3297.23
481.06	2877.40
481.26	2926.55
481.46	2811.86
481.66	3090.38
481.86	2883.54
482.06	3016.66
482.27	2867.16
482.47	2942.93
482.67	3114.96
482.87	2818.00
483.07	2932.69
483.28	2891.73
483.48	2787.29
483.68	2858.96
483.88	2748.37
484.08	2670.55
484.29	2727.89
484.49	2930.64
484.69	2727.89
484.89	3200.98
485.09	3219.41
485.29	2928.60
485.50	2969.55
485.70	2861.01
485.90	3141.58
486.10	2985.94
486.30	2809.81
486.50	3233.74
486.71	2983.89
486.91	2940.88
487.11	2971.60
487.31	2813.91
487.51	3106.77
487.71	2850.77
487.91	2750.42
488.12	2869.20
488.32	2594.78
488.52	2828.24
488.72	2617.30
488.92	3006.42
489.12	3160.02
489.32	2957.27
489.53	2875.35
489.73	2750.42
489.93	3301.33
490.13	2811.86
490.33	2723.80
490.53	2975.70
490.73	3258.32
490.94	2662.36
491.14	2979.79
491.34	3076.05
491.54	3162.06
491.74	3661.77
491.94	4294.59
492.14	4659.13
492.34	4777.91
492.54	4323.26
492.75	3841.99
492.95	3993.54
493.15	3702.73
493.35	3495.88
493.55	3395.53
493.75	3446.73
493.95	3450.83
494.15	3108.82
494.35	2971.60
494.56	2947.03
494.76	2893.78
494.96	3030.99
495.16	2852.82
495.36	3012.56
495.56	3028.95
495.76	2871.25
495.96	2916.31
496.16	2803.67
496.36	3330.00
496.56	2873.30
496.77	2949.08
496.97	2990.03
497.17	3219.41
497.37	2789.33
497.57	2957.27
497.77	2996.18
497.97	2850.77
498.17	2805.72
498.37	2826.20
498.57	3147.73
498.77	2897.88
498.97	2983.89
499.17	3160.02
499.38	2918.36
499.58	3067.86
499.78	3014.61
499.98	2975.70
500.18	2979.79
500.38	2877.40
500.58	3030.99
500.78	3352.52
500.98	5539.76
501.18	7358.35
501.38	8761.21
501.58	9774.95
501.78	9633.64
501.98	7794.57
502.18	6664.09
502.38	5816.23
502.58	5629.87
502.78	5074.87
502.98	4747.19
503.18	4593.59
503.38	4347.84
503.59	3801.03
503.79	3678.15
503.99	3362.76
504.19	3432.40
504.39	3416.01
504.59	3370.96
504.79	3274.70
504.99	3561.42
505.19	3117.01
505.39	3028.95
505.59	3160.02
505.79	3327.95
505.99	3164.11
506.19	2914.26
506.39	3117.01
506.59	2873.30
506.79	2934.74
506.99	3020.75
507.19	2801.62
507.39	2977.75
507.59	2736.09
507.79	2789.33
507.99	2740.18
508.19	3002.32
508.39	2944.98
508.59	2836.44
508.79	2969.55
508.99	3289.04
509.19	3006.42
509.39	2947.03
509.59	2818.00
509.79	2858.96
509.99	2992.08
510.19	3018.71
510.39	2904.02
510.59	2940.88
510.79	2949.08
510.99	2666.46
511.19	2994.13
511.39	3356.62
511.59	3153.87
511.79	3020.75
511.99	2811.86
512.19	3268.56
512.38	3014.61
512.58	2815.96
512.78	2811.86
512.98	3256.27
513.18	3268.56
513.38	2717.65
513.58	2922.45
513.78	2981.84
513.98	2963.41
514.18	2863.06
514.38	2897.88
514.58	2979.79
514.78	2936.79
514.98	2697.17
515.18	2881.49
515.38	2779.09
515.58	3274.70
515.78	2877.40
515.98	2899.92
516.18	3069.91
516.38	2987.99
516.57	2836.44
516.77	2791.38
516.97	3055.57
517.17	2842.58
517.37	2600.92
517.57	2920.40
517.77	2930.64
517.97	2803.67
518.17	2951.12
518.37	2779.09
518.57	2889.68
518.77	2930.64
518.97	2883.54
519.16	2936.79
519.36	3207.12
519.56	2807.77
519.76	2795.48
519.96	2977.75
520.16	3194.83
520.36	2875.35
520.56	3069.91
520.76	2762.71
520.96	2883.54
521.16	3139.54
521.35	3074.00
521.55	2969.55
521.75	2920.40
521.95	2838.48
522.15	2820.05
522.35	2756.57
522.55	2869.20
522.75	3071.95
522.95	2781.14
523.14	2725.85
523.34	3014.61
523.54	2949.08
523.74	3022.80
523.94	2926.55
524.14	2793.43
524.34	3041.23
524.54	3067.86
524.73	2844.63
524.93	3110.86
525.13	3127.25
525.33	2764.76
525.53	3086.29
525.73	3178.45
525.93	3033.04
526.13	2824.15
526.32	2762.71
526.52	3198.93
526.72	3053.52
526.92	2885.59
527.12	2844.63
527.32	2770.90
527.52	2985.94
527.71	2879.44
527.91	2801.62
528.11	2897.88
528.31	2979.79
528.51	2686.94
528.71	2992.08
528.90	3065.81
529.10	3117.01
529.30	2887.64
529.50	2566.10
529.70	3108.82
529.90	2893.78
530.09	2910.16
530.29	2729.94
530.49	2826.20
530.69	3379.15
530.89	2926.55
531.09	3008.47
531.28	2965.46
531.48	3192.78
531.68	2908.12
531.88	2940.88
532.08	3082.19
532.28	2922.45
532.47	3016.66
532.67	2975.70
532.87	3051.47
533.07	2805.72
533.27	2887.64
533.46	2934.74
533.66	3059.67
533.86	3043.28
534.06	2893.78
534.26	2852.82
534.45	2969.55
534.65	3088.34
534.85	2910.16
535.05	2707.41
535.25	3174.35
535.44	2715.61
535.64	2985.94
535.84	2848.72
536.04	2848.72
536.24	2867.16
536.43	2887.64
536.63	2820.05
536.83	3016.66
537.03	3000.27
537.22	2766.81
537.42	2641.88
537.62	3024.85
537.82	2764.76
538.02	2981.84
538.21	2944.98
538.41	3491.79
538.61	3098.58
538.81	2883.54
539.00	2975.70
539.20	2742.23
539.40	2879.44
539.60	2832.34
539.79	2994.13
539.99	3061.71
540.19	2822.10
540.39	2793.43
540.58	2920.40
540.78	3194.83
540.98	2920.40
541.18	3071.95
541.37	2912.21
541.57	3104.72
541.77	3127.25
541.97	2803.67
542.16	2676.70
542.36	2930.64
542.56	2832.34
542.76	3008.47
542.95	2957.27
543.15	3078.10
543.35	3145.68
543.54	2754.52
543.74	2834.39
543.94	3260.37
544.14	2899.92
544.33	3008.47
544.53	2768.85
544.73	2908.12
544.93	2959.31
545.12	2799.57
545.32	2879.44
545.52	2963.41
545.71	2815.96
545.91	2867.16
546.11	2789.33
546.30	2844.63
546.50	2926.55
546.70	2856.92
546.90	2955.22
547.09	2695.13
547.29	3033.04
547.49	3055.57
547.68	2918.36
547.88	2887.64
548.08	3129.30
548.27	3213.26
548.47	2826.20
548.67	2918.36
548.87	3088.34
549.06	2824.15
549.26	2828.24
549.46	2985.94
549.65	2826.20
549.85	2822.10
550.05	2936.79
550.24	2775.00
550.44	3055.57
550.64	2848.72
550.83	2889.68
551.03	3293.13
551.23	3071.95
551.42	2981.84
551.62	2940.88
551.82	2936.79
552.01	2961.36
552.21	3028.95
552.41	2897.88
552.60	3207.12
552.80	3061.71
553.00	2836.44
553.19	2852.82
553.39	3297.23
553.59	2731.99
553.78	3063.76
553.98	2832.34
554.17	2764.76
554.37	2987.99
554.57	2938.84
554.76	2721.75
554.96	2826.20
555.16	3045.33
555.35	2994.13
555.55	3016.66
555.75	2985.94
555.94	3102.67
556.14	2684.89
556.33	2926.55
556.53	3008.47
556.73	3053.52
556.92	2961.36
557.12	2797.53
557.32	3373.00
557.51	3207.12
557.71	2924.50
557.90	3043.28
558.10	3227.60
558.30	2891.73
558.49	2893.78
558.69	2887.64
558.88	3098.58
559.08	3059.67
559.28	2936.79
559.47	2906.07
559.67	3074.00
559.86	3332.05
560.06	2899.92
560.26	2772.95
560.45	3157.97
560.65	2953.17
560.84	3127.25
561.04	2779.09
561.24	3086.29
561.43	2756.57
561.63	3172.30
561.82	2949.08
562.02	3008.47
562.22	2887.64
562.41	2797.53
562.61	2803.67
562.80	2932.69
563.00	3401.68
563.19	2875.35
563.39	2965.46
563.59	3125.20
563.78	2791.38
563.98	2549.72
564.17	2846.68
564.37	2697.17
564.56	2996.18
564.76	2754.52
564.96	2985.94
565.15	3125.20
565.35	3370.96
565.54	2875.35
565.74	2942.93
565.93	3108.82
566.13	3022.80
566.32	2932.69
566.52	2953.17
566.71	3065.81
566.91	3100.62
567.11	2979.79
567.30	2713.56
567.50	2961.36
567.69	3108.82
567.89	2893.78
568.08	2746.33
568.28	3010.51
568.47	2795.48
568.67	2850.77
568.86	2787.29
569.06	3110.86
569.25	2959.31
569.45	2764.76
569.64	2934.74
569.84	2928.60
570.04	3012.56
570.23	2783.19
570.43	2891.73
570.62	3055.57
570.82	3200.98
571.01	2713.56
571.21	2848.72
571.40	2901.97
571.60	3127.25
571.79	2836.44
571.99	2844.63
572.18	2832.34
572.38	3090.38
572.57	2854.87
572.77	2973.65
572.96	3409.87
573.16	2897.88
573.35	2842.58
573.55	2953.17
573.74	3004.37
573.94	2979.79
574.13	2820.05
574.33	3035.09
574.52	3129.30
574.71	3006.42
574.91	2875.35
575.10	2688.98
575.30	2840.53
575.49	2844.63
575.69	2856.92
575.88	2852.82
576.08	2983.89
576.27	3143.63
576.47	2703.32
576.66	3104.72
576.86	3149.78
577.05	3000.27
577.25	2861.01
577.44	3045.33
577.64	2865.11
577.83	3149.78
578.02	2877.40
578.22	3035.09
578.41	3235.79
578.61	2963.41
578.80	2715.61
579.00	2867.16
579.19	3008.47
579.39	3028.95
579.58	2934.74
579.77	2867.16
579.97	3274.70
580.16	3223.50
580.36	2998.23
580.55	2955.22
580.75	3002.32
580.94	3016.66
581.13	3006.42
581.33	3119.06
581.52	2932.69
581.72	3346.38
581.91	3018.71
582.11	2861.01
582.30	3059.67
582.49	3014.61
582.69	3209.17
582.88	2918.36
583.08	3049.43
583.27	3096.53
583.47	2953.17
583.66	2830.29
583.85	2867.16
584.05	2957.27
584.24	2996.18
584.44	2932.69
584.63	3121.10
584.82	3117.01
585.02	3090.38
585.21	3000.27
585.41	3065.81
585.60	3000.27
585.79	3186.64
585.99	3200.98
586.18	3084.24
586.37	3860.42
586.57	5912.49
586.76	16588.55
586.96	35651.04
587.15	48473.37
587.34	57197.72
587.54	61217.88
587.73	54774.97
587.93	38591.92
588.12	29525.57
588.31	24303.25
588.51	21341.88
588.70	19640.02
588.89	17118.97
589.09	14587.68
589.28	12570.43
589.47	9891.69
589.67	7518.09
589.86	5957.54
590.06	4636.60
590.25	4120.51
590.44	3614.66
590.64	3305.42
590.83	3258.32
591.02	3266.51
591.22	2926.55
591.41	3010.51
591.60	2910.16
591.80	3405.77
591.99	2805.72
592.18	2912.21
592.38	3088.34
592.57	2887.64
592.76	2893.78
592.96	3004.37
593.15	2953.17
593.34	3110.86
593.54	2953.17
593.73	2953.17
593.92	3094.48
594.12	3074.00
594.31	2975.70
594.50	2955.22
594.70	3106.77
594.89	3549.13
595.08	2697.17
595.28	3014.61
595.47	3590.09
595.66	3233.74
595.86	2742.23
596.05	2744.28
596.24	2908.12
596.43	3383.24
596.63	2926.55
596.82	2936.79
597.01	3022.80
597.21	3268.56
597.40	2883.54
597.59	2910.16
597.79	2981.84
597.98	3160.02
598.17	2965.46
598.36	2893.78
598.56	3135.44
598.75	2840.53
598.94	2936.79
599.14	2955.22
599.33	2910.16
599.52	3082.19
599.71	2963.41
599.91	2895.83
600.10	3123.15
600.29	2996.18
600.48	2899.92
600.68	2951.12
600.87	2938.84
601.06	2904.02
601.26	2936.79
601.45	3022.80
601.64	2998.23
601.83	3305.42
602.03	2797.53
602.22	2748.37
602.41	3153.87
602.60	3395.53
602.80	3030.99
602.99	2938.84
603.18	2828.24
603.37	2977.75
603.57	2834.39
603.76	2865.11
603.95	3176.40
604.14	2871.25
604.34	2760.66
604.53	2742.23
604.72	2990.03
604.91	3186.64
605.10	2848.72
605.30	2721.75
605.49	3340.24
605.68	3088.34
605.87	2940.88
606.07	2807.77
606.26	2975.70
606.45	3059.67
606.64	2940.88
606.84	2756.57
607.03	3067.86
607.22	3110.86
607.41	2885.59
607.60	2795.48
607.80	3135.44
607.99	2987.99
608.18	2852.82
608.37	2875.35
608.56	2889.68
608.76	3121.10
608.95	3067.86
609.14	2854.87
609.33	3168.21
609.52	3229.65
609.72	2949.08
609.91	3002.32
610.10	3090.38
610.29	3190.74
610.48	2959.31
610.68	2981.84
610.87	2873.30
611.06	3114.96
611.25	2820.05
611.44	2961.36
611.63	2869.20
611.83	3264.46
612.02	2758.61
612.21	2936.79
612.40	2705.37
612.59	2756.57
612.79	2840.53
612.98	2813.91
613.17	3266.51
613.36	2967.51
613.55	3047.38
613.74	2756.57
613.93	2987.99
614.13	3121.10
614.32	3035.09
614.51	2938.84
614.70	3028.95
614.89	2926.55
615.08	2977.75
615.28	3217.36
615.47	2824.15
615.66	3045.33
615.85	2873.30
616.04	3012.56
616.23	2881.49
616.42	3020.75
616.62	2832.34
616.81	2871.25
617.00	2971.60
617.19	3000.27
617.38	2887.64
617.57	2949.08
617.76	3053.52
617.95	3180.50
618.15	2940.88
618.34	3125.20
618.53	2801.62
618.72	3166.16
618.91	2996.18
619.10	2934.74
619.29	2951.12
619.48	2967.51
619.68	2703.32
619.87	2908.12
620.06	2813.91
620.25	3127.25
620.44	2840.53
620.63	2754.52
620.82	3028.95
621.01	2975.70
621.20	2889.68
621.39	2942.93
621.59	3026.90
621.78	2875.35
621.97	2887.64
622.16	3084.24
622.35	3047.38
622.54	3069.91
622.73	2998.23
622.92	2666.46
623.11	3061.71
623.30	2951.12
623.49	3008.47
623.68	2838.48
623.88	3241.93
624.07	2891.73
624.26	2811.86
624.45	2930.64
624.64	2957.27
624.83	3071.95
625.02	2856.92
625.21	2863.06
625.40	3004.37
625.59	3178.45
625.78	2965.46
625.97	2973.65
626.16	3149.78
626.35	3094.48
626.54	2777.05
626.74	3059.67
626.93	3008.47
627.12	2912.21
627.31	3006.42
627.50	2916.31
627.69	3078.10
627.88	2840.53
628.07	2758.61
628.26	2682.84
628.45	2801.62
628.64	2854.87
628.83	2877.40
629.02	2693.08
629.21	3143.63
629.40	2934.74
629.59	2709.46
629.78	2805.72
629.97	2934.74
630.16	3000.27
630.35	2799.57
630.54	3020.75
630.73	2858.96
630.92	3043.28
631.11	2750.42
631.30	2936.79
631.49	3106.77
631.68	2992.08
631.87	2901.97
632.06	2787.29
632.25	3387.34
632.44	2975.70
632.63	2922.45
632.82	2809.81
633.01	2828.24
633.20	2992.08
633.39	2856.92
633.58	2664.41
633.77	3033.04
633.96	3043.28
634.15	2985.94
634.34	3012.56
634.53	3098.58
634.72	2824.15
634.91	2686.94
635.10	2863.06
635.29	3104.72
635.48	3000.27
635.67	2725.85
635.86	2748.37
636.05	3229.65
636.24	3035.09
636.43	2897.88
636.62	2924.50
636.81	2568.15
637.00	3002.32
637.19	2916.31
637.38	2901.97
637.57	2914.26
637.76	2928.60
637.95	2994.13
638.14	2840.53
638.33	3045.33
638.52	2992.08
638.71	2764.76
638.89	2705.37
639.08	3479.50
639.27	3094.48
639.46	2969.55
639.65	3297.23
639.84	3356.62
640.03	3532.75
640.22	3190.74
640.41	3286.99
640.60	3092.43
640.79	3147.73
640.98	3039.19
641.17	3074.00
641.36	3123.15
641.55	3088.34
641.74	2838.48
641.92	2803.67
642.11	2910.16
642.30	2906.07
642.49	2791.38
642.68	2785.24
642.87	3106.77
643.06	3180.50
643.25	2768.85
643.44	2795.48
643.63	2953.17
643.82	3141.58
644.00	2748.37
644.19	2846.68
644.38	2785.24
644.57	3024.85
644.76	2961.36
644.95	2969.55
645.14	3014.61
645.33	2899.92
645.52	2920.40
645.71	2676.70
645.89	2822.10
646.08	3037.14
646.27	2766.81
646.46	3129.30
646.65	2777.05
646.84	3067.86
647.03	2834.39
647.22	3041.23
647.40	2932.69
647.59	2920.40
647.78	2605.02
647.97	2836.44
648.16	2885.59
648.35	3174.35
648.54	3170.26
648.73	2897.88
648.91	3098.58
649.10	2885.59
649.29	2770.90
649.48	2895.83
649.67	3053.52
649.86	2998.23
650.05	2838.48
650.23	3069.91
650.42	2836.44
650.61	3237.84
650.80	2981.84
650.99	3086.29
651.18	3186.64
651.36	3162.06
651.55	2783.19
651.74	3033.04
651.93	3004.37
652.12	2949.08
652.31	2844.63
652.49	2914.26
652.68	2928.60
652.87	3203.02
653.06	2979.79
653.25	3090.38
653.44	2996.18
653.62	3246.03
653.81	2916.31
654.00	2887.64
654.19	3137.49
654.38	3336.14
654.56	2930.64
654.75	2781.14
654.94	3149.78
655.13	2947.03
655.32	2897.88
655.51	2906.07
655.69	2834.39
655.88	3176.40
656.07	2713.56
656.26	2924.50
656.45	2777.05
656.63	3016.66
656.82	2858.96
657.01	3100.62
657.20	2828.24
657.38	3272.65
657.57	2797.53
657.76	2738.13
657.95	3084.24
658.14	2961.36
658.32	3012.56
658.51	2746.33
658.70	3129.30
658.89	3045.33
659.08	2865.11
659.26	3098.58
659.45	2842.58
659.64	3041.23
659.83	2803.67
660.01	3239.89
660.20	2979.79
660.39	3178.45
660.58	2625.50
660.76	3045.33
660.95	2705.37
661.14	2981.84
661.33	2674.65
661.51	2838.48
661.70	2973.65
661.89	3100.62
662.08	2854.87
662.26	2680.79
662.45	2768.85
662.64	3319.76
662.83	2869.20
663.01	2676.70
663.20	2897.88
663.39	3213.26
663.58	2848.72
663.76	2885.59
663.95	3002.32
664.14	2828.24
664.32	2869.20
664.51	2701.27
664.70	2770.90
664.89	2992.08
665.07	2740.18
665.26	3002.32
665.45	2815.96
665.64	3098.58
665.82	2869.20
666.01	2963.41
666.20	2691.03
666.38	3053.52
666.57	3131.34
666.76	4802.49
666.95	10946.39
667.13	17678.07
667.32	21786.29
667.51	24096.40
667.69	25104.00
667.88	21245.63
668.07	15275.80
668.25	12748.61
668.44	11038.55
668.63	9736.04
668.81	8568.70
669.00	7378.83
669.19	6793.11
669.38	5916.58
669.56	5060.53
669.75	4421.56
669.94	4028.35
670.12	3459.02
670.31	3227.60
670.50	3127.25
670.68	3139.54
670.87	3014.61
671.06	2820.05
671.24	2940.88
671.43	3188.69
671.62	2983.89
671.80	2731.99
671.99	3030.99
672.18	2990.03
672.36	3102.67
672.55	2938.84
672.74	2861.01
672.92	2949.08
673.11	3039.19
673.29	2754.52
673.48	3037.14
673.67	2928.60
673.85	3149.78
674.04	2824.15
674.23	2891.73
674.41	3327.95
674.60	2799.57
674.79	2643.93
674.97	2742.23
675.16	3117.01
675.34	3157.97
675.53	2815.96
675.72	2930.64
675.90	3336.14
676.09	2916.31
676.28	2932.69
676.46	2713.56
676.65	3160.02
676.83	2836.44
677.02	2938.84
677.21	2947.03
677.39	3033.04
677.58	2793.43
677.77	2772.95
677.95	2850.77
678.14	2996.18
678.32	2901.97
678.51	2875.35
678.70	3102.67
678.88	2922.45
679.07	2971.60
679.25	2863.06
679.44	2963.41
679.63	2805.72
679.81	3069.91
680.00	3145.68
680.18	2983.89
680.37	3233.74
680.55	2932.69
680.74	2725.85
680.93	2729.94
681.11	2947.03
681.30	3010.51
681.48	2863.06
681.67	2838.48
681.85	2998.23
682.04	2852.82
682.23	2981.84
682.41	2906.07
682.60	2926.55
682.78	2959.31
682.97	2775.00
683.15	2897.88
683.34	2951.12
683.53	3225.55
683.71	2697.17
683.90	3043.28
684.08	3278.80
684.27	3000.27
684.45	2934.74
684.64	3059.67
684.82	3035.09
685.01	3176.40
685.19	2793.43
685.38	3149.78
685.57	3057.62
685.75	2920.40
685.94	2762.71
686.12	2815.96
686.31	2912.21
686.49	3311.57
686.68	2686.94
686.86	2875.35
687.05	2990.03
687.23	3284.94
687.42	2846.68
687.60	2688.98
687.79	3188.69
687.97	3164.11
688.16	3016.66
688.34	3014.61
688.53	2715.61
688.71	2971.60
688.90	3045.33
689.08	2877.40
689.27	2729.94
689.45	3053.52
689.64	2920.40
689.82	2879.44
690.01	3106.77
690.19	3065.81
690.38	2858.96
690.56	2979.79
690.75	2838.48
690.93	2985.94
691.12	2789.33
691.30	2879.44
691.49	2944.98
691.67	3006.42
691.86	3147.73
692.04	2826.20
692.23	2858.96
692.41	2914.26
692.60	3153.87
692.78	3026.90
692.97	2979.79
693.15	3139.54
693.34	3112.91
693.52	3108.82
693.71	2979.79
693.89	2908.12
694.08	2760.66
694.26	2932.69
694.44	3112.91
694.63	3094.48
694.81	2744.28
695.00	2828.24
695.18	3094.48
695.37	3430.35
695.55	2836.44
695.74	2883.54
695.92	2856.92
696.10	3155.92
696.29	2738.13
696.47	2846.68
696.66	2787.29
696.84	2838.48
697.03	2787.29
697.21	3172.30
697.40	4421.56
697.58	3207.12
697.76	2914.26
697.95	2852.82
698.13	2799.57
698.32	2893.78
698.50	2873.30
698.68	2891.73
698.87	2998.23
699.05	3239.89
699.24	2846.68
699.42	2756.57
699.61	3020.75
699.79	2940.88
699.97	2906.07
700.16	2678.74
700.34	2828.24
700.53	2996.18
700.71	3033.04
700.89	2944.98
701.08	2940.88
701.26	3006.42
701.45	3256.27
701.63	2895.83
701.81	2914.26
702.00	2779.09
702.18	2992.08
702.37	2805.72
702.55	3149.78
702.73	3035.09
702.92	2787.29
703.10	3127.25
703.28	3141.58
703.47	2777.05
703.65	3076.05
703.84	2992.08
704.02	2844.63
704.20	3219.41
704.39	2764.76
704.57	2828.24
704.75	3057.62
704.94	3096.53
705.12	2926.55
705.30	3452.88
705.49	6547.36
705.67	12873.53
705.86	18108.14
706.04	20414.15
706.22	22980.26
706.41	21921.46
706.59	17291.00
706.77	13006.65
706.96	11421.52
707.14	10309.47
707.32	8953.72
707.51	7991.17
707.69	6420.38
707.87	5388.21
708.06	4511.68
708.24	4005.83
708.42	3612.62
708.61	3725.26
708.79	2926.55
708.97	2955.22
709.16	3121.10
709.34	3147.73
709.52	2844.63
709.71	2883.54
709.89	3129.30
710.07	2805.72
710.26	2719.70
710.44	2881.49
710.62	3123.15
710.80	2924.50
710.99	2947.03
711.17	3016.66
711.35	2877.40
711.54	2914.26
711.72	3098.58
711.90	2914.26
712.09	2955.22
712.27	2990.03
712.45	2977.75
712.63	2772.95
712.82	3037.14
713.00	2979.79
713.18	3078.10
713.37	3022.80
713.55	3149.78
713.73	3094.48
713.91	2944.98
714.10	2873.30
714.28	2920.40
714.46	3057.62
714.65	2922.45
714.83	2906.07
715.01	3018.71
715.19	2934.74
715.38	2779.09
715.56	2981.84
715.74	2869.20
715.92	2873.30
716.11	3112.91
716.29	2623.45
716.47	3010.51
716.65	2942.93
716.84	2674.65
717.02	2914.26
717.20	2777.05
717.38	2858.96
717.57	2940.88
717.75	2883.54
717.93	2883.54
718.11	3033.04
718.30	2754.52
718.48	2899.92
718.66	3123.15
718.84	3221.45
719.03	2883.54
719.21	2650.07
719.39	3264.46
719.57	3082.19
719.75	2979.79
719.94	2793.43
720.12	2938.84
720.30	2985.94
720.48	3002.32
720.67	2824.15
720.85	2756.57
721.03	2861.01
721.21	2768.85
721.39	3043.28
721.58	3002.32
721.76	2963.41
721.94	2934.74
722.12	2940.88
722.30	3301.33
722.49	2955.22
722.67	2830.29
722.85	2889.68
723.03	2721.75
723.21	2879.44
723.40	2994.13
723.58	3010.51
723.76	3012.56
723.94	3196.88
724.12	2922.45
724.30	3157.97
724.49	3117.01
724.67	2869.20
724.85	2930.64
725.03	2709.46
725.21	3098.58
725.40	3108.82
725.58	2836.44
725.76	3055.57
725.94	3100.62
726.12	2758.61
726.30	2998.23
726.49	2852.82
726.67	2832.34
726.85	3071.95
727.03	3413.96
727.21	4415.42
727.39	5509.04
727.57	5832.62
727.76	6217.63
727.94	6152.10
728.12	5463.98
728.30	4691.90
728.48	4343.74
728.66	4122.56
728.84	3946.44
729.03	3598.28
729.21	3354.57
729.39	3168.21
729.57	3039.19
729.75	3149.78
729.93	2967.51
730.11	2838.48
730.30	2926.55
730.48	2908.12
730.66	2963.41
730.84	2932.69
731.02	3065.81
731.20	2881.49
731.38	2949.08
731.56	2680.79
731.74	2731.99
731.93	3033.04
732.11	2906.07
732.29	2883.54
732.47	3078.10
732.65	3016.66
732.83	3051.47
733.01	2949.08
733.19	2942.93
733.37	3055.57
733.56	2904.02
733.74	2803.67
733.92	3217.36
734.10	2809.81
734.28	2998.23
734.46	2639.83
734.64	2901.97
734.82	2842.58
735.00	2815.96
735.18	2768.85
735.36	2897.88
735.54	2947.03
735.73	2904.02
735.91	2944.98
736.09	3225.55
736.27	2916.31
736.45	2883.54
736.63	2637.78
736.81	2932.69
736.99	3141.58
737.17	3076.05
737.35	2764.76
737.53	2957.27
737.71	2940.88
737.89	3049.43
738.07	2785.24
738.25	2783.19
738.43	2717.65
738.61	2785.24
738.80	2736.09
738.98	2789.33
739.16	2955.22
739.34	2795.48
739.52	3164.11
739.70	3004.37
739.88	3112.91
740.06	3020.75
740.24	2623.45
740.42	3170.26
740.60	2826.20
740.78	2867.16
740.96	2658.26
741.14	2979.79
741.32	3041.23
741.50	2723.80
741.68	3170.26
741.86	3264.46
742.04	2723.80
742.22	2766.81
742.40	2926.55
742.58	3108.82
742.76	2805.72
742.94	3055.57
743.12	2686.94
743.30	3020.75
743.48	3102.67
743.66	2811.86
743.84	2867.16
744.02	2961.36
744.20	2953.17
744.38	2738.13
744.56	2775.00
744.74	3149.78
744.92	3084.24
745.10	3090.38
745.28	2914.26
745.46	3270.61
745.64	2955.22
745.82	2940.88
746.00	2811.86
746.18	3055.57
746.36	2828.24
746.54	2924.50
746.72	2944.98
746.90	2852.82
747.08	3178.45
747.26	2930.64
747.44	3010.51
747.62	3133.39
747.80	3024.85
747.98	2918.36
748.15	2807.77
748.33	3307.47
748.51	2961.36
748.69	3049.43
748.87	2815.96
749.05	3006.42
749.23	2973.65
749.41	2813.91
749.59	2834.39
749.77	3192.78
749.95	2942.93
750.13	2893.78
750.31	2944.98
750.49	2936.79
750.67	3069.91
750.85	2977.75
751.03	2928.60
751.20	3323.85
751.38	2951.12
751.56	2904.02
751.74	2983.89
751.92	2889.68
752.10	2770.90
752.28	3119.06
752.46	2832.34
752.64	2953.17
752.82	3049.43
753.00	2990.03
753.18	2781.14
753.35	2947.03
753.53	2906.07
753.71	2752.47
753.89	2912.21
754.07	2947.03
754.25	3106.77
754.43	2922.45
754.61	2727.89
754.79	3061.71
754.97	2912.21
755.14	3112.91
755.32	2764.76
755.50	3033.04
755.68	3090.38
755.86	2775.00
756.04	2865.11
756.22	2656.22
756.40	3186.64
756.57	3018.71
756.75	2791.38
756.93	3178.45
757.11	3131.34
757.29	2772.95
757.47	2750.42
757.65	2719.70
757.82	2584.54
758.00	2756.57
758.18	2805.72
758.36	2836.44
758.54	3211.22
758.72	2705.37
758.90	2998.23
759.07	3028.95
759.25	2869.20
759.43	2910.16
759.61	2744.28
759.79	4304.83
759.97	3131.34
760.15	2932.69
760.32	2799.57
760.50	3067.86
760.68	3295.18
760.86	2750.42
761.04	3026.90
761.22	3153.87
761.39	2924.50
761.57	2973.65
761.75	2916.31
761.93	3135.44
762.11	2957.27
762.28	2936.79
762.46	2754.52
762.64	3110.86
762.82	2734.04
763.00	2840.53
763.18	3090.38
763.35	2779.09
763.53	3065.81
763.71	2951.12
763.89	2895.83
764.07	3002.32
764.24	3000.27
764.42	2977.75
764.60	2799.57
764.78	3057.62
764.96	3043.28
765.13	3053.52
765.31	2766.81
765.49	3139.54
765.67	2818.00
765.84	2891.73
766.02	2738.13
766.20	2705.37
766.38	3037.14
766.56	2967.51
766.73	2916.31
766.91	2934.74
767.09	3041.23
767.27	2922.45
767.44	2738.13
767.62	3037.14
767.80	3151.82
767.98	2830.29
768.15	2869.20
768.33	3180.50
768.51	3190.74
768.69	3096.53
768.87	2826.20
769.04	3045.33
769.22	3362.76
769.40	3043.28
769.58	3102.67
769.75	3041.23
769.93	3139.54
770.11	2885.59
770.28	2785.24
770.46	3096.53
770.64	3004.37
770.82	2861.01
770.99	2846.68
771.17	3049.43
771.35	2967.51
771.53	3000.27
771.70	2834.39
771.88	3090.38
772.06	2916.31
772.23	2854.87
772.41	2920.40
772.59	2987.99
772.77	2813.91
772.94	2879.44
773.12	2910.16
773.30	2932.69
773.47	3055.57
773.65	2734.04
773.83	3051.47
774.01	3088.34
774.18	2662.36
774.36	2867.16
774.54	2705.37
774.71	3104.72
774.89	2795.48
775.07	2652.12
775.24	2861.01
775.42	2922.45
775.60	3305.42
775.78	2830.29
775.95	2701.27
776.13	2709.46
776.31	2729.94
776.48	3071.95
776.66	3078.10
776.84	2934.74
777.01	2887.64
777.19	2746.33
777.37	2828.24
777.54	3053.52
777.72	3381.20
777.90	2985.94
778.07	2897.88
778.25	3567.56
778.43	3200.98
778.60	2803.67
778.78	2899.92
778.96	3225.55
779.13	2770.90
779.31	2965.46
779.49	2846.68
779.66	2967.51
779.84	2955.22
780.01	2856.92
780.19	2828.24
780.37	3278.80
780.54	3098.58
780.72	2793.43
780.90	2844.63
781.07	2865.11
781.25	2916.31
781.43	3000.27
781.60	2865.11
781.78	3149.78
781.95	2985.94
782.13	2830.29
782.31	2885.59
782.48	2691.03
782.66	3012.56
782.83	3028.95
783.01	2936.79
783.19	3024.85
783.36	2930.64
783.54	2738.13
783.72	3035.09
783.89	2869.20
784.07	3014.61
784.24	2910.16
784.42	2998.23
784.60	3059.67
784.77	2967.51
784.95	2615.26
785.12	2873.30
785.30	3065.81
785.47	2891.73
785.65	2770.90
785.83	2842.58
786.00	2867.16
786.18	3094.48
786.35	2682.84
786.53	2799.57
786.71	3211.22
786.88	3028.95
787.06	2889.68
787.23	2873.30
787.41	2830.29
787.58	2934.74
787.76	2713.56
787.94	2889.68
788.11	3014.61
788.29	2867.16
788.46	2836.44
788.64	2699.22
788.81	2910.16
788.99	2871.25
789.16	2760.66
789.34	2916.31
789.52	2881.49
789.69	2881.49
789.87	2664.41
790.04	2912.21
790.22	3012.56
790.39	3338.19
790.57	2752.47
790.74	2797.53
790.92	3039.19
791.09	2740.18
791.27	2924.50
791.44	2938.84
791.62	2932.69
791.79	3039.19
791.97	2856.92
792.15	3215.31
792.32	3094.48
792.50	3063.76
792.67	3037.14
792.85	3112.91
793.02	2949.08
793.20	2875.35
793.37	2664.41
793.55	2867.16
793.72	2834.39
793.90	3069.91
794.07	2793.43
794.25	2770.90
794.42	2981.84
794.60	2930.64
794.77	2967.51
794.95	2979.79
795.12	3039.19
795.30	2942.93
795.47	2674.65
795.65	3190.74
795.82	3059.67
796.00	2795.48
796.17	2867.16
796.34	2738.13
796.52	2979.79
796.69	3129.30
796.87	2951.12
797.04	2861.01
797.22	3076.05
797.39	3022.80
797.57	3024.85
797.74	2953.17
797.92	3057.62
798.09	2893.78
798.27	3174.35
798.44	2834.39
798.62	2750.42
798.79	2967.51
798.96	2987.99
799.14	2901.97
799.31	3405.77
799.49	2854.87
799.66	2867.16
799.84	2815.96
800.01	2721.75
800.19	3059.67
800.36	2639.83
800.53	2893.78
800.71	3047.38
800.88	3305.42
801.06	2856.92
801.23	2813.91
801.41	2908.12
801.58	2850.77
801.75	2887.64
801.93	2873.30
802.10	3051.47
802.28	2924.50
802.45	2920.40
802.63	2910.16
802.80	3153.87
802.97	2947.03
803.15	2869.20
803.32	2863.06
803.50	2865.11
803.67	2842.58
803.84	2734.04
804.02	2930.64
804.19	2928.60
804.37	2643.93
804.54	2684.89
804.71	2881.49
804.89	2969.55
805.06	2766.81
805.24	2813.91
805.41	2717.65
805.58	2818.00
805.76	3346.38
805.93	2854.87
806.10	3035.09
806.28	3080.14
806.45	2928.60
806.63	2973.65
806.80	2936.79
806.97	3000.27
807.15	3022.80
807.32	2852.82
807.49	2885.59
807.67	2736.09
807.84	3033.04
808.01	2701.27
808.19	3026.90
808.36	3375.05
808.54	2867.16
808.71	2795.48
808.88	2881.49
809.06	3188.69
809.23	3196.88
809.40	2828.24
809.58	2856.92
809.75	2981.84
809.92	2752.47
810.10	3149.78
810.27	2828.24
810.44	3012.56
810.62	3112.91
810.79	2891.73
810.96	2795.48
811.14	2916.31
811.31	2975.70
811.48	3071.95
811.66	2861.01
811.83	3096.53
812.00	3076.05
812.18	2934.74
812.35	3157.97
812.52	2932.69
812.69	2883.54
812.87	2803.67
813.04	2740.18
813.21	2904.02
813.39	2953.17
813.56	2811.86
813.73	3094.48
813.91	2691.03
814.08	2951.12
814.25	2861.01
814.42	2637.78
814.60	2893.78
814.77	2996.18
814.94	2826.20
815.12	2871.25
815.29	3225.55
815.46	2846.68
815.63	2901.97
815.81	2830.29
815.98	2867.16
816.15	2957.27
816.33	2863.06
816.50	2832.34
816.67	2901.97
816.84	2944.98
817.02	2803.67
817.19	2840.53
817.36	2912.21
817.53	3102.67
817.71	2693.08
817.88	2879.44
818.05	2936.79
818.22	2936.79
818.40	3071.95
818.57	2836.44
818.74	3016.66
818.91	2924.50
819.09	2990.03
819.26	2906.07
819.43	2820.05
819.60	2910.16
819.78	2963.41
819.95	2985.94
820.12	2811.86
820.29	3225.55
820.47	3061.71
820.64	2799.57
820.81	2760.66
820.98	2852.82
821.15	2768.85
821.33	2965.46
821.50	2719.70
821.67	3041.23
821.84	2830.29
822.02	2869.20
822.19	3028.95
822.36	2867.16
822.53	2799.57
822.70	2746.33
822.88	2897.88
823.05	3229.65
823.22	2965.46
823.39	2934.74
823.56	2914.26
823.74	3284.94
823.91	2799.57
824.08	2813.91
824.25	2748.37
824.42	3309.52
824.60	2635.74
824.77	2977.75
824.94	2979.79
825.11	3020.75
825.28	2725.85
825.45	2983.89
825.63	3014.61
825.80	2824.15
825.97	3008.47
826.14	2940.88
826.31	2691.03
826.48	3057.62
826.66	2801.62
826.83	2756.57
827.00	2904.02
827.17	2904.02
827.34	2906.07
827.51	2815.96
827.69	2965.46
827.86	2658.26
828.03	2904.02
828.20	2846.68
828.37	2869.20
828.54	3026.90
828.71	2789.33
828.89	2985.94
829.06	3002.32
829.23	3217.36
829.40	2813.91
829.57	2813.91
829.74	3110.86
829.91	2881.49
830.09	2754.52
830.26	3018.71
830.43	3256.27
830.60	2963.41
830.77	3004.37
830.94	3098.58
831.11	3078.10
831.28	2867.16
831.46	3000.27
831.63	2832.34
831.80	3125.20
831.97	2869.20
832.14	2904.02
832.31	2895.83
832.48	2965.46
832.65	3110.86
832.82	2996.18
832.99	2893.78
833.17	2768.85
833.34	3180.50
833.51	2846.68
833.68	2621.40
833.85	3043.28
834.02	2836.44
834.19	2768.85
834.36	2813.91
834.53	2940.88
834.70	3147.73
834.87	2875.35
835.04	2695.13
835.22	2848.72
835.39	2856.92
835.56	2688.98
835.73	2764.76
835.90	3063.76
836.07	2922.45
836.24	2897.88
836.41	2688.98
836.58	2908.12
836.75	3162.06
836.92	2801.62
837.09	2643.93
837.26	3104.72
837.43	2963.41
837.60	2738.13
837.77	2828.24
837.94	3151.82
838.12	3254.22
838.29	2660.31
838.46	2635.74
838.63	2756.57
838.80	3243.98
838.97	2785.24
839.14	2705.37
839.31	2951.12
839.48	3110.86
839.65	2701.27
839.82	2799.57
839.99	3033.04
840.16	2975.70
840.33	2713.56
840.50	2785.24
840.67	2850.77
840.84	2617.30
841.01	2742.23
841.18	2607.06
841.35	2869.20
841.52	3086.29
841.69	3014.61
841.86	2840.53
842.03	2914.26
842.20	3196.88
842.37	2744.28
842.54	2791.38
842.71	2983.89
842.88	2822.10
843.05	2731.99
843.22	2709.46
843.39	3080.14
843.56	2848.72
843.73	2713.56
843.90	2781.14
844.07	3012.56
844.24	3112.91
844.41	2805.72
844.58	2766.81
844.75	3004.37
844.92	3131.34
845.09	2709.46
845.26	2705.37
845.43	3049.43
845.60	2891.73
845.77	2809.81
845.94	2721.75
846.10	3166.16
846.27	2703.32
846.44	2672.60
846.61	2543.58
846.78	3059.67
846.95	3026.90
847.12	2676.70
847.29	2844.63
847.46	2770.90
847.63	3194.83
847.80	2738.13
847.97	2791.38
848.14	3358.67
848.31	2955.22
848.48	2680.79
848.65	2695.13
848.82	2820.05
848.98	3452.88
849.15	2789.33
849.32	2838.48
849.49	3108.82
849.66	2922.45
849.83	2666.46
850.00	2686.94
850.17	3106.77
850.34	2955.22
850.51	2699.22
850.68	2785.24
850.85	3325.90
851.01	3012.56
851.18	2697.17
851.35	2777.05
851.52	3071.95
851.69	3243.98
851.86	2674.65
852.03	2688.98
852.20	3104.72
852.37	2983.89
852.53	2596.82
852.70	2729.94
852.87	2983.89
853.04	3082.19
853.21	2672.60
853.38	2934.74
853.55	3133.39
853.72	3104.72
853.89	2674.65
854.05	2686.94
854.22	2981.84
854.39	2830.29
854.56	2701.27
854.73	2856.92
854.90	2789.33
855.07	2885.59
855.23	2617.30
855.40	2723.80
855.57	2932.69
855.74	2578.39
855.91	3012.56
856.08	2596.82
856.25	2717.65
856.41	2818.00
856.58	2787.29
856.75	2744.28
856.92	2783.19
857.09	3117.01
857.26	2602.97
857.42	2762.71
857.59	3114.96
857.76	2899.92
857.93	2744.28
858.10	2826.20
858.27	2840.53
858.43	2996.18
858.60	2717.65
858.77	2609.11
858.94	2879.44
859.11	3123.15
859.27	2729.94
859.44	2652.12
859.61	3375.05
859.78	3098.58
859.95	2670.55
860.12	2680.79
860.28	3352.52
860.45	3284.94
860.62	2658.26
860.79	2787.29
860.95	2914.26
861.12	2818.00
861.29	2639.83
861.46	2641.88
861.63	3024.85
861.79	2983.89
861.96	2609.11
862.13	2725.85
862.30	3323.85
862.47	2815.96
862.63	2592.73
862.80	2836.44
862.97	3145.68
863.14	3014.61
863.30	2795.48
863.47	2670.55
863.64	3303.37
863.81	2885.59
863.97	2574.30
864.14	2799.57
864.31	2871.25
864.48	2981.84
864.65	2715.61
864.81	2865.11
864.98	3049.43
865.15	3145.68
865.32	2781.14
865.48	2916.31
865.65	3233.74
865.82	2832.34
865.98	2828.24
866.15	2768.85
866.32	2922.45
866.49	2834.39
866.65	2955.22
866.82	2705.37
866.99	3039.19
867.16	2924.50
867.32	2688.98
867.49	2721.75
867.66	2895.83
867.83	2869.20
867.99	2662.36
868.16	2688.98
868.33	2781.14
868.49	2961.36
868.66	2697.17
868.83	2906.07
868.99	3037.14
869.16	2916.31
869.33	2799.57
869.50	2772.95
869.66	3035.09
869.83	2934.74
870.00	2672.60
870.16	2899.92
870.33	2961.36
870.50	3100.62
870.66	2858.96
870.83	2738.13
871.00	2926.55
871.17	3059.67
871.33	2731.99
871.50	2672.60
871.67	2863.06
871.83	2727.89
872.00	2768.85
872.17	2715.61
872.33	3317.71
872.50	3162.06
872.67	2740.18
872.83	2688.98
873.00	3049.43
873.17	2985.94
873.33	2777.05
873.50	2795.48
873.67	2861.01
873.83	2852.82
874.00	2725.85
874.16	2895.83
874.33	2994.13
874.50	2797.53
874.66	2729.94
874.83	2840.53
875.00	3186.64
875.16	3127.25
875.33	2899.92
875.50	2570.20
875.66	2867.16
875.83	2955.22
875.99	2811.86
876.16	2863.06
876.33	2830.29
876.49	2904.02
876.66	2715.61
876.83	2783.19
876.99	2775.00
877.16	2887.64
877.32	2688.98
877.49	2809.81
877.66	3030.99
877.82	3268.56
877.99	2807.77
878.15	2901.97
878.32	3004.37
878.49	3074.00
878.65	2750.42
878.82	2981.84
878.98	2891.73
879.15	3117.01
879.32	2861.01
879.48	2981.84
879.65	2949.08
879.81	2938.84
879.98	2809.81
880.15	2811.86
880.31	3078.10
880.48	2838.48
880.64	2906.07
880.81	2873.30
880.97	3231.69
881.14	3149.78
881.31	2643.93
881.47	2895.83
881.64	2963.41
881.80	2731.99
881.97	2873.30
882.13	2770.90
882.30	2797.53
882.47	2897.88
882.63	2596.82
882.80	2688.98
882.96	2891.73
883.13	3184.59
883.29	2768.85
883.46	2762.71
883.62	3325.90
883.79	2996.18
883.95	2895.83
884.12	2670.55
884.29	3194.83
884.45	3014.61
884.62	2756.57
884.78	2725.85
884.95	3243.98
885.11	2797.53
885.28	2811.86
885.44	2705.37
885.61	3022.80
885.77	3225.55
885.94	2910.16
886.10	2799.57
886.27	2981.84
886.43	3239.89
886.60	2926.55
886.76	2688.98
886.93	2772.95
887.09	3020.75
887.26	2549.72
887.42	2842.58
887.59	3188.69
887.75	3252.17
887.92	2901.97
888.08	2861.01
888.25	3291.09
888.41	3037.14
888.58	2828.24
888.74	2727.89
888.91	2861.01
>>>>>End Processed Spectral Data<<<<<
