SpectraSuite Data File
++++++++++++++++++++++++++++++++++++
Date: Thu May 05 21:10:49 CEST 2016
User: root
Dark Spectrum Present: No
Reference Spectrum Present: No
Number of Sampled Component Spectra: 1
Spectrometers: USB4C02835
Integration Time (usec): 100000 (USB4C02835)
Spectra Averaged: 1 (USB4C02835)
Boxcar Smoothing: 0 (USB4C02835)
Correct for Electrical Dark: No (USB4C02835)
Strobe/Lamp Enabled: No (USB4C02835)
Correct for Detector Non-linearity: No (USB4C02835)
Correct for Stray Light: No (USB4C02835)
Number of Pixels in Processed Spectrum: 3648
>>>>>Begin Processed Spectral Data<<<<<
177.47	2148.32
177.69	2148.32
177.91	2148.32
178.13	2095.07
178.36	2187.23
178.58	2795.48
178.80	2920.40
179.02	2725.85
179.24	2832.34
179.46	2676.70
179.68	2686.94
179.90	2979.79
180.13	2936.79
180.35	2590.68
180.57	2596.82
180.79	3106.77
181.01	2959.31
181.23	2680.79
181.45	2818.00
181.67	2979.79
181.90	3213.26
182.12	2725.85
182.34	2609.11
182.56	3084.24
182.78	2944.98
183.00	2654.17
183.22	2770.90
183.44	2727.89
183.66	3534.79
183.89	2846.68
184.11	2639.83
184.33	3096.53
184.55	3141.58
184.77	2691.03
184.99	2676.70
185.21	2883.54
185.43	3469.26
185.65	2703.32
185.87	2639.83
186.10	3422.16
186.32	3368.91
186.54	2748.37
186.76	2772.95
186.98	3176.40
187.20	2938.84
187.42	2729.94
187.64	2688.98
187.86	2990.03
188.08	3153.87
188.30	2596.82
188.52	2746.33
188.75	3149.78
188.97	3262.41
189.19	2656.22
189.41	2639.83
189.63	3225.55
189.85	2858.96
190.07	2547.67
190.29	2514.91
190.51	3088.34
190.73	2731.99
190.95	2777.05
191.17	2770.90
191.39	2705.37
191.61	2951.12
191.84	2715.61
192.06	2760.66
192.28	2639.83
192.50	3481.55
192.72	2813.91
192.94	2738.13
193.16	3172.30
193.38	3065.81
193.60	2609.11
193.82	2772.95
194.04	3168.21
194.26	3028.95
194.48	2697.17
194.70	2734.04
194.92	2895.83
195.14	3100.62
195.36	2652.12
195.58	2744.28
195.80	2967.51
196.02	2840.53
196.24	2656.22
196.46	2764.76
196.69	2934.74
196.91	3399.63
197.13	2779.09
197.35	2748.37
197.57	3182.54
197.79	3041.23
198.01	2781.14
198.23	2791.38
198.45	3084.24
198.67	2803.67
198.89	2535.39
199.11	2766.81
199.33	2811.86
199.55	2582.49
199.77	2703.32
199.99	2901.97
200.21	2879.44
200.43	2992.08
200.65	2545.63
200.87	2576.34
201.09	2998.23
201.31	2883.54
201.53	2719.70
201.75	2734.04
201.97	2979.79
202.19	2928.60
202.41	2766.81
202.63	2797.53
202.85	3135.44
203.07	3043.28
203.29	2717.65
203.51	2594.78
203.73	2844.63
203.95	3520.46
204.17	2666.46
204.39	2746.33
204.61	2955.22
204.83	2942.93
205.05	2830.29
205.27	2762.71
205.49	3411.92
205.71	3016.66
205.93	2586.58
206.15	2596.82
206.37	3063.76
206.59	2990.03
206.81	2535.39
207.03	2537.43
207.25	2820.05
207.47	3080.14
207.69	2662.36
207.91	2930.64
208.13	3303.37
208.34	2953.17
208.56	2623.45
208.78	2731.99
209.00	2944.98
209.22	2901.97
209.44	2719.70
209.66	2600.92
209.88	2981.84
210.10	2893.78
210.32	2740.18
210.54	2756.57
210.76	2906.07
210.98	3174.35
211.20	2555.86
211.42	2832.34
211.64	3233.74
211.86	3076.05
212.08	2809.81
212.30	2705.37
212.52	2916.31
212.74	2996.18
212.96	2754.52
213.17	2688.98
213.39	3147.73
213.61	3270.61
213.83	2658.26
214.05	2492.38
214.27	3198.93
214.49	2850.77
214.71	2670.55
214.93	2768.85
215.15	2990.03
215.37	3176.40
215.59	2557.91
215.81	2762.71
216.03	3172.30
216.24	2961.36
216.46	2709.46
216.68	2703.32
216.90	3205.07
217.12	3194.83
217.34	2680.79
217.56	2838.48
217.78	3243.98
218.00	3074.00
218.22	2736.09
218.44	2807.77
218.66	3108.82
218.87	3383.24
219.09	2670.55
219.31	2637.78
219.53	3006.42
219.75	2848.72
219.97	2699.22
220.19	2768.85
220.41	2977.75
220.63	3235.79
220.85	2703.32
221.06	2684.89
221.28	3209.17
221.50	3143.63
221.72	2645.98
221.94	2539.48
222.16	3033.04
222.38	3059.67
222.60	2588.63
222.82	2713.56
223.03	3182.54
223.25	2828.24
223.47	2596.82
223.69	2871.25
223.91	3057.62
224.13	3033.04
224.35	2582.49
224.57	2863.06
224.78	3084.24
225.00	2785.24
225.22	2750.42
225.44	2553.82
225.66	3139.54
225.88	2852.82
226.10	2738.13
226.32	2695.13
226.53	3219.41
226.75	2967.51
226.97	2766.81
227.19	2631.64
227.41	2852.82
227.63	2832.34
227.85	2459.61
228.06	2746.33
228.28	3045.33
228.50	3117.01
228.72	2580.44
228.94	2656.22
229.16	2641.88
229.37	2840.53
229.59	2609.11
229.81	2844.63
230.03	2926.55
230.25	2731.99
230.47	2617.30
230.69	2639.83
230.90	3155.92
231.12	2811.86
231.34	2836.44
231.56	2795.48
231.78	2795.48
232.00	3043.28
232.21	2672.60
232.43	2721.75
232.65	2596.82
232.87	3076.05
233.09	2543.58
233.30	2645.98
233.52	3184.59
233.74	3041.23
233.96	2682.84
234.18	2807.77
234.40	2944.98
234.61	3389.39
234.83	2648.02
235.05	2680.79
235.27	3434.44
235.49	3184.59
235.70	2635.74
235.92	2738.13
236.14	3151.82
236.36	3395.53
236.58	2533.34
236.79	2805.72
237.01	3014.61
237.23	3033.04
237.45	2873.30
237.67	2680.79
237.88	2965.46
238.10	3321.81
238.32	2596.82
238.54	2652.12
238.76	2934.74
238.97	2922.45
239.19	2627.54
239.41	2688.98
239.63	3139.54
239.85	2922.45
240.06	2721.75
240.28	2670.55
240.50	3211.22
240.72	2975.70
240.93	2615.26
241.15	2801.62
241.37	2922.45
241.59	3237.84
241.81	2611.16
242.02	2754.52
242.24	3051.47
242.46	3100.62
242.68	2559.96
242.89	2643.93
243.11	3160.02
243.33	2998.23
243.55	2676.70
243.76	2715.61
243.98	2885.59
244.20	2971.60
244.42	2672.60
244.64	2672.60
244.85	2789.33
245.07	2863.06
245.29	2703.32
245.51	2650.07
245.72	3084.24
245.94	3168.21
246.16	2713.56
246.38	2750.42
246.59	2955.22
246.81	2899.92
247.03	2557.91
247.24	2465.75
247.46	2897.88
247.68	3020.75
247.90	2701.27
248.11	2719.70
248.33	3157.97
248.55	3055.57
248.77	2779.09
248.98	2797.53
249.20	3299.28
249.42	3024.85
249.64	2734.04
249.85	2682.84
250.07	2877.40
250.29	3086.29
250.50	2775.00
250.72	2598.87
250.94	3018.71
251.16	3297.23
251.37	2680.79
251.59	2775.00
251.81	3078.10
252.02	3237.84
252.24	2543.58
252.46	2779.09
252.68	2885.59
252.89	2891.73
253.11	2471.90
253.33	2813.91
253.54	3215.31
253.76	2793.43
253.98	2676.70
254.20	2600.92
254.41	2779.09
254.63	2981.84
254.85	2527.19
255.06	2830.29
255.28	3047.38
255.50	2947.03
255.71	2656.22
255.93	2533.34
256.15	2910.16
256.36	3123.15
256.58	2621.40
256.80	2645.98
257.02	2994.13
257.23	2850.77
257.45	2772.95
257.67	2815.96
257.88	2899.92
258.10	3033.04
258.32	2670.55
258.53	2799.57
258.75	3227.60
258.97	2922.45
259.18	2648.02
259.40	2660.31
259.62	3221.45
259.83	3213.26
260.05	2764.76
260.27	3571.66
260.48	3119.06
260.70	2727.89
260.92	2592.73
261.13	2709.46
261.35	3026.90
261.57	3071.95
261.78	2602.97
262.00	2643.93
262.22	3133.39
262.43	2879.44
262.65	2756.57
262.86	2717.65
263.08	3432.40
263.30	3026.90
263.51	2533.34
263.73	2674.65
263.95	3162.06
264.16	2811.86
264.38	2674.65
264.60	2619.35
264.81	2953.17
265.03	3141.58
265.25	3110.86
265.46	2658.26
265.68	3246.03
265.89	3119.06
266.11	2584.54
266.33	2654.17
266.54	3182.54
266.76	3131.34
266.98	2762.71
267.19	2818.00
267.41	3235.79
267.62	2912.21
267.84	2490.33
268.06	2781.14
268.27	3080.14
268.49	3188.69
268.70	2750.42
268.92	2648.02
269.14	2777.05
269.35	2764.76
269.57	2830.29
269.79	2775.00
270.00	2928.60
270.22	3323.85
270.43	2590.68
270.65	2535.39
270.87	3106.77
271.08	3137.49
271.30	2764.76
271.51	2639.83
271.73	3192.78
271.95	3274.70
272.16	2600.92
272.38	2783.19
272.59	2914.26
272.81	3084.24
273.02	2643.93
273.24	2738.13
273.46	3231.69
273.67	2824.15
273.89	2586.58
274.10	2658.26
274.32	3221.45
274.54	3000.27
274.75	2846.68
274.97	2844.63
275.18	3143.63
275.40	3139.54
275.61	2770.90
275.83	2893.78
276.05	2815.96
276.26	2889.68
276.48	2695.13
276.69	2867.16
276.91	2846.68
277.12	3131.34
277.34	2865.11
277.55	2858.96
277.77	3006.42
277.99	2895.83
278.20	2725.85
278.42	2686.94
278.63	2871.25
278.85	2818.00
279.06	2762.71
279.28	2865.11
279.49	3110.86
279.71	3074.00
279.93	2822.10
280.14	2762.71
280.36	2895.83
280.57	3096.53
280.79	2875.35
281.00	2691.03
281.22	2924.50
281.43	3162.06
281.65	2627.54
281.86	2758.61
282.08	3049.43
282.29	3332.05
282.51	2705.37
282.73	2705.37
282.94	2693.08
283.16	3084.24
283.37	2895.83
283.59	2834.39
283.80	3114.96
284.02	3020.75
284.23	2832.34
284.45	2850.77
284.66	2770.90
284.88	2885.59
285.09	2826.20
285.31	2895.83
285.52	2955.22
285.74	2709.46
285.95	2926.55
286.17	2799.57
286.38	3196.88
286.60	2918.36
286.81	2775.00
287.03	2775.00
287.24	2949.08
287.46	3119.06
287.67	2936.79
287.89	3020.75
288.10	2949.08
288.32	2942.93
288.53	2910.16
288.75	2893.78
288.96	3004.37
289.18	2887.64
289.39	2637.78
289.61	2824.15
289.82	3375.05
290.04	3227.60
290.25	2688.98
290.47	2865.11
290.68	2985.94
290.90	3252.17
291.11	2584.54
291.33	2887.64
291.54	2879.44
291.76	2867.16
291.97	2910.16
292.18	2889.68
292.40	2871.25
292.61	2830.29
292.83	3074.00
293.04	2750.42
293.26	3074.00
293.47	2969.55
293.69	2770.90
293.90	2719.70
294.12	3217.36
294.33	2965.46
294.55	2777.05
294.76	2920.40
294.97	3254.22
295.19	3334.09
295.40	2818.00
295.62	2854.87
295.83	3196.88
296.05	2875.35
296.26	2926.55
296.48	2779.09
296.69	2895.83
296.90	2965.46
297.12	2981.84
297.33	2955.22
297.55	2873.30
297.76	3076.05
297.98	2873.30
298.19	2875.35
298.41	3045.33
298.62	2709.46
298.83	3006.42
299.05	2912.21
299.26	2912.21
299.48	2807.77
299.69	2901.97
299.90	2834.39
300.12	2836.44
300.33	3074.00
300.55	2854.87
300.76	2889.68
300.98	2850.77
301.19	3057.62
301.40	2791.38
301.62	2760.66
301.83	3051.47
302.05	3008.47
302.26	2744.28
302.47	2901.97
302.69	2834.39
302.90	3018.71
303.12	2639.83
303.33	2944.98
303.54	3319.76
303.76	2951.12
303.97	2742.23
304.19	2975.70
304.40	2840.53
304.61	3012.56
304.83	2953.17
305.04	2959.31
305.26	3080.14
305.47	2818.00
305.68	2779.09
305.90	2648.02
306.11	3203.02
306.33	2996.18
306.54	2697.17
306.75	2746.33
306.97	2682.84
307.18	2818.00
307.39	2791.38
307.61	2889.68
307.82	2908.12
308.04	3030.99
308.25	2738.13
308.46	2928.60
308.68	3000.27
308.89	2881.49
309.10	2938.84
309.32	2824.15
309.53	3006.42
309.74	3145.68
309.96	2725.85
310.17	2889.68
310.39	2918.36
310.60	3100.62
310.81	2777.05
311.03	2717.65
311.24	3141.58
311.45	3043.28
311.67	3037.14
311.88	2887.64
312.09	2979.79
312.31	2869.20
312.52	2875.35
312.73	2762.71
312.95	2721.75
313.16	2834.39
313.37	2922.45
313.59	2926.55
313.80	3149.78
314.01	3248.08
314.23	2818.00
314.44	2742.23
314.65	2695.13
314.87	2840.53
315.08	2764.76
315.29	2813.91
315.51	2785.24
315.72	2820.05
315.93	2947.03
316.15	2779.09
316.36	2871.25
316.57	3018.71
316.79	2760.66
317.00	2674.65
317.21	3037.14
317.43	2799.57
317.64	2918.36
317.85	2684.89
318.07	2981.84
318.28	2901.97
318.49	2893.78
318.70	2977.75
318.92	3147.73
319.13	3043.28
319.34	2985.94
319.56	2807.77
319.77	3045.33
319.98	3067.86
320.20	3006.42
320.41	2922.45
320.62	3037.14
320.83	2805.72
321.05	3057.62
321.26	2832.34
321.47	2969.55
321.69	3164.11
321.90	2715.61
322.11	2777.05
322.32	3108.82
322.54	3235.79
322.75	2832.34
322.96	3545.03
323.18	2709.46
323.39	2648.02
323.60	2656.22
323.81	2897.88
324.03	2879.44
324.24	2936.79
324.45	2901.97
324.66	2701.27
324.88	3241.93
325.09	3125.20
325.30	2840.53
325.52	2729.94
325.73	2975.70
325.94	2748.37
326.15	2643.93
326.37	2637.78
326.58	3170.26
326.79	3293.13
327.00	2695.13
327.22	2836.44
327.43	2871.25
327.64	2795.48
327.85	2850.77
328.07	2869.20
328.28	3323.85
328.49	2881.49
328.70	2856.92
328.92	2764.76
329.13	2979.79
329.34	3041.23
329.55	2998.23
329.76	2940.88
329.98	2887.64
330.19	3262.41
330.40	2822.10
330.61	2842.58
330.83	3149.78
331.04	2779.09
331.25	2863.06
331.46	2873.30
331.68	2768.85
331.89	3260.37
332.10	2928.60
332.31	2711.51
332.52	2979.79
332.74	3141.58
332.95	2686.94
333.16	2803.67
333.37	3098.58
333.58	2889.68
333.80	2820.05
334.01	2541.53
334.22	2998.23
334.43	2867.16
334.64	2721.75
334.86	2693.08
335.07	2772.95
335.28	3301.33
335.49	2764.76
335.70	2861.01
335.92	3282.89
336.13	3448.78
336.34	2879.44
336.55	2818.00
336.76	3026.90
336.98	2699.22
337.19	2805.72
337.40	2920.40
337.61	3395.53
337.82	2842.58
338.04	2881.49
338.25	2637.78
338.46	2951.12
338.67	2985.94
338.88	2736.09
339.09	2713.56
339.31	2869.20
339.52	2852.82
339.73	2705.37
339.94	2863.06
340.15	2996.18
340.36	2861.01
340.58	2914.26
340.79	2703.32
341.00	3086.29
341.21	2777.05
341.42	3084.24
341.63	2758.61
341.85	3129.30
342.06	3059.67
342.27	2754.52
342.48	2955.22
342.69	2789.33
342.90	3063.76
343.12	3135.44
343.33	2717.65
343.54	3119.06
343.75	3278.80
343.96	2883.54
344.17	2748.37
344.38	3004.37
344.60	2813.91
344.81	2750.42
345.02	2809.81
345.23	3078.10
345.44	3403.72
345.65	2877.40
345.86	2928.60
346.07	3135.44
346.29	2906.07
346.50	2881.49
346.71	2877.40
346.92	3157.97
347.13	3360.72
347.34	2811.86
347.55	2748.37
347.76	3037.14
347.98	2668.50
348.19	2789.33
348.40	2883.54
348.61	2877.40
348.82	3209.17
349.03	2879.44
349.24	2736.09
349.45	3325.90
349.66	2625.50
349.88	2736.09
350.09	2740.18
350.30	3254.22
350.51	3141.58
350.72	2926.55
350.93	2787.29
351.14	2897.88
351.35	3112.91
351.56	2846.68
351.77	2785.24
351.99	3014.61
352.20	3307.47
352.41	3002.32
352.62	2656.22
352.83	2947.03
353.04	2981.84
353.25	2811.86
353.46	2844.63
353.67	3215.31
353.88	2617.30
354.09	2797.53
354.30	2824.15
354.52	3098.58
354.73	2963.41
354.94	2768.85
355.15	2793.43
355.36	3368.91
355.57	2912.21
355.78	2709.46
355.99	2791.38
356.20	2985.94
356.41	3246.03
356.62	2828.24
356.83	2832.34
357.04	3237.84
357.25	2664.41
357.46	2799.57
357.68	2691.03
357.89	2754.52
358.10	2965.46
358.31	2805.72
358.52	2797.53
358.73	2852.82
358.94	2746.33
359.15	2797.53
359.36	2818.00
359.57	2949.08
359.78	2951.12
359.99	2992.08
360.20	2777.05
360.41	3008.47
360.62	3106.77
360.83	2824.15
361.04	2809.81
361.25	2998.23
361.46	3272.65
361.67	2883.54
361.88	2844.63
362.09	3200.98
362.30	3026.90
362.51	2701.27
362.72	2858.96
362.93	3112.91
363.14	3022.80
363.35	2844.63
363.56	2717.65
363.78	3133.39
363.99	3106.77
364.20	2746.33
364.41	2924.50
364.62	3325.90
364.83	3020.75
365.04	2818.00
365.25	2779.09
365.46	3280.85
365.67	2918.36
365.88	2936.79
366.09	2775.00
366.30	2914.26
366.51	2973.65
366.72	2725.85
366.93	2797.53
367.14	3039.19
367.35	3209.17
367.56	2770.90
367.77	2973.65
367.98	2973.65
368.18	3180.50
368.39	2967.51
368.60	2721.75
368.81	3104.72
369.02	3047.38
369.23	2793.43
369.44	2629.59
369.65	2854.87
369.86	2951.12
370.07	2934.74
370.28	2760.66
370.49	3112.91
370.70	3106.77
370.91	2783.19
371.12	2635.74
371.33	3200.98
371.54	2840.53
371.75	2912.21
371.96	2519.00
372.17	3004.37
372.38	2955.22
372.59	2830.29
372.80	2779.09
373.01	2985.94
373.22	2975.70
373.43	2818.00
373.64	2672.60
373.85	3178.45
374.06	3254.22
374.26	3010.51
374.47	2961.36
374.68	3293.13
374.89	2959.31
375.10	2785.24
375.31	2934.74
375.52	2944.98
375.73	2969.55
375.94	2695.13
376.15	2928.60
376.36	2797.53
376.57	2858.96
376.78	2856.92
376.99	2871.25
377.20	3184.59
377.40	2914.26
377.61	3078.10
377.82	2789.33
378.03	3203.02
378.24	3080.14
378.45	2926.55
378.66	2856.92
378.87	2613.21
379.08	2748.37
379.29	2787.29
379.50	2951.12
379.71	2953.17
379.91	3182.54
380.12	2848.72
380.33	2846.68
380.54	2979.79
380.75	2936.79
380.96	2836.44
381.17	2881.49
381.38	2961.36
381.59	3024.85
381.80	2768.85
382.00	3002.32
382.21	3035.09
382.42	3264.46
382.63	3149.78
382.84	2901.97
383.05	3196.88
383.26	3272.65
383.47	2938.84
383.68	2727.89
383.88	3065.81
384.09	3096.53
384.30	3055.57
384.51	2869.20
384.72	2936.79
384.93	2740.18
385.14	2910.16
385.35	3080.14
385.55	2822.10
385.76	3180.50
385.97	2770.90
386.18	2680.79
386.39	2852.82
386.60	2969.55
386.81	2746.33
387.02	2746.33
387.22	2793.43
387.43	3209.17
387.64	2936.79
387.85	3045.33
388.06	3067.86
388.27	4067.27
388.48	7276.43
388.68	10635.10
388.89	13389.62
389.10	14595.87
389.31	14104.36
389.52	11298.64
389.73	9604.97
389.93	8865.66
390.14	8079.24
390.35	7307.15
390.56	6713.24
390.77	5584.81
390.98	4272.06
391.18	3594.19
391.39	3416.01
391.60	2987.99
391.81	2977.75
392.02	2863.06
392.23	3448.78
392.43	3045.33
392.64	3045.33
392.85	2861.01
393.06	3305.42
393.27	3018.71
393.47	2738.13
393.68	2908.12
393.89	2889.68
394.10	3114.96
394.31	2785.24
394.52	2740.18
394.72	2838.48
394.93	3254.22
395.14	2705.37
395.35	2873.30
395.56	2901.97
395.76	3002.32
395.97	2832.34
396.18	2963.41
396.39	2957.27
396.60	3598.28
396.80	3135.44
397.01	3000.27
397.22	3172.30
397.43	3098.58
397.64	2811.86
397.84	2854.87
398.05	3278.80
398.26	3018.71
398.47	3035.09
398.67	2967.51
398.88	2936.79
399.09	3061.71
399.30	2729.94
399.51	2922.45
399.71	2875.35
399.92	3018.71
400.13	2947.03
400.34	2787.29
400.54	2973.65
400.75	3219.41
400.96	2928.60
401.17	3131.34
401.37	3112.91
401.58	2932.69
401.79	2789.33
402.00	2891.73
402.21	3411.92
402.41	3155.92
402.62	3059.67
402.83	3192.78
403.04	3373.00
403.24	3715.02
403.45	2998.23
403.66	3119.06
403.87	3223.50
404.07	3297.23
404.28	3041.23
404.49	3145.68
404.70	3092.43
404.90	3076.05
405.11	2818.00
405.32	2912.21
405.52	2848.72
405.73	2930.64
405.94	2643.93
406.15	2926.55
406.35	3092.43
406.56	3096.53
406.77	2873.30
406.98	2838.48
407.18	2848.72
407.39	3311.57
407.60	2893.78
407.80	2856.92
408.01	2914.26
408.22	3045.33
408.43	2686.94
408.63	2951.12
408.84	3086.29
409.05	3147.73
409.25	2807.77
409.46	2805.72
409.67	2928.60
409.88	3071.95
410.08	2869.20
410.29	2836.44
410.50	3078.10
410.70	3033.04
410.91	2783.19
411.12	2877.40
411.32	3014.61
411.53	2826.20
411.74	2844.63
411.95	2852.82
412.15	3006.42
412.36	3129.30
412.57	2977.75
412.77	2942.93
412.98	2916.31
413.19	2869.20
413.39	2936.79
413.60	2854.87
413.81	3229.65
414.01	2758.61
414.22	2875.35
414.43	3022.80
414.63	2934.74
414.84	3151.82
415.05	2883.54
415.25	2766.81
415.46	3106.77
415.67	2906.07
415.87	2883.54
416.08	2809.81
416.29	2889.68
416.49	3094.48
416.70	2869.20
416.91	2873.30
417.11	2873.30
417.32	3205.07
417.53	2942.93
417.73	2889.68
417.94	3012.56
418.15	3086.29
418.35	2965.46
418.56	2815.96
418.77	3352.52
418.97	3065.81
419.18	2891.73
419.38	2549.72
419.59	2977.75
419.80	3219.41
420.00	2766.81
420.21	2918.36
420.42	3162.06
420.62	3053.52
420.83	2770.90
421.04	2805.72
421.24	2998.23
421.45	3114.96
421.65	2910.16
421.86	2805.72
422.07	3160.02
422.27	2979.79
422.48	2881.49
422.69	2666.46
422.89	3018.71
423.10	2996.18
423.30	2754.52
423.51	2861.01
423.72	3063.76
423.92	3094.48
424.13	2752.47
424.33	2838.48
424.54	3112.91
424.75	3020.75
424.95	2987.99
425.16	2797.53
425.36	3012.56
425.57	3100.62
425.78	2893.78
425.98	2934.74
426.19	2977.75
426.39	2875.35
426.60	2994.13
426.81	3024.85
427.01	2981.84
427.22	2762.71
427.42	2705.37
427.63	2684.89
427.83	3102.67
428.04	3315.66
428.25	2879.44
428.45	3000.27
428.66	3190.74
428.86	2996.18
429.07	2879.44
429.28	2809.81
429.48	2916.31
429.69	2850.77
429.89	2852.82
430.10	2701.27
430.30	3045.33
430.51	3145.68
430.71	2748.37
430.92	2858.96
431.13	2832.34
431.33	3024.85
431.54	2969.55
431.74	3000.27
431.95	3413.96
432.15	2848.72
432.36	2918.36
432.56	2895.83
432.77	3342.28
432.98	3270.61
433.18	2873.30
433.39	2785.24
433.59	2990.03
433.80	3274.70
434.00	3057.62
434.21	2854.87
434.41	2820.05
434.62	3477.45
434.82	2766.81
435.03	2764.76
435.23	3020.75
435.44	2746.33
435.64	2772.95
435.85	2875.35
436.06	3112.91
436.26	3178.45
436.47	2863.06
436.67	2856.92
436.88	2920.40
437.08	3133.39
437.29	3039.19
437.49	3000.27
437.70	3256.27
437.90	2985.94
438.11	3100.62
438.31	2918.36
438.52	3153.87
438.72	3104.72
438.93	3205.07
439.13	2918.36
439.34	3231.69
439.54	2932.69
439.75	2975.70
439.95	2930.64
440.16	2869.20
440.36	2985.94
440.57	2828.24
440.77	2885.59
440.98	2891.73
441.18	3143.63
441.39	2678.74
441.59	2727.89
441.80	3446.73
442.00	2940.88
442.21	2967.51
442.41	2641.88
442.62	3098.58
442.82	2824.15
443.02	2904.02
443.23	2828.24
443.43	2922.45
443.64	3227.60
443.84	2789.33
444.05	2953.17
444.25	3051.47
444.46	2897.88
444.66	2908.12
444.87	3080.14
445.07	2795.48
445.28	2920.40
445.48	3121.10
445.69	2887.64
445.89	3452.88
446.09	2951.12
446.30	3098.58
446.50	3198.93
446.71	4753.34
446.91	5810.09
447.12	6426.53
447.32	6868.89
447.53	6889.37
447.73	5871.53
447.93	5023.67
448.14	4853.69
448.34	4863.93
448.55	4071.36
448.75	4065.22
448.96	3895.24
449.16	3772.36
449.36	3542.99
449.57	3104.72
449.77	2940.88
449.98	2908.12
450.18	3092.43
450.39	2799.57
450.59	3143.63
450.79	3020.75
451.00	2824.15
451.20	2996.18
451.41	2775.00
451.61	3059.67
451.81	2877.40
452.02	2815.96
452.22	2836.44
452.43	2910.16
452.63	2875.35
452.84	2895.83
453.04	2781.14
453.24	3000.27
453.45	2807.77
453.65	2899.92
453.86	2893.78
454.06	3014.61
454.26	2975.70
454.47	2883.54
454.67	3092.43
454.87	3030.99
455.08	2930.64
455.28	3000.27
455.49	3043.28
455.69	2805.72
455.89	3360.72
456.10	2951.12
456.30	2877.40
456.51	3055.57
456.71	3004.37
456.91	2971.60
457.12	2906.07
457.32	3127.25
457.52	2815.96
457.73	2901.97
457.93	3049.43
458.14	2871.25
458.34	2824.15
458.54	2873.30
458.75	2803.67
458.95	3166.16
459.15	3127.25
459.36	2885.59
459.56	2766.81
459.76	3368.91
459.97	2977.75
460.17	2805.72
460.37	3012.56
460.58	2990.03
460.78	3065.81
460.99	2836.44
461.19	2832.34
461.39	2828.24
461.60	2951.12
461.80	2971.60
462.00	2660.31
462.21	2967.51
462.41	2940.88
462.61	2772.95
462.82	2639.83
463.02	3178.45
463.22	3041.23
463.43	2922.45
463.63	2836.44
463.83	3260.37
464.04	3106.77
464.24	2893.78
464.44	2738.13
464.64	3030.99
464.85	3117.01
465.05	2858.96
465.25	2809.81
465.46	2883.54
465.66	3143.63
465.86	2938.84
466.07	2801.62
466.27	2961.36
466.47	2709.46
466.68	2615.26
466.88	2928.60
467.08	3135.44
467.29	3178.45
467.49	2951.12
467.69	2944.98
467.89	3049.43
468.10	2963.41
468.30	2924.50
468.50	2953.17
468.71	3059.67
468.91	2787.29
469.11	3117.01
469.31	2854.87
469.52	2895.83
469.72	3254.22
469.92	3110.86
470.13	2897.88
470.33	2957.27
470.53	3057.62
470.73	3200.98
470.94	3510.22
471.14	3545.03
471.34	4040.64
471.54	3856.33
471.75	3575.75
471.95	3430.35
472.15	3360.72
472.36	3311.57
472.56	3219.41
472.76	3514.31
472.96	3330.00
473.17	3215.31
473.37	2922.45
473.57	3035.09
473.77	3088.34
473.98	2987.99
474.18	2709.46
474.38	3516.36
474.58	2983.89
474.79	2803.67
474.99	2961.36
475.19	3182.54
475.39	2838.48
475.60	2899.92
475.80	2883.54
476.00	3022.80
476.20	2959.31
476.41	2973.65
476.61	2934.74
476.81	3250.13
477.01	2852.82
477.21	3080.14
477.42	2996.18
477.62	2936.79
477.82	3139.54
478.02	2869.20
478.23	2803.67
478.43	2805.72
478.63	2930.64
478.83	2856.92
479.03	2846.68
479.24	3344.33
479.44	3334.09
479.64	2836.44
479.84	2586.58
480.04	2867.16
480.25	3151.82
480.45	2813.91
480.65	2844.63
480.85	3274.70
481.06	2811.86
481.26	2922.45
481.46	2863.06
481.66	3049.43
481.86	2832.34
482.06	3016.66
482.27	2891.73
482.47	2922.45
482.67	2985.94
482.87	2922.45
483.07	2914.26
483.28	2885.59
483.48	2787.29
483.68	2818.00
483.88	2766.81
484.08	2674.65
484.29	2803.67
484.49	2924.50
484.69	2684.89
484.89	3276.75
485.09	3100.62
485.29	2916.31
485.50	2957.27
485.70	2873.30
485.90	3149.78
486.10	2930.64
486.30	2885.59
486.50	3200.98
486.71	2955.22
486.91	2861.01
487.11	2951.12
487.31	2752.47
487.51	3074.00
487.71	2799.57
487.91	2809.81
488.12	2858.96
488.32	2605.02
488.52	2770.90
488.72	2598.87
488.92	2987.99
489.12	3256.27
489.32	2994.13
489.53	2883.54
489.73	2807.77
489.93	3278.80
490.13	2770.90
490.33	2699.22
490.53	3041.23
490.73	3157.97
490.94	2680.79
491.14	2944.98
491.34	3065.81
491.54	3098.58
491.74	3696.58
491.94	4247.49
492.14	4741.05
492.34	4734.90
492.54	4333.50
492.75	3794.89
492.95	3905.48
493.15	3753.93
493.35	3573.71
493.55	3463.12
493.75	3334.09
493.95	3444.68
494.15	3098.58
494.35	2904.02
494.56	3090.38
494.76	2871.25
494.96	3008.47
495.16	2818.00
495.36	3020.75
495.56	3010.51
495.76	2926.55
495.96	2828.24
496.16	2826.20
496.36	3344.33
496.56	2822.10
496.77	2912.21
496.97	2996.18
497.17	3233.74
497.37	2752.47
497.57	2969.55
497.77	3008.47
497.97	2891.73
498.17	2885.59
498.37	2875.35
498.57	3135.44
498.77	2922.45
498.97	2965.46
499.17	3196.88
499.38	2908.12
499.58	3004.37
499.78	2959.31
499.98	2977.75
500.18	2981.84
500.38	2799.57
500.58	3047.38
500.78	3358.67
500.98	5578.67
501.18	7292.82
501.38	8820.60
501.58	9817.96
501.78	9625.45
501.98	8048.52
502.18	6737.82
502.38	5855.14
502.58	5722.02
502.78	5124.02
502.98	4698.04
503.18	4741.05
503.38	4341.69
503.59	3731.40
503.79	3682.25
503.99	3461.07
504.19	3452.88
504.39	3508.17
504.59	3211.22
504.79	3213.26
504.99	3477.45
505.19	3194.83
505.39	3086.29
505.59	3211.22
505.79	3370.96
505.99	3088.34
506.19	2842.58
506.39	3074.00
506.59	2883.54
506.79	2920.40
506.99	3020.75
507.19	2768.85
507.39	3112.91
507.59	2721.75
507.79	2828.24
507.99	2793.43
508.19	3039.19
508.39	2979.79
508.59	2844.63
508.79	2951.12
508.99	3286.99
509.19	2818.00
509.39	2944.98
509.59	2803.67
509.79	2830.29
509.99	3082.19
510.19	2961.36
510.39	2973.65
510.59	3018.71
510.79	2885.59
510.99	2684.89
511.19	2807.77
511.39	3250.13
511.59	3059.67
511.79	3047.38
511.99	2928.60
512.19	3299.28
512.38	2879.44
512.58	2805.72
512.78	2750.42
512.98	3203.02
513.18	3166.16
513.38	2820.05
513.58	2975.70
513.78	2842.58
513.98	2920.40
514.18	2895.83
514.38	2858.96
514.58	3014.61
514.78	2879.44
514.98	2750.42
515.18	2842.58
515.38	2832.34
515.58	3209.17
515.78	2785.24
515.98	2897.88
516.18	3123.15
516.38	3028.95
516.57	2715.61
516.77	2791.38
516.97	3088.34
517.17	2822.10
517.37	2678.74
517.57	2916.31
517.77	3049.43
517.97	2893.78
518.17	2906.07
518.37	2791.38
518.57	2813.91
518.77	2869.20
518.97	2850.77
519.16	2918.36
519.36	3153.87
519.56	2848.72
519.76	2856.92
519.96	2873.30
520.16	3209.17
520.36	2826.20
520.56	3024.85
520.76	2777.05
520.96	2844.63
521.16	3162.06
521.35	2983.89
521.55	2940.88
521.75	3010.51
521.95	2942.93
522.15	2719.70
522.35	2699.22
522.55	2836.44
522.75	3051.47
522.95	2787.29
523.14	2672.60
523.34	3082.19
523.54	2846.68
523.74	3000.27
523.94	2926.55
524.14	2750.42
524.34	3078.10
524.54	3100.62
524.73	2875.35
524.93	3104.72
525.13	2959.31
525.33	2807.77
525.53	3074.00
525.73	3065.81
525.93	2983.89
526.13	2871.25
526.32	2820.05
526.52	3129.30
526.72	3153.87
526.92	2797.53
527.12	2848.72
527.32	2729.94
527.52	3000.27
527.71	2936.79
527.91	2867.16
528.11	2916.31
528.31	2961.36
528.51	2824.15
528.71	2959.31
528.90	3067.86
529.10	3166.16
529.30	2934.74
529.50	2590.68
529.70	3114.96
529.90	2992.08
530.09	2895.83
530.29	2711.51
530.49	2805.72
530.69	3436.49
530.89	2918.36
531.09	2959.31
531.28	2936.79
531.48	3233.74
531.68	2889.68
531.88	2842.58
532.08	3125.20
532.28	2891.73
532.47	2930.64
532.67	3010.51
532.87	3102.67
533.07	2858.96
533.27	2918.36
533.46	2914.26
533.66	3035.09
533.86	2897.88
534.06	3004.37
534.26	2858.96
534.45	2957.27
534.65	3100.62
534.85	2906.07
535.05	2752.47
535.25	3082.19
535.44	2686.94
535.64	2967.51
535.84	2852.82
536.04	2895.83
536.24	2893.78
536.43	2754.52
536.63	2889.68
536.83	2940.88
537.03	2961.36
537.22	2666.46
537.42	2674.65
537.62	3121.10
537.82	2947.03
538.02	3004.37
538.21	2969.55
538.41	3450.83
538.61	3100.62
538.81	2891.73
539.00	2983.89
539.20	2703.32
539.40	2906.07
539.60	2904.02
539.79	3061.71
539.99	3063.76
540.19	2768.85
540.39	2781.14
540.58	2940.88
540.78	3174.35
540.98	3000.27
541.18	3100.62
541.37	2967.51
541.57	2969.55
541.77	3014.61
541.97	2705.37
542.16	2688.98
542.36	2899.92
542.56	2807.77
542.76	3022.80
542.95	3000.27
543.15	3067.86
543.35	3041.23
543.54	2752.47
543.74	2746.33
543.94	3213.26
544.14	2914.26
544.33	2971.60
544.53	2840.53
544.73	2930.64
544.93	2928.60
545.12	2781.14
545.32	2840.53
545.52	2934.74
545.71	2699.22
545.91	2793.43
546.11	2779.09
546.30	2836.44
546.50	2949.08
546.70	2951.12
546.90	2889.68
547.09	2766.81
547.29	3000.27
547.49	3020.75
547.68	2846.68
547.88	2861.01
548.08	3174.35
548.27	3194.83
548.47	2770.90
548.67	2930.64
548.87	3086.29
549.06	2818.00
549.26	2844.63
549.46	3074.00
549.65	2881.49
549.85	2906.07
550.05	2848.72
550.24	2693.08
550.44	2975.70
550.64	2918.36
550.83	2904.02
551.03	3260.37
551.23	3096.53
551.42	2942.93
551.62	2863.06
551.82	2969.55
552.01	2906.07
552.21	3102.67
552.41	2887.64
552.60	3196.88
552.80	2947.03
553.00	2852.82
553.19	2942.93
553.39	3278.80
553.59	2797.53
553.78	2963.41
553.98	2781.14
554.17	2873.30
554.37	3024.85
554.57	2826.20
554.76	2768.85
554.96	2881.49
555.16	2977.75
555.35	2916.31
555.55	2994.13
555.75	3002.32
555.94	3123.15
556.14	2693.08
556.33	2893.78
556.53	2979.79
556.73	2985.94
556.92	2951.12
557.12	2867.16
557.32	3293.13
557.51	3207.12
557.71	3002.32
557.90	3041.23
558.10	3207.12
558.30	2938.84
558.49	2916.31
558.69	2912.21
558.88	3041.23
559.08	3065.81
559.28	2893.78
559.47	2885.59
559.67	3074.00
559.86	3305.42
560.06	2815.96
560.26	2881.49
560.45	3035.09
560.65	2934.74
560.84	3123.15
561.04	2803.67
561.24	3200.98
561.43	2750.42
561.63	3117.01
561.82	2983.89
562.02	3033.04
562.22	2887.64
562.41	2746.33
562.61	2815.96
562.80	2748.37
563.00	3411.92
563.19	2906.07
563.39	2932.69
563.59	3067.86
563.78	2754.52
563.98	2617.30
564.17	2875.35
564.37	2668.50
564.56	2910.16
564.76	2793.43
564.96	3024.85
565.15	3024.85
565.35	3434.44
565.54	2899.92
565.74	2975.70
565.93	3088.34
566.13	3033.04
566.32	2973.65
566.52	2947.03
566.71	3004.37
566.91	3137.49
567.11	3004.37
567.30	2809.81
567.50	3045.33
567.69	3059.67
567.89	2822.10
568.08	2752.47
568.28	2969.55
568.47	2770.90
568.67	2891.73
568.86	2809.81
569.06	3162.06
569.25	2975.70
569.45	2783.19
569.64	2967.51
569.84	2877.40
570.04	3024.85
570.23	2803.67
570.43	2918.36
570.62	3024.85
570.82	3332.05
571.01	2781.14
571.21	2854.87
571.40	2807.77
571.60	3137.49
571.79	2926.55
571.99	2856.92
572.18	2852.82
572.38	3112.91
572.57	2858.96
572.77	2871.25
572.96	3450.83
573.16	3094.48
573.35	2848.72
573.55	3037.14
573.74	2971.60
573.94	2926.55
574.13	2838.48
574.33	2983.89
574.52	3145.68
574.71	3033.04
574.91	2957.27
575.10	2744.28
575.30	2846.68
575.49	2840.53
575.69	2781.14
575.88	2887.64
576.08	2842.58
576.27	3213.26
576.47	2828.24
576.66	3047.38
576.86	3254.22
577.05	3014.61
577.25	2990.03
577.44	2996.18
577.64	2910.16
577.83	3162.06
578.02	2867.16
578.22	2981.84
578.41	3313.61
578.61	2863.06
578.80	2738.13
579.00	2953.17
579.19	3002.32
579.39	3028.95
579.58	2973.65
579.77	2957.27
579.97	3117.01
580.16	3160.02
580.36	3071.95
580.55	2975.70
580.75	3065.81
580.94	3002.32
581.13	3082.19
581.33	3092.43
581.52	2983.89
581.72	3352.52
581.91	3018.71
582.11	2783.19
582.30	3143.63
582.49	2996.18
582.69	3200.98
582.88	2953.17
583.08	3033.04
583.27	3155.92
583.47	2942.93
583.66	2822.10
583.85	2830.29
584.05	2981.84
584.24	2973.65
584.44	2928.60
584.63	3182.54
584.82	3188.69
585.02	3063.76
585.21	2936.79
585.41	3065.81
585.60	3030.99
585.79	3135.44
585.99	3248.08
586.18	3035.09
586.37	3893.19
586.57	5879.72
586.76	16776.96
586.96	35659.23
587.15	49030.42
587.34	57302.17
587.54	61197.40
587.73	54668.48
587.93	38874.54
588.12	29697.59
588.31	24194.70
588.51	21423.80
588.70	19875.54
588.89	17374.97
589.09	14798.62
589.28	12482.37
589.47	9758.57
589.67	7606.16
589.86	5998.50
590.06	4616.12
590.25	4075.46
590.44	3702.73
590.64	3293.13
590.83	3223.50
591.02	3188.69
591.22	2846.68
591.41	3002.32
591.60	2994.13
591.80	3399.63
591.99	2672.60
592.18	2840.53
592.38	3139.54
592.57	2977.75
592.76	2904.02
592.96	2899.92
593.15	2895.83
593.34	3151.82
593.54	2891.73
593.73	3024.85
593.92	3071.95
594.12	3059.67
594.31	2934.74
594.50	3092.43
594.70	3110.86
594.89	3401.68
595.08	2832.34
595.28	2990.03
595.47	3504.07
595.66	3207.12
595.86	2783.19
596.05	2779.09
596.24	2877.40
596.43	3248.08
596.63	3035.09
596.82	3020.75
597.01	3074.00
597.21	3264.46
597.40	2891.73
597.59	2928.60
597.79	2990.03
597.98	3114.96
598.17	2969.55
598.36	2869.20
598.56	3131.34
598.75	2858.96
598.94	2949.08
599.14	2957.27
599.33	2828.24
599.52	3108.82
599.71	2926.55
599.91	2920.40
600.10	3082.19
600.29	2877.40
600.48	3024.85
600.68	2926.55
600.87	3067.86
601.06	2916.31
601.26	2918.36
601.45	3024.85
601.64	2969.55
601.83	3309.52
602.03	2723.80
602.22	2781.14
602.41	3151.82
602.60	3387.34
602.80	2973.65
602.99	2998.23
603.18	2889.68
603.37	2992.08
603.57	2883.54
603.76	2928.60
603.95	3276.75
604.14	2885.59
604.34	2781.14
604.53	2813.91
604.72	3051.47
604.91	3061.71
605.10	2895.83
605.30	2707.41
605.49	3385.29
605.68	3119.06
605.87	2852.82
606.07	2797.53
606.26	3094.48
606.45	3065.81
606.64	2932.69
606.84	2758.61
607.03	2928.60
607.22	3100.62
607.41	2904.02
607.60	2914.26
607.80	3094.48
607.99	2936.79
608.18	2867.16
608.37	2850.77
608.56	2918.36
608.76	3157.97
608.95	3082.19
609.14	2904.02
609.33	3203.02
609.52	3303.37
609.72	3002.32
609.91	2953.17
610.10	3043.28
610.29	3213.26
610.48	2985.94
610.68	2916.31
610.87	2942.93
611.06	3157.97
611.25	2869.20
611.44	2971.60
611.63	2949.08
611.83	3133.39
612.02	2750.42
612.21	2977.75
612.40	2707.41
612.59	2789.33
612.79	2797.53
612.98	2944.98
613.17	3225.55
613.36	3004.37
613.55	3008.47
613.74	2879.44
613.93	2940.88
614.13	3035.09
614.32	3063.76
614.51	2901.97
614.70	2973.65
614.89	3004.37
615.08	2967.51
615.28	3289.04
615.47	2795.48
615.66	3014.61
615.85	2965.46
616.04	3014.61
616.23	3010.51
616.42	3024.85
616.62	2920.40
616.81	2944.98
617.00	3074.00
617.19	3096.53
617.38	2893.78
617.57	2875.35
617.76	3043.28
617.95	3051.47
618.15	2975.70
618.34	3110.86
618.53	2709.46
618.72	3221.45
618.91	2961.36
619.10	2918.36
619.29	2987.99
619.48	2914.26
619.68	2811.86
619.87	2873.30
620.06	2658.26
620.25	3067.86
620.44	2842.58
620.63	2803.67
620.82	2990.03
621.01	3030.99
621.20	2877.40
621.39	3004.37
621.59	3012.56
621.78	2996.18
621.97	2904.02
622.16	2938.84
622.35	3069.91
622.54	3151.82
622.73	2912.21
622.92	2686.94
623.11	3135.44
623.30	2985.94
623.49	3117.01
623.68	2826.20
623.88	3258.32
624.07	2947.03
624.26	2791.38
624.45	2891.73
624.64	2977.75
624.83	3061.71
625.02	2934.74
625.21	2951.12
625.40	2955.22
625.59	3186.64
625.78	2928.60
625.97	2934.74
626.16	3172.30
626.35	3160.02
626.54	2881.49
626.74	3104.72
626.93	2969.55
627.12	3002.32
627.31	3002.32
627.50	2865.11
627.69	3147.73
627.88	2848.72
628.07	2801.62
628.26	2695.13
628.45	2854.87
628.64	2824.15
628.83	2891.73
629.02	2695.13
629.21	3086.29
629.40	2979.79
629.59	2850.77
629.78	2772.95
629.97	3076.05
630.16	3078.10
630.35	2865.11
630.54	2844.63
630.73	2815.96
630.92	2998.23
631.11	2818.00
631.30	2953.17
631.49	3135.44
631.68	2897.88
631.87	2877.40
632.06	2680.79
632.25	3336.14
632.44	2953.17
632.63	2928.60
632.82	2877.40
633.01	2875.35
633.20	3018.71
633.39	2838.48
633.58	2691.03
633.77	2979.79
633.96	3055.57
634.15	2994.13
634.34	2981.84
634.53	3055.57
634.72	2877.40
634.91	2672.60
635.10	2828.24
635.29	3211.22
635.48	3006.42
635.67	2783.19
635.86	2756.57
636.05	3286.99
636.24	2893.78
636.43	2871.25
636.62	2920.40
636.81	2533.34
637.00	3000.27
637.19	2824.15
637.38	2889.68
637.57	2885.59
637.76	2889.68
637.95	2961.36
638.14	2844.63
638.33	3033.04
638.52	3082.19
638.71	2815.96
638.89	2754.52
639.08	3477.45
639.27	3155.92
639.46	3014.61
639.65	3344.33
639.84	3332.05
640.03	3426.25
640.22	3200.98
640.41	3192.78
640.60	3026.90
640.79	3176.40
640.98	2996.18
641.17	3057.62
641.36	3141.58
641.55	3254.22
641.74	2674.65
641.92	2723.80
642.11	2891.73
642.30	2955.22
642.49	2779.09
642.68	2815.96
642.87	3059.67
643.06	2963.41
643.25	2731.99
643.44	2754.52
643.63	2987.99
643.82	3190.74
644.00	2764.76
644.19	2834.39
644.38	2822.10
644.57	3129.30
644.76	2856.92
644.95	2861.01
645.14	3028.95
645.33	2904.02
645.52	2908.12
645.71	2719.70
645.89	2854.87
646.08	2951.12
646.27	2959.31
646.46	3047.38
646.65	2746.33
646.84	3094.48
647.03	2844.63
647.22	2887.64
647.40	2996.18
647.59	2985.94
647.78	2566.10
647.97	2828.24
648.16	2801.62
648.35	3246.03
648.54	3084.24
648.73	2914.26
648.91	3108.82
649.10	3033.04
649.29	2791.38
649.48	2828.24
649.67	3030.99
649.86	3002.32
650.05	2893.78
650.23	3051.47
650.42	2879.44
650.61	3239.89
650.80	3067.86
650.99	3172.30
651.18	3141.58
651.36	3213.26
651.55	2881.49
651.74	3049.43
651.93	3045.33
652.12	2983.89
652.31	2887.64
652.49	2895.83
652.68	2928.60
652.87	3198.93
653.06	2895.83
653.25	3102.67
653.44	2947.03
653.62	3280.85
653.81	2895.83
654.00	2887.64
654.19	3078.10
654.38	3340.24
654.56	2951.12
654.75	2795.48
654.94	3133.39
655.13	3002.32
655.32	2793.43
655.51	2985.94
655.69	2955.22
655.88	3162.06
656.07	2693.08
656.26	2895.83
656.45	2772.95
656.63	2957.27
656.82	2887.64
657.01	3051.47
657.20	2942.93
657.38	3168.21
657.57	2926.55
657.76	2670.55
657.95	3069.91
658.14	2947.03
658.32	2947.03
658.51	2752.47
658.70	2897.88
658.89	3033.04
659.08	2942.93
659.26	3078.10
659.45	2889.68
659.64	3082.19
659.83	2873.30
660.01	3274.70
660.20	2987.99
660.39	3274.70
660.58	2652.12
660.76	2920.40
660.95	2725.85
661.14	2910.16
661.33	2762.71
661.51	2740.18
661.70	2883.54
661.89	3155.92
662.08	2914.26
662.26	2676.70
662.45	2834.39
662.64	3225.55
662.83	2895.83
663.01	2762.71
663.20	2889.68
663.39	3084.24
663.58	2881.49
663.76	2775.00
663.95	3078.10
664.14	2854.87
664.32	2846.68
664.51	2746.33
664.70	2734.04
664.89	3051.47
665.07	2734.04
665.26	3067.86
665.45	2809.81
665.64	3102.67
665.82	2863.06
666.01	3000.27
666.20	2729.94
666.38	3047.38
666.57	3074.00
666.76	4767.67
666.95	11190.10
667.13	17901.29
667.32	21475.00
667.51	24297.10
667.69	25230.98
667.88	21059.26
668.07	15116.06
668.25	12910.40
668.44	11261.78
668.63	9736.04
668.81	8425.34
669.00	7245.71
669.19	6655.90
669.38	5865.38
669.56	5093.30
669.75	4327.36
669.94	3989.44
670.12	3469.26
670.31	3076.05
670.50	3221.45
670.68	3211.22
670.87	3086.29
671.06	2897.88
671.24	2906.07
671.43	3211.22
671.62	3035.09
671.80	2795.48
671.99	3080.14
672.18	3086.29
672.36	3123.15
672.55	2973.65
672.74	2906.07
672.92	2826.20
673.11	3119.06
673.29	2672.60
673.48	3033.04
673.67	2967.51
673.85	3209.17
674.04	2801.62
674.23	2949.08
674.41	3299.28
674.60	2750.42
674.79	2678.74
674.97	2734.04
675.16	3184.59
675.34	3291.09
675.53	2908.12
675.72	2885.59
675.90	3340.24
676.09	2963.41
676.28	2973.65
676.46	2705.37
676.65	3166.16
676.83	2854.87
677.02	2891.73
677.21	2951.12
677.39	3016.66
677.58	2766.81
677.77	2877.40
677.95	2762.71
678.14	2930.64
678.32	2983.89
678.51	2867.16
678.70	3129.30
678.88	2910.16
679.07	3028.95
679.25	2846.68
679.44	2987.99
679.63	2818.00
679.81	2992.08
680.00	3074.00
680.18	2910.16
680.37	3252.17
680.55	3063.76
680.74	2779.09
680.93	2641.88
681.11	2983.89
681.30	2904.02
681.48	2883.54
681.67	2889.68
681.85	2981.84
682.04	2795.48
682.23	2977.75
682.41	2963.41
682.60	2889.68
682.78	2930.64
682.97	2834.39
683.15	2934.74
683.34	3041.23
683.53	3135.44
683.71	2738.13
683.90	2973.65
684.08	3317.71
684.27	2926.55
684.45	2881.49
684.64	3074.00
684.82	2944.98
685.01	3049.43
685.19	2936.79
685.38	3076.05
685.57	3002.32
685.75	2854.87
685.94	2815.96
686.12	2707.41
686.31	2863.06
686.49	3213.26
686.68	2703.32
686.86	2871.25
687.05	2959.31
687.23	3147.73
687.42	2869.20
687.60	2715.61
687.79	3153.87
687.97	3278.80
688.16	3026.90
688.34	2992.08
688.53	2674.65
688.71	3100.62
688.90	3164.11
689.08	2897.88
689.27	2656.22
689.45	3155.92
689.64	3149.78
689.82	2893.78
690.01	3026.90
690.19	3033.04
690.38	2893.78
690.56	2955.22
690.75	2865.11
690.93	2916.31
691.12	2863.06
691.30	2949.08
691.49	2951.12
691.67	3004.37
691.86	3162.06
692.04	2883.54
692.23	2901.97
692.41	2947.03
692.60	3143.63
692.78	3065.81
692.97	2994.13
693.15	3022.80
693.34	3145.68
693.52	3059.67
693.71	2858.96
693.89	2842.58
694.08	2686.94
694.26	2942.93
694.44	3180.50
694.63	3074.00
694.81	2785.24
695.00	2848.72
695.18	3160.02
695.37	3401.68
695.55	2990.03
695.74	2887.64
695.92	2918.36
696.10	3225.55
696.29	2721.75
696.47	2883.54
696.66	2811.86
696.84	2836.44
697.03	2904.02
697.21	3184.59
697.40	4483.00
697.58	3180.50
697.76	2779.09
697.95	2901.97
698.13	2799.57
698.32	2869.20
698.50	2803.67
698.68	2865.11
698.87	3039.19
699.05	3239.89
699.24	2885.59
699.42	2795.48
699.61	2981.84
699.79	3051.47
699.97	2883.54
700.16	2770.90
700.34	2731.99
700.53	3074.00
700.71	3127.25
700.89	2930.64
701.08	2934.74
701.26	2983.89
701.45	3248.08
701.63	2856.92
701.81	2854.87
702.00	2895.83
702.18	2932.69
702.37	2836.44
702.55	3209.17
702.73	3004.37
702.92	2871.25
703.10	3192.78
703.28	3082.19
703.47	2803.67
703.65	3016.66
703.84	2969.55
704.02	2949.08
704.20	3157.97
704.39	2742.23
704.57	2865.11
704.75	3096.53
704.94	3094.48
705.12	2969.55
705.30	3409.87
705.49	6510.49
705.67	12990.27
705.86	18097.90
706.04	20999.87
706.22	23029.41
706.41	22240.94
706.59	16985.85
706.77	13088.57
706.96	11405.14
707.14	10411.87
707.32	9037.69
707.51	7907.21
707.69	6420.38
707.87	5425.07
708.06	4452.28
708.24	3887.04
708.42	3626.95
708.61	3667.91
708.79	2897.88
708.97	2983.89
709.16	3041.23
709.34	2942.93
709.52	2789.33
709.71	2789.33
709.89	3164.11
710.07	2879.44
710.26	2744.28
710.44	2965.46
710.62	3164.11
710.80	2992.08
710.99	3014.61
711.17	2975.70
711.35	2850.77
711.54	2914.26
711.72	3110.86
711.90	2949.08
712.09	3041.23
712.27	2899.92
712.45	2963.41
712.63	2846.68
712.82	3092.43
713.00	2959.31
713.18	3022.80
713.37	3035.09
713.55	3063.76
713.73	3045.33
713.91	2981.84
714.10	2891.73
714.28	2910.16
714.46	3006.42
714.65	2969.55
714.83	2895.83
715.01	2977.75
715.19	2979.79
715.38	2768.85
715.56	2992.08
715.74	2807.77
715.92	2920.40
716.11	3180.50
716.29	2582.49
716.47	2887.64
716.65	2957.27
716.84	2775.00
717.02	3002.32
717.20	2734.04
717.38	2820.05
717.57	2996.18
717.75	2891.73
717.93	2887.64
718.11	3117.01
718.30	2738.13
718.48	2985.94
718.66	3229.65
718.84	3135.44
719.03	2912.21
719.21	2701.27
719.39	3256.27
719.57	3071.95
719.75	3028.95
719.94	2801.62
720.12	2926.55
720.30	3010.51
720.48	3047.38
720.67	2887.64
720.85	2785.24
721.03	2887.64
721.21	2889.68
721.39	3084.24
721.58	3035.09
721.76	2983.89
721.94	2869.20
722.12	3012.56
722.30	3258.32
722.49	2861.01
722.67	2910.16
722.85	2904.02
723.03	2744.28
723.21	2871.25
723.40	2955.22
723.58	2987.99
723.76	3094.48
723.94	3264.46
724.12	2848.72
724.30	3129.30
724.49	3084.24
724.67	2797.53
724.85	2996.18
725.03	2748.37
725.21	3127.25
725.40	3188.69
725.58	2842.58
725.76	3026.90
725.94	3143.63
726.12	2731.99
726.30	2930.64
726.49	2842.58
726.67	2891.73
726.85	3117.01
727.03	3413.96
727.21	4478.91
727.39	5523.37
727.57	5822.38
727.76	6244.26
727.94	6336.42
728.12	5588.91
728.30	4679.61
728.48	4515.77
728.66	4108.23
728.84	3964.87
729.03	3493.83
729.21	3381.20
729.39	3223.50
729.57	3018.71
729.75	3086.29
729.93	2863.06
730.11	2791.38
730.30	2901.97
730.48	2942.93
730.66	2979.79
730.84	2973.65
731.02	2973.65
731.20	2848.72
731.38	2979.79
731.56	2740.18
731.74	2809.81
731.93	2942.93
732.11	2979.79
732.29	2822.10
732.47	3061.71
732.65	3018.71
732.83	3125.20
733.01	2959.31
733.19	2856.92
733.37	3086.29
733.56	2996.18
733.74	2838.48
733.92	3274.70
734.10	2912.21
734.28	2965.46
734.46	2764.76
734.64	2951.12
734.82	2826.20
735.00	2875.35
735.18	2801.62
735.36	2955.22
735.54	3041.23
735.73	2809.81
735.91	2942.93
736.09	3250.13
736.27	3086.29
736.45	2981.84
736.63	2625.50
736.81	2885.59
736.99	3049.43
737.17	3084.24
737.35	2879.44
737.53	2992.08
737.71	2994.13
737.89	3133.39
738.07	2803.67
738.25	2846.68
738.43	2701.27
738.61	2840.53
738.80	2729.94
738.98	2764.76
739.16	2899.92
739.34	2861.01
739.52	3149.78
739.70	2906.07
739.88	3127.25
740.06	2987.99
740.24	2600.92
740.42	3151.82
740.60	2734.04
740.78	2906.07
740.96	2637.78
741.14	2887.64
741.32	3002.32
741.50	2686.94
741.68	3080.14
741.86	3221.45
742.04	2770.90
742.22	2797.53
742.40	2846.68
742.58	3033.04
742.76	2818.00
742.94	3004.37
743.12	2680.79
743.30	3061.71
743.48	3067.86
743.66	2809.81
743.84	2957.27
744.02	2979.79
744.20	2881.49
744.38	2838.48
744.56	2701.27
744.74	3313.61
744.92	3067.86
745.10	3024.85
745.28	2953.17
745.46	3186.64
745.64	2889.68
745.82	2979.79
746.00	2834.39
746.18	3051.47
746.36	2854.87
746.54	3006.42
746.72	2944.98
746.90	2787.29
747.08	3200.98
747.26	2842.58
747.44	2963.41
747.62	2973.65
747.80	3082.19
747.98	3014.61
748.15	2897.88
748.33	3270.61
748.51	2994.13
748.69	2942.93
748.87	2717.65
749.05	2897.88
749.23	2818.00
749.41	2822.10
749.59	2871.25
749.77	3147.73
749.95	2916.31
750.13	2826.20
750.31	2912.21
750.49	2922.45
750.67	3104.72
750.85	2996.18
751.03	2891.73
751.20	3360.72
751.38	2893.78
751.56	2906.07
751.74	2813.91
751.92	2981.84
752.10	2840.53
752.28	2963.41
752.46	2836.44
752.64	2961.36
752.82	2940.88
753.00	2947.03
753.18	2803.67
753.35	2914.26
753.53	2996.18
753.71	2852.82
753.89	2983.89
754.07	3112.91
754.25	3084.24
754.43	2938.84
754.61	2688.98
754.79	3170.26
754.97	2992.08
755.14	3080.14
755.32	2721.75
755.50	2981.84
755.68	3004.37
755.86	2725.85
756.04	2840.53
756.22	2645.98
756.40	3162.06
756.57	3139.54
756.75	2799.57
756.93	3127.25
757.11	3082.19
757.29	2764.76
757.47	2801.62
757.65	2688.98
757.82	2662.36
758.00	2801.62
758.18	2770.90
758.36	2762.71
758.54	3176.40
758.72	2670.55
758.90	3039.19
759.07	3098.58
759.25	2852.82
759.43	2920.40
759.61	2729.94
759.79	4208.58
759.97	3264.46
760.15	2906.07
760.32	2885.59
760.50	3082.19
760.68	3274.70
760.86	2721.75
761.04	3088.34
761.22	3057.62
761.39	2983.89
761.57	2924.50
761.75	2899.92
761.93	3065.81
762.11	2953.17
762.28	2924.50
762.46	2830.29
762.64	3123.15
762.82	2744.28
763.00	2834.39
763.18	3051.47
763.35	2869.20
763.53	3110.86
763.71	2971.60
763.89	2809.81
764.07	3039.19
764.24	3037.14
764.42	2973.65
764.60	2826.20
764.78	3045.33
764.96	3057.62
765.13	3047.38
765.31	2840.53
765.49	3086.29
765.67	2754.52
765.84	2830.29
766.02	2832.34
766.20	2748.37
766.38	3000.27
766.56	2938.84
766.73	2994.13
766.91	2930.64
767.09	3012.56
767.27	3002.32
767.44	2768.85
767.62	3080.14
767.80	3002.32
767.98	2799.57
768.15	3006.42
768.33	3051.47
768.51	3180.50
768.69	2985.94
768.87	2932.69
769.04	3016.66
769.22	3387.34
769.40	3024.85
769.58	3049.43
769.75	3055.57
769.93	3235.79
770.11	2877.40
770.28	2772.95
770.46	3110.86
770.64	2926.55
770.82	2861.01
770.99	2744.28
771.17	3037.14
771.35	2858.96
771.53	2922.45
771.70	2832.34
771.88	3076.05
772.06	2936.79
772.23	2818.00
772.41	2977.75
772.59	2891.73
772.77	2766.81
772.94	2852.82
773.12	2895.83
773.30	2955.22
773.47	3055.57
773.65	2838.48
773.83	3030.99
774.01	2961.36
774.18	2754.52
774.36	2856.92
774.54	2676.70
774.71	3020.75
774.89	2715.61
775.07	2785.24
775.24	2877.40
775.42	2858.96
775.60	3336.14
775.78	2781.14
775.95	2762.71
776.13	2635.74
776.31	2707.41
776.48	2918.36
776.66	3098.58
776.84	2959.31
777.01	2832.34
777.19	2744.28
777.37	2754.52
777.54	3076.05
777.72	3403.72
777.90	3004.37
778.07	2822.10
778.25	3563.47
778.43	3043.28
778.60	2818.00
778.78	2889.68
778.96	3176.40
779.13	2785.24
779.31	2957.27
779.49	2920.40
779.66	2967.51
779.84	3004.37
780.01	2803.67
780.19	2789.33
780.37	3151.82
780.54	3096.53
780.72	2775.00
780.90	2942.93
781.07	2942.93
781.25	2834.39
781.43	3071.95
781.60	2822.10
781.78	3178.45
781.95	3033.04
782.13	2846.68
782.31	2869.20
782.48	2588.63
782.66	2963.41
782.83	3051.47
783.01	2975.70
783.19	3049.43
783.36	2893.78
783.54	2736.09
783.72	2928.60
783.89	2934.74
784.07	3067.86
784.24	2947.03
784.42	2981.84
784.60	2938.84
784.77	3045.33
784.95	2623.45
785.12	2893.78
785.30	2944.98
785.47	2777.05
785.65	2775.00
785.83	2875.35
786.00	2824.15
786.18	3022.80
786.35	2717.65
786.53	2832.34
786.71	3182.54
786.88	3028.95
787.06	2889.68
787.23	2799.57
787.41	2772.95
787.58	2942.93
787.76	2797.53
787.94	2908.12
788.11	2963.41
788.29	2832.34
788.46	2856.92
788.64	2674.65
788.81	2877.40
788.99	2801.62
789.16	2809.81
789.34	2863.06
789.52	2922.45
789.69	2895.83
789.87	2615.26
790.04	2797.53
790.22	2940.88
790.39	3360.72
790.57	2764.76
790.74	2742.23
790.92	3078.10
791.09	2678.74
791.27	2959.31
791.44	2947.03
791.62	2910.16
791.79	3168.21
791.97	2893.78
792.15	3272.65
792.32	3114.96
792.50	3086.29
792.67	3078.10
792.85	3069.91
793.02	3016.66
793.20	2899.92
793.37	2746.33
793.55	2834.39
793.72	2740.18
793.90	3098.58
794.07	2801.62
794.25	2799.57
794.42	2987.99
794.60	2873.30
794.77	2901.97
794.95	2967.51
795.12	3106.77
795.30	2910.16
795.47	2686.94
795.65	3207.12
795.82	3071.95
796.00	2746.33
796.17	2891.73
796.34	2803.67
796.52	3022.80
796.69	3125.20
796.87	2990.03
797.04	2967.51
797.22	3080.14
797.39	3026.90
797.57	3067.86
797.74	2918.36
797.92	3018.71
798.09	2904.02
798.27	3084.24
798.44	2801.62
798.62	2904.02
798.79	3002.32
798.96	2996.18
799.14	2920.40
799.31	3444.68
799.49	2947.03
799.66	2789.33
799.84	2846.68
800.01	2803.67
800.19	3045.33
800.36	2635.74
800.53	2908.12
800.71	3168.21
800.88	3311.57
801.06	2828.24
801.23	2815.96
801.41	2942.93
801.58	2893.78
801.75	2850.77
801.93	2846.68
802.10	3016.66
802.28	2987.99
802.45	2965.46
802.63	3012.56
802.80	3188.69
802.97	2928.60
803.15	2920.40
803.32	2879.44
803.50	2795.48
803.67	2865.11
803.84	2785.24
804.02	2930.64
804.19	2987.99
804.37	2570.20
804.54	2801.62
804.71	2856.92
804.89	3014.61
805.06	2807.77
805.24	2797.53
805.41	2672.60
805.58	2815.96
805.76	3416.01
805.93	2863.06
806.10	3004.37
806.28	3043.28
806.45	2942.93
806.63	2961.36
806.80	2940.88
806.97	3082.19
807.15	3051.47
807.32	2996.18
807.49	2883.54
807.67	2805.72
807.84	2987.99
808.01	2674.65
808.19	3059.67
808.36	3366.86
808.54	2854.87
808.71	2803.67
808.88	2904.02
809.06	3155.92
809.23	3217.36
809.40	2861.01
809.58	2854.87
809.75	2977.75
809.92	2875.35
810.10	3067.86
810.27	2899.92
810.44	3047.38
810.62	3108.82
810.79	2910.16
810.96	2852.82
811.14	2867.16
811.31	3076.05
811.48	2981.84
811.66	2920.40
811.83	3071.95
812.00	3053.52
812.18	2994.13
812.35	3145.68
812.52	2944.98
812.69	2897.88
812.87	2828.24
813.04	2807.77
813.21	2938.84
813.39	2908.12
813.56	2789.33
813.73	3100.62
813.91	2715.61
814.08	2987.99
814.25	2867.16
814.42	2697.17
814.60	2883.54
814.77	2865.11
814.94	2836.44
815.12	2969.55
815.29	3272.65
815.46	2942.93
815.63	2930.64
815.81	2791.38
815.98	3000.27
816.15	2983.89
816.33	2938.84
816.50	2875.35
816.67	3006.42
816.84	2953.17
817.02	2801.62
817.19	2840.53
817.36	3020.75
817.53	3026.90
817.71	2783.19
817.88	2932.69
818.05	2899.92
818.22	3008.47
818.40	3123.15
818.57	2854.87
818.74	3041.23
818.91	2910.16
819.09	3000.27
819.26	3053.52
819.43	2807.77
819.60	2887.64
819.78	2967.51
819.95	2957.27
820.12	2807.77
820.29	3262.41
820.47	3010.51
820.64	2777.05
820.81	2777.05
820.98	2854.87
821.15	2899.92
821.33	2969.55
821.50	2670.55
821.67	3059.67
821.84	2846.68
822.02	2940.88
822.19	3045.33
822.36	2926.55
822.53	2799.57
822.70	2738.13
822.88	2944.98
823.05	3246.03
823.22	2951.12
823.39	2926.55
823.56	2977.75
823.74	3303.37
823.91	2777.05
824.08	2758.61
824.25	2895.83
824.42	3246.03
824.60	2752.47
824.77	2979.79
824.94	2942.93
825.11	3164.11
825.28	2750.42
825.45	2967.51
825.63	3022.80
825.80	2758.61
825.97	2944.98
826.14	2914.26
826.31	2691.03
826.48	3057.62
826.66	2850.77
826.83	2813.91
827.00	2871.25
827.17	2830.29
827.34	2813.91
827.51	2752.47
827.69	2965.46
827.86	2809.81
828.03	2934.74
828.20	2885.59
828.37	2879.44
828.54	2994.13
828.71	2793.43
828.89	3028.95
829.06	2985.94
829.23	3246.03
829.40	2803.67
829.57	2830.29
829.74	3088.34
829.91	2889.68
830.09	2869.20
830.26	2994.13
830.43	3286.99
830.60	2934.74
830.77	2949.08
830.94	3094.48
831.11	3205.07
831.28	2914.26
831.46	3008.47
831.63	2772.95
831.80	3102.67
831.97	2887.64
832.14	2916.31
832.31	2953.17
832.48	3002.32
832.65	3104.72
832.82	2951.12
832.99	2985.94
833.17	2762.71
833.34	3280.85
833.51	2828.24
833.68	2701.27
833.85	3135.44
834.02	2828.24
834.19	2731.99
834.36	2854.87
834.53	2953.17
834.70	3188.69
834.87	2904.02
835.04	2752.47
835.22	2754.52
835.39	2934.74
835.56	2781.14
835.73	2832.34
835.90	3104.72
836.07	2918.36
836.24	2840.53
836.41	2770.90
836.58	2865.11
836.75	3125.20
836.92	2764.76
837.09	2717.65
837.26	3071.95
837.43	3002.32
837.60	2820.05
837.77	2764.76
837.94	3209.17
838.12	3147.73
838.29	2717.65
838.46	2609.11
838.63	2807.77
838.80	3252.17
838.97	2785.24
839.14	2715.61
839.31	3039.19
839.48	3016.66
839.65	2758.61
839.82	2875.35
839.99	2983.89
840.16	2904.02
840.33	2699.22
840.50	2848.72
840.67	2801.62
840.84	2578.39
841.01	2703.32
841.18	2695.13
841.35	2918.36
841.52	3108.82
841.69	3043.28
841.86	2779.09
842.03	3022.80
842.20	3135.44
842.37	2762.71
842.54	2828.24
842.71	2963.41
842.88	2756.57
843.05	2709.46
843.22	2654.17
843.39	3198.93
843.56	2807.77
843.73	2713.56
843.90	2754.52
844.07	2959.31
844.24	3172.30
844.41	2785.24
844.58	2746.33
844.75	2957.27
844.92	3043.28
845.09	2764.76
845.26	2713.56
845.43	3096.53
845.60	2926.55
845.77	2912.21
845.94	2838.48
846.10	3102.67
846.27	2664.41
846.44	2607.06
846.61	2633.69
846.78	3080.14
846.95	3102.67
847.12	2705.37
847.29	2783.19
847.46	2895.83
847.63	3117.01
847.80	2668.50
847.97	2797.53
848.14	3444.68
848.31	2959.31
848.48	2668.50
848.65	2746.33
848.82	2850.77
848.98	3397.58
849.15	2889.68
849.32	2832.34
849.49	3090.38
849.66	2887.64
849.83	2783.19
850.00	2607.06
850.17	3117.01
850.34	2815.96
850.51	2752.47
850.68	2746.33
850.85	3338.19
851.01	3051.47
851.18	2731.99
851.35	2731.99
851.52	2949.08
851.69	3104.72
851.86	2680.79
852.03	2721.75
852.20	3074.00
852.37	2867.16
852.53	2570.20
852.70	2662.36
852.87	3022.80
853.04	3102.67
853.21	2748.37
853.38	2934.74
853.55	3219.41
853.72	3194.83
853.89	2668.50
854.05	2674.65
854.22	2963.41
854.39	2871.25
854.56	2734.04
854.73	2879.44
854.90	2889.68
855.07	2998.23
855.23	2701.27
855.40	2723.80
855.57	2955.22
855.74	2672.60
855.91	2926.55
856.08	2686.94
856.25	2711.51
856.41	2914.26
856.58	2717.65
856.75	2682.84
856.92	2815.96
857.09	3131.34
857.26	2627.54
857.42	2799.57
857.59	3030.99
857.76	2887.64
857.93	2770.90
858.10	2777.05
858.27	2803.67
858.43	2875.35
858.60	2770.90
858.77	2645.98
858.94	2928.60
859.11	3190.74
859.27	2721.75
859.44	2717.65
859.61	3375.05
859.78	3084.24
859.95	2758.61
860.12	2676.70
860.28	3332.05
860.45	3299.28
860.62	2676.70
860.79	2756.57
860.95	2906.07
861.12	2856.92
861.29	2654.17
861.46	2731.99
861.63	2947.03
861.79	3039.19
861.96	2662.36
862.13	2772.95
862.30	3194.83
862.47	2838.48
862.63	2623.45
862.80	2820.05
862.97	3196.88
863.14	2922.45
863.30	2744.28
863.47	2707.41
863.64	3325.90
863.81	3016.66
863.97	2621.40
864.14	2826.20
864.31	2918.36
864.48	3030.99
864.65	2717.65
864.81	2840.53
864.98	3151.82
865.15	3090.38
865.32	2795.48
865.48	2787.29
865.65	3344.33
865.82	2879.44
865.98	2818.00
866.15	2803.67
866.32	2926.55
866.49	2897.88
866.65	2844.63
866.82	2723.80
866.99	2987.99
867.16	2852.82
867.32	2760.66
867.49	2701.27
867.66	2969.55
867.83	2846.68
867.99	2633.69
868.16	2799.57
868.33	2775.00
868.49	2926.55
868.66	2779.09
868.83	2836.44
868.99	2971.60
869.16	3033.04
869.33	2795.48
869.50	2828.24
869.66	2963.41
869.83	2957.27
870.00	2662.36
870.16	2787.29
870.33	2936.79
870.50	3209.17
870.66	2842.58
870.83	2846.68
871.00	2887.64
871.17	3104.72
871.33	2766.81
871.50	2643.93
871.67	2889.68
871.83	2738.13
872.00	2785.24
872.17	2785.24
872.33	3205.07
872.50	3182.54
872.67	2746.33
872.83	2789.33
873.00	3016.66
873.17	2940.88
873.33	2779.09
873.50	2758.61
873.67	2818.00
873.83	2762.71
874.00	2713.56
874.16	2885.59
874.33	3024.85
874.50	2760.66
874.66	2619.35
874.83	2791.38
875.00	3180.50
875.16	3184.59
875.33	2813.91
875.50	2633.69
875.66	2881.49
875.83	2998.23
875.99	2723.80
876.16	2807.77
876.33	2764.76
876.49	2936.79
876.66	2826.20
876.83	2791.38
876.99	2762.71
877.16	2967.51
877.32	2654.17
877.49	2836.44
877.66	3022.80
877.82	3252.17
877.99	2856.92
878.15	3014.61
878.32	3016.66
878.49	2926.55
878.65	2811.86
878.82	3010.51
878.98	2854.87
879.15	3024.85
879.32	2879.44
879.48	2832.34
879.65	2861.01
879.81	2940.88
879.98	2758.61
880.15	2750.42
880.31	3123.15
880.48	2861.01
880.64	2858.96
880.81	2725.85
880.97	3153.87
881.14	3180.50
881.31	2672.60
881.47	2926.55
881.64	2938.84
881.80	2668.50
881.97	2783.19
882.13	2785.24
882.30	2840.53
882.47	2918.36
882.63	2715.61
882.80	2734.04
882.96	2940.88
883.13	3219.41
883.29	2672.60
883.46	2693.08
883.62	3272.65
883.79	2961.36
883.95	2869.20
884.12	2678.74
884.29	3102.67
884.45	3006.42
884.62	2764.76
884.78	2703.32
884.95	3258.32
885.11	2844.63
885.28	2877.40
885.44	2836.44
885.61	3047.38
885.77	3170.26
885.94	2856.92
886.10	2854.87
886.27	3071.95
886.43	3246.03
886.60	2963.41
886.76	2783.19
886.93	2805.72
887.09	2994.13
887.26	2643.93
887.42	2775.00
887.59	3219.41
887.75	3334.09
887.92	2983.89
888.08	2826.20
888.25	3280.85
888.41	3084.24
888.58	2789.33
888.74	2670.55
888.91	2834.39
>>>>>End Processed Spectral Data<<<<<
