SpectraSuite Data File
++++++++++++++++++++++++++++++++++++
Date: Thu May 05 21:10:56 CEST 2016
User: root
Dark Spectrum Present: No
Reference Spectrum Present: No
Number of Sampled Component Spectra: 1
Spectrometers: USB4C02835
Integration Time (usec): 100000 (USB4C02835)
Spectra Averaged: 1 (USB4C02835)
Boxcar Smoothing: 0 (USB4C02835)
Correct for Electrical Dark: No (USB4C02835)
Strobe/Lamp Enabled: No (USB4C02835)
Correct for Detector Non-linearity: No (USB4C02835)
Correct for Stray Light: No (USB4C02835)
Number of Pixels in Processed Spectrum: 3648
>>>>>Begin Processed Spectral Data<<<<<
177.47	2107.36
177.69	2107.36
177.91	2107.36
178.13	2142.18
178.36	2197.47
178.58	2789.33
178.80	2856.92
179.02	2734.04
179.24	2832.34
179.46	2596.82
179.68	2619.35
179.90	2922.45
180.13	3012.56
180.35	2611.16
180.57	2625.50
180.79	3114.96
181.01	2940.88
181.23	2701.27
181.45	2799.57
181.67	3090.38
181.90	3100.62
182.12	2697.17
182.34	2574.30
182.56	3106.77
182.78	3104.72
183.00	2637.78
183.22	2668.50
183.44	2613.21
183.66	3499.98
183.89	2801.62
184.11	2688.98
184.33	3033.04
184.55	3276.75
184.77	2668.50
184.99	2740.18
185.21	2977.75
185.43	3418.06
185.65	2699.22
185.87	2590.68
186.10	3450.83
186.32	3385.29
186.54	2885.59
186.76	2830.29
186.98	3178.45
187.20	2881.49
187.42	2736.09
187.64	2656.22
187.86	2961.36
188.08	3129.30
188.30	2688.98
188.52	2775.00
188.75	3229.65
188.97	3303.37
189.19	2684.89
189.41	2709.46
189.63	3063.76
189.85	2916.31
190.07	2613.21
190.29	2547.67
190.51	3071.95
190.73	2686.94
190.95	2879.44
191.17	2766.81
191.39	2705.37
191.61	3018.71
191.84	2660.31
192.06	2834.39
192.28	2727.89
192.50	3452.88
192.72	2795.48
192.94	2721.75
193.16	3297.23
193.38	2994.13
193.60	2613.21
193.82	2783.19
194.04	3117.01
194.26	3024.85
194.48	2648.02
194.70	2717.65
194.92	2940.88
195.14	3119.06
195.36	2660.31
195.58	2738.13
195.80	2979.79
196.02	2844.63
196.24	2615.26
196.46	2832.34
196.69	2861.01
196.91	3409.87
197.13	2711.51
197.35	2641.88
197.57	3211.22
197.79	3071.95
198.01	2684.89
198.23	2680.79
198.45	3080.14
198.67	2734.04
198.89	2572.25
199.11	2758.61
199.33	2846.68
199.55	2666.46
199.77	2617.30
199.99	2762.71
200.21	2879.44
200.43	3067.86
200.65	2590.68
200.87	2510.81
201.09	2877.40
201.31	2940.88
201.53	2703.32
201.75	2705.37
201.97	2947.03
202.19	2957.27
202.41	2807.77
202.63	2777.05
202.85	3043.28
203.07	3012.56
203.29	2703.32
203.51	2570.20
203.73	2877.40
203.95	3516.36
204.17	2641.88
204.39	2824.15
204.61	2934.74
204.83	2932.69
205.05	2875.35
205.27	2676.70
205.49	3338.19
205.71	2926.55
205.93	2615.26
206.15	2586.58
206.37	3018.71
206.59	2992.08
206.81	2590.68
207.03	2566.10
207.25	2836.44
207.47	3088.34
207.69	2613.21
207.91	2893.78
208.13	3237.84
208.34	2922.45
208.56	2578.39
208.78	2670.55
209.00	2897.88
209.22	2936.79
209.44	2643.93
209.66	2738.13
209.88	2918.36
210.10	2891.73
210.32	2662.36
210.54	2787.29
210.76	2951.12
210.98	3106.77
211.20	2551.77
211.42	2742.23
211.64	3215.31
211.86	3026.90
212.08	2777.05
212.30	2688.98
212.52	2957.27
212.74	3053.52
212.96	2809.81
213.17	2824.15
213.39	3198.93
213.61	3338.19
213.83	2576.34
214.05	2598.87
214.27	3213.26
214.49	2803.67
214.71	2635.74
214.93	2772.95
215.15	3076.05
215.37	3162.06
215.59	2607.06
215.81	2805.72
216.03	3182.54
216.24	3010.51
216.46	2762.71
216.68	2723.80
216.90	3123.15
217.12	3157.97
217.34	2652.12
217.56	2842.58
217.78	3246.03
218.00	3063.76
218.22	2801.62
218.44	2731.99
218.66	2899.92
218.87	3499.98
219.09	2688.98
219.31	2699.22
219.53	3008.47
219.75	2889.68
219.97	2711.51
220.19	2791.38
220.41	2971.60
220.63	3233.74
220.85	2697.17
221.06	2742.23
221.28	3237.84
221.50	3219.41
221.72	2723.80
221.94	2688.98
222.16	3024.85
222.38	3063.76
222.60	2672.60
222.82	2746.33
223.03	3139.54
223.25	2815.96
223.47	2668.50
223.69	2885.59
223.91	3125.20
224.13	3098.58
224.35	2613.21
224.57	2869.20
224.78	3057.62
225.00	2766.81
225.22	2793.43
225.44	2664.41
225.66	3129.30
225.88	2899.92
226.10	2768.85
226.32	2654.17
226.53	3209.17
226.75	2967.51
226.97	2791.38
227.19	2772.95
227.41	2889.68
227.63	2959.31
227.85	2541.53
228.06	2725.85
228.28	2990.03
228.50	3143.63
228.72	2543.58
228.94	2693.08
229.16	2691.03
229.37	2832.34
229.59	2611.16
229.81	2957.27
230.03	2932.69
230.25	2834.39
230.47	2519.00
230.69	2664.41
230.90	3274.70
231.12	2861.01
231.34	2785.24
231.56	2801.62
231.78	2818.00
232.00	3033.04
232.21	2768.85
232.43	2691.03
232.65	2619.35
232.87	3016.66
233.09	2586.58
233.30	2609.11
233.52	3194.83
233.74	2961.36
233.96	2615.26
234.18	2795.48
234.40	2994.13
234.61	3459.02
234.83	2578.39
235.05	2676.70
235.27	3383.24
235.49	3317.71
235.70	2572.25
235.92	2791.38
236.14	3020.75
236.36	3401.68
236.58	2588.63
236.79	2715.61
237.01	3004.37
237.23	3080.14
237.45	2955.22
237.67	2672.60
237.88	3078.10
238.10	3286.99
238.32	2680.79
238.54	2693.08
238.76	3010.51
238.97	2828.24
239.19	2596.82
239.41	2717.65
239.63	3137.49
239.85	2932.69
240.06	2680.79
240.28	2645.98
240.50	3129.30
240.72	2967.51
240.93	2602.97
241.15	2713.56
241.37	3039.19
241.59	3239.89
241.81	2734.04
242.02	2758.61
242.24	3010.51
242.46	3127.25
242.68	2549.72
242.89	2613.21
243.11	3166.16
243.33	2893.78
243.55	2711.51
243.76	2691.03
243.98	2770.90
244.20	3039.19
244.42	2678.74
244.64	2654.17
244.85	2752.47
245.07	2869.20
245.29	2684.89
245.51	2670.55
245.72	3104.72
245.94	3246.03
246.16	2666.46
246.38	2736.09
246.59	2910.16
246.81	2897.88
247.03	2619.35
247.24	2508.76
247.46	2889.68
247.68	3059.67
247.90	2619.35
248.11	2672.60
248.33	3209.17
248.55	2985.94
248.77	2711.51
248.98	2787.29
249.20	3254.22
249.42	3065.81
249.64	2666.46
249.85	2586.58
250.07	2863.06
250.29	3143.63
250.50	2764.76
250.72	2633.69
250.94	2994.13
251.16	3370.96
251.37	2701.27
251.59	2768.85
251.81	3121.10
252.02	3217.36
252.24	2576.34
252.46	2836.44
252.68	2875.35
252.89	2789.33
253.11	2506.71
253.33	2799.57
253.54	3274.70
253.76	2830.29
253.98	2744.28
254.20	2715.61
254.41	2787.29
254.63	2922.45
254.85	2533.34
255.06	2740.18
255.28	3088.34
255.50	2951.12
255.71	2686.94
255.93	2475.99
256.15	3008.47
256.36	3078.10
256.58	2607.06
256.80	2666.46
257.02	2951.12
257.23	2981.84
257.45	2660.31
257.67	2734.04
257.88	2942.93
258.10	3090.38
258.32	2668.50
258.53	2797.53
258.75	3274.70
258.97	2863.06
259.18	2545.63
259.40	2660.31
259.62	3356.62
259.83	3145.68
260.05	2682.84
260.27	3489.74
260.48	3139.54
260.70	2815.96
260.92	2590.68
261.13	2680.79
261.35	2979.79
261.57	3121.10
261.78	2629.59
262.00	2586.58
262.22	3080.14
262.43	2836.44
262.65	2711.51
262.86	2707.41
263.08	3442.64
263.30	3000.27
263.51	2521.05
263.73	2664.41
263.95	3260.37
264.16	2869.20
264.38	2566.10
264.60	2717.65
264.81	2969.55
265.03	3164.11
265.25	2998.23
265.46	2648.02
265.68	3149.78
265.89	3102.67
266.11	2510.81
266.33	2623.45
266.54	3170.26
266.76	3082.19
266.98	2852.82
267.19	2889.68
267.41	3203.02
267.62	2951.12
267.84	2578.39
268.06	2779.09
268.27	3035.09
268.49	3262.41
268.70	2668.50
268.92	2688.98
269.14	2875.35
269.35	2832.34
269.57	2807.77
269.79	2758.61
270.00	2826.20
270.22	3250.13
270.43	2588.63
270.65	2512.86
270.87	3100.62
271.08	3051.47
271.30	2783.19
271.51	2762.71
271.73	3170.26
271.95	3254.22
272.16	2670.55
272.38	2723.80
272.59	2938.84
272.81	3063.76
273.02	2643.93
273.24	2729.94
273.46	3250.13
273.67	2754.52
273.89	2635.74
274.10	2711.51
274.32	3190.74
274.54	2983.89
274.75	2822.10
274.97	2684.89
275.18	3094.48
275.40	3063.76
275.61	2725.85
275.83	2787.29
276.05	2826.20
276.26	2932.69
276.48	2742.23
276.69	2828.24
276.91	2916.31
277.12	3241.93
277.34	2820.05
277.55	2899.92
277.77	3002.32
277.99	2957.27
278.20	2795.48
278.42	2715.61
278.63	2885.59
278.85	2822.10
279.06	2797.53
279.28	2916.31
279.49	3256.27
279.71	3110.86
279.93	2879.44
280.14	2844.63
280.36	2908.12
280.57	3088.34
280.79	2840.53
281.00	2713.56
281.22	2926.55
281.43	3200.98
281.65	2566.10
281.86	2729.94
282.08	3024.85
282.29	3303.37
282.51	2744.28
282.73	2748.37
282.94	2766.81
283.16	3133.39
283.37	2961.36
283.59	2768.85
283.80	3039.19
284.02	3098.58
284.23	2901.97
284.45	2822.10
284.66	2867.16
284.88	2852.82
285.09	2731.99
285.31	2842.58
285.52	2996.18
285.74	2662.36
285.95	3047.38
286.17	2791.38
286.38	3170.26
286.60	2856.92
286.81	2750.42
287.03	2748.37
287.24	3010.51
287.46	3012.56
287.67	2867.16
287.89	3043.28
288.10	2985.94
288.32	2951.12
288.53	2985.94
288.75	2908.12
288.96	3006.42
289.18	2957.27
289.39	2738.13
289.61	2871.25
289.82	3393.48
290.04	3340.24
290.25	2693.08
290.47	2891.73
290.68	2953.17
290.90	3207.12
291.11	2619.35
291.33	2969.55
291.54	2861.01
291.76	2889.68
291.97	2828.24
292.18	2813.91
292.40	2824.15
292.61	2926.55
292.83	3155.92
293.04	2861.01
293.26	3020.75
293.47	2940.88
293.69	2645.98
293.90	2721.75
294.12	3112.91
294.33	3004.37
294.55	2832.34
294.76	2883.54
294.97	3178.45
295.19	3467.21
295.40	2824.15
295.62	2910.16
295.83	3133.39
296.05	2815.96
296.26	2977.75
296.48	2856.92
296.69	3012.56
296.90	2981.84
297.12	2932.69
297.33	2891.73
297.55	2987.99
297.76	3051.47
297.98	2883.54
298.19	2928.60
298.41	2910.16
298.62	2852.82
298.83	2944.98
299.05	2912.21
299.26	2930.64
299.48	2844.63
299.69	2891.73
299.90	2772.95
300.12	2881.49
300.33	3084.24
300.55	2916.31
300.76	2879.44
300.98	2822.10
301.19	3057.62
301.40	2869.20
301.62	2740.18
301.83	3049.43
302.05	2975.70
302.26	2813.91
302.47	2893.78
302.69	2805.72
302.90	2965.46
303.12	2580.44
303.33	2879.44
303.54	3231.69
303.76	2922.45
303.97	2822.10
304.19	2996.18
304.40	2842.58
304.61	3100.62
304.83	2932.69
305.04	2879.44
305.26	3129.30
305.47	2877.40
305.68	2865.11
305.90	2725.85
306.11	3200.98
306.33	2983.89
306.54	2594.78
306.75	2762.71
306.97	2742.23
307.18	2842.58
307.39	2752.47
307.61	2920.40
307.82	2895.83
308.04	3090.38
308.25	2688.98
308.46	2918.36
308.68	2955.22
308.89	2981.84
309.10	2934.74
309.32	2861.01
309.53	3059.67
309.74	3090.38
309.96	2709.46
310.17	2910.16
310.39	2899.92
310.60	3094.48
310.81	2848.72
311.03	2758.61
311.24	3114.96
311.45	2942.93
311.67	3043.28
311.88	2940.88
312.09	2885.59
312.31	2858.96
312.52	2791.38
312.73	2779.09
312.95	2775.00
313.16	2818.00
313.37	2897.88
313.59	3008.47
313.80	3141.58
314.01	3284.94
314.23	2856.92
314.44	2748.37
314.65	2742.23
314.87	2832.34
315.08	2760.66
315.29	2693.08
315.51	2820.05
315.72	2748.37
315.93	2875.35
316.15	2879.44
316.36	2861.01
316.57	3012.56
316.79	2797.53
317.00	2744.28
317.21	3147.73
317.43	2840.53
317.64	2889.68
317.85	2705.37
318.07	2858.96
318.28	2885.59
318.49	2828.24
318.70	3020.75
318.92	2957.27
319.13	3035.09
319.34	3012.56
319.56	2826.20
319.77	3102.67
319.98	3071.95
320.20	2938.84
320.41	2867.16
320.62	3114.96
320.83	2807.77
321.05	3033.04
321.26	2834.39
321.47	2996.18
321.69	3155.92
321.90	2738.13
322.11	2783.19
322.32	3041.23
322.54	3237.84
322.75	2805.72
322.96	3575.75
323.18	2742.23
323.39	2686.94
323.60	2660.31
323.81	2934.74
324.03	2871.25
324.24	3041.23
324.45	2918.36
324.66	2754.52
324.88	3194.83
325.09	3182.54
325.30	2785.24
325.52	2740.18
325.73	3078.10
325.94	2906.07
326.15	2695.13
326.37	2654.17
326.58	3112.91
326.79	3266.51
327.00	2828.24
327.22	2805.72
327.43	2930.64
327.64	2768.85
327.85	2932.69
328.07	2799.57
328.28	3391.44
328.49	2930.64
328.70	2854.87
328.92	2818.00
329.13	2949.08
329.34	3074.00
329.55	3037.14
329.76	2942.93
329.98	2873.30
330.19	3205.07
330.40	2830.29
330.61	2854.87
330.83	3141.58
331.04	2818.00
331.25	2856.92
331.46	2738.13
331.68	2709.46
331.89	3160.02
332.10	2842.58
332.31	2641.88
332.52	2953.17
332.74	3117.01
332.95	2611.16
333.16	2752.47
333.37	3119.06
333.58	2762.71
333.80	2738.13
334.01	2592.73
334.22	2883.54
334.43	2985.94
334.64	2873.30
334.86	2729.94
335.07	2754.52
335.28	3174.35
335.49	2754.52
335.70	2813.91
335.92	3272.65
336.13	3413.96
336.34	2885.59
336.55	2805.72
336.76	3024.85
336.98	2721.75
337.19	2785.24
337.40	2889.68
337.61	3504.07
337.82	2813.91
338.04	2877.40
338.25	2631.64
338.46	2985.94
338.67	2965.46
338.88	2758.61
339.09	2598.87
339.31	2856.92
339.52	2777.05
339.73	2748.37
339.94	2838.48
340.15	3125.20
340.36	2836.44
340.58	2840.53
340.79	2742.23
341.00	3061.71
341.21	2775.00
341.42	3092.43
341.63	2742.23
341.85	3104.72
342.06	3041.23
342.27	2752.47
342.48	2893.78
342.69	2756.57
342.90	3063.76
343.12	3172.30
343.33	2691.03
343.54	3147.73
343.75	3270.61
343.96	2863.06
344.17	2729.94
344.38	2879.44
344.60	2818.00
344.81	2742.23
345.02	2844.63
345.23	3127.25
345.44	3588.04
345.65	2869.20
345.86	2887.64
346.07	2906.07
346.29	2895.83
346.50	2906.07
346.71	2897.88
346.92	3231.69
347.13	3444.68
347.34	2881.49
347.55	2668.50
347.76	3078.10
347.98	2803.67
348.19	2822.10
348.40	2957.27
348.61	2861.01
348.82	3205.07
349.03	2920.40
349.24	2723.80
349.45	3409.87
349.66	2652.12
349.88	2772.95
350.09	2705.37
350.30	3188.69
350.51	3237.84
350.72	2979.79
350.93	2820.05
351.14	2836.44
351.35	3008.47
351.56	2789.33
351.77	2805.72
351.99	3078.10
352.20	3262.41
352.41	2893.78
352.62	2691.03
352.83	3006.42
353.04	3000.27
353.25	2809.81
353.46	2795.48
353.67	3102.67
353.88	2711.51
354.09	2701.27
354.30	2834.39
354.52	3080.14
354.73	3002.32
354.94	2861.01
355.15	2869.20
355.36	3334.09
355.57	2908.12
355.78	2787.29
355.99	2754.52
356.20	2942.93
356.41	3213.26
356.62	2936.79
356.83	2727.89
357.04	3233.74
357.25	2557.91
357.46	2717.65
357.68	2682.84
357.89	2828.24
358.10	2938.84
358.31	2760.66
358.52	2836.44
358.73	2852.82
358.94	2772.95
359.15	2779.09
359.36	2811.86
359.57	3018.71
359.78	2891.73
359.99	3061.71
360.20	2660.31
360.41	2914.26
360.62	3084.24
360.83	2926.55
361.04	2815.96
361.25	3057.62
361.46	3213.26
361.67	2906.07
361.88	2791.38
362.09	3209.17
362.30	3008.47
362.51	2754.52
362.72	2828.24
362.93	3114.96
363.14	3080.14
363.35	2861.01
363.56	2693.08
363.78	3143.63
363.99	3133.39
364.20	2775.00
364.41	2852.82
364.62	3321.81
364.83	3053.52
365.04	2846.68
365.25	2938.84
365.46	3334.09
365.67	2895.83
365.88	2891.73
366.09	2750.42
366.30	2928.60
366.51	3006.42
366.72	2725.85
366.93	2785.24
367.14	3051.47
367.35	3239.89
367.56	2783.19
367.77	3035.09
367.98	3030.99
368.18	3016.66
368.39	2924.50
368.60	2801.62
368.81	3061.71
369.02	3047.38
369.23	2770.90
369.44	2688.98
369.65	2930.64
369.86	3147.73
370.07	2940.88
370.28	2713.56
370.49	3030.99
370.70	3018.71
370.91	2686.94
371.12	2738.13
371.33	3190.74
371.54	2826.20
371.75	2934.74
371.96	2559.96
372.17	3043.28
372.38	2994.13
372.59	2832.34
372.80	2811.86
373.01	2926.55
373.22	3012.56
373.43	2867.16
373.64	2686.94
373.85	3303.37
374.06	3258.32
374.26	2940.88
374.47	2949.08
374.68	3209.17
374.89	3059.67
375.10	2777.05
375.31	2840.53
375.52	3012.56
375.73	2938.84
375.94	2656.22
376.15	2928.60
376.36	2891.73
376.57	2871.25
376.78	2768.85
376.99	2824.15
377.20	3205.07
377.40	2889.68
377.61	3055.57
377.82	2785.24
378.03	3264.46
378.24	3078.10
378.45	2820.05
378.66	2910.16
378.87	2729.94
379.08	2756.57
379.29	2879.44
379.50	2889.68
379.71	3030.99
379.91	3063.76
380.12	2801.62
380.33	2846.68
380.54	2965.46
380.75	3071.95
380.96	2738.13
381.17	2844.63
381.38	3084.24
381.59	3035.09
381.80	2879.44
382.00	2975.70
382.21	3090.38
382.42	3321.81
382.63	3153.87
382.84	2846.68
383.05	3164.11
383.26	3346.38
383.47	2947.03
383.68	2795.48
383.88	3043.28
384.09	3125.20
384.30	3049.43
384.51	2967.51
384.72	2918.36
384.93	2811.86
385.14	2869.20
385.35	3057.62
385.55	2717.65
385.76	3155.92
385.97	2807.77
386.18	2736.09
386.39	2818.00
386.60	2916.31
386.81	2729.94
387.02	2766.81
387.22	2742.23
387.43	3092.43
387.64	2947.03
387.85	3084.24
388.06	2963.41
388.27	3954.63
388.48	7284.62
388.68	10768.22
388.89	13326.13
389.10	14632.74
389.31	13926.19
389.52	11247.44
389.73	9762.67
389.93	9056.12
390.14	7985.03
390.35	7296.91
390.56	6762.39
390.77	5703.59
390.98	4274.11
391.18	3657.67
391.39	3370.96
391.60	2998.23
391.81	3074.00
392.02	2838.48
392.23	3387.34
392.43	3090.38
392.64	3051.47
392.85	2854.87
393.06	3223.50
393.27	2951.12
393.47	2797.53
393.68	2920.40
393.89	2901.97
394.10	3213.26
394.31	2807.77
394.52	2756.57
394.72	2996.18
394.93	3176.40
395.14	2670.55
395.35	2961.36
395.56	2861.01
395.76	2994.13
395.97	2807.77
396.18	2881.49
396.39	2959.31
396.60	3629.00
396.80	3200.98
397.01	2926.55
397.22	3114.96
397.43	3180.50
397.64	2779.09
397.84	2926.55
398.05	3375.05
398.26	2994.13
398.47	2926.55
398.67	2971.60
398.88	3063.76
399.09	3006.42
399.30	2832.34
399.51	2887.64
399.71	2830.29
399.92	2985.94
400.13	2977.75
400.34	2811.86
400.54	2971.60
400.75	3178.45
400.96	2949.08
401.17	3131.34
401.37	3127.25
401.58	2951.12
401.79	2895.83
402.00	3002.32
402.21	3387.34
402.41	3117.01
402.62	3147.73
402.83	3229.65
403.04	3338.19
403.24	3653.58
403.45	3041.23
403.66	3094.48
403.87	3205.07
404.07	3250.13
404.28	3076.05
404.49	3131.34
404.70	3098.58
404.90	3137.49
405.11	2891.73
405.32	3045.33
405.52	2889.68
405.73	2879.44
405.94	2742.23
406.15	2865.11
406.35	3069.91
406.56	3153.87
406.77	2926.55
406.98	2908.12
407.18	2854.87
407.39	3303.37
407.60	2824.15
407.80	2887.64
408.01	2961.36
408.22	3037.14
408.43	2789.33
408.63	2897.88
408.84	3037.14
409.05	3151.82
409.25	2719.70
409.46	2764.76
409.67	2846.68
409.88	2824.15
410.08	2920.40
410.29	2721.75
410.50	3117.01
410.70	3002.32
410.91	2809.81
411.12	2852.82
411.32	3026.90
411.53	2840.53
411.74	2844.63
411.95	2916.31
412.15	3016.66
412.36	3125.20
412.57	3020.75
412.77	3008.47
412.98	3000.27
413.19	2940.88
413.39	2922.45
413.60	2899.92
413.81	3205.07
414.01	2789.33
414.22	2881.49
414.43	3006.42
414.63	2953.17
414.84	3049.43
415.05	2908.12
415.25	2637.78
415.46	3082.19
415.67	2883.54
415.87	2877.40
416.08	2844.63
416.29	3014.61
416.49	3112.91
416.70	2799.57
416.91	2908.12
417.11	2992.08
417.32	3157.97
417.53	2914.26
417.73	2856.92
417.94	2975.70
418.15	3057.62
418.35	2877.40
418.56	2916.31
418.77	3399.63
418.97	2963.41
419.18	2885.59
419.38	2488.28
419.59	2947.03
419.80	3246.03
420.00	2850.77
420.21	2826.20
420.42	3221.45
420.62	3065.81
420.83	2836.44
421.04	2844.63
421.24	3020.75
421.45	3086.29
421.65	2838.48
421.86	2824.15
422.07	3172.30
422.27	3084.24
422.48	2844.63
422.69	2711.51
422.89	2992.08
423.10	2930.64
423.30	2754.52
423.51	2867.16
423.72	3080.14
423.92	3168.21
424.13	2686.94
424.33	2916.31
424.54	3065.81
424.75	3069.91
424.95	3106.77
425.16	2768.85
425.36	2940.88
425.57	3151.82
425.78	3000.27
425.98	2992.08
426.19	2924.50
426.39	2838.48
426.60	2899.92
426.81	2953.17
427.01	2959.31
427.22	2861.01
427.42	2656.22
427.63	2770.90
427.83	3076.05
428.04	3252.17
428.25	2942.93
428.45	2942.93
428.66	3227.60
428.86	2975.70
429.07	2910.16
429.28	2838.48
429.48	2928.60
429.69	2766.81
429.89	3039.19
430.10	2729.94
430.30	3026.90
430.51	3221.45
430.71	2742.23
430.92	2889.68
431.13	2918.36
431.33	3080.14
431.54	2959.31
431.74	3112.91
431.95	3282.89
432.15	2811.86
432.36	2867.16
432.56	2838.48
432.77	3344.33
432.98	3293.13
433.18	2899.92
433.39	2748.37
433.59	3000.27
433.80	3252.17
434.00	3043.28
434.21	2856.92
434.41	2885.59
434.62	3295.18
434.82	2777.05
435.03	2818.00
435.23	3049.43
435.44	2670.55
435.64	2797.53
435.85	2824.15
436.06	3145.68
436.26	3192.78
436.47	2799.57
436.67	2756.57
436.88	2949.08
437.08	3100.62
437.29	2949.08
437.49	2963.41
437.70	3131.34
437.90	3045.33
438.11	3022.80
438.31	2906.07
438.52	3254.22
438.72	3207.12
438.93	3133.39
439.13	2940.88
439.34	3090.38
439.54	2953.17
439.75	2934.74
439.95	2961.36
440.16	2834.39
440.36	2922.45
440.57	2824.15
440.77	2846.68
440.98	3028.95
441.18	3114.96
441.39	2842.58
441.59	2707.41
441.80	3430.35
442.00	2897.88
442.21	2949.08
442.41	2699.22
442.62	3166.16
442.82	2912.21
443.02	2723.80
443.23	2875.35
443.43	2873.30
443.64	3235.79
443.84	2779.09
444.05	2918.36
444.25	3018.71
444.46	2996.18
444.66	2768.85
444.87	3084.24
445.07	2670.55
445.28	2924.50
445.48	3026.90
445.69	2971.60
445.89	3409.87
446.09	2969.55
446.30	3168.21
446.50	3225.55
446.71	4796.34
446.91	5726.12
447.12	6594.46
447.32	6975.38
447.53	6983.57
447.73	5777.32
447.93	4978.61
448.14	4816.82
448.34	4775.86
448.55	4032.45
448.75	4014.02
448.96	3913.67
449.16	3676.10
449.36	3520.46
449.57	3014.61
449.77	2916.31
449.98	2899.92
450.18	3086.29
450.39	2791.38
450.59	2996.18
450.79	3030.99
451.00	2897.88
451.20	2992.08
451.41	2838.48
451.61	3121.10
451.81	3006.42
452.02	2803.67
452.22	2852.82
452.43	2910.16
452.63	2918.36
452.84	2914.26
453.04	2758.61
453.24	3039.19
453.45	2871.25
453.65	2873.30
453.86	2822.10
454.06	3037.14
454.26	3002.32
454.47	2775.00
454.67	3012.56
454.87	3024.85
455.08	2971.60
455.28	3022.80
455.49	3024.85
455.69	2838.48
455.89	3356.62
456.10	2994.13
456.30	2791.38
456.51	3125.20
456.71	3096.53
456.91	2932.69
457.12	2856.92
457.32	3074.00
457.52	2797.53
457.73	2979.79
457.93	3012.56
458.14	2971.60
458.34	2734.04
458.54	2869.20
458.75	2848.72
458.95	3211.22
459.15	3020.75
459.36	2934.74
459.56	2885.59
459.76	3422.16
459.97	3024.85
460.17	2879.44
460.37	2936.79
460.58	2983.89
460.78	3108.82
460.99	2815.96
461.19	2842.58
461.39	2992.08
461.60	2936.79
461.80	2920.40
462.00	2697.17
462.21	2967.51
462.41	2867.16
462.61	2793.43
462.82	2639.83
463.02	3114.96
463.22	3018.71
463.43	2947.03
463.63	2787.29
463.83	3227.60
464.04	3071.95
464.24	2850.77
464.44	2828.24
464.64	3041.23
464.85	3102.67
465.05	2895.83
465.25	2842.58
465.46	2879.44
465.66	3090.38
465.86	3006.42
466.07	2787.29
466.27	2979.79
466.47	2721.75
466.68	2721.75
466.88	3018.71
467.08	3172.30
467.29	3207.12
467.49	2875.35
467.69	2914.26
467.89	3055.57
468.10	2957.27
468.30	2889.68
468.50	2996.18
468.71	3100.62
468.91	2830.29
469.11	2975.70
469.31	2928.60
469.52	2840.53
469.72	3330.00
469.92	3108.82
470.13	2893.78
470.33	2990.03
470.53	2971.60
470.73	3262.41
470.94	3481.55
471.14	3649.48
471.34	4186.05
471.54	3854.28
471.75	3614.66
471.95	3403.72
472.15	3219.41
472.36	3377.10
472.56	3289.04
472.76	3450.83
472.96	3307.47
473.17	3119.06
473.37	2926.55
473.57	2820.05
473.77	3106.77
473.98	2940.88
474.18	2723.80
474.38	3528.65
474.58	2877.40
474.79	2723.80
474.99	2963.41
475.19	3297.23
475.39	2856.92
475.60	3022.80
475.80	2838.48
476.00	3092.43
476.20	2910.16
476.41	3000.27
476.61	2899.92
476.81	3176.40
477.01	2799.57
477.21	3057.62
477.42	2951.12
477.62	2887.64
477.82	3076.05
478.02	2826.20
478.23	2865.11
478.43	2815.96
478.63	2926.55
478.83	2801.62
479.03	2850.77
479.24	3297.23
479.44	3262.41
479.64	2768.85
479.84	2703.32
480.04	2861.01
480.25	3155.92
480.45	2750.42
480.65	2830.29
480.85	3223.50
481.06	2985.94
481.26	2951.12
481.46	2871.25
481.66	3074.00
481.86	2758.61
482.06	3045.33
482.27	2887.64
482.47	2998.23
482.67	3043.28
482.87	2766.81
483.07	2877.40
483.28	2871.25
483.48	2766.81
483.68	2801.62
483.88	2768.85
484.08	2664.41
484.29	2828.24
484.49	2928.60
484.69	2670.55
484.89	3233.74
485.09	3160.02
485.29	2934.74
485.50	3041.23
485.70	2863.06
485.90	3198.93
486.10	3002.32
486.30	2899.92
486.50	3235.79
486.71	3026.90
486.91	2924.50
487.11	2967.51
487.31	2738.13
487.51	3082.19
487.71	2723.80
487.91	2740.18
488.12	2818.00
488.32	2680.79
488.52	2873.30
488.72	2615.26
488.92	2969.55
489.12	3196.88
489.32	2920.40
489.53	2846.68
489.73	2738.13
489.93	3313.61
490.13	2824.15
490.33	2637.78
490.53	3051.47
490.73	3141.58
490.94	2709.46
491.14	2979.79
491.34	3096.53
491.54	3010.51
491.74	3694.54
491.94	4272.06
492.14	4609.98
492.34	4700.09
492.54	4462.52
492.75	3762.12
492.95	3729.35
493.15	3557.32
493.35	3524.55
493.55	3442.64
493.75	3360.72
493.95	3467.21
494.15	3037.14
494.35	2938.84
494.56	2920.40
494.76	2832.34
494.96	3047.38
495.16	2811.86
495.36	3121.10
495.56	3014.61
495.76	2869.20
495.96	2785.24
496.16	2809.81
496.36	3397.58
496.56	2830.29
496.77	2953.17
496.97	2967.51
497.17	3141.58
497.37	2580.44
497.57	2979.79
497.77	2852.82
497.97	2830.29
498.17	2865.11
498.37	2912.21
498.57	3045.33
498.77	2916.31
498.97	2971.60
499.17	3196.88
499.38	3041.23
499.58	3024.85
499.78	3018.71
499.98	3026.90
500.18	2942.93
500.38	2873.30
500.58	3030.99
500.78	3395.53
500.98	5566.38
501.18	7335.82
501.38	8753.02
501.58	9576.30
501.78	9705.32
501.98	8046.47
502.18	6670.23
502.38	5832.62
502.58	5650.35
502.78	5029.81
502.98	4853.69
503.18	4788.15
503.38	4419.52
503.59	3700.68
503.79	3606.47
503.99	3422.16
504.19	3424.20
504.39	3520.46
504.59	3192.78
504.79	3194.83
504.99	3510.22
505.19	3192.78
505.39	3082.19
505.59	3200.98
505.79	3315.66
505.99	3141.58
506.19	2887.64
506.39	3190.74
506.59	2906.07
506.79	2910.16
506.99	3016.66
507.19	2877.40
507.39	3149.78
507.59	2813.91
507.79	2826.20
507.99	2787.29
508.19	2947.03
508.39	2967.51
508.59	2873.30
508.79	3002.32
508.99	3272.65
509.19	2901.97
509.39	2865.11
509.59	2772.95
509.79	2848.72
509.99	2963.41
510.19	2967.51
510.39	2957.27
510.59	3055.57
510.79	2854.87
510.99	2699.22
511.19	2811.86
511.39	3233.74
511.59	3207.12
511.79	3061.71
511.99	2879.44
512.19	3229.65
512.38	3012.56
512.58	2893.78
512.78	2754.52
512.98	3254.22
513.18	3248.08
513.38	2705.37
513.58	2971.60
513.78	3033.04
513.98	2901.97
514.18	2746.33
514.38	2791.38
514.58	3051.47
514.78	2871.25
514.98	2738.13
515.18	2840.53
515.38	2789.33
515.58	3348.43
515.78	2865.11
515.98	2875.35
516.18	3096.53
516.38	3012.56
516.57	2840.53
516.77	2803.67
516.97	3143.63
517.17	2846.68
517.37	2627.54
517.57	2957.27
517.77	3010.51
517.97	2920.40
518.17	2959.31
518.37	2723.80
518.57	2832.34
518.77	2938.84
518.97	2852.82
519.16	2899.92
519.36	3211.22
519.56	2826.20
519.76	2844.63
519.96	2940.88
520.16	3307.47
520.36	2811.86
520.56	3090.38
520.76	2785.24
520.96	2957.27
521.16	3125.20
521.35	3026.90
521.55	3043.28
521.75	3016.66
521.95	2932.69
522.15	2799.57
522.35	2641.88
522.55	2791.38
522.75	3094.48
522.95	2797.53
523.14	2629.59
523.34	3090.38
523.54	2893.78
523.74	2953.17
523.94	2938.84
524.14	2674.65
524.34	3088.34
524.54	3088.34
524.73	2904.02
524.93	3059.67
525.13	3088.34
525.33	2815.96
525.53	3065.81
525.73	3190.74
525.93	3104.72
526.13	2840.53
526.32	2838.48
526.52	3164.11
526.72	3155.92
526.92	2844.63
527.12	2738.13
527.32	2691.03
527.52	3033.04
527.71	2910.16
527.91	2887.64
528.11	2906.07
528.31	3002.32
528.51	2766.81
528.71	3049.43
528.90	3094.48
529.10	3198.93
529.30	2955.22
529.50	2641.88
529.70	3100.62
529.90	2916.31
530.09	2879.44
530.29	2740.18
530.49	2805.72
530.69	3461.07
530.89	2967.51
531.09	2926.55
531.28	2934.74
531.48	3190.74
531.68	2895.83
531.88	2904.02
532.08	3145.68
532.28	2983.89
532.47	2957.27
532.67	2928.60
532.87	3147.73
533.07	2795.48
533.27	2889.68
533.46	2861.01
533.66	3033.04
533.86	2953.17
534.06	2965.46
534.26	2826.20
534.45	2922.45
534.65	3084.24
534.85	2967.51
535.05	2822.10
535.25	3131.34
535.44	2721.75
535.64	2990.03
535.84	2871.25
536.04	2932.69
536.24	2928.60
536.43	2815.96
536.63	2885.59
536.83	2924.50
537.03	2963.41
537.22	2668.50
537.42	2654.17
537.62	2967.51
537.82	2840.53
538.02	3051.47
538.21	2916.31
538.41	3526.60
538.61	3018.71
538.81	2828.24
539.00	2930.64
539.20	2695.13
539.40	2899.92
539.60	2897.88
539.79	3067.86
539.99	2983.89
540.19	2858.96
540.39	2822.10
540.58	2856.92
540.78	3151.82
540.98	3010.51
541.18	3166.16
541.37	2957.27
541.57	2973.65
541.77	3024.85
541.97	2750.42
542.16	2648.02
542.36	2963.41
542.56	2861.01
542.76	3016.66
542.95	2983.89
543.15	3026.90
543.35	3127.25
543.54	2768.85
543.74	2766.81
543.94	3213.26
544.14	2869.20
544.33	3016.66
544.53	2854.87
544.73	2942.93
544.93	2930.64
545.12	2869.20
545.32	2842.58
545.52	2930.64
545.71	2707.41
545.91	2785.24
546.11	2787.29
546.30	2787.29
546.50	2936.79
546.70	2967.51
546.90	2830.29
547.09	2697.17
547.29	3033.04
547.49	3018.71
547.68	2820.05
547.88	2826.20
548.08	3063.76
548.27	3233.74
548.47	2754.52
548.67	2850.77
548.87	3035.09
549.06	2852.82
549.26	2801.62
549.46	3078.10
549.65	2885.59
549.85	2871.25
550.05	2891.73
550.24	2686.94
550.44	3006.42
550.64	2916.31
550.83	2906.07
551.03	3299.28
551.23	3100.62
551.42	2899.92
551.62	2899.92
551.82	2963.41
552.01	2979.79
552.21	3020.75
552.41	2930.64
552.60	3235.79
552.80	3022.80
553.00	2846.68
553.19	2914.26
553.39	3350.48
553.59	2752.47
553.78	2920.40
553.98	2775.00
554.17	2770.90
554.37	3076.05
554.57	2940.88
554.76	2695.13
554.96	2897.88
555.16	2969.55
555.35	2938.84
555.55	3074.00
555.75	3041.23
555.94	3076.05
556.14	2686.94
556.33	2965.46
556.53	2967.51
556.73	2992.08
556.92	2977.75
557.12	2889.68
557.32	3264.46
557.51	3231.69
557.71	2883.54
557.90	3082.19
558.10	3254.22
558.30	2979.79
558.49	2815.96
558.69	2818.00
558.88	3084.24
559.08	3026.90
559.28	2838.48
559.47	2936.79
559.67	3076.05
559.86	3336.14
560.06	2748.37
560.26	2852.82
560.45	2955.22
560.65	2912.21
560.84	3059.67
561.04	2781.14
561.24	3080.14
561.43	2772.95
561.63	3061.71
561.82	2971.60
562.02	3102.67
562.22	2893.78
562.41	2719.70
562.61	2815.96
562.80	2807.77
563.00	3424.20
563.19	2906.07
563.39	3008.47
563.59	3131.34
563.78	2828.24
563.98	2678.74
564.17	2799.57
564.37	2775.00
564.56	2916.31
564.76	2729.94
564.96	2975.70
565.15	3053.52
565.35	3446.73
565.54	2836.44
565.74	2865.11
565.93	3000.27
566.13	2992.08
566.32	2893.78
566.52	2920.40
566.71	3024.85
566.91	3098.58
567.11	2994.13
567.30	2779.09
567.50	3057.62
567.69	2992.08
567.89	2828.24
568.08	2699.22
568.28	3119.06
568.47	2750.42
568.67	2904.02
568.86	2861.01
569.06	3100.62
569.25	2944.98
569.45	2717.65
569.64	2811.86
569.84	2908.12
570.04	3049.43
570.23	2856.92
570.43	2875.35
570.62	2990.03
570.82	3309.52
571.01	2750.42
571.21	2785.24
571.40	2815.96
571.60	3166.16
571.79	2967.51
571.99	2887.64
572.18	2783.19
572.38	3030.99
572.57	2951.12
572.77	2951.12
572.96	3440.59
573.16	3018.71
573.35	2908.12
573.55	3039.19
573.74	3063.76
573.94	2953.17
574.13	2889.68
574.33	2992.08
574.52	3215.31
574.71	3002.32
574.91	3020.75
575.10	2738.13
575.30	2957.27
575.49	2856.92
575.69	2781.14
575.88	2795.48
576.08	2926.55
576.27	3078.10
576.47	2729.94
576.66	2953.17
576.86	3229.65
577.05	3065.81
577.25	2969.55
577.44	3008.47
577.64	2938.84
577.83	3157.97
578.02	2813.91
578.22	3071.95
578.41	3239.89
578.61	2975.70
578.80	2693.08
579.00	2961.36
579.19	2885.59
579.39	3092.43
579.58	2944.98
579.77	2897.88
579.97	3178.45
580.16	3207.12
580.36	3039.19
580.55	2893.78
580.75	3092.43
580.94	2953.17
581.13	3039.19
581.33	3131.34
581.52	2961.36
581.72	3377.10
581.91	2973.65
582.11	2760.66
582.30	3192.78
582.49	3094.48
582.69	3147.73
582.88	2934.74
583.08	3018.71
583.27	3133.39
583.47	2924.50
583.66	2844.63
583.85	2881.49
584.05	2885.59
584.24	2928.60
584.44	2908.12
584.63	3194.83
584.82	3155.92
585.02	3137.49
585.21	3008.47
585.41	3117.01
585.60	3080.14
585.79	3092.43
585.99	3129.30
586.18	3123.15
586.37	3913.67
586.57	5834.66
586.76	16568.07
586.96	35667.42
587.15	48821.53
587.34	57150.62
587.54	61211.74
587.73	54314.18
587.93	38962.61
588.12	29716.03
588.31	24166.03
588.51	21130.94
588.70	19656.40
588.89	17270.52
589.09	14812.96
589.28	12439.36
589.47	10016.62
589.67	7571.34
589.86	5795.75
590.06	4624.31
590.25	4163.52
590.44	3559.37
590.64	3286.99
590.83	3252.17
591.02	3223.50
591.22	2932.69
591.41	2959.31
591.60	2983.89
591.80	3395.53
591.99	2770.90
592.18	2813.91
592.38	3100.62
592.57	2942.93
592.76	2932.69
592.96	3041.23
593.15	3002.32
593.34	3250.13
593.54	2844.63
593.73	2920.40
593.92	3090.38
594.12	3057.62
594.31	2924.50
594.50	2981.84
594.70	3149.78
594.89	3483.59
595.08	2807.77
595.28	2975.70
595.47	3592.14
595.66	3168.21
595.86	2742.23
596.05	2799.57
596.24	2938.84
596.43	3276.75
596.63	2910.16
596.82	3043.28
597.01	3080.14
597.21	3360.72
597.40	2854.87
597.59	2924.50
597.79	2971.60
597.98	3076.05
598.17	2985.94
598.36	2879.44
598.56	3141.58
598.75	2867.16
598.94	2924.50
599.14	2858.96
599.33	2891.73
599.52	3198.93
599.71	2985.94
599.91	2895.83
600.10	3004.37
600.29	2928.60
600.48	3008.47
600.68	2930.64
600.87	3067.86
601.06	2924.50
601.26	2910.16
601.45	2975.70
601.64	2938.84
601.83	3190.74
602.03	2828.24
602.22	2754.52
602.41	3174.35
602.60	3416.01
602.80	3024.85
602.99	2985.94
603.18	2840.53
603.37	3024.85
603.57	2824.15
603.76	2928.60
603.95	3170.26
604.14	2869.20
604.34	2797.53
604.53	2815.96
604.72	3010.51
604.91	3112.91
605.10	2875.35
605.30	2719.70
605.49	3395.53
605.68	3026.90
605.87	2936.79
606.07	2772.95
606.26	2949.08
606.45	3076.05
606.64	2865.11
606.84	2803.67
607.03	2992.08
607.22	3143.63
607.41	2869.20
607.60	2885.59
607.80	3141.58
607.99	3014.61
608.18	2912.21
608.37	2944.98
608.56	2873.30
608.76	3145.68
608.95	3065.81
609.14	2818.00
609.33	3176.40
609.52	3307.47
609.72	2920.40
609.91	3041.23
610.10	3071.95
610.29	3145.68
610.48	2947.03
610.68	2969.55
610.87	2924.50
611.06	3155.92
611.25	2785.24
611.44	2981.84
611.63	2951.12
611.83	3157.97
612.02	2764.76
612.21	2944.98
612.40	2660.31
612.59	2834.39
612.79	2881.49
612.98	2912.21
613.17	3266.51
613.36	2912.21
613.55	3012.56
613.74	2863.06
613.93	2949.08
614.13	3049.43
614.32	3053.52
614.51	2971.60
614.70	2947.03
614.89	2994.13
615.08	2926.55
615.28	3258.32
615.47	2779.09
615.66	3055.57
615.85	2934.74
616.04	2977.75
616.23	2971.60
616.42	2934.74
616.62	2914.26
616.81	2836.44
617.00	2967.51
617.19	3063.76
617.38	2801.62
617.57	2887.64
617.76	3108.82
617.95	3086.29
618.15	2971.60
618.34	3248.08
618.53	2797.53
618.72	3119.06
618.91	2906.07
619.10	2947.03
619.29	3016.66
619.48	3002.32
619.68	2787.29
619.87	2881.49
620.06	2736.09
620.25	3098.58
620.44	2795.48
620.63	2877.40
620.82	3096.53
621.01	2998.23
621.20	2897.88
621.39	2897.88
621.59	3049.43
621.78	2998.23
621.97	2877.40
622.16	2983.89
622.35	3082.19
622.54	3164.11
622.73	2969.55
622.92	2660.31
623.11	3131.34
623.30	2961.36
623.49	2934.74
623.68	2734.04
623.88	3254.22
624.07	2836.44
624.26	2848.72
624.45	2934.74
624.64	2971.60
624.83	3039.19
625.02	2838.48
625.21	2901.97
625.40	3102.67
625.59	3229.65
625.78	2895.83
625.97	2883.54
626.16	3215.31
626.35	3076.05
626.54	2983.89
626.74	3164.11
626.93	2873.30
627.12	2963.41
627.31	2908.12
627.50	2959.31
627.69	3166.16
627.88	2879.44
628.07	2875.35
628.26	2721.75
628.45	2934.74
628.64	2824.15
628.83	2873.30
629.02	2736.09
629.21	3055.57
629.40	3039.19
629.59	2801.62
629.78	2887.64
629.97	3035.09
630.16	2944.98
630.35	2861.01
630.54	2901.97
630.73	2918.36
630.92	3006.42
631.11	2875.35
631.30	2828.24
631.49	3145.68
631.68	2922.45
631.87	2899.92
632.06	2797.53
632.25	3401.68
632.44	3033.04
632.63	2815.96
632.82	2869.20
633.01	2861.01
633.20	3076.05
633.39	2877.40
633.58	2725.85
633.77	3033.04
633.96	3084.24
634.15	2951.12
634.34	2963.41
634.53	3018.71
634.72	2887.64
634.91	2711.51
635.10	2844.63
635.29	3106.77
635.48	3002.32
635.67	2783.19
635.86	2748.37
636.05	3203.02
636.24	2924.50
636.43	2867.16
636.62	2979.79
636.81	2516.95
637.00	2951.12
637.19	2877.40
637.38	2883.54
637.57	2899.92
637.76	2996.18
637.95	3024.85
638.14	2871.25
638.33	3010.51
638.52	2873.30
638.71	2725.85
638.89	2783.19
639.08	3409.87
639.27	3213.26
639.46	3033.04
639.65	3305.42
639.84	3286.99
640.03	3512.27
640.22	3276.75
640.41	3235.79
640.60	3117.01
640.79	3219.41
640.98	2959.31
641.17	3057.62
641.36	3217.36
641.55	3125.20
641.74	2764.76
641.92	2727.89
642.11	2740.18
642.30	2953.17
642.49	2678.74
642.68	2906.07
642.87	3053.52
643.06	3016.66
643.25	2736.09
643.44	2803.67
643.63	2981.84
643.82	3166.16
644.00	2777.05
644.19	2983.89
644.38	2836.44
644.57	3143.63
644.76	2856.92
644.95	2934.74
645.14	3051.47
645.33	2938.84
645.52	2854.87
645.71	2703.32
645.89	2832.34
646.08	3016.66
646.27	2826.20
646.46	3078.10
646.65	2760.66
646.84	3010.51
647.03	2717.65
647.22	3030.99
647.40	2990.03
647.59	2936.79
647.78	2578.39
647.97	2785.24
648.16	2834.39
648.35	3223.50
648.54	3078.10
648.73	2869.20
648.91	3059.67
649.10	2969.55
649.29	2815.96
649.48	2832.34
649.67	3010.51
649.86	2971.60
650.05	2815.96
650.23	3065.81
650.42	2830.29
650.61	3233.74
650.80	3026.90
650.99	3041.23
651.18	3168.21
651.36	3151.82
651.55	2805.72
651.74	2957.27
651.93	3022.80
652.12	2910.16
652.31	2852.82
652.49	2944.98
652.68	2914.26
652.87	3276.75
653.06	2920.40
653.25	3188.69
653.44	3024.85
653.62	3254.22
653.81	2850.77
654.00	2875.35
654.19	3059.67
654.38	3416.01
654.56	2947.03
654.75	2805.72
654.94	3176.40
655.13	2920.40
655.32	2842.58
655.51	2969.55
655.69	2879.44
655.88	3108.82
656.07	2709.46
656.26	2877.40
656.45	2760.66
656.63	3051.47
656.82	2904.02
657.01	3123.15
657.20	2873.30
657.38	3174.35
657.57	2873.30
657.76	2750.42
657.95	3110.86
658.14	2865.11
658.32	2920.40
658.51	2760.66
658.70	3041.23
658.89	3065.81
659.08	2918.36
659.26	3000.27
659.45	2783.19
659.64	3092.43
659.83	2764.76
660.01	3270.61
660.20	2904.02
660.39	3194.83
660.58	2641.88
660.76	2910.16
660.95	2756.57
661.14	3090.38
661.33	2764.76
661.51	2852.82
661.70	2858.96
661.89	3086.29
662.08	2908.12
662.26	2723.80
662.45	2754.52
662.64	3348.43
662.83	2965.46
663.01	2740.18
663.20	2850.77
663.39	3260.37
663.58	2838.48
663.76	2826.20
663.95	3102.67
664.14	2748.37
664.32	2908.12
664.51	2766.81
664.70	2742.23
664.89	3033.04
665.07	2674.65
665.26	3078.10
665.45	2777.05
665.64	2992.08
665.82	2834.39
666.01	2977.75
666.20	2729.94
666.38	3174.35
666.57	3078.10
666.76	4739.00
666.95	11009.88
667.13	17637.11
667.32	21552.82
667.51	24336.01
667.69	25327.23
667.88	21153.47
668.07	15060.76
668.25	13027.13
668.44	11085.65
668.63	9807.72
668.81	8621.95
669.00	7309.20
669.19	6690.71
669.38	6045.60
669.56	5064.63
669.75	4485.05
669.94	3944.39
670.12	3485.64
670.31	3137.49
670.50	3123.15
670.68	3176.40
670.87	3098.58
671.06	2832.34
671.24	2928.60
671.43	3246.03
671.62	2975.70
671.80	2818.00
671.99	2936.79
672.18	2916.31
672.36	3174.35
672.55	2969.55
672.74	2863.06
672.92	2985.94
673.11	3059.67
673.29	2781.14
673.48	2969.55
673.67	2934.74
673.85	3106.77
674.04	2828.24
674.23	2889.68
674.41	3330.00
674.60	2764.76
674.79	2686.94
674.97	2762.71
675.16	3102.67
675.34	3125.20
675.53	2830.29
675.72	2996.18
675.90	3299.28
676.09	2938.84
676.28	2961.36
676.46	2705.37
676.65	3016.66
676.83	2787.29
677.02	2887.64
677.21	2836.44
677.39	3028.95
677.58	2893.78
677.77	2832.34
677.95	2779.09
678.14	2979.79
678.32	2908.12
678.51	2856.92
678.70	3254.22
678.88	2906.07
679.07	3002.32
679.25	2887.64
679.44	2889.68
679.63	2772.95
679.81	3053.52
680.00	3071.95
680.18	2893.78
680.37	3241.93
680.55	3024.85
680.74	2750.42
680.93	2666.46
681.11	2994.13
681.30	3008.47
681.48	2881.49
681.67	2891.73
681.85	3117.01
682.04	2848.72
682.23	3053.52
682.41	2904.02
682.60	2906.07
682.78	2893.78
682.97	2783.19
683.15	2934.74
683.34	2965.46
683.53	3160.02
683.71	2664.41
683.90	2875.35
684.08	3258.32
684.27	2893.78
684.45	2889.68
684.64	3014.61
684.82	3008.47
685.01	3078.10
685.19	2897.88
685.38	3147.73
685.57	2908.12
685.75	2850.77
685.94	2840.53
686.12	2770.90
686.31	2797.53
686.49	3215.31
686.68	2645.98
686.86	2881.49
687.05	2955.22
687.23	3233.74
687.42	2895.83
687.60	2703.32
687.79	3088.34
687.97	3327.95
688.16	3067.86
688.34	3041.23
688.53	2748.37
688.71	3149.78
688.90	3186.64
689.08	2871.25
689.27	2711.51
689.45	3053.52
689.64	3006.42
689.82	2918.36
690.01	3053.52
690.19	3004.37
690.38	2838.48
690.56	2977.75
690.75	2840.53
690.93	2820.05
691.12	2813.91
691.30	2891.73
691.49	2942.93
691.67	3074.00
691.86	3184.59
692.04	2793.43
692.23	2887.64
692.41	2934.74
692.60	3225.55
692.78	3000.27
692.97	2963.41
693.15	3125.20
693.34	3108.82
693.52	3164.11
693.71	2867.16
693.89	2895.83
694.08	2721.75
694.26	2938.84
694.44	3141.58
694.63	3053.52
694.81	2840.53
695.00	2832.34
695.18	3137.49
695.37	3379.15
695.55	3004.37
695.74	2885.59
695.92	2869.20
696.10	3186.64
696.29	2734.04
696.47	2836.44
696.66	2768.85
696.84	2828.24
697.03	2938.84
697.21	3098.58
697.40	4444.09
697.58	3219.41
697.76	2895.83
697.95	2793.43
698.13	2803.67
698.32	2938.84
698.50	2832.34
698.68	2869.20
698.87	3078.10
699.05	3196.88
699.24	2899.92
699.42	2766.81
699.61	3020.75
699.79	2932.69
699.97	2863.06
700.16	2713.56
700.34	2748.37
700.53	3121.10
700.71	3018.71
700.89	2887.64
701.08	2944.98
701.26	2936.79
701.45	3260.37
701.63	2779.09
701.81	2891.73
702.00	2877.40
702.18	2914.26
702.37	2854.87
702.55	3176.40
702.73	3074.00
702.92	2842.58
703.10	3133.39
703.28	3117.01
703.47	2824.15
703.65	3084.24
703.84	2992.08
704.02	2961.36
704.20	3231.69
704.39	2797.53
704.57	2885.59
704.75	3022.80
704.94	3104.72
705.12	2998.23
705.30	3432.40
705.49	6680.47
705.67	12826.43
705.86	18259.69
706.04	20917.95
706.22	22589.10
706.41	22138.54
706.59	16903.93
706.77	13227.83
706.96	11394.90
707.14	10530.66
707.32	8869.75
707.51	7882.63
707.69	6506.40
707.87	5396.40
708.06	4550.59
708.24	3950.53
708.42	3669.96
708.61	3610.57
708.79	2916.31
708.97	2967.51
709.16	3012.56
709.34	2979.79
709.52	2858.96
709.71	2889.68
709.89	3061.71
710.07	2885.59
710.26	2877.40
710.44	2887.64
710.62	3151.82
710.80	2924.50
710.99	2967.51
711.17	3035.09
711.35	2852.82
711.54	2920.40
711.72	3010.51
711.90	2975.70
712.09	2990.03
712.27	2852.82
712.45	2881.49
712.63	2824.15
712.82	2934.74
713.00	2955.22
713.18	2979.79
713.37	2983.89
713.55	3209.17
713.73	3119.06
713.91	2938.84
714.10	2856.92
714.28	2971.60
714.46	3020.75
714.65	2969.55
714.83	2961.36
715.01	3022.80
715.19	2901.97
715.38	2820.05
715.56	2971.60
715.74	2873.30
715.92	2912.21
716.11	3114.96
716.29	2652.12
716.47	3008.47
716.65	2983.89
716.84	2650.07
717.02	2944.98
717.20	2621.40
717.38	2809.81
717.57	2930.64
717.75	2940.88
717.93	2965.46
718.11	3094.48
718.30	2674.65
718.48	2865.11
718.66	3229.65
718.84	3123.15
719.03	2887.64
719.21	2705.37
719.39	3282.89
719.57	3039.19
719.75	2953.17
719.94	2832.34
720.12	2897.88
720.30	2969.55
720.48	2930.64
720.67	2887.64
720.85	2789.33
721.03	2975.70
721.21	2736.09
721.39	3006.42
721.58	3092.43
721.76	2912.21
721.94	2947.03
722.12	2932.69
722.30	3215.31
722.49	2957.27
722.67	2887.64
722.85	2942.93
723.03	2758.61
723.21	2877.40
723.40	2920.40
723.58	2985.94
723.76	3184.59
723.94	3182.54
724.12	2867.16
724.30	3108.82
724.49	3143.63
724.67	2818.00
724.85	2959.31
725.03	2770.90
725.21	3082.19
725.40	3164.11
725.58	2793.43
725.76	3000.27
725.94	3071.95
726.12	2781.14
726.30	2934.74
726.49	2852.82
726.67	2869.20
726.85	3098.58
727.03	3317.71
727.21	4507.58
727.39	5461.93
727.57	5896.10
727.76	6268.83
727.94	6344.61
728.12	5670.83
728.30	4775.86
728.48	4462.52
728.66	4110.27
728.84	3909.57
729.03	3592.14
729.21	3321.81
729.39	3200.98
729.57	3028.95
729.75	3117.01
729.93	3030.99
730.11	2750.42
730.30	2918.36
730.48	2918.36
730.66	2936.79
730.84	3037.14
731.02	2967.51
731.20	2936.79
731.38	2914.26
731.56	2686.94
731.74	2764.76
731.93	3028.95
732.11	2969.55
732.29	2789.33
732.47	3096.53
732.65	3078.10
732.83	3067.86
733.01	3090.38
733.19	2846.68
733.37	3084.24
733.56	2895.83
733.74	2781.14
733.92	3209.17
734.10	2904.02
734.28	3035.09
734.46	2707.41
734.64	2920.40
734.82	2940.88
735.00	2838.48
735.18	2834.39
735.36	2944.98
735.54	2996.18
735.73	2840.53
735.91	3016.66
736.09	3282.89
736.27	2959.31
736.45	2955.22
736.63	2607.06
736.81	2865.11
736.99	3090.38
737.17	3026.90
737.35	2897.88
737.53	3022.80
737.71	2942.93
737.89	3063.76
738.07	2762.71
738.25	2889.68
738.43	2691.03
738.61	2869.20
738.80	2795.48
738.98	2809.81
739.16	2901.97
739.34	2801.62
739.52	3151.82
739.70	2893.78
739.88	3076.05
740.06	3104.72
740.24	2566.10
740.42	3219.41
740.60	2701.27
740.78	2738.13
740.96	2613.21
741.14	2959.31
741.32	3061.71
741.50	2658.26
741.68	3135.44
741.86	3125.20
742.04	2834.39
742.22	2744.28
742.40	2811.86
742.58	3098.58
742.76	2838.48
742.94	3114.96
743.12	2711.51
743.30	2969.55
743.48	3076.05
743.66	2738.13
743.84	2936.79
744.02	2873.30
744.20	2992.08
744.38	2717.65
744.56	2842.58
744.74	3321.81
744.92	3141.58
745.10	3100.62
745.28	3041.23
745.46	3293.13
745.64	3035.09
745.82	2971.60
746.00	2789.33
746.18	3039.19
746.36	2865.11
746.54	2965.46
746.72	2865.11
746.90	2777.05
747.08	3170.26
747.26	2885.59
747.44	2953.17
747.62	3121.10
747.80	3051.47
747.98	2959.31
748.15	2959.31
748.33	3327.95
748.51	3084.24
748.69	2955.22
748.87	2762.71
749.05	2938.84
749.23	2893.78
749.41	2834.39
749.59	2856.92
749.77	3160.02
749.95	2930.64
750.13	2828.24
750.31	2998.23
750.49	2932.69
750.67	3082.19
750.85	3039.19
751.03	2871.25
751.20	3373.00
751.38	2910.16
751.56	2830.29
751.74	2885.59
751.92	2934.74
752.10	2752.47
752.28	3078.10
752.46	2805.72
752.64	2938.84
752.82	3033.04
753.00	3018.71
753.18	2826.20
753.35	2936.79
753.53	3018.71
753.71	2822.10
753.89	2947.03
754.07	3084.24
754.25	3137.49
754.43	2852.82
754.61	2729.94
754.79	3086.29
754.97	3045.33
755.14	3067.86
755.32	2781.14
755.50	2983.89
755.68	3045.33
755.86	2805.72
756.04	2863.06
756.22	2729.94
756.40	3112.91
756.57	3180.50
756.75	2846.68
756.93	3147.73
757.11	3063.76
757.29	2764.76
757.47	2822.10
757.65	2674.65
757.82	2549.72
758.00	2725.85
758.18	2809.81
758.36	2809.81
758.54	3188.69
758.72	2697.17
758.90	2928.60
759.07	3022.80
759.25	2836.44
759.43	2994.13
759.61	2719.70
759.79	4327.36
759.97	3078.10
760.15	2932.69
760.32	2856.92
760.50	3014.61
760.68	3262.41
760.86	2711.51
761.04	3084.24
761.22	3153.87
761.39	2938.84
761.57	2981.84
761.75	2844.63
761.93	3166.16
762.11	3030.99
762.28	2934.74
762.46	2799.57
762.64	3160.02
762.82	2721.75
763.00	2807.77
763.18	3067.86
763.35	2822.10
763.53	3018.71
763.71	2961.36
763.89	2852.82
764.07	3051.47
764.24	2992.08
764.42	2998.23
764.60	2932.69
764.78	3002.32
764.96	3170.26
765.13	3092.43
765.31	2818.00
765.49	3133.39
765.67	2803.67
765.84	2846.68
766.02	2826.20
766.20	2770.90
766.38	3010.51
766.56	2922.45
766.73	2959.31
766.91	2975.70
767.09	2973.65
767.27	2916.31
767.44	2799.57
767.62	3012.56
767.80	2969.55
767.98	2813.91
768.15	2836.44
768.33	3071.95
768.51	3035.09
768.69	2975.70
768.87	2891.73
769.04	2959.31
769.22	3434.44
769.40	3010.51
769.58	3061.71
769.75	3028.95
769.93	3235.79
770.11	2901.97
770.28	2777.05
770.46	3145.68
770.64	3098.58
770.82	2832.34
770.99	2875.35
771.17	3117.01
771.35	2899.92
771.53	2869.20
771.70	2869.20
771.88	3028.95
772.06	3004.37
772.23	2822.10
772.41	2981.84
772.59	2918.36
772.77	2824.15
772.94	2838.48
773.12	2963.41
773.30	2973.65
773.47	2893.78
773.65	2717.65
773.83	3061.71
774.01	2869.20
774.18	2660.31
774.36	2871.25
774.54	2768.85
774.71	3020.75
774.89	2678.74
775.07	2840.53
775.24	2852.82
775.42	2832.34
775.60	3317.71
775.78	2779.09
775.95	2746.33
776.13	2676.70
776.31	2713.56
776.48	3022.80
776.66	3037.14
776.84	2940.88
777.01	2777.05
777.19	2818.00
777.37	2785.24
777.54	3047.38
777.72	3377.10
777.90	3010.51
778.07	2799.57
778.25	3555.27
778.43	3188.69
778.60	2799.57
778.78	2951.12
778.96	3209.17
779.13	2807.77
779.31	2985.94
779.49	2938.84
779.66	3049.43
779.84	2869.20
780.01	2867.16
780.19	2824.15
780.37	3153.87
780.54	3129.30
780.72	2672.60
780.90	2858.96
781.07	2928.60
781.25	2832.34
781.43	3084.24
781.60	2758.61
781.78	3176.40
781.95	2969.55
782.13	2795.48
782.31	2887.64
782.48	2674.65
782.66	3022.80
782.83	3133.39
783.01	3014.61
783.19	3037.14
783.36	2928.60
783.54	2770.90
783.72	2944.98
783.89	2932.69
784.07	3030.99
784.24	2990.03
784.42	3016.66
784.60	3037.14
784.77	3030.99
784.95	2697.17
785.12	2854.87
785.30	3008.47
785.47	2803.67
785.65	2770.90
785.83	2875.35
786.00	2826.20
786.18	2985.94
786.35	2826.20
786.53	2736.09
786.71	3145.68
786.88	3117.01
787.06	2922.45
787.23	2979.79
787.41	2742.23
787.58	2924.50
787.76	2789.33
787.94	2906.07
788.11	3014.61
788.29	2801.62
788.46	2805.72
788.64	2662.36
788.81	2928.60
788.99	2815.96
789.16	2764.76
789.34	2953.17
789.52	2885.59
789.69	2916.31
789.87	2627.54
790.04	2785.24
790.22	2881.49
790.39	3297.23
790.57	2770.90
790.74	2777.05
790.92	3102.67
791.09	2777.05
791.27	2975.70
791.44	2975.70
791.62	2949.08
791.79	3096.53
791.97	2867.16
792.15	3219.41
792.32	3137.49
792.50	3149.78
792.67	3110.86
792.85	3192.78
793.02	3030.99
793.20	2916.31
793.37	2752.47
793.55	2723.80
793.72	2779.09
793.90	3049.43
794.07	2826.20
794.25	2770.90
794.42	3055.57
794.60	2975.70
794.77	2955.22
794.95	2975.70
795.12	3063.76
795.30	2885.59
795.47	2693.08
795.65	3160.02
795.82	3026.90
796.00	2822.10
796.17	2889.68
796.34	2748.37
796.52	2987.99
796.69	3180.50
796.87	2951.12
797.04	2969.55
797.22	3117.01
797.39	3028.95
797.57	2994.13
797.74	2889.68
797.92	3106.77
798.09	2955.22
798.27	3049.43
798.44	2797.53
798.62	2918.36
798.79	2996.18
798.96	2955.22
799.14	2895.83
799.31	3504.07
799.49	2965.46
799.66	2824.15
799.84	2906.07
800.01	2734.04
800.19	2918.36
800.36	2656.22
800.53	2916.31
800.71	3028.95
800.88	3260.37
801.06	2848.72
801.23	2832.34
801.41	2944.98
801.58	2822.10
801.75	2863.06
801.93	2932.69
802.10	3090.38
802.28	2879.44
802.45	2818.00
802.63	2895.83
802.80	3211.22
802.97	2901.97
803.15	2904.02
803.32	2854.87
803.50	2871.25
803.67	2803.67
803.84	2699.22
804.02	2871.25
804.19	2924.50
804.37	2645.98
804.54	2746.33
804.71	2830.29
804.89	2953.17
805.06	2775.00
805.24	2820.05
805.41	2668.50
805.58	2828.24
805.76	3403.72
805.93	2928.60
806.10	3014.61
806.28	3012.56
806.45	3002.32
806.63	2967.51
806.80	2977.75
806.97	3035.09
807.15	3022.80
807.32	2983.89
807.49	2967.51
807.67	2807.77
807.84	3010.51
808.01	2590.68
808.19	3100.62
808.36	3342.28
808.54	2942.93
808.71	2846.68
808.88	2828.24
809.06	3141.58
809.23	3231.69
809.40	2840.53
809.58	2861.01
809.75	3010.51
809.92	2740.18
810.10	3145.68
810.27	2881.49
810.44	3071.95
810.62	3129.30
810.79	2912.21
810.96	2856.92
811.14	2893.78
811.31	3026.90
811.48	2983.89
811.66	3002.32
811.83	3125.20
812.00	3028.95
812.18	2947.03
812.35	3141.58
812.52	2889.68
812.69	2840.53
812.87	2883.54
813.04	2840.53
813.21	2973.65
813.39	2828.24
813.56	2781.14
813.73	3037.14
813.91	2652.12
814.08	2971.60
814.25	2934.74
814.42	2693.08
814.60	2930.64
814.77	2942.93
814.94	2781.14
815.12	2918.36
815.29	3282.89
815.46	2836.44
815.63	2889.68
815.81	2818.00
815.98	2934.74
816.15	2951.12
816.33	2963.41
816.50	2789.33
816.67	2981.84
816.84	2969.55
817.02	2787.29
817.19	2770.90
817.36	3024.85
817.53	3059.67
817.71	2764.76
817.88	2895.83
818.05	2840.53
818.22	2930.64
818.40	3108.82
818.57	2895.83
818.74	3024.85
818.91	2985.94
819.09	3033.04
819.26	2916.31
819.43	2906.07
819.60	2824.15
819.78	2965.46
819.95	3008.47
820.12	2760.66
820.29	3219.41
820.47	3106.77
820.64	2766.81
820.81	2719.70
820.98	2820.05
821.15	2775.00
821.33	2998.23
821.50	2695.13
821.67	3114.96
821.84	2834.39
822.02	2895.83
822.19	3092.43
822.36	2861.01
822.53	2832.34
822.70	2725.85
822.88	2985.94
823.05	3170.26
823.22	2906.07
823.39	2938.84
823.56	2947.03
823.74	3330.00
823.91	2742.23
824.08	2795.48
824.25	2781.14
824.42	3323.85
824.60	2756.57
824.77	3010.51
824.94	2953.17
825.11	3059.67
825.28	2648.02
825.45	2949.08
825.63	3026.90
825.80	2791.38
825.97	2914.26
826.14	2861.01
826.31	2729.94
826.48	3078.10
826.66	2803.67
826.83	2824.15
827.00	2908.12
827.17	2803.67
827.34	2914.26
827.51	2777.05
827.69	2955.22
827.86	2758.61
828.03	2893.78
828.20	2899.92
828.37	2873.30
828.54	3049.43
828.71	2715.61
828.89	2961.36
829.06	2985.94
829.23	3280.85
829.40	2854.87
829.57	2797.53
829.74	3051.47
829.91	2893.78
830.09	2750.42
830.26	2981.84
830.43	3205.07
830.60	2871.25
830.77	2979.79
830.94	3028.95
831.11	3131.34
831.28	3006.42
831.46	3018.71
831.63	2828.24
831.80	3194.83
831.97	2918.36
832.14	2842.58
832.31	2863.06
832.48	3018.71
832.65	3241.93
832.82	2967.51
832.99	2871.25
833.17	2777.05
833.34	3264.46
833.51	2818.00
833.68	2648.02
833.85	3170.26
834.02	2797.53
834.19	2684.89
834.36	2795.48
834.53	2961.36
834.70	3194.83
834.87	2879.44
835.04	2674.65
835.22	2858.96
835.39	2906.07
835.56	2715.61
835.73	2740.18
835.90	3033.04
836.07	2772.95
836.24	2848.72
836.41	2643.93
836.58	2832.34
836.75	3086.29
836.92	2678.74
837.09	2684.89
837.26	3112.91
837.43	3084.24
837.60	2740.18
837.77	2791.38
837.94	3147.73
838.12	3145.68
838.29	2623.45
838.46	2639.83
838.63	2803.67
838.80	3205.07
838.97	2832.34
839.14	2688.98
839.31	3026.90
839.48	3106.77
839.65	2707.41
839.82	2791.38
839.99	2996.18
840.16	2969.55
840.33	2662.36
840.50	2828.24
840.67	2832.34
840.84	2623.45
841.01	2623.45
841.18	2711.51
841.35	2963.41
841.52	3039.19
841.69	3028.95
841.86	2789.33
842.03	2969.55
842.20	3049.43
842.37	2756.57
842.54	2783.19
842.71	2971.60
842.88	2729.94
843.05	2772.95
843.22	2725.85
843.39	3049.43
843.56	2942.93
843.73	2709.46
843.90	2713.56
844.07	2998.23
844.24	3143.63
844.41	2811.86
844.58	2803.67
844.75	2932.69
844.92	3080.14
845.09	2742.23
845.26	2684.89
845.43	3047.38
845.60	2973.65
845.77	2887.64
845.94	2791.38
846.10	3221.45
846.27	2750.42
846.44	2607.06
846.61	2615.26
846.78	3041.23
846.95	3100.62
847.12	2668.50
847.29	2738.13
847.46	2822.10
847.63	3117.01
847.80	2705.37
847.97	2738.13
848.14	3397.58
848.31	2936.79
848.48	2623.45
848.65	2738.13
848.82	2809.81
848.98	3399.63
849.15	2834.39
849.32	2861.01
849.49	3178.45
849.66	2934.74
849.83	2734.04
850.00	2674.65
850.17	3108.82
850.34	2895.83
850.51	2746.33
850.68	2746.33
850.85	3338.19
851.01	3014.61
851.18	2713.56
851.35	2727.89
851.52	2963.41
851.69	3200.98
851.86	2631.64
852.03	2775.00
852.20	3035.09
852.37	2992.08
852.53	2684.89
852.70	2729.94
852.87	2951.12
853.04	3047.38
853.21	2758.61
853.38	2936.79
853.55	3237.84
853.72	3180.50
853.89	2652.12
854.05	2723.80
854.22	2889.68
854.39	2922.45
854.56	2672.60
854.73	2897.88
854.90	2797.53
855.07	2965.46
855.23	2648.02
855.40	2635.74
855.57	2881.49
855.74	2631.64
855.91	2910.16
856.08	2668.50
856.25	2752.47
856.41	2904.02
856.58	2775.00
856.75	2715.61
856.92	2744.28
857.09	3102.67
857.26	2584.54
857.42	2725.85
857.59	3067.86
857.76	2883.54
857.93	2695.13
858.10	2805.72
858.27	2824.15
858.43	3004.37
858.60	2734.04
858.77	2557.91
858.94	2848.72
859.11	3145.68
859.27	2799.57
859.44	2654.17
859.61	3387.34
859.78	3125.20
859.95	2754.52
860.12	2770.90
860.28	3346.38
860.45	3325.90
860.62	2731.99
860.79	2795.48
860.95	2887.64
861.12	2791.38
861.29	2656.22
861.46	2746.33
861.63	2940.88
861.79	3053.52
861.96	2641.88
862.13	2770.90
862.30	3270.61
862.47	2881.49
862.63	2625.50
862.80	2770.90
862.97	3112.91
863.14	3061.71
863.30	2797.53
863.47	2609.11
863.64	3301.33
863.81	3059.67
863.97	2670.55
864.14	2805.72
864.31	2901.97
864.48	2938.84
864.65	2697.17
864.81	2834.39
864.98	3153.87
865.15	3059.67
865.32	2758.61
865.48	2799.57
865.65	3217.36
865.82	2879.44
865.98	2758.61
866.15	2783.19
866.32	2879.44
866.49	2926.55
866.65	2850.77
866.82	2719.70
866.99	2928.60
867.16	2787.29
867.32	2736.09
867.49	2652.12
867.66	2942.93
867.83	2858.96
867.99	2693.08
868.16	2768.85
868.33	2752.47
868.49	2959.31
868.66	2758.61
868.83	2861.01
868.99	3055.57
869.16	2987.99
869.33	2795.48
869.50	2793.43
869.66	3000.27
869.83	2869.20
870.00	2615.26
870.16	2811.86
870.33	2990.03
870.50	3127.25
870.66	2777.05
870.83	2736.09
871.00	2908.12
871.17	3018.71
871.33	2858.96
871.50	2738.13
871.67	2885.59
871.83	2703.32
872.00	2877.40
872.17	2727.89
872.33	3338.19
872.50	3084.24
872.67	2738.13
872.83	2715.61
873.00	2992.08
873.17	3012.56
873.33	2838.48
873.50	2772.95
873.67	2906.07
873.83	2811.86
874.00	2656.22
874.16	2891.73
874.33	3002.32
874.50	2840.53
874.66	2717.65
874.83	2877.40
875.00	3188.69
875.16	3117.01
875.33	2789.33
875.50	2523.10
875.66	2918.36
875.83	3018.71
875.99	2785.24
876.16	2818.00
876.33	2861.01
876.49	2971.60
876.66	2779.09
876.83	2807.77
876.99	2734.04
877.16	2951.12
877.32	2707.41
877.49	2852.82
877.66	2965.46
877.82	3250.13
877.99	2738.13
878.15	2992.08
878.32	3078.10
878.49	2979.79
878.65	2813.91
878.82	2936.79
878.98	2848.72
879.15	3186.64
879.32	2934.74
879.48	2856.92
879.65	2897.88
879.81	2926.55
879.98	2684.89
880.15	2772.95
880.31	3055.57
880.48	2838.48
880.64	2938.84
880.81	2865.11
880.97	3241.93
881.14	3256.27
881.31	2693.08
881.47	2922.45
881.64	2891.73
881.80	2768.85
881.97	2895.83
882.13	2736.09
882.30	2762.71
882.47	2858.96
882.63	2719.70
882.80	2686.94
882.96	2850.77
883.13	3143.63
883.29	2740.18
883.46	2695.13
883.62	3348.43
883.79	2961.36
883.95	2865.11
884.12	2770.90
884.29	3143.63
884.45	2981.84
884.62	2760.66
884.78	2686.94
884.95	3157.97
885.11	2932.69
885.28	2805.72
885.44	2854.87
885.61	3102.67
885.77	3139.54
885.94	2906.07
886.10	2836.44
886.27	3020.75
886.43	3203.02
886.60	2992.08
886.76	2811.86
886.93	2869.20
887.09	3014.61
887.26	2637.78
887.42	2801.62
887.59	3141.58
887.75	3286.99
887.92	2881.49
888.08	2838.48
888.25	3346.38
888.41	3127.25
888.58	2830.29
888.74	2674.65
888.91	2879.44
>>>>>End Processed Spectral Data<<<<<
