SpectraSuite Data File
++++++++++++++++++++++++++++++++++++
Date: Thu May 05 21:10:50 CEST 2016
User: root
Dark Spectrum Present: No
Reference Spectrum Present: No
Number of Sampled Component Spectra: 1
Spectrometers: USB4C02835
Integration Time (usec): 100000 (USB4C02835)
Spectra Averaged: 1 (USB4C02835)
Boxcar Smoothing: 0 (USB4C02835)
Correct for Electrical Dark: No (USB4C02835)
Strobe/Lamp Enabled: No (USB4C02835)
Correct for Detector Non-linearity: No (USB4C02835)
Correct for Stray Light: No (USB4C02835)
Number of Pixels in Processed Spectrum: 3648
>>>>>Begin Processed Spectral Data<<<<<
177.47	2066.40
177.69	2066.40
177.91	2066.40
178.13	2185.18
178.36	2191.33
178.58	2731.99
178.80	2893.78
179.02	2623.45
179.24	2832.34
179.46	2617.30
179.68	2674.65
179.90	2936.79
180.13	2918.36
180.35	2502.62
180.57	2602.97
180.79	3084.24
181.01	2883.54
181.23	2772.95
181.45	2885.59
181.67	3071.95
181.90	3137.49
182.12	2676.70
182.34	2508.76
182.56	3078.10
182.78	3004.37
183.00	2676.70
183.22	2684.89
183.44	2672.60
183.66	3497.93
183.89	2832.34
184.11	2711.51
184.33	3141.58
184.55	3182.54
184.77	2684.89
184.99	2731.99
185.21	2881.49
185.43	3352.52
185.65	2645.98
185.87	2691.03
186.10	3379.15
186.32	3389.39
186.54	2754.52
186.76	2723.80
186.98	3084.24
187.20	2951.12
187.42	2676.70
187.64	2652.12
187.86	3086.29
188.08	3190.74
188.30	2666.46
188.52	2693.08
188.75	3160.02
188.97	3186.64
189.19	2619.35
189.41	2691.03
189.63	3067.86
189.85	2889.68
190.07	2582.49
190.29	2582.49
190.51	3037.14
190.73	2723.80
190.95	2820.05
191.17	2680.79
191.39	2643.93
191.61	2883.54
191.84	2725.85
192.06	2758.61
192.28	2820.05
192.50	3549.13
192.72	2867.16
192.94	2775.00
193.16	3188.69
193.38	3112.91
193.60	2600.92
193.82	2813.91
194.04	3125.20
194.26	3057.62
194.48	2717.65
194.70	2682.84
194.92	2875.35
195.14	3114.96
195.36	2678.74
195.58	2777.05
195.80	2951.12
196.02	2838.48
196.24	2721.75
196.46	2711.51
196.69	2942.93
196.91	3399.63
197.13	2684.89
197.35	2719.70
197.57	3243.98
197.79	3086.29
198.01	2783.19
198.23	2703.32
198.45	3086.29
198.67	2787.29
198.89	2605.02
199.11	2740.18
199.33	2901.97
199.55	2572.25
199.77	2658.26
199.99	2842.58
200.21	2891.73
200.43	3051.47
200.65	2607.06
200.87	2504.67
201.09	2963.41
201.31	2920.40
201.53	2729.94
201.75	2693.08
201.97	3024.85
202.19	2934.74
202.41	2717.65
202.63	2779.09
202.85	3098.58
203.07	3012.56
203.29	2746.33
203.51	2611.16
203.73	2830.29
203.95	3502.03
204.17	2709.46
204.39	2791.38
204.61	3026.90
204.83	2854.87
205.05	2828.24
205.27	2680.79
205.49	3387.34
205.71	2969.55
205.93	2574.30
206.15	2619.35
206.37	3057.62
206.59	2961.36
206.81	2521.05
207.03	2510.81
207.25	2838.48
207.47	3104.72
207.69	2736.09
207.91	2971.60
208.13	3223.50
208.34	2793.43
208.56	2734.04
208.78	2666.46
209.00	2893.78
209.22	2951.12
209.44	2672.60
209.66	2631.64
209.88	3030.99
210.10	2910.16
210.32	2676.70
210.54	2791.38
210.76	2981.84
210.98	3106.77
211.20	2605.02
211.42	2760.66
211.64	3200.98
211.86	2926.55
212.08	2695.13
212.30	2713.56
212.52	2969.55
212.74	3051.47
212.96	2811.86
213.17	2809.81
213.39	3106.77
213.61	3194.83
213.83	2658.26
214.05	2598.87
214.27	3166.16
214.49	2746.33
214.71	2574.30
214.93	2762.71
215.15	2955.22
215.37	3164.11
215.59	2539.48
215.81	2721.75
216.03	3194.83
216.24	2987.99
216.46	2645.98
216.68	2639.83
216.90	3106.77
217.12	3086.29
217.34	2631.64
217.56	2850.77
217.78	3217.36
218.00	3084.24
218.22	2756.57
218.44	2756.57
218.66	3076.05
218.87	3407.82
219.09	2693.08
219.31	2656.22
219.53	3010.51
219.75	2889.68
219.97	2713.56
220.19	2639.83
220.41	3008.47
220.63	3264.46
220.85	2652.12
221.06	2815.96
221.28	3200.98
221.50	3178.45
221.72	2717.65
221.94	2559.96
222.16	3024.85
222.38	3180.50
222.60	2701.27
222.82	2707.41
223.03	3139.54
223.25	2803.67
223.47	2717.65
223.69	2899.92
223.91	3121.10
224.13	3067.86
224.35	2562.01
224.57	2881.49
224.78	3108.82
225.00	2811.86
225.22	2740.18
225.44	2605.02
225.66	3153.87
225.88	2928.60
226.10	2879.44
226.32	2682.84
226.53	3243.98
226.75	2895.83
226.97	2750.42
227.19	2770.90
227.41	2772.95
227.63	2914.26
227.85	2547.67
228.06	2693.08
228.28	3008.47
228.50	3149.78
228.72	2576.34
228.94	2572.25
229.16	2731.99
229.37	2828.24
229.59	2551.77
229.81	2906.07
230.03	2990.03
230.25	2791.38
230.47	2512.86
230.69	2615.26
230.90	3157.97
231.12	2863.06
231.34	2754.52
231.56	2793.43
231.78	2699.22
232.00	3045.33
232.21	2752.47
232.43	2723.80
232.65	2643.93
232.87	3035.09
233.09	2547.67
233.30	2625.50
233.52	3172.30
233.74	3108.82
233.96	2678.74
234.18	2838.48
234.40	2940.88
234.61	3510.22
234.83	2576.34
235.05	2715.61
235.27	3461.07
235.49	3266.51
235.70	2578.39
235.92	2691.03
236.14	3076.05
236.36	3483.59
236.58	2633.69
236.79	2795.48
237.01	2951.12
237.23	3004.37
237.45	2969.55
237.67	2623.45
237.88	2973.65
238.10	3321.81
238.32	2574.30
238.54	2662.36
238.76	3024.85
238.97	2885.59
239.19	2629.59
239.41	2723.80
239.63	3266.51
239.85	2930.64
240.06	2740.18
240.28	2775.00
240.50	3180.50
240.72	2918.36
240.93	2586.58
241.15	2838.48
241.37	3033.04
241.59	3248.08
241.81	2703.32
242.02	2715.61
242.24	3033.04
242.46	3137.49
242.68	2441.18
242.89	2654.17
243.11	3164.11
243.33	2940.88
243.55	2701.27
243.76	2648.02
243.98	2971.60
244.20	2977.75
244.42	2662.36
244.64	2645.98
244.85	2738.13
245.07	2856.92
245.29	2719.70
245.51	2752.47
245.72	3049.43
245.94	3151.82
246.16	2723.80
246.38	2736.09
246.59	2766.81
246.81	2783.19
247.03	2641.88
247.24	2572.25
247.46	2895.83
247.68	2916.31
247.90	2539.48
248.11	2684.89
248.33	3184.59
248.55	2926.55
248.77	2742.23
248.98	2740.18
249.20	3284.94
249.42	2971.60
249.64	2658.26
249.85	2666.46
250.07	2854.87
250.29	3041.23
250.50	2688.98
250.72	2568.15
250.94	3041.23
251.16	3344.33
251.37	2670.55
251.59	2799.57
251.81	3045.33
252.02	3205.07
252.24	2648.02
252.46	2895.83
252.68	2809.81
252.89	2846.68
253.11	2516.95
253.33	2770.90
253.54	3186.64
253.76	2770.90
253.98	2676.70
254.20	2656.22
254.41	2717.65
254.63	2934.74
254.85	2605.02
255.06	2693.08
255.28	3080.14
255.50	2908.12
255.71	2627.54
255.93	2596.82
256.15	2877.40
256.36	3092.43
256.58	2621.40
256.80	2627.54
257.02	2985.94
257.23	2881.49
257.45	2754.52
257.67	2824.15
257.88	2885.59
258.10	3014.61
258.32	2678.74
258.53	2752.47
258.75	3268.56
258.97	2914.26
259.18	2617.30
259.40	2621.40
259.62	3373.00
259.83	3186.64
260.05	2750.42
260.27	3446.73
260.48	3188.69
260.70	2789.33
260.92	2590.68
261.13	2770.90
261.35	2998.23
261.57	3059.67
261.78	2549.72
262.00	2578.39
262.22	3151.82
262.43	2807.77
262.65	2731.99
262.86	2736.09
263.08	3454.92
263.30	3041.23
263.51	2562.01
263.73	2688.98
263.95	3305.42
264.16	2842.58
264.38	2623.45
264.60	2648.02
264.81	2953.17
265.03	3180.50
265.25	2998.23
265.46	2623.45
265.68	3223.50
265.89	3049.43
266.11	2582.49
266.33	2670.55
266.54	3264.46
266.76	3076.05
266.98	2791.38
267.19	2869.20
267.41	3178.45
267.62	2918.36
267.84	2502.62
268.06	2779.09
268.27	3004.37
268.49	3186.64
268.70	2668.50
268.92	2719.70
269.14	2846.68
269.35	2674.65
269.57	2775.00
269.79	2791.38
270.00	2865.11
270.22	3217.36
270.43	2557.91
270.65	2600.92
270.87	3098.58
271.08	3143.63
271.30	2764.76
271.51	2736.09
271.73	3112.91
271.95	3168.21
272.16	2703.32
272.38	2885.59
272.59	2922.45
272.81	3022.80
273.02	2631.64
273.24	2754.52
273.46	3182.54
273.67	2850.77
273.89	2578.39
274.10	2672.60
274.32	3160.02
274.54	2994.13
274.75	2824.15
274.97	2791.38
275.18	3125.20
275.40	3092.43
275.61	2709.46
275.83	2850.77
276.05	2881.49
276.26	2983.89
276.48	2768.85
276.69	2805.72
276.91	2959.31
277.12	3194.83
277.34	2766.81
277.55	2979.79
277.77	2953.17
277.99	2848.72
278.20	2811.86
278.42	2676.70
278.63	2858.96
278.85	2813.91
279.06	2729.94
279.28	2953.17
279.49	3114.96
279.71	3127.25
279.93	2856.92
280.14	2789.33
280.36	2936.79
280.57	3010.51
280.79	2861.01
281.00	2666.46
281.22	2813.91
281.43	3092.43
281.65	2629.59
281.86	2787.29
282.08	3080.14
282.29	3385.29
282.51	2633.69
282.73	2727.89
282.94	2682.84
283.16	3149.78
283.37	2867.16
283.59	2811.86
283.80	2951.12
284.02	2930.64
284.23	2811.86
284.45	2828.24
284.66	2869.20
284.88	2863.06
285.09	2707.41
285.31	2881.49
285.52	3055.57
285.74	2746.33
285.95	2979.79
286.17	2904.02
286.38	3270.61
286.60	2957.27
286.81	2697.17
287.03	2779.09
287.24	3008.47
287.46	3063.76
287.67	2934.74
287.89	3008.47
288.10	2967.51
288.32	3016.66
288.53	2979.79
288.75	2891.73
288.96	3102.67
289.18	2912.21
289.39	2725.85
289.61	2824.15
289.82	3319.76
290.04	3252.17
290.25	2682.84
290.47	2854.87
290.68	2949.08
290.90	3262.41
291.11	2703.32
291.33	2998.23
291.54	2777.05
291.76	2846.68
291.97	2914.26
292.18	2861.01
292.40	2932.69
292.61	2799.57
292.83	3071.95
293.04	2832.34
293.26	3030.99
293.47	2969.55
293.69	2682.84
293.90	2793.43
294.12	3237.84
294.33	3020.75
294.55	2826.20
294.76	3033.04
294.97	3229.65
295.19	3321.81
295.40	2754.52
295.62	2889.68
295.83	3149.78
296.05	2895.83
296.26	3035.09
296.48	2772.95
296.69	2979.79
296.90	2992.08
297.12	2928.60
297.33	2957.27
297.55	3076.05
297.76	3043.28
297.98	2906.07
298.19	2947.03
298.41	2987.99
298.62	2897.88
298.83	2959.31
299.05	2908.12
299.26	2949.08
299.48	2822.10
299.69	2861.01
299.90	2772.95
300.12	2822.10
300.33	3086.29
300.55	2826.20
300.76	2811.86
300.98	2729.94
301.19	3104.72
301.40	2826.20
301.62	2781.14
301.83	3125.20
302.05	2994.13
302.26	2799.57
302.47	2838.48
302.69	2820.05
302.90	2932.69
303.12	2605.02
303.33	2850.77
303.54	3246.03
303.76	2944.98
303.97	2848.72
304.19	3053.52
304.40	2834.39
304.61	3018.71
304.83	2942.93
305.04	2920.40
305.26	3110.86
305.47	2852.82
305.68	2744.28
305.90	2664.41
306.11	3110.86
306.33	2951.12
306.54	2662.36
306.75	2742.23
306.97	2705.37
307.18	2891.73
307.39	2754.52
307.61	2901.97
307.82	2951.12
308.04	3035.09
308.25	2686.94
308.46	2856.92
308.68	3061.71
308.89	2979.79
309.10	2791.38
309.32	2852.82
309.53	2957.27
309.74	3127.25
309.96	2770.90
310.17	2930.64
310.39	2881.49
310.60	3086.29
310.81	2840.53
311.03	2674.65
311.24	3051.47
311.45	2998.23
311.67	3053.52
311.88	2873.30
312.09	2885.59
312.31	2877.40
312.52	2777.05
312.73	2770.90
312.95	2813.91
313.16	2822.10
313.37	2977.75
313.59	2977.75
313.80	3094.48
314.01	3223.50
314.23	2854.87
314.44	2703.32
314.65	2779.09
314.87	2820.05
315.08	2797.53
315.29	2811.86
315.51	2809.81
315.72	2742.23
315.93	2768.85
316.15	2895.83
316.36	2869.20
316.57	3006.42
316.79	2797.53
317.00	2777.05
317.21	3102.67
317.43	2824.15
317.64	2852.82
317.85	2738.13
318.07	2985.94
318.28	2914.26
318.49	2865.11
318.70	2990.03
318.92	3039.19
319.13	3026.90
319.34	3071.95
319.56	2805.72
319.77	3006.42
319.98	3041.23
320.20	2992.08
320.41	2963.41
320.62	3014.61
320.83	2883.54
321.05	3020.75
321.26	2791.38
321.47	2975.70
321.69	3182.54
321.90	2723.80
322.11	2758.61
322.32	3076.05
322.54	3250.13
322.75	2719.70
322.96	3663.82
323.18	2701.27
323.39	2729.94
323.60	2746.33
323.81	2906.07
324.03	2901.97
324.24	2942.93
324.45	2877.40
324.66	2772.95
324.88	3162.06
325.09	3151.82
325.30	2772.95
325.52	2693.08
325.73	3090.38
325.94	2854.87
326.15	2670.55
326.37	2707.41
326.58	3065.81
326.79	3250.13
327.00	2693.08
327.22	2809.81
327.43	2910.16
327.64	2797.53
327.85	2897.88
328.07	2766.81
328.28	3330.00
328.49	2852.82
328.70	2775.00
328.92	2766.81
329.13	2975.70
329.34	3037.14
329.55	2949.08
329.76	2906.07
329.98	2904.02
330.19	3186.64
330.40	2832.34
330.61	2938.84
330.83	3121.10
331.04	2936.79
331.25	2852.82
331.46	2797.53
331.68	2748.37
331.89	3112.91
332.10	2815.96
332.31	2682.84
332.52	2951.12
332.74	3129.30
332.95	2598.87
333.16	2721.75
333.37	3108.82
333.58	3002.32
333.80	2863.06
334.01	2697.17
334.22	2983.89
334.43	2824.15
334.64	2729.94
334.86	2725.85
335.07	2783.19
335.28	3211.22
335.49	2686.94
335.70	2877.40
335.92	3186.64
336.13	3289.04
336.34	2869.20
336.55	2789.33
336.76	3000.27
336.98	2648.02
337.19	2856.92
337.40	2840.53
337.61	3475.40
337.82	2895.83
338.04	2856.92
338.25	2648.02
338.46	2832.34
338.67	2942.93
338.88	2648.02
339.09	2686.94
339.31	2906.07
339.52	2688.98
339.73	2695.13
339.94	2844.63
340.15	3149.78
340.36	2865.11
340.58	2822.10
340.79	2723.80
341.00	3039.19
341.21	2787.29
341.42	3024.85
341.63	2785.24
341.85	3094.48
342.06	3012.56
342.27	2775.00
342.48	2940.88
342.69	2709.46
342.90	2985.94
343.12	3141.58
343.33	2750.42
343.54	3155.92
343.75	3231.69
343.96	2897.88
344.17	2701.27
344.38	2901.97
344.60	2869.20
344.81	2760.66
345.02	2803.67
345.23	3149.78
345.44	3387.34
345.65	2873.30
345.86	2834.39
346.07	3026.90
346.29	2918.36
346.50	2871.25
346.71	2893.78
346.92	3121.10
347.13	3319.76
347.34	2867.16
347.55	2711.51
347.76	3030.99
347.98	2713.56
348.19	2865.11
348.40	3008.47
348.61	2879.44
348.82	3172.30
349.03	2842.58
349.24	2775.00
349.45	3299.28
349.66	2572.25
349.88	2772.95
350.09	2680.79
350.30	3274.70
350.51	3237.84
350.72	2981.84
350.93	2820.05
351.14	2889.68
351.35	3100.62
351.56	2791.38
351.77	2865.11
351.99	3039.19
352.20	3321.81
352.41	2893.78
352.62	2656.22
352.83	3041.23
353.04	2936.79
353.25	2818.00
353.46	2801.62
353.67	3176.40
353.88	2682.84
354.09	2781.14
354.30	2932.69
354.52	3078.10
354.73	2932.69
354.94	2783.19
355.15	2869.20
355.36	3311.57
355.57	2781.14
355.78	2828.24
355.99	2752.47
356.20	2942.93
356.41	3119.06
356.62	2881.49
356.83	2848.72
357.04	3260.37
357.25	2688.98
357.46	2836.44
357.68	2572.25
357.89	2811.86
358.10	2893.78
358.31	2762.71
358.52	2752.47
358.73	2807.77
358.94	2824.15
359.15	2815.96
359.36	2850.77
359.57	2916.31
359.78	2949.08
359.99	3004.37
360.20	2701.27
360.41	2987.99
360.62	2992.08
360.83	2836.44
361.04	2818.00
361.25	3000.27
361.46	3246.03
361.67	2920.40
361.88	2836.44
362.09	3248.08
362.30	2996.18
362.51	2795.48
362.72	2873.30
362.93	3106.77
363.14	3086.29
363.35	2856.92
363.56	2746.33
363.78	3209.17
363.99	3182.54
364.20	2820.05
364.41	2969.55
364.62	3272.65
364.83	3065.81
365.04	2856.92
365.25	2785.24
365.46	3303.37
365.67	2889.68
365.88	2934.74
366.09	2748.37
366.30	2895.83
366.51	3035.09
366.72	2691.03
366.93	2801.62
367.14	2987.99
367.35	3215.31
367.56	2736.09
367.77	2897.88
367.98	3012.56
368.18	2983.89
368.39	2846.68
368.60	2715.61
368.81	3030.99
369.02	3067.86
369.23	2799.57
369.44	2717.65
369.65	2854.87
369.86	3020.75
370.07	3004.37
370.28	2754.52
370.49	3053.52
370.70	3049.43
370.91	2723.80
371.12	2684.89
371.33	3137.49
371.54	2832.34
371.75	2977.75
371.96	2621.40
372.17	2969.55
372.38	2912.21
372.59	2848.72
372.80	2789.33
373.01	2981.84
373.22	2953.17
373.43	2789.33
373.64	2617.30
373.85	3162.06
374.06	3254.22
374.26	2975.70
374.47	2881.49
374.68	3264.46
374.89	3010.51
375.10	2701.27
375.31	2897.88
375.52	2992.08
375.73	3020.75
375.94	2760.66
376.15	2877.40
376.36	2871.25
376.57	2881.49
376.78	2807.77
376.99	2861.01
377.20	3231.69
377.40	2906.07
377.61	3053.52
377.82	2772.95
378.03	3264.46
378.24	3147.73
378.45	2863.06
378.66	2850.77
378.87	2740.18
379.08	2707.41
379.29	2811.86
379.50	2922.45
379.71	2928.60
379.91	3172.30
380.12	2801.62
380.33	2828.24
380.54	2963.41
380.75	2990.03
380.96	2822.10
381.17	2891.73
381.38	2944.98
381.59	3028.95
381.80	2842.58
382.00	2947.03
382.21	3045.33
382.42	3178.45
382.63	3205.07
382.84	2865.11
383.05	3129.30
383.26	3217.36
383.47	2975.70
383.68	2809.81
383.88	3125.20
384.09	3030.99
384.30	3024.85
384.51	2967.51
384.72	2879.44
384.93	2729.94
385.14	2867.16
385.35	3043.28
385.55	2777.05
385.76	3260.37
385.97	2834.39
386.18	2701.27
386.39	2834.39
386.60	2918.36
386.81	2742.23
387.02	2762.71
387.22	2693.08
387.43	3074.00
387.64	2867.16
387.85	3119.06
388.06	3043.28
388.27	4077.51
388.48	7329.68
388.68	10678.11
388.89	13387.57
389.10	14442.28
389.31	13973.29
389.52	11269.97
389.73	9832.30
389.93	8652.67
390.14	8093.57
390.35	7245.71
390.56	6635.42
390.77	5515.18
390.98	4304.83
391.18	3612.62
391.39	3385.29
391.60	3030.99
391.81	3133.39
392.02	2846.68
392.23	3438.54
392.43	3049.43
392.64	3010.51
392.85	2813.91
393.06	3346.38
393.27	2990.03
393.47	2818.00
393.68	2922.45
393.89	2904.02
394.10	3182.54
394.31	2740.18
394.52	2783.19
394.72	2904.02
394.93	3188.69
395.14	2688.98
395.35	2850.77
395.56	2914.26
395.76	3016.66
395.97	2867.16
396.18	2969.55
396.39	3047.38
396.60	3559.37
396.80	3211.22
397.01	2998.23
397.22	3065.81
397.43	3217.36
397.64	2756.57
397.84	2895.83
398.05	3373.00
398.26	2971.60
398.47	2904.02
398.67	3000.27
398.88	3035.09
399.09	3162.06
399.30	2764.76
399.51	2963.41
399.71	2813.91
399.92	2940.88
400.13	2910.16
400.34	2854.87
400.54	3049.43
400.75	3256.27
400.96	3004.37
401.17	3098.58
401.37	3067.86
401.58	2904.02
401.79	2836.44
402.00	2867.16
402.21	3346.38
402.41	3188.69
402.62	3069.91
402.83	3143.63
403.04	3332.05
403.24	3674.06
403.45	3035.09
403.66	3123.15
403.87	3153.87
404.07	3313.61
404.28	3061.71
404.49	3180.50
404.70	3084.24
404.90	3135.44
405.11	2883.54
405.32	2961.36
405.52	2914.26
405.73	2916.31
405.94	2713.56
406.15	2824.15
406.35	3143.63
406.56	3131.34
406.77	2871.25
406.98	2846.68
407.18	2772.95
407.39	3217.36
407.60	2777.05
407.80	2858.96
408.01	2922.45
408.22	3059.67
408.43	2719.70
408.63	2883.54
408.84	3174.35
409.05	3160.02
409.25	2826.20
409.46	2807.77
409.67	2805.72
409.88	2826.20
410.08	2920.40
410.29	2803.67
410.50	3155.92
410.70	3076.05
410.91	2711.51
411.12	2930.64
411.32	3002.32
411.53	2873.30
411.74	2783.19
411.95	2922.45
412.15	3024.85
412.36	3018.71
412.57	2912.21
412.77	3002.32
412.98	2998.23
413.19	2914.26
413.39	2867.16
413.60	2877.40
413.81	3217.36
414.01	2826.20
414.22	2895.83
414.43	2953.17
414.63	2977.75
414.84	3203.02
415.05	2856.92
415.25	2758.61
415.46	3078.10
415.67	2854.87
415.87	2881.49
416.08	2850.77
416.29	2981.84
416.49	3022.80
416.70	2885.59
416.91	2791.38
417.11	3006.42
417.32	3106.77
417.53	2983.89
417.73	3014.61
417.94	2969.55
418.15	3102.67
418.35	2910.16
418.56	2895.83
418.77	3420.11
418.97	2981.84
419.18	2910.16
419.38	2617.30
419.59	2893.78
419.80	3243.98
420.00	2727.89
420.21	2863.06
420.42	3241.93
420.62	2992.08
420.83	2813.91
421.04	2873.30
421.24	2963.41
421.45	3176.40
421.65	2826.20
421.86	2795.48
422.07	3108.82
422.27	3086.29
422.48	2787.29
422.69	2756.57
422.89	2990.03
423.10	2906.07
423.30	2717.65
423.51	2867.16
423.72	3024.85
423.92	3106.77
424.13	2766.81
424.33	2926.55
424.54	3047.38
424.75	2992.08
424.95	3074.00
425.16	2834.39
425.36	2949.08
425.57	3080.14
425.78	3000.27
425.98	2987.99
426.19	2979.79
426.39	2869.20
426.60	2844.63
426.81	2938.84
427.01	3057.62
427.22	2852.82
427.42	2701.27
427.63	2725.85
427.83	3108.82
428.04	3297.23
428.25	2928.60
428.45	2944.98
428.66	3192.78
428.86	3006.42
429.07	2861.01
429.28	2883.54
429.48	2957.27
429.69	2863.06
429.89	2932.69
430.10	2752.47
430.30	3153.87
430.51	3137.49
430.71	2750.42
430.92	2828.24
431.13	2875.35
431.33	3088.34
431.54	2861.01
431.74	3076.05
431.95	3401.68
432.15	2897.88
432.36	2836.44
432.56	2897.88
432.77	3268.56
432.98	3385.29
433.18	2906.07
433.39	2846.68
433.59	2934.74
433.80	3282.89
434.00	3002.32
434.21	2914.26
434.41	2975.70
434.62	3411.92
434.82	2783.19
435.03	2723.80
435.23	3020.75
435.44	2766.81
435.64	2834.39
435.85	2865.11
436.06	3078.10
436.26	3133.39
436.47	2858.96
436.67	2799.57
436.88	3022.80
437.08	3108.82
437.29	2967.51
437.49	2967.51
437.70	3141.58
437.90	2994.13
438.11	3069.91
438.31	2869.20
438.52	3266.51
438.72	3092.43
438.93	3162.06
439.13	2934.74
439.34	3196.88
439.54	2879.44
439.75	2893.78
439.95	2869.20
440.16	2830.29
440.36	2908.12
440.57	2805.72
440.77	2873.30
440.98	2977.75
441.18	3024.85
441.39	2789.33
441.59	2738.13
441.80	3289.04
442.00	2969.55
442.21	2957.27
442.41	2697.17
442.62	3147.73
442.82	2836.44
443.02	2834.39
443.23	2844.63
443.43	2877.40
443.64	3231.69
443.84	2715.61
444.05	2920.40
444.25	2959.31
444.46	2940.88
444.66	2885.59
444.87	3026.90
445.07	2809.81
445.28	2949.08
445.48	2987.99
445.69	2846.68
445.89	3426.25
446.09	2990.03
446.30	3121.10
446.50	3215.31
446.71	4616.12
446.91	5767.08
447.12	6518.68
447.32	7065.49
447.53	6940.57
447.73	5783.46
447.93	5091.25
448.14	4759.48
448.34	4818.87
448.55	4112.32
448.75	4050.88
448.96	3805.13
449.16	3588.04
449.36	3581.90
449.57	3114.96
449.77	2996.18
449.98	2963.41
450.18	3119.06
450.39	2791.38
450.59	3002.32
450.79	3043.28
451.00	2877.40
451.20	3000.27
451.41	2795.48
451.61	3059.67
451.81	2928.60
452.02	2811.86
452.22	2953.17
452.43	2848.72
452.63	2846.68
452.84	2906.07
453.04	2791.38
453.24	3035.09
453.45	2895.83
453.65	2912.21
453.86	2908.12
454.06	2944.98
454.26	2889.68
454.47	2803.67
454.67	3049.43
454.87	3067.86
455.08	2936.79
455.28	3125.20
455.49	2926.55
455.69	2891.73
455.89	3360.72
456.10	3051.47
456.30	2756.57
456.51	2992.08
456.71	3002.32
456.91	2990.03
457.12	2852.82
457.32	3028.95
457.52	2807.77
457.73	2981.84
457.93	3030.99
458.14	2932.69
458.34	2656.22
458.54	2852.82
458.75	2861.01
458.95	3176.40
459.15	3071.95
459.36	2936.79
459.56	2846.68
459.76	3424.20
459.97	2990.03
460.17	2887.64
460.37	3006.42
460.58	3071.95
460.78	3074.00
460.99	2881.49
461.19	2818.00
461.39	2832.34
461.60	2953.17
461.80	2881.49
462.00	2736.09
462.21	2920.40
462.41	2871.25
462.61	2824.15
462.82	2691.03
463.02	3022.80
463.22	2932.69
463.43	2928.60
463.63	2875.35
463.83	3213.26
464.04	3057.62
464.24	2904.02
464.44	2785.24
464.64	3074.00
464.85	3092.43
465.05	2856.92
465.25	2818.00
465.46	2852.82
465.66	3088.34
465.86	2949.08
466.07	2852.82
466.27	2940.88
466.47	2795.48
466.68	2727.89
466.88	2975.70
467.08	3151.82
467.29	3133.39
467.49	2885.59
467.69	2899.92
467.89	3160.02
468.10	2942.93
468.30	2947.03
468.50	2947.03
468.71	3162.06
468.91	2719.70
469.11	2981.84
469.31	2904.02
469.52	2791.38
469.72	3325.90
469.92	3131.34
470.13	2873.30
470.33	3080.14
470.53	3012.56
470.73	3188.69
470.94	3469.26
471.14	3626.95
471.34	4124.61
471.54	3766.21
471.75	3497.93
471.95	3307.47
472.15	3379.15
472.36	3346.38
472.56	3198.93
472.76	3497.93
472.96	3278.80
473.17	3074.00
473.37	2969.55
473.57	3014.61
473.77	3131.34
473.98	2949.08
474.18	2727.89
474.38	3547.08
474.58	2871.25
474.79	2783.19
474.99	3045.33
475.19	3200.98
475.39	2832.34
475.60	2901.97
475.80	2826.20
476.00	3039.19
476.20	2973.65
476.41	2920.40
476.61	3014.61
476.81	3246.03
477.01	2861.01
477.21	3082.19
477.42	2959.31
477.62	2801.62
477.82	3104.72
478.02	2764.76
478.23	2942.93
478.43	2883.54
478.63	2891.73
478.83	2883.54
479.03	2869.20
479.24	3217.36
479.44	3383.24
479.64	2797.53
479.84	2637.78
480.04	2879.44
480.25	3069.91
480.45	2756.57
480.65	2820.05
480.85	3276.75
481.06	2944.98
481.26	2979.79
481.46	2848.72
481.66	3065.81
481.86	2785.24
482.06	3016.66
482.27	2858.96
482.47	2904.02
482.67	3082.19
482.87	2869.20
483.07	2899.92
483.28	2895.83
483.48	2818.00
483.68	2838.48
483.88	2799.57
484.08	2660.31
484.29	2801.62
484.49	2848.72
484.69	2645.98
484.89	3225.55
485.09	3123.15
485.29	2897.88
485.50	2987.99
485.70	2940.88
485.90	3198.93
486.10	2912.21
486.30	2768.85
486.50	3190.74
486.71	3028.95
486.91	2904.02
487.11	3041.23
487.31	2856.92
487.51	3086.29
487.71	2766.81
487.91	2756.57
488.12	2852.82
488.32	2635.74
488.52	2801.62
488.72	2631.64
488.92	3024.85
489.12	3217.36
489.32	2965.46
489.53	2908.12
489.73	2768.85
489.93	3258.32
490.13	2795.48
490.33	2709.46
490.53	3024.85
490.73	3213.26
490.94	2746.33
491.14	2987.99
491.34	3086.29
491.54	3088.34
491.74	3696.58
491.94	4181.95
492.14	4657.08
492.34	4726.71
492.54	4323.26
492.75	3850.18
492.95	3839.94
493.15	3684.30
493.35	3526.60
493.55	3485.64
493.75	3362.76
493.95	3545.03
494.15	3039.19
494.35	2942.93
494.56	3037.14
494.76	2893.78
494.96	2963.41
495.16	2822.10
495.36	3051.47
495.56	3026.90
495.76	2891.73
495.96	2840.53
496.16	2785.24
496.36	3303.37
496.56	2834.39
496.77	3006.42
496.97	3002.32
497.17	3157.97
497.37	2668.50
497.57	2936.79
497.77	2895.83
497.97	2801.62
498.17	2947.03
498.37	2873.30
498.57	3123.15
498.77	2895.83
498.97	2971.60
499.17	3194.83
499.38	2883.54
499.58	3112.91
499.78	3002.32
499.98	2998.23
500.18	2971.60
500.38	2869.20
500.58	3035.09
500.78	3358.67
500.98	5633.96
501.18	7387.02
501.38	8810.36
501.58	9582.45
501.78	9566.06
501.98	8046.47
502.18	6715.29
502.38	5613.48
502.58	5654.44
502.78	4972.47
502.98	4822.97
503.18	4571.07
503.38	4392.89
503.59	3846.09
503.79	3573.71
503.99	3471.31
504.19	3440.59
504.39	3481.55
504.59	3362.76
504.79	3309.52
504.99	3573.71
505.19	3278.80
505.39	3012.56
505.59	3211.22
505.79	3317.71
505.99	3180.50
506.19	2826.20
506.39	3090.38
506.59	2869.20
506.79	2916.31
506.99	3063.76
507.19	2797.53
507.39	3086.29
507.59	2791.38
507.79	2785.24
507.99	2766.81
508.19	2959.31
508.39	2971.60
508.59	2850.77
508.79	2936.79
508.99	3370.96
509.19	2971.60
509.39	2910.16
509.59	2836.44
509.79	2822.10
509.99	3065.81
510.19	2912.21
510.39	2957.27
510.59	3055.57
510.79	2828.24
510.99	2701.27
511.19	2813.91
511.39	3190.74
511.59	3082.19
511.79	3014.61
511.99	2916.31
512.19	3405.77
512.38	2987.99
512.58	2775.00
512.78	2787.29
512.98	3155.92
513.18	3309.52
513.38	2772.95
513.58	2971.60
513.78	2897.88
513.98	2944.98
514.18	2834.39
514.38	2772.95
514.58	3074.00
514.78	2873.30
514.98	2828.24
515.18	2820.05
515.38	2803.67
515.58	3239.89
515.78	2756.57
515.98	2877.40
516.18	3012.56
516.38	2899.92
516.57	2834.39
516.77	2926.55
516.97	3145.68
517.17	2879.44
517.37	2658.26
517.57	2961.36
517.77	3039.19
517.97	2861.01
518.17	2895.83
518.37	2797.53
518.57	2830.29
518.77	2881.49
518.97	2881.49
519.16	2904.02
519.36	3182.54
519.56	2877.40
519.76	2844.63
519.96	2893.78
520.16	3194.83
520.36	2867.16
520.56	3016.66
520.76	2727.89
520.96	2908.12
521.16	3098.58
521.35	2994.13
521.55	3008.47
521.75	3078.10
521.95	2918.36
522.15	2764.76
522.35	2840.53
522.55	2891.73
522.75	3147.73
522.95	2766.81
523.14	2654.17
523.34	3164.11
523.54	2914.26
523.74	2897.88
523.94	2885.59
524.14	2752.47
524.34	3000.27
524.54	3117.01
524.73	2858.96
524.93	3049.43
525.13	3119.06
525.33	2717.65
525.53	3043.28
525.73	3160.02
525.93	3018.71
526.13	2940.88
526.32	2813.91
526.52	3205.07
526.72	3114.96
526.92	2885.59
527.12	2729.94
527.32	2740.18
527.52	3063.76
527.71	2967.51
527.91	2863.06
528.11	2953.17
528.31	3026.90
528.51	2779.09
528.71	3043.28
528.90	3049.43
529.10	3203.02
529.30	2949.08
529.50	2553.82
529.70	3045.33
529.90	2916.31
530.09	2910.16
530.29	2740.18
530.49	2820.05
530.69	3420.11
530.89	2938.84
531.09	3051.47
531.28	2879.44
531.48	3188.69
531.68	2904.02
531.88	2951.12
532.08	3108.82
532.28	3010.51
532.47	2934.74
532.67	2965.46
532.87	3078.10
533.07	2922.45
533.27	2906.07
533.46	2967.51
533.66	2947.03
533.86	3000.27
534.06	2936.79
534.26	2856.92
534.45	2961.36
534.65	3121.10
534.85	2985.94
535.05	2834.39
535.25	3133.39
535.44	2684.89
535.64	2912.21
535.84	2760.66
536.04	2996.18
536.24	2981.84
536.43	2850.77
536.63	2793.43
536.83	2973.65
537.03	2899.92
537.22	2686.94
537.42	2600.92
537.62	2949.08
537.82	2740.18
538.02	3092.43
538.21	2992.08
538.41	3450.83
538.61	3086.29
538.81	2850.77
539.00	2994.13
539.20	2736.09
539.40	2893.78
539.60	2826.20
539.79	3053.52
539.99	2951.12
540.19	2828.24
540.39	2858.96
540.58	2887.64
540.78	3194.83
540.98	2975.70
541.18	3088.34
541.37	3008.47
541.57	3020.75
541.77	3119.06
541.97	2768.85
542.16	2695.13
542.36	2897.88
542.56	2889.68
542.76	3008.47
542.95	2963.41
543.15	3114.96
543.35	3174.35
543.54	2719.70
543.74	2801.62
543.94	3235.79
544.14	2926.55
544.33	2992.08
544.53	2852.82
544.73	2949.08
544.93	2865.11
545.12	2807.77
545.32	2818.00
545.52	2934.74
545.71	2818.00
545.91	2883.54
546.11	2787.29
546.30	2830.29
546.50	2953.17
546.70	3030.99
546.90	2858.96
547.09	2719.70
547.29	2992.08
547.49	3067.86
547.68	2840.53
547.88	2938.84
548.08	3004.37
548.27	3241.93
548.47	2844.63
548.67	2922.45
548.87	3057.62
549.06	2758.61
549.26	2844.63
549.46	3000.27
549.65	2891.73
549.85	2918.36
550.05	2912.21
550.24	2795.48
550.44	2947.03
550.64	2889.68
550.83	2865.11
551.03	3213.26
551.23	3071.95
551.42	3004.37
551.62	2848.72
551.82	3076.05
552.01	2889.68
552.21	3123.15
552.41	2961.36
552.60	3260.37
552.80	3065.81
553.00	2828.24
553.19	2856.92
553.39	3258.32
553.59	2803.67
553.78	2951.12
553.98	2838.48
554.17	2801.62
554.37	3012.56
554.57	3006.42
554.76	2752.47
554.96	2893.78
555.16	3002.32
555.35	2908.12
555.55	3020.75
555.75	3092.43
555.94	3157.97
556.14	2723.80
556.33	2838.48
556.53	3008.47
556.73	2949.08
556.92	2951.12
557.12	2895.83
557.32	3383.24
557.51	3272.65
557.71	2973.65
557.90	3022.80
558.10	3227.60
558.30	2959.31
558.49	2904.02
558.69	2834.39
558.88	3106.77
559.08	3026.90
559.28	2826.20
559.47	2889.68
559.67	3123.15
559.86	3284.94
560.06	2861.01
560.26	2820.05
560.45	3119.06
560.65	2949.08
560.84	3110.86
561.04	2785.24
561.24	3098.58
561.43	2820.05
561.63	3129.30
561.82	2936.79
562.02	3043.28
562.22	2899.92
562.41	2822.10
562.61	2881.49
562.80	2826.20
563.00	3309.52
563.19	2873.30
563.39	2922.45
563.59	3053.52
563.78	2797.53
563.98	2613.21
564.17	2801.62
564.37	2772.95
564.56	2955.22
564.76	2729.94
564.96	2994.13
565.15	3067.86
565.35	3368.91
565.54	2852.82
565.74	2926.55
565.93	3041.23
566.13	2981.84
566.32	2873.30
566.52	3002.32
566.71	2942.93
566.91	3166.16
567.11	3002.32
567.30	2756.57
567.50	3106.77
567.69	3067.86
567.89	2811.86
568.08	2738.13
568.28	2998.23
568.47	2846.68
568.67	2942.93
568.86	2820.05
569.06	3071.95
569.25	2969.55
569.45	2754.52
569.64	2846.68
569.84	2987.99
570.04	2994.13
570.23	2815.96
570.43	2930.64
570.62	3104.72
570.82	3286.99
571.01	2785.24
571.21	2766.81
571.40	2791.38
571.60	3121.10
571.79	2961.36
571.99	2883.54
572.18	2858.96
572.38	3028.95
572.57	2932.69
572.77	2875.35
572.96	3418.06
573.16	3063.76
573.35	2846.68
573.55	3076.05
573.74	3004.37
573.94	2899.92
574.13	2867.16
574.33	3002.32
574.52	3164.11
574.71	3039.19
574.91	2897.88
575.10	2736.09
575.30	2910.16
575.49	2858.96
575.69	2779.09
575.88	2854.87
576.08	2990.03
576.27	3123.15
576.47	2840.53
576.66	3020.75
576.86	3323.85
577.05	2955.22
577.25	2963.41
577.44	3051.47
577.64	2906.07
577.83	3102.67
578.02	2793.43
578.22	2947.03
578.41	3303.37
578.61	3041.23
578.80	2707.41
579.00	2807.77
579.19	2932.69
579.39	3041.23
579.58	2893.78
579.77	2844.63
579.97	3192.78
580.16	3176.40
580.36	2963.41
580.55	2928.60
580.75	3104.72
580.94	2926.55
581.13	3069.91
581.33	3125.20
581.52	2985.94
581.72	3309.52
581.91	3000.27
582.11	2856.92
582.30	3143.63
582.49	2979.79
582.69	3149.78
582.88	2910.16
583.08	3008.47
583.27	3178.45
583.47	3037.14
583.66	2834.39
583.85	2826.20
584.05	2957.27
584.24	2953.17
584.44	2953.17
584.63	3178.45
584.82	3196.88
585.02	3104.72
585.21	2928.60
585.41	3088.34
585.60	3014.61
585.79	3100.62
585.99	3268.56
586.18	3110.86
586.37	3823.56
586.57	5762.98
586.76	16594.69
586.96	35296.74
587.15	48608.54
587.34	57062.55
587.54	61008.99
587.73	54516.93
587.93	38383.03
588.12	29492.80
588.31	23942.80
588.51	21302.97
588.70	19605.20
588.89	17139.45
589.09	14591.78
589.28	12715.84
589.47	9793.39
589.67	7606.16
589.86	5887.91
590.06	4657.08
590.25	4014.02
590.44	3569.61
590.64	3260.37
590.83	3291.09
591.02	3258.32
591.22	2828.24
591.41	2947.03
591.60	3039.19
591.80	3430.35
591.99	2658.26
592.18	2805.72
592.38	3153.87
592.57	2873.30
592.76	2854.87
592.96	2916.31
593.15	3006.42
593.34	3172.30
593.54	2893.78
593.73	3045.33
593.92	3071.95
594.12	3125.20
594.31	2930.64
594.50	3049.43
594.70	3071.95
594.89	3463.12
595.08	2723.80
595.28	3033.04
595.47	3508.17
595.66	3112.91
595.86	2772.95
596.05	2832.34
596.24	2865.11
596.43	3395.53
596.63	2996.18
596.82	2906.07
597.01	3135.44
597.21	3260.37
597.40	2916.31
597.59	2852.82
597.79	2977.75
597.98	3125.20
598.17	2883.54
598.36	2965.46
598.56	3215.31
598.75	2967.51
598.94	2869.20
599.14	2891.73
599.33	2818.00
599.52	3139.54
599.71	2992.08
599.91	2953.17
600.10	3059.67
600.29	2938.84
600.48	2869.20
600.68	3016.66
600.87	2987.99
601.06	2828.24
601.26	2858.96
601.45	2965.46
601.64	2865.11
601.83	3344.33
602.03	2719.70
602.22	2793.43
602.41	3121.10
602.60	3426.25
602.80	3045.33
602.99	2994.13
603.18	2889.68
603.37	2926.55
603.57	2832.34
603.76	2871.25
603.95	3180.50
604.14	2873.30
604.34	2797.53
604.53	2813.91
604.72	3082.19
604.91	3065.81
605.10	2889.68
605.30	2820.05
605.49	3237.84
605.68	3155.92
605.87	2940.88
606.07	2824.15
606.26	3010.51
606.45	3057.62
606.64	2930.64
606.84	2813.91
607.03	2918.36
607.22	3151.82
607.41	2885.59
607.60	2826.20
607.80	3170.26
607.99	2973.65
608.18	2899.92
608.37	2877.40
608.56	2852.82
608.76	3186.64
608.95	3069.91
609.14	2895.83
609.33	3108.82
609.52	3205.07
609.72	3020.75
609.91	2987.99
610.10	3053.52
610.29	3164.11
610.48	3000.27
610.68	2992.08
610.87	2992.08
611.06	3143.63
611.25	2887.64
611.44	3022.80
611.63	2852.82
611.83	3297.23
612.02	2848.72
612.21	2971.60
612.40	2635.74
612.59	2834.39
612.79	2758.61
612.98	2959.31
613.17	3278.80
613.36	2977.75
613.55	3004.37
613.74	2889.68
613.93	2928.60
614.13	3084.24
614.32	2990.03
614.51	2936.79
614.70	2975.70
614.89	2854.87
615.08	3006.42
615.28	3272.65
615.47	2856.92
615.66	3028.95
615.85	2973.65
616.04	2928.60
616.23	2959.31
616.42	2904.02
616.62	2850.77
616.81	2854.87
617.00	2938.84
617.19	3090.38
617.38	2828.24
617.57	3010.51
617.76	3074.00
617.95	3117.01
618.15	3065.81
618.34	3133.39
618.53	2709.46
618.72	3074.00
618.91	2977.75
619.10	2987.99
619.29	2942.93
619.48	3033.04
619.68	2680.79
619.87	2832.34
620.06	2789.33
620.25	3127.25
620.44	2820.05
620.63	2854.87
620.82	3026.90
621.01	3020.75
621.20	2865.11
621.39	2912.21
621.59	2961.36
621.78	2944.98
621.97	2854.87
622.16	2910.16
622.35	3047.38
622.54	3168.21
622.73	2971.60
622.92	2693.08
623.11	3135.44
623.30	2955.22
623.49	2938.84
623.68	2713.56
623.88	3203.02
624.07	2920.40
624.26	2824.15
624.45	2895.83
624.64	2899.92
624.83	3024.85
625.02	2836.44
625.21	2899.92
625.40	2969.55
625.59	3135.44
625.78	2963.41
625.97	2979.79
626.16	3219.41
626.35	3178.45
626.54	2895.83
626.74	3090.38
626.93	2899.92
627.12	2969.55
627.31	2924.50
627.50	2912.21
627.69	3123.15
627.88	2879.44
628.07	2752.47
628.26	2766.81
628.45	2834.39
628.64	2844.63
628.83	2854.87
629.02	2719.70
629.21	3061.71
629.40	3069.91
629.59	2750.42
629.78	2768.85
629.97	3030.99
630.16	2965.46
630.35	2840.53
630.54	2971.60
630.73	2908.12
630.92	2936.79
631.11	2793.43
631.30	2924.50
631.49	3123.15
631.68	2938.84
631.87	2901.97
632.06	2740.18
632.25	3352.52
632.44	2951.12
632.63	2928.60
632.82	2838.48
633.01	2820.05
633.20	3026.90
633.39	2891.73
633.58	2682.84
633.77	3004.37
633.96	3069.91
634.15	2979.79
634.34	2936.79
634.53	3100.62
634.72	2799.57
634.91	2699.22
635.10	2899.92
635.29	3145.68
635.48	3041.23
635.67	2760.66
635.86	2750.42
636.05	3164.11
636.24	3045.33
636.43	2856.92
636.62	2928.60
636.81	2605.02
637.00	3016.66
637.19	2897.88
637.38	2854.87
637.57	2852.82
637.76	2983.89
637.95	3008.47
638.14	2873.30
638.33	3004.37
638.52	3051.47
638.71	2705.37
638.89	2668.50
639.08	3467.21
639.27	3057.62
639.46	3059.67
639.65	3209.17
639.84	3426.25
640.03	3585.99
640.22	3164.11
640.41	3239.89
640.60	3084.24
640.79	3194.83
640.98	2996.18
641.17	2975.70
641.36	3141.58
641.55	3143.63
641.74	2777.05
641.92	2787.29
642.11	2764.76
642.30	2930.64
642.49	2795.48
642.68	2852.82
642.87	3112.91
643.06	3172.30
643.25	2738.13
643.44	2801.62
643.63	2918.36
643.82	3127.25
644.00	2746.33
644.19	2863.06
644.38	2838.48
644.57	3004.37
644.76	2920.40
644.95	2858.96
645.14	2961.36
645.33	2916.31
645.52	2854.87
645.71	2764.76
645.89	2832.34
646.08	2977.75
646.27	2873.30
646.46	3037.14
646.65	2809.81
646.84	2979.79
647.03	2805.72
647.22	2961.36
647.40	3055.57
647.59	2914.26
647.78	2633.69
647.97	2815.96
648.16	2768.85
648.35	3264.46
648.54	3071.95
648.73	2875.35
648.91	3100.62
649.10	3084.24
649.29	2779.09
649.48	2772.95
649.67	3104.72
649.86	3033.04
650.05	2883.54
650.23	3049.43
650.42	2844.63
650.61	3301.33
650.80	3098.58
650.99	3082.19
651.18	3174.35
651.36	3239.89
651.55	2783.19
651.74	2908.12
651.93	2967.51
652.12	2987.99
652.31	2885.59
652.49	2928.60
652.68	2969.55
652.87	3155.92
653.06	2955.22
653.25	3117.01
653.44	3045.33
653.62	3262.41
653.81	2828.24
654.00	2783.19
654.19	3127.25
654.38	3409.87
654.56	2959.31
654.75	2856.92
654.94	3139.54
655.13	3002.32
655.32	2869.20
655.51	2967.51
655.69	2785.24
655.88	3227.60
656.07	2758.61
656.26	2979.79
656.45	2766.81
656.63	3037.14
656.82	2930.64
657.01	3049.43
657.20	2924.50
657.38	3188.69
657.57	2877.40
657.76	2584.54
657.95	3065.81
658.14	2908.12
658.32	2928.60
658.51	2752.47
658.70	3018.71
658.89	3051.47
659.08	2850.77
659.26	3069.91
659.45	2863.06
659.64	3024.85
659.83	2775.00
660.01	3213.26
660.20	2992.08
660.39	3272.65
660.58	2627.54
660.76	2996.18
660.95	2760.66
661.14	2938.84
661.33	2758.61
661.51	2840.53
661.70	2883.54
661.89	2979.79
662.08	2865.11
662.26	2731.99
662.45	2770.90
662.64	3297.23
662.83	2996.18
663.01	2691.03
663.20	2897.88
663.39	3170.26
663.58	2928.60
663.76	2846.68
663.95	3096.53
664.14	2828.24
664.32	2914.26
664.51	2744.28
664.70	2693.08
664.89	3030.99
665.07	2830.29
665.26	3041.23
665.45	2768.85
665.64	3026.90
665.82	2969.55
666.01	2953.17
666.20	2809.81
666.38	3151.82
666.57	3123.15
666.76	4831.16
666.95	11069.27
667.13	17491.70
667.32	21391.03
667.51	24051.34
667.69	25218.69
667.88	21282.49
668.07	15087.39
668.25	12861.24
668.44	11114.33
668.63	9736.04
668.81	8560.51
669.00	7440.27
669.19	6668.19
669.38	5920.68
669.56	5107.63
669.75	4390.84
669.94	3958.72
670.12	3456.97
670.31	3203.02
670.50	3164.11
670.68	3196.88
670.87	2998.23
671.06	2895.83
671.24	2906.07
671.43	3198.93
671.62	2985.94
671.80	2875.35
671.99	2981.84
672.18	2981.84
672.36	3117.01
672.55	2975.70
672.74	2828.24
672.92	3055.57
673.11	3141.58
673.29	2709.46
673.48	3024.85
673.67	2940.88
673.85	3147.73
674.04	2787.29
674.23	2936.79
674.41	3346.38
674.60	2869.20
674.79	2693.08
674.97	2693.08
675.16	3082.19
675.34	3225.55
675.53	2856.92
675.72	2912.21
675.90	3268.56
676.09	2865.11
676.28	2928.60
676.46	2781.14
676.65	3110.86
676.83	2889.68
677.02	2924.50
677.21	2871.25
677.39	3057.62
677.58	2875.35
677.77	2818.00
677.95	2744.28
678.14	2914.26
678.32	2944.98
678.51	2873.30
678.70	3100.62
678.88	2871.25
679.07	2971.60
679.25	2840.53
679.44	2852.82
679.63	2844.63
679.81	3035.09
680.00	3133.39
680.18	3047.38
680.37	3260.37
680.55	3016.66
680.74	2711.51
680.93	2637.78
681.11	3043.28
681.30	2955.22
681.48	2951.12
681.67	2844.63
681.85	3078.10
682.04	2869.20
682.23	3041.23
682.41	2973.65
682.60	3024.85
682.78	2947.03
682.97	2766.81
683.15	2938.84
683.34	3033.04
683.53	3291.09
683.71	2781.14
683.90	2969.55
684.08	3266.51
684.27	2955.22
684.45	2953.17
684.64	3074.00
684.82	2932.69
685.01	3160.02
685.19	2850.77
685.38	3133.39
685.57	2963.41
685.75	2848.72
685.94	2756.57
686.12	2727.89
686.31	2942.93
686.49	3184.59
686.68	2664.41
686.86	2934.74
687.05	2928.60
687.23	3297.23
687.42	2863.06
687.60	2607.06
687.79	3129.30
687.97	3215.31
688.16	3004.37
688.34	3028.95
688.53	2656.22
688.71	3071.95
688.90	3180.50
689.08	2834.39
689.27	2670.55
689.45	3030.99
689.64	2977.75
689.82	2963.41
690.01	3045.33
690.19	2975.70
690.38	2834.39
690.56	2971.60
690.75	2891.73
690.93	2885.59
691.12	2818.00
691.30	2904.02
691.49	2938.84
691.67	2992.08
691.86	3131.34
692.04	2854.87
692.23	2881.49
692.41	2975.70
692.60	3213.26
692.78	3028.95
692.97	2987.99
693.15	3123.15
693.34	3108.82
693.52	3049.43
693.71	2926.55
693.89	2879.44
694.08	2674.65
694.26	2953.17
694.44	3129.30
694.63	3178.45
694.81	2775.00
695.00	2895.83
695.18	3143.63
695.37	3442.64
695.55	2975.70
695.74	2885.59
695.92	2863.06
696.10	3264.46
696.29	2777.05
696.47	2768.85
696.66	2785.24
696.84	2844.63
697.03	2930.64
697.21	3188.69
697.40	4310.97
697.58	3182.54
697.76	2854.87
697.95	2750.42
698.13	2820.05
698.32	2887.64
698.50	2861.01
698.68	2897.88
698.87	2977.75
699.05	3258.32
699.24	2889.68
699.42	2758.61
699.61	2992.08
699.79	2967.51
699.97	2885.59
700.16	2750.42
700.34	2738.13
700.53	3018.71
700.71	3024.85
700.89	2953.17
701.08	2985.94
701.26	3000.27
701.45	3229.65
701.63	2775.00
701.81	2848.72
702.00	2752.47
702.18	2940.88
702.37	2883.54
702.55	3190.74
702.73	3041.23
702.92	2828.24
703.10	3164.11
703.28	3117.01
703.47	2779.09
703.65	3039.19
703.84	2953.17
704.02	2887.64
704.20	3233.74
704.39	2791.38
704.57	2813.91
704.75	3174.35
704.94	3127.25
705.12	3008.47
705.30	3516.36
705.49	6778.78
705.67	12889.92
705.86	18296.55
706.04	20670.15
706.22	22705.83
706.41	22355.63
706.59	16795.39
706.77	13334.32
706.96	11380.56
707.14	10530.66
707.32	8937.34
707.51	7853.96
707.69	6426.53
707.87	5351.34
708.06	4536.25
708.24	3948.48
708.42	3618.76
708.61	3663.82
708.79	2936.79
708.97	3030.99
709.16	3014.61
709.34	3082.19
709.52	2926.55
709.71	2891.73
709.89	3139.54
710.07	2797.53
710.26	2740.18
710.44	2901.97
710.62	3137.49
710.80	3004.37
710.99	3030.99
711.17	2987.99
711.35	2906.07
711.54	2815.96
711.72	3041.23
711.90	2918.36
712.09	3065.81
712.27	2803.67
712.45	2973.65
712.63	2813.91
712.82	3037.14
713.00	2979.79
713.18	3049.43
713.37	3080.14
713.55	3117.01
713.73	3051.47
713.91	2955.22
714.10	2795.48
714.28	2906.07
714.46	2981.84
714.65	2922.45
714.83	2865.11
715.01	3016.66
715.19	3080.14
715.38	2836.44
715.56	3016.66
715.74	2965.46
715.92	2777.05
716.11	3082.19
716.29	2598.87
716.47	3012.56
716.65	2961.36
716.84	2758.61
717.02	2936.79
717.20	2691.03
717.38	2893.78
717.57	3055.57
717.75	2936.79
717.93	2987.99
718.11	3065.81
718.30	2684.89
718.48	2883.54
718.66	3284.94
718.84	3069.91
719.03	2783.19
719.21	2746.33
719.39	3293.13
719.57	3076.05
719.75	2953.17
719.94	2789.33
720.12	2994.13
720.30	3049.43
720.48	2947.03
720.67	2910.16
720.85	2805.72
721.03	2944.98
721.21	2787.29
721.39	2969.55
721.58	3033.04
721.76	2934.74
721.94	2951.12
722.12	3002.32
722.30	3303.37
722.49	2887.64
722.67	2826.20
722.85	2906.07
723.03	2713.56
723.21	2854.87
723.40	2885.59
723.58	2975.70
723.76	3119.06
723.94	3235.79
724.12	2867.16
724.30	3092.43
724.49	3133.39
724.67	2828.24
724.85	2957.27
725.03	2742.23
725.21	3082.19
725.40	3102.67
725.58	2832.34
725.76	3078.10
725.94	3110.86
726.12	2811.86
726.30	2891.73
726.49	2822.10
726.67	2856.92
726.85	3028.95
727.03	3368.91
727.21	4448.19
727.39	5443.50
727.57	5785.51
727.76	6234.02
727.94	6223.78
728.12	5603.24
728.30	4589.50
728.48	4462.52
728.66	4095.94
728.84	3903.43
729.03	3487.69
729.21	3440.59
729.39	3129.30
729.57	3047.38
729.75	3155.92
729.93	2932.69
730.11	2879.44
730.30	2971.60
730.48	2867.16
730.66	2938.84
730.84	2963.41
731.02	2957.27
731.20	2922.45
731.38	2904.02
731.56	2748.37
731.74	2705.37
731.93	2992.08
732.11	2992.08
732.29	2959.31
732.47	3176.40
732.65	2969.55
732.83	3112.91
733.01	2949.08
733.19	2899.92
733.37	3080.14
733.56	2879.44
733.74	2824.15
733.92	3266.51
734.10	2867.16
734.28	2987.99
734.46	2592.73
734.64	2856.92
734.82	2914.26
735.00	2844.63
735.18	2826.20
735.36	2967.51
735.54	3055.57
735.73	2775.00
735.91	2971.60
736.09	3209.17
736.27	3022.80
736.45	2848.72
736.63	2566.10
736.81	2897.88
736.99	3110.86
737.17	3135.44
737.35	2850.77
737.53	3012.56
737.71	2942.93
737.89	3022.80
738.07	2852.82
738.25	2848.72
738.43	2844.63
738.61	2813.91
738.80	2713.56
738.98	2781.14
739.16	2887.64
739.34	2809.81
739.52	3182.54
739.70	3008.47
739.88	3100.62
740.06	2955.22
740.24	2693.08
740.42	3090.38
740.60	2723.80
740.78	2869.20
740.96	2682.84
741.14	2889.68
741.32	3086.29
741.50	2678.74
741.68	3164.11
741.86	3246.03
742.04	2811.86
742.22	2729.94
742.40	2887.64
742.58	3059.67
742.76	2881.49
742.94	3143.63
743.12	2643.93
743.30	2953.17
743.48	3147.73
743.66	2766.81
743.84	2863.06
744.02	2955.22
744.20	3010.51
744.38	2787.29
744.56	2803.67
744.74	3243.98
744.92	3045.33
745.10	3045.33
745.28	2971.60
745.46	3274.70
745.64	2942.93
745.82	3012.56
746.00	2877.40
746.18	3041.23
746.36	2885.59
746.54	2969.55
746.72	2910.16
746.90	2842.58
747.08	3223.50
747.26	2861.01
747.44	2983.89
747.62	3088.34
747.80	3051.47
747.98	2975.70
748.15	2912.21
748.33	3334.09
748.51	3010.51
748.69	2967.51
748.87	2742.23
749.05	2979.79
749.23	2897.88
749.41	2858.96
749.59	2885.59
749.77	3104.72
749.95	2947.03
750.13	2770.90
750.31	3092.43
750.49	2938.84
750.67	3088.34
750.85	3047.38
751.03	2852.82
751.20	3350.48
751.38	2969.55
751.56	2818.00
751.74	2916.31
751.92	2881.49
752.10	2809.81
752.28	3049.43
752.46	2826.20
752.64	3047.38
752.82	2973.65
753.00	3051.47
753.18	2826.20
753.35	2981.84
753.53	2957.27
753.71	2750.42
753.89	2963.41
754.07	3055.57
754.25	3180.50
754.43	2883.54
754.61	2801.62
754.79	3000.27
754.97	2887.64
755.14	3110.86
755.32	2777.05
755.50	3035.09
755.68	3033.04
755.86	2846.68
756.04	2832.34
756.22	2682.84
756.40	3121.10
756.57	3057.62
756.75	2785.24
756.93	3133.39
757.11	3125.20
757.29	2748.37
757.47	2742.23
757.65	2711.51
757.82	2648.02
758.00	2775.00
758.18	2820.05
758.36	2883.54
758.54	3327.95
758.72	2736.09
758.90	3022.80
759.07	3123.15
759.25	2811.86
759.43	2969.55
759.61	2664.41
759.79	4143.04
759.97	3184.59
760.15	2942.93
760.32	2877.40
760.50	3002.32
760.68	3301.33
760.86	2731.99
761.04	3117.01
761.22	3092.43
761.39	3063.76
761.57	3022.80
761.75	2938.84
761.93	3133.39
762.11	3096.53
762.28	3018.71
762.46	2781.14
762.64	3092.43
762.82	2824.15
763.00	2830.29
763.18	3108.82
763.35	2791.38
763.53	3043.28
763.71	3024.85
763.89	2901.97
764.07	3010.51
764.24	2979.79
764.42	2969.55
764.60	2811.86
764.78	3080.14
764.96	3151.82
765.13	3010.51
765.31	2795.48
765.49	3145.68
765.67	2758.61
765.84	2781.14
766.02	2793.43
766.20	2723.80
766.38	2977.75
766.56	3022.80
766.73	2957.27
766.91	2957.27
767.09	2990.03
767.27	2922.45
767.44	2783.19
767.62	3080.14
767.80	2975.70
767.98	2863.06
768.15	2815.96
768.33	3108.82
768.51	3162.06
768.69	3082.19
768.87	2807.77
769.04	3055.57
769.22	3448.78
769.40	3012.56
769.58	3074.00
769.75	3055.57
769.93	3211.22
770.11	2867.16
770.28	2775.00
770.46	3110.86
770.64	2994.13
770.82	2842.58
770.99	2830.29
771.17	3094.48
771.35	3026.90
771.53	2918.36
771.70	2807.77
771.88	3092.43
772.06	2994.13
772.23	2824.15
772.41	2838.48
772.59	2961.36
772.77	2846.68
772.94	2842.58
773.12	2938.84
773.30	2916.31
773.47	3045.33
773.65	2791.38
773.83	3049.43
774.01	2975.70
774.18	2674.65
774.36	2848.72
774.54	2711.51
774.71	3071.95
774.89	2738.13
775.07	2764.76
775.24	2813.91
775.42	2918.36
775.60	3239.89
775.78	2791.38
775.95	2719.70
776.13	2805.72
776.31	2658.26
776.48	2977.75
776.66	3041.23
776.84	2871.25
777.01	2813.91
777.19	2824.15
777.37	2818.00
777.54	3028.95
777.72	3330.00
777.90	2922.45
778.07	2740.18
778.25	3522.51
778.43	3137.49
778.60	2760.66
778.78	2977.75
778.96	3223.50
779.13	2824.15
779.31	2973.65
779.49	2953.17
779.66	2985.94
779.84	2861.01
780.01	2797.53
780.19	2809.81
780.37	3227.60
780.54	2990.03
780.72	2711.51
780.90	2871.25
781.07	2963.41
781.25	2914.26
781.43	3094.48
781.60	2815.96
781.78	3207.12
781.95	2985.94
782.13	2818.00
782.31	2842.58
782.48	2731.99
782.66	3002.32
782.83	3071.95
783.01	3000.27
783.19	3184.59
783.36	2932.69
783.54	2693.08
783.72	2938.84
783.89	2942.93
784.07	3004.37
784.24	2944.98
784.42	2985.94
784.60	3102.67
784.77	3067.86
784.95	2658.26
785.12	2826.20
785.30	2990.03
785.47	2848.72
785.65	2762.71
785.83	2924.50
786.00	2865.11
786.18	2951.12
786.35	2783.19
786.53	2762.71
786.71	3180.50
786.88	3076.05
787.06	2867.16
787.23	2910.16
787.41	2879.44
787.58	2936.79
787.76	2772.95
787.94	2820.05
788.11	3080.14
788.29	2824.15
788.46	2867.16
788.64	2639.83
788.81	2918.36
788.99	2830.29
789.16	2736.09
789.34	2858.96
789.52	2856.92
789.69	2949.08
789.87	2623.45
790.04	2828.24
790.22	2996.18
790.39	3364.81
790.57	2762.71
790.74	2742.23
790.92	3192.78
791.09	2740.18
791.27	3006.42
791.44	3000.27
791.62	2895.83
791.79	3114.96
791.97	2848.72
792.15	3190.74
792.32	3037.14
792.50	3145.68
792.67	3045.33
792.85	3106.77
793.02	2959.31
793.20	2971.60
793.37	2754.52
793.55	2783.19
793.72	2662.36
793.90	3114.96
794.07	2752.47
794.25	2781.14
794.42	2957.27
794.60	2992.08
794.77	2959.31
794.95	3006.42
795.12	3137.49
795.30	2924.50
795.47	2721.75
795.65	3272.65
795.82	3024.85
796.00	2836.44
796.17	2858.96
796.34	2791.38
796.52	3033.04
796.69	3074.00
796.87	2938.84
797.04	2985.94
797.22	3168.21
797.39	3035.09
797.57	3014.61
797.74	2912.21
797.92	3071.95
798.09	2869.20
798.27	3147.73
798.44	2781.14
798.62	2916.31
798.79	3028.95
798.96	3039.19
799.14	2893.78
799.31	3389.39
799.49	2848.72
799.66	2865.11
799.84	2942.93
800.01	2668.50
800.19	2955.22
800.36	2633.69
800.53	2838.48
800.71	3076.05
800.88	3286.99
801.06	2775.00
801.23	2803.67
801.41	2914.26
801.58	2809.81
801.75	2838.48
801.93	2897.88
802.10	3135.44
802.28	2920.40
802.45	2807.77
802.63	2967.51
802.80	3143.63
802.97	2947.03
803.15	2908.12
803.32	2879.44
803.50	2818.00
803.67	2820.05
803.84	2768.85
804.02	2940.88
804.19	2996.18
804.37	2637.78
804.54	2768.85
804.71	2795.48
804.89	2979.79
805.06	2822.10
805.24	2822.10
805.41	2719.70
805.58	2885.59
805.76	3456.97
805.93	2858.96
806.10	2990.03
806.28	3088.34
806.45	2949.08
806.63	2951.12
806.80	2918.36
806.97	2998.23
807.15	3086.29
807.32	2846.68
807.49	2852.82
807.67	2723.80
807.84	2963.41
808.01	2633.69
808.19	3053.52
808.36	3356.62
808.54	2848.72
808.71	2832.34
808.88	2820.05
809.06	3151.82
809.23	3131.34
809.40	2752.47
809.58	2887.64
809.75	3006.42
809.92	2742.23
810.10	3133.39
810.27	2908.12
810.44	3053.52
810.62	3139.54
810.79	2889.68
810.96	2834.39
811.14	2832.34
811.31	3117.01
811.48	2977.75
811.66	2869.20
811.83	3125.20
812.00	3020.75
812.18	3012.56
812.35	3164.11
812.52	2928.60
812.69	2840.53
812.87	2922.45
813.04	2719.70
813.21	2975.70
813.39	2912.21
813.56	2777.05
813.73	3086.29
813.91	2756.57
814.08	2936.79
814.25	2955.22
814.42	2729.94
814.60	2955.22
814.77	3067.86
814.94	2822.10
815.12	2969.55
815.29	3260.37
815.46	2787.29
815.63	2893.78
815.81	2920.40
815.98	2930.64
816.15	2942.93
816.33	2977.75
816.50	2848.72
816.67	2936.79
816.84	2893.78
817.02	2783.19
817.19	2852.82
817.36	2969.55
817.53	3035.09
817.71	2766.81
817.88	2955.22
818.05	2938.84
818.22	2916.31
818.40	3069.91
818.57	2826.20
818.74	3012.56
818.91	3000.27
819.09	3084.24
819.26	2949.08
819.43	2836.44
819.60	2785.24
819.78	3033.04
819.95	2957.27
820.12	2803.67
820.29	3213.26
820.47	3069.91
820.64	2799.57
820.81	2764.76
820.98	2930.64
821.15	2885.59
821.33	2975.70
821.50	2658.26
821.67	3094.48
821.84	2707.41
822.02	2906.07
822.19	3078.10
822.36	2965.46
822.53	2883.54
822.70	2736.09
822.88	2959.31
823.05	3227.60
823.22	2914.26
823.39	3014.61
823.56	2942.93
823.74	3258.32
823.91	2783.19
824.08	2740.18
824.25	2897.88
824.42	3309.52
824.60	2693.08
824.77	2885.59
824.94	2949.08
825.11	2973.65
825.28	2721.75
825.45	2998.23
825.63	3041.23
825.80	2830.29
825.97	2969.55
826.14	2869.20
826.31	2748.37
826.48	3051.47
826.66	2811.86
826.83	2881.49
827.00	2893.78
827.17	2852.82
827.34	2852.82
827.51	2828.24
827.69	2969.55
827.86	2711.51
828.03	2879.44
828.20	2854.87
828.37	2832.34
828.54	3084.24
828.71	2785.24
828.89	3018.71
829.06	3069.91
829.23	3233.74
829.40	2754.52
829.57	2840.53
829.74	3065.81
829.91	2824.15
830.09	2803.67
830.26	2895.83
830.43	3108.82
830.60	2992.08
830.77	2914.26
830.94	3004.37
831.11	3055.57
831.28	2928.60
831.46	3045.33
831.63	2901.97
831.80	3147.73
831.97	2895.83
832.14	2881.49
832.31	2944.98
832.48	2992.08
832.65	3094.48
832.82	2887.64
832.99	2916.31
833.17	2787.29
833.34	3168.21
833.51	2820.05
833.68	2625.50
833.85	3096.53
834.02	2799.57
834.19	2731.99
834.36	2840.53
834.53	3020.75
834.70	3147.73
834.87	2879.44
835.04	2656.22
835.22	2869.20
835.39	2885.59
835.56	2676.70
835.73	2752.47
835.90	3168.21
836.07	2775.00
836.24	2846.68
836.41	2725.85
836.58	2824.15
836.75	3114.96
836.92	2803.67
837.09	2637.78
837.26	3145.68
837.43	3049.43
837.60	2799.57
837.77	2731.99
837.94	3162.06
838.12	3229.65
838.29	2637.78
838.46	2727.89
838.63	2873.30
838.80	3258.32
838.97	2793.43
839.14	2711.51
839.31	2959.31
839.48	3094.48
839.65	2635.74
839.82	2754.52
839.99	2977.75
840.16	3010.51
840.33	2688.98
840.50	2797.53
840.67	2881.49
840.84	2576.34
841.01	2686.94
841.18	2762.71
841.35	2949.08
841.52	3121.10
841.69	3028.95
841.86	2801.62
842.03	3037.14
842.20	3110.86
842.37	2660.31
842.54	2813.91
842.71	2957.27
842.88	2772.95
843.05	2750.42
843.22	2762.71
843.39	3051.47
843.56	2846.68
843.73	2664.41
843.90	2836.44
844.07	2994.13
844.24	3084.24
844.41	2836.44
844.58	2754.52
844.75	2947.03
844.92	3096.53
845.09	2807.77
845.26	2734.04
845.43	3121.10
845.60	2916.31
845.77	2854.87
845.94	2830.29
846.10	3157.97
846.27	2674.65
846.44	2662.36
846.61	2641.88
846.78	3020.75
846.95	3088.34
847.12	2758.61
847.29	2734.04
847.46	2840.53
847.63	3086.29
847.80	2666.46
847.97	2762.71
848.14	3407.82
848.31	2951.12
848.48	2607.06
848.65	2697.17
848.82	2891.73
848.98	3456.97
849.15	2861.01
849.32	2881.49
849.49	3108.82
849.66	2975.70
849.83	2721.75
850.00	2680.79
850.17	3055.57
850.34	2922.45
850.51	2676.70
850.68	2768.85
850.85	3346.38
851.01	2992.08
851.18	2744.28
851.35	2764.76
851.52	3045.33
851.69	3151.82
851.86	2617.30
852.03	2805.72
852.20	3045.33
852.37	3002.32
852.53	2588.63
852.70	2648.02
852.87	2990.03
853.04	3067.86
853.21	2621.40
853.38	3002.32
853.55	3157.97
853.72	3225.55
853.89	2643.93
854.05	2686.94
854.22	2822.10
854.39	2881.49
854.56	2672.60
854.73	2908.12
854.90	2787.29
855.07	2936.79
855.23	2639.83
855.40	2715.61
855.57	3018.71
855.74	2592.73
855.91	2879.44
856.08	2664.41
856.25	2760.66
856.41	2881.49
856.58	2760.66
856.75	2740.18
856.92	2826.20
857.09	3074.00
857.26	2645.98
857.42	2766.81
857.59	3098.58
857.76	2928.60
857.93	2756.57
858.10	2797.53
858.27	2750.42
858.43	2918.36
858.60	2770.90
858.77	2703.32
858.94	2836.44
859.11	3117.01
859.27	2795.48
859.44	2729.94
859.61	3252.17
859.78	3112.91
859.95	2768.85
860.12	2775.00
860.28	3348.43
860.45	3254.22
860.62	2678.74
860.79	2723.80
860.95	2930.64
861.12	2852.82
861.29	2713.56
861.46	2740.18
861.63	2994.13
861.79	3065.81
861.96	2641.88
862.13	2713.56
862.30	3145.68
862.47	2875.35
862.63	2670.55
862.80	2801.62
862.97	3086.29
863.14	3086.29
863.30	2781.14
863.47	2658.26
863.64	3246.03
863.81	2967.51
863.97	2643.93
864.14	2807.77
864.31	2918.36
864.48	2953.17
864.65	2703.32
864.81	2893.78
864.98	3037.14
865.15	3012.56
865.32	2768.85
865.48	2783.19
865.65	3313.61
865.82	2865.11
865.98	2858.96
866.15	2783.19
866.32	2979.79
866.49	2918.36
866.65	2871.25
866.82	2752.47
866.99	2998.23
867.16	2861.01
867.32	2729.94
867.49	2678.74
867.66	2920.40
867.83	2906.07
867.99	2699.22
868.16	2674.65
868.33	2772.95
868.49	2953.17
868.66	2727.89
868.83	2856.92
868.99	3047.38
869.16	3014.61
869.33	2877.40
869.50	2756.57
869.66	2957.27
869.83	2920.40
870.00	2633.69
870.16	2863.06
870.33	2920.40
870.50	3047.38
870.66	2805.72
870.83	2803.67
871.00	2938.84
871.17	3037.14
871.33	2797.53
871.50	2727.89
871.67	2967.51
871.83	2740.18
872.00	2828.24
872.17	2738.13
872.33	3237.84
872.50	3192.78
872.67	2701.27
872.83	2709.46
873.00	3047.38
873.17	2994.13
873.33	2852.82
873.50	2838.48
873.67	2828.24
873.83	2883.54
874.00	2791.38
874.16	2893.78
874.33	3061.71
874.50	2785.24
874.66	2754.52
874.83	2842.58
875.00	3104.72
875.16	3100.62
875.33	2844.63
875.50	2500.57
875.66	2785.24
875.83	3088.34
875.99	2770.90
876.16	2895.83
876.33	2699.22
876.49	2926.55
876.66	2803.67
876.83	2740.18
876.99	2688.98
877.16	2963.41
877.32	2709.46
877.49	2869.20
877.66	2971.60
877.82	3297.23
877.99	2799.57
878.15	2922.45
878.32	3053.52
878.49	2994.13
878.65	2775.00
878.82	3071.95
878.98	2883.54
879.15	3104.72
879.32	2965.46
879.48	2854.87
879.65	2920.40
879.81	2887.64
879.98	2762.71
880.15	2789.33
880.31	2975.70
880.48	2752.47
880.64	2848.72
880.81	2877.40
880.97	3276.75
881.14	3188.69
881.31	2686.94
881.47	2893.78
881.64	2955.22
881.80	2695.13
881.97	2918.36
882.13	2731.99
882.30	2826.20
882.47	2883.54
882.63	2693.08
882.80	2641.88
882.96	2865.11
883.13	3233.74
883.29	2744.28
883.46	2772.95
883.62	3377.10
883.79	2953.17
883.95	2914.26
884.12	2631.64
884.29	3121.10
884.45	2918.36
884.62	2787.29
884.78	2703.32
884.95	3272.65
885.11	2818.00
885.28	2820.05
885.44	2772.95
885.61	3098.58
885.77	3213.26
885.94	2895.83
886.10	2797.53
886.27	2938.84
886.43	3196.88
886.60	3010.51
886.76	2824.15
886.93	2889.68
887.09	3022.80
887.26	2639.83
887.42	2795.48
887.59	3153.87
887.75	3491.79
887.92	2908.12
888.08	2887.64
888.25	3278.80
888.41	3041.23
888.58	2801.62
888.74	2635.74
888.91	2777.05
>>>>>End Processed Spectral Data<<<<<
