SpectraSuite Data File
++++++++++++++++++++++++++++++++++++
Date: Thu May 05 21:10:48 CEST 2016
User: root
Dark Spectrum Present: No
Reference Spectrum Present: No
Number of Sampled Component Spectra: 1
Spectrometers: USB4C02835
Integration Time (usec): 100000 (USB4C02835)
Spectra Averaged: 1 (USB4C02835)
Boxcar Smoothing: 0 (USB4C02835)
Correct for Electrical Dark: No (USB4C02835)
Strobe/Lamp Enabled: No (USB4C02835)
Correct for Detector Non-linearity: No (USB4C02835)
Correct for Stray Light: No (USB4C02835)
Number of Pixels in Processed Spectrum: 3648
>>>>>Begin Processed Spectral Data<<<<<
177.47	2172.89
177.69	2172.89
177.91	2172.89
178.13	2174.94
178.36	2144.22
178.58	2723.80
178.80	2947.03
179.02	2742.23
179.24	2775.00
179.46	2631.64
179.68	2654.17
179.90	2922.45
180.13	3057.62
180.35	2467.80
180.57	2621.40
180.79	3059.67
181.01	2983.89
181.23	2754.52
181.45	2815.96
181.67	3074.00
181.90	3106.77
182.12	2758.61
182.34	2475.99
182.56	3020.75
182.78	3061.71
183.00	2662.36
183.22	2787.29
183.44	2695.13
183.66	3442.64
183.89	2822.10
184.11	2723.80
184.33	3059.67
184.55	3153.87
184.77	2666.46
184.99	2688.98
185.21	2971.60
185.43	3401.68
185.65	2697.17
185.87	2580.44
186.10	3432.40
186.32	3416.01
186.54	2772.95
186.76	2807.77
186.98	3143.63
187.20	2959.31
187.42	2676.70
187.64	2643.93
187.86	3045.33
188.08	3129.30
188.30	2629.59
188.52	2738.13
188.75	3237.84
188.97	3164.11
189.19	2709.46
189.41	2711.51
189.63	3069.91
189.85	2906.07
190.07	2478.04
190.29	2529.24
190.51	3061.71
190.73	2754.52
190.95	2838.48
191.17	2678.74
191.39	2844.63
191.61	2985.94
191.84	2670.55
192.06	2809.81
192.28	2799.57
192.50	3575.75
192.72	2828.24
192.94	2740.18
193.16	3166.16
193.38	3057.62
193.60	2670.55
193.82	2815.96
194.04	3182.54
194.26	3063.76
194.48	2744.28
194.70	2705.37
194.92	2930.64
195.14	3090.38
195.36	2635.74
195.58	2840.53
195.80	2979.79
196.02	2893.78
196.24	2658.26
196.46	2750.42
196.69	2930.64
196.91	3383.24
197.13	2795.48
197.35	2754.52
197.57	3260.37
197.79	3024.85
198.01	2822.10
198.23	2611.16
198.45	3065.81
198.67	2772.95
198.89	2519.00
199.11	2781.14
199.33	2871.25
199.55	2656.22
199.77	2602.97
199.99	2813.91
200.21	2938.84
200.43	3069.91
200.65	2566.10
200.87	2516.95
201.09	3016.66
201.31	2955.22
201.53	2754.52
201.75	2717.65
201.97	3061.71
202.19	2981.84
202.41	2779.09
202.63	2721.75
202.85	3041.23
203.07	2992.08
203.29	2795.48
203.51	2568.15
203.73	2822.10
203.95	3395.53
204.17	2750.42
204.39	2834.39
204.61	3004.37
204.83	2842.58
205.05	2858.96
205.27	2734.04
205.49	3356.62
205.71	2961.36
205.93	2572.25
206.15	2523.10
206.37	2936.79
206.59	2877.40
206.81	2500.57
207.03	2555.86
207.25	2830.29
207.47	3133.39
207.69	2725.85
207.91	2861.01
208.13	3311.57
208.34	2883.54
208.56	2570.20
208.78	2715.61
209.00	2901.97
209.22	2973.65
209.44	2695.13
209.66	2725.85
209.88	2953.17
210.10	2949.08
210.32	2705.37
210.54	2877.40
210.76	2942.93
210.98	3229.65
211.20	2516.95
211.42	2795.48
211.64	3227.60
211.86	3090.38
212.08	2752.47
212.30	2678.74
212.52	2930.64
212.74	3043.28
212.96	2744.28
213.17	2672.60
213.39	3143.63
213.61	3233.74
213.83	2635.74
214.05	2605.02
214.27	3186.64
214.49	2738.13
214.71	2562.01
214.93	2731.99
215.15	3108.82
215.37	3186.64
215.59	2590.68
215.81	2738.13
216.03	3235.79
216.24	3012.56
216.46	2633.69
216.68	2813.91
216.90	3182.54
217.12	3248.08
217.34	2607.06
217.56	2904.02
217.78	3176.40
218.00	3041.23
218.22	2744.28
218.44	2762.71
218.66	3063.76
218.87	3370.96
219.09	2770.90
219.31	2721.75
219.53	2987.99
219.75	2863.06
219.97	2756.57
220.19	2717.65
220.41	2969.55
220.63	3295.18
220.85	2678.74
221.06	2656.22
221.28	3139.54
221.50	3071.95
221.72	2686.94
221.94	2623.45
222.16	2977.75
222.38	3149.78
222.60	2656.22
222.82	2715.61
223.03	3125.20
223.25	2983.89
223.47	2629.59
223.69	2955.22
223.91	3188.69
224.13	3041.23
224.35	2596.82
224.57	2930.64
224.78	3078.10
225.00	2789.33
225.22	2723.80
225.44	2557.91
225.66	3133.39
225.88	2854.87
226.10	2756.57
226.32	2668.50
226.53	3225.55
226.75	2969.55
226.97	2744.28
227.19	2768.85
227.41	2912.21
227.63	2994.13
227.85	2525.15
228.06	2658.26
228.28	2992.08
228.50	3131.34
228.72	2578.39
228.94	2592.73
229.16	2713.56
229.37	2740.18
229.59	2588.63
229.81	2920.40
230.03	2912.21
230.25	2754.52
230.47	2576.34
230.69	2715.61
230.90	3045.33
231.12	2764.76
231.34	2731.99
231.56	2729.94
231.78	2840.53
232.00	2891.73
232.21	2762.71
232.43	2697.17
232.65	2662.36
232.87	3094.48
233.09	2609.11
233.30	2627.54
233.52	3102.67
233.74	2977.75
233.96	2621.40
234.18	2873.30
234.40	3008.47
234.61	3416.01
234.83	2566.10
235.05	2691.03
235.27	3424.20
235.49	3196.88
235.70	2600.92
235.92	2758.61
236.14	3082.19
236.36	3434.44
236.58	2539.48
236.79	2801.62
237.01	2918.36
237.23	2932.69
237.45	2987.99
237.67	2697.17
237.88	3080.14
238.10	3313.61
238.32	2572.25
238.54	2629.59
238.76	2979.79
238.97	2756.57
239.19	2598.87
239.41	2729.94
239.63	3151.82
239.85	2875.35
240.06	2705.37
240.28	2648.02
240.50	3123.15
240.72	3028.95
240.93	2584.54
241.15	2758.61
241.37	2998.23
241.59	3176.40
241.81	2734.04
242.02	2803.67
242.24	3055.57
242.46	3043.28
242.68	2557.91
242.89	2623.45
243.11	3170.26
243.33	2949.08
243.55	2734.04
243.76	2770.90
243.98	2891.73
244.20	3051.47
244.42	2627.54
244.64	2768.85
244.85	2721.75
245.07	2836.44
245.29	2711.51
245.51	2752.47
245.72	2990.03
245.94	3174.35
246.16	2701.27
246.38	2787.29
246.59	2975.70
246.81	2740.18
247.03	2615.26
247.24	2541.53
247.46	2893.78
247.68	3000.27
247.90	2643.93
248.11	2652.12
248.33	3127.25
248.55	3010.51
248.77	2764.76
248.98	2842.58
249.20	3241.93
249.42	3004.37
249.64	2652.12
249.85	2660.31
250.07	2996.18
250.29	3092.43
250.50	2645.98
250.72	2627.54
250.94	3074.00
251.16	3403.72
251.37	2705.37
251.59	2789.33
251.81	3110.86
252.02	3198.93
252.24	2615.26
252.46	2760.66
252.68	2754.52
252.89	2813.91
253.11	2480.09
253.33	2805.72
253.54	3233.74
253.76	2805.72
253.98	2598.87
254.20	2705.37
254.41	2725.85
254.63	2975.70
254.85	2586.58
255.06	2820.05
255.28	3061.71
255.50	2938.84
255.71	2602.97
255.93	2525.15
256.15	2850.77
256.36	3018.71
256.58	2584.54
256.80	2738.13
257.02	2969.55
257.23	2875.35
257.45	2801.62
257.67	2801.62
257.88	2889.68
258.10	2992.08
258.32	2701.27
258.53	2770.90
258.75	3299.28
258.97	2854.87
259.18	2645.98
259.40	2609.11
259.62	3276.75
259.83	3229.65
260.05	2742.23
260.27	3506.12
260.48	3127.25
260.70	2820.05
260.92	2592.73
261.13	2682.84
261.35	3055.57
261.57	3139.54
261.78	2596.82
262.00	2605.02
262.22	3125.20
262.43	2803.67
262.65	2676.70
262.86	2717.65
263.08	3438.54
263.30	2959.31
263.51	2529.24
263.73	2719.70
263.95	3217.36
264.16	2863.06
264.38	2598.87
264.60	2611.16
264.81	2947.03
265.03	3131.34
265.25	3067.86
265.46	2631.64
265.68	3243.98
265.89	3059.67
266.11	2555.86
266.33	2703.32
266.54	3168.21
266.76	2947.03
266.98	2752.47
267.19	2795.48
267.41	3198.93
267.62	2953.17
267.84	2502.62
268.06	2801.62
268.27	3088.34
268.49	3213.26
268.70	2805.72
268.92	2746.33
269.14	2729.94
269.35	2850.77
269.57	2793.43
269.79	2750.42
270.00	2852.82
270.22	3219.41
270.43	2598.87
270.65	2519.00
270.87	2973.65
271.08	3108.82
271.30	2811.86
271.51	2664.41
271.73	3149.78
271.95	3258.32
272.16	2627.54
272.38	2809.81
272.59	2967.51
272.81	3041.23
273.02	2572.25
273.24	2762.71
273.46	3207.12
273.67	2762.71
273.89	2582.49
274.10	2678.74
274.32	3213.26
274.54	2949.08
274.75	2783.19
274.97	2777.05
275.18	3176.40
275.40	3174.35
275.61	2762.71
275.83	2781.14
276.05	2826.20
276.26	2981.84
276.48	2762.71
276.69	2858.96
276.91	2858.96
277.12	3311.57
277.34	2852.82
277.55	2975.70
277.77	3012.56
277.99	2904.02
278.20	2727.89
278.42	2754.52
278.63	2822.10
278.85	2824.15
279.06	2775.00
279.28	2877.40
279.49	3129.30
279.71	3108.82
279.93	2848.72
280.14	2797.53
280.36	2877.40
280.57	3102.67
280.79	2863.06
281.00	2674.65
281.22	2818.00
281.43	3182.54
281.65	2621.40
281.86	2684.89
282.08	3067.86
282.29	3336.14
282.51	2715.61
282.73	2691.03
282.94	2750.42
283.16	3074.00
283.37	2885.59
283.59	2772.95
283.80	2990.03
284.02	2975.70
284.23	2815.96
284.45	2815.96
284.66	2914.26
284.88	2832.34
285.09	2719.70
285.31	2893.78
285.52	3006.42
285.74	2871.25
285.95	2992.08
286.17	2803.67
286.38	3192.78
286.60	2922.45
286.81	2711.51
287.03	2762.71
287.24	3012.56
287.46	3184.59
287.67	2875.35
287.89	2957.27
288.10	2949.08
288.32	2994.13
288.53	3026.90
288.75	2850.77
288.96	3196.88
289.18	2887.64
289.39	2797.53
289.61	2832.34
289.82	3397.58
290.04	3256.27
290.25	2699.22
290.47	2883.54
290.68	2955.22
290.90	3182.54
291.11	2566.10
291.33	2977.75
291.54	2844.63
291.76	2908.12
291.97	2912.21
292.18	2869.20
292.40	2951.12
292.61	2844.63
292.83	3014.61
293.04	2811.86
293.26	3057.62
293.47	2934.74
293.69	2738.13
293.90	2701.27
294.12	3229.65
294.33	2971.60
294.55	2822.10
294.76	3008.47
294.97	3225.55
295.19	3438.54
295.40	2809.81
295.62	2850.77
295.83	3160.02
296.05	2904.02
296.26	2973.65
296.48	2824.15
296.69	2914.26
296.90	2910.16
297.12	2930.64
297.33	2953.17
297.55	3053.52
297.76	3002.32
297.98	2904.02
298.19	2930.64
298.41	3049.43
298.62	2889.68
298.83	2949.08
299.05	2824.15
299.26	2926.55
299.48	2865.11
299.69	2867.16
299.90	2764.76
300.12	2775.00
300.33	3086.29
300.55	2840.53
300.76	2869.20
300.98	2674.65
301.19	3133.39
301.40	2742.23
301.62	2742.23
301.83	3117.01
302.05	2926.55
302.26	2740.18
302.47	2846.68
302.69	2850.77
302.90	3061.71
303.12	2633.69
303.33	2920.40
303.54	3311.57
303.76	2836.44
303.97	2770.90
304.19	3008.47
304.40	2777.05
304.61	3090.38
304.83	2924.50
305.04	2850.77
305.26	3127.25
305.47	2926.55
305.68	2844.63
305.90	2686.94
306.11	3203.02
306.33	2942.93
306.54	2654.17
306.75	2723.80
306.97	2815.96
307.18	2828.24
307.39	2848.72
307.61	2867.16
307.82	3014.61
308.04	3061.71
308.25	2740.18
308.46	2963.41
308.68	3014.61
308.89	2922.45
309.10	2881.49
309.32	2865.11
309.53	2996.18
309.74	3061.71
309.96	2805.72
310.17	2881.49
310.39	2928.60
310.60	3155.92
310.81	2947.03
311.03	2715.61
311.24	3143.63
311.45	2983.89
311.67	3045.33
311.88	2885.59
312.09	2938.84
312.31	2863.06
312.52	2783.19
312.73	2697.17
312.95	2836.44
313.16	2744.28
313.37	2910.16
313.59	2920.40
313.80	3061.71
314.01	3276.75
314.23	2752.47
314.44	2717.65
314.65	2719.70
314.87	2803.67
315.08	2762.71
315.29	2830.29
315.51	2856.92
315.72	2775.00
315.93	2867.16
316.15	2815.96
316.36	2922.45
316.57	2965.46
316.79	2848.72
317.00	2752.47
317.21	2981.84
317.43	2799.57
317.64	2844.63
317.85	2791.38
318.07	2805.72
318.28	2955.22
318.49	2899.92
318.70	3000.27
318.92	3057.62
319.13	3108.82
319.34	3012.56
319.56	2787.29
319.77	3067.86
319.98	3018.71
320.20	3045.33
320.41	2830.29
320.62	3086.29
320.83	2842.58
321.05	3037.14
321.26	2901.97
321.47	3000.27
321.69	3160.02
321.90	2670.55
322.11	2686.94
322.32	3047.38
322.54	3237.84
322.75	2822.10
322.96	3614.66
323.18	2809.81
323.39	2693.08
323.60	2725.85
323.81	2842.58
324.03	2965.46
324.24	2955.22
324.45	2850.77
324.66	2674.65
324.88	3162.06
325.09	3166.16
325.30	2801.62
325.52	2697.17
325.73	3057.62
325.94	2836.44
326.15	2668.50
326.37	2764.76
326.58	3145.68
326.79	3299.28
327.00	2736.09
327.22	2811.86
327.43	2944.98
327.64	2748.37
327.85	2951.12
328.07	2779.09
328.28	3395.53
328.49	2883.54
328.70	2777.05
328.92	2850.77
329.13	2953.17
329.34	3162.06
329.55	2953.17
329.76	2953.17
329.98	2908.12
330.19	3162.06
330.40	2852.82
330.61	2920.40
330.83	3151.82
331.04	2836.44
331.25	2846.68
331.46	2791.38
331.68	2803.67
331.89	3170.26
332.10	2852.82
332.31	2713.56
332.52	2912.21
332.74	3170.26
332.95	2715.61
333.16	2836.44
333.37	3119.06
333.58	2932.69
333.80	2883.54
334.01	2588.63
334.22	2922.45
334.43	2949.08
334.64	2783.19
334.86	2719.70
335.07	2836.44
335.28	3248.08
335.49	2684.89
335.70	2848.72
335.92	3264.46
336.13	3358.67
336.34	2869.20
336.55	2858.96
336.76	3030.99
336.98	2682.84
337.19	2840.53
337.40	2885.59
337.61	3483.59
337.82	2951.12
338.04	2914.26
338.25	2574.30
338.46	2967.51
338.67	2981.84
338.88	2723.80
339.09	2742.23
339.31	2936.79
339.52	2873.30
339.73	2701.27
339.94	2826.20
340.15	3037.14
340.36	2924.50
340.58	2867.16
340.79	2682.84
341.00	3086.29
341.21	2840.53
341.42	3049.43
341.63	2828.24
341.85	3178.45
342.06	3069.91
342.27	2768.85
342.48	2906.07
342.69	2818.00
342.90	2951.12
343.12	3004.37
343.33	2738.13
343.54	3160.02
343.75	3215.31
343.96	2799.57
344.17	2707.41
344.38	2975.70
344.60	2840.53
344.81	2836.44
345.02	2822.10
345.23	3237.84
345.44	3436.49
345.65	2846.68
345.86	2842.58
346.07	3071.95
346.29	2881.49
346.50	2871.25
346.71	2867.16
346.92	3170.26
347.13	3356.62
347.34	2895.83
347.55	2758.61
347.76	2944.98
347.98	2709.46
348.19	2863.06
348.40	3016.66
348.61	2914.26
348.82	3286.99
349.03	2904.02
349.24	2736.09
349.45	3389.39
349.66	2605.02
349.88	2713.56
350.09	2727.89
350.30	3221.45
350.51	3213.26
350.72	3045.33
350.93	2795.48
351.14	2930.64
351.35	3143.63
351.56	2832.34
351.77	2832.34
351.99	2979.79
352.20	3196.88
352.41	2967.51
352.62	2652.12
352.83	2998.23
353.04	2990.03
353.25	2766.81
353.46	2854.87
353.67	3170.26
353.88	2662.36
354.09	2832.34
354.30	2869.20
354.52	3086.29
354.73	2953.17
354.94	2736.09
355.15	2824.15
355.36	3313.61
355.57	2826.20
355.78	2721.75
355.99	2789.33
356.20	2975.70
356.41	3223.50
356.62	2865.11
356.83	2842.58
357.04	3241.93
357.25	2758.61
357.46	2744.28
357.68	2699.22
357.89	2856.92
358.10	2942.93
358.31	2754.52
358.52	2893.78
358.73	2891.73
358.94	2815.96
359.15	2734.04
359.36	2772.95
359.57	2963.41
359.78	2951.12
359.99	3018.71
360.20	2672.60
360.41	2918.36
360.62	3057.62
360.83	2940.88
361.04	2846.68
361.25	3002.32
361.46	3235.79
361.67	2936.79
361.88	2887.64
362.09	3137.49
362.30	3043.28
362.51	2754.52
362.72	2914.26
362.93	3051.47
363.14	3043.28
363.35	2897.88
363.56	2672.60
363.78	3096.53
363.99	3166.16
364.20	2799.57
364.41	2834.39
364.62	3350.48
364.83	3145.68
365.04	2836.44
365.25	2852.82
365.46	3317.71
365.67	2826.20
365.88	2901.97
366.09	2766.81
366.30	3020.75
366.51	2981.84
366.72	2682.84
366.93	2871.25
367.14	2985.94
367.35	3180.50
367.56	2777.05
367.77	2910.16
367.98	3012.56
368.18	3098.58
368.39	2996.18
368.60	2727.89
368.81	3094.48
369.02	2981.84
369.23	2846.68
369.44	2662.36
369.65	2924.50
369.86	3086.29
370.07	2908.12
370.28	2758.61
370.49	2992.08
370.70	3104.72
370.91	2615.26
371.12	2598.87
371.33	3258.32
371.54	2914.26
371.75	2930.64
371.96	2664.41
372.17	3033.04
372.38	2973.65
372.59	2875.35
372.80	2772.95
373.01	2977.75
373.22	3004.37
373.43	2875.35
373.64	2781.14
373.85	3194.83
374.06	3155.92
374.26	2967.51
374.47	2963.41
374.68	3270.61
374.89	2951.12
375.10	2752.47
375.31	2908.12
375.52	3033.04
375.73	3030.99
375.94	2713.56
376.15	2967.51
376.36	2828.24
376.57	2922.45
376.78	2858.96
376.99	2801.62
377.20	3147.73
377.40	2955.22
377.61	3043.28
377.82	2758.61
378.03	3223.50
378.24	3059.67
378.45	2838.48
378.66	2885.59
378.87	2787.29
379.08	2795.48
379.29	2779.09
379.50	2996.18
379.71	2928.60
379.91	2996.18
380.12	2867.16
380.33	2875.35
380.54	3020.75
380.75	2942.93
380.96	2760.66
381.17	2803.67
381.38	2914.26
381.59	2936.79
381.80	2869.20
382.00	3024.85
382.21	2947.03
382.42	3317.71
382.63	3166.16
382.84	2891.73
383.05	3022.80
383.26	3239.89
383.47	2914.26
383.68	2832.34
383.88	3155.92
384.09	2990.03
384.30	3049.43
384.51	2893.78
384.72	2881.49
384.93	2760.66
385.14	2893.78
385.35	3098.58
385.55	2764.76
385.76	3237.84
385.97	2824.15
386.18	2742.23
386.39	2799.57
386.60	2971.60
386.81	2797.53
387.02	2654.17
387.22	2822.10
387.43	3143.63
387.64	2914.26
387.85	3020.75
388.06	2924.50
388.27	3991.49
388.48	7260.05
388.68	10692.44
388.89	13375.28
389.10	14407.46
389.31	13907.76
389.52	11413.33
389.73	9705.32
389.93	8783.74
390.14	8015.75
390.35	7262.10
390.56	6709.15
390.77	5543.85
390.98	4304.83
391.18	3633.10
391.39	3368.91
391.60	3010.51
391.81	3065.81
392.02	2885.59
392.23	3426.25
392.43	3057.62
392.64	2971.60
392.85	2871.25
393.06	3307.47
393.27	2951.12
393.47	2768.85
393.68	2887.64
393.89	2967.51
394.10	3219.41
394.31	2781.14
394.52	2779.09
394.72	2873.30
394.93	3149.78
395.14	2680.79
395.35	2863.06
395.56	2940.88
395.76	2979.79
395.97	2828.24
396.18	2863.06
396.39	3051.47
396.60	3590.09
396.80	3168.21
397.01	2961.36
397.22	3098.58
397.43	3063.76
397.64	2762.71
397.84	2846.68
398.05	3325.90
398.26	2889.68
398.47	2901.97
398.67	3057.62
398.88	2994.13
399.09	3190.74
399.30	2840.53
399.51	2916.31
399.71	2869.20
399.92	2987.99
400.13	2961.36
400.34	2901.97
400.54	3024.85
400.75	3254.22
400.96	2975.70
401.17	3076.05
401.37	3026.90
401.58	2934.74
401.79	2881.49
402.00	2973.65
402.21	3444.68
402.41	3143.63
402.62	3121.10
402.83	3278.80
403.04	3366.86
403.24	3635.14
403.45	2987.99
403.66	3147.73
403.87	3209.17
404.07	3387.34
404.28	3135.44
404.49	3090.38
404.70	3106.77
404.90	3033.04
405.11	2889.68
405.32	2930.64
405.52	2850.77
405.73	2834.39
405.94	2795.48
406.15	2838.48
406.35	3094.48
406.56	3147.73
406.77	2881.49
406.98	2791.38
407.18	2873.30
407.39	3262.41
407.60	2856.92
407.80	2990.03
408.01	2863.06
408.22	3026.90
408.43	2799.57
408.63	2889.68
408.84	3233.74
409.05	3149.78
409.25	2770.90
409.46	2815.96
409.67	2901.97
409.88	2926.55
410.08	2852.82
410.29	2754.52
410.50	3137.49
410.70	3016.66
410.91	2691.03
411.12	2865.11
411.32	2971.60
411.53	2756.57
411.74	2805.72
411.95	2914.26
412.15	2959.31
412.36	3100.62
412.57	2949.08
412.77	3028.95
412.98	2930.64
413.19	2949.08
413.39	2895.83
413.60	2942.93
413.81	3307.47
414.01	2787.29
414.22	2848.72
414.43	2967.51
414.63	2901.97
414.84	3182.54
415.05	2856.92
415.25	2707.41
415.46	3178.45
415.67	2930.64
415.87	2818.00
416.08	2758.61
416.29	2865.11
416.49	3119.06
416.70	2901.97
416.91	2805.72
417.11	2990.03
417.32	3237.84
417.53	2901.97
417.73	2904.02
417.94	2977.75
418.15	3002.32
418.35	2832.34
418.56	2850.77
418.77	3424.20
418.97	3024.85
419.18	2844.63
419.38	2660.31
419.59	2975.70
419.80	3272.65
420.00	2768.85
420.21	2897.88
420.42	3213.26
420.62	3114.96
420.83	2846.68
421.04	2838.48
421.24	2910.16
421.45	3026.90
421.65	2901.97
421.86	2820.05
422.07	3086.29
422.27	3063.76
422.48	2803.67
422.69	2652.12
422.89	3043.28
423.10	2938.84
423.30	2789.33
423.51	2889.68
423.72	3086.29
423.92	3059.67
424.13	2756.57
424.33	2856.92
424.54	3151.82
424.75	2969.55
424.95	3106.77
425.16	2787.29
425.36	2953.17
425.57	3071.95
425.78	2965.46
425.98	2957.27
426.19	2815.96
426.39	2867.16
426.60	2953.17
426.81	2996.18
427.01	2979.79
427.22	2848.72
427.42	2641.88
427.63	2738.13
427.83	3141.58
428.04	3403.72
428.25	2852.82
428.45	2947.03
428.66	3121.10
428.86	2901.97
429.07	2867.16
429.28	2832.34
429.48	2930.64
429.69	2889.68
429.89	2906.07
430.10	2785.24
430.30	3125.20
430.51	3149.78
430.71	2693.08
430.92	2869.20
431.13	2873.30
431.33	3071.95
431.54	2916.31
431.74	3051.47
431.95	3383.24
432.15	2854.87
432.36	2877.40
432.56	2885.59
432.77	3387.34
432.98	3254.22
433.18	2928.60
433.39	2723.80
433.59	2981.84
433.80	3313.61
434.00	2973.65
434.21	2766.81
434.41	2969.55
434.62	3405.77
434.82	2766.81
435.03	2729.94
435.23	3147.73
435.44	2637.78
435.64	2832.34
435.85	2910.16
436.06	3135.44
436.26	3149.78
436.47	2799.57
436.67	2842.58
436.88	2949.08
437.08	3139.54
437.29	2928.60
437.49	2957.27
437.70	3280.85
437.90	2934.74
438.11	3012.56
438.31	2938.84
438.52	3231.69
438.72	3252.17
438.93	3149.78
439.13	2897.88
439.34	3039.19
439.54	2899.92
439.75	2942.93
439.95	2875.35
440.16	2858.96
440.36	3030.99
440.57	2881.49
440.77	2830.29
440.98	2975.70
441.18	3104.72
441.39	2711.51
441.59	2752.47
441.80	3280.85
442.00	2969.55
442.21	2938.84
442.41	2682.84
442.62	3119.06
442.82	2914.26
443.02	2830.29
443.23	2877.40
443.43	2990.03
443.64	3215.31
443.84	2758.61
444.05	2951.12
444.25	3063.76
444.46	2895.83
444.66	2897.88
444.87	3043.28
445.07	2752.47
445.28	3024.85
445.48	2865.11
445.69	2922.45
445.89	3444.68
446.09	2891.73
446.30	3164.11
446.50	3225.55
446.71	4741.05
446.91	5650.35
447.12	6479.77
447.32	7161.75
447.53	6838.17
447.73	5875.62
447.93	5089.20
448.14	4755.38
448.34	4888.50
448.55	4175.81
448.75	3966.92
448.96	3835.85
449.16	3633.10
449.36	3553.23
449.57	3090.38
449.77	2947.03
449.98	2914.26
450.18	3047.38
450.39	2836.44
450.59	3074.00
450.79	3004.37
451.00	2930.64
451.20	2963.41
451.41	2818.00
451.61	3121.10
451.81	2961.36
452.02	2785.24
452.22	2828.24
452.43	2940.88
452.63	2820.05
452.84	2957.27
453.04	2781.14
453.24	3049.43
453.45	2854.87
453.65	2881.49
453.86	2863.06
454.06	3051.47
454.26	2926.55
454.47	2818.00
454.67	3033.04
454.87	3080.14
455.08	2887.64
455.28	3006.42
455.49	2924.50
455.69	2918.36
455.89	3373.00
456.10	2961.36
456.30	2807.77
456.51	3022.80
456.71	2942.93
456.91	3030.99
457.12	2916.31
457.32	3004.37
457.52	2828.24
457.73	3010.51
457.93	3071.95
458.14	2906.07
458.34	2666.46
458.54	2826.20
458.75	2850.77
458.95	3151.82
459.15	3098.58
459.36	2850.77
459.56	2914.26
459.76	3422.16
459.97	2922.45
460.17	2895.83
460.37	2994.13
460.58	3055.57
460.78	3147.73
460.99	2803.67
461.19	2881.49
461.39	2803.67
461.60	2947.03
461.80	2895.83
462.00	2660.31
462.21	2932.69
462.41	2891.73
462.61	2727.89
462.82	2615.26
463.02	3063.76
463.22	2990.03
463.43	3028.95
463.63	2789.33
463.83	3266.51
464.04	3076.05
464.24	2748.37
464.44	2840.53
464.64	3030.99
464.85	3039.19
465.05	2930.64
465.25	2838.48
465.46	2854.87
465.66	3069.91
465.86	2985.94
466.07	2887.64
466.27	2949.08
466.47	2742.23
466.68	2772.95
466.88	2926.55
467.08	3133.39
467.29	3186.64
467.49	2838.48
467.69	2959.31
467.89	3037.14
468.10	2981.84
468.30	2955.22
468.50	2977.75
468.71	3139.54
468.91	2832.34
469.11	3059.67
469.31	2971.60
469.52	2850.77
469.72	3305.42
469.92	3125.20
470.13	2826.20
470.33	3016.66
470.53	2987.99
470.73	3131.34
470.94	3551.18
471.14	3608.52
471.34	4134.85
471.54	3817.41
471.75	3516.36
471.95	3309.52
472.15	3246.03
472.36	3395.53
472.56	3153.87
472.76	3497.93
472.96	3280.85
473.17	3096.53
473.37	3012.56
473.57	3002.32
473.77	3082.19
473.98	2934.74
474.18	2688.98
474.38	3579.85
474.58	2930.64
474.79	2729.94
474.99	2967.51
475.19	3186.64
475.39	2863.06
475.60	3006.42
475.80	2809.81
476.00	2998.23
476.20	2887.64
476.41	2938.84
476.61	2912.21
476.81	3284.94
477.01	2924.50
477.21	3143.63
477.42	3043.28
477.62	2809.81
477.82	3127.25
478.02	2799.57
478.23	2869.20
478.43	2815.96
478.63	2869.20
478.83	2955.22
479.03	2940.88
479.24	3223.50
479.44	3313.61
479.64	2756.57
479.84	2686.94
480.04	2930.64
480.25	3157.97
480.45	2721.75
480.65	2799.57
480.85	3325.90
481.06	2873.30
481.26	2973.65
481.46	2861.01
481.66	3016.66
481.86	2865.11
482.06	3033.04
482.27	2926.55
482.47	2940.88
482.67	3162.06
482.87	2912.21
483.07	2844.63
483.28	2924.50
483.48	2832.34
483.68	2895.83
483.88	2801.62
484.08	2596.82
484.29	2818.00
484.49	2910.16
484.69	2701.27
484.89	3241.93
485.09	3176.40
485.29	2893.78
485.50	3022.80
485.70	2983.89
485.90	3223.50
486.10	3020.75
486.30	2875.35
486.50	3131.34
486.71	3000.27
486.91	2916.31
487.11	2959.31
487.31	2811.86
487.51	3067.86
487.71	2779.09
487.91	2822.10
488.12	2916.31
488.32	2609.11
488.52	2789.33
488.72	2635.74
488.92	2967.51
489.12	3211.22
489.32	3012.56
489.53	2883.54
489.73	2715.61
489.93	3362.76
490.13	2787.29
490.33	2725.85
490.53	3051.47
490.73	3176.40
490.94	2762.71
491.14	2947.03
491.34	3110.86
491.54	3131.34
491.74	3661.77
491.94	4245.44
492.14	4634.55
492.34	4720.57
492.54	4313.02
492.75	3772.36
492.95	3954.63
493.15	3672.01
493.35	3547.08
493.55	3477.45
493.75	3430.35
493.95	3424.20
494.15	3043.28
494.35	2961.36
494.56	3033.04
494.76	2811.86
494.96	2979.79
495.16	2832.34
495.36	2901.97
495.56	2953.17
495.76	2889.68
495.96	2889.68
496.16	2791.38
496.36	3293.13
496.56	2785.24
496.77	2930.64
496.97	3000.27
497.17	3209.17
497.37	2705.37
497.57	2957.27
497.77	3024.85
497.97	2836.44
498.17	2899.92
498.37	2875.35
498.57	3096.53
498.77	2873.30
498.97	3033.04
499.17	3112.91
499.38	2930.64
499.58	3149.78
499.78	3020.75
499.98	3051.47
500.18	3020.75
500.38	2944.98
500.58	3112.91
500.78	3366.86
500.98	5572.52
501.18	7372.69
501.38	8759.16
501.58	9777.00
501.78	9486.19
501.98	7894.92
502.18	6668.19
502.38	5726.12
502.58	5623.72
502.78	5064.63
502.98	4771.77
503.18	4612.03
503.38	4302.78
503.59	3743.69
503.79	3669.96
503.99	3413.96
504.19	3487.69
504.39	3424.20
504.59	3268.56
504.79	3260.37
504.99	3526.60
505.19	3129.30
505.39	3030.99
505.59	3241.93
505.79	3332.05
505.99	3143.63
506.19	2834.39
506.39	3098.58
506.59	2838.48
506.79	2891.73
506.99	2967.51
507.19	2815.96
507.39	3053.52
507.59	2719.70
507.79	2756.57
507.99	2906.07
508.19	2953.17
508.39	2883.54
508.59	2815.96
508.79	2910.16
508.99	3301.33
509.19	2865.11
509.39	2942.93
509.59	2723.80
509.79	2867.16
509.99	3047.38
510.19	3045.33
510.39	2922.45
510.59	3047.38
510.79	2899.92
510.99	2717.65
511.19	2836.44
511.39	3321.81
511.59	3166.16
511.79	3030.99
511.99	2881.49
512.19	3334.09
512.38	2963.41
512.58	2863.06
512.78	2820.05
512.98	3149.78
513.18	3246.03
513.38	2709.46
513.58	2924.50
513.78	2953.17
513.98	2975.70
514.18	2791.38
514.38	2885.59
514.58	2959.31
514.78	2863.06
514.98	2738.13
515.18	2832.34
515.38	2723.80
515.58	3272.65
515.78	2838.48
515.98	2873.30
516.18	3137.49
516.38	2963.41
516.57	2854.87
516.77	2809.81
516.97	3190.74
517.17	2770.90
517.37	2621.40
517.57	3006.42
517.77	2951.12
517.97	2908.12
518.17	2971.60
518.37	2723.80
518.57	2799.57
518.77	2908.12
518.97	2901.97
519.16	2942.93
519.36	3145.68
519.56	2904.02
519.76	2725.85
519.96	2881.49
520.16	3235.79
520.36	2764.76
520.56	3024.85
520.76	2797.53
520.96	2947.03
521.16	3188.69
521.35	3043.28
521.55	3074.00
521.75	3010.51
521.95	2846.68
522.15	2856.92
522.35	2660.31
522.55	2871.25
522.75	3121.10
522.95	2721.75
523.14	2705.37
523.34	3086.29
523.54	2934.74
523.74	2918.36
523.94	2844.63
524.14	2684.89
524.34	3049.43
524.54	3086.29
524.73	2873.30
524.93	3186.64
525.13	2957.27
525.33	2764.76
525.53	3051.47
525.73	3135.44
525.93	3014.61
526.13	2815.96
526.32	2836.44
526.52	3157.97
526.72	3110.86
526.92	2912.21
527.12	2840.53
527.32	2746.33
527.52	3028.95
527.71	2940.88
527.91	2879.44
528.11	2891.73
528.31	2990.03
528.51	2815.96
528.71	3028.95
528.90	3080.14
529.10	3223.50
529.30	2955.22
529.50	2510.81
529.70	3043.28
529.90	2938.84
530.09	2813.91
530.29	2811.86
530.49	2818.00
530.69	3467.21
530.89	2957.27
531.09	2969.55
531.28	2840.53
531.48	3217.36
531.68	2867.16
531.88	2832.34
532.08	3155.92
532.28	2936.79
532.47	2908.12
532.67	2936.79
532.87	3006.42
533.07	2879.44
533.27	2940.88
533.46	2928.60
533.66	3028.95
533.86	2938.84
534.06	2926.55
534.26	2822.10
534.45	2899.92
534.65	3135.44
534.85	2992.08
535.05	2795.48
535.25	3149.78
535.44	2707.41
535.64	2928.60
535.84	2877.40
536.04	2899.92
536.24	2889.68
536.43	2740.18
536.63	2885.59
536.83	3020.75
537.03	2924.50
537.22	2678.74
537.42	2658.26
537.62	3037.14
537.82	2832.34
538.02	3016.66
538.21	2910.16
538.41	3442.64
538.61	3119.06
538.81	2936.79
539.00	2936.79
539.20	2795.48
539.40	2901.97
539.60	2858.96
539.79	3061.71
539.99	2914.26
540.19	2873.30
540.39	2764.76
540.58	2883.54
540.78	3200.98
540.98	3016.66
541.18	3043.28
541.37	2949.08
541.57	2922.45
541.77	3084.24
541.97	2684.89
542.16	2721.75
542.36	2910.16
542.56	2897.88
542.76	3030.99
542.95	2965.46
543.15	3041.23
543.35	3194.83
543.54	2850.77
543.74	2713.56
543.94	3178.45
544.14	2838.48
544.33	2977.75
544.53	2873.30
544.73	2912.21
544.93	2848.72
545.12	2803.67
545.32	2844.63
545.52	2942.93
545.71	2910.16
545.91	2838.48
546.11	2772.95
546.30	2869.20
546.50	2973.65
546.70	2873.30
546.90	2813.91
547.09	2709.46
547.29	3049.43
547.49	2987.99
547.68	2848.72
547.88	2930.64
548.08	3127.25
548.27	3231.69
548.47	2840.53
548.67	2932.69
548.87	3053.52
549.06	2807.77
549.26	2803.67
549.46	3100.62
549.65	2863.06
549.85	2932.69
550.05	2932.69
550.24	2793.43
550.44	3024.85
550.64	2881.49
550.83	2869.20
551.03	3241.93
551.23	3215.31
551.42	2904.02
551.62	2928.60
551.82	3024.85
552.01	3000.27
552.21	3114.96
552.41	2967.51
552.60	3137.49
552.80	2979.79
553.00	2740.18
553.19	2897.88
553.39	3338.19
553.59	2772.95
553.78	2942.93
553.98	2865.11
554.17	2760.66
554.37	3024.85
554.57	2916.31
554.76	2742.23
554.96	2854.87
555.16	2942.93
555.35	2961.36
555.55	3082.19
555.75	3039.19
555.94	3174.35
556.14	2613.21
556.33	2906.07
556.53	2979.79
556.73	2938.84
556.92	3000.27
557.12	2834.39
557.32	3387.34
557.51	3157.97
557.71	2881.49
557.90	2985.94
558.10	3182.54
558.30	2883.54
558.49	2879.44
558.69	2822.10
558.88	3110.86
559.08	3041.23
559.28	2844.63
559.47	2885.59
559.67	3059.67
559.86	3344.33
560.06	2785.24
560.26	2916.31
560.45	3053.52
560.65	2965.46
560.84	3157.97
561.04	2766.81
561.24	3030.99
561.43	2705.37
561.63	3106.77
561.82	2955.22
562.02	3117.01
562.22	2846.68
562.41	2818.00
562.61	2766.81
562.80	2818.00
563.00	3418.06
563.19	2959.31
563.39	2953.17
563.59	3084.24
563.78	2801.62
563.98	2648.02
564.17	2801.62
564.37	2768.85
564.56	3071.95
564.76	2727.89
564.96	2965.46
565.15	3141.58
565.35	3387.34
565.54	2772.95
565.74	3014.61
565.93	3114.96
566.13	2936.79
566.32	2955.22
566.52	2975.70
566.71	2961.36
566.91	3168.21
567.11	2994.13
567.30	2836.44
567.50	3045.33
567.69	3086.29
567.89	2834.39
568.08	2768.85
568.28	3030.99
568.47	2803.67
568.67	2832.34
568.86	2789.33
569.06	3074.00
569.25	2906.07
569.45	2707.41
569.64	2832.34
569.84	2947.03
570.04	3020.75
570.23	2781.14
570.43	2881.49
570.62	3033.04
570.82	3248.08
571.01	2746.33
571.21	2727.89
571.40	2863.06
571.60	3094.48
571.79	2965.46
571.99	2840.53
572.18	2777.05
572.38	3018.71
572.57	2889.68
572.77	2887.64
572.96	3399.63
573.16	3055.57
573.35	2793.43
573.55	3088.34
573.74	3008.47
573.94	2883.54
574.13	2838.48
574.33	3016.66
574.52	3184.59
574.71	2979.79
574.91	2912.21
575.10	2754.52
575.30	2914.26
575.49	2762.71
575.69	2811.86
575.88	2885.59
576.08	3004.37
576.27	3119.06
576.47	2889.68
576.66	3037.14
576.86	3203.02
577.05	2987.99
577.25	2850.77
577.44	3084.24
577.64	2842.58
577.83	3164.11
578.02	2840.53
578.22	3000.27
578.41	3219.41
578.61	2918.36
578.80	2750.42
579.00	2947.03
579.19	2916.31
579.39	2977.75
579.58	2975.70
579.77	2897.88
579.97	3274.70
580.16	3305.42
580.36	2990.03
580.55	2942.93
580.75	3149.78
580.94	2985.94
581.13	3069.91
581.33	3106.77
581.52	2985.94
581.72	3272.65
581.91	3008.47
582.11	2869.20
582.30	3143.63
582.49	3010.51
582.69	3135.44
582.88	2846.68
583.08	3041.23
583.27	3108.82
583.47	2920.40
583.66	2901.97
583.85	2934.74
584.05	2940.88
584.24	2985.94
584.44	2914.26
584.63	3135.44
584.82	3194.83
585.02	3098.58
585.21	2953.17
585.41	3147.73
585.60	3057.62
585.79	3096.53
585.99	3198.93
586.18	3108.82
586.37	3876.80
586.57	5758.89
586.76	16643.84
586.96	35587.55
587.15	48356.64
587.34	56517.79
587.54	61019.23
587.73	54174.92
587.93	38632.88
588.12	29560.38
588.31	24149.65
588.51	21028.54
588.70	19592.92
588.89	17135.35
589.09	14714.66
589.28	12459.84
589.47	9803.63
589.67	7563.15
589.86	5965.73
590.06	4505.53
590.25	4063.17
590.44	3516.36
590.64	3303.37
590.83	3332.05
591.02	3196.88
591.22	2920.40
591.41	2926.55
591.60	3006.42
591.80	3467.21
591.99	2748.37
592.18	2869.20
592.38	3209.17
592.57	2893.78
592.76	2953.17
592.96	2951.12
593.15	2975.70
593.34	3172.30
593.54	2865.11
593.73	3033.04
593.92	3047.38
594.12	3088.34
594.31	2895.83
594.50	3106.77
594.70	3063.76
594.89	3362.76
595.08	2758.61
595.28	3084.24
595.47	3536.84
595.66	3151.82
595.86	2740.18
596.05	2764.76
596.24	2916.31
596.43	3227.60
596.63	2965.46
596.82	2957.27
597.01	2996.18
597.21	3274.70
597.40	2930.64
597.59	2881.49
597.79	2934.74
597.98	3053.52
598.17	2951.12
598.36	2928.60
598.56	3100.62
598.75	2957.27
598.94	2973.65
599.14	2863.06
599.33	2842.58
599.52	3196.88
599.71	2901.97
599.91	2957.27
600.10	3086.29
600.29	3106.77
600.48	2873.30
600.68	3035.09
600.87	3078.10
601.06	2977.75
601.26	2969.55
601.45	2940.88
601.64	2990.03
601.83	3172.30
602.03	2836.44
602.22	2709.46
602.41	3112.91
602.60	3395.53
602.80	2889.68
602.99	3080.14
603.18	2912.21
603.37	2996.18
603.57	2854.87
603.76	2850.77
603.95	3153.87
604.14	2858.96
604.34	2764.76
604.53	2899.92
604.72	2987.99
604.91	3114.96
605.10	2861.01
605.30	2744.28
605.49	3379.15
605.68	3188.69
605.87	2863.06
606.07	2752.47
606.26	3020.75
606.45	3049.43
606.64	2852.82
606.84	2781.14
607.03	3045.33
607.22	3061.71
607.41	2873.30
607.60	2881.49
607.80	3133.39
607.99	2959.31
608.18	2920.40
608.37	2877.40
608.56	2916.31
608.76	3227.60
608.95	2983.89
609.14	2879.44
609.33	3102.67
609.52	3256.27
609.72	2955.22
609.91	2963.41
610.10	3059.67
610.29	3295.18
610.48	2969.55
610.68	2951.12
610.87	2979.79
611.06	3141.58
611.25	2895.83
611.44	2977.75
611.63	3000.27
611.83	3190.74
612.02	2801.62
612.21	2985.94
612.40	2725.85
612.59	2846.68
612.79	2723.80
612.98	2885.59
613.17	3192.78
613.36	2963.41
613.55	3026.90
613.74	2758.61
613.93	2955.22
614.13	3078.10
614.32	3022.80
614.51	2879.44
614.70	2985.94
614.89	2959.31
615.08	3004.37
615.28	3311.57
615.47	2838.48
615.66	3086.29
615.85	2850.77
616.04	2992.08
616.23	3055.57
616.42	3030.99
616.62	2938.84
616.81	2797.53
617.00	3004.37
617.19	3102.67
617.38	2914.26
617.57	2953.17
617.76	3121.10
617.95	3057.62
618.15	2961.36
618.34	3112.91
618.53	2787.29
618.72	3172.30
618.91	3026.90
619.10	2992.08
619.29	2971.60
619.48	2992.08
619.68	2858.96
619.87	2879.44
620.06	2701.27
620.25	3067.86
620.44	2807.77
620.63	2836.44
620.82	3039.19
621.01	3000.27
621.20	2830.29
621.39	2848.72
621.59	2985.94
621.78	2944.98
621.97	2858.96
622.16	2922.45
622.35	3071.95
622.54	3119.06
622.73	3004.37
622.92	2658.26
623.11	3074.00
623.30	2918.36
623.49	2977.75
623.68	2820.05
623.88	3252.17
624.07	2895.83
624.26	2750.42
624.45	2889.68
624.64	2951.12
624.83	3080.14
625.02	2797.53
625.21	2785.24
625.40	3110.86
625.59	3215.31
625.78	2877.40
625.97	3016.66
626.16	3254.22
626.35	3198.93
626.54	2965.46
626.74	3092.43
626.93	2983.89
627.12	2953.17
627.31	2963.41
627.50	2944.98
627.69	3080.14
627.88	2865.11
628.07	2863.06
628.26	2674.65
628.45	2885.59
628.64	2875.35
628.83	2811.86
629.02	2684.89
629.21	3063.76
629.40	3121.10
629.59	2775.00
629.78	2783.19
629.97	2961.36
630.16	2967.51
630.35	2871.25
630.54	2887.64
630.73	2850.77
630.92	2887.64
631.11	2807.77
631.30	2934.74
631.49	3203.02
631.68	2959.31
631.87	2928.60
632.06	2783.19
632.25	3411.92
632.44	2975.70
632.63	2920.40
632.82	2836.44
633.01	2885.59
633.20	2959.31
633.39	2893.78
633.58	2699.22
633.77	3084.24
633.96	3061.71
634.15	2987.99
634.34	2924.50
634.53	3039.19
634.72	2904.02
634.91	2766.81
635.10	2871.25
635.29	3112.91
635.48	2996.18
635.67	2779.09
635.86	2695.13
636.05	3289.04
636.24	2942.93
636.43	2881.49
636.62	2961.36
636.81	2568.15
637.00	3053.52
637.19	2875.35
637.38	2934.74
637.57	2924.50
637.76	2996.18
637.95	3010.51
638.14	2801.62
638.33	2961.36
638.52	3010.51
638.71	2779.09
638.89	2648.02
639.08	3483.59
639.27	3243.98
639.46	3084.24
639.65	3481.55
639.84	3344.33
640.03	3581.90
640.22	3192.78
640.41	3229.65
640.60	2922.45
640.79	3145.68
640.98	2912.21
641.17	2983.89
641.36	3196.88
641.55	3082.19
641.74	2688.98
641.92	2856.92
642.11	2746.33
642.30	2959.31
642.49	2770.90
642.68	2805.72
642.87	3078.10
643.06	3137.49
643.25	2748.37
643.44	2768.85
643.63	2955.22
643.82	3266.51
644.00	2793.43
644.19	2834.39
644.38	2781.14
644.57	3061.71
644.76	2930.64
644.95	2938.84
645.14	3039.19
645.33	2996.18
645.52	2893.78
645.71	2744.28
645.89	2740.18
646.08	3004.37
646.27	2875.35
646.46	3088.34
646.65	2703.32
646.84	2981.84
647.03	2666.46
647.22	2973.65
647.40	3045.33
647.59	2867.16
647.78	2668.50
647.97	2826.20
648.16	2772.95
648.35	3160.02
648.54	3137.49
648.73	2875.35
648.91	3071.95
649.10	3039.19
649.29	2736.09
649.48	2801.62
649.67	2985.94
649.86	3022.80
650.05	2869.20
650.23	3071.95
650.42	2840.53
650.61	3194.83
650.80	3078.10
650.99	3149.78
651.18	3166.16
651.36	3184.59
651.55	2803.67
651.74	3010.51
651.93	2947.03
652.12	2971.60
652.31	2942.93
652.49	2887.64
652.68	2891.73
652.87	3231.69
653.06	2904.02
653.25	3110.86
653.44	3004.37
653.62	3248.08
653.81	2883.54
654.00	2836.44
654.19	3160.02
654.38	3370.96
654.56	2918.36
654.75	2734.04
654.94	3096.53
655.13	3012.56
655.32	2801.62
655.51	2994.13
655.69	2850.77
655.88	3135.44
656.07	2770.90
656.26	2834.39
656.45	2785.24
656.63	2987.99
656.82	2840.53
657.01	3121.10
657.20	2936.79
657.38	3258.32
657.57	2867.16
657.76	2656.22
657.95	3178.45
658.14	2959.31
658.32	2969.55
658.51	2688.98
658.70	3035.09
658.89	3090.38
659.08	2916.31
659.26	3147.73
659.45	2834.39
659.64	2996.18
659.83	2740.18
660.01	3311.57
660.20	3033.04
660.39	3246.03
660.58	2635.74
660.76	2904.02
660.95	2768.85
661.14	2922.45
661.33	2695.13
661.51	2801.62
661.70	2953.17
661.89	3139.54
662.08	2887.64
662.26	2750.42
662.45	2824.15
662.64	3317.71
662.83	2963.41
663.01	2738.13
663.20	2893.78
663.39	3270.61
663.58	2854.87
663.76	2826.20
663.95	3043.28
664.14	2789.33
664.32	2897.88
664.51	2785.24
664.70	2660.31
664.89	2987.99
665.07	2676.70
665.26	2947.03
665.45	2736.09
665.64	3057.62
665.82	2799.57
666.01	2934.74
666.20	2756.57
666.38	3139.54
666.57	3129.30
666.76	4782.01
666.95	10891.10
667.13	17493.75
667.32	21436.09
667.51	23994.00
667.69	25171.58
667.88	20991.68
668.07	15157.02
668.25	12738.37
668.44	11243.35
668.63	9703.28
668.81	8601.47
669.00	7247.76
669.19	6725.53
669.38	5904.29
669.56	5052.34
669.75	4446.14
669.94	3772.36
670.12	3373.00
670.31	3178.45
670.50	3067.86
670.68	3219.41
670.87	3071.95
671.06	2799.57
671.24	3002.32
671.43	3362.76
671.62	3051.47
671.80	2850.77
671.99	2949.08
672.18	2881.49
672.36	3123.15
672.55	2934.74
672.74	2879.44
672.92	2916.31
673.11	3061.71
673.29	2736.09
673.48	3012.56
673.67	2969.55
673.85	3211.22
674.04	2764.76
674.23	2856.92
674.41	3387.34
674.60	2785.24
674.79	2705.37
674.97	2805.72
675.16	3033.04
675.34	3125.20
675.53	2772.95
675.72	2961.36
675.90	3293.13
676.09	2877.40
676.28	2908.12
676.46	2713.56
676.65	3149.78
676.83	2815.96
677.02	2873.30
677.21	2879.44
677.39	3114.96
677.58	2795.48
677.77	2815.96
677.95	2742.23
678.14	2940.88
678.32	2908.12
678.51	2830.29
678.70	3172.30
678.88	2856.92
679.07	2947.03
679.25	2910.16
679.44	2836.44
679.63	2838.48
679.81	2897.88
680.00	3063.76
680.18	2977.75
680.37	3303.37
680.55	3028.95
680.74	2734.04
680.93	2658.26
681.11	3008.47
681.30	3059.67
681.48	2844.63
681.67	2883.54
681.85	3002.32
682.04	2850.77
682.23	3033.04
682.41	3020.75
682.60	2924.50
682.78	2977.75
682.97	2789.33
683.15	2920.40
683.34	3008.47
683.53	3180.50
683.71	2729.94
683.90	3014.61
684.08	3272.65
684.27	2916.31
684.45	2969.55
684.64	3039.19
684.82	2922.45
685.01	3053.52
685.19	2889.68
685.38	3094.48
685.57	3006.42
685.75	2838.48
685.94	2805.72
686.12	2766.81
686.31	2891.73
686.49	3307.47
686.68	2656.22
686.86	2877.40
687.05	2934.74
687.23	3311.57
687.42	2871.25
687.60	2744.28
687.79	3121.10
687.97	3270.61
688.16	2969.55
688.34	2998.23
688.53	2709.46
688.71	3020.75
688.90	3102.67
689.08	2912.21
689.27	2697.17
689.45	3102.67
689.64	2998.23
689.82	2897.88
690.01	3045.33
690.19	3098.58
690.38	2944.98
690.56	3094.48
690.75	2832.34
690.93	2901.97
691.12	2846.68
691.30	2959.31
691.49	2930.64
691.67	3000.27
691.86	3135.44
692.04	2869.20
692.23	2926.55
692.41	2990.03
692.60	3270.61
692.78	3114.96
692.97	2959.31
693.15	3114.96
693.34	3086.29
693.52	3057.62
693.71	2889.68
693.89	2947.03
694.08	2707.41
694.26	2910.16
694.44	3100.62
694.63	3131.34
694.81	2783.19
695.00	2779.09
695.18	3162.06
695.37	3385.29
695.55	2924.50
695.74	2889.68
695.92	2883.54
696.10	3237.84
696.29	2748.37
696.47	2828.24
696.66	2723.80
696.84	2856.92
697.03	2899.92
697.21	3057.62
697.40	4470.72
697.58	3192.78
697.76	2863.06
697.95	2861.01
698.13	2815.96
698.32	2844.63
698.50	2875.35
698.68	2867.16
698.87	3053.52
699.05	3217.36
699.24	2887.64
699.42	2748.37
699.61	3049.43
699.79	2930.64
699.97	2850.77
700.16	2797.53
700.34	2699.22
700.53	3164.11
700.71	3155.92
700.89	3012.56
701.08	2906.07
701.26	2963.41
701.45	3243.98
701.63	2820.05
701.81	2908.12
702.00	2803.67
702.18	2891.73
702.37	2758.61
702.55	3153.87
702.73	2932.69
702.92	2750.42
703.10	3106.77
703.28	3106.77
703.47	2781.14
703.65	3065.81
703.84	2918.36
704.02	2942.93
704.20	3231.69
704.39	2734.04
704.57	2818.00
704.75	3057.62
704.94	3033.04
705.12	3028.95
705.30	3510.22
705.49	6705.05
705.67	12934.97
705.86	18140.91
706.04	20750.02
706.22	22980.26
706.41	21835.44
706.59	16905.98
706.77	13004.60
706.96	11315.03
707.14	10393.44
707.32	9099.13
707.51	7909.26
707.69	6434.72
707.87	5437.36
708.06	4550.59
708.24	4036.55
708.42	3563.47
708.61	3717.06
708.79	2940.88
708.97	2971.60
709.16	2973.65
709.34	3006.42
709.52	2885.59
709.71	2887.64
709.89	3071.95
710.07	2740.18
710.26	2768.85
710.44	2928.60
710.62	3033.04
710.80	3018.71
710.99	2987.99
711.17	3004.37
711.35	2863.06
711.54	2869.20
711.72	2994.13
711.90	2953.17
712.09	3100.62
712.27	2869.20
712.45	3065.81
712.63	2861.01
712.82	3045.33
713.00	3016.66
713.18	3039.19
713.37	2957.27
713.55	3133.39
713.73	3139.54
713.91	2910.16
714.10	2834.39
714.28	3002.32
714.46	2955.22
714.65	2897.88
714.83	2879.44
715.01	3030.99
715.19	3067.86
715.38	2795.48
715.56	3022.80
715.74	2854.87
715.92	2805.72
716.11	3049.43
716.29	2648.02
716.47	3030.99
716.65	2961.36
716.84	2756.57
717.02	2955.22
717.20	2701.27
717.38	2789.33
717.57	2940.88
717.75	2928.60
717.93	2944.98
718.11	3026.90
718.30	2686.94
718.48	2936.79
718.66	3092.43
718.84	3106.77
719.03	2871.25
719.21	2787.29
719.39	3354.57
719.57	3078.10
719.75	2934.74
719.94	2785.24
720.12	2963.41
720.30	3018.71
720.48	2944.98
720.67	2820.05
720.85	2815.96
721.03	2893.78
721.21	2740.18
721.39	2942.93
721.58	3035.09
721.76	2981.84
721.94	2836.44
722.12	2936.79
722.30	3319.76
722.49	2891.73
722.67	2826.20
722.85	2899.92
723.03	2762.71
723.21	2926.55
723.40	2891.73
723.58	2992.08
723.76	3041.23
723.94	3155.92
724.12	2893.78
724.30	3051.47
724.49	3153.87
724.67	2885.59
724.85	2951.12
725.03	2686.94
725.21	3065.81
725.40	3100.62
725.58	2791.38
725.76	3045.33
725.94	3045.33
726.12	2789.33
726.30	2957.27
726.49	2836.44
726.67	2932.69
726.85	3074.00
727.03	3483.59
727.21	4446.14
727.39	5414.83
727.57	5828.52
727.76	6272.93
727.94	6311.84
728.12	5615.53
728.30	4659.13
728.48	4429.76
728.66	4184.00
728.84	3934.15
729.03	3469.26
729.21	3289.04
729.39	3145.68
729.57	3100.62
729.75	3094.48
729.93	2957.27
730.11	2861.01
730.30	2973.65
730.48	2930.64
730.66	2996.18
730.84	3024.85
731.02	2953.17
731.20	2942.93
731.38	2955.22
731.56	2713.56
731.74	2738.13
731.93	2994.13
732.11	2959.31
732.29	2916.31
732.47	3139.54
732.65	3092.43
732.83	3043.28
733.01	2967.51
733.19	2836.44
733.37	3063.76
733.56	2932.69
733.74	2779.09
733.92	3225.55
734.10	2877.40
734.28	2961.36
734.46	2611.16
734.64	2869.20
734.82	3012.56
735.00	2850.77
735.18	2770.90
735.36	2922.45
735.54	2977.75
735.73	2856.92
735.91	2951.12
736.09	3237.84
736.27	3000.27
736.45	2932.69
736.63	2654.17
736.81	2836.44
736.99	3119.06
737.17	3078.10
737.35	2811.86
737.53	3041.23
737.71	2955.22
737.89	3002.32
738.07	2820.05
738.25	2818.00
738.43	2781.14
738.61	2850.77
738.80	2748.37
738.98	2813.91
739.16	2822.10
739.34	2793.43
739.52	3160.02
739.70	2926.55
739.88	3151.82
740.06	2983.89
740.24	2731.99
740.42	3196.88
740.60	2691.03
740.78	2815.96
740.96	2635.74
741.14	2922.45
741.32	3033.04
741.50	2762.71
741.68	3203.02
741.86	3180.50
742.04	2846.68
742.22	2791.38
742.40	2871.25
742.58	3061.71
742.76	2871.25
742.94	3016.66
743.12	2672.60
743.30	2957.27
743.48	3098.58
743.66	2766.81
743.84	2867.16
744.02	2885.59
744.20	3004.37
744.38	2736.09
744.56	2824.15
744.74	3297.23
744.92	3084.24
745.10	3055.57
745.28	2951.12
745.46	3233.74
745.64	2865.11
745.82	2914.26
746.00	2830.29
746.18	3008.47
746.36	2869.20
746.54	2877.40
746.72	2844.63
746.90	2789.33
747.08	3215.31
747.26	2893.78
747.44	2942.93
747.62	3127.25
747.80	3078.10
747.98	3086.29
748.15	2865.11
748.33	3258.32
748.51	2994.13
748.69	2899.92
748.87	2770.90
749.05	2938.84
749.23	2928.60
749.41	2883.54
749.59	2813.91
749.77	3102.67
749.95	2883.54
750.13	2805.72
750.31	3041.23
750.49	2928.60
750.67	3086.29
750.85	3049.43
751.03	2883.54
751.20	3315.66
751.38	2910.16
751.56	2885.59
751.74	2889.68
751.92	2883.54
752.10	2758.61
752.28	3010.51
752.46	2768.85
752.64	3016.66
752.82	2944.98
753.00	2955.22
753.18	2834.39
753.35	2951.12
753.53	2930.64
753.71	2856.92
753.89	3035.09
754.07	3067.86
754.25	3143.63
754.43	2938.84
754.61	2799.57
754.79	3016.66
754.97	2963.41
755.14	3014.61
755.32	2818.00
755.50	2973.65
755.68	3049.43
755.86	2770.90
756.04	2832.34
756.22	2697.17
756.40	3057.62
756.57	3117.01
756.75	2811.86
756.93	3149.78
757.11	3078.10
757.29	2748.37
757.47	2897.88
757.65	2707.41
757.82	2598.87
758.00	2746.33
758.18	2805.72
758.36	2873.30
758.54	3291.09
758.72	2695.13
758.90	3014.61
759.07	3049.43
759.25	2805.72
759.43	2942.93
759.61	2742.23
759.79	4300.73
759.97	3166.16
760.15	2916.31
760.32	2783.19
760.50	3078.10
760.68	3250.13
760.86	2750.42
761.04	3119.06
761.22	3082.19
761.39	2930.64
761.57	2955.22
761.75	2906.07
761.93	3098.58
762.11	2930.64
762.28	2979.79
762.46	2820.05
762.64	3121.10
762.82	2738.13
763.00	2813.91
763.18	3082.19
763.35	2799.57
763.53	3084.24
763.71	2899.92
763.89	2809.81
764.07	2959.31
764.24	3016.66
764.42	3012.56
764.60	2858.96
764.78	3051.47
764.96	3157.97
765.13	2965.46
765.31	2836.44
765.49	3063.76
765.67	2885.59
765.84	2885.59
766.02	2764.76
766.20	2734.04
766.38	3039.19
766.56	2975.70
766.73	2936.79
766.91	2920.40
767.09	2983.89
767.27	2928.60
767.44	2754.52
767.62	3033.04
767.80	2994.13
767.98	2756.57
768.15	2863.06
768.33	3035.09
768.51	3108.82
768.69	2990.03
768.87	2856.92
769.04	2981.84
769.22	3463.12
769.40	2990.03
769.58	3022.80
769.75	3030.99
769.93	3198.93
770.11	2826.20
770.28	2793.43
770.46	3086.29
770.64	2918.36
770.82	2899.92
770.99	2908.12
771.17	3069.91
771.35	2969.55
771.53	2918.36
771.70	2815.96
771.88	2981.84
772.06	2959.31
772.23	2875.35
772.41	2865.11
772.59	3000.27
772.77	2828.24
772.94	2861.01
773.12	3033.04
773.30	2877.40
773.47	2994.13
773.65	2766.81
773.83	3057.62
774.01	2985.94
774.18	2731.99
774.36	2879.44
774.54	2721.75
774.71	3018.71
774.89	2695.13
775.07	2725.85
775.24	2772.95
775.42	2895.83
775.60	3237.84
775.78	2793.43
775.95	2752.47
776.13	2695.13
776.31	2650.07
776.48	3041.23
776.66	3076.05
776.84	2936.79
777.01	2883.54
777.19	2826.20
777.37	2809.81
777.54	3096.53
777.72	3282.89
777.90	2899.92
778.07	2889.68
778.25	3499.98
778.43	3131.34
778.60	2793.43
778.78	2899.92
778.96	3221.45
779.13	2828.24
779.31	2971.60
779.49	2893.78
779.66	2975.70
779.84	3000.27
780.01	2818.00
780.19	2760.66
780.37	3182.54
780.54	3063.76
780.72	2711.51
780.90	2875.35
781.07	2955.22
781.25	2856.92
781.43	3092.43
781.60	2781.14
781.78	3217.36
781.95	2979.79
782.13	2799.57
782.31	2863.06
782.48	2688.98
782.66	3018.71
782.83	3096.53
783.01	3024.85
783.19	3096.53
783.36	2932.69
783.54	2830.29
783.72	2926.55
783.89	2920.40
784.07	3059.67
784.24	2951.12
784.42	3006.42
784.60	3014.61
784.77	2990.03
784.95	2662.36
785.12	2848.72
785.30	3006.42
785.47	2777.05
785.65	2815.96
785.83	2877.40
786.00	2822.10
786.18	3071.95
786.35	2750.42
786.53	2818.00
786.71	3119.06
786.88	3024.85
787.06	2936.79
787.23	2883.54
787.41	2756.57
787.58	3028.95
787.76	2787.29
787.94	2865.11
788.11	2977.75
788.29	2789.33
788.46	2881.49
788.64	2641.88
788.81	2891.73
788.99	2799.57
789.16	2746.33
789.34	2871.25
789.52	2858.96
789.69	2852.82
789.87	2672.60
790.04	2783.19
790.22	3084.24
790.39	3362.76
790.57	2764.76
790.74	2787.29
790.92	3129.30
791.09	2772.95
791.27	2961.36
791.44	2987.99
791.62	2957.27
791.79	3121.10
791.97	2926.55
792.15	3203.02
792.32	3057.62
792.50	3147.73
792.67	3080.14
792.85	3094.48
793.02	3088.34
793.20	2963.41
793.37	2727.89
793.55	2861.01
793.72	2721.75
793.90	3131.34
794.07	2873.30
794.25	2850.77
794.42	3039.19
794.60	2854.87
794.77	2877.40
794.95	3010.51
795.12	3112.91
795.30	2987.99
795.47	2605.02
795.65	3256.27
795.82	3074.00
796.00	2828.24
796.17	2895.83
796.34	2807.77
796.52	2973.65
796.69	3139.54
796.87	2963.41
797.04	3004.37
797.22	3053.52
797.39	3043.28
797.57	2930.64
797.74	3053.52
797.92	2973.65
798.09	2830.29
798.27	3069.91
798.44	2881.49
798.62	2861.01
798.79	2996.18
798.96	2901.97
799.14	2840.53
799.31	3395.53
799.49	3088.34
799.66	2807.77
799.84	2908.12
800.01	2691.03
800.19	3090.38
800.36	2686.94
800.53	2901.97
800.71	3123.15
800.88	3327.95
801.06	2818.00
801.23	2815.96
801.41	2914.26
801.58	2852.82
801.75	2828.24
801.93	2977.75
802.10	3114.96
802.28	2942.93
802.45	2850.77
802.63	2983.89
802.80	3166.16
802.97	2891.73
803.15	2865.11
803.32	2834.39
803.50	2762.71
803.67	2863.06
803.84	2799.57
804.02	3000.27
804.19	2961.36
804.37	2633.69
804.54	2664.41
804.71	2779.09
804.89	2979.79
805.06	2830.29
805.24	2699.22
805.41	2738.13
805.58	2914.26
805.76	3360.72
805.93	2881.49
806.10	2985.94
806.28	3049.43
806.45	3063.76
806.63	2916.31
806.80	2912.21
806.97	2971.60
807.15	3010.51
807.32	2947.03
807.49	2959.31
807.67	2813.91
807.84	3037.14
808.01	2693.08
808.19	3055.57
808.36	3362.76
808.54	2895.83
808.71	2813.91
808.88	2869.20
809.06	3137.49
809.23	3250.13
809.40	2840.53
809.58	2842.58
809.75	3051.47
809.92	2766.81
810.10	3098.58
810.27	2828.24
810.44	2963.41
810.62	3043.28
810.79	2842.58
810.96	2877.40
811.14	2906.07
811.31	3033.04
811.48	3055.57
811.66	2865.11
811.83	3157.97
812.00	3030.99
812.18	2959.31
812.35	3231.69
812.52	2967.51
812.69	2920.40
812.87	2750.42
813.04	2815.96
813.21	2920.40
813.39	2811.86
813.56	2775.00
813.73	3082.19
813.91	2752.47
814.08	3006.42
814.25	2820.05
814.42	2664.41
814.60	2942.93
814.77	2971.60
814.94	2848.72
815.12	2930.64
815.29	3307.47
815.46	2920.40
815.63	2908.12
815.81	2887.64
815.98	2975.70
816.15	2975.70
816.33	2899.92
816.50	2840.53
816.67	2957.27
816.84	2938.84
817.02	2822.10
817.19	2762.71
817.36	3004.37
817.53	3049.43
817.71	2791.38
817.88	2858.96
818.05	2906.07
818.22	2963.41
818.40	3067.86
818.57	2861.01
818.74	3069.91
818.91	2850.77
819.09	2990.03
819.26	2944.98
819.43	2797.53
819.60	2883.54
819.78	3020.75
819.95	2922.45
820.12	2826.20
820.29	3200.98
820.47	3018.71
820.64	2783.19
820.81	2656.22
820.98	2805.72
821.15	2795.48
821.33	2990.03
821.50	2740.18
821.67	3084.24
821.84	2820.05
822.02	2951.12
822.19	3051.47
822.36	2873.30
822.53	2809.81
822.70	2764.76
822.88	2852.82
823.05	3198.93
823.22	3002.32
823.39	2942.93
823.56	2908.12
823.74	3270.61
823.91	2648.02
824.08	2844.63
824.25	2805.72
824.42	3258.32
824.60	2688.98
824.77	2918.36
824.94	2893.78
825.11	3020.75
825.28	2738.13
825.45	3002.32
825.63	3028.95
825.80	2887.64
825.97	2967.51
826.14	2918.36
826.31	2713.56
826.48	3024.85
826.66	2772.95
826.83	2861.01
827.00	2904.02
827.17	2852.82
827.34	2873.30
827.51	2740.18
827.69	3043.28
827.86	2768.85
828.03	2955.22
828.20	2930.64
828.37	2967.51
828.54	3069.91
828.71	2805.72
828.89	2957.27
829.06	3028.95
829.23	3170.26
829.40	2789.33
829.57	2822.10
829.74	3106.77
829.91	2871.25
830.09	2760.66
830.26	3008.47
830.43	3170.26
830.60	2959.31
830.77	3020.75
830.94	3102.67
831.11	3157.97
831.28	2897.88
831.46	3004.37
831.63	2871.25
831.80	3205.07
831.97	2906.07
832.14	2875.35
832.31	2963.41
832.48	2965.46
832.65	3184.59
832.82	2934.74
832.99	2922.45
833.17	2742.23
833.34	3213.26
833.51	2842.58
833.68	2611.16
833.85	3221.45
834.02	2838.48
834.19	2764.76
834.36	2754.52
834.53	3002.32
834.70	3174.35
834.87	2877.40
835.04	2664.41
835.22	2797.53
835.39	2920.40
835.56	2734.04
835.73	2791.38
835.90	3082.19
836.07	2772.95
836.24	2873.30
836.41	2717.65
836.58	2897.88
836.75	3147.73
836.92	2779.09
837.09	2727.89
837.26	3065.81
837.43	2942.93
837.60	2691.03
837.77	2748.37
837.94	3147.73
838.12	3168.21
838.29	2713.56
838.46	2693.08
838.63	2770.90
838.80	3207.12
838.97	2856.92
839.14	2697.17
839.31	3069.91
839.48	3108.82
839.65	2703.32
839.82	2893.78
839.99	3012.56
840.16	3008.47
840.33	2613.21
840.50	2779.09
840.67	2736.09
840.84	2619.35
841.01	2629.59
841.18	2672.60
841.35	3047.38
841.52	3004.37
841.69	3051.47
841.86	2875.35
842.03	2998.23
842.20	3153.87
842.37	2697.17
842.54	2836.44
842.71	2947.03
842.88	2731.99
843.05	2850.77
843.22	2713.56
843.39	3086.29
843.56	2957.27
843.73	2729.94
843.90	2787.29
844.07	2942.93
844.24	3160.02
844.41	2832.34
844.58	2746.33
844.75	2944.98
844.92	3082.19
845.09	2807.77
845.26	2697.17
845.43	3125.20
845.60	3018.71
845.77	2922.45
845.94	2754.52
846.10	3186.64
846.27	2680.79
846.44	2699.22
846.61	2648.02
846.78	3020.75
846.95	3108.82
847.12	2715.61
847.29	2721.75
847.46	2863.06
847.63	3098.58
847.80	2635.74
847.97	2713.56
848.14	3315.66
848.31	2944.98
848.48	2643.93
848.65	2684.89
848.82	2797.53
848.98	3452.88
849.15	2871.25
849.32	2871.25
849.49	3248.08
849.66	2965.46
849.83	2684.89
850.00	2666.46
850.17	3055.57
850.34	2871.25
850.51	2691.03
850.68	2727.89
850.85	3383.24
851.01	3014.61
851.18	2670.55
851.35	2861.01
851.52	2955.22
851.69	3082.19
851.86	2707.41
852.03	2731.99
852.20	3059.67
852.37	2934.74
852.53	2684.89
852.70	2723.80
852.87	3000.27
853.04	3076.05
853.21	2729.94
853.38	2953.17
853.55	3227.60
853.72	3186.64
853.89	2529.24
854.05	2629.59
854.22	2885.59
854.39	2858.96
854.56	2760.66
854.73	2928.60
854.90	2801.62
855.07	2881.49
855.23	2639.83
855.40	2760.66
855.57	2856.92
855.74	2684.89
855.91	2922.45
856.08	2635.74
856.25	2795.48
856.41	2836.44
856.58	2699.22
856.75	2697.17
856.92	2789.33
857.09	3049.43
857.26	2656.22
857.42	2725.85
857.59	3110.86
857.76	2893.78
857.93	2756.57
858.10	2811.86
858.27	2752.47
858.43	2969.55
858.60	2699.22
858.77	2609.11
858.94	2889.68
859.11	3131.34
859.27	2764.76
859.44	2650.07
859.61	3373.00
859.78	3098.58
859.95	2758.61
860.12	2711.51
860.28	3385.29
860.45	3227.60
860.62	2703.32
860.79	2873.30
860.95	2887.64
861.12	2811.86
861.29	2629.59
861.46	2637.78
861.63	2924.50
861.79	3035.09
861.96	2658.26
862.13	2736.09
862.30	3162.06
862.47	2838.48
862.63	2633.69
862.80	2813.91
862.97	3106.77
863.14	3045.33
863.30	2736.09
863.47	2709.46
863.64	3227.60
863.81	2955.22
863.97	2580.44
864.14	2789.33
864.31	3006.42
864.48	3004.37
864.65	2779.09
864.81	2826.20
864.98	3043.28
865.15	3114.96
865.32	2832.34
865.48	2820.05
865.65	3217.36
865.82	2910.16
865.98	2824.15
866.15	2762.71
866.32	2871.25
866.49	2893.78
866.65	3004.37
866.82	2760.66
866.99	3030.99
867.16	2887.64
867.32	2721.75
867.49	2633.69
867.66	3014.61
867.83	2934.74
867.99	2693.08
868.16	2775.00
868.33	2789.33
868.49	2928.60
868.66	2729.94
868.83	2887.64
868.99	3067.86
869.16	3010.51
869.33	2830.29
869.50	2815.96
869.66	2959.31
869.83	2973.65
870.00	2666.46
870.16	2805.72
870.33	2906.07
870.50	3176.40
870.66	2766.81
870.83	2820.05
871.00	2891.73
871.17	2987.99
871.33	2775.00
871.50	2721.75
871.67	3000.27
871.83	2635.74
872.00	2820.05
872.17	2719.70
872.33	3256.27
872.50	3160.02
872.67	2734.04
872.83	2770.90
873.00	3096.53
873.17	2953.17
873.33	2785.24
873.50	2852.82
873.67	2858.96
873.83	2861.01
874.00	2721.75
874.16	2813.91
874.33	2994.13
874.50	2846.68
874.66	2688.98
874.83	2824.15
875.00	3168.21
875.16	3155.92
875.33	2754.52
875.50	2478.04
875.66	2869.20
875.83	2987.99
875.99	2805.72
876.16	2811.86
876.33	2791.38
876.49	2951.12
876.66	2803.67
876.83	2729.94
876.99	2727.89
877.16	2901.97
877.32	2756.57
877.49	2797.53
877.66	3030.99
877.82	3229.65
877.99	2809.81
878.15	3063.76
878.32	3117.01
878.49	3010.51
878.65	2795.48
878.82	3028.95
878.98	2822.10
879.15	3131.34
879.32	2918.36
879.48	2912.21
879.65	2916.31
879.81	2908.12
879.98	2795.48
880.15	2762.71
880.31	3135.44
880.48	2779.09
880.64	2832.34
880.81	2869.20
880.97	3241.93
881.14	3170.26
881.31	2764.76
881.47	2877.40
881.64	2987.99
881.80	2703.32
881.97	2953.17
882.13	2805.72
882.30	2742.23
882.47	2922.45
882.63	2777.05
882.80	2719.70
882.96	2879.44
883.13	3131.34
883.29	2789.33
883.46	2766.81
883.62	3293.13
883.79	2942.93
883.95	2863.06
884.12	2699.22
884.29	3190.74
884.45	2973.65
884.62	2787.29
884.78	2766.81
884.95	3198.93
885.11	2867.16
885.28	2797.53
885.44	2797.53
885.61	3020.75
885.77	3262.41
885.94	2861.01
886.10	2820.05
886.27	3037.14
886.43	3274.70
886.60	2899.92
886.76	2762.71
886.93	2824.15
887.09	3026.90
887.26	2586.58
887.42	2781.14
887.59	3100.62
887.75	3389.39
887.92	2992.08
888.08	2922.45
888.25	3233.74
888.41	3157.97
888.58	2766.81
888.74	2670.55
888.91	2861.01
>>>>>End Processed Spectral Data<<<<<
