SpectraSuite Data File
++++++++++++++++++++++++++++++++++++
Date: Thu May 05 21:10:51 CEST 2016
User: root
Dark Spectrum Present: No
Reference Spectrum Present: No
Number of Sampled Component Spectra: 1
Spectrometers: USB4C02835
Integration Time (usec): 100000 (USB4C02835)
Spectra Averaged: 1 (USB4C02835)
Boxcar Smoothing: 0 (USB4C02835)
Correct for Electrical Dark: No (USB4C02835)
Strobe/Lamp Enabled: No (USB4C02835)
Correct for Detector Non-linearity: No (USB4C02835)
Correct for Stray Light: No (USB4C02835)
Number of Pixels in Processed Spectrum: 3648
>>>>>Begin Processed Spectral Data<<<<<
177.47	2090.98
177.69	2090.98
177.91	2090.98
178.13	2099.17
178.36	2224.09
178.58	2805.72
178.80	3004.37
179.02	2762.71
179.24	2777.05
179.46	2650.07
179.68	2688.98
179.90	2990.03
180.13	3002.32
180.35	2514.91
180.57	2574.30
180.79	3102.67
181.01	3026.90
181.23	2775.00
181.45	2904.02
181.67	3127.25
181.90	3078.10
182.12	2736.09
182.34	2541.53
182.56	3080.14
182.78	3043.28
183.00	2648.02
183.22	2719.70
183.44	2701.27
183.66	3516.36
183.89	2854.87
184.11	2844.63
184.33	3092.43
184.55	3168.21
184.77	2674.65
184.99	2785.24
185.21	2971.60
185.43	3456.97
185.65	2627.54
185.87	2578.39
186.10	3514.31
186.32	3366.86
186.54	2820.05
186.76	2756.57
186.98	3114.96
187.20	3039.19
187.42	2625.50
187.64	2660.31
187.86	2977.75
188.08	3186.64
188.30	2596.82
188.52	2731.99
188.75	3211.22
188.97	3211.22
189.19	2695.13
189.41	2674.65
189.63	3010.51
189.85	2924.50
190.07	2578.39
190.29	2510.81
190.51	3112.91
190.73	2789.33
190.95	2926.55
191.17	2717.65
191.39	2719.70
191.61	3014.61
191.84	2725.85
192.06	2770.90
192.28	2785.24
192.50	3557.32
192.72	2844.63
192.94	2783.19
193.16	3155.92
193.38	3020.75
193.60	2627.54
193.82	2867.16
194.04	3151.82
194.26	3045.33
194.48	2713.56
194.70	2758.61
194.92	2842.58
195.14	3078.10
195.36	2611.16
195.58	2811.86
195.80	2947.03
196.02	2901.97
196.24	2717.65
196.46	2750.42
196.69	2897.88
196.91	3454.92
197.13	2779.09
197.35	2711.51
197.57	3291.09
197.79	3092.43
198.01	2678.74
198.23	2672.60
198.45	3076.05
198.67	2801.62
198.89	2543.58
199.11	2760.66
199.33	2906.07
199.55	2566.10
199.77	2574.30
199.99	2877.40
200.21	2881.49
200.43	3082.19
200.65	2580.44
200.87	2545.63
201.09	3014.61
201.31	2932.69
201.53	2772.95
201.75	2713.56
201.97	3096.53
202.19	2994.13
202.41	2756.57
202.63	2799.57
202.85	3086.29
203.07	3086.29
203.29	2799.57
203.51	2590.68
203.73	2875.35
203.95	3418.06
204.17	2701.27
204.39	2775.00
204.61	2899.92
204.83	2787.29
205.05	2803.67
205.27	2691.03
205.49	3426.25
205.71	2967.51
205.93	2592.73
206.15	2645.98
206.37	3035.09
206.59	2967.51
206.81	2584.54
207.03	2607.06
207.25	2830.29
207.47	3121.10
207.69	2635.74
207.91	2893.78
208.13	3276.75
208.34	2818.00
208.56	2637.78
208.78	2738.13
209.00	2959.31
209.22	2883.54
209.44	2701.27
209.66	2662.36
209.88	3008.47
210.10	3037.14
210.32	2594.78
210.54	2779.09
210.76	2920.40
210.98	3180.50
211.20	2568.15
211.42	2805.72
211.64	3221.45
211.86	3104.72
212.08	2697.17
212.30	2699.22
212.52	2963.41
212.74	3112.91
212.96	2762.71
213.17	2822.10
213.39	3084.24
213.61	3295.18
213.83	2676.70
214.05	2572.25
214.27	3153.87
214.49	2729.94
214.71	2666.46
214.93	2770.90
215.15	3026.90
215.37	3194.83
215.59	2623.45
215.81	2684.89
216.03	3153.87
216.24	2981.84
216.46	2656.22
216.68	2756.57
216.90	3088.34
217.12	3176.40
217.34	2645.98
217.56	2766.81
217.78	3254.22
218.00	3047.38
218.22	2707.41
218.44	2764.76
218.66	3016.66
218.87	3479.50
219.09	2754.52
219.31	2656.22
219.53	3082.19
219.75	2875.35
219.97	2707.41
220.19	2666.46
220.41	3008.47
220.63	3305.42
220.85	2680.79
221.06	2621.40
221.28	3256.27
221.50	3045.33
221.72	2652.12
221.94	2580.44
222.16	3033.04
222.38	3084.24
222.60	2639.83
222.82	2623.45
223.03	3119.06
223.25	2842.58
223.47	2656.22
223.69	2918.36
223.91	3119.06
224.13	3049.43
224.35	2535.39
224.57	2867.16
224.78	3135.44
225.00	2848.72
225.22	2738.13
225.44	2643.93
225.66	3219.41
225.88	2953.17
226.10	2840.53
226.32	2740.18
226.53	3231.69
226.75	2906.07
226.97	2734.04
227.19	2652.12
227.41	2822.10
227.63	2875.35
227.85	2486.23
228.06	2723.80
228.28	3045.33
228.50	3211.22
228.72	2594.78
228.94	2619.35
229.16	2783.19
229.37	2904.02
229.59	2611.16
229.81	2844.63
230.03	2957.27
230.25	2744.28
230.47	2510.81
230.69	2596.82
230.90	3092.43
231.12	2942.93
231.34	2801.62
231.56	2828.24
231.78	2742.23
232.00	2949.08
232.21	2725.85
232.43	2711.51
232.65	2625.50
232.87	3076.05
233.09	2566.10
233.30	2695.13
233.52	3205.07
233.74	3033.04
233.96	2631.64
234.18	2865.11
234.40	2922.45
234.61	3395.53
234.83	2547.67
235.05	2652.12
235.27	3432.40
235.49	3225.55
235.70	2596.82
235.92	2779.09
236.14	2979.79
236.36	3391.44
236.58	2535.39
236.79	2760.66
237.01	2936.79
237.23	3026.90
237.45	2836.44
237.67	2725.85
237.88	3096.53
238.10	3364.81
238.32	2635.74
238.54	2688.98
238.76	2965.46
238.97	2858.96
239.19	2602.97
239.41	2785.24
239.63	3155.92
239.85	2940.88
240.06	2711.51
240.28	2699.22
240.50	3135.44
240.72	2969.55
240.93	2545.63
241.15	2797.53
241.37	2985.94
241.59	3200.98
241.81	2709.46
242.02	2756.57
242.24	3061.71
242.46	3063.76
242.68	2514.91
242.89	2570.20
243.11	3137.49
243.33	2949.08
243.55	2643.93
243.76	2633.69
243.98	2818.00
244.20	2922.45
244.42	2709.46
244.64	2668.50
244.85	2789.33
245.07	2865.11
245.29	2738.13
245.51	2772.95
245.72	3028.95
245.94	3205.07
246.16	2625.50
246.38	2789.33
246.59	2947.03
246.81	2889.68
247.03	2619.35
247.24	2619.35
247.46	2838.48
247.68	2963.41
247.90	2609.11
248.11	2600.92
248.33	3147.73
248.55	2992.08
248.77	2752.47
248.98	2775.00
249.20	3211.22
249.42	2969.55
249.64	2654.17
249.85	2711.51
250.07	2936.79
250.29	3151.82
250.50	2832.34
250.72	2605.02
250.94	3067.86
251.16	3387.34
251.37	2684.89
251.59	2725.85
251.81	3045.33
252.02	3286.99
252.24	2643.93
252.46	2783.19
252.68	2877.40
252.89	2885.59
253.11	2514.91
253.33	2895.83
253.54	3149.78
253.76	2830.29
253.98	2654.17
254.20	2652.12
254.41	2742.23
254.63	2940.88
254.85	2549.72
255.06	2785.24
255.28	3041.23
255.50	2971.60
255.71	2660.31
255.93	2537.43
256.15	3002.32
256.36	3024.85
256.58	2576.34
256.80	2674.65
257.02	2987.99
257.23	2906.07
257.45	2674.65
257.67	2738.13
257.88	2836.44
258.10	3119.06
258.32	2738.13
258.53	2754.52
258.75	3356.62
258.97	2924.50
259.18	2674.65
259.40	2668.50
259.62	3303.37
259.83	3184.59
260.05	2736.09
260.27	3512.27
260.48	3172.30
260.70	2871.25
260.92	2586.58
261.13	2740.18
261.35	3002.32
261.57	3121.10
261.78	2600.92
262.00	2570.20
262.22	3082.19
262.43	2832.34
262.65	2785.24
262.86	2725.85
263.08	3373.00
263.30	3018.71
263.51	2617.30
263.73	2660.31
263.95	3360.72
264.16	2867.16
264.38	2592.73
264.60	2678.74
264.81	3022.80
265.03	3192.78
265.25	3028.95
265.46	2641.88
265.68	3180.50
265.89	3164.11
266.11	2519.00
266.33	2719.70
266.54	3168.21
266.76	3055.57
266.98	2793.43
267.19	2861.01
267.41	3250.13
267.62	2865.11
267.84	2490.33
268.06	2783.19
268.27	3024.85
268.49	3205.07
268.70	2705.37
268.92	2740.18
269.14	2852.82
269.35	2766.81
269.57	2789.33
269.79	2750.42
270.00	2891.73
270.22	3297.23
270.43	2508.76
270.65	2559.96
270.87	3026.90
271.08	3030.99
271.30	2777.05
271.51	2699.22
271.73	3080.14
271.95	3297.23
272.16	2648.02
272.38	2785.24
272.59	2908.12
272.81	3119.06
273.02	2645.98
273.24	2715.61
273.46	3139.54
273.67	2764.76
273.89	2607.06
274.10	2676.70
274.32	3172.30
274.54	3024.85
274.75	2770.90
274.97	2809.81
275.18	3008.47
275.40	3069.91
275.61	2717.65
275.83	2881.49
276.05	2875.35
276.26	2981.84
276.48	2744.28
276.69	2820.05
276.91	2936.79
277.12	3221.45
277.34	2871.25
277.55	2936.79
277.77	3030.99
277.99	2926.55
278.20	2844.63
278.42	2658.26
278.63	2920.40
278.85	2789.33
279.06	2777.05
279.28	2848.72
279.49	3164.11
279.71	3123.15
279.93	2871.25
280.14	2801.62
280.36	2824.15
280.57	3102.67
280.79	2899.92
281.00	2650.07
281.22	2879.44
281.43	3213.26
281.65	2695.13
281.86	2691.03
282.08	3092.43
282.29	3334.09
282.51	2658.26
282.73	2590.68
282.94	2764.76
283.16	3074.00
283.37	2975.70
283.59	2783.19
283.80	3067.86
284.02	3026.90
284.23	2807.77
284.45	2818.00
284.66	2809.81
284.88	2934.74
285.09	2752.47
285.31	2883.54
285.52	3004.37
285.74	2740.18
285.95	3051.47
286.17	2951.12
286.38	3112.91
286.60	2877.40
286.81	2748.37
287.03	2777.05
287.24	2983.89
287.46	3098.58
287.67	2908.12
287.89	2996.18
288.10	2961.36
288.32	2944.98
288.53	3039.19
288.75	2834.39
288.96	3002.32
289.18	2910.16
289.39	2779.09
289.61	2861.01
289.82	3315.66
290.04	3387.34
290.25	2762.71
290.47	2826.20
290.68	2924.50
290.90	3160.02
291.11	2629.59
291.33	2914.26
291.54	2764.76
291.76	2811.86
291.97	2873.30
292.18	2871.25
292.40	2949.08
292.61	2840.53
292.83	3096.53
293.04	2797.53
293.26	3024.85
293.47	2959.31
293.69	2678.74
293.90	2674.65
294.12	3086.29
294.33	3006.42
294.55	2842.58
294.76	2922.45
294.97	3155.92
295.19	3348.43
295.40	2746.33
295.62	2856.92
295.83	3112.91
296.05	2852.82
296.26	3004.37
296.48	2811.86
296.69	2959.31
296.90	2942.93
297.12	2963.41
297.33	2985.94
297.55	2992.08
297.76	3063.76
297.98	2914.26
298.19	2879.44
298.41	2961.36
298.62	2887.64
298.83	3033.04
299.05	2832.34
299.26	2953.17
299.48	2871.25
299.69	2869.20
299.90	2779.09
300.12	2797.53
300.33	3018.71
300.55	2830.29
300.76	2922.45
300.98	2777.05
301.19	3094.48
301.40	2803.67
301.62	2775.00
301.83	3110.86
302.05	2963.41
302.26	2813.91
302.47	2830.29
302.69	2791.38
302.90	3061.71
303.12	2615.26
303.33	2953.17
303.54	3215.31
303.76	2951.12
303.97	2764.76
304.19	2922.45
304.40	2770.90
304.61	3024.85
304.83	2885.59
305.04	2871.25
305.26	3143.63
305.47	2818.00
305.68	2783.19
305.90	2643.93
306.11	3260.37
306.33	2975.70
306.54	2652.12
306.75	2779.09
306.97	2750.42
307.18	2811.86
307.39	2699.22
307.61	2895.83
307.82	3006.42
308.04	3037.14
308.25	2723.80
308.46	2924.50
308.68	2928.60
308.89	2926.55
309.10	2897.88
309.32	2885.59
309.53	2977.75
309.74	3002.32
309.96	2719.70
310.17	2920.40
310.39	2926.55
310.60	3149.78
310.81	2826.20
311.03	2684.89
311.24	3153.87
311.45	2987.99
311.67	3110.86
311.88	2928.60
312.09	2912.21
312.31	2959.31
312.52	2721.75
312.73	2809.81
312.95	2721.75
313.16	2797.53
313.37	2971.60
313.59	2912.21
313.80	3157.97
314.01	3205.07
314.23	2815.96
314.44	2703.32
314.65	2795.48
314.87	2811.86
315.08	2777.05
315.29	2815.96
315.51	2809.81
315.72	2662.36
315.93	2846.68
316.15	2813.91
316.36	2828.24
316.57	2998.23
316.79	2764.76
317.00	2693.08
317.21	3061.71
317.43	2940.88
317.64	2852.82
317.85	2713.56
318.07	2856.92
318.28	2891.73
318.49	2877.40
318.70	3022.80
318.92	2973.65
319.13	3063.76
319.34	2959.31
319.56	2813.91
319.77	3026.90
319.98	3078.10
320.20	2969.55
320.41	2936.79
320.62	3055.57
320.83	2768.85
321.05	2924.50
321.26	2836.44
321.47	2994.13
321.69	3164.11
321.90	2645.98
322.11	2725.85
322.32	3043.28
322.54	3262.41
322.75	2760.66
322.96	3565.51
323.18	2717.65
323.39	2668.50
323.60	2711.51
323.81	2926.55
324.03	2889.68
324.24	3012.56
324.45	2957.27
324.66	2828.24
324.88	3276.75
325.09	3211.22
325.30	2818.00
325.52	2719.70
325.73	2981.84
325.94	2822.10
326.15	2631.64
326.37	2746.33
326.58	3041.23
326.79	3340.24
327.00	2785.24
327.22	2820.05
327.43	2963.41
327.64	2785.24
327.85	3000.27
328.07	2867.16
328.28	3295.18
328.49	2863.06
328.70	2875.35
328.92	2799.57
329.13	2994.13
329.34	3088.34
329.55	3022.80
329.76	2867.16
329.98	2861.01
330.19	3227.60
330.40	2875.35
330.61	2879.44
330.83	3155.92
331.04	2795.48
331.25	2795.48
331.46	2897.88
331.68	2756.57
331.89	3131.34
332.10	2797.53
332.31	2648.02
332.52	2924.50
332.74	3198.93
332.95	2637.78
333.16	2836.44
333.37	3162.06
333.58	2877.40
333.80	2822.10
334.01	2557.91
334.22	2949.08
334.43	2867.16
334.64	2787.29
334.86	2805.72
335.07	2840.53
335.28	3280.85
335.49	2744.28
335.70	2836.44
335.92	3243.98
336.13	3397.58
336.34	2879.44
336.55	2822.10
336.76	3028.95
336.98	2662.36
337.19	2793.43
337.40	2936.79
337.61	3524.55
337.82	3000.27
338.04	2938.84
338.25	2568.15
338.46	2985.94
338.67	2944.98
338.88	2738.13
339.09	2637.78
339.31	2936.79
339.52	2746.33
339.73	2762.71
339.94	2824.15
340.15	3160.02
340.36	2838.48
340.58	2924.50
340.79	2688.98
341.00	3039.19
341.21	2832.34
341.42	2947.03
341.63	2783.19
341.85	3213.26
342.06	3026.90
342.27	2688.98
342.48	2947.03
342.69	2736.09
342.90	3037.14
343.12	3104.72
343.33	2680.79
343.54	3157.97
343.75	3188.69
343.96	2828.24
344.17	2744.28
344.38	2938.84
344.60	2918.36
344.81	2701.27
345.02	2807.77
345.23	3239.89
345.44	3518.41
345.65	2854.87
345.86	2832.34
346.07	3026.90
346.29	2885.59
346.50	2918.36
346.71	2899.92
346.92	3205.07
347.13	3377.10
347.34	2949.08
347.55	2766.81
347.76	3051.47
347.98	2717.65
348.19	2736.09
348.40	2897.88
348.61	2992.08
348.82	3248.08
349.03	2879.44
349.24	2699.22
349.45	3272.65
349.66	2596.82
349.88	2795.48
350.09	2715.61
350.30	3254.22
350.51	3231.69
350.72	2942.93
350.93	2846.68
351.14	2901.97
351.35	3074.00
351.56	2854.87
351.77	2772.95
351.99	3063.76
352.20	3291.09
352.41	2899.92
352.62	2607.06
352.83	3039.19
353.04	2955.22
353.25	2893.78
353.46	2830.29
353.67	3217.36
353.88	2609.11
354.09	2752.47
354.30	2824.15
354.52	3100.62
354.73	2947.03
354.94	2793.43
355.15	2861.01
355.36	3254.22
355.57	2928.60
355.78	2717.65
355.99	2787.29
356.20	2959.31
356.41	3174.35
356.62	2830.29
356.83	2856.92
357.04	3233.74
357.25	2758.61
357.46	2777.05
357.68	2666.46
357.89	2820.05
358.10	3026.90
358.31	2762.71
358.52	2746.33
358.73	2844.63
358.94	2740.18
359.15	2756.57
359.36	2858.96
359.57	3020.75
359.78	2918.36
359.99	3020.75
360.20	2721.75
360.41	2983.89
360.62	2973.65
360.83	2838.48
361.04	2820.05
361.25	2959.31
361.46	3225.55
361.67	2852.82
361.88	2836.44
362.09	3182.54
362.30	3024.85
362.51	2783.19
362.72	2854.87
362.93	3086.29
363.14	3033.04
363.35	2838.48
363.56	2752.47
363.78	3243.98
363.99	3133.39
364.20	2793.43
364.41	2824.15
364.62	3295.18
364.83	3008.47
365.04	2764.76
365.25	2863.06
365.46	3223.50
365.67	2820.05
365.88	2881.49
366.09	2795.48
366.30	2942.93
366.51	2936.79
366.72	2711.51
366.93	2803.67
367.14	3078.10
367.35	3239.89
367.56	2789.33
367.77	2852.82
367.98	2938.84
368.18	3090.38
368.39	2969.55
368.60	2772.95
368.81	3172.30
369.02	3037.14
369.23	2818.00
369.44	2627.54
369.65	2840.53
369.86	3100.62
370.07	2922.45
370.28	2660.31
370.49	3092.43
370.70	3004.37
370.91	2688.98
371.12	2723.80
371.33	3117.01
371.54	2828.24
371.75	2932.69
371.96	2572.25
372.17	3022.80
372.38	2987.99
372.59	2875.35
372.80	2789.33
373.01	3053.52
373.22	2983.89
373.43	2770.90
373.64	2705.37
373.85	3211.22
374.06	3276.75
374.26	2947.03
374.47	2885.59
374.68	3233.74
374.89	3024.85
375.10	2693.08
375.31	2967.51
375.52	2928.60
375.73	3024.85
375.94	2672.60
376.15	2920.40
376.36	2858.96
376.57	2924.50
376.78	2858.96
376.99	2861.01
377.20	3125.20
377.40	2906.07
377.61	3071.95
377.82	2803.67
378.03	3252.17
378.24	3074.00
378.45	2893.78
378.66	2889.68
378.87	2684.89
379.08	2699.22
379.29	2826.20
379.50	2908.12
379.71	2965.46
379.91	3051.47
380.12	2770.90
380.33	2846.68
380.54	2981.84
380.75	2908.12
380.96	2670.55
381.17	2928.60
381.38	3014.61
381.59	2996.18
381.80	2904.02
382.00	2930.64
382.21	2930.64
382.42	3172.30
382.63	3102.67
382.84	2987.99
383.05	3123.15
383.26	3211.22
383.47	2922.45
383.68	2858.96
383.88	3014.61
384.09	3065.81
384.30	3057.62
384.51	2930.64
384.72	2850.77
384.93	2766.81
385.14	2850.77
385.35	3063.76
385.55	2797.53
385.76	3203.02
385.97	2850.77
386.18	2590.68
386.39	2863.06
386.60	2922.45
386.81	2760.66
387.02	2688.98
387.22	2758.61
387.43	3104.72
387.64	2826.20
387.85	3012.56
388.06	2979.79
388.27	4061.12
388.48	7133.08
388.68	10848.09
388.89	13367.09
389.10	14307.11
389.31	13893.42
389.52	11071.32
389.73	9713.52
389.93	8820.60
390.14	7954.31
390.35	7167.89
390.56	6674.33
390.77	5552.04
390.98	4276.16
391.18	3645.38
391.39	3397.58
391.60	3084.24
391.81	3018.71
392.02	2867.16
392.23	3295.18
392.43	3055.57
392.64	2947.03
392.85	2947.03
393.06	3211.22
393.27	3014.61
393.47	2715.61
393.68	2887.64
393.89	2881.49
394.10	3164.11
394.31	2783.19
394.52	2770.90
394.72	2955.22
394.93	3190.74
395.14	2727.89
395.35	2961.36
395.56	2936.79
395.76	2940.88
395.97	2815.96
396.18	2918.36
396.39	3026.90
396.60	3514.31
396.80	3088.34
397.01	3008.47
397.22	3141.58
397.43	3033.04
397.64	2828.24
397.84	2842.58
398.05	3342.28
398.26	2965.46
398.47	3018.71
398.67	2979.79
398.88	2889.68
399.09	3155.92
399.30	2805.72
399.51	2893.78
399.71	2826.20
399.92	2912.21
400.13	2881.49
400.34	2850.77
400.54	3049.43
400.75	3286.99
400.96	3039.19
401.17	3092.43
401.37	3055.57
401.58	2920.40
401.79	2818.00
402.00	2930.64
402.21	3487.69
402.41	3100.62
402.62	3035.09
402.83	3231.69
403.04	3356.62
403.24	3702.73
403.45	2959.31
403.66	3098.58
403.87	3207.12
404.07	3295.18
404.28	3178.45
404.49	3092.43
404.70	3067.86
404.90	3094.48
405.11	2793.43
405.32	2916.31
405.52	2889.68
405.73	2822.10
405.94	2752.47
406.15	2865.11
406.35	3133.39
406.56	3157.97
406.77	2914.26
406.98	2854.87
407.18	2754.52
407.39	3157.97
407.60	2877.40
407.80	2996.18
408.01	2840.53
408.22	3059.67
408.43	2688.98
408.63	2967.51
408.84	3129.30
409.05	3108.82
409.25	2797.53
409.46	2920.40
409.67	2883.54
409.88	2889.68
410.08	2842.58
410.29	2820.05
410.50	3088.34
410.70	3106.77
410.91	2752.47
411.12	2865.11
411.32	2922.45
411.53	2867.16
411.74	2826.20
411.95	2938.84
412.15	3000.27
412.36	3080.14
412.57	2938.84
412.77	3014.61
412.98	2985.94
413.19	2861.01
413.39	2846.68
413.60	2910.16
413.81	3266.51
414.01	2809.81
414.22	2904.02
414.43	2977.75
414.63	3008.47
414.84	3215.31
415.05	2854.87
415.25	2707.41
415.46	3078.10
415.67	2854.87
415.87	2828.24
416.08	2793.43
416.29	2877.40
416.49	3033.04
416.70	2815.96
416.91	2801.62
417.11	2916.31
417.32	3149.78
417.53	2912.21
417.73	2953.17
417.94	3008.47
418.15	3104.72
418.35	2920.40
418.56	2973.65
418.77	3366.86
418.97	3069.91
419.18	2797.53
419.38	2592.73
419.59	2940.88
419.80	3303.37
420.00	2818.00
420.21	2899.92
420.42	3170.26
420.62	3047.38
420.83	2799.57
421.04	2772.95
421.24	2971.60
421.45	3119.06
421.65	2863.06
421.86	2805.72
422.07	3082.19
422.27	3045.33
422.48	2795.48
422.69	2680.79
422.89	2963.41
423.10	2893.78
423.30	2672.60
423.51	2901.97
423.72	3033.04
423.92	3106.77
424.13	2727.89
424.33	2901.97
424.54	3137.49
424.75	2914.26
424.95	3059.67
425.16	2852.82
425.36	2932.69
425.57	3145.68
425.78	2973.65
425.98	2940.88
426.19	2975.70
426.39	2865.11
426.60	2940.88
426.81	3010.51
427.01	2998.23
427.22	2791.38
427.42	2633.69
427.63	2764.76
427.83	3180.50
428.04	3278.80
428.25	2920.40
428.45	2985.94
428.66	3170.26
428.86	2951.12
429.07	2965.46
429.28	2914.26
429.48	2994.13
429.69	2891.73
429.89	2967.51
430.10	2797.53
430.30	3178.45
430.51	3133.39
430.71	2791.38
430.92	2865.11
431.13	2914.26
431.33	3006.42
431.54	2897.88
431.74	3008.47
431.95	3385.29
432.15	2795.48
432.36	2807.77
432.56	2904.02
432.77	3330.00
432.98	3295.18
433.18	2938.84
433.39	2791.38
433.59	2914.26
433.80	3373.00
434.00	3043.28
434.21	2783.19
434.41	2887.64
434.62	3407.82
434.82	2693.08
435.03	2738.13
435.23	3026.90
435.44	2674.65
435.64	2838.48
435.85	2922.45
436.06	3119.06
436.26	3104.72
436.47	2795.48
436.67	2791.38
436.88	2924.50
437.08	3149.78
437.29	2963.41
437.49	2973.65
437.70	3207.12
437.90	2938.84
438.11	3076.05
438.31	2885.59
438.52	3157.97
438.72	3213.26
438.93	3151.82
439.13	2887.64
439.34	3082.19
439.54	2922.45
439.75	2963.41
439.95	2963.41
440.16	2858.96
440.36	2947.03
440.57	2836.44
440.77	2844.63
440.98	2973.65
441.18	2957.27
441.39	2820.05
441.59	2750.42
441.80	3393.48
442.00	3059.67
442.21	2942.93
442.41	2738.13
442.62	3198.93
442.82	2863.06
443.02	2846.68
443.23	2861.01
443.43	2912.21
443.64	3211.22
443.84	2719.70
444.05	2938.84
444.25	2983.89
444.46	2865.11
444.66	2877.40
444.87	3071.95
445.07	2721.75
445.28	2873.30
445.48	3004.37
445.69	2906.07
445.89	3309.52
446.09	2926.55
446.30	3203.02
446.50	3229.65
446.71	4609.98
446.91	5607.34
447.12	6397.85
447.32	6848.41
447.53	6879.13
447.73	5650.35
447.93	5060.53
448.14	4732.86
448.34	4806.58
448.55	4132.80
448.75	4020.16
448.96	3889.09
449.16	3629.00
449.36	3491.79
449.57	3018.71
449.77	2955.22
449.98	2891.73
450.18	3168.21
450.39	2822.10
450.59	3024.85
450.79	3063.76
451.00	2852.82
451.20	2992.08
451.41	2818.00
451.61	3020.75
451.81	2967.51
452.02	2822.10
452.22	2826.20
452.43	2899.92
452.63	2854.87
452.84	2897.88
453.04	2787.29
453.24	3065.81
453.45	2852.82
453.65	2834.39
453.86	2914.26
454.06	3026.90
454.26	2959.31
454.47	2822.10
454.67	3076.05
454.87	3153.87
455.08	2957.27
455.28	3016.66
455.49	3012.56
455.69	2840.53
455.89	3405.77
456.10	3000.27
456.30	2846.68
456.51	3094.48
456.71	3051.47
456.91	2883.54
457.12	2908.12
457.32	3026.90
457.52	2850.77
457.73	3045.33
457.93	2975.70
458.14	2916.31
458.34	2680.79
458.54	2904.02
458.75	2852.82
458.95	3069.91
459.15	3102.67
459.36	2875.35
459.56	2852.82
459.76	3463.12
459.97	3055.57
460.17	2871.25
460.37	3049.43
460.58	3039.19
460.78	3059.67
460.99	2932.69
461.19	2869.20
461.39	2889.68
461.60	2877.40
461.80	2930.64
462.00	2695.13
462.21	2949.08
462.41	2834.39
462.61	2797.53
462.82	2652.12
463.02	3166.16
463.22	2963.41
463.43	2916.31
463.63	2801.62
463.83	3141.58
464.04	3039.19
464.24	2836.44
464.44	2725.85
464.64	3024.85
464.85	3104.72
465.05	2858.96
465.25	2787.29
465.46	2983.89
465.66	3090.38
465.86	2914.26
466.07	2848.72
466.27	2953.17
466.47	2758.61
466.68	2744.28
466.88	2899.92
467.08	3114.96
467.29	3108.82
467.49	2854.87
467.69	2940.88
467.89	3110.86
468.10	2981.84
468.30	2916.31
468.50	2990.03
468.71	3129.30
468.91	2742.23
469.11	3069.91
469.31	2906.07
469.52	2863.06
469.72	3342.28
469.92	3153.87
470.13	2877.40
470.33	2940.88
470.53	3065.81
470.73	3112.91
470.94	3442.64
471.14	3487.69
471.34	4118.47
471.54	3858.37
471.75	3510.22
471.95	3375.05
472.15	3305.42
472.36	3323.85
472.56	3250.13
472.76	3364.81
472.96	3276.75
473.17	3129.30
473.37	3043.28
473.57	2983.89
473.77	3063.76
473.98	3012.56
474.18	2770.90
474.38	3549.13
474.58	2942.93
474.79	2729.94
474.99	2957.27
475.19	3198.93
475.39	2807.77
475.60	2846.68
475.80	2869.20
476.00	2961.36
476.20	2959.31
476.41	2842.58
476.61	2957.27
476.81	3272.65
477.01	2893.78
477.21	2967.51
477.42	2899.92
477.62	2809.81
477.82	3141.58
478.02	2838.48
478.23	2910.16
478.43	2801.62
478.63	2926.55
478.83	2871.25
479.03	2959.31
479.24	3327.95
479.44	3346.38
479.64	2713.56
479.84	2680.79
480.04	2897.88
480.25	3180.50
480.45	2754.52
480.65	2764.76
480.85	3248.08
481.06	2883.54
481.26	2906.07
481.46	2865.11
481.66	3133.39
481.86	2869.20
482.06	3055.57
482.27	2858.96
482.47	2883.54
482.67	2992.08
482.87	2873.30
483.07	2936.79
483.28	2899.92
483.48	2811.86
483.68	2840.53
483.88	2775.00
484.08	2635.74
484.29	2824.15
484.49	2961.36
484.69	2731.99
484.89	3237.84
485.09	3149.78
485.29	3006.42
485.50	2959.31
485.70	2908.12
485.90	3190.74
486.10	2934.74
486.30	2766.81
486.50	3119.06
486.71	3061.71
486.91	2869.20
487.11	2938.84
487.31	2787.29
487.51	3094.48
487.71	2887.64
487.91	2807.77
488.12	2842.58
488.32	2566.10
488.52	2836.44
488.72	2605.02
488.92	2967.51
489.12	3268.56
489.32	3026.90
489.53	2863.06
489.73	2797.53
489.93	3153.87
490.13	2895.83
490.33	2715.61
490.53	3024.85
490.73	3186.64
490.94	2719.70
491.14	2998.23
491.34	3192.78
491.54	3094.48
491.74	3641.29
491.94	4136.90
492.14	4605.88
492.34	4771.77
492.54	4272.06
492.75	3692.49
492.95	3860.42
493.15	3622.86
493.35	3481.55
493.55	3393.48
493.75	3334.09
493.95	3581.90
494.15	3139.54
494.35	2926.55
494.56	2990.03
494.76	2932.69
494.96	2940.88
495.16	2809.81
495.36	2987.99
495.56	3047.38
495.76	2887.64
495.96	2770.90
496.16	2889.68
496.36	3280.85
496.56	2815.96
496.77	2918.36
496.97	2926.55
497.17	3266.51
497.37	2631.64
497.57	2932.69
497.77	2926.55
497.97	2836.44
498.17	2893.78
498.37	2848.72
498.57	3084.24
498.77	2846.68
498.97	3051.47
499.17	3141.58
499.38	2930.64
499.58	2994.13
499.78	3065.81
499.98	3020.75
500.18	2881.49
500.38	2840.53
500.58	3016.66
500.78	3405.77
500.98	5597.10
501.18	7362.45
501.38	8718.20
501.58	9697.13
501.78	9787.24
501.98	8056.71
502.18	6707.10
502.38	5834.66
502.58	5666.73
502.78	5031.86
502.98	4751.29
503.18	4667.32
503.38	4382.65
503.59	3876.80
503.79	3672.01
503.99	3399.63
504.19	3428.30
504.39	3436.49
504.59	3377.10
504.79	3354.57
504.99	3487.69
505.19	3174.35
505.39	3069.91
505.59	3243.98
505.79	3270.61
505.99	3049.43
506.19	2867.16
506.39	3170.26
506.59	2867.16
506.79	2924.50
506.99	3051.47
507.19	2805.72
507.39	2977.75
507.59	2777.05
507.79	2789.33
507.99	2805.72
508.19	3043.28
508.39	2947.03
508.59	2867.16
508.79	2992.08
508.99	3373.00
509.19	2904.02
509.39	2869.20
509.59	2729.94
509.79	2873.30
509.99	2979.79
510.19	2994.13
510.39	3008.47
510.59	3041.23
510.79	2858.96
510.99	2713.56
511.19	2852.82
511.39	3319.76
511.59	3153.87
511.79	3045.33
511.99	2838.48
512.19	3291.09
512.38	3082.19
512.58	2799.57
512.78	2813.91
512.98	3114.96
513.18	3178.45
513.38	2803.67
513.58	2951.12
513.78	2955.22
513.98	2922.45
514.18	2887.64
514.38	2873.30
514.58	3080.14
514.78	2889.68
514.98	2828.24
515.18	2842.58
515.38	2815.96
515.58	3270.61
515.78	2830.29
515.98	2852.82
516.18	3024.85
516.38	2983.89
516.57	2744.28
516.77	2850.77
516.97	3123.15
517.17	2815.96
517.37	2691.03
517.57	2920.40
517.77	2996.18
517.97	2922.45
518.17	2928.60
518.37	2772.95
518.57	2906.07
518.77	2924.50
518.97	2871.25
519.16	2863.06
519.36	3153.87
519.56	2934.74
519.76	2793.43
519.96	2811.86
520.16	3317.71
520.36	2813.91
520.56	2996.18
520.76	2801.62
520.96	2838.48
521.16	3145.68
521.35	3112.91
521.55	2996.18
521.75	3006.42
521.95	2861.01
522.15	2734.04
522.35	2820.05
522.55	2881.49
522.75	3102.67
522.95	2688.98
523.14	2717.65
523.34	3000.27
523.54	2914.26
523.74	2955.22
523.94	2942.93
524.14	2760.66
524.34	2971.60
524.54	2971.60
524.73	2856.92
524.93	3110.86
525.13	3047.38
525.33	2736.09
525.53	3119.06
525.73	3057.62
525.93	3000.27
526.13	2838.48
526.32	2768.85
526.52	3235.79
526.72	3108.82
526.92	2820.05
527.12	2807.77
527.32	2766.81
527.52	3069.91
527.71	2858.96
527.91	2969.55
528.11	2940.88
528.31	2994.13
528.51	2822.10
528.71	2955.22
528.90	3094.48
529.10	3207.12
529.30	2893.78
529.50	2570.20
529.70	2969.55
529.90	2924.50
530.09	2885.59
530.29	2680.79
530.49	2820.05
530.69	3499.98
530.89	2920.40
531.09	2883.54
531.28	2906.07
531.48	3194.83
531.68	2854.87
531.88	2934.74
532.08	3209.17
532.28	3043.28
532.47	2951.12
532.67	2883.54
532.87	3074.00
533.07	2805.72
533.27	2936.79
533.46	2926.55
533.66	3094.48
533.86	2961.36
534.06	2908.12
534.26	2885.59
534.45	2944.98
534.65	3164.11
534.85	2914.26
535.05	2762.71
535.25	3143.63
535.44	2719.70
535.64	2897.88
535.84	2877.40
536.04	2924.50
536.24	2944.98
536.43	2781.14
536.63	2861.01
536.83	2961.36
537.03	2996.18
537.22	2670.55
537.42	2674.65
537.62	2987.99
537.82	2826.20
538.02	3084.24
538.21	2912.21
538.41	3567.56
538.61	3096.53
538.81	2940.88
539.00	3049.43
539.20	2768.85
539.40	2967.51
539.60	2912.21
539.79	2987.99
539.99	3004.37
540.19	2818.00
540.39	2850.77
540.58	2920.40
540.78	3184.59
540.98	3030.99
541.18	3043.28
541.37	2936.79
541.57	3037.14
541.77	3041.23
541.97	2742.23
542.16	2688.98
542.36	2967.51
542.56	2893.78
542.76	3129.30
542.95	2934.74
543.15	3014.61
543.35	3157.97
543.54	2822.10
543.74	2752.47
543.94	3221.45
544.14	2858.96
544.33	3018.71
544.53	2887.64
544.73	2967.51
544.93	2906.07
545.12	2840.53
545.32	2940.88
545.52	2844.63
545.71	2738.13
545.91	2863.06
546.11	2838.48
546.30	2846.68
546.50	2973.65
546.70	3008.47
546.90	2944.98
547.09	2600.92
547.29	2977.75
547.49	3037.14
547.68	2824.15
547.88	2826.20
548.08	3074.00
548.27	3211.22
548.47	2789.33
548.67	2877.40
548.87	3002.32
549.06	2932.69
549.26	2746.33
549.46	3071.95
549.65	2856.92
549.85	2961.36
550.05	2875.35
550.24	2756.57
550.44	2990.03
550.64	2981.84
550.83	2893.78
551.03	3149.78
551.23	3149.78
551.42	2955.22
551.62	2858.96
551.82	2979.79
552.01	3010.51
552.21	3051.47
552.41	2891.73
552.60	3237.84
552.80	3002.32
553.00	2787.29
553.19	2955.22
553.39	3293.13
553.59	2822.10
553.78	2879.44
553.98	2836.44
554.17	2809.81
554.37	3041.23
554.57	3057.62
554.76	2795.48
554.96	2848.72
555.16	3088.34
555.35	2992.08
555.55	2992.08
555.75	3016.66
555.94	3098.58
556.14	2756.57
556.33	2889.68
556.53	2994.13
556.73	3037.14
556.92	2850.77
557.12	2899.92
557.32	3295.18
557.51	3258.32
557.71	2928.60
557.90	3061.71
558.10	3129.30
558.30	2904.02
558.49	2875.35
558.69	2871.25
558.88	2998.23
559.08	3043.28
559.28	2912.21
559.47	2908.12
559.67	3039.19
559.86	3362.76
560.06	2826.20
560.26	2811.86
560.45	3102.67
560.65	2959.31
560.84	3022.80
561.04	2809.81
561.24	3051.47
561.43	2805.72
561.63	3104.72
561.82	2998.23
562.02	3045.33
562.22	2875.35
562.41	2748.37
562.61	2881.49
562.80	2858.96
563.00	3411.92
563.19	2916.31
563.39	2942.93
563.59	3164.11
563.78	2830.29
563.98	2619.35
564.17	2789.33
564.37	2738.13
564.56	3008.47
564.76	2766.81
564.96	2951.12
565.15	3018.71
565.35	3442.64
565.54	2912.21
565.74	2928.60
565.93	3086.29
566.13	2959.31
566.32	2887.64
566.52	2838.48
566.71	2924.50
566.91	3092.43
567.11	3026.90
567.30	2791.38
567.50	3104.72
567.69	3162.06
567.89	2811.86
568.08	2734.04
568.28	3014.61
568.47	2842.58
568.67	2914.26
568.86	2871.25
569.06	3114.96
569.25	2961.36
569.45	2742.23
569.64	2908.12
569.84	2881.49
570.04	2977.75
570.23	2785.24
570.43	2852.82
570.62	3006.42
570.82	3280.85
571.01	2725.85
571.21	2770.90
571.40	2797.53
571.60	3166.16
571.79	2856.92
571.99	2906.07
572.18	2836.44
572.38	2969.55
572.57	2824.15
572.77	2959.31
572.96	3413.96
573.16	2963.41
573.35	2838.48
573.55	3051.47
573.74	2932.69
573.94	2942.93
574.13	2813.91
574.33	3024.85
574.52	3231.69
574.71	2957.27
574.91	2906.07
575.10	2799.57
575.30	2893.78
575.49	2801.62
575.69	2750.42
575.88	2854.87
576.08	2949.08
576.27	3084.24
576.47	2754.52
576.66	3006.42
576.86	3200.98
577.05	3053.52
577.25	2926.55
577.44	3157.97
577.64	2934.74
577.83	3174.35
578.02	2783.19
578.22	3039.19
578.41	3321.81
578.61	2951.12
578.80	2686.94
579.00	2895.83
579.19	2959.31
579.39	3104.72
579.58	2908.12
579.77	2938.84
579.97	3256.27
580.16	3160.02
580.36	2977.75
580.55	2912.21
580.75	3037.14
580.94	2975.70
581.13	3074.00
581.33	3123.15
581.52	3104.72
581.72	3297.23
581.91	3016.66
582.11	2883.54
582.30	3125.20
582.49	3014.61
582.69	3207.12
582.88	2887.64
583.08	3059.67
583.27	3174.35
583.47	2942.93
583.66	2897.88
583.85	2801.62
584.05	2961.36
584.24	2938.84
584.44	2949.08
584.63	3176.40
584.82	3203.02
585.02	3033.04
585.21	2963.41
585.41	3049.43
585.60	3069.91
585.79	3059.67
585.99	3123.15
586.18	3074.00
586.37	3936.20
586.57	5756.84
586.76	16529.16
586.96	35573.22
587.15	48213.28
587.34	57003.16
587.54	60949.60
587.73	54344.90
587.93	38555.06
588.12	29273.67
588.31	23785.11
588.51	21071.55
588.70	19361.50
588.89	17078.01
589.09	14550.82
589.28	12590.91
589.47	9590.64
589.67	7546.76
589.86	5896.10
590.06	4607.93
590.25	4065.22
590.44	3588.04
590.64	3213.26
590.83	3225.55
591.02	3264.46
591.22	2760.66
591.41	3000.27
591.60	2981.84
591.80	3448.78
591.99	2785.24
592.18	2922.45
592.38	3217.36
592.57	2893.78
592.76	2875.35
592.96	2940.88
593.15	3033.04
593.34	3135.44
593.54	2877.40
593.73	2983.89
593.92	3088.34
594.12	3026.90
594.31	2912.21
594.50	3100.62
594.70	3074.00
594.89	3348.43
595.08	2715.61
595.28	3041.23
595.47	3596.23
595.66	3256.27
595.86	2758.61
596.05	2871.25
596.24	2949.08
596.43	3305.42
596.63	2977.75
596.82	2965.46
597.01	3088.34
597.21	3340.24
597.40	2891.73
597.59	2944.98
597.79	2955.22
597.98	3088.34
598.17	2914.26
598.36	2885.59
598.56	3170.26
598.75	2979.79
598.94	2979.79
599.14	2947.03
599.33	2914.26
599.52	3106.77
599.71	2904.02
599.91	2965.46
600.10	3147.73
600.29	2881.49
600.48	2930.64
600.68	2990.03
600.87	2996.18
601.06	2885.59
601.26	2967.51
601.45	3010.51
601.64	2910.16
601.83	3252.17
602.03	2803.67
602.22	2705.37
602.41	3188.69
602.60	3401.68
602.80	2975.70
602.99	2895.83
603.18	2871.25
603.37	2940.88
603.57	2772.95
603.76	2887.64
603.95	3155.92
604.14	2867.16
604.34	2684.89
604.53	2830.29
604.72	3092.43
604.91	3033.04
605.10	2834.39
605.30	2793.43
605.49	3456.97
605.68	3069.91
605.87	2947.03
606.07	2820.05
606.26	2998.23
606.45	3000.27
606.64	2883.54
606.84	2752.47
607.03	2934.74
607.22	3196.88
607.41	2854.87
607.60	2842.58
607.80	3131.34
607.99	3024.85
608.18	2914.26
608.37	2955.22
608.56	2869.20
608.76	3059.67
608.95	2990.03
609.14	2801.62
609.33	3205.07
609.52	3246.03
609.72	2908.12
609.91	3026.90
610.10	3024.85
610.29	3129.30
610.48	2928.60
610.68	3002.32
610.87	2908.12
611.06	3028.95
611.25	2889.68
611.44	2987.99
611.63	2963.41
611.83	3254.22
612.02	2729.94
612.21	3010.51
612.40	2660.31
612.59	2852.82
612.79	2848.72
612.98	2846.68
613.17	3180.50
613.36	2889.68
613.55	2987.99
613.74	2830.29
613.93	2973.65
614.13	3035.09
614.32	2981.84
614.51	2961.36
614.70	3004.37
614.89	2969.55
615.08	2932.69
615.28	3248.08
615.47	2746.33
615.66	3090.38
615.85	2912.21
616.04	3018.71
616.23	2899.92
616.42	2904.02
616.62	2850.77
616.81	2893.78
617.00	3086.29
617.19	3059.67
617.38	2803.67
617.57	2975.70
617.76	3076.05
617.95	3127.25
618.15	2932.69
618.34	3096.53
618.53	2719.70
618.72	3145.68
618.91	3012.56
619.10	2934.74
619.29	3094.48
619.48	3043.28
619.68	2760.66
619.87	2838.48
620.06	2783.19
620.25	3104.72
620.44	2777.05
620.63	2854.87
620.82	3035.09
621.01	2916.31
621.20	2914.26
621.39	2955.22
621.59	3041.23
621.78	2889.68
621.97	2906.07
622.16	2963.41
622.35	3049.43
622.54	3145.68
622.73	2983.89
622.92	2678.74
623.11	3059.67
623.30	2910.16
623.49	2961.36
623.68	2779.09
623.88	3235.79
624.07	2848.72
624.26	2809.81
624.45	2865.11
624.64	2916.31
624.83	3000.27
625.02	2830.29
625.21	2879.44
625.40	3076.05
625.59	3198.93
625.78	2856.92
625.97	3033.04
626.16	3246.03
626.35	3164.11
626.54	2824.15
626.74	3096.53
626.93	2977.75
627.12	2992.08
627.31	2983.89
627.50	2904.02
627.69	3160.02
627.88	2865.11
628.07	2818.00
628.26	2719.70
628.45	2897.88
628.64	2824.15
628.83	2918.36
629.02	2731.99
629.21	3014.61
629.40	3004.37
629.59	2807.77
629.78	2811.86
629.97	2916.31
630.16	3016.66
630.35	2721.75
630.54	2967.51
630.73	2873.30
630.92	2918.36
631.11	2830.29
631.30	2949.08
631.49	3088.34
631.68	2963.41
631.87	2891.73
632.06	2795.48
632.25	3391.44
632.44	2953.17
632.63	2891.73
632.82	2854.87
633.01	2869.20
633.20	2951.12
633.39	2828.24
633.58	2725.85
633.77	2971.60
633.96	3071.95
634.15	2973.65
634.34	2940.88
634.53	3045.33
634.72	2818.00
634.91	2682.84
635.10	2871.25
635.29	3082.19
635.48	3022.80
635.67	2693.08
635.86	2613.21
636.05	3215.31
636.24	3080.14
636.43	2869.20
636.62	2944.98
636.81	2629.59
637.00	3022.80
637.19	2863.06
637.38	2936.79
637.57	2852.82
637.76	2938.84
637.95	2965.46
638.14	2844.63
638.33	3000.27
638.52	2992.08
638.71	2820.05
638.89	2715.61
639.08	3434.44
639.27	3196.88
639.46	3039.19
639.65	3373.00
639.84	3428.30
640.03	3416.01
640.22	3233.74
640.41	3258.32
640.60	2983.89
640.79	3049.43
640.98	2973.65
641.17	3074.00
641.36	3209.17
641.55	3076.05
641.74	2834.39
641.92	2791.38
642.11	2772.95
642.30	2971.60
642.49	2787.29
642.68	2854.87
642.87	3088.34
643.06	3125.20
643.25	2719.70
643.44	2746.33
643.63	3002.32
643.82	3090.38
644.00	2777.05
644.19	2875.35
644.38	2760.66
644.57	3106.77
644.76	2881.49
644.95	2856.92
645.14	2924.50
645.33	2928.60
645.52	2908.12
645.71	2727.89
645.89	2879.44
646.08	2906.07
646.27	2924.50
646.46	3051.47
646.65	2734.04
646.84	2983.89
647.03	2744.28
647.22	3020.75
647.40	3057.62
647.59	2846.68
647.78	2668.50
647.97	2781.14
648.16	2797.53
648.35	3250.13
648.54	3110.86
648.73	2901.97
648.91	3106.77
649.10	2918.36
649.29	2766.81
649.48	2830.29
649.67	3030.99
649.86	2963.41
650.05	2852.82
650.23	3016.66
650.42	2809.81
650.61	3239.89
650.80	2949.08
650.99	3141.58
651.18	3203.02
651.36	3258.32
651.55	2875.35
651.74	3016.66
651.93	2973.65
652.12	2963.41
652.31	2887.64
652.49	2877.40
652.68	2877.40
652.87	3293.13
653.06	2981.84
653.25	3088.34
653.44	2961.36
653.62	3119.06
653.81	2858.96
654.00	2838.48
654.19	3127.25
654.38	3424.20
654.56	2971.60
654.75	2785.24
654.94	3065.81
655.13	2955.22
655.32	2818.00
655.51	2932.69
655.69	2811.86
655.88	3096.53
656.07	2746.33
656.26	2867.16
656.45	2826.20
656.63	3016.66
656.82	2877.40
657.01	2967.51
657.20	2883.54
657.38	3305.42
657.57	2826.20
657.76	2691.03
657.95	3114.96
658.14	2891.73
658.32	2961.36
658.51	2631.64
658.70	3035.09
658.89	3114.96
659.08	2846.68
659.26	3051.47
659.45	2791.38
659.64	3024.85
659.83	2852.82
660.01	3317.71
660.20	3067.86
660.39	3274.70
660.58	2584.54
660.76	2926.55
660.95	2740.18
661.14	2932.69
661.33	2734.04
661.51	2820.05
661.70	2887.64
661.89	3065.81
662.08	2949.08
662.26	2721.75
662.45	2813.91
662.64	3215.31
662.83	2967.51
663.01	2695.13
663.20	2877.40
663.39	3229.65
663.58	2820.05
663.76	2852.82
663.95	3092.43
664.14	2846.68
664.32	2840.53
664.51	2842.58
664.70	2768.85
664.89	3006.42
665.07	2686.94
665.26	3047.38
665.45	2795.48
665.64	3117.01
665.82	2877.40
666.01	2951.12
666.20	2725.85
666.38	3168.21
666.57	3119.06
666.76	4659.13
666.95	10993.50
667.13	17590.00
667.32	21366.46
667.51	24043.15
667.69	25126.53
667.88	21345.98
668.07	15171.35
668.25	12832.57
668.44	11040.60
668.63	9754.48
668.81	8402.82
669.00	7395.22
669.19	6727.58
669.38	5885.86
669.56	5011.38
669.75	4419.52
669.94	3944.39
670.12	3434.44
670.31	3239.89
670.50	3143.63
670.68	3180.50
670.87	3106.77
671.06	2867.16
671.24	3000.27
671.43	3284.94
671.62	2889.68
671.80	2865.11
671.99	2910.16
672.18	2969.55
672.36	3090.38
672.55	2938.84
672.74	2971.60
672.92	2922.45
673.11	3086.29
673.29	2736.09
673.48	3043.28
673.67	2965.46
673.85	3153.87
674.04	2779.09
674.23	2920.40
674.41	3340.24
674.60	2723.80
674.79	2664.41
674.97	2703.32
675.16	3149.78
675.34	3108.82
675.53	2848.72
675.72	2953.17
675.90	3327.95
676.09	2904.02
676.28	2936.79
676.46	2633.69
676.65	3139.54
676.83	2901.97
677.02	2875.35
677.21	2975.70
677.39	2918.36
677.58	2889.68
677.77	2795.48
677.95	2809.81
678.14	2895.83
678.32	2932.69
678.51	2791.38
678.70	3194.83
678.88	2881.49
679.07	3030.99
679.25	2834.39
679.44	2920.40
679.63	2807.77
679.81	3002.32
680.00	3086.29
680.18	2942.93
680.37	3239.89
680.55	2990.03
680.74	2703.32
680.93	2650.07
681.11	2963.41
681.30	2947.03
681.48	2885.59
681.67	2930.64
681.85	2990.03
682.04	2775.00
682.23	2987.99
682.41	2893.78
682.60	2897.88
682.78	2932.69
682.97	2770.90
683.15	2949.08
683.34	2963.41
683.53	3291.09
683.71	2748.37
683.90	2887.64
684.08	3194.83
684.27	2979.79
684.45	2901.97
684.64	3063.76
684.82	2973.65
685.01	3098.58
685.19	2916.31
685.38	3174.35
685.57	2987.99
685.75	2832.34
685.94	2736.09
686.12	2719.70
686.31	2883.54
686.49	3157.97
686.68	2588.63
686.86	2934.74
687.05	2906.07
687.23	3254.22
687.42	2881.49
687.60	2670.55
687.79	3172.30
687.97	3190.74
688.16	3006.42
688.34	3014.61
688.53	2674.65
688.71	3045.33
688.90	3086.29
689.08	2881.49
689.27	2731.99
689.45	3133.39
689.64	2990.03
689.82	2944.98
690.01	3108.82
690.19	3035.09
690.38	2969.55
690.56	3014.61
690.75	2899.92
690.93	2949.08
691.12	2856.92
691.30	2959.31
691.49	2904.02
691.67	3022.80
691.86	3135.44
692.04	2828.24
692.23	2934.74
692.41	2889.68
692.60	3229.65
692.78	2975.70
692.97	2973.65
693.15	3016.66
693.34	3143.63
693.52	3035.09
693.71	2893.78
693.89	2893.78
694.08	2711.51
694.26	2973.65
694.44	3137.49
694.63	3123.15
694.81	2822.10
695.00	2783.19
695.18	3143.63
695.37	3362.76
695.55	3028.95
695.74	2916.31
695.92	2916.31
696.10	3258.32
696.29	2703.32
696.47	2797.53
696.66	2752.47
696.84	2748.37
697.03	2842.58
697.21	3153.87
697.40	4380.61
697.58	3196.88
697.76	2815.96
697.95	2772.95
698.13	2772.95
698.32	2883.54
698.50	2869.20
698.68	2895.83
698.87	3028.95
699.05	3301.33
699.24	2871.25
699.42	2705.37
699.61	3053.52
699.79	2981.84
699.97	2852.82
700.16	2787.29
700.34	2791.38
700.53	2957.27
700.71	3012.56
700.89	2996.18
701.08	2916.31
701.26	3045.33
701.45	3260.37
701.63	2742.23
701.81	2899.92
702.00	2854.87
702.18	2953.17
702.37	2828.24
702.55	3180.50
702.73	3069.91
702.92	2844.63
703.10	3149.78
703.28	3182.54
703.47	2838.48
703.65	3088.34
703.84	2963.41
704.02	2889.68
704.20	3356.62
704.39	2869.20
704.57	2840.53
704.75	3160.02
704.94	3053.52
705.12	2961.36
705.30	3409.87
705.49	6612.89
705.67	12914.49
705.86	18124.52
706.04	20278.99
706.22	22443.69
706.41	21847.73
706.59	16787.20
706.77	13125.43
706.96	11255.64
707.14	10327.91
707.32	8800.12
707.51	7833.48
707.69	6481.82
707.87	5423.02
708.06	4558.78
708.24	3905.48
708.42	3483.59
708.61	3655.62
708.79	2904.02
708.97	2936.79
709.16	3098.58
709.34	3022.80
709.52	2904.02
709.71	2912.21
709.89	3104.72
710.07	2893.78
710.26	2803.67
710.44	2914.26
710.62	3055.57
710.80	2957.27
710.99	2912.21
711.17	3004.37
711.35	2803.67
711.54	2879.44
711.72	2998.23
711.90	2867.16
712.09	3110.86
712.27	2822.10
712.45	2953.17
712.63	2916.31
712.82	3026.90
713.00	2967.51
713.18	2967.51
713.37	3049.43
713.55	3127.25
713.73	3149.78
713.91	2938.84
714.10	2887.64
714.28	2957.27
714.46	3024.85
714.65	2922.45
714.83	2926.55
715.01	2965.46
715.19	2895.83
715.38	2801.62
715.56	2963.41
715.74	2881.49
715.92	2848.72
716.11	3209.17
716.29	2625.50
716.47	2908.12
716.65	2922.45
716.84	2764.76
717.02	3026.90
717.20	2660.31
717.38	2826.20
717.57	3004.37
717.75	2940.88
717.93	2891.73
718.11	3137.49
718.30	2742.23
718.48	2895.83
718.66	3145.68
718.84	3293.13
719.03	2897.88
719.21	2701.27
719.39	3168.21
719.57	3069.91
719.75	2938.84
719.94	2791.38
720.12	2912.21
720.30	2951.12
720.48	2957.27
720.67	2699.22
720.85	2807.77
721.03	2811.86
721.21	2809.81
721.39	2971.60
721.58	3049.43
721.76	2967.51
721.94	2924.50
722.12	2947.03
722.30	3248.08
722.49	2926.55
722.67	2865.11
722.85	2930.64
723.03	2715.61
723.21	2918.36
723.40	2928.60
723.58	2959.31
723.76	3086.29
723.94	3104.72
724.12	2922.45
724.30	3153.87
724.49	3129.30
724.67	2805.72
724.85	3055.57
725.03	2686.94
725.21	3037.14
725.40	3100.62
725.58	2820.05
725.76	3047.38
725.94	3022.80
726.12	2852.82
726.30	2926.55
726.49	2914.26
726.67	2840.53
726.85	2985.94
727.03	3311.57
727.21	4333.50
727.39	5453.74
727.57	5832.62
727.76	6195.11
727.94	6281.12
728.12	5586.86
728.30	4652.98
728.48	4423.61
728.66	4194.24
728.84	3893.19
729.03	3440.59
729.21	3373.00
729.39	3305.42
729.57	3094.48
729.75	3110.86
729.93	3004.37
730.11	2795.48
730.30	3004.37
730.48	2918.36
730.66	2893.78
730.84	3000.27
731.02	2981.84
731.20	2865.11
731.38	2969.55
731.56	2738.13
731.74	2772.95
731.93	2969.55
732.11	2949.08
732.29	2889.68
732.47	3024.85
732.65	3002.32
732.83	3131.34
733.01	2901.97
733.19	2838.48
733.37	3055.57
733.56	2981.84
733.74	2840.53
733.92	3174.35
734.10	2918.36
734.28	3008.47
734.46	2688.98
734.64	2918.36
734.82	2918.36
735.00	2832.34
735.18	2772.95
735.36	2977.75
735.54	2963.41
735.73	2861.01
735.91	2930.64
736.09	3280.85
736.27	3035.09
736.45	2992.08
736.63	2703.32
736.81	2889.68
736.99	3110.86
737.17	3157.97
737.35	2803.67
737.53	3108.82
737.71	2957.27
737.89	3069.91
738.07	2861.01
738.25	2783.19
738.43	2686.94
738.61	2940.88
738.80	2729.94
738.98	2781.14
739.16	2856.92
739.34	2785.24
739.52	3100.62
739.70	2979.79
739.88	3047.38
740.06	3004.37
740.24	2637.78
740.42	3096.53
740.60	2764.76
740.78	2932.69
740.96	2619.35
741.14	2920.40
741.32	2938.84
741.50	2713.56
741.68	3127.25
741.86	3184.59
742.04	2805.72
742.22	2748.37
742.40	2830.29
742.58	3147.73
742.76	2895.83
742.94	3041.23
743.12	2705.37
743.30	2998.23
743.48	3067.86
743.66	2772.95
743.84	2877.40
744.02	3010.51
744.20	2928.60
744.38	2801.62
744.56	2822.10
744.74	3303.37
744.92	3065.81
745.10	3035.09
745.28	2914.26
745.46	3200.98
745.64	2836.44
745.82	2926.55
746.00	2889.68
746.18	3008.47
746.36	2824.15
746.54	2983.89
746.72	2834.39
746.90	2836.44
747.08	3217.36
747.26	2920.40
747.44	2944.98
747.62	3069.91
747.80	3024.85
747.98	2901.97
748.15	2869.20
748.33	3293.13
748.51	3030.99
748.69	2947.03
748.87	2787.29
749.05	2957.27
749.23	2932.69
749.41	2901.97
749.59	2824.15
749.77	3155.92
749.95	2842.58
750.13	2838.48
750.31	2901.97
750.49	2994.13
750.67	3149.78
750.85	3028.95
751.03	2904.02
751.20	3411.92
751.38	3030.99
751.56	2842.58
751.74	2887.64
751.92	2920.40
752.10	2799.57
752.28	3012.56
752.46	2901.97
752.64	2977.75
752.82	2916.31
753.00	2940.88
753.18	2764.76
753.35	2897.88
753.53	2971.60
753.71	2791.38
753.89	2897.88
754.07	2934.74
754.25	3135.44
754.43	2953.17
754.61	2770.90
754.79	3121.10
754.97	2961.36
755.14	3010.51
755.32	2793.43
755.50	2899.92
755.68	2942.93
755.86	2772.95
756.04	2789.33
756.22	2660.31
756.40	3094.48
756.57	3078.10
756.75	2805.72
756.93	3215.31
757.11	3092.43
757.29	2727.89
757.47	2795.48
757.65	2809.81
757.82	2650.07
758.00	2824.15
758.18	2824.15
758.36	2881.49
758.54	3219.41
758.72	2768.85
758.90	2959.31
759.07	3104.72
759.25	2807.77
759.43	2969.55
759.61	2744.28
759.79	4272.06
759.97	3102.67
760.15	2852.82
760.32	2830.29
760.50	2985.94
760.68	3330.00
760.86	2729.94
761.04	3065.81
761.22	3160.02
761.39	3049.43
761.57	2971.60
761.75	2873.30
761.93	3086.29
762.11	3020.75
762.28	2887.64
762.46	2797.53
762.64	3110.86
762.82	2756.57
763.00	2787.29
763.18	3090.38
763.35	2791.38
763.53	3164.11
763.71	3030.99
763.89	2822.10
764.07	3024.85
764.24	2961.36
764.42	2947.03
764.60	2867.16
764.78	3033.04
764.96	3149.78
765.13	3069.91
765.31	2852.82
765.49	3059.67
765.67	2736.09
765.84	2863.06
766.02	2775.00
766.20	2631.64
766.38	3010.51
766.56	2944.98
766.73	2932.69
766.91	3002.32
767.09	2885.59
767.27	2965.46
767.44	2815.96
767.62	3041.23
767.80	3110.86
767.98	2772.95
768.15	2848.72
768.33	3080.14
768.51	3205.07
768.69	3037.14
768.87	2848.72
769.04	3033.04
769.22	3426.25
769.40	3006.42
769.58	3028.95
769.75	3026.90
769.93	3239.89
770.11	2848.72
770.28	2783.19
770.46	3026.90
770.64	3057.62
770.82	2873.30
770.99	2783.19
771.17	3059.67
771.35	2904.02
771.53	2879.44
771.70	2801.62
771.88	3096.53
772.06	2949.08
772.23	2775.00
772.41	2844.63
772.59	2971.60
772.77	2865.11
772.94	2846.68
773.12	2904.02
773.30	2928.60
773.47	2983.89
773.65	2852.82
773.83	3090.38
774.01	2957.27
774.18	2633.69
774.36	2826.20
774.54	2684.89
774.71	3008.47
774.89	2754.52
775.07	2744.28
775.24	2887.64
775.42	2889.68
775.60	3231.69
775.78	2789.33
775.95	2660.31
776.13	2762.71
776.31	2719.70
776.48	3049.43
776.66	3088.34
776.84	2867.16
777.01	2758.61
777.19	2760.66
777.37	2703.32
777.54	3139.54
777.72	3315.66
777.90	2981.84
778.07	2781.14
778.25	3614.66
778.43	3059.67
778.60	2850.77
778.78	3026.90
778.96	3243.98
779.13	2762.71
779.31	3033.04
779.49	2838.48
779.66	2977.75
779.84	2940.88
780.01	2789.33
780.19	2783.19
780.37	3127.25
780.54	3123.15
780.72	2688.98
780.90	2877.40
781.07	2879.44
781.25	2852.82
781.43	3084.24
781.60	2809.81
781.78	3186.64
781.95	3049.43
782.13	2785.24
782.31	2912.21
782.48	2668.50
782.66	2967.51
782.83	3170.26
783.01	2914.26
783.19	3151.82
783.36	2936.79
783.54	2713.56
783.72	2906.07
783.89	2951.12
784.07	2901.97
784.24	2973.65
784.42	3051.47
784.60	2873.30
784.77	2977.75
784.95	2701.27
785.12	2793.43
785.30	3010.51
785.47	2781.14
785.65	2775.00
785.83	2914.26
786.00	2971.60
786.18	2965.46
786.35	2764.76
786.53	2760.66
786.71	3141.58
786.88	3098.58
787.06	2916.31
787.23	2924.50
787.41	2826.20
787.58	2922.45
787.76	2770.90
787.94	2879.44
788.11	3059.67
788.29	2752.47
788.46	2832.34
788.64	2682.84
788.81	2926.55
788.99	2756.57
789.16	2883.54
789.34	2865.11
789.52	2832.34
789.69	2813.91
789.87	2701.27
790.04	2754.52
790.22	2983.89
790.39	3303.37
790.57	2750.42
790.74	2801.62
790.92	3151.82
791.09	2643.93
791.27	2883.54
791.44	2959.31
791.62	2947.03
791.79	3168.21
791.97	2891.73
792.15	3233.74
792.32	3100.62
792.50	3090.38
792.67	3010.51
792.85	3110.86
793.02	3018.71
793.20	2877.40
793.37	2717.65
793.55	2762.71
793.72	2717.65
793.90	3071.95
794.07	2848.72
794.25	2811.86
794.42	2928.60
794.60	2863.06
794.77	2949.08
794.95	3004.37
795.12	3239.89
795.30	2981.84
795.47	2617.30
795.65	3198.93
795.82	3063.76
796.00	2858.96
796.17	2871.25
796.34	2822.10
796.52	3059.67
796.69	3127.25
796.87	2938.84
797.04	2975.70
797.22	3141.58
797.39	3047.38
797.57	3014.61
797.74	2926.55
797.92	2977.75
798.09	2809.81
798.27	3129.30
798.44	2791.38
798.62	2852.82
798.79	2947.03
798.96	2873.30
799.14	2869.20
799.31	3356.62
799.49	2897.88
799.66	2789.33
799.84	2930.64
800.01	2738.13
800.19	3047.38
800.36	2666.46
800.53	2897.88
800.71	3067.86
800.88	3194.83
801.06	2824.15
801.23	2834.39
801.41	2947.03
801.58	2840.53
801.75	2830.29
801.93	2908.12
802.10	3131.34
802.28	2887.64
802.45	2947.03
802.63	2979.79
802.80	3291.09
802.97	2926.55
803.15	2922.45
803.32	2809.81
803.50	2813.91
803.67	2824.15
803.84	2897.88
804.02	2973.65
804.19	2899.92
804.37	2539.48
804.54	2725.85
804.71	2818.00
804.89	2932.69
805.06	2805.72
805.24	2863.06
805.41	2717.65
805.58	2852.82
805.76	3387.34
805.93	2809.81
806.10	3012.56
806.28	3074.00
806.45	2955.22
806.63	2897.88
806.80	2947.03
806.97	2987.99
807.15	3065.81
807.32	2996.18
807.49	2899.92
807.67	2723.80
807.84	2969.55
808.01	2740.18
808.19	3051.47
808.36	3327.95
808.54	2928.60
808.71	2861.01
808.88	2875.35
809.06	3196.88
809.23	3190.74
809.40	2820.05
809.58	2818.00
809.75	3020.75
809.92	2775.00
810.10	3162.06
810.27	2887.64
810.44	3037.14
810.62	3108.82
810.79	2953.17
810.96	2834.39
811.14	2914.26
811.31	2975.70
811.48	2947.03
811.66	2887.64
811.83	3160.02
812.00	3098.58
812.18	2930.64
812.35	3200.98
812.52	2985.94
812.69	2871.25
812.87	2852.82
813.04	2787.29
813.21	2865.11
813.39	2863.06
813.56	2785.24
813.73	3049.43
813.91	2641.88
814.08	2977.75
814.25	2885.59
814.42	2697.17
814.60	2832.34
814.77	2926.55
814.94	2815.96
815.12	2994.13
815.29	3233.74
815.46	2852.82
815.63	2842.58
815.81	2850.77
815.98	2987.99
816.15	2895.83
816.33	2942.93
816.50	2848.72
816.67	2983.89
816.84	2895.83
817.02	2723.80
817.19	2875.35
817.36	3071.95
817.53	3018.71
817.71	2746.33
817.88	2877.40
818.05	2934.74
818.22	2881.49
818.40	3108.82
818.57	2846.68
818.74	2955.22
818.91	2904.02
819.09	2994.13
819.26	3028.95
819.43	2920.40
819.60	2887.64
819.78	2983.89
819.95	2924.50
820.12	2856.92
820.29	3164.11
820.47	3014.61
820.64	2764.76
820.81	2781.14
820.98	2801.62
821.15	2777.05
821.33	2975.70
821.50	2645.98
821.67	3102.67
821.84	2838.48
822.02	2981.84
822.19	3102.67
822.36	2858.96
822.53	2844.63
822.70	2742.23
822.88	2938.84
823.05	3184.59
823.22	2955.22
823.39	2944.98
823.56	2885.59
823.74	3323.85
823.91	2725.85
824.08	2811.86
824.25	2803.67
824.42	3209.17
824.60	2750.42
824.77	3065.81
824.94	2953.17
825.11	3014.61
825.28	2729.94
825.45	3002.32
825.63	2985.94
825.80	2797.53
825.97	2961.36
826.14	2912.21
826.31	2738.13
826.48	3098.58
826.66	2844.63
826.83	2783.19
827.00	2889.68
827.17	2887.64
827.34	2818.00
827.51	2789.33
827.69	2944.98
827.86	2666.46
828.03	2846.68
828.20	2992.08
828.37	2926.55
828.54	3033.04
828.71	2818.00
828.89	2965.46
829.06	2971.60
829.23	3137.49
829.40	2772.95
829.57	2758.61
829.74	3094.48
829.91	2848.72
830.09	2815.96
830.26	3004.37
830.43	3207.12
830.60	2973.65
830.77	2924.50
830.94	3065.81
831.11	3086.29
831.28	2910.16
831.46	3006.42
831.63	2883.54
831.80	3137.49
831.97	2861.01
832.14	2854.87
832.31	2889.68
832.48	2998.23
832.65	3192.78
832.82	2934.74
832.99	2887.64
833.17	2838.48
833.34	3205.07
833.51	2844.63
833.68	2643.93
833.85	3203.02
834.02	2822.10
834.19	2848.72
834.36	2750.42
834.53	2985.94
834.70	3139.54
834.87	2914.26
835.04	2648.02
835.22	2904.02
835.39	2932.69
835.56	2717.65
835.73	2797.53
835.90	3131.34
836.07	2885.59
836.24	2969.55
836.41	2684.89
836.58	2813.91
836.75	3110.86
836.92	2795.48
837.09	2723.80
837.26	3065.81
837.43	3055.57
837.60	2797.53
837.77	2709.46
837.94	3123.15
838.12	3112.91
838.29	2627.54
838.46	2680.79
838.63	2746.33
838.80	3243.98
838.97	2777.05
839.14	2648.02
839.31	3014.61
839.48	3065.81
839.65	2758.61
839.82	2807.77
839.99	2987.99
840.16	3002.32
840.33	2623.45
840.50	2772.95
840.67	2869.20
840.84	2576.34
841.01	2705.37
841.18	2623.45
841.35	2977.75
841.52	3106.77
841.69	3020.75
841.86	2803.67
842.03	2928.60
842.20	3014.61
842.37	2787.29
842.54	2809.81
842.71	2940.88
842.88	2674.65
843.05	2760.66
843.22	2713.56
843.39	3119.06
843.56	2799.57
843.73	2789.33
843.90	2783.19
844.07	3006.42
844.24	3127.25
844.41	2820.05
844.58	2844.63
844.75	2940.88
844.92	2996.18
845.09	2781.14
845.26	2787.29
845.43	3071.95
845.60	2928.60
845.77	2869.20
845.94	2842.58
846.10	3112.91
846.27	2789.33
846.44	2613.21
846.61	2625.50
846.78	3160.02
846.95	3123.15
847.12	2688.98
847.29	2822.10
847.46	2834.39
847.63	3106.77
847.80	2570.20
847.97	2797.53
848.14	3409.87
848.31	2887.64
848.48	2652.12
848.65	2709.46
848.82	2875.35
848.98	3399.63
849.15	2926.55
849.32	2797.53
849.49	3123.15
849.66	2981.84
849.83	2707.41
850.00	2670.55
850.17	2983.89
850.34	2852.82
850.51	2707.41
850.68	2738.13
850.85	3325.90
851.01	3059.67
851.18	2775.00
851.35	2748.37
851.52	2998.23
851.69	3147.73
851.86	2691.03
852.03	2670.55
852.20	3092.43
852.37	2947.03
852.53	2568.15
852.70	2707.41
852.87	3018.71
853.04	3149.78
853.21	2703.32
853.38	2912.21
853.55	3207.12
853.72	3166.16
853.89	2666.46
854.05	2641.88
854.22	2863.06
854.39	2944.98
854.56	2672.60
854.73	2867.16
854.90	2785.24
855.07	2940.88
855.23	2654.17
855.40	2729.94
855.57	2932.69
855.74	2598.87
855.91	2850.77
856.08	2621.40
856.25	2779.09
856.41	2875.35
856.58	2738.13
856.75	2703.32
856.92	2760.66
857.09	3117.01
857.26	2578.39
857.42	2760.66
857.59	3108.82
857.76	2924.50
857.93	2682.84
858.10	2828.24
858.27	2775.00
858.43	2920.40
858.60	2666.46
858.77	2551.77
858.94	2846.68
859.11	3123.15
859.27	2752.47
859.44	2641.88
859.61	3368.91
859.78	3114.96
859.95	2703.32
860.12	2598.87
860.28	3409.87
860.45	3317.71
860.62	2643.93
860.79	2828.24
860.95	2854.87
861.12	2861.01
861.29	2643.93
861.46	2762.71
861.63	2926.55
861.79	2981.84
861.96	2627.54
862.13	2754.52
862.30	3198.93
862.47	2908.12
862.63	2645.98
862.80	2772.95
862.97	3145.68
863.14	2990.03
863.30	2813.91
863.47	2701.27
863.64	3254.22
863.81	2994.13
863.97	2652.12
864.14	2754.52
864.31	2889.68
864.48	2969.55
864.65	2709.46
864.81	2844.63
864.98	3053.52
865.15	3133.39
865.32	2744.28
865.48	2832.34
865.65	3291.09
865.82	2879.44
865.98	2885.59
866.15	2852.82
866.32	2959.31
866.49	2830.29
866.65	2826.20
866.82	2736.09
866.99	2963.41
867.16	2873.30
867.32	2697.17
867.49	2711.51
867.66	2865.11
867.83	2873.30
867.99	2613.21
868.16	2770.90
868.33	2766.81
868.49	2975.70
868.66	2707.41
868.83	2850.77
868.99	2936.79
869.16	2977.75
869.33	2834.39
869.50	2770.90
869.66	3078.10
869.83	2910.16
870.00	2596.82
870.16	2920.40
870.33	2865.11
870.50	3059.67
870.66	2795.48
870.83	2754.52
871.00	2891.73
871.17	3037.14
871.33	2815.96
871.50	2645.98
871.67	2998.23
871.83	2693.08
872.00	2893.78
872.17	2801.62
872.33	3168.21
872.50	3157.97
872.67	2775.00
872.83	2705.37
873.00	3012.56
873.17	2985.94
873.33	2881.49
873.50	2752.47
873.67	2881.49
873.83	2754.52
874.00	2723.80
874.16	2916.31
874.33	2985.94
874.50	2781.14
874.66	2633.69
874.83	2856.92
875.00	3184.59
875.16	3133.39
875.33	2840.53
875.50	2537.43
875.66	2854.87
875.83	2979.79
875.99	2832.34
876.16	2852.82
876.33	2836.44
876.49	2914.26
876.66	2820.05
876.83	2783.19
876.99	2762.71
877.16	2977.75
877.32	2775.00
877.49	2840.53
877.66	3012.56
877.82	3145.68
877.99	2803.67
878.15	2987.99
878.32	3033.04
878.49	2983.89
878.65	2785.24
878.82	3008.47
878.98	2822.10
879.15	3063.76
879.32	2881.49
879.48	2914.26
879.65	2869.20
879.81	2875.35
879.98	2758.61
880.15	2764.76
880.31	3137.49
880.48	2744.28
880.64	2875.35
880.81	2785.24
880.97	3233.74
881.14	3231.69
881.31	2715.61
881.47	2852.82
881.64	3008.47
881.80	2613.21
881.97	2873.30
882.13	2756.57
882.30	2830.29
882.47	2795.48
882.63	2723.80
882.80	2658.26
882.96	2856.92
883.13	3219.41
883.29	2703.32
883.46	2740.18
883.62	3356.62
883.79	2955.22
883.95	2914.26
884.12	2736.09
884.29	3053.52
884.45	2985.94
884.62	2691.03
884.78	2717.65
884.95	3264.46
885.11	2811.86
885.28	2815.96
885.44	2688.98
885.61	3090.38
885.77	3178.45
885.94	2916.31
886.10	2815.96
886.27	3004.37
886.43	3223.50
886.60	3045.33
886.76	2818.00
886.93	2822.10
887.09	3045.33
887.26	2654.17
887.42	2815.96
887.59	3110.86
887.75	3401.68
887.92	2963.41
888.08	2854.87
888.25	3315.66
888.41	3133.39
888.58	2863.06
888.74	2635.74
888.91	2828.24
>>>>>End Processed Spectral Data<<<<<
