SpectraSuite Data File
++++++++++++++++++++++++++++++++++++
Date: Thu May 05 21:11:03 CEST 2016
User: root
Dark Spectrum Present: No
Reference Spectrum Present: No
Number of Sampled Component Spectra: 1
Spectrometers: USB4C02835
Integration Time (usec): 100000 (USB4C02835)
Spectra Averaged: 1 (USB4C02835)
Boxcar Smoothing: 0 (USB4C02835)
Correct for Electrical Dark: No (USB4C02835)
Strobe/Lamp Enabled: No (USB4C02835)
Correct for Detector Non-linearity: No (USB4C02835)
Correct for Stray Light: No (USB4C02835)
Number of Pixels in Processed Spectrum: 3648
>>>>>Begin Processed Spectral Data<<<<<
177.47	2236.38
177.69	2236.38
177.91	2236.38
178.13	2146.27
178.36	2181.09
178.58	2725.85
178.80	2967.51
179.02	2727.89
179.24	2861.01
179.46	2564.06
179.68	2686.94
179.90	2955.22
180.13	3026.90
180.35	2531.29
180.57	2648.02
180.79	3094.48
181.01	2983.89
181.23	2740.18
181.45	2766.81
181.67	3067.86
181.90	2996.18
182.12	2707.41
182.34	2553.82
182.56	3188.69
182.78	3098.58
183.00	2713.56
183.22	2719.70
183.44	2707.41
183.66	3504.07
183.89	2791.38
184.11	2705.37
184.33	3082.19
184.55	3196.88
184.77	2758.61
184.99	2736.09
185.21	2824.15
185.43	3422.16
185.65	2643.93
185.87	2648.02
186.10	3364.81
186.32	3366.86
186.54	2801.62
186.76	2713.56
186.98	3168.21
187.20	2936.79
187.42	2691.03
187.64	2643.93
187.86	3037.14
188.08	3147.73
188.30	2631.64
188.52	2762.71
188.75	3170.26
188.97	3174.35
189.19	2607.06
189.41	2686.94
189.63	3045.33
189.85	2926.55
190.07	2602.97
190.29	2611.16
190.51	3094.48
190.73	2766.81
190.95	2858.96
191.17	2742.23
191.39	2754.52
191.61	3033.04
191.84	2727.89
192.06	2828.24
192.28	2691.03
192.50	3557.32
192.72	2811.86
192.94	2762.71
193.16	3217.36
193.38	3037.14
193.60	2574.30
193.82	2820.05
194.04	3094.48
194.26	3059.67
194.48	2742.23
194.70	2598.87
194.92	2914.26
195.14	3153.87
195.36	2680.79
195.58	2744.28
195.80	2992.08
196.02	2826.20
196.24	2639.83
196.46	2791.38
196.69	2963.41
196.91	3385.29
197.13	2605.02
197.35	2729.94
197.57	3274.70
197.79	3084.24
198.01	2703.32
198.23	2723.80
198.45	3125.20
198.67	2715.61
198.89	2598.87
199.11	2777.05
199.33	2846.68
199.55	2639.83
199.77	2699.22
199.99	2785.24
200.21	2838.48
200.43	3076.05
200.65	2516.95
200.87	2572.25
201.09	3059.67
201.31	2869.20
201.53	2748.37
201.75	2752.47
201.97	3051.47
202.19	3014.61
202.41	2781.14
202.63	2807.77
202.85	3061.71
203.07	3035.09
203.29	2779.09
203.51	2549.72
203.73	2824.15
203.95	3391.44
204.17	2678.74
204.39	2787.29
204.61	2977.75
204.83	2856.92
205.05	2877.40
205.27	2731.99
205.49	3379.15
205.71	2897.88
205.93	2607.06
206.15	2602.97
206.37	2969.55
206.59	2930.64
206.81	2514.91
207.03	2562.01
207.25	2869.20
207.47	3018.71
207.69	2660.31
207.91	2885.59
208.13	3194.83
208.34	2885.59
208.56	2656.22
208.78	2668.50
209.00	2908.12
209.22	2869.20
209.44	2652.12
209.66	2652.12
209.88	3026.90
210.10	2830.29
210.32	2613.21
210.54	2783.19
210.76	2971.60
210.98	3153.87
211.20	2498.52
211.42	2746.33
211.64	3225.55
211.86	3096.53
212.08	2809.81
212.30	2713.56
212.52	2938.84
212.74	3045.33
212.96	2758.61
213.17	2701.27
213.39	3129.30
213.61	3325.90
213.83	2645.98
214.05	2623.45
214.27	3162.06
214.49	2871.25
214.71	2639.83
214.93	2838.48
215.15	2967.51
215.37	3198.93
215.59	2527.19
215.81	2707.41
216.03	3176.40
216.24	2975.70
216.46	2688.98
216.68	2752.47
216.90	3086.29
217.12	3192.78
217.34	2664.41
217.56	2826.20
217.78	3166.16
218.00	3143.63
218.22	2783.19
218.44	2838.48
218.66	2977.75
218.87	3364.81
219.09	2731.99
219.31	2750.42
219.53	3063.76
219.75	2785.24
219.97	2707.41
220.19	2740.18
220.41	2926.55
220.63	3207.12
220.85	2713.56
221.06	2695.13
221.28	3188.69
221.50	3166.16
221.72	2721.75
221.94	2586.58
222.16	3033.04
222.38	3082.19
222.60	2648.02
222.82	2709.46
223.03	3076.05
223.25	2836.44
223.47	2623.45
223.69	2944.98
223.91	3092.43
224.13	3049.43
224.35	2621.40
224.57	2799.57
224.78	3125.20
225.00	2729.94
225.22	2691.03
225.44	2641.88
225.66	3092.43
225.88	2891.73
226.10	2826.20
226.32	2713.56
226.53	3231.69
226.75	2836.44
226.97	2781.14
227.19	2723.80
227.41	2895.83
227.63	2867.16
227.85	2525.15
228.06	2691.03
228.28	3020.75
228.50	3119.06
228.72	2621.40
228.94	2672.60
229.16	2660.31
229.37	2789.33
229.59	2631.64
229.81	2957.27
230.03	2983.89
230.25	2734.04
230.47	2580.44
230.69	2598.87
230.90	3180.50
231.12	2826.20
231.34	2764.76
231.56	2781.14
231.78	2746.33
232.00	2955.22
232.21	2658.26
232.43	2691.03
232.65	2637.78
232.87	3078.10
233.09	2564.06
233.30	2658.26
233.52	3221.45
233.74	2803.67
233.96	2586.58
234.18	2840.53
234.40	2856.92
234.61	3416.01
234.83	2580.44
235.05	2688.98
235.27	3499.98
235.49	3198.93
235.70	2523.10
235.92	2736.09
236.14	3147.73
236.36	3471.31
236.58	2582.49
236.79	2822.10
237.01	3045.33
237.23	2994.13
237.45	2885.59
237.67	2736.09
237.88	3084.24
238.10	3332.05
238.32	2602.97
238.54	2648.02
238.76	2901.97
238.97	2832.34
239.19	2557.91
239.41	2713.56
239.63	3188.69
239.85	2924.50
240.06	2744.28
240.28	2645.98
240.50	3198.93
240.72	2850.77
240.93	2648.02
241.15	2721.75
241.37	3020.75
241.59	3272.65
241.81	2656.22
242.02	2695.13
242.24	3096.53
242.46	3094.48
242.68	2498.52
242.89	2682.84
243.11	3180.50
243.33	3051.47
243.55	2738.13
243.76	2736.09
243.98	2893.78
244.20	3053.52
244.42	2711.51
244.64	2643.93
244.85	2818.00
245.07	2789.33
245.29	2639.83
245.51	2729.94
245.72	3035.09
245.94	3229.65
246.16	2648.02
246.38	2709.46
246.59	2912.21
246.81	2842.58
247.03	2623.45
247.24	2568.15
247.46	2895.83
247.68	3084.24
247.90	2658.26
248.11	2699.22
248.33	3141.58
248.55	3004.37
248.77	2656.22
248.98	2818.00
249.20	3215.31
249.42	3002.32
249.64	2654.17
249.85	2738.13
250.07	2844.63
250.29	3153.87
250.50	2729.94
250.72	2502.62
250.94	3018.71
251.16	3387.34
251.37	2656.22
251.59	2752.47
251.81	3055.57
252.02	3186.64
252.24	2662.36
252.46	2820.05
252.68	2863.06
252.89	2928.60
253.11	2594.78
253.33	2797.53
253.54	3221.45
253.76	2856.92
253.98	2729.94
254.20	2639.83
254.41	2781.14
254.63	3033.04
254.85	2559.96
255.06	2781.14
255.28	3078.10
255.50	2947.03
255.71	2586.58
255.93	2504.67
256.15	2848.72
256.36	3061.71
256.58	2582.49
256.80	2627.54
257.02	2951.12
257.23	2875.35
257.45	2736.09
257.67	2783.19
257.88	2813.91
258.10	3035.09
258.32	2738.13
258.53	2693.08
258.75	3196.88
258.97	2942.93
259.18	2564.06
259.40	2584.54
259.62	3256.27
259.83	3239.89
260.05	2766.81
260.27	3493.83
260.48	3168.21
260.70	2799.57
260.92	2611.16
261.13	2695.13
261.35	2983.89
261.57	3131.34
261.78	2652.12
262.00	2654.17
262.22	3108.82
262.43	2762.71
262.65	2781.14
262.86	2738.13
263.08	3475.40
263.30	2947.03
263.51	2465.75
263.73	2652.12
263.95	3215.31
264.16	2940.88
264.38	2535.39
264.60	2629.59
264.81	2965.46
265.03	3196.88
265.25	2965.46
265.46	2643.93
265.68	3149.78
265.89	3022.80
266.11	2562.01
266.33	2729.94
266.54	3252.17
266.76	3024.85
266.98	2818.00
267.19	2836.44
267.41	3192.78
267.62	3028.95
267.84	2488.28
268.06	2852.82
268.27	3045.33
268.49	3149.78
268.70	2701.27
268.92	2699.22
269.14	2895.83
269.35	2789.33
269.57	2731.99
269.79	2682.84
270.00	2895.83
270.22	3260.37
270.43	2580.44
270.65	2512.86
270.87	2992.08
271.08	3125.20
271.30	2815.96
271.51	2686.94
271.73	3098.58
271.95	3186.64
272.16	2670.55
272.38	2854.87
272.59	2947.03
272.81	3121.10
273.02	2623.45
273.24	2666.46
273.46	3157.97
273.67	2713.56
273.89	2539.48
274.10	2721.75
274.32	3127.25
274.54	3006.42
274.75	2746.33
274.97	2820.05
275.18	3112.91
275.40	3088.34
275.61	2764.76
275.83	2879.44
276.05	2813.91
276.26	2959.31
276.48	2801.62
276.69	2803.67
276.91	2801.62
277.12	3194.83
277.34	2820.05
277.55	2887.64
277.77	2983.89
277.99	2865.11
278.20	2805.72
278.42	2717.65
278.63	2881.49
278.85	2871.25
279.06	2750.42
279.28	2934.74
279.49	3192.78
279.71	3106.77
279.93	2842.58
280.14	2830.29
280.36	2832.34
280.57	3133.39
280.79	2926.55
281.00	2717.65
281.22	2858.96
281.43	3237.84
281.65	2586.58
281.86	2686.94
282.08	2990.03
282.29	3360.72
282.51	2680.79
282.73	2586.58
282.94	2783.19
283.16	3086.29
283.37	2891.73
283.59	2826.20
283.80	3082.19
284.02	3024.85
284.23	2910.16
284.45	2848.72
284.66	2854.87
284.88	2885.59
285.09	2801.62
285.31	2930.64
285.52	3059.67
285.74	2744.28
285.95	2940.88
286.17	2838.48
286.38	3192.78
286.60	2910.16
286.81	2820.05
287.03	2734.04
287.24	3010.51
287.46	3123.15
287.67	2861.01
287.89	3061.71
288.10	2938.84
288.32	2967.51
288.53	2979.79
288.75	2852.82
288.96	3174.35
289.18	2846.68
289.39	2789.33
289.61	2820.05
289.82	3387.34
290.04	3368.91
290.25	2725.85
290.47	2787.29
290.68	2936.79
290.90	3184.59
291.11	2615.26
291.33	2936.79
291.54	2764.76
291.76	2840.53
291.97	2975.70
292.18	2897.88
292.40	2914.26
292.61	2848.72
292.83	3016.66
293.04	2848.72
293.26	3041.23
293.47	3012.56
293.69	2717.65
293.90	2656.22
294.12	3246.03
294.33	3057.62
294.55	2910.16
294.76	2971.60
294.97	3135.44
295.19	3399.63
295.40	2752.47
295.62	2906.07
295.83	3166.16
296.05	2852.82
296.26	3010.51
296.48	2772.95
296.69	2918.36
296.90	2938.84
297.12	2940.88
297.33	2998.23
297.55	3000.27
297.76	3024.85
297.98	2885.59
298.19	2955.22
298.41	3055.57
298.62	2797.53
298.83	3002.32
299.05	2910.16
299.26	2949.08
299.48	2863.06
299.69	2871.25
299.90	2828.24
300.12	2854.87
300.33	3112.91
300.55	2775.00
300.76	2844.63
300.98	2795.48
301.19	3123.15
301.40	2828.24
301.62	2836.44
301.83	3065.81
302.05	2938.84
302.26	2781.14
302.47	2944.98
302.69	2756.57
302.90	2959.31
303.12	2602.97
303.33	2879.44
303.54	3405.77
303.76	2951.12
303.97	2777.05
304.19	2983.89
304.40	2865.11
304.61	3043.28
304.83	2938.84
305.04	2887.64
305.26	3117.01
305.47	2918.36
305.68	2793.43
305.90	2650.07
306.11	3135.44
306.33	2947.03
306.54	2648.02
306.75	2754.52
306.97	2705.37
307.18	2815.96
307.39	2783.19
307.61	2893.78
307.82	3012.56
308.04	3147.73
308.25	2695.13
308.46	2955.22
308.68	3014.61
308.89	3008.47
309.10	2949.08
309.32	2850.77
309.53	3035.09
309.74	3082.19
309.96	2781.14
310.17	2924.50
310.39	2916.31
310.60	3090.38
310.81	2918.36
311.03	2721.75
311.24	3174.35
311.45	2938.84
311.67	3094.48
311.88	2920.40
312.09	2883.54
312.31	2930.64
312.52	2752.47
312.73	2727.89
312.95	2719.70
313.16	2891.73
313.37	2938.84
313.59	2881.49
313.80	3069.91
314.01	3262.41
314.23	2756.57
314.44	2731.99
314.65	2719.70
314.87	2777.05
315.08	2852.82
315.29	2906.07
315.51	2828.24
315.72	2748.37
315.93	2906.07
316.15	2885.59
316.36	2914.26
316.57	2944.98
316.79	2781.14
317.00	2793.43
317.21	3117.01
317.43	2768.85
317.64	2867.16
317.85	2691.03
318.07	2791.38
318.28	2996.18
318.49	2856.92
318.70	2889.68
318.92	3100.62
319.13	3082.19
319.34	2957.27
319.56	2717.65
319.77	3069.91
319.98	3160.02
320.20	3000.27
320.41	2934.74
320.62	3114.96
320.83	2844.63
321.05	3020.75
321.26	2861.01
321.47	2983.89
321.69	3151.82
321.90	2697.17
322.11	2717.65
322.32	3108.82
322.54	3291.09
322.75	2801.62
322.96	3604.42
323.18	2709.46
323.39	2684.89
323.60	2703.32
323.81	2971.60
324.03	2961.36
324.24	3014.61
324.45	2879.44
324.66	2752.47
324.88	3186.64
325.09	3147.73
325.30	2906.07
325.52	2723.80
325.73	3016.66
325.94	2793.43
326.15	2600.92
326.37	2701.27
326.58	3168.21
326.79	3327.95
327.00	2750.42
327.22	2754.52
327.43	2914.26
327.64	2813.91
327.85	2947.03
328.07	2805.72
328.28	3274.70
328.49	2887.64
328.70	2738.13
328.92	2826.20
329.13	2961.36
329.34	3129.30
329.55	2985.94
329.76	3004.37
329.98	2828.24
330.19	3102.67
330.40	2805.72
330.61	2947.03
330.83	3069.91
331.04	2729.94
331.25	2961.36
331.46	2822.10
331.68	2811.86
331.89	3143.63
332.10	2881.49
332.31	2602.97
332.52	2996.18
332.74	3149.78
332.95	2656.22
333.16	2824.15
333.37	3133.39
333.58	2877.40
333.80	2852.82
334.01	2617.30
334.22	2846.68
334.43	2912.21
334.64	2742.23
334.86	2715.61
335.07	2838.48
335.28	3213.26
335.49	2731.99
335.70	2957.27
335.92	3176.40
336.13	3274.70
336.34	2873.30
336.55	2877.40
336.76	3043.28
336.98	2625.50
337.19	2830.29
337.40	2914.26
337.61	3475.40
337.82	2926.55
338.04	2955.22
338.25	2693.08
338.46	2922.45
338.67	3092.43
338.88	2699.22
339.09	2660.31
339.31	2938.84
339.52	2824.15
339.73	2746.33
339.94	2809.81
340.15	3084.24
340.36	2879.44
340.58	2861.01
340.79	2715.61
341.00	3153.87
341.21	2863.06
341.42	2940.88
341.63	2797.53
341.85	3030.99
342.06	3016.66
342.27	2746.33
342.48	3035.09
342.69	2779.09
342.90	2969.55
343.12	3082.19
343.33	2723.80
343.54	3168.21
343.75	3166.16
343.96	2856.92
344.17	2686.94
344.38	2971.60
344.60	2840.53
344.81	2768.85
345.02	2815.96
345.23	3213.26
345.44	3459.02
345.65	2865.11
345.86	2826.20
346.07	3090.38
346.29	2897.88
346.50	2979.79
346.71	2918.36
346.92	3178.45
347.13	3389.39
347.34	2863.06
347.55	2764.76
347.76	3086.29
347.98	2754.52
348.19	2787.29
348.40	2977.75
348.61	2944.98
348.82	3235.79
349.03	2828.24
349.24	2650.07
349.45	3389.39
349.66	2705.37
349.88	2764.76
350.09	2699.22
350.30	3264.46
350.51	3252.17
350.72	2928.60
350.93	2752.47
351.14	2906.07
351.35	3018.71
351.56	2846.68
351.77	2850.77
351.99	3067.86
352.20	3203.02
352.41	2977.75
352.62	2639.83
352.83	2858.96
353.04	2875.35
353.25	2754.52
353.46	2899.92
353.67	3172.30
353.88	2789.33
354.09	2799.57
354.30	2850.77
354.52	3112.91
354.73	2889.68
354.94	2805.72
355.15	2856.92
355.36	3299.28
355.57	2861.01
355.78	2787.29
355.99	2772.95
356.20	2971.60
356.41	3172.30
356.62	2856.92
356.83	2787.29
357.04	3211.22
357.25	2738.13
357.46	2801.62
357.68	2688.98
357.89	2854.87
358.10	2961.36
358.31	2738.13
358.52	2881.49
358.73	2717.65
358.94	2856.92
359.15	2781.14
359.36	2873.30
359.57	2994.13
359.78	2959.31
359.99	2996.18
360.20	2711.51
360.41	2928.60
360.62	2985.94
360.83	2861.01
361.04	2869.20
361.25	3000.27
361.46	3256.27
361.67	2899.92
361.88	2826.20
362.09	3143.63
362.30	3049.43
362.51	2783.19
362.72	2848.72
362.93	3176.40
363.14	3026.90
363.35	2869.20
363.56	2748.37
363.78	3127.25
363.99	3137.49
364.20	2824.15
364.41	2971.60
364.62	3323.85
364.83	3055.57
365.04	2791.38
365.25	2783.19
365.46	3364.81
365.67	2775.00
365.88	2858.96
366.09	2779.09
366.30	2873.30
366.51	2965.46
366.72	2766.81
366.93	2762.71
367.14	3026.90
367.35	3131.34
367.56	2746.33
367.77	2910.16
367.98	3010.51
368.18	3065.81
368.39	2922.45
368.60	2691.03
368.81	3151.82
369.02	3061.71
369.23	2801.62
369.44	2576.34
369.65	2873.30
369.86	2992.08
370.07	2975.70
370.28	2803.67
370.49	3045.33
370.70	3012.56
370.91	2717.65
371.12	2566.10
371.33	3174.35
371.54	2910.16
371.75	2985.94
371.96	2568.15
372.17	3004.37
372.38	2928.60
372.59	2840.53
372.80	2744.28
373.01	2959.31
373.22	3010.51
373.43	2803.67
373.64	2697.17
373.85	3164.11
374.06	3291.09
374.26	3061.71
374.47	2955.22
374.68	3266.51
374.89	3026.90
375.10	2727.89
375.31	2830.29
375.52	3043.28
375.73	2955.22
375.94	2680.79
376.15	2963.41
376.36	2867.16
376.57	2885.59
376.78	2865.11
376.99	2787.29
377.20	3217.36
377.40	2955.22
377.61	3024.85
377.82	2762.71
378.03	3239.89
378.24	3098.58
378.45	2858.96
378.66	2891.73
378.87	2754.52
379.08	2779.09
379.29	2795.48
379.50	2967.51
379.71	2893.78
379.91	3166.16
380.12	2775.00
380.33	2910.16
380.54	2994.13
380.75	2949.08
380.96	2787.29
381.17	2887.64
381.38	2973.65
381.59	2967.51
381.80	2844.63
382.00	2930.64
382.21	3059.67
382.42	3272.65
382.63	3086.29
382.84	2926.55
383.05	3203.02
383.26	3221.45
383.47	2877.40
383.68	2830.29
383.88	3090.38
384.09	3084.24
384.30	3026.90
384.51	2897.88
384.72	2899.92
384.93	2758.61
385.14	2871.25
385.35	3063.76
385.55	2807.77
385.76	3184.59
385.97	2856.92
386.18	2672.60
386.39	2858.96
386.60	2879.44
386.81	2818.00
387.02	2701.27
387.22	2742.23
387.43	3145.68
387.64	2914.26
387.85	3051.47
388.06	2971.60
388.27	4140.99
388.48	7196.56
388.68	10753.88
388.89	13473.59
389.10	14556.96
389.31	13903.66
389.52	11155.29
389.73	9744.24
389.93	8949.62
390.14	8015.75
390.35	7231.38
390.56	6748.06
390.77	5580.71
390.98	4396.99
391.18	3708.87
391.39	3405.77
391.60	3000.27
391.81	3117.01
392.02	2838.48
392.23	3416.01
392.43	3080.14
392.64	2992.08
392.85	2809.81
393.06	3252.17
393.27	2967.51
393.47	2875.35
393.68	2811.86
393.89	2977.75
394.10	3215.31
394.31	2725.85
394.52	2875.35
394.72	2840.53
394.93	3221.45
395.14	2703.32
395.35	2916.31
395.56	2842.58
395.76	2983.89
395.97	2793.43
396.18	2957.27
396.39	3014.61
396.60	3592.14
396.80	3182.54
397.01	2940.88
397.22	3241.93
397.43	3246.03
397.64	2824.15
397.84	2918.36
398.05	3344.33
398.26	2959.31
398.47	2938.84
398.67	3024.85
398.88	3069.91
399.09	3164.11
399.30	2783.19
399.51	2930.64
399.71	2836.44
399.92	2969.55
400.13	2967.51
400.34	2818.00
400.54	2928.60
400.75	3231.69
400.96	3002.32
401.17	3082.19
401.37	3065.81
401.58	2973.65
401.79	2842.58
402.00	2961.36
402.21	3479.50
402.41	3117.01
402.62	3086.29
402.83	3133.39
403.04	3373.00
403.24	3614.66
403.45	2926.55
403.66	3231.69
403.87	3196.88
404.07	3246.03
404.28	3098.58
404.49	3035.09
404.70	3104.72
404.90	3084.24
405.11	2865.11
405.32	2942.93
405.52	2983.89
405.73	2809.81
405.94	2729.94
406.15	2883.54
406.35	3172.30
406.56	3088.34
406.77	2922.45
406.98	2881.49
407.18	2881.49
407.39	3319.76
407.60	2897.88
407.80	2912.21
408.01	2875.35
408.22	3039.19
408.43	2752.47
408.63	2912.21
408.84	3114.96
409.05	3106.77
409.25	2762.71
409.46	2807.77
409.67	2881.49
409.88	2764.76
410.08	2873.30
410.29	2803.67
410.50	3168.21
410.70	3008.47
410.91	2674.65
411.12	2910.16
411.32	3014.61
411.53	2852.82
411.74	2850.77
411.95	2985.94
412.15	3045.33
412.36	3100.62
412.57	2985.94
412.77	3086.29
412.98	2940.88
413.19	2893.78
413.39	2852.82
413.60	2828.24
413.81	3176.40
414.01	2877.40
414.22	2899.92
414.43	3039.19
414.63	2938.84
414.84	3239.89
415.05	2834.39
415.25	2701.27
415.46	3110.86
415.67	2920.40
415.87	2895.83
416.08	2789.33
416.29	2918.36
416.49	3053.52
416.70	2895.83
416.91	2875.35
417.11	2957.27
417.32	3114.96
417.53	2949.08
417.73	2987.99
417.94	2981.84
418.15	3067.86
418.35	2920.40
418.56	2912.21
418.77	3434.44
418.97	3000.27
419.18	2983.89
419.38	2521.05
419.59	2963.41
419.80	3190.74
420.00	2807.77
420.21	2818.00
420.42	3200.98
420.62	3061.71
420.83	2820.05
421.04	2910.16
421.24	2951.12
421.45	3084.24
421.65	2842.58
421.86	2885.59
422.07	3102.67
422.27	3057.62
422.48	2758.61
422.69	2707.41
422.89	2961.36
423.10	2914.26
423.30	2783.19
423.51	2856.92
423.72	3069.91
423.92	3178.45
424.13	2699.22
424.33	2828.24
424.54	3104.72
424.75	2987.99
424.95	2985.94
425.16	2758.61
425.36	2942.93
425.57	3229.65
425.78	2942.93
425.98	2883.54
426.19	2971.60
426.39	2873.30
426.60	2926.55
426.81	3006.42
427.01	3080.14
427.22	2805.72
427.42	2670.55
427.63	2693.08
427.83	3127.25
428.04	3327.95
428.25	2873.30
428.45	2977.75
428.66	3200.98
428.86	2969.55
429.07	2897.88
429.28	2879.44
429.48	2955.22
429.69	2914.26
429.89	2930.64
430.10	2715.61
430.30	3119.06
430.51	3221.45
430.71	2781.14
430.92	2842.58
431.13	2865.11
431.33	3188.69
431.54	2973.65
431.74	3065.81
431.95	3319.76
432.15	2877.40
432.36	2848.72
432.56	2885.59
432.77	3264.46
432.98	3260.37
433.18	2848.72
433.39	2764.76
433.59	3012.56
433.80	3311.57
434.00	3069.91
434.21	2826.20
434.41	2838.48
434.62	3413.96
434.82	2787.29
435.03	2811.86
435.23	3094.48
435.44	2760.66
435.64	2852.82
435.85	2928.60
436.06	3172.30
436.26	3170.26
436.47	2844.63
436.67	2789.33
436.88	2930.64
437.08	3215.31
437.29	2973.65
437.49	2873.30
437.70	3282.89
437.90	2967.51
438.11	3010.51
438.31	2914.26
438.52	3192.78
438.72	3174.35
438.93	3137.49
439.13	2934.74
439.34	3137.49
439.54	2949.08
439.75	2949.08
439.95	2881.49
440.16	2928.60
440.36	2985.94
440.57	2848.72
440.77	2779.09
440.98	2949.08
441.18	3053.52
441.39	2729.94
441.59	2754.52
441.80	3293.13
442.00	2973.65
442.21	2938.84
442.41	2746.33
442.62	3147.73
442.82	2787.29
443.02	2854.87
443.23	2854.87
443.43	2992.08
443.64	3137.49
443.84	2748.37
444.05	2926.55
444.25	3012.56
444.46	2908.12
444.66	2781.14
444.87	3016.66
445.07	2785.24
445.28	2944.98
445.48	2994.13
445.69	2897.88
445.89	3381.20
446.09	2959.31
446.30	3123.15
446.50	3198.93
446.71	4655.03
446.91	5711.78
447.12	6549.40
447.32	6983.57
447.53	6807.45
447.73	5683.11
447.93	4982.71
448.14	4755.38
448.34	4892.60
448.55	4044.74
448.75	4016.07
448.96	3698.63
449.16	3571.66
449.36	3573.71
449.57	3108.82
449.77	2916.31
449.98	2822.10
450.18	2987.99
450.39	2811.86
450.59	3004.37
450.79	2901.97
451.00	2854.87
451.20	3012.56
451.41	2736.09
451.61	3102.67
451.81	2985.94
452.02	2746.33
452.22	2879.44
452.43	2850.77
452.63	2922.45
452.84	2949.08
453.04	2824.15
453.24	3024.85
453.45	2871.25
453.65	2863.06
453.86	2910.16
454.06	2983.89
454.26	2992.08
454.47	2781.14
454.67	3033.04
454.87	3092.43
455.08	2942.93
455.28	2955.22
455.49	2942.93
455.69	2811.86
455.89	3317.71
456.10	2926.55
456.30	2895.83
456.51	3100.62
456.71	2955.22
456.91	2975.70
457.12	2910.16
457.32	3055.57
457.52	2844.63
457.73	2940.88
457.93	3030.99
458.14	2942.93
458.34	2738.13
458.54	2828.24
458.75	2830.29
458.95	3129.30
459.15	3080.14
459.36	2850.77
459.56	2836.44
459.76	3282.89
459.97	2934.74
460.17	2871.25
460.37	2957.27
460.58	2971.60
460.78	3084.24
460.99	2863.06
461.19	2863.06
461.39	2951.12
461.60	2996.18
461.80	2922.45
462.00	2650.07
462.21	2973.65
462.41	2803.67
462.61	2764.76
462.82	2658.26
463.02	3026.90
463.22	3024.85
463.43	2926.55
463.63	2848.72
463.83	3237.84
464.04	3039.19
464.24	2951.12
464.44	2815.96
464.64	3016.66
464.85	3098.58
465.05	2957.27
465.25	2779.09
465.46	2863.06
465.66	2994.13
465.86	2944.98
466.07	2852.82
466.27	2967.51
466.47	2740.18
466.68	2566.10
466.88	3049.43
467.08	3053.52
467.29	3231.69
467.49	2781.14
467.69	2887.64
467.89	3035.09
468.10	2959.31
468.30	2942.93
468.50	2975.70
468.71	3127.25
468.91	2748.37
469.11	3035.09
469.31	2953.17
469.52	2842.58
469.72	3252.17
469.92	3030.99
470.13	2777.05
470.33	2985.94
470.53	2963.41
470.73	3276.75
470.94	3459.02
471.14	3672.01
471.34	4087.75
471.54	3823.56
471.75	3454.92
471.95	3319.76
472.15	3370.96
472.36	3350.48
472.56	3215.31
472.76	3432.40
472.96	3381.20
473.17	3067.86
473.37	3035.09
473.57	2938.84
473.77	3102.67
473.98	2863.06
474.18	2803.67
474.38	3575.75
474.58	2990.03
474.79	2756.57
474.99	3000.27
475.19	3233.74
475.39	2836.44
475.60	2955.22
475.80	2846.68
476.00	2977.75
476.20	2934.74
476.41	2951.12
476.61	2938.84
476.81	3231.69
477.01	2836.44
477.21	3080.14
477.42	2998.23
477.62	2785.24
477.82	3076.05
478.02	2772.95
478.23	2942.93
478.43	2797.53
478.63	2973.65
478.83	2844.63
479.03	2883.54
479.24	3284.94
479.44	3307.47
479.64	2775.00
479.84	2656.22
480.04	2840.53
480.25	3090.38
480.45	2721.75
480.65	2822.10
480.85	3278.80
481.06	2963.41
481.26	2899.92
481.46	2842.58
481.66	3061.71
481.86	2781.14
482.06	3006.42
482.27	2828.24
482.47	2930.64
482.67	3112.91
482.87	2881.49
483.07	2904.02
483.28	2897.88
483.48	2793.43
483.68	2899.92
483.88	2725.85
484.08	2674.65
484.29	2850.77
484.49	2979.79
484.69	2723.80
484.89	3239.89
485.09	3147.73
485.29	2858.96
485.50	2973.65
485.70	2875.35
485.90	3180.50
486.10	2987.99
486.30	2824.15
486.50	3200.98
486.71	2990.03
486.91	2944.98
487.11	2955.22
487.31	2768.85
487.51	3078.10
487.71	2846.68
487.91	2760.66
488.12	2797.53
488.32	2602.97
488.52	2899.92
488.72	2641.88
488.92	3016.66
489.12	3080.14
489.32	2924.50
489.53	2961.36
489.73	2662.36
489.93	3291.09
490.13	2854.87
490.33	2643.93
490.53	3026.90
490.73	3164.11
490.94	2691.03
491.14	2975.70
491.34	3092.43
491.54	3047.38
491.74	3721.16
491.94	4218.82
492.14	4808.63
492.34	4794.29
492.54	4349.89
492.75	3776.45
492.95	3862.47
493.15	3663.82
493.35	3397.58
493.55	3534.79
493.75	3411.92
493.95	3510.22
494.15	3149.78
494.35	2858.96
494.56	2944.98
494.76	2863.06
494.96	3008.47
495.16	2844.63
495.36	3010.51
495.56	3061.71
495.76	2942.93
495.96	2906.07
496.16	2871.25
496.36	3289.04
496.56	2818.00
496.77	2924.50
496.97	3037.14
497.17	3198.93
497.37	2660.31
497.57	2959.31
497.77	3110.86
497.97	2803.67
498.17	2916.31
498.37	2783.19
498.57	2981.84
498.77	2969.55
498.97	2951.12
499.17	3233.74
499.38	2967.51
499.58	3129.30
499.78	3026.90
499.98	3033.04
500.18	2967.51
500.38	2869.20
500.58	3024.85
500.78	3340.24
500.98	5420.97
501.18	7352.21
501.38	8896.38
501.58	9768.81
501.78	9688.94
501.98	8054.66
502.18	6870.94
502.38	5889.96
502.58	5646.25
502.78	5119.92
502.98	4851.64
503.18	4546.49
503.38	4425.66
503.59	3708.87
503.79	3717.06
503.99	3385.29
504.19	3409.87
504.39	3418.06
504.59	3342.28
504.79	3225.55
504.99	3477.45
505.19	3125.20
505.39	3028.95
505.59	3264.46
505.79	3250.13
505.99	3112.91
506.19	2914.26
506.39	3098.58
506.59	2840.53
506.79	2899.92
506.99	3074.00
507.19	2822.10
507.39	3102.67
507.59	2809.81
507.79	2844.63
507.99	2807.77
508.19	3002.32
508.39	2924.50
508.59	2844.63
508.79	3014.61
508.99	3268.56
509.19	2979.79
509.39	2955.22
509.59	2828.24
509.79	2801.62
509.99	3053.52
510.19	3080.14
510.39	2985.94
510.59	3080.14
510.79	2834.39
510.99	2709.46
511.19	2865.11
511.39	3227.60
511.59	3155.92
511.79	3014.61
511.99	2881.49
512.19	3248.08
512.38	2985.94
512.58	2818.00
512.78	2750.42
512.98	3219.41
513.18	3262.41
513.38	2715.61
513.58	2971.60
513.78	2938.84
513.98	2926.55
514.18	2815.96
514.38	2803.67
514.58	3053.52
514.78	2826.20
514.98	2762.71
515.18	2871.25
515.38	2772.95
515.58	3243.98
515.78	2748.37
515.98	2805.72
516.18	3155.92
516.38	2985.94
516.57	2793.43
516.77	2830.29
516.97	3108.82
517.17	2873.30
517.37	2613.21
517.57	2951.12
517.77	2901.97
517.97	2867.16
518.17	2910.16
518.37	2848.72
518.57	2881.49
518.77	2951.12
518.97	2813.91
519.16	2951.12
519.36	3153.87
519.56	2869.20
519.76	2838.48
519.96	2899.92
520.16	3231.69
520.36	2811.86
520.56	2953.17
520.76	2799.57
520.96	2955.22
521.16	3078.10
521.35	3049.43
521.55	3026.90
521.75	2889.68
521.95	2957.27
522.15	2797.53
522.35	2727.89
522.55	2895.83
522.75	3100.62
522.95	2801.62
523.14	2680.79
523.34	3114.96
523.54	2938.84
523.74	2971.60
523.94	2867.16
524.14	2756.57
524.34	3170.26
524.54	3117.01
524.73	2856.92
524.93	3170.26
525.13	2914.26
525.33	2828.24
525.53	3063.76
525.73	3153.87
525.93	2983.89
526.13	2785.24
526.32	2711.51
526.52	3149.78
526.72	3219.41
526.92	2891.73
527.12	2783.19
527.32	2754.52
527.52	2992.08
527.71	2906.07
527.91	2895.83
528.11	2930.64
528.31	2951.12
528.51	2889.68
528.71	2944.98
528.90	3108.82
529.10	3182.54
529.30	2914.26
529.50	2559.96
529.70	3080.14
529.90	2957.27
530.09	2867.16
530.29	2781.14
530.49	2779.09
530.69	3450.83
530.89	3000.27
531.09	2967.51
531.28	2953.17
531.48	3168.21
531.68	2901.97
531.88	2846.68
532.08	3221.45
532.28	2901.97
532.47	2940.88
532.67	2916.31
532.87	3065.81
533.07	2854.87
533.27	2918.36
533.46	2895.83
533.66	2961.36
533.86	2955.22
534.06	2875.35
534.26	2815.96
534.45	2955.22
534.65	3125.20
534.85	3016.66
535.05	2756.57
535.25	3192.78
535.44	2807.77
535.64	2848.72
535.84	2877.40
536.04	2881.49
536.24	2916.31
536.43	2787.29
536.63	2893.78
536.83	2987.99
537.03	2916.31
537.22	2727.89
537.42	2691.03
537.62	2981.84
537.82	2844.63
538.02	3033.04
538.21	3002.32
538.41	3563.47
538.61	3059.67
538.81	2891.73
539.00	2967.51
539.20	2713.56
539.40	2834.39
539.60	2865.11
539.79	3004.37
539.99	3012.56
540.19	2787.29
540.39	2797.53
540.58	2854.87
540.78	3182.54
540.98	2955.22
541.18	3078.10
541.37	2906.07
541.57	2994.13
541.77	3059.67
541.97	2770.90
542.16	2650.07
542.36	3016.66
542.56	2957.27
542.76	2987.99
542.95	2863.06
543.15	3035.09
543.35	3155.92
543.54	2881.49
543.74	2832.34
543.94	3190.74
544.14	2932.69
544.33	2932.69
544.53	2828.24
544.73	2955.22
544.93	2891.73
545.12	2869.20
545.32	2838.48
545.52	2916.31
545.71	2715.61
545.91	2758.61
546.11	2883.54
546.30	2820.05
546.50	3018.71
546.70	2940.88
546.90	2916.31
547.09	2684.89
547.29	2985.94
547.49	2959.31
547.68	2906.07
547.88	2942.93
548.08	3215.31
548.27	3151.82
548.47	2865.11
548.67	2863.06
548.87	3084.24
549.06	2809.81
549.26	2801.62
549.46	3096.53
549.65	2926.55
549.85	2824.15
550.05	2861.01
550.24	2797.53
550.44	2975.70
550.64	2924.50
550.83	2914.26
551.03	3108.82
551.23	3135.44
551.42	2854.87
551.62	2869.20
551.82	2979.79
552.01	2885.59
552.21	3026.90
552.41	2887.64
552.60	3284.94
552.80	2990.03
553.00	2832.34
553.19	2932.69
553.39	3309.52
553.59	2787.29
553.78	2957.27
553.98	2832.34
554.17	2838.48
554.37	3069.91
554.57	2932.69
554.76	2719.70
554.96	2936.79
555.16	3059.67
555.35	2869.20
555.55	3026.90
555.75	3008.47
555.94	3049.43
556.14	2668.50
556.33	2867.16
556.53	2940.88
556.73	3018.71
556.92	2908.12
557.12	2910.16
557.32	3401.68
557.51	3315.66
557.71	2899.92
557.90	2985.94
558.10	3225.55
558.30	2963.41
558.49	2770.90
558.69	2897.88
558.88	3172.30
559.08	3028.95
559.28	2869.20
559.47	2906.07
559.67	3112.91
559.86	3348.43
560.06	2805.72
560.26	2828.24
560.45	3121.10
560.65	2955.22
560.84	3139.54
561.04	2840.53
561.24	3033.04
561.43	2740.18
561.63	3076.05
561.82	2901.97
562.02	3190.74
562.22	2840.53
562.41	2707.41
562.61	2762.71
562.80	2828.24
563.00	3340.24
563.19	2891.73
563.39	2895.83
563.59	3209.17
563.78	2861.01
563.98	2674.65
564.17	2779.09
564.37	2717.65
564.56	2985.94
564.76	2807.77
564.96	2944.98
565.15	3047.38
565.35	3413.96
565.54	2852.82
565.74	2893.78
565.93	3078.10
566.13	2940.88
566.32	2953.17
566.52	2904.02
566.71	2955.22
566.91	3139.54
567.11	2889.68
567.30	2738.13
567.50	3108.82
567.69	3043.28
567.89	2766.81
568.08	2772.95
568.28	3102.67
568.47	2762.71
568.67	2826.20
568.86	2805.72
569.06	3100.62
569.25	2983.89
569.45	2781.14
569.64	2832.34
569.84	2916.31
570.04	3086.29
570.23	2828.24
570.43	2926.55
570.62	3039.19
570.82	3149.78
571.01	2705.37
571.21	2803.67
571.40	2791.38
571.60	3176.40
571.79	2893.78
571.99	2920.40
572.18	2828.24
572.38	3008.47
572.57	2789.33
572.77	2863.06
572.96	3448.78
573.16	2971.60
573.35	2873.30
573.55	3065.81
573.74	3084.24
573.94	2912.21
574.13	2875.35
574.33	3002.32
574.52	3151.82
574.71	2985.94
574.91	2996.18
575.10	2676.70
575.30	2889.68
575.49	2809.81
575.69	2793.43
575.88	2926.55
576.08	2928.60
576.27	3104.72
576.47	2703.32
576.66	2961.36
576.86	3170.26
577.05	3084.24
577.25	2865.11
577.44	3080.14
577.64	2910.16
577.83	3108.82
578.02	2871.25
578.22	3000.27
578.41	3305.42
578.61	2908.12
578.80	2725.85
579.00	2889.68
579.19	2942.93
579.39	3059.67
579.58	2940.88
579.77	3018.71
579.97	3096.53
580.16	3207.12
580.36	3016.66
580.55	2940.88
580.75	3051.47
580.94	3045.33
581.13	3096.53
581.33	3053.52
581.52	2977.75
581.72	3409.87
581.91	2979.79
582.11	2811.86
582.30	3137.49
582.49	3067.86
582.69	3135.44
582.88	2926.55
583.08	3000.27
583.27	3252.17
583.47	3012.56
583.66	2875.35
583.85	2926.55
584.05	2996.18
584.24	2977.75
584.44	2953.17
584.63	3217.36
584.82	3219.41
585.02	3102.67
585.21	2961.36
585.41	3121.10
585.60	3035.09
585.79	3071.95
585.99	3205.07
586.18	3000.27
586.37	3907.52
586.57	5797.80
586.76	16690.95
586.96	35786.21
587.15	48145.70
587.34	57068.70
587.54	61224.03
587.73	54287.56
587.93	38849.97
588.12	29851.19
588.31	24055.44
588.51	21204.67
588.70	19539.67
588.89	17346.30
589.09	14481.19
589.28	12687.17
589.47	9897.83
589.67	7440.27
589.86	5937.06
590.06	4655.03
590.25	4038.59
590.44	3510.22
590.64	3217.36
590.83	3272.65
591.02	3223.50
591.22	2926.55
591.41	2967.51
591.60	2887.64
591.80	3444.68
591.99	2805.72
592.18	2877.40
592.38	3145.68
592.57	2963.41
592.76	2994.13
592.96	2969.55
593.15	2922.45
593.34	3207.12
593.54	2828.24
593.73	2953.17
593.92	3088.34
594.12	3157.97
594.31	2961.36
594.50	3074.00
594.70	3160.02
594.89	3420.11
595.08	2738.13
595.28	2947.03
595.47	3571.66
595.66	3155.92
595.86	2775.00
596.05	2754.52
596.24	2936.79
596.43	3317.71
596.63	2912.21
596.82	3059.67
597.01	2992.08
597.21	3319.76
597.40	2891.73
597.59	2875.35
597.79	2983.89
597.98	3074.00
598.17	2934.74
598.36	2889.68
598.56	3190.74
598.75	3016.66
598.94	2871.25
599.14	2889.68
599.33	2947.03
599.52	3078.10
599.71	2922.45
599.91	2881.49
600.10	3119.06
600.29	3010.51
600.48	2977.75
600.68	2924.50
600.87	3020.75
601.06	2867.16
601.26	2967.51
601.45	2936.79
601.64	2975.70
601.83	3209.17
602.03	2811.86
602.22	2793.43
602.41	3157.97
602.60	3540.94
602.80	2885.59
602.99	2996.18
603.18	2955.22
603.37	3026.90
603.57	2867.16
603.76	2893.78
603.95	3188.69
604.14	2936.79
604.34	2705.37
604.53	2844.63
604.72	3022.80
604.91	3024.85
605.10	2836.44
605.30	2762.71
605.49	3352.52
605.68	3239.89
605.87	2901.97
606.07	2762.71
606.26	3045.33
606.45	3129.30
606.64	2883.54
606.84	2762.71
607.03	2994.13
607.22	3106.77
607.41	2936.79
607.60	2885.59
607.80	3207.12
607.99	2947.03
608.18	2867.16
608.37	2824.15
608.56	2893.78
608.76	3203.02
608.95	3000.27
609.14	2836.44
609.33	3243.98
609.52	3323.85
609.72	2979.79
609.91	2983.89
610.10	3033.04
610.29	3190.74
610.48	3016.66
610.68	2924.50
610.87	2942.93
611.06	3057.62
611.25	2928.60
611.44	2963.41
611.63	2922.45
611.83	3178.45
612.02	2740.18
612.21	3016.66
612.40	2631.64
612.59	2779.09
612.79	2779.09
612.98	2908.12
613.17	3260.37
613.36	2975.70
613.55	2971.60
613.74	2865.11
613.93	3002.32
614.13	3018.71
614.32	3012.56
614.51	2897.88
614.70	2955.22
614.89	2891.73
615.08	3014.61
615.28	3325.90
615.47	2762.71
615.66	3006.42
615.85	2930.64
616.04	2955.22
616.23	3016.66
616.42	2947.03
616.62	2953.17
616.81	2932.69
617.00	2951.12
617.19	3067.86
617.38	2875.35
617.57	2955.22
617.76	3145.68
617.95	3076.05
618.15	2959.31
618.34	3076.05
618.53	2762.71
618.72	3139.54
618.91	2979.79
619.10	2930.64
619.29	2940.88
619.48	2967.51
619.68	2758.61
619.87	2875.35
620.06	2748.37
620.25	3139.54
620.44	2787.29
620.63	2852.82
620.82	3028.95
621.01	2998.23
621.20	2863.06
621.39	2959.31
621.59	3096.53
621.78	2951.12
621.97	2842.58
622.16	2994.13
622.35	3065.81
622.54	3166.16
622.73	2936.79
622.92	2654.17
623.11	3094.48
623.30	2883.54
623.49	2987.99
623.68	2742.23
623.88	3180.50
624.07	2875.35
624.26	2846.68
624.45	2795.48
624.64	2889.68
624.83	3033.04
625.02	2797.53
625.21	2852.82
625.40	2979.79
625.59	3178.45
625.78	2916.31
625.97	2951.12
626.16	3149.78
626.35	3168.21
626.54	2832.34
626.74	3125.20
626.93	2920.40
627.12	2904.02
627.31	2971.60
627.50	2895.83
627.69	3127.25
627.88	2858.96
628.07	2797.53
628.26	2635.74
628.45	2877.40
628.64	2877.40
628.83	2922.45
629.02	2672.60
629.21	3078.10
629.40	3098.58
629.59	2758.61
629.78	2871.25
629.97	3014.61
630.16	3088.34
630.35	2795.48
630.54	2957.27
630.73	2895.83
630.92	2959.31
631.11	2799.57
631.30	2942.93
631.49	3170.26
631.68	2920.40
631.87	2908.12
632.06	2736.09
632.25	3284.94
632.44	2975.70
632.63	2844.63
632.82	2869.20
633.01	2889.68
633.20	3008.47
633.39	2838.48
633.58	2682.84
633.77	2977.75
633.96	3080.14
634.15	3006.42
634.34	2930.64
634.53	3071.95
634.72	2881.49
634.91	2615.26
635.10	2959.31
635.29	3090.38
635.48	3039.19
635.67	2719.70
635.86	2656.22
636.05	3235.79
636.24	2969.55
636.43	2873.30
636.62	2971.60
636.81	2570.20
637.00	2998.23
637.19	2885.59
637.38	2904.02
637.57	2920.40
637.76	2944.98
637.95	3033.04
638.14	2904.02
638.33	2967.51
638.52	2973.65
638.71	2731.99
638.89	2707.41
639.08	3467.21
639.27	3239.89
639.46	3125.20
639.65	3397.58
639.84	3276.75
640.03	3493.83
640.22	3211.22
640.41	3289.04
640.60	3024.85
640.79	3155.92
640.98	3020.75
641.17	3100.62
641.36	3139.54
641.55	3170.26
641.74	2697.17
641.92	2750.42
642.11	2815.96
642.30	2912.21
642.49	2795.48
642.68	2793.43
642.87	3071.95
643.06	3104.72
643.25	2750.42
643.44	2791.38
643.63	3006.42
643.82	3149.78
644.00	2822.10
644.19	2815.96
644.38	2768.85
644.57	3129.30
644.76	2813.91
644.95	2922.45
645.14	2965.46
645.33	2996.18
645.52	2979.79
645.71	2713.56
645.89	2779.09
646.08	2969.55
646.27	2830.29
646.46	3100.62
646.65	2750.42
646.84	3035.09
647.03	2826.20
647.22	3024.85
647.40	3028.95
647.59	2953.17
647.78	2684.89
647.97	2852.82
648.16	2811.86
648.35	3266.51
648.54	3074.00
648.73	2912.21
648.91	3125.20
649.10	2957.27
649.29	2834.39
649.48	2811.86
649.67	3055.57
649.86	2955.22
650.05	2863.06
650.23	3041.23
650.42	2883.54
650.61	3219.41
650.80	3039.19
650.99	3123.15
651.18	3139.54
651.36	3213.26
651.55	2850.77
651.74	3030.99
651.93	2969.55
652.12	2813.91
652.31	2887.64
652.49	2901.97
652.68	2930.64
652.87	3227.60
653.06	2936.79
653.25	3207.12
653.44	2998.23
653.62	3276.75
653.81	2809.81
654.00	2861.01
654.19	3086.29
654.38	3401.68
654.56	2899.92
654.75	2830.29
654.94	3172.30
655.13	3012.56
655.32	2818.00
655.51	3002.32
655.69	2920.40
655.88	3184.59
656.07	2772.95
656.26	2901.97
656.45	2799.57
656.63	3008.47
656.82	2875.35
657.01	3131.34
657.20	2820.05
657.38	3219.41
657.57	2822.10
657.76	2656.22
657.95	3121.10
658.14	2879.44
658.32	2897.88
658.51	2701.27
658.70	2983.89
658.89	3055.57
659.08	2934.74
659.26	3028.95
659.45	2746.33
659.64	3090.38
659.83	2807.77
660.01	3295.18
660.20	3012.56
660.39	3190.74
660.58	2609.11
660.76	2969.55
660.95	2783.19
661.14	2981.84
661.33	2680.79
661.51	2811.86
661.70	2856.92
661.89	3028.95
662.08	2889.68
662.26	2658.26
662.45	2815.96
662.64	3411.92
662.83	2932.69
663.01	2734.04
663.20	2856.92
663.39	3196.88
663.58	2863.06
663.76	2799.57
663.95	3035.09
664.14	2854.87
664.32	2914.26
664.51	2772.95
664.70	2650.07
664.89	3008.47
665.07	2781.14
665.26	3006.42
665.45	2691.03
665.64	3076.05
665.82	2809.81
666.01	2971.60
666.20	2742.23
666.38	3129.30
666.57	3147.73
666.76	4796.34
666.95	10909.53
667.13	17725.17
667.32	21182.14
667.51	24299.15
667.69	25306.75
667.88	21030.59
668.07	15396.63
668.25	12838.72
668.44	10999.64
668.63	9701.23
668.81	8621.95
669.00	7516.05
669.19	6651.80
669.38	5986.21
669.56	5013.43
669.75	4327.36
669.94	4014.02
670.12	3497.93
670.31	3178.45
670.50	3198.93
670.68	3243.98
670.87	3035.09
671.06	2879.44
671.24	2994.13
671.43	3246.03
671.62	3035.09
671.80	2893.78
671.99	2934.74
672.18	2973.65
672.36	3145.68
672.55	2969.55
672.74	2818.00
672.92	2940.88
673.11	3127.25
673.29	2731.99
673.48	3100.62
673.67	2906.07
673.85	3100.62
674.04	2775.00
674.23	2971.60
674.41	3276.75
674.60	2850.77
674.79	2664.41
674.97	2715.61
675.16	3084.24
675.34	3190.74
675.53	2820.05
675.72	2981.84
675.90	3352.52
676.09	2920.40
676.28	2940.88
676.46	2697.17
676.65	3112.91
676.83	2842.58
677.02	2834.39
677.21	2904.02
677.39	3069.91
677.58	2783.19
677.77	2836.44
677.95	2760.66
678.14	2987.99
678.32	2949.08
678.51	2856.92
678.70	3176.40
678.88	2772.95
679.07	3002.32
679.25	2875.35
679.44	2824.15
679.63	2797.53
679.81	3055.57
680.00	3053.52
680.18	3010.51
680.37	3243.98
680.55	3016.66
680.74	2727.89
680.93	2570.20
681.11	2998.23
681.30	2963.41
681.48	2869.20
681.67	2854.87
681.85	2987.99
682.04	2805.72
682.23	3065.81
682.41	2973.65
682.60	2863.06
682.78	2897.88
682.97	2758.61
683.15	2875.35
683.34	2961.36
683.53	3127.25
683.71	2740.18
683.90	3020.75
684.08	3223.50
684.27	3010.51
684.45	2949.08
684.64	3002.32
684.82	3026.90
685.01	3078.10
685.19	2885.59
685.38	3174.35
685.57	2938.84
685.75	2842.58
685.94	2838.48
686.12	2779.09
686.31	2926.55
686.49	3295.18
686.68	2695.13
686.86	2959.31
687.05	2918.36
687.23	3221.45
687.42	2787.29
687.60	2738.13
687.79	3196.88
687.97	3246.03
688.16	3004.37
688.34	3065.81
688.53	2684.89
688.71	3049.43
688.90	3141.58
689.08	2828.24
689.27	2717.65
689.45	3051.47
689.64	2983.89
689.82	2908.12
690.01	3045.33
690.19	3016.66
690.38	2912.21
690.56	3018.71
690.75	2838.48
690.93	2867.16
691.12	2705.37
691.30	2891.73
691.49	2932.69
691.67	3016.66
691.86	3217.36
692.04	2838.48
692.23	2893.78
692.41	3051.47
692.60	3223.50
692.78	3076.05
692.97	2924.50
693.15	3092.43
693.34	3112.91
693.52	3086.29
693.71	2916.31
693.89	2885.59
694.08	2629.59
694.26	2985.94
694.44	3049.43
694.63	3030.99
694.81	2709.46
695.00	2861.01
695.18	3243.98
695.37	3397.58
695.55	2975.70
695.74	2893.78
695.92	2881.49
696.10	3254.22
696.29	2748.37
696.47	2820.05
696.66	2744.28
696.84	2883.54
697.03	2961.36
697.21	3094.48
697.40	4442.04
697.58	3155.92
697.76	2877.40
697.95	2754.52
698.13	2801.62
698.32	2906.07
698.50	2840.53
698.68	2852.82
698.87	3078.10
699.05	3246.03
699.24	2895.83
699.42	2779.09
699.61	3043.28
699.79	3018.71
699.97	2895.83
700.16	2766.81
700.34	2799.57
700.53	3053.52
700.71	3104.72
700.89	3047.38
701.08	2863.06
701.26	2998.23
701.45	3243.98
701.63	2861.01
701.81	2912.21
702.00	2871.25
702.18	2971.60
702.37	2785.24
702.55	3149.78
702.73	2994.13
702.92	2852.82
703.10	3117.01
703.28	3147.73
703.47	2869.20
703.65	3071.95
703.84	2965.46
704.02	2856.92
704.20	3243.98
704.39	2799.57
704.57	2795.48
704.75	3108.82
704.94	3047.38
705.12	3024.85
705.30	3379.15
705.49	6580.12
705.67	12820.28
705.86	18038.51
706.04	20512.46
706.22	22757.03
706.41	22351.53
706.59	16951.04
706.77	13272.89
706.96	11407.19
707.14	10493.79
707.32	8996.73
707.51	8044.42
707.69	6477.73
707.87	5359.53
708.06	4444.09
708.24	3960.77
708.42	3594.19
708.61	3848.13
708.79	2965.46
708.97	3018.71
709.16	3106.77
709.34	2922.45
709.52	2797.53
709.71	2785.24
709.89	3067.86
710.07	2807.77
710.26	2748.37
710.44	2858.96
710.62	3151.82
710.80	2953.17
710.99	3016.66
711.17	3047.38
711.35	2893.78
711.54	2947.03
711.72	3119.06
711.90	2959.31
712.09	3010.51
712.27	2908.12
712.45	3024.85
712.63	2820.05
712.82	3051.47
713.00	2975.70
713.18	3088.34
713.37	2996.18
713.55	3139.54
713.73	3051.47
713.91	2893.78
714.10	2897.88
714.28	2951.12
714.46	3028.95
714.65	2994.13
714.83	2895.83
715.01	3022.80
715.19	3037.14
715.38	2815.96
715.56	2992.08
715.74	2867.16
715.92	2787.29
716.11	3164.11
716.29	2568.15
716.47	3067.86
716.65	2932.69
716.84	2736.09
717.02	2987.99
717.20	2754.52
717.38	2942.93
717.57	2994.13
717.75	2926.55
717.93	2875.35
718.11	3039.19
718.30	2740.18
718.48	2914.26
718.66	3110.86
718.84	3125.20
719.03	2848.72
719.21	2729.94
719.39	3346.38
719.57	3110.86
719.75	2951.12
719.94	2834.39
720.12	2979.79
720.30	3035.09
720.48	2938.84
720.67	2861.01
720.85	2768.85
721.03	2930.64
721.21	2861.01
721.39	2949.08
721.58	3082.19
721.76	3014.61
721.94	2901.97
722.12	3035.09
722.30	3264.46
722.49	2924.50
722.67	2852.82
722.85	2852.82
723.03	2693.08
723.21	2828.24
723.40	2875.35
723.58	3041.23
723.76	3078.10
723.94	3194.83
724.12	2897.88
724.30	3080.14
724.49	3168.21
724.67	2809.81
724.85	2996.18
725.03	2725.85
725.21	3033.04
725.40	3182.54
725.58	2791.38
725.76	3108.82
725.94	3043.28
726.12	2834.39
726.30	2953.17
726.49	2901.97
726.67	2875.35
726.85	3127.25
727.03	3428.30
727.21	4483.00
727.39	5550.00
727.57	5789.61
727.76	6143.91
727.94	6352.80
728.12	5486.51
728.30	4775.86
728.48	4511.68
728.66	4138.94
728.84	3819.46
729.03	3629.00
729.21	3332.05
729.39	3225.55
729.57	3012.56
729.75	3067.86
729.93	2957.27
730.11	2781.14
730.30	2887.64
730.48	2865.11
730.66	2985.94
730.84	2936.79
731.02	3016.66
731.20	2947.03
731.38	2955.22
731.56	2795.48
731.74	2752.47
731.93	3041.23
732.11	2856.92
732.29	2844.63
732.47	3147.73
732.65	2957.27
732.83	3063.76
733.01	2996.18
733.19	2891.73
733.37	3131.34
733.56	2924.50
733.74	2834.39
733.92	3209.17
734.10	2852.82
734.28	2924.50
734.46	2697.17
734.64	2897.88
734.82	2973.65
735.00	2762.71
735.18	2789.33
735.36	2944.98
735.54	2955.22
735.73	2899.92
735.91	3010.51
736.09	3286.99
736.27	2965.46
736.45	2963.41
736.63	2691.03
736.81	2957.27
736.99	3196.88
737.17	3119.06
737.35	2883.54
737.53	3037.14
737.71	2908.12
737.89	3049.43
738.07	2787.29
738.25	2869.20
738.43	2731.99
738.61	2883.54
738.80	2676.70
738.98	2764.76
739.16	2830.29
739.34	2842.58
739.52	3110.86
739.70	2904.02
739.88	3110.86
740.06	3094.48
740.24	2643.93
740.42	3137.49
740.60	2682.84
740.78	2873.30
740.96	2668.50
741.14	2942.93
741.32	2951.12
741.50	2715.61
741.68	3203.02
741.86	3112.91
742.04	2781.14
742.22	2723.80
742.40	2858.96
742.58	3104.72
742.76	2912.21
742.94	2994.13
743.12	2617.30
743.30	3014.61
743.48	3059.67
743.66	2785.24
743.84	2910.16
744.02	2957.27
744.20	2981.84
744.38	2826.20
744.56	2824.15
744.74	3338.19
744.92	3153.87
745.10	3141.58
745.28	2901.97
745.46	3291.09
745.64	2889.68
745.82	2971.60
746.00	2811.86
746.18	2977.75
746.36	2813.91
746.54	2865.11
746.72	2924.50
746.90	2828.24
747.08	3131.34
747.26	2901.97
747.44	3008.47
747.62	3057.62
747.80	2963.41
747.98	3008.47
748.15	2981.84
748.33	3289.04
748.51	2934.74
748.69	3012.56
748.87	2713.56
749.05	2940.88
749.23	2924.50
749.41	2824.15
749.59	2875.35
749.77	3114.96
749.95	2957.27
750.13	2818.00
750.31	2957.27
750.49	2934.74
750.67	3166.16
750.85	3055.57
751.03	2865.11
751.20	3399.63
751.38	2901.97
751.56	2854.87
751.74	2885.59
751.92	2981.84
752.10	2805.72
752.28	2932.69
752.46	2852.82
752.64	2940.88
752.82	2951.12
753.00	3020.75
753.18	2813.91
753.35	2916.31
753.53	2891.73
753.71	2846.68
753.89	2926.55
754.07	3061.71
754.25	3069.91
754.43	2926.55
754.61	2715.61
754.79	3092.43
754.97	2906.07
755.14	3051.47
755.32	2740.18
755.50	2920.40
755.68	2985.94
755.86	2826.20
756.04	2824.15
756.22	2645.98
756.40	3114.96
756.57	3133.39
756.75	2885.59
756.93	3180.50
757.11	3125.20
757.29	2686.94
757.47	2736.09
757.65	2756.57
757.82	2629.59
758.00	2676.70
758.18	2789.33
758.36	2879.44
758.54	3266.51
758.72	2707.41
758.90	2959.31
759.07	3069.91
759.25	2785.24
759.43	2889.68
759.61	2809.81
759.79	4186.05
759.97	3178.45
760.15	2852.82
760.32	2897.88
760.50	3028.95
760.68	3233.74
760.86	2785.24
761.04	3016.66
761.22	3221.45
761.39	2977.75
761.57	2998.23
761.75	2930.64
761.93	3135.44
762.11	3014.61
762.28	2928.60
762.46	2844.63
762.64	3217.36
762.82	2740.18
763.00	2895.83
763.18	3053.52
763.35	2795.48
763.53	3086.29
763.71	2865.11
763.89	2779.09
764.07	2959.31
764.24	3037.14
764.42	3008.47
764.60	2912.21
764.78	3108.82
764.96	3129.30
765.13	3033.04
765.31	2801.62
765.49	3129.30
765.67	2760.66
765.84	2828.24
766.02	2738.13
766.20	2729.94
766.38	3008.47
766.56	2924.50
766.73	3067.86
766.91	2992.08
767.09	2985.94
767.27	2940.88
767.44	2783.19
767.62	3106.77
767.80	3033.04
767.98	2725.85
768.15	2865.11
768.33	3067.86
768.51	3117.01
768.69	2949.08
768.87	2818.00
769.04	2985.94
769.22	3391.44
769.40	3092.43
769.58	3049.43
769.75	2938.84
769.93	3192.78
770.11	2881.49
770.28	2787.29
770.46	3110.86
770.64	3018.71
770.82	2953.17
770.99	2828.24
771.17	3157.97
771.35	2932.69
771.53	2871.25
771.70	2809.81
771.88	3069.91
772.06	2949.08
772.23	2785.24
772.41	2873.30
772.59	2955.22
772.77	2805.72
772.94	2850.77
773.12	2924.50
773.30	2963.41
773.47	3018.71
773.65	2809.81
773.83	3078.10
774.01	2961.36
774.18	2725.85
774.36	2897.88
774.54	2734.04
774.71	3059.67
774.89	2744.28
775.07	2791.38
775.24	2869.20
775.42	2863.06
775.60	3182.54
775.78	2746.33
775.95	2809.81
776.13	2777.05
776.31	2713.56
776.48	3002.32
776.66	3151.82
776.84	2873.30
777.01	2820.05
777.19	2832.34
777.37	2779.09
777.54	3102.67
777.72	3358.67
777.90	3041.23
778.07	2795.48
778.25	3508.17
778.43	3172.30
778.60	2770.90
778.78	2891.73
778.96	3200.98
779.13	2764.76
779.31	3020.75
779.49	2881.49
779.66	3004.37
779.84	2985.94
780.01	2899.92
780.19	2783.19
780.37	3217.36
780.54	3041.23
780.72	2721.75
780.90	2899.92
781.07	2924.50
781.25	2891.73
781.43	3026.90
781.60	2775.00
781.78	3135.44
781.95	2926.55
782.13	2856.92
782.31	2856.92
782.48	2631.64
782.66	2938.84
782.83	3112.91
783.01	3010.51
783.19	3178.45
783.36	2908.12
783.54	2777.05
783.72	2971.60
783.89	2877.40
784.07	3020.75
784.24	2891.73
784.42	3049.43
784.60	3020.75
784.77	3063.76
784.95	2631.64
785.12	2830.29
785.30	3055.57
785.47	2832.34
785.65	2717.65
785.83	2873.30
786.00	2932.69
786.18	2953.17
786.35	2836.44
786.53	2832.34
786.71	3160.02
786.88	3053.52
787.06	2865.11
787.23	2944.98
787.41	2768.85
787.58	3002.32
787.76	2801.62
787.94	2891.73
788.11	2977.75
788.29	2803.67
788.46	2805.72
788.64	2705.37
788.81	2885.59
788.99	2799.57
789.16	2783.19
789.34	2924.50
789.52	2895.83
789.69	2881.49
789.87	2613.21
790.04	2873.30
790.22	2983.89
790.39	3256.27
790.57	2854.87
790.74	2805.72
790.92	3139.54
791.09	2695.13
791.27	2942.93
791.44	2977.75
791.62	2891.73
791.79	3155.92
791.97	2887.64
792.15	3203.02
792.32	3084.24
792.50	3123.15
792.67	3071.95
792.85	3127.25
793.02	3014.61
793.20	2953.17
793.37	2633.69
793.55	2858.96
793.72	2705.37
793.90	3063.76
794.07	2824.15
794.25	2645.98
794.42	2985.94
794.60	2887.64
794.77	2887.64
794.95	3045.33
795.12	3094.48
795.30	2951.12
795.47	2668.50
795.65	3198.93
795.82	2985.94
796.00	2885.59
796.17	2869.20
796.34	2768.85
796.52	2979.79
796.69	3141.58
796.87	2994.13
797.04	2953.17
797.22	3178.45
797.39	2963.41
797.57	2975.70
797.74	2850.77
797.92	2975.70
798.09	2926.55
798.27	3131.34
798.44	2832.34
798.62	2850.77
798.79	2985.94
798.96	2973.65
799.14	2895.83
799.31	3465.16
799.49	2951.12
799.66	2885.59
799.84	2887.64
800.01	2785.24
800.19	3057.62
800.36	2738.13
800.53	2983.89
800.71	3043.28
800.88	3284.94
801.06	2805.72
801.23	2858.96
801.41	2942.93
801.58	2826.20
801.75	2879.44
801.93	2832.34
802.10	3133.39
802.28	2963.41
802.45	2828.24
802.63	2944.98
802.80	3166.16
802.97	2809.81
803.15	2926.55
803.32	2899.92
803.50	2815.96
803.67	2893.78
803.84	2775.00
804.02	2828.24
804.19	2934.74
804.37	2627.54
804.54	2742.23
804.71	2838.48
804.89	2998.23
805.06	2834.39
805.24	2869.20
805.41	2723.80
805.58	2797.53
805.76	3463.12
805.93	2803.67
806.10	2987.99
806.28	3078.10
806.45	3024.85
806.63	2963.41
806.80	3012.56
806.97	2971.60
807.15	3020.75
807.32	2955.22
807.49	2889.68
807.67	2715.61
807.84	3076.05
808.01	2699.22
808.19	3086.29
808.36	3358.67
808.54	2838.48
808.71	2803.67
808.88	2811.86
809.06	3184.59
809.23	3256.27
809.40	2844.63
809.58	2842.58
809.75	2879.44
809.92	2693.08
810.10	3192.78
810.27	2779.09
810.44	2977.75
810.62	3071.95
810.79	2871.25
810.96	2789.33
811.14	2922.45
811.31	3117.01
811.48	3043.28
811.66	2891.73
811.83	3149.78
812.00	3104.72
812.18	2879.44
812.35	3192.78
812.52	2832.34
812.69	2959.31
812.87	2795.48
813.04	2852.82
813.21	2871.25
813.39	2840.53
813.56	2781.14
813.73	3110.86
813.91	2752.47
814.08	2959.31
814.25	2934.74
814.42	2756.57
814.60	2967.51
814.77	2944.98
814.94	2799.57
815.12	2887.64
815.29	3297.23
815.46	2863.06
815.63	2936.79
815.81	2772.95
815.98	2961.36
816.15	2975.70
816.33	2865.11
816.50	2858.96
816.67	2959.31
816.84	2934.74
817.02	2844.63
817.19	2865.11
817.36	2992.08
817.53	3037.14
817.71	2727.89
817.88	2918.36
818.05	2967.51
818.22	2846.68
818.40	3092.43
818.57	2834.39
818.74	3016.66
818.91	2932.69
819.09	2975.70
819.26	2901.97
819.43	2897.88
819.60	2807.77
819.78	2992.08
819.95	2975.70
820.12	2711.51
820.29	3303.37
820.47	3069.91
820.64	2766.81
820.81	2820.05
820.98	2813.91
821.15	2799.57
821.33	2994.13
821.50	2678.74
821.67	3108.82
821.84	2830.29
822.02	2889.68
822.19	3112.91
822.36	2875.35
822.53	2856.92
822.70	2760.66
822.88	2891.73
823.05	3272.65
823.22	2975.70
823.39	2901.97
823.56	2963.41
823.74	3256.27
823.91	2797.53
824.08	2744.28
824.25	2846.68
824.42	3258.32
824.60	2762.71
824.77	2881.49
824.94	2992.08
825.11	3049.43
825.28	2727.89
825.45	2973.65
825.63	2961.36
825.80	2826.20
825.97	2926.55
826.14	2899.92
826.31	2725.85
826.48	3022.80
826.66	2772.95
826.83	2801.62
827.00	2885.59
827.17	2906.07
827.34	2901.97
827.51	2748.37
827.69	2918.36
827.86	2717.65
828.03	2871.25
828.20	2879.44
828.37	2869.20
828.54	3033.04
828.71	2793.43
828.89	2953.17
829.06	2979.79
829.23	3182.54
829.40	2893.78
829.57	2803.67
829.74	3104.72
829.91	2828.24
830.09	2842.58
830.26	2985.94
830.43	3246.03
830.60	2916.31
830.77	2963.41
830.94	3024.85
831.11	3145.68
831.28	2901.97
831.46	3053.52
831.63	2758.61
831.80	3043.28
831.97	2842.58
832.14	2801.62
832.31	3020.75
832.48	2981.84
832.65	3151.82
832.82	2897.88
832.99	2910.16
833.17	2799.57
833.34	3194.83
833.51	2752.47
833.68	2623.45
833.85	3074.00
834.02	2883.54
834.19	2785.24
834.36	2828.24
834.53	3030.99
834.70	3092.43
834.87	2920.40
835.04	2637.78
835.22	2893.78
835.39	2936.79
835.56	2787.29
835.73	2727.89
835.90	3059.67
836.07	2834.39
836.24	2910.16
836.41	2742.23
836.58	2881.49
836.75	3108.82
836.92	2709.46
837.09	2734.04
837.26	3135.44
837.43	3076.05
837.60	2777.05
837.77	2731.99
837.94	3067.86
838.12	3200.98
838.29	2701.27
838.46	2627.54
838.63	2801.62
838.80	3274.70
838.97	2764.76
839.14	2697.17
839.31	2918.36
839.48	3026.90
839.65	2791.38
839.82	2830.29
839.99	3012.56
840.16	3026.90
840.33	2639.83
840.50	2783.19
840.67	2850.77
840.84	2594.78
841.01	2738.13
841.18	2674.65
841.35	2963.41
841.52	3131.34
841.69	3100.62
841.86	2701.27
842.03	2940.88
842.20	3108.82
842.37	2666.46
842.54	2795.48
842.71	2961.36
842.88	2770.90
843.05	2736.09
843.22	2744.28
843.39	3135.44
843.56	2877.40
843.73	2654.17
843.90	2725.85
844.07	2936.79
844.24	3067.86
844.41	2840.53
844.58	2688.98
844.75	2961.36
844.92	3018.71
845.09	2758.61
845.26	2715.61
845.43	3114.96
845.60	2875.35
845.77	2842.58
845.94	2861.01
846.10	3162.06
846.27	2731.99
846.44	2703.32
846.61	2607.06
846.78	3063.76
846.95	3102.67
847.12	2695.13
847.29	2707.41
847.46	2832.34
847.63	3086.29
847.80	2731.99
847.97	2805.72
848.14	3459.02
848.31	2899.92
848.48	2553.82
848.65	2770.90
848.82	2877.40
848.98	3422.16
849.15	2830.29
849.32	2926.55
849.49	3026.90
849.66	2965.46
849.83	2668.50
850.00	2686.94
850.17	3074.00
850.34	2914.26
850.51	2729.94
850.68	2779.09
850.85	3362.76
851.01	3059.67
851.18	2686.94
851.35	2731.99
851.52	3024.85
851.69	3268.56
851.86	2695.13
852.03	2625.50
852.20	3078.10
852.37	2875.35
852.53	2592.73
852.70	2693.08
852.87	3035.09
853.04	3155.92
853.21	2711.51
853.38	2992.08
853.55	3149.78
853.72	3186.64
853.89	2652.12
854.05	2731.99
854.22	3020.75
854.39	2912.21
854.56	2701.27
854.73	2901.97
854.90	2869.20
855.07	2885.59
855.23	2641.88
855.40	2738.13
855.57	2967.51
855.74	2686.94
855.91	2908.12
856.08	2557.91
856.25	2717.65
856.41	2936.79
856.58	2719.70
856.75	2703.32
856.92	2744.28
857.09	3174.35
857.26	2584.54
857.42	2760.66
857.59	3061.71
857.76	2994.13
857.93	2754.52
858.10	2783.19
858.27	2805.72
858.43	2975.70
858.60	2742.23
858.77	2639.83
858.94	2842.58
859.11	3043.28
859.27	2764.76
859.44	2611.16
859.61	3405.77
859.78	3205.07
859.95	2734.04
860.12	2711.51
860.28	3364.81
860.45	3416.01
860.62	2740.18
860.79	2822.10
860.95	2904.02
861.12	2848.72
861.29	2650.07
861.46	2658.26
861.63	2912.21
861.79	2983.89
861.96	2619.35
862.13	2699.22
862.30	3139.54
862.47	2916.31
862.63	2664.41
862.80	2834.39
862.97	3188.69
863.14	2967.51
863.30	2713.56
863.47	2633.69
863.64	3205.07
863.81	2965.46
863.97	2686.94
864.14	2748.37
864.31	2873.30
864.48	3000.27
864.65	2686.94
864.81	2813.91
864.98	3067.86
865.15	3129.30
865.32	2797.53
865.48	2893.78
865.65	3229.65
865.82	2858.96
865.98	2830.29
866.15	2744.28
866.32	2963.41
866.49	2883.54
866.65	2879.44
866.82	2709.46
866.99	3020.75
867.16	2850.77
867.32	2697.17
867.49	2656.22
867.66	2871.25
867.83	2869.20
867.99	2701.27
868.16	2709.46
868.33	2680.79
868.49	2967.51
868.66	2795.48
868.83	2826.20
868.99	3041.23
869.16	2961.36
869.33	2809.81
869.50	2684.89
869.66	2957.27
869.83	3004.37
870.00	2676.70
870.16	2897.88
870.33	2975.70
870.50	3057.62
870.66	2795.48
870.83	2779.09
871.00	2908.12
871.17	3078.10
871.33	2742.23
871.50	2736.09
871.67	2920.40
871.83	2895.83
872.00	2871.25
872.17	2697.17
872.33	3340.24
872.50	3098.58
872.67	2713.56
872.83	2721.75
873.00	3024.85
873.17	2893.78
873.33	2820.05
873.50	2797.53
873.67	2842.58
873.83	2766.81
874.00	2748.37
874.16	2836.44
874.33	2983.89
874.50	2758.61
874.66	2795.48
874.83	2836.44
875.00	3203.02
875.16	3129.30
875.33	2793.43
875.50	2514.91
875.66	2887.64
875.83	3000.27
875.99	2828.24
876.16	2799.57
876.33	2748.37
876.49	2961.36
876.66	2731.99
876.83	2760.66
876.99	2787.29
877.16	2951.12
877.32	2664.41
877.49	2772.95
877.66	2998.23
877.82	3153.87
877.99	2754.52
878.15	2990.03
878.32	2971.60
878.49	2953.17
878.65	2748.37
878.82	3067.86
878.98	2951.12
879.15	3086.29
879.32	2924.50
879.48	2887.64
879.65	2918.36
879.81	2770.90
879.98	2805.72
880.15	2836.44
880.31	3069.91
880.48	2828.24
880.64	2918.36
880.81	2906.07
880.97	3272.65
881.14	3215.31
881.31	2744.28
881.47	2967.51
881.64	2912.21
881.80	2703.32
881.97	2930.64
882.13	2754.52
882.30	2736.09
882.47	2852.82
882.63	2770.90
882.80	2713.56
882.96	2887.64
883.13	3215.31
883.29	2803.67
883.46	2795.48
883.62	3344.33
883.79	2983.89
883.95	2856.92
884.12	2697.17
884.29	3147.73
884.45	2992.08
884.62	2748.37
884.78	2684.89
884.95	3194.83
885.11	2781.14
885.28	2856.92
885.44	2770.90
885.61	3139.54
885.77	3209.17
885.94	2897.88
886.10	2850.77
886.27	2975.70
886.43	3166.16
886.60	2922.45
886.76	2793.43
886.93	2852.82
887.09	2975.70
887.26	2570.20
887.42	2807.77
887.59	3092.43
887.75	3403.72
887.92	3002.32
888.08	2901.97
888.25	3256.27
888.41	3127.25
888.58	2791.38
888.74	2686.94
888.91	2877.40
>>>>>End Processed Spectral Data<<<<<
