SpectraSuite Data File
++++++++++++++++++++++++++++++++++++
Date: Thu May 05 21:10:58 CEST 2016
User: root
Dark Spectrum Present: No
Reference Spectrum Present: No
Number of Sampled Component Spectra: 1
Spectrometers: USB4C02835
Integration Time (usec): 100000 (USB4C02835)
Spectra Averaged: 1 (USB4C02835)
Boxcar Smoothing: 0 (USB4C02835)
Correct for Electrical Dark: No (USB4C02835)
Strobe/Lamp Enabled: No (USB4C02835)
Correct for Detector Non-linearity: No (USB4C02835)
Correct for Stray Light: No (USB4C02835)
Number of Pixels in Processed Spectrum: 3648
>>>>>Begin Processed Spectral Data<<<<<
177.47	2129.89
177.69	2129.89
177.91	2129.89
178.13	2150.37
178.36	2140.13
178.58	2709.46
178.80	2906.07
179.02	2760.66
179.24	2801.62
179.46	2713.56
179.68	2762.71
179.90	3016.66
180.13	2928.60
180.35	2541.53
180.57	2656.22
180.79	3143.63
181.01	3004.37
181.23	2717.65
181.45	2797.53
181.67	3209.17
181.90	3200.98
182.12	2699.22
182.34	2539.48
182.56	2957.27
182.78	3094.48
183.00	2758.61
183.22	2762.71
183.44	2717.65
183.66	3444.68
183.89	2797.53
184.11	2768.85
184.33	3121.10
184.55	3190.74
184.77	2658.26
184.99	2703.32
185.21	2930.64
185.43	3483.59
185.65	2686.94
185.87	2684.89
186.10	3416.01
186.32	3391.44
186.54	2813.91
186.76	2836.44
186.98	3137.49
187.20	2936.79
187.42	2701.27
187.64	2598.87
187.86	3123.15
188.08	3143.63
188.30	2625.50
188.52	2684.89
188.75	3211.22
188.97	3198.93
189.19	2654.17
189.41	2699.22
189.63	3106.77
189.85	2867.16
190.07	2582.49
190.29	2566.10
190.51	3057.62
190.73	2848.72
190.95	2871.25
191.17	2734.04
191.39	2787.29
191.61	2912.21
191.84	2697.17
192.06	2838.48
192.28	2707.41
192.50	3450.83
192.72	2877.40
192.94	2736.09
193.16	3166.16
193.38	2992.08
193.60	2654.17
193.82	2742.23
194.04	3166.16
194.26	3057.62
194.48	2731.99
194.70	2725.85
194.92	2949.08
195.14	3166.16
195.36	2676.70
195.58	2772.95
195.80	3018.71
196.02	2836.44
196.24	2557.91
196.46	2805.72
196.69	2889.68
196.91	3510.22
197.13	2693.08
197.35	2678.74
197.57	3217.36
197.79	3160.02
198.01	2715.61
198.23	2725.85
198.45	3123.15
198.67	2824.15
198.89	2539.48
199.11	2762.71
199.33	2848.72
199.55	2625.50
199.77	2672.60
199.99	2891.73
200.21	2852.82
200.43	3057.62
200.65	2580.44
200.87	2516.95
201.09	2975.70
201.31	2969.55
201.53	2746.33
201.75	2680.79
201.97	3045.33
202.19	2951.12
202.41	2797.53
202.63	2879.44
202.85	3102.67
203.07	3000.27
203.29	2729.94
203.51	2691.03
203.73	2834.39
203.95	3506.12
204.17	2639.83
204.39	2797.53
204.61	2914.26
204.83	2944.98
205.05	2844.63
205.27	2783.19
205.49	3442.64
205.71	2994.13
205.93	2545.63
206.15	2633.69
206.37	3016.66
206.59	2947.03
206.81	2580.44
207.03	2602.97
207.25	2756.57
207.47	3174.35
207.69	2676.70
207.91	2904.02
208.13	3313.61
208.34	2910.16
208.56	2594.78
208.78	2772.95
209.00	2979.79
209.22	2942.93
209.44	2701.27
209.66	2639.83
209.88	3043.28
210.10	2920.40
210.32	2611.16
210.54	2789.33
210.76	3037.14
210.98	3114.96
211.20	2533.34
211.42	2805.72
211.64	3172.30
211.86	3065.81
212.08	2729.94
212.30	2772.95
212.52	2852.82
212.74	3078.10
212.96	2723.80
213.17	2822.10
213.39	3174.35
213.61	3258.32
213.83	2672.60
214.05	2623.45
214.27	3176.40
214.49	2836.44
214.71	2633.69
214.93	2873.30
215.15	3024.85
215.37	3188.69
215.59	2555.86
215.81	2703.32
216.03	3241.93
216.24	2940.88
216.46	2727.89
216.68	2770.90
216.90	3086.29
217.12	3127.25
217.34	2592.73
217.56	2832.34
217.78	3231.69
218.00	3082.19
218.22	2772.95
218.44	2772.95
218.66	3028.95
218.87	3426.25
219.09	2731.99
219.31	2740.18
219.53	3045.33
219.75	2975.70
219.97	2738.13
220.19	2641.88
220.41	2996.18
220.63	3239.89
220.85	2684.89
221.06	2691.03
221.28	3196.88
221.50	3112.91
221.72	2621.40
221.94	2609.11
222.16	3080.14
222.38	3119.06
222.60	2666.46
222.82	2822.10
223.03	3123.15
223.25	2789.33
223.47	2639.83
223.69	3004.37
223.91	3170.26
224.13	3045.33
224.35	2537.43
224.57	2871.25
224.78	3127.25
225.00	2846.68
225.22	2799.57
225.44	2631.64
225.66	3108.82
225.88	2944.98
226.10	2764.76
226.32	2703.32
226.53	3168.21
226.75	2920.40
226.97	2668.50
227.19	2703.32
227.41	2873.30
227.63	2846.68
227.85	2537.43
228.06	2715.61
228.28	3026.90
228.50	3084.24
228.72	2576.34
228.94	2680.79
229.16	2658.26
229.37	2748.37
229.59	2541.53
229.81	2906.07
230.03	2957.27
230.25	2766.81
230.47	2596.82
230.69	2697.17
230.90	3133.39
231.12	2877.40
231.34	2762.71
231.56	2740.18
231.78	2783.19
232.00	2975.70
232.21	2719.70
232.43	2680.79
232.65	2656.22
232.87	3010.51
233.09	2586.58
233.30	2662.36
233.52	3184.59
233.74	2971.60
233.96	2645.98
234.18	2830.29
234.40	2969.55
234.61	3362.76
234.83	2580.44
235.05	2635.74
235.27	3416.01
235.49	3282.89
235.70	2580.44
235.92	2688.98
236.14	3059.67
236.36	3405.77
236.58	2562.01
236.79	2738.13
237.01	2983.89
237.23	2947.03
237.45	2944.98
237.67	2676.70
237.88	3035.09
238.10	3282.89
238.32	2658.26
238.54	2695.13
238.76	2893.78
238.97	2799.57
239.19	2562.01
239.41	2695.13
239.63	3137.49
239.85	2895.83
240.06	2668.50
240.28	2670.55
240.50	3203.02
240.72	2947.03
240.93	2580.44
241.15	2848.72
241.37	2979.79
241.59	3153.87
241.81	2682.84
242.02	2697.17
242.24	3086.29
242.46	3059.67
242.68	2521.05
242.89	2639.83
243.11	3145.68
243.33	2856.92
243.55	2619.35
243.76	2693.08
243.98	2818.00
244.20	2994.13
244.42	2664.41
244.64	2639.83
244.85	2787.29
245.07	2832.34
245.29	2576.34
245.51	2654.17
245.72	3049.43
245.94	3147.73
246.16	2652.12
246.38	2699.22
246.59	2828.24
246.81	2846.68
247.03	2605.02
247.24	2559.96
247.46	2932.69
247.68	3104.72
247.90	2648.02
248.11	2693.08
248.33	3090.38
248.55	2949.08
248.77	2680.79
248.98	2734.04
249.20	3286.99
249.42	3033.04
249.64	2717.65
249.85	2643.93
250.07	2871.25
250.29	3119.06
250.50	2713.56
250.72	2576.34
250.94	3024.85
251.16	3348.43
251.37	2697.17
251.59	2748.37
251.81	3008.47
252.02	3246.03
252.24	2586.58
252.46	2803.67
252.68	2801.62
252.89	2863.06
253.11	2543.58
253.33	2822.10
253.54	3276.75
253.76	2840.53
253.98	2680.79
254.20	2705.37
254.41	2768.85
254.63	2926.55
254.85	2570.20
255.06	2746.33
255.28	3026.90
255.50	2877.40
255.71	2688.98
255.93	2500.57
256.15	2947.03
256.36	3090.38
256.58	2611.16
256.80	2660.31
257.02	3010.51
257.23	2947.03
257.45	2680.79
257.67	2791.38
257.88	2856.92
258.10	3028.95
258.32	2678.74
258.53	2746.33
258.75	3303.37
258.97	2834.39
259.18	2619.35
259.40	2639.83
259.62	3364.81
259.83	3262.41
260.05	2684.89
260.27	3473.36
260.48	3094.48
260.70	2783.19
260.92	2592.73
261.13	2721.75
261.35	3000.27
261.57	3033.04
261.78	2572.25
262.00	2686.94
262.22	3092.43
262.43	2842.58
262.65	2734.04
262.86	2717.65
263.08	3416.01
263.30	3035.09
263.51	2523.10
263.73	2672.60
263.95	3303.37
264.16	2777.05
264.38	2576.34
264.60	2602.97
264.81	2934.74
265.03	3184.59
265.25	3002.32
265.46	2719.70
265.68	3203.02
265.89	3074.00
266.11	2564.06
266.33	2703.32
266.54	3162.06
266.76	3106.77
266.98	2721.75
267.19	2832.34
267.41	3088.34
267.62	2893.78
267.84	2484.19
268.06	2867.16
268.27	2971.60
268.49	3190.74
268.70	2791.38
268.92	2746.33
269.14	2858.96
269.35	2807.77
269.57	2693.08
269.79	2770.90
270.00	2887.64
270.22	3346.38
270.43	2605.02
270.65	2543.58
270.87	3026.90
271.08	3143.63
271.30	2826.20
271.51	2656.22
271.73	3071.95
271.95	3307.47
272.16	2709.46
272.38	2818.00
272.59	2928.60
272.81	3063.76
273.02	2682.84
273.24	2768.85
273.46	3176.40
273.67	2717.65
273.89	2574.30
274.10	2701.27
274.32	3172.30
274.54	2971.60
274.75	2723.80
274.97	2799.57
275.18	3078.10
275.40	3055.57
275.61	2697.17
275.83	2840.53
276.05	2856.92
276.26	2963.41
276.48	2762.71
276.69	2783.19
276.91	2934.74
277.12	3299.28
277.34	2834.39
277.55	2926.55
277.77	2979.79
277.99	2977.75
278.20	2791.38
278.42	2658.26
278.63	2815.96
278.85	2826.20
279.06	2727.89
279.28	2826.20
279.49	3162.06
279.71	3225.55
279.93	2885.59
280.14	2844.63
280.36	2914.26
280.57	3123.15
280.79	2957.27
281.00	2727.89
281.22	2863.06
281.43	3149.78
281.65	2617.30
281.86	2686.94
282.08	3121.10
282.29	3192.78
282.51	2637.78
282.73	2672.60
282.94	2740.18
283.16	3119.06
283.37	2856.92
283.59	2846.68
283.80	3057.62
284.02	2967.51
284.23	2803.67
284.45	2797.53
284.66	2885.59
284.88	2775.00
285.09	2750.42
285.31	2920.40
285.52	3053.52
285.74	2680.79
285.95	3002.32
286.17	2865.11
286.38	3219.41
286.60	2899.92
286.81	2787.29
287.03	2762.71
287.24	3033.04
287.46	3061.71
287.67	2901.97
287.89	3008.47
288.10	3002.32
288.32	2977.75
288.53	2971.60
288.75	2877.40
288.96	3123.15
289.18	2881.49
289.39	2805.72
289.61	2932.69
289.82	3356.62
290.04	3334.09
290.25	2607.06
290.47	2873.30
290.68	2908.12
290.90	3196.88
291.11	2625.50
291.33	2934.74
291.54	2863.06
291.76	2818.00
291.97	2846.68
292.18	2858.96
292.40	2947.03
292.61	2871.25
292.83	3088.34
293.04	2742.23
293.26	2981.84
293.47	2992.08
293.69	2740.18
293.90	2783.19
294.12	3121.10
294.33	2987.99
294.55	2803.67
294.76	3018.71
294.97	3250.13
295.19	3440.59
295.40	2799.57
295.62	2828.24
295.83	3137.49
296.05	2848.72
296.26	3049.43
296.48	2813.91
296.69	3004.37
296.90	3016.66
297.12	2985.94
297.33	2867.16
297.55	3018.71
297.76	2963.41
297.98	2922.45
298.19	2932.69
298.41	2963.41
298.62	2863.06
298.83	2992.08
299.05	2938.84
299.26	2975.70
299.48	2910.16
299.69	2858.96
299.90	2785.24
300.12	2832.34
300.33	3067.86
300.55	2834.39
300.76	2906.07
300.98	2813.91
301.19	3092.43
301.40	2799.57
301.62	2777.05
301.83	3088.34
302.05	2967.51
302.26	2854.87
302.47	2924.50
302.69	2842.58
302.90	2928.60
303.12	2602.97
303.33	2895.83
303.54	3213.26
303.76	2922.45
303.97	2783.19
304.19	2994.13
304.40	2795.48
304.61	3078.10
304.83	2932.69
305.04	2867.16
305.26	3141.58
305.47	2830.29
305.68	2762.71
305.90	2572.25
306.11	3104.72
306.33	2955.22
306.54	2699.22
306.75	2758.61
306.97	2740.18
307.18	2830.29
307.39	2785.24
307.61	2930.64
307.82	2963.41
308.04	3098.58
308.25	2731.99
308.46	2881.49
308.68	3004.37
308.89	2916.31
309.10	2889.68
309.32	2848.72
309.53	3028.95
309.74	3088.34
309.96	2760.66
310.17	2865.11
310.39	2861.01
310.60	3078.10
310.81	2858.96
311.03	2770.90
311.24	3117.01
311.45	2994.13
311.67	3018.71
311.88	2869.20
312.09	2926.55
312.31	2899.92
312.52	2768.85
312.73	2731.99
312.95	2791.38
313.16	2842.58
313.37	3004.37
313.59	2969.55
313.80	3082.19
314.01	3315.66
314.23	2793.43
314.44	2637.78
314.65	2760.66
314.87	2836.44
315.08	2797.53
315.29	2777.05
315.51	2822.10
315.72	2691.03
315.93	2873.30
316.15	2764.76
316.36	2883.54
316.57	2936.79
316.79	2799.57
317.00	2779.09
317.21	3084.24
317.43	2820.05
317.64	2901.97
317.85	2723.80
318.07	2848.72
318.28	2963.41
318.49	2836.44
318.70	3092.43
318.92	3047.38
319.13	3045.33
319.34	2981.84
319.56	2865.11
319.77	3051.47
319.98	3129.30
320.20	2981.84
320.41	2985.94
320.62	2985.94
320.83	2848.72
321.05	3022.80
321.26	2807.77
321.47	2987.99
321.69	3133.39
321.90	2756.57
322.11	2744.28
322.32	2971.60
322.54	3223.50
322.75	2830.29
322.96	3510.22
323.18	2813.91
323.39	2686.94
323.60	2734.04
323.81	2867.16
324.03	2875.35
324.24	2914.26
324.45	2848.72
324.66	2697.17
324.88	3180.50
325.09	3160.02
325.30	2768.85
325.52	2701.27
325.73	3053.52
325.94	2846.68
326.15	2648.02
326.37	2715.61
326.58	3112.91
326.79	3180.50
327.00	2707.41
327.22	2758.61
327.43	2947.03
327.64	2709.46
327.85	2994.13
328.07	2820.05
328.28	3348.43
328.49	2914.26
328.70	2729.94
328.92	2801.62
329.13	2887.64
329.34	3004.37
329.55	2990.03
329.76	2951.12
329.98	2949.08
330.19	3186.64
330.40	2926.55
330.61	2856.92
330.83	3114.96
331.04	2867.16
331.25	2906.07
331.46	2828.24
331.68	2805.72
331.89	3217.36
332.10	2797.53
332.31	2693.08
332.52	3053.52
332.74	3205.07
332.95	2635.74
333.16	2852.82
333.37	3061.71
333.58	2856.92
333.80	2793.43
334.01	2629.59
334.22	2967.51
334.43	2875.35
334.64	2703.32
334.86	2768.85
335.07	2803.67
335.28	3286.99
335.49	2699.22
335.70	2858.96
335.92	3221.45
336.13	3448.78
336.34	2820.05
336.55	2801.62
336.76	3106.77
336.98	2670.55
337.19	2940.88
337.40	2934.74
337.61	3473.36
337.82	2832.34
338.04	2906.07
338.25	2756.57
338.46	2967.51
338.67	2977.75
338.88	2672.60
339.09	2680.79
339.31	2893.78
339.52	2836.44
339.73	2750.42
339.94	2901.97
340.15	3164.11
340.36	2926.55
340.58	2832.34
340.79	2748.37
341.00	3076.05
341.21	2861.01
341.42	3045.33
341.63	2828.24
341.85	3110.86
342.06	3069.91
342.27	2686.94
342.48	2916.31
342.69	2746.33
342.90	3024.85
343.12	3043.28
343.33	2752.47
343.54	3147.73
343.75	3260.37
343.96	2846.68
344.17	2648.02
344.38	2990.03
344.60	2842.58
344.81	2754.52
345.02	2836.44
345.23	3139.54
345.44	3436.49
345.65	2867.16
345.86	2879.44
346.07	2998.23
346.29	2836.44
346.50	2891.73
346.71	2820.05
346.92	3198.93
347.13	3366.86
347.34	2910.16
347.55	2750.42
347.76	3026.90
347.98	2781.14
348.19	2846.68
348.40	2904.02
348.61	2965.46
348.82	3196.88
349.03	2885.59
349.24	2678.74
349.45	3293.13
349.66	2568.15
349.88	2832.34
350.09	2713.56
350.30	3274.70
350.51	3176.40
350.72	2926.55
350.93	2854.87
351.14	2979.79
351.35	2961.36
351.56	2848.72
351.77	2908.12
351.99	2975.70
352.20	3180.50
352.41	2981.84
352.62	2607.06
352.83	2936.79
353.04	2916.31
353.25	2785.24
353.46	2877.40
353.67	3241.93
353.88	2623.45
354.09	2736.09
354.30	2850.77
354.52	3104.72
354.73	2967.51
354.94	2709.46
355.15	2858.96
355.36	3317.71
355.57	2877.40
355.78	2754.52
355.99	2777.05
356.20	2977.75
356.41	3133.39
356.62	2910.16
356.83	2852.82
357.04	3256.27
357.25	2760.66
357.46	2740.18
357.68	2672.60
357.89	2893.78
358.10	2934.74
358.31	2828.24
358.52	2787.29
358.73	2889.68
358.94	2797.53
359.15	2779.09
359.36	2854.87
359.57	2940.88
359.78	2881.49
359.99	2994.13
360.20	2781.14
360.41	3030.99
360.62	3026.90
360.83	2895.83
361.04	2719.70
361.25	2944.98
361.46	3266.51
361.67	2883.54
361.88	2787.29
362.09	3192.78
362.30	2947.03
362.51	2785.24
362.72	2815.96
362.93	3092.43
363.14	3006.42
363.35	2863.06
363.56	2744.28
363.78	3184.59
363.99	3190.74
364.20	2805.72
364.41	2871.25
364.62	3309.52
364.83	3010.51
365.04	2742.23
365.25	2922.45
365.46	3264.46
365.67	2906.07
365.88	2965.46
366.09	2723.80
366.30	2926.55
366.51	2908.12
366.72	2713.56
366.93	2803.67
367.14	3080.14
367.35	3254.22
367.56	2678.74
367.77	2906.07
367.98	2906.07
368.18	3078.10
368.39	2963.41
368.60	2748.37
368.81	3123.15
369.02	3102.67
369.23	2770.90
369.44	2674.65
369.65	2879.44
369.86	3028.95
370.07	2916.31
370.28	2713.56
370.49	2942.93
370.70	3137.49
370.91	2727.89
371.12	2680.79
371.33	3141.58
371.54	2881.49
371.75	2901.97
371.96	2523.10
372.17	2930.64
372.38	2953.17
372.59	2836.44
372.80	2803.67
373.01	2934.74
373.22	3014.61
373.43	2770.90
373.64	2738.13
373.85	3211.22
374.06	3291.09
374.26	3059.67
374.47	2883.54
374.68	3297.23
374.89	3049.43
375.10	2695.13
375.31	2926.55
375.52	2940.88
375.73	2961.36
375.94	2611.16
376.15	2922.45
376.36	2869.20
376.57	2899.92
376.78	2818.00
376.99	2893.78
377.20	3200.98
377.40	2979.79
377.61	3010.51
377.82	2795.48
378.03	3170.26
378.24	3012.56
378.45	2850.77
378.66	2897.88
378.87	2715.61
379.08	2766.81
379.29	2758.61
379.50	3033.04
379.71	2981.84
379.91	3090.38
380.12	2758.61
380.33	2944.98
380.54	2963.41
380.75	2918.36
380.96	2801.62
381.17	2916.31
381.38	2975.70
381.59	3039.19
381.80	2891.73
382.00	2969.55
382.21	3104.72
382.42	3194.83
382.63	3125.20
382.84	2920.40
383.05	3092.43
383.26	3264.46
383.47	2924.50
383.68	2852.82
383.88	3057.62
384.09	2979.79
384.30	3057.62
384.51	2873.30
384.72	2930.64
384.93	2791.38
385.14	2889.68
385.35	3092.43
385.55	2736.09
385.76	3071.95
385.97	2850.77
386.18	2605.02
386.39	2840.53
386.60	2924.50
386.81	2820.05
387.02	2691.03
387.22	2811.86
387.43	3100.62
387.64	2893.78
387.85	3076.05
388.06	3012.56
388.27	4044.74
388.48	7311.25
388.68	10835.80
388.89	13584.18
389.10	14522.15
389.31	14206.76
389.52	11544.40
389.73	9844.59
389.93	8898.42
390.14	8101.76
390.35	7368.59
390.56	6737.82
390.77	5693.35
390.98	4290.49
391.18	3651.53
391.39	3471.31
391.60	3051.47
391.81	3059.67
392.02	2883.54
392.23	3391.44
392.43	2975.70
392.64	3006.42
392.85	2838.48
393.06	3243.98
393.27	2969.55
393.47	2772.95
393.68	2879.44
393.89	2924.50
394.10	3235.79
394.31	2815.96
394.52	2795.48
394.72	2879.44
394.93	3246.03
395.14	2750.42
395.35	2924.50
395.56	2856.92
395.76	3024.85
395.97	2846.68
396.18	2951.12
396.39	3037.14
396.60	3559.37
396.80	3209.17
397.01	3067.86
397.22	3135.44
397.43	3143.63
397.64	2828.24
397.84	2914.26
398.05	3362.76
398.26	2959.31
398.47	2889.68
398.67	3010.51
398.88	3065.81
399.09	3155.92
399.30	2781.14
399.51	2918.36
399.71	2893.78
399.92	2987.99
400.13	2938.84
400.34	2811.86
400.54	2965.46
400.75	3198.93
400.96	2985.94
401.17	3051.47
401.37	3059.67
401.58	2934.74
401.79	2772.95
402.00	2987.99
402.21	3428.30
402.41	3155.92
402.62	3071.95
402.83	3151.82
403.04	3364.81
403.24	3669.96
403.45	2973.65
403.66	3018.71
403.87	3237.84
404.07	3270.61
404.28	3033.04
404.49	3143.63
404.70	3071.95
404.90	3114.96
405.11	2840.53
405.32	2863.06
405.52	2953.17
405.73	2914.26
405.94	2797.53
406.15	2961.36
406.35	3108.82
406.56	3135.44
406.77	2965.46
406.98	2850.77
407.18	2885.59
407.39	3217.36
407.60	2879.44
407.80	2908.12
408.01	2805.72
408.22	3084.24
408.43	2756.57
408.63	2891.73
408.84	3112.91
409.05	3151.82
409.25	2852.82
409.46	2840.53
409.67	2844.63
409.88	2920.40
410.08	2850.77
410.29	2787.29
410.50	3172.30
410.70	3176.40
410.91	2707.41
411.12	2932.69
411.32	2961.36
411.53	2838.48
411.74	2820.05
411.95	2820.05
412.15	3037.14
412.36	3147.73
412.57	2963.41
412.77	3043.28
412.98	2965.46
413.19	2842.58
413.39	2920.40
413.60	2936.79
413.81	3235.79
414.01	2656.22
414.22	2910.16
414.43	2963.41
414.63	2910.16
414.84	3176.40
415.05	2873.30
415.25	2639.83
415.46	3035.09
415.67	2865.11
415.87	2920.40
416.08	2828.24
416.29	2854.87
416.49	3053.52
416.70	2848.72
416.91	2775.00
417.11	2985.94
417.32	3147.73
417.53	2971.60
417.73	2975.70
417.94	2934.74
418.15	3082.19
418.35	2861.01
418.56	2938.84
418.77	3403.72
418.97	3057.62
419.18	2865.11
419.38	2574.30
419.59	2940.88
419.80	3246.03
420.00	2815.96
420.21	2910.16
420.42	3211.22
420.62	3071.95
420.83	2850.77
421.04	2850.77
421.24	2922.45
421.45	3092.43
421.65	2912.21
421.86	2893.78
422.07	3153.87
422.27	3112.91
422.48	2801.62
422.69	2688.98
422.89	2969.55
423.10	2979.79
423.30	2766.81
423.51	2932.69
423.72	3168.21
423.92	3178.45
424.13	2680.79
424.33	2944.98
424.54	3082.19
424.75	2994.13
424.95	3018.71
425.16	2820.05
425.36	2934.74
425.57	3213.26
425.78	2996.18
425.98	2930.64
426.19	2924.50
426.39	2863.06
426.60	3024.85
426.81	2934.74
427.01	3020.75
427.22	2797.53
427.42	2600.92
427.63	2711.51
427.83	3168.21
428.04	3211.22
428.25	2979.79
428.45	2971.60
428.66	3182.54
428.86	2908.12
429.07	2871.25
429.28	2861.01
429.48	2967.51
429.69	2867.16
429.89	2918.36
430.10	2799.57
430.30	3121.10
430.51	3166.16
430.71	2688.98
430.92	2949.08
431.13	2861.01
431.33	3078.10
431.54	2914.26
431.74	3108.82
431.95	3399.63
432.15	2793.43
432.36	2832.34
432.56	2947.03
432.77	3344.33
432.98	3211.22
433.18	2987.99
433.39	2742.23
433.59	3016.66
433.80	3379.15
434.00	3012.56
434.21	2908.12
434.41	2830.29
434.62	3375.05
434.82	2701.27
435.03	2871.25
435.23	3035.09
435.44	2746.33
435.64	2828.24
435.85	2889.68
436.06	3137.49
436.26	3200.98
436.47	2865.11
436.67	2832.34
436.88	2963.41
437.08	3176.40
437.29	2959.31
437.49	3059.67
437.70	3125.20
437.90	2934.74
438.11	3084.24
438.31	2930.64
438.52	3196.88
438.72	3225.55
438.93	3112.91
439.13	2934.74
439.34	3174.35
439.54	2998.23
439.75	2955.22
439.95	2897.88
440.16	2897.88
440.36	2961.36
440.57	2869.20
440.77	2910.16
440.98	2975.70
441.18	3028.95
441.39	2844.63
441.59	2731.99
441.80	3364.81
442.00	2990.03
442.21	2953.17
442.41	2668.50
442.62	3174.35
442.82	2904.02
443.02	2871.25
443.23	2908.12
443.43	2891.73
443.64	3225.55
443.84	2738.13
444.05	3035.09
444.25	2967.51
444.46	2926.55
444.66	2879.44
444.87	3086.29
445.07	2777.05
445.28	2871.25
445.48	3059.67
445.69	2930.64
445.89	3422.16
446.09	2977.75
446.30	3219.41
446.50	3284.94
446.71	4706.23
446.91	5793.70
447.12	6635.42
447.32	6760.34
447.53	6956.95
447.73	5693.35
447.93	5035.96
448.14	4888.50
448.34	4855.73
448.55	3966.92
448.75	4124.61
448.96	3784.65
449.16	3676.10
449.36	3485.64
449.57	3096.53
449.77	2871.25
449.98	2959.31
450.18	3026.90
450.39	2815.96
450.59	3002.32
450.79	2985.94
451.00	2822.10
451.20	3002.32
451.41	2822.10
451.61	3082.19
451.81	3002.32
452.02	2777.05
452.22	2775.00
452.43	2910.16
452.63	2852.82
452.84	2889.68
453.04	2789.33
453.24	2916.31
453.45	2838.48
453.65	2818.00
453.86	2850.77
454.06	2979.79
454.26	3041.23
454.47	2772.95
454.67	3022.80
454.87	3123.15
455.08	2932.69
455.28	2947.03
455.49	2963.41
455.69	2865.11
455.89	3344.33
456.10	2936.79
456.30	2768.85
456.51	3164.11
456.71	3047.38
456.91	2914.26
457.12	2887.64
457.32	2998.23
457.52	2793.43
457.73	2967.51
457.93	2981.84
458.14	2920.40
458.34	2754.52
458.54	2885.59
458.75	2840.53
458.95	3098.58
459.15	3102.67
459.36	2940.88
459.56	2883.54
459.76	3428.30
459.97	3030.99
460.17	2856.92
460.37	2930.64
460.58	3000.27
460.78	3082.19
460.99	2742.23
461.19	2865.11
461.39	2961.36
461.60	2944.98
461.80	2901.97
462.00	2775.00
462.21	2959.31
462.41	2854.87
462.61	2754.52
462.82	2709.46
463.02	3102.67
463.22	2920.40
463.43	2932.69
463.63	2826.20
463.83	3246.03
464.04	3043.28
464.24	2838.48
464.44	2789.33
464.64	3014.61
464.85	3061.71
465.05	2930.64
465.25	2807.77
465.46	2873.30
465.66	3170.26
465.86	2971.60
466.07	2826.20
466.27	2922.45
466.47	2699.22
466.68	2652.12
466.88	3014.61
467.08	3184.59
467.29	3211.22
467.49	2944.98
467.69	2910.16
467.89	3010.51
468.10	2959.31
468.30	2928.60
468.50	2938.84
468.71	3131.34
468.91	2762.71
469.11	3100.62
469.31	2940.88
469.52	2830.29
469.72	3387.34
469.92	3030.99
470.13	2875.35
470.33	3051.47
470.53	3002.32
470.73	3209.17
470.94	3506.12
471.14	3635.14
471.34	4124.61
471.54	3786.69
471.75	3575.75
471.95	3385.29
472.15	3399.63
472.36	3303.37
472.56	3235.79
472.76	3416.01
472.96	3364.81
473.17	3119.06
473.37	2944.98
473.57	2942.93
473.77	3008.47
473.98	2924.50
474.18	2807.77
474.38	3440.59
474.58	2865.11
474.79	2729.94
474.99	2920.40
475.19	3166.16
475.39	2791.38
475.60	2987.99
475.80	2807.77
476.00	2955.22
476.20	2940.88
476.41	2916.31
476.61	2992.08
476.81	3272.65
477.01	2912.21
477.21	3092.43
477.42	3008.47
477.62	2924.50
477.82	3164.11
478.02	2762.71
478.23	2959.31
478.43	2789.33
478.63	2893.78
478.83	2955.22
479.03	2887.64
479.24	3340.24
479.44	3362.76
479.64	2836.44
479.84	2566.10
480.04	2893.78
480.25	3149.78
480.45	2826.20
480.65	2754.52
480.85	3254.22
481.06	2844.63
481.26	2934.74
481.46	2795.48
481.66	3094.48
481.86	2787.29
482.06	3084.24
482.27	2889.68
482.47	2955.22
482.67	3002.32
482.87	2858.96
483.07	2949.08
483.28	2957.27
483.48	2762.71
483.68	2867.16
483.88	2680.79
484.08	2627.54
484.29	2768.85
484.49	2852.82
484.69	2586.58
484.89	3170.26
485.09	3194.83
485.29	2881.49
485.50	2940.88
485.70	2963.41
485.90	3145.68
486.10	3024.85
486.30	2783.19
486.50	3194.83
486.71	3131.34
486.91	2942.93
487.11	3016.66
487.31	2777.05
487.51	3112.91
487.71	2758.61
487.91	2842.58
488.12	2844.63
488.32	2660.31
488.52	2793.43
488.72	2625.50
488.92	3096.53
489.12	3200.98
489.32	3061.71
489.53	2865.11
489.73	2740.18
489.93	3196.88
490.13	2869.20
490.33	2744.28
490.53	3016.66
490.73	3133.39
490.94	2717.65
491.14	2990.03
491.34	3076.05
491.54	3198.93
491.74	3631.05
491.94	4267.97
492.14	4745.14
492.34	4706.23
492.54	4323.26
492.75	3903.43
492.95	3880.90
493.15	3581.90
493.35	3530.70
493.55	3438.54
493.75	3420.11
493.95	3387.34
494.15	3133.39
494.35	2926.55
494.56	2987.99
494.76	2928.60
494.96	2965.46
495.16	2832.34
495.36	2977.75
495.56	3022.80
495.76	2801.62
495.96	2846.68
496.16	2926.55
496.36	3346.38
496.56	2846.68
496.77	2893.78
496.97	3008.47
497.17	3250.13
497.37	2631.64
497.57	2916.31
497.77	2938.84
497.97	2854.87
498.17	2926.55
498.37	2840.53
498.57	3110.86
498.77	2955.22
498.97	3071.95
499.17	3233.74
499.38	2936.79
499.58	3141.58
499.78	3000.27
499.98	3051.47
500.18	2940.88
500.38	2830.29
500.58	3074.00
500.78	3350.48
500.98	5562.28
501.18	7294.86
501.38	8927.10
501.58	9668.46
501.78	9727.85
501.98	8044.42
502.18	6682.52
502.38	5824.42
502.58	5795.75
502.78	5103.54
502.98	4796.34
503.18	4622.27
503.38	4257.73
503.59	3719.11
503.79	3717.06
503.99	3346.38
504.19	3483.59
504.39	3459.02
504.59	3282.89
504.79	3200.98
504.99	3512.27
505.19	3157.97
505.39	2895.83
505.59	3233.74
505.79	3356.62
505.99	3209.17
506.19	2893.78
506.39	3117.01
506.59	2844.63
506.79	2959.31
506.99	3082.19
507.19	2842.58
507.39	3039.19
507.59	2713.56
507.79	2830.29
507.99	2779.09
508.19	2975.70
508.39	2965.46
508.59	2893.78
508.79	2975.70
508.99	3219.41
509.19	2858.96
509.39	2928.60
509.59	2764.76
509.79	2899.92
509.99	3018.71
510.19	3020.75
510.39	2981.84
510.59	2996.18
510.79	2873.30
510.99	2736.09
511.19	2852.82
511.39	3246.03
511.59	3213.26
511.79	3028.95
511.99	2916.31
512.19	3358.67
512.38	3002.32
512.58	2793.43
512.78	2781.14
512.98	3252.17
513.18	3266.51
513.38	2750.42
513.58	2994.13
513.78	3014.61
513.98	2879.44
514.18	2842.58
514.38	2754.52
514.58	3016.66
514.78	2828.24
514.98	2734.04
515.18	2844.63
515.38	2723.80
515.58	3272.65
515.78	2766.81
515.98	2826.20
516.18	3135.44
516.38	2957.27
516.57	2811.86
516.77	2811.86
516.97	3078.10
517.17	2881.49
517.37	2762.71
517.57	3022.80
517.77	2920.40
517.97	2854.87
518.17	2932.69
518.37	2713.56
518.57	2865.11
518.77	2893.78
518.97	2897.88
519.16	2840.53
519.36	3176.40
519.56	2930.64
519.76	2793.43
519.96	2858.96
520.16	3246.03
520.36	2836.44
520.56	3024.85
520.76	2791.38
520.96	2871.25
521.16	3155.92
521.35	2990.03
521.55	3024.85
521.75	2998.23
521.95	2901.97
522.15	2748.37
522.35	2697.17
522.55	2871.25
522.75	3078.10
522.95	2824.15
523.14	2731.99
523.34	3088.34
523.54	2846.68
523.74	2998.23
523.94	2840.53
524.14	2766.81
524.34	3022.80
524.54	3039.19
524.73	2848.72
524.93	3172.30
525.13	2942.93
525.33	2697.17
525.53	3121.10
525.73	3119.06
525.93	3035.09
526.13	2895.83
526.32	2793.43
526.52	3198.93
526.72	3211.22
526.92	2906.07
527.12	2799.57
527.32	2799.57
527.52	3117.01
527.71	2947.03
527.91	2852.82
528.11	2916.31
528.31	2877.40
528.51	2899.92
528.71	3014.61
528.90	3094.48
529.10	3194.83
529.30	2871.25
529.50	2619.35
529.70	2990.03
529.90	2916.31
530.09	2879.44
530.29	2729.94
530.49	2863.06
530.69	3530.70
530.89	2949.08
531.09	3000.27
531.28	2873.30
531.48	3258.32
531.68	2850.77
531.88	2936.79
532.08	3114.96
532.28	2922.45
532.47	2955.22
532.67	2944.98
532.87	3067.86
533.07	2793.43
533.27	2932.69
533.46	2920.40
533.66	2998.23
533.86	2990.03
534.06	2815.96
534.26	2854.87
534.45	2961.36
534.65	3178.45
534.85	2889.68
535.05	2875.35
535.25	3119.06
535.44	2711.51
535.64	2908.12
535.84	2809.81
536.04	2895.83
536.24	2889.68
536.43	2815.96
536.63	2869.20
536.83	2957.27
537.03	2996.18
537.22	2717.65
537.42	2697.17
537.62	3043.28
537.82	2828.24
538.02	2975.70
538.21	2908.12
538.41	3530.70
538.61	3000.27
538.81	2850.77
539.00	3010.51
539.20	2734.04
539.40	2926.55
539.60	2906.07
539.79	3049.43
539.99	2955.22
540.19	2867.16
540.39	2789.33
540.58	2977.75
540.78	3153.87
540.98	3037.14
541.18	3053.52
541.37	2906.07
541.57	2996.18
541.77	3100.62
541.97	2766.81
542.16	2695.13
542.36	2961.36
542.56	2934.74
542.76	3053.52
542.95	2963.41
543.15	3069.91
543.35	3098.58
543.54	2797.53
543.74	2750.42
543.94	3278.80
544.14	2899.92
544.33	2955.22
544.53	2826.20
544.73	2879.44
544.93	2863.06
545.12	2826.20
545.32	2865.11
545.52	2885.59
545.71	2791.38
545.91	2752.47
546.11	2797.53
546.30	2777.05
546.50	2957.27
546.70	2920.40
546.90	2846.68
547.09	2684.89
547.29	2944.98
547.49	2979.79
547.68	2871.25
547.88	2889.68
548.08	3123.15
548.27	3336.14
548.47	2803.67
548.67	2877.40
548.87	3010.51
549.06	2865.11
549.26	2748.37
549.46	3076.05
549.65	2928.60
549.85	2893.78
550.05	2922.45
550.24	2822.10
550.44	2985.94
550.64	2979.79
550.83	2887.64
551.03	3254.22
551.23	3121.10
551.42	2926.55
551.62	2842.58
551.82	2944.98
552.01	2813.91
552.21	3121.10
552.41	2863.06
552.60	3219.41
552.80	3045.33
553.00	2795.48
553.19	2928.60
553.39	3397.58
553.59	2729.94
553.78	2959.31
553.98	2791.38
554.17	2828.24
554.37	3055.57
554.57	2998.23
554.76	2658.26
554.96	2834.39
555.16	3033.04
555.35	2979.79
555.55	3006.42
555.75	3049.43
555.94	3082.19
556.14	2713.56
556.33	2865.11
556.53	2961.36
556.73	2920.40
556.92	2979.79
557.12	2869.20
557.32	3299.28
557.51	3229.65
557.71	2826.20
557.90	2994.13
558.10	3147.73
558.30	2887.64
558.49	2922.45
558.69	2871.25
558.88	3143.63
559.08	2963.41
559.28	2828.24
559.47	2861.01
559.67	3149.78
559.86	3266.51
560.06	2830.29
560.26	2865.11
560.45	3117.01
560.65	2867.16
560.84	3108.82
561.04	2738.13
561.24	3084.24
561.43	2830.29
561.63	3117.01
561.82	2920.40
562.02	3049.43
562.22	2701.27
562.41	2750.42
562.61	2779.09
562.80	2848.72
563.00	3387.34
563.19	2930.64
563.39	2885.59
563.59	3121.10
563.78	2850.77
563.98	2635.74
564.17	2844.63
564.37	2674.65
564.56	2875.35
564.76	2738.13
564.96	3002.32
565.15	3106.77
565.35	3442.64
565.54	2897.88
565.74	2873.30
565.93	3041.23
566.13	3008.47
566.32	2938.84
566.52	2904.02
566.71	3057.62
566.91	3184.59
567.11	2947.03
567.30	2760.66
567.50	3035.09
567.69	3000.27
567.89	2899.92
568.08	2748.37
568.28	3045.33
568.47	2758.61
568.67	2840.53
568.86	2828.24
569.06	3182.54
569.25	2922.45
569.45	2770.90
569.64	2770.90
569.84	2914.26
570.04	3037.14
570.23	2809.81
570.43	2899.92
570.62	2992.08
570.82	3319.76
571.01	2734.04
571.21	2734.04
571.40	2830.29
571.60	3082.19
571.79	2942.93
571.99	2858.96
572.18	2842.58
572.38	3018.71
572.57	2961.36
572.77	2928.60
572.96	3499.98
573.16	3057.62
573.35	2889.68
573.55	3053.52
573.74	3022.80
573.94	2934.74
574.13	2914.26
574.33	2983.89
574.52	3229.65
574.71	3014.61
574.91	2922.45
575.10	2695.13
575.30	2856.92
575.49	2818.00
575.69	2736.09
575.88	2881.49
576.08	2930.64
576.27	3143.63
576.47	2750.42
576.66	3022.80
576.86	3254.22
577.05	3035.09
577.25	2918.36
577.44	3078.10
577.64	2865.11
577.83	3200.98
578.02	2867.16
578.22	3004.37
578.41	3315.66
578.61	2897.88
578.80	2813.91
579.00	2906.07
579.19	2928.60
579.39	3033.04
579.58	2938.84
579.77	2889.68
579.97	3309.52
580.16	3164.11
580.36	3147.73
580.55	2893.78
580.75	3102.67
580.94	3030.99
581.13	3078.10
581.33	3127.25
581.52	2985.94
581.72	3356.62
581.91	2949.08
582.11	2838.48
582.30	3082.19
582.49	3069.91
582.69	3119.06
582.88	2908.12
583.08	2996.18
583.27	3209.17
583.47	2963.41
583.66	2850.77
583.85	2807.77
584.05	2994.13
584.24	2990.03
584.44	2930.64
584.63	3133.39
584.82	3180.50
585.02	3129.30
585.21	2979.79
585.41	3069.91
585.60	2998.23
585.79	3174.35
585.99	3145.68
586.18	2992.08
586.37	3854.28
586.57	5853.09
586.76	16744.19
586.96	35837.41
587.15	48747.80
587.34	57070.75
587.54	61201.50
587.73	54637.76
587.93	38884.78
588.12	29673.02
588.31	24428.17
588.51	21493.43
588.70	19695.32
588.89	17221.37
589.09	14565.15
589.28	12525.38
589.47	9944.94
589.67	7608.20
589.86	5873.57
590.06	4603.83
590.25	4087.75
590.44	3579.85
590.64	3387.34
590.83	3217.36
591.02	3239.89
591.22	2885.59
591.41	2990.03
591.60	3026.90
591.80	3442.64
591.99	2764.76
592.18	2852.82
592.38	3080.14
592.57	2846.68
592.76	2818.00
592.96	2895.83
593.15	2936.79
593.34	3215.31
593.54	2858.96
593.73	2944.98
593.92	3080.14
594.12	3041.23
594.31	2934.74
594.50	3039.19
594.70	3028.95
594.89	3411.92
595.08	2731.99
595.28	3010.51
595.47	3583.95
595.66	3133.39
595.86	2723.80
596.05	2777.05
596.24	2934.74
596.43	3364.81
596.63	2930.64
596.82	2977.75
597.01	3125.20
597.21	3315.66
597.40	2850.77
597.59	2883.54
597.79	3024.85
597.98	3110.86
598.17	2820.05
598.36	2912.21
598.56	3112.91
598.75	2904.02
598.94	2928.60
599.14	2938.84
599.33	2918.36
599.52	3166.16
599.71	3014.61
599.91	2914.26
600.10	3186.64
600.29	2969.55
600.48	2936.79
600.68	2936.79
600.87	3002.32
601.06	2904.02
601.26	2924.50
601.45	3055.57
601.64	2901.97
601.83	3250.13
602.03	2844.63
602.22	2748.37
602.41	3184.59
602.60	3401.68
602.80	2981.84
602.99	2975.70
603.18	2867.16
603.37	3035.09
603.57	2836.44
603.76	2942.93
603.95	3221.45
604.14	2947.03
604.34	2799.57
604.53	2820.05
604.72	2963.41
604.91	3074.00
605.10	2910.16
605.30	2682.84
605.49	3370.96
605.68	3033.04
605.87	2994.13
606.07	2856.92
606.26	3090.38
606.45	3133.39
606.64	2889.68
606.84	2781.14
607.03	3026.90
607.22	3102.67
607.41	2916.31
607.60	2830.29
607.80	3110.86
607.99	2934.74
608.18	2863.06
608.37	2838.48
608.56	2828.24
608.76	3166.16
608.95	3030.99
609.14	2887.64
609.33	3211.22
609.52	3225.55
609.72	2987.99
609.91	2930.64
610.10	3041.23
610.29	3241.93
610.48	2873.30
610.68	2912.21
610.87	3076.05
611.06	3108.82
611.25	2877.40
611.44	2979.79
611.63	2959.31
611.83	3246.03
612.02	2789.33
612.21	3012.56
612.40	2688.98
612.59	2791.38
612.79	2785.24
612.98	2916.31
613.17	3272.65
613.36	2983.89
613.55	2998.23
613.74	2873.30
613.93	2985.94
614.13	3084.24
614.32	3030.99
614.51	2967.51
614.70	2932.69
614.89	2938.84
615.08	2992.08
615.28	3250.13
615.47	2815.96
615.66	2992.08
615.85	2899.92
616.04	2985.94
616.23	2975.70
616.42	3053.52
616.62	2897.88
616.81	2871.25
617.00	3065.81
617.19	3033.04
617.38	2887.64
617.57	2897.88
617.76	3069.91
617.95	3133.39
618.15	2996.18
618.34	3127.25
618.53	2793.43
618.72	3135.44
618.91	3000.27
619.10	2920.40
619.29	3002.32
619.48	3059.67
619.68	2723.80
619.87	2854.87
620.06	2707.41
620.25	3153.87
620.44	2881.49
620.63	2826.20
620.82	3033.04
621.01	2936.79
621.20	2916.31
621.39	2850.77
621.59	3047.38
621.78	2918.36
621.97	2961.36
622.16	2961.36
622.35	3061.71
622.54	3137.49
622.73	3020.75
622.92	2670.55
623.11	3129.30
623.30	2975.70
623.49	3041.23
623.68	2805.72
623.88	3239.89
624.07	2879.44
624.26	2779.09
624.45	2883.54
624.64	2940.88
624.83	3096.53
625.02	2813.91
625.21	2951.12
625.40	3041.23
625.59	3221.45
625.78	2881.49
625.97	2955.22
626.16	3215.31
626.35	3200.98
626.54	2922.45
626.74	3033.04
626.93	2928.60
627.12	2918.36
627.31	3080.14
627.50	2809.81
627.69	3180.50
627.88	2846.68
628.07	2826.20
628.26	2602.97
628.45	2912.21
628.64	2770.90
628.83	2858.96
629.02	2815.96
629.21	3063.76
629.40	3016.66
629.59	2832.34
629.78	2861.01
629.97	3014.61
630.16	2990.03
630.35	2834.39
630.54	2912.21
630.73	2842.58
630.92	2895.83
631.11	2742.23
631.30	2963.41
631.49	3129.30
631.68	2940.88
631.87	2940.88
632.06	2766.81
632.25	3360.72
632.44	3033.04
632.63	2830.29
632.82	2805.72
633.01	2916.31
633.20	2998.23
633.39	2863.06
633.58	2705.37
633.77	3020.75
633.96	3084.24
634.15	2990.03
634.34	2944.98
634.53	3037.14
634.72	2949.08
634.91	2760.66
635.10	2920.40
635.29	3196.88
635.48	3030.99
635.67	2715.61
635.86	2736.09
636.05	3278.80
636.24	3000.27
636.43	2883.54
636.62	2928.60
636.81	2678.74
637.00	2973.65
637.19	2873.30
637.38	2844.63
637.57	2975.70
637.76	3035.09
637.95	3055.57
638.14	2840.53
638.33	2979.79
638.52	3055.57
638.71	2731.99
638.89	2725.85
639.08	3456.97
639.27	3149.78
639.46	3035.09
639.65	3348.43
639.84	3358.67
640.03	3534.79
640.22	3284.94
640.41	3295.18
640.60	3041.23
640.79	3096.53
640.98	2987.99
641.17	3035.09
641.36	3174.35
641.55	3133.39
641.74	2766.81
641.92	2783.19
642.11	2770.90
642.30	2979.79
642.49	2787.29
642.68	2828.24
642.87	3096.53
643.06	3117.01
643.25	2721.75
643.44	2768.85
643.63	2906.07
643.82	3207.12
644.00	2746.33
644.19	2836.44
644.38	2797.53
644.57	3108.82
644.76	2836.44
644.95	2916.31
645.14	3030.99
645.33	2959.31
645.52	2994.13
645.71	2740.18
645.89	2752.47
646.08	2959.31
646.27	2885.59
646.46	3078.10
646.65	2740.18
646.84	2957.27
647.03	2803.67
647.22	3041.23
647.40	3012.56
647.59	2926.55
647.78	2680.79
647.97	2891.73
648.16	2871.25
648.35	3209.17
648.54	3086.29
648.73	2770.90
648.91	3117.01
649.10	2985.94
649.29	2887.64
649.48	2818.00
649.67	3065.81
649.86	3024.85
650.05	2885.59
650.23	2965.46
650.42	2863.06
650.61	3282.89
650.80	3026.90
650.99	3098.58
651.18	3155.92
651.36	3198.93
651.55	2820.05
651.74	3041.23
651.93	2914.26
652.12	2885.59
652.31	2893.78
652.49	2973.65
652.68	2990.03
652.87	3192.78
653.06	3022.80
653.25	3106.77
653.44	2920.40
653.62	3262.41
653.81	2934.74
654.00	2936.79
654.19	3145.68
654.38	3319.76
654.56	3018.71
654.75	2838.48
654.94	3143.63
655.13	3043.28
655.32	2813.91
655.51	2910.16
655.69	2822.10
655.88	3172.30
656.07	2684.89
656.26	2842.58
656.45	2752.47
656.63	3051.47
656.82	2828.24
657.01	3155.92
657.20	2897.88
657.38	3182.54
657.57	2785.24
657.76	2699.22
657.95	3151.82
658.14	2891.73
658.32	2922.45
658.51	2775.00
658.70	3030.99
658.89	3024.85
659.08	2916.31
659.26	3037.14
659.45	2832.34
659.64	3067.86
659.83	2787.29
660.01	3211.22
660.20	3055.57
660.39	3266.51
660.58	2602.97
660.76	2996.18
660.95	2717.65
661.14	2992.08
661.33	2746.33
661.51	2807.77
661.70	2897.88
661.89	2996.18
662.08	2924.50
662.26	2766.81
662.45	2791.38
662.64	3315.66
662.83	2969.55
663.01	2742.23
663.20	2981.84
663.39	3254.22
663.58	2865.11
663.76	2818.00
663.95	3160.02
664.14	2777.05
664.32	2949.08
664.51	2775.00
664.70	2719.70
664.89	3008.47
665.07	2691.03
665.26	3090.38
665.45	2826.20
665.64	3057.62
665.82	2885.59
666.01	2979.79
666.20	2801.62
666.38	3139.54
666.57	3143.63
666.76	4734.90
666.95	11118.42
667.13	17637.11
667.32	21685.94
667.51	24047.25
667.69	25130.62
667.88	21155.52
668.07	15228.70
668.25	13100.86
668.44	11267.92
668.63	9693.04
668.81	8517.50
669.00	7466.89
669.19	6705.05
669.38	5904.29
669.56	4999.09
669.75	4315.07
669.94	3915.72
670.12	3401.68
670.31	3145.68
670.50	3131.34
670.68	3117.01
670.87	3014.61
671.06	2820.05
671.24	3004.37
671.43	3184.59
671.62	3014.61
671.80	2838.48
671.99	2975.70
672.18	2996.18
672.36	3168.21
672.55	2924.50
672.74	2895.83
672.92	2938.84
673.11	3076.05
673.29	2717.65
673.48	3014.61
673.67	2944.98
673.85	3192.78
674.04	2770.90
674.23	3004.37
674.41	3213.26
674.60	2781.14
674.79	2754.52
674.97	2703.32
675.16	3119.06
675.34	3125.20
675.53	2863.06
675.72	2942.93
675.90	3321.81
676.09	2959.31
676.28	2963.41
676.46	2731.99
676.65	3065.81
676.83	2842.58
677.02	2922.45
677.21	2879.44
677.39	3035.09
677.58	2955.22
677.77	2875.35
677.95	2854.87
678.14	2875.35
678.32	2887.64
678.51	2852.82
678.70	3155.92
678.88	2901.97
679.07	3018.71
679.25	2930.64
679.44	2858.96
679.63	2822.10
679.81	2936.79
680.00	3098.58
680.18	2975.70
680.37	3231.69
680.55	3039.19
680.74	2711.51
680.93	2607.06
681.11	3045.33
681.30	2877.40
681.48	2901.97
681.67	2863.06
681.85	3016.66
682.04	2854.87
682.23	3098.58
682.41	3043.28
682.60	2871.25
682.78	3000.27
682.97	2854.87
683.15	2912.21
683.34	3016.66
683.53	3205.07
683.71	2600.92
683.90	2893.78
684.08	3246.03
684.27	2885.59
684.45	2983.89
684.64	3065.81
684.82	2928.60
685.01	3127.25
685.19	2891.73
685.38	3084.24
685.57	2969.55
685.75	2887.64
685.94	2787.29
686.12	2799.57
686.31	2914.26
686.49	3237.84
686.68	2709.46
686.86	2938.84
687.05	2961.36
687.23	3176.40
687.42	2856.92
687.60	2727.89
687.79	3074.00
687.97	3205.07
688.16	2955.22
688.34	3010.51
688.53	2656.22
688.71	3094.48
688.90	3182.54
689.08	2887.64
689.27	2766.81
689.45	3123.15
689.64	2904.02
689.82	2891.73
690.01	3035.09
690.19	3033.04
690.38	2875.35
690.56	3043.28
690.75	2791.38
690.93	2879.44
691.12	2783.19
691.30	2901.97
691.49	3014.61
691.67	2992.08
691.86	3137.49
692.04	2852.82
692.23	2881.49
692.41	2936.79
692.60	3168.21
692.78	3041.23
692.97	3014.61
693.15	3119.06
693.34	3090.38
693.52	3051.47
693.71	2953.17
693.89	2928.60
694.08	2711.51
694.26	2934.74
694.44	3086.29
694.63	3024.85
694.81	2740.18
695.00	2791.38
695.18	3123.15
695.37	3313.61
695.55	2908.12
695.74	2875.35
695.92	2805.72
696.10	3280.85
696.29	2746.33
696.47	2899.92
696.66	2783.19
696.84	2820.05
697.03	2912.21
697.21	3080.14
697.40	4472.76
697.58	3127.25
697.76	2863.06
697.95	2750.42
698.13	2770.90
698.32	2887.64
698.50	2879.44
698.68	2873.30
698.87	3030.99
699.05	3106.77
699.24	2920.40
699.42	2754.52
699.61	2994.13
699.79	2949.08
699.97	2840.53
700.16	2748.37
700.34	2785.24
700.53	2951.12
700.71	3039.19
700.89	2930.64
701.08	2865.11
701.26	2985.94
701.45	3241.93
701.63	2736.09
701.81	2918.36
702.00	2891.73
702.18	2953.17
702.37	2742.23
702.55	3184.59
702.73	3065.81
702.92	2748.37
703.10	3127.25
703.28	3092.43
703.47	2846.68
703.65	3059.67
703.84	2957.27
704.02	2879.44
704.20	3264.46
704.39	2818.00
704.57	2793.43
704.75	3125.20
704.94	2998.23
705.12	2996.18
705.30	3428.30
705.49	6573.98
705.67	12832.57
705.86	17991.41
706.04	20782.79
706.22	23033.50
706.41	22226.60
706.59	16856.83
706.77	13137.72
706.96	11425.62
707.14	10608.48
707.32	9099.13
707.51	7899.02
707.69	6307.74
707.87	5400.49
708.06	4540.35
708.24	3966.92
708.42	3631.05
708.61	3747.78
708.79	2879.44
708.97	3000.27
709.16	3096.53
709.34	3006.42
709.52	2926.55
709.71	2904.02
709.89	3155.92
710.07	2901.97
710.26	2770.90
710.44	2953.17
710.62	3170.26
710.80	3004.37
710.99	2959.31
711.17	2947.03
711.35	2832.34
711.54	2918.36
711.72	3139.54
711.90	2936.79
712.09	2967.51
712.27	2951.12
712.45	2969.55
712.63	2799.57
712.82	2899.92
713.00	2959.31
713.18	3094.48
713.37	3065.81
713.55	3190.74
713.73	3051.47
713.91	2959.31
714.10	2865.11
714.28	2926.55
714.46	3014.61
714.65	2914.26
714.83	2885.59
715.01	3059.67
715.19	2975.70
715.38	2838.48
715.56	2877.40
715.74	2852.82
715.92	2922.45
716.11	3090.38
716.29	2609.11
716.47	2985.94
716.65	2992.08
716.84	2734.04
717.02	2930.64
717.20	2754.52
717.38	2850.77
717.57	3051.47
717.75	2897.88
717.93	2848.72
718.11	3045.33
718.30	2731.99
718.48	2885.59
718.66	3233.74
718.84	3098.58
719.03	2826.20
719.21	2746.33
719.39	3327.95
719.57	3078.10
719.75	2996.18
719.94	2791.38
720.12	2858.96
720.30	3020.75
720.48	3000.27
720.67	2887.64
720.85	2830.29
721.03	2891.73
721.21	2750.42
721.39	2955.22
721.58	3106.77
721.76	3020.75
721.94	3010.51
722.12	2912.21
722.30	3256.27
722.49	2910.16
722.67	2871.25
722.85	2947.03
723.03	2693.08
723.21	2906.07
723.40	2918.36
723.58	3016.66
723.76	3121.10
723.94	3145.68
724.12	2893.78
724.30	3164.11
724.49	3207.12
724.67	2811.86
724.85	2969.55
725.03	2660.31
725.21	3063.76
725.40	3219.41
725.58	2824.15
725.76	3090.38
725.94	3002.32
726.12	2809.81
726.30	2852.82
726.49	2897.88
726.67	2861.01
726.85	3112.91
727.03	3346.38
727.21	4423.61
727.39	5447.60
727.57	5844.90
727.76	6272.93
727.94	6336.42
728.12	5654.44
728.30	4667.32
728.48	4505.53
728.66	4073.41
728.84	3983.30
729.03	3508.17
729.21	3332.05
729.39	3254.22
729.57	3057.62
729.75	3041.23
729.93	3014.61
730.11	2854.87
730.30	2916.31
730.48	2871.25
730.66	2942.93
730.84	3002.32
731.02	2932.69
731.20	2811.86
731.38	2965.46
731.56	2779.09
731.74	2688.98
731.93	2959.31
732.11	2901.97
732.29	2887.64
732.47	3065.81
732.65	3059.67
732.83	3086.29
733.01	3004.37
733.19	2818.00
733.37	3035.09
733.56	2971.60
733.74	2840.53
733.92	3174.35
734.10	2936.79
734.28	3008.47
734.46	2719.70
734.64	2889.68
734.82	2885.59
735.00	2777.05
735.18	2830.29
735.36	2947.03
735.54	2996.18
735.73	2844.63
735.91	2932.69
736.09	3233.74
736.27	2963.41
736.45	2920.40
736.63	2600.92
736.81	2873.30
736.99	3149.78
737.17	3088.34
737.35	2871.25
737.53	3035.09
737.71	2934.74
737.89	3069.91
738.07	2818.00
738.25	2906.07
738.43	2750.42
738.61	2840.53
738.80	2795.48
738.98	2822.10
739.16	2844.63
739.34	2818.00
739.52	3088.34
739.70	2957.27
739.88	3057.62
740.06	3067.86
740.24	2598.87
740.42	3129.30
740.60	2668.50
740.78	2885.59
740.96	2734.04
741.14	3035.09
741.32	2971.60
741.50	2750.42
741.68	3094.48
741.86	3192.78
742.04	2691.03
742.22	2795.48
742.40	2918.36
742.58	3049.43
742.76	2858.96
742.94	3059.67
743.12	2621.40
743.30	3012.56
743.48	3092.43
743.66	2744.28
743.84	2889.68
744.02	2973.65
744.20	2967.51
744.38	2836.44
744.56	2918.36
744.74	3198.93
744.92	3074.00
745.10	3059.67
745.28	2881.49
745.46	3278.80
745.64	3024.85
745.82	2934.74
746.00	2877.40
746.18	3008.47
746.36	2883.54
746.54	2881.49
746.72	2805.72
746.90	2836.44
747.08	3248.08
747.26	2928.60
747.44	2918.36
747.62	3022.80
747.80	3061.71
747.98	2963.41
748.15	2795.48
748.33	3274.70
748.51	3000.27
748.69	2930.64
748.87	2793.43
749.05	2920.40
749.23	2891.73
749.41	2883.54
749.59	2834.39
749.77	3221.45
749.95	2926.55
750.13	2799.57
750.31	3080.14
750.49	2869.20
750.67	3114.96
750.85	3067.86
751.03	2842.58
751.20	3381.20
751.38	2891.73
751.56	2891.73
751.74	2895.83
751.92	2906.07
752.10	2768.85
752.28	3057.62
752.46	2858.96
752.64	3039.19
752.82	2936.79
753.00	2994.13
753.18	2797.53
753.35	2955.22
753.53	2942.93
753.71	2811.86
753.89	2963.41
754.07	3033.04
754.25	3196.88
754.43	2936.79
754.61	2697.17
754.79	2987.99
754.97	3028.95
755.14	3119.06
755.32	2709.46
755.50	2985.94
755.68	3026.90
755.86	2815.96
756.04	2867.16
756.22	2688.98
756.40	3141.58
756.57	3188.69
756.75	2805.72
756.93	3229.65
757.11	3088.34
757.29	2729.94
757.47	2795.48
757.65	2688.98
757.82	2605.02
758.00	2766.81
758.18	2775.00
758.36	2871.25
758.54	3248.08
758.72	2709.46
758.90	2987.99
759.07	3059.67
759.25	2856.92
759.43	2977.75
759.61	2688.98
759.79	4317.12
759.97	3125.20
760.15	2824.15
760.32	2863.06
760.50	3020.75
760.68	3286.99
760.86	2715.61
761.04	3096.53
761.22	3108.82
761.39	3006.42
761.57	2963.41
761.75	2846.68
761.93	2994.13
762.11	2963.41
762.28	2979.79
762.46	2797.53
762.64	3182.54
762.82	2715.61
763.00	2801.62
763.18	3143.63
763.35	2762.71
763.53	3090.38
763.71	2940.88
763.89	2897.88
764.07	3018.71
764.24	2951.12
764.42	2979.79
764.60	2856.92
764.78	3104.72
764.96	3184.59
765.13	3076.05
765.31	2772.95
765.49	3143.63
765.67	2828.24
765.84	2834.39
766.02	2781.14
766.20	2738.13
766.38	3059.67
766.56	2975.70
766.73	3030.99
766.91	2990.03
767.09	2889.68
767.27	3018.71
767.44	2748.37
767.62	3053.52
767.80	3076.05
767.98	2861.01
768.15	2893.78
768.33	3131.34
768.51	3127.25
768.69	3012.56
768.87	2869.20
769.04	2994.13
769.22	3344.33
769.40	3010.51
769.58	3065.81
769.75	3112.91
769.93	3188.69
770.11	2949.08
770.28	2801.62
770.46	3082.19
770.64	3033.04
770.82	2840.53
770.99	2805.72
771.17	3014.61
771.35	2881.49
771.53	2910.16
771.70	2889.68
771.88	3065.81
772.06	2965.46
772.23	2914.26
772.41	2994.13
772.59	2965.46
772.77	2799.57
772.94	2955.22
773.12	2944.98
773.30	2918.36
773.47	2977.75
773.65	2764.76
773.83	2971.60
774.01	2961.36
774.18	2695.13
774.36	2955.22
774.54	2748.37
774.71	3094.48
774.89	2756.57
775.07	2723.80
775.24	2846.68
775.42	2912.21
775.60	3313.61
775.78	2807.77
775.95	2684.89
776.13	2654.17
776.31	2688.98
776.48	3053.52
776.66	3164.11
776.84	2891.73
777.01	2920.40
777.19	2801.62
777.37	2768.85
777.54	3147.73
777.72	3317.71
777.90	2977.75
778.07	2760.66
778.25	3559.37
778.43	3125.20
778.60	2813.91
778.78	2981.84
778.96	3299.28
779.13	2789.33
779.31	2994.13
779.49	2895.83
779.66	2967.51
779.84	2928.60
780.01	2809.81
780.19	2772.95
780.37	3188.69
780.54	3125.20
780.72	2668.50
780.90	2867.16
781.07	2969.55
781.25	2832.34
781.43	3018.71
781.60	2777.05
781.78	3162.06
781.95	3024.85
782.13	2820.05
782.31	2887.64
782.48	2715.61
782.66	2936.79
782.83	3078.10
783.01	2942.93
783.19	3069.91
783.36	2844.63
783.54	2727.89
783.72	2881.49
783.89	2838.48
784.07	3014.61
784.24	2944.98
784.42	3035.09
784.60	3047.38
784.77	3000.27
784.95	2609.11
785.12	2811.86
785.30	2979.79
785.47	2797.53
785.65	2779.09
785.83	2881.49
786.00	2959.31
786.18	3076.05
786.35	2779.09
786.53	2811.86
786.71	3123.15
786.88	3018.71
787.06	2934.74
787.23	2944.98
787.41	2824.15
787.58	2947.03
787.76	2783.19
787.94	2863.06
788.11	3006.42
788.29	2826.20
788.46	2775.00
788.64	2697.17
788.81	2889.68
788.99	2830.29
789.16	2795.48
789.34	2770.90
789.52	2883.54
789.69	2877.40
789.87	2680.79
790.04	2852.82
790.22	2942.93
790.39	3340.24
790.57	2797.53
790.74	2754.52
790.92	3174.35
791.09	2748.37
791.27	2918.36
791.44	2961.36
791.62	2965.46
791.79	3137.49
791.97	2869.20
792.15	3221.45
792.32	3041.23
792.50	3022.80
792.67	3094.48
792.85	3141.58
793.02	3047.38
793.20	2852.82
793.37	2775.00
793.55	2807.77
793.72	2754.52
793.90	3104.72
794.07	2832.34
794.25	2746.33
794.42	3057.62
794.60	2996.18
794.77	2869.20
794.95	2967.51
795.12	3059.67
795.30	2967.51
795.47	2590.68
795.65	3192.78
795.82	3041.23
796.00	2838.48
796.17	2912.21
796.34	2777.05
796.52	3063.76
796.69	3121.10
796.87	2994.13
797.04	2965.46
797.22	3213.26
797.39	3084.24
797.57	3008.47
797.74	2926.55
797.92	3080.14
798.09	2865.11
798.27	3172.30
798.44	2797.53
798.62	2813.91
798.79	3026.90
798.96	2983.89
799.14	2881.49
799.31	3448.78
799.49	2967.51
799.66	2850.77
799.84	2879.44
800.01	2731.99
800.19	3043.28
800.36	2713.56
800.53	2877.40
800.71	3139.54
800.88	3227.60
801.06	2830.29
801.23	2820.05
801.41	2932.69
801.58	2883.54
801.75	2863.06
801.93	2942.93
802.10	3166.16
802.28	2977.75
802.45	2848.72
802.63	2983.89
802.80	3227.60
802.97	2916.31
803.15	2924.50
803.32	2914.26
803.50	2873.30
803.67	2877.40
803.84	2797.53
804.02	3002.32
804.19	2869.20
804.37	2543.58
804.54	2699.22
804.71	2848.72
804.89	2963.41
805.06	2813.91
805.24	2691.03
805.41	2729.94
805.58	2846.68
805.76	3440.59
805.93	2867.16
806.10	3014.61
806.28	3106.77
806.45	3006.42
806.63	3028.95
806.80	3035.09
806.97	2996.18
807.15	2981.84
807.32	2875.35
807.49	2887.64
807.67	2799.57
807.84	3074.00
808.01	2691.03
808.19	3096.53
808.36	3325.90
808.54	2850.77
808.71	2830.29
808.88	2889.68
809.06	3160.02
809.23	3278.80
809.40	2863.06
809.58	2897.88
809.75	2942.93
809.92	2658.26
810.10	3157.97
810.27	2887.64
810.44	3022.80
810.62	3026.90
810.79	2887.64
810.96	2805.72
811.14	2850.77
811.31	3053.52
811.48	2985.94
811.66	2850.77
811.83	3166.16
812.00	3106.77
812.18	2987.99
812.35	3123.15
812.52	2971.60
812.69	2840.53
812.87	2844.63
813.04	2758.61
813.21	2924.50
813.39	2899.92
813.56	2746.33
813.73	3100.62
813.91	2750.42
814.08	3018.71
814.25	2901.97
814.42	2688.98
814.60	2912.21
814.77	2887.64
814.94	2758.61
815.12	2922.45
815.29	3243.98
815.46	2854.87
815.63	2889.68
815.81	2811.86
815.98	3008.47
816.15	2967.51
816.33	2842.58
816.50	2863.06
816.67	2934.74
816.84	2932.69
817.02	2727.89
817.19	2822.10
817.36	3020.75
817.53	3016.66
817.71	2756.57
817.88	2920.40
818.05	2934.74
818.22	2957.27
818.40	3096.53
818.57	2764.76
818.74	3049.43
818.91	3010.51
819.09	3008.47
819.26	2987.99
819.43	2830.29
819.60	2885.59
819.78	3004.37
819.95	2938.84
820.12	2772.95
820.29	3145.68
820.47	3092.43
820.64	2811.86
820.81	2746.33
820.98	2844.63
821.15	2836.44
821.33	2930.64
821.50	2701.27
821.67	3084.24
821.84	2803.67
822.02	2836.44
822.19	3104.72
822.36	2856.92
822.53	2844.63
822.70	2631.64
822.88	2875.35
823.05	3112.91
823.22	2938.84
823.39	2856.92
823.56	2959.31
823.74	3270.61
823.91	2738.13
824.08	2727.89
824.25	2826.20
824.42	3299.28
824.60	2697.17
824.77	2983.89
824.94	2967.51
825.11	3055.57
825.28	2711.51
825.45	2967.51
825.63	3012.56
825.80	2848.72
825.97	2983.89
826.14	2924.50
826.31	2684.89
826.48	3143.63
826.66	2795.48
826.83	2820.05
827.00	2940.88
827.17	2811.86
827.34	2883.54
827.51	2793.43
827.69	2901.97
827.86	2756.57
828.03	2887.64
828.20	2861.01
828.37	2822.10
828.54	3061.71
828.71	2766.81
828.89	3012.56
829.06	3055.57
829.23	3164.11
829.40	2731.99
829.57	2738.13
829.74	3127.25
829.91	2901.97
830.09	2777.05
830.26	3002.32
830.43	3266.51
830.60	2891.73
830.77	3020.75
830.94	3080.14
831.11	3078.10
831.28	2893.78
831.46	2920.40
831.63	2844.63
831.80	3114.96
831.97	2787.29
832.14	2885.59
832.31	2834.39
832.48	2953.17
832.65	3143.63
832.82	2926.55
832.99	2963.41
833.17	2770.90
833.34	3184.59
833.51	2875.35
833.68	2738.13
833.85	3149.78
834.02	2779.09
834.19	2699.22
834.36	2754.52
834.53	2936.79
834.70	3168.21
834.87	2985.94
835.04	2674.65
835.22	2807.77
835.39	2871.25
835.56	2656.22
835.73	2756.57
835.90	3143.63
836.07	2783.19
836.24	2848.72
836.41	2637.78
836.58	2797.53
836.75	3168.21
836.92	2695.13
837.09	2668.50
837.26	3065.81
837.43	3028.95
837.60	2797.53
837.77	2744.28
837.94	3090.38
838.12	3092.43
838.29	2633.69
838.46	2641.88
838.63	2750.42
838.80	3188.69
838.97	2795.48
839.14	2695.13
839.31	3037.14
839.48	3045.33
839.65	2693.08
839.82	2785.24
839.99	3123.15
840.16	3035.09
840.33	2699.22
840.50	2811.86
840.67	2842.58
840.84	2664.41
841.01	2721.75
841.18	2691.03
841.35	2885.59
841.52	3035.09
841.69	3026.90
841.86	2719.70
842.03	2928.60
842.20	3121.10
842.37	2789.33
842.54	2717.65
842.71	2897.88
842.88	2688.98
843.05	2748.37
843.22	2699.22
843.39	3078.10
843.56	2920.40
843.73	2775.00
843.90	2805.72
844.07	3006.42
844.24	3127.25
844.41	2813.91
844.58	2775.00
844.75	2949.08
844.92	3076.05
845.09	2727.89
845.26	2678.74
845.43	3033.04
845.60	2801.62
845.77	2908.12
845.94	2707.41
846.10	3172.30
846.27	2693.08
846.44	2637.78
846.61	2609.11
846.78	3065.81
846.95	3076.05
847.12	2672.60
847.29	2699.22
847.46	2832.34
847.63	3094.48
847.80	2711.51
847.97	2777.05
848.14	3459.02
848.31	2963.41
848.48	2562.01
848.65	2752.47
848.82	2922.45
848.98	3373.00
849.15	2916.31
849.32	2895.83
849.49	3194.83
849.66	2912.21
849.83	2654.17
850.00	2734.04
850.17	3098.58
850.34	2854.87
850.51	2621.40
850.68	2725.85
850.85	3280.85
851.01	3057.62
851.18	2742.23
851.35	2738.13
851.52	2973.65
851.69	3260.37
851.86	2688.98
852.03	2648.02
852.20	2955.22
852.37	2936.79
852.53	2668.50
852.70	2621.40
852.87	3053.52
853.04	3086.29
853.21	2684.89
853.38	2961.36
853.55	3198.93
853.72	3209.17
853.89	2609.11
854.05	2713.56
854.22	2877.40
854.39	2852.82
854.56	2684.89
854.73	2854.87
854.90	2836.44
855.07	2914.26
855.23	2619.35
855.40	2705.37
855.57	3004.37
855.74	2664.41
855.91	3000.27
856.08	2607.06
856.25	2699.22
856.41	2895.83
856.58	2729.94
856.75	2734.04
856.92	2848.72
857.09	3135.44
857.26	2648.02
857.42	2805.72
857.59	3076.05
857.76	2977.75
857.93	2815.96
858.10	2828.24
858.27	2789.33
858.43	3057.62
858.60	2785.24
858.77	2648.02
858.94	2875.35
859.11	3133.39
859.27	2832.34
859.44	2674.65
859.61	3229.65
859.78	3063.76
859.95	2768.85
860.12	2721.75
860.28	3377.10
860.45	3325.90
860.62	2670.55
860.79	2799.57
860.95	2863.06
861.12	2758.61
861.29	2643.93
861.46	2682.84
861.63	2922.45
861.79	3006.42
861.96	2619.35
862.13	2738.13
862.30	3315.66
862.47	2897.88
862.63	2703.32
862.80	2781.14
862.97	3117.01
863.14	3014.61
863.30	2809.81
863.47	2627.54
863.64	3205.07
863.81	2979.79
863.97	2600.92
864.14	2815.96
864.31	2957.27
864.48	3024.85
864.65	2715.61
864.81	2809.81
864.98	2985.94
865.15	3053.52
865.32	2815.96
865.48	2826.20
865.65	3299.28
865.82	3004.37
865.98	2752.47
866.15	2807.77
866.32	2932.69
866.49	2826.20
866.65	2842.58
866.82	2793.43
866.99	2985.94
867.16	2832.34
867.32	2760.66
867.49	2699.22
867.66	2965.46
867.83	2875.35
867.99	2666.46
868.16	2820.05
868.33	2789.33
868.49	3024.85
868.66	2781.14
868.83	2877.40
868.99	2977.75
869.16	2969.55
869.33	2824.15
869.50	2768.85
869.66	3008.47
869.83	2883.54
870.00	2658.26
870.16	2832.34
870.33	2930.64
870.50	3069.91
870.66	2824.15
870.83	2731.99
871.00	2977.75
871.17	3094.48
871.33	2750.42
871.50	2779.09
871.67	3002.32
871.83	2676.70
872.00	2818.00
872.17	2721.75
872.33	3170.26
872.50	3188.69
872.67	2736.09
872.83	2762.71
873.00	2994.13
873.17	3041.23
873.33	2752.47
873.50	2791.38
873.67	2854.87
873.83	2840.53
874.00	2725.85
874.16	2869.20
874.33	2961.36
874.50	2709.46
874.66	2668.50
874.83	2895.83
875.00	3164.11
875.16	3041.23
875.33	2795.48
875.50	2557.91
875.66	2879.44
875.83	3037.14
875.99	2795.48
876.16	2910.16
876.33	2883.54
876.49	2904.02
876.66	2842.58
876.83	2758.61
876.99	2678.74
877.16	2926.55
877.32	2707.41
877.49	2822.10
877.66	3069.91
877.82	3137.49
877.99	2842.58
878.15	2985.94
878.32	2992.08
878.49	2932.69
878.65	2754.52
878.82	3014.61
878.98	2871.25
879.15	3151.82
879.32	2924.50
879.48	2924.50
879.65	2951.12
879.81	2875.35
879.98	2813.91
880.15	2758.61
880.31	3067.86
880.48	2828.24
880.64	2858.96
880.81	2928.60
880.97	3303.37
881.14	3155.92
881.31	2680.79
881.47	2889.68
881.64	2942.93
881.80	2754.52
881.97	2912.21
882.13	2693.08
882.30	2762.71
882.47	2852.82
882.63	2803.67
882.80	2734.04
882.96	2912.21
883.13	3143.63
883.29	2709.46
883.46	2729.94
883.62	3307.47
883.79	2994.13
883.95	2910.16
884.12	2701.27
884.29	3174.35
884.45	3057.62
884.62	2842.58
884.78	2691.03
884.95	3260.37
885.11	2777.05
885.28	2842.58
885.44	2822.10
885.61	3133.39
885.77	3184.59
885.94	2854.87
886.10	2807.77
886.27	2990.03
886.43	3256.27
886.60	2875.35
886.76	2734.04
886.93	2775.00
887.09	2990.03
887.26	2615.26
887.42	2830.29
887.59	3119.06
887.75	3315.66
887.92	2918.36
888.08	2854.87
888.25	3250.13
888.41	3200.98
888.58	2752.47
888.74	2709.46
888.91	2789.33
>>>>>End Processed Spectral Data<<<<<
