SpectraSuite Data File
++++++++++++++++++++++++++++++++++++
Date: Thu May 05 21:11:06 CEST 2016
User: root
Dark Spectrum Present: No
Reference Spectrum Present: No
Number of Sampled Component Spectra: 1
Spectrometers: USB4C02835
Integration Time (usec): 100000 (USB4C02835)
Spectra Averaged: 1 (USB4C02835)
Boxcar Smoothing: 0 (USB4C02835)
Correct for Electrical Dark: No (USB4C02835)
Strobe/Lamp Enabled: No (USB4C02835)
Correct for Detector Non-linearity: No (USB4C02835)
Correct for Stray Light: No (USB4C02835)
Number of Pixels in Processed Spectrum: 3648
>>>>>Begin Processed Spectral Data<<<<<
177.47	2162.66
177.69	2162.66
177.91	2162.66
178.13	2113.50
178.36	2156.51
178.58	2768.85
178.80	2879.44
179.02	2709.46
179.24	2760.66
179.46	2607.06
179.68	2676.70
179.90	2992.08
180.13	2996.18
180.35	2564.06
180.57	2676.70
180.79	3080.14
181.01	2961.36
181.23	2731.99
181.45	2756.57
181.67	3100.62
181.90	3145.68
182.12	2766.81
182.34	2471.90
182.56	3114.96
182.78	2998.23
183.00	2717.65
183.22	2705.37
183.44	2652.12
183.66	3495.88
183.89	2846.68
184.11	2703.32
184.33	3047.38
184.55	3166.16
184.77	2652.12
184.99	2678.74
185.21	2930.64
185.43	3397.58
185.65	2652.12
185.87	2650.07
186.10	3375.05
186.32	3377.10
186.54	2846.68
186.76	2787.29
186.98	3176.40
187.20	2947.03
187.42	2674.65
187.64	2566.10
187.86	3018.71
188.08	3153.87
188.30	2629.59
188.52	2748.37
188.75	3184.59
188.97	3151.82
189.19	2627.54
189.41	2617.30
189.63	3035.09
189.85	2947.03
190.07	2574.30
190.29	2570.20
190.51	3045.33
190.73	2729.94
190.95	2895.83
191.17	2705.37
191.39	2762.71
191.61	2885.59
191.84	2691.03
192.06	2772.95
192.28	2762.71
192.50	3475.40
192.72	2766.81
192.94	2766.81
193.16	3117.01
193.38	3018.71
193.60	2641.88
193.82	2826.20
194.04	3137.49
194.26	3117.01
194.48	2686.94
194.70	2713.56
194.92	2846.68
195.14	3055.57
195.36	2648.02
195.58	2731.99
195.80	2930.64
196.02	2936.79
196.24	2705.37
196.46	2779.09
196.69	2881.49
196.91	3405.77
197.13	2715.61
197.35	2756.57
197.57	3145.68
197.79	3117.01
198.01	2742.23
198.23	2748.37
198.45	3143.63
198.67	2846.68
198.89	2596.82
199.11	2813.91
199.33	2760.66
199.55	2600.92
199.77	2693.08
199.99	2805.72
200.21	2916.31
200.43	3074.00
200.65	2633.69
200.87	2508.76
201.09	2985.94
201.31	2944.98
201.53	2711.51
201.75	2807.77
201.97	3018.71
202.19	3084.24
202.41	2815.96
202.63	2893.78
202.85	3114.96
203.07	3018.71
203.29	2779.09
203.51	2625.50
203.73	2815.96
203.95	3483.59
204.17	2643.93
204.39	2830.29
204.61	2912.21
204.83	2901.97
205.05	2809.81
205.27	2746.33
205.49	3387.34
205.71	3002.32
205.93	2570.20
206.15	2615.26
206.37	3043.28
206.59	2891.73
206.81	2611.16
207.03	2529.24
207.25	2787.29
207.47	2985.94
207.69	2639.83
207.91	3002.32
208.13	3274.70
208.34	2936.79
208.56	2639.83
208.78	2705.37
209.00	2910.16
209.22	2861.01
209.44	2623.45
209.66	2693.08
209.88	3010.51
210.10	2944.98
210.32	2670.55
210.54	2781.14
210.76	2963.41
210.98	3207.12
211.20	2541.53
211.42	2836.44
211.64	3172.30
211.86	3053.52
212.08	2748.37
212.30	2752.47
212.52	2885.59
212.74	3092.43
212.96	2752.47
213.17	2785.24
213.39	3051.47
213.61	3227.60
213.83	2584.54
214.05	2551.77
214.27	3108.82
214.49	2772.95
214.71	2674.65
214.93	2740.18
215.15	2944.98
215.37	3114.96
215.59	2519.00
215.81	2684.89
216.03	3215.31
216.24	2990.03
216.46	2648.02
216.68	2670.55
216.90	3104.72
217.12	3141.58
217.34	2656.22
217.56	2822.10
217.78	3270.61
218.00	3035.09
218.22	2795.48
218.44	2742.23
218.66	2990.03
218.87	3344.33
219.09	2684.89
219.31	2723.80
219.53	3014.61
219.75	2934.74
219.97	2752.47
220.19	2641.88
220.41	3059.67
220.63	3256.27
220.85	2697.17
221.06	2729.94
221.28	3254.22
221.50	3090.38
221.72	2740.18
221.94	2664.41
222.16	2947.03
222.38	3205.07
222.60	2609.11
222.82	2772.95
223.03	3108.82
223.25	2746.33
223.47	2629.59
223.69	2934.74
223.91	3162.06
224.13	3065.81
224.35	2582.49
224.57	2856.92
224.78	3028.95
225.00	2858.96
225.22	2799.57
225.44	2656.22
225.66	3074.00
225.88	2901.97
226.10	2791.38
226.32	2752.47
226.53	3254.22
226.75	2906.07
226.97	2684.89
227.19	2723.80
227.41	2873.30
227.63	2875.35
227.85	2551.77
228.06	2707.41
228.28	2973.65
228.50	3166.16
228.72	2568.15
228.94	2582.49
229.16	2717.65
229.37	2842.58
229.59	2613.21
229.81	2922.45
230.03	2957.27
230.25	2711.51
230.47	2580.44
230.69	2654.17
230.90	3133.39
231.12	2795.48
231.34	2738.13
231.56	2781.14
231.78	2756.57
232.00	3037.14
232.21	2719.70
232.43	2789.33
232.65	2617.30
232.87	2934.74
233.09	2596.82
233.30	2629.59
233.52	3143.63
233.74	2916.31
233.96	2633.69
234.18	2883.54
234.40	3033.04
234.61	3379.15
234.83	2566.10
235.05	2643.93
235.27	3444.68
235.49	3239.89
235.70	2594.78
235.92	2783.19
236.14	3045.33
236.36	3389.39
236.58	2648.02
236.79	2744.28
237.01	3078.10
237.23	3004.37
237.45	2924.50
237.67	2770.90
237.88	3100.62
238.10	3334.09
238.32	2582.49
238.54	2580.44
238.76	2875.35
238.97	2809.81
239.19	2543.58
239.41	2797.53
239.63	3209.17
239.85	2906.07
240.06	2629.59
240.28	2674.65
240.50	3196.88
240.72	2922.45
240.93	2645.98
241.15	2852.82
241.37	3012.56
241.59	3188.69
241.81	2592.73
242.02	2775.00
242.24	3026.90
242.46	3098.58
242.68	2531.29
242.89	2652.12
243.11	3098.58
243.33	2947.03
243.55	2703.32
243.76	2660.31
243.98	2809.81
244.20	3037.14
244.42	2680.79
244.64	2680.79
244.85	2742.23
245.07	2889.68
245.29	2750.42
245.51	2713.56
245.72	3020.75
245.94	3225.55
246.16	2715.61
246.38	2721.75
246.59	2899.92
246.81	2865.11
247.03	2619.35
247.24	2582.49
247.46	2893.78
247.68	3065.81
247.90	2615.26
248.11	2631.64
248.33	3082.19
248.55	2994.13
248.77	2717.65
248.98	2760.66
249.20	3358.67
249.42	2998.23
249.64	2672.60
249.85	2621.40
250.07	2912.21
250.29	3141.58
250.50	2797.53
250.72	2570.20
250.94	3078.10
251.16	3286.99
251.37	2721.75
251.59	2756.57
251.81	3121.10
252.02	3192.78
252.24	2576.34
252.46	2762.71
252.68	2881.49
252.89	2787.29
253.11	2539.48
253.33	2879.44
253.54	3268.56
253.76	2740.18
253.98	2662.36
254.20	2650.07
254.41	2793.43
254.63	2973.65
254.85	2600.92
255.06	2807.77
255.28	3018.71
255.50	2959.31
255.71	2645.98
255.93	2553.82
256.15	2916.31
256.36	3055.57
256.58	2516.95
256.80	2645.98
257.02	2965.46
257.23	3000.27
257.45	2695.13
257.67	2844.63
257.88	2883.54
258.10	3059.67
258.32	2598.87
258.53	2809.81
258.75	3200.98
258.97	2848.72
259.18	2602.97
259.40	2664.41
259.62	3264.46
259.83	3260.37
260.05	2727.89
260.27	3426.25
260.48	3182.54
260.70	2858.96
260.92	2637.78
261.13	2674.65
261.35	3053.52
261.57	3053.52
261.78	2570.20
262.00	2609.11
262.22	3074.00
262.43	2842.58
262.65	2758.61
262.86	2742.23
263.08	3520.46
263.30	3006.42
263.51	2496.47
263.73	2594.78
263.95	3315.66
264.16	2889.68
264.38	2580.44
264.60	2590.68
264.81	2883.54
265.03	3190.74
265.25	3014.61
265.46	2617.30
265.68	3280.85
265.89	3096.53
266.11	2562.01
266.33	2623.45
266.54	3231.69
266.76	3094.48
266.98	2781.14
267.19	2856.92
267.41	3217.36
267.62	2897.88
267.84	2562.01
268.06	2725.85
268.27	3065.81
268.49	3155.92
268.70	2680.79
268.92	2723.80
269.14	2836.44
269.35	2752.47
269.57	2752.47
269.79	2721.75
270.00	2930.64
270.22	3350.48
270.43	2605.02
270.65	2543.58
270.87	3074.00
271.08	3110.86
271.30	2848.72
271.51	2721.75
271.73	3133.39
271.95	3313.61
272.16	2615.26
272.38	2766.81
272.59	2881.49
272.81	3076.05
273.02	2623.45
273.24	2717.65
273.46	3162.06
273.67	2820.05
273.89	2588.63
274.10	2615.26
274.32	3205.07
274.54	3035.09
274.75	2834.39
274.97	2770.90
275.18	3133.39
275.40	3041.23
275.61	2760.66
275.83	2893.78
276.05	2713.56
276.26	2961.36
276.48	2828.24
276.69	2789.33
276.91	2852.82
277.12	3217.36
277.34	2996.18
277.55	2996.18
277.77	2987.99
277.99	2883.54
278.20	2813.91
278.42	2645.98
278.63	2959.31
278.85	2805.72
279.06	2709.46
279.28	2887.64
279.49	3182.54
279.71	3157.97
279.93	2803.67
280.14	2891.73
280.36	2846.68
280.57	3112.91
280.79	2863.06
281.00	2734.04
281.22	2951.12
281.43	3176.40
281.65	2631.64
281.86	2740.18
282.08	3102.67
282.29	3381.20
282.51	2682.84
282.73	2650.07
282.94	2785.24
283.16	3119.06
283.37	2918.36
283.59	2705.37
283.80	3082.19
284.02	3016.66
284.23	2828.24
284.45	2797.53
284.66	2848.72
284.88	2807.77
285.09	2805.72
285.31	2836.44
285.52	3139.54
285.74	2670.55
285.95	2885.59
286.17	2858.96
286.38	3237.84
286.60	2807.77
286.81	2688.98
287.03	2805.72
287.24	2994.13
287.46	3004.37
287.67	2846.68
287.89	3045.33
288.10	2953.17
288.32	2963.41
288.53	2947.03
288.75	2850.77
288.96	3147.73
289.18	2850.77
289.39	2684.89
289.61	2879.44
289.82	3352.52
290.04	3336.14
290.25	2686.94
290.47	2869.20
290.68	2994.13
290.90	3131.34
291.11	2607.06
291.33	2897.88
291.54	2889.68
291.76	2854.87
291.97	2912.21
292.18	2904.02
292.40	2828.24
292.61	2877.40
292.83	3086.29
293.04	2768.85
293.26	3055.57
293.47	2949.08
293.69	2668.50
293.90	2697.17
294.12	3205.07
294.33	2942.93
294.55	2842.58
294.76	2934.74
294.97	3168.21
295.19	3395.53
295.40	2734.04
295.62	2891.73
295.83	3151.82
296.05	2901.97
296.26	2942.93
296.48	2799.57
296.69	2936.79
296.90	2994.13
297.12	2963.41
297.33	3006.42
297.55	2959.31
297.76	3069.91
297.98	2912.21
298.19	2928.60
298.41	2965.46
298.62	2760.66
298.83	3028.95
299.05	2949.08
299.26	2914.26
299.48	2822.10
299.69	2918.36
299.90	2875.35
300.12	2861.01
300.33	3100.62
300.55	2844.63
300.76	2854.87
300.98	2836.44
301.19	3086.29
301.40	2856.92
301.62	2809.81
301.83	3045.33
302.05	2957.27
302.26	2809.81
302.47	2959.31
302.69	2779.09
302.90	2951.12
303.12	2547.67
303.33	2844.63
303.54	3270.61
303.76	2856.92
303.97	2772.95
304.19	3043.28
304.40	2856.92
304.61	3053.52
304.83	2912.21
305.04	2869.20
305.26	3129.30
305.47	2875.35
305.68	2815.96
305.90	2699.22
306.11	3209.17
306.33	2961.36
306.54	2643.93
306.75	2738.13
306.97	2727.89
307.18	2912.21
307.39	2760.66
307.61	2852.82
307.82	2906.07
308.04	3026.90
308.25	2617.30
308.46	2932.69
308.68	3020.75
308.89	2983.89
309.10	2891.73
309.32	2838.48
309.53	2992.08
309.74	3035.09
309.96	2760.66
310.17	2990.03
310.39	2867.16
310.60	3008.47
310.81	2770.90
311.03	2678.74
311.24	3106.77
311.45	2901.97
311.67	3022.80
311.88	2928.60
312.09	2916.31
312.31	2854.87
312.52	2731.99
312.73	2748.37
312.95	2695.13
313.16	2820.05
313.37	2990.03
313.59	2981.84
313.80	3211.22
314.01	3184.59
314.23	2811.86
314.44	2715.61
314.65	2752.47
314.87	2875.35
315.08	2789.33
315.29	2791.38
315.51	2861.01
315.72	2777.05
315.93	2897.88
316.15	2770.90
316.36	2932.69
316.57	2942.93
316.79	2705.37
317.00	2772.95
317.21	3076.05
317.43	2897.88
317.64	2842.58
317.85	2768.85
318.07	2881.49
318.28	2936.79
318.49	2926.55
318.70	2973.65
318.92	2969.55
319.13	3012.56
319.34	2951.12
319.56	2861.01
319.77	3045.33
319.98	3112.91
320.20	3049.43
320.41	2879.44
320.62	3160.02
320.83	2760.66
321.05	3018.71
321.26	2813.91
321.47	2922.45
321.69	3196.88
321.90	2779.09
322.11	2645.98
322.32	2981.84
322.54	3297.23
322.75	2875.35
322.96	3565.51
323.18	2764.76
323.39	2676.70
323.60	2738.13
323.81	2904.02
324.03	2873.30
324.24	2910.16
324.45	2910.16
324.66	2791.38
324.88	3131.34
325.09	3211.22
325.30	2764.76
325.52	2688.98
325.73	3053.52
325.94	2883.54
326.15	2736.09
326.37	2680.79
326.58	3166.16
326.79	3311.57
327.00	2648.02
327.22	2754.52
327.43	2938.84
327.64	2834.39
327.85	2914.26
328.07	2699.22
328.28	3217.36
328.49	2916.31
328.70	2785.24
328.92	2828.24
329.13	2889.68
329.34	3131.34
329.55	3119.06
329.76	2901.97
329.98	2963.41
330.19	3207.12
330.40	2850.77
330.61	2867.16
330.83	3117.01
331.04	2772.95
331.25	2854.87
331.46	2850.77
331.68	2811.86
331.89	3221.45
332.10	2863.06
332.31	2713.56
332.52	2899.92
332.74	3207.12
332.95	2615.26
333.16	2797.53
333.37	3114.96
333.58	2861.01
333.80	2883.54
334.01	2664.41
334.22	2863.06
334.43	2906.07
334.64	2707.41
334.86	2738.13
335.07	2795.48
335.28	3243.98
335.49	2742.23
335.70	2924.50
335.92	3319.76
336.13	3407.82
336.34	2881.49
336.55	2721.75
336.76	2998.23
336.98	2688.98
337.19	2848.72
337.40	2916.31
337.61	3495.88
337.82	2914.26
338.04	2887.64
338.25	2615.26
338.46	2867.16
338.67	2887.64
338.88	2725.85
339.09	2738.13
339.31	2922.45
339.52	2844.63
339.73	2775.00
339.94	2807.77
340.15	3182.54
340.36	2910.16
340.58	2826.20
340.79	2717.65
341.00	3090.38
341.21	2707.41
341.42	3045.33
341.63	2877.40
341.85	3141.58
342.06	3020.75
342.27	2701.27
342.48	2926.55
342.69	2787.29
342.90	3016.66
343.12	3076.05
343.33	2731.99
343.54	3145.68
343.75	3133.39
343.96	2869.20
344.17	2795.48
344.38	3022.80
344.60	2846.68
344.81	2734.04
345.02	2809.81
345.23	3254.22
345.44	3344.33
345.65	2858.96
345.86	2838.48
346.07	2973.65
346.29	2889.68
346.50	2985.94
346.71	2865.11
346.92	3229.65
347.13	3393.48
347.34	2987.99
347.55	2721.75
347.76	3112.91
347.98	2744.28
348.19	2858.96
348.40	2944.98
348.61	2934.74
348.82	3157.97
349.03	2908.12
349.24	2705.37
349.45	3286.99
349.66	2648.02
349.88	2734.04
350.09	2738.13
350.30	3168.21
350.51	3221.45
350.72	2987.99
350.93	2764.76
351.14	2922.45
351.35	2955.22
351.56	2861.01
351.77	2889.68
351.99	3143.63
352.20	3235.79
352.41	2940.88
352.62	2674.65
352.83	2936.79
353.04	3016.66
353.25	2856.92
353.46	2879.44
353.67	3194.83
353.88	2645.98
354.09	2799.57
354.30	2926.55
354.52	3094.48
354.73	2985.94
354.94	2789.33
355.15	2889.68
355.36	3348.43
355.57	2912.21
355.78	2738.13
355.99	2707.41
356.20	3020.75
356.41	3258.32
356.62	2854.87
356.83	2803.67
357.04	3276.75
357.25	2756.57
357.46	2762.71
357.68	2746.33
357.89	2795.48
358.10	3026.90
358.31	2783.19
358.52	2779.09
358.73	2850.77
358.94	2846.68
359.15	2768.85
359.36	2824.15
359.57	2930.64
359.78	3008.47
359.99	2987.99
360.20	2695.13
360.41	2856.92
360.62	3094.48
360.83	2830.29
361.04	2840.53
361.25	3074.00
361.46	3256.27
361.67	2838.48
361.88	2777.05
362.09	3121.10
362.30	2949.08
362.51	2809.81
362.72	2883.54
362.93	3213.26
363.14	3012.56
363.35	2871.25
363.56	2656.22
363.78	3143.63
363.99	3106.77
364.20	2783.19
364.41	2805.72
364.62	3307.47
364.83	3002.32
365.04	2770.90
365.25	2848.72
365.46	3446.73
365.67	2836.44
365.88	2822.10
366.09	2781.14
366.30	2867.16
366.51	3014.61
366.72	2672.60
366.93	2793.43
367.14	3059.67
367.35	3164.11
367.56	2799.57
367.77	3018.71
367.98	3004.37
368.18	3065.81
368.39	2885.59
368.60	2731.99
368.81	3088.34
369.02	2961.36
369.23	2815.96
369.44	2580.44
369.65	2938.84
369.86	3012.56
370.07	2838.48
370.28	2713.56
370.49	3000.27
370.70	3012.56
370.91	2660.31
371.12	2709.46
371.33	3246.03
371.54	2867.16
371.75	2924.50
371.96	2594.78
372.17	3026.90
372.38	2973.65
372.59	2822.10
372.80	2756.57
373.01	2893.78
373.22	2969.55
373.43	2762.71
373.64	2645.98
373.85	3266.51
374.06	3219.41
374.26	2994.13
374.47	2807.77
374.68	3229.65
374.89	3039.19
375.10	2783.19
375.31	2865.11
375.52	2955.22
375.73	3014.61
375.94	2701.27
376.15	2865.11
376.36	2863.06
376.57	2844.63
376.78	2856.92
376.99	2848.72
377.20	3157.97
377.40	3012.56
377.61	3004.37
377.82	2785.24
378.03	3276.75
378.24	3155.92
378.45	2891.73
378.66	2820.05
378.87	2629.59
379.08	2807.77
379.29	2701.27
379.50	2947.03
379.71	3059.67
379.91	3166.16
380.12	2828.24
380.33	2869.20
380.54	2959.31
380.75	2996.18
380.96	2801.62
381.17	2901.97
381.38	2938.84
381.59	3035.09
381.80	2873.30
382.00	3030.99
382.21	3008.47
382.42	3282.89
382.63	3106.77
382.84	2977.75
383.05	3223.50
383.26	3233.74
383.47	2885.59
383.68	2818.00
383.88	3082.19
384.09	3026.90
384.30	3080.14
384.51	2858.96
384.72	2850.77
384.93	2781.14
385.14	2908.12
385.35	3020.75
385.55	2758.61
385.76	3209.17
385.97	2826.20
386.18	2654.17
386.39	2863.06
386.60	2977.75
386.81	2795.48
387.02	2768.85
387.22	2766.81
387.43	3160.02
387.64	2848.72
387.85	3049.43
388.06	2979.79
388.27	4018.11
388.48	7309.20
388.68	10645.34
388.89	13412.15
389.10	14434.08
389.31	13924.14
389.52	11491.15
389.73	9844.59
389.93	8802.17
390.14	7948.17
390.35	7262.10
390.56	6764.44
390.77	5572.52
390.98	4333.50
391.18	3606.47
391.39	3456.97
391.60	2973.65
391.81	3078.10
392.02	2803.67
392.23	3405.77
392.43	2955.22
392.64	2918.36
392.85	2953.17
393.06	3295.18
393.27	2987.99
393.47	2783.19
393.68	2887.64
393.89	2932.69
394.10	3196.88
394.31	2762.71
394.52	2775.00
394.72	2848.72
394.93	3168.21
395.14	2691.03
395.35	2910.16
395.56	2887.64
395.76	3033.04
395.97	2904.02
396.18	2977.75
396.39	2977.75
396.60	3569.61
396.80	3096.53
397.01	2975.70
397.22	3145.68
397.43	3076.05
397.64	2779.09
397.84	2916.31
398.05	3301.33
398.26	2947.03
398.47	2930.64
398.67	3067.86
398.88	2901.97
399.09	3119.06
399.30	2740.18
399.51	2930.64
399.71	2914.26
399.92	2957.27
400.13	2928.60
400.34	2871.25
400.54	3014.61
400.75	3325.90
400.96	2961.36
401.17	3139.54
401.37	3006.42
401.58	2981.84
401.79	2754.52
402.00	2971.60
402.21	3489.74
402.41	3233.74
402.62	3061.71
402.83	3162.06
403.04	3450.83
403.24	3762.12
403.45	2846.68
403.66	3080.14
403.87	3182.54
404.07	3344.33
404.28	3030.99
404.49	3117.01
404.70	3039.19
404.90	3018.71
405.11	2824.15
405.32	2932.69
405.52	2828.24
405.73	2885.59
405.94	2758.61
406.15	2901.97
406.35	3119.06
406.56	3149.78
406.77	2885.59
406.98	2828.24
407.18	2826.20
407.39	3192.78
407.60	2836.44
407.80	2938.84
408.01	2887.64
408.22	2979.79
408.43	2719.70
408.63	2828.24
408.84	3080.14
409.05	3110.86
409.25	2842.58
409.46	2887.64
409.67	2942.93
409.88	2920.40
410.08	2867.16
410.29	2805.72
410.50	3114.96
410.70	3045.33
410.91	2748.37
411.12	2916.31
411.32	2971.60
411.53	2818.00
411.74	2877.40
411.95	2928.60
412.15	3004.37
412.36	3065.81
412.57	2961.36
412.77	3057.62
412.98	2987.99
413.19	2889.68
413.39	2865.11
413.60	2875.35
413.81	3291.09
414.01	2838.48
414.22	2799.57
414.43	2998.23
414.63	2901.97
414.84	3067.86
415.05	2865.11
415.25	2715.61
415.46	3102.67
415.67	2858.96
415.87	2901.97
416.08	2836.44
416.29	2975.70
416.49	2969.55
416.70	2938.84
416.91	2809.81
417.11	2893.78
417.32	3182.54
417.53	2893.78
417.73	2938.84
417.94	3002.32
418.15	3055.57
418.35	2942.93
418.56	2799.57
418.77	3461.07
418.97	3063.76
419.18	2856.92
419.38	2576.34
419.59	2912.21
419.80	3119.06
420.00	2752.47
420.21	2867.16
420.42	3194.83
420.62	3092.43
420.83	2854.87
421.04	2811.86
421.24	2990.03
421.45	3112.91
421.65	2764.76
421.86	2820.05
422.07	3127.25
422.27	3051.47
422.48	2865.11
422.69	2703.32
422.89	2922.45
423.10	2873.30
423.30	2818.00
423.51	2944.98
423.72	3049.43
423.92	3131.34
424.13	2709.46
424.33	2865.11
424.54	3147.73
424.75	2944.98
424.95	3100.62
425.16	2805.72
425.36	2928.60
425.57	3123.15
425.78	2957.27
425.98	3010.51
426.19	2932.69
426.39	2861.01
426.60	2844.63
426.81	2994.13
427.01	3041.23
427.22	2852.82
427.42	2670.55
427.63	2795.48
427.83	3162.06
428.04	3260.37
428.25	2971.60
428.45	2940.88
428.66	3219.41
428.86	2934.74
429.07	2944.98
429.28	2861.01
429.48	3035.09
429.69	2852.82
429.89	2854.87
430.10	2748.37
430.30	3102.67
430.51	3176.40
430.71	2740.18
430.92	2861.01
431.13	2973.65
431.33	3059.67
431.54	2852.82
431.74	3033.04
431.95	3348.43
432.15	2762.71
432.36	2928.60
432.56	2930.64
432.77	3272.65
432.98	3323.85
433.18	2883.54
433.39	2754.52
433.59	2926.55
433.80	3295.18
434.00	2990.03
434.21	2904.02
434.41	2883.54
434.62	3389.39
434.82	2738.13
435.03	2707.41
435.23	3035.09
435.44	2736.09
435.64	2844.63
435.85	2844.63
436.06	3088.34
436.26	3129.30
436.47	2891.73
436.67	2795.48
436.88	2916.31
437.08	3219.41
437.29	2996.18
437.49	2887.64
437.70	3172.30
437.90	2887.64
438.11	2977.75
438.31	2856.92
438.52	3170.26
438.72	3299.28
438.93	3160.02
439.13	2912.21
439.34	3237.84
439.54	2840.53
439.75	2938.84
439.95	2899.92
440.16	2822.10
440.36	2957.27
440.57	2910.16
440.77	2803.67
440.98	3008.47
441.18	3088.34
441.39	2740.18
441.59	2731.99
441.80	3295.18
442.00	3086.29
442.21	2934.74
442.41	2680.79
442.62	3112.91
442.82	2942.93
443.02	2797.53
443.23	2889.68
443.43	2934.74
443.64	3182.54
443.84	2772.95
444.05	2877.40
444.25	3008.47
444.46	2973.65
444.66	2820.05
444.87	3057.62
445.07	2693.08
445.28	3000.27
445.48	2983.89
445.69	2906.07
445.89	3487.69
446.09	2987.99
446.30	3198.93
446.50	3307.47
446.71	4685.75
446.91	5685.16
447.12	6399.90
447.32	6967.19
447.53	6823.83
447.73	5689.26
447.93	4997.04
448.14	4745.14
448.34	4761.53
448.55	4108.23
448.75	3889.09
448.96	3749.83
449.16	3672.01
449.36	3592.14
449.57	3082.19
449.77	2940.88
449.98	2908.12
450.18	3084.24
450.39	2858.96
450.59	3059.67
450.79	3008.47
451.00	2842.58
451.20	3012.56
451.41	2840.53
451.61	3014.61
451.81	2959.31
452.02	2791.38
452.22	2877.40
452.43	2910.16
452.63	2881.49
452.84	2928.60
453.04	2783.19
453.24	3071.95
453.45	2881.49
453.65	2830.29
453.86	2861.01
454.06	3071.95
454.26	3065.81
454.47	2693.08
454.67	3074.00
454.87	3114.96
455.08	2893.78
455.28	2987.99
455.49	3020.75
455.69	2858.96
455.89	3375.05
456.10	2938.84
456.30	2809.81
456.51	3121.10
456.71	2985.94
456.91	2965.46
457.12	2920.40
457.32	3090.38
457.52	2738.13
457.73	3010.51
457.93	3002.32
458.14	2787.29
458.34	2662.36
458.54	2840.53
458.75	2832.34
458.95	3065.81
459.15	3061.71
459.36	2824.15
459.56	2871.25
459.76	3330.00
459.97	2969.55
460.17	2897.88
460.37	2912.21
460.58	2971.60
460.78	3125.20
460.99	2877.40
461.19	2811.86
461.39	2910.16
461.60	2957.27
461.80	2861.01
462.00	2662.36
462.21	2934.74
462.41	2897.88
462.61	2650.07
462.82	2666.46
463.02	3100.62
463.22	3102.67
463.43	2922.45
463.63	2795.48
463.83	3260.37
464.04	3063.76
464.24	2893.78
464.44	2848.72
464.64	2987.99
464.85	3092.43
465.05	2881.49
465.25	2789.33
465.46	2793.43
465.66	3033.04
465.86	3024.85
466.07	2893.78
466.27	2969.55
466.47	2844.63
466.68	2666.46
466.88	2963.41
467.08	3024.85
467.29	3213.26
467.49	2869.20
467.69	2904.02
467.89	3121.10
468.10	2975.70
468.30	2863.06
468.50	2957.27
468.71	3102.67
468.91	2852.82
469.11	3018.71
469.31	2955.22
469.52	2838.48
469.72	3295.18
469.92	3131.34
470.13	2848.72
470.33	2971.60
470.53	3059.67
470.73	3278.80
470.94	3459.02
471.14	3553.23
471.34	3975.11
471.54	3788.74
471.75	3549.13
471.95	3254.22
472.15	3299.28
472.36	3286.99
472.56	3241.93
472.76	3491.79
472.96	3330.00
473.17	3114.96
473.37	2977.75
473.57	2987.99
473.77	3174.35
473.98	2883.54
474.18	2721.75
474.38	3495.88
474.58	2938.84
474.79	2717.65
474.99	2934.74
475.19	3200.98
475.39	2846.68
475.60	2942.93
475.80	2852.82
476.00	3049.43
476.20	2971.60
476.41	2914.26
476.61	2928.60
476.81	3344.33
477.01	2932.69
477.21	3067.86
477.42	2992.08
477.62	2844.63
477.82	3080.14
478.02	2820.05
478.23	2899.92
478.43	2885.59
478.63	2899.92
478.83	2908.12
479.03	2824.15
479.24	3192.78
479.44	3350.48
479.64	2863.06
479.84	2635.74
480.04	2881.49
480.25	3108.82
480.45	2760.66
480.65	2772.95
480.85	3235.79
481.06	2889.68
481.26	2936.79
481.46	2836.44
481.66	3096.53
481.86	2803.67
482.06	2981.84
482.27	2906.07
482.47	2844.63
482.67	3092.43
482.87	2856.92
483.07	2867.16
483.28	2856.92
483.48	2754.52
483.68	2854.87
483.88	2785.24
484.08	2731.99
484.29	2707.41
484.49	2981.84
484.69	2676.70
484.89	3229.65
485.09	3153.87
485.29	2901.97
485.50	3016.66
485.70	2899.92
485.90	3221.45
486.10	3014.61
486.30	2848.72
486.50	3184.59
486.71	3102.67
486.91	2914.26
487.11	2934.74
487.31	2795.48
487.51	3155.92
487.71	2779.09
487.91	2762.71
488.12	2824.15
488.32	2617.30
488.52	2863.06
488.72	2525.15
488.92	2983.89
489.12	3223.50
489.32	3045.33
489.53	2858.96
489.73	2756.57
489.93	3295.18
490.13	2809.81
490.33	2709.46
490.53	2979.79
490.73	3102.67
490.94	2652.12
491.14	2994.13
491.34	3176.40
491.54	3157.97
491.74	3588.04
491.94	4220.86
492.14	4702.14
492.34	4736.95
492.54	4315.07
492.75	3764.17
492.95	3960.77
493.15	3583.95
493.35	3549.13
493.55	3430.35
493.75	3413.96
493.95	3506.12
494.15	3028.95
494.35	2967.51
494.56	2983.89
494.76	2901.97
494.96	2959.31
495.16	2768.85
495.36	2934.74
495.56	3030.99
495.76	2891.73
495.96	2867.16
496.16	2815.96
496.36	3383.24
496.56	2787.29
496.77	3000.27
496.97	2940.88
497.17	3184.59
497.37	2668.50
497.57	2983.89
497.77	3002.32
497.97	2820.05
498.17	2883.54
498.37	2842.58
498.57	3092.43
498.77	2904.02
498.97	3035.09
499.17	3123.15
499.38	2973.65
499.58	3086.29
499.78	2987.99
499.98	2967.51
500.18	2947.03
500.38	2877.40
500.58	3049.43
500.78	3393.48
500.98	5601.19
501.18	7253.91
501.38	8697.72
501.58	9652.08
501.78	9635.69
501.98	7911.30
502.18	6750.10
502.38	5824.42
502.58	5703.59
502.78	4988.85
502.98	4706.23
503.18	4632.51
503.38	4306.88
503.59	3721.16
503.79	3717.06
503.99	3438.54
504.19	3426.25
504.39	3506.12
504.59	3223.50
504.79	3207.12
504.99	3499.98
505.19	3127.25
505.39	3053.52
505.59	3135.44
505.79	3241.93
505.99	3160.02
506.19	2992.08
506.39	3057.62
506.59	2869.20
506.79	2893.78
506.99	2983.89
507.19	2805.72
507.39	3026.90
507.59	2834.39
507.79	2785.24
507.99	2848.72
508.19	3026.90
508.39	2893.78
508.59	2863.06
508.79	2973.65
508.99	3362.76
509.19	2830.29
509.39	2899.92
509.59	2775.00
509.79	2818.00
509.99	2967.51
510.19	3090.38
510.39	2994.13
510.59	3000.27
510.79	2856.92
510.99	2695.13
511.19	2779.09
511.39	3192.78
511.59	3200.98
511.79	2969.55
511.99	2815.96
512.19	3352.52
512.38	2961.36
512.58	2881.49
512.78	2809.81
512.98	3256.27
513.18	3248.08
513.38	2783.19
513.58	2985.94
513.78	2957.27
513.98	2973.65
514.18	2858.96
514.38	2895.83
514.58	3022.80
514.78	2895.83
514.98	2727.89
515.18	2826.20
515.38	2813.91
515.58	3246.03
515.78	2742.23
515.98	2893.78
516.18	3059.67
516.38	2971.60
516.57	2838.48
516.77	2820.05
516.97	3055.57
517.17	2854.87
517.37	2627.54
517.57	2842.58
517.77	2916.31
517.97	2813.91
518.17	2873.30
518.37	2750.42
518.57	2875.35
518.77	2992.08
518.97	2844.63
519.16	2844.63
519.36	3131.34
519.56	2916.31
519.76	2863.06
519.96	2920.40
520.16	3266.51
520.36	2793.43
520.56	2963.41
520.76	2805.72
520.96	2955.22
521.16	3164.11
521.35	3016.66
521.55	3024.85
521.75	3035.09
521.95	2889.68
522.15	2770.90
522.35	2682.84
522.55	2883.54
522.75	3086.29
522.95	2740.18
523.14	2711.51
523.34	3067.86
523.54	2842.58
523.74	3008.47
523.94	2787.29
524.14	2707.41
524.34	2975.70
524.54	3057.62
524.73	2928.60
524.93	3133.39
525.13	3043.28
525.33	2768.85
525.53	3043.28
525.73	3162.06
525.93	3033.04
526.13	2852.82
526.32	2852.82
526.52	3153.87
526.72	3227.60
526.92	2824.15
527.12	2768.85
527.32	2721.75
527.52	3117.01
527.71	2899.92
527.91	2959.31
528.11	2887.64
528.31	2910.16
528.51	2891.73
528.71	2963.41
528.90	3102.67
529.10	3196.88
529.30	2912.21
529.50	2549.72
529.70	2983.89
529.90	2961.36
530.09	2908.12
530.29	2742.23
530.49	2791.38
530.69	3510.22
530.89	2901.97
531.09	2936.79
531.28	2951.12
531.48	3237.84
531.68	2811.86
531.88	2920.40
532.08	3160.02
532.28	2981.84
532.47	2951.12
532.67	2959.31
532.87	3092.43
533.07	2840.53
533.27	2971.60
533.46	2928.60
533.66	3041.23
533.86	3035.09
534.06	2879.44
534.26	2883.54
534.45	2873.30
534.65	3082.19
534.85	2928.60
535.05	2715.61
535.25	3198.93
535.44	2729.94
535.64	2891.73
535.84	2914.26
536.04	2856.92
536.24	2953.17
536.43	2828.24
536.63	2875.35
536.83	2969.55
537.03	2987.99
537.22	2631.64
537.42	2674.65
537.62	2996.18
537.82	2850.77
538.02	3026.90
538.21	2961.36
538.41	3604.42
538.61	3174.35
538.81	2920.40
539.00	2932.69
539.20	2723.80
539.40	2996.18
539.60	2875.35
539.79	3039.19
539.99	2990.03
540.19	2863.06
540.39	2848.72
540.58	2791.38
540.78	3231.69
540.98	3028.95
541.18	3037.14
541.37	2899.92
541.57	3020.75
541.77	2965.46
541.97	2818.00
542.16	2734.04
542.36	2910.16
542.56	2858.96
542.76	3067.86
542.95	3002.32
543.15	3022.80
543.35	3069.91
543.54	2777.05
543.74	2748.37
543.94	3203.02
544.14	2840.53
544.33	2992.08
544.53	2791.38
544.73	2856.92
544.93	2879.44
545.12	2762.71
545.32	2797.53
545.52	3006.42
545.71	2805.72
545.91	2858.96
546.11	2764.76
546.30	2797.53
546.50	3006.42
546.70	3061.71
546.90	2865.11
547.09	2668.50
547.29	2985.94
547.49	2961.36
547.68	2885.59
547.88	2883.54
548.08	3041.23
548.27	3231.69
548.47	2848.72
548.67	2854.87
548.87	3059.67
549.06	2863.06
549.26	2746.33
549.46	3035.09
549.65	2947.03
549.85	2928.60
550.05	2893.78
550.24	2758.61
550.44	2967.51
550.64	2901.97
550.83	2893.78
551.03	3256.27
551.23	3145.68
551.42	2969.55
551.62	2875.35
551.82	3014.61
552.01	2953.17
552.21	3157.97
552.41	2936.79
552.60	3153.87
552.80	2994.13
553.00	2822.10
553.19	2867.16
553.39	3295.18
553.59	2779.09
553.78	2942.93
553.98	2918.36
554.17	2777.05
554.37	3041.23
554.57	2926.55
554.76	2715.61
554.96	2881.49
555.16	2971.60
555.35	2908.12
555.55	3028.95
555.75	3002.32
555.94	3112.91
556.14	2672.60
556.33	2920.40
556.53	3016.66
556.73	2936.79
556.92	2908.12
557.12	2832.34
557.32	3282.89
557.51	3235.79
557.71	2861.01
557.90	3082.19
558.10	3311.57
558.30	2918.36
558.49	2912.21
558.69	2908.12
558.88	3098.58
559.08	2973.65
559.28	2824.15
559.47	2856.92
559.67	3092.43
559.86	3342.28
560.06	2809.81
560.26	2846.68
560.45	3106.77
560.65	2944.98
560.84	3114.96
561.04	2736.09
561.24	3106.77
561.43	2838.48
561.63	3106.77
561.82	2992.08
562.02	3063.76
562.22	2805.72
562.41	2836.44
562.61	2793.43
562.80	2881.49
563.00	3465.16
563.19	2912.21
563.39	2961.36
563.59	3057.62
563.78	2820.05
563.98	2627.54
564.17	2783.19
564.37	2664.41
564.56	2922.45
564.76	2746.33
564.96	2953.17
565.15	3006.42
565.35	3291.09
565.54	2828.24
565.74	2871.25
565.93	3149.78
566.13	2922.45
566.32	2893.78
566.52	3026.90
566.71	2951.12
566.91	3155.92
567.11	2981.84
567.30	2805.72
567.50	3022.80
567.69	3006.42
567.89	2850.77
568.08	2709.46
568.28	3000.27
568.47	2713.56
568.67	2893.78
568.86	2813.91
569.06	3071.95
569.25	2949.08
569.45	2680.79
569.64	2871.25
569.84	2830.29
570.04	3139.54
570.23	2813.91
570.43	2901.97
570.62	3024.85
570.82	3200.98
571.01	2666.46
571.21	2828.24
571.40	2842.58
571.60	3119.06
571.79	3030.99
571.99	2885.59
572.18	2826.20
572.38	3086.29
572.57	2858.96
572.77	2971.60
572.96	3461.07
573.16	3108.82
573.35	2930.64
573.55	3033.04
573.74	2977.75
573.94	2949.08
574.13	2940.88
574.33	2957.27
574.52	3174.35
574.71	2977.75
574.91	2981.84
575.10	2740.18
575.30	2957.27
575.49	2850.77
575.69	2742.23
575.88	2861.01
576.08	2858.96
576.27	3033.04
576.47	2861.01
576.66	3035.09
576.86	3338.19
577.05	3166.16
577.25	2901.97
577.44	3059.67
577.64	2912.21
577.83	3145.68
578.02	2856.92
578.22	2926.55
578.41	3280.85
578.61	2969.55
578.80	2742.23
579.00	2914.26
579.19	2934.74
579.39	3065.81
579.58	2983.89
579.77	2842.58
579.97	3246.03
580.16	3221.45
580.36	3047.38
580.55	2942.93
580.75	3117.01
580.94	3006.42
581.13	3094.48
581.33	3221.45
581.52	3024.85
581.72	3248.08
581.91	3006.42
582.11	2828.24
582.30	3100.62
582.49	3104.72
582.69	3104.72
582.88	2942.93
583.08	3051.47
583.27	3213.26
583.47	2963.41
583.66	2826.20
583.85	2863.06
584.05	2947.03
584.24	2979.79
584.44	2895.83
584.63	3104.72
584.82	3155.92
585.02	3074.00
585.21	3041.23
585.41	3096.53
585.60	2977.75
585.79	3149.78
585.99	3157.97
586.18	3074.00
586.37	3946.44
586.57	5793.70
586.76	16510.72
586.96	35352.04
587.15	48203.04
587.34	56734.88
587.54	60599.40
587.73	53728.46
587.93	38722.99
588.12	29181.51
588.31	23850.64
588.51	21307.07
588.70	19527.38
588.89	16994.04
589.09	14810.91
589.28	12482.37
589.47	9725.80
589.67	7450.51
589.86	5910.44
590.06	4663.22
590.25	3975.11
590.44	3639.24
590.64	3307.47
590.83	3170.26
591.02	3221.45
591.22	2869.20
591.41	2992.08
591.60	3004.37
591.80	3381.20
591.99	2682.84
592.18	2897.88
592.38	3121.10
592.57	2854.87
592.76	2836.44
592.96	2979.79
593.15	3016.66
593.34	3246.03
593.54	2883.54
593.73	2961.36
593.92	3131.34
594.12	3055.57
594.31	2934.74
594.50	3039.19
594.70	3069.91
594.89	3448.78
595.08	2746.33
595.28	3051.47
595.47	3637.19
595.66	3198.93
595.86	2686.94
596.05	2815.96
596.24	2885.59
596.43	3360.72
596.63	2979.79
596.82	3067.86
597.01	3071.95
597.21	3192.78
597.40	2873.30
597.59	2889.68
597.79	2947.03
597.98	3028.95
598.17	2861.01
598.36	2899.92
598.56	3147.73
598.75	2922.45
598.94	2924.50
599.14	2856.92
599.33	2918.36
599.52	3155.92
599.71	2893.78
599.91	2867.16
600.10	3088.34
600.29	2998.23
600.48	2983.89
600.68	3000.27
600.87	3110.86
601.06	2779.09
601.26	2840.53
601.45	2936.79
601.64	2906.07
601.83	3229.65
602.03	2797.53
602.22	2736.09
602.41	3100.62
602.60	3436.49
602.80	2908.12
602.99	3000.27
603.18	2920.40
603.37	3071.95
603.57	2838.48
603.76	2959.31
603.95	3194.83
604.14	2955.22
604.34	2736.09
604.53	2959.31
604.72	3033.04
604.91	3063.76
605.10	2883.54
605.30	2740.18
605.49	3348.43
605.68	3223.50
605.87	2969.55
606.07	2750.42
606.26	2985.94
606.45	3065.81
606.64	2830.29
606.84	2727.89
607.03	2951.12
607.22	3172.30
607.41	2856.92
607.60	2828.24
607.80	3104.72
607.99	2949.08
608.18	2891.73
608.37	2863.06
608.56	2906.07
608.76	3164.11
608.95	3125.20
609.14	2846.68
609.33	3184.59
609.52	3182.54
609.72	2969.55
609.91	2942.93
610.10	3004.37
610.29	3243.98
610.48	3045.33
610.68	2987.99
610.87	2899.92
611.06	3053.52
611.25	2879.44
611.44	3061.71
611.63	2932.69
611.83	3233.74
612.02	2752.47
612.21	2947.03
612.40	2674.65
612.59	2781.14
612.79	2828.24
612.98	2928.60
613.17	3213.26
613.36	2920.40
613.55	3012.56
613.74	2856.92
613.93	2971.60
614.13	3035.09
614.32	3000.27
614.51	2836.44
614.70	2994.13
614.89	3039.19
615.08	3016.66
615.28	3278.80
615.47	2793.43
615.66	3069.91
615.85	2895.83
616.04	2899.92
616.23	2969.55
616.42	2897.88
616.62	2889.68
616.81	2891.73
617.00	3033.04
617.19	3160.02
617.38	2836.44
617.57	2871.25
617.76	3014.61
617.95	3053.52
618.15	2990.03
618.34	3082.19
618.53	2772.95
618.72	3133.39
618.91	2932.69
619.10	2930.64
619.29	3006.42
619.48	3026.90
619.68	2797.53
619.87	2830.29
620.06	2787.29
620.25	3065.81
620.44	2811.86
620.63	2805.72
620.82	3051.47
621.01	3039.19
621.20	2883.54
621.39	2914.26
621.59	3106.77
621.78	2928.60
621.97	2848.72
622.16	2983.89
622.35	2981.84
622.54	3114.96
622.73	2967.51
622.92	2574.30
623.11	3170.26
623.30	2957.27
623.49	2996.18
623.68	2750.42
623.88	3157.97
624.07	2893.78
624.26	2775.00
624.45	2928.60
624.64	2901.97
624.83	2985.94
625.02	2813.91
625.21	2904.02
625.40	3104.72
625.59	3198.93
625.78	2815.96
625.97	2987.99
626.16	3192.78
626.35	3076.05
626.54	2856.92
626.74	3088.34
626.93	2951.12
627.12	2920.40
627.31	2973.65
627.50	2955.22
627.69	3129.30
627.88	2926.55
628.07	2797.53
628.26	2693.08
628.45	2918.36
628.64	2791.38
628.83	2887.64
629.02	2750.42
629.21	3125.20
629.40	3063.76
629.59	2805.72
629.78	2850.77
629.97	3043.28
630.16	2944.98
630.35	2863.06
630.54	2965.46
630.73	2908.12
630.92	3071.95
631.11	2758.61
631.30	2926.55
631.49	3174.35
631.68	2914.26
631.87	2971.60
632.06	2645.98
632.25	3405.77
632.44	3018.71
632.63	2910.16
632.82	2852.82
633.01	2807.77
633.20	3065.81
633.39	2756.57
633.58	2746.33
633.77	3096.53
633.96	3102.67
634.15	2926.55
634.34	2959.31
634.53	3030.99
634.72	2916.31
634.91	2750.42
635.10	2895.83
635.29	3149.78
635.48	2992.08
635.67	2729.94
635.86	2664.41
636.05	3125.20
636.24	3012.56
636.43	2883.54
636.62	2969.55
636.81	2598.87
637.00	3071.95
637.19	2916.31
637.38	2877.40
637.57	2963.41
637.76	3049.43
637.95	3039.19
638.14	2887.64
638.33	3020.75
638.52	2961.36
638.71	2850.77
638.89	2721.75
639.08	3483.59
639.27	3254.22
639.46	3098.58
639.65	3278.80
639.84	3495.88
640.03	3551.18
640.22	3203.02
640.41	3239.89
640.60	3012.56
640.79	3119.06
640.98	3065.81
641.17	3168.21
641.36	3164.11
641.55	3133.39
641.74	2725.85
641.92	2811.86
642.11	2815.96
642.30	2910.16
642.49	2830.29
642.68	2793.43
642.87	3030.99
643.06	2998.23
643.25	2781.14
643.44	2797.53
643.63	2965.46
643.82	3233.74
644.00	2738.13
644.19	2873.30
644.38	2719.70
644.57	3106.77
644.76	2871.25
644.95	2959.31
645.14	3026.90
645.33	3014.61
645.52	2936.79
645.71	2748.37
645.89	2809.81
646.08	2928.60
646.27	2834.39
646.46	3014.61
646.65	2803.67
646.84	2963.41
647.03	2703.32
647.22	2957.27
647.40	3076.05
647.59	2940.88
647.78	2731.99
647.97	2842.58
648.16	2869.20
648.35	3153.87
648.54	3151.82
648.73	2861.01
648.91	3188.69
649.10	3045.33
649.29	2809.81
649.48	2734.04
649.67	3117.01
649.86	2955.22
650.05	2893.78
650.23	3069.91
650.42	2916.31
650.61	3196.88
650.80	3133.39
650.99	3057.62
651.18	3188.69
651.36	3211.22
651.55	2744.28
651.74	2951.12
651.93	2959.31
652.12	2942.93
652.31	2963.41
652.49	2924.50
652.68	2924.50
652.87	3250.13
653.06	2985.94
653.25	3123.15
653.44	3069.91
653.62	3215.31
653.81	2799.57
654.00	2852.82
654.19	3098.58
654.38	3399.63
654.56	2971.60
654.75	2740.18
654.94	3172.30
655.13	3061.71
655.32	2832.34
655.51	2914.26
655.69	2850.77
655.88	3063.76
656.07	2701.27
656.26	2844.63
656.45	2809.81
656.63	3071.95
656.82	2838.48
657.01	3157.97
657.20	2856.92
657.38	3219.41
657.57	2895.83
657.76	2648.02
657.95	3092.43
658.14	2891.73
658.32	2901.97
658.51	2744.28
658.70	2983.89
658.89	3022.80
659.08	2961.36
659.26	3119.06
659.45	2807.77
659.64	3100.62
659.83	2815.96
660.01	3221.45
660.20	2990.03
660.39	3266.51
660.58	2519.00
660.76	2901.97
660.95	2750.42
661.14	3020.75
661.33	2746.33
661.51	2904.02
661.70	2881.49
661.89	3121.10
662.08	2904.02
662.26	2691.03
662.45	2863.06
662.64	3258.32
662.83	2916.31
663.01	2748.37
663.20	2850.77
663.39	3217.36
663.58	2889.68
663.76	2842.58
663.95	3114.96
664.14	2787.29
664.32	2818.00
664.51	2713.56
664.70	2754.52
664.89	3065.81
665.07	2721.75
665.26	2910.16
665.45	2809.81
665.64	3106.77
665.82	2840.53
666.01	3045.33
666.20	2834.39
666.38	3094.48
666.57	3039.19
666.76	4798.39
666.95	10862.43
667.13	17590.00
667.32	21249.72
667.51	23985.81
667.69	24964.74
667.88	20745.92
668.07	15017.75
668.25	12930.87
668.44	11194.20
668.63	9729.90
668.81	8482.69
669.00	7360.40
669.19	6651.80
669.38	5961.64
669.56	4941.75
669.75	4306.88
669.94	3817.41
670.12	3432.40
670.31	3094.48
670.50	3137.49
670.68	3168.21
670.87	2992.08
671.06	2867.16
671.24	2955.22
671.43	3243.98
671.62	2998.23
671.80	2832.34
671.99	2904.02
672.18	3100.62
672.36	3084.24
672.55	3020.75
672.74	2891.73
672.92	2852.82
673.11	3164.11
673.29	2701.27
673.48	2965.46
673.67	2944.98
673.85	3248.08
674.04	2807.77
674.23	2963.41
674.41	3262.41
674.60	2836.44
674.79	2617.30
674.97	2799.57
675.16	3155.92
675.34	3231.69
675.53	2820.05
675.72	2912.21
675.90	3395.53
676.09	2932.69
676.28	2975.70
676.46	2686.94
676.65	3065.81
676.83	2803.67
677.02	2901.97
677.21	2928.60
677.39	2955.22
677.58	2830.29
677.77	2865.11
677.95	2785.24
678.14	2996.18
678.32	2947.03
678.51	2848.72
678.70	3168.21
678.88	2934.74
679.07	3014.61
679.25	2836.44
679.44	2889.68
679.63	2740.18
679.81	3014.61
680.00	3059.67
680.18	2961.36
680.37	3194.83
680.55	3045.33
680.74	2779.09
680.93	2678.74
681.11	3035.09
681.30	2971.60
681.48	2904.02
681.67	2908.12
681.85	3012.56
682.04	2820.05
682.23	2977.75
682.41	2975.70
682.60	2947.03
682.78	2967.51
682.97	2748.37
683.15	2953.17
683.34	3063.76
683.53	3180.50
683.71	2750.42
683.90	3002.32
684.08	3256.27
684.27	2914.26
684.45	2932.69
684.64	3039.19
684.82	2996.18
685.01	3104.72
685.19	2750.42
685.38	3131.34
685.57	2957.27
685.75	2766.81
685.94	2803.67
686.12	2791.38
686.31	2942.93
686.49	3170.26
686.68	2666.46
686.86	2924.50
687.05	2953.17
687.23	3319.76
687.42	2850.77
687.60	2705.37
687.79	3155.92
687.97	3229.65
688.16	2932.69
688.34	3125.20
688.53	2684.89
688.71	3078.10
688.90	3106.77
689.08	2916.31
689.27	2734.04
689.45	3080.14
689.64	3014.61
689.82	2904.02
690.01	3096.53
690.19	2975.70
690.38	2971.60
690.56	3039.19
690.75	2758.61
690.93	2854.87
691.12	2811.86
691.30	2897.88
691.49	2844.63
691.67	2975.70
691.86	3209.17
692.04	2830.29
692.23	2947.03
692.41	2934.74
692.60	3166.16
692.78	3071.95
692.97	3026.90
693.15	2983.89
693.34	3067.86
693.52	3100.62
693.71	2981.84
693.89	2885.59
694.08	2672.60
694.26	2916.31
694.44	3100.62
694.63	3108.82
694.81	2801.62
695.00	2822.10
695.18	3176.40
695.37	3424.20
695.55	2944.98
695.74	2936.79
695.92	2850.77
696.10	3213.26
696.29	2680.79
696.47	2873.30
696.66	2762.71
696.84	2781.14
697.03	2940.88
697.21	3162.06
697.40	4423.61
697.58	3241.93
697.76	2846.68
697.95	2746.33
698.13	2838.48
698.32	2932.69
698.50	2846.68
698.68	2871.25
698.87	3084.24
699.05	3248.08
699.24	2873.30
699.42	2789.33
699.61	3016.66
699.79	3049.43
699.97	2897.88
700.16	2770.90
700.34	2789.33
700.53	2906.07
700.71	3067.86
700.89	2969.55
701.08	2899.92
701.26	2891.73
701.45	3248.08
701.63	2787.29
701.81	2838.48
702.00	2824.15
702.18	2967.51
702.37	2756.57
702.55	3176.40
702.73	3065.81
702.92	2885.59
703.10	3108.82
703.28	3055.57
703.47	2838.48
703.65	2983.89
703.84	2967.51
704.02	2844.63
704.20	3268.56
704.39	2832.34
704.57	2809.81
704.75	3151.82
704.94	3006.42
705.12	3004.37
705.30	3401.68
705.49	6662.04
705.67	12668.73
705.86	17907.44
706.04	20569.80
706.22	22650.53
706.41	21919.41
706.59	16801.54
706.77	12840.76
706.96	11284.31
707.14	10454.88
707.32	8814.46
707.51	7896.97
707.69	6651.80
707.87	5425.07
708.06	4538.30
708.24	3938.24
708.42	3594.19
708.61	3629.00
708.79	2942.93
708.97	3041.23
709.16	3170.26
709.34	3057.62
709.52	2863.06
709.71	2889.68
709.89	3190.74
710.07	2781.14
710.26	2799.57
710.44	2885.59
710.62	3121.10
710.80	2947.03
710.99	2963.41
711.17	3074.00
711.35	2846.68
711.54	2820.05
711.72	2990.03
711.90	2928.60
712.09	3057.62
712.27	2861.01
712.45	3004.37
712.63	2854.87
712.82	3069.91
713.00	2942.93
713.18	3082.19
713.37	3049.43
713.55	3203.02
713.73	3112.91
713.91	2957.27
714.10	2885.59
714.28	2981.84
714.46	3016.66
714.65	2940.88
714.83	2983.89
715.01	2971.60
715.19	2967.51
715.38	2828.24
715.56	3018.71
715.74	2795.48
715.92	2869.20
716.11	3170.26
716.29	2576.34
716.47	3014.61
716.65	2955.22
716.84	2705.37
717.02	2969.55
717.20	2633.69
717.38	2897.88
717.57	2967.51
717.75	2842.58
717.93	2932.69
718.11	3114.96
718.30	2848.72
718.48	2906.07
718.66	3252.17
718.84	3176.40
719.03	2846.68
719.21	2721.75
719.39	3280.85
719.57	3045.33
719.75	2944.98
719.94	2703.32
720.12	2961.36
720.30	2975.70
720.48	2928.60
720.67	2861.01
720.85	2801.62
721.03	2871.25
721.21	2820.05
721.39	2914.26
721.58	3078.10
721.76	2963.41
721.94	2906.07
722.12	3037.14
722.30	3237.84
722.49	2910.16
722.67	2883.54
722.85	2934.74
723.03	2822.10
723.21	2912.21
723.40	2949.08
723.58	3100.62
723.76	3057.62
723.94	3196.88
724.12	2934.74
724.30	3078.10
724.49	3157.97
724.67	2863.06
724.85	2955.22
725.03	2662.36
725.21	3059.67
725.40	3121.10
725.58	2815.96
725.76	3041.23
725.94	3047.38
726.12	2795.48
726.30	2891.73
726.49	2809.81
726.67	2893.78
726.85	3022.80
727.03	3459.02
727.21	4450.24
727.39	5529.52
727.57	5869.48
727.76	6123.43
727.94	6295.46
728.12	5490.60
728.30	4739.00
728.48	4413.37
728.66	4181.95
728.84	3864.52
729.03	3461.07
729.21	3340.24
729.39	3194.83
729.57	3010.51
729.75	3078.10
729.93	2959.31
730.11	2775.00
730.30	2899.92
730.48	2899.92
730.66	2955.22
730.84	2961.36
731.02	2967.51
731.20	2861.01
731.38	3045.33
731.56	2682.84
731.74	2670.55
731.93	3051.47
732.11	2955.22
732.29	2805.72
732.47	3037.14
732.65	3045.33
732.83	3125.20
733.01	2918.36
733.19	2858.96
733.37	3084.24
733.56	2932.69
733.74	2781.14
733.92	3213.26
734.10	2959.31
734.28	3039.19
734.46	2705.37
734.64	2828.24
734.82	2840.53
735.00	2797.53
735.18	2809.81
735.36	3004.37
735.54	3039.19
735.73	2850.77
735.91	3047.38
736.09	3319.76
736.27	2918.36
736.45	2969.55
736.63	2551.77
736.81	2895.83
736.99	3135.44
737.17	3057.62
737.35	2844.63
737.53	2998.23
737.71	3010.51
737.89	3045.33
738.07	2820.05
738.25	2832.34
738.43	2738.13
738.61	2883.54
738.80	2797.53
738.98	2797.53
739.16	2967.51
739.34	2838.48
739.52	3151.82
739.70	2992.08
739.88	3104.72
740.06	2987.99
740.24	2654.17
740.42	3241.93
740.60	2684.89
740.78	2858.96
740.96	2676.70
741.14	2869.20
741.32	2971.60
741.50	2715.61
741.68	3123.15
741.86	3143.63
742.04	2799.57
742.22	2664.41
742.40	2926.55
742.58	3012.56
742.76	2846.68
742.94	3078.10
743.12	2643.93
743.30	2922.45
743.48	3006.42
743.66	2813.91
743.84	2832.34
744.02	2936.79
744.20	2996.18
744.38	2832.34
744.56	2781.14
744.74	3301.33
744.92	3049.43
745.10	3139.54
745.28	2959.31
745.46	3264.46
745.64	2928.60
745.82	2990.03
746.00	2805.72
746.18	3053.52
746.36	2834.39
746.54	3039.19
746.72	2871.25
746.90	2768.85
747.08	3155.92
747.26	2861.01
747.44	2981.84
747.62	3026.90
747.80	3080.14
747.98	3002.32
748.15	2842.58
748.33	3237.84
748.51	3035.09
748.69	2969.55
748.87	2746.33
749.05	2957.27
749.23	2961.36
749.41	2838.48
749.59	2770.90
749.77	3112.91
749.95	2906.07
750.13	2820.05
750.31	2940.88
750.49	2985.94
750.67	3106.77
750.85	3037.14
751.03	2844.63
751.20	3303.37
751.38	3041.23
751.56	2861.01
751.74	2844.63
751.92	2850.77
752.10	2779.09
752.28	3030.99
752.46	2787.29
752.64	2965.46
752.82	3000.27
753.00	2973.65
753.18	2861.01
753.35	2981.84
753.53	2947.03
753.71	2875.35
753.89	2883.54
754.07	3059.67
754.25	3162.06
754.43	2908.12
754.61	2729.94
754.79	2992.08
754.97	2885.59
755.14	3020.75
755.32	2748.37
755.50	3004.37
755.68	3049.43
755.86	2858.96
756.04	2834.39
756.22	2617.30
756.40	3125.20
756.57	3108.82
756.75	2793.43
756.93	3172.30
757.11	3184.59
757.29	2684.89
757.47	2779.09
757.65	2652.12
757.82	2555.86
758.00	2815.96
758.18	2848.72
758.36	2824.15
758.54	3295.18
758.72	2725.85
758.90	2994.13
759.07	2977.75
759.25	2815.96
759.43	2983.89
759.61	2758.61
759.79	4267.97
759.97	3092.43
760.15	2844.63
760.32	2901.97
760.50	3033.04
760.68	3233.74
760.86	2760.66
761.04	3119.06
761.22	3071.95
761.39	3090.38
761.57	2938.84
761.75	2863.06
761.93	3039.19
762.11	2969.55
762.28	2932.69
762.46	2824.15
762.64	3151.82
762.82	2713.56
763.00	2852.82
763.18	3151.82
763.35	2793.43
763.53	3039.19
763.71	2983.89
763.89	2863.06
764.07	2947.03
764.24	3051.47
764.42	2926.55
764.60	2875.35
764.78	3071.95
764.96	3203.02
765.13	3039.19
765.31	2832.34
765.49	3172.30
765.67	2813.91
765.84	2867.16
766.02	2834.39
766.20	2736.09
766.38	3033.04
766.56	3033.04
766.73	2967.51
766.91	2965.46
767.09	3008.47
767.27	2940.88
767.44	2754.52
767.62	3135.44
767.80	2992.08
767.98	2781.14
768.15	2838.48
768.33	3155.92
768.51	3100.62
768.69	3016.66
768.87	2906.07
769.04	3024.85
769.22	3440.59
769.40	3051.47
769.58	3004.37
769.75	3078.10
769.93	3237.84
770.11	2875.35
770.28	2789.33
770.46	3188.69
770.64	3092.43
770.82	2824.15
770.99	2832.34
771.17	3000.27
771.35	2971.60
771.53	2893.78
771.70	2824.15
771.88	2992.08
772.06	2990.03
772.23	2809.81
772.41	2879.44
772.59	2926.55
772.77	2793.43
772.94	2895.83
773.12	2957.27
773.30	2799.57
773.47	3061.71
773.65	2768.85
773.83	3000.27
774.01	2932.69
774.18	2736.09
774.36	2840.53
774.54	2772.95
774.71	2979.79
774.89	2693.08
775.07	2758.61
775.24	2832.34
775.42	2936.79
775.60	3258.32
775.78	2820.05
775.95	2703.32
776.13	2666.46
776.31	2760.66
776.48	2944.98
776.66	3039.19
776.84	2971.60
777.01	2844.63
777.19	2731.99
777.37	2785.24
777.54	3096.53
777.72	3219.41
777.90	2961.36
778.07	2805.72
778.25	3499.98
778.43	3178.45
778.60	2852.82
778.78	3028.95
778.96	3203.02
779.13	2789.33
779.31	2920.40
779.49	2865.11
779.66	3053.52
779.84	2983.89
780.01	2803.67
780.19	2818.00
780.37	3213.26
780.54	3076.05
780.72	2703.32
780.90	2842.58
781.07	2955.22
781.25	2918.36
781.43	3049.43
781.60	2787.29
781.78	3260.37
781.95	2994.13
782.13	2826.20
782.31	2844.63
782.48	2742.23
782.66	2951.12
782.83	3209.17
783.01	3020.75
783.19	3114.96
783.36	2936.79
783.54	2758.61
783.72	2983.89
783.89	2881.49
784.07	3026.90
784.24	2996.18
784.42	3037.14
784.60	3030.99
784.77	3065.81
784.95	2709.46
785.12	2824.15
785.30	3012.56
785.47	2803.67
785.65	2764.76
785.83	2904.02
786.00	2926.55
786.18	3051.47
786.35	2729.94
786.53	2787.29
786.71	3121.10
786.88	3106.77
787.06	2908.12
787.23	2861.01
787.41	2840.53
787.58	2961.36
787.76	2781.14
787.94	2887.64
788.11	3016.66
788.29	2834.39
788.46	2885.59
788.64	2637.78
788.81	2865.11
788.99	2811.86
789.16	2738.13
789.34	2858.96
789.52	2887.64
789.69	2916.31
789.87	2637.78
790.04	2781.14
790.22	2990.03
790.39	3327.95
790.57	2701.27
790.74	2836.44
790.92	3151.82
791.09	2650.07
791.27	2983.89
791.44	2940.88
791.62	2973.65
791.79	3121.10
791.97	2928.60
792.15	3262.41
792.32	3092.43
792.50	3063.76
792.67	3074.00
792.85	3065.81
793.02	2987.99
793.20	2846.68
793.37	2822.10
793.55	2813.91
793.72	2723.80
793.90	3074.00
794.07	2838.48
794.25	2828.24
794.42	2959.31
794.60	2861.01
794.77	2987.99
794.95	3024.85
795.12	3086.29
795.30	2971.60
795.47	2629.59
795.65	3190.74
795.82	3055.57
796.00	2781.14
796.17	2887.64
796.34	2756.57
796.52	3080.14
796.69	3174.35
796.87	2961.36
797.04	2977.75
797.22	3108.82
797.39	3080.14
797.57	3022.80
797.74	2953.17
797.92	2959.31
798.09	2904.02
798.27	3098.58
798.44	2813.91
798.62	2936.79
798.79	3106.77
798.96	2992.08
799.14	2906.07
799.31	3379.15
799.49	3059.67
799.66	2875.35
799.84	2875.35
800.01	2738.13
800.19	3004.37
800.36	2650.07
800.53	2930.64
800.71	3022.80
800.88	3282.89
801.06	2725.85
801.23	2832.34
801.41	2873.30
801.58	2836.44
801.75	2861.01
801.93	2926.55
802.10	3108.82
802.28	2922.45
802.45	2899.92
802.63	2869.20
802.80	3178.45
802.97	2912.21
803.15	2822.10
803.32	2828.24
803.50	2865.11
803.67	2856.92
803.84	2799.57
804.02	2944.98
804.19	2877.40
804.37	2564.06
804.54	2740.18
804.71	2807.77
804.89	3002.32
805.06	2838.48
805.24	2709.46
805.41	2748.37
805.58	2826.20
805.76	3356.62
805.93	2861.01
806.10	3010.51
806.28	2953.17
806.45	2987.99
806.63	2961.36
806.80	2965.46
806.97	3071.95
807.15	3010.51
807.32	2924.50
807.49	2828.24
807.67	2787.29
807.84	3045.33
808.01	2666.46
808.19	3039.19
808.36	3397.58
808.54	2938.84
808.71	2830.29
808.88	2895.83
809.06	3205.07
809.23	3188.69
809.40	2840.53
809.58	2842.58
809.75	3000.27
809.92	2844.63
810.10	3129.30
810.27	2901.97
810.44	3014.61
810.62	3143.63
810.79	2967.51
810.96	2772.95
811.14	2912.21
811.31	2985.94
811.48	2998.23
811.66	2871.25
811.83	3143.63
812.00	3129.30
812.18	2971.60
812.35	3215.31
812.52	3016.66
812.69	2947.03
812.87	2770.90
813.04	2861.01
813.21	2959.31
813.39	2904.02
813.56	2785.24
813.73	3094.48
813.91	2691.03
814.08	2891.73
814.25	2912.21
814.42	2725.85
814.60	2844.63
814.77	2920.40
814.94	2799.57
815.12	2951.12
815.29	3231.69
815.46	2916.31
815.63	2899.92
815.81	2869.20
815.98	2899.92
816.15	2977.75
816.33	2953.17
816.50	2906.07
816.67	2918.36
816.84	2910.16
817.02	2820.05
817.19	2836.44
817.36	3059.67
817.53	3059.67
817.71	2791.38
817.88	2953.17
818.05	2957.27
818.22	2899.92
818.40	3069.91
818.57	2807.77
818.74	3045.33
818.91	2885.59
819.09	3010.51
819.26	2928.60
819.43	2887.64
819.60	2871.25
819.78	2987.99
819.95	2932.69
820.12	2695.13
820.29	3262.41
820.47	3117.01
820.64	2779.09
820.81	2791.38
820.98	2873.30
821.15	2770.90
821.33	2996.18
821.50	2760.66
821.67	3114.96
821.84	2811.86
822.02	2924.50
822.19	3108.82
822.36	2930.64
822.53	2867.16
822.70	2719.70
822.88	2971.60
823.05	3149.78
823.22	2824.15
823.39	2820.05
823.56	2942.93
823.74	3215.31
823.91	2719.70
824.08	2854.87
824.25	2740.18
824.42	3289.04
824.60	2748.37
824.77	2936.79
824.94	2934.74
825.11	3084.24
825.28	2672.60
825.45	2987.99
825.63	2963.41
825.80	2795.48
825.97	2871.25
826.14	2934.74
826.31	2723.80
826.48	3018.71
826.66	2842.58
826.83	2813.91
827.00	2912.21
827.17	2824.15
827.34	2940.88
827.51	2772.95
827.69	2967.51
827.86	2787.29
828.03	2916.31
828.20	2838.48
828.37	2906.07
828.54	3043.28
828.71	2854.87
828.89	3004.37
829.06	2994.13
829.23	3219.41
829.40	2772.95
829.57	2805.72
829.74	3088.34
829.91	2918.36
830.09	2758.61
830.26	2973.65
830.43	3231.69
830.60	2990.03
830.77	2947.03
830.94	3035.09
831.11	3100.62
831.28	2877.40
831.46	2996.18
831.63	2777.05
831.80	3182.54
831.97	2858.96
832.14	2801.62
832.31	2885.59
832.48	3041.23
832.65	3160.02
832.82	3022.80
832.99	2961.36
833.17	2775.00
833.34	3231.69
833.51	2889.68
833.68	2693.08
833.85	3139.54
834.02	2789.33
834.19	2820.05
834.36	2779.09
834.53	2983.89
834.70	3157.97
834.87	2846.68
835.04	2664.41
835.22	2877.40
835.39	2975.70
835.56	2715.61
835.73	2807.77
835.90	3237.84
836.07	2803.67
836.24	2924.50
836.41	2701.27
836.58	2852.82
836.75	3106.77
836.92	2770.90
837.09	2701.27
837.26	3135.44
837.43	3026.90
837.60	2793.43
837.77	2740.18
837.94	3067.86
838.12	3166.16
838.29	2684.89
838.46	2654.17
838.63	2826.20
838.80	3274.70
838.97	2797.53
839.14	2605.02
839.31	2953.17
839.48	2963.41
839.65	2736.09
839.82	2856.92
839.99	2981.84
840.16	2906.07
840.33	2676.70
840.50	2744.28
840.67	2818.00
840.84	2582.49
841.01	2672.60
841.18	2699.22
841.35	2992.08
841.52	3129.30
841.69	3026.90
841.86	2777.05
842.03	3026.90
842.20	3074.00
842.37	2754.52
842.54	2789.33
842.71	2961.36
842.88	2803.67
843.05	2828.24
843.22	2824.15
843.39	3096.53
843.56	2885.59
843.73	2740.18
843.90	2797.53
844.07	3059.67
844.24	3160.02
844.41	2807.77
844.58	2840.53
844.75	2922.45
844.92	3076.05
845.09	2709.46
845.26	2721.75
845.43	3063.76
845.60	2897.88
845.77	2844.63
845.94	2799.57
846.10	3215.31
846.27	2686.94
846.44	2629.59
846.61	2645.98
846.78	3131.34
846.95	3145.68
847.12	2729.94
847.29	2731.99
847.46	2717.65
847.63	3149.78
847.80	2654.17
847.97	2746.33
848.14	3418.06
848.31	2953.17
848.48	2629.59
848.65	2744.28
848.82	2967.51
848.98	3368.91
849.15	2887.64
849.32	2824.15
849.49	3157.97
849.66	3016.66
849.83	2736.09
850.00	2713.56
850.17	3086.29
850.34	2893.78
850.51	2717.65
850.68	2738.13
850.85	3354.57
851.01	3067.86
851.18	2783.19
851.35	2770.90
851.52	3030.99
851.69	3223.50
851.86	2693.08
852.03	2668.50
852.20	3143.63
852.37	2979.79
852.53	2654.17
852.70	2697.17
852.87	2953.17
853.04	3063.76
853.21	2746.33
853.38	2963.41
853.55	3190.74
853.72	3149.78
853.89	2652.12
854.05	2770.90
854.22	2979.79
854.39	2895.83
854.56	2674.65
854.73	2883.54
854.90	2762.71
855.07	2836.44
855.23	2666.46
855.40	2672.60
855.57	2881.49
855.74	2668.50
855.91	2879.44
856.08	2576.34
856.25	2684.89
856.41	2901.97
856.58	2713.56
856.75	2766.81
856.92	2785.24
857.09	3076.05
857.26	2621.40
857.42	2750.42
857.59	3153.87
857.76	2897.88
857.93	2746.33
858.10	2791.38
858.27	2815.96
858.43	2992.08
858.60	2746.33
858.77	2582.49
858.94	2895.83
859.11	3205.07
859.27	2750.42
859.44	2699.22
859.61	3295.18
859.78	3024.85
859.95	2734.04
860.12	2688.98
860.28	3344.33
860.45	3344.33
860.62	2682.84
860.79	2848.72
860.95	2973.65
861.12	2820.05
861.29	2625.50
861.46	2717.65
861.63	2973.65
861.79	3069.91
861.96	2633.69
862.13	2701.27
862.30	3266.51
862.47	2914.26
862.63	2707.41
862.80	2799.57
862.97	3080.14
863.14	2942.93
863.30	2809.81
863.47	2678.74
863.64	3239.89
863.81	2992.08
863.97	2621.40
864.14	2801.62
864.31	2899.92
864.48	3043.28
864.65	2781.14
864.81	2838.48
864.98	3071.95
865.15	3067.86
865.32	2783.19
865.48	2848.72
865.65	3280.85
865.82	2920.40
865.98	2822.10
866.15	2815.96
866.32	2916.31
866.49	2879.44
866.65	2932.69
866.82	2734.04
866.99	2916.31
867.16	2922.45
867.32	2770.90
867.49	2674.65
867.66	2863.06
867.83	2949.08
867.99	2668.50
868.16	2785.24
868.33	2707.41
868.49	2973.65
868.66	2783.19
868.83	2852.82
868.99	2987.99
869.16	3000.27
869.33	2871.25
869.50	2754.52
869.66	2992.08
869.83	2856.92
870.00	2650.07
870.16	2836.44
870.33	2959.31
870.50	3094.48
870.66	2809.81
870.83	2766.81
871.00	3000.27
871.17	3112.91
871.33	2838.48
871.50	2727.89
871.67	2949.08
871.83	2871.25
872.00	2834.39
872.17	2797.53
872.33	3299.28
872.50	3174.35
872.67	2693.08
872.83	2709.46
873.00	2930.64
873.17	2967.51
873.33	2781.14
873.50	2805.72
873.67	2858.96
873.83	2740.18
874.00	2805.72
874.16	2899.92
874.33	3061.71
874.50	2758.61
874.66	2746.33
874.83	2848.72
875.00	3088.34
875.16	3164.11
875.33	2748.37
875.50	2605.02
875.66	2834.39
875.83	3037.14
875.99	2772.95
876.16	2906.07
876.33	2758.61
876.49	2985.94
876.66	2783.19
876.83	2777.05
876.99	2672.60
877.16	2918.36
877.32	2738.13
877.49	2840.53
877.66	2985.94
877.82	3174.35
877.99	2820.05
878.15	3008.47
878.32	3033.04
878.49	3041.23
878.65	2807.77
878.82	2979.79
878.98	2877.40
879.15	3139.54
879.32	2987.99
879.48	2912.21
879.65	2834.39
879.81	2990.03
879.98	2740.18
880.15	2723.80
880.31	3035.09
880.48	2834.39
880.64	2877.40
880.81	2904.02
880.97	3223.50
881.14	3108.82
881.31	2645.98
881.47	2914.26
881.64	2957.27
881.80	2742.23
881.97	2848.72
882.13	2764.76
882.30	2801.62
882.47	2820.05
882.63	2676.70
882.80	2738.13
882.96	2897.88
883.13	3194.83
883.29	2762.71
883.46	2813.91
883.62	3375.05
883.79	2920.40
883.95	2881.49
884.12	2717.65
884.29	3147.73
884.45	2940.88
884.62	2795.48
884.78	2584.54
884.95	3229.65
885.11	2826.20
885.28	2787.29
885.44	2789.33
885.61	3063.76
885.77	3168.21
885.94	2858.96
886.10	2768.85
886.27	2969.55
886.43	3258.32
886.60	2918.36
886.76	2719.70
886.93	2920.40
887.09	3053.52
887.26	2527.19
887.42	2805.72
887.59	3237.84
887.75	3342.28
887.92	2959.31
888.08	2863.06
888.25	3233.74
888.41	3176.40
888.58	2799.57
888.74	2635.74
888.91	2846.68
>>>>>End Processed Spectral Data<<<<<
