SpectraSuite Data File
++++++++++++++++++++++++++++++++++++
Date: Thu May 05 21:11:01 CEST 2016
User: root
Dark Spectrum Present: No
Reference Spectrum Present: No
Number of Sampled Component Spectra: 1
Spectrometers: USB4C02835
Integration Time (usec): 100000 (USB4C02835)
Spectra Averaged: 1 (USB4C02835)
Boxcar Smoothing: 0 (USB4C02835)
Correct for Electrical Dark: No (USB4C02835)
Strobe/Lamp Enabled: No (USB4C02835)
Correct for Detector Non-linearity: No (USB4C02835)
Correct for Stray Light: No (USB4C02835)
Number of Pixels in Processed Spectrum: 3648
>>>>>Begin Processed Spectral Data<<<<<
177.47	2166.75
177.69	2166.75
177.91	2166.75
178.13	2097.12
178.36	2123.74
178.58	2793.43
178.80	2916.31
179.02	2736.09
179.24	2744.28
179.46	2664.41
179.68	2688.98
179.90	2957.27
180.13	2973.65
180.35	2549.72
180.57	2549.72
180.79	3030.99
181.01	2926.55
181.23	2697.17
181.45	2815.96
181.67	3174.35
181.90	3094.48
182.12	2699.22
182.34	2574.30
182.56	3127.25
182.78	3047.38
183.00	2736.09
183.22	2762.71
183.44	2658.26
183.66	3542.99
183.89	2820.05
184.11	2738.13
184.33	3092.43
184.55	3172.30
184.77	2648.02
184.99	2752.47
185.21	2893.78
185.43	3430.35
185.65	2600.92
185.87	2645.98
186.10	3436.49
186.32	3338.19
186.54	2791.38
186.76	2781.14
186.98	3151.82
187.20	3094.48
187.42	2731.99
187.64	2678.74
187.86	2994.13
188.08	3176.40
188.30	2555.86
188.52	2686.94
188.75	3188.69
188.97	3256.27
189.19	2727.89
189.41	2602.97
189.63	3043.28
189.85	2949.08
190.07	2639.83
190.29	2533.34
190.51	3037.14
190.73	2699.22
190.95	2854.87
191.17	2709.46
191.39	2715.61
191.61	2932.69
191.84	2682.84
192.06	2783.19
192.28	2811.86
192.50	3467.21
192.72	2887.64
192.94	2719.70
193.16	3207.12
193.38	3057.62
193.60	2562.01
193.82	2777.05
194.04	3127.25
194.26	3045.33
194.48	2660.31
194.70	2756.57
194.92	2914.26
195.14	3078.10
195.36	2607.06
195.58	2783.19
195.80	2953.17
196.02	2906.07
196.24	2703.32
196.46	2703.32
196.69	2781.14
196.91	3504.07
197.13	2643.93
197.35	2697.17
197.57	3207.12
197.79	3131.34
198.01	2731.99
198.23	2746.33
198.45	3131.34
198.67	2807.77
198.89	2553.82
199.11	2770.90
199.33	2918.36
199.55	2570.20
199.77	2621.40
199.99	2775.00
200.21	2893.78
200.43	3039.19
200.65	2537.43
200.87	2541.53
201.09	3028.95
201.31	2895.83
201.53	2789.33
201.75	2731.99
201.97	2932.69
202.19	2975.70
202.41	2828.24
202.63	2775.00
202.85	3110.86
203.07	3035.09
203.29	2752.47
203.51	2635.74
203.73	2887.64
203.95	3465.16
204.17	2688.98
204.39	2854.87
204.61	2979.79
204.83	2938.84
205.05	2805.72
205.27	2678.74
205.49	3401.68
205.71	2951.12
205.93	2523.10
206.15	2566.10
206.37	3061.71
206.59	2899.92
206.81	2559.96
207.03	2570.20
207.25	2836.44
207.47	3045.33
207.69	2682.84
207.91	2895.83
208.13	3299.28
208.34	2873.30
208.56	2588.63
208.78	2701.27
209.00	2987.99
209.22	2869.20
209.44	2693.08
209.66	2674.65
209.88	3000.27
210.10	2959.31
210.32	2658.26
210.54	2793.43
210.76	2990.03
210.98	3200.98
211.20	2459.61
211.42	2832.34
211.64	3241.93
211.86	3082.19
212.08	2740.18
212.30	2688.98
212.52	2977.75
212.74	3164.11
212.96	2768.85
213.17	2723.80
213.39	3155.92
213.61	3272.65
213.83	2680.79
214.05	2602.97
214.27	3262.41
214.49	2838.48
214.71	2615.26
214.93	2770.90
215.15	3051.47
215.37	3157.97
215.59	2574.30
215.81	2770.90
216.03	3153.87
216.24	2981.84
216.46	2686.94
216.68	2719.70
216.90	3178.45
217.12	3125.20
217.34	2629.59
217.56	2910.16
217.78	3237.84
218.00	3082.19
218.22	2793.43
218.44	2756.57
218.66	3078.10
218.87	3389.39
219.09	2635.74
219.31	2693.08
219.53	2998.23
219.75	2889.68
219.97	2674.65
220.19	2721.75
220.41	2953.17
220.63	3274.70
220.85	2695.13
221.06	2676.70
221.28	3254.22
221.50	3106.77
221.72	2662.36
221.94	2580.44
222.16	3069.91
222.38	3223.50
222.60	2650.07
222.82	2719.70
223.03	3151.82
223.25	2762.71
223.47	2641.88
223.69	2875.35
223.91	3188.69
224.13	3006.42
224.35	2602.97
224.57	2942.93
224.78	3110.86
225.00	2842.58
225.22	2764.76
225.44	2572.25
225.66	3053.52
225.88	2805.72
226.10	2738.13
226.32	2648.02
226.53	3207.12
226.75	2959.31
226.97	2752.47
227.19	2770.90
227.41	2783.19
227.63	2818.00
227.85	2508.76
228.06	2729.94
228.28	2998.23
228.50	3184.59
228.72	2502.62
228.94	2545.63
229.16	2740.18
229.37	2863.06
229.59	2633.69
229.81	2920.40
230.03	2961.36
230.25	2842.58
230.47	2557.91
230.69	2662.36
230.90	3155.92
231.12	2811.86
231.34	2785.24
231.56	2740.18
231.78	2787.29
232.00	3018.71
232.21	2775.00
232.43	2740.18
232.65	2625.50
232.87	3063.76
233.09	2516.95
233.30	2625.50
233.52	3153.87
233.74	2936.79
233.96	2723.80
234.18	2912.21
234.40	2934.74
234.61	3383.24
234.83	2607.06
235.05	2559.96
235.27	3375.05
235.49	3198.93
235.70	2580.44
235.92	2688.98
236.14	3063.76
236.36	3407.82
236.58	2629.59
236.79	2752.47
237.01	2994.13
237.23	3016.66
237.45	2916.31
237.67	2746.33
237.88	3121.10
238.10	3309.52
238.32	2576.34
238.54	2633.69
238.76	2932.69
238.97	2809.81
239.19	2588.63
239.41	2738.13
239.63	3129.30
239.85	2957.27
240.06	2746.33
240.28	2672.60
240.50	3168.21
240.72	2963.41
240.93	2615.26
241.15	2854.87
241.37	3014.61
241.59	3151.82
241.81	2676.70
242.02	2731.99
242.24	3088.34
242.46	3002.32
242.68	2527.19
242.89	2566.10
243.11	3241.93
243.33	2977.75
243.55	2668.50
243.76	2748.37
243.98	2942.93
244.20	2979.79
244.42	2645.98
244.64	2686.94
244.85	2887.64
245.07	2865.11
245.29	2688.98
245.51	2779.09
245.72	3094.48
245.94	3174.35
246.16	2693.08
246.38	2691.03
246.59	2889.68
246.81	2891.73
247.03	2605.02
247.24	2537.43
247.46	2930.64
247.68	3041.23
247.90	2633.69
248.11	2764.76
248.33	3084.24
248.55	2932.69
248.77	2766.81
248.98	2775.00
249.20	3280.85
249.42	3008.47
249.64	2682.84
249.85	2625.50
250.07	2942.93
250.29	3065.81
250.50	2729.94
250.72	2629.59
250.94	3000.27
251.16	3340.24
251.37	2670.55
251.59	2740.18
251.81	3069.91
252.02	3223.50
252.24	2609.11
252.46	2807.77
252.68	2803.67
252.89	2852.82
253.11	2607.06
253.33	2856.92
253.54	3211.22
253.76	2721.75
253.98	2645.98
254.20	2656.22
254.41	2766.81
254.63	2910.16
254.85	2531.29
255.06	2740.18
255.28	3043.28
255.50	2961.36
255.71	2615.26
255.93	2564.06
256.15	2965.46
256.36	3069.91
256.58	2578.39
256.80	2662.36
257.02	2932.69
257.23	2834.39
257.45	2713.56
257.67	2799.57
257.88	2963.41
258.10	3063.76
258.32	2670.55
258.53	2715.61
258.75	3227.60
258.97	2887.64
259.18	2613.21
259.40	2576.34
259.62	3274.70
259.83	3174.35
260.05	2744.28
260.27	3485.64
260.48	3096.53
260.70	2791.38
260.92	2617.30
261.13	2682.84
261.35	3043.28
261.57	3069.91
261.78	2566.10
262.00	2633.69
262.22	3033.04
262.43	2883.54
262.65	2770.90
262.86	2699.22
263.08	3428.30
263.30	2920.40
263.51	2498.52
263.73	2635.74
263.95	3235.79
264.16	2926.55
264.38	2629.59
264.60	2701.27
264.81	2942.93
265.03	3160.02
265.25	2987.99
265.46	2674.65
265.68	3229.65
265.89	3100.62
266.11	2527.19
266.33	2729.94
266.54	3209.17
266.76	3084.24
266.98	2756.57
267.19	2873.30
267.41	3192.78
267.62	2998.23
267.84	2592.73
268.06	2756.57
268.27	2979.79
268.49	3323.85
268.70	2721.75
268.92	2717.65
269.14	2793.43
269.35	2764.76
269.57	2762.71
269.79	2695.13
270.00	2912.21
270.22	3237.84
270.43	2545.63
270.65	2519.00
270.87	3008.47
271.08	3063.76
271.30	2910.16
271.51	2623.45
271.73	3053.52
271.95	3246.03
272.16	2650.07
272.38	2856.92
272.59	2910.16
272.81	3096.53
273.02	2678.74
273.24	2721.75
273.46	3188.69
273.67	2803.67
273.89	2514.91
274.10	2680.79
274.32	3172.30
274.54	3008.47
274.75	2783.19
274.97	2770.90
275.18	3137.49
275.40	3057.62
275.61	2707.41
275.83	2834.39
276.05	2809.81
276.26	2924.50
276.48	2861.01
276.69	2826.20
276.91	2891.73
277.12	3332.05
277.34	2942.93
277.55	2912.21
277.77	2994.13
277.99	2910.16
278.20	2805.72
278.42	2721.75
278.63	2881.49
278.85	2803.67
279.06	2703.32
279.28	2897.88
279.49	3168.21
279.71	3104.72
279.93	2791.38
280.14	2852.82
280.36	2801.62
280.57	3194.83
280.79	2891.73
281.00	2666.46
281.22	2832.34
281.43	3127.25
281.65	2555.86
281.86	2697.17
282.08	3131.34
282.29	3350.48
282.51	2764.76
282.73	2705.37
282.94	2746.33
283.16	3127.25
283.37	2924.50
283.59	2912.21
283.80	3002.32
284.02	2975.70
284.23	2824.15
284.45	2768.85
284.66	2875.35
284.88	2865.11
285.09	2750.42
285.31	2836.44
285.52	3104.72
285.74	2674.65
285.95	2893.78
286.17	2852.82
286.38	3213.26
286.60	2830.29
286.81	2727.89
287.03	2789.33
287.24	2955.22
287.46	3108.82
287.67	2861.01
287.89	3041.23
288.10	2916.31
288.32	2904.02
288.53	2904.02
288.75	2918.36
288.96	3096.53
289.18	2932.69
289.39	2742.23
289.61	2877.40
289.82	3299.28
290.04	3364.81
290.25	2688.98
290.47	2873.30
290.68	2920.40
290.90	3231.69
291.11	2576.34
291.33	2901.97
291.54	2875.35
291.76	2879.44
291.97	2863.06
292.18	2856.92
292.40	2881.49
292.61	2912.21
292.83	3061.71
293.04	2867.16
293.26	3114.96
293.47	2963.41
293.69	2725.85
293.90	2756.57
294.12	3106.77
294.33	3043.28
294.55	2836.44
294.76	2932.69
294.97	3250.13
295.19	3340.24
295.40	2746.33
295.62	2858.96
295.83	3131.34
296.05	2830.29
296.26	3020.75
296.48	2867.16
296.69	2861.01
296.90	2981.84
297.12	2981.84
297.33	2998.23
297.55	2985.94
297.76	3022.80
297.98	2914.26
298.19	2963.41
298.41	3069.91
298.62	2852.82
298.83	2987.99
299.05	2877.40
299.26	2883.54
299.48	2830.29
299.69	2992.08
299.90	2818.00
300.12	2818.00
300.33	3170.26
300.55	2883.54
300.76	2815.96
300.98	2856.92
301.19	3045.33
301.40	2752.47
301.62	2807.77
301.83	3022.80
302.05	2938.84
302.26	2766.81
302.47	2967.51
302.69	2854.87
302.90	3010.51
303.12	2648.02
303.33	2846.68
303.54	3307.47
303.76	2901.97
303.97	2723.80
304.19	2985.94
304.40	2883.54
304.61	3063.76
304.83	2908.12
305.04	2938.84
305.26	3076.05
305.47	2822.10
305.68	2770.90
305.90	2623.45
306.11	3194.83
306.33	2983.89
306.54	2770.90
306.75	2719.70
306.97	2715.61
307.18	2838.48
307.39	2742.23
307.61	2901.97
307.82	2985.94
308.04	3061.71
308.25	2686.94
308.46	2932.69
308.68	2893.78
308.89	2975.70
309.10	2961.36
309.32	2836.44
309.53	3008.47
309.74	3074.00
309.96	2764.76
310.17	2934.74
310.39	2987.99
310.60	3094.48
310.81	2828.24
311.03	2752.47
311.24	3117.01
311.45	2899.92
311.67	3018.71
311.88	2910.16
312.09	2922.45
312.31	2889.68
312.52	2754.52
312.73	2869.20
312.95	2805.72
313.16	2815.96
313.37	2951.12
313.59	2963.41
313.80	3088.34
314.01	3229.65
314.23	2830.29
314.44	2770.90
314.65	2791.38
314.87	2858.96
315.08	2744.28
315.29	2828.24
315.51	2865.11
315.72	2775.00
315.93	2947.03
316.15	2838.48
316.36	2899.92
316.57	2910.16
316.79	2889.68
317.00	2756.57
317.21	3178.45
317.43	2727.89
317.64	2891.73
317.85	2701.27
318.07	2891.73
318.28	2918.36
318.49	2838.48
318.70	2955.22
318.92	2975.70
319.13	3061.71
319.34	2965.46
319.56	2781.14
319.77	3065.81
319.98	3135.44
320.20	2947.03
320.41	3008.47
320.62	3063.76
320.83	2885.59
321.05	3030.99
321.26	2824.15
321.47	3131.34
321.69	3235.79
321.90	2613.21
322.11	2772.95
322.32	3014.61
322.54	3233.74
322.75	2906.07
322.96	3411.92
323.18	2746.33
323.39	2645.98
323.60	2742.23
323.81	2951.12
324.03	2789.33
324.24	2910.16
324.45	2918.36
324.66	2832.34
324.88	3139.54
325.09	3227.60
325.30	2752.47
325.52	2738.13
325.73	3012.56
325.94	2805.72
326.15	2662.36
326.37	2707.41
326.58	3053.52
326.79	3262.41
327.00	2766.81
327.22	2768.85
327.43	2895.83
327.64	2787.29
327.85	2908.12
328.07	2801.62
328.28	3323.85
328.49	2846.68
328.70	2842.58
328.92	2795.48
329.13	2967.51
329.34	3088.34
329.55	2992.08
329.76	2928.60
329.98	2875.35
330.19	3114.96
330.40	2809.81
330.61	2844.63
330.83	3123.15
331.04	2832.34
331.25	2922.45
331.46	2830.29
331.68	2721.75
331.89	3227.60
332.10	2887.64
332.31	2674.65
332.52	2977.75
332.74	3194.83
332.95	2666.46
333.16	2789.33
333.37	3061.71
333.58	2994.13
333.80	2846.68
334.01	2559.96
334.22	2965.46
334.43	2934.74
334.64	2701.27
334.86	2701.27
335.07	2852.82
335.28	3286.99
335.49	2715.61
335.70	2920.40
335.92	3205.07
336.13	3358.67
336.34	2920.40
336.55	2803.67
336.76	3006.42
336.98	2668.50
337.19	2840.53
337.40	2895.83
337.61	3485.64
337.82	2873.30
338.04	2863.06
338.25	2668.50
338.46	2965.46
338.67	2971.60
338.88	2772.95
339.09	2693.08
339.31	2973.65
339.52	2740.18
339.73	2742.23
339.94	2879.44
340.15	3078.10
340.36	2854.87
340.58	2883.54
340.79	2660.31
341.00	3014.61
341.21	2787.29
341.42	3135.44
341.63	2822.10
341.85	3047.38
342.06	2994.13
342.27	2752.47
342.48	2975.70
342.69	2793.43
342.90	3028.95
343.12	3078.10
343.33	2721.75
343.54	3137.49
343.75	3241.93
343.96	2875.35
344.17	2754.52
344.38	2944.98
344.60	2883.54
344.81	2746.33
345.02	2856.92
345.23	3088.34
345.44	3459.02
345.65	2844.63
345.86	2912.21
346.07	2959.31
346.29	2967.51
346.50	2949.08
346.71	2852.82
346.92	3295.18
347.13	3358.67
347.34	2955.22
347.55	2635.74
347.76	3088.34
347.98	2701.27
348.19	2803.67
348.40	2942.93
348.61	2908.12
348.82	3254.22
349.03	2840.53
349.24	2697.17
349.45	3342.28
349.66	2668.50
349.88	2803.67
350.09	2666.46
350.30	3209.17
350.51	3235.79
350.72	2885.59
350.93	2787.29
351.14	2897.88
351.35	3010.51
351.56	2801.62
351.77	2891.73
351.99	3047.38
352.20	3166.16
352.41	2930.64
352.62	2586.58
352.83	2992.08
353.04	3043.28
353.25	2842.58
353.46	2893.78
353.67	3137.49
353.88	2625.50
354.09	2834.39
354.30	2815.96
354.52	3092.43
354.73	2904.02
354.94	2856.92
355.15	2912.21
355.36	3362.76
355.57	2858.96
355.78	2721.75
355.99	2799.57
356.20	2934.74
356.41	3221.45
356.62	2889.68
356.83	2830.29
357.04	3223.50
357.25	2740.18
357.46	2904.02
357.68	2629.59
357.89	2781.14
358.10	2981.84
358.31	2815.96
358.52	2795.48
358.73	2791.38
358.94	2785.24
359.15	2779.09
359.36	2867.16
359.57	2965.46
359.78	2908.12
359.99	2975.70
360.20	2746.33
360.41	3002.32
360.62	3063.76
360.83	2848.72
361.04	2793.43
361.25	3028.95
361.46	3254.22
361.67	2899.92
361.88	2893.78
362.09	3166.16
362.30	3112.91
362.51	2688.98
362.72	2838.48
362.93	3127.25
363.14	3000.27
363.35	2922.45
363.56	2729.94
363.78	3186.64
363.99	3153.87
364.20	2822.10
364.41	2904.02
364.62	3272.65
364.83	3022.80
365.04	2820.05
365.25	2805.72
365.46	3295.18
365.67	2899.92
365.88	2893.78
366.09	2842.58
366.30	2838.48
366.51	2979.79
366.72	2715.61
366.93	2754.52
367.14	2967.51
367.35	3090.38
367.56	2742.23
367.77	2973.65
367.98	2953.17
368.18	2985.94
368.39	2971.60
368.60	2721.75
368.81	3151.82
369.02	3088.34
369.23	2785.24
369.44	2672.60
369.65	2942.93
369.86	3033.04
370.07	2897.88
370.28	2719.70
370.49	3094.48
370.70	3039.19
370.91	2676.70
371.12	2719.70
371.33	3184.59
371.54	2928.60
371.75	2947.03
371.96	2525.15
372.17	2985.94
372.38	2975.70
372.59	2727.89
372.80	2840.53
373.01	2969.55
373.22	2953.17
373.43	2824.15
373.64	2680.79
373.85	3250.13
374.06	3291.09
374.26	2957.27
374.47	2926.55
374.68	3237.84
374.89	3084.24
375.10	2727.89
375.31	2895.83
375.52	3024.85
375.73	3024.85
375.94	2643.93
376.15	2848.72
376.36	2852.82
376.57	2865.11
376.78	2906.07
376.99	2854.87
377.20	3200.98
377.40	2979.79
377.61	3045.33
377.82	2662.36
378.03	3254.22
378.24	3104.72
378.45	2928.60
378.66	2842.58
378.87	2754.52
379.08	2750.42
379.29	2836.44
379.50	2940.88
379.71	2881.49
379.91	3151.82
380.12	2752.47
380.33	2875.35
380.54	2983.89
380.75	2940.88
380.96	2871.25
381.17	2947.03
381.38	2969.55
381.59	2938.84
381.80	2803.67
382.00	3000.27
382.21	2981.84
382.42	3293.13
382.63	3135.44
382.84	2942.93
383.05	3030.99
383.26	3233.74
383.47	2926.55
383.68	2748.37
383.88	3121.10
384.09	3028.95
384.30	3084.24
384.51	2832.34
384.72	2836.44
384.93	2727.89
385.14	2832.34
385.35	3010.51
385.55	2762.71
385.76	3188.69
385.97	2818.00
386.18	2727.89
386.39	2811.86
386.60	2836.44
386.81	2746.33
387.02	2760.66
387.22	2717.65
387.43	3108.82
387.64	2893.78
387.85	3061.71
388.06	3022.80
388.27	3999.68
388.48	7200.66
388.68	10841.95
388.89	13264.69
389.10	14649.12
389.31	13950.76
389.52	11145.05
389.73	9713.52
389.93	8843.13
390.14	7899.02
390.35	7260.05
390.56	6674.33
390.77	5533.61
390.98	4313.02
391.18	3723.21
391.39	3459.02
391.60	3037.14
391.81	3078.10
392.02	2852.82
392.23	3424.20
392.43	3078.10
392.64	2930.64
392.85	2803.67
393.06	3174.35
393.27	2942.93
393.47	2775.00
393.68	2863.06
393.89	2897.88
394.10	3117.01
394.31	2820.05
394.52	2729.94
394.72	2881.49
394.93	3241.93
395.14	2725.85
395.35	2969.55
395.56	2822.10
395.76	3008.47
395.97	2770.90
396.18	3008.47
396.39	3055.57
396.60	3610.57
396.80	3117.01
397.01	3026.90
397.22	3166.16
397.43	3160.02
397.64	2799.57
397.84	2899.92
398.05	3340.24
398.26	2951.12
398.47	2901.97
398.67	3088.34
398.88	2994.13
399.09	3127.25
399.30	2797.53
399.51	2899.92
399.71	2842.58
399.92	2985.94
400.13	2969.55
400.34	2840.53
400.54	2965.46
400.75	3239.89
400.96	2922.45
401.17	3131.34
401.37	3119.06
401.58	2963.41
401.79	2783.19
402.00	2973.65
402.21	3409.87
402.41	3104.72
402.62	3016.66
402.83	3188.69
403.04	3338.19
403.24	3686.34
403.45	2994.13
403.66	3133.39
403.87	3231.69
404.07	3293.13
404.28	3033.04
404.49	3035.09
404.70	3045.33
404.90	3084.24
405.11	2869.20
405.32	2940.88
405.52	2850.77
405.73	2957.27
405.94	2787.29
406.15	2848.72
406.35	3061.71
406.56	3074.00
406.77	2881.49
406.98	2934.74
407.18	2883.54
407.39	3211.22
407.60	2838.48
407.80	2912.21
408.01	2889.68
408.22	3000.27
408.43	2746.33
408.63	2994.13
408.84	3102.67
409.05	3131.34
409.25	2744.28
409.46	2828.24
409.67	2920.40
409.88	2916.31
410.08	2936.79
410.29	2789.33
410.50	3139.54
410.70	3033.04
410.91	2762.71
411.12	2912.21
411.32	3002.32
411.53	2856.92
411.74	2850.77
411.95	2908.12
412.15	3020.75
412.36	3114.96
412.57	3010.51
412.77	3037.14
412.98	3006.42
413.19	2912.21
413.39	2895.83
413.60	2861.01
413.81	3178.45
414.01	2738.13
414.22	2897.88
414.43	3004.37
414.63	2936.79
414.84	3215.31
415.05	2906.07
415.25	2686.94
415.46	3178.45
415.67	2865.11
415.87	2912.21
416.08	2787.29
416.29	2955.22
416.49	3047.38
416.70	2785.24
416.91	2820.05
417.11	2969.55
417.32	3200.98
417.53	2906.07
417.73	3004.37
417.94	2961.36
418.15	2975.70
418.35	2906.07
418.56	2918.36
418.77	3313.61
418.97	2944.98
419.18	2881.49
419.38	2590.68
419.59	2924.50
419.80	3188.69
420.00	2828.24
420.21	2916.31
420.42	3260.37
420.62	3106.77
420.83	2770.90
421.04	2840.53
421.24	2938.84
421.45	3149.78
421.65	2908.12
421.86	2828.24
422.07	3149.78
422.27	3057.62
422.48	2754.52
422.69	2699.22
422.89	3004.37
423.10	2904.02
423.30	2766.81
423.51	2910.16
423.72	3178.45
423.92	3018.71
424.13	2783.19
424.33	2889.68
424.54	2998.23
424.75	2918.36
424.95	3012.56
425.16	2844.63
425.36	3002.32
425.57	3098.58
425.78	2922.45
425.98	3041.23
426.19	3010.51
426.39	2838.48
426.60	2906.07
426.81	3039.19
427.01	3047.38
427.22	2772.95
427.42	2678.74
427.63	2748.37
427.83	3192.78
428.04	3311.57
428.25	2912.21
428.45	2938.84
428.66	3203.02
428.86	2955.22
429.07	2944.98
429.28	2861.01
429.48	2965.46
429.69	2842.58
429.89	2873.30
430.10	2836.44
430.30	3094.48
430.51	3233.74
430.71	2772.95
430.92	2908.12
431.13	2912.21
431.33	3002.32
431.54	2881.49
431.74	3016.66
431.95	3393.48
432.15	2832.34
432.36	2836.44
432.56	2936.79
432.77	3354.57
432.98	3260.37
433.18	2992.08
433.39	2777.05
433.59	3055.57
433.80	3237.84
434.00	3016.66
434.21	2850.77
434.41	2875.35
434.62	3360.72
434.82	2789.33
435.03	2699.22
435.23	3096.53
435.44	2734.04
435.64	2775.00
435.85	2871.25
436.06	3176.40
436.26	3200.98
436.47	2789.33
436.67	2734.04
436.88	3020.75
437.08	3280.85
437.29	3004.37
437.49	2920.40
437.70	3139.54
437.90	2965.46
438.11	3123.15
438.31	2981.84
438.52	3200.98
438.72	3166.16
438.93	3186.64
439.13	2920.40
439.34	3250.13
439.54	2897.88
439.75	3010.51
439.95	2985.94
440.16	2848.72
440.36	3076.05
440.57	2904.02
440.77	2805.72
440.98	3028.95
441.18	3065.81
441.39	2787.29
441.59	2701.27
441.80	3448.78
442.00	2951.12
442.21	2983.89
442.41	2680.79
442.62	3190.74
442.82	2846.68
443.02	2869.20
443.23	2928.60
443.43	2940.88
443.64	3141.58
443.84	2758.61
444.05	2994.13
444.25	2973.65
444.46	2803.67
444.66	2818.00
444.87	3110.86
445.07	2701.27
445.28	2906.07
445.48	3004.37
445.69	3002.32
445.89	3428.30
446.09	2899.92
446.30	3143.63
446.50	3254.22
446.71	4718.52
446.91	5683.11
447.12	6420.38
447.32	6973.33
447.53	6819.74
447.73	5732.26
447.93	5027.76
448.14	4706.23
448.34	4898.74
448.55	4069.31
448.75	4067.27
448.96	3839.94
449.16	3700.68
449.36	3502.03
449.57	3192.78
449.77	2951.12
449.98	2957.27
450.18	3012.56
450.39	2861.01
450.59	2994.13
450.79	2914.26
451.00	2906.07
451.20	2996.18
451.41	2770.90
451.61	3026.90
451.81	3004.37
452.02	2836.44
452.22	2795.48
452.43	2887.64
452.63	2873.30
452.84	2914.26
453.04	2727.89
453.24	2990.03
453.45	2836.44
453.65	2858.96
453.86	2844.63
454.06	3049.43
454.26	3016.66
454.47	2760.66
454.67	3080.14
454.87	3061.71
455.08	2959.31
455.28	2932.69
455.49	2985.94
455.69	2924.50
455.89	3262.41
456.10	2975.70
456.30	2861.01
456.51	3098.58
456.71	3108.82
456.91	2957.27
457.12	2842.58
457.32	3043.28
457.52	2781.14
457.73	2949.08
457.93	3024.85
458.14	2848.72
458.34	2684.89
458.54	2883.54
458.75	2858.96
458.95	3176.40
459.15	3104.72
459.36	2879.44
459.56	2877.40
459.76	3463.12
459.97	2951.12
460.17	2824.15
460.37	3004.37
460.58	3030.99
460.78	3168.21
460.99	2803.67
461.19	2832.34
461.39	2867.16
461.60	2934.74
461.80	2922.45
462.00	2688.98
462.21	3004.37
462.41	2887.64
462.61	2772.95
462.82	2691.03
463.02	3022.80
463.22	3008.47
463.43	2885.59
463.63	2848.72
463.83	3215.31
464.04	3094.48
464.24	2863.06
464.44	2734.04
464.64	3110.86
464.85	3133.39
465.05	2924.50
465.25	2826.20
465.46	2844.63
465.66	3145.68
465.86	2967.51
466.07	2916.31
466.27	2934.74
466.47	2777.05
466.68	2758.61
466.88	2977.75
467.08	3076.05
467.29	3223.50
467.49	2883.54
467.69	2959.31
467.89	3114.96
468.10	2951.12
468.30	2916.31
468.50	2985.94
468.71	3084.24
468.91	2770.90
469.11	2963.41
469.31	2934.74
469.52	2768.85
469.72	3313.61
469.92	3053.52
470.13	2852.82
470.33	2959.31
470.53	3084.24
470.73	3274.70
470.94	3563.47
471.14	3536.84
471.34	4093.89
471.54	3739.59
471.75	3524.55
471.95	3334.09
472.15	3413.96
472.36	3377.10
472.56	3213.26
472.76	3532.75
472.96	3305.42
473.17	3051.47
473.37	2949.08
473.57	2832.34
473.77	3030.99
473.98	2883.54
474.18	2699.22
474.38	3483.59
474.58	2953.17
474.79	2744.28
474.99	2934.74
475.19	3084.24
475.39	2844.63
475.60	2850.77
475.80	2836.44
476.00	2990.03
476.20	2938.84
476.41	2930.64
476.61	2887.64
476.81	3246.03
477.01	2871.25
477.21	3014.61
477.42	2983.89
477.62	2912.21
477.82	3051.47
478.02	2797.53
478.23	2865.11
478.43	2760.66
478.63	2887.64
478.83	2834.39
479.03	2873.30
479.24	3194.83
479.44	3405.77
479.64	2719.70
479.84	2627.54
480.04	2940.88
480.25	3096.53
480.45	2789.33
480.65	2783.19
480.85	3256.27
481.06	2869.20
481.26	2947.03
481.46	2918.36
481.66	3125.20
481.86	2867.16
482.06	3092.43
482.27	2836.44
482.47	2836.44
482.67	3051.47
482.87	2908.12
483.07	2897.88
483.28	2922.45
483.48	2785.24
483.68	2813.91
483.88	2695.13
484.08	2633.69
484.29	2836.44
484.49	2863.06
484.69	2756.57
484.89	3166.16
485.09	3198.93
485.29	2891.73
485.50	3033.04
485.70	2871.25
485.90	3276.75
486.10	2895.83
486.30	2832.34
486.50	3223.50
486.71	3082.19
486.91	2912.21
487.11	2959.31
487.31	2750.42
487.51	3186.64
487.71	2783.19
487.91	2793.43
488.12	2879.44
488.32	2564.06
488.52	2897.88
488.72	2629.59
488.92	3035.09
489.12	3213.26
489.32	2994.13
489.53	2893.78
489.73	2744.28
489.93	3291.09
490.13	2830.29
490.33	2727.89
490.53	2971.60
490.73	3092.43
490.94	2672.60
491.14	2969.55
491.34	3104.72
491.54	3145.68
491.74	3672.01
491.94	4169.66
492.14	4589.50
492.34	4681.66
492.54	4366.27
492.75	3856.33
492.95	3887.04
493.15	3633.10
493.35	3479.50
493.55	3512.27
493.75	3405.77
493.95	3477.45
494.15	3133.39
494.35	2983.89
494.56	3014.61
494.76	2789.33
494.96	2932.69
495.16	2813.91
495.36	3053.52
495.56	3037.14
495.76	2906.07
495.96	2830.29
496.16	2822.10
496.36	3368.91
496.56	2867.16
496.77	2944.98
496.97	2990.03
497.17	3237.84
497.37	2746.33
497.57	3012.56
497.77	3012.56
497.97	2766.81
498.17	2861.01
498.37	2828.24
498.57	3110.86
498.77	2936.79
498.97	2940.88
499.17	3166.16
499.38	2979.79
499.58	3094.48
499.78	2996.18
499.98	3008.47
500.18	2955.22
500.38	2881.49
500.58	3033.04
500.78	3422.16
500.98	5431.21
501.18	7391.12
501.38	8781.69
501.58	9668.46
501.78	9668.46
501.98	7806.86
502.18	6717.34
502.38	5846.95
502.58	5707.69
502.78	4933.56
502.98	4825.01
503.18	4552.63
503.38	4356.03
503.59	3790.79
503.79	3602.38
503.99	3348.43
504.19	3420.11
504.39	3479.50
504.59	3295.18
504.79	3264.46
504.99	3454.92
505.19	3119.06
505.39	3057.62
505.59	3215.31
505.79	3205.07
505.99	3164.11
506.19	2912.21
506.39	3108.82
506.59	2916.31
506.79	2944.98
506.99	3102.67
507.19	2875.35
507.39	3014.61
507.59	2756.57
507.79	2793.43
507.99	2848.72
508.19	3010.51
508.39	2920.40
508.59	2912.21
508.79	2967.51
508.99	3334.09
509.19	2959.31
509.39	2918.36
509.59	2811.86
509.79	2846.68
509.99	2936.79
510.19	2994.13
510.39	3006.42
510.59	3069.91
510.79	2850.77
510.99	2705.37
511.19	2742.23
511.39	3315.66
511.59	3135.44
511.79	3010.51
511.99	2779.09
512.19	3379.15
512.38	2977.75
512.58	2805.72
512.78	2801.62
512.98	3217.36
513.18	3239.89
513.38	2756.57
513.58	2893.78
513.78	2971.60
513.98	3000.27
514.18	2848.72
514.38	2914.26
514.58	3045.33
514.78	2899.92
514.98	2809.81
515.18	2947.03
515.38	2844.63
515.58	3299.28
515.78	2815.96
515.98	2822.10
516.18	3110.86
516.38	2983.89
516.57	2801.62
516.77	2822.10
516.97	3168.21
517.17	2908.12
517.37	2662.36
517.57	2934.74
517.77	2957.27
517.97	2840.53
518.17	2914.26
518.37	2793.43
518.57	2891.73
518.77	2901.97
518.97	2797.53
519.16	2877.40
519.36	3170.26
519.56	2881.49
519.76	2861.01
519.96	2893.78
520.16	3278.80
520.36	2824.15
520.56	3043.28
520.76	2787.29
520.96	2938.84
521.16	3133.39
521.35	3014.61
521.55	2918.36
521.75	3069.91
521.95	2885.59
522.15	2889.68
522.35	2729.94
522.55	2852.82
522.75	3098.58
522.95	2801.62
523.14	2727.89
523.34	3057.62
523.54	2934.74
523.74	3012.56
523.94	2889.68
524.14	2701.27
524.34	3065.81
524.54	3112.91
524.73	2826.20
524.93	3127.25
525.13	3006.42
525.33	2783.19
525.53	3059.67
525.73	3112.91
525.93	2963.41
526.13	2895.83
526.32	2844.63
526.52	3153.87
526.72	3119.06
526.92	2861.01
527.12	2834.39
527.32	2840.53
527.52	3022.80
527.71	2871.25
527.91	2858.96
528.11	2926.55
528.31	2969.55
528.51	2772.95
528.71	2975.70
528.90	3049.43
529.10	3131.34
529.30	2973.65
529.50	2623.45
529.70	2996.18
529.90	2922.45
530.09	2867.16
530.29	2768.85
530.49	2832.34
530.69	3432.40
530.89	2949.08
531.09	2928.60
531.28	2994.13
531.48	3217.36
531.68	2815.96
531.88	2856.92
532.08	3139.54
532.28	2918.36
532.47	2908.12
532.67	2981.84
532.87	3106.77
533.07	2877.40
533.27	2869.20
533.46	2856.92
533.66	2998.23
533.86	3055.57
534.06	2891.73
534.26	2846.68
534.45	2910.16
534.65	3074.00
534.85	2910.16
535.05	2734.04
535.25	3151.82
535.44	2738.13
535.64	2924.50
535.84	2799.57
536.04	2783.19
536.24	2891.73
536.43	2813.91
536.63	2789.33
536.83	2996.18
537.03	3000.27
537.22	2662.36
537.42	2713.56
537.62	3094.48
537.82	2830.29
538.02	2973.65
538.21	2942.93
538.41	3467.21
538.61	3084.24
538.81	2832.34
539.00	3006.42
539.20	2699.22
539.40	2930.64
539.60	2930.64
539.79	2977.75
539.99	3022.80
540.19	2813.91
540.39	2775.00
540.58	2916.31
540.78	3143.63
540.98	2951.12
541.18	3039.19
541.37	2936.79
541.57	3049.43
541.77	3106.77
541.97	2803.67
542.16	2705.37
542.36	2922.45
542.56	2895.83
542.76	3067.86
542.95	2955.22
543.15	3127.25
543.35	3145.68
543.54	2803.67
543.74	2799.57
543.94	3209.17
544.14	2899.92
544.33	3067.86
544.53	2832.34
544.73	2949.08
544.93	2871.25
545.12	2824.15
545.32	2934.74
545.52	2885.59
545.71	2764.76
545.91	2830.29
546.11	2834.39
546.30	2764.76
546.50	2934.74
546.70	2901.97
546.90	2951.12
547.09	2709.46
547.29	2963.41
547.49	3006.42
547.68	2793.43
547.88	2856.92
548.08	3121.10
548.27	3170.26
548.47	2846.68
548.67	2858.96
548.87	3088.34
549.06	2752.47
549.26	2772.95
549.46	3065.81
549.65	2930.64
549.85	2936.79
550.05	2879.44
550.24	2754.52
550.44	2957.27
550.64	2899.92
550.83	2887.64
551.03	3139.54
551.23	3155.92
551.42	3028.95
551.62	2934.74
551.82	3024.85
552.01	3000.27
552.21	3117.01
552.41	2912.21
552.60	3264.46
552.80	2973.65
553.00	2904.02
553.19	2834.39
553.39	3323.85
553.59	2719.70
553.78	2953.17
553.98	2899.92
554.17	2844.63
554.37	3057.62
554.57	3026.90
554.76	2764.76
554.96	2981.84
555.16	3024.85
555.35	2961.36
555.55	3018.71
555.75	3008.47
555.94	3127.25
556.14	2744.28
556.33	2904.02
556.53	2893.78
556.73	2971.60
556.92	2926.55
557.12	2815.96
557.32	3403.72
557.51	3176.40
557.71	2861.01
557.90	2932.69
558.10	3149.78
558.30	2920.40
558.49	2807.77
558.69	2877.40
558.88	3020.75
559.08	2996.18
559.28	2826.20
559.47	2906.07
559.67	3071.95
559.86	3303.37
560.06	2795.48
560.26	2846.68
560.45	3086.29
560.65	2936.79
560.84	2990.03
561.04	2840.53
561.24	3108.82
561.43	2818.00
561.63	3074.00
561.82	2897.88
562.02	3112.91
562.22	2820.05
562.41	2797.53
562.61	2744.28
562.80	2818.00
563.00	3438.54
563.19	2865.11
563.39	2961.36
563.59	3035.09
563.78	2781.14
563.98	2539.48
564.17	2846.68
564.37	2666.46
564.56	2973.65
564.76	2658.26
564.96	3024.85
565.15	2977.75
565.35	3334.09
565.54	2830.29
565.74	2940.88
565.93	3057.62
566.13	3045.33
566.32	2928.60
566.52	2908.12
566.71	2967.51
566.91	3174.35
567.11	3033.04
567.30	2828.24
567.50	3043.28
567.69	2992.08
567.89	2844.63
568.08	2775.00
568.28	3026.90
568.47	2858.96
568.67	2920.40
568.86	2785.24
569.06	3170.26
569.25	2926.55
569.45	2729.94
569.64	2813.91
569.84	2914.26
570.04	2977.75
570.23	2842.58
570.43	2840.53
570.62	2977.75
570.82	3366.86
571.01	2701.27
571.21	2791.38
571.40	2826.20
571.60	3119.06
571.79	2910.16
571.99	2916.31
572.18	2775.00
572.38	3119.06
572.57	2906.07
572.77	2885.59
572.96	3452.88
573.16	2990.03
573.35	2838.48
573.55	2959.31
573.74	3004.37
573.94	2934.74
574.13	2815.96
574.33	3063.76
574.52	3155.92
574.71	2971.60
574.91	2914.26
575.10	2686.94
575.30	2961.36
575.49	2768.85
575.69	2854.87
575.88	2803.67
576.08	2998.23
576.27	3098.58
576.47	2783.19
576.66	2959.31
576.86	3180.50
577.05	3094.48
577.25	2942.93
577.44	3088.34
577.64	2899.92
577.83	3164.11
578.02	2815.96
578.22	2973.65
578.41	3248.08
578.61	2973.65
578.80	2711.51
579.00	2897.88
579.19	3045.33
579.39	3108.82
579.58	2959.31
579.77	2865.11
579.97	3192.78
580.16	3190.74
580.36	3012.56
580.55	3000.27
580.75	3086.29
580.94	3002.32
581.13	3057.62
581.33	3133.39
581.52	2953.17
581.72	3317.71
581.91	2975.70
582.11	2838.48
582.30	3133.39
582.49	2889.68
582.69	3180.50
582.88	2934.74
583.08	2936.79
583.27	3123.15
583.47	2828.24
583.66	2744.28
583.85	2865.11
584.05	2897.88
584.24	2971.60
584.44	2969.55
584.63	3151.82
584.82	3188.69
585.02	3067.86
585.21	3049.43
585.41	3092.43
585.60	3106.77
585.79	3084.24
585.99	3114.96
586.18	2994.13
586.37	3813.32
586.57	5740.46
586.76	16611.07
586.96	35442.15
587.15	48639.26
587.34	56849.56
587.54	60925.02
587.73	54654.14
587.93	38669.75
588.12	29234.75
588.31	23910.04
588.51	21382.84
588.70	19511.00
588.89	17327.86
589.09	14671.65
589.28	12494.66
589.47	9832.30
589.67	7413.65
589.86	5937.06
590.06	4618.17
590.25	3958.72
590.44	3604.42
590.64	3274.70
590.83	3184.59
591.02	3252.17
591.22	2887.64
591.41	2861.01
591.60	3012.56
591.80	3430.35
591.99	2695.13
592.18	2912.21
592.38	3166.16
592.57	2858.96
592.76	2865.11
592.96	2883.54
593.15	2934.74
593.34	3213.26
593.54	2863.06
593.73	2998.23
593.92	3082.19
594.12	3139.54
594.31	2973.65
594.50	3106.77
594.70	3024.85
594.89	3545.03
595.08	2752.47
595.28	3051.47
595.47	3596.23
595.66	3164.11
595.86	2785.24
596.05	2781.14
596.24	2922.45
596.43	3334.09
596.63	3035.09
596.82	3041.23
597.01	3119.06
597.21	3377.10
597.40	2852.82
597.59	2930.64
597.79	3076.05
597.98	3098.58
598.17	2904.02
598.36	2881.49
598.56	3229.65
598.75	2926.55
598.94	2975.70
599.14	2932.69
599.33	2957.27
599.52	3092.43
599.71	2951.12
599.91	2826.20
600.10	3112.91
600.29	3041.23
600.48	2949.08
600.68	2975.70
600.87	3131.34
601.06	2879.44
601.26	3000.27
601.45	2947.03
601.64	2834.39
601.83	3203.02
602.03	2777.05
602.22	2850.77
602.41	3203.02
602.60	3518.41
602.80	2955.22
602.99	3006.42
603.18	2861.01
603.37	3012.56
603.57	2818.00
603.76	2955.22
603.95	3184.59
604.14	2877.40
604.34	2811.86
604.53	2820.05
604.72	3012.56
604.91	3086.29
605.10	2938.84
605.30	2725.85
605.49	3391.44
605.68	3147.73
605.87	2969.55
606.07	2805.72
606.26	3037.14
606.45	3112.91
606.64	2994.13
606.84	2748.37
607.03	2992.08
607.22	3123.15
607.41	2883.54
607.60	2867.16
607.80	3157.97
607.99	2961.36
608.18	2877.40
608.37	2904.02
608.56	2924.50
608.76	3237.84
608.95	2998.23
609.14	2770.90
609.33	3180.50
609.52	3256.27
609.72	2981.84
609.91	3002.32
610.10	3106.77
610.29	3203.02
610.48	2965.46
610.68	2967.51
610.87	2967.51
611.06	3086.29
611.25	2891.73
611.44	3024.85
611.63	2858.96
611.83	3157.97
612.02	2764.76
612.21	2979.79
612.40	2731.99
612.59	2772.95
612.79	2813.91
612.98	2977.75
613.17	3258.32
613.36	2957.27
613.55	3018.71
613.74	2834.39
613.93	3014.61
614.13	3153.87
614.32	3053.52
614.51	2975.70
614.70	2967.51
614.89	2875.35
615.08	2979.79
615.28	3317.71
615.47	2844.63
615.66	3098.58
615.85	2893.78
616.04	2947.03
616.23	2938.84
616.42	2961.36
616.62	2901.97
616.81	2863.06
617.00	2940.88
617.19	3108.82
617.38	2897.88
617.57	2920.40
617.76	3055.57
617.95	3207.12
618.15	2955.22
618.34	3133.39
618.53	2736.09
618.72	3205.07
618.91	2985.94
619.10	2985.94
619.29	2998.23
619.48	2955.22
619.68	2781.14
619.87	2873.30
620.06	2758.61
620.25	3164.11
620.44	2818.00
620.63	2793.43
620.82	2992.08
621.01	2942.93
621.20	2830.29
621.39	2973.65
621.59	2996.18
621.78	2885.59
621.97	2867.16
622.16	3016.66
622.35	3127.25
622.54	3117.01
622.73	2922.45
622.92	2598.87
623.11	3112.91
623.30	3004.37
623.49	2987.99
623.68	2762.71
623.88	3270.61
624.07	2871.25
624.26	2815.96
624.45	2873.30
624.64	2932.69
624.83	3055.57
625.02	2899.92
625.21	2885.59
625.40	2985.94
625.59	3129.30
625.78	2871.25
625.97	2953.17
626.16	3209.17
626.35	3151.82
626.54	2848.72
626.74	3030.99
626.93	2938.84
627.12	2881.49
627.31	2940.88
627.50	2885.59
627.69	3155.92
627.88	2846.68
628.07	2779.09
628.26	2752.47
628.45	2899.92
628.64	2848.72
628.83	2877.40
629.02	2785.24
629.21	3074.00
629.40	2983.89
629.59	2807.77
629.78	2861.01
629.97	2897.88
630.16	2965.46
630.35	2893.78
630.54	2844.63
630.73	2840.53
630.92	2996.18
631.11	2727.89
631.30	2944.98
631.49	3114.96
631.68	2912.21
631.87	2910.16
632.06	2781.14
632.25	3352.52
632.44	2910.16
632.63	2826.20
632.82	2826.20
633.01	2936.79
633.20	3035.09
633.39	2799.57
633.58	2699.22
633.77	3090.38
633.96	3076.05
634.15	2990.03
634.34	3012.56
634.53	3030.99
634.72	2908.12
634.91	2719.70
635.10	2858.96
635.29	3065.81
635.48	3030.99
635.67	2762.71
635.86	2688.98
636.05	3248.08
636.24	3041.23
636.43	2869.20
636.62	2936.79
636.81	2586.58
637.00	3094.48
637.19	2910.16
637.38	2883.54
637.57	2885.59
637.76	2953.17
637.95	3014.61
638.14	2777.05
638.33	3071.95
638.52	2998.23
638.71	2742.23
638.89	2744.28
639.08	3514.31
639.27	3151.82
639.46	3018.71
639.65	3309.52
639.84	3346.38
640.03	3547.08
640.22	3162.06
640.41	3303.37
640.60	3047.38
640.79	3168.21
640.98	3074.00
641.17	3055.57
641.36	3139.54
641.55	3184.59
641.74	2719.70
641.92	2834.39
642.11	2840.53
642.30	2973.65
642.49	2725.85
642.68	2813.91
642.87	3012.56
643.06	3088.34
643.25	2705.37
643.44	2744.28
643.63	3037.14
643.82	3149.78
644.00	2734.04
644.19	2881.49
644.38	2815.96
644.57	3121.10
644.76	2768.85
644.95	2813.91
645.14	3082.19
645.33	2912.21
645.52	2930.64
645.71	2738.13
645.89	2844.63
646.08	2985.94
646.27	2875.35
646.46	3006.42
646.65	2731.99
646.84	3012.56
647.03	2766.81
647.22	3008.47
647.40	3039.19
647.59	2971.60
647.78	2670.55
647.97	2760.66
648.16	2764.76
648.35	3188.69
648.54	3088.34
648.73	2856.92
648.91	3117.01
649.10	3022.80
649.29	2848.72
649.48	2777.05
649.67	3055.57
649.86	3002.32
650.05	2889.68
650.23	3039.19
650.42	2813.91
650.61	3188.69
650.80	3006.42
650.99	3170.26
651.18	3086.29
651.36	3194.83
651.55	2811.86
651.74	2947.03
651.93	2922.45
652.12	2936.79
652.31	2934.74
652.49	2818.00
652.68	2920.40
652.87	3313.61
653.06	2920.40
653.25	3145.68
653.44	2969.55
653.62	3334.09
653.81	2906.07
654.00	2887.64
654.19	3123.15
654.38	3354.57
654.56	2914.26
654.75	2801.62
654.94	3149.78
655.13	3010.51
655.32	2871.25
655.51	2901.97
655.69	2891.73
655.88	3164.11
656.07	2680.79
656.26	2922.45
656.45	2746.33
656.63	2987.99
656.82	2861.01
657.01	3030.99
657.20	2883.54
657.38	3168.21
657.57	2766.81
657.76	2770.90
657.95	3061.71
658.14	2836.44
658.32	3014.61
658.51	2746.33
658.70	3020.75
658.89	3000.27
659.08	2922.45
659.26	3043.28
659.45	2818.00
659.64	3067.86
659.83	2852.82
660.01	3309.52
660.20	2975.70
660.39	3205.07
660.58	2631.64
660.76	2973.65
660.95	2789.33
661.14	2891.73
661.33	2717.65
661.51	2818.00
661.70	2899.92
661.89	3049.43
662.08	2912.21
662.26	2648.02
662.45	2785.24
662.64	3362.76
662.83	3004.37
663.01	2666.46
663.20	2895.83
663.39	3196.88
663.58	2901.97
663.76	2779.09
663.95	3127.25
664.14	2758.61
664.32	2951.12
664.51	2822.10
664.70	2645.98
664.89	2992.08
665.07	2740.18
665.26	2983.89
665.45	2809.81
665.64	3094.48
665.82	2863.06
666.01	2920.40
666.20	2762.71
666.38	3106.77
666.57	3166.16
666.76	4894.65
666.95	10999.64
667.13	17630.96
667.32	21212.86
667.51	24391.31
667.69	24934.02
667.88	21032.64
668.07	15163.16
668.25	12851.00
668.44	11120.47
668.63	9705.32
668.81	8472.45
669.00	7219.09
669.19	6666.14
669.38	5832.62
669.56	5019.57
669.75	4429.76
669.94	3882.95
670.12	3395.53
670.31	3133.39
670.50	3061.71
670.68	3147.73
670.87	3067.86
671.06	2901.97
671.24	2994.13
671.43	3147.73
671.62	3061.71
671.80	2897.88
671.99	3059.67
672.18	2975.70
672.36	3172.30
672.55	3039.19
672.74	2889.68
672.92	2924.50
673.11	3047.38
673.29	2746.33
673.48	3074.00
673.67	2949.08
673.85	3196.88
674.04	2770.90
674.23	3000.27
674.41	3289.04
674.60	2783.19
674.79	2598.87
674.97	2699.22
675.16	3143.63
675.34	3184.59
675.53	2807.77
675.72	2828.24
675.90	3297.23
676.09	2938.84
676.28	2906.07
676.46	2781.14
676.65	3110.86
676.83	2869.20
677.02	2971.60
677.21	2908.12
677.39	2936.79
677.58	2856.92
677.77	2963.41
677.95	2783.19
678.14	2926.55
678.32	2881.49
678.51	2756.57
678.70	3190.74
678.88	2879.44
679.07	2979.79
679.25	2922.45
679.44	2897.88
679.63	2777.05
679.81	2987.99
680.00	3063.76
680.18	2969.55
680.37	3219.41
680.55	3018.71
680.74	2772.95
680.93	2658.26
681.11	3002.32
681.30	2977.75
681.48	2856.92
681.67	2805.72
681.85	3000.27
682.04	2824.15
682.23	3004.37
682.41	2969.55
682.60	2975.70
682.78	2910.16
682.97	2803.67
683.15	2967.51
683.34	2994.13
683.53	3246.03
683.71	2686.94
683.90	2949.08
684.08	3246.03
684.27	2953.17
684.45	2871.25
684.64	2992.08
684.82	3028.95
685.01	3180.50
685.19	2936.79
685.38	3100.62
685.57	2967.51
685.75	2815.96
685.94	2783.19
686.12	2772.95
686.31	2930.64
686.49	3286.99
686.68	2709.46
686.86	2957.27
687.05	2910.16
687.23	3332.05
687.42	2783.19
687.60	2688.98
687.79	3094.48
687.97	3268.56
688.16	3018.71
688.34	3014.61
688.53	2775.00
688.71	3035.09
688.90	3190.74
689.08	2815.96
689.27	2748.37
689.45	3090.38
689.64	3000.27
689.82	2967.51
690.01	3059.67
690.19	2975.70
690.38	2883.54
690.56	3049.43
690.75	2869.20
690.93	2899.92
691.12	2842.58
691.30	2828.24
691.49	2949.08
691.67	2949.08
691.86	3143.63
692.04	2815.96
692.23	2990.03
692.41	2912.21
692.60	3237.84
692.78	3074.00
692.97	2973.65
693.15	3043.28
693.34	3041.23
693.52	3004.37
693.71	2926.55
693.89	2928.60
694.08	2676.70
694.26	2949.08
694.44	3100.62
694.63	3160.02
694.81	2799.57
695.00	2865.11
695.18	3153.87
695.37	3438.54
695.55	3037.14
695.74	2877.40
695.92	2901.97
696.10	3241.93
696.29	2756.57
696.47	2799.57
696.66	2760.66
696.84	2793.43
697.03	2914.26
697.21	3074.00
697.40	4446.14
697.58	3194.83
697.76	2801.62
697.95	2820.05
698.13	2818.00
698.32	2922.45
698.50	2854.87
698.68	2934.74
698.87	3086.29
699.05	3278.80
699.24	2910.16
699.42	2705.37
699.61	3033.04
699.79	3014.61
699.97	2852.82
700.16	2760.66
700.34	2871.25
700.53	2992.08
700.71	3108.82
700.89	3016.66
701.08	2942.93
701.26	2979.79
701.45	3246.03
701.63	2758.61
701.81	2899.92
702.00	2832.34
702.18	2885.59
702.37	2803.67
702.55	3198.93
702.73	3033.04
702.92	2768.85
703.10	3164.11
703.28	3039.19
703.47	2799.57
703.65	3127.25
703.84	3037.14
704.02	2969.55
704.20	3313.61
704.39	2783.19
704.57	2842.58
704.75	3137.49
704.94	3076.05
705.12	2914.26
705.30	3379.15
705.49	6688.67
705.67	12867.39
705.86	18300.65
706.04	20653.76
706.22	22873.76
706.41	22161.07
706.59	17014.52
706.77	13270.84
706.96	11345.75
707.14	10309.47
707.32	8849.27
707.51	7864.20
707.69	6498.20
707.87	5529.52
708.06	4552.63
708.24	3874.76
708.42	3669.96
708.61	3743.69
708.79	3022.80
708.97	2971.60
709.16	3098.58
709.34	3006.42
709.52	2955.22
709.71	2922.45
709.89	3086.29
710.07	2840.53
710.26	2734.04
710.44	2807.77
710.62	3094.48
710.80	2961.36
710.99	2961.36
711.17	2981.84
711.35	2875.35
711.54	2869.20
711.72	3041.23
711.90	2940.88
712.09	3004.37
712.27	2895.83
712.45	3047.38
712.63	2824.15
712.82	3055.57
713.00	2998.23
713.18	2994.13
713.37	3008.47
713.55	3100.62
713.73	3164.11
713.91	2973.65
714.10	2883.54
714.28	2985.94
714.46	3065.81
714.65	2973.65
714.83	2936.79
715.01	2961.36
715.19	3020.75
715.38	2815.96
715.56	2990.03
715.74	2826.20
715.92	2713.56
716.11	3123.15
716.29	2535.39
716.47	2940.88
716.65	2987.99
716.84	2731.99
717.02	2942.93
717.20	2650.07
717.38	2854.87
717.57	2953.17
717.75	2861.01
717.93	2947.03
718.11	3067.86
718.30	2715.61
718.48	2867.16
718.66	3117.01
718.84	3069.91
719.03	2850.77
719.21	2729.94
719.39	3364.81
719.57	3057.62
719.75	2987.99
719.94	2799.57
720.12	2951.12
720.30	3010.51
720.48	2893.78
720.67	2830.29
720.85	2807.77
721.03	2818.00
721.21	2803.67
721.39	2949.08
721.58	3104.72
721.76	3061.71
721.94	2934.74
722.12	2983.89
722.30	3336.14
722.49	2873.30
722.67	2850.77
722.85	2852.82
723.03	2758.61
723.21	2908.12
723.40	2881.49
723.58	2998.23
723.76	3012.56
723.94	3190.74
724.12	2955.22
724.30	3057.62
724.49	3071.95
724.67	2797.53
724.85	2979.79
725.03	2697.17
725.21	3043.28
725.40	3164.11
725.58	2852.82
725.76	3098.58
725.94	3004.37
726.12	2832.34
726.30	2881.49
726.49	2914.26
726.67	2922.45
726.85	3055.57
727.03	3465.16
727.21	4417.47
727.39	5466.03
727.57	5818.28
727.76	6330.27
727.94	6317.98
728.12	5527.47
728.30	4718.52
728.48	4468.67
728.66	4243.39
728.84	3921.86
729.03	3512.27
729.21	3303.37
729.39	3129.30
729.57	3065.81
729.75	3108.82
729.93	2985.94
730.11	2904.02
730.30	2901.97
730.48	2881.49
730.66	2906.07
730.84	3049.43
731.02	2940.88
731.20	2879.44
731.38	2920.40
731.56	2762.71
731.74	2752.47
731.93	3045.33
732.11	2961.36
732.29	2897.88
732.47	3094.48
732.65	3000.27
732.83	3049.43
733.01	2938.84
733.19	2858.96
733.37	3022.80
733.56	2910.16
733.74	2815.96
733.92	3248.08
734.10	2908.12
734.28	3008.47
734.46	2684.89
734.64	2906.07
734.82	2920.40
735.00	2869.20
735.18	2836.44
735.36	2957.27
735.54	2934.74
735.73	2899.92
735.91	2924.50
736.09	3297.23
736.27	2949.08
736.45	2975.70
736.63	2615.26
736.81	2861.01
736.99	3192.78
737.17	3147.73
737.35	2813.91
737.53	3094.48
737.71	2928.60
737.89	2994.13
738.07	2752.47
738.25	2887.64
738.43	2752.47
738.61	2818.00
738.80	2717.65
738.98	2834.39
739.16	2916.31
739.34	2813.91
739.52	3084.24
739.70	2977.75
739.88	3039.19
740.06	3028.95
740.24	2658.26
740.42	3182.54
740.60	2752.47
740.78	2791.38
740.96	2676.70
741.14	2951.12
741.32	2953.17
741.50	2707.41
741.68	3067.86
741.86	3139.54
742.04	2740.18
742.22	2815.96
742.40	2852.82
742.58	3131.34
742.76	2852.82
742.94	3076.05
743.12	2719.70
743.30	2990.03
743.48	3061.71
743.66	2828.24
743.84	2848.72
744.02	2926.55
744.20	2955.22
744.38	2797.53
744.56	2756.57
744.74	3254.22
744.92	3100.62
745.10	3076.05
745.28	3008.47
745.46	3235.79
745.64	3002.32
745.82	2955.22
746.00	2863.06
746.18	3065.81
746.36	2852.82
746.54	2897.88
746.72	2889.68
746.90	2813.91
747.08	3221.45
747.26	2871.25
747.44	3045.33
747.62	3039.19
747.80	3069.91
747.98	3000.27
748.15	2936.79
748.33	3311.57
748.51	2977.75
748.69	2994.13
748.87	2766.81
749.05	2979.79
749.23	2996.18
749.41	2861.01
749.59	2867.16
749.77	3121.10
749.95	2942.93
750.13	2910.16
750.31	3026.90
750.49	2961.36
750.67	3112.91
750.85	2957.27
751.03	2863.06
751.20	3348.43
751.38	2977.75
751.56	2940.88
751.74	2885.59
751.92	2908.12
752.10	2820.05
752.28	3004.37
752.46	2809.81
752.64	3002.32
752.82	2996.18
753.00	2975.70
753.18	2832.34
753.35	2926.55
753.53	2846.68
753.71	2770.90
753.89	2922.45
754.07	3086.29
754.25	3217.36
754.43	2947.03
754.61	2828.24
754.79	3020.75
754.97	2971.60
755.14	3051.47
755.32	2783.19
755.50	2998.23
755.68	3016.66
755.86	2881.49
756.04	2906.07
756.22	2703.32
756.40	3100.62
756.57	3098.58
756.75	2836.44
756.93	3209.17
757.11	3149.78
757.29	2777.05
757.47	2805.72
757.65	2697.17
757.82	2602.97
758.00	2711.51
758.18	2811.86
758.36	2883.54
758.54	3299.28
758.72	2688.98
758.90	2992.08
759.07	3020.75
759.25	2764.76
759.43	2893.78
759.61	2740.18
759.79	4243.39
759.97	3176.40
760.15	2951.12
760.32	2877.40
760.50	2967.51
760.68	3350.48
760.86	2678.74
761.04	3055.57
761.22	3071.95
761.39	2904.02
761.57	2861.01
761.75	2885.59
761.93	3174.35
762.11	2975.70
762.28	2934.74
762.46	2811.86
762.64	3211.22
762.82	2717.65
763.00	2820.05
763.18	3063.76
763.35	2777.05
763.53	3117.01
763.71	3014.61
763.89	2813.91
764.07	2971.60
764.24	3022.80
764.42	2971.60
764.60	2836.44
764.78	3020.75
764.96	3133.39
765.13	3080.14
765.31	2791.38
765.49	3074.00
765.67	2697.17
765.84	2838.48
766.02	2877.40
766.20	2727.89
766.38	3026.90
766.56	2969.55
766.73	3004.37
766.91	2930.64
767.09	2979.79
767.27	2897.88
767.44	2832.34
767.62	3088.34
767.80	3069.91
767.98	2760.66
768.15	2877.40
768.33	3123.15
768.51	3033.04
768.69	2985.94
768.87	2936.79
769.04	2992.08
769.22	3348.43
769.40	3002.32
769.58	3137.49
769.75	2998.23
769.93	3246.03
770.11	2850.77
770.28	2772.95
770.46	3145.68
770.64	3067.86
770.82	2861.01
770.99	2795.48
771.17	3096.53
771.35	2830.29
771.53	2869.20
771.70	2828.24
771.88	3080.14
772.06	2998.23
772.23	2856.92
772.41	2957.27
772.59	2924.50
772.77	2756.57
772.94	2940.88
773.12	2893.78
773.30	2895.83
773.47	3047.38
773.65	2803.67
773.83	2955.22
774.01	2899.92
774.18	2680.79
774.36	2922.45
774.54	2639.83
774.71	3051.47
774.89	2697.17
775.07	2717.65
775.24	2832.34
775.42	2848.72
775.60	3286.99
775.78	2709.46
775.95	2656.22
776.13	2682.84
776.31	2723.80
776.48	3012.56
776.66	3088.34
776.84	2869.20
777.01	2869.20
777.19	2805.72
777.37	2832.34
777.54	3035.09
777.72	3246.03
777.90	2926.55
778.07	2779.09
778.25	3561.42
778.43	3258.32
778.60	2811.86
778.78	2928.60
778.96	3157.97
779.13	2762.71
779.31	2940.88
779.49	2914.26
779.66	2992.08
779.84	2910.16
780.01	2920.40
780.19	2705.37
780.37	3182.54
780.54	3065.81
780.72	2826.20
780.90	2844.63
781.07	2944.98
781.25	2947.03
781.43	3051.47
781.60	2805.72
781.78	3219.41
781.95	3049.43
782.13	2781.14
782.31	2840.53
782.48	2758.61
782.66	3059.67
782.83	3131.34
783.01	2918.36
783.19	3125.20
783.36	2918.36
783.54	2762.71
783.72	2910.16
783.89	2832.34
784.07	3006.42
784.24	2965.46
784.42	3016.66
784.60	3059.67
784.77	3026.90
784.95	2660.31
785.12	2803.67
785.30	2971.60
785.47	2881.49
785.65	2820.05
785.83	2932.69
786.00	2910.16
786.18	3000.27
786.35	2818.00
786.53	2775.00
786.71	3117.01
786.88	3063.76
787.06	2850.77
787.23	2885.59
787.41	2838.48
787.58	2912.21
787.76	2777.05
787.94	2897.88
788.11	3020.75
788.29	2793.43
788.46	2854.87
788.64	2705.37
788.81	2918.36
788.99	2805.72
789.16	2703.32
789.34	2875.35
789.52	2869.20
789.69	2854.87
789.87	2678.74
790.04	2863.06
790.22	2893.78
790.39	3293.13
790.57	2791.38
790.74	2725.85
790.92	3205.07
791.09	2736.09
791.27	2981.84
791.44	2922.45
791.62	2932.69
791.79	3059.67
791.97	2904.02
792.15	3264.46
792.32	3035.09
792.50	3170.26
792.67	3010.51
792.85	3045.33
793.02	2987.99
793.20	2910.16
793.37	2736.09
793.55	2838.48
793.72	2707.41
793.90	3053.52
794.07	2891.73
794.25	2805.72
794.42	2965.46
794.60	2918.36
794.77	2895.83
794.95	2985.94
795.12	3164.11
795.30	2922.45
795.47	2615.26
795.65	3184.59
795.82	3033.04
796.00	2832.34
796.17	2934.74
796.34	2797.53
796.52	3018.71
796.69	3117.01
796.87	3053.52
797.04	2983.89
797.22	3074.00
797.39	2969.55
797.57	3055.57
797.74	2973.65
797.92	3026.90
798.09	2873.30
798.27	3139.54
798.44	2799.57
798.62	2772.95
798.79	2996.18
798.96	2906.07
799.14	2856.92
799.31	3440.59
799.49	2887.64
799.66	2873.30
799.84	2942.93
800.01	2729.94
800.19	3002.32
800.36	2643.93
800.53	2949.08
800.71	3080.14
800.88	3295.18
801.06	2793.43
801.23	2813.91
801.41	2899.92
801.58	2865.11
801.75	2803.67
801.93	2934.74
802.10	3033.04
802.28	2959.31
802.45	2895.83
802.63	2969.55
802.80	3252.17
802.97	2901.97
803.15	2959.31
803.32	2807.77
803.50	2873.30
803.67	2873.30
803.84	2775.00
804.02	2918.36
804.19	2881.49
804.37	2555.86
804.54	2742.23
804.71	2793.43
804.89	2990.03
805.06	2893.78
805.24	2789.33
805.41	2705.37
805.58	2836.44
805.76	3438.54
805.93	2848.72
806.10	3071.95
806.28	3076.05
806.45	2908.12
806.63	3012.56
806.80	2922.45
806.97	3043.28
807.15	2977.75
807.32	2967.51
807.49	2832.34
807.67	2770.90
807.84	3069.91
808.01	2783.19
808.19	2983.89
808.36	3350.48
808.54	2975.70
808.71	2912.21
808.88	2908.12
809.06	3160.02
809.23	3176.40
809.40	2842.58
809.58	2922.45
809.75	2930.64
809.92	2723.80
810.10	3071.95
810.27	2852.82
810.44	2979.79
810.62	3157.97
810.79	2934.74
810.96	2764.76
811.14	2863.06
811.31	3164.11
811.48	2998.23
811.66	2811.86
811.83	3147.73
812.00	3020.75
812.18	2981.84
812.35	3135.44
812.52	2875.35
812.69	2834.39
812.87	2846.68
813.04	2758.61
813.21	2947.03
813.39	2758.61
813.56	2764.76
813.73	3092.43
813.91	2729.94
814.08	3028.95
814.25	2840.53
814.42	2668.50
814.60	2916.31
814.77	2955.22
814.94	2848.72
815.12	2971.60
815.29	3338.19
815.46	2918.36
815.63	2949.08
815.81	2822.10
815.98	2930.64
816.15	2908.12
816.33	2957.27
816.50	2858.96
816.67	2977.75
816.84	2944.98
817.02	2762.71
817.19	2820.05
817.36	3026.90
817.53	3008.47
817.71	2744.28
817.88	2973.65
818.05	2953.17
818.22	2858.96
818.40	3080.14
818.57	2838.48
818.74	2994.13
818.91	2924.50
819.09	3037.14
819.26	2934.74
819.43	2858.96
819.60	2889.68
819.78	2983.89
819.95	2936.79
820.12	2756.57
820.29	3131.34
820.47	3030.99
820.64	2824.15
820.81	2744.28
820.98	2822.10
821.15	2807.77
821.33	2912.21
821.50	2699.22
821.67	3045.33
821.84	2775.00
822.02	2934.74
822.19	3026.90
822.36	2818.00
822.53	2881.49
822.70	2727.89
822.88	2924.50
823.05	3225.55
823.22	2994.13
823.39	3000.27
823.56	2928.60
823.74	3291.09
823.91	2766.81
824.08	2654.17
824.25	2775.00
824.42	3229.65
824.60	2809.81
824.77	2944.98
824.94	2889.68
825.11	3082.19
825.28	2746.33
825.45	2883.54
825.63	3002.32
825.80	2777.05
825.97	2965.46
826.14	2906.07
826.31	2697.17
826.48	3016.66
826.66	2818.00
826.83	2803.67
827.00	2891.73
827.17	2801.62
827.34	2840.53
827.51	2871.25
827.69	2944.98
827.86	2754.52
828.03	2869.20
828.20	2910.16
828.37	2901.97
828.54	2955.22
828.71	2803.67
828.89	2985.94
829.06	3002.32
829.23	3266.51
829.40	2826.20
829.57	2801.62
829.74	3067.86
829.91	2891.73
830.09	2775.00
830.26	3037.14
830.43	3332.05
830.60	2959.31
830.77	2996.18
830.94	3061.71
831.11	3069.91
831.28	2926.55
831.46	2963.41
831.63	2848.72
831.80	3110.86
831.97	2930.64
832.14	2836.44
832.31	2969.55
832.48	2981.84
832.65	3135.44
832.82	2949.08
832.99	2901.97
833.17	2791.38
833.34	3309.52
833.51	2875.35
833.68	2680.79
833.85	3180.50
834.02	2793.43
834.19	2818.00
834.36	2826.20
834.53	3016.66
834.70	3100.62
834.87	2908.12
835.04	2719.70
835.22	2838.48
835.39	2953.17
835.56	2719.70
835.73	2688.98
835.90	3131.34
836.07	2879.44
836.24	2803.67
836.41	2758.61
836.58	2822.10
836.75	3149.78
836.92	2772.95
837.09	2672.60
837.26	3059.67
837.43	3012.56
837.60	2783.19
837.77	2721.75
837.94	3133.39
838.12	3151.82
838.29	2684.89
838.46	2623.45
838.63	2744.28
838.80	3237.84
838.97	2832.34
839.14	2686.94
839.31	3078.10
839.48	3069.91
839.65	2738.13
839.82	2953.17
839.99	2951.12
840.16	2973.65
840.33	2717.65
840.50	2766.81
840.67	2840.53
840.84	2607.06
841.01	2662.36
841.18	2672.60
841.35	2979.79
841.52	3080.14
841.69	2981.84
841.86	2781.14
842.03	3002.32
842.20	3076.05
842.37	2709.46
842.54	2869.20
842.71	2992.08
842.88	2834.39
843.05	2713.56
843.22	2742.23
843.39	3096.53
843.56	2912.21
843.73	2695.13
843.90	2856.92
844.07	2932.69
844.24	3096.53
844.41	2811.86
844.58	2781.14
844.75	2910.16
844.92	3006.42
845.09	2811.86
845.26	2725.85
845.43	3045.33
845.60	2936.79
845.77	2889.68
845.94	2928.60
846.10	3127.25
846.27	2664.41
846.44	2615.26
846.61	2545.63
846.78	3047.38
846.95	3114.96
847.12	2691.03
847.29	2760.66
847.46	2832.34
847.63	3092.43
847.80	2586.58
847.97	2783.19
848.14	3325.90
848.31	2983.89
848.48	2650.07
848.65	2748.37
848.82	2914.26
848.98	3381.20
849.15	2867.16
849.32	2840.53
849.49	3096.53
849.66	2953.17
849.83	2709.46
850.00	2617.30
850.17	3098.58
850.34	2885.59
850.51	2777.05
850.68	2762.71
850.85	3327.95
851.01	3018.71
851.18	2684.89
851.35	2758.61
851.52	3088.34
851.69	3194.83
851.86	2617.30
852.03	2772.95
852.20	3078.10
852.37	2920.40
852.53	2699.22
852.70	2648.02
852.87	2992.08
853.04	3155.92
853.21	2795.48
853.38	2949.08
853.55	3174.35
853.72	3108.82
853.89	2633.69
854.05	2795.48
854.22	2908.12
854.39	2994.13
854.56	2717.65
854.73	2828.24
854.90	2865.11
855.07	3002.32
855.23	2697.17
855.40	2621.40
855.57	2942.93
855.74	2668.50
855.91	2895.83
856.08	2605.02
856.25	2775.00
856.41	2858.96
856.58	2770.90
856.75	2707.41
856.92	2836.44
857.09	3084.24
857.26	2639.83
857.42	2707.41
857.59	3184.59
857.76	2891.73
857.93	2740.18
858.10	2869.20
858.27	2856.92
858.43	2963.41
858.60	2676.70
858.77	2613.21
858.94	2850.77
859.11	3067.86
859.27	2805.72
859.44	2688.98
859.61	3327.95
859.78	3043.28
859.95	2680.79
860.12	2705.37
860.28	3311.57
860.45	3192.78
860.62	2660.31
860.79	2832.34
860.95	2867.16
861.12	2777.05
861.29	2648.02
861.46	2754.52
861.63	2953.17
861.79	2992.08
861.96	2678.74
862.13	2707.41
862.30	3162.06
862.47	2856.92
862.63	2676.70
862.80	2822.10
862.97	3098.58
863.14	3006.42
863.30	2688.98
863.47	2680.79
863.64	3231.69
863.81	2975.70
863.97	2637.78
864.14	2740.18
864.31	2953.17
864.48	2957.27
864.65	2613.21
864.81	2787.29
864.98	3143.63
865.15	3147.73
865.32	2801.62
865.48	2854.87
865.65	3301.33
865.82	2762.71
865.98	2818.00
866.15	2740.18
866.32	2957.27
866.49	2901.97
866.65	2885.59
866.82	2705.37
866.99	2926.55
867.16	2871.25
867.32	2772.95
867.49	2631.64
867.66	2871.25
867.83	2930.64
867.99	2623.45
868.16	2772.95
868.33	2742.23
868.49	2926.55
868.66	2844.63
868.83	2807.77
868.99	2996.18
869.16	2987.99
869.33	2813.91
869.50	2803.67
869.66	2924.50
869.83	2963.41
870.00	2660.31
870.16	2811.86
870.33	2949.08
870.50	3123.15
870.66	2760.66
870.83	2875.35
871.00	2981.84
871.17	3039.19
871.33	2795.48
871.50	2779.09
871.67	2959.31
871.83	2854.87
872.00	2889.68
872.17	2766.81
872.33	3297.23
872.50	3157.97
872.67	2785.24
872.83	2701.27
873.00	3086.29
873.17	2977.75
873.33	2783.19
873.50	2838.48
873.67	2850.77
873.83	2881.49
874.00	2781.14
874.16	2871.25
874.33	2987.99
874.50	2838.48
874.66	2746.33
874.83	2854.87
875.00	3135.44
875.16	3094.48
875.33	2842.58
875.50	2486.23
875.66	2940.88
875.83	3018.71
875.99	2840.53
876.16	2785.24
876.33	2797.53
876.49	2852.82
876.66	2844.63
876.83	2727.89
876.99	2639.83
877.16	2963.41
877.32	2723.80
877.49	2791.38
877.66	3039.19
877.82	3172.30
877.99	2799.57
878.15	2994.13
878.32	2947.03
878.49	2981.84
878.65	2899.92
878.82	2918.36
878.98	2820.05
879.15	3131.34
879.32	2924.50
879.48	2906.07
879.65	2944.98
879.81	2895.83
879.98	2727.89
880.15	2766.81
880.31	3174.35
880.48	2783.19
880.64	2836.44
880.81	2846.68
880.97	3227.60
881.14	3205.07
881.31	2740.18
881.47	2965.46
881.64	2934.74
881.80	2693.08
881.97	2889.68
882.13	2777.05
882.30	2783.19
882.47	2912.21
882.63	2705.37
882.80	2731.99
882.96	2869.20
883.13	3203.02
883.29	2725.85
883.46	2766.81
883.62	3264.46
883.79	2979.79
883.95	2856.92
884.12	2715.61
884.29	3143.63
884.45	3096.53
884.62	2746.33
884.78	2629.59
884.95	3209.17
885.11	2811.86
885.28	2828.24
885.44	2848.72
885.61	3108.82
885.77	3133.39
885.94	2824.15
886.10	2822.10
886.27	2953.17
886.43	3227.60
886.60	2961.36
886.76	2746.33
886.93	2885.59
887.09	2936.79
887.26	2615.26
887.42	2813.91
887.59	3067.86
887.75	3373.00
887.92	2873.30
888.08	2854.87
888.25	3323.85
888.41	3119.06
888.58	2836.44
888.74	2750.42
888.91	2877.40
>>>>>End Processed Spectral Data<<<<<
