SpectraSuite Data File
++++++++++++++++++++++++++++++++++++
Date: Thu May 05 21:11:05 CEST 2016
User: root
Dark Spectrum Present: No
Reference Spectrum Present: No
Number of Sampled Component Spectra: 1
Spectrometers: USB4C02835
Integration Time (usec): 100000 (USB4C02835)
Spectra Averaged: 1 (USB4C02835)
Boxcar Smoothing: 0 (USB4C02835)
Correct for Electrical Dark: No (USB4C02835)
Strobe/Lamp Enabled: No (USB4C02835)
Correct for Detector Non-linearity: No (USB4C02835)
Correct for Stray Light: No (USB4C02835)
Number of Pixels in Processed Spectrum: 3648
>>>>>Begin Processed Spectral Data<<<<<
177.47	2176.99
177.69	2176.99
177.91	2176.99
178.13	2168.80
178.36	2152.42
178.58	2744.28
178.80	2865.11
179.02	2854.87
179.24	2889.68
179.46	2635.74
179.68	2672.60
179.90	2938.84
180.13	3037.14
180.35	2500.57
180.57	2766.81
180.79	3102.67
181.01	2922.45
181.23	2688.98
181.45	2854.87
181.67	3149.78
181.90	3192.78
182.12	2736.09
182.34	2475.99
182.56	3127.25
182.78	3016.66
183.00	2688.98
183.22	2697.17
183.44	2627.54
183.66	3598.28
183.89	2734.04
184.11	2635.74
184.33	3117.01
184.55	3168.21
184.77	2602.97
184.99	2691.03
185.21	2875.35
185.43	3477.45
185.65	2602.97
185.87	2695.13
186.10	3454.92
186.32	3327.95
186.54	2772.95
186.76	2746.33
186.98	3241.93
187.20	2969.55
187.42	2705.37
187.64	2701.27
187.86	3018.71
188.08	3227.60
188.30	2670.55
188.52	2717.65
188.75	3168.21
188.97	3186.64
189.19	2621.40
189.41	2717.65
189.63	3057.62
189.85	2920.40
190.07	2613.21
190.29	2525.15
190.51	3030.99
190.73	2736.09
190.95	2842.58
191.17	2758.61
191.39	2785.24
191.61	3008.47
191.84	2676.70
192.06	2869.20
192.28	2762.71
192.50	3540.94
192.72	2815.96
192.94	2744.28
193.16	3184.59
193.38	3104.72
193.60	2625.50
193.82	2789.33
194.04	3166.16
194.26	3106.77
194.48	2623.45
194.70	2693.08
194.92	2920.40
195.14	3094.48
195.36	2641.88
195.58	2731.99
195.80	2998.23
196.02	2895.83
196.24	2703.32
196.46	2805.72
196.69	2869.20
196.91	3440.59
197.13	2639.83
197.35	2664.41
197.57	3272.65
197.79	3123.15
198.01	2721.75
198.23	2740.18
198.45	3028.95
198.67	2799.57
198.89	2582.49
199.11	2799.57
199.33	2889.68
199.55	2607.06
199.77	2648.02
199.99	2826.20
200.21	2977.75
200.43	3092.43
200.65	2572.25
200.87	2547.67
201.09	3006.42
201.31	2947.03
201.53	2803.67
201.75	2682.84
201.97	3022.80
202.19	2949.08
202.41	2777.05
202.63	2873.30
202.85	3088.34
203.07	3090.38
203.29	2734.04
203.51	2586.58
203.73	2822.10
203.95	3467.21
204.17	2658.26
204.39	2861.01
204.61	2992.08
204.83	2867.16
205.05	2746.33
205.27	2768.85
205.49	3395.53
205.71	2977.75
205.93	2629.59
206.15	2615.26
206.37	3063.76
206.59	2963.41
206.81	2645.98
207.03	2666.46
207.25	2822.10
207.47	3123.15
207.69	2697.17
207.91	2920.40
208.13	3301.33
208.34	2842.58
208.56	2623.45
208.78	2713.56
209.00	2906.07
209.22	2877.40
209.44	2619.35
209.66	2586.58
209.88	3014.61
210.10	3018.71
210.32	2701.27
210.54	2783.19
210.76	3035.09
210.98	3186.64
211.20	2570.20
211.42	2836.44
211.64	3221.45
211.86	3094.48
212.08	2787.29
212.30	2779.09
212.52	2930.64
212.74	3082.19
212.96	2713.56
213.17	2789.33
213.39	3106.77
213.61	3284.94
213.83	2656.22
214.05	2588.63
214.27	3231.69
214.49	2828.24
214.71	2701.27
214.93	2775.00
215.15	3033.04
215.37	3092.43
215.59	2504.67
215.81	2813.91
216.03	3196.88
216.24	3069.91
216.46	2680.79
216.68	2703.32
216.90	3096.53
217.12	3198.93
217.34	2623.45
217.56	2879.44
217.78	3209.17
218.00	3121.10
218.22	2734.04
218.44	2803.67
218.66	2965.46
218.87	3436.49
219.09	2676.70
219.31	2721.75
219.53	3059.67
219.75	2930.64
219.97	2719.70
220.19	2664.41
220.41	2932.69
220.63	3215.31
220.85	2746.33
221.06	2693.08
221.28	3180.50
221.50	3164.11
221.72	2734.04
221.94	2557.91
222.16	3024.85
222.38	3133.39
222.60	2729.94
222.82	2697.17
223.03	3182.54
223.25	2779.09
223.47	2656.22
223.69	2906.07
223.91	3139.54
224.13	3086.29
224.35	2598.87
224.57	2836.44
224.78	3043.28
225.00	2811.86
225.22	2787.29
225.44	2672.60
225.66	3170.26
225.88	2926.55
226.10	2793.43
226.32	2715.61
226.53	3221.45
226.75	3012.56
226.97	2678.74
227.19	2682.84
227.41	2830.29
227.63	2918.36
227.85	2482.14
228.06	2738.13
228.28	3037.14
228.50	3260.37
228.72	2562.01
228.94	2615.26
229.16	2592.73
229.37	2793.43
229.59	2629.59
229.81	2901.97
230.03	3024.85
230.25	2740.18
230.47	2566.10
230.69	2664.41
230.90	3172.30
231.12	2754.52
231.34	2682.84
231.56	2703.32
231.78	2805.72
232.00	2983.89
232.21	2779.09
232.43	2666.46
232.65	2723.80
232.87	3108.82
233.09	2514.91
233.30	2662.36
233.52	3119.06
233.74	2996.18
233.96	2578.39
234.18	2813.91
234.40	2969.55
234.61	3385.29
234.83	2613.21
235.05	2650.07
235.27	3395.53
235.49	3198.93
235.70	2574.30
235.92	2693.08
236.14	3110.86
236.36	3454.92
236.58	2590.68
236.79	2762.71
237.01	2854.87
237.23	2963.41
237.45	2928.60
237.67	2678.74
237.88	3053.52
238.10	3383.24
238.32	2572.25
238.54	2660.31
238.76	2961.36
238.97	2834.39
239.19	2633.69
239.41	2703.32
239.63	3121.10
239.85	2893.78
240.06	2723.80
240.28	2713.56
240.50	3147.73
240.72	2936.79
240.93	2619.35
241.15	2783.19
241.37	3012.56
241.59	3311.57
241.81	2678.74
242.02	2713.56
242.24	3020.75
242.46	3100.62
242.68	2521.05
242.89	2559.96
243.11	3147.73
243.33	2930.64
243.55	2719.70
243.76	2723.80
243.98	2779.09
244.20	2930.64
244.42	2713.56
244.64	2631.64
244.85	2748.37
245.07	2766.81
245.29	2664.41
245.51	2686.94
245.72	3069.91
245.94	3170.26
246.16	2691.03
246.38	2740.18
246.59	2797.53
246.81	2830.29
247.03	2574.30
247.24	2555.86
247.46	2801.62
247.68	3037.14
247.90	2600.92
248.11	2678.74
248.33	3065.81
248.55	3008.47
248.77	2844.63
248.98	2768.85
249.20	3297.23
249.42	3039.19
249.64	2693.08
249.85	2713.56
250.07	2848.72
250.29	3090.38
250.50	2766.81
250.72	2537.43
250.94	3076.05
251.16	3401.68
251.37	2666.46
251.59	2805.72
251.81	3063.76
252.02	3256.27
252.24	2627.54
252.46	2791.38
252.68	2801.62
252.89	2840.53
253.11	2609.11
253.33	2875.35
253.54	3274.70
253.76	2787.29
253.98	2703.32
254.20	2660.31
254.41	2742.23
254.63	2861.01
254.85	2584.54
255.06	2721.75
255.28	3117.01
255.50	2891.73
255.71	2602.97
255.93	2504.67
256.15	3033.04
256.36	3012.56
256.58	2588.63
256.80	2654.17
257.02	2920.40
257.23	2977.75
257.45	2703.32
257.67	2781.14
257.88	2885.59
258.10	2957.27
258.32	2678.74
258.53	2775.00
258.75	3286.99
258.97	2893.78
259.18	2607.06
259.40	2680.79
259.62	3213.26
259.83	3256.27
260.05	2684.89
260.27	3477.45
260.48	3100.62
260.70	2844.63
260.92	2521.05
261.13	2641.88
261.35	3018.71
261.57	3090.38
261.78	2502.62
262.00	2617.30
262.22	3121.10
262.43	2846.68
262.65	2701.27
262.86	2744.28
263.08	3430.35
263.30	2901.97
263.51	2504.67
263.73	2676.70
263.95	3260.37
264.16	2871.25
264.38	2613.21
264.60	2559.96
264.81	2959.31
265.03	3157.97
265.25	3008.47
265.46	2664.41
265.68	3176.40
265.89	3117.01
266.11	2652.12
266.33	2631.64
266.54	3110.86
266.76	3041.23
266.98	2723.80
267.19	2873.30
267.41	3110.86
267.62	2899.92
267.84	2580.44
268.06	2811.86
268.27	2959.31
268.49	3135.44
268.70	2734.04
268.92	2662.36
269.14	2758.61
269.35	2822.10
269.57	2736.09
269.79	2746.33
270.00	2828.24
270.22	3278.80
270.43	2662.36
270.65	2564.06
270.87	3014.61
271.08	3028.95
271.30	2762.71
271.51	2688.98
271.73	3121.10
271.95	3137.49
272.16	2639.83
272.38	2791.38
272.59	2877.40
272.81	3086.29
273.02	2602.97
273.24	2772.95
273.46	3194.83
273.67	2758.61
273.89	2586.58
274.10	2592.73
274.32	3170.26
274.54	3010.51
274.75	2715.61
274.97	2783.19
275.18	3110.86
275.40	3053.52
275.61	2734.04
275.83	2834.39
276.05	2815.96
276.26	2981.84
276.48	2807.77
276.69	2793.43
276.91	2895.83
277.12	3295.18
277.34	2897.88
277.55	2897.88
277.77	3002.32
277.99	2928.60
278.20	2785.24
278.42	2795.48
278.63	2924.50
278.85	2850.77
279.06	2744.28
279.28	2830.29
279.49	3166.16
279.71	3147.73
279.93	2867.16
280.14	2891.73
280.36	2883.54
280.57	3088.34
280.79	2901.97
281.00	2695.13
281.22	2840.53
281.43	3235.79
281.65	2602.97
281.86	2740.18
282.08	3065.81
282.29	3276.75
282.51	2637.78
282.73	2717.65
282.94	2742.23
283.16	3123.15
283.37	2885.59
283.59	2844.63
283.80	3006.42
284.02	3035.09
284.23	2885.59
284.45	2844.63
284.66	2852.82
284.88	2914.26
285.09	2799.57
285.31	2869.20
285.52	3090.38
285.74	2766.81
285.95	2920.40
286.17	2887.64
286.38	3178.45
286.60	2832.34
286.81	2750.42
287.03	2742.23
287.24	2930.64
287.46	3041.23
287.67	2869.20
287.89	3104.72
288.10	3024.85
288.32	2971.60
288.53	2969.55
288.75	2830.29
288.96	3176.40
289.18	2834.39
289.39	2727.89
289.61	2901.97
289.82	3340.24
290.04	3284.94
290.25	2670.55
290.47	2844.63
290.68	2947.03
290.90	3133.39
291.11	2578.39
291.33	2883.54
291.54	2906.07
291.76	2912.21
291.97	2875.35
292.18	2858.96
292.40	2881.49
292.61	2787.29
292.83	3121.10
293.04	2836.44
293.26	3022.80
293.47	2996.18
293.69	2680.79
293.90	2662.36
294.12	3252.17
294.33	3024.85
294.55	2832.34
294.76	2930.64
294.97	3289.04
295.19	3385.29
295.40	2834.39
295.62	2842.58
295.83	3133.39
296.05	2869.20
296.26	2983.89
296.48	2764.76
296.69	2973.65
296.90	2996.18
297.12	2877.40
297.33	2895.83
297.55	3037.14
297.76	3033.04
297.98	2955.22
298.19	2883.54
298.41	2951.12
298.62	2822.10
298.83	2967.51
299.05	2863.06
299.26	2910.16
299.48	2820.05
299.69	2824.15
299.90	2813.91
300.12	2807.77
300.33	3110.86
300.55	2830.29
300.76	2865.11
300.98	2840.53
301.19	3074.00
301.40	2867.16
301.62	2752.47
301.83	3049.43
302.05	2959.31
302.26	2693.08
302.47	2811.86
302.69	2883.54
302.90	2957.27
303.12	2512.86
303.33	2916.31
303.54	3358.67
303.76	2916.31
303.97	2842.58
304.19	3002.32
304.40	2869.20
304.61	3061.71
304.83	2893.78
305.04	2910.16
305.26	3190.74
305.47	2844.63
305.68	2772.95
305.90	2680.79
306.11	3162.06
306.33	2961.36
306.54	2637.78
306.75	2801.62
306.97	2719.70
307.18	2852.82
307.39	2766.81
307.61	2936.79
307.82	3008.47
308.04	3074.00
308.25	2656.22
308.46	2940.88
308.68	2908.12
308.89	2938.84
309.10	2844.63
309.32	2877.40
309.53	3010.51
309.74	3026.90
309.96	2752.47
310.17	2901.97
310.39	2885.59
310.60	3074.00
310.81	2858.96
311.03	2731.99
311.24	3100.62
311.45	2996.18
311.67	3086.29
311.88	2858.96
312.09	2932.69
312.31	2807.77
312.52	2787.29
312.73	2770.90
312.95	2697.17
313.16	2813.91
313.37	2899.92
313.59	2938.84
313.80	3262.41
314.01	3266.51
314.23	2856.92
314.44	2707.41
314.65	2635.74
314.87	2826.20
315.08	2768.85
315.29	2830.29
315.51	2787.29
315.72	2713.56
315.93	2863.06
316.15	2840.53
316.36	2871.25
316.57	2967.51
316.79	2815.96
317.00	2705.37
317.21	3143.63
317.43	2826.20
317.64	2772.95
317.85	2684.89
318.07	2850.77
318.28	2838.48
318.49	2932.69
318.70	2975.70
318.92	2979.79
319.13	3026.90
319.34	2990.03
319.56	2803.67
319.77	3065.81
319.98	3035.09
320.20	3016.66
320.41	2885.59
320.62	3149.78
320.83	2826.20
321.05	2949.08
321.26	2818.00
321.47	2957.27
321.69	3186.64
321.90	2717.65
322.11	2768.85
322.32	3045.33
322.54	3286.99
322.75	2797.53
322.96	3557.32
323.18	2684.89
323.39	2695.13
323.60	2709.46
323.81	2861.01
324.03	2922.45
324.24	2928.60
324.45	2928.60
324.66	2797.53
324.88	3174.35
325.09	3252.17
325.30	2779.09
325.52	2717.65
325.73	3035.09
325.94	2832.34
326.15	2660.31
326.37	2666.46
326.58	3176.40
326.79	3330.00
327.00	2693.08
327.22	2756.57
327.43	2955.22
327.64	2787.29
327.85	2891.73
328.07	2887.64
328.28	3332.05
328.49	2879.44
328.70	2772.95
328.92	2789.33
329.13	2918.36
329.34	3135.44
329.55	2987.99
329.76	2908.12
329.98	2891.73
330.19	3200.98
330.40	2908.12
330.61	2940.88
330.83	3104.72
331.04	2834.39
331.25	2844.63
331.46	2762.71
331.68	2824.15
331.89	3155.92
332.10	2881.49
332.31	2645.98
332.52	2983.89
332.74	3209.17
332.95	2711.51
333.16	2787.29
333.37	3098.58
333.58	2826.20
333.80	2770.90
334.01	2619.35
334.22	2936.79
334.43	2811.86
334.64	2809.81
334.86	2709.46
335.07	2813.91
335.28	3155.92
335.49	2678.74
335.70	2836.44
335.92	3243.98
336.13	3391.44
336.34	2818.00
336.55	2818.00
336.76	3035.09
336.98	2695.13
337.19	2826.20
337.40	2949.08
337.61	3471.31
337.82	3008.47
338.04	2934.74
338.25	2631.64
338.46	2955.22
338.67	3010.51
338.88	2721.75
339.09	2752.47
339.31	2848.72
339.52	2809.81
339.73	2781.14
339.94	2861.01
340.15	3092.43
340.36	2942.93
340.58	2842.58
340.79	2715.61
341.00	3065.81
341.21	2770.90
341.42	3047.38
341.63	2820.05
341.85	3141.58
342.06	3041.23
342.27	2682.84
342.48	2885.59
342.69	2809.81
342.90	2998.23
343.12	3164.11
343.33	2848.72
343.54	3147.73
343.75	3211.22
343.96	2953.17
344.17	2719.70
344.38	3047.38
344.60	2818.00
344.81	2738.13
345.02	2717.65
345.23	3108.82
345.44	3405.77
345.65	2852.82
345.86	2799.57
346.07	3045.33
346.29	2852.82
346.50	2967.51
346.71	2949.08
346.92	3266.51
347.13	3354.57
347.34	2940.88
347.55	2684.89
347.76	3010.51
347.98	2809.81
348.19	2830.29
348.40	3018.71
348.61	2891.73
348.82	3170.26
349.03	2871.25
349.24	2744.28
349.45	3272.65
349.66	2676.70
349.88	2742.23
350.09	2734.04
350.30	3262.41
350.51	3229.65
350.72	2936.79
350.93	2805.72
351.14	2934.74
351.35	3196.88
351.56	2863.06
351.77	2863.06
351.99	3008.47
352.20	3198.93
352.41	2906.07
352.62	2602.97
352.83	3008.47
353.04	3024.85
353.25	2820.05
353.46	2879.44
353.67	3231.69
353.88	2680.79
354.09	2725.85
354.30	2824.15
354.52	3139.54
354.73	2992.08
354.94	2770.90
355.15	2912.21
355.36	3348.43
355.57	2904.02
355.78	2777.05
355.99	2734.04
356.20	2889.68
356.41	3180.50
356.62	2842.58
356.83	2842.58
357.04	3262.41
357.25	2797.53
357.46	2789.33
357.68	2697.17
357.89	2834.39
358.10	2944.98
358.31	2881.49
358.52	2807.77
358.73	2834.39
358.94	2791.38
359.15	2815.96
359.36	2789.33
359.57	2963.41
359.78	2959.31
359.99	2985.94
360.20	2742.23
360.41	3055.57
360.62	3121.10
360.83	2881.49
361.04	2858.96
361.25	3030.99
361.46	3237.84
361.67	2973.65
361.88	2803.67
362.09	3162.06
362.30	3010.51
362.51	2686.94
362.72	2965.46
362.93	3033.04
363.14	3088.34
363.35	2879.44
363.56	2713.56
363.78	3172.30
363.99	3164.11
364.20	2775.00
364.41	2879.44
364.62	3219.41
364.83	3076.05
365.04	2815.96
365.25	2830.29
365.46	3362.76
365.67	2836.44
365.88	2914.26
366.09	2772.95
366.30	2885.59
366.51	3078.10
366.72	2701.27
366.93	2772.95
367.14	3020.75
367.35	3248.08
367.56	2822.10
367.77	2922.45
367.98	2996.18
368.18	3096.53
368.39	2924.50
368.60	2754.52
368.81	3112.91
369.02	3065.81
369.23	2746.33
369.44	2633.69
369.65	2889.68
369.86	3080.14
370.07	2922.45
370.28	2709.46
370.49	3063.76
370.70	3114.96
370.91	2684.89
371.12	2746.33
371.33	3123.15
371.54	2844.63
371.75	2947.03
371.96	2531.29
372.17	3016.66
372.38	2949.08
372.59	2754.52
372.80	2738.13
373.01	2897.88
373.22	3000.27
373.43	2867.16
373.64	2635.74
373.85	3266.51
374.06	3248.08
374.26	2881.49
374.47	2891.73
374.68	3264.46
374.89	2985.94
375.10	2760.66
375.31	2881.49
375.52	3024.85
375.73	3024.85
375.94	2688.98
376.15	3006.42
376.36	2926.55
376.57	2815.96
376.78	2852.82
376.99	2805.72
377.20	3162.06
377.40	2873.30
377.61	3106.77
377.82	2713.56
378.03	3233.74
378.24	3059.67
378.45	2961.36
378.66	2924.50
378.87	2734.04
379.08	2748.37
379.29	2834.39
379.50	2992.08
379.71	2936.79
379.91	3094.48
380.12	2815.96
380.33	2875.35
380.54	3039.19
380.75	3018.71
380.96	2783.19
381.17	2897.88
381.38	2996.18
381.59	2928.60
381.80	2881.49
382.00	3059.67
382.21	2977.75
382.42	3205.07
382.63	3137.49
382.84	2969.55
383.05	3145.68
383.26	3252.17
383.47	2918.36
383.68	2781.14
383.88	3043.28
384.09	2971.60
384.30	3067.86
384.51	2897.88
384.72	2887.64
384.93	2805.72
385.14	2893.78
385.35	3100.62
385.55	2750.42
385.76	3198.93
385.97	2797.53
386.18	2680.79
386.39	2785.24
386.60	2867.16
386.81	2736.09
387.02	2695.13
387.22	2736.09
387.43	3094.48
387.64	2858.96
387.85	2975.70
388.06	3063.76
388.27	4028.35
388.48	7327.63
388.68	10792.80
388.89	13338.42
389.10	14292.77
389.31	14026.54
389.52	11251.54
389.73	9705.32
389.93	8750.97
390.14	8021.89
390.35	7470.99
390.56	6735.77
390.77	5523.37
390.98	4323.26
391.18	3751.88
391.39	3366.86
391.60	2992.08
391.81	3078.10
392.02	2844.63
392.23	3409.87
392.43	3026.90
392.64	2936.79
392.85	2926.55
393.06	3266.51
393.27	2992.08
393.47	2723.80
393.68	2848.72
393.89	2850.77
394.10	3180.50
394.31	2781.14
394.52	2721.75
394.72	2879.44
394.93	3164.11
395.14	2758.61
395.35	2942.93
395.56	2836.44
395.76	2899.92
395.97	2762.71
396.18	2973.65
396.39	2998.23
396.60	3545.03
396.80	3084.24
397.01	3049.43
397.22	3117.01
397.43	3114.96
397.64	2809.81
397.84	2944.98
398.05	3276.75
398.26	2985.94
398.47	2949.08
398.67	3047.38
398.88	2965.46
399.09	3086.29
399.30	2830.29
399.51	2963.41
399.71	2910.16
399.92	2940.88
400.13	2899.92
400.34	2820.05
400.54	3043.28
400.75	3237.84
400.96	2949.08
401.17	3100.62
401.37	3039.19
401.58	3014.61
401.79	2772.95
402.00	3000.27
402.21	3450.83
402.41	3074.00
402.62	3092.43
402.83	3219.41
403.04	3291.09
403.24	3633.10
403.45	2908.12
403.66	3135.44
403.87	3209.17
404.07	3309.52
404.28	3094.48
404.49	3110.86
404.70	3039.19
404.90	3225.55
405.11	2869.20
405.32	2863.06
405.52	2918.36
405.73	2916.31
405.94	2701.27
406.15	2901.97
406.35	3153.87
406.56	3114.96
406.77	2877.40
406.98	2879.44
407.18	2897.88
407.39	3264.46
407.60	2881.49
407.80	2932.69
408.01	2916.31
408.22	3030.99
408.43	2795.48
408.63	2959.31
408.84	3114.96
409.05	3127.25
409.25	2822.10
409.46	2836.44
409.67	2895.83
409.88	2916.31
410.08	2932.69
410.29	2846.68
410.50	3076.05
410.70	3102.67
410.91	2791.38
411.12	2824.15
411.32	2987.99
411.53	2854.87
411.74	2875.35
411.95	2940.88
412.15	3010.51
412.36	3180.50
412.57	2934.74
412.77	3035.09
412.98	2971.60
413.19	2955.22
413.39	2879.44
413.60	2850.77
413.81	3166.16
414.01	2881.49
414.22	2899.92
414.43	2998.23
414.63	2920.40
414.84	3104.72
415.05	2844.63
415.25	2650.07
415.46	3096.53
415.67	2871.25
415.87	2899.92
416.08	2822.10
416.29	2858.96
416.49	3084.24
416.70	2848.72
416.91	2795.48
417.11	2944.98
417.32	3065.81
417.53	2846.68
417.73	2908.12
417.94	3028.95
418.15	3026.90
418.35	2848.72
418.56	2934.74
418.77	3368.91
418.97	3100.62
419.18	2924.50
419.38	2598.87
419.59	2922.45
419.80	3166.16
420.00	2748.37
420.21	2793.43
420.42	3196.88
420.62	3074.00
420.83	2789.33
421.04	2840.53
421.24	2895.83
421.45	3033.04
421.65	2873.30
421.86	2906.07
422.07	3133.39
422.27	3160.02
422.48	2779.09
422.69	2670.55
422.89	2959.31
423.10	2955.22
423.30	2822.10
423.51	2885.59
423.72	3086.29
423.92	3094.48
424.13	2754.52
424.33	2887.64
424.54	3123.15
424.75	3002.32
424.95	3086.29
425.16	2805.72
425.36	2973.65
425.57	3106.77
425.78	2983.89
425.98	3000.27
426.19	2971.60
426.39	2797.53
426.60	2893.78
426.81	2965.46
427.01	3000.27
427.22	2815.96
427.42	2770.90
427.63	2762.71
427.83	3215.31
428.04	3237.84
428.25	2934.74
428.45	2944.98
428.66	3172.30
428.86	2856.92
429.07	2828.24
429.28	2875.35
429.48	3043.28
429.69	2828.24
429.89	2924.50
430.10	2725.85
430.30	3104.72
430.51	3196.88
430.71	2848.72
430.92	2932.69
431.13	2838.48
431.33	3004.37
431.54	2992.08
431.74	3022.80
431.95	3446.73
432.15	2822.10
432.36	2861.01
432.56	2875.35
432.77	3401.68
432.98	3291.09
433.18	2893.78
433.39	2838.48
433.59	2877.40
433.80	3323.85
434.00	3045.33
434.21	2889.68
434.41	2875.35
434.62	3391.44
434.82	2734.04
435.03	2738.13
435.23	3037.14
435.44	2709.46
435.64	2807.77
435.85	2869.20
436.06	3133.39
436.26	3102.67
436.47	2826.20
436.67	2836.44
436.88	3022.80
437.08	3147.73
437.29	2998.23
437.49	2987.99
437.70	3209.17
437.90	2932.69
438.11	3094.48
438.31	2963.41
438.52	3274.70
438.72	3119.06
438.93	3192.78
439.13	2863.06
439.34	3149.78
439.54	2926.55
439.75	2996.18
439.95	2912.21
440.16	2893.78
440.36	2963.41
440.57	2836.44
440.77	2770.90
440.98	2987.99
441.18	3123.15
441.39	2813.91
441.59	2762.71
441.80	3387.34
442.00	2957.27
442.21	2979.79
442.41	2705.37
442.62	3147.73
442.82	2879.44
443.02	2836.44
443.23	2803.67
443.43	2971.60
443.64	3180.50
443.84	2797.53
444.05	2942.93
444.25	2992.08
444.46	2854.87
444.66	2783.19
444.87	3078.10
445.07	2750.42
445.28	2987.99
445.48	3076.05
445.69	2858.96
445.89	3481.55
446.09	2957.27
446.30	3147.73
446.50	3215.31
446.71	4667.32
446.91	5752.74
447.12	6463.39
447.32	6815.64
447.53	6825.88
447.73	5771.18
447.93	4888.50
448.14	4882.36
448.34	4771.77
448.55	4016.07
448.75	4036.55
448.96	3772.36
449.16	3665.86
449.36	3536.84
449.57	3043.28
449.77	2914.26
449.98	2920.40
450.18	3037.14
450.39	2781.14
450.59	3024.85
450.79	3051.47
451.00	2873.30
451.20	3002.32
451.41	2744.28
451.61	3074.00
451.81	3026.90
452.02	2793.43
452.22	2813.91
452.43	2912.21
452.63	2811.86
452.84	2795.48
453.04	2766.81
453.24	3012.56
453.45	2867.16
453.65	2799.57
453.86	2869.20
454.06	3014.61
454.26	3049.43
454.47	2848.72
454.67	3002.32
454.87	3051.47
455.08	2928.60
455.28	3010.51
455.49	3000.27
455.69	2895.83
455.89	3319.76
456.10	2959.31
456.30	2832.34
456.51	3121.10
456.71	3037.14
456.91	2992.08
457.12	2826.20
457.32	3020.75
457.52	2781.14
457.73	2942.93
457.93	2953.17
458.14	2871.25
458.34	2781.14
458.54	2901.97
458.75	2838.48
458.95	3119.06
459.15	3078.10
459.36	2961.36
459.56	2875.35
459.76	3454.92
459.97	3078.10
460.17	2820.05
460.37	2971.60
460.58	2975.70
460.78	3108.82
460.99	2848.72
461.19	2856.92
461.39	2887.64
461.60	2977.75
461.80	2994.13
462.00	2826.20
462.21	2928.60
462.41	2813.91
462.61	2707.41
462.82	2633.69
463.02	3114.96
463.22	3069.91
463.43	2944.98
463.63	2854.87
463.83	3266.51
464.04	3112.91
464.24	2879.44
464.44	2826.20
464.64	3008.47
464.85	3106.77
465.05	2836.44
465.25	2805.72
465.46	2797.53
465.66	3157.97
465.86	2942.93
466.07	2830.29
466.27	2975.70
466.47	2717.65
466.68	2707.41
466.88	3000.27
467.08	3133.39
467.29	3184.59
467.49	2861.01
467.69	2932.69
467.89	3151.82
468.10	2981.84
468.30	2899.92
468.50	2953.17
468.71	3157.97
468.91	2901.97
469.11	3090.38
469.31	2942.93
469.52	2840.53
469.72	3264.46
469.92	3071.95
470.13	2901.97
470.33	3016.66
470.53	3108.82
470.73	3170.26
470.94	3536.84
471.14	3649.48
471.34	4054.98
471.54	3758.02
471.75	3538.89
471.95	3286.99
472.15	3327.95
472.36	3272.65
472.56	3239.89
472.76	3487.69
472.96	3303.37
473.17	3069.91
473.37	2953.17
473.57	2987.99
473.77	3094.48
473.98	2910.16
474.18	2742.23
474.38	3506.12
474.58	2881.49
474.79	2789.33
474.99	2926.55
475.19	3125.20
475.39	2832.34
475.60	3000.27
475.80	2838.48
476.00	3074.00
476.20	2912.21
476.41	2889.68
476.61	2949.08
476.81	3221.45
477.01	2785.24
477.21	3090.38
477.42	2975.70
477.62	2865.11
477.82	3162.06
478.02	2807.77
478.23	2887.64
478.43	2830.29
478.63	2910.16
478.83	2856.92
479.03	2916.31
479.24	3129.30
479.44	3413.96
479.64	2811.86
479.84	2691.03
480.04	2828.24
480.25	3102.67
480.45	2768.85
480.65	2877.40
480.85	3248.08
481.06	3014.61
481.26	2904.02
481.46	2875.35
481.66	2998.23
481.86	2820.05
482.06	3074.00
482.27	2856.92
482.47	2922.45
482.67	3033.04
482.87	2805.72
483.07	2850.77
483.28	2938.84
483.48	2818.00
483.68	2897.88
483.88	2701.27
484.08	2691.03
484.29	2838.48
484.49	2875.35
484.69	2652.12
484.89	3276.75
485.09	3160.02
485.29	2899.92
485.50	2912.21
485.70	2879.44
485.90	3229.65
486.10	2998.23
486.30	2863.06
486.50	3135.44
486.71	3000.27
486.91	2942.93
487.11	3014.61
487.31	2742.23
487.51	3059.67
487.71	2715.61
487.91	2729.94
488.12	2893.78
488.32	2648.02
488.52	2830.29
488.72	2664.41
488.92	3102.67
489.12	3164.11
489.32	3082.19
489.53	2844.63
489.73	2705.37
489.93	3301.33
490.13	2848.72
490.33	2693.08
490.53	3071.95
490.73	3237.84
490.94	2758.61
491.14	3026.90
491.34	3096.53
491.54	3086.29
491.74	3659.72
491.94	4251.58
492.14	4554.68
492.34	4644.79
492.54	4435.90
492.75	3706.82
492.95	3925.96
493.15	3708.87
493.35	3520.46
493.55	3395.53
493.75	3375.05
493.95	3504.07
494.15	2983.89
494.35	2893.78
494.56	2994.13
494.76	2873.30
494.96	3012.56
495.16	2803.67
495.36	3004.37
495.56	3020.75
495.76	2828.24
495.96	2865.11
496.16	2877.40
496.36	3373.00
496.56	2818.00
496.77	2920.40
496.97	2881.49
497.17	3205.07
497.37	2742.23
497.57	2897.88
497.77	3016.66
497.97	2815.96
498.17	2904.02
498.37	2791.38
498.57	3157.97
498.77	2852.82
498.97	2994.13
499.17	3172.30
499.38	2965.46
499.58	2975.70
499.78	3069.91
499.98	2961.36
500.18	2996.18
500.38	2840.53
500.58	3098.58
500.78	3350.48
500.98	5502.89
501.18	7317.39
501.38	8775.55
501.58	9688.94
501.78	9568.11
501.98	7923.59
502.18	6588.32
502.38	5808.04
502.58	5799.85
502.78	4941.75
502.98	4808.63
503.18	4452.28
503.38	4317.12
503.59	3844.04
503.79	3729.35
503.99	3436.49
504.19	3510.22
504.39	3499.98
504.59	3338.19
504.79	3217.36
504.99	3432.40
505.19	3254.22
505.39	3069.91
505.59	3248.08
505.79	3233.74
505.99	3065.81
506.19	2908.12
506.39	3074.00
506.59	2871.25
506.79	2953.17
506.99	3157.97
507.19	2844.63
507.39	3035.09
507.59	2762.71
507.79	2836.44
507.99	2707.41
508.19	3026.90
508.39	2828.24
508.59	2854.87
508.79	2920.40
508.99	3356.62
509.19	2936.79
509.39	2961.36
509.59	2760.66
509.79	2924.50
509.99	3059.67
510.19	2961.36
510.39	2932.69
510.59	3018.71
510.79	2881.49
510.99	2711.51
511.19	2811.86
511.39	3248.08
511.59	3184.59
511.79	3000.27
511.99	2861.01
512.19	3342.28
512.38	2953.17
512.58	2738.13
512.78	2836.44
512.98	3225.55
513.18	3262.41
513.38	2758.61
513.58	2873.30
513.78	2963.41
513.98	2875.35
514.18	2889.68
514.38	2772.95
514.58	3123.15
514.78	2920.40
514.98	2744.28
515.18	2885.59
515.38	2811.86
515.58	3319.76
515.78	2752.47
515.98	2815.96
516.18	3047.38
516.38	2963.41
516.57	2752.47
516.77	2863.06
516.97	3059.67
517.17	2861.01
517.37	2574.30
517.57	2869.20
517.77	2990.03
517.97	2906.07
518.17	2912.21
518.37	2691.03
518.57	2863.06
518.77	3030.99
518.97	2867.16
519.16	2912.21
519.36	3090.38
519.56	2899.92
519.76	2871.25
519.96	2873.30
520.16	3231.69
520.36	2846.68
520.56	3012.56
520.76	2746.33
520.96	2879.44
521.16	3145.68
521.35	2996.18
521.55	2967.51
521.75	3024.85
521.95	2918.36
522.15	2772.95
522.35	2672.60
522.55	2895.83
522.75	3145.68
522.95	2725.85
523.14	2699.22
523.34	3022.80
523.54	2824.15
523.74	2957.27
523.94	2930.64
524.14	2740.18
524.34	3092.43
524.54	3057.62
524.73	2779.09
524.93	3082.19
525.13	3008.47
525.33	2766.81
525.53	3125.20
525.73	3098.58
525.93	2987.99
526.13	2830.29
526.32	2809.81
526.52	3137.49
526.72	3131.34
526.92	2815.96
527.12	2729.94
527.32	2686.94
527.52	2977.75
527.71	2897.88
527.91	2852.82
528.11	2912.21
528.31	2967.51
528.51	2820.05
528.71	2996.18
528.90	3078.10
529.10	3123.15
529.30	2979.79
529.50	2584.54
529.70	3037.14
529.90	2996.18
530.09	2901.97
530.29	2711.51
530.49	2936.79
530.69	3469.26
530.89	2961.36
531.09	3000.27
531.28	2887.64
531.48	3151.82
531.68	2875.35
531.88	2883.54
532.08	3143.63
532.28	2918.36
532.47	2998.23
532.67	2951.12
532.87	3041.23
533.07	2861.01
533.27	2947.03
533.46	2942.93
533.66	3069.91
533.86	2985.94
534.06	2932.69
534.26	2861.01
534.45	2987.99
534.65	3121.10
534.85	2951.12
535.05	2777.05
535.25	3067.86
535.44	2695.13
535.64	2996.18
535.84	2871.25
536.04	2762.71
536.24	2998.23
536.43	2688.98
536.63	2899.92
536.83	2987.99
537.03	3012.56
537.22	2643.93
537.42	2674.65
537.62	3020.75
537.82	2908.12
538.02	2994.13
538.21	3000.27
538.41	3563.47
538.61	3041.23
538.81	3028.95
539.00	3028.95
539.20	2688.98
539.40	2916.31
539.60	2858.96
539.79	3035.09
539.99	2963.41
540.19	2820.05
540.39	2754.52
540.58	2899.92
540.78	3166.16
540.98	3002.32
541.18	3002.32
541.37	2961.36
541.57	2975.70
541.77	3074.00
541.97	2770.90
542.16	2703.32
542.36	2951.12
542.56	2852.82
542.76	3043.28
542.95	2901.97
543.15	3008.47
543.35	3114.96
543.54	2789.33
543.74	2721.75
543.94	3246.03
544.14	2875.35
544.33	2969.55
544.53	2895.83
544.73	2879.44
544.93	2926.55
545.12	2766.81
545.32	2879.44
545.52	2871.25
545.71	2762.71
545.91	2803.67
546.11	2791.38
546.30	2854.87
546.50	2881.49
546.70	2908.12
546.90	2861.01
547.09	2729.94
547.29	2883.54
547.49	2983.89
547.68	2826.20
547.88	2871.25
548.08	3200.98
548.27	3215.31
548.47	2787.29
548.67	2922.45
548.87	3082.19
549.06	2822.10
549.26	2811.86
549.46	3061.71
549.65	2850.77
549.85	2897.88
550.05	2914.26
550.24	2744.28
550.44	2983.89
550.64	2906.07
550.83	2869.20
551.03	3192.78
551.23	3270.61
551.42	2963.41
551.62	2924.50
551.82	3016.66
552.01	2959.31
552.21	3147.73
552.41	2897.88
552.60	3227.60
552.80	2918.36
553.00	2818.00
553.19	2867.16
553.39	3270.61
553.59	2764.76
553.78	2959.31
553.98	2910.16
554.17	2760.66
554.37	3035.09
554.57	2963.41
554.76	2705.37
554.96	2834.39
555.16	2987.99
555.35	2938.84
555.55	3014.61
555.75	3022.80
555.94	3166.16
556.14	2746.33
556.33	2899.92
556.53	3018.71
556.73	3008.47
556.92	2920.40
557.12	2904.02
557.32	3418.06
557.51	3276.75
557.71	2957.27
557.90	2996.18
558.10	3268.56
558.30	3004.37
558.49	2918.36
558.69	2797.53
558.88	3092.43
559.08	3020.75
559.28	2908.12
559.47	2914.26
559.67	3051.47
559.86	3327.95
560.06	2848.72
560.26	2908.12
560.45	3084.24
560.65	2904.02
560.84	3100.62
561.04	2775.00
561.24	3069.91
561.43	2736.09
561.63	3065.81
561.82	2934.74
562.02	3125.20
562.22	2842.58
562.41	2752.47
562.61	2746.33
562.80	2779.09
563.00	3438.54
563.19	2910.16
563.39	2865.11
563.59	3096.53
563.78	2801.62
563.98	2674.65
564.17	2799.57
564.37	2688.98
564.56	2938.84
564.76	2715.61
564.96	2979.79
565.15	3033.04
565.35	3395.53
565.54	2963.41
565.74	2901.97
565.93	3090.38
566.13	3049.43
566.32	2910.16
566.52	2928.60
566.71	2904.02
566.91	3108.82
567.11	2940.88
567.30	2729.94
567.50	3098.58
567.69	3053.52
567.89	2828.24
568.08	2785.24
568.28	3008.47
568.47	2842.58
568.67	2901.97
568.86	2824.15
569.06	3117.01
569.25	2918.36
569.45	2793.43
569.64	2832.34
569.84	3008.47
570.04	3016.66
570.23	2852.82
570.43	2881.49
570.62	3119.06
570.82	3209.17
571.01	2744.28
571.21	2805.72
571.40	2766.81
571.60	3096.53
571.79	2994.13
571.99	2901.97
572.18	2865.11
572.38	3014.61
572.57	2838.48
572.77	2934.74
572.96	3444.68
573.16	2963.41
573.35	2928.60
573.55	3047.38
573.74	3028.95
573.94	2944.98
574.13	2818.00
574.33	3059.67
574.52	3233.74
574.71	2959.31
574.91	2924.50
575.10	2791.38
575.30	2957.27
575.49	2795.48
575.69	2645.98
575.88	2889.68
576.08	2920.40
576.27	3180.50
576.47	2789.33
576.66	2998.23
576.86	3266.51
577.05	3024.85
577.25	2908.12
577.44	3121.10
577.64	2922.45
577.83	3117.01
578.02	2871.25
578.22	3028.95
578.41	3338.19
578.61	2936.79
578.80	2846.68
579.00	2934.74
579.19	2947.03
579.39	3020.75
579.58	2944.98
579.77	2891.73
579.97	3243.98
580.16	3243.98
580.36	3055.57
580.55	2963.41
580.75	3057.62
580.94	2938.84
581.13	2969.55
581.33	3147.73
581.52	3024.85
581.72	3346.38
581.91	2967.51
582.11	2775.00
582.30	3125.20
582.49	2959.31
582.69	3192.78
582.88	2846.68
583.08	3035.09
583.27	3192.78
583.47	3055.57
583.66	2787.29
583.85	2844.63
584.05	3002.32
584.24	3014.61
584.44	2961.36
584.63	3088.34
584.82	3182.54
585.02	3125.20
585.21	2926.55
585.41	3059.67
585.60	3043.28
585.79	3160.02
585.99	3151.82
586.18	3024.85
586.37	3856.33
586.57	5689.26
586.76	16496.39
586.96	35554.79
587.15	48467.23
587.34	57144.47
587.54	60970.08
587.73	54527.17
587.93	38716.85
588.12	29441.60
588.31	24141.46
588.51	21120.70
588.70	19441.37
588.89	17340.15
589.09	14647.07
589.28	12418.88
589.47	9809.77
589.67	7565.20
589.86	5861.29
590.06	4669.37
590.25	4065.22
590.44	3622.86
590.64	3305.42
590.83	3280.85
591.02	3205.07
591.22	2985.94
591.41	2955.22
591.60	3076.05
591.80	3465.16
591.99	2723.80
592.18	2904.02
592.38	3153.87
592.57	2869.20
592.76	2934.74
592.96	2987.99
593.15	2957.27
593.34	3192.78
593.54	2836.44
593.73	3014.61
593.92	3030.99
594.12	3131.34
594.31	2924.50
594.50	2992.08
594.70	3133.39
594.89	3481.55
595.08	2719.70
595.28	2951.12
595.47	3532.75
595.66	3149.78
595.86	2768.85
596.05	2840.53
596.24	2875.35
596.43	3311.57
596.63	2996.18
596.82	2967.51
597.01	3059.67
597.21	3387.34
597.40	2908.12
597.59	2867.16
597.79	2957.27
597.98	3094.48
598.17	2936.79
598.36	2938.84
598.56	3160.02
598.75	2957.27
598.94	2914.26
599.14	2871.25
599.33	2889.68
599.52	3147.73
599.71	2924.50
599.91	2873.30
600.10	3041.23
600.29	3010.51
600.48	2934.74
600.68	2934.74
600.87	3041.23
601.06	2879.44
601.26	2990.03
601.45	2994.13
601.64	2906.07
601.83	3160.02
602.03	2824.15
602.22	2723.80
602.41	3141.58
602.60	3432.40
602.80	3006.42
602.99	2975.70
603.18	2932.69
603.37	2949.08
603.57	2764.76
603.76	2889.68
603.95	3174.35
604.14	2863.06
604.34	2805.72
604.53	2813.91
604.72	3014.61
604.91	3049.43
605.10	2881.49
605.30	2709.46
605.49	3418.06
605.68	3125.20
605.87	2916.31
606.07	2754.52
606.26	3053.52
606.45	3069.91
606.64	2871.25
606.84	2750.42
607.03	2949.08
607.22	3096.53
607.41	2832.34
607.60	2813.91
607.80	3186.64
607.99	2869.20
608.18	2813.91
608.37	2858.96
608.56	2863.06
608.76	3102.67
608.95	3047.38
609.14	2912.21
609.33	3211.22
609.52	3235.79
609.72	3004.37
609.91	3000.27
610.10	3082.19
610.29	3188.69
610.48	3045.33
610.68	3030.99
610.87	3008.47
611.06	3135.44
611.25	2858.96
611.44	2944.98
611.63	2895.83
611.83	3190.74
612.02	2758.61
612.21	3074.00
612.40	2668.50
612.59	2779.09
612.79	2766.81
612.98	2951.12
613.17	3313.61
613.36	3022.80
613.55	3026.90
613.74	2791.38
613.93	3016.66
614.13	3084.24
614.32	3030.99
614.51	2885.59
614.70	2990.03
614.89	2899.92
615.08	3012.56
615.28	3297.23
615.47	2779.09
615.66	3045.33
615.85	2936.79
616.04	2996.18
616.23	2994.13
616.42	2942.93
616.62	2895.83
616.81	2918.36
617.00	2981.84
617.19	3090.38
617.38	2883.54
617.57	2885.59
617.76	3147.73
617.95	3049.43
618.15	3071.95
618.34	3164.11
618.53	2791.38
618.72	3112.91
618.91	2996.18
619.10	2977.75
619.29	2924.50
619.48	2932.69
619.68	2762.71
619.87	2818.00
620.06	2793.43
620.25	3035.09
620.44	2791.38
620.63	2830.29
620.82	2963.41
621.01	3018.71
621.20	2844.63
621.39	2867.16
621.59	3057.62
621.78	2914.26
621.97	2871.25
622.16	2977.75
622.35	3035.09
622.54	3088.34
622.73	2996.18
622.92	2684.89
623.11	3110.86
623.30	2877.40
623.49	2934.74
623.68	2834.39
623.88	3196.88
624.07	2965.46
624.26	2799.57
624.45	2887.64
624.64	2940.88
624.83	2992.08
625.02	2783.19
625.21	2865.11
625.40	3022.80
625.59	3166.16
625.78	2904.02
625.97	2987.99
626.16	3172.30
626.35	3160.02
626.54	2858.96
626.74	3065.81
626.93	3000.27
627.12	2910.16
627.31	2906.07
627.50	2930.64
627.69	3137.49
627.88	2830.29
628.07	2818.00
628.26	2731.99
628.45	2942.93
628.64	2811.86
628.83	2826.20
629.02	2758.61
629.21	3078.10
629.40	3074.00
629.59	2764.76
629.78	2858.96
629.97	2944.98
630.16	2920.40
630.35	2873.30
630.54	2922.45
630.73	2856.92
630.92	3024.85
631.11	2793.43
631.30	2889.68
631.49	3149.78
631.68	2955.22
631.87	2908.12
632.06	2815.96
632.25	3358.67
632.44	2981.84
632.63	2914.26
632.82	2836.44
633.01	2844.63
633.20	2983.89
633.39	2828.24
633.58	2693.08
633.77	3053.52
633.96	3108.82
634.15	2938.84
634.34	2912.21
634.53	3080.14
634.72	2875.35
634.91	2654.17
635.10	2832.34
635.29	3069.91
635.48	3074.00
635.67	2781.14
635.86	2641.88
636.05	3270.61
636.24	2965.46
636.43	2803.67
636.62	2985.94
636.81	2543.58
637.00	2944.98
637.19	2928.60
637.38	2815.96
637.57	2910.16
637.76	2867.16
637.95	2994.13
638.14	2828.24
638.33	2979.79
638.52	2996.18
638.71	2717.65
638.89	2746.33
639.08	3461.07
639.27	3160.02
639.46	3004.37
639.65	3291.09
639.84	3385.29
640.03	3483.59
640.22	3184.59
640.41	3213.26
640.60	3112.91
640.79	3127.25
640.98	3006.42
641.17	3018.71
641.36	3168.21
641.55	3121.10
641.74	2731.99
641.92	2779.09
642.11	2834.39
642.30	2893.78
642.49	2768.85
642.68	2807.77
642.87	3026.90
643.06	3033.04
643.25	2717.65
643.44	2752.47
643.63	2940.88
643.82	3117.01
644.00	2740.18
644.19	2938.84
644.38	2736.09
644.57	3123.15
644.76	2861.01
644.95	2965.46
645.14	3026.90
645.33	2963.41
645.52	2893.78
645.71	2715.61
645.89	2840.53
646.08	2957.27
646.27	2938.84
646.46	3100.62
646.65	2783.19
646.84	2912.21
647.03	2744.28
647.22	2977.75
647.40	2951.12
647.59	3016.66
647.78	2717.65
647.97	2875.35
648.16	2824.15
648.35	3246.03
648.54	3112.91
648.73	2861.01
648.91	3164.11
649.10	2990.03
649.29	2852.82
649.48	2811.86
649.67	3080.14
649.86	3086.29
650.05	2889.68
650.23	3012.56
650.42	2891.73
650.61	3225.55
650.80	3012.56
650.99	3227.60
651.18	3213.26
651.36	3207.12
651.55	2815.96
651.74	2994.13
651.93	3063.76
652.12	3000.27
652.31	2834.39
652.49	2920.40
652.68	2846.68
652.87	3176.40
653.06	3022.80
653.25	3067.86
653.44	2961.36
653.62	3254.22
653.81	2947.03
654.00	2873.30
654.19	3041.23
654.38	3411.92
654.56	2981.84
654.75	2727.89
654.94	3104.72
655.13	3078.10
655.32	2914.26
655.51	2996.18
655.69	2820.05
655.88	3151.82
656.07	2682.84
656.26	2895.83
656.45	2734.04
656.63	3020.75
656.82	2908.12
657.01	3200.98
657.20	2865.11
657.38	3229.65
657.57	2858.96
657.76	2703.32
657.95	3096.53
658.14	2959.31
658.32	2947.03
658.51	2725.85
658.70	2983.89
658.89	2969.55
659.08	2891.73
659.26	3092.43
659.45	2828.24
659.64	2965.46
659.83	2924.50
660.01	3264.46
660.20	2998.23
660.39	3293.13
660.58	2605.02
660.76	3012.56
660.95	2754.52
661.14	2983.89
661.33	2719.70
661.51	2834.39
661.70	2895.83
661.89	3035.09
662.08	2856.92
662.26	2691.03
662.45	2842.58
662.64	3248.08
662.83	2955.22
663.01	2762.71
663.20	2918.36
663.39	3239.89
663.58	2842.58
663.76	2893.78
663.95	3016.66
664.14	2797.53
664.32	2914.26
664.51	2822.10
664.70	2719.70
664.89	3053.52
665.07	2818.00
665.26	3033.04
665.45	2721.75
665.64	2947.03
665.82	2873.30
666.01	2951.12
666.20	2772.95
666.38	3133.39
666.57	3186.64
666.76	4736.95
666.95	10895.19
667.13	17673.97
667.32	21245.63
667.51	24313.48
667.69	25079.43
667.88	21317.31
668.07	15322.90
668.25	12887.87
668.44	11020.12
668.63	9635.69
668.81	8683.39
669.00	7368.59
669.19	6881.18
669.38	5752.74
669.56	4970.42
669.75	4435.90
669.94	3987.40
670.12	3395.53
670.31	3168.21
670.50	3094.48
670.68	3186.64
670.87	3041.23
671.06	2891.73
671.24	2977.75
671.43	3286.99
671.62	2961.36
671.80	2848.72
671.99	3006.42
672.18	3010.51
672.36	3110.86
672.55	2975.70
672.74	2910.16
672.92	2856.92
673.11	3041.23
673.29	2775.00
673.48	3063.76
673.67	2916.31
673.85	3162.06
674.04	2727.89
674.23	2961.36
674.41	3239.89
674.60	2899.92
674.79	2676.70
674.97	2750.42
675.16	3196.88
675.34	3096.53
675.53	2834.39
675.72	2947.03
675.90	3368.91
676.09	2897.88
676.28	2875.35
676.46	2770.90
676.65	3022.80
676.83	2779.09
677.02	2934.74
677.21	2965.46
677.39	3119.06
677.58	2832.34
677.77	2877.40
677.95	2789.33
678.14	2877.40
678.32	2942.93
678.51	2875.35
678.70	3135.44
678.88	2889.68
679.07	2985.94
679.25	2936.79
679.44	2947.03
679.63	2789.33
679.81	3059.67
680.00	3114.96
680.18	2934.74
680.37	3340.24
680.55	2963.41
680.74	2705.37
680.93	2680.79
681.11	2987.99
681.30	2996.18
681.48	2899.92
681.67	2770.90
681.85	3026.90
682.04	2856.92
682.23	3037.14
682.41	2959.31
682.60	2852.82
682.78	2961.36
682.97	2736.09
683.15	2938.84
683.34	3065.81
683.53	3317.71
683.71	2736.09
683.90	2942.93
684.08	3209.17
684.27	2926.55
684.45	2938.84
684.64	2973.65
684.82	2938.84
685.01	3086.29
685.19	2832.34
685.38	3211.22
685.57	3004.37
685.75	2867.16
685.94	2764.76
686.12	2760.66
686.31	2934.74
686.49	3250.13
686.68	2619.35
686.86	2912.21
687.05	2887.64
687.23	3254.22
687.42	2865.11
687.60	2750.42
687.79	3246.03
687.97	3188.69
688.16	3039.19
688.34	3061.71
688.53	2709.46
688.71	3065.81
688.90	3067.86
689.08	2858.96
689.27	2725.85
689.45	3153.87
689.64	3000.27
689.82	2918.36
690.01	3086.29
690.19	3022.80
690.38	3004.37
690.56	3059.67
690.75	2918.36
690.93	2944.98
691.12	2832.34
691.30	2863.06
691.49	2922.45
691.67	2967.51
691.86	3114.96
692.04	2893.78
692.23	2852.82
692.41	2940.88
692.60	3063.76
692.78	3045.33
692.97	2879.44
693.15	3096.53
693.34	3135.44
693.52	3018.71
693.71	2895.83
693.89	2912.21
694.08	2629.59
694.26	2949.08
694.44	3137.49
694.63	3117.01
694.81	2803.67
695.00	2750.42
695.18	3149.78
695.37	3426.25
695.55	3000.27
695.74	2926.55
695.92	2863.06
696.10	3176.40
696.29	2721.75
696.47	2852.82
696.66	2762.71
696.84	2754.52
697.03	2889.68
697.21	3188.69
697.40	4417.47
697.58	3213.26
697.76	2848.72
697.95	2795.48
698.13	2822.10
698.32	2985.94
698.50	2766.81
698.68	2897.88
698.87	3049.43
699.05	3311.57
699.24	2963.41
699.42	2729.94
699.61	2922.45
699.79	2928.60
699.97	2865.11
700.16	2715.61
700.34	2748.37
700.53	3012.56
700.71	3178.45
700.89	2981.84
701.08	2910.16
701.26	3022.80
701.45	3303.37
701.63	2850.77
701.81	2922.45
702.00	2824.15
702.18	2930.64
702.37	2820.05
702.55	3205.07
702.73	3102.67
702.92	2889.68
703.10	3092.43
703.28	3157.97
703.47	2781.14
703.65	3030.99
703.84	2994.13
704.02	2861.01
704.20	3229.65
704.39	2844.63
704.57	2932.69
704.75	3190.74
704.94	3059.67
705.12	2910.16
705.30	3403.72
705.49	6633.37
705.67	12855.10
705.86	18249.45
706.04	20494.02
706.22	22978.21
706.41	22001.33
706.59	16799.49
706.77	13242.17
706.96	11208.53
707.14	10469.22
707.32	9138.04
707.51	7835.53
707.69	6588.32
707.87	5472.17
708.06	4614.07
708.24	3977.16
708.42	3647.43
708.61	3749.83
708.79	2979.79
708.97	3067.86
709.16	3067.86
709.34	2967.51
709.52	2883.54
709.71	2947.03
709.89	3125.20
710.07	2826.20
710.26	2729.94
710.44	2865.11
710.62	3196.88
710.80	2947.03
710.99	3049.43
711.17	2906.07
711.35	2885.59
711.54	2848.72
711.72	3074.00
711.90	2949.08
712.09	3055.57
712.27	2928.60
712.45	3020.75
712.63	2824.15
712.82	2994.13
713.00	2975.70
713.18	2996.18
713.37	3024.85
713.55	3205.07
713.73	3112.91
713.91	3004.37
714.10	2852.82
714.28	2926.55
714.46	2998.23
714.65	2969.55
714.83	2942.93
715.01	2994.13
715.19	2969.55
715.38	2805.72
715.56	3037.14
715.74	2822.10
715.92	2813.91
716.11	3125.20
716.29	2637.78
716.47	3030.99
716.65	3000.27
716.84	2674.65
717.02	3022.80
717.20	2756.57
717.38	2879.44
717.57	2983.89
717.75	2953.17
717.93	2850.77
718.11	3057.62
718.30	2744.28
718.48	2959.31
718.66	3200.98
718.84	3067.86
719.03	2904.02
719.21	2721.75
719.39	3231.69
719.57	3035.09
719.75	2979.79
719.94	2787.29
720.12	2893.78
720.30	3024.85
720.48	2955.22
720.67	2889.68
720.85	2822.10
721.03	2875.35
721.21	2813.91
721.39	3018.71
721.58	3008.47
721.76	2971.60
721.94	2912.21
722.12	2953.17
722.30	3295.18
722.49	2840.53
722.67	2906.07
722.85	2951.12
723.03	2721.75
723.21	2840.53
723.40	2920.40
723.58	3071.95
723.76	3102.67
723.94	3104.72
724.12	2861.01
724.30	3114.96
724.49	3045.33
724.67	2793.43
724.85	3004.37
725.03	2809.81
725.21	3071.95
725.40	3194.83
725.58	2865.11
725.76	3092.43
725.94	3127.25
726.12	2807.77
726.30	2879.44
726.49	2834.39
726.67	2934.74
726.85	3035.09
727.03	3450.83
727.21	4319.17
727.39	5580.71
727.57	5943.21
727.76	6293.41
727.94	6262.69
728.12	5681.07
728.30	4685.75
728.48	4394.94
728.66	4089.79
728.84	3977.16
729.03	3573.71
729.21	3303.37
729.39	3209.17
729.57	2942.93
729.75	2969.55
729.93	2951.12
730.11	2904.02
730.30	2881.49
730.48	2965.46
730.66	3041.23
730.84	2967.51
731.02	3078.10
731.20	2969.55
731.38	2867.16
731.56	2777.05
731.74	2699.22
731.93	3002.32
732.11	2930.64
732.29	2893.78
732.47	3047.38
732.65	3022.80
732.83	3123.15
733.01	2971.60
733.19	2887.64
733.37	3012.56
733.56	2879.44
733.74	2805.72
733.92	3278.80
734.10	2871.25
734.28	2994.13
734.46	2695.13
734.64	2908.12
734.82	2920.40
735.00	2752.47
735.18	2777.05
735.36	2951.12
735.54	3002.32
735.73	2965.46
735.91	2971.60
736.09	3266.51
736.27	3051.47
736.45	2920.40
736.63	2662.36
736.81	2840.53
736.99	3155.92
737.17	3082.19
737.35	2893.78
737.53	3084.24
737.71	3016.66
737.89	3117.01
738.07	2824.15
738.25	2893.78
738.43	2717.65
738.61	2875.35
738.80	2740.18
738.98	2863.06
739.16	2883.54
739.34	2799.57
739.52	3237.84
739.70	2944.98
739.88	3080.14
740.06	3043.28
740.24	2670.55
740.42	3196.88
740.60	2719.70
740.78	2813.91
740.96	2615.26
741.14	2889.68
741.32	2930.64
741.50	2721.75
741.68	3065.81
741.86	3151.82
742.04	2830.29
742.22	2701.27
742.40	2885.59
742.58	3018.71
742.76	2865.11
742.94	2990.03
743.12	2680.79
743.30	2953.17
743.48	3078.10
743.66	2799.57
743.84	2895.83
744.02	2932.69
744.20	2908.12
744.38	2795.48
744.56	2811.86
744.74	3270.61
744.92	3061.71
745.10	3112.91
745.28	2947.03
745.46	3364.81
745.64	2957.27
745.82	2983.89
746.00	2873.30
746.18	2961.36
746.36	2836.44
746.54	2848.72
746.72	2914.26
746.90	2811.86
747.08	3157.97
747.26	2768.85
747.44	2990.03
747.62	3069.91
747.80	3071.95
747.98	3002.32
748.15	2852.82
748.33	3252.17
748.51	2955.22
748.69	2928.60
748.87	2803.67
749.05	2949.08
749.23	2914.26
749.41	2887.64
749.59	2897.88
749.77	3114.96
749.95	2861.01
750.13	2889.68
750.31	2867.16
750.49	2979.79
750.67	3096.53
750.85	3071.95
751.03	2922.45
751.20	3360.72
751.38	2916.31
751.56	2869.20
751.74	2918.36
751.92	2959.31
752.10	2805.72
752.28	3090.38
752.46	2791.38
752.64	3055.57
752.82	2977.75
753.00	3004.37
753.18	2815.96
753.35	2947.03
753.53	2936.79
753.71	2785.24
753.89	2926.55
754.07	3020.75
754.25	3172.30
754.43	2901.97
754.61	2787.29
754.79	3020.75
754.97	2996.18
755.14	3004.37
755.32	2727.89
755.50	2973.65
755.68	3022.80
755.86	2793.43
756.04	2852.82
756.22	2658.26
756.40	3065.81
756.57	3084.24
756.75	2770.90
756.93	3119.06
757.11	3143.63
757.29	2777.05
757.47	2746.33
757.65	2777.05
757.82	2559.96
758.00	2793.43
758.18	2791.38
758.36	2869.20
758.54	3264.46
758.72	2727.89
758.90	2971.60
759.07	3114.96
759.25	2861.01
759.43	2961.36
759.61	2738.13
759.79	4255.68
759.97	3174.35
760.15	2848.72
760.32	2832.34
760.50	2981.84
760.68	3301.33
760.86	2744.28
761.04	3059.67
761.22	3141.58
761.39	3088.34
761.57	2926.55
761.75	2809.81
761.93	3033.04
762.11	2969.55
762.28	2910.16
762.46	2865.11
762.64	3117.01
762.82	2676.70
763.00	2867.16
763.18	3069.91
763.35	2779.09
763.53	3110.86
763.71	2932.69
763.89	2873.30
764.07	2926.55
764.24	2975.70
764.42	2985.94
764.60	2881.49
764.78	3065.81
764.96	3106.77
765.13	3067.86
765.31	2791.38
765.49	3055.57
765.67	2897.88
765.84	2822.10
766.02	2836.44
766.20	2738.13
766.38	3063.76
766.56	2922.45
766.73	2940.88
766.91	2916.31
767.09	2990.03
767.27	2901.97
767.44	2803.67
767.62	3043.28
767.80	2955.22
767.98	2801.62
768.15	2869.20
768.33	3164.11
768.51	3065.81
768.69	3024.85
768.87	2908.12
769.04	2996.18
769.22	3440.59
769.40	3004.37
769.58	3043.28
769.75	3059.67
769.93	3315.66
770.11	2918.36
770.28	2805.72
770.46	3166.16
770.64	3074.00
770.82	2875.35
770.99	2828.24
771.17	3119.06
771.35	2918.36
771.53	2906.07
771.70	2861.01
771.88	3047.38
772.06	2979.79
772.23	2889.68
772.41	2904.02
772.59	3065.81
772.77	2815.96
772.94	2854.87
773.12	2987.99
773.30	2910.16
773.47	2953.17
773.65	2787.29
773.83	3080.14
774.01	2951.12
774.18	2699.22
774.36	2844.63
774.54	2770.90
774.71	3018.71
774.89	2705.37
775.07	2768.85
775.24	2863.06
775.42	2873.30
775.60	3315.66
775.78	2881.49
775.95	2709.46
776.13	2738.13
776.31	2744.28
776.48	2977.75
776.66	3000.27
776.84	2987.99
777.01	2875.35
777.19	2824.15
777.37	2797.53
777.54	3114.96
777.72	3286.99
777.90	2985.94
778.07	2858.96
778.25	3547.08
778.43	3192.78
778.60	2799.57
778.78	2975.70
778.96	3190.74
779.13	2734.04
779.31	2908.12
779.49	2904.02
779.66	3010.51
779.84	2885.59
780.01	2922.45
780.19	2830.29
780.37	3174.35
780.54	3131.34
780.72	2664.41
780.90	2897.88
781.07	3012.56
781.25	2863.06
781.43	3076.05
781.60	2856.92
781.78	3176.40
781.95	3053.52
782.13	2815.96
782.31	2871.25
782.48	2727.89
782.66	2990.03
782.83	3119.06
783.01	2922.45
783.19	3108.82
783.36	2895.83
783.54	2709.46
783.72	2934.74
783.89	2850.77
784.07	2979.79
784.24	3000.27
784.42	3020.75
784.60	2981.84
784.77	2947.03
784.95	2619.35
785.12	2775.00
785.30	3026.90
785.47	2729.94
785.65	2742.23
785.83	2918.36
786.00	2936.79
786.18	3008.47
786.35	2734.04
786.53	2871.25
786.71	3157.97
786.88	3045.33
787.06	2895.83
787.23	2916.31
787.41	2830.29
787.58	2971.60
787.76	2725.85
787.94	2863.06
788.11	3092.43
788.29	2805.72
788.46	2836.44
788.64	2758.61
788.81	2936.79
788.99	2809.81
789.16	2752.47
789.34	2809.81
789.52	2881.49
789.69	2895.83
789.87	2719.70
790.04	2881.49
790.22	3020.75
790.39	3330.00
790.57	2752.47
790.74	2807.77
790.92	3186.64
791.09	2740.18
791.27	2897.88
791.44	2977.75
791.62	2930.64
791.79	3205.07
791.97	2901.97
792.15	3188.69
792.32	3108.82
792.50	3123.15
792.67	2983.89
792.85	3131.34
793.02	3006.42
793.20	2889.68
793.37	2703.32
793.55	2805.72
793.72	2693.08
793.90	3010.51
794.07	2873.30
794.25	2832.34
794.42	3030.99
794.60	2856.92
794.77	2926.55
794.95	3006.42
795.12	3129.30
795.30	2961.36
795.47	2645.98
795.65	3203.02
795.82	3065.81
796.00	2811.86
796.17	2996.18
796.34	2664.41
796.52	3061.71
796.69	3035.09
796.87	3045.33
797.04	2918.36
797.22	3094.48
797.39	3053.52
797.57	2951.12
797.74	2983.89
797.92	3051.47
798.09	2852.82
798.27	3088.34
798.44	2938.84
798.62	2912.21
798.79	3026.90
798.96	2990.03
799.14	2805.72
799.31	3430.35
799.49	2949.08
799.66	2848.72
799.84	2906.07
800.01	2719.70
800.19	3049.43
800.36	2662.36
800.53	2897.88
800.71	3174.35
800.88	3272.65
801.06	2807.77
801.23	2738.13
801.41	2959.31
801.58	2832.34
801.75	2844.63
801.93	2906.07
802.10	3100.62
802.28	2981.84
802.45	2828.24
802.63	2924.50
802.80	3227.60
802.97	2916.31
803.15	2863.06
803.32	2854.87
803.50	2793.43
803.67	2840.53
803.84	2822.10
804.02	2912.21
804.19	2844.63
804.37	2578.39
804.54	2822.10
804.71	2772.95
804.89	2947.03
805.06	2863.06
805.24	2723.80
805.41	2746.33
805.58	2924.50
805.76	3356.62
805.93	2842.58
806.10	3026.90
806.28	3137.49
806.45	3010.51
806.63	2951.12
806.80	2957.27
806.97	2994.13
807.15	2973.65
807.32	2818.00
807.49	2803.67
807.67	2879.44
807.84	2977.75
808.01	2660.31
808.19	3110.86
808.36	3327.95
808.54	2940.88
808.71	2811.86
808.88	2846.68
809.06	3215.31
809.23	3217.36
809.40	2822.10
809.58	2893.78
809.75	2979.79
809.92	2797.53
810.10	3100.62
810.27	2828.24
810.44	3080.14
810.62	3114.96
810.79	2959.31
810.96	2889.68
811.14	2926.55
811.31	3098.58
811.48	3024.85
811.66	2914.26
811.83	3182.54
812.00	3096.53
812.18	2924.50
812.35	3239.89
812.52	2934.74
812.69	2869.20
812.87	2803.67
813.04	2770.90
813.21	2916.31
813.39	2871.25
813.56	2828.24
813.73	3137.49
813.91	2783.19
814.08	2951.12
814.25	2971.60
814.42	2699.22
814.60	2981.84
814.77	3090.38
814.94	2828.24
815.12	2992.08
815.29	3241.93
815.46	2881.49
815.63	2858.96
815.81	2807.77
815.98	2908.12
816.15	2928.60
816.33	2836.44
816.50	2822.10
816.67	2975.70
816.84	3002.32
817.02	2748.37
817.19	2813.91
817.36	3041.23
817.53	2938.84
817.71	2748.37
817.88	2961.36
818.05	2987.99
818.22	3033.04
818.40	3135.44
818.57	2826.20
818.74	3059.67
818.91	2924.50
819.09	3049.43
819.26	2981.84
819.43	2881.49
819.60	2811.86
819.78	2979.79
819.95	2983.89
820.12	2867.16
820.29	3133.39
820.47	3053.52
820.64	2758.61
820.81	2744.28
820.98	2848.72
821.15	2822.10
821.33	2930.64
821.50	2738.13
821.67	3014.61
821.84	2846.68
822.02	2910.16
822.19	3071.95
822.36	2918.36
822.53	2807.77
822.70	2709.46
822.88	2873.30
823.05	3233.74
823.22	2969.55
823.39	2899.92
823.56	3033.04
823.74	3327.95
823.91	2738.13
824.08	2826.20
824.25	2736.09
824.42	3196.88
824.60	2717.65
824.77	3008.47
824.94	2963.41
825.11	3033.04
825.28	2686.94
825.45	2979.79
825.63	3045.33
825.80	2871.25
825.97	2959.31
826.14	2926.55
826.31	2717.65
826.48	3033.04
826.66	2856.92
826.83	2797.53
827.00	2865.11
827.17	2766.81
827.34	2834.39
827.51	2844.63
827.69	2936.79
827.86	2721.75
828.03	2881.49
828.20	2912.21
828.37	2897.88
828.54	2947.03
828.71	2764.76
828.89	2990.03
829.06	2971.60
829.23	3213.26
829.40	2863.06
829.57	2844.63
829.74	3088.34
829.91	2818.00
830.09	2856.92
830.26	2936.79
830.43	3274.70
830.60	2930.64
830.77	2994.13
830.94	3045.33
831.11	3143.63
831.28	2852.82
831.46	3000.27
831.63	2822.10
831.80	3180.50
831.97	2848.72
832.14	2877.40
832.31	2920.40
832.48	3002.32
832.65	3123.15
832.82	2994.13
832.99	2990.03
833.17	2797.53
833.34	3215.31
833.51	2805.72
833.68	2678.74
833.85	3121.10
834.02	2893.78
834.19	2824.15
834.36	2840.53
834.53	2965.46
834.70	3172.30
834.87	2895.83
835.04	2617.30
835.22	2793.43
835.39	2959.31
835.56	2682.84
835.73	2793.43
835.90	3106.77
836.07	2801.62
836.24	2832.34
836.41	2775.00
836.58	2867.16
836.75	3035.09
836.92	2672.60
837.09	2648.02
837.26	3076.05
837.43	2994.13
837.60	2789.33
837.77	2723.80
837.94	3059.67
838.12	3133.39
838.29	2711.51
838.46	2621.40
838.63	2729.94
838.80	3221.45
838.97	2756.57
839.14	2713.56
839.31	2987.99
839.48	3020.75
839.65	2746.33
839.82	2811.86
839.99	3039.19
840.16	2934.74
840.33	2721.75
840.50	2787.29
840.67	2836.44
840.84	2629.59
841.01	2709.46
841.18	2697.17
841.35	2934.74
841.52	3090.38
841.69	3035.09
841.86	2736.09
842.03	2961.36
842.20	3168.21
842.37	2676.70
842.54	2775.00
842.71	2934.74
842.88	2793.43
843.05	2725.85
843.22	2662.36
843.39	3069.91
843.56	2871.25
843.73	2777.05
843.90	2801.62
844.07	3020.75
844.24	3078.10
844.41	2848.72
844.58	2756.57
844.75	3051.47
844.92	3010.51
845.09	2756.57
845.26	2742.23
845.43	3086.29
845.60	2842.58
845.77	2791.38
845.94	2877.40
846.10	3114.96
846.27	2738.13
846.44	2654.17
846.61	2654.17
846.78	3055.57
846.95	3143.63
847.12	2686.94
847.29	2779.09
847.46	2762.71
847.63	3143.63
847.80	2703.32
847.97	2809.81
848.14	3332.05
848.31	2924.50
848.48	2666.46
848.65	2740.18
848.82	2846.68
848.98	3413.96
849.15	2820.05
849.32	2801.62
849.49	3168.21
849.66	2926.55
849.83	2684.89
850.00	2645.98
850.17	3086.29
850.34	2897.88
850.51	2664.41
850.68	2805.72
850.85	3348.43
851.01	2959.31
851.18	2699.22
851.35	2785.24
851.52	3106.77
851.69	3270.61
851.86	2666.46
852.03	2670.55
852.20	3090.38
852.37	2947.03
852.53	2572.25
852.70	2727.89
852.87	3026.90
853.04	3133.39
853.21	2672.60
853.38	2983.89
853.55	3215.31
853.72	3114.96
853.89	2754.52
854.05	2709.46
854.22	2938.84
854.39	2910.16
854.56	2719.70
854.73	2901.97
854.90	2832.34
855.07	2926.55
855.23	2525.15
855.40	2721.75
855.57	2916.31
855.74	2652.12
855.91	2936.79
856.08	2568.15
856.25	2795.48
856.41	2807.77
856.58	2721.75
856.75	2701.27
856.92	2824.15
857.09	3164.11
857.26	2537.43
857.42	2797.53
857.59	3067.86
857.76	2912.21
857.93	2721.75
858.10	2725.85
858.27	2836.44
858.43	3006.42
858.60	2729.94
858.77	2633.69
858.94	2795.48
859.11	3078.10
859.27	2879.44
859.44	2688.98
859.61	3407.82
859.78	3000.27
859.95	2738.13
860.12	2695.13
860.28	3303.37
860.45	3262.41
860.62	2715.61
860.79	2836.44
860.95	2951.12
861.12	2836.44
861.29	2648.02
861.46	2762.71
861.63	2951.12
861.79	2965.46
861.96	2602.97
862.13	2686.94
862.30	3225.55
862.47	2871.25
862.63	2619.35
862.80	2762.71
862.97	3100.62
863.14	3129.30
863.30	2856.92
863.47	2621.40
863.64	3235.79
863.81	3047.38
863.97	2635.74
864.14	2775.00
864.31	2985.94
864.48	2944.98
864.65	2748.37
864.81	2867.16
864.98	3117.01
865.15	3143.63
865.32	2858.96
865.48	2865.11
865.65	3262.41
865.82	2852.82
865.98	2861.01
866.15	2791.38
866.32	2914.26
866.49	2920.40
866.65	2871.25
866.82	2705.37
866.99	3045.33
867.16	2906.07
867.32	2764.76
867.49	2721.75
867.66	2924.50
867.83	2811.86
867.99	2672.60
868.16	2688.98
868.33	2787.29
868.49	2994.13
868.66	2762.71
868.83	2807.77
868.99	3000.27
869.16	2938.84
869.33	2918.36
869.50	2815.96
869.66	3035.09
869.83	2971.60
870.00	2691.03
870.16	2854.87
870.33	2920.40
870.50	3123.15
870.66	2738.13
870.83	2764.76
871.00	2893.78
871.17	3035.09
871.33	2783.19
871.50	2744.28
871.67	2951.12
871.83	2875.35
872.00	2875.35
872.17	2762.71
872.33	3270.61
872.50	3211.22
872.67	2719.70
872.83	2705.37
873.00	3030.99
873.17	2936.79
873.33	2830.29
873.50	2805.72
873.67	2912.21
873.83	2838.48
874.00	2764.76
874.16	2934.74
874.33	2910.16
874.50	2793.43
874.66	2699.22
874.83	2854.87
875.00	3149.78
875.16	3076.05
875.33	2897.88
875.50	2486.23
875.66	2785.24
875.83	3086.29
875.99	2775.00
876.16	2811.86
876.33	2801.62
876.49	2920.40
876.66	2791.38
876.83	2781.14
876.99	2688.98
877.16	2942.93
877.32	2748.37
877.49	2725.85
877.66	3145.68
877.82	3237.84
877.99	2842.58
878.15	2940.88
878.32	3033.04
878.49	2983.89
878.65	2731.99
878.82	3030.99
878.98	2836.44
879.15	3102.67
879.32	2920.40
879.48	2861.01
879.65	2930.64
879.81	2953.17
879.98	2748.37
880.15	2828.24
880.31	3123.15
880.48	2779.09
880.64	2908.12
880.81	2936.79
880.97	3256.27
881.14	3106.77
881.31	2688.98
881.47	2861.01
881.64	2918.36
881.80	2676.70
881.97	2869.20
882.13	2746.33
882.30	2738.13
882.47	2899.92
882.63	2715.61
882.80	2734.04
882.96	2922.45
883.13	3172.30
883.29	2744.28
883.46	2725.85
883.62	3332.05
883.79	2936.79
883.95	2940.88
884.12	2723.80
884.29	3205.07
884.45	3035.09
884.62	2777.05
884.78	2789.33
884.95	3188.69
885.11	2897.88
885.28	2842.58
885.44	2830.29
885.61	3086.29
885.77	3280.85
885.94	2832.34
886.10	2838.48
886.27	3102.67
886.43	3223.50
886.60	2932.69
886.76	2756.57
886.93	2795.48
887.09	2967.51
887.26	2633.69
887.42	2779.09
887.59	3174.35
887.75	3424.20
887.92	2889.68
888.08	2844.63
888.25	3311.57
888.41	3039.19
888.58	2740.18
888.74	2699.22
888.91	2813.91
>>>>>End Processed Spectral Data<<<<<
