SpectraSuite Data File
++++++++++++++++++++++++++++++++++++
Date: Thu May 05 21:10:59 CEST 2016
User: root
Dark Spectrum Present: No
Reference Spectrum Present: No
Number of Sampled Component Spectra: 1
Spectrometers: USB4C02835
Integration Time (usec): 100000 (USB4C02835)
Spectra Averaged: 1 (USB4C02835)
Boxcar Smoothing: 0 (USB4C02835)
Correct for Electrical Dark: No (USB4C02835)
Strobe/Lamp Enabled: No (USB4C02835)
Correct for Detector Non-linearity: No (USB4C02835)
Correct for Stray Light: No (USB4C02835)
Number of Pixels in Processed Spectrum: 3648
>>>>>Begin Processed Spectral Data<<<<<
177.47	2111.46
177.69	2111.46
177.91	2111.46
178.13	2107.36
178.36	2203.61
178.58	2840.53
178.80	2920.40
179.02	2686.94
179.24	2764.76
179.46	2609.11
179.68	2736.09
179.90	2998.23
180.13	2994.13
180.35	2443.23
180.57	2619.35
180.79	3100.62
181.01	3035.09
181.23	2611.16
181.45	2842.58
181.67	3217.36
181.90	3145.68
182.12	2785.24
182.34	2475.99
182.56	3076.05
182.78	2926.55
183.00	2674.65
183.22	2734.04
183.44	2727.89
183.66	3520.46
183.89	2865.11
184.11	2715.61
184.33	3022.80
184.55	3205.07
184.77	2635.74
184.99	2641.88
185.21	2871.25
185.43	3422.16
185.65	2695.13
185.87	2613.21
186.10	3420.11
186.32	3399.63
186.54	2822.10
186.76	2744.28
186.98	3192.78
187.20	2936.79
187.42	2676.70
187.64	2674.65
187.86	3110.86
188.08	3174.35
188.30	2596.82
188.52	2725.85
188.75	3276.75
188.97	3104.72
189.19	2723.80
189.41	2672.60
189.63	3059.67
189.85	2879.44
190.07	2555.86
190.29	2484.19
190.51	3053.52
190.73	2731.99
190.95	2815.96
191.17	2738.13
191.39	2682.84
191.61	2996.18
191.84	2668.50
192.06	2789.33
192.28	2619.35
192.50	3514.31
192.72	2760.66
192.94	2717.65
193.16	3233.74
193.38	3016.66
193.60	2519.00
193.82	2811.86
194.04	3196.88
194.26	2971.60
194.48	2725.85
194.70	2713.56
194.92	2955.22
195.14	3102.67
195.36	2678.74
195.58	2777.05
195.80	2926.55
196.02	2844.63
196.24	2574.30
196.46	2738.13
196.69	2924.50
196.91	3403.72
197.13	2668.50
197.35	2674.65
197.57	3270.61
197.79	3125.20
198.01	2693.08
198.23	2736.09
198.45	3061.71
198.67	2738.13
198.89	2582.49
199.11	2705.37
199.33	2875.35
199.55	2582.49
199.77	2686.94
199.99	2846.68
200.21	2879.44
200.43	2959.31
200.65	2621.40
200.87	2564.06
201.09	3002.32
201.31	3010.51
201.53	2674.65
201.75	2760.66
201.97	3082.19
202.19	3008.47
202.41	2783.19
202.63	2869.20
202.85	3129.30
203.07	3065.81
203.29	2600.92
203.51	2641.88
203.73	2871.25
203.95	3332.05
204.17	2688.98
204.39	2869.20
204.61	3047.38
204.83	2918.36
205.05	2826.20
205.27	2791.38
205.49	3446.73
205.71	3045.33
205.93	2580.44
206.15	2611.16
206.37	3022.80
206.59	2893.78
206.81	2535.39
207.03	2615.26
207.25	2805.72
207.47	3086.29
207.69	2699.22
207.91	2983.89
208.13	3258.32
208.34	2879.44
208.56	2611.16
208.78	2688.98
209.00	2891.73
209.22	2973.65
209.44	2705.37
209.66	2686.94
209.88	3045.33
210.10	2922.45
210.32	2699.22
210.54	2721.75
210.76	2910.16
210.98	3151.82
211.20	2568.15
211.42	2848.72
211.64	3223.50
211.86	3088.34
212.08	2795.48
212.30	2738.13
212.52	2879.44
212.74	3028.95
212.96	2799.57
213.17	2813.91
213.39	3100.62
213.61	3327.95
213.83	2742.23
214.05	2600.92
214.27	3184.59
214.49	2750.42
214.71	2664.41
214.93	2809.81
215.15	3053.52
215.37	3178.45
215.59	2568.15
215.81	2750.42
216.03	3276.75
216.24	2959.31
216.46	2758.61
216.68	2777.05
216.90	3094.48
217.12	3143.63
217.34	2641.88
217.56	2803.67
217.78	3225.55
218.00	3074.00
218.22	2736.09
218.44	2746.33
218.66	2957.27
218.87	3424.20
219.09	2664.41
219.31	2713.56
219.53	3112.91
219.75	2885.59
219.97	2750.42
220.19	2756.57
220.41	2934.74
220.63	3289.04
220.85	2725.85
221.06	2654.17
221.28	3239.89
221.50	3086.29
221.72	2703.32
221.94	2559.96
222.16	3018.71
222.38	3149.78
222.60	2719.70
222.82	2731.99
223.03	3127.25
223.25	2803.67
223.47	2725.85
223.69	2885.59
223.91	3053.52
224.13	3012.56
224.35	2592.73
224.57	2830.29
224.78	3114.96
225.00	2803.67
225.22	2746.33
225.44	2682.84
225.66	3104.72
225.88	2918.36
226.10	2822.10
226.32	2676.70
226.53	3182.54
226.75	2873.30
226.97	2760.66
227.19	2754.52
227.41	2897.88
227.63	2891.73
227.85	2553.82
228.06	2717.65
228.28	3057.62
228.50	3112.91
228.72	2533.34
228.94	2639.83
229.16	2588.63
229.37	2828.24
229.59	2691.03
229.81	2861.01
230.03	2942.93
230.25	2758.61
230.47	2566.10
230.69	2650.07
230.90	3092.43
231.12	2863.06
231.34	2723.80
231.56	2752.47
231.78	2797.53
232.00	3002.32
232.21	2695.13
232.43	2654.17
232.65	2598.87
232.87	3024.85
233.09	2555.86
233.30	2588.63
233.52	3170.26
233.74	2932.69
233.96	2559.96
234.18	2838.48
234.40	2983.89
234.61	3395.53
234.83	2656.22
235.05	2641.88
235.27	3395.53
235.49	3282.89
235.70	2600.92
235.92	2705.37
236.14	3104.72
236.36	3340.24
236.58	2584.54
236.79	2768.85
237.01	2971.60
237.23	2926.55
237.45	2861.01
237.67	2684.89
237.88	3057.62
238.10	3362.76
238.32	2609.11
238.54	2670.55
238.76	3016.66
238.97	2815.96
239.19	2592.73
239.41	2752.47
239.63	3190.74
239.85	2916.31
240.06	2699.22
240.28	2729.94
240.50	3166.16
240.72	2985.94
240.93	2594.78
241.15	2832.34
241.37	3069.91
241.59	3248.08
241.81	2713.56
242.02	2760.66
242.24	3006.42
242.46	3145.68
242.68	2596.82
242.89	2660.31
243.11	3129.30
243.33	2967.51
243.55	2750.42
243.76	2744.28
243.98	2856.92
244.20	2955.22
244.42	2717.65
244.64	2711.51
244.85	2772.95
245.07	2828.24
245.29	2734.04
245.51	2752.47
245.72	3065.81
245.94	3143.63
246.16	2713.56
246.38	2645.98
246.59	2924.50
246.81	2809.81
247.03	2580.44
247.24	2559.96
247.46	2879.44
247.68	3006.42
247.90	2594.78
248.11	2693.08
248.33	3227.60
248.55	2963.41
248.77	2725.85
248.98	2777.05
249.20	3231.69
249.42	3092.43
249.64	2670.55
249.85	2670.55
250.07	2883.54
250.29	3153.87
250.50	2777.05
250.72	2621.40
250.94	3076.05
251.16	3352.52
251.37	2680.79
251.59	2756.57
251.81	3045.33
252.02	3149.78
252.24	2656.22
252.46	2795.48
252.68	2893.78
252.89	2779.09
253.11	2465.75
253.33	2834.39
253.54	3276.75
253.76	2777.05
253.98	2654.17
254.20	2656.22
254.41	2826.20
254.63	2971.60
254.85	2592.73
255.06	2750.42
255.28	3051.47
255.50	2947.03
255.71	2643.93
255.93	2572.25
256.15	3000.27
256.36	3108.82
256.58	2578.39
256.80	2691.03
257.02	2992.08
257.23	2908.12
257.45	2717.65
257.67	2775.00
257.88	2850.77
258.10	2987.99
258.32	2684.89
258.53	2699.22
258.75	3317.71
258.97	2871.25
259.18	2574.30
259.40	2613.21
259.62	3262.41
259.83	3268.56
260.05	2660.31
260.27	3303.37
260.48	3133.39
260.70	2861.01
260.92	2576.34
261.13	2656.22
261.35	3086.29
261.57	3112.91
261.78	2611.16
262.00	2670.55
262.22	3135.44
262.43	2824.15
262.65	2738.13
262.86	2717.65
263.08	3416.01
263.30	2922.45
263.51	2529.24
263.73	2668.50
263.95	3248.08
264.16	2826.20
264.38	2551.77
264.60	2637.78
264.81	3008.47
265.03	3178.45
265.25	2985.94
265.46	2662.36
265.68	3248.08
265.89	3153.87
266.11	2551.77
266.33	2619.35
266.54	3162.06
266.76	3010.51
266.98	2779.09
267.19	2858.96
267.41	3147.73
267.62	2947.03
267.84	2600.92
268.06	2770.90
268.27	3041.23
268.49	3100.62
268.70	2781.14
268.92	2676.70
269.14	2885.59
269.35	2768.85
269.57	2822.10
269.79	2766.81
270.00	2918.36
270.22	3213.26
270.43	2650.07
270.65	2559.96
270.87	2930.64
271.08	3088.34
271.30	2781.14
271.51	2684.89
271.73	3129.30
271.95	3194.83
272.16	2705.37
272.38	2746.33
272.59	2992.08
272.81	3045.33
273.02	2559.96
273.24	2738.13
273.46	3135.44
273.67	2742.23
273.89	2578.39
274.10	2621.40
274.32	3219.41
274.54	3108.82
274.75	2772.95
274.97	2824.15
275.18	3104.72
275.40	3112.91
275.61	2731.99
275.83	2772.95
276.05	2799.57
276.26	2998.23
276.48	2731.99
276.69	2770.90
276.91	2815.96
277.12	3252.17
277.34	2901.97
277.55	2852.82
277.77	3037.14
277.99	2973.65
278.20	2752.47
278.42	2801.62
278.63	2791.38
278.85	2813.91
279.06	2744.28
279.28	2916.31
279.49	3157.97
279.71	3110.86
279.93	2754.52
280.14	2734.04
280.36	2832.34
280.57	3145.68
280.79	2809.81
281.00	2680.79
281.22	2858.96
281.43	3117.01
281.65	2537.43
281.86	2705.37
282.08	3051.47
282.29	3321.81
282.51	2680.79
282.73	2680.79
282.94	2713.56
283.16	3221.45
283.37	2914.26
283.59	2871.25
283.80	3112.91
284.02	3010.51
284.23	2822.10
284.45	2779.09
284.66	2820.05
284.88	2858.96
285.09	2672.60
285.31	2906.07
285.52	3094.48
285.74	2766.81
285.95	2961.36
286.17	2875.35
286.38	3174.35
286.60	2824.15
286.81	2736.09
287.03	2707.41
287.24	2942.93
287.46	3043.28
287.67	2930.64
287.89	2998.23
288.10	2961.36
288.32	2985.94
288.53	2914.26
288.75	2838.48
288.96	3069.91
289.18	2885.59
289.39	2740.18
289.61	2793.43
289.82	3352.52
290.04	3291.09
290.25	2693.08
290.47	2899.92
290.68	2963.41
290.90	3149.78
291.11	2691.03
291.33	2850.77
291.54	2906.07
291.76	2883.54
291.97	2887.64
292.18	2916.31
292.40	2889.68
292.61	2873.30
292.83	3069.91
293.04	2766.81
293.26	3045.33
293.47	2994.13
293.69	2736.09
293.90	2744.28
294.12	3160.02
294.33	2998.23
294.55	2768.85
294.76	2979.79
294.97	3203.02
295.19	3362.76
295.40	2721.75
295.62	2930.64
295.83	3127.25
296.05	2729.94
296.26	2920.40
296.48	2803.67
296.69	2985.94
296.90	2918.36
297.12	2957.27
297.33	2975.70
297.55	3094.48
297.76	3033.04
297.98	2895.83
298.19	2965.46
298.41	2852.82
298.62	2801.62
298.83	2983.89
299.05	2840.53
299.26	2971.60
299.48	2803.67
299.69	2899.92
299.90	2824.15
300.12	2869.20
300.33	3035.09
300.55	2899.92
300.76	2838.48
300.98	2840.53
301.19	3074.00
301.40	2856.92
301.62	2748.37
301.83	3074.00
302.05	2969.55
302.26	2815.96
302.47	2951.12
302.69	2865.11
302.90	2961.36
303.12	2729.94
303.33	2897.88
303.54	3327.95
303.76	2865.11
303.97	2787.29
304.19	2936.79
304.40	2828.24
304.61	3061.71
304.83	2908.12
305.04	2914.26
305.26	3114.96
305.47	2873.30
305.68	2844.63
305.90	2674.65
306.11	3164.11
306.33	2932.69
306.54	2668.50
306.75	2766.81
306.97	2717.65
307.18	2746.33
307.39	2766.81
307.61	2961.36
307.82	2985.94
308.04	3045.33
308.25	2713.56
308.46	2910.16
308.68	3012.56
308.89	2949.08
309.10	2891.73
309.32	2772.95
309.53	3039.19
309.74	3106.77
309.96	2709.46
310.17	2865.11
310.39	2885.59
310.60	3084.24
310.81	2797.53
311.03	2729.94
311.24	3137.49
311.45	2965.46
311.67	3014.61
311.88	2920.40
312.09	2801.62
312.31	2875.35
312.52	2764.76
312.73	2760.66
312.95	2697.17
313.16	2850.77
313.37	2901.97
313.59	2924.50
313.80	3059.67
314.01	3274.70
314.23	2795.48
314.44	2740.18
314.65	2756.57
314.87	2815.96
315.08	2783.19
315.29	2740.18
315.51	2758.61
315.72	2734.04
315.93	2865.11
316.15	2807.77
316.36	2865.11
316.57	3088.34
316.79	2717.65
317.00	2768.85
317.21	3164.11
317.43	2881.49
317.64	2836.44
317.85	2709.46
318.07	2848.72
318.28	2914.26
318.49	2858.96
318.70	3049.43
318.92	3045.33
319.13	3127.25
319.34	2985.94
319.56	2787.29
319.77	3088.34
319.98	3114.96
320.20	2985.94
320.41	2953.17
320.62	2990.03
320.83	2805.72
321.05	2967.51
321.26	2850.77
321.47	3006.42
321.69	3119.06
321.90	2674.65
322.11	2760.66
322.32	3016.66
322.54	3325.90
322.75	2838.48
322.96	3497.93
323.18	2799.57
323.39	2686.94
323.60	2697.17
323.81	2953.17
324.03	2858.96
324.24	2987.99
324.45	2928.60
324.66	2768.85
324.88	3059.67
325.09	3190.74
325.30	2779.09
325.52	2709.46
325.73	3041.23
325.94	2848.72
326.15	2695.13
326.37	2672.60
326.58	3186.64
326.79	3225.55
327.00	2797.53
327.22	2795.48
327.43	2985.94
327.64	2754.52
327.85	2928.60
328.07	2912.21
328.28	3434.44
328.49	2901.97
328.70	2828.24
328.92	2836.44
329.13	2863.06
329.34	3020.75
329.55	3051.47
329.76	2897.88
329.98	2899.92
330.19	3243.98
330.40	2875.35
330.61	2922.45
330.83	3084.24
331.04	2840.53
331.25	2885.59
331.46	2787.29
331.68	2826.20
331.89	3178.45
332.10	2858.96
332.31	2613.21
332.52	3022.80
332.74	3192.78
332.95	2621.40
333.16	2781.14
333.37	3114.96
333.58	2914.26
333.80	2848.72
334.01	2594.78
334.22	2957.27
334.43	2940.88
334.64	2787.29
334.86	2713.56
335.07	2836.44
335.28	3178.45
335.49	2643.93
335.70	2840.53
335.92	3145.68
336.13	3356.62
336.34	2883.54
336.55	2840.53
336.76	3092.43
336.98	2721.75
337.19	2840.53
337.40	2934.74
337.61	3497.93
337.82	2977.75
338.04	2920.40
338.25	2711.51
338.46	2914.26
338.67	2928.60
338.88	2742.23
339.09	2670.55
339.31	2901.97
339.52	2740.18
339.73	2715.61
339.94	2832.34
340.15	3041.23
340.36	2928.60
340.58	2891.73
340.79	2789.33
341.00	3004.37
341.21	2795.48
341.42	3045.33
341.63	2768.85
341.85	3135.44
342.06	3028.95
342.27	2754.52
342.48	2877.40
342.69	2734.04
342.90	3074.00
343.12	3180.50
343.33	2748.37
343.54	3164.11
343.75	3164.11
343.96	2887.64
344.17	2650.07
344.38	2938.84
344.60	2781.14
344.81	2764.76
345.02	2830.29
345.23	3110.86
345.44	3403.72
345.65	2963.41
345.86	2828.24
346.07	2990.03
346.29	2906.07
346.50	2938.84
346.71	2908.12
346.92	3176.40
347.13	3362.76
347.34	2908.12
347.55	2705.37
347.76	3182.54
347.98	2666.46
348.19	2795.48
348.40	2912.21
348.61	2885.59
348.82	3190.74
349.03	2879.44
349.24	2768.85
349.45	3313.61
349.66	2662.36
349.88	2766.81
350.09	2791.38
350.30	3231.69
350.51	3215.31
350.72	2973.65
350.93	2760.66
351.14	2949.08
351.35	3069.91
351.56	2879.44
351.77	2877.40
351.99	3037.14
352.20	3219.41
352.41	2924.50
352.62	2641.88
352.83	3026.90
353.04	3059.67
353.25	2807.77
353.46	2789.33
353.67	3168.21
353.88	2576.34
354.09	2768.85
354.30	2836.44
354.52	3155.92
354.73	2942.93
354.94	2748.37
355.15	2867.16
355.36	3243.98
355.57	2877.40
355.78	2805.72
355.99	2746.33
356.20	2959.31
356.41	3217.36
356.62	2863.06
356.83	2861.01
357.04	3225.55
357.25	2688.98
357.46	2797.53
357.68	2621.40
357.89	2762.71
358.10	2987.99
358.31	2813.91
358.52	2881.49
358.73	2822.10
358.94	2854.87
359.15	2781.14
359.36	2852.82
359.57	3024.85
359.78	2871.25
359.99	2965.46
360.20	2713.56
360.41	3000.27
360.62	3100.62
360.83	2875.35
361.04	2895.83
361.25	3018.71
361.46	3291.09
361.67	2940.88
361.88	2801.62
362.09	3151.82
362.30	3049.43
362.51	2740.18
362.72	2854.87
362.93	3082.19
363.14	3063.76
363.35	2924.50
363.56	2701.27
363.78	3133.39
363.99	3172.30
364.20	2852.82
364.41	2879.44
364.62	3319.76
364.83	3086.29
365.04	2781.14
365.25	2844.63
365.46	3336.14
365.67	2781.14
365.88	2973.65
366.09	2752.47
366.30	2934.74
366.51	3043.28
366.72	2764.76
366.93	2746.33
367.14	3026.90
367.35	3221.45
367.56	2770.90
367.77	2965.46
367.98	2932.69
368.18	3110.86
368.39	2877.40
368.60	2775.00
368.81	3123.15
369.02	3069.91
369.23	2852.82
369.44	2633.69
369.65	2828.24
369.86	3096.53
370.07	2924.50
370.28	2736.09
370.49	3024.85
370.70	3024.85
370.91	2744.28
371.12	2695.13
371.33	3096.53
371.54	2901.97
371.75	2869.20
371.96	2549.72
372.17	3055.57
372.38	2979.79
372.59	2889.68
372.80	2723.80
373.01	2947.03
373.22	2971.60
373.43	2891.73
373.64	2734.04
373.85	3182.54
374.06	3319.76
374.26	2977.75
374.47	2914.26
374.68	3184.59
374.89	3024.85
375.10	2762.71
375.31	2875.35
375.52	3106.77
375.73	3041.23
375.94	2625.50
376.15	2957.27
376.36	2807.77
376.57	2918.36
376.78	2838.48
376.99	2772.95
377.20	3186.64
377.40	2932.69
377.61	3051.47
377.82	2740.18
378.03	3270.61
378.24	3043.28
378.45	2832.34
378.66	2826.20
378.87	2748.37
379.08	2758.61
379.29	2832.34
379.50	3033.04
379.71	2947.03
379.91	3143.63
380.12	2828.24
380.33	2899.92
380.54	2877.40
380.75	2934.74
380.96	2818.00
381.17	2807.77
381.38	2955.22
381.59	2953.17
381.80	2922.45
382.00	3000.27
382.21	3028.95
382.42	3270.61
382.63	3112.91
382.84	2928.60
383.05	3069.91
383.26	3270.61
383.47	2924.50
383.68	2805.72
383.88	3123.15
384.09	3112.91
384.30	3000.27
384.51	2901.97
384.72	2865.11
384.93	2822.10
385.14	2891.73
385.35	3033.04
385.55	2678.74
385.76	3155.92
385.97	2869.20
386.18	2707.41
386.39	2799.57
386.60	2897.88
386.81	2742.23
387.02	2688.98
387.22	2762.71
387.43	3065.81
387.64	2930.64
387.85	3112.91
388.06	3028.95
388.27	4116.42
388.48	7176.08
388.68	10725.21
388.89	13481.78
389.10	14464.80
389.31	14106.41
389.52	11186.01
389.73	9666.41
389.93	8798.07
390.14	7960.45
390.35	7352.21
390.56	6518.68
390.77	5496.75
390.98	4325.31
391.18	3674.06
391.39	3448.78
391.60	3033.04
391.81	3022.80
392.02	2904.02
392.23	3336.14
392.43	3065.81
392.64	2975.70
392.85	2838.48
393.06	3330.00
393.27	2987.99
393.47	2830.29
393.68	2885.59
393.89	2940.88
394.10	3243.98
394.31	2770.90
394.52	2725.85
394.72	2899.92
394.93	3243.98
395.14	2697.17
395.35	2979.79
395.56	2865.11
395.76	2983.89
395.97	2844.63
396.18	2983.89
396.39	3033.04
396.60	3471.31
396.80	3145.68
397.01	3047.38
397.22	3082.19
397.43	3123.15
397.64	2811.86
397.84	2811.86
398.05	3375.05
398.26	2922.45
398.47	3008.47
398.67	2979.79
398.88	2969.55
399.09	3190.74
399.30	2820.05
399.51	2922.45
399.71	2840.53
399.92	3053.52
400.13	2906.07
400.34	2867.16
400.54	2992.08
400.75	3268.56
400.96	3024.85
401.17	3088.34
401.37	3133.39
401.58	2940.88
401.79	2838.48
402.00	2936.79
402.21	3416.01
402.41	3166.16
402.62	3074.00
402.83	3178.45
403.04	3327.95
403.24	3631.05
403.45	2967.51
403.66	3035.09
403.87	3153.87
404.07	3276.75
404.28	2975.70
404.49	3106.77
404.70	3053.52
404.90	3078.10
405.11	2789.33
405.32	3000.27
405.52	2863.06
405.73	2867.16
405.94	2715.61
406.15	2926.55
406.35	3160.02
406.56	3065.81
406.77	2887.64
406.98	2811.86
407.18	2924.50
407.39	3239.89
407.60	2830.29
407.80	2949.08
408.01	2916.31
408.22	3022.80
408.43	2772.95
408.63	2938.84
408.84	3043.28
409.05	3110.86
409.25	2795.48
409.46	2805.72
409.67	2875.35
409.88	2912.21
410.08	2899.92
410.29	2781.14
410.50	3131.34
410.70	3071.95
410.91	2731.99
411.12	2940.88
411.32	3016.66
411.53	2803.67
411.74	2863.06
411.95	2949.08
412.15	3006.42
412.36	3100.62
412.57	2996.18
412.77	2971.60
412.98	2944.98
413.19	2977.75
413.39	2850.77
413.60	2891.73
413.81	3239.89
414.01	2711.51
414.22	2865.11
414.43	3010.51
414.63	2944.98
414.84	3102.67
415.05	2856.92
415.25	2676.70
415.46	3080.14
415.67	2916.31
415.87	2883.54
416.08	2848.72
416.29	3006.42
416.49	3049.43
416.70	2822.10
416.91	2801.62
417.11	2940.88
417.32	3213.26
417.53	2908.12
417.73	2942.93
417.94	2971.60
418.15	2977.75
418.35	2807.77
418.56	2861.01
418.77	3381.20
418.97	3008.47
419.18	2883.54
419.38	2572.25
419.59	2938.84
419.80	3192.78
420.00	2818.00
420.21	2871.25
420.42	3186.64
420.62	2985.94
420.83	2871.25
421.04	2750.42
421.24	2938.84
421.45	3127.25
421.65	2899.92
421.86	2877.40
422.07	3061.71
422.27	3133.39
422.48	2799.57
422.69	2672.60
422.89	2987.99
423.10	2957.27
423.30	2713.56
423.51	2924.50
423.72	3053.52
423.92	3037.14
424.13	2742.23
424.33	2936.79
424.54	3104.72
424.75	3028.95
424.95	3078.10
425.16	2811.86
425.36	2942.93
425.57	3194.83
425.78	3004.37
425.98	2901.97
426.19	2944.98
426.39	2822.10
426.60	2955.22
426.81	2969.55
427.01	3004.37
427.22	2930.64
427.42	2668.50
427.63	2785.24
427.83	3200.98
428.04	3350.48
428.25	2985.94
428.45	3065.81
428.66	3184.59
428.86	2998.23
429.07	2854.87
429.28	2899.92
429.48	2973.65
429.69	2809.81
429.89	2944.98
430.10	2695.13
430.30	3098.58
430.51	3209.17
430.71	2836.44
430.92	2883.54
431.13	2944.98
431.33	3022.80
431.54	2922.45
431.74	3084.24
431.95	3395.53
432.15	2805.72
432.36	2854.87
432.56	2865.11
432.77	3315.66
432.98	3307.47
433.18	2934.74
433.39	2697.17
433.59	2916.31
433.80	3315.66
434.00	3014.61
434.21	2920.40
434.41	2891.73
434.62	3456.97
434.82	2836.44
435.03	2803.67
435.23	3004.37
435.44	2691.03
435.64	2809.81
435.85	2834.39
436.06	3090.38
436.26	3184.59
436.47	2813.91
436.67	2762.71
436.88	3076.05
437.08	3256.27
437.29	3045.33
437.49	2977.75
437.70	3256.27
437.90	2940.88
438.11	3033.04
438.31	3012.56
438.52	3248.08
438.72	3129.30
438.93	3170.26
439.13	2914.26
439.34	3039.19
439.54	2944.98
439.75	2922.45
439.95	2979.79
440.16	2856.92
440.36	2977.75
440.57	2955.22
440.77	2895.83
440.98	3028.95
441.18	3067.86
441.39	2748.37
441.59	2818.00
441.80	3395.53
442.00	3049.43
442.21	2985.94
442.41	2709.46
442.62	3166.16
442.82	2951.12
443.02	2848.72
443.23	2824.15
443.43	2981.84
443.64	3274.70
443.84	2740.18
444.05	2947.03
444.25	3016.66
444.46	2932.69
444.66	2777.05
444.87	3088.34
445.07	2727.89
445.28	2846.68
445.48	3010.51
445.69	2947.03
445.89	3510.22
446.09	2910.16
446.30	3200.98
446.50	3323.85
446.71	4757.43
446.91	5877.67
447.12	6635.42
447.32	6987.67
447.53	6868.89
447.73	5781.42
447.93	5035.96
448.14	4695.99
448.34	4810.68
448.55	4001.73
448.75	4130.75
448.96	3870.66
449.16	3690.44
449.36	3475.40
449.57	3153.87
449.77	2891.73
449.98	2871.25
450.18	3037.14
450.39	2856.92
450.59	2975.70
450.79	3008.47
451.00	2869.20
451.20	3008.47
451.41	2770.90
451.61	3162.06
451.81	3014.61
452.02	2850.77
452.22	2871.25
452.43	2877.40
452.63	2936.79
452.84	2947.03
453.04	2813.91
453.24	3065.81
453.45	2897.88
453.65	2877.40
453.86	2883.54
454.06	3018.71
454.26	2987.99
454.47	2828.24
454.67	2996.18
454.87	3123.15
455.08	3061.71
455.28	2961.36
455.49	3016.66
455.69	2805.72
455.89	3418.06
456.10	2940.88
456.30	2727.89
456.51	3055.57
456.71	3071.95
456.91	2979.79
457.12	2832.34
457.32	3086.29
457.52	2910.16
457.73	3022.80
457.93	3002.32
458.14	2906.07
458.34	2648.02
458.54	2899.92
458.75	2793.43
458.95	3129.30
459.15	3065.81
459.36	2906.07
459.56	2940.88
459.76	3467.21
459.97	3065.81
460.17	2820.05
460.37	3028.95
460.58	2926.55
460.78	3100.62
460.99	2863.06
461.19	2809.81
461.39	2926.55
461.60	2881.49
461.80	2983.89
462.00	2652.12
462.21	2938.84
462.41	2789.33
462.61	2799.57
462.82	2615.26
463.02	3045.33
463.22	3012.56
463.43	2922.45
463.63	2750.42
463.83	3289.04
464.04	3035.09
464.24	2869.20
464.44	2709.46
464.64	2953.17
464.85	3076.05
465.05	2887.64
465.25	2805.72
465.46	2830.29
465.66	3145.68
465.86	2963.41
466.07	2797.53
466.27	3033.04
466.47	2719.70
466.68	2660.31
466.88	2957.27
467.08	3143.63
467.29	3164.11
467.49	2918.36
467.69	2842.58
467.89	3098.58
468.10	2957.27
468.30	2938.84
468.50	2928.60
468.71	3121.10
468.91	2822.10
469.11	3010.51
469.31	2947.03
469.52	2752.47
469.72	3282.89
469.92	3022.80
470.13	2787.29
470.33	3008.47
470.53	3024.85
470.73	3227.60
470.94	3495.88
471.14	3526.60
471.34	4091.84
471.54	3782.60
471.75	3502.03
471.95	3411.92
472.15	3405.77
472.36	3342.28
472.56	3332.05
472.76	3393.48
472.96	3252.17
473.17	3139.54
473.37	2977.75
473.57	2953.17
473.77	3133.39
473.98	2951.12
474.18	2688.98
474.38	3622.86
474.58	2871.25
474.79	2744.28
474.99	2985.94
475.19	3221.45
475.39	2908.12
475.60	2959.31
475.80	2850.77
476.00	3039.19
476.20	2928.60
476.41	2916.31
476.61	2922.45
476.81	3254.22
477.01	2869.20
477.21	3065.81
477.42	3008.47
477.62	2867.16
477.82	3051.47
478.02	2772.95
478.23	2934.74
478.43	2801.62
478.63	2912.21
478.83	2842.58
479.03	2852.82
479.24	3198.93
479.44	3352.52
479.64	2766.81
479.84	2725.85
480.04	2897.88
480.25	3147.73
480.45	2746.33
480.65	2818.00
480.85	3180.50
481.06	2947.03
481.26	2912.21
481.46	2856.92
481.66	3149.78
481.86	2781.14
482.06	3028.95
482.27	2858.96
482.47	2901.97
482.67	3069.91
482.87	2887.64
483.07	2953.17
483.28	2826.20
483.48	2822.10
483.68	2918.36
483.88	2799.57
484.08	2605.02
484.29	2856.92
484.49	2963.41
484.69	2705.37
484.89	3219.41
485.09	3227.60
485.29	2942.93
485.50	2983.89
485.70	2869.20
485.90	3190.74
486.10	2885.59
486.30	2889.68
486.50	3180.50
486.71	3078.10
486.91	2924.50
487.11	2992.08
487.31	2852.82
487.51	3129.30
487.71	2762.71
487.91	2793.43
488.12	2789.33
488.32	2602.97
488.52	2756.57
488.72	2666.46
488.92	3063.76
489.12	3194.83
489.32	2990.03
489.53	2871.25
489.73	2762.71
489.93	3233.74
490.13	2820.05
490.33	2668.50
490.53	2924.50
490.73	3108.82
490.94	2727.89
491.14	2910.16
491.34	3153.87
491.54	3178.45
491.74	3659.72
491.94	4237.25
492.14	4587.45
492.34	4786.10
492.54	4364.22
492.75	3899.33
492.95	3925.96
493.15	3583.95
493.35	3583.95
493.55	3393.48
493.75	3266.51
493.95	3446.73
494.15	3131.34
494.35	2869.20
494.56	2996.18
494.76	2887.64
494.96	2990.03
495.16	2828.24
495.36	2904.02
495.56	3051.47
495.76	2836.44
495.96	2836.44
496.16	2807.77
496.36	3356.62
496.56	2785.24
496.77	2934.74
496.97	3006.42
497.17	3241.93
497.37	2754.52
497.57	2930.64
497.77	3071.95
497.97	2885.59
498.17	2922.45
498.37	2863.06
498.57	3063.76
498.77	2869.20
498.97	3014.61
499.17	3164.11
499.38	2926.55
499.58	3102.67
499.78	3018.71
499.98	2969.55
500.18	2901.97
500.38	2867.16
500.58	3028.95
500.78	3493.83
500.98	5455.79
501.18	7440.27
501.38	8779.64
501.58	9723.76
501.78	9549.68
501.98	8009.61
502.18	6795.16
502.38	5765.03
502.58	5709.74
502.78	4949.94
502.98	4745.14
503.18	4523.96
503.38	4351.93
503.59	3798.98
503.79	3620.81
503.99	3342.28
504.19	3497.93
504.39	3477.45
504.59	3307.47
504.79	3196.88
504.99	3475.40
505.19	3229.65
505.39	3039.19
505.59	3209.17
505.79	3456.97
505.99	3180.50
506.19	2824.15
506.39	3129.30
506.59	2957.27
506.79	3033.04
506.99	3100.62
507.19	2803.67
507.39	3037.14
507.59	2844.63
507.79	2832.34
507.99	2822.10
508.19	3028.95
508.39	2940.88
508.59	2856.92
508.79	2940.88
508.99	3291.09
509.19	2910.16
509.39	2904.02
509.59	2791.38
509.79	2836.44
509.99	2957.27
510.19	3018.71
510.39	2930.64
510.59	2979.79
510.79	2920.40
510.99	2760.66
511.19	2813.91
511.39	3305.42
511.59	3131.34
511.79	3065.81
511.99	2834.39
512.19	3375.05
512.38	2987.99
512.58	2803.67
512.78	2729.94
512.98	3176.40
513.18	3178.45
513.38	2777.05
513.58	2904.02
513.78	2983.89
513.98	2963.41
514.18	2828.24
514.38	2885.59
514.58	3045.33
514.78	2840.53
514.98	2742.23
515.18	2797.53
515.38	2752.47
515.58	3286.99
515.78	2850.77
515.98	2820.05
516.18	3157.97
516.38	2942.93
516.57	2805.72
516.77	2822.10
516.97	3074.00
517.17	2873.30
517.37	2623.45
517.57	2924.50
517.77	2998.23
517.97	2895.83
518.17	2877.40
518.37	2781.14
518.57	2889.68
518.77	2904.02
518.97	2852.82
519.16	2936.79
519.36	3237.84
519.56	2832.34
519.76	2811.86
519.96	2895.83
520.16	3264.46
520.36	2783.19
520.56	3002.32
520.76	2750.42
520.96	2940.88
521.16	3088.34
521.35	3061.71
521.55	2971.60
521.75	3035.09
521.95	2928.60
522.15	2738.13
522.35	2729.94
522.55	2844.63
522.75	3147.73
522.95	2783.19
523.14	2688.98
523.34	3053.52
523.54	2914.26
523.74	3002.32
523.94	2885.59
524.14	2756.57
524.34	3051.47
524.54	3108.82
524.73	2781.14
524.93	3086.29
525.13	3088.34
525.33	2785.24
525.53	3088.34
525.73	3094.48
525.93	3047.38
526.13	2758.61
526.32	2834.39
526.52	3129.30
526.72	3131.34
526.92	2856.92
527.12	2811.86
527.32	2734.04
527.52	3047.38
527.71	2975.70
527.91	2916.31
528.11	2922.45
528.31	2910.16
528.51	2766.81
528.71	2985.94
528.90	3153.87
529.10	3147.73
529.30	2924.50
529.50	2588.63
529.70	3055.57
529.90	2949.08
530.09	2863.06
530.29	2719.70
530.49	2865.11
530.69	3473.36
530.89	2926.55
531.09	2906.07
531.28	2983.89
531.48	3203.02
531.68	2889.68
531.88	2836.44
532.08	3131.34
532.28	2985.94
532.47	2971.60
532.67	2994.13
532.87	3049.43
533.07	2861.01
533.27	2930.64
533.46	2940.88
533.66	3059.67
533.86	2928.60
534.06	2838.48
534.26	2885.59
534.45	2848.72
534.65	3127.25
534.85	2926.55
535.05	2713.56
535.25	3123.15
535.44	2721.75
535.64	2938.84
535.84	2852.82
536.04	2875.35
536.24	2949.08
536.43	2807.77
536.63	2801.62
536.83	3000.27
537.03	2979.79
537.22	2701.27
537.42	2660.31
537.62	3061.71
537.82	2809.81
538.02	3059.67
538.21	2953.17
538.41	3549.13
538.61	2965.46
538.81	2951.12
539.00	2975.70
539.20	2791.38
539.40	2916.31
539.60	2928.60
539.79	2979.79
539.99	3039.19
540.19	2815.96
540.39	2842.58
540.58	2838.48
540.78	3061.71
540.98	2895.83
541.18	3096.53
541.37	2899.92
541.57	2994.13
541.77	3053.52
541.97	2697.17
542.16	2684.89
542.36	2928.60
542.56	2865.11
542.76	2977.75
542.95	2967.51
543.15	3137.49
543.35	3151.82
543.54	2772.95
543.74	2766.81
543.94	3270.61
544.14	2891.73
544.33	2973.65
544.53	2893.78
544.73	2942.93
544.93	2904.02
545.12	2883.54
545.32	2869.20
545.52	2834.39
545.71	2834.39
545.91	2865.11
546.11	2764.76
546.30	2836.44
546.50	2969.55
546.70	3018.71
546.90	2938.84
547.09	2772.95
547.29	2975.70
547.49	2926.55
547.68	2889.68
547.88	2858.96
548.08	3041.23
548.27	3170.26
548.47	2852.82
548.67	2953.17
548.87	3147.73
549.06	2824.15
549.26	2852.82
549.46	3010.51
549.65	2877.40
549.85	2863.06
550.05	2934.74
550.24	2785.24
550.44	2895.83
550.64	2924.50
550.83	2924.50
551.03	3243.98
551.23	3160.02
551.42	2975.70
551.62	2838.48
551.82	3039.19
552.01	2869.20
552.21	3078.10
552.41	2897.88
552.60	3207.12
552.80	2992.08
553.00	2813.91
553.19	2906.07
553.39	3256.27
553.59	2807.77
553.78	3014.61
553.98	2797.53
554.17	2838.48
554.37	2983.89
554.57	3004.37
554.76	2754.52
554.96	2901.97
555.16	3035.09
555.35	2971.60
555.55	3006.42
555.75	3065.81
555.94	3082.19
556.14	2680.79
556.33	2873.30
556.53	2883.54
556.73	2992.08
556.92	2930.64
557.12	2893.78
557.32	3327.95
557.51	3211.22
557.71	2926.55
557.90	3057.62
558.10	3196.88
558.30	3026.90
558.49	2858.96
558.69	2811.86
558.88	3051.47
559.08	2979.79
559.28	2830.29
559.47	2869.20
559.67	3049.43
559.86	3270.61
560.06	2787.29
560.26	2877.40
560.45	3067.86
560.65	2938.84
560.84	3053.52
561.04	2709.46
561.24	3076.05
561.43	2805.72
561.63	3063.76
561.82	2901.97
562.02	3063.76
562.22	2813.91
562.41	2793.43
562.61	2772.95
562.80	2856.92
563.00	3344.33
563.19	2971.60
563.39	2934.74
563.59	3114.96
563.78	2811.86
563.98	2635.74
564.17	2787.29
564.37	2664.41
564.56	3012.56
564.76	2742.23
564.96	2940.88
565.15	3024.85
565.35	3364.81
565.54	2873.30
565.74	2842.58
565.93	3090.38
566.13	3002.32
566.32	2920.40
566.52	2906.07
566.71	3012.56
566.91	3164.11
567.11	2918.36
567.30	2770.90
567.50	3139.54
567.69	3037.14
567.89	2760.66
568.08	2760.66
568.28	3033.04
568.47	2797.53
568.67	2889.68
568.86	2789.33
569.06	3092.43
569.25	2901.97
569.45	2766.81
569.64	2883.54
569.84	2985.94
570.04	3082.19
570.23	2846.68
570.43	2873.30
570.62	2912.21
570.82	3192.78
571.01	2723.80
571.21	2748.37
571.40	2891.73
571.60	3108.82
571.79	2979.79
571.99	2813.91
572.18	2863.06
572.38	3094.48
572.57	2906.07
572.77	2994.13
572.96	3461.07
573.16	3059.67
573.35	2846.68
573.55	3049.43
573.74	2975.70
573.94	2953.17
574.13	2818.00
574.33	3020.75
574.52	3198.93
574.71	2951.12
574.91	2893.78
575.10	2723.80
575.30	2914.26
575.49	2779.09
575.69	2772.95
575.88	2883.54
576.08	2955.22
576.27	3147.73
576.47	2824.15
576.66	3037.14
576.86	3241.93
577.05	3018.71
577.25	2973.65
577.44	3055.57
577.64	2856.92
577.83	3127.25
578.02	2797.53
578.22	3012.56
578.41	3309.52
578.61	2947.03
578.80	2713.56
579.00	2891.73
579.19	2940.88
579.39	3049.43
579.58	2975.70
579.77	2904.02
579.97	3246.03
580.16	3164.11
580.36	3018.71
580.55	2910.16
580.75	3041.23
580.94	3051.47
581.13	3002.32
581.33	3114.96
581.52	2959.31
581.72	3327.95
581.91	2985.94
582.11	2805.72
582.30	3114.96
582.49	3008.47
582.69	3190.74
582.88	2854.87
583.08	2981.84
583.27	3184.59
583.47	2916.31
583.66	2820.05
583.85	2824.15
584.05	3020.75
584.24	2992.08
584.44	2883.54
584.63	3067.86
584.82	3166.16
585.02	3147.73
585.21	3012.56
585.41	3078.10
585.60	3102.67
585.79	3112.91
585.99	3153.87
586.18	3008.47
586.37	3899.33
586.57	5744.55
586.76	16672.51
586.96	35608.03
587.15	48735.51
587.34	56908.96
587.54	60918.88
587.73	54432.96
587.93	38667.70
588.12	29269.57
588.31	24209.04
588.51	21221.05
588.70	19693.27
588.89	17129.21
589.09	14411.56
589.28	12658.49
589.47	9791.34
589.67	7589.77
589.86	5963.68
590.06	4675.51
590.25	4007.87
590.44	3493.83
590.64	3188.69
590.83	3276.75
591.02	3239.89
591.22	2924.50
591.41	3018.71
591.60	3000.27
591.80	3444.68
591.99	2770.90
592.18	2879.44
592.38	3266.51
592.57	2883.54
592.76	2861.01
592.96	2975.70
593.15	2930.64
593.34	3205.07
593.54	2893.78
593.73	2977.75
593.92	3061.71
594.12	3016.66
594.31	2983.89
594.50	3010.51
594.70	3090.38
594.89	3436.49
595.08	2768.85
595.28	2928.60
595.47	3575.75
595.66	3117.01
595.86	2738.13
596.05	2738.13
596.24	2858.96
596.43	3391.44
596.63	2932.69
596.82	3039.19
597.01	3174.35
597.21	3379.15
597.40	2822.10
597.59	2910.16
597.79	2983.89
597.98	3131.34
598.17	2998.23
598.36	2920.40
598.56	3139.54
598.75	2973.65
598.94	2922.45
599.14	2836.44
599.33	2965.46
599.52	3092.43
599.71	2899.92
599.91	2877.40
600.10	3094.48
600.29	2983.89
600.48	2940.88
600.68	3000.27
600.87	2961.36
601.06	2840.53
601.26	2807.77
601.45	2987.99
601.64	2942.93
601.83	3200.98
602.03	2822.10
602.22	2789.33
602.41	3248.08
602.60	3428.30
602.80	2953.17
602.99	3022.80
603.18	2861.01
603.37	3030.99
603.57	2768.85
603.76	2930.64
603.95	3127.25
604.14	2910.16
604.34	2736.09
604.53	2768.85
604.72	2998.23
604.91	3123.15
605.10	2916.31
605.30	2713.56
605.49	3397.58
605.68	3147.73
605.87	2963.41
606.07	2791.38
606.26	3053.52
606.45	2975.70
606.64	2908.12
606.84	2754.52
607.03	2994.13
607.22	3117.01
607.41	2881.49
607.60	2811.86
607.80	3135.44
607.99	2994.13
608.18	2869.20
608.37	2885.59
608.56	2830.29
608.76	3129.30
608.95	3026.90
609.14	2873.30
609.33	3143.63
609.52	3192.78
609.72	2969.55
609.91	2994.13
610.10	3024.85
610.29	3168.21
610.48	2942.93
610.68	2963.41
610.87	3030.99
611.06	3069.91
611.25	2875.35
611.44	2934.74
611.63	2961.36
611.83	3172.30
612.02	2754.52
612.21	3057.62
612.40	2691.03
612.59	2748.37
612.79	2734.04
612.98	3000.27
613.17	3188.69
613.36	2971.60
613.55	3026.90
613.74	2871.25
613.93	2987.99
614.13	3012.56
614.32	3041.23
614.51	2914.26
614.70	3014.61
614.89	2901.97
615.08	2963.41
615.28	3278.80
615.47	2813.91
615.66	3059.67
615.85	2904.02
616.04	2953.17
616.23	2951.12
616.42	3074.00
616.62	2795.48
616.81	2844.63
617.00	3010.51
617.19	3026.90
617.38	2883.54
617.57	2983.89
617.76	3033.04
617.95	3129.30
618.15	2965.46
618.34	3131.34
618.53	2772.95
618.72	3088.34
618.91	2985.94
619.10	2926.55
619.29	2979.79
619.48	2912.21
619.68	2813.91
619.87	2715.61
620.06	2770.90
620.25	3094.48
620.44	2832.34
620.63	2785.24
620.82	3024.85
621.01	2971.60
621.20	2963.41
621.39	2953.17
621.59	3082.19
621.78	2942.93
621.97	2818.00
622.16	2981.84
622.35	3096.53
622.54	3129.30
622.73	2916.31
622.92	2645.98
623.11	3172.30
623.30	2936.79
623.49	2947.03
623.68	2801.62
623.88	3223.50
624.07	2801.62
624.26	2818.00
624.45	2863.06
624.64	2893.78
624.83	3055.57
625.02	2871.25
625.21	2875.35
625.40	3065.81
625.59	3207.12
625.78	2983.89
625.97	2944.98
626.16	3223.50
626.35	3123.15
626.54	2858.96
626.74	3065.81
626.93	2901.97
627.12	2971.60
627.31	2955.22
627.50	2979.79
627.69	3203.02
627.88	2801.62
628.07	2797.53
628.26	2705.37
628.45	2815.96
628.64	2824.15
628.83	2832.34
629.02	2731.99
629.21	3063.76
629.40	3028.95
629.59	2754.52
629.78	2877.40
629.97	2965.46
630.16	3024.85
630.35	2820.05
630.54	2910.16
630.73	2787.29
630.92	2961.36
631.11	2791.38
631.30	2922.45
631.49	3155.92
631.68	3043.28
631.87	2940.88
632.06	2803.67
632.25	3463.12
632.44	3016.66
632.63	2873.30
632.82	2830.29
633.01	2852.82
633.20	3010.51
633.39	2873.30
633.58	2742.23
633.77	2985.94
633.96	3024.85
634.15	2990.03
634.34	2934.74
634.53	2983.89
634.72	2867.16
634.91	2680.79
635.10	2856.92
635.29	3112.91
635.48	2979.79
635.67	2793.43
635.86	2795.48
636.05	3170.26
636.24	3016.66
636.43	2838.48
636.62	2904.02
636.81	2605.02
637.00	2992.08
637.19	2901.97
637.38	2785.24
637.57	2891.73
637.76	2955.22
637.95	3008.47
638.14	2906.07
638.33	2985.94
638.52	2992.08
638.71	2697.17
638.89	2803.67
639.08	3516.36
639.27	3094.48
639.46	3045.33
639.65	3434.44
639.84	3409.87
640.03	3575.75
640.22	3276.75
640.41	3211.22
640.60	3086.29
640.79	3147.73
640.98	3014.61
641.17	3098.58
641.36	3133.39
641.55	3114.96
641.74	2736.09
641.92	2754.52
642.11	2883.54
642.30	2920.40
642.49	2727.89
642.68	2789.33
642.87	3096.53
643.06	3016.66
643.25	2686.94
643.44	2738.13
643.63	2994.13
643.82	3133.39
644.00	2768.85
644.19	2967.51
644.38	2789.33
644.57	3026.90
644.76	2901.97
644.95	2963.41
645.14	3008.47
645.33	3026.90
645.52	2957.27
645.71	2742.23
645.89	2877.40
646.08	2912.21
646.27	2746.33
646.46	3008.47
646.65	2787.29
646.84	2942.93
647.03	2848.72
647.22	3063.76
647.40	3045.33
647.59	2861.01
647.78	2650.07
647.97	2818.00
648.16	2811.86
648.35	3190.74
648.54	3059.67
648.73	2826.20
648.91	3057.62
649.10	3049.43
649.29	2834.39
649.48	2820.05
649.67	3057.62
649.86	3022.80
650.05	2879.44
650.23	3002.32
650.42	2881.49
650.61	3221.45
650.80	3078.10
650.99	3164.11
651.18	3114.96
651.36	3114.96
651.55	2813.91
651.74	2983.89
651.93	2957.27
652.12	2936.79
652.31	2895.83
652.49	2936.79
652.68	2850.77
652.87	3235.79
653.06	2944.98
653.25	3186.64
653.44	2959.31
653.62	3241.93
653.81	2891.73
654.00	2891.73
654.19	3217.36
654.38	3428.30
654.56	2985.94
654.75	2779.09
654.94	3198.93
655.13	2987.99
655.32	2850.77
655.51	2953.17
655.69	2838.48
655.88	3047.38
656.07	2707.41
656.26	2936.79
656.45	2799.57
656.63	3082.19
656.82	2877.40
657.01	3139.54
657.20	2940.88
657.38	3256.27
657.57	2795.48
657.76	2709.46
657.95	3084.24
658.14	2901.97
658.32	2961.36
658.51	2781.14
658.70	2947.03
658.89	3018.71
659.08	2893.78
659.26	3121.10
659.45	2830.29
659.64	3166.16
659.83	2844.63
660.01	3303.37
660.20	3000.27
660.39	3229.65
660.58	2572.25
660.76	3010.51
660.95	2703.32
661.14	2934.74
661.33	2633.69
661.51	2852.82
661.70	2832.34
661.89	3057.62
662.08	2873.30
662.26	2789.33
662.45	2848.72
662.64	3229.65
662.83	2953.17
663.01	2734.04
663.20	2834.39
663.39	3246.03
663.58	2877.40
663.76	2918.36
663.95	3057.62
664.14	2824.15
664.32	2877.40
664.51	2736.09
664.70	2713.56
664.89	3063.76
665.07	2727.89
665.26	3010.51
665.45	2758.61
665.64	3059.67
665.82	2861.01
666.01	2967.51
666.20	2756.57
666.38	3045.33
666.57	3168.21
666.76	4829.11
666.95	10975.06
667.13	17784.56
667.32	21477.05
667.51	24043.15
667.69	25081.47
667.88	21128.89
668.07	15380.25
668.25	12795.71
668.44	11198.29
668.63	9713.52
668.81	8640.38
669.00	7481.23
669.19	6598.56
669.38	6018.98
669.56	5013.43
669.75	4456.38
669.94	4069.31
670.12	3377.10
670.31	3176.40
670.50	3100.62
670.68	3180.50
670.87	3119.06
671.06	2838.48
671.24	2895.83
671.43	3323.85
671.62	2959.31
671.80	2887.64
671.99	3002.32
672.18	3043.28
672.36	3125.20
672.55	2881.49
672.74	2885.59
672.92	2920.40
673.11	3090.38
673.29	2721.75
673.48	2979.79
673.67	2981.84
673.85	3203.02
674.04	2815.96
674.23	2869.20
674.41	3348.43
674.60	2801.62
674.79	2678.74
674.97	2725.85
675.16	3084.24
675.34	3119.06
675.53	2832.34
675.72	2877.40
675.90	3385.29
676.09	2920.40
676.28	2910.16
676.46	2652.12
676.65	3074.00
676.83	2748.37
677.02	2932.69
677.21	2869.20
677.39	3033.04
677.58	2820.05
677.77	2858.96
677.95	2777.05
678.14	2863.06
678.32	2885.59
678.51	2807.77
678.70	3131.34
678.88	2828.24
679.07	3010.51
679.25	2820.05
679.44	2877.40
679.63	2815.96
679.81	3020.75
680.00	3104.72
680.18	2959.31
680.37	3227.60
680.55	3047.38
680.74	2762.71
680.93	2609.11
681.11	3024.85
681.30	2973.65
681.48	2881.49
681.67	2863.06
681.85	2996.18
682.04	2881.49
682.23	3026.90
682.41	2959.31
682.60	2863.06
682.78	2985.94
682.97	2775.00
683.15	2879.44
683.34	3049.43
683.53	3237.84
683.71	2725.85
683.90	2912.21
684.08	3219.41
684.27	2908.12
684.45	2936.79
684.64	2912.21
684.82	2947.03
685.01	3094.48
685.19	2906.07
685.38	3057.62
685.57	2994.13
685.75	2836.44
685.94	2807.77
686.12	2674.65
686.31	2869.20
686.49	3256.27
686.68	2662.36
686.86	2885.59
687.05	2932.69
687.23	3264.46
687.42	2777.05
687.60	2744.28
687.79	3133.39
687.97	3260.37
688.16	3004.37
688.34	3045.33
688.53	2709.46
688.71	3074.00
688.90	3057.62
689.08	2928.60
689.27	2693.08
689.45	3008.47
689.64	3084.24
689.82	2865.11
690.01	3102.67
690.19	3061.71
690.38	2895.83
690.56	2977.75
690.75	2813.91
690.93	2910.16
691.12	2828.24
691.30	2883.54
691.49	2944.98
691.67	2936.79
691.86	3180.50
692.04	2899.92
692.23	2904.02
692.41	2920.40
692.60	3149.78
692.78	2990.03
692.97	3022.80
693.15	3108.82
693.34	3065.81
693.52	3028.95
693.71	2883.54
693.89	2768.85
694.08	2658.26
694.26	2934.74
694.44	3141.58
694.63	3112.91
694.81	2744.28
695.00	2775.00
695.18	3200.98
695.37	3418.06
695.55	2963.41
695.74	2852.82
695.92	2865.11
696.10	3205.07
696.29	2750.42
696.47	2852.82
696.66	2719.70
696.84	2813.91
697.03	2906.07
697.21	3139.54
697.40	4376.51
697.58	3186.64
697.76	2803.67
697.95	2820.05
698.13	2719.70
698.32	2832.34
698.50	2844.63
698.68	2914.26
698.87	3043.28
699.05	3293.13
699.24	2906.07
699.42	2801.62
699.61	2967.51
699.79	2998.23
699.97	2926.55
700.16	2740.18
700.34	2799.57
700.53	3008.47
700.71	3051.47
700.89	2975.70
701.08	3024.85
701.26	2908.12
701.45	3233.74
701.63	2846.68
701.81	2906.07
702.00	2770.90
702.18	2899.92
702.37	2852.82
702.55	3151.82
702.73	3084.24
702.92	2891.73
703.10	3102.67
703.28	3108.82
703.47	2779.09
703.65	3078.10
703.84	3049.43
704.02	2914.26
704.20	3235.79
704.39	2975.70
704.57	2877.40
704.75	3164.11
704.94	3076.05
705.12	2893.78
705.30	3499.98
705.49	6690.71
705.67	12939.07
705.86	18259.69
706.04	20588.23
706.22	23008.93
706.41	21927.60
706.59	16951.04
706.77	13211.45
706.96	11493.20
707.14	10428.26
707.32	8927.10
707.51	7825.29
707.69	6299.55
707.87	5453.74
708.06	4659.13
708.24	4030.40
708.42	3624.90
708.61	3721.16
708.79	2934.74
708.97	3020.75
709.16	3059.67
709.34	3047.38
709.52	2887.64
709.71	2926.55
709.89	3114.96
710.07	2830.29
710.26	2795.48
710.44	2926.55
710.62	3141.58
710.80	2975.70
710.99	2881.49
711.17	3033.04
711.35	2883.54
711.54	2920.40
711.72	3086.29
711.90	2983.89
712.09	3059.67
712.27	2801.62
712.45	3026.90
712.63	2885.59
712.82	3016.66
713.00	3022.80
713.18	2920.40
713.37	3016.66
713.55	3149.78
713.73	2998.23
713.91	3026.90
714.10	2930.64
714.28	2981.84
714.46	3063.76
714.65	2957.27
714.83	2891.73
715.01	2963.41
715.19	3053.52
715.38	2842.58
715.56	3028.95
715.74	2944.98
715.92	2811.86
716.11	3162.06
716.29	2664.41
716.47	3043.28
716.65	2955.22
716.84	2738.13
717.02	2992.08
717.20	2721.75
717.38	2848.72
717.57	2834.39
717.75	2879.44
717.93	2936.79
718.11	3086.29
718.30	2770.90
718.48	2914.26
718.66	3235.79
718.84	3131.34
719.03	2887.64
719.21	2779.09
719.39	3352.52
719.57	3051.47
719.75	3022.80
719.94	2795.48
720.12	2969.55
720.30	3026.90
720.48	2955.22
720.67	2811.86
720.85	2863.06
721.03	2840.53
721.21	2791.38
721.39	2914.26
721.58	3114.96
721.76	3045.33
721.94	2879.44
722.12	2979.79
722.30	3184.59
722.49	2926.55
722.67	2834.39
722.85	2883.54
723.03	2744.28
723.21	2938.84
723.40	2953.17
723.58	3024.85
723.76	3123.15
723.94	3205.07
724.12	2852.82
724.30	3086.29
724.49	3133.39
724.67	2854.87
724.85	2996.18
725.03	2781.14
725.21	3098.58
725.40	3180.50
725.58	2826.20
725.76	3016.66
725.94	3121.10
726.12	2791.38
726.30	2977.75
726.49	2889.68
726.67	2889.68
726.85	3037.14
727.03	3485.64
727.21	4351.93
727.39	5443.50
727.57	5945.25
727.76	6356.90
727.94	6191.01
728.12	5631.91
728.30	4700.09
728.48	4386.75
728.66	4216.77
728.84	3837.89
729.03	3667.91
729.21	3323.85
729.39	3135.44
729.57	2987.99
729.75	3074.00
729.93	3039.19
730.11	2799.57
730.30	2942.93
730.48	2961.36
730.66	2987.99
730.84	2985.94
731.02	2996.18
731.20	2916.31
731.38	2963.41
731.56	2721.75
731.74	2752.47
731.93	3016.66
732.11	2932.69
732.29	2852.82
732.47	3059.67
732.65	2942.93
732.83	3086.29
733.01	2914.26
733.19	2822.10
733.37	3043.28
733.56	2918.36
733.74	2809.81
733.92	3305.42
734.10	2807.77
734.28	3071.95
734.46	2658.26
734.64	2869.20
734.82	2914.26
735.00	2869.20
735.18	2836.44
735.36	3049.43
735.54	3016.66
735.73	2879.44
735.91	2979.79
736.09	3274.70
736.27	2987.99
736.45	2942.93
736.63	2676.70
736.81	2842.58
736.99	3190.74
737.17	3110.86
737.35	2826.20
737.53	3061.71
737.71	2944.98
737.89	3125.20
738.07	2736.09
738.25	2883.54
738.43	2803.67
738.61	2928.60
738.80	2746.33
738.98	2852.82
739.16	2901.97
739.34	2856.92
739.52	3164.11
739.70	2936.79
739.88	2959.31
740.06	2979.79
740.24	2617.30
740.42	3133.39
740.60	2693.08
740.78	2863.06
740.96	2650.07
741.14	2965.46
741.32	2912.21
741.50	2688.98
741.68	3110.86
741.86	3190.74
742.04	2764.76
742.22	2850.77
742.40	2795.48
742.58	3069.91
742.76	2783.19
742.94	3000.27
743.12	2609.11
743.30	3010.51
743.48	3084.24
743.66	2803.67
743.84	2885.59
744.02	2992.08
744.20	2979.79
744.38	2783.19
744.56	2795.48
744.74	3289.04
744.92	3000.27
745.10	3149.78
745.28	2834.39
745.46	3286.99
745.64	2910.16
745.82	2916.31
746.00	2914.26
746.18	3092.43
746.36	2824.15
746.54	2951.12
746.72	2869.20
746.90	2785.24
747.08	3196.88
747.26	2805.72
747.44	3041.23
747.62	3100.62
747.80	2957.27
747.98	2971.60
748.15	2803.67
748.33	3307.47
748.51	3012.56
748.69	3012.56
748.87	2787.29
749.05	2959.31
749.23	2977.75
749.41	2856.92
749.59	2842.58
749.77	3121.10
749.95	2987.99
750.13	2805.72
750.31	3000.27
750.49	2973.65
750.67	3174.35
750.85	3028.95
751.03	2965.46
751.20	3278.80
751.38	2973.65
751.56	2852.82
751.74	2985.94
751.92	2987.99
752.10	2785.24
752.28	3080.14
752.46	2807.77
752.64	2836.44
752.82	2959.31
753.00	2992.08
753.18	2768.85
753.35	2861.01
753.53	2961.36
753.71	2799.57
753.89	2953.17
754.07	3010.51
754.25	3092.43
754.43	2922.45
754.61	2727.89
754.79	3102.67
754.97	2951.12
755.14	3098.58
755.32	2705.37
755.50	3016.66
755.68	3010.51
755.86	2750.42
756.04	2762.71
756.22	2645.98
756.40	3100.62
756.57	3086.29
756.75	2848.72
756.93	3192.78
757.11	3067.86
757.29	2838.48
757.47	2729.94
757.65	2676.70
757.82	2514.91
758.00	2799.57
758.18	2750.42
758.36	2824.15
758.54	3344.33
758.72	2711.51
758.90	2990.03
759.07	3069.91
759.25	2807.77
759.43	3000.27
759.61	2672.60
759.79	4272.06
759.97	3090.38
760.15	2869.20
760.32	2887.64
760.50	2985.94
760.68	3231.69
760.86	2766.81
761.04	3096.53
761.22	3076.05
761.39	3002.32
761.57	2959.31
761.75	2897.88
761.93	3104.72
762.11	2908.12
762.28	2891.73
762.46	2775.00
762.64	3194.83
762.82	2717.65
763.00	2807.77
763.18	3082.19
763.35	2824.15
763.53	3108.82
763.71	2944.98
763.89	2824.15
764.07	3016.66
764.24	3010.51
764.42	2975.70
764.60	2834.39
764.78	3100.62
764.96	3098.58
765.13	3049.43
765.31	2828.24
765.49	3151.82
765.67	2691.03
765.84	2811.86
766.02	2766.81
766.20	2793.43
766.38	3045.33
766.56	2969.55
766.73	3012.56
766.91	2983.89
767.09	2990.03
767.27	2908.12
767.44	2775.00
767.62	3131.34
767.80	2975.70
767.98	2797.53
768.15	2795.48
768.33	3086.29
768.51	3098.58
768.69	2985.94
768.87	2863.06
769.04	2965.46
769.22	3418.06
769.40	3051.47
769.58	3026.90
769.75	3147.73
769.93	3237.84
770.11	2922.45
770.28	2789.33
770.46	3145.68
770.64	3037.14
770.82	2856.92
770.99	2801.62
771.17	3063.76
771.35	2949.08
771.53	2871.25
771.70	2803.67
771.88	3094.48
772.06	2975.70
772.23	2750.42
772.41	2928.60
772.59	2918.36
772.77	2865.11
772.94	2951.12
773.12	2977.75
773.30	3018.71
773.47	3039.19
773.65	2795.48
773.83	3090.38
774.01	2881.49
774.18	2627.54
774.36	2912.21
774.54	2756.57
774.71	3039.19
774.89	2766.81
775.07	2721.75
775.24	2801.62
775.42	2949.08
775.60	3252.17
775.78	2820.05
775.95	2748.37
776.13	2727.89
776.31	2680.79
776.48	3030.99
776.66	3088.34
776.84	2856.92
777.01	2826.20
777.19	2764.76
777.37	2791.38
777.54	3141.58
777.72	3360.72
777.90	2944.98
778.07	2795.48
778.25	3553.23
778.43	3160.02
778.60	2768.85
778.78	2936.79
778.96	3135.44
779.13	2707.41
779.31	2934.74
779.49	2820.05
779.66	3002.32
779.84	2910.16
780.01	2822.10
780.19	2770.90
780.37	3286.99
780.54	3016.66
780.72	2715.61
780.90	2789.33
781.07	2922.45
781.25	2865.11
781.43	3037.14
781.60	2813.91
781.78	3160.02
781.95	2994.13
782.13	2768.85
782.31	2877.40
782.48	2711.51
782.66	2996.18
782.83	3123.15
783.01	2949.08
783.19	3145.68
783.36	2947.03
783.54	2758.61
783.72	2885.59
783.89	2852.82
784.07	3006.42
784.24	2981.84
784.42	3000.27
784.60	2994.13
784.77	3045.33
784.95	2660.31
785.12	2815.96
785.30	3082.19
785.47	2897.88
785.65	2775.00
785.83	2887.64
786.00	2895.83
786.18	2994.13
786.35	2775.00
786.53	2721.75
786.71	3168.21
786.88	3139.54
787.06	2893.78
787.23	2963.41
787.41	2836.44
787.58	2975.70
787.76	2877.40
787.94	2918.36
788.11	3045.33
788.29	2762.71
788.46	2748.37
788.64	2660.31
788.81	2922.45
788.99	2844.63
789.16	2756.57
789.34	2963.41
789.52	2924.50
789.69	2873.30
789.87	2639.83
790.04	2836.44
790.22	2994.13
790.39	3301.33
790.57	2801.62
790.74	2803.67
790.92	3139.54
791.09	2725.85
791.27	2920.40
791.44	2965.46
791.62	2914.26
791.79	3028.95
791.97	2889.68
792.15	3190.74
792.32	3119.06
792.50	3080.14
792.67	3074.00
792.85	3143.63
793.02	3039.19
793.20	2947.03
793.37	2703.32
793.55	2830.29
793.72	2799.57
793.90	3028.95
794.07	2768.85
794.25	2756.57
794.42	2994.13
794.60	2957.27
794.77	2973.65
794.95	2930.64
795.12	3026.90
795.30	2916.31
795.47	2717.65
795.65	3258.32
795.82	2987.99
796.00	2885.59
796.17	2865.11
796.34	2758.61
796.52	3090.38
796.69	3192.78
796.87	2942.93
797.04	2940.88
797.22	3127.25
797.39	3080.14
797.57	3008.47
797.74	2977.75
797.92	3047.38
798.09	2947.03
798.27	3125.20
798.44	2760.66
798.62	2908.12
798.79	3018.71
798.96	2971.60
799.14	2871.25
799.31	3385.29
799.49	2926.55
799.66	2899.92
799.84	2895.83
800.01	2734.04
800.19	3084.24
800.36	2639.83
800.53	2881.49
800.71	3053.52
800.88	3282.89
801.06	2734.04
801.23	2920.40
801.41	2926.55
801.58	2852.82
801.75	2736.09
801.93	2928.60
802.10	3086.29
802.28	2998.23
802.45	2895.83
802.63	2916.31
802.80	3223.50
802.97	2912.21
803.15	2930.64
803.32	2846.68
803.50	2777.05
803.67	2918.36
803.84	2805.72
804.02	2910.16
804.19	2947.03
804.37	2574.30
804.54	2697.17
804.71	2822.10
804.89	2979.79
805.06	2904.02
805.24	2795.48
805.41	2660.31
805.58	2820.05
805.76	3383.24
805.93	2869.20
806.10	3020.75
806.28	3092.43
806.45	2959.31
806.63	2940.88
806.80	2832.34
806.97	3033.04
807.15	2998.23
807.32	3053.52
807.49	2883.54
807.67	2731.99
807.84	3049.43
808.01	2764.76
808.19	3045.33
808.36	3405.77
808.54	2932.69
808.71	2820.05
808.88	2795.48
809.06	3233.74
809.23	3309.52
809.40	2805.72
809.58	2895.83
809.75	3069.91
809.92	2828.24
810.10	3198.93
810.27	2879.44
810.44	3043.28
810.62	3067.86
810.79	2906.07
810.96	2869.20
811.14	2912.21
811.31	3119.06
811.48	2959.31
811.66	2918.36
811.83	3239.89
812.00	3008.47
812.18	3049.43
812.35	3217.36
812.52	2904.02
812.69	2830.29
812.87	2854.87
813.04	2848.72
813.21	2924.50
813.39	2846.68
813.56	2779.09
813.73	3076.05
813.91	2760.66
814.08	3004.37
814.25	2918.36
814.42	2701.27
814.60	2965.46
814.77	2938.84
814.94	2863.06
815.12	3033.04
815.29	3209.17
815.46	2844.63
815.63	2871.25
815.81	2840.53
815.98	2920.40
816.15	3008.47
816.33	2895.83
816.50	2832.34
816.67	3000.27
816.84	2934.74
817.02	2674.65
817.19	2914.26
817.36	2987.99
817.53	3098.58
817.71	2752.47
817.88	2885.59
818.05	2912.21
818.22	2967.51
818.40	3090.38
818.57	2840.53
818.74	3069.91
818.91	2889.68
819.09	2967.51
819.26	2977.75
819.43	2846.68
819.60	2822.10
819.78	3026.90
819.95	3047.38
820.12	2795.48
820.29	3211.22
820.47	3067.86
820.64	2795.48
820.81	2731.99
820.98	2805.72
821.15	2818.00
821.33	2963.41
821.50	2736.09
821.67	3033.04
821.84	2830.29
822.02	2897.88
822.19	3086.29
822.36	2846.68
822.53	2795.48
822.70	2768.85
822.88	2871.25
823.05	3211.22
823.22	2930.64
823.39	2998.23
823.56	3000.27
823.74	3385.29
823.91	2686.94
824.08	2803.67
824.25	2758.61
824.42	3284.94
824.60	2635.74
824.77	2985.94
824.94	2957.27
825.11	3057.62
825.28	2693.08
825.45	3028.95
825.63	2967.51
825.80	2768.85
825.97	2895.83
826.14	2930.64
826.31	2658.26
826.48	3030.99
826.66	2805.72
826.83	2736.09
827.00	2889.68
827.17	2840.53
827.34	2918.36
827.51	2731.99
827.69	3033.04
827.86	2754.52
828.03	2957.27
828.20	2826.20
828.37	2858.96
828.54	3061.71
828.71	2789.33
828.89	3014.61
829.06	2987.99
829.23	3235.79
829.40	2762.71
829.57	2744.28
829.74	3082.19
829.91	2820.05
830.09	2705.37
830.26	2981.84
830.43	3272.65
830.60	2901.97
830.77	3000.27
830.94	3026.90
831.11	3053.52
831.28	2934.74
831.46	2963.41
831.63	2824.15
831.80	3114.96
831.97	2807.77
832.14	2893.78
832.31	2944.98
832.48	2975.70
832.65	3184.59
832.82	2881.49
832.99	2916.31
833.17	2838.48
833.34	3254.22
833.51	2891.73
833.68	2664.41
833.85	3178.45
834.02	2826.20
834.19	2760.66
834.36	2836.44
834.53	3004.37
834.70	3106.77
834.87	2844.63
835.04	2625.50
835.22	2809.81
835.39	3035.09
835.56	2701.27
835.73	2762.71
835.90	3172.30
836.07	2822.10
836.24	2887.64
836.41	2750.42
836.58	2807.77
836.75	3104.72
836.92	2811.86
837.09	2656.22
837.26	3078.10
837.43	3037.14
837.60	2830.29
837.77	2742.23
837.94	3033.04
838.12	3133.39
838.29	2740.18
838.46	2635.74
838.63	2754.52
838.80	3194.83
838.97	2779.09
839.14	2658.26
839.31	2934.74
839.48	3016.66
839.65	2768.85
839.82	2752.47
839.99	2994.13
840.16	2967.51
840.33	2695.13
840.50	2791.38
840.67	2883.54
840.84	2555.86
841.01	2682.84
841.18	2598.87
841.35	2969.55
841.52	3063.76
841.69	3076.05
841.86	2777.05
842.03	2914.26
842.20	3106.77
842.37	2668.50
842.54	2727.89
842.71	2973.65
842.88	2727.89
843.05	2789.33
843.22	2674.65
843.39	3055.57
843.56	2899.92
843.73	2734.04
843.90	2834.39
844.07	2994.13
844.24	3096.53
844.41	2785.24
844.58	2785.24
844.75	2938.84
844.92	3071.95
845.09	2838.48
845.26	2791.38
845.43	3106.77
845.60	2947.03
845.77	2949.08
845.94	2887.64
846.10	3114.96
846.27	2688.98
846.44	2680.79
846.61	2643.93
846.78	3096.53
846.95	3098.58
847.12	2783.19
847.29	2811.86
847.46	2832.34
847.63	3102.67
847.80	2688.98
847.97	2721.75
848.14	3377.10
848.31	2940.88
848.48	2633.69
848.65	2766.81
848.82	2852.82
848.98	3475.40
849.15	2891.73
849.32	2897.88
849.49	3131.34
849.66	2916.31
849.83	2684.89
850.00	2680.79
850.17	3061.71
850.34	2858.96
850.51	2770.90
850.68	2762.71
850.85	3289.04
851.01	2996.18
851.18	2723.80
851.35	2809.81
851.52	3074.00
851.69	3215.31
851.86	2643.93
852.03	2691.03
852.20	3082.19
852.37	2955.22
852.53	2533.34
852.70	2607.06
852.87	2951.12
853.04	3045.33
853.21	2740.18
853.38	2942.93
853.55	3164.11
853.72	3133.39
853.89	2670.55
854.05	2717.65
854.22	2916.31
854.39	2885.59
854.56	2721.75
854.73	2996.18
854.90	2787.29
855.07	3012.56
855.23	2633.69
855.40	2684.89
855.57	2897.88
855.74	2590.68
855.91	2961.36
856.08	2600.92
856.25	2703.32
856.41	2830.29
856.58	2713.56
856.75	2738.13
856.92	2783.19
857.09	3176.40
857.26	2648.02
857.42	2756.57
857.59	3102.67
857.76	2895.83
857.93	2736.09
858.10	2832.34
858.27	2777.05
858.43	2979.79
858.60	2707.41
858.77	2617.30
858.94	2836.44
859.11	3155.92
859.27	2811.86
859.44	2648.02
859.61	3278.80
859.78	3028.95
859.95	2734.04
860.12	2723.80
860.28	3315.66
860.45	3354.57
860.62	2736.09
860.79	2826.20
860.95	2928.60
861.12	2893.78
861.29	2662.36
861.46	2623.45
861.63	2914.26
861.79	3024.85
861.96	2619.35
862.13	2805.72
862.30	3215.31
862.47	2844.63
862.63	2637.78
862.80	2815.96
862.97	3094.48
863.14	2994.13
863.30	2787.29
863.47	2664.41
863.64	3205.07
863.81	3045.33
863.97	2574.30
864.14	2729.94
864.31	2910.16
864.48	3020.75
864.65	2734.04
864.81	2904.02
864.98	3086.29
865.15	3108.82
865.32	2781.14
865.48	2789.33
865.65	3256.27
865.82	2834.39
865.98	2826.20
866.15	2783.19
866.32	2975.70
866.49	2934.74
866.65	2885.59
866.82	2742.23
866.99	3043.28
867.16	2926.55
867.32	2709.46
867.49	2725.85
867.66	2906.07
867.83	2869.20
867.99	2660.31
868.16	2791.38
868.33	2861.01
868.49	2987.99
868.66	2691.03
868.83	2852.82
868.99	3086.29
869.16	3057.62
869.33	2914.26
869.50	2779.09
869.66	2932.69
869.83	2918.36
870.00	2643.93
870.16	2840.53
870.33	2897.88
870.50	3141.58
870.66	2809.81
870.83	2809.81
871.00	2938.84
871.17	3041.23
871.33	2863.06
871.50	2789.33
871.67	2987.99
871.83	2680.79
872.00	2848.72
872.17	2731.99
872.33	3270.61
872.50	3157.97
872.67	2795.48
872.83	2719.70
873.00	3061.71
873.17	2971.60
873.33	2760.66
873.50	2777.05
873.67	2840.53
873.83	2916.31
874.00	2715.61
874.16	2830.29
874.33	3022.80
874.50	2854.87
874.66	2703.32
874.83	2815.96
875.00	3104.72
875.16	3082.19
875.33	2842.58
875.50	2490.33
875.66	2920.40
875.83	2977.75
875.99	2828.24
876.16	2760.66
876.33	2756.57
876.49	2926.55
876.66	2744.28
876.83	2811.86
876.99	2742.23
877.16	3024.85
877.32	2645.98
877.49	2818.00
877.66	2971.60
877.82	3166.16
877.99	2795.48
878.15	2992.08
878.32	3047.38
878.49	3000.27
878.65	2861.01
878.82	3004.37
878.98	2748.37
879.15	3168.21
879.32	2922.45
879.48	2834.39
879.65	2926.55
879.81	2899.92
879.98	2818.00
880.15	2713.56
880.31	3067.86
880.48	2768.85
880.64	2854.87
880.81	2893.78
880.97	3227.60
881.14	3207.12
881.31	2686.94
881.47	2895.83
881.64	2942.93
881.80	2729.94
881.97	2863.06
882.13	2781.14
882.30	2785.24
882.47	2865.11
882.63	2701.27
882.80	2756.57
882.96	2959.31
883.13	3098.58
883.29	2803.67
883.46	2699.22
883.62	3373.00
883.79	2959.31
883.95	2877.40
884.12	2691.03
884.29	3137.49
884.45	2947.03
884.62	2756.57
884.78	2629.59
884.95	3203.02
885.11	2760.66
885.28	2856.92
885.44	2748.37
885.61	3084.24
885.77	3166.16
885.94	2918.36
886.10	2779.09
886.27	2971.60
886.43	3334.09
886.60	2926.55
886.76	2856.92
886.93	2789.33
887.09	2895.83
887.26	2582.49
887.42	2805.72
887.59	3157.97
887.75	3321.81
887.92	2887.64
888.08	2811.86
888.25	3325.90
888.41	3076.05
888.58	2840.53
888.74	2676.70
888.91	2832.34
>>>>>End Processed Spectral Data<<<<<
