SpectraSuite Data File
++++++++++++++++++++++++++++++++++++
Date: Thu May 05 21:11:07 CEST 2016
User: root
Dark Spectrum Present: No
Reference Spectrum Present: No
Number of Sampled Component Spectra: 1
Spectrometers: USB4C02835
Integration Time (usec): 100000 (USB4C02835)
Spectra Averaged: 1 (USB4C02835)
Boxcar Smoothing: 0 (USB4C02835)
Correct for Electrical Dark: No (USB4C02835)
Strobe/Lamp Enabled: No (USB4C02835)
Correct for Detector Non-linearity: No (USB4C02835)
Correct for Stray Light: No (USB4C02835)
Number of Pixels in Processed Spectrum: 3648
>>>>>Begin Processed Spectral Data<<<<<
177.47	2156.51
177.69	2156.51
177.91	2156.51
178.13	2197.47
178.36	2170.85
178.58	2752.47
178.80	2955.22
179.02	2639.83
179.24	2797.53
179.46	2568.15
179.68	2650.07
179.90	2975.70
180.13	3063.76
180.35	2529.24
180.57	2617.30
180.79	3153.87
181.01	2994.13
181.23	2652.12
181.45	2836.44
181.67	3106.77
181.90	3100.62
182.12	2811.86
182.34	2549.72
182.56	3098.58
182.78	3092.43
183.00	2660.31
183.22	2736.09
183.44	2631.64
183.66	3461.07
183.89	2756.57
184.11	2736.09
184.33	3102.67
184.55	3194.83
184.77	2684.89
184.99	2623.45
185.21	2932.69
185.43	3454.92
185.65	2641.88
185.87	2607.06
186.10	3360.72
186.32	3321.81
186.54	2828.24
186.76	2783.19
186.98	3221.45
187.20	2981.84
187.42	2719.70
187.64	2723.80
187.86	3047.38
188.08	3184.59
188.30	2617.30
188.52	2738.13
188.75	3207.12
188.97	3192.78
189.19	2691.03
189.41	2658.26
189.63	3063.76
189.85	2965.46
190.07	2586.58
190.29	2521.05
190.51	3123.15
190.73	2707.41
190.95	2836.44
191.17	2754.52
191.39	2719.70
191.61	3016.66
191.84	2680.79
192.06	2758.61
192.28	2717.65
192.50	3483.59
192.72	2838.48
192.94	2799.57
193.16	3211.22
193.38	3026.90
193.60	2598.87
193.82	2871.25
194.04	3108.82
194.26	2996.18
194.48	2617.30
194.70	2639.83
194.92	2887.64
195.14	3139.54
195.36	2658.26
195.58	2738.13
195.80	2924.50
196.02	2809.81
196.24	2582.49
196.46	2752.47
196.69	2918.36
196.91	3377.10
197.13	2758.61
197.35	2738.13
197.57	3241.93
197.79	3129.30
198.01	2736.09
198.23	2742.23
198.45	3035.09
198.67	2815.96
198.89	2531.29
199.11	2734.04
199.33	2889.68
199.55	2639.83
199.77	2703.32
199.99	2834.39
200.21	2901.97
200.43	2996.18
200.65	2615.26
200.87	2482.14
201.09	3063.76
201.31	2977.75
201.53	2775.00
201.75	2789.33
201.97	3055.57
202.19	2983.89
202.41	2717.65
202.63	2842.58
202.85	3102.67
203.07	2971.60
203.29	2693.08
203.51	2535.39
203.73	2748.37
203.95	3403.72
204.17	2631.64
204.39	2772.95
204.61	2985.94
204.83	2916.31
205.05	2842.58
205.27	2725.85
205.49	3368.91
205.71	2934.74
205.93	2643.93
206.15	2564.06
206.37	2987.99
206.59	2951.12
206.81	2523.10
207.03	2590.68
207.25	2785.24
207.47	3172.30
207.69	2713.56
207.91	2936.79
208.13	3254.22
208.34	2887.64
208.56	2705.37
208.78	2772.95
209.00	2904.02
209.22	2928.60
209.44	2664.41
209.66	2717.65
209.88	2924.50
210.10	2928.60
210.32	2572.25
210.54	2725.85
210.76	2981.84
210.98	3131.34
211.20	2523.10
211.42	2799.57
211.64	3219.41
211.86	3108.82
212.08	2725.85
212.30	2701.27
212.52	2957.27
212.74	3092.43
212.96	2734.04
213.17	2826.20
213.39	3059.67
213.61	3237.84
213.83	2684.89
214.05	2516.95
214.27	3180.50
214.49	2838.48
214.71	2627.54
214.93	2752.47
215.15	3047.38
215.37	3188.69
215.59	2570.20
215.81	2709.46
216.03	3241.93
216.24	2992.08
216.46	2701.27
216.68	2748.37
216.90	3067.86
217.12	3121.10
217.34	2637.78
217.56	2820.05
217.78	3248.08
218.00	3102.67
218.22	2754.52
218.44	2787.29
218.66	3018.71
218.87	3477.45
219.09	2746.33
219.31	2656.22
219.53	3055.57
219.75	2873.30
219.97	2725.85
220.19	2717.65
220.41	2977.75
220.63	3370.96
220.85	2676.70
221.06	2770.90
221.28	3266.51
221.50	3141.58
221.72	2645.98
221.94	2549.72
222.16	3022.80
222.38	3129.30
222.60	2715.61
222.82	2697.17
223.03	3182.54
223.25	2838.48
223.47	2656.22
223.69	2936.79
223.91	3110.86
224.13	2998.23
224.35	2619.35
224.57	2852.82
224.78	3131.34
225.00	2799.57
225.22	2785.24
225.44	2551.77
225.66	3102.67
225.88	2947.03
226.10	2828.24
226.32	2664.41
226.53	3258.32
226.75	2947.03
226.97	2709.46
227.19	2746.33
227.41	2901.97
227.63	2920.40
227.85	2498.52
228.06	2684.89
228.28	3057.62
228.50	3090.38
228.72	2590.68
228.94	2621.40
229.16	2697.17
229.37	2803.67
229.59	2643.93
229.81	2899.92
230.03	2971.60
230.25	2719.70
230.47	2467.80
230.69	2596.82
230.90	3184.59
231.12	2899.92
231.34	2824.15
231.56	2854.87
231.78	2770.90
232.00	2959.31
232.21	2727.89
232.43	2713.56
232.65	2660.31
232.87	3043.28
233.09	2545.63
233.30	2582.49
233.52	3225.55
233.74	2979.79
233.96	2590.68
234.18	2760.66
234.40	2981.84
234.61	3370.96
234.83	2592.73
235.05	2582.49
235.27	3530.70
235.49	3203.02
235.70	2578.39
235.92	2762.71
236.14	3123.15
236.36	3346.38
236.58	2600.92
236.79	2838.48
237.01	2895.83
237.23	2994.13
237.45	2873.30
237.67	2654.17
237.88	3127.25
238.10	3370.96
238.32	2662.36
238.54	2654.17
238.76	2916.31
238.97	2834.39
239.19	2574.30
239.41	2766.81
239.63	3086.29
239.85	2824.15
240.06	2752.47
240.28	2682.84
240.50	3112.91
240.72	2967.51
240.93	2596.82
241.15	2740.18
241.37	2967.51
241.59	3200.98
241.81	2672.60
242.02	2756.57
242.24	3033.04
242.46	3045.33
242.68	2531.29
242.89	2686.94
243.11	3155.92
243.33	2963.41
243.55	2658.26
243.76	2688.98
243.98	2871.25
244.20	3086.29
244.42	2656.22
244.64	2713.56
244.85	2686.94
245.07	2799.57
245.29	2656.22
245.51	2680.79
245.72	2994.13
245.94	3211.22
246.16	2691.03
246.38	2770.90
246.59	2799.57
246.81	2795.48
247.03	2637.78
247.24	2574.30
247.46	2940.88
247.68	2987.99
247.90	2631.64
248.11	2627.54
248.33	3196.88
248.55	2998.23
248.77	2762.71
248.98	2797.53
249.20	3305.42
249.42	3028.95
249.64	2688.98
249.85	2656.22
250.07	2891.73
250.29	3170.26
250.50	2795.48
250.72	2670.55
250.94	3063.76
251.16	3407.82
251.37	2629.59
251.59	2721.75
251.81	3037.14
252.02	3272.65
252.24	2621.40
252.46	2803.67
252.68	2760.66
252.89	2861.01
253.11	2551.77
253.33	2852.82
253.54	3129.30
253.76	2729.94
253.98	2654.17
254.20	2547.67
254.41	2809.81
254.63	3069.91
254.85	2590.68
255.06	2850.77
255.28	3026.90
255.50	2889.68
255.71	2594.78
255.93	2543.58
256.15	2985.94
256.36	3098.58
256.58	2543.58
256.80	2605.02
257.02	2949.08
257.23	2891.73
257.45	2684.89
257.67	2746.33
257.88	2838.48
258.10	3028.95
258.32	2699.22
258.53	2760.66
258.75	3264.46
258.97	2824.15
259.18	2598.87
259.40	2586.58
259.62	3327.95
259.83	3225.55
260.05	2688.98
260.27	3524.55
260.48	3121.10
260.70	2832.34
260.92	2660.31
261.13	2734.04
261.35	3061.71
261.57	3209.17
261.78	2525.15
262.00	2660.31
262.22	3084.24
262.43	2865.11
262.65	2719.70
262.86	2705.37
263.08	3465.16
263.30	3000.27
263.51	2510.81
263.73	2623.45
263.95	3229.65
264.16	2828.24
264.38	2537.43
264.60	2635.74
264.81	3014.61
265.03	3205.07
265.25	3049.43
265.46	2547.67
265.68	3131.34
265.89	3135.44
266.11	2519.00
266.33	2674.65
266.54	3184.59
266.76	3114.96
266.98	2731.99
267.19	2781.14
267.41	3133.39
267.62	2906.07
267.84	2496.47
268.06	2768.85
268.27	3000.27
268.49	3110.86
268.70	2750.42
268.92	2654.17
269.14	2865.11
269.35	2803.67
269.57	2789.33
269.79	2824.15
270.00	2994.13
270.22	3346.38
270.43	2557.91
270.65	2559.96
270.87	3039.19
271.08	3030.99
271.30	2834.39
271.51	2693.08
271.73	3014.61
271.95	3196.88
272.16	2617.30
272.38	2797.53
272.59	2863.06
272.81	3055.57
273.02	2586.58
273.24	2795.48
273.46	3125.20
273.67	2756.57
273.89	2539.48
274.10	2729.94
274.32	3192.78
274.54	3065.81
274.75	2758.61
274.97	2842.58
275.18	3145.68
275.40	3119.06
275.61	2711.51
275.83	2856.92
276.05	2830.29
276.26	3000.27
276.48	2764.76
276.69	2852.82
276.91	2918.36
277.12	3299.28
277.34	2916.31
277.55	2910.16
277.77	2996.18
277.99	3041.23
278.20	2801.62
278.42	2719.70
278.63	2891.73
278.85	2813.91
279.06	2635.74
279.28	2910.16
279.49	3131.34
279.71	3129.30
279.93	2836.44
280.14	2826.20
280.36	2848.72
280.57	3108.82
280.79	2854.87
281.00	2750.42
281.22	2930.64
281.43	3110.86
281.65	2619.35
281.86	2676.70
282.08	2969.55
282.29	3301.33
282.51	2645.98
282.73	2760.66
282.94	2760.66
283.16	3080.14
283.37	2922.45
283.59	2840.53
283.80	3108.82
284.02	3000.27
284.23	2918.36
284.45	2811.86
284.66	2867.16
284.88	2883.54
285.09	2777.05
285.31	2861.01
285.52	3067.86
285.74	2783.19
285.95	2981.84
286.17	2850.77
286.38	3117.01
286.60	2889.68
286.81	2754.52
287.03	2772.95
287.24	2987.99
287.46	3123.15
287.67	2967.51
287.89	3102.67
288.10	2899.92
288.32	2934.74
288.53	2967.51
288.75	2850.77
288.96	3127.25
289.18	2906.07
289.39	2777.05
289.61	2832.34
289.82	3385.29
290.04	3272.65
290.25	2717.65
290.47	2893.78
290.68	3002.32
290.90	3184.59
291.11	2619.35
291.33	2912.21
291.54	2887.64
291.76	2809.81
291.97	2930.64
292.18	2852.82
292.40	2910.16
292.61	2867.16
292.83	3004.37
293.04	2795.48
293.26	3000.27
293.47	2912.21
293.69	2719.70
293.90	2672.60
294.12	3215.31
294.33	2979.79
294.55	2813.91
294.76	3024.85
294.97	3217.36
295.19	3360.72
295.40	2795.48
295.62	2879.44
295.83	3147.73
296.05	2863.06
296.26	2942.93
296.48	2772.95
296.69	2965.46
296.90	2971.60
297.12	2959.31
297.33	2981.84
297.55	3026.90
297.76	3045.33
297.98	2818.00
298.19	3008.47
298.41	2895.83
298.62	2820.05
298.83	2940.88
299.05	2887.64
299.26	2897.88
299.48	2830.29
299.69	2861.01
299.90	2779.09
300.12	2877.40
300.33	3133.39
300.55	2828.24
300.76	2811.86
300.98	2758.61
301.19	3129.30
301.40	2844.63
301.62	2842.58
301.83	3037.14
302.05	3065.81
302.26	2750.42
302.47	2832.34
302.69	2746.33
302.90	3010.51
303.12	2570.20
303.33	2879.44
303.54	3260.37
303.76	2840.53
303.97	2803.67
304.19	2936.79
304.40	2850.77
304.61	3035.09
304.83	2777.05
305.04	2897.88
305.26	3129.30
305.47	2883.54
305.68	2875.35
305.90	2707.41
306.11	3108.82
306.33	2906.07
306.54	2729.94
306.75	2748.37
306.97	2705.37
307.18	2830.29
307.39	2846.68
307.61	2895.83
307.82	2879.44
308.04	3084.24
308.25	2725.85
308.46	2879.44
308.68	2996.18
308.89	2936.79
309.10	2916.31
309.32	2867.16
309.53	2975.70
309.74	3022.80
309.96	2787.29
310.17	2971.60
310.39	2883.54
310.60	3123.15
310.81	2760.66
311.03	2738.13
311.24	3026.90
311.45	2977.75
311.67	2932.69
311.88	2906.07
312.09	2887.64
312.31	2904.02
312.52	2752.47
312.73	2828.24
312.95	2754.52
313.16	2793.43
313.37	2963.41
313.59	2928.60
313.80	3168.21
314.01	3233.74
314.23	2820.05
314.44	2717.65
314.65	2858.96
314.87	2879.44
315.08	2764.76
315.29	2875.35
315.51	2858.96
315.72	2742.23
315.93	2932.69
316.15	2815.96
316.36	2895.83
316.57	2979.79
316.79	2807.77
317.00	2760.66
317.21	3051.47
317.43	2850.77
317.64	2836.44
317.85	2764.76
318.07	2844.63
318.28	2897.88
318.49	2887.64
318.70	3076.05
318.92	3059.67
319.13	2949.08
319.34	2990.03
319.56	2758.61
319.77	3123.15
319.98	3106.77
320.20	3049.43
320.41	2977.75
320.62	3043.28
320.83	2824.15
321.05	2975.70
321.26	2836.44
321.47	2947.03
321.69	3106.77
321.90	2713.56
322.11	2822.10
322.32	3022.80
322.54	3274.70
322.75	2803.67
322.96	3545.03
323.18	2772.95
323.39	2678.74
323.60	2746.33
323.81	2850.77
324.03	2885.59
324.24	2955.22
324.45	2885.59
324.66	2693.08
324.88	3215.31
325.09	3209.17
325.30	2779.09
325.52	2809.81
325.73	3067.86
325.94	2820.05
326.15	2676.70
326.37	2650.07
326.58	3100.62
326.79	3299.28
327.00	2680.79
327.22	2836.44
327.43	2959.31
327.64	2793.43
327.85	2922.45
328.07	2795.48
328.28	3325.90
328.49	2908.12
328.70	2789.33
328.92	2750.42
329.13	2916.31
329.34	3164.11
329.55	2944.98
329.76	2928.60
329.98	2940.88
330.19	3123.15
330.40	2889.68
330.61	2865.11
330.83	3164.11
331.04	2906.07
331.25	2906.07
331.46	2852.82
331.68	2803.67
331.89	3200.98
332.10	2842.58
332.31	2742.23
332.52	2969.55
332.74	3190.74
332.95	2629.59
333.16	2764.76
333.37	3065.81
333.58	2832.34
333.80	2875.35
334.01	2572.25
334.22	2969.55
334.43	2928.60
334.64	2723.80
334.86	2672.60
335.07	2861.01
335.28	3268.56
335.49	2625.50
335.70	2897.88
335.92	3258.32
336.13	3366.86
336.34	2828.24
336.55	2861.01
336.76	3028.95
336.98	2615.26
337.19	2793.43
337.40	2947.03
337.61	3551.18
337.82	2967.51
338.04	2805.72
338.25	2660.31
338.46	2971.60
338.67	2875.35
338.88	2768.85
339.09	2746.33
339.31	2940.88
339.52	2750.42
339.73	2772.95
339.94	2856.92
340.15	3022.80
340.36	2977.75
340.58	2877.40
340.79	2699.22
341.00	3035.09
341.21	2676.70
341.42	2998.23
341.63	2795.48
341.85	3117.01
342.06	3028.95
342.27	2811.86
342.48	3045.33
342.69	2742.23
342.90	3039.19
343.12	3131.34
343.33	2760.66
343.54	3160.02
343.75	3196.88
343.96	2854.87
344.17	2664.41
344.38	3033.04
344.60	2848.72
344.81	2715.61
345.02	2725.85
345.23	3112.91
345.44	3463.12
345.65	2863.06
345.86	2848.72
346.07	3016.66
346.29	2877.40
346.50	2975.70
346.71	2875.35
346.92	3227.60
347.13	3313.61
347.34	2928.60
347.55	2703.32
347.76	2977.75
347.98	2721.75
348.19	2758.61
348.40	2967.51
348.61	2965.46
348.82	3241.93
349.03	2811.86
349.24	2699.22
349.45	3280.85
349.66	2678.74
349.88	2746.33
350.09	2807.77
350.30	3209.17
350.51	3114.96
350.72	2955.22
350.93	2736.09
351.14	2871.25
351.35	3059.67
351.56	2840.53
351.77	2836.44
351.99	3012.56
352.20	3217.36
352.41	2957.27
352.62	2607.06
352.83	3016.66
353.04	2983.89
353.25	2834.39
353.46	2762.71
353.67	3098.58
353.88	2674.65
354.09	2740.18
354.30	2818.00
354.52	3080.14
354.73	2934.74
354.94	2795.48
355.15	2848.72
355.36	3385.29
355.57	2924.50
355.78	2764.76
355.99	2744.28
356.20	2926.55
356.41	3243.98
356.62	2869.20
356.83	2916.31
357.04	3207.12
357.25	2697.17
357.46	2861.01
357.68	2625.50
357.89	2805.72
358.10	3016.66
358.31	2811.86
358.52	2809.81
358.73	2850.77
358.94	2848.72
359.15	2828.24
359.36	2881.49
359.57	2926.55
359.78	2877.40
359.99	2961.36
360.20	2723.80
360.41	2957.27
360.62	3100.62
360.83	2906.07
361.04	2875.35
361.25	2994.13
361.46	3215.31
361.67	2873.30
361.88	2834.39
362.09	3203.02
362.30	3129.30
362.51	2707.41
362.72	2789.33
362.93	3102.67
363.14	3047.38
363.35	2906.07
363.56	2744.28
363.78	3225.55
363.99	3133.39
364.20	2760.66
364.41	2910.16
364.62	3327.95
364.83	3100.62
365.04	2748.37
365.25	2832.34
365.46	3362.76
365.67	2803.67
365.88	2934.74
366.09	2783.19
366.30	2912.21
366.51	2965.46
366.72	2725.85
366.93	2844.63
367.14	2971.60
367.35	3254.22
367.56	2770.90
367.77	2992.08
367.98	3022.80
368.18	3000.27
368.39	2936.79
368.60	2756.57
368.81	3067.86
369.02	3004.37
369.23	2854.87
369.44	2705.37
369.65	2906.07
369.86	3063.76
370.07	2910.16
370.28	2711.51
370.49	3039.19
370.70	3035.09
370.91	2766.81
371.12	2639.83
371.33	3106.77
371.54	2932.69
371.75	2944.98
371.96	2590.68
372.17	3063.76
372.38	2940.88
372.59	2877.40
372.80	2770.90
373.01	2949.08
373.22	3069.91
373.43	2715.61
373.64	2688.98
373.85	3211.22
374.06	3317.71
374.26	3035.09
374.47	2918.36
374.68	3239.89
374.89	3028.95
375.10	2787.29
375.31	2861.01
375.52	3024.85
375.73	2934.74
375.94	2586.58
376.15	2908.12
376.36	2830.29
376.57	2969.55
376.78	2805.72
376.99	2875.35
377.20	3172.30
377.40	2865.11
377.61	3078.10
377.82	2705.37
378.03	3155.92
378.24	3110.86
378.45	2852.82
378.66	2801.62
378.87	2678.74
379.08	2783.19
379.29	2779.09
379.50	2934.74
379.71	2928.60
379.91	3129.30
380.12	2832.34
380.33	2897.88
380.54	2940.88
380.75	2969.55
380.96	2797.53
381.17	2844.63
381.38	2926.55
381.59	2996.18
381.80	2832.34
382.00	2916.31
382.21	3020.75
382.42	3239.89
382.63	3145.68
382.84	2922.45
383.05	3100.62
383.26	3162.06
383.47	2922.45
383.68	2785.24
383.88	3053.52
384.09	3065.81
384.30	3057.62
384.51	2863.06
384.72	2899.92
384.93	2725.85
385.14	2871.25
385.35	3035.09
385.55	2768.85
385.76	3219.41
385.97	2893.78
386.18	2652.12
386.39	2828.24
386.60	2877.40
386.81	2748.37
387.02	2707.41
387.22	2811.86
387.43	3069.91
387.64	2889.68
387.85	2975.70
388.06	3028.95
388.27	4153.28
388.48	7288.72
388.68	10794.84
388.89	13553.46
389.10	14794.53
389.31	14241.57
389.52	11257.68
389.73	9742.19
389.93	8849.27
390.14	8150.92
390.35	7430.03
390.56	6647.71
390.77	5593.00
390.98	4210.62
391.18	3665.86
391.39	3434.44
391.60	3000.27
391.81	3125.20
392.02	2910.16
392.23	3399.63
392.43	3039.19
392.64	2992.08
392.85	2850.77
393.06	3291.09
393.27	2944.98
393.47	2783.19
393.68	2885.59
393.89	2942.93
394.10	3198.93
394.31	2815.96
394.52	2805.72
394.72	2877.40
394.93	3239.89
395.14	2785.24
395.35	2854.87
395.56	2891.73
395.76	2961.36
395.97	2807.77
396.18	3016.66
396.39	2961.36
396.60	3553.23
396.80	3233.74
397.01	3041.23
397.22	3053.52
397.43	3157.97
397.64	2748.37
397.84	2893.78
398.05	3327.95
398.26	2910.16
398.47	2873.30
398.67	3041.23
398.88	2914.26
399.09	3104.72
399.30	2799.57
399.51	2881.49
399.71	2844.63
399.92	2979.79
400.13	2871.25
400.34	2869.20
400.54	3000.27
400.75	3342.28
400.96	3016.66
401.17	3102.67
401.37	3047.38
401.58	2957.27
401.79	2873.30
402.00	2938.84
402.21	3436.49
402.41	3170.26
402.62	3063.76
402.83	3274.70
403.04	3344.33
403.24	3588.04
403.45	3037.14
403.66	3071.95
403.87	3246.03
404.07	3252.17
404.28	3100.62
404.49	3184.59
404.70	3041.23
404.90	3094.48
405.11	2809.81
405.32	2957.27
405.52	2834.39
405.73	2879.44
405.94	2807.77
406.15	2803.67
406.35	3090.38
406.56	3198.93
406.77	2914.26
406.98	2838.48
407.18	2928.60
407.39	3227.60
407.60	2883.54
407.80	2926.55
408.01	2906.07
408.22	3055.57
408.43	2734.04
408.63	2930.64
408.84	3135.44
409.05	3117.01
409.25	2797.53
409.46	2772.95
409.67	2883.54
409.88	2818.00
410.08	2850.77
410.29	2758.61
410.50	3180.50
410.70	3096.53
410.91	2766.81
411.12	2930.64
411.32	3039.19
411.53	2865.11
411.74	2889.68
411.95	2930.64
412.15	3055.57
412.36	3057.62
412.57	2971.60
412.77	3090.38
412.98	2955.22
413.19	2875.35
413.39	2932.69
413.60	2924.50
413.81	3231.69
414.01	2783.19
414.22	2906.07
414.43	2987.99
414.63	2820.05
414.84	3172.30
415.05	2813.91
415.25	2709.46
415.46	3121.10
415.67	2850.77
415.87	2932.69
416.08	2811.86
416.29	2854.87
416.49	3074.00
416.70	2793.43
416.91	2861.01
417.11	2985.94
417.32	3080.14
417.53	2920.40
417.73	2926.55
417.94	2965.46
418.15	3057.62
418.35	2901.97
418.56	2795.48
418.77	3434.44
418.97	3010.51
419.18	2901.97
419.38	2568.15
419.59	2979.79
419.80	3235.79
420.00	2777.05
420.21	2775.00
420.42	3223.50
420.62	3012.56
420.83	2834.39
421.04	2787.29
421.24	2918.36
421.45	3196.88
421.65	2944.98
421.86	2779.09
422.07	3186.64
422.27	3092.43
422.48	2815.96
422.69	2713.56
422.89	3026.90
423.10	2897.88
423.30	2813.91
423.51	2963.41
423.72	3106.77
423.92	3114.96
424.13	2779.09
424.33	2842.58
424.54	3160.02
424.75	3067.86
424.95	3024.85
425.16	2766.81
425.36	3026.90
425.57	3198.93
425.78	2938.84
425.98	2928.60
426.19	3018.71
426.39	2850.77
426.60	2912.21
426.81	2998.23
427.01	3063.76
427.22	2885.59
427.42	2645.98
427.63	2766.81
427.83	3078.10
428.04	3276.75
428.25	2885.59
428.45	2924.50
428.66	3147.73
428.86	2961.36
429.07	2877.40
429.28	2783.19
429.48	3012.56
429.69	2869.20
429.89	2883.54
430.10	2738.13
430.30	3119.06
430.51	3211.22
430.71	2746.33
430.92	2797.53
431.13	2856.92
431.33	3084.24
431.54	2895.83
431.74	2975.70
431.95	3385.29
432.15	2842.58
432.36	2883.54
432.56	2875.35
432.77	3338.19
432.98	3319.76
433.18	2865.11
433.39	2746.33
433.59	2934.74
433.80	3366.86
434.00	3047.38
434.21	2891.73
434.41	2914.26
434.62	3434.44
434.82	2752.47
435.03	2699.22
435.23	3020.75
435.44	2676.70
435.64	2815.96
435.85	2904.02
436.06	3149.78
436.26	3180.50
436.47	2836.44
436.67	2844.63
436.88	2957.27
437.08	3200.98
437.29	3037.14
437.49	2914.26
437.70	3172.30
437.90	2953.17
438.11	3082.19
438.31	2906.07
438.52	3313.61
438.72	3248.08
438.93	3270.61
439.13	2883.54
439.34	3149.78
439.54	2957.27
439.75	3067.86
439.95	2967.51
440.16	2760.66
440.36	3018.71
440.57	2893.78
440.77	2762.71
440.98	2965.46
441.18	3063.76
441.39	2781.14
441.59	2688.98
441.80	3381.20
442.00	3016.66
442.21	3006.42
442.41	2756.57
442.62	3180.50
442.82	2854.87
443.02	2818.00
443.23	2791.38
443.43	2834.39
443.64	3182.54
443.84	2744.28
444.05	2863.06
444.25	2977.75
444.46	2863.06
444.66	2803.67
444.87	3125.20
445.07	2693.08
445.28	3014.61
445.48	3014.61
445.69	2893.78
445.89	3389.39
446.09	2928.60
446.30	3114.96
446.50	3248.08
446.71	4745.14
446.91	5902.25
447.12	6555.55
447.32	6922.13
447.53	6946.71
447.73	5832.62
447.93	4995.00
448.14	4816.82
448.34	4843.45
448.55	4106.18
448.75	4001.73
448.96	3895.24
449.16	3600.33
449.36	3538.89
449.57	3178.45
449.77	2934.74
449.98	2949.08
450.18	3160.02
450.39	2836.44
450.59	3033.04
450.79	2928.60
451.00	2904.02
451.20	3004.37
451.41	2824.15
451.61	3117.01
451.81	2971.60
452.02	2787.29
452.22	2922.45
452.43	2897.88
452.63	2846.68
452.84	2953.17
453.04	2822.10
453.24	2987.99
453.45	2867.16
453.65	2891.73
453.86	2897.88
454.06	2987.99
454.26	2961.36
454.47	2770.90
454.67	3037.14
454.87	3114.96
455.08	2856.92
455.28	2994.13
455.49	2899.92
455.69	2840.53
455.89	3368.91
456.10	2983.89
456.30	2873.30
456.51	3131.34
456.71	3069.91
456.91	2942.93
457.12	2844.63
457.32	3057.62
457.52	2752.47
457.73	2975.70
457.93	2977.75
458.14	2951.12
458.34	2680.79
458.54	2852.82
458.75	2799.57
458.95	3135.44
459.15	3149.78
459.36	2936.79
459.56	2813.91
459.76	3330.00
459.97	2969.55
460.17	2832.34
460.37	3018.71
460.58	2979.79
460.78	3094.48
460.99	2879.44
461.19	2785.24
461.39	2818.00
461.60	2973.65
461.80	2879.44
462.00	2809.81
462.21	3012.56
462.41	2828.24
462.61	2729.94
462.82	2668.50
463.02	3139.54
463.22	2967.51
463.43	2893.78
463.63	2807.77
463.83	3153.87
464.04	2987.99
464.24	2893.78
464.44	2768.85
464.64	3055.57
464.85	3104.72
465.05	2914.26
465.25	2863.06
465.46	2858.96
465.66	3078.10
465.86	2910.16
466.07	2834.39
466.27	2875.35
466.47	2744.28
466.68	2684.89
466.88	2996.18
467.08	3080.14
467.29	3147.73
467.49	2883.54
467.69	2934.74
467.89	3117.01
468.10	2936.79
468.30	2916.31
468.50	3020.75
468.71	3094.48
468.91	2797.53
469.11	2994.13
469.31	2959.31
469.52	2824.15
469.72	3334.09
469.92	3114.96
470.13	2852.82
470.33	3010.51
470.53	2987.99
470.73	3155.92
470.94	3526.60
471.14	3639.24
471.34	4169.66
471.54	3837.89
471.75	3592.14
471.95	3313.61
472.15	3364.81
472.36	3311.57
472.56	3282.89
472.76	3413.96
472.96	3411.92
473.17	3067.86
473.37	3039.19
473.57	2985.94
473.77	3094.48
473.98	2889.68
474.18	2731.99
474.38	3547.08
474.58	2885.59
474.79	2770.90
474.99	3000.27
475.19	3223.50
475.39	2840.53
475.60	2963.41
475.80	2881.49
476.00	3035.09
476.20	2957.27
476.41	2912.21
476.61	2861.01
476.81	3227.60
477.01	2889.68
477.21	3045.33
477.42	2979.79
477.62	2910.16
477.82	3074.00
478.02	2820.05
478.23	2953.17
478.43	2824.15
478.63	2893.78
478.83	2899.92
479.03	2938.84
479.24	3186.64
479.44	3319.76
479.64	2746.33
479.84	2703.32
480.04	2832.34
480.25	3157.97
480.45	2766.81
480.65	2871.25
480.85	3276.75
481.06	2881.49
481.26	2928.60
481.46	2910.16
481.66	3098.58
481.86	2791.38
482.06	3012.56
482.27	2906.07
482.47	2813.91
482.67	3094.48
482.87	2893.78
483.07	2895.83
483.28	2848.72
483.48	2770.90
483.68	2838.48
483.88	2668.50
484.08	2674.65
484.29	2811.86
484.49	2928.60
484.69	2727.89
484.89	3252.17
485.09	3069.91
485.29	2809.81
485.50	2983.89
485.70	2961.36
485.90	3221.45
486.10	2969.55
486.30	2848.72
486.50	3207.12
486.71	3051.47
486.91	2930.64
487.11	3014.61
487.31	2744.28
487.51	3026.90
487.71	2805.72
487.91	2832.34
488.12	2844.63
488.32	2566.10
488.52	2826.20
488.72	2590.68
488.92	2852.82
489.12	3266.51
489.32	2985.94
489.53	2871.25
489.73	2748.37
489.93	3368.91
490.13	2813.91
490.33	2674.65
490.53	2992.08
490.73	3200.98
490.94	2670.55
491.14	2947.03
491.34	3047.38
491.54	3098.58
491.74	3676.10
491.94	4161.47
492.14	4671.42
492.34	4782.01
492.54	4366.27
492.75	3737.54
492.95	3905.48
493.15	3649.48
493.35	3526.60
493.55	3450.83
493.75	3311.57
493.95	3430.35
494.15	3053.52
494.35	2863.06
494.56	3026.90
494.76	2901.97
494.96	2942.93
495.16	2852.82
495.36	2961.36
495.56	2998.23
495.76	2865.11
495.96	2885.59
496.16	2871.25
496.36	3258.32
496.56	2809.81
496.77	2947.03
496.97	2965.46
497.17	3297.23
497.37	2684.89
497.57	2983.89
497.77	2959.31
497.97	2815.96
498.17	2863.06
498.37	2768.85
498.57	3080.14
498.77	2844.63
498.97	3045.33
499.17	3147.73
499.38	2963.41
499.58	3053.52
499.78	3076.05
499.98	3018.71
500.18	2944.98
500.38	2799.57
500.58	3090.38
500.78	3428.30
500.98	5550.00
501.18	7460.75
501.38	8783.74
501.58	9748.33
501.78	9547.63
501.98	8124.29
502.18	6721.43
502.38	5849.00
502.58	5816.23
502.78	5056.43
502.98	4913.08
503.18	4616.12
503.38	4425.66
503.59	3827.65
503.79	3618.76
503.99	3358.67
504.19	3452.88
504.39	3499.98
504.59	3348.43
504.79	3223.50
504.99	3418.06
505.19	3213.26
505.39	3020.75
505.59	3231.69
505.79	3383.24
505.99	3069.91
506.19	2871.25
506.39	3010.51
506.59	2990.03
506.79	2924.50
506.99	2979.79
507.19	2879.44
507.39	2987.99
507.59	2744.28
507.79	2754.52
507.99	2795.48
508.19	2977.75
508.39	2975.70
508.59	2813.91
508.79	2983.89
508.99	3332.05
509.19	2897.88
509.39	2918.36
509.59	2746.33
509.79	2920.40
509.99	3047.38
510.19	2990.03
510.39	2955.22
510.59	3061.71
510.79	2879.44
510.99	2727.89
511.19	2795.48
511.39	3233.74
511.59	3162.06
511.79	2934.74
511.99	2815.96
512.19	3297.23
512.38	3067.86
512.58	2770.90
512.78	2789.33
512.98	3286.99
513.18	3248.08
513.38	2756.57
513.58	2949.08
513.78	3006.42
513.98	2904.02
514.18	2836.44
514.38	2850.77
514.58	3051.47
514.78	2840.53
514.98	2742.23
515.18	2861.01
515.38	2746.33
515.58	3307.47
515.78	2813.91
515.98	2942.93
516.18	3133.39
516.38	2959.31
516.57	2793.43
516.77	2705.37
516.97	3033.04
517.17	2869.20
517.37	2621.40
517.57	2969.55
517.77	3035.09
517.97	2854.87
518.17	2904.02
518.37	2764.76
518.57	2729.94
518.77	2856.92
518.97	2822.10
519.16	2926.55
519.36	3153.87
519.56	2887.64
519.76	2783.19
519.96	2877.40
520.16	3250.13
520.36	2715.61
520.56	3039.19
520.76	2807.77
520.96	3012.56
521.16	3094.48
521.35	3047.38
521.55	2963.41
521.75	3045.33
521.95	2889.68
522.15	2762.71
522.35	2727.89
522.55	2781.14
522.75	3119.06
522.95	2779.09
523.14	2709.46
523.34	3086.29
523.54	2947.03
523.74	2951.12
523.94	2832.34
524.14	2744.28
524.34	3041.23
524.54	3026.90
524.73	2797.53
524.93	3174.35
525.13	2983.89
525.33	2770.90
525.53	3178.45
525.73	3112.91
525.93	3035.09
526.13	2865.11
526.32	2676.70
526.52	3157.97
526.72	3037.14
526.92	2824.15
527.12	2787.29
527.32	2725.85
527.52	3061.71
527.71	2846.68
527.91	2834.39
528.11	2953.17
528.31	2832.34
528.51	2840.53
528.71	2926.55
528.90	3016.66
529.10	3147.73
529.30	2965.46
529.50	2574.30
529.70	3125.20
529.90	2904.02
530.09	2856.92
530.29	2770.90
530.49	2832.34
530.69	3489.74
530.89	2957.27
531.09	2936.79
531.28	2928.60
531.48	3198.93
531.68	2875.35
531.88	2987.99
532.08	3157.97
532.28	3026.90
532.47	2949.08
532.67	2936.79
532.87	3098.58
533.07	2772.95
533.27	2912.21
533.46	2895.83
533.66	2996.18
533.86	2949.08
534.06	2910.16
534.26	2854.87
534.45	2820.05
534.65	3133.39
534.85	3016.66
535.05	2805.72
535.25	3205.07
535.44	2695.13
535.64	2901.97
535.84	2881.49
536.04	2899.92
536.24	2836.44
536.43	2820.05
536.63	2762.71
536.83	2922.45
537.03	2996.18
537.22	2695.13
537.42	2701.27
537.62	3080.14
537.82	2912.21
538.02	3041.23
538.21	3012.56
538.41	3430.35
538.61	3039.19
538.81	2811.86
539.00	2979.79
539.20	2740.18
539.40	2932.69
539.60	2791.38
539.79	3033.04
539.99	2998.23
540.19	2822.10
540.39	2858.96
540.58	2926.55
540.78	3129.30
540.98	2985.94
541.18	3086.29
541.37	2926.55
541.57	2987.99
541.77	3082.19
541.97	2793.43
542.16	2746.33
542.36	2848.72
542.56	2865.11
542.76	3084.24
542.95	3035.09
543.15	3057.62
543.35	3139.54
543.54	2793.43
543.74	2744.28
543.94	3252.17
544.14	2863.06
544.33	2983.89
544.53	2861.01
544.73	2924.50
544.93	2828.24
545.12	2848.72
545.32	2811.86
545.52	2897.88
545.71	2801.62
545.91	2904.02
546.11	2793.43
546.30	2766.81
546.50	2920.40
546.70	2918.36
546.90	2885.59
547.09	2797.53
547.29	3037.14
547.49	3006.42
547.68	2834.39
547.88	2815.96
548.08	3137.49
548.27	3260.37
548.47	2826.20
548.67	2861.01
548.87	3096.53
549.06	2840.53
549.26	2834.39
549.46	3100.62
549.65	2869.20
549.85	2914.26
550.05	2869.20
550.24	2746.33
550.44	2965.46
550.64	2895.83
550.83	2865.11
551.03	3170.26
551.23	3172.30
551.42	2879.44
551.62	2891.73
551.82	3014.61
552.01	2930.64
552.21	3043.28
552.41	2910.16
552.60	3123.15
552.80	3030.99
553.00	2865.11
553.19	2904.02
553.39	3284.94
553.59	2805.72
553.78	3000.27
553.98	2861.01
554.17	2807.77
554.37	3024.85
554.57	2926.55
554.76	2764.76
554.96	2951.12
555.16	2973.65
555.35	2891.73
555.55	3049.43
555.75	3059.67
555.94	3135.44
556.14	2621.40
556.33	2881.49
556.53	3008.47
556.73	2973.65
556.92	2881.49
557.12	2869.20
557.32	3291.09
557.51	3231.69
557.71	2930.64
557.90	3069.91
558.10	3168.21
558.30	2926.55
558.49	2869.20
558.69	2822.10
558.88	3096.53
559.08	2963.41
559.28	2820.05
559.47	2922.45
559.67	3059.67
559.86	3342.28
560.06	2904.02
560.26	2820.05
560.45	3074.00
560.65	2899.92
560.84	3057.62
561.04	2695.13
561.24	3100.62
561.43	2861.01
561.63	3088.34
561.82	2942.93
562.02	3164.11
562.22	2828.24
562.41	2777.05
562.61	2869.20
562.80	2807.77
563.00	3368.91
563.19	2924.50
563.39	2963.41
563.59	3139.54
563.78	2854.87
563.98	2570.20
564.17	2813.91
564.37	2648.02
564.56	2893.78
564.76	2799.57
564.96	2985.94
565.15	3035.09
565.35	3342.28
565.54	2947.03
565.74	2879.44
565.93	3078.10
566.13	3094.48
566.32	2975.70
566.52	2979.79
566.71	2951.12
566.91	3110.86
567.11	2990.03
567.30	2805.72
567.50	2987.99
567.69	3016.66
567.89	2758.61
568.08	2711.51
568.28	3026.90
568.47	2744.28
568.67	2938.84
568.86	2852.82
569.06	3174.35
569.25	2897.88
569.45	2809.81
569.64	2893.78
569.84	2928.60
570.04	3033.04
570.23	2791.38
570.43	2852.82
570.62	3086.29
570.82	3237.84
571.01	2715.61
571.21	2740.18
571.40	2791.38
571.60	3131.34
571.79	2920.40
571.99	2881.49
572.18	2799.57
572.38	2967.51
572.57	2908.12
572.77	2875.35
572.96	3368.91
573.16	3002.32
573.35	2891.73
573.55	3049.43
573.74	3049.43
573.94	2969.55
574.13	2822.10
574.33	3020.75
574.52	3196.88
574.71	3051.47
574.91	2936.79
575.10	2707.41
575.30	2826.20
575.49	2830.29
575.69	2824.15
575.88	2928.60
576.08	2914.26
576.27	3074.00
576.47	2895.83
576.66	2973.65
576.86	3231.69
577.05	2990.03
577.25	2977.75
577.44	3057.62
577.64	2875.35
577.83	3123.15
578.02	2787.29
578.22	2977.75
578.41	3366.86
578.61	2942.93
578.80	2670.55
579.00	2838.48
579.19	3037.14
579.39	3033.04
579.58	3035.09
579.77	2914.26
579.97	3182.54
580.16	3174.35
580.36	3057.62
580.55	2967.51
580.75	3098.58
580.94	2936.79
581.13	3092.43
581.33	3160.02
581.52	3049.43
581.72	3305.42
581.91	3010.51
582.11	2873.30
582.30	3033.04
582.49	3016.66
582.69	3153.87
582.88	2836.44
583.08	3020.75
583.27	3182.54
583.47	2977.75
583.66	2916.31
583.85	2785.24
584.05	2955.22
584.24	2971.60
584.44	2869.20
584.63	3205.07
584.82	3166.16
585.02	3149.78
585.21	3094.48
585.41	3071.95
585.60	3026.90
585.79	3061.71
585.99	3178.45
586.18	3168.21
586.37	3999.68
586.57	5699.50
586.76	16635.65
586.96	36079.07
587.15	48805.14
587.34	57158.81
587.54	61455.45
587.73	54670.53
587.93	39013.80
588.12	29627.96
588.31	24313.48
588.51	21364.41
588.70	19689.17
588.89	17342.20
589.09	14618.40
589.28	12652.35
589.47	9854.83
589.67	7612.30
589.86	6086.56
590.06	4577.21
590.25	4124.61
590.44	3538.89
590.64	3223.50
590.83	3213.26
591.02	3221.45
591.22	2936.79
591.41	2967.51
591.60	3000.27
591.80	3407.82
591.99	2811.86
592.18	2858.96
592.38	3203.02
592.57	2863.06
592.76	2906.07
592.96	2914.26
593.15	2938.84
593.34	3074.00
593.54	2832.34
593.73	3069.91
593.92	3065.81
594.12	3151.82
594.31	2987.99
594.50	3059.67
594.70	3119.06
594.89	3520.46
595.08	2764.76
595.28	3051.47
595.47	3530.70
595.66	3098.58
595.86	2840.53
596.05	2775.00
596.24	2865.11
596.43	3280.85
596.63	2996.18
596.82	2963.41
597.01	3053.52
597.21	3278.80
597.40	2920.40
597.59	2828.24
597.79	3000.27
597.98	3102.67
598.17	2916.31
598.36	2858.96
598.56	3139.54
598.75	2934.74
598.94	2895.83
599.14	2906.07
599.33	2942.93
599.52	3192.78
599.71	2963.41
599.91	2879.44
600.10	3129.30
600.29	3024.85
600.48	2987.99
600.68	2908.12
600.87	3061.71
601.06	2930.64
601.26	2947.03
601.45	2981.84
601.64	2906.07
601.83	3278.80
602.03	2748.37
602.22	2756.57
602.41	3149.78
602.60	3420.11
602.80	2983.89
602.99	2922.45
603.18	2893.78
603.37	3033.04
603.57	2772.95
603.76	2949.08
603.95	3182.54
604.14	2877.40
604.34	2789.33
604.53	2803.67
604.72	3024.85
604.91	3057.62
605.10	2912.21
605.30	2746.33
605.49	3350.48
605.68	3170.26
605.87	2893.78
606.07	2799.57
606.26	3074.00
606.45	3135.44
606.64	2938.84
606.84	2826.20
607.03	2983.89
607.22	3121.10
607.41	2906.07
607.60	2809.81
607.80	3184.59
607.99	2953.17
608.18	2942.93
608.37	2942.93
608.56	2850.77
608.76	3211.22
608.95	3088.34
609.14	2832.34
609.33	3248.08
609.52	3262.41
609.72	3012.56
609.91	3035.09
610.10	2979.79
610.29	3223.50
610.48	2971.60
610.68	2944.98
610.87	2981.84
611.06	3139.54
611.25	2936.79
611.44	2987.99
611.63	2965.46
611.83	3276.75
612.02	2723.80
612.21	2983.89
612.40	2623.45
612.59	2783.19
612.79	2750.42
612.98	2916.31
613.17	3321.81
613.36	2969.55
613.55	3012.56
613.74	2861.01
613.93	2983.89
614.13	3004.37
614.32	3033.04
614.51	2877.40
614.70	2969.55
614.89	2965.46
615.08	2938.84
615.28	3368.91
615.47	2744.28
615.66	3051.47
615.85	2893.78
616.04	2975.70
616.23	2916.31
616.42	2983.89
616.62	2824.15
616.81	2922.45
617.00	2975.70
617.19	3057.62
617.38	2916.31
617.57	2912.21
617.76	3080.14
617.95	3106.77
618.15	3012.56
618.34	3123.15
618.53	2772.95
618.72	3203.02
618.91	3045.33
619.10	2936.79
619.29	2965.46
619.48	3045.33
619.68	2705.37
619.87	2875.35
620.06	2811.86
620.25	3028.95
620.44	2877.40
620.63	2762.71
620.82	3035.09
621.01	2996.18
621.20	2863.06
621.39	2992.08
621.59	3096.53
621.78	2920.40
621.97	2949.08
622.16	3080.14
622.35	3053.52
622.54	3100.62
622.73	2951.12
622.92	2582.49
623.11	3108.82
623.30	2973.65
623.49	2949.08
623.68	2729.94
623.88	3211.22
624.07	2885.59
624.26	2822.10
624.45	2852.82
624.64	2895.83
624.83	3049.43
625.02	2875.35
625.21	2899.92
625.40	3016.66
625.59	3203.02
625.78	2963.41
625.97	2959.31
626.16	3186.64
626.35	3098.58
626.54	2887.64
626.74	3090.38
626.93	2955.22
627.12	2881.49
627.31	2971.60
627.50	2959.31
627.69	3211.22
627.88	2922.45
628.07	2785.24
628.26	2631.64
628.45	2875.35
628.64	2842.58
628.83	2854.87
629.02	2777.05
629.21	3028.95
629.40	3006.42
629.59	2801.62
629.78	2852.82
629.97	3024.85
630.16	3010.51
630.35	2836.44
630.54	2918.36
630.73	2844.63
630.92	3033.04
631.11	2725.85
631.30	2944.98
631.49	3139.54
631.68	2928.60
631.87	2920.40
632.06	2693.08
632.25	3276.75
632.44	3022.80
632.63	2856.92
632.82	2830.29
633.01	2881.49
633.20	2979.79
633.39	2858.96
633.58	2760.66
633.77	3033.04
633.96	3063.76
634.15	2865.11
634.34	2934.74
634.53	2985.94
634.72	2893.78
634.91	2676.70
635.10	2908.12
635.29	3106.77
635.48	3004.37
635.67	2723.80
635.86	2734.04
636.05	3243.98
636.24	3028.95
636.43	2922.45
636.62	2932.69
636.81	2691.03
637.00	2887.64
637.19	2932.69
637.38	2846.68
637.57	2869.20
637.76	2947.03
637.95	2967.51
638.14	2910.16
638.33	2951.12
638.52	2961.36
638.71	2762.71
638.89	2844.63
639.08	3473.36
639.27	3223.50
639.46	3071.95
639.65	3356.62
639.84	3456.97
640.03	3524.55
640.22	3203.02
640.41	3248.08
640.60	3106.77
640.79	3137.49
640.98	2965.46
641.17	3110.86
641.36	3162.06
641.55	3143.63
641.74	2818.00
641.92	2838.48
642.11	2807.77
642.30	2951.12
642.49	2688.98
642.68	2811.86
642.87	3102.67
643.06	3155.92
643.25	2787.29
643.44	2752.47
643.63	2996.18
643.82	3237.84
644.00	2740.18
644.19	2879.44
644.38	2871.25
644.57	3061.71
644.76	2908.12
644.95	2858.96
645.14	3014.61
645.33	2957.27
645.52	2944.98
645.71	2736.09
645.89	2852.82
646.08	2965.46
646.27	2822.10
646.46	3047.38
646.65	2777.05
646.84	3000.27
647.03	2787.29
647.22	2951.12
647.40	3166.16
647.59	2918.36
647.78	2717.65
647.97	2867.16
648.16	2840.53
648.35	3151.82
648.54	3092.43
648.73	2828.24
648.91	3160.02
649.10	2994.13
649.29	2807.77
649.48	2858.96
649.67	3063.76
649.86	2990.03
650.05	2910.16
650.23	3082.19
650.42	2818.00
650.61	3223.50
650.80	3057.62
650.99	3147.73
651.18	3155.92
651.36	3172.30
651.55	2805.72
651.74	3028.95
651.93	3014.61
652.12	2971.60
652.31	2861.01
652.49	2944.98
652.68	2930.64
652.87	3178.45
653.06	2901.97
653.25	3057.62
653.44	2981.84
653.62	3360.72
653.81	2836.44
654.00	2901.97
654.19	3170.26
654.38	3467.21
654.56	2922.45
654.75	2815.96
654.94	3078.10
655.13	2961.36
655.32	2803.67
655.51	2977.75
655.69	2914.26
655.88	3117.01
656.07	2658.26
656.26	2922.45
656.45	2820.05
656.63	2975.70
656.82	2934.74
657.01	3057.62
657.20	2852.82
657.38	3262.41
657.57	2828.24
657.76	2631.64
657.95	3082.19
658.14	2850.77
658.32	2873.30
658.51	2779.09
658.70	3053.52
658.89	3053.52
659.08	2881.49
659.26	2998.23
659.45	2844.63
659.64	3135.44
659.83	2779.09
660.01	3243.98
660.20	3049.43
660.39	3276.75
660.58	2566.10
660.76	2924.50
660.95	2723.80
661.14	2926.55
661.33	2680.79
661.51	2770.90
661.70	2930.64
661.89	3078.10
662.08	2881.49
662.26	2658.26
662.45	2791.38
662.64	3284.94
662.83	3033.04
663.01	2725.85
663.20	2867.16
663.39	3262.41
663.58	2920.40
663.76	2832.34
663.95	2983.89
664.14	2815.96
664.32	2828.24
664.51	2734.04
664.70	2691.03
664.89	3047.38
665.07	2752.47
665.26	3020.75
665.45	2910.16
665.64	2998.23
665.82	2854.87
666.01	2975.70
666.20	2797.53
666.38	3190.74
666.57	3135.44
666.76	4761.53
666.95	10985.30
667.13	17778.42
667.32	21440.18
667.51	24626.82
667.69	24931.97
667.88	21155.52
668.07	15339.29
668.25	12955.45
668.44	11382.61
668.63	9662.32
668.81	8476.54
669.00	7464.85
669.19	6700.95
669.38	5998.50
669.56	5048.24
669.75	4413.37
669.94	3946.44
670.12	3368.91
670.31	3108.82
670.50	3110.86
670.68	3196.88
670.87	3147.73
671.06	2916.31
671.24	2934.74
671.43	3184.59
671.62	3057.62
671.80	2801.62
671.99	2934.74
672.18	2922.45
672.36	3141.58
672.55	3047.38
672.74	2883.54
672.92	2922.45
673.11	3014.61
673.29	2797.53
673.48	3037.14
673.67	2953.17
673.85	3033.04
674.04	2865.11
674.23	2904.02
674.41	3336.14
674.60	2785.24
674.79	2623.45
674.97	2648.02
675.16	3164.11
675.34	3217.36
675.53	2727.89
675.72	2918.36
675.90	3297.23
676.09	2904.02
676.28	2961.36
676.46	2729.94
676.65	3108.82
676.83	2795.48
677.02	2947.03
677.21	2961.36
677.39	3051.47
677.58	2885.59
677.77	2854.87
677.95	2820.05
678.14	2942.93
678.32	2889.68
678.51	2957.27
678.70	3145.68
678.88	2824.15
679.07	3033.04
679.25	2850.77
679.44	2873.30
679.63	2799.57
679.81	2967.51
680.00	3037.14
680.18	2934.74
680.37	3321.81
680.55	2967.51
680.74	2633.69
680.93	2686.94
681.11	3047.38
681.30	2963.41
681.48	2818.00
681.67	2842.58
681.85	3047.38
682.04	2932.69
682.23	2996.18
682.41	3002.32
682.60	3008.47
682.78	3047.38
682.97	2783.19
683.15	2877.40
683.34	3049.43
683.53	3309.52
683.71	2750.42
683.90	2908.12
684.08	3250.13
684.27	2963.41
684.45	2910.16
684.64	3069.91
684.82	3041.23
685.01	3053.52
685.19	2895.83
685.38	3141.58
685.57	3045.33
685.75	2869.20
685.94	2828.24
686.12	2815.96
686.31	2865.11
686.49	3364.81
686.68	2619.35
686.86	2936.79
687.05	2967.51
687.23	3223.50
687.42	2811.86
687.60	2666.46
687.79	3100.62
687.97	3280.85
688.16	2938.84
688.34	3098.58
688.53	2670.55
688.71	3110.86
688.90	3176.40
689.08	2908.12
689.27	2680.79
689.45	3149.78
689.64	2953.17
689.82	2942.93
690.01	3106.77
690.19	2975.70
690.38	2889.68
690.56	3000.27
690.75	2908.12
690.93	2891.73
691.12	2787.29
691.30	2869.20
691.49	2963.41
691.67	2910.16
691.86	3141.58
692.04	2850.77
692.23	2938.84
692.41	3016.66
692.60	3131.34
692.78	2971.60
692.97	2996.18
693.15	3110.86
693.34	3106.77
693.52	3153.87
693.71	2881.49
693.89	2926.55
694.08	2672.60
694.26	2996.18
694.44	3153.87
694.63	3080.14
694.81	2758.61
695.00	2836.44
695.18	3239.89
695.37	3463.12
695.55	2944.98
695.74	2867.16
695.92	2947.03
696.10	3176.40
696.29	2734.04
696.47	2897.88
696.66	2746.33
696.84	2787.29
697.03	2906.07
697.21	3119.06
697.40	4435.90
697.58	3114.96
697.76	2873.30
697.95	2805.72
698.13	2852.82
698.32	2875.35
698.50	2930.64
698.68	2850.77
698.87	3057.62
699.05	3268.56
699.24	2848.72
699.42	2752.47
699.61	3037.14
699.79	3012.56
699.97	2856.92
700.16	2754.52
700.34	2772.95
700.53	2879.44
700.71	3170.26
700.89	3033.04
701.08	3014.61
701.26	2965.46
701.45	3289.04
701.63	2824.15
701.81	2912.21
702.00	2893.78
702.18	2922.45
702.37	2738.13
702.55	3176.40
702.73	3149.78
702.92	2920.40
703.10	3006.42
703.28	3149.78
703.47	2877.40
703.65	3149.78
703.84	3043.28
704.02	2901.97
704.20	3299.28
704.39	2795.48
704.57	2797.53
704.75	3074.00
704.94	3096.53
705.12	3002.32
705.30	3334.09
705.49	6635.42
705.67	13008.70
705.86	18441.96
706.04	20780.74
706.22	22695.59
706.41	22224.56
706.59	16860.93
706.77	13147.96
706.96	11474.77
707.14	10528.61
707.32	8894.33
707.51	8105.86
707.69	6543.26
707.87	5480.36
708.06	4552.63
708.24	3925.96
708.42	3532.75
708.61	3801.03
708.79	2975.70
708.97	3018.71
709.16	3086.29
709.34	3069.91
709.52	2932.69
709.71	2951.12
709.89	3151.82
710.07	2783.19
710.26	2772.95
710.44	2926.55
710.62	3108.82
710.80	2996.18
710.99	3051.47
711.17	3033.04
711.35	2828.24
711.54	2879.44
711.72	3100.62
711.90	2985.94
712.09	3055.57
712.27	2912.21
712.45	3047.38
712.63	2854.87
712.82	3012.56
713.00	2963.41
713.18	3061.71
713.37	3012.56
713.55	3151.82
713.73	3090.38
713.91	2914.26
714.10	2785.24
714.28	2906.07
714.46	3010.51
714.65	3004.37
714.83	2930.64
715.01	2967.51
715.19	3024.85
715.38	2766.81
715.56	2934.74
715.74	2815.96
715.92	2836.44
716.11	3057.62
716.29	2650.07
716.47	3000.27
716.65	2893.78
716.84	2688.98
717.02	2965.46
717.20	2719.70
717.38	2840.53
717.57	2961.36
717.75	2914.26
717.93	2877.40
718.11	3157.97
718.30	2680.79
718.48	2887.64
718.66	3170.26
718.84	3221.45
719.03	2852.82
719.21	2705.37
719.39	3309.52
719.57	3102.67
719.75	3055.57
719.94	2811.86
720.12	2861.01
720.30	3026.90
720.48	2930.64
720.67	2813.91
720.85	2834.39
721.03	2863.06
721.21	2762.71
721.39	2947.03
721.58	3114.96
721.76	2994.13
721.94	2942.93
722.12	2922.45
722.30	3168.21
722.49	2920.40
722.67	2977.75
722.85	2858.96
723.03	2721.75
723.21	2926.55
723.40	2879.44
723.58	3002.32
723.76	3170.26
723.94	3190.74
724.12	2895.83
724.30	3051.47
724.49	3135.44
724.67	2858.96
724.85	3004.37
725.03	2744.28
725.21	3065.81
725.40	3211.22
725.58	2750.42
725.76	3082.19
725.94	3106.77
726.12	2844.63
726.30	2969.55
726.49	2852.82
726.67	2906.07
726.85	3043.28
727.03	3442.64
727.21	4353.98
727.39	5607.34
727.57	5881.77
727.76	6252.45
727.94	6305.70
728.12	5699.50
728.30	4736.95
728.48	4425.66
728.66	4114.37
728.84	3930.05
729.03	3438.54
729.21	3379.15
729.39	3223.50
729.57	3039.19
729.75	3137.49
729.93	3004.37
730.11	2811.86
730.30	2928.60
730.48	2897.88
730.66	2990.03
730.84	2975.70
731.02	2965.46
731.20	2840.53
731.38	2885.59
731.56	2748.37
731.74	2701.27
731.93	2930.64
732.11	2930.64
732.29	2850.77
732.47	2977.75
732.65	3065.81
732.83	3176.40
733.01	3014.61
733.19	2844.63
733.37	3041.23
733.56	2887.64
733.74	2805.72
733.92	3289.04
734.10	2906.07
734.28	2994.13
734.46	2699.22
734.64	2858.96
734.82	2961.36
735.00	2856.92
735.18	2797.53
735.36	3008.47
735.54	2961.36
735.73	2887.64
735.91	2985.94
736.09	3229.65
736.27	2951.12
736.45	2967.51
736.63	2650.07
736.81	2914.26
736.99	3125.20
737.17	3069.91
737.35	2811.86
737.53	2981.84
737.71	3000.27
737.89	3051.47
738.07	2805.72
738.25	2875.35
738.43	2705.37
738.61	2936.79
738.80	2766.81
738.98	2852.82
739.16	2852.82
739.34	2820.05
739.52	3147.73
739.70	2936.79
739.88	3125.20
740.06	2953.17
740.24	2533.34
740.42	3209.17
740.60	2672.60
740.78	2783.19
740.96	2637.78
741.14	2910.16
741.32	3028.95
741.50	2686.94
741.68	3102.67
741.86	3272.65
742.04	2760.66
742.22	2826.20
742.40	2863.06
742.58	3028.95
742.76	2844.63
742.94	3104.72
743.12	2615.26
743.30	3002.32
743.48	3055.57
743.66	2820.05
743.84	2906.07
744.02	2951.12
744.20	2947.03
744.38	2760.66
744.56	2744.28
744.74	3313.61
744.92	3135.44
745.10	3057.62
745.28	2922.45
745.46	3276.75
745.64	2963.41
745.82	2928.60
746.00	2852.82
746.18	2983.89
746.36	2848.72
746.54	2863.06
746.72	2918.36
746.90	2832.34
747.08	3143.63
747.26	2877.40
747.44	2963.41
747.62	3106.77
747.80	3043.28
747.98	2942.93
748.15	2838.48
748.33	3289.04
748.51	2979.79
748.69	2965.46
748.87	2697.17
749.05	2959.31
749.23	2858.96
749.41	2877.40
749.59	2916.31
749.77	3135.44
749.95	2846.68
750.13	2787.29
750.31	2940.88
750.49	2971.60
750.67	3088.34
750.85	3014.61
751.03	2895.83
751.20	3293.13
751.38	2938.84
751.56	2846.68
751.74	2887.64
751.92	2990.03
752.10	2828.24
752.28	3026.90
752.46	2760.66
752.64	2957.27
752.82	3016.66
753.00	3010.51
753.18	2838.48
753.35	2951.12
753.53	2930.64
753.71	2842.58
753.89	2932.69
754.07	3012.56
754.25	3129.30
754.43	2910.16
754.61	2766.81
754.79	3051.47
754.97	2967.51
755.14	3006.42
755.32	2729.94
755.50	2996.18
755.68	2965.46
755.86	2852.82
756.04	2852.82
756.22	2629.59
756.40	3145.68
756.57	3121.10
756.75	2830.29
756.93	3119.06
757.11	3127.25
757.29	2787.29
757.47	2772.95
757.65	2676.70
757.82	2668.50
758.00	2750.42
758.18	2795.48
758.36	2875.35
758.54	3297.23
758.72	2635.74
758.90	3000.27
759.07	3057.62
759.25	2785.24
759.43	3024.85
759.61	2717.65
759.79	4220.86
759.97	3092.43
760.15	2861.01
760.32	2854.87
760.50	3061.71
760.68	3246.03
760.86	2789.33
761.04	3041.23
761.22	3139.54
761.39	2973.65
761.57	2938.84
761.75	2889.68
761.93	3030.99
762.11	2947.03
762.28	2940.88
762.46	2818.00
762.64	3203.02
762.82	2752.47
763.00	2871.25
763.18	3065.81
763.35	2815.96
763.53	3098.58
763.71	2979.79
763.89	2879.44
764.07	3071.95
764.24	3006.42
764.42	3002.32
764.60	2865.11
764.78	2961.36
764.96	3114.96
765.13	3028.95
765.31	2789.33
765.49	3131.34
765.67	2822.10
765.84	2828.24
766.02	2770.90
766.20	2711.51
766.38	3082.19
766.56	2965.46
766.73	2973.65
766.91	3061.71
767.09	2959.31
767.27	2951.12
767.44	2815.96
767.62	3076.05
767.80	2951.12
767.98	2828.24
768.15	2858.96
768.33	3055.57
768.51	3188.69
768.69	3039.19
768.87	2861.01
769.04	3057.62
769.22	3370.96
769.40	2975.70
769.58	3028.95
769.75	3002.32
769.93	3227.60
770.11	2901.97
770.28	2748.37
770.46	3065.81
770.64	3094.48
770.82	2818.00
770.99	2826.20
771.17	3117.01
771.35	2942.93
771.53	3014.61
771.70	2848.72
771.88	3106.77
772.06	2963.41
772.23	2883.54
772.41	2955.22
772.59	2920.40
772.77	2815.96
772.94	2895.83
773.12	2983.89
773.30	2865.11
773.47	3016.66
773.65	2789.33
773.83	3039.19
774.01	2926.55
774.18	2668.50
774.36	2879.44
774.54	2762.71
774.71	3020.75
774.89	2772.95
775.07	2815.96
775.24	2820.05
775.42	2920.40
775.60	3182.54
775.78	2762.71
775.95	2705.37
776.13	2752.47
776.31	2631.64
776.48	2975.70
776.66	3049.43
776.84	2863.06
777.01	2785.24
777.19	2899.92
777.37	2820.05
777.54	3051.47
777.72	3334.09
777.90	2994.13
778.07	2813.91
778.25	3626.95
778.43	3096.53
778.60	2838.48
778.78	2955.22
778.96	3227.60
779.13	2742.23
779.31	2942.93
779.49	2922.45
779.66	2973.65
779.84	2844.63
780.01	2916.31
780.19	2809.81
780.37	3190.74
780.54	3121.10
780.72	2729.94
780.90	2822.10
781.07	3006.42
781.25	2803.67
781.43	3002.32
781.60	2752.47
781.78	3186.64
781.95	2940.88
782.13	2856.92
782.31	2879.44
782.48	2605.02
782.66	2996.18
782.83	3149.78
783.01	2932.69
783.19	3090.38
783.36	2930.64
783.54	2729.94
783.72	2957.27
783.89	2881.49
784.07	3051.47
784.24	2928.60
784.42	3004.37
784.60	3035.09
784.77	3053.52
784.95	2578.39
785.12	2836.44
785.30	3080.14
785.47	2861.01
785.65	2715.61
785.83	2926.55
786.00	2904.02
786.18	2992.08
786.35	2719.70
786.53	2852.82
786.71	3166.16
786.88	3106.77
787.06	2906.07
787.23	2881.49
787.41	2830.29
787.58	2971.60
787.76	2783.19
787.94	2916.31
788.11	3000.27
788.29	2791.38
788.46	2887.64
788.64	2643.93
788.81	2910.16
788.99	2858.96
789.16	2768.85
789.34	2885.59
789.52	2893.78
789.69	2916.31
789.87	2701.27
790.04	2770.90
790.22	3000.27
790.39	3284.94
790.57	2762.71
790.74	2713.56
790.92	3092.43
791.09	2736.09
791.27	2930.64
791.44	2975.70
791.62	2940.88
791.79	3168.21
791.97	2856.92
792.15	3166.16
792.32	3119.06
792.50	3170.26
792.67	3053.52
792.85	3084.24
793.02	3026.90
793.20	2856.92
793.37	2826.20
793.55	2750.42
793.72	2772.95
793.90	3020.75
794.07	2744.28
794.25	2777.05
794.42	2975.70
794.60	2928.60
794.77	2955.22
794.95	3041.23
795.12	3198.93
795.30	2928.60
795.47	2588.63
795.65	3252.17
795.82	3084.24
796.00	2879.44
796.17	2912.21
796.34	2729.94
796.52	2971.60
796.69	3160.02
796.87	2971.60
797.04	2963.41
797.22	3088.34
797.39	3012.56
797.57	3074.00
797.74	2877.40
797.92	3051.47
798.09	2787.29
798.27	3057.62
798.44	2813.91
798.62	2879.44
798.79	3059.67
798.96	2983.89
799.14	2895.83
799.31	3479.50
799.49	2858.96
799.66	2854.87
799.84	2889.68
800.01	2688.98
800.19	3076.05
800.36	2631.64
800.53	2891.73
800.71	3069.91
800.88	3227.60
801.06	2754.52
801.23	2740.18
801.41	2987.99
801.58	2869.20
801.75	2828.24
801.93	2885.59
802.10	3063.76
802.28	2901.97
802.45	2861.01
802.63	2858.96
802.80	3205.07
802.97	2914.26
803.15	2895.83
803.32	2723.80
803.50	2879.44
803.67	2863.06
803.84	2772.95
804.02	2875.35
804.19	2897.88
804.37	2641.88
804.54	2686.94
804.71	2744.28
804.89	2981.84
805.06	2865.11
805.24	2791.38
805.41	2744.28
805.58	2838.48
805.76	3370.96
805.93	2877.40
806.10	2987.99
806.28	3047.38
806.45	3047.38
806.63	3051.47
806.80	2844.63
806.97	2975.70
807.15	2977.75
807.32	2973.65
807.49	2844.63
807.67	2709.46
807.84	3006.42
808.01	2699.22
808.19	3045.33
808.36	3430.35
808.54	2856.92
808.71	2885.59
808.88	2852.82
809.06	3147.73
809.23	3178.45
809.40	2842.58
809.58	2848.72
809.75	2940.88
809.92	2760.66
810.10	3110.86
810.27	2883.54
810.44	3088.34
810.62	3078.10
810.79	2916.31
810.96	2906.07
811.14	2967.51
811.31	3010.51
811.48	3004.37
811.66	2951.12
811.83	3133.39
812.00	3022.80
812.18	2901.97
812.35	3149.78
812.52	2893.78
812.69	2863.06
812.87	2856.92
813.04	2799.57
813.21	2979.79
813.39	2877.40
813.56	2824.15
813.73	3033.04
813.91	2768.85
814.08	3041.23
814.25	2899.92
814.42	2697.17
814.60	2891.73
814.77	3059.67
814.94	2846.68
815.12	2969.55
815.29	3162.06
815.46	2815.96
815.63	2861.01
815.81	2832.34
815.98	2818.00
816.15	2949.08
816.33	2951.12
816.50	2856.92
816.67	2893.78
816.84	2942.93
817.02	2662.36
817.19	2801.62
817.36	3055.57
817.53	3110.86
817.71	2723.80
817.88	2926.55
818.05	2983.89
818.22	2920.40
818.40	3080.14
818.57	2828.24
818.74	3039.19
818.91	2942.93
819.09	3026.90
819.26	3000.27
819.43	2858.96
819.60	2883.54
819.78	2996.18
819.95	2916.31
820.12	2871.25
820.29	3141.58
820.47	3094.48
820.64	2744.28
820.81	2705.37
820.98	2762.71
821.15	2834.39
821.33	3018.71
821.50	2775.00
821.67	3082.19
821.84	2768.85
822.02	2889.68
822.19	3143.63
822.36	2924.50
822.53	2813.91
822.70	2715.61
822.88	2914.26
823.05	3157.97
823.22	2904.02
823.39	2928.60
823.56	2930.64
823.74	3246.03
823.91	2750.42
824.08	2760.66
824.25	2762.71
824.42	3307.47
824.60	2746.33
824.77	2973.65
824.94	2944.98
825.11	3076.05
825.28	2734.04
825.45	3061.71
825.63	3026.90
825.80	2775.00
825.97	2973.65
826.14	2865.11
826.31	2772.95
826.48	2985.94
826.66	2787.29
826.83	2748.37
827.00	3055.57
827.17	2824.15
827.34	2865.11
827.51	2783.19
827.69	2901.97
827.86	2791.38
828.03	2861.01
828.20	2818.00
828.37	2916.31
828.54	2965.46
828.71	2807.77
828.89	3014.61
829.06	3012.56
829.23	3256.27
829.40	2844.63
829.57	2783.19
829.74	3049.43
829.91	2877.40
830.09	2738.13
830.26	2979.79
830.43	3284.94
830.60	2953.17
830.77	2918.36
830.94	3037.14
831.11	3213.26
831.28	2914.26
831.46	2965.46
831.63	2813.91
831.80	3186.64
831.97	2828.24
832.14	2918.36
832.31	2895.83
832.48	3055.57
832.65	3098.58
832.82	2951.12
832.99	2928.60
833.17	2781.14
833.34	3233.74
833.51	2883.54
833.68	2668.50
833.85	3131.34
834.02	2815.96
834.19	2748.37
834.36	2869.20
834.53	3049.43
834.70	3196.88
834.87	2881.49
835.04	2666.46
835.22	2852.82
835.39	2842.58
835.56	2664.41
835.73	2750.42
835.90	3065.81
836.07	2854.87
836.24	2809.81
836.41	2699.22
836.58	2768.85
836.75	3205.07
836.92	2750.42
837.09	2713.56
837.26	3131.34
837.43	3006.42
837.60	2779.09
837.77	2715.61
837.94	3084.24
838.12	3127.25
838.29	2621.40
838.46	2654.17
838.63	2813.91
838.80	3262.41
838.97	2746.33
839.14	2678.74
839.31	2996.18
839.48	3049.43
839.65	2734.04
839.82	2799.57
839.99	3026.90
840.16	2947.03
840.33	2691.03
840.50	2791.38
840.67	2832.34
840.84	2629.59
841.01	2691.03
841.18	2758.61
841.35	2951.12
841.52	3102.67
841.69	2983.89
841.86	2791.38
842.03	2924.50
842.20	3166.16
842.37	2738.13
842.54	2768.85
842.71	2940.88
842.88	2762.71
843.05	2744.28
843.22	2686.94
843.39	3071.95
843.56	2871.25
843.73	2742.23
843.90	2844.63
844.07	2949.08
844.24	3094.48
844.41	2795.48
844.58	2731.99
844.75	2983.89
844.92	3000.27
845.09	2799.57
845.26	2727.89
845.43	3110.86
845.60	2926.55
845.77	2858.96
845.94	2846.68
846.10	3030.99
846.27	2758.61
846.44	2652.12
846.61	2598.87
846.78	3112.91
846.95	3098.58
847.12	2764.76
847.29	2752.47
847.46	2848.72
847.63	3074.00
847.80	2693.08
847.97	2680.79
848.14	3428.30
848.31	2918.36
848.48	2596.82
848.65	2756.57
848.82	2875.35
848.98	3442.64
849.15	2844.63
849.32	2881.49
849.49	3110.86
849.66	2922.45
849.83	2762.71
850.00	2652.12
850.17	3114.96
850.34	2912.21
850.51	2672.60
850.68	2693.08
850.85	3370.96
851.01	2979.79
851.18	2695.13
851.35	2756.57
851.52	2979.79
851.69	3237.84
851.86	2727.89
852.03	2684.89
852.20	3074.00
852.37	2961.36
852.53	2648.02
852.70	2645.98
852.87	2967.51
853.04	3055.57
853.21	2762.71
853.38	2942.93
853.55	3198.93
853.72	3131.34
853.89	2666.46
854.05	2727.89
854.22	2932.69
854.39	2901.97
854.56	2783.19
854.73	2883.54
854.90	2910.16
855.07	2887.64
855.23	2641.88
855.40	2645.98
855.57	2848.72
855.74	2629.59
855.91	2916.31
856.08	2555.86
856.25	2762.71
856.41	2987.99
856.58	2734.04
856.75	2721.75
856.92	2734.04
857.09	3108.82
857.26	2584.54
857.42	2783.19
857.59	3098.58
857.76	2987.99
857.93	2641.88
858.10	2709.46
858.27	2861.01
858.43	3008.47
858.60	2754.52
858.77	2600.92
858.94	2842.58
859.11	3149.78
859.27	2822.10
859.44	2621.40
859.61	3303.37
859.78	3059.67
859.95	2691.03
860.12	2650.07
860.28	3342.28
860.45	3385.29
860.62	2639.83
860.79	2828.24
860.95	2998.23
861.12	2822.10
861.29	2617.30
861.46	2723.80
861.63	2912.21
861.79	3016.66
861.96	2738.13
862.13	2715.61
862.30	3071.95
862.47	2912.21
862.63	2660.31
862.80	2729.94
862.97	3153.87
863.14	3037.14
863.30	2756.57
863.47	2680.79
863.64	3194.83
863.81	3020.75
863.97	2631.64
864.14	2744.28
864.31	2910.16
864.48	2936.79
864.65	2727.89
864.81	2818.00
864.98	3002.32
865.15	3160.02
865.32	2826.20
865.48	2805.72
865.65	3305.42
865.82	2881.49
865.98	2777.05
866.15	2877.40
866.32	2932.69
866.49	2924.50
866.65	2875.35
866.82	2686.94
866.99	2922.45
867.16	2807.77
867.32	2756.57
867.49	2617.30
867.66	2949.08
867.83	2879.44
867.99	2719.70
868.16	2803.67
868.33	2766.81
868.49	2996.18
868.66	2701.27
868.83	2795.48
868.99	3000.27
869.16	3012.56
869.33	2897.88
869.50	2758.61
869.66	3026.90
869.83	2975.70
870.00	2613.21
870.16	2877.40
870.33	2824.15
870.50	3096.53
870.66	2881.49
870.83	2762.71
871.00	2990.03
871.17	2996.18
871.33	2813.91
871.50	2711.51
871.67	2918.36
871.83	2883.54
872.00	2807.77
872.17	2764.76
872.33	3272.65
872.50	3137.49
872.67	2711.51
872.83	2738.13
873.00	2955.22
873.17	2990.03
873.33	2844.63
873.50	2793.43
873.67	2848.72
873.83	2889.68
874.00	2762.71
874.16	2932.69
874.33	3088.34
874.50	2858.96
874.66	2701.27
874.83	2787.29
875.00	3186.64
875.16	3076.05
875.33	2820.05
875.50	2486.23
875.66	2906.07
875.83	2967.51
875.99	2895.83
876.16	2818.00
876.33	2793.43
876.49	2901.97
876.66	2764.76
876.83	2820.05
876.99	2809.81
877.16	3018.71
877.32	2686.94
877.49	2785.24
877.66	3012.56
877.82	3184.59
877.99	2881.49
878.15	2891.73
878.32	3018.71
878.49	2979.79
878.65	2807.77
878.82	2871.25
878.98	2854.87
879.15	3121.10
879.32	2854.87
879.48	2912.21
879.65	2990.03
879.81	2918.36
879.98	2791.38
880.15	2797.53
880.31	3229.65
880.48	2838.48
880.64	2893.78
880.81	2848.72
880.97	3231.69
881.14	3153.87
881.31	2725.85
881.47	2961.36
881.64	2971.60
881.80	2738.13
881.97	2951.12
882.13	2744.28
882.30	2723.80
882.47	2820.05
882.63	2731.99
882.80	2795.48
882.96	2906.07
883.13	3192.78
883.29	2734.04
883.46	2715.61
883.62	3407.82
883.79	2967.51
883.95	2885.59
884.12	2695.13
884.29	3127.25
884.45	2975.70
884.62	2781.14
884.78	2680.79
884.95	3190.74
885.11	2824.15
885.28	2758.61
885.44	2764.76
885.61	3078.10
885.77	3289.04
885.94	2832.34
886.10	2795.48
886.27	2981.84
886.43	3293.13
886.60	3008.47
886.76	2746.33
886.93	2904.02
887.09	2994.13
887.26	2590.68
887.42	2779.09
887.59	3110.86
887.75	3352.52
887.92	2961.36
888.08	2918.36
888.25	3270.61
888.41	3117.01
888.58	2854.87
888.74	2623.45
888.91	2854.87
>>>>>End Processed Spectral Data<<<<<
