SpectraSuite Data File
++++++++++++++++++++++++++++++++++++
Date: Thu May 05 21:11:00 CEST 2016
User: root
Dark Spectrum Present: No
Reference Spectrum Present: No
Number of Sampled Component Spectra: 1
Spectrometers: USB4C02835
Integration Time (usec): 100000 (USB4C02835)
Spectra Averaged: 1 (USB4C02835)
Boxcar Smoothing: 0 (USB4C02835)
Correct for Electrical Dark: No (USB4C02835)
Strobe/Lamp Enabled: No (USB4C02835)
Correct for Detector Non-linearity: No (USB4C02835)
Correct for Stray Light: No (USB4C02835)
Number of Pixels in Processed Spectrum: 3648
>>>>>Begin Processed Spectral Data<<<<<
177.47	2193.37
177.69	2193.37
177.91	2193.37
178.13	2131.94
178.36	2133.98
178.58	2676.70
178.80	2944.98
179.02	2832.34
179.24	2815.96
179.46	2635.74
179.68	2752.47
179.90	2979.79
180.13	2944.98
180.35	2422.75
180.57	2629.59
180.79	3051.47
181.01	2979.79
181.23	2734.04
181.45	2813.91
181.67	3030.99
181.90	3117.01
182.12	2729.94
182.34	2551.77
182.56	3127.25
182.78	3026.90
183.00	2637.78
183.22	2748.37
183.44	2668.50
183.66	3479.50
183.89	2811.86
184.11	2701.27
184.33	3016.66
184.55	3215.31
184.77	2719.70
184.99	2672.60
185.21	2889.68
185.43	3553.23
185.65	2705.37
185.87	2635.74
186.10	3393.48
186.32	3336.14
186.54	2797.53
186.76	2818.00
186.98	3164.11
187.20	2951.12
187.42	2772.95
187.64	2652.12
187.86	3065.81
188.08	3123.15
188.30	2557.91
188.52	2695.13
188.75	3237.84
188.97	3260.37
189.19	2592.73
189.41	2676.70
189.63	3110.86
189.85	2881.49
190.07	2590.68
190.29	2486.23
190.51	3063.76
190.73	2740.18
190.95	2893.78
191.17	2723.80
191.39	2715.61
191.61	2928.60
191.84	2656.22
192.06	2785.24
192.28	2768.85
192.50	3481.55
192.72	2781.14
192.94	2785.24
193.16	3223.50
193.38	3059.67
193.60	2619.35
193.82	2836.44
194.04	3114.96
194.26	3024.85
194.48	2658.26
194.70	2711.51
194.92	2975.70
195.14	3192.78
195.36	2639.83
195.58	2791.38
195.80	2910.16
196.02	2887.64
196.24	2559.96
196.46	2731.99
196.69	2922.45
196.91	3467.21
197.13	2752.47
197.35	2693.08
197.57	3213.26
197.79	3110.86
198.01	2818.00
198.23	2654.17
198.45	3133.39
198.67	2785.24
198.89	2547.67
199.11	2766.81
199.33	2848.72
199.55	2652.12
199.77	2637.78
199.99	2734.04
200.21	2858.96
200.43	3061.71
200.65	2645.98
200.87	2545.63
201.09	2975.70
201.31	2906.07
201.53	2650.07
201.75	2840.53
201.97	3092.43
202.19	3047.38
202.41	2807.77
202.63	2838.48
202.85	3100.62
203.07	3053.52
203.29	2791.38
203.51	2596.82
203.73	2809.81
203.95	3526.60
204.17	2705.37
204.39	2766.81
204.61	2908.12
204.83	2826.20
205.05	2848.72
205.27	2656.22
205.49	3397.58
205.71	2932.69
205.93	2602.97
206.15	2582.49
206.37	2975.70
206.59	2955.22
206.81	2541.53
207.03	2527.19
207.25	2844.63
207.47	3174.35
207.69	2676.70
207.91	2861.01
208.13	3231.69
208.34	2883.54
208.56	2631.64
208.78	2721.75
209.00	2979.79
209.22	2926.55
209.44	2758.61
209.66	2602.97
209.88	3071.95
210.10	2930.64
210.32	2664.41
210.54	2830.29
210.76	3049.43
210.98	3196.88
211.20	2531.29
211.42	2697.17
211.64	3262.41
211.86	3084.24
212.08	2768.85
212.30	2678.74
212.52	2867.16
212.74	3039.19
212.96	2840.53
213.17	2783.19
213.39	3155.92
213.61	3264.46
213.83	2674.65
214.05	2592.73
214.27	3286.99
214.49	2779.09
214.71	2543.58
214.93	2760.66
215.15	2981.84
215.37	3147.73
215.59	2582.49
215.81	2770.90
216.03	3260.37
216.24	2990.03
216.46	2719.70
216.68	2707.41
216.90	3020.75
217.12	3166.16
217.34	2658.26
217.56	2822.10
217.78	3207.12
218.00	3053.52
218.22	2764.76
218.44	2748.37
218.66	2944.98
218.87	3330.00
219.09	2779.09
219.31	2701.27
219.53	3061.71
219.75	2930.64
219.97	2727.89
220.19	2719.70
220.41	2977.75
220.63	3340.24
220.85	2670.55
221.06	2645.98
221.28	3164.11
221.50	3033.04
221.72	2654.17
221.94	2641.88
222.16	3049.43
222.38	3094.48
222.60	2715.61
222.82	2705.37
223.03	3162.06
223.25	2820.05
223.47	2688.98
223.69	2828.24
223.91	3196.88
224.13	3041.23
224.35	2613.21
224.57	2844.63
224.78	3157.97
225.00	2871.25
225.22	2811.86
225.44	2623.45
225.66	3121.10
225.88	2897.88
226.10	2770.90
226.32	2715.61
226.53	3243.98
226.75	2889.68
226.97	2684.89
227.19	2682.84
227.41	2797.53
227.63	2947.03
227.85	2508.76
228.06	2705.37
228.28	3102.67
228.50	3170.26
228.72	2588.63
228.94	2676.70
229.16	2676.70
229.37	2787.29
229.59	2678.74
229.81	2885.59
230.03	2942.93
230.25	2754.52
230.47	2590.68
230.69	2592.73
230.90	3063.76
231.12	2863.06
231.34	2777.05
231.56	2793.43
231.78	2824.15
232.00	3004.37
232.21	2693.08
232.43	2727.89
232.65	2609.11
232.87	3067.86
233.09	2525.15
233.30	2617.30
233.52	3196.88
233.74	3022.80
233.96	2717.65
234.18	2850.77
234.40	3018.71
234.61	3338.19
234.83	2623.45
235.05	2648.02
235.27	3430.35
235.49	3174.35
235.70	2576.34
235.92	2688.98
236.14	3055.57
236.36	3446.73
236.58	2627.54
236.79	2822.10
237.01	3000.27
237.23	3022.80
237.45	2861.01
237.67	2691.03
237.88	3069.91
238.10	3319.76
238.32	2574.30
238.54	2590.68
238.76	2947.03
238.97	2809.81
239.19	2631.64
239.41	2727.89
239.63	3141.58
239.85	2891.73
240.06	2721.75
240.28	2648.02
240.50	3151.82
240.72	2971.60
240.93	2559.96
241.15	2848.72
241.37	2996.18
241.59	3186.64
241.81	2697.17
242.02	2766.81
242.24	3074.00
242.46	3213.26
242.68	2582.49
242.89	2643.93
243.11	3106.77
243.33	2961.36
243.55	2731.99
243.76	2695.13
243.98	2869.20
244.20	3076.05
244.42	2594.78
244.64	2680.79
244.85	2762.71
245.07	2742.23
245.29	2703.32
245.51	2750.42
245.72	3063.76
245.94	3231.69
246.16	2629.59
246.38	2772.95
246.59	2899.92
246.81	2932.69
247.03	2574.30
247.24	2568.15
247.46	2850.77
247.68	3049.43
247.90	2652.12
248.11	2676.70
248.33	3076.05
248.55	2965.46
248.77	2641.88
248.98	2764.76
249.20	3184.59
249.42	3043.28
249.64	2666.46
249.85	2688.98
250.07	2836.44
250.29	3194.83
250.50	2791.38
250.72	2617.30
250.94	3080.14
251.16	3381.20
251.37	2629.59
251.59	2719.70
251.81	3055.57
252.02	3274.70
252.24	2596.82
252.46	2904.02
252.68	2852.82
252.89	2803.67
253.11	2562.01
253.33	2822.10
253.54	3282.89
253.76	2781.14
253.98	2734.04
254.20	2633.69
254.41	2779.09
254.63	2975.70
254.85	2529.24
255.06	2815.96
255.28	3065.81
255.50	2861.01
255.71	2688.98
255.93	2557.91
256.15	2985.94
256.36	3080.14
256.58	2531.29
256.80	2727.89
257.02	2944.98
257.23	2885.59
257.45	2645.98
257.67	2844.63
257.88	2985.94
258.10	3059.67
258.32	2695.13
258.53	2744.28
258.75	3213.26
258.97	2889.68
259.18	2635.74
259.40	2635.74
259.62	3307.47
259.83	3246.03
260.05	2719.70
260.27	3506.12
260.48	3086.29
260.70	2779.09
260.92	2500.57
261.13	2781.14
261.35	3082.19
261.57	3117.01
261.78	2537.43
262.00	2637.78
262.22	3082.19
262.43	2824.15
262.65	2729.94
262.86	2756.57
263.08	3422.16
263.30	3022.80
263.51	2576.34
263.73	2633.69
263.95	3162.06
264.16	2865.11
264.38	2621.40
264.60	2629.59
264.81	2920.40
265.03	3131.34
265.25	3057.62
265.46	2629.59
265.68	3170.26
265.89	2990.03
266.11	2635.74
266.33	2660.31
266.54	3108.82
266.76	3051.47
266.98	2770.90
267.19	2834.39
267.41	3186.64
267.62	3014.61
267.84	2504.67
268.06	2805.72
268.27	2904.02
268.49	3211.22
268.70	2801.62
268.92	2697.17
269.14	2846.68
269.35	2695.13
269.57	2787.29
269.79	2691.03
270.00	2832.34
270.22	3200.98
270.43	2465.75
270.65	2598.87
270.87	3059.67
271.08	3104.72
271.30	2748.37
271.51	2744.28
271.73	3125.20
271.95	3168.21
272.16	2588.63
272.38	2764.76
272.59	2967.51
272.81	3069.91
273.02	2617.30
273.24	2768.85
273.46	3196.88
273.67	2789.33
273.89	2592.73
274.10	2588.63
274.32	3117.01
274.54	3090.38
274.75	2758.61
274.97	2746.33
275.18	3100.62
275.40	3125.20
275.61	2748.37
275.83	2858.96
276.05	2789.33
276.26	2994.13
276.48	2705.37
276.69	2791.38
276.91	2840.53
277.12	3233.74
277.34	2863.06
277.55	2881.49
277.77	3039.19
277.99	2828.24
278.20	2760.66
278.42	2611.16
278.63	2815.96
278.85	2887.64
279.06	2742.23
279.28	2887.64
279.49	3131.34
279.71	3151.82
279.93	2799.57
280.14	2873.30
280.36	2897.88
280.57	3114.96
280.79	2846.68
281.00	2754.52
281.22	2871.25
281.43	3170.26
281.65	2594.78
281.86	2777.05
282.08	3104.72
282.29	3303.37
282.51	2643.93
282.73	2731.99
282.94	2678.74
283.16	3117.01
283.37	2949.08
283.59	2846.68
283.80	3129.30
284.02	2975.70
284.23	2822.10
284.45	2797.53
284.66	2818.00
284.88	2830.29
285.09	2805.72
285.31	2863.06
285.52	3047.38
285.74	2721.75
285.95	2887.64
286.17	2752.47
286.38	3196.88
286.60	2885.59
286.81	2723.80
287.03	2789.33
287.24	2916.31
287.46	3088.34
287.67	2928.60
287.89	3002.32
288.10	2953.17
288.32	2998.23
288.53	2987.99
288.75	2861.01
288.96	3129.30
289.18	2875.35
289.39	2768.85
289.61	2901.97
289.82	3352.52
290.04	3377.10
290.25	2691.03
290.47	2830.29
290.68	2926.55
290.90	3141.58
291.11	2652.12
291.33	2963.41
291.54	2815.96
291.76	2922.45
291.97	2955.22
292.18	2934.74
292.40	2951.12
292.61	2953.17
292.83	2998.23
293.04	2836.44
293.26	3090.38
293.47	3035.09
293.69	2809.81
293.90	2697.17
294.12	3221.45
294.33	2938.84
294.55	2832.34
294.76	2916.31
294.97	3260.37
295.19	3270.61
295.40	2742.23
295.62	2873.30
295.83	3143.63
296.05	2844.63
296.26	2924.50
296.48	2826.20
296.69	2897.88
296.90	2973.65
297.12	2893.78
297.33	2973.65
297.55	2971.60
297.76	3086.29
297.98	2867.16
298.19	2838.48
298.41	3002.32
298.62	2830.29
298.83	2963.41
299.05	2795.48
299.26	2930.64
299.48	2867.16
299.69	2901.97
299.90	2727.89
300.12	2861.01
300.33	3104.72
300.55	2883.54
300.76	2922.45
300.98	2770.90
301.19	3082.19
301.40	2721.75
301.62	2766.81
301.83	3069.91
302.05	2965.46
302.26	2799.57
302.47	2887.64
302.69	2867.16
302.90	3071.95
303.12	2670.55
303.33	2932.69
303.54	3205.07
303.76	3000.27
303.97	2799.57
304.19	3002.32
304.40	2840.53
304.61	3024.85
304.83	2926.55
305.04	2944.98
305.26	3160.02
305.47	2889.68
305.68	2842.58
305.90	2660.31
306.11	3166.16
306.33	2873.30
306.54	2707.41
306.75	2744.28
306.97	2693.08
307.18	2768.85
307.39	2822.10
307.61	2863.06
307.82	2977.75
308.04	3129.30
308.25	2662.36
308.46	2879.44
308.68	3000.27
308.89	2987.99
309.10	2906.07
309.32	2944.98
309.53	2973.65
309.74	3061.71
309.96	2760.66
310.17	2916.31
310.39	2867.16
310.60	3114.96
310.81	2826.20
311.03	2637.78
311.24	3129.30
311.45	2928.60
311.67	3008.47
311.88	2871.25
312.09	2908.12
312.31	2904.02
312.52	2693.08
312.73	2764.76
312.95	2717.65
313.16	2838.48
313.37	2977.75
313.59	2959.31
313.80	3192.78
314.01	3209.17
314.23	2807.77
314.44	2781.14
314.65	2758.61
314.87	2844.63
315.08	2793.43
315.29	2850.77
315.51	2824.15
315.72	2701.27
315.93	2840.53
316.15	2910.16
316.36	2895.83
316.57	3000.27
316.79	2834.39
317.00	2709.46
317.21	3168.21
317.43	2930.64
317.64	2912.21
317.85	2713.56
318.07	2854.87
318.28	2832.34
318.49	2869.20
318.70	2992.08
318.92	3061.71
319.13	3016.66
319.34	2934.74
319.56	2863.06
319.77	3067.86
319.98	3125.20
320.20	3024.85
320.41	2940.88
320.62	3090.38
320.83	2783.19
321.05	3057.62
321.26	2834.39
321.47	2985.94
321.69	3131.34
321.90	2656.22
322.11	2744.28
322.32	3055.57
322.54	3221.45
322.75	2760.66
322.96	3545.03
323.18	2789.33
323.39	2645.98
323.60	2656.22
323.81	2848.72
324.03	2815.96
324.24	2998.23
324.45	2924.50
324.66	2729.94
324.88	3248.08
325.09	3198.93
325.30	2850.77
325.52	2725.85
325.73	3092.43
325.94	2838.48
326.15	2645.98
326.37	2639.83
326.58	3141.58
326.79	3176.40
327.00	2660.31
327.22	2777.05
327.43	2949.08
327.64	2729.94
327.85	2940.88
328.07	2844.63
328.28	3334.09
328.49	2877.40
328.70	2807.77
328.92	2840.53
329.13	2936.79
329.34	2998.23
329.55	3121.10
329.76	2928.60
329.98	2944.98
330.19	3174.35
330.40	2914.26
330.61	2854.87
330.83	3117.01
331.04	2926.55
331.25	2936.79
331.46	2887.64
331.68	2785.24
331.89	3131.34
332.10	2828.24
332.31	2668.50
332.52	3043.28
332.74	3143.63
332.95	2697.17
333.16	2824.15
333.37	2955.22
333.58	2803.67
333.80	2797.53
334.01	2637.78
334.22	3035.09
334.43	2867.16
334.64	2746.33
334.86	2705.37
335.07	2809.81
335.28	3260.37
335.49	2740.18
335.70	2895.83
335.92	3239.89
336.13	3407.82
336.34	2904.02
336.55	2848.72
336.76	3037.14
336.98	2639.83
337.19	2807.77
337.40	2938.84
337.61	3522.51
337.82	2949.08
338.04	2928.60
338.25	2621.40
338.46	2918.36
338.67	2942.93
338.88	2699.22
339.09	2670.55
339.31	2840.53
339.52	2703.32
339.73	2750.42
339.94	2830.29
340.15	3123.15
340.36	2920.40
340.58	2822.10
340.79	2766.81
341.00	3037.14
341.21	2764.76
341.42	2977.75
341.63	2861.01
341.85	3143.63
342.06	2918.36
342.27	2777.05
342.48	3033.04
342.69	2838.48
342.90	3035.09
343.12	3053.52
343.33	2731.99
343.54	3219.41
343.75	3203.02
343.96	2938.84
344.17	2705.37
344.38	2981.84
344.60	2836.44
344.81	2715.61
345.02	2797.53
345.23	3080.14
345.44	3373.00
345.65	2863.06
345.86	2877.40
346.07	3057.62
346.29	2914.26
346.50	2912.21
346.71	2895.83
346.92	3264.46
347.13	3330.00
347.34	2832.34
347.55	2717.65
347.76	3012.56
347.98	2850.77
348.19	2904.02
348.40	2953.17
348.61	2928.60
348.82	3188.69
349.03	2852.82
349.24	2697.17
349.45	3334.09
349.66	2658.26
349.88	2861.01
350.09	2762.71
350.30	3180.50
350.51	3200.98
350.72	2916.31
350.93	2805.72
351.14	3000.27
351.35	3084.24
351.56	2807.77
351.77	2885.59
351.99	3082.19
352.20	3147.73
352.41	2928.60
352.62	2598.87
352.83	2955.22
353.04	2967.51
353.25	2791.38
353.46	2803.67
353.67	3178.45
353.88	2654.17
354.09	2736.09
354.30	2844.63
354.52	3155.92
354.73	2963.41
354.94	2760.66
355.15	2918.36
355.36	3303.37
355.57	2867.16
355.78	2838.48
355.99	2815.96
356.20	3022.80
356.41	3258.32
356.62	2938.84
356.83	2918.36
357.04	3205.07
357.25	2660.31
357.46	2803.67
357.68	2664.41
357.89	2803.67
358.10	2961.36
358.31	2815.96
358.52	2793.43
358.73	2799.57
358.94	2836.44
359.15	2779.09
359.36	2901.97
359.57	2926.55
359.78	2901.97
359.99	3026.90
360.20	2680.79
360.41	2971.60
360.62	3049.43
360.83	2879.44
361.04	2885.59
361.25	3053.52
361.46	3174.35
361.67	2895.83
361.88	2877.40
362.09	3246.03
362.30	3045.33
362.51	2785.24
362.72	2781.14
362.93	3162.06
363.14	2959.31
363.35	2936.79
363.56	2711.51
363.78	3162.06
363.99	3182.54
364.20	2731.99
364.41	2811.86
364.62	3235.79
364.83	3057.62
365.04	2754.52
365.25	2858.96
365.46	3360.72
365.67	2815.96
365.88	2887.64
366.09	2815.96
366.30	2953.17
366.51	2930.64
366.72	2662.36
366.93	2766.81
367.14	3012.56
367.35	3225.55
367.56	2807.77
367.77	2969.55
367.98	2979.79
368.18	3069.91
368.39	2963.41
368.60	2758.61
368.81	3129.30
369.02	3020.75
369.23	2813.91
369.44	2607.06
369.65	2949.08
369.86	3057.62
370.07	2944.98
370.28	2715.61
370.49	3000.27
370.70	3076.05
370.91	2770.90
371.12	2717.65
371.33	3211.22
371.54	2838.48
371.75	2934.74
371.96	2592.73
372.17	3010.51
372.38	2973.65
372.59	2828.24
372.80	2729.94
373.01	2953.17
373.22	2975.70
373.43	2826.20
373.64	2717.65
373.85	3270.61
374.06	3299.28
374.26	2973.65
374.47	2951.12
374.68	3241.93
374.89	3035.09
375.10	2815.96
375.31	2824.15
375.52	3002.32
375.73	2971.60
375.94	2629.59
376.15	2844.63
376.36	2793.43
376.57	2869.20
376.78	2801.62
376.99	2850.77
377.20	3137.49
377.40	2934.74
377.61	3112.91
377.82	2791.38
378.03	3188.69
378.24	3110.86
378.45	2858.96
378.66	2865.11
378.87	2721.75
379.08	2852.82
379.29	2711.51
379.50	2926.55
379.71	2910.16
379.91	3086.29
380.12	2797.53
380.33	2877.40
380.54	3033.04
380.75	2947.03
380.96	2826.20
381.17	2863.06
381.38	2934.74
381.59	2979.79
381.80	2811.86
382.00	3041.23
382.21	3053.52
382.42	3266.51
382.63	3194.83
382.84	2936.79
383.05	3094.48
383.26	3256.27
383.47	2879.44
383.68	2777.05
383.88	3059.67
384.09	3074.00
384.30	3049.43
384.51	2914.26
384.72	2953.17
384.93	2815.96
385.14	2869.20
385.35	3008.47
385.55	2717.65
385.76	3176.40
385.97	2756.57
386.18	2613.21
386.39	2758.61
386.60	2920.40
386.81	2799.57
387.02	2697.17
387.22	2815.96
387.43	3006.42
387.64	2912.21
387.85	2891.73
388.06	2961.36
388.27	3971.01
388.48	7235.47
388.68	10876.76
388.89	13381.43
389.10	14569.25
389.31	14063.40
389.52	11306.84
389.73	9799.53
389.93	8701.82
390.14	8007.56
390.35	7272.34
390.56	6731.67
390.77	5425.07
390.98	4349.89
391.18	3657.67
391.39	3450.83
391.60	3051.47
391.81	2967.51
392.02	2838.48
392.23	3385.29
392.43	3076.05
392.64	2959.31
392.85	2963.41
393.06	3248.08
393.27	2969.55
393.47	2752.47
393.68	2885.59
393.89	2863.06
394.10	3172.30
394.31	2811.86
394.52	2721.75
394.72	2848.72
394.93	3278.80
395.14	2695.13
395.35	2940.88
395.56	2854.87
395.76	2934.74
395.97	2791.38
396.18	2969.55
396.39	2983.89
396.60	3567.56
396.80	3207.12
397.01	2994.13
397.22	3067.86
397.43	3141.58
397.64	2766.81
397.84	2852.82
398.05	3332.05
398.26	2914.26
398.47	2912.21
398.67	3016.66
398.88	3030.99
399.09	3112.91
399.30	2717.65
399.51	2922.45
399.71	2975.70
399.92	3039.19
400.13	2971.60
400.34	2789.33
400.54	2990.03
400.75	3278.80
400.96	2926.55
401.17	3065.81
401.37	3074.00
401.58	2979.79
401.79	2861.01
402.00	3047.38
402.21	3493.83
402.41	3135.44
402.62	3141.58
402.83	3180.50
403.04	3336.14
403.24	3612.62
403.45	2918.36
403.66	3211.22
403.87	3166.16
404.07	3194.83
404.28	3096.53
404.49	3151.82
404.70	3051.47
404.90	3119.06
405.11	2842.58
405.32	2951.12
405.52	2877.40
405.73	2947.03
405.94	2783.19
406.15	2877.40
406.35	3055.57
406.56	3121.10
406.77	2873.30
406.98	2918.36
407.18	2848.72
407.39	3260.37
407.60	2858.96
407.80	2926.55
408.01	2881.49
408.22	3012.56
408.43	2805.72
408.63	2865.11
408.84	3176.40
409.05	3094.48
409.25	2703.32
409.46	2846.68
409.67	3016.66
409.88	2885.59
410.08	2910.16
410.29	2824.15
410.50	3020.75
410.70	3024.85
410.91	2838.48
411.12	2930.64
411.32	3039.19
411.53	2746.33
411.74	2904.02
411.95	2947.03
412.15	3037.14
412.36	3184.59
412.57	2926.55
412.77	3035.09
412.98	2961.36
413.19	2990.03
413.39	2942.93
413.60	2912.21
413.81	3203.02
414.01	2772.95
414.22	2877.40
414.43	2961.36
414.63	2889.68
414.84	3092.43
415.05	2828.24
415.25	2682.84
415.46	3086.29
415.67	2869.20
415.87	2985.94
416.08	2822.10
416.29	2959.31
416.49	3102.67
416.70	2881.49
416.91	2762.71
417.11	2908.12
417.32	3131.34
417.53	2965.46
417.73	2924.50
417.94	2973.65
418.15	3053.52
418.35	2914.26
418.56	2820.05
418.77	3370.96
418.97	3004.37
419.18	2953.17
419.38	2535.39
419.59	2938.84
419.80	3321.81
420.00	2731.99
420.21	2785.24
420.42	3213.26
420.62	2987.99
420.83	2803.67
421.04	2867.16
421.24	2953.17
421.45	3155.92
421.65	2910.16
421.86	2852.82
422.07	3018.71
422.27	3041.23
422.48	2846.68
422.69	2772.95
422.89	3030.99
423.10	2949.08
423.30	2731.99
423.51	2861.01
423.72	2992.08
423.92	3135.44
424.13	2686.94
424.33	2947.03
424.54	3127.25
424.75	2965.46
424.95	3041.23
425.16	2815.96
425.36	2961.36
425.57	3157.97
425.78	2967.51
425.98	3018.71
426.19	2942.93
426.39	2815.96
426.60	2918.36
426.81	3033.04
427.01	3137.49
427.22	2818.00
427.42	2699.22
427.63	2797.53
427.83	3186.64
428.04	3336.14
428.25	2901.97
428.45	2994.13
428.66	3071.95
428.86	2979.79
429.07	2809.81
429.28	2879.44
429.48	3014.61
429.69	2787.29
429.89	2897.88
430.10	2699.22
430.30	3094.48
430.51	3157.97
430.71	2760.66
430.92	2840.53
431.13	2975.70
431.33	3119.06
431.54	2987.99
431.74	3108.82
431.95	3407.82
432.15	2781.14
432.36	2826.20
432.56	2928.60
432.77	3362.76
432.98	3248.08
433.18	2901.97
433.39	2768.85
433.59	2910.16
433.80	3239.89
434.00	2987.99
434.21	2873.30
434.41	2908.12
434.62	3260.37
434.82	2676.70
435.03	2787.29
435.23	3047.38
435.44	2664.41
435.64	2742.23
435.85	2879.44
436.06	3196.88
436.26	3149.78
436.47	2830.29
436.67	2760.66
436.88	2969.55
437.08	3106.77
437.29	2959.31
437.49	3002.32
437.70	3139.54
437.90	2969.55
438.11	3028.95
438.31	2965.46
438.52	3284.94
438.72	3166.16
438.93	3094.48
439.13	2887.64
439.34	3198.93
439.54	2887.64
439.75	2922.45
439.95	2969.55
440.16	2881.49
440.36	3000.27
440.57	2844.63
440.77	2834.39
440.98	2955.22
441.18	3096.53
441.39	2758.61
441.59	2764.76
441.80	3366.86
442.00	2990.03
442.21	2981.84
442.41	2746.33
442.62	3178.45
442.82	2858.96
443.02	2840.53
443.23	2887.64
443.43	2897.88
443.64	3237.84
443.84	2738.13
444.05	2934.74
444.25	2977.75
444.46	2975.70
444.66	2779.09
444.87	3037.14
445.07	2832.34
445.28	2926.55
445.48	3088.34
445.69	2959.31
445.89	3375.05
446.09	2942.93
446.30	3114.96
446.50	3164.11
446.71	4720.57
446.91	5752.74
447.12	6526.88
447.32	7036.82
447.53	6719.39
447.73	5857.19
447.93	4986.80
448.14	4739.00
448.34	4669.37
448.55	4048.83
448.75	4007.87
448.96	3794.89
449.16	3596.23
449.36	3493.83
449.57	3080.14
449.77	2897.88
449.98	2942.93
450.18	3012.56
450.39	2920.40
450.59	3026.90
450.79	2977.75
451.00	2996.18
451.20	3000.27
451.41	2820.05
451.61	3045.33
451.81	3047.38
452.02	2781.14
452.22	2906.07
452.43	2883.54
452.63	2846.68
452.84	2930.64
453.04	2727.89
453.24	3002.32
453.45	2869.20
453.65	2920.40
453.86	2924.50
454.06	2955.22
454.26	2979.79
454.47	2867.16
454.67	2985.94
454.87	3088.34
455.08	2992.08
455.28	2971.60
455.49	3074.00
455.69	2818.00
455.89	3368.91
456.10	2953.17
456.30	2815.96
456.51	3076.05
456.71	3010.51
456.91	3033.04
457.12	2910.16
457.32	3039.19
457.52	2836.44
457.73	3008.47
457.93	2998.23
458.14	2932.69
458.34	2772.95
458.54	2983.89
458.75	2760.66
458.95	3160.02
459.15	3067.86
459.36	2881.49
459.56	2842.58
459.76	3403.72
459.97	3006.42
460.17	2830.29
460.37	3047.38
460.58	3012.56
460.78	3129.30
460.99	2895.83
461.19	2889.68
461.39	2856.92
461.60	2961.36
461.80	2877.40
462.00	2727.89
462.21	3018.71
462.41	2832.34
462.61	2820.05
462.82	2697.17
463.02	3100.62
463.22	3049.43
463.43	2959.31
463.63	2858.96
463.83	3168.21
464.04	3059.67
464.24	2793.43
464.44	2820.05
464.64	3049.43
464.85	3080.14
465.05	3008.47
465.25	2772.95
465.46	2891.73
465.66	3110.86
465.86	2910.16
466.07	2842.58
466.27	2979.79
466.47	2795.48
466.68	2658.26
466.88	3045.33
467.08	3121.10
467.29	3133.39
467.49	2871.25
467.69	2883.54
467.89	3088.34
468.10	2957.27
468.30	2944.98
468.50	2969.55
468.71	3188.69
468.91	2803.67
469.11	3069.91
469.31	2920.40
469.52	2879.44
469.72	3282.89
469.92	3090.38
470.13	2775.00
470.33	3014.61
470.53	3065.81
470.73	3127.25
470.94	3489.74
471.14	3622.86
471.34	4181.95
471.54	3805.13
471.75	3536.84
471.95	3459.02
472.15	3334.09
472.36	3319.76
472.56	3188.69
472.76	3375.05
472.96	3340.24
473.17	3033.04
473.37	3047.38
473.57	2879.44
473.77	3203.02
473.98	2918.36
474.18	2799.57
474.38	3555.27
474.58	2965.46
474.79	2754.52
474.99	2992.08
475.19	3174.35
475.39	2887.64
475.60	2852.82
475.80	2885.59
476.00	2987.99
476.20	2983.89
476.41	2858.96
476.61	2942.93
476.81	3237.84
477.01	2852.82
477.21	3059.67
477.42	3010.51
477.62	2873.30
477.82	3164.11
478.02	2867.16
478.23	2914.26
478.43	2840.53
478.63	2918.36
478.83	2910.16
479.03	2957.27
479.24	3225.55
479.44	3379.15
479.64	2811.86
479.84	2662.36
480.04	2944.98
480.25	3160.02
480.45	2836.44
480.65	2858.96
480.85	3186.64
481.06	2879.44
481.26	2963.41
481.46	2889.68
481.66	2992.08
481.86	2879.44
482.06	3004.37
482.27	2826.20
482.47	2922.45
482.67	3012.56
482.87	2818.00
483.07	2934.74
483.28	2928.60
483.48	2785.24
483.68	2836.44
483.88	2752.47
484.08	2641.88
484.29	2861.01
484.49	2965.46
484.69	2637.78
484.89	3241.93
485.09	3119.06
485.29	2879.44
485.50	2985.94
485.70	2887.64
485.90	3157.97
486.10	2912.21
486.30	2783.19
486.50	3237.84
486.71	3067.86
486.91	2889.68
487.11	2934.74
487.31	2754.52
487.51	3164.11
487.71	2789.33
487.91	2799.57
488.12	2789.33
488.32	2549.72
488.52	2830.29
488.72	2625.50
488.92	3020.75
489.12	3248.08
489.32	2981.84
489.53	2914.26
489.73	2719.70
489.93	3289.04
490.13	2834.39
490.33	2734.04
490.53	2987.99
490.73	3139.54
490.94	2678.74
491.14	2955.22
491.34	3086.29
491.54	3149.78
491.74	3608.52
491.94	4261.82
492.14	4603.83
492.34	4761.53
492.54	4360.13
492.75	3774.41
492.95	3919.81
493.15	3504.07
493.35	3565.51
493.55	3418.06
493.75	3368.91
493.95	3467.21
494.15	3067.86
494.35	2852.82
494.56	3016.66
494.76	2885.59
494.96	2934.74
495.16	2846.68
495.36	3045.33
495.56	2961.36
495.76	2910.16
495.96	2785.24
496.16	2897.88
496.36	3293.13
496.56	2787.29
496.77	2936.79
496.97	3045.33
497.17	3196.88
497.37	2717.65
497.57	3000.27
497.77	3020.75
497.97	2805.72
498.17	2881.49
498.37	2785.24
498.57	3041.23
498.77	2899.92
498.97	3041.23
499.17	3184.59
499.38	2957.27
499.58	3168.21
499.78	3037.14
499.98	3022.80
500.18	2889.68
500.38	2797.53
500.58	3076.05
500.78	3340.24
500.98	5420.97
501.18	7368.59
501.38	8824.70
501.58	9834.35
501.78	9621.36
501.98	7976.84
502.18	6758.30
502.38	5787.56
502.58	5752.74
502.78	4990.90
502.98	4872.12
503.18	4644.79
503.38	4292.54
503.59	3876.80
503.79	3643.34
503.99	3409.87
504.19	3518.41
504.39	3432.40
504.59	3256.27
504.79	3256.27
504.99	3506.12
505.19	3166.16
505.39	3026.90
505.59	3342.28
505.79	3284.94
505.99	3160.02
506.19	2891.73
506.39	3176.40
506.59	2908.12
506.79	2879.44
506.99	3006.42
507.19	2899.92
507.39	3088.34
507.59	2715.61
507.79	2844.63
507.99	2740.18
508.19	3000.27
508.39	2895.83
508.59	2844.63
508.79	2983.89
508.99	3336.14
509.19	2889.68
509.39	2936.79
509.59	2826.20
509.79	2881.49
509.99	3100.62
510.19	2934.74
510.39	3024.85
510.59	3055.57
510.79	2893.78
510.99	2731.99
511.19	2848.72
511.39	3237.84
511.59	3215.31
511.79	2990.03
511.99	2856.92
512.19	3305.42
512.38	3016.66
512.58	2844.63
512.78	2789.33
512.98	3241.93
513.18	3307.47
513.38	2734.04
513.58	2928.60
513.78	2938.84
513.98	2938.84
514.18	2881.49
514.38	2844.63
514.58	3004.37
514.78	2834.39
514.98	2783.19
515.18	2854.87
515.38	2717.65
515.58	3270.61
515.78	2844.63
515.98	2877.40
516.18	3088.34
516.38	2934.74
516.57	2797.53
516.77	2803.67
516.97	3125.20
517.17	2887.64
517.37	2623.45
517.57	2947.03
517.77	3018.71
517.97	2844.63
518.17	2947.03
518.37	2772.95
518.57	2887.64
518.77	2936.79
518.97	2924.50
519.16	2912.21
519.36	3225.55
519.56	2877.40
519.76	2770.90
519.96	2881.49
520.16	3176.40
520.36	2832.34
520.56	3018.71
520.76	2883.54
520.96	2813.91
521.16	3157.97
521.35	3037.14
521.55	3024.85
521.75	3016.66
521.95	2895.83
522.15	2779.09
522.35	2676.70
522.55	2805.72
522.75	3098.58
522.95	2754.52
523.14	2641.88
523.34	3106.77
523.54	2869.20
523.74	2918.36
523.94	2930.64
524.14	2744.28
524.34	3092.43
524.54	3157.97
524.73	2910.16
524.93	3098.58
525.13	2930.64
525.33	2830.29
525.53	3160.02
525.73	3164.11
525.93	2949.08
526.13	2850.77
526.32	2772.95
526.52	3114.96
526.72	3057.62
526.92	2815.96
527.12	2752.47
527.32	2762.71
527.52	3041.23
527.71	2899.92
527.91	2891.73
528.11	2889.68
528.31	2973.65
528.51	2877.40
528.71	3016.66
528.90	3059.67
529.10	3176.40
529.30	2871.25
529.50	2566.10
529.70	3012.56
529.90	2949.08
530.09	2910.16
530.29	2729.94
530.49	2832.34
530.69	3463.12
530.89	2973.65
531.09	2910.16
531.28	2871.25
531.48	3149.78
531.68	2838.48
531.88	2904.02
532.08	3137.49
532.28	2838.48
532.47	2934.74
532.67	2940.88
532.87	3055.57
533.07	2848.72
533.27	2906.07
533.46	2942.93
533.66	3051.47
533.86	2916.31
534.06	2846.68
534.26	2844.63
534.45	2934.74
534.65	3049.43
534.85	2987.99
535.05	2811.86
535.25	3020.75
535.44	2707.41
535.64	2910.16
535.84	2889.68
536.04	2832.34
536.24	2932.69
536.43	2770.90
536.63	2897.88
536.83	2981.84
537.03	3080.14
537.22	2721.75
537.42	2787.29
537.62	2897.88
537.82	2824.15
538.02	3010.51
538.21	2918.36
538.41	3477.45
538.61	3092.43
538.81	2836.44
539.00	3051.47
539.20	2682.84
539.40	2947.03
539.60	2793.43
539.79	3012.56
539.99	3065.81
540.19	2856.92
540.39	2856.92
540.58	2861.01
540.78	3192.78
540.98	3071.95
541.18	3037.14
541.37	2924.50
541.57	3018.71
541.77	3018.71
541.97	2695.13
542.16	2691.03
542.36	2891.73
542.56	2830.29
542.76	3045.33
542.95	2944.98
543.15	3074.00
543.35	3151.82
543.54	2750.42
543.74	2844.63
543.94	3182.54
544.14	2871.25
544.33	2928.60
544.53	2826.20
544.73	2904.02
544.93	2938.84
545.12	2830.29
545.32	2803.67
545.52	2934.74
545.71	2758.61
545.91	2891.73
546.11	2805.72
546.30	2826.20
546.50	2990.03
546.70	3028.95
546.90	2895.83
547.09	2742.23
547.29	2967.51
547.49	2891.73
547.68	2830.29
547.88	2838.48
548.08	3037.14
548.27	3172.30
548.47	2766.81
548.67	2883.54
548.87	3016.66
549.06	2795.48
549.26	2793.43
549.46	3086.29
549.65	2918.36
549.85	2883.54
550.05	2844.63
550.24	2707.41
550.44	2904.02
550.64	2918.36
550.83	2924.50
551.03	3180.50
551.23	3192.78
551.42	3018.71
551.62	2928.60
551.82	3053.52
552.01	2938.84
552.21	3053.52
552.41	2854.87
552.60	3186.64
552.80	3037.14
553.00	2856.92
553.19	2936.79
553.39	3270.61
553.59	2779.09
553.78	2953.17
553.98	2822.10
554.17	2803.67
554.37	3065.81
554.57	2944.98
554.76	2713.56
554.96	2869.20
555.16	3014.61
555.35	2947.03
555.55	2996.18
555.75	2996.18
555.94	3188.69
556.14	2639.83
556.33	2990.03
556.53	2906.07
556.73	3006.42
556.92	2885.59
557.12	2875.35
557.32	3289.04
557.51	3188.69
557.71	2904.02
557.90	3047.38
558.10	3280.85
558.30	2918.36
558.49	2875.35
558.69	2904.02
558.88	3088.34
559.08	2985.94
559.28	2854.87
559.47	2985.94
559.67	3110.86
559.86	3286.99
560.06	2848.72
560.26	2815.96
560.45	3053.52
560.65	2916.31
560.84	3106.77
561.04	2684.89
561.24	3119.06
561.43	2779.09
561.63	3160.02
561.82	2967.51
562.02	3143.63
562.22	2865.11
562.41	2838.48
562.61	2838.48
562.80	2844.63
563.00	3426.25
563.19	2920.40
563.39	2912.21
563.59	3067.86
563.78	2762.71
563.98	2691.03
564.17	2787.29
564.37	2705.37
564.56	2895.83
564.76	2762.71
564.96	2957.27
565.15	3053.52
565.35	3379.15
565.54	2883.54
565.74	2944.98
565.93	3074.00
566.13	3030.99
566.32	2967.51
566.52	2895.83
566.71	2981.84
566.91	3172.30
567.11	2951.12
567.30	2736.09
567.50	3069.91
567.69	3037.14
567.89	2867.16
568.08	2783.19
568.28	2987.99
568.47	2818.00
568.67	2885.59
568.86	2820.05
569.06	3182.54
569.25	2912.21
569.45	2709.46
569.64	2803.67
569.84	2973.65
570.04	3071.95
570.23	2846.68
570.43	2813.91
570.62	3033.04
570.82	3246.03
571.01	2742.23
571.21	2832.34
571.40	2754.52
571.60	3053.52
571.79	2891.73
571.99	2850.77
572.18	2764.76
572.38	3061.71
572.57	2848.72
572.77	2983.89
572.96	3483.59
573.16	3012.56
573.35	2875.35
573.55	3063.76
573.74	3035.09
573.94	2926.55
574.13	2811.86
574.33	3012.56
574.52	3135.44
574.71	3026.90
574.91	2944.98
575.10	2760.66
575.30	2887.64
575.49	2779.09
575.69	2815.96
575.88	2811.86
576.08	2891.73
576.27	3200.98
576.47	2844.63
576.66	3010.51
576.86	3235.79
577.05	3010.51
577.25	2961.36
577.44	3002.32
577.64	2891.73
577.83	3139.54
578.02	2879.44
578.22	3014.61
578.41	3258.32
578.61	2953.17
578.80	2775.00
579.00	2877.40
579.19	2942.93
579.39	3006.42
579.58	2979.79
579.77	2914.26
579.97	3178.45
580.16	3155.92
580.36	3067.86
580.55	3000.27
580.75	3110.86
580.94	2936.79
581.13	3086.29
581.33	2992.08
581.52	2922.45
581.72	3321.81
581.91	2959.31
582.11	2852.82
582.30	3160.02
582.49	3016.66
582.69	3151.82
582.88	2951.12
583.08	2998.23
583.27	3205.07
583.47	3006.42
583.66	2830.29
583.85	2881.49
584.05	2957.27
584.24	2973.65
584.44	2926.55
584.63	3205.07
584.82	3155.92
585.02	3110.86
585.21	3022.80
585.41	3114.96
585.60	2963.41
585.79	3119.06
585.99	3188.69
586.18	3016.66
586.37	3862.47
586.57	5840.81
586.76	16654.08
586.96	35532.26
587.15	49288.46
587.34	57283.73
587.54	61129.82
587.73	54715.58
587.93	39232.94
588.12	29806.14
588.31	24176.27
588.51	21231.29
588.70	19609.30
588.89	17035.00
589.09	14556.96
589.28	12617.54
589.47	9946.98
589.67	7669.64
589.86	5973.92
590.06	4728.76
590.25	4040.64
590.44	3514.31
590.64	3297.23
590.83	3164.11
591.02	3227.60
591.22	2858.96
591.41	2875.35
591.60	2992.08
591.80	3348.43
591.99	2729.94
592.18	2848.72
592.38	3123.15
592.57	2842.58
592.76	2953.17
592.96	2893.78
593.15	3039.19
593.34	3264.46
593.54	2877.40
593.73	2985.94
593.92	3194.83
594.12	3074.00
594.31	2891.73
594.50	3102.67
594.70	3057.62
594.89	3434.44
595.08	2742.23
595.28	3026.90
595.47	3530.70
595.66	3090.38
595.86	2731.99
596.05	2775.00
596.24	2965.46
596.43	3317.71
596.63	2959.31
596.82	3016.66
597.01	3088.34
597.21	3315.66
597.40	2861.01
597.59	2844.63
597.79	3045.33
597.98	3069.91
598.17	2953.17
598.36	2942.93
598.56	3119.06
598.75	2924.50
598.94	3002.32
599.14	2879.44
599.33	2861.01
599.52	3196.88
599.71	2990.03
599.91	2928.60
600.10	3090.38
600.29	2990.03
600.48	2967.51
600.68	3008.47
600.87	2998.23
601.06	2865.11
601.26	2949.08
601.45	2951.12
601.64	2906.07
601.83	3231.69
602.03	2834.39
602.22	2770.90
602.41	3088.34
602.60	3366.86
602.80	3008.47
602.99	2992.08
603.18	2877.40
603.37	2979.79
603.57	2879.44
603.76	2836.44
603.95	3241.93
604.14	2918.36
604.34	2760.66
604.53	2852.82
604.72	3041.23
604.91	3119.06
605.10	2924.50
605.30	2772.95
605.49	3362.76
605.68	3170.26
605.87	2891.73
606.07	2791.38
606.26	2918.36
606.45	3078.10
606.64	2844.63
606.84	2781.14
607.03	2979.79
607.22	3121.10
607.41	2805.72
607.60	2904.02
607.80	3194.83
607.99	2961.36
608.18	2891.73
608.37	2861.01
608.56	2738.13
608.76	3129.30
608.95	3143.63
609.14	2807.77
609.33	3278.80
609.52	3227.60
609.72	2938.84
609.91	2951.12
610.10	3039.19
610.29	3184.59
610.48	2994.13
610.68	2973.65
610.87	2934.74
611.06	3143.63
611.25	2869.20
611.44	2971.60
611.63	2932.69
611.83	3131.34
612.02	2779.09
612.21	2985.94
612.40	2670.55
612.59	2803.67
612.79	2854.87
612.98	2920.40
613.17	3246.03
613.36	2961.36
613.55	3082.19
613.74	2865.11
613.93	2996.18
614.13	3076.05
614.32	3092.43
614.51	2920.40
614.70	2963.41
614.89	2971.60
615.08	2996.18
615.28	3180.50
615.47	2770.90
615.66	3119.06
615.85	2873.30
616.04	2987.99
616.23	3002.32
616.42	2965.46
616.62	2867.16
616.81	2918.36
617.00	2940.88
617.19	3102.67
617.38	2928.60
617.57	2955.22
617.76	3086.29
617.95	3106.77
618.15	3059.67
618.34	3065.81
618.53	2736.09
618.72	3233.74
618.91	3016.66
619.10	2940.88
619.29	3043.28
619.48	2979.79
619.68	2783.19
619.87	2899.92
620.06	2738.13
620.25	3207.12
620.44	2781.14
620.63	2873.30
620.82	3030.99
621.01	2893.78
621.20	2815.96
621.39	2940.88
621.59	3078.10
621.78	2969.55
621.97	2951.12
622.16	2973.65
622.35	3137.49
622.54	3143.63
622.73	3033.04
622.92	2664.41
623.11	3049.43
623.30	2949.08
623.49	2965.46
623.68	2752.47
623.88	3123.15
624.07	2940.88
624.26	2770.90
624.45	2856.92
624.64	2930.64
624.83	3016.66
625.02	2867.16
625.21	2783.19
625.40	3020.75
625.59	3246.03
625.78	2918.36
625.97	3006.42
626.16	3192.78
626.35	3108.82
626.54	2852.82
626.74	3041.23
626.93	2920.40
627.12	2879.44
627.31	2914.26
627.50	2846.68
627.69	3162.06
627.88	2826.20
628.07	2777.05
628.26	2615.26
628.45	2836.44
628.64	2842.58
628.83	2858.96
629.02	2738.13
629.21	3061.71
629.40	3033.04
629.59	2799.57
629.78	2815.96
629.97	3065.81
630.16	3008.47
630.35	2889.68
630.54	2998.23
630.73	2846.68
630.92	2967.51
631.11	2799.57
631.30	2881.49
631.49	3129.30
631.68	2936.79
631.87	2987.99
632.06	2789.33
632.25	3434.44
632.44	2963.41
632.63	2990.03
632.82	2858.96
633.01	2856.92
633.20	3035.09
633.39	2897.88
633.58	2729.94
633.77	3020.75
633.96	3117.01
634.15	2994.13
634.34	2961.36
634.53	3080.14
634.72	2920.40
634.91	2734.04
635.10	2883.54
635.29	3164.11
635.48	2973.65
635.67	2750.42
635.86	2754.52
636.05	3235.79
636.24	2936.79
636.43	2869.20
636.62	3006.42
636.81	2557.91
637.00	3020.75
637.19	2906.07
637.38	2875.35
637.57	2879.44
637.76	2932.69
637.95	2963.41
638.14	2861.01
638.33	2998.23
638.52	2981.84
638.71	2805.72
638.89	2791.38
639.08	3444.68
639.27	3166.16
639.46	3035.09
639.65	3319.76
639.84	3418.06
640.03	3452.88
640.22	3295.18
640.41	3211.22
640.60	3065.81
640.79	3135.44
640.98	2963.41
641.17	3006.42
641.36	3198.93
641.55	3211.22
641.74	2736.09
641.92	2729.94
642.11	2787.29
642.30	2977.75
642.49	2824.15
642.68	2793.43
642.87	3026.90
643.06	3117.01
643.25	2686.94
643.44	2809.81
643.63	2871.25
643.82	3164.11
644.00	2768.85
644.19	2879.44
644.38	2828.24
644.57	3030.99
644.76	2908.12
644.95	2865.11
645.14	3016.66
645.33	2944.98
645.52	2899.92
645.71	2820.05
645.89	2840.53
646.08	2869.20
646.27	2914.26
646.46	3121.10
646.65	2746.33
646.84	3088.34
647.03	2803.67
647.22	3030.99
647.40	2983.89
647.59	2951.12
647.78	2752.47
647.97	2766.81
648.16	2850.77
648.35	3235.79
648.54	2987.99
648.73	2822.10
648.91	3200.98
649.10	3100.62
649.29	2832.34
649.48	2805.72
649.67	3084.24
649.86	3092.43
650.05	2856.92
650.23	3065.81
650.42	2861.01
650.61	3207.12
650.80	3002.32
650.99	3071.95
651.18	3243.98
651.36	3184.59
651.55	2811.86
651.74	2926.55
651.93	3057.62
652.12	2957.27
652.31	2885.59
652.49	2873.30
652.68	2914.26
652.87	3280.85
653.06	2926.55
653.25	3114.96
653.44	2922.45
653.62	3243.98
653.81	2869.20
654.00	2734.04
654.19	3157.97
654.38	3424.20
654.56	2887.64
654.75	2852.82
654.94	3061.71
655.13	3026.90
655.32	2846.68
655.51	3014.61
655.69	2916.31
655.88	3143.63
656.07	2762.71
656.26	2899.92
656.45	2777.05
656.63	3008.47
656.82	2871.25
657.01	3121.10
657.20	2848.72
657.38	3203.02
657.57	2830.29
657.76	2721.75
657.95	3198.93
658.14	2899.92
658.32	2920.40
658.51	2713.56
658.70	2963.41
658.89	3059.67
659.08	2912.21
659.26	3135.44
659.45	2869.20
659.64	3041.23
659.83	2848.72
660.01	3254.22
660.20	3012.56
660.39	3233.74
660.58	2590.68
660.76	2955.22
660.95	2764.76
661.14	2957.27
661.33	2760.66
661.51	2828.24
661.70	2940.88
661.89	3045.33
662.08	2836.44
662.26	2699.22
662.45	2836.44
662.64	3286.99
662.83	3006.42
663.01	2764.76
663.20	2901.97
663.39	3256.27
663.58	2818.00
663.76	2842.58
663.95	3145.68
664.14	2822.10
664.32	2947.03
664.51	2779.09
664.70	2738.13
664.89	3000.27
665.07	2715.61
665.26	2992.08
665.45	2750.42
665.64	3147.73
665.82	2818.00
666.01	3000.27
666.20	2668.50
666.38	3041.23
666.57	3061.71
666.76	4855.73
666.95	10917.72
667.13	17704.69
667.32	21845.68
667.51	24157.84
667.69	25212.54
667.88	20917.95
668.07	15361.81
668.25	12908.35
668.44	11143.00
668.63	9750.38
668.81	8628.09
669.00	7344.02
669.19	6655.90
669.38	5846.95
669.56	4970.42
669.75	4466.62
669.94	3901.38
670.12	3354.57
670.31	3174.35
670.50	3182.54
670.68	3123.15
670.87	3043.28
671.06	2803.67
671.24	2979.79
671.43	3268.56
671.62	3051.47
671.80	2848.72
671.99	2930.64
672.18	2992.08
672.36	3104.72
672.55	2897.88
672.74	2916.31
672.92	2998.23
673.11	3100.62
673.29	2820.05
673.48	3090.38
673.67	2908.12
673.85	3147.73
674.04	2807.77
674.23	3020.75
674.41	3348.43
674.60	2897.88
674.79	2711.51
674.97	2736.09
675.16	3074.00
675.34	3196.88
675.53	2818.00
675.72	2973.65
675.90	3307.47
676.09	2895.83
676.28	2963.41
676.46	2658.26
676.65	3143.63
676.83	2840.53
677.02	2947.03
677.21	2914.26
677.39	3112.91
677.58	2877.40
677.77	2793.43
677.95	2713.56
678.14	2871.25
678.32	2955.22
678.51	2801.62
678.70	3164.11
678.88	2842.58
679.07	3002.32
679.25	2908.12
679.44	2869.20
679.63	2748.37
679.81	2940.88
680.00	3110.86
680.18	2930.64
680.37	3233.74
680.55	2940.88
680.74	2758.61
680.93	2510.81
681.11	2910.16
681.30	2977.75
681.48	2916.31
681.67	2803.67
681.85	2977.75
682.04	2920.40
682.23	3014.61
682.41	2895.83
682.60	2893.78
682.78	2942.93
682.97	2699.22
683.15	2916.31
683.34	3012.56
683.53	3272.65
683.71	2717.65
683.90	2983.89
684.08	3293.13
684.27	2926.55
684.45	2973.65
684.64	2975.70
684.82	2947.03
685.01	3074.00
685.19	2848.72
685.38	3182.54
685.57	3022.80
685.75	2850.77
685.94	2813.91
686.12	2766.81
686.31	2858.96
686.49	3309.52
686.68	2695.13
686.86	2891.73
687.05	2981.84
687.23	3327.95
687.42	2787.29
687.60	2758.61
687.79	3096.53
687.97	3241.93
688.16	3030.99
688.34	3092.43
688.53	2678.74
688.71	3076.05
688.90	3092.43
689.08	2934.74
689.27	2760.66
689.45	3094.48
689.64	3037.14
689.82	2842.58
690.01	3049.43
690.19	3035.09
690.38	2914.26
690.56	3028.95
690.75	2852.82
690.93	2912.21
691.12	2791.38
691.30	2906.07
691.49	2893.78
691.67	2996.18
691.86	3153.87
692.04	2803.67
692.23	2891.73
692.41	3055.57
692.60	3209.17
692.78	3039.19
692.97	2940.88
693.15	3106.77
693.34	3143.63
693.52	3043.28
693.71	2844.63
693.89	2893.78
694.08	2736.09
694.26	3014.61
694.44	3135.44
694.63	3067.86
694.81	2789.33
695.00	2828.24
695.18	3186.64
695.37	3440.59
695.55	2930.64
695.74	2906.07
695.92	2826.20
696.10	3346.38
696.29	2717.65
696.47	2838.48
696.66	2697.17
696.84	2867.16
697.03	2940.88
697.21	3125.20
697.40	4450.24
697.58	3184.59
697.76	2858.96
697.95	2891.73
698.13	2750.42
698.32	2934.74
698.50	2885.59
698.68	2942.93
698.87	3084.24
699.05	3237.84
699.24	2848.72
699.42	2766.81
699.61	3071.95
699.79	2977.75
699.97	2877.40
700.16	2754.52
700.34	2807.77
700.53	3024.85
700.71	3123.15
700.89	3020.75
701.08	2858.96
701.26	2985.94
701.45	3321.81
701.63	2873.30
701.81	2899.92
702.00	2832.34
702.18	2985.94
702.37	2793.43
702.55	3190.74
702.73	3071.95
702.92	2856.92
703.10	3176.40
703.28	3110.86
703.47	2863.06
703.65	3092.43
703.84	2949.08
704.02	2811.86
704.20	3280.85
704.39	2781.14
704.57	2838.48
704.75	3170.26
704.94	3055.57
705.12	2926.55
705.30	3409.87
705.49	6719.39
705.67	12832.57
705.86	18259.69
706.04	20655.81
706.22	22890.15
706.41	22187.69
706.59	16971.52
706.77	13221.69
706.96	11288.40
707.14	10377.06
707.32	9086.84
707.51	7903.11
707.69	6643.61
707.87	5537.71
708.06	4446.14
708.24	3962.82
708.42	3536.84
708.61	3692.49
708.79	2959.31
708.97	3006.42
709.16	3074.00
709.34	2977.75
709.52	2885.59
709.71	2863.06
709.89	3157.97
710.07	2746.33
710.26	2731.99
710.44	2832.34
710.62	3164.11
710.80	3041.23
710.99	3000.27
711.17	3014.61
711.35	2822.10
711.54	2826.20
711.72	3080.14
711.90	2910.16
712.09	2987.99
712.27	2904.02
712.45	3014.61
712.63	2871.25
712.82	3008.47
713.00	2983.89
713.18	3020.75
713.37	3080.14
713.55	3135.44
713.73	3104.72
713.91	3014.61
714.10	2858.96
714.28	2942.93
714.46	3024.85
714.65	2928.60
714.83	2934.74
715.01	2963.41
715.19	2942.93
715.38	2731.99
715.56	2936.79
715.74	2852.82
715.92	2803.67
716.11	3182.54
716.29	2654.17
716.47	2928.60
716.65	2938.84
716.84	2703.32
717.02	3008.47
717.20	2744.28
717.38	2928.60
717.57	2928.60
717.75	2885.59
717.93	2922.45
718.11	3119.06
718.30	2721.75
718.48	2971.60
718.66	3098.58
718.84	3149.78
719.03	2881.49
719.21	2699.22
719.39	3315.66
719.57	3000.27
719.75	3065.81
719.94	2793.43
720.12	2879.44
720.30	3010.51
720.48	2955.22
720.67	2834.39
720.85	2787.29
721.03	2918.36
721.21	2805.72
721.39	2957.27
721.58	3125.20
721.76	3026.90
721.94	2969.55
722.12	2985.94
722.30	3370.96
722.49	2906.07
722.67	2861.01
722.85	2891.73
723.03	2766.81
723.21	2889.68
723.40	2936.79
723.58	3037.14
723.76	3108.82
723.94	3137.49
724.12	2873.30
724.30	3084.24
724.49	3170.26
724.67	2803.67
724.85	2947.03
725.03	2727.89
725.21	3014.61
725.40	3221.45
725.58	2906.07
725.76	3106.77
725.94	3123.15
726.12	2822.10
726.30	2895.83
726.49	2873.30
726.67	2895.83
726.85	3026.90
727.03	3409.87
727.21	4505.53
727.39	5445.55
727.57	5787.56
727.76	6256.54
727.94	6350.75
728.12	5578.67
728.30	4761.53
728.48	4456.38
728.66	4235.20
728.84	3925.96
729.03	3467.21
729.21	3450.83
729.39	3258.32
729.57	3045.33
729.75	3051.47
729.93	2969.55
730.11	2883.54
730.30	2904.02
730.48	2924.50
730.66	3016.66
730.84	3055.57
731.02	2994.13
731.20	2852.82
731.38	2906.07
731.56	2688.98
731.74	2738.13
731.93	2914.26
732.11	2949.08
732.29	2875.35
732.47	3047.38
732.65	3061.71
732.83	3045.33
733.01	2967.51
733.19	2756.57
733.37	3096.53
733.56	2879.44
733.74	2738.13
733.92	3284.94
734.10	2897.88
734.28	3030.99
734.46	2668.50
734.64	3004.37
734.82	2822.10
735.00	2756.57
735.18	2818.00
735.36	2992.08
735.54	2895.83
735.73	2959.31
735.91	3002.32
736.09	3284.94
736.27	3004.37
736.45	2985.94
736.63	2637.78
736.81	2916.31
736.99	3110.86
737.17	3078.10
737.35	2858.96
737.53	3024.85
737.71	2914.26
737.89	3106.77
738.07	2850.77
738.25	2914.26
738.43	2734.04
738.61	2889.68
738.80	2717.65
738.98	2748.37
739.16	2885.59
739.34	2731.99
739.52	3174.35
739.70	2969.55
739.88	3119.06
740.06	3024.85
740.24	2621.40
740.42	3162.06
740.60	2731.99
740.78	2813.91
740.96	2621.40
741.14	3035.09
741.32	3016.66
741.50	2699.22
741.68	3225.55
741.86	3194.83
742.04	2846.68
742.22	2820.05
742.40	2877.40
742.58	3033.04
742.76	2811.86
742.94	3123.15
743.12	2748.37
743.30	2961.36
743.48	3061.71
743.66	2820.05
743.84	2861.01
744.02	3002.32
744.20	2934.74
744.38	2670.55
744.56	2760.66
744.74	3176.40
744.92	3006.42
745.10	3117.01
745.28	2922.45
745.46	3211.22
745.64	2848.72
745.82	3039.19
746.00	2834.39
746.18	3010.51
746.36	2838.48
746.54	2899.92
746.72	2895.83
746.90	2840.53
747.08	3176.40
747.26	2795.48
747.44	2987.99
747.62	3016.66
747.80	3002.32
747.98	2967.51
748.15	2846.68
748.33	3286.99
748.51	2904.02
748.69	2955.22
748.87	2813.91
749.05	2947.03
749.23	2998.23
749.41	2867.16
749.59	2867.16
749.77	3217.36
749.95	2889.68
750.13	2846.68
750.31	2926.55
750.49	2973.65
750.67	3145.68
750.85	2994.13
751.03	2889.68
751.20	3307.47
751.38	2924.50
751.56	2893.78
751.74	2918.36
751.92	2969.55
752.10	2797.53
752.28	3000.27
752.46	2832.34
752.64	2883.54
752.82	2932.69
753.00	2983.89
753.18	2676.70
753.35	2914.26
753.53	2955.22
753.71	2807.77
753.89	2940.88
754.07	3123.15
754.25	3067.86
754.43	2918.36
754.61	2723.80
754.79	3080.14
754.97	2942.93
755.14	3037.14
755.32	2695.13
755.50	3051.47
755.68	3020.75
755.86	2775.00
756.04	2838.48
756.22	2719.70
756.40	3114.96
756.57	3074.00
756.75	2775.00
756.93	3102.67
757.11	3121.10
757.29	2725.85
757.47	2764.76
757.65	2725.85
757.82	2611.16
758.00	2756.57
758.18	2756.57
758.36	2811.86
758.54	3286.99
758.72	2678.74
758.90	3006.42
759.07	3033.04
759.25	2877.40
759.43	2947.03
759.61	2660.31
759.79	4202.43
759.97	3166.16
760.15	2875.35
760.32	2875.35
760.50	3063.76
760.68	3297.23
760.86	2781.14
761.04	3108.82
761.22	3090.38
761.39	3002.32
761.57	2949.08
761.75	2869.20
761.93	3096.53
762.11	3018.71
762.28	2951.12
762.46	2731.99
762.64	3172.30
762.82	2863.06
763.00	2809.81
763.18	3035.09
763.35	2881.49
763.53	3088.34
763.71	2889.68
763.89	2793.43
764.07	3020.75
764.24	3012.56
764.42	2990.03
764.60	2901.97
764.78	2987.99
764.96	3033.04
765.13	3119.06
765.31	2779.09
765.49	3074.00
765.67	2805.72
765.84	2881.49
766.02	2770.90
766.20	2777.05
766.38	3074.00
766.56	2951.12
766.73	3008.47
766.91	3010.51
767.09	3037.14
767.27	2889.68
767.44	2797.53
767.62	3125.20
767.80	2961.36
767.98	2873.30
768.15	2846.68
768.33	3151.82
768.51	3139.54
768.69	3030.99
768.87	2881.49
769.04	3100.62
769.22	3387.34
769.40	3049.43
769.58	2977.75
769.75	3067.86
769.93	3153.87
770.11	2848.72
770.28	2750.42
770.46	3180.50
770.64	3061.71
770.82	2846.68
770.99	2746.33
771.17	3045.33
771.35	2924.50
771.53	2897.88
771.70	2852.82
771.88	2987.99
772.06	2992.08
772.23	2803.67
772.41	2983.89
772.59	2908.12
772.77	2863.06
772.94	2779.09
773.12	2889.68
773.30	2910.16
773.47	2895.83
773.65	2758.61
773.83	3063.76
774.01	2951.12
774.18	2695.13
774.36	2813.91
774.54	2746.33
774.71	3043.28
774.89	2719.70
775.07	2744.28
775.24	2805.72
775.42	2908.12
775.60	3301.33
775.78	2791.38
775.95	2746.33
776.13	2666.46
776.31	2629.59
776.48	3002.32
776.66	3024.85
776.84	2971.60
777.01	2861.01
777.19	2811.86
777.37	2789.33
777.54	3039.19
777.72	3321.81
777.90	2969.55
778.07	2785.24
778.25	3508.17
778.43	3125.20
778.60	2807.77
778.78	2899.92
778.96	3137.49
779.13	2801.62
779.31	2908.12
779.49	2805.72
779.66	2971.60
779.84	2951.12
780.01	2822.10
780.19	2719.70
780.37	3239.89
780.54	3108.82
780.72	2766.81
780.90	2879.44
781.07	2904.02
781.25	2791.38
781.43	3059.67
781.60	2811.86
781.78	3170.26
781.95	3008.47
782.13	2783.19
782.31	2822.10
782.48	2693.08
782.66	2944.98
782.83	3108.82
783.01	2942.93
783.19	3129.30
783.36	2957.27
783.54	2731.99
783.72	2996.18
783.89	2922.45
784.07	2979.79
784.24	2965.46
784.42	2996.18
784.60	2983.89
784.77	3086.29
784.95	2613.21
785.12	2861.01
785.30	2992.08
785.47	2738.13
785.65	2758.61
785.83	2824.15
786.00	2842.58
786.18	2983.89
786.35	2822.10
786.53	2783.19
786.71	3170.26
786.88	3074.00
787.06	2965.46
787.23	2875.35
787.41	2779.09
787.58	2963.41
787.76	2764.76
787.94	2987.99
788.11	3039.19
788.29	2723.80
788.46	2828.24
788.64	2627.54
788.81	2942.93
788.99	2906.07
789.16	2803.67
789.34	2904.02
789.52	2912.21
789.69	2824.15
789.87	2662.36
790.04	2830.29
790.22	3047.38
790.39	3352.52
790.57	2805.72
790.74	2699.22
790.92	3145.68
791.09	2727.89
791.27	2961.36
791.44	2967.51
791.62	2869.20
791.79	3053.52
791.97	2885.59
792.15	3184.59
792.32	3098.58
792.50	3098.58
792.67	3110.86
792.85	3153.87
793.02	2949.08
793.20	2852.82
793.37	2758.61
793.55	2803.67
793.72	2709.46
793.90	3041.23
794.07	2834.39
794.25	2883.54
794.42	2981.84
794.60	2891.73
794.77	2899.92
794.95	2969.55
795.12	3114.96
795.30	2957.27
795.47	2637.78
795.65	3207.12
795.82	3053.52
796.00	2818.00
796.17	2844.63
796.34	2688.98
796.52	3026.90
796.69	3227.60
796.87	2969.55
797.04	3000.27
797.22	3198.93
797.39	3030.99
797.57	3030.99
797.74	2951.12
797.92	3037.14
798.09	2883.54
798.27	3114.96
798.44	2818.00
798.62	2834.39
798.79	3074.00
798.96	3008.47
799.14	2916.31
799.31	3452.88
799.49	2912.21
799.66	2848.72
799.84	2979.79
800.01	2717.65
800.19	3030.99
800.36	2674.65
800.53	2762.71
800.71	3092.43
800.88	3250.13
801.06	2838.48
801.23	2793.43
801.41	2944.98
801.58	2852.82
801.75	2836.44
801.93	2922.45
802.10	3088.34
802.28	2955.22
802.45	2877.40
802.63	2916.31
802.80	3235.79
802.97	2895.83
803.15	2983.89
803.32	2777.05
803.50	2832.34
803.67	2807.77
803.84	2748.37
804.02	2901.97
804.19	2971.60
804.37	2641.88
804.54	2707.41
804.71	2791.38
804.89	3000.27
805.06	2801.62
805.24	2768.85
805.41	2764.76
805.58	2789.33
805.76	3463.12
805.93	2893.78
806.10	2947.03
806.28	3067.86
806.45	3039.19
806.63	2996.18
806.80	2951.12
806.97	3002.32
807.15	2975.70
807.32	2893.78
807.49	2863.06
807.67	2799.57
807.84	3014.61
808.01	2674.65
808.19	3090.38
808.36	3368.91
808.54	2877.40
808.71	2836.44
808.88	2820.05
809.06	3221.45
809.23	3205.07
809.40	2863.06
809.58	2836.44
809.75	2904.02
809.92	2705.37
810.10	3227.60
810.27	2875.35
810.44	3055.57
810.62	3065.81
810.79	2969.55
810.96	2832.34
811.14	2889.68
811.31	3078.10
811.48	3041.23
811.66	3004.37
811.83	3133.39
812.00	3030.99
812.18	2975.70
812.35	3114.96
812.52	2971.60
812.69	2861.01
812.87	2822.10
813.04	2797.53
813.21	2949.08
813.39	2803.67
813.56	2744.28
813.73	3108.82
813.91	2637.78
814.08	2908.12
814.25	2938.84
814.42	2611.16
814.60	2908.12
814.77	2963.41
814.94	2910.16
815.12	2908.12
815.29	3291.09
815.46	2906.07
815.63	2926.55
815.81	2828.24
815.98	2861.01
816.15	2906.07
816.33	2918.36
816.50	2858.96
816.67	2973.65
816.84	2930.64
817.02	2809.81
817.19	2789.33
817.36	3067.86
817.53	3147.73
817.71	2764.76
817.88	2998.23
818.05	2865.11
818.22	2850.77
818.40	3045.33
818.57	2881.49
818.74	2965.46
818.91	2936.79
819.09	3020.75
819.26	2969.55
819.43	2906.07
819.60	2867.16
819.78	3035.09
819.95	3020.75
820.12	2844.63
820.29	3151.82
820.47	3155.92
820.64	2781.14
820.81	2807.77
820.98	2848.72
821.15	2820.05
821.33	3061.71
821.50	2770.90
821.67	3028.95
821.84	2879.44
822.02	2901.97
822.19	3080.14
822.36	2811.86
822.53	2828.24
822.70	2799.57
822.88	2901.97
823.05	3217.36
823.22	2920.40
823.39	2877.40
823.56	2959.31
823.74	3256.27
823.91	2744.28
824.08	2807.77
824.25	2852.82
824.42	3319.76
824.60	2709.46
824.77	2881.49
824.94	2881.49
825.11	3059.67
825.28	2711.51
825.45	2891.73
825.63	3006.42
825.80	2805.72
825.97	2924.50
826.14	2916.31
826.31	2678.74
826.48	3092.43
826.66	2822.10
826.83	2791.38
827.00	2924.50
827.17	2826.20
827.34	2910.16
827.51	2807.77
827.69	2975.70
827.86	2701.27
828.03	2967.51
828.20	2850.77
828.37	2779.09
828.54	3078.10
828.71	2779.09
828.89	3010.51
829.06	2977.75
829.23	3297.23
829.40	2822.10
829.57	2848.72
829.74	3194.83
829.91	2865.11
830.09	2813.91
830.26	3037.14
830.43	3192.78
830.60	2949.08
830.77	2906.07
830.94	3082.19
831.11	3112.91
831.28	2916.31
831.46	2951.12
831.63	2838.48
831.80	3160.02
831.97	2897.88
832.14	2861.01
832.31	2877.40
832.48	2981.84
832.65	3196.88
832.82	2973.65
832.99	2959.31
833.17	2863.06
833.34	3168.21
833.51	2797.53
833.68	2615.26
833.85	3082.19
834.02	2789.33
834.19	2787.29
834.36	2777.05
834.53	3016.66
834.70	3155.92
834.87	2836.44
835.04	2631.64
835.22	2869.20
835.39	2856.92
835.56	2734.04
835.73	2744.28
835.90	3114.96
836.07	2762.71
836.24	2908.12
836.41	2686.94
836.58	2824.15
836.75	3129.30
836.92	2721.75
837.09	2623.45
837.26	3129.30
837.43	3028.95
837.60	2815.96
837.77	2742.23
837.94	3108.82
838.12	3233.74
838.29	2760.66
838.46	2600.92
838.63	2820.05
838.80	3207.12
838.97	2781.14
839.14	2707.41
839.31	2918.36
839.48	3049.43
839.65	2758.61
839.82	2787.29
839.99	3049.43
840.16	2998.23
840.33	2686.94
840.50	2781.14
840.67	2873.30
840.84	2557.91
841.01	2729.94
841.18	2688.98
841.35	2963.41
841.52	3024.85
841.69	2987.99
841.86	2738.13
842.03	3008.47
842.20	3088.34
842.37	2752.47
842.54	2795.48
842.71	2965.46
842.88	2707.41
843.05	2756.57
843.22	2781.14
843.39	3133.39
843.56	2904.02
843.73	2738.13
843.90	2799.57
844.07	3020.75
844.24	3049.43
844.41	2736.09
844.58	2779.09
844.75	2922.45
844.92	3020.75
845.09	2811.86
845.26	2703.32
845.43	3133.39
845.60	2944.98
845.77	2887.64
845.94	2846.68
846.10	3076.05
846.27	2752.47
846.44	2619.35
846.61	2621.40
846.78	3010.51
846.95	3110.86
847.12	2709.46
847.29	2754.52
847.46	2861.01
847.63	3164.11
847.80	2727.89
847.97	2713.56
848.14	3442.64
848.31	2873.30
848.48	2611.16
848.65	2777.05
848.82	2895.83
848.98	3383.24
849.15	2922.45
849.32	2873.30
849.49	3112.91
849.66	2932.69
849.83	2740.18
850.00	2680.79
850.17	3112.91
850.34	2893.78
850.51	2643.93
850.68	2686.94
850.85	3321.81
851.01	3020.75
851.18	2648.02
851.35	2760.66
851.52	3033.04
851.69	3067.86
851.86	2605.02
852.03	2625.50
852.20	3123.15
852.37	2930.64
852.53	2605.02
852.70	2691.03
852.87	3028.95
853.04	3078.10
853.21	2723.80
853.38	2920.40
853.55	3160.02
853.72	3071.95
853.89	2648.02
854.05	2717.65
854.22	2887.64
854.39	2963.41
854.56	2658.26
854.73	2965.46
854.90	2818.00
855.07	2957.27
855.23	2625.50
855.40	2648.02
855.57	2883.54
855.74	2613.21
855.91	2936.79
856.08	2660.31
856.25	2727.89
856.41	2811.86
856.58	2688.98
856.75	2762.71
856.92	2822.10
857.09	3104.72
857.26	2639.83
857.42	2813.91
857.59	3104.72
857.76	2875.35
857.93	2731.99
858.10	2787.29
858.27	2791.38
858.43	2973.65
858.60	2707.41
858.77	2666.46
858.94	2770.90
859.11	3104.72
859.27	2826.20
859.44	2729.94
859.61	3368.91
859.78	3088.34
859.95	2768.85
860.12	2740.18
860.28	3381.20
860.45	3295.18
860.62	2697.17
860.79	2811.86
860.95	2895.83
861.12	2770.90
861.29	2611.16
861.46	2697.17
861.63	2961.36
861.79	3028.95
861.96	2621.40
862.13	2775.00
862.30	3221.45
862.47	2875.35
862.63	2605.02
862.80	2828.24
862.97	3211.22
863.14	3022.80
863.30	2789.33
863.47	2672.60
863.64	3147.73
863.81	3067.86
863.97	2590.68
864.14	2719.70
864.31	2926.55
864.48	2885.59
864.65	2695.13
864.81	2795.48
864.98	3039.19
865.15	3106.77
865.32	2871.25
865.48	2836.44
865.65	3272.65
865.82	2895.83
865.98	2775.00
866.15	2777.05
866.32	2928.60
866.49	2947.03
866.65	2861.01
866.82	2815.96
866.99	3000.27
867.16	2848.72
867.32	2789.33
867.49	2688.98
867.66	2940.88
867.83	2910.16
867.99	2654.17
868.16	2748.37
868.33	2742.23
868.49	2912.21
868.66	2695.13
868.83	2842.58
868.99	2973.65
869.16	3047.38
869.33	2881.49
869.50	2797.53
869.66	3039.19
869.83	2877.40
870.00	2672.60
870.16	2824.15
870.33	2969.55
870.50	3147.73
870.66	2820.05
870.83	2787.29
871.00	2901.97
871.17	3012.56
871.33	2807.77
871.50	2693.08
871.67	2928.60
871.83	2758.61
872.00	2791.38
872.17	2795.48
872.33	3332.05
872.50	3151.82
872.67	2725.85
872.83	2754.52
873.00	3047.38
873.17	2965.46
873.33	2756.57
873.50	2766.81
873.67	2854.87
873.83	2803.67
874.00	2713.56
874.16	2924.50
874.33	2990.03
874.50	2789.33
874.66	2746.33
874.83	2822.10
875.00	3209.17
875.16	3182.54
875.33	2775.00
875.50	2584.54
875.66	2916.31
875.83	2899.92
875.99	2787.29
876.16	2762.71
876.33	2811.86
876.49	2955.22
876.66	2752.47
876.83	2744.28
876.99	2656.22
877.16	2983.89
877.32	2629.59
877.49	2762.71
877.66	2990.03
877.82	3209.17
877.99	2805.72
878.15	3028.95
878.32	3002.32
878.49	3016.66
878.65	2789.33
878.82	3024.85
878.98	2846.68
879.15	3078.10
879.32	2955.22
879.48	2850.77
879.65	2895.83
879.81	2987.99
879.98	2742.23
880.15	2738.13
880.31	3119.06
880.48	2799.57
880.64	2777.05
880.81	2832.34
880.97	3276.75
881.14	3178.45
881.31	2674.65
881.47	2840.53
881.64	2887.64
881.80	2762.71
881.97	2922.45
882.13	2738.13
882.30	2764.76
882.47	2891.73
882.63	2684.89
882.80	2738.13
882.96	2850.77
883.13	3170.26
883.29	2758.61
883.46	2725.85
883.62	3309.52
883.79	3016.66
883.95	2899.92
884.12	2662.36
884.29	3207.12
884.45	2953.17
884.62	2764.76
884.78	2699.22
884.95	3192.78
885.11	2863.06
885.28	2867.16
885.44	2795.48
885.61	3045.33
885.77	3196.88
885.94	2846.68
886.10	2863.06
886.27	3053.52
886.43	3227.60
886.60	2922.45
886.76	2754.52
886.93	2793.43
887.09	2883.54
887.26	2600.92
887.42	2848.72
887.59	3155.92
887.75	3336.14
887.92	2834.39
888.08	2885.59
888.25	3327.95
888.41	3149.78
888.58	2750.42
888.74	2725.85
888.91	2832.34
>>>>>End Processed Spectral Data<<<<<
