SpectraSuite Data File
++++++++++++++++++++++++++++++++++++
Date: Thu May 05 21:11:02 CEST 2016
User: root
Dark Spectrum Present: No
Reference Spectrum Present: No
Number of Sampled Component Spectra: 1
Spectrometers: USB4C02835
Integration Time (usec): 100000 (USB4C02835)
Spectra Averaged: 1 (USB4C02835)
Boxcar Smoothing: 0 (USB4C02835)
Correct for Electrical Dark: No (USB4C02835)
Strobe/Lamp Enabled: No (USB4C02835)
Correct for Detector Non-linearity: No (USB4C02835)
Correct for Stray Light: No (USB4C02835)
Number of Pixels in Processed Spectrum: 3648
>>>>>Begin Processed Spectral Data<<<<<
177.47	2111.46
177.69	2111.46
177.91	2111.46
178.13	2146.27
178.36	2168.80
178.58	2742.23
178.80	2906.07
179.02	2674.65
179.24	2850.77
179.46	2619.35
179.68	2705.37
179.90	2990.03
180.13	2994.13
180.35	2523.10
180.57	2648.02
180.79	3063.76
181.01	2959.31
181.23	2701.27
181.45	2891.73
181.67	3004.37
181.90	3108.82
182.12	2711.51
182.34	2523.10
182.56	3131.34
182.78	3067.86
183.00	2672.60
183.22	2688.98
183.44	2695.13
183.66	3469.26
183.89	2836.44
184.11	2656.22
184.33	3084.24
184.55	3131.34
184.77	2680.79
184.99	2691.03
185.21	2918.36
185.43	3403.72
185.65	2633.69
185.87	2639.83
186.10	3487.69
186.32	3450.83
186.54	2762.71
186.76	2734.04
186.98	3256.27
187.20	2895.83
187.42	2666.46
187.64	2641.88
187.86	3088.34
188.08	3196.88
188.30	2574.30
188.52	2787.29
188.75	3248.08
188.97	3237.84
189.19	2713.56
189.41	2693.08
189.63	2987.99
189.85	2930.64
190.07	2547.67
190.29	2576.34
190.51	3069.91
190.73	2746.33
190.95	2795.48
191.17	2674.65
191.39	2752.47
191.61	2934.74
191.84	2607.06
192.06	2797.53
192.28	2791.38
192.50	3573.71
192.72	2793.43
192.94	2758.61
193.16	3178.45
193.38	3024.85
193.60	2619.35
193.82	2846.68
194.04	3131.34
194.26	3008.47
194.48	2713.56
194.70	2602.97
194.92	3004.37
195.14	3100.62
195.36	2656.22
195.58	2756.57
195.80	2914.26
196.02	2863.06
196.24	2668.50
196.46	2764.76
196.69	2885.59
196.91	3405.77
197.13	2715.61
197.35	2723.80
197.57	3174.35
197.79	3053.52
198.01	2723.80
198.23	2676.70
198.45	3071.95
198.67	2699.22
198.89	2500.57
199.11	2770.90
199.33	2832.34
199.55	2541.53
199.77	2666.46
199.99	2787.29
200.21	2973.65
200.43	3008.47
200.65	2531.29
200.87	2455.51
201.09	3045.33
201.31	3000.27
201.53	2725.85
201.75	2752.47
201.97	3043.28
202.19	2961.36
202.41	2779.09
202.63	2734.04
202.85	3106.77
203.07	3010.51
203.29	2758.61
203.51	2549.72
203.73	2877.40
203.95	3536.84
204.17	2680.79
204.39	2850.77
204.61	2957.27
204.83	2953.17
205.05	2748.37
205.27	2697.17
205.49	3354.57
205.71	3002.32
205.93	2574.30
206.15	2580.44
206.37	2889.68
206.59	2953.17
206.81	2539.48
207.03	2578.39
207.25	2852.82
207.47	3022.80
207.69	2666.46
207.91	2934.74
208.13	3274.70
208.34	2844.63
208.56	2652.12
208.78	2721.75
209.00	2983.89
209.22	2940.88
209.44	2723.80
209.66	2676.70
209.88	2977.75
210.10	2957.27
210.32	2703.32
210.54	2791.38
210.76	2983.89
210.98	3147.73
211.20	2580.44
211.42	2779.09
211.64	3219.41
211.86	3000.27
212.08	2770.90
212.30	2750.42
212.52	2920.40
212.74	3137.49
212.96	2746.33
213.17	2752.47
213.39	3145.68
213.61	3262.41
213.83	2734.04
214.05	2621.40
214.27	3233.74
214.49	2811.86
214.71	2680.79
214.93	2760.66
215.15	2959.31
215.37	3211.22
215.59	2519.00
215.81	2756.57
216.03	3192.78
216.24	2953.17
216.46	2744.28
216.68	2766.81
216.90	3063.76
217.12	3176.40
217.34	2695.13
217.56	2723.80
217.78	3119.06
218.00	3135.44
218.22	2766.81
218.44	2797.53
218.66	3055.57
218.87	3342.28
219.09	2701.27
219.31	2701.27
219.53	2981.84
219.75	2863.06
219.97	2736.09
220.19	2697.17
220.41	2904.02
220.63	3321.81
220.85	2682.84
221.06	2688.98
221.28	3301.33
221.50	3096.53
221.72	2709.46
221.94	2539.48
222.16	3020.75
222.38	3098.58
222.60	2695.13
222.82	2740.18
223.03	3014.61
223.25	2848.72
223.47	2648.02
223.69	2942.93
223.91	3168.21
224.13	3018.71
224.35	2541.53
224.57	2822.10
224.78	3069.91
225.00	2842.58
225.22	2772.95
225.44	2680.79
225.66	3059.67
225.88	2955.22
226.10	2795.48
226.32	2697.17
226.53	3293.13
226.75	2983.89
226.97	2725.85
227.19	2666.46
227.41	2871.25
227.63	2920.40
227.85	2512.86
228.06	2629.59
228.28	3014.61
228.50	3160.02
228.72	2525.15
228.94	2719.70
229.16	2635.74
229.37	2811.86
229.59	2564.06
229.81	2889.68
230.03	2901.97
230.25	2760.66
230.47	2555.86
230.69	2633.69
230.90	3170.26
231.12	2891.73
231.34	2695.13
231.56	2738.13
231.78	2815.96
232.00	2973.65
232.21	2766.81
232.43	2738.13
232.65	2545.63
232.87	3094.48
233.09	2611.16
233.30	2598.87
233.52	3184.59
233.74	2936.79
233.96	2648.02
234.18	2836.44
234.40	2994.13
234.61	3428.30
234.83	2623.45
235.05	2596.82
235.27	3375.05
235.49	3188.69
235.70	2680.79
235.92	2727.89
236.14	3063.76
236.36	3426.25
236.58	2564.06
236.79	2779.09
237.01	2979.79
237.23	3010.51
237.45	2992.08
237.67	2731.99
237.88	3053.52
238.10	3381.20
238.32	2519.00
238.54	2654.17
238.76	2971.60
238.97	2856.92
239.19	2613.21
239.41	2738.13
239.63	3131.34
239.85	2820.05
240.06	2822.10
240.28	2650.07
240.50	3207.12
240.72	2957.27
240.93	2621.40
241.15	2815.96
241.37	2998.23
241.59	3209.17
241.81	2691.03
242.02	2756.57
242.24	3047.38
242.46	3166.16
242.68	2568.15
242.89	2623.45
243.11	3241.93
243.33	2957.27
243.55	2709.46
243.76	2748.37
243.98	2926.55
244.20	2889.68
244.42	2613.21
244.64	2674.65
244.85	2826.20
245.07	2873.30
245.29	2691.03
245.51	2668.50
245.72	2973.65
245.94	3180.50
246.16	2631.64
246.38	2791.38
246.59	2889.68
246.81	2811.86
247.03	2584.54
247.24	2586.58
247.46	2875.35
247.68	2953.17
247.90	2602.97
248.11	2752.47
248.33	3145.68
248.55	2977.75
248.77	2727.89
248.98	2840.53
249.20	3307.47
249.42	3014.61
249.64	2621.40
249.85	2650.07
250.07	2889.68
250.29	3112.91
250.50	2727.89
250.72	2559.96
250.94	3071.95
251.16	3405.77
251.37	2568.15
251.59	2832.34
251.81	3080.14
252.02	3246.03
252.24	2691.03
252.46	2842.58
252.68	2883.54
252.89	2908.12
253.11	2475.99
253.33	2910.16
253.54	3180.50
253.76	2772.95
253.98	2643.93
254.20	2611.16
254.41	2764.76
254.63	2990.03
254.85	2547.67
255.06	2838.48
255.28	3051.47
255.50	2944.98
255.71	2660.31
255.93	2564.06
256.15	2844.63
256.36	3082.19
256.58	2572.25
256.80	2654.17
257.02	3006.42
257.23	2904.02
257.45	2709.46
257.67	2809.81
257.88	2947.03
258.10	3041.23
258.32	2678.74
258.53	2717.65
258.75	3258.32
258.97	2881.49
259.18	2639.83
259.40	2600.92
259.62	3172.30
259.83	3239.89
260.05	2637.78
260.27	3469.26
260.48	3129.30
260.70	2803.67
260.92	2576.34
261.13	2711.51
261.35	3012.56
261.57	3030.99
261.78	2629.59
262.00	2648.02
262.22	3164.11
262.43	2861.01
262.65	2684.89
262.86	2723.80
263.08	3405.77
263.30	2959.31
263.51	2504.67
263.73	2684.89
263.95	3303.37
264.16	2824.15
264.38	2656.22
264.60	2658.26
264.81	2953.17
265.03	3182.54
265.25	3055.57
265.46	2719.70
265.68	3166.16
265.89	3102.67
266.11	2572.25
266.33	2674.65
266.54	3344.33
266.76	3055.57
266.98	2734.04
267.19	2852.82
267.41	3207.12
267.62	2885.59
267.84	2535.39
268.06	2787.29
268.27	3035.09
268.49	3180.50
268.70	2731.99
268.92	2752.47
269.14	2832.34
269.35	2721.75
269.57	2752.47
269.79	2678.74
270.00	2838.48
270.22	3346.38
270.43	2541.53
270.65	2537.43
270.87	3045.33
271.08	3024.85
271.30	2793.43
271.51	2658.26
271.73	3110.86
271.95	3313.61
272.16	2631.64
272.38	2762.71
272.59	2918.36
272.81	3104.72
273.02	2639.83
273.24	2746.33
273.46	3151.82
273.67	2756.57
273.89	2488.28
274.10	2621.40
274.32	3215.31
274.54	3028.95
274.75	2830.29
274.97	2752.47
275.18	3117.01
275.40	3063.76
275.61	2734.04
275.83	2850.77
276.05	2807.77
276.26	2908.12
276.48	2758.61
276.69	2850.77
276.91	2832.34
277.12	3219.41
277.34	2844.63
277.55	2938.84
277.77	3002.32
277.99	2977.75
278.20	2762.71
278.42	2703.32
278.63	2930.64
278.85	2736.09
279.06	2727.89
279.28	2969.55
279.49	3180.50
279.71	3172.30
279.93	2873.30
280.14	2803.67
280.36	2879.44
280.57	3114.96
280.79	2852.82
281.00	2752.47
281.22	2899.92
281.43	3141.58
281.65	2584.54
281.86	2746.33
282.08	3119.06
282.29	3297.23
282.51	2693.08
282.73	2693.08
282.94	2770.90
283.16	3172.30
283.37	2891.73
283.59	2713.56
283.80	3123.15
284.02	3006.42
284.23	2793.43
284.45	2869.20
284.66	2871.25
284.88	2834.39
285.09	2754.52
285.31	2875.35
285.52	3090.38
285.74	2713.56
285.95	2918.36
286.17	2875.35
286.38	3153.87
286.60	2875.35
286.81	2750.42
287.03	2781.14
287.24	2947.03
287.46	3096.53
287.67	2840.53
287.89	3074.00
288.10	2975.70
288.32	2908.12
288.53	2936.79
288.75	2856.92
288.96	3157.97
289.18	2910.16
289.39	2752.47
289.61	2914.26
289.82	3325.90
290.04	3291.09
290.25	2709.46
290.47	2842.58
290.68	3049.43
290.90	3090.38
291.11	2564.06
291.33	2959.31
291.54	2893.78
291.76	2869.20
291.97	2869.20
292.18	2873.30
292.40	2996.18
292.61	2867.16
292.83	3067.86
293.04	2813.91
293.26	2977.75
293.47	2901.97
293.69	2752.47
293.90	2758.61
294.12	3172.30
294.33	2916.31
294.55	2762.71
294.76	2916.31
294.97	3219.41
295.19	3438.54
295.40	2736.09
295.62	2830.29
295.83	3219.41
296.05	2883.54
296.26	3000.27
296.48	2781.14
296.69	3018.71
296.90	2930.64
297.12	2965.46
297.33	2926.55
297.55	2985.94
297.76	3059.67
297.98	2924.50
298.19	2887.64
298.41	3045.33
298.62	2781.14
298.83	3006.42
299.05	2979.79
299.26	2924.50
299.48	2818.00
299.69	2953.17
299.90	2752.47
300.12	2881.49
300.33	3053.52
300.55	2818.00
300.76	2850.77
300.98	2822.10
301.19	3080.14
301.40	2811.86
301.62	2801.62
301.83	3108.82
302.05	3022.80
302.26	2760.66
302.47	2856.92
302.69	2727.89
302.90	3004.37
303.12	2598.87
303.33	2938.84
303.54	3338.19
303.76	2879.44
303.97	2795.48
304.19	2992.08
304.40	2830.29
304.61	3026.90
304.83	2930.64
305.04	2944.98
305.26	3121.10
305.47	2901.97
305.68	2840.53
305.90	2686.94
306.11	3162.06
306.33	2932.69
306.54	2688.98
306.75	2658.26
306.97	2723.80
307.18	2881.49
307.39	2781.14
307.61	2834.39
307.82	2912.21
308.04	3053.52
308.25	2699.22
308.46	2840.53
308.68	2955.22
308.89	2932.69
309.10	2969.55
309.32	2830.29
309.53	2885.59
309.74	3065.81
309.96	2754.52
310.17	2858.96
310.39	2877.40
310.60	3160.02
310.81	2906.07
311.03	2705.37
311.24	3149.78
311.45	3039.19
311.67	3008.47
311.88	2977.75
312.09	2899.92
312.31	2850.77
312.52	2717.65
312.73	2709.46
312.95	2809.81
313.16	2871.25
313.37	2869.20
313.59	2977.75
313.80	3129.30
314.01	3280.85
314.23	2805.72
314.44	2795.48
314.65	2754.52
314.87	2807.77
315.08	2791.38
315.29	2758.61
315.51	2869.20
315.72	2772.95
315.93	2891.73
316.15	2856.92
316.36	2899.92
316.57	2957.27
316.79	2922.45
317.00	2787.29
317.21	3155.92
317.43	2883.54
317.64	2971.60
317.85	2748.37
318.07	2828.24
318.28	2881.49
318.49	2934.74
318.70	3033.04
318.92	3018.71
319.13	2938.84
319.34	2979.79
319.56	2820.05
319.77	3104.72
319.98	3033.04
320.20	3033.04
320.41	2885.59
320.62	3053.52
320.83	2803.67
321.05	3039.19
321.26	2846.68
321.47	2998.23
321.69	3176.40
321.90	2736.09
322.11	2779.09
322.32	3030.99
322.54	3215.31
322.75	2787.29
322.96	3651.53
323.18	2822.10
323.39	2682.84
323.60	2707.41
323.81	2899.92
324.03	2879.44
324.24	2926.55
324.45	2854.87
324.66	2707.41
324.88	3205.07
325.09	3254.22
325.30	2770.90
325.52	2688.98
325.73	2987.99
325.94	2863.06
326.15	2695.13
326.37	2772.95
326.58	3076.05
326.79	3229.65
327.00	2766.81
327.22	2783.19
327.43	2973.65
327.64	2766.81
327.85	2893.78
328.07	2818.00
328.28	3213.26
328.49	2867.16
328.70	2856.92
328.92	2807.77
329.13	2893.78
329.34	3133.39
329.55	2981.84
329.76	2928.60
329.98	2957.27
330.19	3203.02
330.40	2883.54
330.61	2936.79
330.83	3155.92
331.04	2836.44
331.25	2922.45
331.46	2795.48
331.68	2828.24
331.89	3237.84
332.10	2951.12
332.31	2707.41
332.52	2979.79
332.74	3219.41
332.95	2672.60
333.16	2752.47
333.37	3002.32
333.58	2895.83
333.80	2750.42
334.01	2615.26
334.22	2969.55
334.43	2844.63
334.64	2762.71
334.86	2660.31
335.07	2795.48
335.28	3225.55
335.49	2684.89
335.70	2826.20
335.92	3178.45
336.13	3309.52
336.34	2910.16
336.55	2858.96
336.76	3061.71
336.98	2629.59
337.19	2760.66
337.40	2897.88
337.61	3385.29
337.82	2940.88
338.04	2852.82
338.25	2609.11
338.46	3047.38
338.67	2940.88
338.88	2654.17
339.09	2719.70
339.31	2938.84
339.52	2791.38
339.73	2742.23
339.94	2834.39
340.15	3114.96
340.36	2836.44
340.58	2899.92
340.79	2736.09
341.00	3112.91
341.21	2803.67
341.42	3012.56
341.63	2801.62
341.85	3121.10
342.06	2953.17
342.27	2731.99
342.48	2926.55
342.69	2762.71
342.90	3061.71
343.12	3069.91
343.33	2697.17
343.54	3160.02
343.75	3233.74
343.96	2885.59
344.17	2801.62
344.38	2957.27
344.60	2820.05
344.81	2701.27
345.02	2729.94
345.23	3209.17
345.44	3401.68
345.65	2842.58
345.86	2877.40
346.07	3018.71
346.29	2922.45
346.50	2918.36
346.71	2910.16
346.92	3211.22
347.13	3336.14
347.34	2897.88
347.55	2738.13
347.76	3012.56
347.98	2723.80
348.19	2783.19
348.40	3024.85
348.61	2942.93
348.82	3286.99
349.03	2824.15
349.24	2670.55
349.45	3364.81
349.66	2668.50
349.88	2764.76
350.09	2832.34
350.30	3203.02
350.51	3139.54
350.72	2895.83
350.93	2701.27
351.14	2930.64
351.35	3114.96
351.56	2813.91
351.77	2858.96
351.99	3067.86
352.20	3223.50
352.41	2953.17
352.62	2648.02
352.83	2961.36
353.04	2940.88
353.25	2736.09
353.46	2738.13
353.67	3237.84
353.88	2650.07
354.09	2807.77
354.30	2858.96
354.52	3088.34
354.73	2983.89
354.94	2731.99
355.15	2820.05
355.36	3246.03
355.57	2889.68
355.78	2740.18
355.99	2811.86
356.20	2959.31
356.41	3168.21
356.62	2856.92
356.83	2856.92
357.04	3264.46
357.25	2731.99
357.46	2772.95
357.68	2686.94
357.89	2861.01
358.10	3014.61
358.31	2826.20
358.52	2844.63
358.73	2836.44
358.94	2803.67
359.15	2775.00
359.36	2846.68
359.57	3002.32
359.78	2973.65
359.99	2897.88
360.20	2688.98
360.41	2942.93
360.62	3090.38
360.83	2934.74
361.04	2867.16
361.25	3014.61
361.46	3198.93
361.67	2899.92
361.88	2840.53
362.09	3112.91
362.30	3010.51
362.51	2717.65
362.72	2807.77
362.93	3141.58
363.14	3088.34
363.35	2861.01
363.56	2697.17
363.78	3203.02
363.99	3184.59
364.20	2764.76
364.41	2885.59
364.62	3282.89
364.83	3030.99
365.04	2828.24
365.25	2885.59
365.46	3274.70
365.67	2869.20
365.88	2965.46
366.09	2801.62
366.30	2863.06
366.51	2992.08
366.72	2748.37
366.93	2822.10
367.14	2953.17
367.35	3223.50
367.56	2756.57
367.77	2901.97
367.98	2899.92
368.18	3106.77
368.39	2897.88
368.60	2781.14
368.81	2985.94
369.02	3090.38
369.23	2795.48
369.44	2717.65
369.65	2955.22
369.86	3016.66
370.07	3002.32
370.28	2738.13
370.49	3106.77
370.70	3106.77
370.91	2699.22
371.12	2641.88
371.33	3145.68
371.54	2834.39
371.75	2908.12
371.96	2582.49
372.17	2992.08
372.38	2865.11
372.59	2914.26
372.80	2750.42
373.01	2996.18
373.22	3006.42
373.43	2834.39
373.64	2734.04
373.85	3211.22
374.06	3295.18
374.26	2918.36
374.47	2912.21
374.68	3272.65
374.89	2996.18
375.10	2766.81
375.31	2854.87
375.52	2965.46
375.73	2975.70
375.94	2633.69
376.15	2881.49
376.36	2856.92
376.57	2815.96
376.78	2844.63
376.99	2873.30
377.20	3168.21
377.40	2961.36
377.61	3090.38
377.82	2738.13
378.03	3188.69
378.24	3051.47
378.45	2912.21
378.66	2883.54
378.87	2707.41
379.08	2789.33
379.29	2832.34
379.50	2973.65
379.71	2904.02
379.91	3024.85
380.12	2875.35
380.33	2818.00
380.54	3047.38
380.75	2951.12
380.96	2756.57
381.17	2797.53
381.38	2959.31
381.59	3002.32
381.80	2826.20
382.00	2953.17
382.21	2985.94
382.42	3264.46
382.63	3215.31
382.84	2969.55
383.05	3016.66
383.26	3188.69
383.47	2955.22
383.68	2803.67
383.88	3057.62
384.09	3000.27
384.30	3028.95
384.51	2963.41
384.72	2924.50
384.93	2840.53
385.14	2867.16
385.35	3024.85
385.55	2725.85
385.76	3194.83
385.97	2783.19
386.18	2664.41
386.39	2846.68
386.60	2869.20
386.81	2775.00
387.02	2738.13
387.22	2824.15
387.43	3098.58
387.64	2928.60
387.85	2975.70
388.06	2949.08
388.27	4052.93
388.48	7378.83
388.68	10913.63
388.89	13395.76
389.10	14645.02
389.31	14067.50
389.52	11355.99
389.73	9799.53
389.93	9043.83
390.14	8124.29
390.35	7524.24
390.56	6784.92
390.77	5687.21
390.98	4280.25
391.18	3698.63
391.39	3416.01
391.60	2930.64
391.81	3055.57
392.02	2877.40
392.23	3346.38
392.43	3043.28
392.64	2930.64
392.85	2885.59
393.06	3315.66
393.27	3057.62
393.47	2828.24
393.68	2901.97
393.89	2924.50
394.10	3219.41
394.31	2834.39
394.52	2791.38
394.72	2836.44
394.93	3241.93
395.14	2758.61
395.35	2920.40
395.56	2852.82
395.76	3024.85
395.97	2818.00
396.18	3006.42
396.39	2936.79
396.60	3532.75
396.80	3203.02
397.01	3080.14
397.22	3155.92
397.43	3170.26
397.64	2805.72
397.84	2957.27
398.05	3407.82
398.26	2912.21
398.47	2981.84
398.67	3028.95
398.88	3024.85
399.09	3172.30
399.30	2805.72
399.51	2854.87
399.71	2789.33
399.92	2932.69
400.13	2901.97
400.34	2815.96
400.54	3006.42
400.75	3102.67
400.96	3014.61
401.17	3067.86
401.37	3153.87
401.58	2924.50
401.79	2834.39
402.00	2922.45
402.21	3448.78
402.41	3153.87
402.62	3049.43
402.83	3106.77
403.04	3370.96
403.24	3659.72
403.45	2996.18
403.66	3176.40
403.87	3168.21
404.07	3268.56
404.28	3157.97
404.49	3069.91
404.70	3121.10
404.90	3157.97
405.11	2879.44
405.32	3030.99
405.52	2908.12
405.73	2897.88
405.94	2779.09
406.15	2955.22
406.35	3162.06
406.56	3117.01
406.77	2961.36
406.98	2854.87
407.18	2779.09
407.39	3282.89
407.60	2920.40
407.80	2940.88
408.01	2897.88
408.22	3041.23
408.43	2768.85
408.63	3047.38
408.84	3143.63
409.05	3110.86
409.25	2795.48
409.46	2871.25
409.67	3004.37
409.88	2969.55
410.08	2871.25
410.29	2803.67
410.50	3172.30
410.70	3076.05
410.91	2781.14
411.12	2912.21
411.32	3045.33
411.53	2826.20
411.74	2875.35
411.95	2932.69
412.15	3022.80
412.36	3043.28
412.57	3016.66
412.77	3006.42
412.98	2906.07
413.19	2873.30
413.39	2881.49
413.60	2832.34
413.81	3166.16
414.01	2830.29
414.22	2891.73
414.43	2979.79
414.63	2879.44
414.84	3160.02
415.05	2928.60
415.25	2688.98
415.46	3053.52
415.67	2881.49
415.87	2861.01
416.08	2826.20
416.29	2985.94
416.49	3030.99
416.70	2897.88
416.91	2891.73
417.11	2996.18
417.32	3157.97
417.53	3022.80
417.73	2924.50
417.94	2910.16
418.15	2969.55
418.35	2891.73
418.56	2820.05
418.77	3356.62
418.97	3010.51
419.18	2869.20
419.38	2574.30
419.59	2957.27
419.80	3180.50
420.00	2785.24
420.21	2797.53
420.42	3233.74
420.62	3076.05
420.83	2842.58
421.04	2789.33
421.24	2893.78
421.45	3149.78
421.65	2893.78
421.86	2944.98
422.07	3078.10
422.27	3104.72
422.48	2801.62
422.69	2734.04
422.89	2883.54
423.10	2983.89
423.30	2818.00
423.51	2910.16
423.72	3033.04
423.92	3174.35
424.13	2729.94
424.33	2949.08
424.54	3127.25
424.75	2985.94
424.95	3067.86
425.16	2879.44
425.36	2940.88
425.57	3160.02
425.78	2934.74
425.98	2967.51
426.19	2932.69
426.39	2861.01
426.60	2869.20
426.81	2959.31
427.01	3069.91
427.22	2828.24
427.42	2672.60
427.63	2750.42
427.83	3080.14
428.04	3301.33
428.25	2928.60
428.45	2949.08
428.66	3174.35
428.86	2906.07
429.07	2865.11
429.28	2826.20
429.48	3024.85
429.69	2852.82
429.89	2983.89
430.10	2762.71
430.30	3088.34
430.51	3141.58
430.71	2875.35
430.92	2897.88
431.13	2912.21
431.33	3018.71
431.54	2992.08
431.74	3094.48
431.95	3270.61
432.15	2824.15
432.36	2895.83
432.56	2912.21
432.77	3401.68
432.98	3291.09
433.18	2881.49
433.39	2781.14
433.59	2906.07
433.80	3370.96
434.00	3102.67
434.21	2809.81
434.41	2879.44
434.62	3467.21
434.82	2797.53
435.03	2842.58
435.23	3104.72
435.44	2723.80
435.64	2834.39
435.85	2850.77
436.06	3071.95
436.26	3170.26
436.47	2789.33
436.67	2787.29
436.88	2926.55
437.08	3184.59
437.29	2951.12
437.49	2885.59
437.70	3198.93
437.90	3024.85
438.11	3076.05
438.31	2957.27
438.52	3190.74
438.72	3203.02
438.93	3114.96
439.13	2910.16
439.34	3190.74
439.54	2879.44
439.75	2975.70
439.95	2990.03
440.16	2809.81
440.36	2963.41
440.57	2885.59
440.77	2815.96
440.98	3006.42
441.18	3076.05
441.39	2729.94
441.59	2822.10
441.80	3358.67
442.00	3006.42
442.21	2959.31
442.41	2781.14
442.62	3178.45
442.82	2828.24
443.02	2834.39
443.23	2861.01
443.43	2887.64
443.64	3215.31
443.84	2715.61
444.05	2936.79
444.25	2926.55
444.46	2918.36
444.66	2820.05
444.87	3076.05
445.07	2723.80
445.28	2953.17
445.48	3010.51
445.69	2926.55
445.89	3399.63
446.09	2930.64
446.30	3127.25
446.50	3274.70
446.71	4755.38
446.91	5724.07
447.12	6604.70
447.32	7030.68
447.53	7006.10
447.73	5691.31
447.93	4945.84
448.14	4728.76
448.34	4808.63
448.55	4054.98
448.75	4034.50
448.96	3930.05
449.16	3749.83
449.36	3538.89
449.57	3106.77
449.77	2842.58
449.98	2916.31
450.18	3176.40
450.39	2850.77
450.59	2979.79
450.79	2967.51
451.00	2875.35
451.20	2967.51
451.41	2869.20
451.61	3069.91
451.81	3010.51
452.02	2869.20
452.22	2897.88
452.43	2887.64
452.63	2922.45
452.84	2846.68
453.04	2793.43
453.24	2959.31
453.45	2762.71
453.65	2875.35
453.86	2996.18
454.06	2953.17
454.26	2918.36
454.47	2799.57
454.67	3061.71
454.87	3114.96
455.08	2897.88
455.28	3065.81
455.49	2961.36
455.69	2820.05
455.89	3332.05
456.10	2910.16
456.30	2850.77
456.51	3092.43
456.71	3030.99
456.91	3014.61
457.12	2836.44
457.32	2969.55
457.52	2772.95
457.73	3092.43
457.93	3020.75
458.14	2838.48
458.34	2680.79
458.54	2895.83
458.75	2785.24
458.95	3143.63
459.15	3137.49
459.36	2893.78
459.56	2844.63
459.76	3385.29
459.97	3033.04
460.17	2863.06
460.37	3065.81
460.58	3035.09
460.78	3166.16
460.99	2906.07
461.19	2865.11
461.39	2803.67
461.60	2969.55
461.80	2904.02
462.00	2779.09
462.21	3033.04
462.41	2818.00
462.61	2713.56
462.82	2654.17
463.02	3074.00
463.22	2977.75
463.43	2904.02
463.63	2750.42
463.83	3221.45
464.04	3063.76
464.24	2818.00
464.44	2789.33
464.64	2977.75
464.85	3106.77
465.05	2889.68
465.25	2705.37
465.46	2893.78
465.66	3082.19
465.86	2932.69
466.07	2813.91
466.27	2973.65
466.47	2740.18
466.68	2611.16
466.88	3067.86
467.08	3016.66
467.29	3190.74
467.49	2969.55
467.69	2949.08
467.89	3096.53
468.10	2930.64
468.30	2881.49
468.50	2987.99
468.71	3149.78
468.91	2828.24
469.11	3067.86
469.31	2992.08
469.52	2832.34
469.72	3307.47
469.92	3123.15
470.13	2912.21
470.33	2942.93
470.53	3065.81
470.73	3196.88
470.94	3479.50
471.14	3645.38
471.34	4077.51
471.54	3885.00
471.75	3524.55
471.95	3342.28
472.15	3291.09
472.36	3260.37
472.56	3284.94
472.76	3430.35
472.96	3289.04
473.17	3076.05
473.37	2981.84
473.57	2891.73
473.77	3092.43
473.98	2891.73
474.18	2770.90
474.38	3459.02
474.58	2897.88
474.79	2713.56
474.99	2867.16
475.19	3172.30
475.39	2850.77
475.60	2928.60
475.80	2867.16
476.00	3035.09
476.20	2897.88
476.41	2994.13
476.61	2996.18
476.81	3135.44
477.01	2813.91
477.21	3055.57
477.42	3098.58
477.62	2852.82
477.82	3057.62
478.02	2830.29
478.23	2867.16
478.43	2838.48
478.63	2975.70
478.83	2826.20
479.03	2830.29
479.24	3231.69
479.44	3348.43
479.64	2832.34
479.84	2592.73
480.04	2846.68
480.25	3078.10
480.45	2781.14
480.65	2783.19
480.85	3309.52
481.06	2840.53
481.26	2936.79
481.46	2805.72
481.66	2992.08
481.86	2777.05
482.06	3106.77
482.27	2912.21
482.47	2916.31
482.67	2973.65
482.87	2865.11
483.07	2928.60
483.28	2912.21
483.48	2869.20
483.68	2947.03
483.88	2758.61
484.08	2662.36
484.29	2820.05
484.49	2912.21
484.69	2639.83
484.89	3270.61
485.09	3233.74
485.29	2959.31
485.50	2965.46
485.70	2908.12
485.90	3278.80
486.10	2975.70
486.30	2854.87
486.50	3186.64
486.71	3125.20
486.91	2889.68
487.11	2955.22
487.31	2781.14
487.51	3176.40
487.71	2822.10
487.91	2703.32
488.12	2828.24
488.32	2613.21
488.52	2785.24
488.72	2578.39
488.92	3102.67
489.12	3274.70
489.32	3055.57
489.53	2854.87
489.73	2758.61
489.93	3227.60
490.13	2850.77
490.33	2709.46
490.53	3061.71
490.73	3092.43
490.94	2641.88
491.14	2985.94
491.34	3106.77
491.54	3076.05
491.74	3737.54
491.94	4251.58
492.14	4683.70
492.34	4652.98
492.54	4378.56
492.75	3735.50
492.95	3958.72
493.15	3680.20
493.35	3536.84
493.55	3407.82
493.75	3346.38
493.95	3450.83
494.15	3065.81
494.35	2887.64
494.56	2953.17
494.76	2983.89
494.96	2908.12
495.16	2815.96
495.36	2949.08
495.56	2983.89
495.76	2881.49
495.96	2846.68
496.16	2908.12
496.36	3196.88
496.56	2768.85
496.77	2887.64
496.97	2961.36
497.17	3180.50
497.37	2684.89
497.57	2899.92
497.77	3092.43
497.97	2850.77
498.17	2893.78
498.37	2818.00
498.57	3114.96
498.77	2910.16
498.97	3002.32
499.17	3117.01
499.38	2928.60
499.58	3121.10
499.78	2949.08
499.98	3061.71
500.18	2881.49
500.38	2813.91
500.58	3012.56
500.78	3409.87
500.98	5515.18
501.18	7403.41
501.38	8867.70
501.58	9781.10
501.78	9527.15
501.98	7868.30
502.18	6616.99
502.38	5826.47
502.58	5775.27
502.78	4902.84
502.98	4859.83
503.18	4575.16
503.38	4401.08
503.59	3807.17
503.79	3592.14
503.99	3381.20
504.19	3440.59
504.39	3420.11
504.59	3350.48
504.79	3266.51
504.99	3454.92
505.19	3260.37
505.39	3080.14
505.59	3286.99
505.79	3366.86
505.99	3110.86
506.19	2861.01
506.39	3080.14
506.59	2959.31
506.79	2977.75
506.99	2975.70
507.19	2910.16
507.39	2985.94
507.59	2709.46
507.79	2836.44
507.99	2760.66
508.19	3030.99
508.39	2908.12
508.59	2834.39
508.79	2969.55
508.99	3375.05
509.19	2795.48
509.39	2938.84
509.59	2775.00
509.79	2867.16
509.99	3035.09
510.19	3004.37
510.39	2922.45
510.59	2936.79
510.79	2889.68
510.99	2670.55
511.19	2815.96
511.39	3282.89
511.59	3215.31
511.79	3030.99
511.99	2838.48
512.19	3299.28
512.38	2918.36
512.58	2793.43
512.78	2791.38
512.98	3178.45
513.18	3336.14
513.38	2764.76
513.58	2963.41
513.78	2955.22
513.98	3069.91
514.18	2795.48
514.38	2856.92
514.58	3049.43
514.78	2877.40
514.98	2754.52
515.18	2858.96
515.38	2791.38
515.58	3344.33
515.78	2852.82
515.98	2871.25
516.18	3100.62
516.38	2901.97
516.57	2904.02
516.77	2770.90
516.97	3106.77
517.17	2918.36
517.37	2666.46
517.57	2897.88
517.77	3024.85
517.97	2805.72
518.17	2867.16
518.37	2701.27
518.57	2865.11
518.77	2938.84
518.97	2779.09
519.16	2904.02
519.36	3090.38
519.56	2887.64
519.76	2785.24
519.96	2922.45
520.16	3237.84
520.36	2828.24
520.56	2990.03
520.76	2779.09
520.96	2922.45
521.16	3160.02
521.35	2983.89
521.55	3016.66
521.75	3000.27
521.95	2914.26
522.15	2766.81
522.35	2766.81
522.55	2842.58
522.75	3082.19
522.95	2826.20
523.14	2664.41
523.34	3051.47
523.54	2985.94
523.74	2967.51
523.94	2969.55
524.14	2699.22
524.34	3049.43
524.54	3082.19
524.73	2848.72
524.93	3137.49
525.13	3061.71
525.33	2809.81
525.53	3143.63
525.73	3098.58
525.93	3000.27
526.13	2897.88
526.32	2809.81
526.52	3186.64
526.72	3147.73
526.92	2838.48
527.12	2721.75
527.32	2867.16
527.52	3057.62
527.71	2897.88
527.91	2836.44
528.11	2926.55
528.31	3000.27
528.51	2818.00
528.71	3067.86
528.90	3112.91
529.10	3209.17
529.30	2965.46
529.50	2549.72
529.70	3049.43
529.90	2858.96
530.09	2926.55
530.29	2793.43
530.49	2901.97
530.69	3420.11
530.89	3004.37
531.09	3020.75
531.28	2897.88
531.48	3182.54
531.68	2815.96
531.88	2893.78
532.08	3090.38
532.28	2977.75
532.47	3016.66
532.67	2924.50
532.87	3033.04
533.07	2752.47
533.27	2848.72
533.46	2942.93
533.66	3024.85
533.86	2944.98
534.06	2844.63
534.26	2793.43
534.45	2867.16
534.65	3127.25
534.85	2940.88
535.05	2736.09
535.25	3061.71
535.44	2727.89
535.64	2918.36
535.84	2797.53
536.04	2883.54
536.24	2973.65
536.43	2830.29
536.63	2914.26
536.83	2975.70
537.03	2910.16
537.22	2688.98
537.42	2738.13
537.62	3004.37
537.82	2856.92
538.02	3059.67
538.21	3006.42
538.41	3401.68
538.61	2973.65
538.81	2893.78
539.00	2924.50
539.20	2777.05
539.40	2932.69
539.60	2807.77
539.79	2975.70
539.99	3008.47
540.19	2801.62
540.39	2797.53
540.58	2908.12
540.78	3071.95
540.98	2996.18
541.18	3006.42
541.37	2895.83
541.57	3006.42
541.77	2994.13
541.97	2852.82
542.16	2643.93
542.36	2916.31
542.56	2940.88
542.76	3080.14
542.95	2969.55
543.15	3147.73
543.35	3162.06
543.54	2760.66
543.74	2768.85
543.94	3114.96
544.14	2967.51
544.33	2924.50
544.53	2826.20
544.73	2967.51
544.93	2963.41
545.12	2828.24
545.32	2840.53
545.52	2932.69
545.71	2795.48
545.91	2834.39
546.11	2852.82
546.30	2775.00
546.50	2959.31
546.70	2906.07
546.90	2803.67
547.09	2725.85
547.29	3016.66
547.49	2969.55
547.68	2799.57
547.88	2844.63
548.08	3033.04
548.27	3325.90
548.47	2752.47
548.67	2895.83
548.87	3008.47
549.06	2854.87
549.26	2758.61
549.46	3065.81
549.65	2854.87
549.85	2920.40
550.05	2922.45
550.24	2731.99
550.44	2963.41
550.64	2828.24
550.83	2871.25
551.03	3237.84
551.23	3119.06
551.42	2899.92
551.62	2893.78
551.82	2996.18
552.01	2932.69
552.21	3026.90
552.41	2955.22
552.60	3194.83
552.80	2975.70
553.00	2785.24
553.19	2881.49
553.39	3278.80
553.59	2889.68
553.78	3033.04
553.98	2830.29
554.17	2768.85
554.37	3016.66
554.57	2901.97
554.76	2650.07
554.96	2906.07
555.16	3069.91
555.35	2971.60
555.55	3006.42
555.75	3067.86
555.94	3166.16
556.14	2641.88
556.33	2924.50
556.53	2981.84
556.73	2944.98
556.92	2891.73
557.12	2775.00
557.32	3381.20
557.51	3307.47
557.71	2930.64
557.90	3088.34
558.10	3153.87
558.30	2836.44
558.49	2895.83
558.69	2910.16
558.88	3033.04
559.08	3067.86
559.28	2838.48
559.47	2850.77
559.67	3096.53
559.86	3309.52
560.06	2840.53
560.26	2861.01
560.45	3141.58
560.65	2940.88
560.84	3139.54
561.04	2742.23
561.24	3088.34
561.43	2803.67
561.63	3078.10
561.82	3022.80
562.02	3172.30
562.22	2836.44
562.41	2822.10
562.61	2811.86
562.80	2846.68
563.00	3385.29
563.19	2918.36
563.39	2961.36
563.59	3131.34
563.78	2768.85
563.98	2545.63
564.17	2822.10
564.37	2758.61
564.56	2955.22
564.76	2709.46
564.96	2981.84
565.15	3096.53
565.35	3366.86
565.54	2869.20
565.74	2883.54
565.93	3096.53
566.13	2969.55
566.32	2897.88
566.52	2885.59
566.71	2990.03
566.91	3174.35
567.11	2975.70
567.30	2781.14
567.50	3065.81
567.69	3117.01
567.89	2738.13
568.08	2781.14
568.28	2992.08
568.47	2779.09
568.67	2850.77
568.86	2846.68
569.06	3172.30
569.25	2955.22
569.45	2719.70
569.64	2856.92
569.84	2977.75
570.04	3026.90
570.23	2815.96
570.43	2924.50
570.62	3018.71
570.82	3262.41
571.01	2809.81
571.21	2770.90
571.40	2912.21
571.60	3198.93
571.79	2926.55
571.99	2832.34
572.18	2865.11
572.38	3030.99
572.57	2873.30
572.77	2863.06
572.96	3403.72
573.16	3028.95
573.35	2901.97
573.55	3067.86
573.74	2994.13
573.94	2918.36
574.13	2783.19
574.33	3055.57
574.52	3254.22
574.71	2990.03
574.91	2897.88
575.10	2729.94
575.30	2934.74
575.49	2850.77
575.69	2818.00
575.88	2840.53
576.08	3033.04
576.27	3078.10
576.47	2842.58
576.66	2992.08
576.86	3170.26
577.05	3063.76
577.25	2885.59
577.44	2985.94
577.64	3026.90
577.83	3149.78
578.02	2834.39
578.22	3065.81
578.41	3366.86
578.61	2987.99
578.80	2633.69
579.00	2942.93
579.19	2942.93
579.39	3016.66
579.58	2969.55
579.77	2856.92
579.97	3219.41
580.16	3123.15
580.36	3035.09
580.55	2969.55
580.75	3092.43
580.94	3045.33
581.13	3039.19
581.33	3139.54
581.52	2973.65
581.72	3252.17
581.91	2998.23
582.11	2789.33
582.30	3186.64
582.49	3033.04
582.69	3110.86
582.88	2901.97
583.08	3012.56
583.27	3217.36
583.47	2981.84
583.66	2793.43
583.85	2861.01
584.05	2985.94
584.24	3047.38
584.44	2889.68
584.63	3211.22
584.82	3205.07
585.02	3135.44
585.21	3014.61
585.41	3049.43
585.60	3125.20
585.79	3106.77
585.99	3164.11
586.18	3074.00
586.37	3944.39
586.57	5922.73
586.76	16848.64
586.96	35984.86
587.15	49282.32
587.34	57810.06
587.54	62221.39
587.73	55209.14
587.93	39112.11
588.12	29859.38
588.31	24186.51
588.51	21329.59
588.70	19611.35
588.89	17327.86
589.09	14995.23
589.28	12685.12
589.47	9901.93
589.67	7718.79
589.86	6064.04
590.06	4710.33
590.25	4128.70
590.44	3583.95
590.64	3305.42
590.83	3311.57
591.02	3231.69
591.22	2957.27
591.41	2944.98
591.60	2959.31
591.80	3409.87
591.99	2746.33
592.18	2922.45
592.38	3190.74
592.57	2863.06
592.76	2928.60
592.96	2942.93
593.15	2981.84
593.34	3174.35
593.54	2881.49
593.73	2990.03
593.92	3049.43
594.12	3127.25
594.31	2967.51
594.50	3024.85
594.70	3110.86
594.89	3502.03
595.08	2709.46
595.28	3057.62
595.47	3585.99
595.66	3170.26
595.86	2756.57
596.05	2811.86
596.24	2918.36
596.43	3311.57
596.63	3010.51
596.82	2959.31
597.01	2985.94
597.21	3338.19
597.40	2936.79
597.59	2953.17
597.79	2963.41
597.98	3106.77
598.17	2975.70
598.36	2883.54
598.56	3129.30
598.75	2889.68
598.94	2891.73
599.14	2940.88
599.33	2920.40
599.52	3049.43
599.71	2928.60
599.91	2910.16
600.10	3080.14
600.29	3014.61
600.48	3006.42
600.68	3026.90
600.87	3065.81
601.06	2854.87
601.26	2928.60
601.45	3039.19
601.64	2987.99
601.83	3278.80
602.03	2787.29
602.22	2795.48
602.41	3139.54
602.60	3338.19
602.80	2979.79
602.99	2957.27
603.18	2891.73
603.37	3014.61
603.57	2811.86
603.76	2914.26
603.95	3114.96
604.14	2856.92
604.34	2856.92
604.53	2803.67
604.72	3074.00
604.91	3026.90
605.10	2893.78
605.30	2781.14
605.49	3413.96
605.68	3071.95
605.87	2895.83
606.07	2809.81
606.26	2951.12
606.45	3133.39
606.64	2871.25
606.84	2764.76
607.03	2924.50
607.22	3166.16
607.41	2914.26
607.60	2838.48
607.80	3180.50
607.99	2938.84
608.18	2869.20
608.37	2895.83
608.56	2889.68
608.76	3145.68
608.95	3063.76
609.14	2858.96
609.33	3160.02
609.52	3274.70
609.72	2981.84
609.91	3008.47
610.10	3016.66
610.29	3198.93
610.48	2924.50
610.68	2926.55
610.87	2969.55
611.06	3065.81
611.25	2836.44
611.44	3098.58
611.63	2926.55
611.83	3168.21
612.02	2772.95
612.21	3014.61
612.40	2727.89
612.59	2791.38
612.79	2752.47
612.98	2871.25
613.17	3309.52
613.36	2975.70
613.55	3033.04
613.74	2748.37
613.93	2863.06
614.13	3008.47
614.32	3067.86
614.51	2979.79
614.70	2969.55
614.89	2858.96
615.08	2967.51
615.28	3289.04
615.47	2844.63
615.66	3014.61
615.85	2922.45
616.04	3012.56
616.23	2998.23
616.42	2973.65
616.62	2906.07
616.81	2846.68
617.00	3045.33
617.19	3162.06
617.38	2861.01
617.57	2922.45
617.76	3153.87
617.95	3039.19
618.15	3010.51
618.34	3033.04
618.53	2820.05
618.72	3114.96
618.91	2990.03
619.10	2930.64
619.29	3033.04
619.48	3033.04
619.68	2766.81
619.87	2777.05
620.06	2682.84
620.25	3102.67
620.44	2883.54
620.63	2858.96
620.82	2942.93
621.01	2947.03
621.20	2850.77
621.39	2985.94
621.59	3012.56
621.78	2973.65
621.97	2838.48
622.16	3039.19
622.35	3024.85
622.54	3088.34
622.73	2953.17
622.92	2625.50
623.11	3131.34
623.30	2887.64
623.49	2953.17
623.68	2775.00
623.88	3172.30
624.07	2926.55
624.26	2891.73
624.45	2895.83
624.64	2899.92
624.83	3022.80
625.02	2768.85
625.21	2766.81
625.40	2990.03
625.59	3215.31
625.78	2901.97
625.97	3043.28
626.16	3215.31
626.35	3176.40
626.54	2875.35
626.74	3045.33
626.93	2947.03
627.12	2961.36
627.31	2969.55
627.50	2887.64
627.69	3207.12
627.88	2836.44
628.07	2779.09
628.26	2631.64
628.45	2899.92
628.64	2797.53
628.83	2914.26
629.02	2617.30
629.21	3022.80
629.40	3053.52
629.59	2848.72
629.78	2760.66
629.97	2926.55
630.16	3004.37
630.35	2832.34
630.54	2918.36
630.73	2885.59
630.92	2942.93
631.11	2830.29
631.30	2881.49
631.49	3119.06
631.68	2953.17
631.87	2897.88
632.06	2744.28
632.25	3409.87
632.44	3028.95
632.63	2961.36
632.82	2850.77
633.01	2899.92
633.20	2975.70
633.39	2885.59
633.58	2668.50
633.77	3071.95
633.96	3153.87
634.15	2961.36
634.34	2875.35
634.53	3016.66
634.72	2811.86
634.91	2672.60
635.10	2873.30
635.29	3131.34
635.48	2961.36
635.67	2793.43
635.86	2713.56
636.05	3284.94
636.24	2881.49
636.43	2928.60
636.62	2904.02
636.81	2572.25
637.00	2994.13
637.19	2955.22
637.38	2840.53
637.57	2893.78
637.76	3033.04
637.95	2971.60
638.14	2842.58
638.33	3076.05
638.52	2969.55
638.71	2707.41
638.89	2754.52
639.08	3553.23
639.27	3209.17
639.46	3078.10
639.65	3327.95
639.84	3389.39
640.03	3575.75
640.22	3200.98
640.41	3284.94
640.60	3088.34
640.79	3172.30
640.98	3000.27
641.17	3074.00
641.36	3205.07
641.55	3104.72
641.74	2777.05
641.92	2797.53
642.11	2940.88
642.30	2985.94
642.49	2795.48
642.68	2791.38
642.87	3137.49
643.06	3069.91
643.25	2713.56
643.44	2791.38
643.63	2938.84
643.82	3117.01
644.00	2742.23
644.19	2891.73
644.38	2723.80
644.57	3051.47
644.76	2822.10
644.95	2918.36
645.14	2992.08
645.33	3008.47
645.52	2975.70
645.71	2729.94
645.89	2762.71
646.08	2947.03
646.27	2918.36
646.46	3078.10
646.65	2781.14
646.84	3041.23
647.03	2777.05
647.22	2971.60
647.40	3026.90
647.59	2975.70
647.78	2650.07
647.97	2883.54
648.16	2809.81
648.35	3286.99
648.54	3176.40
648.73	2848.72
648.91	3131.34
649.10	3092.43
649.29	2813.91
649.48	2822.10
649.67	3069.91
649.86	3024.85
650.05	2965.46
650.23	3067.86
650.42	2893.78
650.61	3248.08
650.80	3065.81
650.99	3141.58
651.18	3125.20
651.36	3129.30
651.55	2916.31
651.74	3071.95
651.93	3004.37
652.12	2912.21
652.31	2875.35
652.49	2850.77
652.68	2904.02
652.87	3239.89
653.06	2895.83
653.25	3147.73
653.44	2953.17
653.62	3250.13
653.81	2877.40
654.00	2871.25
654.19	3137.49
654.38	3499.98
654.56	2914.26
654.75	2787.29
654.94	3074.00
655.13	2996.18
655.32	2881.49
655.51	3022.80
655.69	2887.64
655.88	3098.58
656.07	2815.96
656.26	2871.25
656.45	2742.23
656.63	2912.21
656.82	2807.77
657.01	3123.15
657.20	2918.36
657.38	3293.13
657.57	2879.44
657.76	2801.62
657.95	3135.44
658.14	2938.84
658.32	2953.17
658.51	2725.85
658.70	3047.38
658.89	2969.55
659.08	2852.82
659.26	3098.58
659.45	2875.35
659.64	3057.62
659.83	2785.24
660.01	3278.80
660.20	3018.71
660.39	3295.18
660.58	2592.73
660.76	2951.12
660.95	2770.90
661.14	2983.89
661.33	2705.37
661.51	2852.82
661.70	2994.13
661.89	3092.43
662.08	2906.07
662.26	2721.75
662.45	2795.48
662.64	3391.44
662.83	3037.14
663.01	2750.42
663.20	2879.44
663.39	3176.40
663.58	2824.15
663.76	2852.82
663.95	3151.82
664.14	2820.05
664.32	2918.36
664.51	2686.94
664.70	2744.28
664.89	3041.23
665.07	2764.76
665.26	3024.85
665.45	2781.14
665.64	3108.82
665.82	2863.06
666.01	2936.79
666.20	2668.50
666.38	3117.01
666.57	3174.35
666.76	4822.97
666.95	11069.27
667.13	17905.39
667.32	21409.47
667.51	24338.06
667.69	25282.17
667.88	21323.45
668.07	15513.36
668.25	13031.23
668.44	11243.35
668.63	9830.25
668.81	8597.37
669.00	7462.80
669.19	6737.82
669.38	5896.10
669.56	4978.61
669.75	4413.37
669.94	4011.97
670.12	3487.69
670.31	3155.92
670.50	3168.21
670.68	3227.60
670.87	3100.62
671.06	2867.16
671.24	2967.51
671.43	3311.57
671.62	3010.51
671.80	2818.00
671.99	2918.36
672.18	2996.18
672.36	3168.21
672.55	2942.93
672.74	2865.11
672.92	2938.84
673.11	3131.34
673.29	2762.71
673.48	3008.47
673.67	2865.11
673.85	3129.30
674.04	2764.76
674.23	2969.55
674.41	3231.69
674.60	2795.48
674.79	2654.17
674.97	2707.41
675.16	3133.39
675.34	3166.16
675.53	2752.47
675.72	2852.82
675.90	3325.90
676.09	2932.69
676.28	2965.46
676.46	2680.79
676.65	3084.24
676.83	2750.42
677.02	2883.54
677.21	2985.94
677.39	3028.95
677.58	2918.36
677.77	2856.92
677.95	2818.00
678.14	2938.84
678.32	2932.69
678.51	2885.59
678.70	3135.44
678.88	2879.44
679.07	3028.95
679.25	2906.07
679.44	2836.44
679.63	2803.67
679.81	3028.95
680.00	3135.44
680.18	2969.55
680.37	3243.98
680.55	3008.47
680.74	2731.99
680.93	2703.32
681.11	3108.82
681.30	2942.93
681.48	2889.68
681.67	2830.29
681.85	2992.08
682.04	2904.02
682.23	2985.94
682.41	2930.64
682.60	2852.82
682.78	2916.31
682.97	2717.65
683.15	2959.31
683.34	3082.19
683.53	3215.31
683.71	2756.57
683.90	2926.55
684.08	3286.99
684.27	2918.36
684.45	2873.30
684.64	3074.00
684.82	2959.31
685.01	3123.15
685.19	2891.73
685.38	3057.62
685.57	3030.99
685.75	2811.86
685.94	2795.48
686.12	2852.82
686.31	2947.03
686.49	3272.65
686.68	2600.92
686.86	2865.11
687.05	3000.27
687.23	3250.13
687.42	2799.57
687.60	2701.27
687.79	3178.45
687.97	3313.61
688.16	2975.70
688.34	3000.27
688.53	2682.84
688.71	3082.19
688.90	3114.96
689.08	2873.30
689.27	2768.85
689.45	3135.44
689.64	3053.52
689.82	2930.64
690.01	3139.54
690.19	3033.04
690.38	2854.87
690.56	2994.13
690.75	2838.48
690.93	2852.82
691.12	2768.85
691.30	2854.87
691.49	2889.68
691.67	2879.44
691.86	3098.58
692.04	2818.00
692.23	2881.49
692.41	2955.22
692.60	3096.53
692.78	3041.23
692.97	2996.18
693.15	3137.49
693.34	3149.78
693.52	2992.08
693.71	2867.16
693.89	2893.78
694.08	2643.93
694.26	2908.12
694.44	3123.15
694.63	3133.39
694.81	2822.10
695.00	2807.77
695.18	3188.69
695.37	3481.55
695.55	2901.97
695.74	2830.29
695.92	2871.25
696.10	3211.22
696.29	2717.65
696.47	2906.07
696.66	2746.33
696.84	2785.24
697.03	2971.60
697.21	3141.58
697.40	4407.23
697.58	3108.82
697.76	2885.59
697.95	2869.20
698.13	2852.82
698.32	2971.60
698.50	2826.20
698.68	2942.93
698.87	3018.71
699.05	3284.94
699.24	2971.60
699.42	2750.42
699.61	3041.23
699.79	2959.31
699.97	2881.49
700.16	2707.41
700.34	2750.42
700.53	2985.94
700.71	3088.34
700.89	2992.08
701.08	2918.36
701.26	2998.23
701.45	3278.80
701.63	2850.77
701.81	2893.78
702.00	2852.82
702.18	2992.08
702.37	2856.92
702.55	3084.24
702.73	3137.49
702.92	2801.62
703.10	3121.10
703.28	3139.54
703.47	2766.81
703.65	3104.72
703.84	3043.28
704.02	2850.77
704.20	3184.59
704.39	2766.81
704.57	2758.61
704.75	3139.54
704.94	3082.19
705.12	2947.03
705.30	3401.68
705.49	6809.50
705.67	13037.37
705.86	18460.39
706.04	20793.03
706.22	23348.89
706.41	22374.06
706.59	17080.06
706.77	13217.59
706.96	11276.12
707.14	10434.40
707.32	9148.28
707.51	8062.85
707.69	6565.79
707.87	5367.73
708.06	4587.45
708.24	4014.02
708.42	3557.32
708.61	3762.12
708.79	2944.98
708.97	3039.19
709.16	3006.42
709.34	2998.23
709.52	2854.87
709.71	2975.70
709.89	3037.14
710.07	2779.09
710.26	2789.33
710.44	2875.35
710.62	3067.86
710.80	2994.13
710.99	2979.79
711.17	3051.47
711.35	2840.53
711.54	2867.16
711.72	3026.90
711.90	2938.84
712.09	3076.05
712.27	2916.31
712.45	3049.43
712.63	2824.15
712.82	2987.99
713.00	2912.21
713.18	2996.18
713.37	2992.08
713.55	3155.92
713.73	3061.71
713.91	2987.99
714.10	2797.53
714.28	2992.08
714.46	3057.62
714.65	2934.74
714.83	2901.97
715.01	3010.51
715.19	3037.14
715.38	2834.39
715.56	3033.04
715.74	2891.73
715.92	2838.48
716.11	3131.34
716.29	2764.76
716.47	2961.36
716.65	3041.23
716.84	2672.60
717.02	2846.68
717.20	2650.07
717.38	2811.86
717.57	2955.22
717.75	2959.31
717.93	2856.92
718.11	3086.29
718.30	2768.85
718.48	2826.20
718.66	3162.06
718.84	3221.45
719.03	2879.44
719.21	2666.46
719.39	3239.89
719.57	3092.43
719.75	2955.22
719.94	2891.73
720.12	2953.17
720.30	3004.37
720.48	2987.99
720.67	2918.36
720.85	2842.58
721.03	2893.78
721.21	2822.10
721.39	2996.18
721.58	3082.19
721.76	2934.74
721.94	3008.47
722.12	2918.36
722.30	3282.89
722.49	2969.55
722.67	2875.35
722.85	2893.78
723.03	2750.42
723.21	2877.40
723.40	2895.83
723.58	3006.42
723.76	3037.14
723.94	3162.06
724.12	2979.79
724.30	3049.43
724.49	3092.43
724.67	2764.76
724.85	2973.65
725.03	2709.46
725.21	3125.20
725.40	3223.50
725.58	2775.00
725.76	3141.58
725.94	3063.76
726.12	2772.95
726.30	2899.92
726.49	2811.86
726.67	2854.87
726.85	3106.77
727.03	3432.40
727.21	4368.32
727.39	5541.80
727.57	5871.53
727.76	6082.47
727.94	6393.76
728.12	5631.91
728.30	4597.69
728.48	4483.00
728.66	4112.32
728.84	3841.99
729.03	3477.45
729.21	3387.34
729.39	3217.36
729.57	3024.85
729.75	3014.61
729.93	2936.79
730.11	2795.48
730.30	2904.02
730.48	2871.25
730.66	3006.42
730.84	2992.08
731.02	2987.99
731.20	2828.24
731.38	2924.50
731.56	2754.52
731.74	2811.86
731.93	2994.13
732.11	2987.99
732.29	2867.16
732.47	3057.62
732.65	3022.80
732.83	3078.10
733.01	2918.36
733.19	2906.07
733.37	3047.38
733.56	2944.98
733.74	2807.77
733.92	3323.85
734.10	2940.88
734.28	2944.98
734.46	2715.61
734.64	2883.54
734.82	2863.06
735.00	2838.48
735.18	2885.59
735.36	3030.99
735.54	2936.79
735.73	2836.44
735.91	2924.50
736.09	3180.50
736.27	3020.75
736.45	3016.66
736.63	2650.07
736.81	2869.20
736.99	3174.35
737.17	2969.55
737.35	2867.16
737.53	2961.36
737.71	2973.65
737.89	3147.73
738.07	2865.11
738.25	2734.04
738.43	2766.81
738.61	2828.24
738.80	2727.89
738.98	2856.92
739.16	2887.64
739.34	2830.29
739.52	3180.50
739.70	2975.70
739.88	3108.82
740.06	3012.56
740.24	2582.49
740.42	3133.39
740.60	2719.70
740.78	2887.64
740.96	2670.55
741.14	2871.25
741.32	3127.25
741.50	2680.79
741.68	3162.06
741.86	3213.26
742.04	2740.18
742.22	2693.08
742.40	2932.69
742.58	3125.20
742.76	2838.48
742.94	3074.00
743.12	2717.65
743.30	3004.37
743.48	3063.76
743.66	2787.29
743.84	2959.31
744.02	2928.60
744.20	2901.97
744.38	2740.18
744.56	2807.77
744.74	3182.54
744.92	3063.76
745.10	3141.58
745.28	2930.64
745.46	3268.56
745.64	2893.78
745.82	2977.75
746.00	2858.96
746.18	3074.00
746.36	2824.15
746.54	2881.49
746.72	2797.53
746.90	2813.91
747.08	3172.30
747.26	2850.77
747.44	3008.47
747.62	2981.84
747.80	3076.05
747.98	2998.23
748.15	2881.49
748.33	3307.47
748.51	3059.67
748.69	3028.95
748.87	2795.48
749.05	2944.98
749.23	3010.51
749.41	2924.50
749.59	2844.63
749.77	3209.17
749.95	2901.97
750.13	2840.53
750.31	3041.23
750.49	2924.50
750.67	3092.43
750.85	3061.71
751.03	2897.88
751.20	3344.33
751.38	3035.09
751.56	2879.44
751.74	2818.00
751.92	2928.60
752.10	2824.15
752.28	3086.29
752.46	2818.00
752.64	2899.92
752.82	2910.16
753.00	2947.03
753.18	2770.90
753.35	2955.22
753.53	2912.21
753.71	2799.57
753.89	2965.46
754.07	3041.23
754.25	3139.54
754.43	2891.73
754.61	2809.81
754.79	3170.26
754.97	2910.16
755.14	2998.23
755.32	2658.26
755.50	2942.93
755.68	3020.75
755.86	2740.18
756.04	2731.99
756.22	2686.94
756.40	3129.30
756.57	3100.62
756.75	2830.29
756.93	3121.10
757.11	3061.71
757.29	2770.90
757.47	2748.37
757.65	2731.99
757.82	2572.25
758.00	2799.57
758.18	2789.33
758.36	2729.94
758.54	3209.17
758.72	2695.13
758.90	3000.27
759.07	2973.65
759.25	2770.90
759.43	3006.42
759.61	2707.41
759.79	4216.77
759.97	3129.30
760.15	2858.96
760.32	2826.20
760.50	2992.08
760.68	3364.81
760.86	2789.33
761.04	3008.47
761.22	3100.62
761.39	3098.58
761.57	2994.13
761.75	2848.72
761.93	3057.62
762.11	3053.52
762.28	2977.75
762.46	2760.66
762.64	3221.45
762.82	2680.79
763.00	2850.77
763.18	3022.80
763.35	2785.24
763.53	3039.19
763.71	3012.56
763.89	2852.82
764.07	2985.94
764.24	2973.65
764.42	3016.66
764.60	2838.48
764.78	2975.70
764.96	3063.76
765.13	2992.08
765.31	2826.20
765.49	3129.30
765.67	2852.82
765.84	2777.05
766.02	2787.29
766.20	2777.05
766.38	2975.70
766.56	2897.88
766.73	2957.27
766.91	2920.40
767.09	2971.60
767.27	2936.79
767.44	2787.29
767.62	3104.72
767.80	3041.23
767.98	2861.01
768.15	2871.25
768.33	3061.71
768.51	3106.77
768.69	2983.89
768.87	2877.40
769.04	2930.64
769.22	3542.99
769.40	2994.13
769.58	3018.71
769.75	2987.99
769.93	3237.84
770.11	2836.44
770.28	2822.10
770.46	3143.63
770.64	3008.47
770.82	2834.39
770.99	2801.62
771.17	3022.80
771.35	2873.30
771.53	2904.02
771.70	2850.77
771.88	3057.62
772.06	2979.79
772.23	2799.57
772.41	2881.49
772.59	2842.58
772.77	2803.67
772.94	2861.01
773.12	2973.65
773.30	2916.31
773.47	3024.85
773.65	2775.00
773.83	3018.71
774.01	2947.03
774.18	2717.65
774.36	2838.48
774.54	2754.52
774.71	3020.75
774.89	2789.33
775.07	2791.38
775.24	2797.53
775.42	2928.60
775.60	3344.33
775.78	2787.29
775.95	2693.08
776.13	2695.13
776.31	2654.17
776.48	2975.70
776.66	2981.84
776.84	2861.01
777.01	2877.40
777.19	2729.94
777.37	2777.05
777.54	3006.42
777.72	3235.79
777.90	2904.02
778.07	2795.48
778.25	3624.90
778.43	3270.61
778.60	2734.04
778.78	2887.64
778.96	3172.30
779.13	2772.95
779.31	3008.47
779.49	2856.92
779.66	2957.27
779.84	2906.07
780.01	2850.77
780.19	2822.10
780.37	3117.01
780.54	3004.37
780.72	2750.42
780.90	2809.81
781.07	2918.36
781.25	2850.77
781.43	3098.58
781.60	2760.66
781.78	3168.21
781.95	2998.23
782.13	2781.14
782.31	2815.96
782.48	2666.46
782.66	2910.16
782.83	3051.47
783.01	2959.31
783.19	3155.92
783.36	2955.22
783.54	2725.85
783.72	3004.37
783.89	2879.44
784.07	2934.74
784.24	2942.93
784.42	3000.27
784.60	3037.14
784.77	3002.32
784.95	2617.30
785.12	2885.59
785.30	3074.00
785.47	2811.86
785.65	2783.19
785.83	2914.26
786.00	2832.34
786.18	2961.36
786.35	2752.47
786.53	2715.61
786.71	3203.02
786.88	3016.66
787.06	2926.55
787.23	2922.45
787.41	2834.39
787.58	2971.60
787.76	2736.09
787.94	2877.40
788.11	3135.44
788.29	2861.01
788.46	2815.96
788.64	2729.94
788.81	2887.64
788.99	2766.81
789.16	2711.51
789.34	2805.72
789.52	2838.48
789.69	2936.79
789.87	2688.98
790.04	2846.68
790.22	2940.88
790.39	3276.75
790.57	2826.20
790.74	2844.63
790.92	3090.38
791.09	2686.94
791.27	2928.60
791.44	2936.79
791.62	2869.20
791.79	3106.77
791.97	2848.72
792.15	3241.93
792.32	3053.52
792.50	3065.81
792.67	3088.34
792.85	3100.62
793.02	2998.23
793.20	2873.30
793.37	2688.98
793.55	2785.24
793.72	2809.81
793.90	3112.91
794.07	2799.57
794.25	2797.53
794.42	3030.99
794.60	2959.31
794.77	2883.54
794.95	2985.94
795.12	3127.25
795.30	2926.55
795.47	2688.98
795.65	3196.88
795.82	3061.71
796.00	2852.82
796.17	2938.84
796.34	2734.04
796.52	3012.56
796.69	3123.15
796.87	2912.21
797.04	2987.99
797.22	3074.00
797.39	3084.24
797.57	3059.67
797.74	2887.64
797.92	3008.47
798.09	2844.63
798.27	3071.95
798.44	2768.85
798.62	2854.87
798.79	2963.41
798.96	2967.51
799.14	2852.82
799.31	3430.35
799.49	2924.50
799.66	2944.98
799.84	2852.82
800.01	2686.94
800.19	3051.47
800.36	2713.56
800.53	2777.05
800.71	3076.05
800.88	3256.27
801.06	2791.38
801.23	2697.17
801.41	2895.83
801.58	2856.92
801.75	2834.39
801.93	2922.45
802.10	3123.15
802.28	2881.49
802.45	2824.15
802.63	2947.03
802.80	3276.75
802.97	2889.68
803.15	2832.34
803.32	2871.25
803.50	2830.29
803.67	2920.40
803.84	2756.57
804.02	2947.03
804.19	2889.68
804.37	2619.35
804.54	2717.65
804.71	2836.44
804.89	3012.56
805.06	2908.12
805.24	2768.85
805.41	2658.26
805.58	2813.91
805.76	3428.30
805.93	2877.40
806.10	3078.10
806.28	3051.47
806.45	3049.43
806.63	2998.23
806.80	2940.88
806.97	3033.04
807.15	3030.99
807.32	2895.83
807.49	2942.93
807.67	2848.72
807.84	3080.14
808.01	2611.16
808.19	3063.76
808.36	3348.43
808.54	2928.60
808.71	2861.01
808.88	2871.25
809.06	3104.72
809.23	3256.27
809.40	2865.11
809.58	2899.92
809.75	2983.89
809.92	2854.87
810.10	3164.11
810.27	2963.41
810.44	3133.39
810.62	3110.86
810.79	2904.02
810.96	2844.63
811.14	2955.22
811.31	3063.76
811.48	3022.80
811.66	2922.45
811.83	3180.50
812.00	3119.06
812.18	2936.79
812.35	3131.34
812.52	2846.68
812.69	2897.88
812.87	2787.29
813.04	2834.39
813.21	2926.55
813.39	2871.25
813.56	2801.62
813.73	3069.91
813.91	2691.03
814.08	2959.31
814.25	2904.02
814.42	2635.74
814.60	2967.51
814.77	2938.84
814.94	2815.96
815.12	2897.88
815.29	3239.89
815.46	2824.15
815.63	2848.72
815.81	2887.64
815.98	2947.03
816.15	2949.08
816.33	2867.16
816.50	2836.44
816.67	2967.51
816.84	2953.17
817.02	2715.61
817.19	2838.48
817.36	2979.79
817.53	2979.79
817.71	2815.96
817.88	2899.92
818.05	2910.16
818.22	2922.45
818.40	3045.33
818.57	2779.09
818.74	3104.72
818.91	2904.02
819.09	2998.23
819.26	2920.40
819.43	2818.00
819.60	2910.16
819.78	2885.59
819.95	2949.08
820.12	2863.06
820.29	3200.98
820.47	3123.15
820.64	2789.33
820.81	2762.71
820.98	2861.01
821.15	2805.72
821.33	2977.75
821.50	2666.46
821.67	3043.28
821.84	2848.72
822.02	2871.25
822.19	3155.92
822.36	2936.79
822.53	2832.34
822.70	2768.85
822.88	2893.78
823.05	3219.41
823.22	2899.92
823.39	2875.35
823.56	2922.45
823.74	3233.74
823.91	2779.09
824.08	2791.38
824.25	2830.29
824.42	3317.71
824.60	2684.89
824.77	2985.94
824.94	2977.75
825.11	3088.34
825.28	2721.75
825.45	2920.40
825.63	3026.90
825.80	2832.34
825.97	2949.08
826.14	2918.36
826.31	2721.75
826.48	3094.48
826.66	2738.13
826.83	2795.48
827.00	2942.93
827.17	2789.33
827.34	2885.59
827.51	2787.29
827.69	2938.84
827.86	2750.42
828.03	2897.88
828.20	2824.15
828.37	2877.40
828.54	3131.34
828.71	2752.47
828.89	3051.47
829.06	3020.75
829.23	3231.69
829.40	2818.00
829.57	2781.14
829.74	3121.10
829.91	2871.25
830.09	2787.29
830.26	3008.47
830.43	3260.37
830.60	3024.85
830.77	2977.75
830.94	3110.86
831.11	3186.64
831.28	2953.17
831.46	3033.04
831.63	2830.29
831.80	3198.93
831.97	2850.77
832.14	2861.01
832.31	2967.51
832.48	2959.31
832.65	3170.26
832.82	2961.36
832.99	2912.21
833.17	2789.33
833.34	3276.75
833.51	2809.81
833.68	2633.69
833.85	3194.83
834.02	2826.20
834.19	2746.33
834.36	2807.77
834.53	3020.75
834.70	3211.22
834.87	2918.36
835.04	2697.17
835.22	2875.35
835.39	2881.49
835.56	2717.65
835.73	2725.85
835.90	3139.54
836.07	2848.72
836.24	2899.92
836.41	2746.33
836.58	2873.30
836.75	3080.14
836.92	2750.42
837.09	2701.27
837.26	3112.91
837.43	3063.76
837.60	2772.95
837.77	2754.52
837.94	3059.67
838.12	3141.58
838.29	2725.85
838.46	2627.54
838.63	2752.47
838.80	3274.70
838.97	2818.00
839.14	2688.98
839.31	2967.51
839.48	3096.53
839.65	2688.98
839.82	2844.63
839.99	3028.95
840.16	2990.03
840.33	2658.26
840.50	2742.23
840.67	2811.86
840.84	2549.72
841.01	2701.27
841.18	2717.65
841.35	2979.79
841.52	3080.14
841.69	3076.05
841.86	2781.14
842.03	2957.27
842.20	3094.48
842.37	2770.90
842.54	2713.56
842.71	3004.37
842.88	2756.57
843.05	2711.51
843.22	2617.30
843.39	3090.38
843.56	2926.55
843.73	2758.61
843.90	2729.94
844.07	2957.27
844.24	3127.25
844.41	2828.24
844.58	2754.52
844.75	2949.08
844.92	3090.38
845.09	2830.29
845.26	2715.61
845.43	3082.19
845.60	2887.64
845.77	2891.73
845.94	2852.82
846.10	3037.14
846.27	2691.03
846.44	2721.75
846.61	2645.98
846.78	3110.86
846.95	3160.02
847.12	2666.46
847.29	2703.32
847.46	2830.29
847.63	3170.26
847.80	2740.18
847.97	2682.84
848.14	3289.04
848.31	2869.20
848.48	2553.82
848.65	2746.33
848.82	2979.79
848.98	3407.82
849.15	2826.20
849.32	2836.44
849.49	3133.39
849.66	2912.21
849.83	2729.94
850.00	2627.54
850.17	3190.74
850.34	2940.88
850.51	2762.71
850.68	2762.71
850.85	3299.28
851.01	2944.98
851.18	2703.32
851.35	2748.37
851.52	2990.03
851.69	3282.89
851.86	2629.59
852.03	2680.79
852.20	3098.58
852.37	2887.64
852.53	2656.22
852.70	2656.22
852.87	3035.09
853.04	3170.26
853.21	2701.27
853.38	2916.31
853.55	3198.93
853.72	3123.15
853.89	2680.79
854.05	2691.03
854.22	2918.36
854.39	2852.82
854.56	2754.52
854.73	2912.21
854.90	2775.00
855.07	2975.70
855.23	2629.59
855.40	2654.17
855.57	2820.05
855.74	2658.26
855.91	2822.10
856.08	2627.54
856.25	2750.42
856.41	2865.11
856.58	2725.85
856.75	2752.47
856.92	2832.34
857.09	3076.05
857.26	2584.54
857.42	2818.00
857.59	3037.14
857.76	2959.31
857.93	2680.79
858.10	2766.81
858.27	2858.96
858.43	3026.90
858.60	2717.65
858.77	2588.63
858.94	2856.92
859.11	3063.76
859.27	2891.73
859.44	2719.70
859.61	3168.21
859.78	3157.97
859.95	2781.14
860.12	2697.17
860.28	3317.71
860.45	3270.61
860.62	2633.69
860.79	2807.77
860.95	2965.46
861.12	2893.78
861.29	2641.88
861.46	2768.85
861.63	2940.88
861.79	3039.19
861.96	2564.06
862.13	2752.47
862.30	3135.44
862.47	2828.24
862.63	2566.10
862.80	2865.11
862.97	3178.45
863.14	3131.34
863.30	2672.60
863.47	2680.79
863.64	3270.61
863.81	3026.90
863.97	2639.83
864.14	2795.48
864.31	2949.08
864.48	3004.37
864.65	2713.56
864.81	2893.78
864.98	3112.91
865.15	3078.10
865.32	2787.29
865.48	2820.05
865.65	3258.32
865.82	2877.40
865.98	2861.01
866.15	2803.67
866.32	2955.22
866.49	2897.88
866.65	2938.84
866.82	2738.13
866.99	2875.35
867.16	2852.82
867.32	2811.86
867.49	2723.80
867.66	2973.65
867.83	2940.88
867.99	2736.09
868.16	2762.71
868.33	2736.09
868.49	2975.70
868.66	2731.99
868.83	2781.14
868.99	3030.99
869.16	2928.60
869.33	2863.06
869.50	2787.29
869.66	3008.47
869.83	2955.22
870.00	2596.82
870.16	2797.53
870.33	2983.89
870.50	3082.19
870.66	2807.77
870.83	2719.70
871.00	2928.60
871.17	3059.67
871.33	2791.38
871.50	2639.83
871.67	2916.31
871.83	2873.30
872.00	2805.72
872.17	2740.18
872.33	3223.50
872.50	3155.92
872.67	2764.76
872.83	2797.53
873.00	2990.03
873.17	3074.00
873.33	2750.42
873.50	2750.42
873.67	2799.57
873.83	2899.92
874.00	2772.95
874.16	2979.79
874.33	2983.89
874.50	2789.33
874.66	2721.75
874.83	2783.19
875.00	3203.02
875.16	3180.50
875.33	2752.47
875.50	2529.24
875.66	2942.93
875.83	2961.36
875.99	2826.20
876.16	2830.29
876.33	2840.53
876.49	2908.12
876.66	2725.85
876.83	2777.05
876.99	2793.43
877.16	2920.40
877.32	2705.37
877.49	2744.28
877.66	3024.85
877.82	3192.78
877.99	2799.57
878.15	2961.36
878.32	3041.23
878.49	3008.47
878.65	2768.85
878.82	3002.32
878.98	2863.06
879.15	3127.25
879.32	2885.59
879.48	2893.78
879.65	2920.40
879.81	2940.88
879.98	2828.24
880.15	2783.19
880.31	3137.49
880.48	2828.24
880.64	2887.64
880.81	2895.83
880.97	3276.75
881.14	3098.58
881.31	2682.84
881.47	2869.20
881.64	2955.22
881.80	2707.41
881.97	2863.06
882.13	2789.33
882.30	2744.28
882.47	2893.78
882.63	2797.53
882.80	2760.66
882.96	2936.79
883.13	3219.41
883.29	2772.95
883.46	2686.94
883.62	3295.18
883.79	2959.31
883.95	2867.16
884.12	2787.29
884.29	3061.71
884.45	2967.51
884.62	2762.71
884.78	2686.94
884.95	3209.17
885.11	2785.24
885.28	2824.15
885.44	2789.33
885.61	3047.38
885.77	3239.89
885.94	2834.39
886.10	2758.61
886.27	2981.84
886.43	3266.51
886.60	2947.03
886.76	2752.47
886.93	2824.15
887.09	3014.61
887.26	2617.30
887.42	2779.09
887.59	3141.58
887.75	3307.47
887.92	2912.21
888.08	2897.88
888.25	3352.52
888.41	3084.24
888.58	2906.07
888.74	2701.27
888.91	2938.84
>>>>>End Processed Spectral Data<<<<<
