SpectraSuite Data File
++++++++++++++++++++++++++++++++++++
Date: Thu May 05 21:11:04 CEST 2016
User: root
Dark Spectrum Present: No
Reference Spectrum Present: No
Number of Sampled Component Spectra: 1
Spectrometers: USB4C02835
Integration Time (usec): 100000 (USB4C02835)
Spectra Averaged: 1 (USB4C02835)
Boxcar Smoothing: 0 (USB4C02835)
Correct for Electrical Dark: No (USB4C02835)
Strobe/Lamp Enabled: No (USB4C02835)
Correct for Detector Non-linearity: No (USB4C02835)
Correct for Stray Light: No (USB4C02835)
Number of Pixels in Processed Spectrum: 3648
>>>>>Begin Processed Spectral Data<<<<<
177.47	2154.46
177.69	2154.46
177.91	2154.46
178.13	2144.22
178.36	2093.02
178.58	2764.76
178.80	2910.16
179.02	2701.27
179.24	2824.15
179.46	2580.44
179.68	2621.40
179.90	2924.50
180.13	2961.36
180.35	2541.53
180.57	2557.91
180.79	3145.68
181.01	2975.70
181.23	2734.04
181.45	2777.05
181.67	3117.01
181.90	3155.92
182.12	2754.52
182.34	2576.34
182.56	3088.34
182.78	3098.58
183.00	2598.87
183.22	2684.89
183.44	2662.36
183.66	3395.53
183.89	2756.57
184.11	2711.51
184.33	3162.06
184.55	3160.02
184.77	2625.50
184.99	2619.35
185.21	2944.98
185.43	3389.39
185.65	2705.37
185.87	2605.02
186.10	3346.38
186.32	3325.90
186.54	2789.33
186.76	2746.33
186.98	3164.11
187.20	2938.84
187.42	2785.24
187.64	2717.65
187.86	3127.25
188.08	3119.06
188.30	2586.58
188.52	2723.80
188.75	3213.26
188.97	3252.17
189.19	2594.78
189.41	2744.28
189.63	3053.52
189.85	2895.83
190.07	2590.68
190.29	2553.82
190.51	3104.72
190.73	2701.27
190.95	2918.36
191.17	2662.36
191.39	2754.52
191.61	2936.79
191.84	2688.98
192.06	2752.47
192.28	2666.46
192.50	3506.12
192.72	2820.05
192.94	2768.85
193.16	3170.26
193.38	3131.34
193.60	2666.46
193.82	2787.29
194.04	3106.77
194.26	3074.00
194.48	2664.41
194.70	2721.75
194.92	2934.74
195.14	3125.20
195.36	2592.73
195.58	2731.99
195.80	2928.60
196.02	2912.21
196.24	2586.58
196.46	2758.61
196.69	2885.59
196.91	3405.77
197.13	2652.12
197.35	2748.37
197.57	3323.85
197.79	3176.40
198.01	2768.85
198.23	2654.17
198.45	3086.29
198.67	2830.29
198.89	2529.24
199.11	2695.13
199.33	2807.77
199.55	2605.02
199.77	2635.74
199.99	2836.44
200.21	2895.83
200.43	2975.70
200.65	2557.91
200.87	2586.58
201.09	2969.55
201.31	2928.60
201.53	2734.04
201.75	2727.89
201.97	3088.34
202.19	2940.88
202.41	2736.09
202.63	2799.57
202.85	3045.33
203.07	3035.09
203.29	2748.37
203.51	2600.92
203.73	2885.59
203.95	3413.96
204.17	2691.03
204.39	2764.76
204.61	2979.79
204.83	2897.88
205.05	2844.63
205.27	2648.02
205.49	3323.85
205.71	2969.55
205.93	2643.93
206.15	2519.00
206.37	3039.19
206.59	3004.37
206.81	2543.58
207.03	2584.54
207.25	2826.20
207.47	3069.91
207.69	2701.27
207.91	2967.51
208.13	3229.65
208.34	2785.24
208.56	2605.02
208.78	2684.89
209.00	2934.74
209.22	2947.03
209.44	2623.45
209.66	2672.60
209.88	2934.74
210.10	2897.88
210.32	2635.74
210.54	2785.24
210.76	2996.18
210.98	3108.82
211.20	2600.92
211.42	2822.10
211.64	3264.46
211.86	3090.38
212.08	2693.08
212.30	2754.52
212.52	2990.03
212.74	3094.48
212.96	2766.81
213.17	2715.61
213.39	3020.75
213.61	3246.03
213.83	2645.98
214.05	2609.11
214.27	3145.68
214.49	2764.76
214.71	2660.31
214.93	2830.29
215.15	2987.99
215.37	3086.29
215.59	2572.25
215.81	2705.37
216.03	3205.07
216.24	2906.07
216.46	2637.78
216.68	2738.13
216.90	3176.40
217.12	3090.38
217.34	2658.26
217.56	2824.15
217.78	3196.88
218.00	3049.43
218.22	2703.32
218.44	2738.13
218.66	3008.47
218.87	3354.57
219.09	2729.94
219.31	2752.47
219.53	3045.33
219.75	2932.69
219.97	2717.65
220.19	2789.33
220.41	2981.84
220.63	3241.93
220.85	2672.60
221.06	2764.76
221.28	3213.26
221.50	3055.57
221.72	2729.94
221.94	2682.84
222.16	2901.97
222.38	3110.86
222.60	2682.84
222.82	2729.94
223.03	3209.17
223.25	2826.20
223.47	2688.98
223.69	2922.45
223.91	3205.07
224.13	3045.33
224.35	2510.81
224.57	2908.12
224.78	3026.90
225.00	2795.48
225.22	2760.66
225.44	2654.17
225.66	3147.73
225.88	2920.40
226.10	2695.13
226.32	2699.22
226.53	3280.85
226.75	2832.34
226.97	2758.61
227.19	2725.85
227.41	2840.53
227.63	2856.92
227.85	2430.94
228.06	2664.41
228.28	3061.71
228.50	3114.96
228.72	2541.53
228.94	2613.21
229.16	2715.61
229.37	2781.14
229.59	2650.07
229.81	2899.92
230.03	2973.65
230.25	2822.10
230.47	2529.24
230.69	2680.79
230.90	3147.73
231.12	2832.34
231.34	2760.66
231.56	2711.51
231.78	2785.24
232.00	3035.09
232.21	2705.37
232.43	2711.51
232.65	2748.37
232.87	3039.19
233.09	2551.77
233.30	2598.87
233.52	3123.15
233.74	2930.64
233.96	2648.02
234.18	2820.05
234.40	2889.68
234.61	3395.53
234.83	2562.01
235.05	2633.69
235.27	3440.59
235.49	3221.45
235.70	2635.74
235.92	2748.37
236.14	3076.05
236.36	3401.68
236.58	2592.73
236.79	2805.72
237.01	2914.26
237.23	2985.94
237.45	2897.88
237.67	2727.89
237.88	3100.62
238.10	3336.14
238.32	2582.49
238.54	2623.45
238.76	2992.08
238.97	2820.05
239.19	2600.92
239.41	2746.33
239.63	3227.60
239.85	2822.10
240.06	2805.72
240.28	2637.78
240.50	3200.98
240.72	2932.69
240.93	2580.44
241.15	2779.09
241.37	2973.65
241.59	3209.17
241.81	2695.13
242.02	2727.89
242.24	3055.57
242.46	3078.10
242.68	2598.87
242.89	2650.07
243.11	3168.21
243.33	2916.31
243.55	2672.60
243.76	2697.17
243.98	2947.03
244.20	3014.61
244.42	2662.36
244.64	2684.89
244.85	2824.15
245.07	2844.63
245.29	2688.98
245.51	2742.23
245.72	2957.27
245.94	3147.73
246.16	2713.56
246.38	2752.47
246.59	2885.59
246.81	2873.30
247.03	2641.88
247.24	2521.05
247.46	2863.06
247.68	3039.19
247.90	2625.50
248.11	2744.28
248.33	3096.53
248.55	2975.70
248.77	2797.53
248.98	2789.33
249.20	3293.13
249.42	3012.56
249.64	2648.02
249.85	2686.94
250.07	2973.65
250.29	3121.10
250.50	2783.19
250.72	2662.36
250.94	3131.34
251.16	3280.85
251.37	2688.98
251.59	2744.28
251.81	3112.91
252.02	3215.31
252.24	2586.58
252.46	2813.91
252.68	2928.60
252.89	2822.10
253.11	2629.59
253.33	2854.87
253.54	3166.16
253.76	2750.42
253.98	2695.13
254.20	2650.07
254.41	2768.85
254.63	2877.40
254.85	2549.72
255.06	2787.29
255.28	3151.82
255.50	2920.40
255.71	2674.65
255.93	2482.14
256.15	2934.74
256.36	3133.39
256.58	2519.00
256.80	2639.83
257.02	2932.69
257.23	2863.06
257.45	2682.84
257.67	2832.34
257.88	2807.77
258.10	2987.99
258.32	2658.26
258.53	2779.09
258.75	3266.51
258.97	2936.79
259.18	2574.30
259.40	2635.74
259.62	3246.03
259.83	3205.07
260.05	2691.03
260.27	3499.98
260.48	3129.30
260.70	2811.86
260.92	2648.02
261.13	2787.29
261.35	2953.17
261.57	3053.52
261.78	2566.10
262.00	2652.12
262.22	3100.62
262.43	2877.40
262.65	2736.09
262.86	2711.51
263.08	3422.16
263.30	3039.19
263.51	2496.47
263.73	2631.64
263.95	3221.45
264.16	2832.34
264.38	2658.26
264.60	2613.21
264.81	2936.79
265.03	3188.69
265.25	3014.61
265.46	2570.20
265.68	3190.74
265.89	3112.91
266.11	2559.96
266.33	2576.34
266.54	3217.36
266.76	3033.04
266.98	2701.27
267.19	2830.29
267.41	3229.65
267.62	2897.88
267.84	2488.28
268.06	2772.95
268.27	2975.70
268.49	3153.87
268.70	2703.32
268.92	2680.79
269.14	2901.97
269.35	2764.76
269.57	2781.14
269.79	2766.81
270.00	2934.74
270.22	3284.94
270.43	2525.15
270.65	2574.30
270.87	3043.28
271.08	3035.09
271.30	2775.00
271.51	2652.12
271.73	3018.71
271.95	3213.26
272.16	2617.30
272.38	2760.66
272.59	2983.89
272.81	3045.33
273.02	2629.59
273.24	2725.85
273.46	3211.22
273.67	2754.52
273.89	2525.15
274.10	2633.69
274.32	3078.10
274.54	3065.81
274.75	2815.96
274.97	2740.18
275.18	3180.50
275.40	3106.77
275.61	2742.23
275.83	2879.44
276.05	2867.16
276.26	2985.94
276.48	2766.81
276.69	2891.73
276.91	2924.50
277.12	3196.88
277.34	2899.92
277.55	2899.92
277.77	3008.47
277.99	2998.23
278.20	2777.05
278.42	2695.13
278.63	2822.10
278.85	2797.53
279.06	2719.70
279.28	2809.81
279.49	3112.91
279.71	3076.05
279.93	2832.34
280.14	2813.91
280.36	2828.24
280.57	3063.76
280.79	2820.05
281.00	2736.09
281.22	2994.13
281.43	3231.69
281.65	2551.77
281.86	2731.99
282.08	3065.81
282.29	3282.89
282.51	2643.93
282.73	2660.31
282.94	2738.13
283.16	3084.24
283.37	2916.31
283.59	2801.62
283.80	3074.00
284.02	2904.02
284.23	2918.36
284.45	2815.96
284.66	2826.20
284.88	2807.77
285.09	2772.95
285.31	2904.02
285.52	3061.71
285.74	2658.26
285.95	3008.47
286.17	2815.96
286.38	3309.52
286.60	2848.72
286.81	2686.94
287.03	2719.70
287.24	3030.99
287.46	3147.73
287.67	2883.54
287.89	3006.42
288.10	2897.88
288.32	2983.89
288.53	2983.89
288.75	2861.01
288.96	3069.91
289.18	2904.02
289.39	2779.09
289.61	2869.20
289.82	3342.28
290.04	3377.10
290.25	2670.55
290.47	2869.20
290.68	2963.41
290.90	3114.96
291.11	2654.17
291.33	2975.70
291.54	2865.11
291.76	2846.68
291.97	2912.21
292.18	2848.72
292.40	2934.74
292.61	2865.11
292.83	3090.38
293.04	2852.82
293.26	2969.55
293.47	2994.13
293.69	2766.81
293.90	2742.23
294.12	3211.22
294.33	2981.84
294.55	2803.67
294.76	2983.89
294.97	3227.60
295.19	3352.52
295.40	2824.15
295.62	2930.64
295.83	3086.29
296.05	2824.15
296.26	2985.94
296.48	2805.72
296.69	3020.75
296.90	2910.16
297.12	2895.83
297.33	2979.79
297.55	2961.36
297.76	3133.39
297.98	2893.78
298.19	2920.40
298.41	3008.47
298.62	2852.82
298.83	3049.43
299.05	2811.86
299.26	2912.21
299.48	2820.05
299.69	2934.74
299.90	2842.58
300.12	2826.20
300.33	3076.05
300.55	2768.85
300.76	2852.82
300.98	2797.53
301.19	3057.62
301.40	2738.13
301.62	2713.56
301.83	3078.10
302.05	2985.94
302.26	2818.00
302.47	2850.77
302.69	2881.49
302.90	2996.18
303.12	2596.82
303.33	2908.12
303.54	3327.95
303.76	2844.63
303.97	2764.76
304.19	2987.99
304.40	2787.29
304.61	3049.43
304.83	2897.88
305.04	2901.97
305.26	3053.52
305.47	2893.78
305.68	2840.53
305.90	2709.46
306.11	3209.17
306.33	2912.21
306.54	2731.99
306.75	2801.62
306.97	2723.80
307.18	2789.33
307.39	2811.86
307.61	2914.26
307.82	2936.79
308.04	3041.23
308.25	2727.89
308.46	2904.02
308.68	2938.84
308.89	3008.47
309.10	2953.17
309.32	2871.25
309.53	2957.27
309.74	3127.25
309.96	2703.32
310.17	3041.23
310.39	2965.46
310.60	3114.96
310.81	2736.09
311.03	2754.52
311.24	3127.25
311.45	2951.12
311.67	3016.66
311.88	2815.96
312.09	2899.92
312.31	2775.00
312.52	2805.72
312.73	2762.71
312.95	2764.76
313.16	2830.29
313.37	2969.55
313.59	2904.02
313.80	3094.48
314.01	3268.56
314.23	2775.00
314.44	2742.23
314.65	2754.52
314.87	2856.92
315.08	2766.81
315.29	2869.20
315.51	2891.73
315.72	2809.81
315.93	2850.77
316.15	2908.12
316.36	2826.20
316.57	2983.89
316.79	2824.15
317.00	2697.17
317.21	3061.71
317.43	2801.62
317.64	2856.92
317.85	2725.85
318.07	2918.36
318.28	2985.94
318.49	2916.31
318.70	3018.71
318.92	3074.00
319.13	3047.38
319.34	2934.74
319.56	2809.81
319.77	3123.15
319.98	3041.23
320.20	2949.08
320.41	2973.65
320.62	3112.91
320.83	2793.43
321.05	3033.04
321.26	2906.07
321.47	3008.47
321.69	3186.64
321.90	2684.89
322.11	2803.67
322.32	2985.94
322.54	3254.22
322.75	2838.48
322.96	3526.60
323.18	2766.81
323.39	2754.52
323.60	2680.79
323.81	2801.62
324.03	2940.88
324.24	2942.93
324.45	2848.72
324.66	2803.67
324.88	3147.73
325.09	3205.07
325.30	2863.06
325.52	2721.75
325.73	3014.61
325.94	2867.16
326.15	2658.26
326.37	2740.18
326.58	3147.73
326.79	3286.99
327.00	2721.75
327.22	2789.33
327.43	2928.60
327.64	2818.00
327.85	2854.87
328.07	2832.34
328.28	3256.27
328.49	2840.53
328.70	2803.67
328.92	2779.09
329.13	2934.74
329.34	3092.43
329.55	3016.66
329.76	2955.22
329.98	2936.79
330.19	3102.67
330.40	2815.96
330.61	2914.26
330.83	3133.39
331.04	2844.63
331.25	2920.40
331.46	2830.29
331.68	2824.15
331.89	3250.13
332.10	2832.34
332.31	2637.78
332.52	2973.65
332.74	3231.69
332.95	2666.46
333.16	2799.57
333.37	3076.05
333.58	2861.01
333.80	2895.83
334.01	2629.59
334.22	2901.97
334.43	2871.25
334.64	2787.29
334.86	2688.98
335.07	2854.87
335.28	3243.98
335.49	2717.65
335.70	2858.96
335.92	3250.13
336.13	3340.24
336.34	2895.83
336.55	2809.81
336.76	3065.81
336.98	2686.94
337.19	2805.72
337.40	2930.64
337.61	3502.03
337.82	2942.93
338.04	2967.51
338.25	2699.22
338.46	2904.02
338.67	2942.93
338.88	2721.75
339.09	2699.22
339.31	2901.97
339.52	2772.95
339.73	2615.26
339.94	2838.48
340.15	3125.20
340.36	2875.35
340.58	2877.40
340.79	2805.72
341.00	3022.80
341.21	2811.86
341.42	3119.06
341.63	2756.57
341.85	3162.06
342.06	2936.79
342.27	2699.22
342.48	2914.26
342.69	2742.23
342.90	3012.56
343.12	3080.14
343.33	2725.85
343.54	3108.82
343.75	3200.98
343.96	2852.82
344.17	2670.55
344.38	2979.79
344.60	2789.33
344.81	2729.94
345.02	2828.24
345.23	3133.39
345.44	3377.10
345.65	2848.72
345.86	2879.44
346.07	3024.85
346.29	2863.06
346.50	2936.79
346.71	2861.01
346.92	3248.08
347.13	3332.05
347.34	2832.34
347.55	2656.22
347.76	3051.47
347.98	2824.15
348.19	2809.81
348.40	2985.94
348.61	2924.50
348.82	3268.56
349.03	2881.49
349.24	2707.41
349.45	3295.18
349.66	2648.02
349.88	2793.43
350.09	2729.94
350.30	3358.67
350.51	3145.68
350.72	2979.79
350.93	2922.45
351.14	2983.89
351.35	3039.19
351.56	2848.72
351.77	2856.92
351.99	3088.34
352.20	3368.91
352.41	2906.07
352.62	2627.54
352.83	2904.02
353.04	3006.42
353.25	2826.20
353.46	2795.48
353.67	3082.19
353.88	2598.87
354.09	2725.85
354.30	2895.83
354.52	3074.00
354.73	3035.09
354.94	2781.14
355.15	2906.07
355.36	3252.17
355.57	2854.87
355.78	2746.33
355.99	2781.14
356.20	2885.59
356.41	3215.31
356.62	2887.64
356.83	2865.11
357.04	3176.40
357.25	2762.71
357.46	2824.15
357.68	2668.50
357.89	2754.52
358.10	2932.69
358.31	2791.38
358.52	2842.58
358.73	2805.72
358.94	2809.81
359.15	2721.75
359.36	2914.26
359.57	3012.56
359.78	2955.22
359.99	2959.31
360.20	2678.74
360.41	2947.03
360.62	3190.74
360.83	2854.87
361.04	2836.44
361.25	3057.62
361.46	3313.61
361.67	2944.98
361.88	2828.24
362.09	3200.98
362.30	3033.04
362.51	2695.13
362.72	2883.54
362.93	3155.92
363.14	3117.01
363.35	2826.20
363.56	2772.95
363.78	3157.97
363.99	3117.01
364.20	2795.48
364.41	2838.48
364.62	3354.57
364.83	3098.58
365.04	2871.25
365.25	2770.90
365.46	3401.68
365.67	2811.86
365.88	2951.12
366.09	2787.29
366.30	2912.21
366.51	3039.19
366.72	2691.03
366.93	2744.28
367.14	2971.60
367.35	3164.11
367.56	2758.61
367.77	2924.50
367.98	2981.84
368.18	3010.51
368.39	2922.45
368.60	2797.53
368.81	3108.82
369.02	3082.19
369.23	2848.72
369.44	2641.88
369.65	2924.50
369.86	3061.71
370.07	3002.32
370.28	2725.85
370.49	3020.75
370.70	3108.82
370.91	2734.04
371.12	2693.08
371.33	3180.50
371.54	2922.45
371.75	2922.45
371.96	2531.29
372.17	3022.80
372.38	2891.73
372.59	2881.49
372.80	2744.28
373.01	3018.71
373.22	2971.60
373.43	2871.25
373.64	2631.64
373.85	3248.08
374.06	3215.31
374.26	2891.73
374.47	2934.74
374.68	3221.45
374.89	3037.14
375.10	2742.23
375.31	2861.01
375.52	3016.66
375.73	2912.21
375.94	2670.55
376.15	2979.79
376.36	2826.20
376.57	2955.22
376.78	2854.87
376.99	2848.72
377.20	3297.23
377.40	2955.22
377.61	3074.00
377.82	2840.53
378.03	3233.74
378.24	3114.96
378.45	2824.15
378.66	2863.06
378.87	2738.13
379.08	2856.92
379.29	2801.62
379.50	2971.60
379.71	2992.08
379.91	3196.88
380.12	2709.46
380.33	2869.20
380.54	2926.55
380.75	3049.43
380.96	2746.33
381.17	2926.55
381.38	2994.13
381.59	3057.62
381.80	2801.62
382.00	3020.75
382.21	3002.32
382.42	3239.89
382.63	3106.77
382.84	2881.49
383.05	3100.62
383.26	3166.16
383.47	2940.88
383.68	2838.48
383.88	3123.15
384.09	3043.28
384.30	3112.91
384.51	2912.21
384.72	2934.74
384.93	2736.09
385.14	2901.97
385.35	3061.71
385.55	2783.19
385.76	3151.82
385.97	2897.88
386.18	2713.56
386.39	2871.25
386.60	2858.96
386.81	2772.95
387.02	2699.22
387.22	2791.38
387.43	3221.45
387.64	2944.98
387.85	3061.71
388.06	3055.57
388.27	3991.49
388.48	7194.51
388.68	10585.95
388.89	13137.72
389.10	14217.00
389.31	13965.10
389.52	11040.60
389.73	9697.13
389.93	8802.17
390.14	7962.50
390.35	7278.48
390.56	6639.51
390.77	5705.64
390.98	4251.58
391.18	3604.42
391.39	3385.29
391.60	3024.85
391.81	3033.04
392.02	2842.58
392.23	3370.96
392.43	3012.56
392.64	2961.36
392.85	2881.49
393.06	3338.19
393.27	2940.88
393.47	2822.10
393.68	2922.45
393.89	2965.46
394.10	3188.69
394.31	2828.24
394.52	2791.38
394.72	2916.31
394.93	3276.75
395.14	2731.99
395.35	2938.84
395.56	2871.25
395.76	2940.88
395.97	2822.10
396.18	3033.04
396.39	3012.56
396.60	3581.90
396.80	3143.63
397.01	3051.47
397.22	3151.82
397.43	3131.34
397.64	2762.71
397.84	2858.96
398.05	3254.22
398.26	3008.47
398.47	2965.46
398.67	3033.04
398.88	3018.71
399.09	3205.07
399.30	2889.68
399.51	2924.50
399.71	2904.02
399.92	2942.93
400.13	2942.93
400.34	2863.06
400.54	3043.28
400.75	3188.69
400.96	3016.66
401.17	3157.97
401.37	3018.71
401.58	2987.99
401.79	2832.34
402.00	2942.93
402.21	3416.01
402.41	3127.25
402.62	3065.81
402.83	3160.02
403.04	3250.13
403.24	3772.36
403.45	2975.70
403.66	3145.68
403.87	3233.74
404.07	3332.05
404.28	3145.68
404.49	3104.72
404.70	3082.19
404.90	3071.95
405.11	2858.96
405.32	2963.41
405.52	2930.64
405.73	2887.64
405.94	2789.33
406.15	2842.58
406.35	3131.34
406.56	3117.01
406.77	2891.73
406.98	2834.39
407.18	2783.19
407.39	3248.08
407.60	2803.67
407.80	2904.02
408.01	2932.69
408.22	3094.48
408.43	2850.77
408.63	2922.45
408.84	3088.34
409.05	3184.59
409.25	2787.29
409.46	2844.63
409.67	2955.22
409.88	2844.63
410.08	2949.08
410.29	2858.96
410.50	3143.63
410.70	3149.78
410.91	2766.81
411.12	2889.68
411.32	2959.31
411.53	2820.05
411.74	2871.25
411.95	2957.27
412.15	2957.27
412.36	3147.73
412.57	2930.64
412.77	3008.47
412.98	3026.90
413.19	2883.54
413.39	2873.30
413.60	2811.86
413.81	3180.50
414.01	2760.66
414.22	2844.63
414.43	3008.47
414.63	2938.84
414.84	3221.45
415.05	2834.39
415.25	2672.60
415.46	3045.33
415.67	2879.44
415.87	2918.36
416.08	2783.19
416.29	2981.84
416.49	3043.28
416.70	2893.78
416.91	2799.57
417.11	3020.75
417.32	3139.54
417.53	2904.02
417.73	2881.49
417.94	2920.40
418.15	3033.04
418.35	2910.16
418.56	2789.33
418.77	3399.63
418.97	2967.51
419.18	2955.22
419.38	2596.82
419.59	3041.23
419.80	3250.13
420.00	2740.18
420.21	2883.54
420.42	3217.36
420.62	3004.37
420.83	2791.38
421.04	2828.24
421.24	2953.17
421.45	3127.25
421.65	2824.15
421.86	2822.10
422.07	3139.54
422.27	3026.90
422.48	2844.63
422.69	2703.32
422.89	2920.40
423.10	2893.78
423.30	2740.18
423.51	2944.98
423.72	3078.10
423.92	3170.26
424.13	2750.42
424.33	2873.30
424.54	3067.86
424.75	2959.31
424.95	3037.14
425.16	2807.77
425.36	2967.51
425.57	3117.01
425.78	2897.88
425.98	2955.22
426.19	2975.70
426.39	2834.39
426.60	2922.45
426.81	3049.43
427.01	3047.38
427.22	2779.09
427.42	2713.56
427.63	2746.33
427.83	3162.06
428.04	3313.61
428.25	2918.36
428.45	2971.60
428.66	3110.86
428.86	2928.60
429.07	2820.05
429.28	2904.02
429.48	2936.79
429.69	2926.55
429.89	2861.01
430.10	2781.14
430.30	3088.34
430.51	3137.49
430.71	2803.67
430.92	2828.24
431.13	2893.78
431.33	3098.58
431.54	2904.02
431.74	3108.82
431.95	3461.07
432.15	2750.42
432.36	2815.96
432.56	2959.31
432.77	3438.54
432.98	3280.85
433.18	2856.92
433.39	2748.37
433.59	2936.79
433.80	3321.81
434.00	3088.34
434.21	2838.48
434.41	2869.20
434.62	3321.81
434.82	2697.17
435.03	2760.66
435.23	3039.19
435.44	2756.57
435.64	2869.20
435.85	2854.87
436.06	3082.19
436.26	3235.79
436.47	2850.77
436.67	2789.33
436.88	2963.41
437.08	3162.06
437.29	3030.99
437.49	2863.06
437.70	3149.78
437.90	3004.37
438.11	3094.48
438.31	3024.85
438.52	3233.74
438.72	3209.17
438.93	3200.98
439.13	2953.17
439.34	3188.69
439.54	2897.88
439.75	2926.55
439.95	2926.55
440.16	2867.16
440.36	2955.22
440.57	2949.08
440.77	2844.63
440.98	2990.03
441.18	3024.85
441.39	2797.53
441.59	2723.80
441.80	3381.20
442.00	3026.90
442.21	3008.47
442.41	2688.98
442.62	3133.39
442.82	2799.57
443.02	2789.33
443.23	2889.68
443.43	2924.50
443.64	3182.54
443.84	2688.98
444.05	2977.75
444.25	3039.19
444.46	2899.92
444.66	2838.48
444.87	3123.15
445.07	2760.66
445.28	2947.03
445.48	3049.43
445.69	2996.18
445.89	3432.40
446.09	2934.74
446.30	3196.88
446.50	3186.64
446.71	4618.17
446.91	5728.17
447.12	6457.25
447.32	6944.66
447.53	6821.78
447.73	5638.06
447.93	4884.41
448.14	4661.18
448.34	4865.97
448.55	4016.07
448.75	3960.77
448.96	3784.65
449.16	3704.78
449.36	3581.90
449.57	3053.52
449.77	2863.06
449.98	2983.89
450.18	3024.85
450.39	2820.05
450.59	2979.79
450.79	2975.70
451.00	2897.88
451.20	3047.38
451.41	2803.67
451.61	3110.86
451.81	2844.63
452.02	2838.48
452.22	2850.77
452.43	2916.31
452.63	2811.86
452.84	2975.70
453.04	2752.47
453.24	3074.00
453.45	2916.31
453.65	2961.36
453.86	2908.12
454.06	3112.91
454.26	2985.94
454.47	2770.90
454.67	3026.90
454.87	3014.61
455.08	2910.16
455.28	3016.66
455.49	3024.85
455.69	2813.91
455.89	3381.20
456.10	2987.99
456.30	2830.29
456.51	3211.22
456.71	3035.09
456.91	2979.79
457.12	2924.50
457.32	3067.86
457.52	2801.62
457.73	3030.99
457.93	2922.45
458.14	2789.33
458.34	2668.50
458.54	2842.58
458.75	2822.10
458.95	3149.78
459.15	3055.57
459.36	2901.97
459.56	2803.67
459.76	3432.40
459.97	3016.66
460.17	2871.25
460.37	3033.04
460.58	3028.95
460.78	3131.34
460.99	2760.66
461.19	2928.60
461.39	2953.17
461.60	3024.85
461.80	2897.88
462.00	2633.69
462.21	2981.84
462.41	2789.33
462.61	2746.33
462.82	2666.46
463.02	3088.34
463.22	3022.80
463.43	3012.56
463.63	2760.66
463.83	3211.22
464.04	3127.25
464.24	2852.82
464.44	2807.77
464.64	3078.10
464.85	3098.58
465.05	2967.51
465.25	2785.24
465.46	2809.81
465.66	3119.06
465.86	2863.06
466.07	2799.57
466.27	2990.03
466.47	2863.06
466.68	2684.89
466.88	2934.74
467.08	3074.00
467.29	3178.45
467.49	2846.68
467.69	2875.35
467.89	3078.10
468.10	2926.55
468.30	2863.06
468.50	3016.66
468.71	3063.76
468.91	2844.63
469.11	3018.71
469.31	2947.03
469.52	2815.96
469.72	3307.47
469.92	3125.20
470.13	2877.40
470.33	3030.99
470.53	3082.19
470.73	3209.17
470.94	3573.71
471.14	3575.75
471.34	4073.41
471.54	3823.56
471.75	3534.79
471.95	3350.48
472.15	3395.53
472.36	3370.96
472.56	3280.85
472.76	3422.16
472.96	3295.18
473.17	3051.47
473.37	2992.08
473.57	2887.64
473.77	3067.86
473.98	2975.70
474.18	2684.89
474.38	3520.46
474.58	2959.31
474.79	2779.09
474.99	2949.08
475.19	3241.93
475.39	2822.10
475.60	2856.92
475.80	2781.14
476.00	3053.52
476.20	2832.34
476.41	2908.12
476.61	2912.21
476.81	3256.27
477.01	2926.55
477.21	3047.38
477.42	2990.03
477.62	2846.68
477.82	3069.91
478.02	2799.57
478.23	2951.12
478.43	2820.05
478.63	2932.69
478.83	2850.77
479.03	2893.78
479.24	3153.87
479.44	3389.39
479.64	2756.57
479.84	2658.26
480.04	2856.92
480.25	3137.49
480.45	2781.14
480.65	2846.68
480.85	3237.84
481.06	2838.48
481.26	2944.98
481.46	2801.62
481.66	3063.76
481.86	2787.29
482.06	2961.36
482.27	2813.91
482.47	2912.21
482.67	3071.95
482.87	2777.05
483.07	2942.93
483.28	2893.78
483.48	2756.57
483.68	2807.77
483.88	2725.85
484.08	2623.45
484.29	2803.67
484.49	2928.60
484.69	2721.75
484.89	3303.37
485.09	3145.68
485.29	2901.97
485.50	2977.75
485.70	2889.68
485.90	3270.61
486.10	2965.46
486.30	2908.12
486.50	3190.74
486.71	3114.96
486.91	3037.14
487.11	2951.12
487.31	2736.09
487.51	3051.47
487.71	2779.09
487.91	2734.04
488.12	2904.02
488.32	2639.83
488.52	2889.68
488.72	2555.86
488.92	3059.67
489.12	3149.78
489.32	3033.04
489.53	2930.64
489.73	2748.37
489.93	3262.41
490.13	2781.14
490.33	2713.56
490.53	3041.23
490.73	3145.68
490.94	2721.75
491.14	3012.56
491.34	3030.99
491.54	3143.63
491.74	3696.58
491.94	4155.33
492.14	4657.08
492.34	4739.00
492.54	4333.50
492.75	3753.93
492.95	3911.62
493.15	3641.29
493.35	3577.80
493.55	3385.29
493.75	3303.37
493.95	3555.27
494.15	3080.14
494.35	2906.07
494.56	2953.17
494.76	2869.20
494.96	2951.12
495.16	2858.96
495.36	3020.75
495.56	3006.42
495.76	2863.06
495.96	2885.59
496.16	2881.49
496.36	3325.90
496.56	2785.24
496.77	2912.21
496.97	3024.85
497.17	3151.82
497.37	2697.17
497.57	3008.47
497.77	2951.12
497.97	2820.05
498.17	2906.07
498.37	2809.81
498.57	3131.34
498.77	2942.93
498.97	3018.71
499.17	3166.16
499.38	3000.27
499.58	3100.62
499.78	3028.95
499.98	3006.42
500.18	2873.30
500.38	2772.95
500.58	3039.19
500.78	3368.91
500.98	5435.31
501.18	7229.33
501.38	8783.74
501.58	9611.12
501.78	9457.52
501.98	7991.17
502.18	6756.25
502.38	5740.46
502.58	5492.65
502.78	5081.01
502.98	4782.01
503.18	4556.73
503.38	4239.30
503.59	3784.65
503.79	3674.06
503.99	3377.10
504.19	3368.91
504.39	3420.11
504.59	3299.28
504.79	3215.31
504.99	3373.00
505.19	3203.02
505.39	2953.17
505.59	3221.45
505.79	3381.20
505.99	3209.17
506.19	2856.92
506.39	3131.34
506.59	2893.78
506.79	2893.78
506.99	3039.19
507.19	2770.90
507.39	2875.35
507.59	2828.24
507.79	2756.57
507.99	2797.53
508.19	2994.13
508.39	2910.16
508.59	2856.92
508.79	2924.50
508.99	3381.20
509.19	2830.29
509.39	3022.80
509.59	2809.81
509.79	2879.44
509.99	3069.91
510.19	3006.42
510.39	2914.26
510.59	2975.70
510.79	2836.44
510.99	2684.89
511.19	2811.86
511.39	3246.03
511.59	3127.25
511.79	2961.36
511.99	2889.68
512.19	3284.94
512.38	3012.56
512.58	2799.57
512.78	2803.67
512.98	3221.45
513.18	3260.37
513.38	2639.83
513.58	2897.88
513.78	3020.75
513.98	2944.98
514.18	2863.06
514.38	2865.11
514.58	2934.74
514.78	2836.44
514.98	2805.72
515.18	2910.16
515.38	2815.96
515.58	3272.65
515.78	2844.63
515.98	2869.20
516.18	3110.86
516.38	2961.36
516.57	2756.57
516.77	2832.34
516.97	3088.34
517.17	2918.36
517.37	2664.41
517.57	2914.26
517.77	2977.75
517.97	2885.59
518.17	2869.20
518.37	2781.14
518.57	2824.15
518.77	2910.16
518.97	2944.98
519.16	2883.54
519.36	3149.78
519.56	2871.25
519.76	2783.19
519.96	2897.88
520.16	3227.60
520.36	2904.02
520.56	2969.55
520.76	2811.86
520.96	2926.55
521.16	3194.83
521.35	2971.60
521.55	2973.65
521.75	3026.90
521.95	2926.55
522.15	2852.82
522.35	2678.74
522.55	2828.24
522.75	3049.43
522.95	2725.85
523.14	2805.72
523.34	3057.62
523.54	2940.88
523.74	2949.08
523.94	2910.16
524.14	2762.71
524.34	2983.89
524.54	3076.05
524.73	2918.36
524.93	3104.72
525.13	2930.64
525.33	2787.29
525.53	3125.20
525.73	3137.49
525.93	2953.17
526.13	2795.48
526.32	2805.72
526.52	3164.11
526.72	3190.74
526.92	2824.15
527.12	2783.19
527.32	2727.89
527.52	3053.52
527.71	2926.55
527.91	2822.10
528.11	2928.60
528.31	2934.74
528.51	2777.05
528.71	3012.56
528.90	3030.99
529.10	3256.27
529.30	2895.83
529.50	2643.93
529.70	3024.85
529.90	3018.71
530.09	2906.07
530.29	2693.08
530.49	2897.88
530.69	3444.68
530.89	2928.60
531.09	3006.42
531.28	2863.06
531.48	3135.44
531.68	2875.35
531.88	2826.20
532.08	3063.76
532.28	2953.17
532.47	2944.98
532.67	2947.03
532.87	3028.95
533.07	2801.62
533.27	2932.69
533.46	2861.01
533.66	3088.34
533.86	2899.92
534.06	2899.92
534.26	2815.96
534.45	2967.51
534.65	3213.26
534.85	2920.40
535.05	2809.81
535.25	3135.44
535.44	2713.56
535.64	2869.20
535.84	2918.36
536.04	2957.27
536.24	2910.16
536.43	2779.09
536.63	2957.27
536.83	3026.90
537.03	2977.75
537.22	2725.85
537.42	2596.82
537.62	2944.98
537.82	2865.11
538.02	3063.76
538.21	2949.08
538.41	3467.21
538.61	3100.62
538.81	2875.35
539.00	2944.98
539.20	2748.37
539.40	2897.88
539.60	2760.66
539.79	3020.75
539.99	3039.19
540.19	2797.53
540.39	2865.11
540.58	2967.51
540.78	3168.21
540.98	2967.51
541.18	3016.66
541.37	2944.98
541.57	3092.43
541.77	2983.89
541.97	2707.41
542.16	2717.65
542.36	2975.70
542.56	2869.20
542.76	3061.71
542.95	3057.62
543.15	2965.46
543.35	3133.39
543.54	2824.15
543.74	2762.71
543.94	3254.22
544.14	2844.63
544.33	2992.08
544.53	2863.06
544.73	2826.20
544.93	2889.68
545.12	2865.11
545.32	2822.10
545.52	2938.84
545.71	2797.53
545.91	2895.83
546.11	2807.77
546.30	2885.59
546.50	2932.69
546.70	2936.79
546.90	2930.64
547.09	2723.80
547.29	2983.89
547.49	2985.94
547.68	2881.49
547.88	2828.24
548.08	3014.61
548.27	3164.11
548.47	2926.55
548.67	2924.50
548.87	3106.77
549.06	2897.88
549.26	2811.86
549.46	3065.81
549.65	2936.79
549.85	2926.55
550.05	2944.98
550.24	2772.95
550.44	2953.17
550.64	2994.13
550.83	2973.65
551.03	3293.13
551.23	3137.49
551.42	2887.64
551.62	2881.49
551.82	2947.03
552.01	2977.75
552.21	3096.53
552.41	2838.48
552.60	3284.94
552.80	3000.27
553.00	2852.82
553.19	2854.87
553.39	3291.09
553.59	2824.15
553.78	2947.03
553.98	2799.57
554.17	2803.67
554.37	3117.01
554.57	2975.70
554.76	2744.28
554.96	2893.78
555.16	2992.08
555.35	2963.41
555.55	2975.70
555.75	2994.13
555.94	3139.54
556.14	2719.70
556.33	2959.31
556.53	3000.27
556.73	3033.04
556.92	2908.12
557.12	2807.77
557.32	3360.72
557.51	3248.08
557.71	2908.12
557.90	3037.14
558.10	3250.13
558.30	2910.16
558.49	2820.05
558.69	2848.72
558.88	3033.04
559.08	3045.33
559.28	2926.55
559.47	2949.08
559.67	3076.05
559.86	3370.96
560.06	2916.31
560.26	2867.16
560.45	3041.23
560.65	2916.31
560.84	3082.19
561.04	2797.53
561.24	3125.20
561.43	2766.81
561.63	3051.47
561.82	2994.13
562.02	2990.03
562.22	2805.72
562.41	2777.05
562.61	2795.48
562.80	2871.25
563.00	3471.31
563.19	2904.02
563.39	2877.40
563.59	3135.44
563.78	2768.85
563.98	2594.78
564.17	2848.72
564.37	2727.89
564.56	2928.60
564.76	2744.28
564.96	2908.12
565.15	3035.09
565.35	3397.58
565.54	2863.06
565.74	2947.03
565.93	3153.87
566.13	2994.13
566.32	2951.12
566.52	2926.55
566.71	2987.99
566.91	3192.78
567.11	2897.88
567.30	2748.37
567.50	3030.99
567.69	3022.80
567.89	2787.29
568.08	2760.66
568.28	2899.92
568.47	2797.53
568.67	2924.50
568.86	2840.53
569.06	3170.26
569.25	2897.88
569.45	2713.56
569.64	2932.69
569.84	2959.31
570.04	2987.99
570.23	2940.88
570.43	2811.86
570.62	3020.75
570.82	3366.86
571.01	2744.28
571.21	2865.11
571.40	2834.39
571.60	3209.17
571.79	2807.77
571.99	2893.78
572.18	2818.00
572.38	2990.03
572.57	2877.40
572.77	3033.04
572.96	3416.01
573.16	3022.80
573.35	2867.16
573.55	3041.23
573.74	3014.61
573.94	2918.36
574.13	2861.01
574.33	3014.61
574.52	3215.31
574.71	3018.71
574.91	2944.98
575.10	2734.04
575.30	2889.68
575.49	2811.86
575.69	2861.01
575.88	2852.82
576.08	2865.11
576.27	3180.50
576.47	2805.72
576.66	2975.70
576.86	3293.13
577.05	3088.34
577.25	2912.21
577.44	3041.23
577.64	2871.25
577.83	3145.68
578.02	2832.34
578.22	3006.42
578.41	3291.09
578.61	2990.03
578.80	2715.61
579.00	2887.64
579.19	2981.84
579.39	3100.62
579.58	2992.08
579.77	2813.91
579.97	3227.60
580.16	3225.55
580.36	2944.98
580.55	2975.70
580.75	3024.85
580.94	2987.99
581.13	2992.08
581.33	3137.49
581.52	2887.64
581.72	3321.81
581.91	3051.47
582.11	2803.67
582.30	3139.54
582.49	3053.52
582.69	3084.24
582.88	2910.16
583.08	3053.52
583.27	3133.39
583.47	3012.56
583.66	2824.15
583.85	2818.00
584.05	2920.40
584.24	2992.08
584.44	2924.50
584.63	3231.69
584.82	3100.62
585.02	3110.86
585.21	2959.31
585.41	2987.99
585.60	3033.04
585.79	3143.63
585.99	3166.16
586.18	3033.04
586.37	3864.52
586.57	5732.26
586.76	16606.98
586.96	35681.76
587.15	48135.46
587.34	56501.41
587.54	60513.38
587.73	53804.24
587.93	38299.06
588.12	29126.21
588.31	23811.73
588.51	21145.28
588.70	19474.13
588.89	17139.45
589.09	14585.63
589.28	12390.21
589.47	9869.16
589.67	7395.22
589.86	5885.86
590.06	4665.27
590.25	4089.79
590.44	3481.55
590.64	3295.18
590.83	3266.51
591.02	3176.40
591.22	2873.30
591.41	2811.86
591.60	2959.31
591.80	3370.96
591.99	2742.23
592.18	2883.54
592.38	3209.17
592.57	2926.55
592.76	2920.40
592.96	2975.70
593.15	2936.79
593.34	3127.25
593.54	2836.44
593.73	2924.50
593.92	3047.38
594.12	2979.79
594.31	2977.75
594.50	3071.95
594.70	3121.10
594.89	3442.64
595.08	2705.37
595.28	2983.89
595.47	3581.90
595.66	3172.30
595.86	2787.29
596.05	2783.19
596.24	2887.64
596.43	3282.89
596.63	3028.95
596.82	2967.51
597.01	3028.95
597.21	3338.19
597.40	2779.09
597.59	2963.41
597.79	2975.70
597.98	3065.81
598.17	2975.70
598.36	2916.31
598.56	3090.38
598.75	2887.64
598.94	2959.31
599.14	2924.50
599.33	2979.79
599.52	3108.82
599.71	3028.95
599.91	2910.16
600.10	3053.52
600.29	3024.85
600.48	2861.01
600.68	2985.94
600.87	3020.75
601.06	2877.40
601.26	2922.45
601.45	3010.51
601.64	2934.74
601.83	3215.31
602.03	2809.81
602.22	2760.66
602.41	3182.54
602.60	3426.25
602.80	2912.21
602.99	2951.12
603.18	2934.74
603.37	3028.95
603.57	2869.20
603.76	2928.60
603.95	3153.87
604.14	2947.03
604.34	2797.53
604.53	2838.48
604.72	2987.99
604.91	3061.71
605.10	2801.62
605.30	2705.37
605.49	3366.86
605.68	3172.30
605.87	2912.21
606.07	2883.54
606.26	3014.61
606.45	3037.14
606.64	2846.68
606.84	2785.24
607.03	2949.08
607.22	3137.49
607.41	2805.72
607.60	2863.06
607.80	3092.43
607.99	3002.32
608.18	2897.88
608.37	2908.12
608.56	2881.49
608.76	3192.78
608.95	3033.04
609.14	2893.78
609.33	3129.30
609.52	3182.54
609.72	2926.55
609.91	3026.90
610.10	3037.14
610.29	3225.55
610.48	2875.35
610.68	3035.09
610.87	2883.54
611.06	3121.10
611.25	2912.21
611.44	3024.85
611.63	2922.45
611.83	3223.50
612.02	2785.24
612.21	3043.28
612.40	2738.13
612.59	2750.42
612.79	2807.77
612.98	2934.74
613.17	3348.43
613.36	3002.32
613.55	2957.27
613.74	2865.11
613.93	2981.84
614.13	3098.58
614.32	2985.94
614.51	2920.40
614.70	3020.75
614.89	2916.31
615.08	2971.60
615.28	3319.76
615.47	2813.91
615.66	2975.70
615.85	2953.17
616.04	2947.03
616.23	2987.99
616.42	2953.17
616.62	2975.70
616.81	2877.40
617.00	2938.84
617.19	3010.51
617.38	2836.44
617.57	2904.02
617.76	3065.81
617.95	3131.34
618.15	2918.36
618.34	3117.01
618.53	2795.48
618.72	3139.54
618.91	3035.09
619.10	2928.60
619.29	2944.98
619.48	2930.64
619.68	2777.05
619.87	2877.40
620.06	2785.24
620.25	3076.05
620.44	2799.57
620.63	2795.48
620.82	3092.43
621.01	2996.18
621.20	2881.49
621.39	2977.75
621.59	3090.38
621.78	3020.75
621.97	2818.00
622.16	2987.99
622.35	3067.86
622.54	3198.93
622.73	2928.60
622.92	2680.79
623.11	3110.86
623.30	2893.78
623.49	2987.99
623.68	2785.24
623.88	3237.84
624.07	2910.16
624.26	2805.72
624.45	2830.29
624.64	3030.99
624.83	2955.22
625.02	2879.44
625.21	2883.54
625.40	3090.38
625.59	3219.41
625.78	2897.88
625.97	3080.14
626.16	3104.72
626.35	3096.53
626.54	2887.64
626.74	3039.19
626.93	2869.20
627.12	2992.08
627.31	3012.56
627.50	2844.63
627.69	3143.63
627.88	2805.72
628.07	2783.19
628.26	2668.50
628.45	2836.44
628.64	2729.94
628.83	2906.07
629.02	2717.65
629.21	3071.95
629.40	3000.27
629.59	2758.61
629.78	2791.38
629.97	2975.70
630.16	2977.75
630.35	2811.86
630.54	2973.65
630.73	2920.40
630.92	2904.02
631.11	2840.53
631.30	2924.50
631.49	3145.68
631.68	2996.18
631.87	2873.30
632.06	2709.46
632.25	3475.40
632.44	2969.55
632.63	2901.97
632.82	2805.72
633.01	2858.96
633.20	3041.23
633.39	2852.82
633.58	2605.02
633.77	3010.51
633.96	3086.29
634.15	2934.74
634.34	3010.51
634.53	3078.10
634.72	2850.77
634.91	2713.56
635.10	2934.74
635.29	3114.96
635.48	3049.43
635.67	2725.85
635.86	2680.79
636.05	3254.22
636.24	3006.42
636.43	2801.62
636.62	2967.51
636.81	2582.49
637.00	2963.41
637.19	2830.29
637.38	2858.96
637.57	2879.44
637.76	2899.92
637.95	2985.94
638.14	2846.68
638.33	3059.67
638.52	3008.47
638.71	2731.99
638.89	2715.61
639.08	3438.54
639.27	3090.38
639.46	3022.80
639.65	3397.58
639.84	3426.25
640.03	3534.79
640.22	3192.78
640.41	3289.04
640.60	3039.19
640.79	3151.82
640.98	3000.27
641.17	3057.62
641.36	3153.87
641.55	3106.77
641.74	2717.65
641.92	2807.77
642.11	2805.72
642.30	2881.49
642.49	2818.00
642.68	2824.15
642.87	3063.76
643.06	3057.62
643.25	2746.33
643.44	2834.39
643.63	2901.97
643.82	3243.98
644.00	2785.24
644.19	2897.88
644.38	2815.96
644.57	3037.14
644.76	2906.07
644.95	2934.74
645.14	2975.70
645.33	2822.10
645.52	2906.07
645.71	2762.71
645.89	2789.33
646.08	2934.74
646.27	2926.55
646.46	3149.78
646.65	2746.33
646.84	3002.32
647.03	2805.72
647.22	2971.60
647.40	2983.89
647.59	2932.69
647.78	2684.89
647.97	2867.16
648.16	2758.61
648.35	3229.65
648.54	3098.58
648.73	2818.00
648.91	3143.63
649.10	3012.56
649.29	2848.72
649.48	2820.05
649.67	3045.33
649.86	3043.28
650.05	2801.62
650.23	3028.95
650.42	2854.87
650.61	3295.18
650.80	3026.90
650.99	3125.20
651.18	3160.02
651.36	3200.98
651.55	2830.29
651.74	3039.19
651.93	2994.13
652.12	2875.35
652.31	2885.59
652.49	2910.16
652.68	2920.40
652.87	3252.17
653.06	3006.42
653.25	3190.74
653.44	3008.47
653.62	3262.41
653.81	2865.11
654.00	2830.29
654.19	3168.21
654.38	3454.92
654.56	2891.73
654.75	2797.53
654.94	3164.11
655.13	3035.09
655.32	2865.11
655.51	2865.11
655.69	2926.55
655.88	3123.15
656.07	2703.32
656.26	2932.69
656.45	2815.96
656.63	3043.28
656.82	2916.31
657.01	3082.19
657.20	2897.88
657.38	3221.45
657.57	2877.40
657.76	2639.83
657.95	3166.16
658.14	2959.31
658.32	2949.08
658.51	2719.70
658.70	3033.04
658.89	2994.13
659.08	2932.69
659.26	3131.34
659.45	2818.00
659.64	3162.06
659.83	2869.20
660.01	3213.26
660.20	2985.94
660.39	3198.93
660.58	2590.68
660.76	3020.75
660.95	2762.71
661.14	2922.45
661.33	2760.66
661.51	2871.25
661.70	2873.30
661.89	3041.23
662.08	2871.25
662.26	2668.50
662.45	2803.67
662.64	3332.05
662.83	2916.31
663.01	2785.24
663.20	2904.02
663.39	3239.89
663.58	2844.63
663.76	2844.63
663.95	3172.30
664.14	2869.20
664.32	2901.97
664.51	2750.42
664.70	2725.85
664.89	3012.56
665.07	2703.32
665.26	2979.79
665.45	2813.91
665.64	3127.25
665.82	2818.00
666.01	2959.31
666.20	2709.46
666.38	3098.58
666.57	3067.86
666.76	4849.59
666.95	10860.38
667.13	17620.72
667.32	21345.98
667.51	23815.83
667.69	24772.23
667.88	20868.80
668.07	14937.88
668.25	12732.22
668.44	11153.24
668.63	9586.54
668.81	8683.39
669.00	7282.58
669.19	6756.25
669.38	5834.66
669.56	5146.55
669.75	4417.47
669.94	3907.52
670.12	3401.68
670.31	3180.50
670.50	3123.15
670.68	3114.96
670.87	3051.47
671.06	2799.57
671.24	2930.64
671.43	3295.18
671.62	3022.80
671.80	2752.47
671.99	3024.85
672.18	2987.99
672.36	3174.35
672.55	3069.91
672.74	2850.77
672.92	2893.78
673.11	3033.04
673.29	2703.32
673.48	3012.56
673.67	2957.27
673.85	3098.58
674.04	2770.90
674.23	2877.40
674.41	3348.43
674.60	2758.61
674.79	2666.46
674.97	2779.09
675.16	3139.54
675.34	3063.76
675.53	2736.09
675.72	2887.64
675.90	3278.80
676.09	2906.07
676.28	2975.70
676.46	2707.41
676.65	3123.15
676.83	2781.14
677.02	2856.92
677.21	2979.79
677.39	3092.43
677.58	2815.96
677.77	2834.39
677.95	2779.09
678.14	2961.36
678.32	2910.16
678.51	2861.01
678.70	3121.10
678.88	2942.93
679.07	3012.56
679.25	2836.44
679.44	2865.11
679.63	2754.52
679.81	3035.09
680.00	3104.72
680.18	2908.12
680.37	3264.46
680.55	3090.38
680.74	2672.60
680.93	2637.78
681.11	3000.27
681.30	3030.99
681.48	2844.63
681.67	2942.93
681.85	3043.28
682.04	2795.48
682.23	3024.85
682.41	2881.49
682.60	2852.82
682.78	2846.68
682.97	2762.71
683.15	2998.23
683.34	3006.42
683.53	3248.08
683.71	2723.80
683.90	2994.13
684.08	3272.65
684.27	2846.68
684.45	2947.03
684.64	2895.83
684.82	2957.27
685.01	3129.30
685.19	2867.16
685.38	3090.38
685.57	2975.70
685.75	2877.40
685.94	2822.10
686.12	2742.23
686.31	2908.12
686.49	3235.79
686.68	2707.41
686.86	2912.21
687.05	2895.83
687.23	3319.76
687.42	2820.05
687.60	2729.94
687.79	3188.69
687.97	3239.89
688.16	3000.27
688.34	3065.81
688.53	2697.17
688.71	3074.00
688.90	3139.54
689.08	2885.59
689.27	2678.74
689.45	3043.28
689.64	3071.95
689.82	2910.16
690.01	3059.67
690.19	3047.38
690.38	2942.93
690.56	2987.99
690.75	2758.61
690.93	2875.35
691.12	2760.66
691.30	2930.64
691.49	2889.68
691.67	2967.51
691.86	3194.83
692.04	2832.34
692.23	2895.83
692.41	2985.94
692.60	3194.83
692.78	3006.42
692.97	2992.08
693.15	3102.67
693.34	3184.59
693.52	3098.58
693.71	2895.83
693.89	2869.20
694.08	2756.57
694.26	3018.71
694.44	3063.76
694.63	3057.62
694.81	2713.56
695.00	2801.62
695.18	3117.01
695.37	3426.25
695.55	2914.26
695.74	2846.68
695.92	2959.31
696.10	3196.88
696.29	2768.85
696.47	2871.25
696.66	2891.73
696.84	2844.63
697.03	2901.97
697.21	3135.44
697.40	4433.85
697.58	3225.55
697.76	2877.40
697.95	2865.11
698.13	2811.86
698.32	2861.01
698.50	2899.92
698.68	2924.50
698.87	3106.77
699.05	3233.74
699.24	2906.07
699.42	2682.84
699.61	3053.52
699.79	2959.31
699.97	2832.34
700.16	2729.94
700.34	2791.38
700.53	3006.42
700.71	3092.43
700.89	2861.01
701.08	2910.16
701.26	2996.18
701.45	3272.65
701.63	2797.53
701.81	2916.31
702.00	2813.91
702.18	2940.88
702.37	2840.53
702.55	3160.02
702.73	3006.42
702.92	2834.39
703.10	3192.78
703.28	3155.92
703.47	2830.29
703.65	3094.48
703.84	3059.67
704.02	2848.72
704.20	3274.70
704.39	2766.81
704.57	2908.12
704.75	3106.77
704.94	3104.72
705.12	3014.61
705.30	3393.48
705.49	6559.64
705.67	12869.44
705.86	18079.47
706.04	20377.29
706.22	22462.12
706.41	21929.65
706.59	16760.58
706.77	13059.90
706.96	11304.79
707.14	10202.98
707.32	8859.51
707.51	7966.60
707.69	6633.37
707.87	5384.11
708.06	4491.20
708.24	4018.11
708.42	3618.76
708.61	3735.50
708.79	2891.73
708.97	2932.69
709.16	3151.82
709.34	3033.04
709.52	2924.50
709.71	2877.40
709.89	3065.81
710.07	2854.87
710.26	2809.81
710.44	2918.36
710.62	3117.01
710.80	2996.18
710.99	2973.65
711.17	2969.55
711.35	2826.20
711.54	2908.12
711.72	3020.75
711.90	2912.21
712.09	3055.57
712.27	2815.96
712.45	3033.04
712.63	2891.73
712.82	3084.24
713.00	2975.70
713.18	3012.56
713.37	3010.51
713.55	3104.72
713.73	3051.47
713.91	2918.36
714.10	2807.77
714.28	3016.66
714.46	2934.74
714.65	2949.08
714.83	2924.50
715.01	3010.51
715.19	2957.27
715.38	2861.01
715.56	3018.71
715.74	2889.68
715.92	2879.44
716.11	3043.28
716.29	2598.87
716.47	2983.89
716.65	2934.74
716.84	2734.04
717.02	2971.60
717.20	2764.76
717.38	2887.64
717.57	2990.03
717.75	2942.93
717.93	2895.83
718.11	3100.62
718.30	2678.74
718.48	2846.68
718.66	3209.17
718.84	3141.58
719.03	2885.59
719.21	2754.52
719.39	3325.90
719.57	3071.95
719.75	2922.45
719.94	2760.66
720.12	3004.37
720.30	3059.67
720.48	2918.36
720.67	2809.81
720.85	2797.53
721.03	2893.78
721.21	2777.05
721.39	3006.42
721.58	3037.14
721.76	2977.75
721.94	2861.01
722.12	2992.08
722.30	3192.78
722.49	2869.20
722.67	2912.21
722.85	2928.60
723.03	2729.94
723.21	2959.31
723.40	2875.35
723.58	3074.00
723.76	3110.86
723.94	3090.38
724.12	2932.69
724.30	3088.34
724.49	3157.97
724.67	2820.05
724.85	3022.80
725.03	2779.09
725.21	3102.67
725.40	3090.38
725.58	2820.05
725.76	3049.43
725.94	3057.62
726.12	2758.61
726.30	2953.17
726.49	2854.87
726.67	2918.36
726.85	3076.05
727.03	3373.00
727.21	4440.00
727.39	5294.00
727.57	5703.59
727.76	6184.87
727.94	6225.82
728.12	5674.92
728.30	4734.90
728.48	4302.78
728.66	4085.70
728.84	3977.16
729.03	3516.36
729.21	3448.78
729.39	3268.56
729.57	3063.76
729.75	3010.51
729.93	2983.89
730.11	2803.67
730.30	2961.36
730.48	2944.98
730.66	2904.02
730.84	2938.84
731.02	2926.55
731.20	2904.02
731.38	2961.36
731.56	2736.09
731.74	2754.52
731.93	3016.66
732.11	2912.21
732.29	2861.01
732.47	3063.76
732.65	3014.61
732.83	3067.86
733.01	2953.17
733.19	2809.81
733.37	3059.67
733.56	2871.25
733.74	2721.75
733.92	3145.68
734.10	3002.32
734.28	2961.36
734.46	2602.97
734.64	2881.49
734.82	2895.83
735.00	2805.72
735.18	2910.16
735.36	2973.65
735.54	2877.40
735.73	2822.10
735.91	2942.93
736.09	3184.59
736.27	3010.51
736.45	2928.60
736.63	2674.65
736.81	2906.07
736.99	3084.24
737.17	3004.37
737.35	2777.05
737.53	3039.19
737.71	2955.22
737.89	3051.47
738.07	2895.83
738.25	2856.92
738.43	2705.37
738.61	2848.72
738.80	2793.43
738.98	2865.11
739.16	2877.40
739.34	2793.43
739.52	3092.43
739.70	2944.98
739.88	3117.01
740.06	3004.37
740.24	2650.07
740.42	3207.12
740.60	2734.04
740.78	2867.16
740.96	2617.30
741.14	2924.50
741.32	3008.47
741.50	2756.57
741.68	3127.25
741.86	3246.03
742.04	2826.20
742.22	2680.79
742.40	2873.30
742.58	3198.93
742.76	2908.12
742.94	3024.85
743.12	2701.27
743.30	2998.23
743.48	3074.00
743.66	2799.57
743.84	2912.21
744.02	3045.33
744.20	2928.60
744.38	2781.14
744.56	2795.48
744.74	3399.63
744.92	3074.00
745.10	3098.58
745.28	2961.36
745.46	3272.65
745.64	2967.51
745.82	2996.18
746.00	2863.06
746.18	3065.81
746.36	2809.81
746.54	2895.83
746.72	2838.48
746.90	2818.00
747.08	3153.87
747.26	2836.44
747.44	3000.27
747.62	3006.42
747.80	3033.04
747.98	2949.08
748.15	2869.20
748.33	3172.30
748.51	2990.03
748.69	3002.32
748.87	2822.10
749.05	2926.55
749.23	3010.51
749.41	2811.86
749.59	2850.77
749.77	3203.02
749.95	2967.51
750.13	2750.42
750.31	2996.18
750.49	2949.08
750.67	3098.58
750.85	2971.60
751.03	2930.64
751.20	3291.09
751.38	2936.79
751.56	2852.82
751.74	2891.73
751.92	2992.08
752.10	2815.96
752.28	3022.80
752.46	2805.72
752.64	3006.42
752.82	2992.08
753.00	2955.22
753.18	2791.38
753.35	2932.69
753.53	3080.14
753.71	2846.68
753.89	2918.36
754.07	3114.96
754.25	3157.97
754.43	2949.08
754.61	2770.90
754.79	3182.54
754.97	2930.64
755.14	3018.71
755.32	2725.85
755.50	3041.23
755.68	3012.56
755.86	2805.72
756.04	2797.53
756.22	2746.33
756.40	3162.06
756.57	3084.24
756.75	2758.61
756.93	3213.26
757.11	3149.78
757.29	2803.67
757.47	2793.43
757.65	2721.75
757.82	2594.78
758.00	2674.65
758.18	2783.19
758.36	2877.40
758.54	3307.47
758.72	2699.22
758.90	2949.08
759.07	3037.14
759.25	2809.81
759.43	2891.73
759.61	2754.52
759.79	4251.58
759.97	3225.55
760.15	2801.62
760.32	2922.45
760.50	2996.18
760.68	3248.08
760.86	2713.56
761.04	3178.45
761.22	3094.48
761.39	3033.04
761.57	2975.70
761.75	2877.40
761.93	3078.10
762.11	2918.36
762.28	2873.30
762.46	2721.75
762.64	3139.54
762.82	2731.99
763.00	2869.20
763.18	3020.75
763.35	2834.39
763.53	3022.80
763.71	2908.12
763.89	2793.43
764.07	2975.70
764.24	2969.55
764.42	2932.69
764.60	2861.01
764.78	3086.29
764.96	3141.58
765.13	3010.51
765.31	2760.66
765.49	3147.73
765.67	2838.48
765.84	2815.96
766.02	2797.53
766.20	2731.99
766.38	2992.08
766.56	2926.55
766.73	2983.89
766.91	3059.67
767.09	3037.14
767.27	2887.64
767.44	2680.79
767.62	3094.48
767.80	3037.14
767.98	2701.27
768.15	2820.05
768.33	3153.87
768.51	3176.40
768.69	3039.19
768.87	2854.87
769.04	3053.52
769.22	3422.16
769.40	3063.76
769.58	3059.67
769.75	3024.85
769.93	3239.89
770.11	2848.72
770.28	2787.29
770.46	3069.91
770.64	3106.77
770.82	2856.92
770.99	2791.38
771.17	3090.38
771.35	2949.08
771.53	2949.08
771.70	2844.63
771.88	3061.71
772.06	3000.27
772.23	2901.97
772.41	2922.45
772.59	2938.84
772.77	2850.77
772.94	2838.48
773.12	2967.51
773.30	2942.93
773.47	3006.42
773.65	2795.48
773.83	3065.81
774.01	2942.93
774.18	2740.18
774.36	2820.05
774.54	2805.72
774.71	3084.24
774.89	2658.26
775.07	2734.04
775.24	2822.10
775.42	2928.60
775.60	3262.41
775.78	2830.29
775.95	2697.17
776.13	2691.03
776.31	2695.13
776.48	2914.26
776.66	3082.19
776.84	2852.82
777.01	2824.15
777.19	2727.89
777.37	2779.09
777.54	3065.81
777.72	3342.28
777.90	3028.95
778.07	2832.34
778.25	3553.23
778.43	3108.82
778.60	2801.62
778.78	2930.64
778.96	3274.70
779.13	2793.43
779.31	3024.85
779.49	2865.11
779.66	3071.95
779.84	2893.78
780.01	2764.76
780.19	2797.53
780.37	3209.17
780.54	3074.00
780.72	2809.81
780.90	2838.48
781.07	2940.88
781.25	2891.73
781.43	3071.95
781.60	2785.24
781.78	3239.89
781.95	3018.71
782.13	2815.96
782.31	2785.24
782.48	2631.64
782.66	2979.79
782.83	3086.29
783.01	2975.70
783.19	3104.72
783.36	2959.31
783.54	2801.62
783.72	2983.89
783.89	2891.73
784.07	2985.94
784.24	3008.47
784.42	3004.37
784.60	3043.28
784.77	3049.43
784.95	2557.91
785.12	2881.49
785.30	3028.95
785.47	2742.23
785.65	2803.67
785.83	2932.69
786.00	2856.92
786.18	2951.12
786.35	2684.89
786.53	2891.73
786.71	3166.16
786.88	3067.86
787.06	2955.22
787.23	2887.64
787.41	2830.29
787.58	2981.84
787.76	2805.72
787.94	2910.16
788.11	3012.56
788.29	2770.90
788.46	2871.25
788.64	2713.56
788.81	2838.48
788.99	2777.05
789.16	2803.67
789.34	2901.97
789.52	2889.68
789.69	2867.16
789.87	2748.37
790.04	2885.59
790.22	3004.37
790.39	3401.68
790.57	2803.67
790.74	2727.89
790.92	3117.01
791.09	2738.13
791.27	2967.51
791.44	2992.08
791.62	2928.60
791.79	3205.07
791.97	2897.88
792.15	3190.74
792.32	3096.53
792.50	3149.78
792.67	3074.00
792.85	3172.30
793.02	2932.69
793.20	2944.98
793.37	2744.28
793.55	2848.72
793.72	2809.81
793.90	3131.34
794.07	2775.00
794.25	2723.80
794.42	2953.17
794.60	2942.93
794.77	2899.92
794.95	3069.91
795.12	3170.26
795.30	2938.84
795.47	2623.45
795.65	3149.78
795.82	2977.75
796.00	2762.71
796.17	2875.35
796.34	2787.29
796.52	3092.43
796.69	3139.54
796.87	2918.36
797.04	2924.50
797.22	3076.05
797.39	3047.38
797.57	2887.64
797.74	2891.73
797.92	3014.61
798.09	2957.27
798.27	3092.43
798.44	2781.14
798.62	2865.11
798.79	2996.18
798.96	3030.99
799.14	2854.87
799.31	3297.23
799.49	3020.75
799.66	2826.20
799.84	2953.17
800.01	2715.61
800.19	3061.71
800.36	2656.22
800.53	2930.64
800.71	3092.43
800.88	3319.76
801.06	2809.81
801.23	2807.77
801.41	2926.55
801.58	2861.01
801.75	2785.24
801.93	2848.72
802.10	3090.38
802.28	2951.12
802.45	2828.24
802.63	3000.27
802.80	3258.32
802.97	2879.44
803.15	2889.68
803.32	2822.10
803.50	2813.91
803.67	2842.58
803.84	2750.42
804.02	2973.65
804.19	2885.59
804.37	2650.07
804.54	2715.61
804.71	2750.42
804.89	2969.55
805.06	2834.39
805.24	2758.61
805.41	2682.84
805.58	2818.00
805.76	3344.33
805.93	2848.72
806.10	3030.99
806.28	3071.95
806.45	3035.09
806.63	3000.27
806.80	2963.41
806.97	3037.14
807.15	2996.18
807.32	2932.69
807.49	2910.16
807.67	2725.85
807.84	3059.67
808.01	2654.17
808.19	3088.34
808.36	3375.05
808.54	2992.08
808.71	2781.14
808.88	2852.82
809.06	3217.36
809.23	3260.37
809.40	2832.34
809.58	2926.55
809.75	2969.55
809.92	2787.29
810.10	3170.26
810.27	2914.26
810.44	3006.42
810.62	3039.19
810.79	2883.54
810.96	2820.05
811.14	2895.83
811.31	3045.33
811.48	2996.18
811.66	2938.84
811.83	3205.07
812.00	3059.67
812.18	2967.51
812.35	3114.96
812.52	2924.50
812.69	2922.45
812.87	2820.05
813.04	2846.68
813.21	2967.51
813.39	2877.40
813.56	2809.81
813.73	3139.54
813.91	2670.55
814.08	2922.45
814.25	2877.40
814.42	2707.41
814.60	2854.87
814.77	3055.57
814.94	2889.68
815.12	2957.27
815.29	3266.51
815.46	2824.15
815.63	2899.92
815.81	2871.25
815.98	2891.73
816.15	2944.98
816.33	2947.03
816.50	2879.44
816.67	2926.55
816.84	2926.55
817.02	2734.04
817.19	2822.10
817.36	2875.35
817.53	3117.01
817.71	2801.62
817.88	2969.55
818.05	2912.21
818.22	2912.21
818.40	3069.91
818.57	2801.62
818.74	3000.27
818.91	2928.60
819.09	2914.26
819.26	2957.27
819.43	2799.57
819.60	2844.63
819.78	3028.95
819.95	2904.02
820.12	2772.95
820.29	3172.30
820.47	3035.09
820.64	2807.77
820.81	2770.90
820.98	2764.76
821.15	2738.13
821.33	2981.84
821.50	2748.37
821.67	3049.43
821.84	2768.85
822.02	2904.02
822.19	3069.91
822.36	2875.35
822.53	2834.39
822.70	2721.75
822.88	2848.72
823.05	3217.36
823.22	2904.02
823.39	2924.50
823.56	2940.88
823.74	3297.23
823.91	2785.24
824.08	2783.19
824.25	2832.34
824.42	3276.75
824.60	2762.71
824.77	2934.74
824.94	2897.88
825.11	3078.10
825.28	2719.70
825.45	3012.56
825.63	2994.13
825.80	2840.53
825.97	2922.45
826.14	2889.68
826.31	2717.65
826.48	3172.30
826.66	2789.33
826.83	2787.29
827.00	2930.64
827.17	2836.44
827.34	2850.77
827.51	2707.41
827.69	2967.51
827.86	2731.99
828.03	3002.32
828.20	2891.73
828.37	2916.31
828.54	2983.89
828.71	2832.34
828.89	2944.98
829.06	2940.88
829.23	3262.41
829.40	2873.30
829.57	2822.10
829.74	3030.99
829.91	2920.40
830.09	2871.25
830.26	3022.80
830.43	3217.36
830.60	2965.46
830.77	2975.70
830.94	3071.95
831.11	3157.97
831.28	2869.20
831.46	3035.09
831.63	2758.61
831.80	3155.92
831.97	2818.00
832.14	2844.63
832.31	2961.36
832.48	2949.08
832.65	3166.16
832.82	2914.26
832.99	2889.68
833.17	2807.77
833.34	3180.50
833.51	2834.39
833.68	2615.26
833.85	3143.63
834.02	2809.81
834.19	2809.81
834.36	2805.72
834.53	3049.43
834.70	3139.54
834.87	2869.20
835.04	2650.07
835.22	2877.40
835.39	2893.78
835.56	2672.60
835.73	2770.90
835.90	3143.63
836.07	2848.72
836.24	2901.97
836.41	2772.95
836.58	2861.01
836.75	3110.86
836.92	2699.22
837.09	2699.22
837.26	3133.39
837.43	2938.84
837.60	2789.33
837.77	2750.42
837.94	3108.82
838.12	3121.10
838.29	2691.03
838.46	2623.45
838.63	2795.48
838.80	3274.70
838.97	2811.86
839.14	2703.32
839.31	3010.51
839.48	3033.04
839.65	2697.17
839.82	2854.87
839.99	2930.64
840.16	3024.85
840.33	2707.41
840.50	2807.77
840.67	2850.77
840.84	2617.30
841.01	2705.37
841.18	2703.32
841.35	2926.55
841.52	3080.14
841.69	2955.22
841.86	2699.22
842.03	2883.54
842.20	3157.97
842.37	2736.09
842.54	2738.13
842.71	2992.08
842.88	2672.60
843.05	2729.94
843.22	2777.05
843.39	3117.01
843.56	2854.87
843.73	2736.09
843.90	2785.24
844.07	2944.98
844.24	3104.72
844.41	2824.15
844.58	2797.53
844.75	2973.65
844.92	2983.89
845.09	2783.19
845.26	2703.32
845.43	3065.81
845.60	2961.36
845.77	2768.85
845.94	2838.48
846.10	3026.90
846.27	2766.81
846.44	2668.50
846.61	2648.02
846.78	3010.51
846.95	3102.67
847.12	2684.89
847.29	2768.85
847.46	2861.01
847.63	3024.85
847.80	2744.28
847.97	2834.39
848.14	3334.09
848.31	2906.07
848.48	2621.40
848.65	2756.57
848.82	2836.44
848.98	3403.72
849.15	2912.21
849.32	2904.02
849.49	3186.64
849.66	2969.55
849.83	2742.23
850.00	2594.78
850.17	3088.34
850.34	2885.59
850.51	2746.33
850.68	2717.65
850.85	3268.56
851.01	2959.31
851.18	2717.65
851.35	2740.18
851.52	3006.42
851.69	3186.64
851.86	2582.49
852.03	2643.93
852.20	3012.56
852.37	3002.32
852.53	2570.20
852.70	2691.03
852.87	2932.69
853.04	3084.24
853.21	2727.89
853.38	2977.75
853.55	3211.22
853.72	3200.98
853.89	2613.21
854.05	2656.22
854.22	2940.88
854.39	2889.68
854.56	2738.13
854.73	2869.20
854.90	2830.29
855.07	2858.96
855.23	2707.41
855.40	2729.94
855.57	2873.30
855.74	2711.51
855.91	2951.12
856.08	2607.06
856.25	2785.24
856.41	2910.16
856.58	2717.65
856.75	2748.37
856.92	2715.61
857.09	3166.16
857.26	2598.87
857.42	2766.81
857.59	3157.97
857.76	2936.79
857.93	2738.13
858.10	2758.61
858.27	2742.23
858.43	2957.27
858.60	2705.37
858.77	2654.17
858.94	2830.29
859.11	3164.11
859.27	2777.05
859.44	2715.61
859.61	3317.71
859.78	3139.54
859.95	2686.94
860.12	2660.31
860.28	3356.62
860.45	3239.89
860.62	2672.60
860.79	2879.44
860.95	2973.65
861.12	2822.10
861.29	2588.63
861.46	2666.46
861.63	2955.22
861.79	3010.51
861.96	2623.45
862.13	2742.23
862.30	3217.36
862.47	2889.68
862.63	2639.83
862.80	2740.18
862.97	3117.01
863.14	3084.24
863.30	2797.53
863.47	2611.16
863.64	3209.17
863.81	3094.48
863.97	2682.84
864.14	2775.00
864.31	2906.07
864.48	2906.07
864.65	2793.43
864.81	2893.78
864.98	3030.99
865.15	3123.15
865.32	2828.24
865.48	2861.01
865.65	3137.49
865.82	2891.73
865.98	2803.67
866.15	2795.48
866.32	2967.51
866.49	2953.17
866.65	2863.06
866.82	2772.95
866.99	2973.65
867.16	2869.20
867.32	2744.28
867.49	2662.36
867.66	2899.92
867.83	2779.09
867.99	2727.89
868.16	2783.19
868.33	2734.04
868.49	2985.94
868.66	2725.85
868.83	2801.62
868.99	2983.89
869.16	2967.51
869.33	2877.40
869.50	2809.81
869.66	3051.47
869.83	2942.93
870.00	2660.31
870.16	2844.63
870.33	2951.12
870.50	3076.05
870.66	2832.34
870.83	2844.63
871.00	2904.02
871.17	3137.49
871.33	2863.06
871.50	2775.00
871.67	2992.08
871.83	2971.60
872.00	2869.20
872.17	2791.38
872.33	3348.43
872.50	3135.44
872.67	2701.27
872.83	2762.71
873.00	3014.61
873.17	2973.65
873.33	2693.08
873.50	2746.33
873.67	2824.15
873.83	2914.26
874.00	2775.00
874.16	2883.54
874.33	2926.55
874.50	2762.71
874.66	2734.04
874.83	2815.96
875.00	3141.58
875.16	3209.17
875.33	2820.05
875.50	2488.28
875.66	2889.68
875.83	2998.23
875.99	2760.66
876.16	2852.82
876.33	2867.16
876.49	2967.51
876.66	2799.57
876.83	2779.09
876.99	2719.70
877.16	2944.98
877.32	2734.04
877.49	2867.16
877.66	2996.18
877.82	3266.51
877.99	2828.24
878.15	2959.31
878.32	3028.95
878.49	3030.99
878.65	2791.38
878.82	2895.83
878.98	2834.39
879.15	3069.91
879.32	2826.20
879.48	2895.83
879.65	2928.60
879.81	2920.40
879.98	2748.37
880.15	2867.16
880.31	3102.67
880.48	2818.00
880.64	2834.39
880.81	2815.96
880.97	3157.97
881.14	3198.93
881.31	2713.56
881.47	2899.92
881.64	2891.73
881.80	2768.85
881.97	2811.86
882.13	2746.33
882.30	2828.24
882.47	2881.49
882.63	2660.31
882.80	2680.79
882.96	2920.40
883.13	3110.86
883.29	2711.51
883.46	2705.37
883.62	3293.13
883.79	2908.12
883.95	2891.73
884.12	2746.33
884.29	3112.91
884.45	2965.46
884.62	2824.15
884.78	2727.89
884.95	3188.69
885.11	2834.39
885.28	2795.48
885.44	2768.85
885.61	3039.19
885.77	3233.74
885.94	2861.01
886.10	2805.72
886.27	3000.27
886.43	3270.61
886.60	2891.73
886.76	2762.71
886.93	2795.48
887.09	3020.75
887.26	2600.92
887.42	2818.00
887.59	3078.10
887.75	3313.61
887.92	2996.18
888.08	2961.36
888.25	3368.91
888.41	3063.76
888.58	2818.00
888.74	2697.17
888.91	2877.40
>>>>>End Processed Spectral Data<<<<<
