SpectraSuite Data File
++++++++++++++++++++++++++++++++++++
Date: Thu May 05 21:11:12 CEST 2016
User: root
Dark Spectrum Present: No
Reference Spectrum Present: No
Number of Sampled Component Spectra: 1
Spectrometers: USB4C02835
Integration Time (usec): 100000 (USB4C02835)
Spectra Averaged: 1 (USB4C02835)
Boxcar Smoothing: 0 (USB4C02835)
Correct for Electrical Dark: No (USB4C02835)
Strobe/Lamp Enabled: No (USB4C02835)
Correct for Detector Non-linearity: No (USB4C02835)
Correct for Stray Light: No (USB4C02835)
Number of Pixels in Processed Spectrum: 3648
>>>>>Begin Processed Spectral Data<<<<<
177.47	2179.04
177.69	2179.04
177.91	2179.04
178.13	2107.36
178.36	2138.08
178.58	2854.87
178.80	2955.22
179.02	2783.19
179.24	2850.77
179.46	2574.30
179.68	2600.92
179.90	2942.93
180.13	2977.75
180.35	2490.33
180.57	2580.44
180.79	3063.76
181.01	2953.17
181.23	2699.22
181.45	2889.68
181.67	3057.62
181.90	3137.49
182.12	2709.46
182.34	2576.34
182.56	3010.51
182.78	3010.51
183.00	2664.41
183.22	2750.42
183.44	2705.37
183.66	3565.51
183.89	2856.92
184.11	2633.69
184.33	3071.95
184.55	3151.82
184.77	2678.74
184.99	2699.22
185.21	2953.17
185.43	3444.68
185.65	2654.17
185.87	2641.88
186.10	3352.52
186.32	3282.89
186.54	2842.58
186.76	2779.09
186.98	3198.93
187.20	2994.13
187.42	2680.79
187.64	2666.46
187.86	3157.97
188.08	3174.35
188.30	2613.21
188.52	2725.85
188.75	3223.50
188.97	3196.88
189.19	2615.26
189.41	2645.98
189.63	3129.30
189.85	2901.97
190.07	2631.64
190.29	2527.19
190.51	3074.00
190.73	2850.77
190.95	2850.77
191.17	2697.17
191.39	2641.88
191.61	2918.36
191.84	2668.50
192.06	2740.18
192.28	2650.07
192.50	3542.99
192.72	2852.82
192.94	2727.89
193.16	3174.35
193.38	3092.43
193.60	2512.86
193.82	2861.01
194.04	3153.87
194.26	3090.38
194.48	2709.46
194.70	2660.31
194.92	2944.98
195.14	3112.91
195.36	2600.92
195.58	2740.18
195.80	2951.12
196.02	2901.97
196.24	2648.02
196.46	2723.80
196.69	2965.46
196.91	3373.00
197.13	2748.37
197.35	2711.51
197.57	3303.37
197.79	3114.96
198.01	2709.46
198.23	2666.46
198.45	3078.10
198.67	2799.57
198.89	2531.29
199.11	2766.81
199.33	2912.21
199.55	2648.02
199.77	2645.98
199.99	2811.86
200.21	2961.36
200.43	3084.24
200.65	2621.40
200.87	2582.49
201.09	2901.97
201.31	2957.27
201.53	2715.61
201.75	2707.41
201.97	2994.13
202.19	2992.08
202.41	2701.27
202.63	2801.62
202.85	3049.43
203.07	3008.47
203.29	2783.19
203.51	2570.20
203.73	2797.53
203.95	3356.62
204.17	2676.70
204.39	2703.32
204.61	2996.18
204.83	2824.15
205.05	2840.53
205.27	2758.61
205.49	3280.85
205.71	2963.41
205.93	2564.06
206.15	2547.67
206.37	2971.60
206.59	2930.64
206.81	2521.05
207.03	2541.53
207.25	2775.00
207.47	3108.82
207.69	2715.61
207.91	2924.50
208.13	3258.32
208.34	2969.55
208.56	2631.64
208.78	2707.41
209.00	2985.94
209.22	2906.07
209.44	2664.41
209.66	2658.26
209.88	2944.98
210.10	2916.31
210.32	2684.89
210.54	2768.85
210.76	2947.03
210.98	3127.25
211.20	2539.48
211.42	2858.96
211.64	3241.93
211.86	3067.86
212.08	2721.75
212.30	2641.88
212.52	2910.16
212.74	3055.57
212.96	2787.29
213.17	2731.99
213.39	3155.92
213.61	3233.74
213.83	2727.89
214.05	2555.86
214.27	3162.06
214.49	2793.43
214.71	2643.93
214.93	2805.72
215.15	3033.04
215.37	3174.35
215.59	2551.77
215.81	2719.70
216.03	3303.37
216.24	3059.67
216.46	2699.22
216.68	2738.13
216.90	3086.29
217.12	3243.98
217.34	2652.12
217.56	2846.68
217.78	3297.23
218.00	3065.81
218.22	2752.47
218.44	2801.62
218.66	3037.14
218.87	3289.04
219.09	2631.64
219.31	2650.07
219.53	3080.14
219.75	2936.79
219.97	2676.70
220.19	2779.09
220.41	2940.88
220.63	3246.03
220.85	2756.57
221.06	2734.04
221.28	3262.41
221.50	3153.87
221.72	2717.65
221.94	2623.45
222.16	3006.42
222.38	3172.30
222.60	2740.18
222.82	2764.76
223.03	3209.17
223.25	2793.43
223.47	2643.93
223.69	2916.31
223.91	3137.49
224.13	2975.70
224.35	2594.78
224.57	2875.35
224.78	3117.01
225.00	2877.40
225.22	2826.20
225.44	2658.26
225.66	3092.43
225.88	2932.69
226.10	2762.71
226.32	2664.41
226.53	3235.79
226.75	2904.02
226.97	2856.92
227.19	2705.37
227.41	2924.50
227.63	3006.42
227.85	2439.13
228.06	2701.27
228.28	3084.24
228.50	3162.06
228.72	2551.77
228.94	2633.69
229.16	2721.75
229.37	2785.24
229.59	2613.21
229.81	2979.79
230.03	2852.82
230.25	2754.52
230.47	2467.80
230.69	2611.16
230.90	3149.78
231.12	2881.49
231.34	2787.29
231.56	2766.81
231.78	2738.13
232.00	2959.31
232.21	2686.94
232.43	2693.08
232.65	2664.41
232.87	3028.95
233.09	2623.45
233.30	2580.44
233.52	3131.34
233.74	3102.67
233.96	2668.50
234.18	2805.72
234.40	2990.03
234.61	3444.68
234.83	2539.48
235.05	2715.61
235.27	3385.29
235.49	3160.02
235.70	2611.16
235.92	2738.13
236.14	3012.56
236.36	3403.72
236.58	2629.59
236.79	2746.33
237.01	2959.31
237.23	2979.79
237.45	2891.73
237.67	2820.05
237.88	3096.53
238.10	3385.29
238.32	2588.63
238.54	2676.70
238.76	2877.40
238.97	2867.16
239.19	2584.54
239.41	2742.23
239.63	3155.92
239.85	2930.64
240.06	2727.89
240.28	2705.37
240.50	3184.59
240.72	3071.95
240.93	2617.30
241.15	2772.95
241.37	2992.08
241.59	3231.69
241.81	2639.83
242.02	2758.61
242.24	3069.91
242.46	3090.38
242.68	2602.97
242.89	2666.46
243.11	3102.67
243.33	2940.88
243.55	2623.45
243.76	2754.52
243.98	2852.82
244.20	2994.13
244.42	2617.30
244.64	2598.87
244.85	2789.33
245.07	2820.05
245.29	2727.89
245.51	2680.79
245.72	3016.66
245.94	3170.26
246.16	2619.35
246.38	2850.77
246.59	2936.79
246.81	2893.78
247.03	2678.74
247.24	2510.81
247.46	2901.97
247.68	3022.80
247.90	2629.59
248.11	2686.94
248.33	3106.77
248.55	2955.22
248.77	2719.70
248.98	2709.46
249.20	3291.09
249.42	3022.80
249.64	2670.55
249.85	2691.03
250.07	2912.21
250.29	3098.58
250.50	2781.14
250.72	2562.01
250.94	3026.90
251.16	3428.30
251.37	2703.32
251.59	2758.61
251.81	2992.08
252.02	3217.36
252.24	2602.97
252.46	2799.57
252.68	2832.34
252.89	2805.72
253.11	2602.97
253.33	2834.39
253.54	3280.85
253.76	2832.34
253.98	2652.12
254.20	2738.13
254.41	2783.19
254.63	3006.42
254.85	2535.39
255.06	2799.57
255.28	3065.81
255.50	2861.01
255.71	2682.84
255.93	2566.10
256.15	2904.02
256.36	3039.19
256.58	2592.73
256.80	2752.47
257.02	2906.07
257.23	2953.17
257.45	2762.71
257.67	2764.76
257.88	2924.50
258.10	2996.18
258.32	2666.46
258.53	2740.18
258.75	3360.72
258.97	2910.16
259.18	2609.11
259.40	2664.41
259.62	3352.52
259.83	3239.89
260.05	2643.93
260.27	3475.40
260.48	3123.15
260.70	2775.00
260.92	2576.34
261.13	2717.65
261.35	3004.37
261.57	3131.34
261.78	2600.92
262.00	2568.15
262.22	3153.87
262.43	2832.34
262.65	2736.09
262.86	2729.94
263.08	3454.92
263.30	3000.27
263.51	2568.15
263.73	2586.58
263.95	3280.85
264.16	2881.49
264.38	2602.97
264.60	2578.39
264.81	3000.27
265.03	3071.95
265.25	3016.66
265.46	2639.83
265.68	3235.79
265.89	3117.01
266.11	2568.15
266.33	2592.73
266.54	3235.79
266.76	3047.38
266.98	2813.91
267.19	2791.38
267.41	3211.22
267.62	2897.88
267.84	2494.43
268.06	2830.29
268.27	3030.99
268.49	3180.50
268.70	2809.81
268.92	2707.41
269.14	2838.48
269.35	2779.09
269.57	2758.61
269.79	2781.14
270.00	2975.70
270.22	3262.41
270.43	2568.15
270.65	2531.29
270.87	3000.27
271.08	3153.87
271.30	2783.19
271.51	2815.96
271.73	3088.34
271.95	3221.45
272.16	2582.49
272.38	2787.29
272.59	2836.44
272.81	3125.20
273.02	2662.36
273.24	2746.33
273.46	3186.64
273.67	2734.04
273.89	2590.68
274.10	2682.84
274.32	3155.92
274.54	3010.51
274.75	2807.77
274.97	2785.24
275.18	3096.53
275.40	3065.81
275.61	2764.76
275.83	2813.91
276.05	2787.29
276.26	2906.07
276.48	2772.95
276.69	2764.76
276.91	2840.53
277.12	3233.74
277.34	2828.24
277.55	2979.79
277.77	2983.89
277.99	2967.51
278.20	2736.09
278.42	2713.56
278.63	2883.54
278.85	2842.58
279.06	2785.24
279.28	2889.68
279.49	3188.69
279.71	3176.40
279.93	2824.15
280.14	2846.68
280.36	2805.72
280.57	3114.96
280.79	2856.92
281.00	2648.02
281.22	2836.44
281.43	3235.79
281.65	2551.77
281.86	2631.64
282.08	3104.72
282.29	3373.00
282.51	2746.33
282.73	2684.89
282.94	2750.42
283.16	3129.30
283.37	2928.60
283.59	2760.66
283.80	3059.67
284.02	3024.85
284.23	2826.20
284.45	2834.39
284.66	2811.86
284.88	2840.53
285.09	2756.57
285.31	2979.79
285.52	3006.42
285.74	2801.62
285.95	3004.37
286.17	2867.16
286.38	3145.68
286.60	2887.64
286.81	2703.32
287.03	2832.34
287.24	2977.75
287.46	3074.00
287.67	2861.01
287.89	3096.53
288.10	2981.84
288.32	3078.10
288.53	2971.60
288.75	2828.24
288.96	3059.67
289.18	2852.82
289.39	2734.04
289.61	2842.58
289.82	3340.24
290.04	3256.27
290.25	2699.22
290.47	2867.16
290.68	2914.26
290.90	3112.91
291.11	2639.83
291.33	2990.03
291.54	2854.87
291.76	2906.07
291.97	2891.73
292.18	2856.92
292.40	2897.88
292.61	2975.70
292.83	3059.67
293.04	2813.91
293.26	3035.09
293.47	2949.08
293.69	2758.61
293.90	2678.74
294.12	3149.78
294.33	2985.94
294.55	2904.02
294.76	2940.88
294.97	3239.89
295.19	3434.44
295.40	2705.37
295.62	2920.40
295.83	3076.05
296.05	2912.21
296.26	2901.97
296.48	2811.86
296.69	2959.31
296.90	2901.97
297.12	2910.16
297.33	2951.12
297.55	2990.03
297.76	3074.00
297.98	2936.79
298.19	2881.49
298.41	3006.42
298.62	2813.91
298.83	2979.79
299.05	2928.60
299.26	2992.08
299.48	2793.43
299.69	2861.01
299.90	2758.61
300.12	2893.78
300.33	3084.24
300.55	2826.20
300.76	2848.72
300.98	2834.39
301.19	3131.34
301.40	2803.67
301.62	2770.90
301.83	3102.67
302.05	3002.32
302.26	2818.00
302.47	2891.73
302.69	2836.44
302.90	3094.48
303.12	2619.35
303.33	2869.20
303.54	3325.90
303.76	2871.25
303.97	2736.09
304.19	2951.12
304.40	2842.58
304.61	3143.63
304.83	2850.77
305.04	2899.92
305.26	3026.90
305.47	2871.25
305.68	2826.20
305.90	2637.78
306.11	3127.25
306.33	2963.41
306.54	2748.37
306.75	2705.37
306.97	2813.91
307.18	2752.47
307.39	2768.85
307.61	2926.55
307.82	2963.41
308.04	3012.56
308.25	2748.37
308.46	2951.12
308.68	2901.97
308.89	2971.60
309.10	2908.12
309.32	2836.44
309.53	2994.13
309.74	3024.85
309.96	2709.46
310.17	2908.12
310.39	2932.69
310.60	3084.24
310.81	2742.23
311.03	2680.79
311.24	3235.79
311.45	3020.75
311.67	3000.27
311.88	2910.16
312.09	2889.68
312.31	2920.40
312.52	2725.85
312.73	2803.67
312.95	2734.04
313.16	2813.91
313.37	3028.95
313.59	2910.16
313.80	3106.77
314.01	3327.95
314.23	2834.39
314.44	2707.41
314.65	2738.13
314.87	2846.68
315.08	2729.94
315.29	2858.96
315.51	2883.54
315.72	2746.33
315.93	2875.35
316.15	2879.44
316.36	2922.45
316.57	2920.40
316.79	2820.05
317.00	2729.94
317.21	3207.12
317.43	2858.96
317.64	2818.00
317.85	2668.50
318.07	2953.17
318.28	2889.68
318.49	2873.30
318.70	3069.91
318.92	2942.93
319.13	3041.23
319.34	2973.65
319.56	2809.81
319.77	3067.86
319.98	3100.62
320.20	2987.99
320.41	2906.07
320.62	3002.32
320.83	2805.72
321.05	2987.99
321.26	2813.91
321.47	3037.14
321.69	3215.31
321.90	2609.11
322.11	2775.00
322.32	2979.79
322.54	3205.07
322.75	2746.33
322.96	3604.42
323.18	2754.52
323.39	2709.46
323.60	2680.79
323.81	2953.17
324.03	2922.45
324.24	3018.71
324.45	2934.74
324.66	2770.90
324.88	3145.68
325.09	3188.69
325.30	2822.10
325.52	2809.81
325.73	3129.30
325.94	2836.44
326.15	2701.27
326.37	2721.75
326.58	3143.63
326.79	3254.22
327.00	2734.04
327.22	2813.91
327.43	2918.36
327.64	2901.97
327.85	2895.83
328.07	2856.92
328.28	3352.52
328.49	2934.74
328.70	2797.53
328.92	2842.58
329.13	2899.92
329.34	3065.81
329.55	3071.95
329.76	2940.88
329.98	2944.98
330.19	3221.45
330.40	2875.35
330.61	2881.49
330.83	3114.96
331.04	2852.82
331.25	2885.59
331.46	2828.24
331.68	2791.38
331.89	3188.69
332.10	2781.14
332.31	2662.36
332.52	2944.98
332.74	3162.06
332.95	2686.94
333.16	2815.96
333.37	3078.10
333.58	2875.35
333.80	2785.24
334.01	2666.46
334.22	2965.46
334.43	2852.82
334.64	2791.38
334.86	2803.67
335.07	2822.10
335.28	3221.45
335.49	2723.80
335.70	2893.78
335.92	3200.98
336.13	3346.38
336.34	2842.58
336.55	2815.96
336.76	3094.48
336.98	2594.78
337.19	2813.91
337.40	2899.92
337.61	3321.81
337.82	3016.66
338.04	2852.82
338.25	2664.41
338.46	2863.06
338.67	2981.84
338.88	2680.79
339.09	2740.18
339.31	2944.98
339.52	2775.00
339.73	2789.33
339.94	2916.31
340.15	3110.86
340.36	2906.07
340.58	2836.44
340.79	2746.33
341.00	3028.95
341.21	2785.24
341.42	3033.04
341.63	2770.90
341.85	3192.78
342.06	2963.41
342.27	2688.98
342.48	2875.35
342.69	2719.70
342.90	3100.62
343.12	3051.47
343.33	2711.51
343.54	3088.34
343.75	3215.31
343.96	2969.55
344.17	2691.03
344.38	2883.54
344.60	2836.44
344.81	2744.28
345.02	2785.24
345.23	3133.39
345.44	3454.92
345.65	2914.26
345.86	2916.31
346.07	3024.85
346.29	2846.68
346.50	3039.19
346.71	2897.88
346.92	3166.16
347.13	3274.70
347.34	2940.88
347.55	2715.61
347.76	3030.99
347.98	2844.63
348.19	2815.96
348.40	2951.12
348.61	2926.55
348.82	3295.18
349.03	2885.59
349.24	2785.24
349.45	3336.14
349.66	2678.74
349.88	2783.19
350.09	2672.60
350.30	3184.59
350.51	3268.56
350.72	2883.54
350.93	2869.20
351.14	2869.20
351.35	3088.34
351.56	2766.81
351.77	2877.40
351.99	3045.33
352.20	3227.60
352.41	2844.63
352.62	2703.32
352.83	3018.71
353.04	2973.65
353.25	2830.29
353.46	2834.39
353.67	3129.30
353.88	2676.70
354.09	2783.19
354.30	2865.11
354.52	3071.95
354.73	2949.08
354.94	2744.28
355.15	2881.49
355.36	3286.99
355.57	2889.68
355.78	2768.85
355.99	2818.00
356.20	2883.54
356.41	3192.78
356.62	2850.77
356.83	2781.14
357.04	3311.57
357.25	2731.99
357.46	2813.91
357.68	2615.26
357.89	2799.57
358.10	2963.41
358.31	2828.24
358.52	2861.01
358.73	2795.48
358.94	2805.72
359.15	2760.66
359.36	2850.77
359.57	2979.79
359.78	2985.94
359.99	3006.42
360.20	2672.60
360.41	2965.46
360.62	3153.87
360.83	2871.25
361.04	2856.92
361.25	3030.99
361.46	3239.89
361.67	2869.20
361.88	2818.00
362.09	3127.25
362.30	2987.99
362.51	2705.37
362.72	2875.35
362.93	3160.02
363.14	3084.24
363.35	2920.40
363.56	2691.03
363.78	3164.11
363.99	3129.30
364.20	2787.29
364.41	2834.39
364.62	3321.81
364.83	3000.27
365.04	2856.92
365.25	2709.46
365.46	3319.76
365.67	2865.11
365.88	2922.45
366.09	2803.67
366.30	2875.35
366.51	2981.84
366.72	2768.85
366.93	2787.29
367.14	3022.80
367.35	3205.07
367.56	2709.46
367.77	2887.64
367.98	2940.88
368.18	3149.78
368.39	2871.25
368.60	2809.81
368.81	3049.43
369.02	3051.47
369.23	2750.42
369.44	2639.83
369.65	2863.06
369.86	3166.16
370.07	2910.16
370.28	2639.83
370.49	3024.85
370.70	3065.81
370.91	2703.32
371.12	2652.12
371.33	3168.21
371.54	2901.97
371.75	2922.45
371.96	2598.87
372.17	3018.71
372.38	2983.89
372.59	2844.63
372.80	2785.24
373.01	2996.18
373.22	3057.62
373.43	2795.48
373.64	2678.74
373.85	3209.17
374.06	3233.74
374.26	2955.22
374.47	2813.91
374.68	3299.28
374.89	2973.65
375.10	2748.37
375.31	2899.92
375.52	3041.23
375.73	2942.93
375.94	2680.79
376.15	2924.50
376.36	2848.72
376.57	2904.02
376.78	2729.94
376.99	2852.82
377.20	3203.02
377.40	2992.08
377.61	3080.14
377.82	2703.32
378.03	3207.12
378.24	2998.23
378.45	2928.60
378.66	2803.67
378.87	2711.51
379.08	2738.13
379.29	2848.72
379.50	2983.89
379.71	2992.08
379.91	3096.53
380.12	2795.48
380.33	2879.44
380.54	2916.31
380.75	2940.88
380.96	2785.24
381.17	2889.68
381.38	2971.60
381.59	3014.61
381.80	2863.06
382.00	2998.23
382.21	3004.37
382.42	3178.45
382.63	3178.45
382.84	2963.41
383.05	3104.72
383.26	3174.35
383.47	2947.03
383.68	2813.91
383.88	3069.91
384.09	3030.99
384.30	3067.86
384.51	2897.88
384.72	2889.68
384.93	2754.52
385.14	2863.06
385.35	3000.27
385.55	2744.28
385.76	3112.91
385.97	2828.24
386.18	2629.59
386.39	2895.83
386.60	2861.01
386.81	2822.10
387.02	2699.22
387.22	2758.61
387.43	3096.53
387.64	2959.31
387.85	3096.53
388.06	3041.23
388.27	3966.92
388.48	7249.81
388.68	10784.60
388.89	13496.11
389.10	14612.26
389.31	14040.87
389.52	11253.59
389.73	9938.79
389.93	8871.80
390.14	7960.45
390.35	7493.52
390.56	6834.07
390.77	5638.06
390.98	4374.46
391.18	3743.69
391.39	3346.38
391.60	3002.32
391.81	3059.67
392.02	2871.25
392.23	3368.91
392.43	2990.03
392.64	3008.47
392.85	2830.29
393.06	3293.13
393.27	2979.79
393.47	2799.57
393.68	2916.31
393.89	2842.58
394.10	3241.93
394.31	2795.48
394.52	2815.96
394.72	2818.00
394.93	3311.57
395.14	2691.03
395.35	2924.50
395.56	2803.67
395.76	2996.18
395.97	2826.20
396.18	2940.88
396.39	2953.17
396.60	3588.04
396.80	3139.54
397.01	3020.75
397.22	3180.50
397.43	3237.84
397.64	2828.24
397.84	2967.51
398.05	3444.68
398.26	2895.83
398.47	2975.70
398.67	2977.75
398.88	3020.75
399.09	3108.82
399.30	2865.11
399.51	2914.26
399.71	2879.44
399.92	2965.46
400.13	2924.50
400.34	2885.59
400.54	3041.23
400.75	3164.11
400.96	2887.64
401.17	3155.92
401.37	3076.05
401.58	2983.89
401.79	2775.00
402.00	2936.79
402.21	3518.41
402.41	3155.92
402.62	3125.20
402.83	3243.98
403.04	3307.47
403.24	3618.76
403.45	2940.88
403.66	3151.82
403.87	3160.02
404.07	3272.65
404.28	3084.24
404.49	3160.02
404.70	3016.66
404.90	3135.44
405.11	2932.69
405.32	2897.88
405.52	2928.60
405.73	2867.16
405.94	2711.51
406.15	2957.27
406.35	3153.87
406.56	3164.11
406.77	2883.54
406.98	2887.64
407.18	2885.59
407.39	3250.13
407.60	2887.64
407.80	2865.11
408.01	2934.74
408.22	3172.30
408.43	2697.17
408.63	3000.27
408.84	3272.65
409.05	3114.96
409.25	2760.66
409.46	2828.24
409.67	2869.20
409.88	2801.62
410.08	2807.77
410.29	2824.15
410.50	3123.15
410.70	3022.80
410.91	2662.36
411.12	2922.45
411.32	3020.75
411.53	2813.91
411.74	2901.97
411.95	3022.80
412.15	2987.99
412.36	3090.38
412.57	2959.31
412.77	3008.47
412.98	3000.27
413.19	2887.64
413.39	2873.30
413.60	2846.68
413.81	3221.45
414.01	2842.58
414.22	2848.72
414.43	2942.93
414.63	2965.46
414.84	3086.29
415.05	2840.53
415.25	2734.04
415.46	3129.30
415.67	2865.11
415.87	2869.20
416.08	2918.36
416.29	2918.36
416.49	3078.10
416.70	2856.92
416.91	2828.24
417.11	2938.84
417.32	3108.82
417.53	2942.93
417.73	2877.40
417.94	3067.86
418.15	3030.99
418.35	2852.82
418.56	2850.77
418.77	3424.20
418.97	2975.70
419.18	2828.24
419.38	2512.86
419.59	3041.23
419.80	3268.56
420.00	2799.57
420.21	2897.88
420.42	3196.88
420.62	2967.51
420.83	2850.77
421.04	2785.24
421.24	2940.88
421.45	3080.14
421.65	2842.58
421.86	2799.57
422.07	3164.11
422.27	3141.58
422.48	2787.29
422.69	2729.94
422.89	3067.86
423.10	2944.98
423.30	2772.95
423.51	2820.05
423.72	3026.90
423.92	3153.87
424.13	2752.47
424.33	2885.59
424.54	3096.53
424.75	2969.55
424.95	2992.08
425.16	2844.63
425.36	2922.45
425.57	3123.15
425.78	2949.08
425.98	3035.09
426.19	2947.03
426.39	2801.62
426.60	2930.64
426.81	2965.46
427.01	3057.62
427.22	2832.34
427.42	2676.70
427.63	2760.66
427.83	3057.62
428.04	3274.70
428.25	2990.03
428.45	2914.26
428.66	3143.63
428.86	2998.23
429.07	2910.16
429.28	2879.44
429.48	2920.40
429.69	2842.58
429.89	2947.03
430.10	2731.99
430.30	3053.52
430.51	3119.06
430.71	2746.33
430.92	2899.92
431.13	2889.68
431.33	3026.90
431.54	2924.50
431.74	3108.82
431.95	3393.48
432.15	2865.11
432.36	2873.30
432.56	2850.77
432.77	3307.47
432.98	3282.89
433.18	2930.64
433.39	2738.13
433.59	2947.03
433.80	3352.52
434.00	3067.86
434.21	2873.30
434.41	2836.44
434.62	3350.48
434.82	2789.33
435.03	2754.52
435.23	3020.75
435.44	2703.32
435.64	2826.20
435.85	2965.46
436.06	3096.53
436.26	3131.34
436.47	2863.06
436.67	2846.68
436.88	2918.36
437.08	3198.93
437.29	2971.60
437.49	3006.42
437.70	3203.02
437.90	2981.84
438.11	3004.37
438.31	2910.16
438.52	3266.51
438.72	3192.78
438.93	3170.26
439.13	2940.88
439.34	3127.25
439.54	2944.98
439.75	3006.42
439.95	2871.25
440.16	2908.12
440.36	2891.73
440.57	2877.40
440.77	2863.06
440.98	2912.21
441.18	3076.05
441.39	2779.09
441.59	2742.23
441.80	3330.00
442.00	3047.38
442.21	2969.55
442.41	2658.26
442.62	3180.50
442.82	2899.92
443.02	2858.96
443.23	2936.79
443.43	2947.03
443.64	3176.40
443.84	2766.81
444.05	2897.88
444.25	3067.86
444.46	2930.64
444.66	2834.39
444.87	3051.47
445.07	2705.37
445.28	2965.46
445.48	3033.04
445.69	2885.59
445.89	3360.72
446.09	2955.22
446.30	3149.78
446.50	3270.61
446.71	4652.98
446.91	5820.33
447.12	6559.64
447.32	7102.36
447.53	6623.13
447.73	5791.66
447.93	5062.58
448.14	4804.53
448.34	4870.07
448.55	4026.31
448.75	4093.89
448.96	3876.80
449.16	3571.66
449.36	3508.17
449.57	3098.58
449.77	2920.40
449.98	2916.31
450.18	3127.25
450.39	2795.48
450.59	3125.20
450.79	2994.13
451.00	2836.44
451.20	3063.76
451.41	2852.82
451.61	3024.85
451.81	2928.60
452.02	2791.38
452.22	2848.72
452.43	2947.03
452.63	2815.96
452.84	2852.82
453.04	2873.30
453.24	3055.57
453.45	2897.88
453.65	2824.15
453.86	2856.92
454.06	3055.57
454.26	2983.89
454.47	2813.91
454.67	3078.10
454.87	3151.82
455.08	2893.78
455.28	2924.50
455.49	2969.55
455.69	2828.24
455.89	3297.23
456.10	2967.51
456.30	2869.20
456.51	3127.25
456.71	3053.52
456.91	2863.06
457.12	2842.58
457.32	3080.14
457.52	2818.00
457.73	2963.41
457.93	3041.23
458.14	2789.33
458.34	2693.08
458.54	2799.57
458.75	2793.43
458.95	3235.79
459.15	3067.86
459.36	2942.93
459.56	2850.77
459.76	3364.81
459.97	3012.56
460.17	2836.44
460.37	2967.51
460.58	3039.19
460.78	3106.77
460.99	2940.88
461.19	2828.24
461.39	2893.78
461.60	2977.75
461.80	2936.79
462.00	2777.05
462.21	2928.60
462.41	2846.68
462.61	2695.13
462.82	2584.54
463.02	3114.96
463.22	3071.95
463.43	2891.73
463.63	2818.00
463.83	3307.47
464.04	3026.90
464.24	2834.39
464.44	2754.52
464.64	3026.90
464.85	3131.34
465.05	2897.88
465.25	2834.39
465.46	2856.92
465.66	3125.20
465.86	2942.93
466.07	2838.48
466.27	2990.03
466.47	2815.96
466.68	2711.51
466.88	2977.75
467.08	3168.21
467.29	3239.89
467.49	2918.36
467.69	2953.17
467.89	3139.54
468.10	2877.40
468.30	2926.55
468.50	3008.47
468.71	3157.97
468.91	2811.86
469.11	3018.71
469.31	3028.95
469.52	2842.58
469.72	3276.75
469.92	3098.58
470.13	2881.49
470.33	2994.13
470.53	3088.34
470.73	3186.64
470.94	3549.13
471.14	3669.96
471.34	4132.80
471.54	3854.28
471.75	3557.32
471.95	3311.57
472.15	3383.24
472.36	3362.76
472.56	3237.84
472.76	3487.69
472.96	3266.51
473.17	3102.67
473.37	3002.32
473.57	3010.51
473.77	3090.38
473.98	2981.84
474.18	2752.47
474.38	3545.03
474.58	2924.50
474.79	2791.38
474.99	2990.03
475.19	3178.45
475.39	2777.05
475.60	2942.93
475.80	2729.94
476.00	3053.52
476.20	2957.27
476.41	2934.74
476.61	2951.12
476.81	3291.09
477.01	2901.97
477.21	2981.84
477.42	2990.03
477.62	2836.44
477.82	3074.00
478.02	2760.66
478.23	2940.88
478.43	2869.20
478.63	2969.55
478.83	2985.94
479.03	2873.30
479.24	3237.84
479.44	3342.28
479.64	2760.66
479.84	2662.36
480.04	2885.59
480.25	3141.58
480.45	2820.05
480.65	2777.05
480.85	3250.13
481.06	2922.45
481.26	2955.22
481.46	2838.48
481.66	3065.81
481.86	2871.25
482.06	3061.71
482.27	2961.36
482.47	2961.36
482.67	3123.15
482.87	2869.20
483.07	2971.60
483.28	2918.36
483.48	2797.53
483.68	2951.12
483.88	2746.33
484.08	2660.31
484.29	2865.11
484.49	2889.68
484.69	2609.11
484.89	3231.69
485.09	3172.30
485.29	2861.01
485.50	2959.31
485.70	2901.97
485.90	3235.79
486.10	2967.51
486.30	2934.74
486.50	3301.33
486.71	3004.37
486.91	2961.36
487.11	2977.75
487.31	2734.04
487.51	3037.14
487.71	2762.71
487.91	2787.29
488.12	2820.05
488.32	2600.92
488.52	2848.72
488.72	2559.96
488.92	2897.88
489.12	3180.50
489.32	2969.55
489.53	2920.40
489.73	2729.94
489.93	3409.87
490.13	2811.86
490.33	2736.09
490.53	3022.80
490.73	3135.44
490.94	2666.46
491.14	2994.13
491.34	3076.05
491.54	3129.30
491.74	3624.90
491.94	4288.45
492.14	4728.76
492.34	4628.41
492.54	4376.51
492.75	3809.22
492.95	3889.09
493.15	3633.10
493.35	3516.36
493.55	3409.87
493.75	3311.57
493.95	3514.31
494.15	3117.01
494.35	2938.84
494.56	2985.94
494.76	2897.88
494.96	2940.88
495.16	2754.52
495.36	3020.75
495.56	3043.28
495.76	2897.88
495.96	2850.77
496.16	2785.24
496.36	3325.90
496.56	2850.77
496.77	2940.88
496.97	2932.69
497.17	3307.47
497.37	2729.94
497.57	2992.08
497.77	2998.23
497.97	2889.68
498.17	2910.16
498.37	2881.49
498.57	3176.40
498.77	2889.68
498.97	3035.09
499.17	3184.59
499.38	2918.36
499.58	3014.61
499.78	3045.33
499.98	2947.03
500.18	3010.51
500.38	2928.60
500.58	3082.19
500.78	3379.15
500.98	5556.14
501.18	7448.46
501.38	8728.44
501.58	9619.31
501.78	9727.85
501.98	7970.69
502.18	6717.34
502.38	5980.07
502.58	5787.56
502.78	5048.24
502.98	4853.69
503.18	4534.20
503.38	4444.09
503.59	3741.64
503.79	3631.05
503.99	3399.63
504.19	3364.81
504.39	3491.79
504.59	3358.67
504.79	3241.93
504.99	3465.16
505.19	3186.64
505.39	3010.51
505.59	3311.57
505.79	3299.28
505.99	3182.54
506.19	2906.07
506.39	3080.14
506.59	2852.82
506.79	2930.64
506.99	3026.90
507.19	2844.63
507.39	3051.47
507.59	2711.51
507.79	2861.01
507.99	2791.38
508.19	3030.99
508.39	2924.50
508.59	2824.15
508.79	2869.20
508.99	3395.53
509.19	2813.91
509.39	2906.07
509.59	2764.76
509.79	2881.49
509.99	2996.18
510.19	2992.08
510.39	2928.60
510.59	3043.28
510.79	2883.54
510.99	2693.08
511.19	2781.14
511.39	3305.42
511.59	3229.65
511.79	2918.36
511.99	2885.59
512.19	3260.37
512.38	2996.18
512.58	2805.72
512.78	2803.67
512.98	3207.12
513.18	3237.84
513.38	2758.61
513.58	2969.55
513.78	2990.03
513.98	2959.31
514.18	2869.20
514.38	2877.40
514.58	3076.05
514.78	2834.39
514.98	2809.81
515.18	2852.82
515.38	2809.81
515.58	3303.37
515.78	2807.77
515.98	2863.06
516.18	3104.72
516.38	2983.89
516.57	2815.96
516.77	2803.67
516.97	3108.82
517.17	2879.44
517.37	2637.78
517.57	2992.08
517.77	2918.36
517.97	2815.96
518.17	3030.99
518.37	2672.60
518.57	2844.63
518.77	2871.25
518.97	2850.77
519.16	2916.31
519.36	3186.64
519.56	2879.44
519.76	2719.70
519.96	2893.78
520.16	3221.45
520.36	2744.28
520.56	2979.79
520.76	2897.88
520.96	2967.51
521.16	3190.74
521.35	2996.18
521.55	2973.65
521.75	2973.65
521.95	2973.65
522.15	2760.66
522.35	2740.18
522.55	2854.87
522.75	3104.72
522.95	2701.27
523.14	2707.41
523.34	3069.91
523.54	2879.44
523.74	2969.55
523.94	2803.67
524.14	2861.01
524.34	3055.57
524.54	3098.58
524.73	2881.49
524.93	3131.34
525.13	2967.51
525.33	2764.76
525.53	3137.49
525.73	3221.45
525.93	2996.18
526.13	2885.59
526.32	2873.30
526.52	3164.11
526.72	3121.10
526.92	2840.53
527.12	2760.66
527.32	2760.66
527.52	3074.00
527.71	2901.97
527.91	2889.68
528.11	2938.84
528.31	2949.08
528.51	2801.62
528.71	2967.51
528.90	3049.43
529.10	3256.27
529.30	2975.70
529.50	2648.02
529.70	3018.71
529.90	3000.27
530.09	2824.15
530.29	2731.99
530.49	2850.77
530.69	3522.51
530.89	2959.31
531.09	3016.66
531.28	2918.36
531.48	3198.93
531.68	2826.20
531.88	2906.07
532.08	3047.38
532.28	2987.99
532.47	2916.31
532.67	2947.03
532.87	3108.82
533.07	2871.25
533.27	2914.26
533.46	2975.70
533.66	3074.00
533.86	2926.55
534.06	2834.39
534.26	2822.10
534.45	2947.03
534.65	3262.41
534.85	2930.64
535.05	2795.48
535.25	3188.69
535.44	2746.33
535.64	2873.30
535.84	2869.20
536.04	2959.31
536.24	2861.01
536.43	2795.48
536.63	2809.81
536.83	3018.71
537.03	3012.56
537.22	2652.12
537.42	2643.93
537.62	2918.36
537.82	2916.31
538.02	2994.13
538.21	2983.89
538.41	3510.22
538.61	3059.67
538.81	2826.20
539.00	2979.79
539.20	2766.81
539.40	2928.60
539.60	2934.74
539.79	3008.47
539.99	2981.84
540.19	2877.40
540.39	2836.44
540.58	2916.31
540.78	3125.20
540.98	2965.46
541.18	3018.71
541.37	2861.01
541.57	2979.79
541.77	3033.04
541.97	2721.75
542.16	2828.24
542.36	2899.92
542.56	2926.55
542.76	2973.65
542.95	2932.69
543.15	3168.21
543.35	3076.05
543.54	2830.29
543.74	2756.57
543.94	3217.36
544.14	2801.62
544.33	2957.27
544.53	2867.16
544.73	2936.79
544.93	2977.75
545.12	2826.20
545.32	2828.24
545.52	2936.79
545.71	2758.61
545.91	2783.19
546.11	2809.81
546.30	2848.72
546.50	2932.69
546.70	2924.50
546.90	2908.12
547.09	2672.60
547.29	3055.57
547.49	2961.36
547.68	2885.59
547.88	2840.53
548.08	3112.91
548.27	3262.41
548.47	2846.68
548.67	2897.88
548.87	2998.23
549.06	2828.24
549.26	2832.34
549.46	2967.51
549.65	2879.44
549.85	2842.58
550.05	2942.93
550.24	2762.71
550.44	2992.08
550.64	2856.92
550.83	2961.36
551.03	3147.73
551.23	3147.73
551.42	2957.27
551.62	2844.63
551.82	2959.31
552.01	2969.55
552.21	3096.53
552.41	2842.58
552.60	3180.50
552.80	3000.27
553.00	2824.15
553.19	2850.77
553.39	3282.89
553.59	2744.28
553.78	2985.94
553.98	2797.53
554.17	2772.95
554.37	3033.04
554.57	2914.26
554.76	2752.47
554.96	2807.77
555.16	2973.65
555.35	2869.20
555.55	2951.12
555.75	3147.73
555.94	3041.23
556.14	2629.59
556.33	2904.02
556.53	2967.51
556.73	3053.52
556.92	2897.88
557.12	2856.92
557.32	3299.28
557.51	3182.54
557.71	2973.65
557.90	3008.47
558.10	3256.27
558.30	3010.51
558.49	2893.78
558.69	2863.06
558.88	3106.77
559.08	2992.08
559.28	2834.39
559.47	2871.25
559.67	3022.80
559.86	3346.38
560.06	2813.91
560.26	2901.97
560.45	3063.76
560.65	2871.25
560.84	3104.72
561.04	2772.95
561.24	3100.62
561.43	2840.53
561.63	3049.43
561.82	2934.74
562.02	3022.80
562.22	2840.53
562.41	2822.10
562.61	2789.33
562.80	2803.67
563.00	3356.62
563.19	2955.22
563.39	2942.93
563.59	3174.35
563.78	2865.11
563.98	2656.22
564.17	2818.00
564.37	2705.37
564.56	2981.84
564.76	2746.33
564.96	2979.79
565.15	3071.95
565.35	3416.01
565.54	2922.45
565.74	2985.94
565.93	2994.13
566.13	2920.40
566.32	3051.47
566.52	2938.84
566.71	2963.41
566.91	3147.73
567.11	2994.13
567.30	2844.63
567.50	3045.33
567.69	3037.14
567.89	2930.64
568.08	2775.00
568.28	3022.80
568.47	2830.29
568.67	2910.16
568.86	2844.63
569.06	3172.30
569.25	2852.82
569.45	2688.98
569.64	2926.55
569.84	2963.41
570.04	2955.22
570.23	2805.72
570.43	2871.25
570.62	3022.80
570.82	3237.84
571.01	2731.99
571.21	2842.58
571.40	2826.20
571.60	3117.01
571.79	2914.26
571.99	2850.77
572.18	2772.95
572.38	3022.80
572.57	2891.73
572.77	2877.40
572.96	3452.88
573.16	3055.57
573.35	2885.59
573.55	3016.66
573.74	3004.37
573.94	2951.12
574.13	2838.48
574.33	2990.03
574.52	3180.50
574.71	3071.95
574.91	2967.51
575.10	2768.85
575.30	2975.70
575.49	2815.96
575.69	2824.15
575.88	2879.44
576.08	2895.83
576.27	3057.62
576.47	2809.81
576.66	3004.37
576.86	3190.74
577.05	3112.91
577.25	2953.17
577.44	3074.00
577.64	2942.93
577.83	3082.19
578.02	2852.82
578.22	2998.23
578.41	3313.61
578.61	2926.55
578.80	2697.17
579.00	2850.77
579.19	2973.65
579.39	3067.86
579.58	2987.99
579.77	2834.39
579.97	3196.88
580.16	3074.00
580.36	3090.38
580.55	2957.27
580.75	3108.82
580.94	2951.12
581.13	2961.36
581.33	3096.53
581.52	2893.78
581.72	3325.90
581.91	2983.89
582.11	2799.57
582.30	3141.58
582.49	2959.31
582.69	3110.86
582.88	2928.60
583.08	2940.88
583.27	3162.06
583.47	2922.45
583.66	2764.76
583.85	2873.30
584.05	2959.31
584.24	3092.43
584.44	2828.24
584.63	3133.39
584.82	3153.87
585.02	3047.38
585.21	2971.60
585.41	3057.62
585.60	3008.47
585.79	3061.71
585.99	3192.78
586.18	3096.53
586.37	3905.48
586.57	5808.04
586.76	16371.46
586.96	35845.60
587.15	48608.54
587.34	56634.53
587.54	61357.14
587.73	54615.23
587.93	38858.16
588.12	29453.89
588.31	24147.60
588.51	21272.25
588.70	19498.71
588.89	17239.80
589.09	14456.61
589.28	12701.50
589.47	9987.94
589.67	7554.96
589.86	6080.42
590.06	4626.36
590.25	4073.41
590.44	3534.79
590.64	3344.33
590.83	3293.13
591.02	3205.07
591.22	2918.36
591.41	3006.42
591.60	3014.61
591.80	3477.45
591.99	2803.67
592.18	2826.20
592.38	3196.88
592.57	2983.89
592.76	2901.97
592.96	3022.80
593.15	2934.74
593.34	3178.45
593.54	2901.97
593.73	3012.56
593.92	3135.44
594.12	3061.71
594.31	2969.55
594.50	2969.55
594.70	3069.91
594.89	3403.72
595.08	2738.13
595.28	3092.43
595.47	3565.51
595.66	3108.82
595.86	2801.62
596.05	2766.81
596.24	2924.50
596.43	3295.18
596.63	3057.62
596.82	3057.62
597.01	3067.86
597.21	3284.94
597.40	2848.72
597.59	2883.54
597.79	2987.99
597.98	3067.86
598.17	2951.12
598.36	2783.19
598.56	3205.07
598.75	2965.46
598.94	2912.21
599.14	2824.15
599.33	2928.60
599.52	3149.78
599.71	2904.02
599.91	2918.36
600.10	2994.13
600.29	3035.09
600.48	2971.60
600.68	3008.47
600.87	3035.09
601.06	2873.30
601.26	3014.61
601.45	2994.13
601.64	2949.08
601.83	3164.11
602.03	2691.03
602.22	2777.05
602.41	3231.69
602.60	3338.19
602.80	2926.55
602.99	2959.31
603.18	2912.21
603.37	3033.04
603.57	2799.57
603.76	2926.55
603.95	3282.89
604.14	2926.55
604.34	2818.00
604.53	2930.64
604.72	3061.71
604.91	3106.77
605.10	2895.83
605.30	2711.51
605.49	3469.26
605.68	3108.82
605.87	2983.89
606.07	2699.22
606.26	3000.27
606.45	3022.80
606.64	2901.97
606.84	2805.72
607.03	2994.13
607.22	3186.64
607.41	2967.51
607.60	2848.72
607.80	3114.96
607.99	2916.31
608.18	2867.16
608.37	2861.01
608.56	2885.59
608.76	3135.44
608.95	3041.23
609.14	2856.92
609.33	3151.82
609.52	3190.74
609.72	2936.79
609.91	3020.75
610.10	3012.56
610.29	3272.65
610.48	2940.88
610.68	2932.69
610.87	3053.52
611.06	3172.30
611.25	3012.56
611.44	2981.84
611.63	2891.73
611.83	3198.93
612.02	2725.85
612.21	2926.55
612.40	2723.80
612.59	2750.42
612.79	2758.61
612.98	2961.36
613.17	3219.41
613.36	2994.13
613.55	2973.65
613.74	2910.16
613.93	2998.23
614.13	3057.62
614.32	3043.28
614.51	2916.31
614.70	2936.79
614.89	2938.84
615.08	3065.81
615.28	3248.08
615.47	2889.68
615.66	3065.81
615.85	2881.49
616.04	2912.21
616.23	3006.42
616.42	3010.51
616.62	2885.59
616.81	2873.30
617.00	3020.75
617.19	3018.71
617.38	2842.58
617.57	2930.64
617.76	3033.04
617.95	3084.24
618.15	2940.88
618.34	3127.25
618.53	2775.00
618.72	3133.39
618.91	2998.23
619.10	2901.97
619.29	2949.08
619.48	3061.71
619.68	2779.09
619.87	2781.14
620.06	2754.52
620.25	3067.86
620.44	2783.19
620.63	2828.24
620.82	2918.36
621.01	2963.41
621.20	2877.40
621.39	2932.69
621.59	3022.80
621.78	2924.50
621.97	2885.59
622.16	2951.12
622.35	3061.71
622.54	3063.76
622.73	2885.59
622.92	2705.37
623.11	3088.34
623.30	2920.40
623.49	2969.55
623.68	2772.95
623.88	3178.45
624.07	2861.01
624.26	2754.52
624.45	2924.50
624.64	2840.53
624.83	2957.27
625.02	2793.43
625.21	2908.12
625.40	2934.74
625.59	3164.11
625.78	2983.89
625.97	2994.13
626.16	3237.84
626.35	3131.34
626.54	2869.20
626.74	3074.00
626.93	2910.16
627.12	2967.51
627.31	2906.07
627.50	2942.93
627.69	3160.02
627.88	2820.05
628.07	2779.09
628.26	2682.84
628.45	2932.69
628.64	2783.19
628.83	2856.92
629.02	2697.17
629.21	3086.29
629.40	3008.47
629.59	2795.48
629.78	2768.85
629.97	2983.89
630.16	2990.03
630.35	2828.24
630.54	2940.88
630.73	2922.45
630.92	2951.12
631.11	2717.65
631.30	2838.48
631.49	3166.16
631.68	2934.74
631.87	2885.59
632.06	2727.89
632.25	3473.36
632.44	2987.99
632.63	2904.02
632.82	2840.53
633.01	2863.06
633.20	3037.14
633.39	2830.29
633.58	2717.65
633.77	3053.52
633.96	3082.19
634.15	2901.97
634.34	2926.55
634.53	2965.46
634.72	2875.35
634.91	2680.79
635.10	2871.25
635.29	3192.78
635.48	3067.86
635.67	2727.89
635.86	2688.98
636.05	3239.89
636.24	2992.08
636.43	2910.16
636.62	2983.89
636.81	2586.58
637.00	3063.76
637.19	2914.26
637.38	2967.51
637.57	2914.26
637.76	2992.08
637.95	3147.73
638.14	2852.82
638.33	3018.71
638.52	2959.31
638.71	2822.10
638.89	2709.46
639.08	3467.21
639.27	3114.96
639.46	3071.95
639.65	3200.98
639.84	3391.44
640.03	3522.51
640.22	3268.56
640.41	3205.07
640.60	3002.32
640.79	3059.67
640.98	2951.12
641.17	3065.81
641.36	3114.96
641.55	3139.54
641.74	2707.41
641.92	2826.20
642.11	2844.63
642.30	2996.18
642.49	2752.47
642.68	2844.63
642.87	2967.51
643.06	3139.54
643.25	2797.53
643.44	2754.52
643.63	2924.50
643.82	3119.06
644.00	2699.22
644.19	2834.39
644.38	2815.96
644.57	3090.38
644.76	2930.64
644.95	2932.69
645.14	3000.27
645.33	2969.55
645.52	2955.22
645.71	2713.56
645.89	2852.82
646.08	3002.32
646.27	2807.77
646.46	3123.15
646.65	2744.28
646.84	2936.79
647.03	2766.81
647.22	2990.03
647.40	2957.27
647.59	3053.52
647.78	2701.27
647.97	2832.34
648.16	2867.16
648.35	3205.07
648.54	3057.62
648.73	2883.54
648.91	3133.39
649.10	3037.14
649.29	2881.49
649.48	2799.57
649.67	3074.00
649.86	3030.99
650.05	2828.24
650.23	3028.95
650.42	2918.36
650.61	3254.22
650.80	3080.14
650.99	3160.02
651.18	3194.83
651.36	3215.31
651.55	2818.00
651.74	2969.55
651.93	2947.03
652.12	2987.99
652.31	2930.64
652.49	2840.53
652.68	2955.22
652.87	3268.56
653.06	2932.69
653.25	3160.02
653.44	2990.03
653.62	3127.25
653.81	2799.57
654.00	2875.35
654.19	3162.06
654.38	3430.35
654.56	2893.78
654.75	2875.35
654.94	3174.35
655.13	2951.12
655.32	2914.26
655.51	3014.61
655.69	2887.64
655.88	3104.72
656.07	2731.99
656.26	2899.92
656.45	2863.06
656.63	3022.80
656.82	2830.29
657.01	2992.08
657.20	2856.92
657.38	3213.26
657.57	2856.92
657.76	2670.55
657.95	3086.29
658.14	2897.88
658.32	2973.65
658.51	2746.33
658.70	3057.62
658.89	3018.71
659.08	2848.72
659.26	3030.99
659.45	2826.20
659.64	3033.04
659.83	2805.72
660.01	3217.36
660.20	3037.14
660.39	3227.60
660.58	2596.82
660.76	2963.41
660.95	2676.70
661.14	3016.66
661.33	2695.13
661.51	2908.12
661.70	2936.79
661.89	3016.66
662.08	2928.60
662.26	2727.89
662.45	2832.34
662.64	3309.52
662.83	2947.03
663.01	2779.09
663.20	2869.20
663.39	3186.64
663.58	2824.15
663.76	2838.48
663.95	3100.62
664.14	2750.42
664.32	2901.97
664.51	2727.89
664.70	2607.06
664.89	2977.75
665.07	2701.27
665.26	2975.70
665.45	2686.94
665.64	3071.95
665.82	2824.15
666.01	2953.17
666.20	2801.62
666.38	3145.68
666.57	3084.24
666.76	4911.03
666.95	11016.02
667.13	17635.06
667.32	21638.84
667.51	24192.65
667.69	25054.85
667.88	21130.94
668.07	15204.12
668.25	12967.74
668.44	11224.92
668.63	9680.75
668.81	8468.35
669.00	7415.69
669.19	6649.75
669.38	5715.88
669.56	5050.29
669.75	4290.49
669.94	3993.54
670.12	3532.75
670.31	3192.78
670.50	3145.68
670.68	3190.74
670.87	3049.43
671.06	2820.05
671.24	2979.79
671.43	3168.21
671.62	3002.32
671.80	2811.86
671.99	2971.60
672.18	2977.75
672.36	3133.39
672.55	2998.23
672.74	2918.36
672.92	2930.64
673.11	3160.02
673.29	2676.70
673.48	3004.37
673.67	3043.28
673.85	3145.68
674.04	2789.33
674.23	2944.98
674.41	3334.09
674.60	2840.53
674.79	2684.89
674.97	2699.22
675.16	3149.78
675.34	3125.20
675.53	2813.91
675.72	2910.16
675.90	3268.56
676.09	2916.31
676.28	2971.60
676.46	2711.51
676.65	3061.71
676.83	2906.07
677.02	2930.64
677.21	2906.07
677.39	3018.71
677.58	2832.34
677.77	2809.81
677.95	2772.95
678.14	2969.55
678.32	2910.16
678.51	2858.96
678.70	3194.83
678.88	2869.20
679.07	2996.18
679.25	2828.24
679.44	2906.07
679.63	2801.62
679.81	2926.55
680.00	3096.53
680.18	2957.27
680.37	3166.16
680.55	2990.03
680.74	2721.75
680.93	2625.50
681.11	3057.62
681.30	2996.18
681.48	2971.60
681.67	2912.21
681.85	2947.03
682.04	2734.04
682.23	3037.14
682.41	3028.95
682.60	2924.50
682.78	2889.68
682.97	2731.99
683.15	2901.97
683.34	3014.61
683.53	3243.98
683.71	2705.37
683.90	2922.45
684.08	3315.66
684.27	2930.64
684.45	2942.93
684.64	2996.18
684.82	2983.89
685.01	3088.34
685.19	2838.48
685.38	3018.71
685.57	2955.22
685.75	2828.24
685.94	2824.15
686.12	2803.67
686.31	2951.12
686.49	3330.00
686.68	2635.74
686.86	2783.19
687.05	2924.50
687.23	3166.16
687.42	2891.73
687.60	2674.65
687.79	3155.92
687.97	3289.04
688.16	3004.37
688.34	3041.23
688.53	2719.70
688.71	3010.51
688.90	3110.86
689.08	2861.01
689.27	2686.94
689.45	3049.43
689.64	2955.22
689.82	2938.84
690.01	3030.99
690.19	3069.91
690.38	2904.02
690.56	2994.13
690.75	2863.06
690.93	2891.73
691.12	2820.05
691.30	2889.68
691.49	2944.98
691.67	2953.17
691.86	3172.30
692.04	2867.16
692.23	2936.79
692.41	2908.12
692.60	3209.17
692.78	3088.34
692.97	2930.64
693.15	3033.04
693.34	3033.04
693.52	3053.52
693.71	2934.74
693.89	2914.26
694.08	2676.70
694.26	2930.64
694.44	3170.26
694.63	3123.15
694.81	2752.47
695.00	2818.00
695.18	3192.78
695.37	3502.03
695.55	2975.70
695.74	2949.08
695.92	2803.67
696.10	3258.32
696.29	2760.66
696.47	2822.10
696.66	2754.52
696.84	2813.91
697.03	2893.78
697.21	3155.92
697.40	4444.09
697.58	3137.49
697.76	2840.53
697.95	2852.82
698.13	2848.72
698.32	2959.31
698.50	2865.11
698.68	2858.96
698.87	3098.58
699.05	3207.12
699.24	2877.40
699.42	2729.94
699.61	3074.00
699.79	3030.99
699.97	2899.92
700.16	2727.89
700.34	2717.65
700.53	3024.85
700.71	3143.63
700.89	3002.32
701.08	3035.09
701.26	3028.95
701.45	3299.28
701.63	2799.57
701.81	2881.49
702.00	2836.44
702.18	2926.55
702.37	2805.72
702.55	3215.31
702.73	3037.14
702.92	2877.40
703.10	3082.19
703.28	3133.39
703.47	2826.20
703.65	3114.96
703.84	2936.79
704.02	2842.58
704.20	3233.74
704.39	2895.83
704.57	2797.53
704.75	3055.57
704.94	3102.67
705.12	2912.21
705.30	3477.45
705.49	6719.39
705.67	13123.38
705.86	18179.82
706.04	20537.03
706.22	23119.52
706.41	21956.27
706.59	17004.28
706.77	13293.37
706.96	11505.49
707.14	10321.76
707.32	8927.10
707.51	7767.95
707.69	6608.80
707.87	5439.40
708.06	4579.26
708.24	3954.63
708.42	3631.05
708.61	3594.19
708.79	2912.21
708.97	2944.98
709.16	3033.04
709.34	3030.99
709.52	2850.77
709.71	2873.30
709.89	3069.91
710.07	2824.15
710.26	2715.61
710.44	2901.97
710.62	3129.30
710.80	2992.08
710.99	3002.32
711.17	2973.65
711.35	2895.83
711.54	2918.36
711.72	3008.47
711.90	2928.60
712.09	3055.57
712.27	2863.06
712.45	2826.20
712.63	2861.01
712.82	2994.13
713.00	3000.27
713.18	3078.10
713.37	2965.46
713.55	3131.34
713.73	3006.42
713.91	3026.90
714.10	2846.68
714.28	3002.32
714.46	3098.58
714.65	2994.13
714.83	2955.22
715.01	2987.99
715.19	3035.09
715.38	2840.53
715.56	3022.80
715.74	2897.88
715.92	2918.36
716.11	3078.10
716.29	2680.79
716.47	2914.26
716.65	2949.08
716.84	2719.70
717.02	2910.16
717.20	2727.89
717.38	2803.67
717.57	2998.23
717.75	2977.75
717.93	2924.50
718.11	3069.91
718.30	2846.68
718.48	2924.50
718.66	3104.72
718.84	3168.21
719.03	2912.21
719.21	2691.03
719.39	3338.19
719.57	3094.48
719.75	2969.55
719.94	2834.39
720.12	2842.58
720.30	2949.08
720.48	2981.84
720.67	2818.00
720.85	2861.01
721.03	2834.39
721.21	2852.82
721.39	2934.74
721.58	3074.00
721.76	2934.74
721.94	2877.40
722.12	2887.64
722.30	3174.35
722.49	2861.01
722.67	2867.16
722.85	2940.88
723.03	2750.42
723.21	2910.16
723.40	3016.66
723.58	3049.43
723.76	3092.43
723.94	3153.87
724.12	2940.88
724.30	3006.42
724.49	3117.01
724.67	2836.44
724.85	2987.99
725.03	2693.08
725.21	3170.26
725.40	3178.45
725.58	2893.78
725.76	3000.27
725.94	3041.23
726.12	2840.53
726.30	2918.36
726.49	2912.21
726.67	2912.21
726.85	3033.04
727.03	3418.06
727.21	4349.89
727.39	5451.69
727.57	5767.08
727.76	6100.90
727.94	6277.02
728.12	5611.43
728.30	4689.85
728.48	4505.53
728.66	4190.14
728.84	3921.86
729.03	3479.50
729.21	3381.20
729.39	3246.03
729.57	3168.21
729.75	3100.62
729.93	3002.32
730.11	2723.80
730.30	2895.83
730.48	2922.45
730.66	2992.08
730.84	2936.79
731.02	3035.09
731.20	2856.92
731.38	2899.92
731.56	2770.90
731.74	2885.59
731.93	3061.71
732.11	2957.27
732.29	2863.06
732.47	3125.20
732.65	3059.67
732.83	3035.09
733.01	2983.89
733.19	2955.22
733.37	3098.58
733.56	2883.54
733.74	2783.19
733.92	3225.55
734.10	2932.69
734.28	3100.62
734.46	2701.27
734.64	2871.25
734.82	2963.41
735.00	2893.78
735.18	2926.55
735.36	2947.03
735.54	2908.12
735.73	2887.64
735.91	3045.33
736.09	3268.56
736.27	2932.69
736.45	2947.03
736.63	2643.93
736.81	2877.40
736.99	3239.89
737.17	3137.49
737.35	2852.82
737.53	3028.95
737.71	2940.88
737.89	3074.00
738.07	2787.29
738.25	2861.01
738.43	2717.65
738.61	2879.44
738.80	2719.70
738.98	2803.67
739.16	2861.01
739.34	2738.13
739.52	3092.43
739.70	2949.08
739.88	3119.06
740.06	3041.23
740.24	2588.63
740.42	3151.82
740.60	2772.95
740.78	2895.83
740.96	2652.12
741.14	2940.88
741.32	3059.67
741.50	2686.94
741.68	3153.87
741.86	3246.03
742.04	2822.10
742.22	2738.13
742.40	2846.68
742.58	3059.67
742.76	2832.34
742.94	3053.52
743.12	2707.41
743.30	2881.49
743.48	3016.66
743.66	2775.00
743.84	2908.12
744.02	2971.60
744.20	2961.36
744.38	2742.23
744.56	2869.20
744.74	3418.06
744.92	3082.19
745.10	3160.02
745.28	3020.75
745.46	3235.79
745.64	2908.12
745.82	2875.35
746.00	2844.63
746.18	3131.34
746.36	2897.88
746.54	2953.17
746.72	2861.01
746.90	2912.21
747.08	3157.97
747.26	2910.16
747.44	2983.89
747.62	2973.65
747.80	3094.48
747.98	2922.45
748.15	2787.29
748.33	3243.98
748.51	2881.49
748.69	2922.45
748.87	2779.09
749.05	2928.60
749.23	2994.13
749.41	2877.40
749.59	2930.64
749.77	3088.34
749.95	2912.21
750.13	2822.10
750.31	2897.88
750.49	2965.46
750.67	3117.01
750.85	3033.04
751.03	2811.86
751.20	3301.33
751.38	3045.33
751.56	2863.06
751.74	2795.48
751.92	2918.36
752.10	2822.10
752.28	3084.24
752.46	2822.10
752.64	2994.13
752.82	2930.64
753.00	3022.80
753.18	2779.09
753.35	2910.16
753.53	2906.07
753.71	2834.39
753.89	2949.08
754.07	2987.99
754.25	3112.91
754.43	2930.64
754.61	2805.72
754.79	3049.43
754.97	2967.51
755.14	3047.38
755.32	2707.41
755.50	2979.79
755.68	3063.76
755.86	2795.48
756.04	2772.95
756.22	2676.70
756.40	3151.82
756.57	3084.24
756.75	2781.14
756.93	3213.26
757.11	3155.92
757.29	2707.41
757.47	2805.72
757.65	2709.46
757.82	2553.82
758.00	2693.08
758.18	2863.06
758.36	2721.75
758.54	3215.31
758.72	2699.22
758.90	3059.67
759.07	3098.58
759.25	2809.81
759.43	2934.74
759.61	2705.37
759.79	4261.82
759.97	3178.45
760.15	2863.06
760.32	2793.43
760.50	3098.58
760.68	3383.24
760.86	2721.75
761.04	3074.00
761.22	3059.67
761.39	2953.17
761.57	2912.21
761.75	2863.06
761.93	3088.34
762.11	2932.69
762.28	2910.16
762.46	2752.47
762.64	3162.06
762.82	2756.57
763.00	2881.49
763.18	3024.85
763.35	2738.13
763.53	3143.63
763.71	2914.26
763.89	2828.24
764.07	2963.41
764.24	2990.03
764.42	3006.42
764.60	2912.21
764.78	2992.08
764.96	3137.49
765.13	3047.38
765.31	2830.29
765.49	3104.72
765.67	2822.10
765.84	2742.23
766.02	2795.48
766.20	2799.57
766.38	3049.43
766.56	2949.08
766.73	3053.52
766.91	2951.12
767.09	2947.03
767.27	2959.31
767.44	2721.75
767.62	3106.77
767.80	2985.94
767.98	2840.53
768.15	2836.44
768.33	3047.38
768.51	3172.30
768.69	2957.27
768.87	2858.96
769.04	3030.99
769.22	3385.29
769.40	2975.70
769.58	3041.23
769.75	2990.03
769.93	3194.83
770.11	2914.26
770.28	2707.41
770.46	3200.98
770.64	3076.05
770.82	2901.97
770.99	2838.48
771.17	3051.47
771.35	2891.73
771.53	2932.69
771.70	2883.54
771.88	3114.96
772.06	2979.79
772.23	2834.39
772.41	2891.73
772.59	2910.16
772.77	2861.01
772.94	2895.83
773.12	2930.64
773.30	2854.87
773.47	2959.31
773.65	2783.19
773.83	3106.77
774.01	2928.60
774.18	2656.22
774.36	2893.78
774.54	2721.75
774.71	3063.76
774.89	2746.33
775.07	2797.53
775.24	2809.81
775.42	2781.14
775.60	3432.40
775.78	2785.24
775.95	2738.13
776.13	2750.42
776.31	2772.95
776.48	3006.42
776.66	3092.43
776.84	2910.16
777.01	2820.05
777.19	2727.89
777.37	2846.68
777.54	3133.39
777.72	3243.98
777.90	2947.03
778.07	2779.09
778.25	3504.07
778.43	3192.78
778.60	2803.67
778.78	2973.65
778.96	3241.93
779.13	2721.75
779.31	2992.08
779.49	3016.66
779.66	2957.27
779.84	2895.83
780.01	2832.34
780.19	2815.96
780.37	3196.88
780.54	3018.71
780.72	2734.04
780.90	2891.73
781.07	2949.08
781.25	2871.25
781.43	2990.03
781.60	2906.07
781.78	3149.78
781.95	3065.81
782.13	2762.71
782.31	2918.36
782.48	2709.46
782.66	3059.67
782.83	3112.91
783.01	2975.70
783.19	3188.69
783.36	2928.60
783.54	2715.61
783.72	2918.36
783.89	2983.89
784.07	2965.46
784.24	2916.31
784.42	3067.86
784.60	3069.91
784.77	3051.47
784.95	2660.31
785.12	2818.00
785.30	3002.32
785.47	2793.43
785.65	2734.04
785.83	2830.29
786.00	2828.24
786.18	2987.99
786.35	2754.52
786.53	2738.13
786.71	3241.93
786.88	3051.47
787.06	2883.54
787.23	2938.84
787.41	2815.96
787.58	2979.79
787.76	2830.29
787.94	2959.31
788.11	3033.04
788.29	2762.71
788.46	2789.33
788.64	2731.99
788.81	2918.36
788.99	2852.82
789.16	2795.48
789.34	2848.72
789.52	2930.64
789.69	2920.40
789.87	2596.82
790.04	2809.81
790.22	2983.89
790.39	3381.20
790.57	2754.52
790.74	2760.66
790.92	3192.78
791.09	2699.22
791.27	2873.30
791.44	2959.31
791.62	2924.50
791.79	3133.39
791.97	2908.12
792.15	3235.79
792.32	3106.77
792.50	3106.77
792.67	3096.53
792.85	3020.75
793.02	2979.79
793.20	2940.88
793.37	2729.94
793.55	2783.19
793.72	2742.23
793.90	3010.51
794.07	2785.24
794.25	2746.33
794.42	3004.37
794.60	2891.73
794.77	2891.73
794.95	3026.90
795.12	3082.19
795.30	3010.51
795.47	2623.45
795.65	3164.11
795.82	3076.05
796.00	2813.91
796.17	2881.49
796.34	2762.71
796.52	3035.09
796.69	3182.54
796.87	2981.84
797.04	2912.21
797.22	3043.28
797.39	3088.34
797.57	3059.67
797.74	2908.12
797.92	2965.46
798.09	2840.53
798.27	3094.48
798.44	2854.87
798.62	2877.40
798.79	3022.80
798.96	2965.46
799.14	2869.20
799.31	3491.79
799.49	2904.02
799.66	2811.86
799.84	2910.16
800.01	2789.33
800.19	3041.23
800.36	2697.17
800.53	2871.25
800.71	3082.19
800.88	3196.88
801.06	2869.20
801.23	2826.20
801.41	2955.22
801.58	2914.26
801.75	2809.81
801.93	2889.68
802.10	3149.78
802.28	2928.60
802.45	2826.20
802.63	2908.12
802.80	3215.31
802.97	2965.46
803.15	2959.31
803.32	2785.24
803.50	2836.44
803.67	2879.44
803.84	2758.61
804.02	2938.84
804.19	2930.64
804.37	2633.69
804.54	2729.94
804.71	2770.90
804.89	2959.31
805.06	2840.53
805.24	2772.95
805.41	2799.57
805.58	2852.82
805.76	3379.15
805.93	2834.39
806.10	3024.85
806.28	3043.28
806.45	3123.15
806.63	2994.13
806.80	2918.36
806.97	3035.09
807.15	3012.56
807.32	2924.50
807.49	2867.16
807.67	2858.96
807.84	3000.27
808.01	2635.74
808.19	3071.95
808.36	3336.14
808.54	2852.82
808.71	2842.58
808.88	2832.34
809.06	3209.17
809.23	3221.45
809.40	2877.40
809.58	2877.40
809.75	3016.66
809.92	2750.42
810.10	3119.06
810.27	2863.06
810.44	3000.27
810.62	3106.77
810.79	2877.40
810.96	2828.24
811.14	2828.24
811.31	3047.38
811.48	2969.55
811.66	2971.60
811.83	3196.88
812.00	3141.58
812.18	2969.55
812.35	3106.77
812.52	2910.16
812.69	2924.50
812.87	2844.63
813.04	2801.62
813.21	2994.13
813.39	2826.20
813.56	2797.53
813.73	3065.81
813.91	2742.23
814.08	3002.32
814.25	2908.12
814.42	2770.90
814.60	2985.94
814.77	3024.85
814.94	2873.30
815.12	2916.31
815.29	3168.21
815.46	2797.53
815.63	2942.93
815.81	2856.92
815.98	2949.08
816.15	2961.36
816.33	2965.46
816.50	2910.16
816.67	3004.37
816.84	2942.93
817.02	2793.43
817.19	2842.58
817.36	3069.91
817.53	3069.91
817.71	2744.28
817.88	2932.69
818.05	2906.07
818.22	2926.55
818.40	3088.34
818.57	2809.81
818.74	3030.99
818.91	3000.27
819.09	2996.18
819.26	3071.95
819.43	2858.96
819.60	2883.54
819.78	3043.28
819.95	2895.83
820.12	2805.72
820.29	3190.74
820.47	3100.62
820.64	2873.30
820.81	2727.89
820.98	2818.00
821.15	2813.91
821.33	2944.98
821.50	2734.04
821.67	3049.43
821.84	2865.11
822.02	2920.40
822.19	3117.01
822.36	2899.92
822.53	2828.24
822.70	2736.09
822.88	2875.35
823.05	3303.37
823.22	2879.44
823.39	2938.84
823.56	2906.07
823.74	3164.11
823.91	2680.79
824.08	2750.42
824.25	2725.85
824.42	3256.27
824.60	2713.56
824.77	2916.31
824.94	2924.50
825.11	3039.19
825.28	2713.56
825.45	3010.51
825.63	3055.57
825.80	2877.40
825.97	3020.75
826.14	2959.31
826.31	2785.24
826.48	3084.24
826.66	2779.09
826.83	2887.64
827.00	2893.78
827.17	2797.53
827.34	2873.30
827.51	2779.09
827.69	2949.08
827.86	2729.94
828.03	2930.64
828.20	2848.72
828.37	2955.22
828.54	2961.36
828.71	2779.09
828.89	3000.27
829.06	3071.95
829.23	3258.32
829.40	2799.57
829.57	2867.16
829.74	3098.58
829.91	2877.40
830.09	2748.37
830.26	3051.47
830.43	3215.31
830.60	2881.49
830.77	3022.80
830.94	2994.13
831.11	3123.15
831.28	2906.07
831.46	3045.33
831.63	2850.77
831.80	3157.97
831.97	2818.00
832.14	2918.36
832.31	2893.78
832.48	3000.27
832.65	3129.30
832.82	2897.88
832.99	2838.48
833.17	2799.57
833.34	3157.97
833.51	2910.16
833.68	2594.78
833.85	3141.58
834.02	2797.53
834.19	2752.47
834.36	2830.29
834.53	3018.71
834.70	3205.07
834.87	2910.16
835.04	2656.22
835.22	2832.34
835.39	2869.20
835.56	2715.61
835.73	2729.94
835.90	3160.02
836.07	2844.63
836.24	2861.01
836.41	2729.94
836.58	2799.57
836.75	3114.96
836.92	2738.13
837.09	2740.18
837.26	3067.86
837.43	3024.85
837.60	2793.43
837.77	2754.52
837.94	3069.91
838.12	3153.87
838.29	2623.45
838.46	2686.94
838.63	2785.24
838.80	3149.78
838.97	2830.29
839.14	2656.22
839.31	3020.75
839.48	3123.15
839.65	2721.75
839.82	2861.01
839.99	2994.13
840.16	3008.47
840.33	2602.97
840.50	2756.57
840.67	2822.10
840.84	2596.82
841.01	2719.70
841.18	2699.22
841.35	2904.02
841.52	3110.86
841.69	3016.66
841.86	2768.85
842.03	2957.27
842.20	3129.30
842.37	2723.80
842.54	2818.00
842.71	2971.60
842.88	2789.33
843.05	2777.05
843.22	2709.46
843.39	3170.26
843.56	2826.20
843.73	2772.95
843.90	2844.63
844.07	2998.23
844.24	3155.92
844.41	2836.44
844.58	2795.48
844.75	2981.84
844.92	2994.13
845.09	2789.33
845.26	2691.03
845.43	3012.56
845.60	2838.48
845.77	2824.15
845.94	2865.11
846.10	3114.96
846.27	2740.18
846.44	2594.78
846.61	2697.17
846.78	2998.23
846.95	3114.96
847.12	2639.83
847.29	2777.05
847.46	2795.48
847.63	3129.30
847.80	2648.02
847.97	2719.70
848.14	3422.16
848.31	2914.26
848.48	2662.36
848.65	2736.09
848.82	2789.33
848.98	3442.64
849.15	2899.92
849.32	2863.06
849.49	3192.78
849.66	2865.11
849.83	2736.09
850.00	2656.22
850.17	3076.05
850.34	2844.63
850.51	2684.89
850.68	2723.80
850.85	3303.37
851.01	2973.65
851.18	2643.93
851.35	2793.43
851.52	2998.23
851.69	3168.21
851.86	2672.60
852.03	2684.89
852.20	3096.53
852.37	3002.32
852.53	2621.40
852.70	2658.26
852.87	3022.80
853.04	3098.58
853.21	2729.94
853.38	2963.41
853.55	3190.74
853.72	3219.41
853.89	2635.74
854.05	2742.23
854.22	2942.93
854.39	2912.21
854.56	2693.08
854.73	2873.30
854.90	2873.30
855.07	2895.83
855.23	2658.26
855.40	2707.41
855.57	2930.64
855.74	2668.50
855.91	2918.36
856.08	2570.20
856.25	2676.70
856.41	2861.01
856.58	2682.84
856.75	2824.15
856.92	2768.85
857.09	3172.30
857.26	2619.35
857.42	2748.37
857.59	3053.52
857.76	2893.78
857.93	2758.61
858.10	2818.00
858.27	2834.39
858.43	2963.41
858.60	2725.85
858.77	2609.11
858.94	2836.44
859.11	3106.77
859.27	2811.86
859.44	2678.74
859.61	3258.32
859.78	3092.43
859.95	2748.37
860.12	2711.51
860.28	3401.68
860.45	3276.75
860.62	2699.22
860.79	2858.96
860.95	2914.26
861.12	2863.06
861.29	2645.98
861.46	2713.56
861.63	2924.50
861.79	3014.61
861.96	2633.69
862.13	2822.10
862.30	3125.20
862.47	2799.57
862.63	2623.45
862.80	2762.71
862.97	3092.43
863.14	3012.56
863.30	2754.52
863.47	2703.32
863.64	3231.69
863.81	3059.67
863.97	2639.83
864.14	2807.77
864.31	2906.07
864.48	3053.52
864.65	2734.04
864.81	2897.88
864.98	3000.27
865.15	3102.67
865.32	2834.39
865.48	2768.85
865.65	3174.35
865.82	2889.68
865.98	2807.77
866.15	2756.57
866.32	2928.60
866.49	2918.36
866.65	2885.59
866.82	2693.08
866.99	3018.71
867.16	2832.34
867.32	2756.57
867.49	2648.02
867.66	2906.07
867.83	2871.25
867.99	2688.98
868.16	2756.57
868.33	2807.77
868.49	2961.36
868.66	2758.61
868.83	2840.53
868.99	3028.95
869.16	2949.08
869.33	2854.87
869.50	2883.54
869.66	2949.08
869.83	2981.84
870.00	2631.64
870.16	2842.58
870.33	2914.26
870.50	3090.38
870.66	2701.27
870.83	2764.76
871.00	3049.43
871.17	3149.78
871.33	2850.77
871.50	2682.84
871.67	3053.52
871.83	2846.68
872.00	2818.00
872.17	2721.75
872.33	3282.89
872.50	3248.08
872.67	2691.03
872.83	2709.46
873.00	2942.93
873.17	3022.80
873.33	2809.81
873.50	2805.72
873.67	2852.82
873.83	2914.26
874.00	2746.33
874.16	2897.88
874.33	2924.50
874.50	2828.24
874.66	2674.65
874.83	2832.34
875.00	3135.44
875.16	3133.39
875.33	2904.02
875.50	2541.53
875.66	2969.55
875.83	2985.94
875.99	2809.81
876.16	2719.70
876.33	2764.76
876.49	2947.03
876.66	2764.76
876.83	2783.19
876.99	2715.61
877.16	2924.50
877.32	2613.21
877.49	2781.14
877.66	3092.43
877.82	3291.09
877.99	2830.29
878.15	2918.36
878.32	3078.10
878.49	3014.61
878.65	2873.30
878.82	3012.56
878.98	2742.23
879.15	3096.53
879.32	2940.88
879.48	2875.35
879.65	2924.50
879.81	2889.68
879.98	2709.46
880.15	2852.82
880.31	3067.86
880.48	2820.05
880.64	2861.01
880.81	2881.49
880.97	3157.97
881.14	3082.19
881.31	2754.52
881.47	2918.36
881.64	2889.68
881.80	2674.65
881.97	2869.20
882.13	2729.94
882.30	2797.53
882.47	2910.16
882.63	2674.65
882.80	2736.09
882.96	2908.12
883.13	3227.60
883.29	2768.85
883.46	2699.22
883.62	3270.61
883.79	3010.51
883.95	2924.50
884.12	2738.13
884.29	3209.17
884.45	3000.27
884.62	2699.22
884.78	2719.70
884.95	3188.69
885.11	2770.90
885.28	2885.59
885.44	2803.67
885.61	3074.00
885.77	3149.78
885.94	2912.21
886.10	2756.57
886.27	3037.14
886.43	3225.55
886.60	2985.94
886.76	2797.53
886.93	2805.72
887.09	3008.47
887.26	2645.98
887.42	2789.33
887.59	3229.65
887.75	3305.42
887.92	2942.93
888.08	2865.11
888.25	3311.57
888.41	3086.29
888.58	2818.00
888.74	2701.27
888.91	2875.35
>>>>>End Processed Spectral Data<<<<<
