SpectraSuite Data File
++++++++++++++++++++++++++++++++++++
Date: Thu May 05 21:11:16 CEST 2016
User: root
Dark Spectrum Present: No
Reference Spectrum Present: No
Number of Sampled Component Spectra: 1
Spectrometers: USB4C02835
Integration Time (usec): 100000 (USB4C02835)
Spectra Averaged: 1 (USB4C02835)
Boxcar Smoothing: 0 (USB4C02835)
Correct for Electrical Dark: No (USB4C02835)
Strobe/Lamp Enabled: No (USB4C02835)
Correct for Detector Non-linearity: No (USB4C02835)
Correct for Stray Light: No (USB4C02835)
Number of Pixels in Processed Spectrum: 3648
>>>>>Begin Processed Spectral Data<<<<<
177.47	2144.22
177.69	2144.22
177.91	2144.22
178.13	2136.03
178.36	2158.56
178.58	2768.85
178.80	2957.27
179.02	2787.29
179.24	2793.43
179.46	2594.78
179.68	2688.98
179.90	2885.59
180.13	2947.03
180.35	2529.24
180.57	2654.17
180.79	3035.09
181.01	2901.97
181.23	2662.36
181.45	2828.24
181.67	3143.63
181.90	3098.58
182.12	2738.13
182.34	2527.19
182.56	3088.34
182.78	3041.23
183.00	2648.02
183.22	2721.75
183.44	2635.74
183.66	3493.83
183.89	2863.06
184.11	2686.94
184.33	3071.95
184.55	3239.89
184.77	2676.70
184.99	2750.42
185.21	2887.64
185.43	3422.16
185.65	2635.74
185.87	2648.02
186.10	3426.25
186.32	3405.77
186.54	2766.81
186.76	2740.18
186.98	3145.68
187.20	3018.71
187.42	2680.79
187.64	2660.31
187.86	3010.51
188.08	3162.06
188.30	2600.92
188.52	2785.24
188.75	3221.45
188.97	3334.09
189.19	2723.80
189.41	2635.74
189.63	3016.66
189.85	2887.64
190.07	2580.44
190.29	2623.45
190.51	3041.23
190.73	2750.42
190.95	2762.71
191.17	2723.80
191.39	2740.18
191.61	3004.37
191.84	2668.50
192.06	2789.33
192.28	2727.89
192.50	3510.22
192.72	2768.85
192.94	2832.34
193.16	3143.63
193.38	3053.52
193.60	2643.93
193.82	2781.14
194.04	3147.73
194.26	3090.38
194.48	2693.08
194.70	2654.17
194.92	2869.20
195.14	3137.49
195.36	2627.54
195.58	2791.38
195.80	2885.59
196.02	2875.35
196.24	2650.07
196.46	2723.80
196.69	2873.30
196.91	3391.44
197.13	2670.55
197.35	2682.84
197.57	3227.60
197.79	3135.44
198.01	2815.96
198.23	2729.94
198.45	3022.80
198.67	2762.71
198.89	2529.24
199.11	2760.66
199.33	2889.68
199.55	2631.64
199.77	2688.98
199.99	2856.92
200.21	2885.59
200.43	3051.47
200.65	2492.38
200.87	2529.24
201.09	3022.80
201.31	2893.78
201.53	2795.48
201.75	2664.41
201.97	3053.52
202.19	3000.27
202.41	2801.62
202.63	2766.81
202.85	3176.40
203.07	3035.09
203.29	2697.17
203.51	2541.53
203.73	2916.31
203.95	3383.24
204.17	2668.50
204.39	2756.57
204.61	2981.84
204.83	2883.54
205.05	2813.91
205.27	2713.56
205.49	3418.06
205.71	3020.75
205.93	2639.83
206.15	2680.79
206.37	3002.32
206.59	3016.66
206.81	2480.09
207.03	2564.06
207.25	2787.29
207.47	3106.77
207.69	2760.66
207.91	2914.26
208.13	3276.75
208.34	2944.98
208.56	2594.78
208.78	2738.13
209.00	2881.49
209.22	2942.93
209.44	2664.41
209.66	2607.06
209.88	3000.27
210.10	2996.18
210.32	2631.64
210.54	2781.14
210.76	3018.71
210.98	3237.84
211.20	2514.91
211.42	2815.96
211.64	3172.30
211.86	3053.52
212.08	2746.33
212.30	2680.79
212.52	2895.83
212.74	3080.14
212.96	2826.20
213.17	2772.95
213.39	3071.95
213.61	3260.37
213.83	2666.46
214.05	2559.96
214.27	3246.03
214.49	2775.00
214.71	2660.31
214.93	2738.13
215.15	2955.22
215.37	3055.57
215.59	2588.63
215.81	2727.89
216.03	3229.65
216.24	2979.79
216.46	2656.22
216.68	2738.13
216.90	3117.01
217.12	3155.92
217.34	2650.07
217.56	2840.53
217.78	3180.50
218.00	3063.76
218.22	2777.05
218.44	2807.77
218.66	3006.42
218.87	3389.39
219.09	2707.41
219.31	2631.64
219.53	2994.13
219.75	2977.75
219.97	2736.09
220.19	2666.46
220.41	3033.04
220.63	3207.12
220.85	2705.37
221.06	2664.41
221.28	3227.60
221.50	3057.62
221.72	2713.56
221.94	2602.97
222.16	3004.37
222.38	3106.77
222.60	2736.09
222.82	2652.12
223.03	3121.10
223.25	2775.00
223.47	2602.97
223.69	2881.49
223.91	3176.40
224.13	2985.94
224.35	2600.92
224.57	2852.82
224.78	3166.16
225.00	2762.71
225.22	2795.48
225.44	2654.17
225.66	3057.62
225.88	2922.45
226.10	2830.29
226.32	2680.79
226.53	3246.03
226.75	2854.87
226.97	2779.09
227.19	2725.85
227.41	2828.24
227.63	2922.45
227.85	2502.62
228.06	2748.37
228.28	2979.79
228.50	3162.06
228.72	2523.10
228.94	2656.22
229.16	2699.22
229.37	2842.58
229.59	2519.00
229.81	2924.50
230.03	2959.31
230.25	2760.66
230.47	2590.68
230.69	2645.98
230.90	3114.96
231.12	2906.07
231.34	2744.28
231.56	2807.77
231.78	2856.92
232.00	2975.70
232.21	2684.89
232.43	2715.61
232.65	2695.13
232.87	3074.00
233.09	2631.64
233.30	2625.50
233.52	3186.64
233.74	3035.09
233.96	2652.12
234.18	2856.92
234.40	3012.56
234.61	3373.00
234.83	2596.82
235.05	2648.02
235.27	3463.12
235.49	3086.29
235.70	2496.47
235.92	2742.23
236.14	3117.01
236.36	3434.44
236.58	2641.88
236.79	2768.85
237.01	2969.55
237.23	2977.75
237.45	2838.48
237.67	2723.80
237.88	3098.58
238.10	3340.24
238.32	2586.58
238.54	2617.30
238.76	3022.80
238.97	2912.21
239.19	2596.82
239.41	2779.09
239.63	3149.78
239.85	2828.24
240.06	2695.13
240.28	2652.12
240.50	3184.59
240.72	3000.27
240.93	2570.20
241.15	2844.63
241.37	3028.95
241.59	3284.94
241.81	2723.80
242.02	2727.89
242.24	3035.09
242.46	3028.95
242.68	2633.69
242.89	2660.31
243.11	3139.54
243.33	2963.41
243.55	2701.27
243.76	2752.47
243.98	2924.50
244.20	2924.50
244.42	2707.41
244.64	2656.22
244.85	2688.98
245.07	2881.49
245.29	2711.51
245.51	2691.03
245.72	3157.97
245.94	3110.86
246.16	2666.46
246.38	2801.62
246.59	2899.92
246.81	2854.87
247.03	2607.06
247.24	2590.68
247.46	2940.88
247.68	3065.81
247.90	2648.02
248.11	2725.85
248.33	3094.48
248.55	2916.31
248.77	2699.22
248.98	2779.09
249.20	3311.57
249.42	3018.71
249.64	2678.74
249.85	2645.98
250.07	2873.30
250.29	3149.78
250.50	2785.24
250.72	2545.63
250.94	3022.80
251.16	3426.25
251.37	2709.46
251.59	2824.15
251.81	3110.86
252.02	3252.17
252.24	2594.78
252.46	2805.72
252.68	2914.26
252.89	2965.46
253.11	2602.97
253.33	2779.09
253.54	3200.98
253.76	2811.86
253.98	2678.74
254.20	2656.22
254.41	2807.77
254.63	2963.41
254.85	2596.82
255.06	2731.99
255.28	3119.06
255.50	2879.44
255.71	2707.41
255.93	2559.96
256.15	2965.46
256.36	3094.48
256.58	2527.19
256.80	2602.97
257.02	2955.22
257.23	2940.88
257.45	2744.28
257.67	2832.34
257.88	2869.20
258.10	3074.00
258.32	2680.79
258.53	2775.00
258.75	3373.00
258.97	2873.30
259.18	2664.41
259.40	2660.31
259.62	3319.76
259.83	3229.65
260.05	2746.33
260.27	3385.29
260.48	3176.40
260.70	2861.01
260.92	2615.26
261.13	2742.23
261.35	3024.85
261.57	3096.53
261.78	2615.26
262.00	2684.89
262.22	3078.10
262.43	2865.11
262.65	2715.61
262.86	2656.22
263.08	3393.48
263.30	3020.75
263.51	2584.54
263.73	2631.64
263.95	3241.93
264.16	2836.44
264.38	2574.30
264.60	2594.78
264.81	2953.17
265.03	3106.77
265.25	3006.42
265.46	2600.92
265.68	3213.26
265.89	3129.30
266.11	2527.19
266.33	2660.31
266.54	3170.26
266.76	3076.05
266.98	2688.98
267.19	2838.48
267.41	3160.02
267.62	2922.45
267.84	2455.51
268.06	2746.33
268.27	2967.51
268.49	3192.78
268.70	2744.28
268.92	2727.89
269.14	2846.68
269.35	2762.71
269.57	2781.14
269.79	2674.65
270.00	2881.49
270.22	3311.57
270.43	2523.10
270.65	2531.29
270.87	3102.67
271.08	3092.43
271.30	2785.24
271.51	2674.65
271.73	3020.75
271.95	3278.80
272.16	2555.86
272.38	2928.60
272.59	2965.46
272.81	3030.99
273.02	2654.17
273.24	2709.46
273.46	3190.74
273.67	2783.19
273.89	2562.01
274.10	2600.92
274.32	3112.91
274.54	2901.97
274.75	2848.72
274.97	2760.66
275.18	3067.86
275.40	3055.57
275.61	2750.42
275.83	2807.77
276.05	2781.14
276.26	3067.86
276.48	2799.57
276.69	2914.26
276.91	2871.25
277.12	3221.45
277.34	2887.64
277.55	2987.99
277.77	2953.17
277.99	2971.60
278.20	2719.70
278.42	2684.89
278.63	2879.44
278.85	2883.54
279.06	2723.80
279.28	2963.41
279.49	3172.30
279.71	3205.07
279.93	2809.81
280.14	2914.26
280.36	2867.16
280.57	3100.62
280.79	2809.81
281.00	2734.04
281.22	2791.38
281.43	3205.07
281.65	2590.68
281.86	2766.81
282.08	3016.66
282.29	3278.80
282.51	2697.17
282.73	2650.07
282.94	2711.51
283.16	3186.64
283.37	2949.08
283.59	2721.75
283.80	3000.27
284.02	3010.51
284.23	2781.14
284.45	2781.14
284.66	2850.77
284.88	2893.78
285.09	2748.37
285.31	2852.82
285.52	3049.43
285.74	2705.37
285.95	2955.22
286.17	2858.96
286.38	3215.31
286.60	2885.59
286.81	2727.89
287.03	2777.05
287.24	3010.51
287.46	3037.14
287.67	2904.02
287.89	3053.52
288.10	2944.98
288.32	3028.95
288.53	2942.93
288.75	2764.76
288.96	3110.86
289.18	2879.44
289.39	2658.26
289.61	2914.26
289.82	3330.00
290.04	3299.28
290.25	2662.36
290.47	2818.00
290.68	2981.84
290.90	3176.40
291.11	2545.63
291.33	2949.08
291.54	2834.39
291.76	3006.42
291.97	2891.73
292.18	2953.17
292.40	2914.26
292.61	2865.11
292.83	3110.86
293.04	2787.29
293.26	3010.51
293.47	2938.84
293.69	2654.17
293.90	2717.65
294.12	3166.16
294.33	3035.09
294.55	2797.53
294.76	2967.51
294.97	3203.02
295.19	3297.23
295.40	2797.53
295.62	2858.96
295.83	3164.11
296.05	2797.53
296.26	3041.23
296.48	2744.28
296.69	2934.74
296.90	2947.03
297.12	2998.23
297.33	2971.60
297.55	3061.71
297.76	3004.37
297.98	2811.86
298.19	2961.36
298.41	2877.40
298.62	2850.77
298.83	3006.42
299.05	2887.64
299.26	2877.40
299.48	2807.77
299.69	2822.10
299.90	2854.87
300.12	2822.10
300.33	3090.38
300.55	2883.54
300.76	2877.40
300.98	2865.11
301.19	3057.62
301.40	2697.17
301.62	2766.81
301.83	3121.10
302.05	2942.93
302.26	2725.85
302.47	2938.84
302.69	2824.15
302.90	2992.08
303.12	2605.02
303.33	2889.68
303.54	3293.13
303.76	3004.37
303.97	2799.57
304.19	2992.08
304.40	2797.53
304.61	3074.00
304.83	2990.03
305.04	2920.40
305.26	3112.91
305.47	2873.30
305.68	2721.75
305.90	2688.98
306.11	3155.92
306.33	2965.46
306.54	2707.41
306.75	2754.52
306.97	2748.37
307.18	2807.77
307.39	2768.85
307.61	2904.02
307.82	2906.07
308.04	3063.76
308.25	2631.64
308.46	2916.31
308.68	3014.61
308.89	2944.98
309.10	2891.73
309.32	2873.30
309.53	3022.80
309.74	3049.43
309.96	2791.38
310.17	2987.99
310.39	2885.59
310.60	3078.10
310.81	2840.53
311.03	2785.24
311.24	3020.75
311.45	2967.51
311.67	2951.12
311.88	2832.34
312.09	2981.84
312.31	2879.44
312.52	2746.33
312.73	2779.09
312.95	2758.61
313.16	2795.48
313.37	2961.36
313.59	2906.07
313.80	3196.88
314.01	3188.69
314.23	2754.52
314.44	2680.79
314.65	2783.19
314.87	2830.29
315.08	2664.41
315.29	2801.62
315.51	2785.24
315.72	2688.98
315.93	2897.88
316.15	2764.76
316.36	2910.16
316.57	2983.89
316.79	2879.44
317.00	2824.15
317.21	3102.67
317.43	2879.44
317.64	2797.53
317.85	2686.94
318.07	2881.49
318.28	2932.69
318.49	2957.27
318.70	3045.33
318.92	3000.27
319.13	3055.57
319.34	2957.27
319.56	2740.18
319.77	3059.67
319.98	3012.56
320.20	2969.55
320.41	2901.97
320.62	3067.86
320.83	2789.33
321.05	2914.26
321.26	2770.90
321.47	2957.27
321.69	3121.10
321.90	2660.31
322.11	2705.37
322.32	2912.21
322.54	3315.66
322.75	2824.15
322.96	3499.98
323.18	2688.98
323.39	2578.39
323.60	2672.60
323.81	2901.97
324.03	2893.78
324.24	2971.60
324.45	2848.72
324.66	2803.67
324.88	3143.63
325.09	3149.78
325.30	2838.48
325.52	2666.46
325.73	3018.71
325.94	2863.06
326.15	2684.89
326.37	2697.17
326.58	3147.73
326.79	3313.61
327.00	2742.23
327.22	2781.14
327.43	3012.56
327.64	2891.73
327.85	2877.40
328.07	2815.96
328.28	3301.33
328.49	2893.78
328.70	2791.38
328.92	2779.09
329.13	2918.36
329.34	3092.43
329.55	3033.04
329.76	2957.27
329.98	2973.65
330.19	3200.98
330.40	2932.69
330.61	2936.79
330.83	3110.86
331.04	2832.34
331.25	2916.31
331.46	2846.68
331.68	2815.96
331.89	3160.02
332.10	2910.16
332.31	2641.88
332.52	2959.31
332.74	3237.84
332.95	2635.74
333.16	2785.24
333.37	3090.38
333.58	2961.36
333.80	2828.24
334.01	2674.65
334.22	2879.44
334.43	2867.16
334.64	2731.99
334.86	2711.51
335.07	2861.01
335.28	3243.98
335.49	2686.94
335.70	2926.55
335.92	3129.30
336.13	3432.40
336.34	2891.73
336.55	2815.96
336.76	3135.44
336.98	2609.11
337.19	2826.20
337.40	2891.73
337.61	3487.69
337.82	2881.49
338.04	2914.26
338.25	2588.63
338.46	2924.50
338.67	2916.31
338.88	2734.04
339.09	2744.28
339.31	2918.36
339.52	2775.00
339.73	2742.23
339.94	2854.87
340.15	3139.54
340.36	2885.59
340.58	2844.63
340.79	2672.60
341.00	3028.95
341.21	2869.20
341.42	3076.05
341.63	2811.86
341.85	3153.87
342.06	2987.99
342.27	2752.47
342.48	2975.70
342.69	2760.66
342.90	3071.95
343.12	3127.25
343.33	2772.95
343.54	3139.54
343.75	3145.68
343.96	2856.92
344.17	2791.38
344.38	2949.08
344.60	2867.16
344.81	2770.90
345.02	2783.19
345.23	3147.73
345.44	3366.86
345.65	2922.45
345.86	2826.20
346.07	3117.01
346.29	2887.64
346.50	2895.83
346.71	2867.16
346.92	3276.75
347.13	3336.14
347.34	2848.72
347.55	2691.03
347.76	3190.74
347.98	2715.61
348.19	2811.86
348.40	2947.03
348.61	2895.83
348.82	3207.12
349.03	2916.31
349.24	2664.41
349.45	3295.18
349.66	2666.46
349.88	2752.47
350.09	2779.09
350.30	3135.44
350.51	3176.40
350.72	2994.13
350.93	2709.46
351.14	2879.44
351.35	3057.62
351.56	2801.62
351.77	2797.53
351.99	3078.10
352.20	3205.07
352.41	2906.07
352.62	2664.41
352.83	2969.55
353.04	2985.94
353.25	2756.57
353.46	2877.40
353.67	3168.21
353.88	2645.98
354.09	2744.28
354.30	2865.11
354.52	3092.43
354.73	2967.51
354.94	2809.81
355.15	2838.48
355.36	3299.28
355.57	2828.24
355.78	2758.61
355.99	2850.77
356.20	2998.23
356.41	3184.59
356.62	2848.72
356.83	2828.24
357.04	3157.97
357.25	2725.85
357.46	2777.05
357.68	2695.13
357.89	2846.68
358.10	2955.22
358.31	2795.48
358.52	2852.82
358.73	2772.95
358.94	2818.00
359.15	2754.52
359.36	2940.88
359.57	3004.37
359.78	2953.17
359.99	2979.79
360.20	2711.51
360.41	2967.51
360.62	3164.11
360.83	2871.25
361.04	2893.78
361.25	2977.75
361.46	3319.76
361.67	2844.63
361.88	2824.15
362.09	3241.93
362.30	3024.85
362.51	2680.79
362.72	2856.92
362.93	3123.15
363.14	3076.05
363.35	2940.88
363.56	2760.66
363.78	3184.59
363.99	3125.20
364.20	2740.18
364.41	2922.45
364.62	3348.43
364.83	3069.91
365.04	2791.38
365.25	2746.33
365.46	3254.22
365.67	2836.44
365.88	2877.40
366.09	2738.13
366.30	2922.45
366.51	3033.04
366.72	2770.90
366.93	2760.66
367.14	2957.27
367.35	3131.34
367.56	2799.57
367.77	2940.88
367.98	2965.46
368.18	3121.10
368.39	2889.68
368.60	2738.13
368.81	3151.82
369.02	3045.33
369.23	2856.92
369.44	2570.20
369.65	2881.49
369.86	2967.51
370.07	2955.22
370.28	2715.61
370.49	3041.23
370.70	3059.67
370.91	2684.89
371.12	2711.51
371.33	3274.70
371.54	2944.98
371.75	2910.16
371.96	2543.58
372.17	2994.13
372.38	2951.12
372.59	2963.41
372.80	2813.91
373.01	2932.69
373.22	3071.95
373.43	2863.06
373.64	2623.45
373.85	3180.50
374.06	3215.31
374.26	2983.89
374.47	2963.41
374.68	3336.14
374.89	3053.52
375.10	2756.57
375.31	2842.58
375.52	2963.41
375.73	3041.23
375.94	2633.69
376.15	2936.79
376.36	2797.53
376.57	2908.12
376.78	2785.24
376.99	2873.30
377.20	3221.45
377.40	2934.74
377.61	3020.75
377.82	2740.18
378.03	3194.83
378.24	3166.16
378.45	2889.68
378.66	2887.64
378.87	2736.09
379.08	2596.82
379.29	2770.90
379.50	3039.19
379.71	2992.08
379.91	3164.11
380.12	2803.67
380.33	2899.92
380.54	3026.90
380.75	2967.51
380.96	2805.72
381.17	2861.01
381.38	2910.16
381.59	2848.72
381.80	2842.58
382.00	3041.23
382.21	3022.80
382.42	3215.31
382.63	3135.44
382.84	2885.59
383.05	3153.87
383.26	3200.98
383.47	2879.44
383.68	2795.48
383.88	3153.87
384.09	3053.52
384.30	3030.99
384.51	2918.36
384.72	2955.22
384.93	2760.66
385.14	2848.72
385.35	3080.14
385.55	2764.76
385.76	3280.85
385.97	2867.16
386.18	2672.60
386.39	2869.20
386.60	2850.77
386.81	2715.61
387.02	2781.14
387.22	2838.48
387.43	3108.82
387.64	2883.54
387.85	3035.09
388.06	3047.38
388.27	3960.77
388.48	7219.09
388.68	10760.03
388.89	13352.76
389.10	14227.24
389.31	13915.95
389.52	11237.20
389.73	9699.18
389.93	8906.62
390.14	8007.56
390.35	7325.58
390.56	6625.18
390.77	5582.76
390.98	4237.25
391.18	3745.73
391.39	3442.64
391.60	2990.03
391.81	3035.09
392.02	2848.72
392.23	3418.06
392.43	3033.04
392.64	2977.75
392.85	2914.26
393.06	3215.31
393.27	2930.64
393.47	2799.57
393.68	2863.06
393.89	2944.98
394.10	3215.31
394.31	2752.47
394.52	2766.81
394.72	2815.96
394.93	3203.02
395.14	2686.94
395.35	2871.25
395.56	3008.47
395.76	2908.12
395.97	2807.77
396.18	2979.79
396.39	3067.86
396.60	3624.90
396.80	3125.20
397.01	3004.37
397.22	3041.23
397.43	3172.30
397.64	2748.37
397.84	2942.93
398.05	3370.96
398.26	2854.87
398.47	2965.46
398.67	2969.55
398.88	3096.53
399.09	3069.91
399.30	2805.72
399.51	2869.20
399.71	2940.88
399.92	2959.31
400.13	2987.99
400.34	2789.33
400.54	2975.70
400.75	3200.98
400.96	2955.22
401.17	3205.07
401.37	3155.92
401.58	2961.36
401.79	2875.35
402.00	2922.45
402.21	3405.77
402.41	3100.62
402.62	3127.25
402.83	3108.82
403.04	3325.90
403.24	3653.58
403.45	3008.47
403.66	3168.21
403.87	3086.29
404.07	3272.65
404.28	3168.21
404.49	3094.48
404.70	3012.56
404.90	3172.30
405.11	2766.81
405.32	2947.03
405.52	2969.55
405.73	2920.40
405.94	2748.37
406.15	2828.24
406.35	2994.13
406.56	3100.62
406.77	2936.79
406.98	2861.01
407.18	2848.72
407.39	3213.26
407.60	2916.31
407.80	2904.02
408.01	2899.92
408.22	3094.48
408.43	2686.94
408.63	2987.99
408.84	3133.39
409.05	3192.78
409.25	2740.18
409.46	2846.68
409.67	2959.31
409.88	2881.49
410.08	2863.06
410.29	2766.81
410.50	3133.39
410.70	3047.38
410.91	2734.04
411.12	2920.40
411.32	3020.75
411.53	2830.29
411.74	2861.01
411.95	2910.16
412.15	2957.27
412.36	3071.95
412.57	2908.12
412.77	2967.51
412.98	2949.08
413.19	2908.12
413.39	2861.01
413.60	2934.74
413.81	3262.41
414.01	2760.66
414.22	2846.68
414.43	2969.55
414.63	2875.35
414.84	3180.50
415.05	2875.35
415.25	2697.17
415.46	3155.92
415.67	2965.46
415.87	2904.02
416.08	2887.64
416.29	2949.08
416.49	3106.77
416.70	2899.92
416.91	2836.44
417.11	2990.03
417.32	3178.45
417.53	2967.51
417.73	2893.78
417.94	2951.12
418.15	2985.94
418.35	2879.44
418.56	2885.59
418.77	3397.58
418.97	2996.18
419.18	2861.01
419.38	2586.58
419.59	2953.17
419.80	3225.55
420.00	2820.05
420.21	2879.44
420.42	3157.97
420.62	3045.33
420.83	2791.38
421.04	2793.43
421.24	2928.60
421.45	3231.69
421.65	2844.63
421.86	2893.78
422.07	3123.15
422.27	3127.25
422.48	2813.91
422.69	2674.65
422.89	2947.03
423.10	2893.78
423.30	2787.29
423.51	2852.82
423.72	3049.43
423.92	3067.86
424.13	2695.13
424.33	2901.97
424.54	3225.55
424.75	2928.60
424.95	3016.66
425.16	2820.05
425.36	2969.55
425.57	3086.29
425.78	2998.23
425.98	2965.46
426.19	2885.59
426.39	2844.63
426.60	2990.03
426.81	2961.36
427.01	3067.86
427.22	2820.05
427.42	2713.56
427.63	2725.85
427.83	3127.25
428.04	3235.79
428.25	2977.75
428.45	2977.75
428.66	3217.36
428.86	2867.16
429.07	2863.06
429.28	2844.63
429.48	2953.17
429.69	2867.16
429.89	2932.69
430.10	2768.85
430.30	3053.52
430.51	3180.50
430.71	2750.42
430.92	2940.88
431.13	2871.25
431.33	3010.51
431.54	2871.25
431.74	3100.62
431.95	3413.96
432.15	2840.53
432.36	2752.47
432.56	2973.65
432.77	3323.85
432.98	3286.99
433.18	2879.44
433.39	2770.90
433.59	2936.79
433.80	3315.66
434.00	3090.38
434.21	2836.44
434.41	2912.21
434.62	3409.87
434.82	2766.81
435.03	2744.28
435.23	2981.84
435.44	2703.32
435.64	2815.96
435.85	2979.79
436.06	3166.16
436.26	3123.15
436.47	2885.59
436.67	2754.52
436.88	2971.60
437.08	3127.25
437.29	3012.56
437.49	2957.27
437.70	3207.12
437.90	2969.55
438.11	3033.04
438.31	2932.69
438.52	3217.36
438.72	3127.25
438.93	3225.55
439.13	2928.60
439.34	3180.50
439.54	2881.49
439.75	2961.36
439.95	2977.75
440.16	2772.95
440.36	3008.47
440.57	2797.53
440.77	2805.72
440.98	2987.99
441.18	2983.89
441.39	2822.10
441.59	2699.22
441.80	3413.96
442.00	2994.13
442.21	2926.55
442.41	2631.64
442.62	3186.64
442.82	2811.86
443.02	2893.78
443.23	2848.72
443.43	2875.35
443.64	3237.84
443.84	2654.17
444.05	2940.88
444.25	2916.31
444.46	2908.12
444.66	2879.44
444.87	3074.00
445.07	2725.85
445.28	2910.16
445.48	2973.65
445.69	2928.60
445.89	3463.12
446.09	2910.16
446.30	3157.97
446.50	3229.65
446.71	4775.86
446.91	5797.80
447.12	6438.81
447.32	6768.54
447.53	6838.17
447.73	5707.69
447.93	5113.78
448.14	4722.62
448.34	4755.38
448.55	4134.85
448.75	4097.99
448.96	3821.51
449.16	3741.64
449.36	3532.75
449.57	3055.57
449.77	2936.79
449.98	2963.41
450.18	3151.82
450.39	2863.06
450.59	2975.70
450.79	2967.51
451.00	2920.40
451.20	2934.74
451.41	2793.43
451.61	3102.67
451.81	2953.17
452.02	2883.54
452.22	2815.96
452.43	2920.40
452.63	2850.77
452.84	2848.72
453.04	2822.10
453.24	2975.70
453.45	2844.63
453.65	2865.11
453.86	2901.97
454.06	2971.60
454.26	2975.70
454.47	2791.38
454.67	3067.86
454.87	3102.67
455.08	2881.49
455.28	2942.93
455.49	3037.14
455.69	2856.92
455.89	3297.23
456.10	3000.27
456.30	2813.91
456.51	3108.82
456.71	3024.85
456.91	2895.83
457.12	2869.20
457.32	3037.14
457.52	2846.68
457.73	2973.65
457.93	2981.84
458.14	2879.44
458.34	2643.93
458.54	2914.26
458.75	2846.68
458.95	3127.25
459.15	2957.27
459.36	2867.16
459.56	2883.54
459.76	3373.00
459.97	2959.31
460.17	2772.95
460.37	3059.67
460.58	2996.18
460.78	2965.46
460.99	2856.92
461.19	2854.87
461.39	2934.74
461.60	3014.61
461.80	2979.79
462.00	2815.96
462.21	3039.19
462.41	2850.77
462.61	2742.23
462.82	2693.08
463.02	3053.52
463.22	2975.70
463.43	2955.22
463.63	2879.44
463.83	3184.59
464.04	3006.42
464.24	2895.83
464.44	2793.43
464.64	3061.71
464.85	2998.23
465.05	2901.97
465.25	2791.38
465.46	2883.54
465.66	3080.14
465.86	2940.88
466.07	2830.29
466.27	2881.49
466.47	2736.09
466.68	2654.17
466.88	2934.74
467.08	3069.91
467.29	3192.78
467.49	2856.92
467.69	2987.99
467.89	3135.44
468.10	2994.13
468.30	2969.55
468.50	3014.61
468.71	3149.78
468.91	2729.94
469.11	3059.67
469.31	2879.44
469.52	2895.83
469.72	3239.89
469.92	3119.06
470.13	2879.44
470.33	3053.52
470.53	2979.79
470.73	3233.74
470.94	3401.68
471.14	3573.71
471.34	4159.42
471.54	3798.98
471.75	3598.28
471.95	3366.86
472.15	3327.95
472.36	3340.24
472.56	3209.17
472.76	3508.17
472.96	3325.90
473.17	3094.48
473.37	2996.18
473.57	3026.90
473.77	3084.24
473.98	3020.75
474.18	2701.27
474.38	3542.99
474.58	2936.79
474.79	2787.29
474.99	3010.51
475.19	3225.55
475.39	2832.34
475.60	2961.36
475.80	2867.16
476.00	2996.18
476.20	2922.45
476.41	2996.18
476.61	2957.27
476.81	3223.50
477.01	2822.10
477.21	3090.38
477.42	3026.90
477.62	2867.16
477.82	3065.81
478.02	2783.19
478.23	2912.21
478.43	2885.59
478.63	2920.40
478.83	2803.67
479.03	2897.88
479.24	3194.83
479.44	3428.30
479.64	2797.53
479.84	2635.74
480.04	2850.77
480.25	3135.44
480.45	2727.89
480.65	2775.00
480.85	3278.80
481.06	2928.60
481.26	2895.83
481.46	2838.48
481.66	3059.67
481.86	2881.49
482.06	3053.52
482.27	2789.33
482.47	2885.59
482.67	3026.90
482.87	2760.66
483.07	2944.98
483.28	2854.87
483.48	2826.20
483.68	2891.73
483.88	2727.89
484.08	2652.12
484.29	2832.34
484.49	2854.87
484.69	2645.98
484.89	3184.59
485.09	3166.16
485.29	2871.25
485.50	2981.84
485.70	2897.88
485.90	3174.35
486.10	3012.56
486.30	2799.57
486.50	3170.26
486.71	3045.33
486.91	2918.36
487.11	2969.55
487.31	2746.33
487.51	3059.67
487.71	2820.05
487.91	2772.95
488.12	2785.24
488.32	2533.34
488.52	2811.86
488.72	2519.00
488.92	2998.23
489.12	3153.87
489.32	2990.03
489.53	2959.31
489.73	2697.17
489.93	3344.33
490.13	2777.05
490.33	2707.41
490.53	2965.46
490.73	3151.82
490.94	2740.18
491.14	2928.60
491.34	3069.91
491.54	3164.11
491.74	3647.43
491.94	4237.25
492.14	4757.43
492.34	4714.42
492.54	4378.56
492.75	3780.55
492.95	4020.16
493.15	3618.76
493.35	3530.70
493.55	3395.53
493.75	3385.29
493.95	3499.98
494.15	3098.58
494.35	2957.27
494.56	3022.80
494.76	2832.34
494.96	2920.40
495.16	2775.00
495.36	2983.89
495.56	3076.05
495.76	2916.31
495.96	2877.40
496.16	2920.40
496.36	3352.52
496.56	2801.62
496.77	2990.03
496.97	2996.18
497.17	3205.07
497.37	2762.71
497.57	2973.65
497.77	2959.31
497.97	2822.10
498.17	2922.45
498.37	2869.20
498.57	3020.75
498.77	2901.97
498.97	3055.57
499.17	3196.88
499.38	2928.60
499.58	3080.14
499.78	3012.56
499.98	2985.94
500.18	2953.17
500.38	2850.77
500.58	2992.08
500.78	3428.30
500.98	5605.29
501.18	7221.14
501.38	8826.75
501.58	9742.19
501.78	9428.85
501.98	7888.78
502.18	6784.92
502.38	5816.23
502.58	5717.93
502.78	5081.01
502.98	4886.45
503.18	4722.62
503.38	4339.65
503.59	3704.78
503.79	3657.67
503.99	3428.30
504.19	3416.01
504.39	3483.59
504.59	3327.95
504.79	3151.82
504.99	3510.22
505.19	3114.96
505.39	2944.98
505.59	3205.07
505.79	3350.48
505.99	3080.14
506.19	2844.63
506.39	3160.02
506.59	2871.25
506.79	2940.88
506.99	3143.63
507.19	2858.96
507.39	3018.71
507.59	2762.71
507.79	2820.05
507.99	2752.47
508.19	3090.38
508.39	2875.35
508.59	2848.72
508.79	2977.75
508.99	3397.58
509.19	2826.20
509.39	2856.92
509.59	2717.65
509.79	2912.21
509.99	3016.66
510.19	2910.16
510.39	2897.88
510.59	2981.84
510.79	2940.88
510.99	2738.13
511.19	2877.40
511.39	3233.74
511.59	3147.73
511.79	3018.71
511.99	2895.83
512.19	3280.85
512.38	3092.43
512.58	2676.70
512.78	2777.05
512.98	3229.65
513.18	3299.28
513.38	2746.33
513.58	2871.25
513.78	2951.12
513.98	2951.12
514.18	2875.35
514.38	2795.48
514.58	3088.34
514.78	2838.48
514.98	2770.90
515.18	2883.54
515.38	2830.29
515.58	3274.70
515.78	2770.90
515.98	2840.53
516.18	3053.52
516.38	2940.88
516.57	2838.48
516.77	2756.57
516.97	3127.25
517.17	2834.39
517.37	2652.12
517.57	2928.60
517.77	3018.71
517.97	2936.79
518.17	2985.94
518.37	2670.55
518.57	2893.78
518.77	2926.55
518.97	2863.06
519.16	2936.79
519.36	3149.78
519.56	2893.78
519.76	2777.05
519.96	2883.54
520.16	3237.84
520.36	2815.96
520.56	3037.14
520.76	2801.62
520.96	2934.74
521.16	3098.58
521.35	3053.52
521.55	3033.04
521.75	3053.52
521.95	2826.20
522.15	2754.52
522.35	2670.55
522.55	2822.10
522.75	3082.19
522.95	2711.51
523.14	2678.74
523.34	3133.39
523.54	2879.44
523.74	2992.08
523.94	2871.25
524.14	2738.13
524.34	3092.43
524.54	3110.86
524.73	2852.82
524.93	3100.62
525.13	2906.07
525.33	2830.29
525.53	3090.38
525.73	3063.76
525.93	3024.85
526.13	2787.29
526.32	2818.00
526.52	3211.22
526.72	3135.44
526.92	2924.50
527.12	2793.43
527.32	2721.75
527.52	3020.75
527.71	2934.74
527.91	2785.24
528.11	2922.45
528.31	2975.70
528.51	2809.81
528.71	2926.55
528.90	3059.67
529.10	3106.77
529.30	2936.79
529.50	2586.58
529.70	3071.95
529.90	2967.51
530.09	2863.06
530.29	2682.84
530.49	2856.92
530.69	3456.97
530.89	2922.45
531.09	2963.41
531.28	2908.12
531.48	3203.02
531.68	2850.77
531.88	2944.98
532.08	3117.01
532.28	2901.97
532.47	2969.55
532.67	2930.64
532.87	3051.47
533.07	2824.15
533.27	2869.20
533.46	2869.20
533.66	2983.89
533.86	2930.64
534.06	2942.93
534.26	2889.68
534.45	2861.01
534.65	3172.30
534.85	3006.42
535.05	2772.95
535.25	3188.69
535.44	2715.61
535.64	3055.57
535.84	2822.10
536.04	2871.25
536.24	2873.30
536.43	2789.33
536.63	2844.63
536.83	2940.88
537.03	3004.37
537.22	2693.08
537.42	2605.02
537.62	2967.51
537.82	2914.26
538.02	3030.99
538.21	2932.69
538.41	3590.09
538.61	3071.95
538.81	2914.26
539.00	3018.71
539.20	2766.81
539.40	2910.16
539.60	2783.19
539.79	3047.38
539.99	3055.57
540.19	2873.30
540.39	2799.57
540.58	2852.82
540.78	3110.86
540.98	3022.80
541.18	2959.31
541.37	2885.59
541.57	3004.37
541.77	3082.19
541.97	2729.94
542.16	2693.08
542.36	2920.40
542.56	2899.92
542.76	3063.76
542.95	3020.75
543.15	3037.14
543.35	3055.57
543.54	2832.34
543.74	2772.95
543.94	3213.26
544.14	2879.44
544.33	2969.55
544.53	2875.35
544.73	2920.40
544.93	2957.27
545.12	2842.58
545.32	2861.01
545.52	3049.43
545.71	2801.62
545.91	2807.77
546.11	2791.38
546.30	2850.77
546.50	2926.55
546.70	2959.31
546.90	2877.40
547.09	2688.98
547.29	3002.32
547.49	2959.31
547.68	2906.07
547.88	2844.63
548.08	3162.06
548.27	3241.93
548.47	2815.96
548.67	2844.63
548.87	3090.38
549.06	2797.53
549.26	2783.19
549.46	3049.43
549.65	2766.81
549.85	2854.87
550.05	2826.20
550.24	2856.92
550.44	2926.55
550.64	2850.77
550.83	2877.40
551.03	3260.37
551.23	3168.21
551.42	2983.89
551.62	2916.31
551.82	2914.26
552.01	2914.26
552.21	3205.07
552.41	2871.25
552.60	3217.36
552.80	2959.31
553.00	2836.44
553.19	2873.30
553.39	3299.28
553.59	2758.61
553.78	2959.31
553.98	2848.72
554.17	2799.57
554.37	3022.80
554.57	2990.03
554.76	2654.17
554.96	2873.30
555.16	3035.09
555.35	2979.79
555.55	2951.12
555.75	3035.09
555.94	3026.90
556.14	2705.37
556.33	2904.02
556.53	2979.79
556.73	2998.23
556.92	2924.50
557.12	2848.72
557.32	3303.37
557.51	3211.22
557.71	2951.12
557.90	3086.29
558.10	3223.50
558.30	2891.73
558.49	2940.88
558.69	2818.00
558.88	3108.82
559.08	2963.41
559.28	2830.29
559.47	2856.92
559.67	3041.23
559.86	3379.15
560.06	2873.30
560.26	2858.96
560.45	3078.10
560.65	3014.61
560.84	3119.06
561.04	2734.04
561.24	3076.05
561.43	2797.53
561.63	3080.14
561.82	2918.36
562.02	3209.17
562.22	2799.57
562.41	2731.99
562.61	2871.25
562.80	2809.81
563.00	3309.52
563.19	2897.88
563.39	2981.84
563.59	3043.28
563.78	2686.94
563.98	2621.40
564.17	2752.47
564.37	2697.17
564.56	3012.56
564.76	2744.28
564.96	2967.51
565.15	3055.57
565.35	3446.73
565.54	2811.86
565.74	3002.32
565.93	3139.54
566.13	2998.23
566.32	2895.83
566.52	2969.55
566.71	3020.75
566.91	3090.38
567.11	2899.92
567.30	2754.52
567.50	3102.67
567.69	3049.43
567.89	2840.53
568.08	2762.71
568.28	2987.99
568.47	2836.44
568.67	2822.10
568.86	2869.20
569.06	3108.82
569.25	2985.94
569.45	2713.56
569.64	2906.07
569.84	2914.26
570.04	3020.75
570.23	2848.72
570.43	2873.30
570.62	3030.99
570.82	3219.41
571.01	2781.14
571.21	2791.38
571.40	2871.25
571.60	3151.82
571.79	2924.50
571.99	2877.40
572.18	2729.94
572.38	2975.70
572.57	2934.74
572.77	2926.55
572.96	3368.91
573.16	3084.24
573.35	2865.11
573.55	3063.76
573.74	2951.12
573.94	2992.08
574.13	2783.19
574.33	2996.18
574.52	3098.58
574.71	3024.85
574.91	2846.68
575.10	2717.65
575.30	2863.06
575.49	2805.72
575.69	2770.90
575.88	2869.20
576.08	2891.73
576.27	3133.39
576.47	2785.24
576.66	2975.70
576.86	3198.93
577.05	2963.41
577.25	2928.60
577.44	3051.47
577.64	2912.21
577.83	3231.69
578.02	2846.68
578.22	3047.38
578.41	3295.18
578.61	3018.71
578.80	2797.53
579.00	2863.06
579.19	2985.94
579.39	3104.72
579.58	2955.22
579.77	2895.83
579.97	3133.39
580.16	3153.87
580.36	2983.89
580.55	3026.90
580.75	3026.90
580.94	3014.61
581.13	2985.94
581.33	3117.01
581.52	3004.37
581.72	3325.90
581.91	2942.93
582.11	2873.30
582.30	3053.52
582.49	2916.31
582.69	3282.89
582.88	2856.92
583.08	3018.71
583.27	3233.74
583.47	2992.08
583.66	2850.77
583.85	2838.48
584.05	2957.27
584.24	2975.70
584.44	2938.84
584.63	3129.30
584.82	3252.17
585.02	3086.29
585.21	2987.99
585.41	3035.09
585.60	3041.23
585.79	3080.14
585.99	3188.69
586.18	3045.33
586.37	3852.23
586.57	5783.46
586.76	16647.94
586.96	35603.94
587.15	48661.79
587.34	57263.25
587.54	61367.38
587.73	54576.32
587.93	38716.85
588.12	29396.54
588.31	24008.34
588.51	21106.37
588.70	19642.07
588.89	17186.55
589.09	14708.51
589.28	12482.37
589.47	9635.69
589.67	7532.43
589.86	5973.92
590.06	4556.73
590.25	4175.81
590.44	3612.62
590.64	3239.89
590.83	3213.26
591.02	3260.37
591.22	2949.08
591.41	2906.07
591.60	2899.92
591.80	3377.10
591.99	2658.26
592.18	2824.15
592.38	3110.86
592.57	2854.87
592.76	2889.68
592.96	2916.31
593.15	2942.93
593.34	3139.54
593.54	2875.35
593.73	3008.47
593.92	3049.43
594.12	3018.71
594.31	2932.69
594.50	2983.89
594.70	2979.79
594.89	3551.18
595.08	2789.33
595.28	2996.18
595.47	3622.86
595.66	3188.69
595.86	2725.85
596.05	2775.00
596.24	2897.88
596.43	3301.33
596.63	2953.17
596.82	3100.62
597.01	3035.09
597.21	3246.03
597.40	2869.20
597.59	2887.64
597.79	2938.84
597.98	3092.43
598.17	2938.84
598.36	2936.79
598.56	3129.30
598.75	2947.03
598.94	2916.31
599.14	2961.36
599.33	2877.40
599.52	3174.35
599.71	2955.22
599.91	2901.97
600.10	3178.45
600.29	2967.51
600.48	2944.98
600.68	3016.66
600.87	3092.43
601.06	2844.63
601.26	2861.01
601.45	2918.36
601.64	3006.42
601.83	3147.73
602.03	2844.63
602.22	2666.46
602.41	3205.07
602.60	3370.96
602.80	2996.18
602.99	3004.37
603.18	2969.55
603.37	2975.70
603.57	2793.43
603.76	2906.07
603.95	3209.17
604.14	2848.72
604.34	2783.19
604.53	2805.72
604.72	3039.19
604.91	3033.04
605.10	2875.35
605.30	2715.61
605.49	3393.48
605.68	3039.19
605.87	2951.12
606.07	2815.96
606.26	2953.17
606.45	2983.89
606.64	2861.01
606.84	2723.80
607.03	3026.90
607.22	3147.73
607.41	2858.96
607.60	2779.09
607.80	3139.54
607.99	2934.74
608.18	2893.78
608.37	2848.72
608.56	2899.92
608.76	3266.51
608.95	2985.94
609.14	2850.77
609.33	3168.21
609.52	3258.32
609.72	3012.56
609.91	2998.23
610.10	3006.42
610.29	3219.41
610.48	2987.99
610.68	3026.90
610.87	3002.32
611.06	3045.33
611.25	2873.30
611.44	2983.89
611.63	2998.23
611.83	3280.85
612.02	2775.00
612.21	2975.70
612.40	2734.04
612.59	2721.75
612.79	2785.24
612.98	2951.12
613.17	3317.71
613.36	3018.71
613.55	2887.64
613.74	2869.20
613.93	2904.02
614.13	3104.72
614.32	3051.47
614.51	2934.74
614.70	2926.55
614.89	2895.83
615.08	2959.31
615.28	3293.13
615.47	2770.90
615.66	3014.61
615.85	2869.20
616.04	2938.84
616.23	3004.37
616.42	2985.94
616.62	2830.29
616.81	2832.34
617.00	2985.94
617.19	3057.62
617.38	2781.14
617.57	2906.07
617.76	3055.57
617.95	3092.43
618.15	2975.70
618.34	3110.86
618.53	2764.76
618.72	3180.50
618.91	3020.75
619.10	2998.23
619.29	2873.30
619.48	3030.99
619.68	2727.89
619.87	2826.20
620.06	2762.71
620.25	3157.97
620.44	2793.43
620.63	2858.96
620.82	2990.03
621.01	2942.93
621.20	2961.36
621.39	2977.75
621.59	3112.91
621.78	2879.44
621.97	2904.02
622.16	2973.65
622.35	3037.14
622.54	3123.15
622.73	3057.62
622.92	2658.26
623.11	3190.74
623.30	2947.03
623.49	2918.36
623.68	2693.08
623.88	3190.74
624.07	2863.06
624.26	2846.68
624.45	2852.82
624.64	2951.12
624.83	3090.38
625.02	2906.07
625.21	2914.26
625.40	3024.85
625.59	3225.55
625.78	2967.51
625.97	2983.89
626.16	3172.30
626.35	3250.13
626.54	2906.07
626.74	3086.29
626.93	2893.78
627.12	2893.78
627.31	2914.26
627.50	2887.64
627.69	3129.30
627.88	2828.24
628.07	2752.47
628.26	2734.04
628.45	2883.54
628.64	2803.67
628.83	2865.11
629.02	2729.94
629.21	3088.34
629.40	2992.08
629.59	2770.90
629.78	2742.23
629.97	3035.09
630.16	3008.47
630.35	2803.67
630.54	2918.36
630.73	2863.06
630.92	3012.56
631.11	2770.90
631.30	2940.88
631.49	3100.62
631.68	2985.94
631.87	2893.78
632.06	2752.47
632.25	3424.20
632.44	2934.74
632.63	2918.36
632.82	2869.20
633.01	2877.40
633.20	3008.47
633.39	2918.36
633.58	2676.70
633.77	3071.95
633.96	3108.82
634.15	3053.52
634.34	2912.21
634.53	3094.48
634.72	2895.83
634.91	2727.89
635.10	2967.51
635.29	3063.76
635.48	3000.27
635.67	2762.71
635.86	2729.94
636.05	3291.09
636.24	3002.32
636.43	2783.19
636.62	2987.99
636.81	2588.63
637.00	2969.55
637.19	2910.16
637.38	2856.92
637.57	2959.31
637.76	2975.70
637.95	3049.43
638.14	2897.88
638.33	3059.67
638.52	3020.75
638.71	2688.98
638.89	2744.28
639.08	3479.50
639.27	3170.26
639.46	3096.53
639.65	3280.85
639.84	3381.20
640.03	3483.59
640.22	3239.89
640.41	3233.74
640.60	3084.24
640.79	3141.58
640.98	3041.23
641.17	3067.86
641.36	3121.10
641.55	3192.78
641.74	2775.00
641.92	2787.29
642.11	2852.82
642.30	2959.31
642.49	2779.09
642.68	2705.37
642.87	3065.81
643.06	3074.00
643.25	2809.81
643.44	2805.72
643.63	2985.94
643.82	3217.36
644.00	2742.23
644.19	2924.50
644.38	2801.62
644.57	3127.25
644.76	2916.31
644.95	2910.16
645.14	2985.94
645.33	3026.90
645.52	2985.94
645.71	2731.99
645.89	2826.20
646.08	2918.36
646.27	2887.64
646.46	3020.75
646.65	2752.47
646.84	3018.71
647.03	2803.67
647.22	2926.55
647.40	3067.86
647.59	2916.31
647.78	2725.85
647.97	2787.29
648.16	2768.85
648.35	3135.44
648.54	3094.48
648.73	2893.78
648.91	3112.91
649.10	3065.81
649.29	2832.34
649.48	2754.52
649.67	3012.56
649.86	3039.19
650.05	2863.06
650.23	2973.65
650.42	2828.24
650.61	3221.45
650.80	3104.72
650.99	3102.67
651.18	3211.22
651.36	3160.02
651.55	2834.39
651.74	3055.57
651.93	2938.84
652.12	2977.75
652.31	2977.75
652.49	2877.40
652.68	2879.44
652.87	3211.22
653.06	2871.25
653.25	3114.96
653.44	2990.03
653.62	3246.03
653.81	2826.20
654.00	2869.20
654.19	3186.64
654.38	3428.30
654.56	2947.03
654.75	2824.15
654.94	3123.15
655.13	2975.70
655.32	2852.82
655.51	2998.23
655.69	2873.30
655.88	3145.68
656.07	2703.32
656.26	2865.11
656.45	2709.46
656.63	3008.47
656.82	2895.83
657.01	3092.43
657.20	2856.92
657.38	3176.40
657.57	2873.30
657.76	2629.59
657.95	3074.00
658.14	2867.16
658.32	2926.55
658.51	2703.32
658.70	3018.71
658.89	3026.90
659.08	2908.12
659.26	3069.91
659.45	2834.39
659.64	3096.53
659.83	2828.24
660.01	3198.93
660.20	3082.19
660.39	3229.65
660.58	2602.97
660.76	2936.79
660.95	2750.42
661.14	3074.00
661.33	2715.61
661.51	2795.48
661.70	2949.08
661.89	3004.37
662.08	2852.82
662.26	2682.84
662.45	2772.95
662.64	3289.04
662.83	2930.64
663.01	2760.66
663.20	2854.87
663.39	3217.36
663.58	2914.26
663.76	2766.81
663.95	3028.95
664.14	2787.29
664.32	2863.06
664.51	2762.71
664.70	2717.65
664.89	3004.37
665.07	2691.03
665.26	3051.47
665.45	2662.36
665.64	3065.81
665.82	2885.59
666.01	2985.94
666.20	2725.85
666.38	3157.97
666.57	3098.58
666.76	4902.84
666.95	11028.31
667.13	17659.63
667.32	21466.81
667.51	24338.06
667.69	24911.49
667.88	21251.77
668.07	15202.07
668.25	12529.47
668.44	11253.59
668.63	9654.12
668.81	8568.70
669.00	7448.46
669.19	6678.43
669.38	5885.86
669.56	5109.68
669.75	4321.21
669.94	3940.29
670.12	3438.54
670.31	3162.06
670.50	3039.19
670.68	3172.30
670.87	3080.14
671.06	2815.96
671.24	3030.99
671.43	3223.50
671.62	2979.79
671.80	2861.01
671.99	2856.92
672.18	3020.75
672.36	3078.10
672.55	3018.71
672.74	2869.20
672.92	2887.64
673.11	3018.71
673.29	2643.93
673.48	3033.04
673.67	2899.92
673.85	3067.86
674.04	2795.48
674.23	2983.89
674.41	3147.73
674.60	2844.63
674.79	2670.55
674.97	2742.23
675.16	3096.53
675.34	3131.34
675.53	2826.20
675.72	2930.64
675.90	3323.85
676.09	3020.75
676.28	2979.79
676.46	2734.04
676.65	3096.53
676.83	2891.73
677.02	2924.50
677.21	2983.89
677.39	3018.71
677.58	2861.01
677.77	2861.01
677.95	2811.86
678.14	2844.63
678.32	2930.64
678.51	2867.16
678.70	3182.54
678.88	2942.93
679.07	2994.13
679.25	2799.57
679.44	2955.22
679.63	2793.43
679.81	2975.70
680.00	3114.96
680.18	3004.37
680.37	3307.47
680.55	3047.38
680.74	2703.32
680.93	2678.74
681.11	2953.17
681.30	2987.99
681.48	2885.59
681.67	2815.96
681.85	3049.43
682.04	2766.81
682.23	3051.47
682.41	2932.69
682.60	2836.44
682.78	3006.42
682.97	2787.29
683.15	2899.92
683.34	3039.19
683.53	3266.51
683.71	2705.37
683.90	2922.45
684.08	3278.80
684.27	2877.40
684.45	2955.22
684.64	3061.71
684.82	2963.41
685.01	3108.82
685.19	2836.44
685.38	3155.92
685.57	2967.51
685.75	2875.35
685.94	2842.58
686.12	2746.33
686.31	2961.36
686.49	3309.52
686.68	2643.93
686.86	2858.96
687.05	2953.17
687.23	3252.17
687.42	2791.38
687.60	2742.23
687.79	3203.02
687.97	3200.98
688.16	2969.55
688.34	3071.95
688.53	2729.94
688.71	2998.23
688.90	3207.12
689.08	2887.64
689.27	2680.79
689.45	3055.57
689.64	3080.14
689.82	2947.03
690.01	3149.78
690.19	3106.77
690.38	2914.26
690.56	2990.03
690.75	2785.24
690.93	2959.31
691.12	2842.58
691.30	2899.92
691.49	2924.50
691.67	2957.27
691.86	3157.97
692.04	2863.06
692.23	2918.36
692.41	2920.40
692.60	3203.02
692.78	3082.19
692.97	2897.88
693.15	3076.05
693.34	3129.30
693.52	3026.90
693.71	2942.93
693.89	2920.40
694.08	2686.94
694.26	3010.51
694.44	3127.25
694.63	3098.58
694.81	2813.91
695.00	2848.72
695.18	3172.30
695.37	3395.53
695.55	2981.84
695.74	2930.64
695.92	2838.48
696.10	3235.79
696.29	2680.79
696.47	2854.87
696.66	2731.99
696.84	2772.95
697.03	2926.55
697.21	3149.78
697.40	4448.19
697.58	3121.10
697.76	2764.76
697.95	2832.34
698.13	2777.05
698.32	2893.78
698.50	2815.96
698.68	2942.93
698.87	3078.10
699.05	3209.17
699.24	2869.20
699.42	2738.13
699.61	3053.52
699.79	3000.27
699.97	2926.55
700.16	2754.52
700.34	2781.14
700.53	3133.39
700.71	3071.95
700.89	2928.60
701.08	2918.36
701.26	2926.55
701.45	3248.08
701.63	2797.53
701.81	2787.29
702.00	2867.16
702.18	2873.30
702.37	2775.00
702.55	3149.78
702.73	3071.95
702.92	2846.68
703.10	3194.83
703.28	3168.21
703.47	2791.38
703.65	3088.34
703.84	2983.89
704.02	2934.74
704.20	3252.17
704.39	2820.05
704.57	2842.58
704.75	3106.77
704.94	3100.62
705.12	2953.17
705.30	3434.44
705.49	6621.08
705.67	12822.33
705.86	18175.72
706.04	20283.08
706.22	22957.73
706.41	21935.79
706.59	16862.97
706.77	13127.48
706.96	11411.28
707.14	10317.67
707.32	8714.11
707.51	7948.17
707.69	6508.44
707.87	5402.54
708.06	4560.83
708.24	4040.64
708.42	3680.20
708.61	3758.02
708.79	3002.32
708.97	2977.75
709.16	3184.59
709.34	3020.75
709.52	2850.77
709.71	2975.70
709.89	3098.58
710.07	2820.05
710.26	2795.48
710.44	2846.68
710.62	3086.29
710.80	2969.55
710.99	3024.85
711.17	2983.89
711.35	2951.12
711.54	2818.00
711.72	3053.52
711.90	2889.68
712.09	3065.81
712.27	2918.36
712.45	2998.23
712.63	2838.48
712.82	2940.88
713.00	2961.36
713.18	3012.56
713.37	2996.18
713.55	3180.50
713.73	3131.34
713.91	2936.79
714.10	2807.77
714.28	2994.13
714.46	3016.66
714.65	2994.13
714.83	2904.02
715.01	3006.42
715.19	2951.12
715.38	2809.81
715.56	3008.47
715.74	2889.68
715.92	2770.90
716.11	3114.96
716.29	2623.45
716.47	2904.02
716.65	2873.30
716.84	2709.46
717.02	3018.71
717.20	2762.71
717.38	2951.12
717.57	2975.70
717.75	2854.87
717.93	2893.78
718.11	3143.63
718.30	2770.90
718.48	2852.82
718.66	3149.78
718.84	3164.11
719.03	2891.73
719.21	2662.36
719.39	3258.32
719.57	3024.85
719.75	2975.70
719.94	2770.90
720.12	2899.92
720.30	3063.76
720.48	2951.12
720.67	2822.10
720.85	2820.05
721.03	2914.26
721.21	2768.85
721.39	2947.03
721.58	3063.76
721.76	2996.18
721.94	2908.12
722.12	2965.46
722.30	3301.33
722.49	2897.88
722.67	2942.93
722.85	2883.54
723.03	2705.37
723.21	2869.20
723.40	2887.64
723.58	3002.32
723.76	3074.00
723.94	3229.65
724.12	2901.97
724.30	3172.30
724.49	3155.92
724.67	2877.40
724.85	2934.74
725.03	2807.77
725.21	3084.24
725.40	3192.78
725.58	2920.40
725.76	3059.67
725.94	3022.80
726.12	2764.76
726.30	2918.36
726.49	2818.00
726.67	2871.25
726.85	3061.71
727.03	3420.11
727.21	4315.07
727.39	5511.08
727.57	5808.04
727.76	6174.63
727.94	6250.40
728.12	5631.91
728.30	4587.45
728.48	4503.48
728.66	4155.33
728.84	3938.24
729.03	3549.13
729.21	3338.19
729.39	3231.69
729.57	3022.80
729.75	3098.58
729.93	3004.37
730.11	2897.88
730.30	2910.16
730.48	2897.88
730.66	3008.47
730.84	3002.32
731.02	3053.52
731.20	2901.97
731.38	2899.92
731.56	2750.42
731.74	2852.82
731.93	2850.77
732.11	2951.12
732.29	2861.01
732.47	3067.86
732.65	2983.89
732.83	3082.19
733.01	3028.95
733.19	2856.92
733.37	3135.44
733.56	2904.02
733.74	2703.32
733.92	3237.84
734.10	2908.12
734.28	3016.66
734.46	2686.94
734.64	2942.93
734.82	2910.16
735.00	2918.36
735.18	2895.83
735.36	2967.51
735.54	2971.60
735.73	2854.87
735.91	2967.51
736.09	3229.65
736.27	2934.74
736.45	2975.70
736.63	2674.65
736.81	2820.05
736.99	3121.10
737.17	3149.78
737.35	2758.61
737.53	3047.38
737.71	3022.80
737.89	3143.63
738.07	2854.87
738.25	2889.68
738.43	2682.84
738.61	2846.68
738.80	2795.48
738.98	2754.52
739.16	2830.29
739.34	2811.86
739.52	3176.40
739.70	2901.97
739.88	3076.05
740.06	3004.37
740.24	2549.72
740.42	3162.06
740.60	2709.46
740.78	2940.88
740.96	2672.60
741.14	2951.12
741.32	3010.51
741.50	2734.04
741.68	3090.38
741.86	3248.08
742.04	2838.48
742.22	2877.40
742.40	2897.88
742.58	3043.28
742.76	2836.44
742.94	3018.71
743.12	2650.07
743.30	2908.12
743.48	3117.01
743.66	2736.09
743.84	2885.59
744.02	2953.17
744.20	2887.64
744.38	2815.96
744.56	2842.58
744.74	3299.28
744.92	3000.27
745.10	3094.48
745.28	2983.89
745.46	3321.81
745.64	2994.13
745.82	2998.23
746.00	2805.72
746.18	3026.90
746.36	2879.44
746.54	2928.60
746.72	2926.55
746.90	2826.20
747.08	3205.07
747.26	2842.58
747.44	2985.94
747.62	3030.99
747.80	3012.56
747.98	2979.79
748.15	2856.92
748.33	3303.37
748.51	3016.66
748.69	2951.12
748.87	2717.65
749.05	2979.79
749.23	2938.84
749.41	2883.54
749.59	2822.10
749.77	3137.49
749.95	2910.16
750.13	2904.02
750.31	3010.51
750.49	2938.84
750.67	3059.67
750.85	3057.62
751.03	2889.68
751.20	3319.76
751.38	2979.79
751.56	2908.12
751.74	2840.53
751.92	2994.13
752.10	2809.81
752.28	2992.08
752.46	2910.16
752.64	2979.79
752.82	2967.51
753.00	2979.79
753.18	2861.01
753.35	2877.40
753.53	2990.03
753.71	2856.92
753.89	2901.97
754.07	3041.23
754.25	3157.97
754.43	3030.99
754.61	2789.33
754.79	3112.91
754.97	2914.26
755.14	3117.01
755.32	2693.08
755.50	2951.12
755.68	3069.91
755.86	2803.67
756.04	2813.91
756.22	2721.75
756.40	3198.93
756.57	3112.91
756.75	2869.20
756.93	3160.02
757.11	3100.62
757.29	2762.71
757.47	2805.72
757.65	2746.33
757.82	2641.88
758.00	2752.47
758.18	2897.88
758.36	2779.09
758.54	3260.37
758.72	2707.41
758.90	3049.43
759.07	2983.89
759.25	2858.96
759.43	2908.12
759.61	2693.08
759.79	4171.71
759.97	3119.06
760.15	2746.33
760.32	2877.40
760.50	3086.29
760.68	3295.18
760.86	2762.71
761.04	3086.29
761.22	3112.91
761.39	2914.26
761.57	2910.16
761.75	2826.20
761.93	2983.89
762.11	2994.13
762.28	2961.36
762.46	2750.42
762.64	3104.72
762.82	2686.94
763.00	2891.73
763.18	3094.48
763.35	2834.39
763.53	3082.19
763.71	2873.30
763.89	2863.06
764.07	2977.75
764.24	2975.70
764.42	3090.38
764.60	2861.01
764.78	3033.04
764.96	3094.48
765.13	3047.38
765.31	2828.24
765.49	3092.43
765.67	2779.09
765.84	2830.29
766.02	2736.09
766.20	2719.70
766.38	3037.14
766.56	2965.46
766.73	2990.03
766.91	2985.94
767.09	2990.03
767.27	2922.45
767.44	2754.52
767.62	3096.53
767.80	3035.09
767.98	2793.43
768.15	2801.62
768.33	3127.25
768.51	3149.78
768.69	3028.95
768.87	2910.16
769.04	2940.88
769.22	3327.95
769.40	3014.61
769.58	3028.95
769.75	3112.91
769.93	3145.68
770.11	2889.68
770.28	2766.81
770.46	3135.44
770.64	3004.37
770.82	2863.06
770.99	2797.53
771.17	3117.01
771.35	2990.03
771.53	2844.63
771.70	2818.00
771.88	3078.10
772.06	2983.89
772.23	2897.88
772.41	2865.11
772.59	2850.77
772.77	2676.70
772.94	2852.82
773.12	2947.03
773.30	2899.92
773.47	3067.86
773.65	2811.86
773.83	2967.51
774.01	3014.61
774.18	2672.60
774.36	2865.11
774.54	2695.13
774.71	3053.52
774.89	2691.03
775.07	2768.85
775.24	2768.85
775.42	2928.60
775.60	3309.52
775.78	2758.61
775.95	2811.86
776.13	2678.74
776.31	2623.45
776.48	3000.27
776.66	3020.75
776.84	2856.92
777.01	2789.33
777.19	2756.57
777.37	2795.48
777.54	3114.96
777.72	3264.46
777.90	2996.18
778.07	2861.01
778.25	3606.47
778.43	3127.25
778.60	2793.43
778.78	2922.45
778.96	3188.69
779.13	2738.13
779.31	2942.93
779.49	2897.88
779.66	2967.51
779.84	2899.92
780.01	2830.29
780.19	2785.24
780.37	3145.68
780.54	3074.00
780.72	2725.85
780.90	2871.25
781.07	2969.55
781.25	2904.02
781.43	3033.04
781.60	2854.87
781.78	3243.98
781.95	3014.61
782.13	2768.85
782.31	2871.25
782.48	2652.12
782.66	2992.08
782.83	3002.32
783.01	2969.55
783.19	3080.14
783.36	2850.77
783.54	2721.75
783.72	2961.36
783.89	2869.20
784.07	3030.99
784.24	2979.79
784.42	3016.66
784.60	2963.41
784.77	3063.76
784.95	2619.35
785.12	2840.53
785.30	3069.91
785.47	2799.57
785.65	2693.08
785.83	2869.20
786.00	2918.36
786.18	3016.66
786.35	2809.81
786.53	2750.42
786.71	3203.02
786.88	3090.38
787.06	2963.41
787.23	2955.22
787.41	2727.89
787.58	3030.99
787.76	2834.39
787.94	2852.82
788.11	3078.10
788.29	2701.27
788.46	2871.25
788.64	2721.75
788.81	2930.64
788.99	2811.86
789.16	2719.70
789.34	2949.08
789.52	2883.54
789.69	2865.11
789.87	2596.82
790.04	2891.73
790.22	3051.47
790.39	3301.33
790.57	2758.61
790.74	2736.09
790.92	3112.91
791.09	2756.57
791.27	2938.84
791.44	2856.92
791.62	2883.54
791.79	3045.33
791.97	2844.63
792.15	3252.17
792.32	3080.14
792.50	3112.91
792.67	3057.62
792.85	3102.67
793.02	3092.43
793.20	2947.03
793.37	2680.79
793.55	2787.29
793.72	2746.33
793.90	3094.48
794.07	2777.05
794.25	2795.48
794.42	2987.99
794.60	2858.96
794.77	2938.84
794.95	2977.75
795.12	3102.67
795.30	2994.13
795.47	2682.84
795.65	3207.12
795.82	2992.08
796.00	2791.38
796.17	2922.45
796.34	2797.53
796.52	3067.86
796.69	3086.29
796.87	2938.84
797.04	2963.41
797.22	3098.58
797.39	3018.71
797.57	3041.23
797.74	2971.60
797.92	3022.80
798.09	2873.30
798.27	3106.77
798.44	2813.91
798.62	2922.45
798.79	3033.04
798.96	2975.70
799.14	2865.11
799.31	3405.77
799.49	3008.47
799.66	2834.39
799.84	2875.35
800.01	2758.61
800.19	3010.51
800.36	2766.81
800.53	2871.25
800.71	3110.86
800.88	3254.22
801.06	2826.20
801.23	2869.20
801.41	2936.79
801.58	2871.25
801.75	2873.30
801.93	2908.12
802.10	3135.44
802.28	3047.38
802.45	2811.86
802.63	3006.42
802.80	3162.06
802.97	2848.72
803.15	2873.30
803.32	2811.86
803.50	2715.61
803.67	2850.77
803.84	2770.90
804.02	2942.93
804.19	3002.32
804.37	2619.35
804.54	2725.85
804.71	2856.92
804.89	3028.95
805.06	2795.48
805.24	2772.95
805.41	2750.42
805.58	2826.20
805.76	3393.48
805.93	2832.34
806.10	3024.85
806.28	3123.15
806.45	3051.47
806.63	2947.03
806.80	2869.20
806.97	3061.71
807.15	2975.70
807.32	2906.07
807.49	2887.64
807.67	2748.37
807.84	3065.81
808.01	2705.37
808.19	3071.95
808.36	3305.42
808.54	2807.77
808.71	2871.25
808.88	2908.12
809.06	3182.54
809.23	3178.45
809.40	2809.81
809.58	2869.20
809.75	2924.50
809.92	2848.72
810.10	3186.64
810.27	2846.68
810.44	3022.80
810.62	3055.57
810.79	2893.78
810.96	2813.91
811.14	2940.88
811.31	3026.90
811.48	3078.10
811.66	2922.45
811.83	3133.39
812.00	3114.96
812.18	2969.55
812.35	3164.11
812.52	2910.16
812.69	2867.16
812.87	2820.05
813.04	2815.96
813.21	2994.13
813.39	2742.23
813.56	2807.77
813.73	3104.72
813.91	2701.27
814.08	2834.39
814.25	2883.54
814.42	2695.13
814.60	2891.73
814.77	3024.85
814.94	2822.10
815.12	2973.65
815.29	3307.47
815.46	2873.30
815.63	2848.72
815.81	2795.48
815.98	2904.02
816.15	2887.64
816.33	2895.83
816.50	2893.78
816.67	3055.57
816.84	2912.21
817.02	2688.98
817.19	2932.69
817.36	2940.88
817.53	3028.95
817.71	2818.00
817.88	2901.97
818.05	2922.45
818.22	2879.44
818.40	3035.09
818.57	2770.90
818.74	2977.75
818.91	3026.90
819.09	3053.52
819.26	2949.08
819.43	2805.72
819.60	2838.48
819.78	2998.23
819.95	2928.60
820.12	2834.39
820.29	3192.78
820.47	3110.86
820.64	2846.68
820.81	2731.99
820.98	2844.63
821.15	2834.39
821.33	2998.23
821.50	2719.70
821.67	3071.95
821.84	2861.01
822.02	2908.12
822.19	3096.53
822.36	2908.12
822.53	2883.54
822.70	2674.65
822.88	2904.02
823.05	3211.22
823.22	2920.40
823.39	2975.70
823.56	2953.17
823.74	3262.41
823.91	2691.03
824.08	2740.18
824.25	2832.34
824.42	3264.46
824.60	2695.13
824.77	2930.64
824.94	3012.56
825.11	3065.81
825.28	2670.55
825.45	2985.94
825.63	3088.34
825.80	2781.14
825.97	2969.55
826.14	2949.08
826.31	2664.41
826.48	3102.67
826.66	2838.48
826.83	2856.92
827.00	2869.20
827.17	2836.44
827.34	2883.54
827.51	2787.29
827.69	2934.74
827.86	2713.56
828.03	2875.35
828.20	2901.97
828.37	2918.36
828.54	3057.62
828.71	2750.42
828.89	2965.46
829.06	3004.37
829.23	3274.70
829.40	2863.06
829.57	2793.43
829.74	3106.77
829.91	2834.39
830.09	2736.09
830.26	2947.03
830.43	3225.55
830.60	2899.92
830.77	2947.03
830.94	2994.13
831.11	3047.38
831.28	2863.06
831.46	2932.69
831.63	2836.44
831.80	3119.06
831.97	2752.47
832.14	2881.49
832.31	2928.60
832.48	2983.89
832.65	3184.59
832.82	2883.54
832.99	2912.21
833.17	2772.95
833.34	3203.02
833.51	2846.68
833.68	2562.01
833.85	3176.40
834.02	2801.62
834.19	2713.56
834.36	2807.77
834.53	2961.36
834.70	3053.52
834.87	2889.68
835.04	2682.84
835.22	2824.15
835.39	2871.25
835.56	2691.03
835.73	2674.65
835.90	3145.68
836.07	2836.44
836.24	2897.88
836.41	2707.41
836.58	2828.24
836.75	3127.25
836.92	2793.43
837.09	2584.54
837.26	3071.95
837.43	2947.03
837.60	2883.54
837.77	2828.24
837.94	3028.95
838.12	3143.63
838.29	2678.74
838.46	2674.65
838.63	2785.24
838.80	3307.47
838.97	2785.24
839.14	2662.36
839.31	2928.60
839.48	3180.50
839.65	2680.79
839.82	2736.09
839.99	2895.83
840.16	3004.37
840.33	2666.46
840.50	2713.56
840.67	2836.44
840.84	2631.64
841.01	2734.04
841.18	2672.60
841.35	2922.45
841.52	3024.85
841.69	3047.38
841.86	2772.95
842.03	2906.07
842.20	3155.92
842.37	2684.89
842.54	2844.63
842.71	3041.23
842.88	2750.42
843.05	2723.80
843.22	2688.98
843.39	3088.34
843.56	2877.40
843.73	2721.75
843.90	2766.81
844.07	2981.84
844.24	3063.76
844.41	2822.10
844.58	2752.47
844.75	2940.88
844.92	3051.47
845.09	2766.81
845.26	2721.75
845.43	3102.67
845.60	2889.68
845.77	2846.68
845.94	2879.44
846.10	3127.25
846.27	2770.90
846.44	2623.45
846.61	2650.07
846.78	2951.12
846.95	3141.58
847.12	2740.18
847.29	2758.61
847.46	2805.72
847.63	3033.04
847.80	2723.80
847.97	2750.42
848.14	3313.61
848.31	2930.64
848.48	2666.46
848.65	2781.14
848.82	2811.86
848.98	3403.72
849.15	2826.20
849.32	2805.72
849.49	3155.92
849.66	2930.64
849.83	2777.05
850.00	2748.37
850.17	3178.45
850.34	2869.20
850.51	2723.80
850.68	2752.47
850.85	3391.44
851.01	2983.89
851.18	2809.81
851.35	2842.58
851.52	3018.71
851.69	3200.98
851.86	2715.61
852.03	2785.24
852.20	3114.96
852.37	3020.75
852.53	2629.59
852.70	2645.98
852.87	2990.03
853.04	3153.87
853.21	2789.33
853.38	2981.84
853.55	3229.65
853.72	3170.26
853.89	2598.87
854.05	2709.46
854.22	2944.98
854.39	2867.16
854.56	2711.51
854.73	2887.64
854.90	2795.48
855.07	2932.69
855.23	2678.74
855.40	2648.02
855.57	2844.63
855.74	2672.60
855.91	2955.22
856.08	2627.54
856.25	2731.99
856.41	2848.72
856.58	2766.81
856.75	2734.04
856.92	2752.47
857.09	3129.30
857.26	2566.10
857.42	2836.44
857.59	3051.47
857.76	2928.60
857.93	2699.22
858.10	2879.44
858.27	2799.57
858.43	3053.52
858.60	2748.37
858.77	2574.30
858.94	2787.29
859.11	3061.71
859.27	2748.37
859.44	2629.59
859.61	3286.99
859.78	3200.98
859.95	2717.65
860.12	2641.88
860.28	3321.81
860.45	3248.08
860.62	2707.41
860.79	2795.48
860.95	2912.21
861.12	2824.15
861.29	2672.60
861.46	2760.66
861.63	2924.50
861.79	3030.99
861.96	2656.22
862.13	2762.71
862.30	3246.03
862.47	2818.00
862.63	2652.12
862.80	2848.72
862.97	3096.53
863.14	3098.58
863.30	2775.00
863.47	2693.08
863.64	3231.69
863.81	3014.61
863.97	2629.59
864.14	2791.38
864.31	2912.21
864.48	3055.57
864.65	2764.76
864.81	2838.48
864.98	2994.13
865.15	3076.05
865.32	2877.40
865.48	2832.34
865.65	3286.99
865.82	2895.83
865.98	2826.20
866.15	2795.48
866.32	2942.93
866.49	2947.03
866.65	2928.60
866.82	2691.03
866.99	2926.55
867.16	2844.63
867.32	2744.28
867.49	2740.18
867.66	2992.08
867.83	2852.82
867.99	2688.98
868.16	2721.75
868.33	2768.85
868.49	3010.51
868.66	2734.04
868.83	2879.44
868.99	2994.13
869.16	2992.08
869.33	2916.31
869.50	2775.00
869.66	3065.81
869.83	2987.99
870.00	2652.12
870.16	2914.26
870.33	2940.88
870.50	3172.30
870.66	2789.33
870.83	2846.68
871.00	2834.39
871.17	3135.44
871.33	2854.87
871.50	2697.17
871.67	2912.21
871.83	2873.30
872.00	2846.68
872.17	2699.22
872.33	3209.17
872.50	3235.79
872.67	2783.19
872.83	2762.71
873.00	3030.99
873.17	2985.94
873.33	2883.54
873.50	2828.24
873.67	2881.49
873.83	2809.81
874.00	2758.61
874.16	2924.50
874.33	2994.13
874.50	2828.24
874.66	2805.72
874.83	2836.44
875.00	3172.30
875.16	3147.73
875.33	2867.16
875.50	2488.28
875.66	2836.44
875.83	3008.47
875.99	2834.39
876.16	2777.05
876.33	2756.57
876.49	2949.08
876.66	2844.63
876.83	2754.52
876.99	2719.70
877.16	2996.18
877.32	2750.42
877.49	2754.52
877.66	3039.19
877.82	3190.74
877.99	2830.29
878.15	2863.06
878.32	3065.81
878.49	3010.51
878.65	2793.43
878.82	3061.71
878.98	2963.41
879.15	3209.17
879.32	2949.08
879.48	2848.72
879.65	2867.16
879.81	2873.30
879.98	2740.18
880.15	2754.52
880.31	3078.10
880.48	2803.67
880.64	2838.48
880.81	2805.72
880.97	3270.61
881.14	3196.88
881.31	2691.03
881.47	2920.40
881.64	2846.68
881.80	2717.65
881.97	2895.83
882.13	2789.33
882.30	2709.46
882.47	2867.16
882.63	2742.23
882.80	2717.65
882.96	2951.12
883.13	3213.26
883.29	2746.33
883.46	2664.41
883.62	3348.43
883.79	2969.55
883.95	2934.74
884.12	2668.50
884.29	3188.69
884.45	3020.75
884.62	2805.72
884.78	2719.70
884.95	3233.74
885.11	2775.00
885.28	2863.06
885.44	2783.19
885.61	3071.95
885.77	3186.64
885.94	2881.49
886.10	2762.71
886.27	3047.38
886.43	3268.56
886.60	2959.31
886.76	2709.46
886.93	2768.85
887.09	2981.84
887.26	2600.92
887.42	2779.09
887.59	3069.91
887.75	3418.06
887.92	2971.60
888.08	2934.74
888.25	3313.61
888.41	3067.86
888.58	2879.44
888.74	2648.02
888.91	2912.21
>>>>>End Processed Spectral Data<<<<<
