SpectraSuite Data File
++++++++++++++++++++++++++++++++++++
Date: Thu May 05 21:11:17 CEST 2016
User: root
Dark Spectrum Present: No
Reference Spectrum Present: No
Number of Sampled Component Spectra: 1
Spectrometers: USB4C02835
Integration Time (usec): 100000 (USB4C02835)
Spectra Averaged: 1 (USB4C02835)
Boxcar Smoothing: 0 (USB4C02835)
Correct for Electrical Dark: No (USB4C02835)
Strobe/Lamp Enabled: No (USB4C02835)
Correct for Detector Non-linearity: No (USB4C02835)
Correct for Stray Light: No (USB4C02835)
Number of Pixels in Processed Spectrum: 3648
>>>>>Begin Processed Spectral Data<<<<<
177.47	2129.89
177.69	2129.89
177.91	2129.89
178.13	2133.98
178.36	2123.74
178.58	2789.33
178.80	2908.12
179.02	2746.33
179.24	2775.00
179.46	2570.20
179.68	2725.85
179.90	2934.74
180.13	3006.42
180.35	2529.24
180.57	2697.17
180.79	3061.71
181.01	2916.31
181.23	2678.74
181.45	2830.29
181.67	3076.05
181.90	3129.30
182.12	2764.76
182.34	2516.95
182.56	3119.06
182.78	3012.56
183.00	2656.22
183.22	2725.85
183.44	2613.21
183.66	3522.51
183.89	2842.58
184.11	2656.22
184.33	3043.28
184.55	3157.97
184.77	2666.46
184.99	2762.71
185.21	2940.88
185.43	3379.15
185.65	2688.98
185.87	2619.35
186.10	3293.13
186.32	3362.76
186.54	2764.76
186.76	2760.66
186.98	3151.82
187.20	3002.32
187.42	2721.75
187.64	2643.93
187.86	3080.14
188.08	3082.19
188.30	2607.06
188.52	2750.42
188.75	3174.35
188.97	3114.96
189.19	2709.46
189.41	2699.22
189.63	3114.96
189.85	2967.51
190.07	2566.10
190.29	2490.33
190.51	2985.94
190.73	2701.27
190.95	2916.31
191.17	2738.13
191.39	2731.99
191.61	2932.69
191.84	2688.98
192.06	2813.91
192.28	2672.60
192.50	3536.84
192.72	2838.48
192.94	2787.29
193.16	3114.96
193.38	3041.23
193.60	2551.77
193.82	2838.48
194.04	3143.63
194.26	2969.55
194.48	2660.31
194.70	2658.26
194.92	2944.98
195.14	3104.72
195.36	2623.45
195.58	2779.09
195.80	2996.18
196.02	2881.49
196.24	2682.84
196.46	2736.09
196.69	2922.45
196.91	3370.96
197.13	2770.90
197.35	2703.32
197.57	3280.85
197.79	3051.47
198.01	2764.76
198.23	2703.32
198.45	3086.29
198.67	2820.05
198.89	2592.73
199.11	2777.05
199.33	2869.20
199.55	2625.50
199.77	2670.55
199.99	2777.05
200.21	2963.41
200.43	3012.56
200.65	2463.71
200.87	2549.72
201.09	3010.51
201.31	2969.55
201.53	2744.28
201.75	2729.94
201.97	3002.32
202.19	3016.66
202.41	2688.98
202.63	2756.57
202.85	3086.29
203.07	3002.32
203.29	2779.09
203.51	2688.98
203.73	2924.50
203.95	3493.83
204.17	2662.36
204.39	2820.05
204.61	2944.98
204.83	2861.01
205.05	2875.35
205.27	2703.32
205.49	3395.53
205.71	2922.45
205.93	2635.74
206.15	2566.10
206.37	3024.85
206.59	3037.14
206.81	2475.99
207.03	2553.82
207.25	2891.73
207.47	3192.78
207.69	2766.81
207.91	2906.07
208.13	3188.69
208.34	2893.78
208.56	2568.15
208.78	2746.33
209.00	2959.31
209.22	2881.49
209.44	2723.80
209.66	2658.26
209.88	3051.47
210.10	2828.24
210.32	2623.45
210.54	2758.61
210.76	2947.03
210.98	3182.54
211.20	2531.29
211.42	2822.10
211.64	3178.45
211.86	3024.85
212.08	2672.60
212.30	2600.92
212.52	2893.78
212.74	3016.66
212.96	2748.37
213.17	2795.48
213.39	3221.45
213.61	3286.99
213.83	2676.70
214.05	2490.33
214.27	3166.16
214.49	2820.05
214.71	2562.01
214.93	2742.23
215.15	2992.08
215.37	3147.73
215.59	2621.40
215.81	2803.67
216.03	3227.60
216.24	2955.22
216.46	2703.32
216.68	2779.09
216.90	3168.21
217.12	3155.92
217.34	2660.31
217.56	2805.72
217.78	3266.51
218.00	3049.43
218.22	2805.72
218.44	2828.24
218.66	2992.08
218.87	3411.92
219.09	2709.46
219.31	2691.03
219.53	2947.03
219.75	2918.36
219.97	2625.50
220.19	2623.45
220.41	2938.84
220.63	3276.75
220.85	2693.08
221.06	2717.65
221.28	3223.50
221.50	3039.19
221.72	2729.94
221.94	2572.25
222.16	3018.71
222.38	3096.53
222.60	2713.56
222.82	2740.18
223.03	3164.11
223.25	2729.94
223.47	2701.27
223.69	2918.36
223.91	3166.16
224.13	2992.08
224.35	2570.20
224.57	2838.48
224.78	3176.40
225.00	2828.24
225.22	2688.98
225.44	2648.02
225.66	3084.24
225.88	2842.58
226.10	2846.68
226.32	2682.84
226.53	3260.37
226.75	3002.32
226.97	2719.70
227.19	2680.79
227.41	2885.59
227.63	2906.07
227.85	2492.38
228.06	2760.66
228.28	2930.64
228.50	3145.68
228.72	2586.58
228.94	2656.22
229.16	2682.84
229.37	2797.53
229.59	2613.21
229.81	2959.31
230.03	2971.60
230.25	2793.43
230.47	2525.15
230.69	2668.50
230.90	3219.41
231.12	2811.86
231.34	2750.42
231.56	2756.57
231.78	2734.04
232.00	2996.18
232.21	2772.95
232.43	2789.33
232.65	2650.07
232.87	3061.71
233.09	2547.67
233.30	2629.59
233.52	3127.25
233.74	3002.32
233.96	2664.41
234.18	2848.72
234.40	2940.88
234.61	3411.92
234.83	2613.21
235.05	2656.22
235.27	3465.16
235.49	3149.78
235.70	2568.15
235.92	2676.70
236.14	3090.38
236.36	3450.83
236.58	2574.30
236.79	2807.77
237.01	2895.83
237.23	2969.55
237.45	2811.86
237.67	2709.46
237.88	3014.61
238.10	3342.28
238.32	2650.07
238.54	2668.50
238.76	3016.66
238.97	2861.01
239.19	2650.07
239.41	2772.95
239.63	3196.88
239.85	2932.69
240.06	2688.98
240.28	2625.50
240.50	3147.73
240.72	3018.71
240.93	2645.98
241.15	2795.48
241.37	2971.60
241.59	3266.51
241.81	2695.13
242.02	2787.29
242.24	2969.55
242.46	3098.58
242.68	2549.72
242.89	2650.07
243.11	3037.14
243.33	2971.60
243.55	2709.46
243.76	2779.09
243.98	2877.40
244.20	2910.16
244.42	2607.06
244.64	2703.32
244.85	2811.86
245.07	2863.06
245.29	2705.37
245.51	2707.41
245.72	3041.23
245.94	3178.45
246.16	2631.64
246.38	2768.85
246.59	2863.06
246.81	2846.68
247.03	2602.97
247.24	2514.91
247.46	3010.51
247.68	3049.43
247.90	2605.02
248.11	2686.94
248.33	3151.82
248.55	2893.78
248.77	2752.47
248.98	2748.37
249.20	3274.70
249.42	3080.14
249.64	2705.37
249.85	2656.22
250.07	2926.55
250.29	3117.01
250.50	2803.67
250.72	2557.91
250.94	3104.72
251.16	3393.48
251.37	2611.16
251.59	2740.18
251.81	3049.43
252.02	3262.41
252.24	2621.40
252.46	2820.05
252.68	2768.85
252.89	2863.06
253.11	2629.59
253.33	2871.25
253.54	3260.37
253.76	2779.09
253.98	2664.41
254.20	2619.35
254.41	2793.43
254.63	2983.89
254.85	2557.91
255.06	2688.98
255.28	3074.00
255.50	2924.50
255.71	2611.16
255.93	2523.10
256.15	2959.31
256.36	2934.74
256.58	2566.10
256.80	2631.64
257.02	3033.04
257.23	2961.36
257.45	2676.70
257.67	2770.90
257.88	2891.73
258.10	3082.19
258.32	2660.31
258.53	2758.61
258.75	3352.52
258.97	2856.92
259.18	2543.58
259.40	2645.98
259.62	3260.37
259.83	3178.45
260.05	2645.98
260.27	3483.59
260.48	3198.93
260.70	2795.48
260.92	2611.16
261.13	2734.04
261.35	3100.62
261.57	3082.19
261.78	2580.44
262.00	2656.22
262.22	3030.99
262.43	2877.40
262.65	2641.88
262.86	2770.90
263.08	3475.40
263.30	2973.65
263.51	2541.53
263.73	2625.50
263.95	3332.05
264.16	2828.24
264.38	2619.35
264.60	2611.16
264.81	2959.31
265.03	3260.37
265.25	3076.05
265.46	2627.54
265.68	3286.99
265.89	3078.10
266.11	2596.82
266.33	2674.65
266.54	3198.93
266.76	3127.25
266.98	2791.38
267.19	2871.25
267.41	3147.73
267.62	2938.84
267.84	2598.87
268.06	2801.62
268.27	3039.19
268.49	3239.89
268.70	2760.66
268.92	2678.74
269.14	2756.57
269.35	2729.94
269.57	2785.24
269.79	2723.80
270.00	2838.48
270.22	3305.42
270.43	2559.96
270.65	2568.15
270.87	2979.79
271.08	3172.30
271.30	2836.44
271.51	2766.81
271.73	3080.14
271.95	3190.74
272.16	2629.59
272.38	2842.58
272.59	2887.64
272.81	3088.34
273.02	2643.93
273.24	2779.09
273.46	3133.39
273.67	2830.29
273.89	2547.67
274.10	2662.36
274.32	3145.68
274.54	3092.43
274.75	2680.79
274.97	2713.56
275.18	3074.00
275.40	3108.82
275.61	2668.50
275.83	2846.68
276.05	2764.76
276.26	2949.08
276.48	2709.46
276.69	2801.62
276.91	2908.12
277.12	3252.17
277.34	2813.91
277.55	2971.60
277.77	3004.37
277.99	2996.18
278.20	2791.38
278.42	2650.07
278.63	2842.58
278.85	2797.53
279.06	2672.60
279.28	2904.02
279.49	3166.16
279.71	3084.24
279.93	2801.62
280.14	2893.78
280.36	2807.77
280.57	3117.01
280.79	2971.60
281.00	2676.70
281.22	2889.68
281.43	3205.07
281.65	2602.97
281.86	2701.27
282.08	3080.14
282.29	3323.85
282.51	2615.26
282.73	2658.26
282.94	2729.94
283.16	3233.74
283.37	2887.64
283.59	2848.72
283.80	3069.91
284.02	3078.10
284.23	2830.29
284.45	2793.43
284.66	2856.92
284.88	2897.88
285.09	2693.08
285.31	2990.03
285.52	3043.28
285.74	2785.24
285.95	2947.03
286.17	2848.72
286.38	3127.25
286.60	2844.63
286.81	2731.99
287.03	2752.47
287.24	3037.14
287.46	3076.05
287.67	2881.49
287.89	3030.99
288.10	3033.04
288.32	2965.46
288.53	3016.66
288.75	2865.11
288.96	3151.82
289.18	3018.71
289.39	2709.46
289.61	2811.86
289.82	3254.22
290.04	3286.99
290.25	2715.61
290.47	2750.42
290.68	3016.66
290.90	3166.16
291.11	2602.97
291.33	2875.35
291.54	2875.35
291.76	2867.16
291.97	2893.78
292.18	2897.88
292.40	2891.73
292.61	2934.74
292.83	3114.96
293.04	2822.10
293.26	3024.85
293.47	2885.59
293.69	2756.57
293.90	2674.65
294.12	3080.14
294.33	2961.36
294.55	2848.72
294.76	2969.55
294.97	3176.40
295.19	3327.95
295.40	2818.00
295.62	2891.73
295.83	3170.26
296.05	2793.43
296.26	2981.84
296.48	2803.67
296.69	3012.56
296.90	2932.69
297.12	2920.40
297.33	2899.92
297.55	3002.32
297.76	3104.72
297.98	2928.60
298.19	2955.22
298.41	2895.83
298.62	2813.91
298.83	2969.55
299.05	2881.49
299.26	2975.70
299.48	2811.86
299.69	2973.65
299.90	2770.90
300.12	2897.88
300.33	3117.01
300.55	2844.63
300.76	2924.50
300.98	2875.35
301.19	3135.44
301.40	2828.24
301.62	2775.00
301.83	3164.11
302.05	2987.99
302.26	2754.52
302.47	2877.40
302.69	2795.48
302.90	3037.14
303.12	2648.02
303.33	2951.12
303.54	3311.57
303.76	2910.16
303.97	2756.57
304.19	3035.09
304.40	2854.87
304.61	3028.95
304.83	2981.84
305.04	2969.55
305.26	3153.87
305.47	2869.20
305.68	2826.20
305.90	2623.45
306.11	3192.78
306.33	2942.93
306.54	2709.46
306.75	2752.47
306.97	2768.85
307.18	2764.76
307.39	2740.18
307.61	2867.16
307.82	2947.03
308.04	3074.00
308.25	2717.65
308.46	2947.03
308.68	3026.90
308.89	2957.27
309.10	2891.73
309.32	2867.16
309.53	3059.67
309.74	3047.38
309.96	2740.18
310.17	2930.64
310.39	2985.94
310.60	3084.24
310.81	2830.29
311.03	2674.65
311.24	3057.62
311.45	2887.64
311.67	3039.19
311.88	2885.59
312.09	2918.36
312.31	2838.48
312.52	2734.04
312.73	2791.38
312.95	2709.46
313.16	2789.33
313.37	2992.08
313.59	2899.92
313.80	3121.10
314.01	3254.22
314.23	2768.85
314.44	2676.70
314.65	2793.43
314.87	2854.87
315.08	2764.76
315.29	2869.20
315.51	2826.20
315.72	2801.62
315.93	2949.08
316.15	2844.63
316.36	2936.79
316.57	3045.33
316.79	2793.43
317.00	2770.90
317.21	3223.50
317.43	2858.96
317.64	2920.40
317.85	2723.80
318.07	2828.24
318.28	2963.41
318.49	2861.01
318.70	2998.23
318.92	3000.27
319.13	3067.86
319.34	2940.88
319.56	2875.35
319.77	3051.47
319.98	3176.40
320.20	3035.09
320.41	2965.46
320.62	3074.00
320.83	2754.52
321.05	3043.28
321.26	2818.00
321.47	3026.90
321.69	3147.73
321.90	2754.52
322.11	2752.47
322.32	2975.70
322.54	3291.09
322.75	2842.58
322.96	3561.42
323.18	2719.70
323.39	2621.40
323.60	2748.37
323.81	2881.49
324.03	2957.27
324.24	3004.37
324.45	2885.59
324.66	2777.05
324.88	3241.93
325.09	3268.56
325.30	2750.42
325.52	2793.43
325.73	3012.56
325.94	2854.87
326.15	2639.83
326.37	2668.50
326.58	3147.73
326.79	3311.57
327.00	2617.30
327.22	2793.43
327.43	2934.74
327.64	2803.67
327.85	2928.60
328.07	2815.96
328.28	3334.09
328.49	2873.30
328.70	2813.91
328.92	2793.43
329.13	2899.92
329.34	2983.89
329.55	2977.75
329.76	2981.84
329.98	2938.84
330.19	3205.07
330.40	2826.20
330.61	2940.88
330.83	3137.49
331.04	2807.77
331.25	2889.68
331.46	2908.12
331.68	2727.89
331.89	3180.50
332.10	2912.21
332.31	2631.64
332.52	2906.07
332.74	3211.22
332.95	2609.11
333.16	2772.95
333.37	3129.30
333.58	2854.87
333.80	2830.29
334.01	2570.20
334.22	2942.93
334.43	2914.26
334.64	2682.84
334.86	2668.50
335.07	2815.96
335.28	3264.46
335.49	2709.46
335.70	2879.44
335.92	3180.50
336.13	3356.62
336.34	2852.82
336.55	2760.66
336.76	3090.38
336.98	2693.08
337.19	2818.00
337.40	2975.70
337.61	3532.75
337.82	2967.51
338.04	2924.50
338.25	2623.45
338.46	3008.47
338.67	2910.16
338.88	2648.02
339.09	2770.90
339.31	2947.03
339.52	2772.95
339.73	2777.05
339.94	2815.96
340.15	3082.19
340.36	2887.64
340.58	2889.68
340.79	2754.52
341.00	3129.30
341.21	2856.92
341.42	3076.05
341.63	2832.34
341.85	3147.73
342.06	2973.65
342.27	2779.09
342.48	2942.93
342.69	2772.95
342.90	3094.48
343.12	3076.05
343.33	2760.66
343.54	3166.16
343.75	3221.45
343.96	2871.25
344.17	2721.75
344.38	2934.74
344.60	2826.20
344.81	2713.56
345.02	2787.29
345.23	3192.78
345.44	3499.98
345.65	2881.49
345.86	2877.40
346.07	3084.24
346.29	2938.84
346.50	2947.03
346.71	2871.25
346.92	3321.81
347.13	3321.81
347.34	2848.72
347.55	2641.88
347.76	2967.51
347.98	2707.41
348.19	2787.29
348.40	3039.19
348.61	2947.03
348.82	3241.93
349.03	2854.87
349.24	2736.09
349.45	3383.24
349.66	2713.56
349.88	2803.67
350.09	2713.56
350.30	3151.82
350.51	3176.40
350.72	2987.99
350.93	2772.95
351.14	2904.02
351.35	3055.57
351.56	2797.53
351.77	2887.64
351.99	3053.52
352.20	3248.08
352.41	2981.84
352.62	2715.61
352.83	2912.21
353.04	2994.13
353.25	2820.05
353.46	2883.54
353.67	3131.34
353.88	2725.85
354.09	2746.33
354.30	2813.91
354.52	3125.20
354.73	2926.55
354.94	2746.33
355.15	2799.57
355.36	3252.17
355.57	2914.26
355.78	2750.42
355.99	2828.24
356.20	2987.99
356.41	3266.51
356.62	2848.72
356.83	2912.21
357.04	3256.27
357.25	2770.90
357.46	2789.33
357.68	2654.17
357.89	2885.59
358.10	2928.60
358.31	2766.81
358.52	2889.68
358.73	2805.72
358.94	2863.06
359.15	2789.33
359.36	2801.62
359.57	2934.74
359.78	2887.64
359.99	2998.23
360.20	2738.13
360.41	2869.20
360.62	3033.04
360.83	2947.03
361.04	2858.96
361.25	3059.67
361.46	3200.98
361.67	2840.53
361.88	2795.48
362.09	3168.21
362.30	3014.61
362.51	2748.37
362.72	2811.86
362.93	3084.24
363.14	3108.82
363.35	2832.34
363.56	2703.32
363.78	3256.27
363.99	3166.16
364.20	2772.95
364.41	2850.77
364.62	3373.00
364.83	3014.61
365.04	2818.00
365.25	2828.24
365.46	3309.52
365.67	2922.45
365.88	2965.46
366.09	2746.33
366.30	2951.12
366.51	3037.14
366.72	2707.41
366.93	2779.09
367.14	2975.70
367.35	3280.85
367.56	2752.47
367.77	2975.70
367.98	2971.60
368.18	3024.85
368.39	2901.97
368.60	2721.75
368.81	3194.83
369.02	3051.47
369.23	2842.58
369.44	2688.98
369.65	2930.64
369.86	3006.42
370.07	2840.53
370.28	2754.52
370.49	3014.61
370.70	3008.47
370.91	2674.65
371.12	2686.94
371.33	3221.45
371.54	2818.00
371.75	2949.08
371.96	2525.15
372.17	3117.01
372.38	2992.08
372.59	2770.90
372.80	2813.91
373.01	2906.07
373.22	3053.52
373.43	2803.67
373.64	2734.04
373.85	3248.08
374.06	3254.22
374.26	3006.42
374.47	2844.63
374.68	3243.98
374.89	3016.66
375.10	2731.99
375.31	2904.02
375.52	2957.27
375.73	2987.99
375.94	2691.03
376.15	2897.88
376.36	2863.06
376.57	2879.44
376.78	2789.33
376.99	2887.64
377.20	3147.73
377.40	2975.70
377.61	3176.40
377.82	2701.27
378.03	3346.38
378.24	3059.67
378.45	2893.78
378.66	2914.26
378.87	2680.79
379.08	2746.33
379.29	2877.40
379.50	3016.66
379.71	2959.31
379.91	3106.77
380.12	2783.19
380.33	2901.97
380.54	3051.47
380.75	2920.40
380.96	2828.24
381.17	2875.35
381.38	2957.27
381.59	3067.86
381.80	2805.72
382.00	2932.69
382.21	2959.31
382.42	3239.89
382.63	3057.62
382.84	2971.60
383.05	3143.63
383.26	3284.94
383.47	3000.27
383.68	2793.43
383.88	3061.71
384.09	2977.75
384.30	3090.38
384.51	2904.02
384.72	2881.49
384.93	2752.47
385.14	2918.36
385.35	3039.19
385.55	2791.38
385.76	3170.26
385.97	2828.24
386.18	2660.31
386.39	2781.14
386.60	2869.20
386.81	2813.91
387.02	2660.31
387.22	2758.61
387.43	3076.05
387.64	2850.77
387.85	3090.38
388.06	2983.89
388.27	4057.03
388.48	7219.09
388.68	10794.84
388.89	13330.23
389.10	14448.42
389.31	13928.24
389.52	11183.96
389.73	9414.51
389.93	8769.40
390.14	7962.50
390.35	7249.81
390.56	6666.14
390.77	5558.19
390.98	4315.07
391.18	3743.69
391.39	3450.83
391.60	3022.80
391.81	3053.52
392.02	2873.30
392.23	3409.87
392.43	2949.08
392.64	3000.27
392.85	2926.55
393.06	3225.55
393.27	2934.74
393.47	2807.77
393.68	2858.96
393.89	2834.39
394.10	3125.20
394.31	2824.15
394.52	2846.68
394.72	2850.77
394.93	3289.04
395.14	2742.23
395.35	2904.02
395.56	2916.31
395.76	2975.70
395.97	2854.87
396.18	2953.17
396.39	3020.75
396.60	3575.75
396.80	3145.68
397.01	3024.85
397.22	3030.99
397.43	3203.02
397.64	2768.85
397.84	2957.27
398.05	3350.48
398.26	2936.79
398.47	2969.55
398.67	3014.61
398.88	2992.08
399.09	3100.62
399.30	2746.33
399.51	2928.60
399.71	2856.92
399.92	2895.83
400.13	2930.64
400.34	2836.44
400.54	2992.08
400.75	3192.78
400.96	2975.70
401.17	3096.53
401.37	3063.76
401.58	2965.46
401.79	2820.05
402.00	3045.33
402.21	3432.40
402.41	3153.87
402.62	3125.20
402.83	3303.37
403.04	3309.52
403.24	3655.62
403.45	2969.55
403.66	3135.44
403.87	3157.97
404.07	3248.08
404.28	3067.86
404.49	3088.34
404.70	3078.10
404.90	3145.68
405.11	2822.10
405.32	2975.70
405.52	2908.12
405.73	2914.26
405.94	2688.98
406.15	2901.97
406.35	3100.62
406.56	3104.72
406.77	2885.59
406.98	2848.72
407.18	2832.34
407.39	3284.94
407.60	2824.15
407.80	2918.36
408.01	2871.25
408.22	3024.85
408.43	2787.29
408.63	2975.70
408.84	3094.48
409.05	3110.86
409.25	2682.84
409.46	2885.59
409.67	2944.98
409.88	2916.31
410.08	2871.25
410.29	2738.13
410.50	3129.30
410.70	3096.53
410.91	2752.47
411.12	2912.21
411.32	3026.90
411.53	2797.53
411.74	2893.78
411.95	2961.36
412.15	2996.18
412.36	3045.33
412.57	2863.06
412.77	3076.05
412.98	2834.39
413.19	2920.40
413.39	2865.11
413.60	2899.92
413.81	3074.00
414.01	2738.13
414.22	2891.73
414.43	3055.57
414.63	2932.69
414.84	3065.81
415.05	2768.85
415.25	2672.60
415.46	3094.48
415.67	2842.58
415.87	2861.01
416.08	2863.06
416.29	2975.70
416.49	3069.91
416.70	2867.16
416.91	2844.63
417.11	2908.12
417.32	3117.01
417.53	2842.58
417.73	2922.45
417.94	2938.84
418.15	2983.89
418.35	2895.83
418.56	2838.48
418.77	3444.68
418.97	2951.12
419.18	2846.68
419.38	2543.58
419.59	2949.08
419.80	3229.65
420.00	2803.67
420.21	2901.97
420.42	3182.54
420.62	3123.15
420.83	2873.30
421.04	2861.01
421.24	2961.36
421.45	3114.96
421.65	2879.44
421.86	2818.00
422.07	3049.43
422.27	3067.86
422.48	2740.18
422.69	2680.79
422.89	2998.23
423.10	2846.68
423.30	2799.57
423.51	2834.39
423.72	3012.56
423.92	3114.96
424.13	2785.24
424.33	2899.92
424.54	3137.49
424.75	2971.60
424.95	3090.38
425.16	2746.33
425.36	3020.75
425.57	3139.54
425.78	2977.75
425.98	2936.79
426.19	2924.50
426.39	2754.52
426.60	2963.41
426.81	3008.47
427.01	3074.00
427.22	2858.96
427.42	2668.50
427.63	2787.29
427.83	3102.67
428.04	3256.27
428.25	2934.74
428.45	2947.03
428.66	3217.36
428.86	2908.12
429.07	2908.12
429.28	2873.30
429.48	3026.90
429.69	2871.25
429.89	2996.18
430.10	2772.95
430.30	3196.88
430.51	3139.54
430.71	2815.96
430.92	2897.88
431.13	2992.08
431.33	3018.71
431.54	2961.36
431.74	3033.04
431.95	3321.81
432.15	2791.38
432.36	2861.01
432.56	2965.46
432.77	3303.37
432.98	3301.33
433.18	2904.02
433.39	2779.09
433.59	2932.69
433.80	3354.57
434.00	3098.58
434.21	2863.06
434.41	2856.92
434.62	3438.54
434.82	2650.07
435.03	2781.14
435.23	3071.95
435.44	2705.37
435.64	2869.20
435.85	2924.50
436.06	3059.67
436.26	3129.30
436.47	2936.79
436.67	2856.92
436.88	2942.93
437.08	3149.78
437.29	3010.51
437.49	3024.85
437.70	3274.70
437.90	2887.64
438.11	3055.57
438.31	2918.36
438.52	3200.98
438.72	3157.97
438.93	3172.30
439.13	2852.82
439.34	3135.44
439.54	2940.88
439.75	2936.79
439.95	2871.25
440.16	2801.62
440.36	2934.74
440.57	2867.16
440.77	2854.87
440.98	2977.75
441.18	3059.67
441.39	2760.66
441.59	2740.18
441.80	3379.15
442.00	2996.18
442.21	2891.73
442.41	2742.23
442.62	3094.48
442.82	2883.54
443.02	2830.29
443.23	2836.44
443.43	2881.49
443.64	3250.13
443.84	2744.28
444.05	2916.31
444.25	3026.90
444.46	2926.55
444.66	2875.35
444.87	3008.47
445.07	2734.04
445.28	2918.36
445.48	3061.71
445.69	2904.02
445.89	3469.26
446.09	2969.55
446.30	3186.64
446.50	3262.41
446.71	4724.66
446.91	5779.37
447.12	6487.96
447.32	6793.11
447.53	6842.26
447.73	5734.31
447.93	5089.20
448.14	4751.29
448.34	4896.69
448.55	4071.36
448.75	4030.40
448.96	3798.98
449.16	3712.97
449.36	3592.14
449.57	3069.91
449.77	2918.36
449.98	2914.26
450.18	3071.95
450.39	2822.10
450.59	3022.80
450.79	2942.93
451.00	2949.08
451.20	3078.10
451.41	2740.18
451.61	3016.66
451.81	2987.99
452.02	2715.61
452.22	2863.06
452.43	2867.16
452.63	2867.16
452.84	2879.44
453.04	2809.81
453.24	2965.46
453.45	2721.75
453.65	2895.83
453.86	2871.25
454.06	3033.04
454.26	2985.94
454.47	2815.96
454.67	3012.56
454.87	3172.30
455.08	2951.12
455.28	2924.50
455.49	2981.84
455.69	2801.62
455.89	3309.52
456.10	2971.60
456.30	2815.96
456.51	3012.56
456.71	3067.86
456.91	2985.94
457.12	2901.97
457.32	3049.43
457.52	2834.39
457.73	3008.47
457.93	3051.47
458.14	2861.01
458.34	2670.55
458.54	2854.87
458.75	2852.82
458.95	3160.02
459.15	2955.22
459.36	2856.92
459.56	2887.64
459.76	3459.02
459.97	2967.51
460.17	2813.91
460.37	2930.64
460.58	3067.86
460.78	3094.48
460.99	2861.01
461.19	2867.16
461.39	2871.25
461.60	2928.60
461.80	2926.55
462.00	2762.71
462.21	3022.80
462.41	2797.53
462.61	2707.41
462.82	2635.74
463.02	3055.57
463.22	3037.14
463.43	2899.92
463.63	2828.24
463.83	3205.07
464.04	3041.23
464.24	2885.59
464.44	2787.29
464.64	3082.19
464.85	3059.67
465.05	2916.31
465.25	2807.77
465.46	2889.68
465.66	3106.77
465.86	2944.98
466.07	2840.53
466.27	2990.03
466.47	2820.05
466.68	2738.13
466.88	2996.18
467.08	3153.87
467.29	3207.12
467.49	2807.77
467.69	2987.99
467.89	3106.77
468.10	2926.55
468.30	2887.64
468.50	2934.74
468.71	3139.54
468.91	2766.81
469.11	2981.84
469.31	2867.16
469.52	2799.57
469.72	3270.61
469.92	3108.82
470.13	2815.96
470.33	3067.86
470.53	3024.85
470.73	3272.65
470.94	3540.94
471.14	3618.76
471.34	4009.92
471.54	3823.56
471.75	3522.51
471.95	3416.01
472.15	3346.38
472.36	3364.81
472.56	3221.45
472.76	3448.78
472.96	3336.14
473.17	3102.67
473.37	3000.27
473.57	2920.40
473.77	3010.51
473.98	2928.60
474.18	2729.94
474.38	3590.09
474.58	2901.97
474.79	2717.65
474.99	2963.41
475.19	3198.93
475.39	2777.05
475.60	2971.60
475.80	2895.83
476.00	3065.81
476.20	2936.79
476.41	2863.06
476.61	2928.60
476.81	3231.69
477.01	2807.77
477.21	3080.14
477.42	2955.22
477.62	2856.92
477.82	3078.10
478.02	2807.77
478.23	2969.55
478.43	2861.01
478.63	2992.08
478.83	2881.49
479.03	2873.30
479.24	3295.18
479.44	3305.42
479.64	2719.70
479.84	2578.39
480.04	2879.44
480.25	3184.59
480.45	2756.57
480.65	2703.32
480.85	3258.32
481.06	2873.30
481.26	2858.96
481.46	2840.53
481.66	3055.57
481.86	2877.40
482.06	3051.47
482.27	2854.87
482.47	2899.92
482.67	3108.82
482.87	2846.68
483.07	2951.12
483.28	2832.34
483.48	2772.95
483.68	2818.00
483.88	2715.61
484.08	2643.93
484.29	2869.20
484.49	2914.26
484.69	2678.74
484.89	3215.31
485.09	3143.63
485.29	2926.55
485.50	2983.89
485.70	2777.05
485.90	3223.50
486.10	3067.86
486.30	2820.05
486.50	3119.06
486.71	3043.28
486.91	2887.64
487.11	2940.88
487.31	2791.38
487.51	3082.19
487.71	2807.77
487.91	2764.76
488.12	2791.38
488.32	2598.87
488.52	2809.81
488.72	2580.44
488.92	3057.62
489.12	3231.69
489.32	3057.62
489.53	2883.54
489.73	2725.85
489.93	3399.63
490.13	2828.24
490.33	2719.70
490.53	3063.76
490.73	3141.58
490.94	2672.60
491.14	2971.60
491.34	3080.14
491.54	3123.15
491.74	3712.97
491.94	4249.54
492.14	4671.42
492.34	4659.13
492.54	4337.60
492.75	3776.45
492.95	3850.18
493.15	3618.76
493.35	3440.59
493.55	3416.01
493.75	3313.61
493.95	3454.92
494.15	3080.14
494.35	2908.12
494.56	3024.85
494.76	2891.73
494.96	3020.75
495.16	2852.82
495.36	3045.33
495.56	3000.27
495.76	2893.78
495.96	2875.35
496.16	2955.22
496.36	3358.67
496.56	2826.20
496.77	2916.31
496.97	2947.03
497.17	3231.69
497.37	2731.99
497.57	2957.27
497.77	3063.76
497.97	2693.08
498.17	2887.64
498.37	2838.48
498.57	3143.63
498.77	2828.24
498.97	2906.07
499.17	3182.54
499.38	2889.68
499.58	3180.50
499.78	2949.08
499.98	3008.47
500.18	2934.74
500.38	2895.83
500.58	3074.00
500.78	3362.76
500.98	5431.21
501.18	7266.19
501.38	8732.54
501.58	9647.98
501.78	9678.70
501.98	7966.60
502.18	6655.90
502.38	5889.96
502.58	5724.07
502.78	5027.76
502.98	4796.34
503.18	4554.68
503.38	4239.30
503.59	3751.88
503.79	3645.38
503.99	3420.11
504.19	3377.10
504.39	3424.20
504.59	3278.80
504.79	3155.92
504.99	3448.78
505.19	3213.26
505.39	3063.76
505.59	3196.88
505.79	3184.59
505.99	3143.63
506.19	2875.35
506.39	3133.39
506.59	2924.50
506.79	2969.55
506.99	2965.46
507.19	2793.43
507.39	2971.60
507.59	2756.57
507.79	2799.57
507.99	2801.62
508.19	3076.05
508.39	2858.96
508.59	2799.57
508.79	2953.17
508.99	3356.62
509.19	2879.44
509.39	2914.26
509.59	2797.53
509.79	2922.45
509.99	3102.67
510.19	2940.88
510.39	3043.28
510.59	3020.75
510.79	2936.79
510.99	2648.02
511.19	2736.09
511.39	3276.75
511.59	3123.15
511.79	3018.71
511.99	2879.44
512.19	3303.37
512.38	2992.08
512.58	2795.48
512.78	2813.91
512.98	3190.74
513.18	3276.75
513.38	2686.94
513.58	2930.64
513.78	2889.68
513.98	2985.94
514.18	2828.24
514.38	2836.44
514.58	3059.67
514.78	2914.26
514.98	2781.14
515.18	2944.98
515.38	2707.41
515.58	3311.57
515.78	2811.86
515.98	2908.12
516.18	3098.58
516.38	2998.23
516.57	2781.14
516.77	2803.67
516.97	3141.58
517.17	2906.07
517.37	2684.89
517.57	2877.40
517.77	2965.46
517.97	2822.10
518.17	3010.51
518.37	2734.04
518.57	2867.16
518.77	2983.89
518.97	2813.91
519.16	2858.96
519.36	3166.16
519.56	2820.05
519.76	2797.53
519.96	2899.92
520.16	3217.36
520.36	2811.86
520.56	2981.84
520.76	2820.05
520.96	2979.79
521.16	3196.88
521.35	2963.41
521.55	3047.38
521.75	3004.37
521.95	2906.07
522.15	2844.63
522.35	2695.13
522.55	2897.88
522.75	3123.15
522.95	2734.04
523.14	2727.89
523.34	3102.67
523.54	2879.44
523.74	2934.74
523.94	2895.83
524.14	2729.94
524.34	3047.38
524.54	3014.61
524.73	2889.68
524.93	3041.23
525.13	2990.03
525.33	2729.94
525.53	3117.01
525.73	3088.34
525.93	3008.47
526.13	2932.69
526.32	2858.96
526.52	3110.86
526.72	3168.21
526.92	2830.29
527.12	2758.61
527.32	2803.67
527.52	3094.48
527.71	2924.50
527.91	2803.67
528.11	2779.09
528.31	2977.75
528.51	2815.96
528.71	2967.51
528.90	3082.19
529.10	3239.89
529.30	2912.21
529.50	2611.16
529.70	3061.71
529.90	2953.17
530.09	2807.77
530.29	2664.41
530.49	2844.63
530.69	3483.59
530.89	2938.84
531.09	3002.32
531.28	2916.31
531.48	3246.03
531.68	2918.36
531.88	2924.50
532.08	3172.30
532.28	2883.54
532.47	2975.70
532.67	2981.84
532.87	3157.97
533.07	2885.59
533.27	2977.75
533.46	2990.03
533.66	3074.00
533.86	2996.18
534.06	2942.93
534.26	2785.24
534.45	2875.35
534.65	3174.35
534.85	2926.55
535.05	2760.66
535.25	3143.63
535.44	2789.33
535.64	2889.68
535.84	2990.03
536.04	2928.60
536.24	2883.54
536.43	2869.20
536.63	2803.67
536.83	3014.61
537.03	2973.65
537.22	2731.99
537.42	2613.21
537.62	3096.53
537.82	2834.39
538.02	3059.67
538.21	2924.50
538.41	3495.88
538.61	3045.33
538.81	2856.92
539.00	2942.93
539.20	2725.85
539.40	2940.88
539.60	2846.68
539.79	3028.95
539.99	2959.31
540.19	2852.82
540.39	2918.36
540.58	2861.01
540.78	3143.63
540.98	3026.90
541.18	3063.76
541.37	2977.75
541.57	3061.71
541.77	3049.43
541.97	2775.00
542.16	2674.65
542.36	2938.84
542.56	2912.21
542.76	3067.86
542.95	2951.12
543.15	3131.34
543.35	3098.58
543.54	2785.24
543.74	2756.57
543.94	3184.59
544.14	2891.73
544.33	2938.84
544.53	2811.86
544.73	2871.25
544.93	2953.17
545.12	2830.29
545.32	2850.77
545.52	2912.21
545.71	2789.33
545.91	2858.96
546.11	2789.33
546.30	2783.19
546.50	2965.46
546.70	2992.08
546.90	2873.30
547.09	2719.70
547.29	3049.43
547.49	2926.55
547.68	2846.68
547.88	2938.84
548.08	3123.15
548.27	3217.36
548.47	2801.62
548.67	2928.60
548.87	3082.19
549.06	2846.68
549.26	2824.15
549.46	3035.09
549.65	2924.50
549.85	2904.02
550.05	2871.25
550.24	2672.60
550.44	2959.31
550.64	2893.78
550.83	2813.91
551.03	3190.74
551.23	3117.01
551.42	2961.36
551.62	2818.00
551.82	2912.21
552.01	3000.27
552.21	3055.57
552.41	2910.16
552.60	3286.99
552.80	2965.46
553.00	2742.23
553.19	2942.93
553.39	3301.33
553.59	2818.00
553.78	3059.67
553.98	2826.20
554.17	2768.85
554.37	2942.93
554.57	2942.93
554.76	2764.76
554.96	2834.39
555.16	3028.95
555.35	2963.41
555.55	2994.13
555.75	3018.71
555.94	3039.19
556.14	2674.65
556.33	2920.40
556.53	2924.50
556.73	2944.98
556.92	2865.11
557.12	2850.77
557.32	3276.75
557.51	3297.23
557.71	2914.26
557.90	3002.32
558.10	3284.94
558.30	2906.07
558.49	2834.39
558.69	2836.44
558.88	3028.95
559.08	3030.99
559.28	2861.01
559.47	2930.64
559.67	3100.62
559.86	3354.57
560.06	2824.15
560.26	2803.67
560.45	3047.38
560.65	2959.31
560.84	3104.72
561.04	2803.67
561.24	2994.13
561.43	2789.33
561.63	3078.10
561.82	2922.45
562.02	3143.63
562.22	2799.57
562.41	2777.05
562.61	2830.29
562.80	2836.44
563.00	3436.49
563.19	2932.69
563.39	2897.88
563.59	3135.44
563.78	2781.14
563.98	2682.84
564.17	2863.06
564.37	2600.92
564.56	2955.22
564.76	2729.94
564.96	3047.38
565.15	3114.96
565.35	3393.48
565.54	2924.50
565.74	2936.79
565.93	3028.95
566.13	2985.94
566.32	2906.07
566.52	2920.40
566.71	3028.95
566.91	3112.91
567.11	2949.08
567.30	2787.29
567.50	3045.33
567.69	3018.71
567.89	2867.16
568.08	2703.32
568.28	3000.27
568.47	2713.56
568.67	2897.88
568.86	2772.95
569.06	3084.24
569.25	2867.16
569.45	2758.61
569.64	2854.87
569.84	2951.12
570.04	3043.28
570.23	2848.72
570.43	2777.05
570.62	3026.90
570.82	3377.10
571.01	2832.34
571.21	2740.18
571.40	2885.59
571.60	3094.48
571.79	2957.27
571.99	2836.44
572.18	2738.13
572.38	3026.90
572.57	2834.39
572.77	2942.93
572.96	3438.54
573.16	3002.32
573.35	2822.10
573.55	2990.03
573.74	3043.28
573.94	2895.83
574.13	2826.20
574.33	3016.66
574.52	3186.64
574.71	3076.05
574.91	2912.21
575.10	2713.56
575.30	2863.06
575.49	2881.49
575.69	2719.70
575.88	2840.53
576.08	2981.84
576.27	3241.93
576.47	2840.53
576.66	3065.81
576.86	3225.55
577.05	3008.47
577.25	2942.93
577.44	3002.32
577.64	2934.74
577.83	3188.69
578.02	2881.49
578.22	2955.22
578.41	3295.18
578.61	2967.51
578.80	2621.40
579.00	2926.55
579.19	2994.13
579.39	3078.10
579.58	2924.50
579.77	2846.68
579.97	3209.17
580.16	3155.92
580.36	3035.09
580.55	3012.56
580.75	3047.38
580.94	2979.79
581.13	3061.71
581.33	3100.62
581.52	2990.03
581.72	3284.94
581.91	3102.67
582.11	2805.72
582.30	3145.68
582.49	3041.23
582.69	3147.73
582.88	2947.03
583.08	2992.08
583.27	3196.88
583.47	2975.70
583.66	2871.25
583.85	2818.00
584.05	2938.84
584.24	3000.27
584.44	2936.79
584.63	3078.10
584.82	3200.98
585.02	2990.03
585.21	2889.68
585.41	3098.58
585.60	3065.81
585.79	3147.73
585.99	3139.54
586.18	3100.62
586.37	3895.24
586.57	5826.47
586.76	16193.29
586.96	35151.34
587.15	48272.67
587.34	56298.66
587.54	60673.12
587.73	53929.16
587.93	38649.27
588.12	29361.73
588.31	23830.16
588.51	21257.92
588.70	19420.89
588.89	17102.59
589.09	14479.14
589.28	12375.88
589.47	9801.58
589.67	7411.60
589.86	5953.45
590.06	4595.64
590.25	4044.74
590.44	3559.37
590.64	3200.98
590.83	3194.83
591.02	3264.46
591.22	2979.79
591.41	2912.21
591.60	2940.88
591.80	3426.25
591.99	2727.89
592.18	2877.40
592.38	3143.63
592.57	2875.35
592.76	2891.73
592.96	2965.46
593.15	2936.79
593.34	3108.82
593.54	2879.44
593.73	2949.08
593.92	3131.34
594.12	3018.71
594.31	2881.49
594.50	3047.38
594.70	3055.57
594.89	3471.31
595.08	2676.70
595.28	3069.91
595.47	3487.69
595.66	3194.83
595.86	2703.32
596.05	2901.97
596.24	2895.83
596.43	3362.76
596.63	2908.12
596.82	3020.75
597.01	3065.81
597.21	3225.55
597.40	2934.74
597.59	2985.94
597.79	2926.55
597.98	3112.91
598.17	2895.83
598.36	2887.64
598.56	3133.39
598.75	2885.59
598.94	2967.51
599.14	2938.84
599.33	2955.22
599.52	3117.01
599.71	2926.55
599.91	2887.64
600.10	3065.81
600.29	3010.51
600.48	2973.65
600.68	2973.65
600.87	2949.08
601.06	2775.00
601.26	2893.78
601.45	3053.52
601.64	2963.41
601.83	3254.22
602.03	2775.00
602.22	2803.67
602.41	3143.63
602.60	3342.28
602.80	2979.79
602.99	3026.90
603.18	2854.87
603.37	3018.71
603.57	2795.48
603.76	2922.45
603.95	3184.59
604.14	2856.92
604.34	2768.85
604.53	2846.68
604.72	3030.99
604.91	3098.58
605.10	2871.25
605.30	2695.13
605.49	3409.87
605.68	3168.21
605.87	2871.25
606.07	2795.48
606.26	2996.18
606.45	3067.86
606.64	2842.58
606.84	2734.04
607.03	2967.51
607.22	3196.88
607.41	2867.16
607.60	2813.91
607.80	3098.58
607.99	2893.78
608.18	2920.40
608.37	2836.44
608.56	2936.79
608.76	3149.78
608.95	3016.66
609.14	2830.29
609.33	3174.35
609.52	3190.74
609.72	2885.59
609.91	3018.71
610.10	2992.08
610.29	3190.74
610.48	2973.65
610.68	3030.99
610.87	3008.47
611.06	3133.39
611.25	2826.20
611.44	2975.70
611.63	2922.45
611.83	3229.65
612.02	2809.81
612.21	3071.95
612.40	2645.98
612.59	2822.10
612.79	2779.09
612.98	2844.63
613.17	3299.28
613.36	2990.03
613.55	2959.31
613.74	2801.62
613.93	2904.02
614.13	3131.34
614.32	2961.36
614.51	2904.02
614.70	2899.92
614.89	2904.02
615.08	2936.79
615.28	3315.66
615.47	2901.97
615.66	3184.59
615.85	2969.55
616.04	2977.75
616.23	2924.50
616.42	2998.23
616.62	2858.96
616.81	2932.69
617.00	2891.73
617.19	3086.29
617.38	2901.97
617.57	2842.58
617.76	2992.08
617.95	3170.26
618.15	2957.27
618.34	3133.39
618.53	2797.53
618.72	3221.45
618.91	3010.51
619.10	3041.23
619.29	3049.43
619.48	3016.66
619.68	2766.81
619.87	2920.40
620.06	2746.33
620.25	3061.71
620.44	2850.77
620.63	2838.48
620.82	3014.61
621.01	2983.89
621.20	2881.49
621.39	2942.93
621.59	3098.58
621.78	2973.65
621.97	2914.26
622.16	3020.75
622.35	2992.08
622.54	3061.71
622.73	2926.55
622.92	2652.12
623.11	3088.34
623.30	2901.97
623.49	3026.90
623.68	2693.08
623.88	3252.17
624.07	2856.92
624.26	2793.43
624.45	2875.35
624.64	3000.27
624.83	3012.56
625.02	2785.24
625.21	2842.58
625.40	2926.55
625.59	3170.26
625.78	2908.12
625.97	2895.83
626.16	3164.11
626.35	3110.86
626.54	2848.72
626.74	3043.28
626.93	2967.51
627.12	2961.36
627.31	2951.12
627.50	2912.21
627.69	3166.16
627.88	2875.35
628.07	2766.81
628.26	2750.42
628.45	2928.60
628.64	2766.81
628.83	2830.29
629.02	2699.22
629.21	3020.75
629.40	3106.77
629.59	2787.29
629.78	2744.28
629.97	2914.26
630.16	3002.32
630.35	2844.63
630.54	2879.44
630.73	2805.72
630.92	3018.71
631.11	2793.43
631.30	2869.20
631.49	3110.86
631.68	2910.16
631.87	2936.79
632.06	2746.33
632.25	3428.30
632.44	2967.51
632.63	2897.88
632.82	2813.91
633.01	2889.68
633.20	3049.43
633.39	2951.12
633.58	2664.41
633.77	3024.85
633.96	3076.05
634.15	2971.60
634.34	2959.31
634.53	2938.84
634.72	2897.88
634.91	2699.22
635.10	2883.54
635.29	3065.81
635.48	2975.70
635.67	2711.51
635.86	2674.65
636.05	3176.40
636.24	2940.88
636.43	2832.34
636.62	2906.07
636.81	2613.21
637.00	3049.43
637.19	2897.88
637.38	2881.49
637.57	2942.93
637.76	3018.71
637.95	2965.46
638.14	2889.68
638.33	3061.71
638.52	3053.52
638.71	2668.50
638.89	2633.69
639.08	3493.83
639.27	3108.82
639.46	3096.53
639.65	3303.37
639.84	3401.68
640.03	3561.42
640.22	3151.82
640.41	3262.41
640.60	3010.51
640.79	3174.35
640.98	2942.93
641.17	3086.29
641.36	3133.39
641.55	3131.34
641.74	2736.09
641.92	2797.53
642.11	2871.25
642.30	2928.60
642.49	2752.47
642.68	2742.23
642.87	3074.00
643.06	3002.32
643.25	2729.94
643.44	2721.75
643.63	2918.36
643.82	3143.63
644.00	2787.29
644.19	2885.59
644.38	2777.05
644.57	3065.81
644.76	2873.30
644.95	2947.03
645.14	2959.31
645.33	2951.12
645.52	2965.46
645.71	2688.98
645.89	2766.81
646.08	2983.89
646.27	2863.06
646.46	3119.06
646.65	2699.22
646.84	3082.19
647.03	2709.46
647.22	3026.90
647.40	3039.19
647.59	2930.64
647.78	2648.02
647.97	2842.58
648.16	2834.39
648.35	3264.46
648.54	3008.47
648.73	2818.00
648.91	3055.57
649.10	2975.70
649.29	2807.77
649.48	2787.29
649.67	3094.48
649.86	3035.09
650.05	2850.77
650.23	3026.90
650.42	2930.64
650.61	3194.83
650.80	3026.90
650.99	3125.20
651.18	3272.65
651.36	3135.44
651.55	2926.55
651.74	3028.95
651.93	2990.03
652.12	3016.66
652.31	2813.91
652.49	2877.40
652.68	2856.92
652.87	3299.28
653.06	2985.94
653.25	3024.85
653.44	2973.65
653.62	3309.52
653.81	2883.54
654.00	2875.35
654.19	3035.09
654.38	3448.78
654.56	2985.94
654.75	2740.18
654.94	3141.58
655.13	3010.51
655.32	2783.19
655.51	2971.60
655.69	2852.82
655.88	3090.38
656.07	2787.29
656.26	2910.16
656.45	2813.91
656.63	3074.00
656.82	2863.06
657.01	3088.34
657.20	2867.16
657.38	3313.61
657.57	2856.92
657.76	2676.70
657.95	3067.86
658.14	2869.20
658.32	3063.76
658.51	2709.46
658.70	3035.09
658.89	3004.37
659.08	2881.49
659.26	3086.29
659.45	2813.91
659.64	3045.33
659.83	2858.96
660.01	3229.65
660.20	3033.04
660.39	3231.69
660.58	2570.20
660.76	2897.88
660.95	2854.87
661.14	2944.98
661.33	2705.37
661.51	2787.29
661.70	2891.73
661.89	3133.39
662.08	2922.45
662.26	2738.13
662.45	2775.00
662.64	3338.19
662.83	2979.79
663.01	2748.37
663.20	2910.16
663.39	3184.59
663.58	2887.64
663.76	2801.62
663.95	3155.92
664.14	2830.29
664.32	2877.40
664.51	2748.37
664.70	2775.00
664.89	3004.37
665.07	2684.89
665.26	3006.42
665.45	2785.24
665.64	3092.43
665.82	2848.72
666.01	2914.26
666.20	2758.61
666.38	3047.38
666.57	3086.29
666.76	4833.21
666.95	10864.47
667.13	17446.65
667.32	21317.31
667.51	23864.98
667.69	24770.18
667.88	20870.85
668.07	14901.02
668.25	12877.63
668.44	11177.81
668.63	9746.28
668.81	8509.31
669.00	7413.65
669.19	6842.26
669.38	5797.80
669.56	5089.20
669.75	4380.61
669.94	3983.30
670.12	3416.01
670.31	3172.30
670.50	3172.30
670.68	3176.40
670.87	3117.01
671.06	2772.95
671.24	2922.45
671.43	3250.13
671.62	2949.08
671.80	2881.49
671.99	2981.84
672.18	3030.99
672.36	3166.16
672.55	2990.03
672.74	2951.12
672.92	2951.12
673.11	3041.23
673.29	2725.85
673.48	3039.19
673.67	2828.24
673.85	3078.10
674.04	2818.00
674.23	2920.40
674.41	3303.37
674.60	2758.61
674.79	2684.89
674.97	2768.85
675.16	3139.54
675.34	3141.58
675.53	2772.95
675.72	2930.64
675.90	3305.42
676.09	2881.49
676.28	2893.78
676.46	2762.71
676.65	3106.77
676.83	2805.72
677.02	2883.54
677.21	2893.78
677.39	3063.76
677.58	2801.62
677.77	2803.67
677.95	2758.61
678.14	2928.60
678.32	2934.74
678.51	2795.48
678.70	3119.06
678.88	2799.57
679.07	2967.51
679.25	2873.30
679.44	2873.30
679.63	2852.82
679.81	2971.60
680.00	3061.71
680.18	2918.36
680.37	3313.61
680.55	3014.61
680.74	2715.61
680.93	2658.26
681.11	2967.51
681.30	2963.41
681.48	2881.49
681.67	2844.63
681.85	3045.33
682.04	2807.77
682.23	2977.75
682.41	2912.21
682.60	2904.02
682.78	2918.36
682.97	2830.29
683.15	2936.79
683.34	2979.79
683.53	3145.68
683.71	2715.61
683.90	2963.41
684.08	3325.90
684.27	2877.40
684.45	2936.79
684.64	3051.47
684.82	2932.69
685.01	3074.00
685.19	2879.44
685.38	3119.06
685.57	2912.21
685.75	2922.45
685.94	2858.96
686.12	2742.23
686.31	2975.70
686.49	3203.02
686.68	2693.08
686.86	2926.55
687.05	2951.12
687.23	3321.81
687.42	2891.73
687.60	2691.03
687.79	3082.19
687.97	3241.93
688.16	3018.71
688.34	3160.02
688.53	2641.88
688.71	3024.85
688.90	3102.67
689.08	2881.49
689.27	2684.89
689.45	3051.47
689.64	3014.61
689.82	2932.69
690.01	3047.38
690.19	3051.47
690.38	2912.21
690.56	3026.90
690.75	2779.09
690.93	2936.79
691.12	2801.62
691.30	2930.64
691.49	2936.79
691.67	2930.64
691.86	3170.26
692.04	2858.96
692.23	2887.64
692.41	2947.03
692.60	3280.85
692.78	3090.38
692.97	2959.31
693.15	3035.09
693.34	3096.53
693.52	3049.43
693.71	2873.30
693.89	2826.20
694.08	2678.74
694.26	2949.08
694.44	3131.34
694.63	3037.14
694.81	2834.39
695.00	2910.16
695.18	3223.50
695.37	3346.38
695.55	2908.12
695.74	2861.01
695.92	2850.77
696.10	3233.74
696.29	2713.56
696.47	2805.72
696.66	2848.72
696.84	2885.59
697.03	2949.08
697.21	3065.81
697.40	4491.20
697.58	3162.06
697.76	2744.28
697.95	2881.49
698.13	2787.29
698.32	2928.60
698.50	2869.20
698.68	2949.08
698.87	2947.03
699.05	3217.36
699.24	2826.20
699.42	2723.80
699.61	2942.93
699.79	2996.18
699.97	2889.68
700.16	2691.03
700.34	2815.96
700.53	3000.27
700.71	3106.77
700.89	2981.84
701.08	2893.78
701.26	2897.88
701.45	3291.09
701.63	2826.20
701.81	2869.20
702.00	2787.29
702.18	2922.45
702.37	2824.15
702.55	3221.45
702.73	2983.89
702.92	2820.05
703.10	3155.92
703.28	3045.33
703.47	2807.77
703.65	3174.35
703.84	3045.33
704.02	2897.88
704.20	3205.07
704.39	2897.88
704.57	2840.53
704.75	3080.14
704.94	3098.58
705.12	2897.88
705.30	3389.39
705.49	6621.08
705.67	12822.33
705.86	18093.80
706.04	20276.94
706.22	22761.12
706.41	21870.26
706.59	16834.30
706.77	13090.62
706.96	11382.61
707.14	10313.57
707.32	8828.79
707.51	7853.96
707.69	6399.90
707.87	5384.11
708.06	4501.44
708.24	3983.30
708.42	3684.30
708.61	3692.49
708.79	2983.89
708.97	3010.51
709.16	3092.43
709.34	3065.81
709.52	2930.64
709.71	2789.33
709.89	3067.86
710.07	2785.24
710.26	2764.76
710.44	2861.01
710.62	3100.62
710.80	2973.65
710.99	2983.89
711.17	3002.32
711.35	2836.44
711.54	2914.26
711.72	2959.31
711.90	2983.89
712.09	3022.80
712.27	2865.11
712.45	2942.93
712.63	2848.72
712.82	3063.76
713.00	2901.97
713.18	3061.71
713.37	3010.51
713.55	3074.00
713.73	3043.28
713.91	2996.18
714.10	2836.44
714.28	2949.08
714.46	3112.91
714.65	2930.64
714.83	2877.40
715.01	2967.51
715.19	3024.85
715.38	2803.67
715.56	3065.81
715.74	2906.07
715.92	2861.01
716.11	3096.53
716.29	2703.32
716.47	3065.81
716.65	2922.45
716.84	2752.47
717.02	2912.21
717.20	2684.89
717.38	2822.10
717.57	3004.37
717.75	2844.63
717.93	2901.97
718.11	3110.86
718.30	2721.75
718.48	2879.44
718.66	3151.82
718.84	3121.10
719.03	2906.07
719.21	2783.19
719.39	3338.19
719.57	3094.48
719.75	3002.32
719.94	2715.61
720.12	2883.54
720.30	2975.70
720.48	2994.13
720.67	2787.29
720.85	2803.67
721.03	2924.50
721.21	2820.05
721.39	2969.55
721.58	3006.42
721.76	2965.46
721.94	2942.93
722.12	3008.47
722.30	3270.61
722.49	2848.72
722.67	2873.30
722.85	2904.02
723.03	2775.00
723.21	2908.12
723.40	2918.36
723.58	3014.61
723.76	3055.57
723.94	3215.31
724.12	2885.59
724.30	3033.04
724.49	3133.39
724.67	2947.03
724.85	2998.23
725.03	2701.27
725.21	3078.10
725.40	3121.10
725.58	2844.63
725.76	3071.95
725.94	3059.67
726.12	2791.38
726.30	2883.54
726.49	2865.11
726.67	2854.87
726.85	3078.10
727.03	3368.91
727.21	4470.72
727.39	5478.32
727.57	5803.94
727.76	6250.40
727.94	6285.22
728.12	5431.21
728.30	4536.25
728.48	4515.77
728.66	4134.85
728.84	3866.56
729.03	3487.69
729.21	3350.48
729.39	3166.16
729.57	3069.91
729.75	3133.39
729.93	2936.79
730.11	2842.58
730.30	2877.40
730.48	2953.17
730.66	3014.61
730.84	2985.94
731.02	2981.84
731.20	2871.25
731.38	2865.11
731.56	2770.90
731.74	2742.23
731.93	3090.38
732.11	2983.89
732.29	2877.40
732.47	3026.90
732.65	3028.95
732.83	3020.75
733.01	2949.08
733.19	2842.58
733.37	3098.58
733.56	2856.92
733.74	2856.92
733.92	3229.65
734.10	2834.39
734.28	3047.38
734.46	2684.89
734.64	2887.64
734.82	2992.08
735.00	2877.40
735.18	2791.38
735.36	2965.46
735.54	2963.41
735.73	2813.91
735.91	2967.51
736.09	3231.69
736.27	2936.79
736.45	2965.46
736.63	2713.56
736.81	3008.47
736.99	3188.69
737.17	3110.86
737.35	2830.29
737.53	2992.08
737.71	3016.66
737.89	3065.81
738.07	2793.43
738.25	2805.72
738.43	2701.27
738.61	2963.41
738.80	2822.10
738.98	2818.00
739.16	2822.10
739.34	2768.85
739.52	3155.92
739.70	2975.70
739.88	3137.49
740.06	3008.47
740.24	2605.02
740.42	3203.02
740.60	2627.54
740.78	2824.15
740.96	2639.83
741.14	2914.26
741.32	3004.37
741.50	2803.67
741.68	3198.93
741.86	3274.70
742.04	2713.56
742.22	2703.32
742.40	2887.64
742.58	3071.95
742.76	2858.96
742.94	3033.04
743.12	2772.95
743.30	2904.02
743.48	3166.16
743.66	2809.81
743.84	2863.06
744.02	2994.13
744.20	2944.98
744.38	2754.52
744.56	2791.38
744.74	3268.56
744.92	3055.57
745.10	3110.86
745.28	3018.71
745.46	3260.37
745.64	2975.70
745.82	3037.14
746.00	2818.00
746.18	3014.61
746.36	2758.61
746.54	2994.13
746.72	2871.25
746.90	2719.70
747.08	3237.84
747.26	2818.00
747.44	2922.45
747.62	3024.85
747.80	3049.43
747.98	2994.13
748.15	2879.44
748.33	3317.71
748.51	2998.23
748.69	3018.71
748.87	2770.90
749.05	2930.64
749.23	2938.84
749.41	2893.78
749.59	2858.96
749.77	3125.20
749.95	2901.97
750.13	2838.48
750.31	2983.89
750.49	3002.32
750.67	3102.67
750.85	2987.99
751.03	2897.88
751.20	3354.57
751.38	2998.23
751.56	2936.79
751.74	2934.74
751.92	2893.78
752.10	2830.29
752.28	3119.06
752.46	2877.40
752.64	2910.16
752.82	2975.70
753.00	2938.84
753.18	2861.01
753.35	2924.50
753.53	2920.40
753.71	2799.57
753.89	2875.35
754.07	2981.84
754.25	3145.68
754.43	2942.93
754.61	2783.19
754.79	3096.53
754.97	2981.84
755.14	3012.56
755.32	2715.61
755.50	2967.51
755.68	2992.08
755.86	2805.72
756.04	2748.37
756.22	2660.31
756.40	3233.74
756.57	3119.06
756.75	2826.20
756.93	3270.61
757.11	3071.95
757.29	2742.23
757.47	2791.38
757.65	2754.52
757.82	2633.69
758.00	2731.99
758.18	2725.85
758.36	2873.30
758.54	3346.38
758.72	2631.64
758.90	3000.27
759.07	3002.32
759.25	2772.95
759.43	2969.55
759.61	2777.05
759.79	4263.87
759.97	3200.98
760.15	2844.63
760.32	2846.68
760.50	3092.43
760.68	3319.76
760.86	2701.27
761.04	3092.43
761.22	3184.59
761.39	3020.75
761.57	2947.03
761.75	2904.02
761.93	3063.76
762.11	2912.21
762.28	2901.97
762.46	2731.99
762.64	3084.24
762.82	2846.68
763.00	2865.11
763.18	3127.25
763.35	2752.47
763.53	3139.54
763.71	2932.69
763.89	2840.53
764.07	2983.89
764.24	2961.36
764.42	2973.65
764.60	2801.62
764.78	3143.63
764.96	3188.69
765.13	3004.37
765.31	2770.90
765.49	3096.53
765.67	2822.10
765.84	2850.77
766.02	2791.38
766.20	2703.32
766.38	3020.75
766.56	2916.31
766.73	2897.88
766.91	2916.31
767.09	2914.26
767.27	2951.12
767.44	2848.72
767.62	3074.00
767.80	3067.86
767.98	2795.48
768.15	2904.02
768.33	3127.25
768.51	3143.63
768.69	2983.89
768.87	2861.01
769.04	3084.24
769.22	3477.45
769.40	3047.38
769.58	3045.33
769.75	2973.65
769.93	3194.83
770.11	2865.11
770.28	2762.71
770.46	3080.14
770.64	3047.38
770.82	2918.36
770.99	2879.44
771.17	3145.68
771.35	2899.92
771.53	2877.40
771.70	2809.81
771.88	3102.67
772.06	2965.46
772.23	2891.73
772.41	2934.74
772.59	2875.35
772.77	2787.29
772.94	2854.87
773.12	2965.46
773.30	2963.41
773.47	3030.99
773.65	2748.37
773.83	3078.10
774.01	2990.03
774.18	2783.19
774.36	2869.20
774.54	2758.61
774.71	3090.38
774.89	2756.57
775.07	2691.03
775.24	2883.54
775.42	2793.43
775.60	3239.89
775.78	2881.49
775.95	2697.17
776.13	2738.13
776.31	2709.46
776.48	3002.32
776.66	3104.72
776.84	2871.25
777.01	2871.25
777.19	2744.28
777.37	2754.52
777.54	3014.61
777.72	3272.65
777.90	2934.74
778.07	2828.24
778.25	3532.75
778.43	3139.54
778.60	2783.19
778.78	2938.84
778.96	3256.27
779.13	2828.24
779.31	2942.93
779.49	2861.01
779.66	2992.08
779.84	2992.08
780.01	2748.37
780.19	2721.75
780.37	3178.45
780.54	3084.24
780.72	2742.23
780.90	2861.01
781.07	2879.44
781.25	2834.39
781.43	3004.37
781.60	2836.44
781.78	3074.00
781.95	3006.42
782.13	2768.85
782.31	2815.96
782.48	2709.46
782.66	2918.36
782.83	3147.73
783.01	2891.73
783.19	3157.97
783.36	2908.12
783.54	2715.61
783.72	2930.64
783.89	2883.54
784.07	3028.95
784.24	2883.54
784.42	3000.27
784.60	2992.08
784.77	3106.77
784.95	2699.22
785.12	2824.15
785.30	3002.32
785.47	2901.97
785.65	2746.33
785.83	2910.16
786.00	2811.86
786.18	2926.55
786.35	2707.41
786.53	2856.92
786.71	3145.68
786.88	2957.27
787.06	2951.12
787.23	2904.02
787.41	2770.90
787.58	2840.53
787.76	2727.89
787.94	2985.94
788.11	3067.86
788.29	2852.82
788.46	2783.19
788.64	2691.03
788.81	2830.29
788.99	2826.20
789.16	2736.09
789.34	2895.83
789.52	2830.29
789.69	2914.26
789.87	2523.10
790.04	2836.44
790.22	2969.55
790.39	3307.47
790.57	2803.67
790.74	2734.04
790.92	3127.25
791.09	2697.17
791.27	2828.24
791.44	2947.03
791.62	2871.25
791.79	3162.06
791.97	2840.53
792.15	3282.89
792.32	3061.71
792.50	3094.48
792.67	3002.32
792.85	3162.06
793.02	2963.41
793.20	2912.21
793.37	2727.89
793.55	2799.57
793.72	2807.77
793.90	3033.04
794.07	2764.76
794.25	2777.05
794.42	3055.57
794.60	3004.37
794.77	2901.97
794.95	2979.79
795.12	3049.43
795.30	2871.25
795.47	2617.30
795.65	3137.49
795.82	3000.27
796.00	2881.49
796.17	2920.40
796.34	2705.37
796.52	2979.79
796.69	3039.19
796.87	2977.75
797.04	2985.94
797.22	3090.38
797.39	3074.00
797.57	3033.04
797.74	2924.50
797.92	3006.42
798.09	2922.45
798.27	3143.63
798.44	2863.06
798.62	2924.50
798.79	3051.47
798.96	2987.99
799.14	2879.44
799.31	3344.33
799.49	2899.92
799.66	2815.96
799.84	2918.36
800.01	2772.95
800.19	3053.52
800.36	2615.26
800.53	2910.16
800.71	3102.67
800.88	3172.30
801.06	2822.10
801.23	2766.81
801.41	2930.64
801.58	2861.01
801.75	2785.24
801.93	2895.83
802.10	3051.47
802.28	2981.84
802.45	2908.12
802.63	2883.54
802.80	3182.54
802.97	2895.83
803.15	2858.96
803.32	2797.53
803.50	2842.58
803.67	2854.87
803.84	2791.38
804.02	2963.41
804.19	2949.08
804.37	2527.19
804.54	2707.41
804.71	2793.43
804.89	3045.33
805.06	2799.57
805.24	2779.09
805.41	2676.70
805.58	2781.14
805.76	3346.38
805.93	2891.73
806.10	2953.17
806.28	3098.58
806.45	2951.12
806.63	2994.13
806.80	2951.12
806.97	3014.61
807.15	2985.94
807.32	2832.34
807.49	2824.15
807.67	2785.24
807.84	3026.90
808.01	2684.89
808.19	3063.76
808.36	3280.85
808.54	2934.74
808.71	2815.96
808.88	2799.57
809.06	3188.69
809.23	3260.37
809.40	2863.06
809.58	2871.25
809.75	2996.18
809.92	2734.04
810.10	3188.69
810.27	2910.16
810.44	3084.24
810.62	3088.34
810.79	2926.55
810.96	2861.01
811.14	2885.59
811.31	3055.57
811.48	2979.79
811.66	2883.54
811.83	3178.45
812.00	3065.81
812.18	2908.12
812.35	3078.10
812.52	2879.44
812.69	2871.25
812.87	2764.76
813.04	2762.71
813.21	2994.13
813.39	2789.33
813.56	2793.43
813.73	3026.90
813.91	2734.04
814.08	3035.09
814.25	2856.92
814.42	2721.75
814.60	2875.35
814.77	2912.21
814.94	2791.38
815.12	2957.27
815.29	3145.68
815.46	2885.59
815.63	2869.20
815.81	2848.72
815.98	2858.96
816.15	2906.07
816.33	2856.92
816.50	2840.53
816.67	2938.84
816.84	2971.60
817.02	2797.53
817.19	2867.16
817.36	3084.24
817.53	3047.38
817.71	2770.90
817.88	2926.55
818.05	2953.17
818.22	2973.65
818.40	3102.67
818.57	2869.20
818.74	3030.99
818.91	2865.11
819.09	3045.33
819.26	3024.85
819.43	2818.00
819.60	2895.83
819.78	2983.89
819.95	2981.84
820.12	2795.48
820.29	3188.69
820.47	3117.01
820.64	2781.14
820.81	2799.57
820.98	2916.31
821.15	2781.14
821.33	3002.32
821.50	2721.75
821.67	3094.48
821.84	2826.20
822.02	2850.77
822.19	3133.39
822.36	2938.84
822.53	2832.34
822.70	2725.85
822.88	2881.49
823.05	3172.30
823.22	2856.92
823.39	2901.97
823.56	3006.42
823.74	3291.09
823.91	2703.32
824.08	2684.89
824.25	2904.02
824.42	3188.69
824.60	2693.08
824.77	2947.03
824.94	2889.68
825.11	3092.43
825.28	2775.00
825.45	3004.37
825.63	2924.50
825.80	2734.04
825.97	2928.60
826.14	2899.92
826.31	2680.79
826.48	3180.50
826.66	2764.76
826.83	2850.77
827.00	2975.70
827.17	2863.06
827.34	2854.87
827.51	2865.11
827.69	2910.16
827.86	2746.33
828.03	2863.06
828.20	2854.87
828.37	2848.72
828.54	3049.43
828.71	2828.24
828.89	2983.89
829.06	3078.10
829.23	3291.09
829.40	2815.96
829.57	2815.96
829.74	3078.10
829.91	2899.92
830.09	2766.81
830.26	2944.98
830.43	3211.22
830.60	2895.83
830.77	2928.60
830.94	3037.14
831.11	3094.48
831.28	2877.40
831.46	2926.55
831.63	2910.16
831.80	3069.91
831.97	2887.64
832.14	2879.44
832.31	2957.27
832.48	2996.18
832.65	3143.63
832.82	2922.45
832.99	2934.74
833.17	2756.57
833.34	3284.94
833.51	2846.68
833.68	2596.82
833.85	3108.82
834.02	2799.57
834.19	2717.65
834.36	2811.86
834.53	2959.31
834.70	3057.62
834.87	2846.68
835.04	2729.94
835.22	2785.24
835.39	2959.31
835.56	2713.56
835.73	2727.89
835.90	3192.78
836.07	2861.01
836.24	2885.59
836.41	2762.71
836.58	2768.85
836.75	3123.15
836.92	2797.53
837.09	2731.99
837.26	3071.95
837.43	3088.34
837.60	2836.44
837.77	2729.94
837.94	3067.86
838.12	3147.73
838.29	2664.41
838.46	2543.58
838.63	2777.05
838.80	3211.22
838.97	2789.33
839.14	2684.89
839.31	3035.09
839.48	3123.15
839.65	2783.19
839.82	2904.02
839.99	2985.94
840.16	2990.03
840.33	2598.87
840.50	2805.72
840.67	2867.16
840.84	2549.72
841.01	2672.60
841.18	2713.56
841.35	3000.27
841.52	3033.04
841.69	3022.80
841.86	2699.22
842.03	2934.74
842.20	3084.24
842.37	2750.42
842.54	2754.52
842.71	2942.93
842.88	2686.94
843.05	2729.94
843.22	2705.37
843.39	3088.34
843.56	2875.35
843.73	2756.57
843.90	2813.91
844.07	3026.90
844.24	3149.78
844.41	2836.44
844.58	2787.29
844.75	2865.11
844.92	3090.38
845.09	2797.53
845.26	2721.75
845.43	3143.63
845.60	2893.78
845.77	2887.64
845.94	2815.96
846.10	3125.20
846.27	2643.93
846.44	2594.78
846.61	2758.61
846.78	3049.43
846.95	3104.72
847.12	2674.65
847.29	2854.87
847.46	2811.86
847.63	3071.95
847.80	2705.37
847.97	2754.52
848.14	3379.15
848.31	3018.71
848.48	2609.11
848.65	2770.90
848.82	2869.20
848.98	3454.92
849.15	2842.58
849.32	2828.24
849.49	3194.83
849.66	2893.78
849.83	2729.94
850.00	2725.85
850.17	3051.47
850.34	2951.12
850.51	2609.11
850.68	2770.90
850.85	3387.34
851.01	3006.42
851.18	2707.41
851.35	2777.05
851.52	2998.23
851.69	3200.98
851.86	2631.64
852.03	2758.61
852.20	3160.02
852.37	2994.13
852.53	2607.06
852.70	2668.50
852.87	3057.62
853.04	3024.85
853.21	2619.35
853.38	2912.21
853.55	3176.40
853.72	3272.65
853.89	2680.79
854.05	2656.22
854.22	2975.70
854.39	2865.11
854.56	2766.81
854.73	2918.36
854.90	2842.58
855.07	2934.74
855.23	2662.36
855.40	2652.12
855.57	2936.79
855.74	2666.46
855.91	2873.30
856.08	2629.59
856.25	2813.91
856.41	2875.35
856.58	2641.88
856.75	2772.95
856.92	2738.13
857.09	3037.14
857.26	2568.15
857.42	2807.77
857.59	3049.43
857.76	2879.44
857.93	2637.78
858.10	2871.25
858.27	2828.24
858.43	3053.52
858.60	2721.75
858.77	2621.40
858.94	2906.07
859.11	3098.58
859.27	2893.78
859.44	2723.80
859.61	3399.63
859.78	3094.48
859.95	2746.33
860.12	2672.60
860.28	3366.86
860.45	3299.28
860.62	2680.79
860.79	2897.88
860.95	2910.16
861.12	2854.87
861.29	2635.74
861.46	2756.57
861.63	2867.16
861.79	3028.95
861.96	2656.22
862.13	2652.12
862.30	3180.50
862.47	2924.50
862.63	2594.78
862.80	2830.29
862.97	3065.81
863.14	2957.27
863.30	2736.09
863.47	2602.97
863.64	3332.05
863.81	3086.29
863.97	2613.21
864.14	2758.61
864.31	2975.70
864.48	3024.85
864.65	2734.04
864.81	2830.29
864.98	3018.71
865.15	3026.90
865.32	2797.53
865.48	2758.61
865.65	3282.89
865.82	2805.72
865.98	2748.37
866.15	2758.61
866.32	2985.94
866.49	2891.73
866.65	2846.68
866.82	2705.37
866.99	2922.45
867.16	2852.82
867.32	2760.66
867.49	2731.99
867.66	2920.40
867.83	2869.20
867.99	2674.65
868.16	2760.66
868.33	2707.41
868.49	2985.94
868.66	2795.48
868.83	2863.06
868.99	2983.89
869.16	3078.10
869.33	2863.06
869.50	2809.81
869.66	3026.90
869.83	2869.20
870.00	2637.78
870.16	2836.44
870.33	2942.93
870.50	3057.62
870.66	2779.09
870.83	2727.89
871.00	2932.69
871.17	2924.50
871.33	2762.71
871.50	2703.32
871.67	2936.79
871.83	2844.63
872.00	2830.29
872.17	2850.77
872.33	3274.70
872.50	3203.02
872.67	2748.37
872.83	2715.61
873.00	3063.76
873.17	2985.94
873.33	2760.66
873.50	2768.85
873.67	2875.35
873.83	2914.26
874.00	2797.53
874.16	2836.44
874.33	2963.41
874.50	2731.99
874.66	2779.09
874.83	2754.52
875.00	3106.77
875.16	3143.63
875.33	2844.63
875.50	2596.82
875.66	2904.02
875.83	3018.71
875.99	2779.09
876.16	2822.10
876.33	2838.48
876.49	2963.41
876.66	2791.38
876.83	2805.72
876.99	2750.42
877.16	2994.13
877.32	2742.23
877.49	2813.91
877.66	3035.09
877.82	3258.32
877.99	2787.29
878.15	2942.93
878.32	3076.05
878.49	2975.70
878.65	2820.05
878.82	3000.27
878.98	2928.60
879.15	3127.25
879.32	2869.20
879.48	2881.49
879.65	2926.55
879.81	2871.25
879.98	2725.85
880.15	2717.65
880.31	3051.47
880.48	2820.05
880.64	2852.82
880.81	2861.01
880.97	3252.17
881.14	3121.10
881.31	2738.13
881.47	2955.22
881.64	2920.40
881.80	2736.09
881.97	2840.53
882.13	2697.17
882.30	2752.47
882.47	2852.82
882.63	2744.28
882.80	2719.70
882.96	2881.49
883.13	3229.65
883.29	2707.41
883.46	2729.94
883.62	3346.38
883.79	3045.33
883.95	2973.65
884.12	2740.18
884.29	3219.41
884.45	2990.03
884.62	2768.85
884.78	2734.04
884.95	3297.23
885.11	2781.14
885.28	2869.20
885.44	2797.53
885.61	3088.34
885.77	3194.83
885.94	2842.58
886.10	2830.29
886.27	2973.65
886.43	3276.75
886.60	2926.55
886.76	2731.99
886.93	2787.29
887.09	3012.56
887.26	2580.44
887.42	2777.05
887.59	3149.78
887.75	3291.09
887.92	2910.16
888.08	2854.87
888.25	3340.24
888.41	3022.80
888.58	2785.24
888.74	2672.60
888.91	2885.59
>>>>>End Processed Spectral Data<<<<<
