SpectraSuite Data File
++++++++++++++++++++++++++++++++++++
Date: Thu May 05 21:11:13 CEST 2016
User: root
Dark Spectrum Present: No
Reference Spectrum Present: No
Number of Sampled Component Spectra: 1
Spectrometers: USB4C02835
Integration Time (usec): 100000 (USB4C02835)
Spectra Averaged: 1 (USB4C02835)
Boxcar Smoothing: 0 (USB4C02835)
Correct for Electrical Dark: No (USB4C02835)
Strobe/Lamp Enabled: No (USB4C02835)
Correct for Detector Non-linearity: No (USB4C02835)
Correct for Stray Light: No (USB4C02835)
Number of Pixels in Processed Spectrum: 3648
>>>>>Begin Processed Spectral Data<<<<<
177.47	2103.26
177.69	2103.26
177.91	2103.26
178.13	2179.04
178.36	2142.18
178.58	2746.33
178.80	2879.44
179.02	2795.48
179.24	2877.40
179.46	2500.57
179.68	2666.46
179.90	2944.98
180.13	3002.32
180.35	2523.10
180.57	2697.17
180.79	3139.54
181.01	2953.17
181.23	2678.74
181.45	2799.57
181.67	3112.91
181.90	3192.78
182.12	2807.77
182.34	2521.05
182.56	3121.10
182.78	3092.43
183.00	2641.88
183.22	2695.13
183.44	2660.31
183.66	3465.16
183.89	2838.48
184.11	2701.27
184.33	3160.02
184.55	3170.26
184.77	2664.41
184.99	2738.13
185.21	2891.73
185.43	3475.40
185.65	2668.50
185.87	2652.12
186.10	3344.33
186.32	3463.12
186.54	2764.76
186.76	2760.66
186.98	3180.50
187.20	2996.18
187.42	2633.69
187.64	2670.55
187.86	3014.61
188.08	3194.83
188.30	2629.59
188.52	2695.13
188.75	3203.02
188.97	3227.60
189.19	2637.78
189.41	2680.79
189.63	3074.00
189.85	2883.54
190.07	2664.41
190.29	2523.10
190.51	3076.05
190.73	2723.80
190.95	2885.59
191.17	2746.33
191.39	2656.22
191.61	2885.59
191.84	2598.87
192.06	2877.40
192.28	2709.46
192.50	3557.32
192.72	2795.48
192.94	2752.47
193.16	3149.78
193.38	3045.33
193.60	2568.15
193.82	2811.86
194.04	3203.02
194.26	3067.86
194.48	2633.69
194.70	2666.46
194.92	2936.79
195.14	3182.54
195.36	2592.73
195.58	2746.33
195.80	2949.08
196.02	2799.57
196.24	2578.39
196.46	2756.57
196.69	2953.17
196.91	3495.88
197.13	2697.17
197.35	2770.90
197.57	3219.41
197.79	3133.39
198.01	2768.85
198.23	2746.33
198.45	3110.86
198.67	2846.68
198.89	2533.34
199.11	2777.05
199.33	2926.55
199.55	2582.49
199.77	2684.89
199.99	2836.44
200.21	2881.49
200.43	3078.10
200.65	2484.19
200.87	2502.62
201.09	3071.95
201.31	2975.70
201.53	2703.32
201.75	2731.99
201.97	3069.91
202.19	3014.61
202.41	2764.76
202.63	2803.67
202.85	3061.71
203.07	3012.56
203.29	2645.98
203.51	2551.77
203.73	2842.58
203.95	3452.88
204.17	2605.02
204.39	2731.99
204.61	2908.12
204.83	2912.21
205.05	2842.58
205.27	2668.50
205.49	3401.68
205.71	2975.70
205.93	2611.16
206.15	2586.58
206.37	2992.08
206.59	2940.88
206.81	2455.51
207.03	2615.26
207.25	2813.91
207.47	3123.15
207.69	2693.08
207.91	3000.27
208.13	3184.59
208.34	2818.00
208.56	2578.39
208.78	2693.08
209.00	2891.73
209.22	2969.55
209.44	2721.75
209.66	2623.45
209.88	3014.61
210.10	2879.44
210.32	2719.70
210.54	2760.66
210.76	3026.90
210.98	3114.96
211.20	2555.86
211.42	2779.09
211.64	3200.98
211.86	3055.57
212.08	2758.61
212.30	2713.56
212.52	2942.93
212.74	3110.86
212.96	2785.24
213.17	2736.09
213.39	3098.58
213.61	3254.22
213.83	2668.50
214.05	2539.48
214.27	3203.02
214.49	2770.90
214.71	2600.92
214.93	2777.05
215.15	3008.47
215.37	3069.91
215.59	2639.83
215.81	2729.94
216.03	3211.22
216.24	2942.93
216.46	2680.79
216.68	2805.72
216.90	3106.77
217.12	3151.82
217.34	2650.07
217.56	2820.05
217.78	3262.41
218.00	3082.19
218.22	2723.80
218.44	2684.89
218.66	3061.71
218.87	3413.96
219.09	2621.40
219.31	2697.17
219.53	3106.77
219.75	2822.10
219.97	2764.76
220.19	2668.50
220.41	2901.97
220.63	3313.61
220.85	2680.79
221.06	2654.17
221.28	3182.54
221.50	3041.23
221.72	2701.27
221.94	2727.89
222.16	2930.64
222.38	3110.86
222.60	2736.09
222.82	2797.53
223.03	3117.01
223.25	2869.20
223.47	2633.69
223.69	2901.97
223.91	3110.86
224.13	3043.28
224.35	2625.50
224.57	2887.64
224.78	3061.71
225.00	2756.57
225.22	2754.52
225.44	2662.36
225.66	3100.62
225.88	2959.31
226.10	2848.72
226.32	2744.28
226.53	3198.93
226.75	2932.69
226.97	2744.28
227.19	2637.78
227.41	2856.92
227.63	2881.49
227.85	2506.71
228.06	2637.78
228.28	2990.03
228.50	3065.81
228.72	2516.95
228.94	2613.21
229.16	2629.59
229.37	2793.43
229.59	2645.98
229.81	2922.45
230.03	2875.35
230.25	2752.47
230.47	2566.10
230.69	2701.27
230.90	3022.80
231.12	2848.72
231.34	2824.15
231.56	2805.72
231.78	2809.81
232.00	3045.33
232.21	2746.33
232.43	2822.10
232.65	2662.36
232.87	3137.49
233.09	2609.11
233.30	2648.02
233.52	3213.26
233.74	2908.12
233.96	2600.92
234.18	2869.20
234.40	3010.51
234.61	3368.91
234.83	2543.58
235.05	2619.35
235.27	3397.58
235.49	3276.75
235.70	2574.30
235.92	2766.81
236.14	3082.19
236.36	3323.85
236.58	2623.45
236.79	2734.04
237.01	3037.14
237.23	2934.74
237.45	2910.16
237.67	2682.84
237.88	3100.62
238.10	3293.13
238.32	2584.54
238.54	2658.26
238.76	2971.60
238.97	2795.48
239.19	2562.01
239.41	2746.33
239.63	3203.02
239.85	2893.78
240.06	2766.81
240.28	2684.89
240.50	3155.92
240.72	2959.31
240.93	2572.25
241.15	2793.43
241.37	2920.40
241.59	3248.08
241.81	2537.43
242.02	2721.75
242.24	2975.70
242.46	3080.14
242.68	2488.28
242.89	2598.87
243.11	3059.67
243.33	2969.55
243.55	2598.87
243.76	2699.22
243.98	2908.12
244.20	2965.46
244.42	2697.17
244.64	2695.13
244.85	2695.13
245.07	2867.16
245.29	2664.41
245.51	2719.70
245.72	3024.85
245.94	3176.40
246.16	2660.31
246.38	2715.61
246.59	2979.79
246.81	2873.30
247.03	2670.55
247.24	2562.01
247.46	2852.82
247.68	2990.03
247.90	2574.30
248.11	2680.79
248.33	3172.30
248.55	3045.33
248.77	2672.60
248.98	2740.18
249.20	3307.47
249.42	3061.71
249.64	2678.74
249.85	2672.60
250.07	2910.16
250.29	3121.10
250.50	2711.51
250.72	2631.64
250.94	2975.70
251.16	3377.10
251.37	2596.82
251.59	2686.94
251.81	3043.28
252.02	3217.36
252.24	2609.11
252.46	2807.77
252.68	2809.81
252.89	2836.44
253.11	2494.43
253.33	2846.68
253.54	3200.98
253.76	2807.77
253.98	2695.13
254.20	2621.40
254.41	2787.29
254.63	2992.08
254.85	2566.10
255.06	2775.00
255.28	3016.66
255.50	3016.66
255.71	2639.83
255.93	2576.34
256.15	2904.02
256.36	3047.38
256.58	2572.25
256.80	2697.17
257.02	2850.77
257.23	2893.78
257.45	2719.70
257.67	2887.64
257.88	2901.97
258.10	3084.24
258.32	2635.74
258.53	2748.37
258.75	3237.84
258.97	2893.78
259.18	2602.97
259.40	2564.06
259.62	3262.41
259.83	3270.61
260.05	2664.41
260.27	3442.64
260.48	3133.39
260.70	2848.72
260.92	2641.88
261.13	2729.94
261.35	3035.09
261.57	3043.28
261.78	2557.91
262.00	2586.58
262.22	3035.09
262.43	2891.73
262.65	2715.61
262.86	2703.32
263.08	3473.36
263.30	3033.04
263.51	2490.33
263.73	2666.46
263.95	3153.87
264.16	2809.81
264.38	2613.21
264.60	2672.60
264.81	2977.75
265.03	3184.59
265.25	3028.95
265.46	2590.68
265.68	3200.98
265.89	3057.62
266.11	2623.45
266.33	2633.69
266.54	3178.45
266.76	3100.62
266.98	2779.09
267.19	2807.77
267.41	3180.50
267.62	2994.13
267.84	2490.33
268.06	2670.55
268.27	3004.37
268.49	3155.92
268.70	2676.70
268.92	2650.07
269.14	2824.15
269.35	2691.03
269.57	2824.15
269.79	2746.33
270.00	2891.73
270.22	3272.65
270.43	2521.05
270.65	2623.45
270.87	3016.66
271.08	3084.24
271.30	2807.77
271.51	2746.33
271.73	3094.48
271.95	3215.31
272.16	2650.07
272.38	2772.95
272.59	2885.59
272.81	3004.37
273.02	2650.07
273.24	2752.47
273.46	3217.36
273.67	2760.66
273.89	2605.02
274.10	2596.82
274.32	3155.92
274.54	2949.08
274.75	2779.09
274.97	2783.19
275.18	3076.05
275.40	3117.01
275.61	2750.42
275.83	2748.37
276.05	2820.05
276.26	2953.17
276.48	2758.61
276.69	2807.77
276.91	2899.92
277.12	3182.54
277.34	2916.31
277.55	2951.12
277.77	2998.23
277.99	2987.99
278.20	2731.99
278.42	2711.51
278.63	2914.26
278.85	2803.67
279.06	2754.52
279.28	3010.51
279.49	3086.29
279.71	3125.20
279.93	2871.25
280.14	2885.59
280.36	2818.00
280.57	3151.82
280.79	2940.88
281.00	2676.70
281.22	2924.50
281.43	3153.87
281.65	2600.92
281.86	2672.60
282.08	3008.47
282.29	3323.85
282.51	2654.17
282.73	2705.37
282.94	2762.71
283.16	3108.82
283.37	2953.17
283.59	2838.48
283.80	2994.13
284.02	3041.23
284.23	2881.49
284.45	2811.86
284.66	2820.05
284.88	2934.74
285.09	2666.46
285.31	2869.20
285.52	2996.18
285.74	2672.60
285.95	2926.55
286.17	2875.35
286.38	3209.17
286.60	2897.88
286.81	2781.14
287.03	2791.38
287.24	2961.36
287.46	3133.39
287.67	2858.96
287.89	3053.52
288.10	2979.79
288.32	3030.99
288.53	2967.51
288.75	2906.07
288.96	3143.63
289.18	2848.72
289.39	2787.29
289.61	2865.11
289.82	3393.48
290.04	3330.00
290.25	2711.51
290.47	2840.53
290.68	3008.47
290.90	3196.88
291.11	2635.74
291.33	2875.35
291.54	2828.24
291.76	2854.87
291.97	2883.54
292.18	2893.78
292.40	2901.97
292.61	2924.50
292.83	3035.09
293.04	2828.24
293.26	3033.04
293.47	2918.36
293.69	2682.84
293.90	2713.56
294.12	3182.54
294.33	2930.64
294.55	2873.30
294.76	3002.32
294.97	3229.65
295.19	3321.81
295.40	2779.09
295.62	2871.25
295.83	3141.58
296.05	2926.55
296.26	2992.08
296.48	2725.85
296.69	2985.94
296.90	3024.85
297.12	2953.17
297.33	2908.12
297.55	2998.23
297.76	3035.09
297.98	2861.01
298.19	2938.84
298.41	2938.84
298.62	2820.05
298.83	2998.23
299.05	2861.01
299.26	2934.74
299.48	2838.48
299.69	2858.96
299.90	2789.33
300.12	2926.55
300.33	3143.63
300.55	2899.92
300.76	2865.11
300.98	2881.49
301.19	3135.44
301.40	2813.91
301.62	2811.86
301.83	3084.24
302.05	2924.50
302.26	2785.24
302.47	2861.01
302.69	2768.85
302.90	3010.51
303.12	2615.26
303.33	2824.15
303.54	3307.47
303.76	2906.07
303.97	2850.77
304.19	2947.03
304.40	2772.95
304.61	3082.19
304.83	2901.97
305.04	2938.84
305.26	3121.10
305.47	2906.07
305.68	2777.05
305.90	2660.31
306.11	3151.82
306.33	2918.36
306.54	2676.70
306.75	2746.33
306.97	2750.42
307.18	2787.29
307.39	2830.29
307.61	2926.55
307.82	2916.31
308.04	3110.86
308.25	2791.38
308.46	2889.68
308.68	2963.41
308.89	2969.55
309.10	2908.12
309.32	2791.38
309.53	3067.86
309.74	3039.19
309.96	2779.09
310.17	2887.64
310.39	2891.73
310.60	3074.00
310.81	2826.20
311.03	2760.66
311.24	3074.00
311.45	2908.12
311.67	3045.33
311.88	2875.35
312.09	2885.59
312.31	2916.31
312.52	2803.67
312.73	2785.24
312.95	2699.22
313.16	2887.64
313.37	2953.17
313.59	2926.55
313.80	3061.71
314.01	3266.51
314.23	2772.95
314.44	2764.76
314.65	2846.68
314.87	2861.01
315.08	2793.43
315.29	2756.57
315.51	2840.53
315.72	2801.62
315.93	2873.30
316.15	2822.10
316.36	2875.35
316.57	3065.81
316.79	2867.16
317.00	2758.61
317.21	3121.10
317.43	2844.63
317.64	2842.58
317.85	2711.51
318.07	2877.40
318.28	2949.08
318.49	2908.12
318.70	3022.80
318.92	3055.57
319.13	3063.76
319.34	2932.69
319.56	2820.05
319.77	3028.95
319.98	3096.53
320.20	3000.27
320.41	2961.36
320.62	3086.29
320.83	2809.81
321.05	2920.40
321.26	2779.09
321.47	2983.89
321.69	3227.60
321.90	2703.32
322.11	2734.04
322.32	3082.19
322.54	3254.22
322.75	2813.91
322.96	3663.82
323.18	2721.75
323.39	2666.46
323.60	2697.17
323.81	2906.07
324.03	2852.82
324.24	2934.74
324.45	2869.20
324.66	2746.33
324.88	3180.50
325.09	3233.74
325.30	2795.48
325.52	2693.08
325.73	3106.77
325.94	2848.72
326.15	2658.26
326.37	2672.60
326.58	3004.37
326.79	3303.37
327.00	2766.81
327.22	2758.61
327.43	2928.60
327.64	2813.91
327.85	2922.45
328.07	2840.53
328.28	3299.28
328.49	2951.12
328.70	2883.54
328.92	2875.35
329.13	3022.80
329.34	3043.28
329.55	2977.75
329.76	2895.83
329.98	2914.26
330.19	3135.44
330.40	2961.36
330.61	2934.74
330.83	3157.97
331.04	2797.53
331.25	2916.31
331.46	2824.15
331.68	2772.95
331.89	3164.11
332.10	2881.49
332.31	2717.65
332.52	2944.98
332.74	3289.04
332.95	2588.63
333.16	2770.90
333.37	3020.75
333.58	2951.12
333.80	2877.40
334.01	2549.72
334.22	2936.79
334.43	2873.30
334.64	2752.47
334.86	2695.13
335.07	2844.63
335.28	3188.69
335.49	2695.13
335.70	2854.87
335.92	3233.74
336.13	3313.61
336.34	2875.35
336.55	2818.00
336.76	3028.95
336.98	2617.30
337.19	2811.86
337.40	2893.78
337.61	3483.59
337.82	2920.40
338.04	2846.68
338.25	2641.88
338.46	3014.61
338.67	2957.27
338.88	2809.81
339.09	2715.61
339.31	2785.24
339.52	2740.18
339.73	2762.71
339.94	2758.61
340.15	3092.43
340.36	2889.68
340.58	2936.79
340.79	2754.52
341.00	3196.88
341.21	2850.77
341.42	3033.04
341.63	2781.14
341.85	3096.53
342.06	2967.51
342.27	2740.18
342.48	2961.36
342.69	2768.85
342.90	3074.00
343.12	3094.48
343.33	2713.56
343.54	3065.81
343.75	3282.89
343.96	2805.72
344.17	2756.57
344.38	3012.56
344.60	2934.74
344.81	2727.89
345.02	2789.33
345.23	3291.09
345.44	3477.45
345.65	2891.73
345.86	2865.11
346.07	3057.62
346.29	2854.87
346.50	2918.36
346.71	2848.72
346.92	3192.78
347.13	3332.05
347.34	2854.87
347.55	2684.89
347.76	3035.09
347.98	2738.13
348.19	2846.68
348.40	2994.13
348.61	2840.53
348.82	3229.65
349.03	2928.60
349.24	2713.56
349.45	3295.18
349.66	2594.78
349.88	2701.27
350.09	2723.80
350.30	3205.07
350.51	3182.54
350.72	2936.79
350.93	2703.32
351.14	2938.84
351.35	2961.36
351.56	2830.29
351.77	2840.53
351.99	3026.90
352.20	3174.35
352.41	2936.79
352.62	2596.82
352.83	2996.18
353.04	2934.74
353.25	2758.61
353.46	2914.26
353.67	3166.16
353.88	2633.69
354.09	2783.19
354.30	2822.10
354.52	3090.38
354.73	2867.16
354.94	2734.04
355.15	2809.81
355.36	3325.90
355.57	2838.48
355.78	2797.53
355.99	2658.26
356.20	2906.07
356.41	3215.31
356.62	2891.73
356.83	2813.91
357.04	3233.74
357.25	2674.65
357.46	2791.38
357.68	2693.08
357.89	2846.68
358.10	2961.36
358.31	2779.09
358.52	2809.81
358.73	2832.34
358.94	2793.43
359.15	2850.77
359.36	2926.55
359.57	3035.09
359.78	3002.32
359.99	2998.23
360.20	2672.60
360.41	2971.60
360.62	3002.32
360.83	2867.16
361.04	2838.48
361.25	3020.75
361.46	3235.79
361.67	2930.64
361.88	2879.44
362.09	3104.72
362.30	3051.47
362.51	2727.89
362.72	2854.87
362.93	3088.34
363.14	3078.10
363.35	2830.29
363.56	2699.22
363.78	3192.78
363.99	3106.77
364.20	2785.24
364.41	2838.48
364.62	3385.29
364.83	3043.28
365.04	2752.47
365.25	2854.87
365.46	3346.38
365.67	2891.73
365.88	2858.96
366.09	2760.66
366.30	2979.79
366.51	3006.42
366.72	2705.37
366.93	2799.57
367.14	2994.13
367.35	3278.80
367.56	2781.14
367.77	2846.68
367.98	3022.80
368.18	2963.41
368.39	2930.64
368.60	2748.37
368.81	3149.78
369.02	2949.08
369.23	2826.20
369.44	2688.98
369.65	2818.00
369.86	3080.14
370.07	2928.60
370.28	2770.90
370.49	3041.23
370.70	3049.43
370.91	2725.85
371.12	2684.89
371.33	3237.84
371.54	2901.97
371.75	2924.50
371.96	2600.92
372.17	2977.75
372.38	2928.60
372.59	2807.77
372.80	2734.04
373.01	2922.45
373.22	3074.00
373.43	2731.99
373.64	2697.17
373.85	3215.31
374.06	3278.80
374.26	3020.75
374.47	2938.84
374.68	3315.66
374.89	3004.37
375.10	2795.48
375.31	2914.26
375.52	3055.57
375.73	2901.97
375.94	2674.65
376.15	2924.50
376.36	2820.05
376.57	2873.30
376.78	2861.01
376.99	2873.30
377.20	3198.93
377.40	2918.36
377.61	3086.29
377.82	2686.94
378.03	3180.50
378.24	3071.95
378.45	2897.88
378.66	2818.00
378.87	2701.27
379.08	2727.89
379.29	2785.24
379.50	2961.36
379.71	2883.54
379.91	3084.24
380.12	2752.47
380.33	2830.29
380.54	2975.70
380.75	2965.46
380.96	2760.66
381.17	2770.90
381.38	3039.19
381.59	2981.84
381.80	2811.86
382.00	2965.46
382.21	2955.22
382.42	3170.26
382.63	3117.01
382.84	2910.16
383.05	3143.63
383.26	3252.17
383.47	2916.31
383.68	2791.38
383.88	2969.55
384.09	2977.75
384.30	3035.09
384.51	2807.77
384.72	2920.40
384.93	2781.14
385.14	2869.20
385.35	3012.56
385.55	2744.28
385.76	3164.11
385.97	2863.06
386.18	2645.98
386.39	2801.62
386.60	2961.36
386.81	2760.66
387.02	2652.12
387.22	2758.61
387.43	3074.00
387.64	2967.51
387.85	3033.04
388.06	3020.75
388.27	4089.79
388.48	7141.27
388.68	10766.17
388.89	13510.45
389.10	14487.33
389.31	14102.31
389.52	11343.70
389.73	9705.32
389.93	8865.66
390.14	7997.32
390.35	7309.20
390.56	6707.10
390.77	5672.87
390.98	4130.75
391.18	3708.87
391.39	3477.45
391.60	3041.23
391.81	3071.95
392.02	2871.25
392.23	3381.20
392.43	3057.62
392.64	2979.79
392.85	2875.35
393.06	3268.56
393.27	2963.41
393.47	2805.72
393.68	2826.20
393.89	3008.47
394.10	3237.84
394.31	2811.86
394.52	2648.02
394.72	2914.26
394.93	3192.78
395.14	2723.80
395.35	2981.84
395.56	2959.31
395.76	2920.40
395.97	2832.34
396.18	3051.47
396.39	2963.41
396.60	3545.03
396.80	3137.49
397.01	3043.28
397.22	3131.34
397.43	3141.58
397.64	2856.92
397.84	2916.31
398.05	3301.33
398.26	2932.69
398.47	2906.07
398.67	2961.36
398.88	3035.09
399.09	3176.40
399.30	2805.72
399.51	2867.16
399.71	2879.44
399.92	2914.26
400.13	2863.06
400.34	2865.11
400.54	3020.75
400.75	3237.84
400.96	2934.74
401.17	3178.45
401.37	3104.72
401.58	2955.22
401.79	2873.30
402.00	2979.79
402.21	3471.31
402.41	3110.86
402.62	3018.71
402.83	3237.84
403.04	3413.96
403.24	3606.47
403.45	3000.27
403.66	3160.02
403.87	3235.79
404.07	3289.04
404.28	3074.00
404.49	3098.58
404.70	3090.38
404.90	3100.62
405.11	2916.31
405.32	2967.51
405.52	2869.20
405.73	2852.82
405.94	2744.28
406.15	2883.54
406.35	3061.71
406.56	3188.69
406.77	2916.31
406.98	2908.12
407.18	2836.44
407.39	3229.65
407.60	2791.38
407.80	2934.74
408.01	2928.60
408.22	3098.58
408.43	2760.66
408.63	2994.13
408.84	3127.25
409.05	3053.52
409.25	2799.57
409.46	2828.24
409.67	2883.54
409.88	2877.40
410.08	2850.77
410.29	2832.34
410.50	3100.62
410.70	3074.00
410.91	2744.28
411.12	2936.79
411.32	2981.84
411.53	2803.67
411.74	2848.72
411.95	2942.93
412.15	3022.80
412.36	3082.19
412.57	2959.31
412.77	2994.13
412.98	2992.08
413.19	2848.72
413.39	2914.26
413.60	2848.72
413.81	3215.31
414.01	2869.20
414.22	2930.64
414.43	3059.67
414.63	2893.78
414.84	3215.31
415.05	2818.00
415.25	2684.89
415.46	3092.43
415.67	2871.25
415.87	2795.48
416.08	2795.48
416.29	2840.53
416.49	3090.38
416.70	2822.10
416.91	2834.39
417.11	2918.36
417.32	3141.58
417.53	2889.68
417.73	2942.93
417.94	2912.21
418.15	3057.62
418.35	2912.21
418.56	2842.58
418.77	3323.85
418.97	3045.33
419.18	2953.17
419.38	2516.95
419.59	2936.79
419.80	3264.46
420.00	2840.53
420.21	2881.49
420.42	3157.97
420.62	3033.04
420.83	2793.43
421.04	2805.72
421.24	2998.23
421.45	3100.62
421.65	2899.92
421.86	2815.96
422.07	3098.58
422.27	3153.87
422.48	2731.99
422.69	2705.37
422.89	2985.94
423.10	2971.60
423.30	2764.76
423.51	2936.79
423.72	3110.86
423.92	3074.00
424.13	2688.98
424.33	2865.11
424.54	3119.06
424.75	2990.03
424.95	3119.06
425.16	2838.48
425.36	3002.32
425.57	3213.26
425.78	3000.27
425.98	2955.22
426.19	2879.44
426.39	2840.53
426.60	2934.74
426.81	3006.42
427.01	2965.46
427.22	2811.86
427.42	2731.99
427.63	2731.99
427.83	3135.44
428.04	3293.13
428.25	2850.77
428.45	2944.98
428.66	3162.06
428.86	2940.88
429.07	2908.12
429.28	2883.54
429.48	2947.03
429.69	2865.11
429.89	3020.75
430.10	2725.85
430.30	3131.34
430.51	3110.86
430.71	2797.53
430.92	2891.73
431.13	2912.21
431.33	3053.52
431.54	2918.36
431.74	3043.28
431.95	3368.91
432.15	2854.87
432.36	2793.43
432.56	2987.99
432.77	3370.96
432.98	3323.85
433.18	2881.49
433.39	2691.03
433.59	2918.36
433.80	3362.76
434.00	3020.75
434.21	2850.77
434.41	2856.92
434.62	3475.40
434.82	2772.95
435.03	2746.33
435.23	2990.03
435.44	2766.81
435.64	2781.14
435.85	2912.21
436.06	3104.72
436.26	3227.60
436.47	2838.48
436.67	2815.96
436.88	3033.04
437.08	3119.06
437.29	2985.94
437.49	2897.88
437.70	3246.03
437.90	2916.31
438.11	3010.51
438.31	2951.12
438.52	3180.50
438.72	3149.78
438.93	3149.78
439.13	2916.31
439.34	3145.68
439.54	2914.26
439.75	2916.31
439.95	2899.92
440.16	2836.44
440.36	2953.17
440.57	2858.96
440.77	2885.59
440.98	2987.99
441.18	3016.66
441.39	2760.66
441.59	2748.37
441.80	3409.87
442.00	2985.94
442.21	2944.98
442.41	2688.98
442.62	3207.12
442.82	2828.24
443.02	2746.33
443.23	2914.26
443.43	2867.16
443.64	3223.50
443.84	2789.33
444.05	2955.22
444.25	2951.12
444.46	2922.45
444.66	2736.09
444.87	3035.09
445.07	2717.65
445.28	2918.36
445.48	3041.23
445.69	2871.25
445.89	3411.92
446.09	2967.51
446.30	3223.50
446.50	3143.63
446.71	4849.59
446.91	5689.26
447.12	6586.27
447.32	6983.57
447.53	6832.02
447.73	5660.59
447.93	4970.42
448.14	4773.82
448.34	4861.88
448.55	4046.79
448.75	4083.65
448.96	3856.33
449.16	3725.26
449.36	3473.36
449.57	3067.86
449.77	2969.55
449.98	2906.07
450.18	3063.76
450.39	2830.29
450.59	2944.98
450.79	3006.42
451.00	2822.10
451.20	3002.32
451.41	2844.63
451.61	3131.34
451.81	3002.32
452.02	2785.24
452.22	2914.26
452.43	2901.97
452.63	2934.74
452.84	2850.77
453.04	2752.47
453.24	3047.38
453.45	2893.78
453.65	2944.98
453.86	2942.93
454.06	2934.74
454.26	2996.18
454.47	2830.29
454.67	2967.51
454.87	3119.06
455.08	2869.20
455.28	2992.08
455.49	3033.04
455.69	2897.88
455.89	3338.19
456.10	2981.84
456.30	2854.87
456.51	3203.02
456.71	3020.75
456.91	3000.27
457.12	2844.63
457.32	3129.30
457.52	2811.86
457.73	2949.08
457.93	2992.08
458.14	2961.36
458.34	2707.41
458.54	2854.87
458.75	2805.72
458.95	3123.15
459.15	3065.81
459.36	2932.69
459.56	2869.20
459.76	3418.06
459.97	3006.42
460.17	2834.39
460.37	3069.91
460.58	3014.61
460.78	3135.44
460.99	2848.72
461.19	2844.63
461.39	2904.02
461.60	2985.94
461.80	2871.25
462.00	2748.37
462.21	2906.07
462.41	2801.62
462.61	2717.65
462.82	2650.07
463.02	3127.25
463.22	3037.14
463.43	2975.70
463.63	2820.05
463.83	3217.36
464.04	3014.61
464.24	2752.47
464.44	2760.66
464.64	2990.03
464.85	3188.69
465.05	2852.82
465.25	2854.87
465.46	2914.26
465.66	3041.23
465.86	2901.97
466.07	2777.05
466.27	2983.89
466.47	2766.81
466.68	2707.41
466.88	3018.71
467.08	3108.82
467.29	3182.54
467.49	2922.45
467.69	2904.02
467.89	3119.06
468.10	2899.92
468.30	2975.70
468.50	2981.84
468.71	3184.59
468.91	2707.41
469.11	3071.95
469.31	2893.78
469.52	2861.01
469.72	3286.99
469.92	3088.34
470.13	2830.29
470.33	2877.40
470.53	2979.79
470.73	3246.03
470.94	3540.94
471.14	3663.82
471.34	4050.88
471.54	3743.69
471.75	3618.76
471.95	3389.39
472.15	3346.38
472.36	3284.94
472.56	3270.61
472.76	3434.44
472.96	3295.18
473.17	3049.43
473.37	3037.14
473.57	2967.51
473.77	3049.43
473.98	3000.27
474.18	2734.04
474.38	3518.41
474.58	2926.55
474.79	2693.08
474.99	3020.75
475.19	3190.74
475.39	2944.98
475.60	2861.01
475.80	2826.20
476.00	3078.10
476.20	2889.68
476.41	2908.12
476.61	2990.03
476.81	3284.94
477.01	2844.63
477.21	3078.10
477.42	3043.28
477.62	2858.96
477.82	3094.48
478.02	2822.10
478.23	2838.48
478.43	2727.89
478.63	2920.40
478.83	2899.92
479.03	2871.25
479.24	3219.41
479.44	3405.77
479.64	2762.71
479.84	2623.45
480.04	2883.54
480.25	3098.58
480.45	2764.76
480.65	2748.37
480.85	3231.69
481.06	2875.35
481.26	2901.97
481.46	2863.06
481.66	3104.72
481.86	2875.35
482.06	3020.75
482.27	2869.20
482.47	2852.82
482.67	3008.47
482.87	2803.67
483.07	2983.89
483.28	2947.03
483.48	2809.81
483.68	2877.40
483.88	2770.90
484.08	2662.36
484.29	2772.95
484.49	2922.45
484.69	2697.17
484.89	3147.73
485.09	3215.31
485.29	2920.40
485.50	2953.17
485.70	2861.01
485.90	3270.61
486.10	2987.99
486.30	2883.54
486.50	3135.44
486.71	3061.71
486.91	3018.71
487.11	2934.74
487.31	2811.86
487.51	3016.66
487.71	2842.58
487.91	2721.75
488.12	2848.72
488.32	2553.82
488.52	2822.10
488.72	2662.36
488.92	3067.86
489.12	3225.55
489.32	2996.18
489.53	2906.07
489.73	2736.09
489.93	3295.18
490.13	2856.92
490.33	2656.22
490.53	3045.33
490.73	3069.91
490.94	2693.08
491.14	2918.36
491.34	3104.72
491.54	3139.54
491.74	3682.25
491.94	4270.01
492.14	4620.22
492.34	4736.95
492.54	4370.37
492.75	3743.69
492.95	3960.77
493.15	3549.13
493.35	3565.51
493.55	3495.88
493.75	3297.23
493.95	3477.45
494.15	3104.72
494.35	3002.32
494.56	3033.04
494.76	2871.25
494.96	2983.89
495.16	2828.24
495.36	3014.61
495.56	3006.42
495.76	2971.60
495.96	2844.63
496.16	2879.44
496.36	3358.67
496.56	2869.20
496.77	2920.40
496.97	3018.71
497.17	3176.40
497.37	2688.98
497.57	3018.71
497.77	3020.75
497.97	2738.13
498.17	2883.54
498.37	2820.05
498.57	3121.10
498.77	2877.40
498.97	2957.27
499.17	3135.44
499.38	2918.36
499.58	3094.48
499.78	2987.99
499.98	3030.99
500.18	2938.84
500.38	2887.64
500.58	3049.43
500.78	3268.56
500.98	5593.00
501.18	7333.78
501.38	8839.03
501.58	9678.70
501.78	9660.27
501.98	8032.13
502.18	6678.43
502.38	5916.58
502.58	5707.69
502.78	5021.62
502.98	4843.45
503.18	4616.12
503.38	4435.90
503.59	3721.16
503.79	3721.16
503.99	3432.40
504.19	3481.55
504.39	3364.81
504.59	3215.31
504.79	3243.98
504.99	3446.73
505.19	3192.78
505.39	2987.99
505.59	3229.65
505.79	3241.93
505.99	3053.52
506.19	2881.49
506.39	3172.30
506.59	2734.04
506.79	2961.36
506.99	3049.43
507.19	2883.54
507.39	2985.94
507.59	2772.95
507.79	2815.96
507.99	2750.42
508.19	2961.36
508.39	2944.98
508.59	2820.05
508.79	2971.60
508.99	3358.67
509.19	2818.00
509.39	2891.73
509.59	2789.33
509.79	2940.88
509.99	3016.66
510.19	3018.71
510.39	2914.26
510.59	2973.65
510.79	2877.40
510.99	2711.51
511.19	2854.87
511.39	3282.89
511.59	3194.83
511.79	2965.46
511.99	2865.11
512.19	3313.61
512.38	3084.24
512.58	2734.04
512.78	2840.53
512.98	3196.88
513.18	3213.26
513.38	2734.04
513.58	2965.46
513.78	2973.65
513.98	2961.36
514.18	2848.72
514.38	2953.17
514.58	3086.29
514.78	2863.06
514.98	2777.05
515.18	2852.82
515.38	2809.81
515.58	3303.37
515.78	2828.24
515.98	2856.92
516.18	3131.34
516.38	2963.41
516.57	2820.05
516.77	2807.77
516.97	3090.38
517.17	2889.68
517.37	2676.70
517.57	2957.27
517.77	3008.47
517.97	2848.72
518.17	2912.21
518.37	2752.47
518.57	2844.63
518.77	2910.16
518.97	2879.44
519.16	2977.75
519.36	3180.50
519.56	2895.83
519.76	2809.81
519.96	2881.49
520.16	3213.26
520.36	2865.11
520.56	3055.57
520.76	2791.38
520.96	2983.89
521.16	3082.19
521.35	3092.43
521.55	2977.75
521.75	2942.93
521.95	2883.54
522.15	2791.38
522.35	2629.59
522.55	2879.44
522.75	3082.19
522.95	2764.76
523.14	2775.00
523.34	3108.82
523.54	2914.26
523.74	2994.13
523.94	2869.20
524.14	2727.89
524.34	3071.95
524.54	2987.99
524.73	2944.98
524.93	3143.63
525.13	3055.57
525.33	2742.23
525.53	3092.43
525.73	3057.62
525.93	2994.13
526.13	2789.33
526.32	2742.23
526.52	3102.67
526.72	3155.92
526.92	2846.68
527.12	2813.91
527.32	2770.90
527.52	3102.67
527.71	2926.55
527.91	2885.59
528.11	2844.63
528.31	2938.84
528.51	2809.81
528.71	2922.45
528.90	3080.14
529.10	3205.07
529.30	2940.88
529.50	2508.76
529.70	3059.67
529.90	3008.47
530.09	2947.03
530.29	2734.04
530.49	2875.35
530.69	3467.21
530.89	2889.68
531.09	2965.46
531.28	2916.31
531.48	3246.03
531.68	2879.44
531.88	2887.64
532.08	3196.88
532.28	2973.65
532.47	2963.41
532.67	3024.85
532.87	3112.91
533.07	2838.48
533.27	2959.31
533.46	2906.07
533.66	3080.14
533.86	2953.17
534.06	2985.94
534.26	2795.48
534.45	2867.16
534.65	3166.16
534.85	2977.75
535.05	2791.38
535.25	3100.62
535.44	2809.81
535.64	2899.92
535.84	2918.36
536.04	2818.00
536.24	2848.72
536.43	2799.57
536.63	2863.06
536.83	3020.75
537.03	3022.80
537.22	2639.83
537.42	2748.37
537.62	2985.94
537.82	2869.20
538.02	3055.57
538.21	2953.17
538.41	3508.17
538.61	3074.00
538.81	2899.92
539.00	3000.27
539.20	2713.56
539.40	2977.75
539.60	2830.29
539.79	3000.27
539.99	3014.61
540.19	2879.44
540.39	2772.95
540.58	2967.51
540.78	3145.68
540.98	3033.04
541.18	3020.75
541.37	2861.01
541.57	2994.13
541.77	3049.43
541.97	2666.46
542.16	2727.89
542.36	2940.88
542.56	2947.03
542.76	3082.19
542.95	2912.21
543.15	3065.81
543.35	3088.34
543.54	2815.96
543.74	2723.80
543.94	3237.84
544.14	2826.20
544.33	2951.12
544.53	2813.91
544.73	2922.45
544.93	2844.63
545.12	2834.39
545.32	2846.68
545.52	2891.73
545.71	2650.07
545.91	2879.44
546.11	2875.35
546.30	2787.29
546.50	2922.45
546.70	2918.36
546.90	2944.98
547.09	2650.07
547.29	2918.36
547.49	2987.99
547.68	2942.93
547.88	2893.78
548.08	3157.97
548.27	3188.69
548.47	2854.87
548.67	2832.34
548.87	3084.24
549.06	2777.05
549.26	2789.33
549.46	3104.72
549.65	2938.84
549.85	2861.01
550.05	2840.53
550.24	2805.72
550.44	2953.17
550.64	2877.40
550.83	2875.35
551.03	3215.31
551.23	3147.73
551.42	2928.60
551.62	2813.91
551.82	3000.27
552.01	2924.50
552.21	3096.53
552.41	2795.48
552.60	3278.80
552.80	3012.56
553.00	2781.14
553.19	2893.78
553.39	3284.94
553.59	2731.99
553.78	2955.22
553.98	2836.44
554.17	2822.10
554.37	3008.47
554.57	2951.12
554.76	2672.60
554.96	2828.24
555.16	2961.36
555.35	2934.74
555.55	2951.12
555.75	3078.10
555.94	3145.68
556.14	2740.18
556.33	2803.67
556.53	2975.70
556.73	2987.99
556.92	2940.88
557.12	2867.16
557.32	3366.86
557.51	3307.47
557.71	2856.92
557.90	2965.46
558.10	3231.69
558.30	2875.35
558.49	2789.33
558.69	2820.05
558.88	3143.63
559.08	3061.71
559.28	2801.62
559.47	2832.34
559.67	3090.38
559.86	3399.63
560.06	2930.64
560.26	2881.49
560.45	3125.20
560.65	2865.11
560.84	3082.19
561.04	2779.09
561.24	3121.10
561.43	2742.23
561.63	3045.33
561.82	2924.50
562.02	3190.74
562.22	2848.72
562.41	2752.47
562.61	2830.29
562.80	2848.72
563.00	3360.72
563.19	2916.31
563.39	2938.84
563.59	3067.86
563.78	2813.91
563.98	2666.46
564.17	2793.43
564.37	2756.57
564.56	2938.84
564.76	2756.57
564.96	2981.84
565.15	2944.98
565.35	3370.96
565.54	2822.10
565.74	2912.21
565.93	3067.86
566.13	3039.19
566.32	2928.60
566.52	2951.12
566.71	2967.51
566.91	3147.73
567.11	2998.23
567.30	2770.90
567.50	3104.72
567.69	3043.28
567.89	2850.77
568.08	2729.94
568.28	2975.70
568.47	2783.19
568.67	2871.25
568.86	2824.15
569.06	3155.92
569.25	2992.08
569.45	2713.56
569.64	2879.44
569.84	2990.03
570.04	3033.04
570.23	2813.91
570.43	2899.92
570.62	3000.27
570.82	3243.98
571.01	2762.71
571.21	2756.57
571.40	2762.71
571.60	3117.01
571.79	2914.26
571.99	2832.34
572.18	2832.34
572.38	2951.12
572.57	2914.26
572.77	2869.20
572.96	3477.45
573.16	3002.32
573.35	2908.12
573.55	3033.04
573.74	2977.75
573.94	2961.36
574.13	2803.67
574.33	2971.60
574.52	3233.74
574.71	2994.13
574.91	2901.97
575.10	2750.42
575.30	2910.16
575.49	2813.91
575.69	2795.48
575.88	2889.68
576.08	2914.26
576.27	3106.77
576.47	2754.52
576.66	3133.39
576.86	3239.89
577.05	3045.33
577.25	2975.70
577.44	3088.34
577.64	2926.55
577.83	3198.93
578.02	2809.81
578.22	3012.56
578.41	3252.17
578.61	2930.64
578.80	2721.75
579.00	2914.26
579.19	2928.60
579.39	3096.53
579.58	2928.60
579.77	2867.16
579.97	3147.73
580.16	3239.89
580.36	3002.32
580.55	3004.37
580.75	3049.43
580.94	3016.66
581.13	3106.77
581.33	3074.00
581.52	2957.27
581.72	3303.37
581.91	3055.57
582.11	2858.96
582.30	3133.39
582.49	3125.20
582.69	3145.68
582.88	2959.31
583.08	3000.27
583.27	3133.39
583.47	2889.68
583.66	2844.63
583.85	2840.53
584.05	2963.41
584.24	3106.77
584.44	2914.26
584.63	3143.63
584.82	3162.06
585.02	3106.77
585.21	2985.94
585.41	3164.11
585.60	3049.43
585.79	3102.67
585.99	3241.93
586.18	2992.08
586.37	3911.62
586.57	6027.17
586.76	16688.90
586.96	35376.61
587.15	48676.12
587.34	57126.04
587.54	61256.79
587.73	54142.15
587.93	38743.47
588.12	29435.45
588.31	24106.64
588.51	21329.59
588.70	19715.80
588.89	17207.03
589.09	14780.19
589.28	12588.86
589.47	9891.69
589.67	7559.05
589.86	6016.93
590.06	4634.55
590.25	4097.99
590.44	3557.32
590.64	3241.93
590.83	3268.56
591.02	3233.74
591.22	2908.12
591.41	2977.75
591.60	2910.16
591.80	3381.20
591.99	2783.19
592.18	2832.34
592.38	3157.97
592.57	2910.16
592.76	2955.22
592.96	3004.37
593.15	3063.76
593.34	3186.64
593.54	2793.43
593.73	3004.37
593.92	3082.19
594.12	3074.00
594.31	2940.88
594.50	3053.52
594.70	3067.86
594.89	3502.03
595.08	2670.55
595.28	2973.65
595.47	3600.33
595.66	3162.06
595.86	2719.70
596.05	2797.53
596.24	2928.60
596.43	3340.24
596.63	3028.95
596.82	2959.31
597.01	3063.76
597.21	3358.67
597.40	2844.63
597.59	2881.49
597.79	2983.89
597.98	3200.98
598.17	2891.73
598.36	2944.98
598.56	3215.31
598.75	2918.36
598.94	2930.64
599.14	2922.45
599.33	2947.03
599.52	3170.26
599.71	2885.59
599.91	2858.96
600.10	3137.49
600.29	3104.72
600.48	2912.21
600.68	2977.75
600.87	2963.41
601.06	2951.12
601.26	2967.51
601.45	2951.12
601.64	2973.65
601.83	3221.45
602.03	2783.19
602.22	2713.56
602.41	3192.78
602.60	3440.59
602.80	2924.50
602.99	3004.37
603.18	2766.81
603.37	3024.85
603.57	2754.52
603.76	2957.27
603.95	3203.02
604.14	2936.79
604.34	2762.71
604.53	2842.58
604.72	3102.67
604.91	3092.43
605.10	2895.83
605.30	2656.22
605.49	3274.70
605.68	2979.79
605.87	2965.46
606.07	2879.44
606.26	3043.28
606.45	2985.94
606.64	2861.01
606.84	2826.20
607.03	2901.97
607.22	3194.83
607.41	2891.73
607.60	2783.19
607.80	3135.44
607.99	2955.22
608.18	2916.31
608.37	2848.72
608.56	2996.18
608.76	3221.45
608.95	3045.33
609.14	2912.21
609.33	3123.15
609.52	3223.50
609.72	2881.49
609.91	2951.12
610.10	3012.56
610.29	3131.34
610.48	2983.89
610.68	2994.13
610.87	2887.64
611.06	3123.15
611.25	2861.01
611.44	3010.51
611.63	2990.03
611.83	3295.18
612.02	2715.61
612.21	3030.99
612.40	2697.17
612.59	2754.52
612.79	2779.09
612.98	2885.59
613.17	3254.22
613.36	2987.99
613.55	2969.55
613.74	2850.77
613.93	2967.51
614.13	3186.64
614.32	3026.90
614.51	2842.58
614.70	3006.42
614.89	2979.79
615.08	2936.79
615.28	3231.69
615.47	2863.06
615.66	3067.86
615.85	2875.35
616.04	2953.17
616.23	3059.67
616.42	3022.80
616.62	2914.26
616.81	2842.58
617.00	2965.46
617.19	3043.28
617.38	2863.06
617.57	2944.98
617.76	3090.38
617.95	3170.26
618.15	2944.98
618.34	3016.66
618.53	2762.71
618.72	3237.84
618.91	3047.38
619.10	2987.99
619.29	2942.93
619.48	2947.03
619.68	2744.28
619.87	2815.96
620.06	2785.24
620.25	3104.72
620.44	2818.00
620.63	2760.66
620.82	3002.32
621.01	3000.27
621.20	2871.25
621.39	2992.08
621.59	2971.60
621.78	2953.17
621.97	2901.97
622.16	3053.52
622.35	3067.86
622.54	3090.38
622.73	2951.12
622.92	2600.92
623.11	3096.53
623.30	2965.46
623.49	2924.50
623.68	2705.37
623.88	3170.26
624.07	2826.20
624.26	2803.67
624.45	2924.50
624.64	2961.36
624.83	3061.71
625.02	2861.01
625.21	2822.10
625.40	3045.33
625.59	3141.58
625.78	2961.36
625.97	2977.75
626.16	3192.78
626.35	3225.55
626.54	2916.31
626.74	3084.24
626.93	2949.08
627.12	2983.89
627.31	2920.40
627.50	2885.59
627.69	3162.06
627.88	2818.00
628.07	2842.58
628.26	2715.61
628.45	2922.45
628.64	2852.82
628.83	2865.11
629.02	2746.33
629.21	3059.67
629.40	3028.95
629.59	2746.33
629.78	2848.72
629.97	3006.42
630.16	3088.34
630.35	2846.68
630.54	2926.55
630.73	2838.48
630.92	2893.78
631.11	2731.99
631.30	2889.68
631.49	3139.54
631.68	3006.42
631.87	2893.78
632.06	2783.19
632.25	3452.88
632.44	3028.95
632.63	2875.35
632.82	2832.34
633.01	2936.79
633.20	3108.82
633.39	2895.83
633.58	2654.17
633.77	3016.66
633.96	3131.34
634.15	3010.51
634.34	2879.44
634.53	2994.13
634.72	2904.02
634.91	2746.33
635.10	2850.77
635.29	3145.68
635.48	3035.09
635.67	2734.04
635.86	2721.75
636.05	3278.80
636.24	3045.33
636.43	2809.81
636.62	2942.93
636.81	2623.45
637.00	3049.43
637.19	2916.31
637.38	2885.59
637.57	2963.41
637.76	3014.61
637.95	3010.51
638.14	2856.92
638.33	3045.33
638.52	3000.27
638.71	2809.81
638.89	2701.27
639.08	3446.73
639.27	3221.45
639.46	3110.86
639.65	3334.09
639.84	3444.68
640.03	3499.98
640.22	3186.64
640.41	3217.36
640.60	2985.94
640.79	3106.77
640.98	3084.24
641.17	3043.28
641.36	3190.74
641.55	3139.54
641.74	2785.24
641.92	2772.95
642.11	2861.01
642.30	2910.16
642.49	2666.46
642.68	2854.87
642.87	2996.18
643.06	3094.48
643.25	2744.28
643.44	2828.24
643.63	2967.51
643.82	3217.36
644.00	2721.75
644.19	2887.64
644.38	2875.35
644.57	3043.28
644.76	2910.16
644.95	2854.87
645.14	3086.29
645.33	2977.75
645.52	2871.25
645.71	2723.80
645.89	2801.62
646.08	2936.79
646.27	2869.20
646.46	3067.86
646.65	2768.85
646.84	3026.90
647.03	2844.63
647.22	3041.23
647.40	2977.75
647.59	2979.79
647.78	2672.60
647.97	2846.68
648.16	2926.55
648.35	3125.20
648.54	3053.52
648.73	2912.21
648.91	3059.67
649.10	3053.52
649.29	2879.44
649.48	2869.20
649.67	3065.81
649.86	3024.85
650.05	2856.92
650.23	2985.94
650.42	2916.31
650.61	3289.04
650.80	3047.38
650.99	3141.58
651.18	3147.73
651.36	3207.12
651.55	2836.44
651.74	3014.61
651.93	2938.84
652.12	2881.49
652.31	2836.44
652.49	2938.84
652.68	2981.84
652.87	3164.11
653.06	2938.84
653.25	3143.63
653.44	2985.94
653.62	3250.13
653.81	2934.74
654.00	2846.68
654.19	3114.96
654.38	3403.72
654.56	2979.79
654.75	2787.29
654.94	3080.14
655.13	2979.79
655.32	2822.10
655.51	2942.93
655.69	2813.91
655.88	3203.02
656.07	2746.33
656.26	2944.98
656.45	2744.28
656.63	3002.32
656.82	2908.12
657.01	3102.67
657.20	2832.34
657.38	3243.98
657.57	2863.06
657.76	2668.50
657.95	3155.92
658.14	2906.07
658.32	2947.03
658.51	2811.86
658.70	3016.66
658.89	3018.71
659.08	2981.84
659.26	3094.48
659.45	2828.24
659.64	3071.95
659.83	2834.39
660.01	3223.50
660.20	2981.84
660.39	3301.33
660.58	2600.92
660.76	2992.08
660.95	2760.66
661.14	2920.40
661.33	2688.98
661.51	2885.59
661.70	2861.01
661.89	3014.61
662.08	2899.92
662.26	2699.22
662.45	2813.91
662.64	3291.09
662.83	2891.73
663.01	2719.70
663.20	2846.68
663.39	3235.79
663.58	2826.20
663.76	2916.31
663.95	3096.53
664.14	2793.43
664.32	2879.44
664.51	2791.38
664.70	2742.23
664.89	3006.42
665.07	2746.33
665.26	3059.67
665.45	2854.87
665.64	3071.95
665.82	2826.20
666.01	3000.27
666.20	2842.58
666.38	3114.96
666.57	3088.34
666.76	4741.05
666.95	10987.35
667.13	17620.72
667.32	21556.92
667.51	24217.23
667.69	25290.37
667.88	21079.74
668.07	15111.96
668.25	12955.45
668.44	11110.23
668.63	9650.03
668.81	8628.09
669.00	7325.58
669.19	6758.30
669.38	5879.72
669.56	5058.48
669.75	4362.17
669.94	3940.29
670.12	3358.67
670.31	3041.23
670.50	3229.65
670.68	3074.00
670.87	3008.47
671.06	2865.11
671.24	2936.79
671.43	3221.45
671.62	2983.89
671.80	2824.15
671.99	2959.31
672.18	2994.13
672.36	3133.39
672.55	2971.60
672.74	2930.64
672.92	2805.72
673.11	3174.35
673.29	2695.13
673.48	3016.66
673.67	2934.74
673.85	3184.59
674.04	2791.38
674.23	2944.98
674.41	3340.24
674.60	2791.38
674.79	2635.74
674.97	2738.13
675.16	3143.63
675.34	3147.73
675.53	2877.40
675.72	2979.79
675.90	3274.70
676.09	2983.89
676.28	2963.41
676.46	2711.51
676.65	3106.77
676.83	2873.30
677.02	2895.83
677.21	2951.12
677.39	3024.85
677.58	2869.20
677.77	2822.10
677.95	2775.00
678.14	2961.36
678.32	2963.41
678.51	2873.30
678.70	3229.65
678.88	2932.69
679.07	3053.52
679.25	2908.12
679.44	2820.05
679.63	2797.53
679.81	3016.66
680.00	3059.67
680.18	2953.17
680.37	3268.56
680.55	2981.84
680.74	2727.89
680.93	2721.75
681.11	3033.04
681.30	2994.13
681.48	2920.40
681.67	2875.35
681.85	3061.71
682.04	2871.25
682.23	3018.71
682.41	2957.27
682.60	2938.84
682.78	2928.60
682.97	2762.71
683.15	2926.55
683.34	2977.75
683.53	3280.85
683.71	2791.38
683.90	2994.13
684.08	3213.26
684.27	3037.14
684.45	2897.88
684.64	3018.71
684.82	2924.50
685.01	3069.91
685.19	2940.88
685.38	3184.59
685.57	2947.03
685.75	2856.92
685.94	2805.72
686.12	2744.28
686.31	2908.12
686.49	3305.42
686.68	2715.61
686.86	2830.29
687.05	2996.18
687.23	3207.12
687.42	2826.20
687.60	2740.18
687.79	3172.30
687.97	3293.13
688.16	2928.60
688.34	3106.77
688.53	2727.89
688.71	3000.27
688.90	2985.94
689.08	2852.82
689.27	2705.37
689.45	3106.77
689.64	3000.27
689.82	2949.08
690.01	2969.55
690.19	3061.71
690.38	2889.68
690.56	3039.19
690.75	2811.86
690.93	2809.81
691.12	2834.39
691.30	2953.17
691.49	2979.79
691.67	3055.57
691.86	3168.21
692.04	2840.53
692.23	2893.78
692.41	3028.95
692.60	3219.41
692.78	3041.23
692.97	2959.31
693.15	3063.76
693.34	3143.63
693.52	3053.52
693.71	2899.92
693.89	2926.55
694.08	2729.94
694.26	2971.60
694.44	3067.86
694.63	3194.83
694.81	2764.76
695.00	2854.87
695.18	3192.78
695.37	3495.88
695.55	2848.72
695.74	2942.93
695.92	2877.40
696.10	3205.07
696.29	2697.17
696.47	2822.10
696.66	2799.57
696.84	2844.63
697.03	2893.78
697.21	3086.29
697.40	4411.32
697.58	3151.82
697.76	2869.20
697.95	2813.91
698.13	2795.48
698.32	2863.06
698.50	2863.06
698.68	2934.74
698.87	3092.43
699.05	3231.69
699.24	2922.45
699.42	2766.81
699.61	2981.84
699.79	3039.19
699.97	2918.36
700.16	2695.13
700.34	2818.00
700.53	2975.70
700.71	3065.81
700.89	2963.41
701.08	2932.69
701.26	2928.60
701.45	3297.23
701.63	2750.42
701.81	2836.44
702.00	2875.35
702.18	2881.49
702.37	2863.06
702.55	3213.26
702.73	3008.47
702.92	2793.43
703.10	3127.25
703.28	3014.61
703.47	2805.72
703.65	3071.95
703.84	2955.22
704.02	2947.03
704.20	3198.93
704.39	2869.20
704.57	2828.24
704.75	3092.43
704.94	3069.91
705.12	3094.48
705.30	3444.68
705.49	6651.80
705.67	12812.09
705.86	17872.62
706.04	20559.56
706.22	22814.37
706.41	22345.39
706.59	16877.31
706.77	13092.66
706.96	11468.62
707.14	10354.53
707.32	9015.16
707.51	7835.53
707.69	6545.31
707.87	5349.29
708.06	4509.63
708.24	3985.35
708.42	3631.05
708.61	3643.34
708.79	2916.31
708.97	3014.61
709.16	3061.71
709.34	3002.32
709.52	2824.15
709.71	2910.16
709.89	3104.72
710.07	2887.64
710.26	2734.04
710.44	2875.35
710.62	3133.39
710.80	3076.05
710.99	3037.14
711.17	2985.94
711.35	2897.88
711.54	2863.06
711.72	3016.66
711.90	2975.70
712.09	3051.47
712.27	2879.44
712.45	3033.04
712.63	2852.82
712.82	3043.28
713.00	3020.75
713.18	3051.47
713.37	2912.21
713.55	3131.34
713.73	2996.18
713.91	3022.80
714.10	2869.20
714.28	2955.22
714.46	3110.86
714.65	2967.51
714.83	2979.79
715.01	2996.18
715.19	3004.37
715.38	2742.23
715.56	3043.28
715.74	2881.49
715.92	2828.24
716.11	3135.44
716.29	2627.54
716.47	2994.13
716.65	2926.55
716.84	2746.33
717.02	2910.16
717.20	2783.19
717.38	2912.21
717.57	2953.17
717.75	2861.01
717.93	2863.06
718.11	3059.67
718.30	2760.66
718.48	2918.36
718.66	3160.02
718.84	3160.02
719.03	2877.40
719.21	2772.95
719.39	3252.17
719.57	3110.86
719.75	3012.56
719.94	2854.87
720.12	3016.66
720.30	2961.36
720.48	2957.27
720.67	2858.96
720.85	2748.37
721.03	2856.92
721.21	2791.38
721.39	3012.56
721.58	3094.48
721.76	2910.16
721.94	2861.01
722.12	2926.55
722.30	3239.89
722.49	2893.78
722.67	2918.36
722.85	2934.74
723.03	2709.46
723.21	2807.77
723.40	3008.47
723.58	3037.14
723.76	3016.66
723.94	3209.17
724.12	2949.08
724.30	3051.47
724.49	3094.48
724.67	2836.44
724.85	3000.27
725.03	2713.56
725.21	3067.86
725.40	3086.29
725.58	2797.53
725.76	3090.38
725.94	3141.58
726.12	2811.86
726.30	2910.16
726.49	2793.43
726.67	2916.31
726.85	3094.48
727.03	3446.73
727.21	4464.57
727.39	5466.03
727.57	5881.77
727.76	6287.26
727.94	6369.18
728.12	5709.74
728.30	4661.18
728.48	4337.60
728.66	4233.15
728.84	3954.63
729.03	3477.45
729.21	3395.53
729.39	3274.70
729.57	3012.56
729.75	3190.74
729.93	2969.55
730.11	2807.77
730.30	2930.64
730.48	3049.43
730.66	2987.99
730.84	3024.85
731.02	3051.47
731.20	2901.97
731.38	2914.26
731.56	2752.47
731.74	2815.96
731.93	2998.23
732.11	2934.74
732.29	2799.57
732.47	3117.01
732.65	3078.10
732.83	3030.99
733.01	3035.09
733.19	2818.00
733.37	3074.00
733.56	2961.36
733.74	2758.61
733.92	3248.08
734.10	2926.55
734.28	3112.91
734.46	2668.50
734.64	2969.55
734.82	2926.55
735.00	2858.96
735.18	2768.85
735.36	2959.31
735.54	2955.22
735.73	2918.36
735.91	2979.79
736.09	3203.02
736.27	2998.23
736.45	3018.71
736.63	2682.84
736.81	2805.72
736.99	3020.75
737.17	3100.62
737.35	2828.24
737.53	3016.66
737.71	2977.75
737.89	3051.47
738.07	2744.28
738.25	2807.77
738.43	2711.51
738.61	2838.48
738.80	2744.28
738.98	2781.14
739.16	2871.25
739.34	2813.91
739.52	3131.34
739.70	2875.35
739.88	3063.76
740.06	2971.60
740.24	2617.30
740.42	3104.72
740.60	2709.46
740.78	2904.02
740.96	2672.60
741.14	2940.88
741.32	3000.27
741.50	2766.81
741.68	3123.15
741.86	3213.26
742.04	2818.00
742.22	2746.33
742.40	2818.00
742.58	3088.34
742.76	2871.25
742.94	3112.91
743.12	2734.04
743.30	3000.27
743.48	2975.70
743.66	2738.13
743.84	2918.36
744.02	2936.79
744.20	2912.21
744.38	2820.05
744.56	2871.25
744.74	3186.64
744.92	3033.04
745.10	3170.26
745.28	2936.79
745.46	3276.75
745.64	2910.16
745.82	3028.95
746.00	2883.54
746.18	3055.57
746.36	2897.88
746.54	2928.60
746.72	2818.00
746.90	2838.48
747.08	3188.69
747.26	2836.44
747.44	2996.18
747.62	3100.62
747.80	3129.30
747.98	2881.49
748.15	2801.62
748.33	3301.33
748.51	2967.51
748.69	2994.13
748.87	2770.90
749.05	2858.96
749.23	2983.89
749.41	2832.34
749.59	2871.25
749.77	3145.68
749.95	2930.64
750.13	2842.58
750.31	3004.37
750.49	2871.25
750.67	3065.81
750.85	3039.19
751.03	2942.93
751.20	3246.03
751.38	2951.12
751.56	2914.26
751.74	2838.48
751.92	2963.41
752.10	2787.29
752.28	3069.91
752.46	2842.58
752.64	2981.84
752.82	2971.60
753.00	2967.51
753.18	2873.30
753.35	2924.50
753.53	3000.27
753.71	2795.48
753.89	2867.16
754.07	2990.03
754.25	3160.02
754.43	2850.77
754.61	2744.28
754.79	3016.66
754.97	2897.88
755.14	3014.61
755.32	2762.71
755.50	2985.94
755.68	2977.75
755.86	2723.80
756.04	2822.10
756.22	2660.31
756.40	3076.05
756.57	3114.96
756.75	2858.96
756.93	3145.68
757.11	3082.19
757.29	2713.56
757.47	2777.05
757.65	2785.24
757.82	2609.11
758.00	2752.47
758.18	2762.71
758.36	2848.72
758.54	3200.98
758.72	2715.61
758.90	3030.99
759.07	3125.20
759.25	2867.16
759.43	2928.60
759.61	2793.43
759.79	4196.29
759.97	3166.16
760.15	2867.16
760.32	2811.86
760.50	3024.85
760.68	3325.90
760.86	2719.70
761.04	3098.58
761.22	3119.06
761.39	2938.84
761.57	2953.17
761.75	2813.91
761.93	3110.86
762.11	2885.59
762.28	2975.70
762.46	2760.66
762.64	3127.25
762.82	2752.47
763.00	2875.35
763.18	3020.75
763.35	2842.58
763.53	3020.75
763.71	2879.44
763.89	2844.63
764.07	3010.51
764.24	3037.14
764.42	3006.42
764.60	2920.40
764.78	3030.99
764.96	3121.10
765.13	3033.04
765.31	2818.00
765.49	3127.25
765.67	2836.44
765.84	2791.38
766.02	2830.29
766.20	2785.24
766.38	2996.18
766.56	2944.98
766.73	2967.51
766.91	2994.13
767.09	3010.51
767.27	2930.64
767.44	2742.23
767.62	3117.01
767.80	3020.75
767.98	2695.13
768.15	2912.21
768.33	3119.06
768.51	3057.62
768.69	2979.79
768.87	2852.82
769.04	3016.66
769.22	3393.48
769.40	3084.24
769.58	3096.53
769.75	3098.58
769.93	3225.55
770.11	2906.07
770.28	2766.81
770.46	3071.95
770.64	3008.47
770.82	2883.54
770.99	2750.42
771.17	3082.19
771.35	2895.83
771.53	2965.46
771.70	2832.34
771.88	3166.16
772.06	2904.02
772.23	2779.09
772.41	2944.98
772.59	2910.16
772.77	2813.91
772.94	2887.64
773.12	2918.36
773.30	2891.73
773.47	3010.51
773.65	2738.13
773.83	3041.23
774.01	2875.35
774.18	2619.35
774.36	2791.38
774.54	2713.56
774.71	3055.57
774.89	2744.28
775.07	2793.43
775.24	2830.29
775.42	2887.64
775.60	3293.13
775.78	2797.53
775.95	2746.33
776.13	2645.98
776.31	2621.40
776.48	2963.41
776.66	3084.24
776.84	2916.31
777.01	2912.21
777.19	2762.71
777.37	2781.14
777.54	3119.06
777.72	3368.91
777.90	2965.46
778.07	2781.14
778.25	3557.32
778.43	3127.25
778.60	2822.10
778.78	2944.98
778.96	3293.13
779.13	2731.99
779.31	2914.26
779.49	2914.26
779.66	3022.80
779.84	2918.36
780.01	2861.01
780.19	2775.00
780.37	3205.07
780.54	3055.57
780.72	2699.22
780.90	2854.87
781.07	2887.64
781.25	2932.69
781.43	3022.80
781.60	2826.20
781.78	3153.87
781.95	3059.67
782.13	2731.99
782.31	2873.30
782.48	2711.51
782.66	2985.94
782.83	3065.81
783.01	2963.41
783.19	3131.34
783.36	2953.17
783.54	2799.57
783.72	2983.89
783.89	2879.44
784.07	3024.85
784.24	2940.88
784.42	3047.38
784.60	3037.14
784.77	3010.51
784.95	2645.98
785.12	2815.96
785.30	2990.03
785.47	2873.30
785.65	2740.18
785.83	2856.92
786.00	2922.45
786.18	3082.19
786.35	2746.33
786.53	2750.42
786.71	3180.50
786.88	3053.52
787.06	2818.00
787.23	2922.45
787.41	2807.77
787.58	2996.18
787.76	2783.19
787.94	2893.78
788.11	3014.61
788.29	2820.05
788.46	2832.34
788.64	2754.52
788.81	2918.36
788.99	2832.34
789.16	2803.67
789.34	2895.83
789.52	2914.26
789.69	2873.30
789.87	2713.56
790.04	2828.24
790.22	2983.89
790.39	3239.89
790.57	2758.61
790.74	2803.67
790.92	3112.91
791.09	2727.89
791.27	2918.36
791.44	3008.47
791.62	2901.97
791.79	3139.54
791.97	2953.17
792.15	3280.85
792.32	3055.57
792.50	3049.43
792.67	3049.43
792.85	3135.44
793.02	2942.93
793.20	2926.55
793.37	2756.57
793.55	2807.77
793.72	2785.24
793.90	3030.99
794.07	2846.68
794.25	2789.33
794.42	2944.98
794.60	2910.16
794.77	2906.07
794.95	2924.50
795.12	3065.81
795.30	2879.44
795.47	2648.02
795.65	3166.16
795.82	2994.13
796.00	2854.87
796.17	2873.30
796.34	2658.26
796.52	3000.27
796.69	3127.25
796.87	2992.08
797.04	2877.40
797.22	3123.15
797.39	3076.05
797.57	2947.03
797.74	3014.61
797.92	3063.76
798.09	2840.53
798.27	3119.06
798.44	2828.24
798.62	2879.44
798.79	3088.34
798.96	2918.36
799.14	2918.36
799.31	3432.40
799.49	2914.26
799.66	2881.49
799.84	2883.54
800.01	2793.43
800.19	3100.62
800.36	2635.74
800.53	2887.64
800.71	3127.25
800.88	3200.98
801.06	2840.53
801.23	2766.81
801.41	2844.63
801.58	2760.66
801.75	2789.33
801.93	2992.08
802.10	3084.24
802.28	3002.32
802.45	2848.72
802.63	2910.16
802.80	3157.97
802.97	2928.60
803.15	2856.92
803.32	2848.72
803.50	2910.16
803.67	2901.97
803.84	2740.18
804.02	2955.22
804.19	2897.88
804.37	2566.10
804.54	2768.85
804.71	2795.48
804.89	3059.67
805.06	2901.97
805.24	2781.14
805.41	2662.36
805.58	2916.31
805.76	3393.48
805.93	2856.92
806.10	3102.67
806.28	3205.07
806.45	3014.61
806.63	3006.42
806.80	2881.49
806.97	3051.47
807.15	2973.65
807.32	2965.46
807.49	2918.36
807.67	2818.00
807.84	3022.80
808.01	2709.46
808.19	3086.29
808.36	3377.10
808.54	2799.57
808.71	2850.77
808.88	2795.48
809.06	3123.15
809.23	3225.55
809.40	2883.54
809.58	2865.11
809.75	2947.03
809.92	2758.61
810.10	3182.54
810.27	2856.92
810.44	3057.62
810.62	3045.33
810.79	2942.93
810.96	2791.38
811.14	2842.58
811.31	3086.29
811.48	2987.99
811.66	2904.02
811.83	3217.36
812.00	3071.95
812.18	2904.02
812.35	3217.36
812.52	2985.94
812.69	2932.69
812.87	2848.72
813.04	2842.58
813.21	2885.59
813.39	2820.05
813.56	2740.18
813.73	3067.86
813.91	2682.84
814.08	3026.90
814.25	2887.64
814.42	2721.75
814.60	2889.68
814.77	3020.75
814.94	2846.68
815.12	2887.64
815.29	3211.22
815.46	2912.21
815.63	2856.92
815.81	2818.00
815.98	2832.34
816.15	3022.80
816.33	2928.60
816.50	2963.41
816.67	2912.21
816.84	2863.06
817.02	2740.18
817.19	2832.34
817.36	2928.60
817.53	3108.82
817.71	2791.38
817.88	2861.01
818.05	2953.17
818.22	3000.27
818.40	3000.27
818.57	2779.09
818.74	3063.76
818.91	2918.36
819.09	2985.94
819.26	3020.75
819.43	2791.38
819.60	2875.35
819.78	3012.56
819.95	2887.64
820.12	2811.86
820.29	3229.65
820.47	3125.20
820.64	2793.43
820.81	2762.71
820.98	2803.67
821.15	2832.34
821.33	3012.56
821.50	2738.13
821.67	3057.62
821.84	2844.63
822.02	2897.88
822.19	3074.00
822.36	2940.88
822.53	2801.62
822.70	2688.98
822.88	2901.97
823.05	3209.17
823.22	2922.45
823.39	2914.26
823.56	2944.98
823.74	3336.14
823.91	2731.99
824.08	2738.13
824.25	2811.86
824.42	3366.86
824.60	2627.54
824.77	2887.64
824.94	2987.99
825.11	3049.43
825.28	2699.22
825.45	2975.70
825.63	3033.04
825.80	2854.87
825.97	2924.50
826.14	2963.41
826.31	2705.37
826.48	3114.96
826.66	2791.38
826.83	2811.86
827.00	2934.74
827.17	2828.24
827.34	2830.29
827.51	2820.05
827.69	2908.12
827.86	2754.52
828.03	2863.06
828.20	2875.35
828.37	2928.60
828.54	3067.86
828.71	2824.15
828.89	3000.27
829.06	3016.66
829.23	3256.27
829.40	2846.68
829.57	2889.68
829.74	3057.62
829.91	2848.72
830.09	2805.72
830.26	3051.47
830.43	3162.06
830.60	2969.55
830.77	2928.60
830.94	3012.56
831.11	3133.39
831.28	2940.88
831.46	3004.37
831.63	2824.15
831.80	3198.93
831.97	2861.01
832.14	2881.49
832.31	2938.84
832.48	2994.13
832.65	3131.34
832.82	3030.99
832.99	2959.31
833.17	2725.85
833.34	3203.02
833.51	2850.77
833.68	2674.65
833.85	3106.77
834.02	2856.92
834.19	2672.60
834.36	2836.44
834.53	3024.85
834.70	3104.72
834.87	2844.63
835.04	2623.45
835.22	2850.77
835.39	2951.12
835.56	2705.37
835.73	2731.99
835.90	3213.26
836.07	2858.96
836.24	2844.63
836.41	2709.46
836.58	2807.77
836.75	3143.63
836.92	2729.94
837.09	2723.80
837.26	3080.14
837.43	2965.46
837.60	2760.66
837.77	2758.61
837.94	3178.45
838.12	3239.89
838.29	2719.70
838.46	2713.56
838.63	2758.61
838.80	3194.83
838.97	2820.05
839.14	2754.52
839.31	2981.84
839.48	3059.67
839.65	2703.32
839.82	2838.48
839.99	3039.19
840.16	2987.99
840.33	2678.74
840.50	2846.68
840.67	2832.34
840.84	2623.45
841.01	2652.12
841.18	2768.85
841.35	3024.85
841.52	3082.19
841.69	2977.75
841.86	2748.37
842.03	2906.07
842.20	3065.81
842.37	2691.03
842.54	2865.11
842.71	2926.55
842.88	2725.85
843.05	2691.03
843.22	2670.55
843.39	3188.69
843.56	2863.06
843.73	2723.80
843.90	2807.77
844.07	2961.36
844.24	3004.37
844.41	2852.82
844.58	2797.53
844.75	2947.03
844.92	3010.51
845.09	2818.00
845.26	2705.37
845.43	3078.10
845.60	2901.97
845.77	2932.69
845.94	2746.33
846.10	3067.86
846.27	2783.19
846.44	2715.61
846.61	2623.45
846.78	3014.61
846.95	3147.73
847.12	2674.65
847.29	2770.90
847.46	2795.48
847.63	3076.05
847.80	2777.05
847.97	2756.57
848.14	3330.00
848.31	2963.41
848.48	2662.36
848.65	2748.37
848.82	2854.87
848.98	3387.34
849.15	2873.30
849.32	2760.66
849.49	3104.72
849.66	2983.89
849.83	2785.24
850.00	2658.26
850.17	3080.14
850.34	2994.13
850.51	2721.75
850.68	2729.94
850.85	3346.38
851.01	3012.56
851.18	2736.09
851.35	2758.61
851.52	3035.09
851.69	3270.61
851.86	2701.27
852.03	2801.62
852.20	3006.42
852.37	3006.42
852.53	2621.40
852.70	2701.27
852.87	3024.85
853.04	3141.58
853.21	2801.62
853.38	2959.31
853.55	3153.87
853.72	3139.54
853.89	2713.56
854.05	2725.85
854.22	2906.07
854.39	2959.31
854.56	2746.33
854.73	2879.44
854.90	2795.48
855.07	2977.75
855.23	2691.03
855.40	2633.69
855.57	2963.41
855.74	2674.65
855.91	2891.73
856.08	2594.78
856.25	2758.61
856.41	2854.87
856.58	2703.32
856.75	2715.61
856.92	2867.16
857.09	3168.21
857.26	2588.63
857.42	2770.90
857.59	3143.63
857.76	2965.46
857.93	2740.18
858.10	2801.62
858.27	2850.77
858.43	3024.85
858.60	2744.28
858.77	2566.10
858.94	2885.59
859.11	3125.20
859.27	2830.29
859.44	2615.26
859.61	3409.87
859.78	3076.05
859.95	2762.71
860.12	2711.51
860.28	3313.61
860.45	3315.66
860.62	2660.31
860.79	2789.33
860.95	2955.22
861.12	2815.96
861.29	2658.26
861.46	2654.17
861.63	2975.70
861.79	3006.42
861.96	2684.89
862.13	2785.24
862.30	3143.63
862.47	2865.11
862.63	2656.22
862.80	2783.19
862.97	3139.54
863.14	2987.99
863.30	2760.66
863.47	2721.75
863.64	3319.76
863.81	2963.41
863.97	2645.98
864.14	2725.85
864.31	2928.60
864.48	3006.42
864.65	2760.66
864.81	2832.34
864.98	3098.58
865.15	3104.72
865.32	2779.09
865.48	2762.71
865.65	3332.05
865.82	2820.05
865.98	2772.95
866.15	2729.94
866.32	2889.68
866.49	2904.02
866.65	2899.92
866.82	2686.94
866.99	2971.60
867.16	2746.33
867.32	2799.57
867.49	2645.98
867.66	2893.78
867.83	2865.11
867.99	2664.41
868.16	2803.67
868.33	2791.38
868.49	2908.12
868.66	2731.99
868.83	2836.44
868.99	3002.32
869.16	2977.75
869.33	2854.87
869.50	2822.10
869.66	3004.37
869.83	2889.68
870.00	2674.65
870.16	2889.68
870.33	2934.74
870.50	3139.54
870.66	2836.44
870.83	2809.81
871.00	2998.23
871.17	3045.33
871.33	2775.00
871.50	2678.74
871.67	2889.68
871.83	2879.44
872.00	2787.29
872.17	2781.14
872.33	3258.32
872.50	3106.77
872.67	2754.52
872.83	2688.98
873.00	3061.71
873.17	2940.88
873.33	2795.48
873.50	2850.77
873.67	2842.58
873.83	2820.05
874.00	2695.13
874.16	2877.40
874.33	2983.89
874.50	2736.09
874.66	2764.76
874.83	2844.63
875.00	3129.30
875.16	3143.63
875.33	2836.44
875.50	2510.81
875.66	2877.40
875.83	2957.27
875.99	2770.90
876.16	2867.16
876.33	2836.44
876.49	2881.49
876.66	2879.44
876.83	2779.09
876.99	2738.13
877.16	2936.79
877.32	2709.46
877.49	2740.18
877.66	3000.27
877.82	3246.03
877.99	2799.57
878.15	3008.47
878.32	3002.32
878.49	2985.94
878.65	2793.43
878.82	2969.55
878.98	2807.77
879.15	3143.63
879.32	2951.12
879.48	2895.83
879.65	2828.24
879.81	2901.97
879.98	2731.99
880.15	2719.70
880.31	3035.09
880.48	2756.57
880.64	2877.40
880.81	2824.15
880.97	3280.85
881.14	3221.45
881.31	2641.88
881.47	2885.59
881.64	2926.55
881.80	2746.33
881.97	2906.07
882.13	2758.61
882.30	2805.72
882.47	2865.11
882.63	2766.81
882.80	2684.89
882.96	2887.64
883.13	3139.54
883.29	2752.47
883.46	2762.71
883.62	3362.76
883.79	2928.60
883.95	2924.50
884.12	2691.03
884.29	3170.26
884.45	2998.23
884.62	2760.66
884.78	2723.80
884.95	3295.18
885.11	2834.39
885.28	2858.96
885.44	2789.33
885.61	3047.38
885.77	3246.03
885.94	2842.58
886.10	2826.20
886.27	2973.65
886.43	3323.85
886.60	2920.40
886.76	2762.71
886.93	2924.50
887.09	2920.40
887.26	2629.59
887.42	2770.90
887.59	3155.92
887.75	3303.37
887.92	2904.02
888.08	2815.96
888.25	3250.13
888.41	3096.53
888.58	2779.09
888.74	2654.17
888.91	2791.38
>>>>>End Processed Spectral Data<<<<<
