SpectraSuite Data File
++++++++++++++++++++++++++++++++++++
Date: Thu May 05 21:11:09 CEST 2016
User: root
Dark Spectrum Present: No
Reference Spectrum Present: No
Number of Sampled Component Spectra: 1
Spectrometers: USB4C02835
Integration Time (usec): 100000 (USB4C02835)
Spectra Averaged: 1 (USB4C02835)
Boxcar Smoothing: 0 (USB4C02835)
Correct for Electrical Dark: No (USB4C02835)
Strobe/Lamp Enabled: No (USB4C02835)
Correct for Detector Non-linearity: No (USB4C02835)
Correct for Stray Light: No (USB4C02835)
Number of Pixels in Processed Spectrum: 3648
>>>>>Begin Processed Spectral Data<<<<<
177.47	2172.89
177.69	2172.89
177.91	2172.89
178.13	2193.37
178.36	2103.26
178.58	2803.67
178.80	2961.36
179.02	2770.90
179.24	2830.29
179.46	2588.63
179.68	2674.65
179.90	2910.16
180.13	2983.89
180.35	2545.63
180.57	2688.98
180.79	3137.49
181.01	2926.55
181.23	2748.37
181.45	2772.95
181.67	3170.26
181.90	3086.29
182.12	2760.66
182.34	2551.77
182.56	3119.06
182.78	3069.91
183.00	2707.41
183.22	2721.75
183.44	2758.61
183.66	3444.68
183.89	2789.33
184.11	2668.50
184.33	3117.01
184.55	3231.69
184.77	2596.82
184.99	2660.31
185.21	2916.31
185.43	3370.96
185.65	2719.70
185.87	2639.83
186.10	3428.30
186.32	3381.20
186.54	2756.57
186.76	2807.77
186.98	3143.63
187.20	2916.31
187.42	2658.26
187.64	2691.03
187.86	3026.90
188.08	3108.82
188.30	2672.60
188.52	2758.61
188.75	3151.82
188.97	3162.06
189.19	2709.46
189.41	2611.16
189.63	3090.38
189.85	2879.44
190.07	2541.53
190.29	2641.88
190.51	3045.33
190.73	2818.00
190.95	2852.82
191.17	2731.99
191.39	2697.17
191.61	2910.16
191.84	2750.42
192.06	2801.62
192.28	2742.23
192.50	3604.42
192.72	2916.31
192.94	2691.03
193.16	3157.97
193.38	3080.14
193.60	2613.21
193.82	2867.16
194.04	3114.96
194.26	2979.79
194.48	2723.80
194.70	2746.33
194.92	2865.11
195.14	3106.77
195.36	2664.41
195.58	2666.46
195.80	2934.74
196.02	2879.44
196.24	2666.46
196.46	2762.71
196.69	2904.02
196.91	3481.55
197.13	2680.79
197.35	2740.18
197.57	3295.18
197.79	3067.86
198.01	2746.33
198.23	2725.85
198.45	3047.38
198.67	2762.71
198.89	2574.30
199.11	2785.24
199.33	2852.82
199.55	2664.41
199.77	2643.93
199.99	2791.38
200.21	2924.50
200.43	3127.25
200.65	2562.01
200.87	2615.26
201.09	2928.60
201.31	2992.08
201.53	2736.09
201.75	2811.86
201.97	3000.27
202.19	2920.40
202.41	2750.42
202.63	2770.90
202.85	3139.54
203.07	3041.23
203.29	2777.05
203.51	2594.78
203.73	2858.96
203.95	3526.60
204.17	2658.26
204.39	2799.57
204.61	2965.46
204.83	2906.07
205.05	2785.24
205.27	2756.57
205.49	3430.35
205.71	3049.43
205.93	2576.34
206.15	2609.11
206.37	3047.38
206.59	2938.84
206.81	2516.95
207.03	2562.01
207.25	2807.77
207.47	3114.96
207.69	2654.17
207.91	2971.60
208.13	3360.72
208.34	2916.31
208.56	2621.40
208.78	2719.70
209.00	2910.16
209.22	2901.97
209.44	2682.84
209.66	2734.04
209.88	3035.09
210.10	2897.88
210.32	2688.98
210.54	2756.57
210.76	2947.03
210.98	3096.53
211.20	2547.67
211.42	2764.76
211.64	3162.06
211.86	3145.68
212.08	2684.89
212.30	2648.02
212.52	2916.31
212.74	3121.10
212.96	2799.57
213.17	2662.36
213.39	3020.75
213.61	3219.41
213.83	2633.69
214.05	2553.82
214.27	3143.63
214.49	2856.92
214.71	2643.93
214.93	2848.72
215.15	2940.88
215.37	3102.67
215.59	2566.10
215.81	2738.13
216.03	3231.69
216.24	2957.27
216.46	2699.22
216.68	2768.85
216.90	3096.53
217.12	3186.64
217.34	2707.41
217.56	2824.15
217.78	3276.75
218.00	3162.06
218.22	2842.58
218.44	2719.70
218.66	3043.28
218.87	3383.24
219.09	2674.65
219.31	2682.84
219.53	3061.71
219.75	2834.39
219.97	2682.84
220.19	2674.65
220.41	2906.07
220.63	3233.74
220.85	2719.70
221.06	2707.41
221.28	3192.78
221.50	3106.77
221.72	2664.41
221.94	2537.43
222.16	2951.12
222.38	3133.39
222.60	2729.94
222.82	2731.99
223.03	3100.62
223.25	2856.92
223.47	2617.30
223.69	2899.92
223.91	3174.35
224.13	3084.24
224.35	2564.06
224.57	2813.91
224.78	3100.62
225.00	2807.77
225.22	2807.77
225.44	2674.65
225.66	3200.98
225.88	2912.21
226.10	2785.24
226.32	2750.42
226.53	3205.07
226.75	2906.07
226.97	2736.09
227.19	2650.07
227.41	2895.83
227.63	2906.07
227.85	2504.67
228.06	2742.23
228.28	3041.23
228.50	3127.25
228.72	2537.43
228.94	2668.50
229.16	2731.99
229.37	2775.00
229.59	2648.02
229.81	2899.92
230.03	2977.75
230.25	2783.19
230.47	2557.91
230.69	2713.56
230.90	3174.35
231.12	2846.68
231.34	2805.72
231.56	2760.66
231.78	2766.81
232.00	2983.89
232.21	2731.99
232.43	2725.85
232.65	2590.68
232.87	3076.05
233.09	2545.63
233.30	2664.41
233.52	3258.32
233.74	2908.12
233.96	2613.21
234.18	2858.96
234.40	2942.93
234.61	3368.91
234.83	2576.34
235.05	2588.63
235.27	3407.82
235.49	3256.27
235.70	2535.39
235.92	2666.46
236.14	3176.40
236.36	3446.73
236.58	2621.40
236.79	2746.33
237.01	2934.74
237.23	2942.93
237.45	2914.26
237.67	2688.98
237.88	3069.91
238.10	3235.79
238.32	2576.34
238.54	2619.35
238.76	2979.79
238.97	2760.66
239.19	2578.39
239.41	2772.95
239.63	3278.80
239.85	2852.82
240.06	2807.77
240.28	2648.02
240.50	3076.05
240.72	2936.79
240.93	2611.16
241.15	2809.81
241.37	3026.90
241.59	3303.37
241.81	2643.93
242.02	2664.41
242.24	3055.57
242.46	3057.62
242.68	2590.68
242.89	2664.41
243.11	3119.06
243.33	2961.36
243.55	2742.23
243.76	2750.42
243.98	2850.77
244.20	2897.88
244.42	2731.99
244.64	2688.98
244.85	2795.48
245.07	2854.87
245.29	2713.56
245.51	2701.27
245.72	3020.75
245.94	3153.87
246.16	2645.98
246.38	2641.88
246.59	2809.81
246.81	2775.00
247.03	2621.40
247.24	2607.06
247.46	2893.78
247.68	3041.23
247.90	2570.20
248.11	2609.11
248.33	3143.63
248.55	2961.36
248.77	2775.00
248.98	2770.90
249.20	3235.79
249.42	2990.03
249.64	2703.32
249.85	2699.22
250.07	2867.16
250.29	3108.82
250.50	2768.85
250.72	2623.45
250.94	3039.19
251.16	3397.58
251.37	2699.22
251.59	2719.70
251.81	2957.27
252.02	3248.08
252.24	2619.35
252.46	2775.00
252.68	2893.78
252.89	2924.50
253.11	2570.20
253.33	2828.24
253.54	3203.02
253.76	2867.16
253.98	2648.02
254.20	2637.78
254.41	2803.67
254.63	2973.65
254.85	2600.92
255.06	2738.13
255.28	2979.79
255.50	2947.03
255.71	2709.46
255.93	2510.81
256.15	2918.36
256.36	3074.00
256.58	2500.57
256.80	2670.55
257.02	2959.31
257.23	2944.98
257.45	2682.84
257.67	2772.95
257.88	2904.02
258.10	3049.43
258.32	2670.55
258.53	2707.41
258.75	3243.98
258.97	2875.35
259.18	2598.87
259.40	2594.78
259.62	3299.28
259.83	3280.85
260.05	2641.88
260.27	3473.36
260.48	3166.16
260.70	2832.34
260.92	2602.97
261.13	2752.47
261.35	3024.85
261.57	3139.54
261.78	2641.88
262.00	2682.84
262.22	3039.19
262.43	2844.63
262.65	2695.13
262.86	2742.23
263.08	3487.69
263.30	2977.75
263.51	2576.34
263.73	2674.65
263.95	3264.46
264.16	2908.12
264.38	2557.91
264.60	2662.36
264.81	2981.84
265.03	3200.98
265.25	3022.80
265.46	2615.26
265.68	3243.98
265.89	3172.30
266.11	2562.01
266.33	2691.03
266.54	3252.17
266.76	3117.01
266.98	2791.38
267.19	2883.54
267.41	3198.93
267.62	2932.69
267.84	2527.19
268.06	2811.86
268.27	3043.28
268.49	3168.21
268.70	2762.71
268.92	2688.98
269.14	2850.77
269.35	2781.14
269.57	2746.33
269.79	2715.61
270.00	2858.96
270.22	3315.66
270.43	2547.67
270.65	2471.90
270.87	2938.84
271.08	3141.58
271.30	2758.61
271.51	2729.94
271.73	3125.20
271.95	3250.13
272.16	2633.69
272.38	2727.89
272.59	2875.35
272.81	3071.95
273.02	2682.84
273.24	2752.47
273.46	3121.10
273.67	2836.44
273.89	2584.54
274.10	2619.35
274.32	3221.45
274.54	3033.04
274.75	2729.94
274.97	2736.09
275.18	3098.58
275.40	3057.62
275.61	2717.65
275.83	2861.01
276.05	2719.70
276.26	3000.27
276.48	2760.66
276.69	2713.56
276.91	2922.45
277.12	3276.75
277.34	2803.67
277.55	2885.59
277.77	3043.28
277.99	3000.27
278.20	2820.05
278.42	2750.42
278.63	2863.06
278.85	2883.54
279.06	2701.27
279.28	2887.64
279.49	3125.20
279.71	3049.43
279.93	2820.05
280.14	2858.96
280.36	2838.48
280.57	3133.39
280.79	2897.88
281.00	2748.37
281.22	2871.25
281.43	3176.40
281.65	2627.54
281.86	2682.84
282.08	3018.71
282.29	3364.81
282.51	2662.36
282.73	2734.04
282.94	2736.09
283.16	3088.34
283.37	2912.21
283.59	2809.81
283.80	3100.62
284.02	2891.73
284.23	2869.20
284.45	2803.67
284.66	2914.26
284.88	2910.16
285.09	2697.17
285.31	2889.68
285.52	3014.61
285.74	2793.43
285.95	2953.17
286.17	2852.82
286.38	3088.34
286.60	2893.78
286.81	2717.65
287.03	2820.05
287.24	2977.75
287.46	3067.86
287.67	2918.36
287.89	3108.82
288.10	3022.80
288.32	2967.51
288.53	2932.69
288.75	2803.67
288.96	3127.25
289.18	2897.88
289.39	2775.00
289.61	2908.12
289.82	3338.19
290.04	3235.79
290.25	2674.65
290.47	2844.63
290.68	2994.13
290.90	3235.79
291.11	2652.12
291.33	2893.78
291.54	2863.06
291.76	2879.44
291.97	2936.79
292.18	2846.68
292.40	2895.83
292.61	2899.92
292.83	3145.68
293.04	2836.44
293.26	3014.61
293.47	2965.46
293.69	2738.13
293.90	2742.23
294.12	3213.26
294.33	2942.93
294.55	2904.02
294.76	2934.74
294.97	3205.07
295.19	3284.94
295.40	2729.94
295.62	2881.49
295.83	3088.34
296.05	2858.96
296.26	3028.95
296.48	2805.72
296.69	2949.08
296.90	3024.85
297.12	2936.79
297.33	2959.31
297.55	3127.25
297.76	3090.38
297.98	2852.82
298.19	2922.45
298.41	3035.09
298.62	2842.58
298.83	2949.08
299.05	2959.31
299.26	2914.26
299.48	2752.47
299.69	2764.76
299.90	2818.00
300.12	2807.77
300.33	3080.14
300.55	2914.26
300.76	2934.74
300.98	2719.70
301.19	3112.91
301.40	2795.48
301.62	2836.44
301.83	3086.29
302.05	2944.98
302.26	2801.62
302.47	2840.53
302.69	2869.20
302.90	2953.17
303.12	2600.92
303.33	2928.60
303.54	3360.72
303.76	2883.54
303.97	2688.98
304.19	2953.17
304.40	2797.53
304.61	3141.58
304.83	2981.84
305.04	2877.40
305.26	3168.21
305.47	2818.00
305.68	2785.24
305.90	2643.93
306.11	3252.17
306.33	2967.51
306.54	2709.46
306.75	2760.66
306.97	2734.04
307.18	2813.91
307.39	2750.42
307.61	2811.86
307.82	3002.32
308.04	3133.39
308.25	2736.09
308.46	2924.50
308.68	3000.27
308.89	2953.17
309.10	2924.50
309.32	2818.00
309.53	2987.99
309.74	3037.14
309.96	2775.00
310.17	2877.40
310.39	2910.16
310.60	3131.34
310.81	2877.40
311.03	2658.26
311.24	3145.68
311.45	2981.84
311.67	2981.84
311.88	2918.36
312.09	2910.16
312.31	2854.87
312.52	2756.57
312.73	2770.90
312.95	2727.89
313.16	2826.20
313.37	3004.37
313.59	2957.27
313.80	3149.78
314.01	3227.60
314.23	2852.82
314.44	2756.57
314.65	2832.34
314.87	2865.11
315.08	2803.67
315.29	2822.10
315.51	2795.48
315.72	2785.24
315.93	2961.36
316.15	2877.40
316.36	2840.53
316.57	2906.07
316.79	2736.09
317.00	2713.56
317.21	3037.14
317.43	2836.44
317.64	2795.48
317.85	2719.70
318.07	2883.54
318.28	2916.31
318.49	2891.73
318.70	2973.65
318.92	3024.85
319.13	3041.23
319.34	2920.40
319.56	2748.37
319.77	3047.38
319.98	3114.96
320.20	3008.47
320.41	2881.49
320.62	3133.39
320.83	2801.62
321.05	2973.65
321.26	2846.68
321.47	3104.72
321.69	3108.82
321.90	2789.33
322.11	2787.29
322.32	3012.56
322.54	3311.57
322.75	2758.61
322.96	3555.27
323.18	2705.37
323.39	2602.97
323.60	2744.28
323.81	2949.08
324.03	2875.35
324.24	2953.17
324.45	2891.73
324.66	2772.95
324.88	3205.07
325.09	3205.07
325.30	2783.19
325.52	2787.29
325.73	3065.81
325.94	2856.92
326.15	2652.12
326.37	2697.17
326.58	3086.29
326.79	3231.69
327.00	2740.18
327.22	2783.19
327.43	2924.50
327.64	2813.91
327.85	2940.88
328.07	2820.05
328.28	3227.60
328.49	2895.83
328.70	2719.70
328.92	2822.10
329.13	3002.32
329.34	3041.23
329.55	3000.27
329.76	2897.88
329.98	2893.78
330.19	3190.74
330.40	2867.16
330.61	2901.97
330.83	3078.10
331.04	2889.68
331.25	2863.06
331.46	2875.35
331.68	2664.41
331.89	3153.87
332.10	2873.30
332.31	2727.89
332.52	3018.71
332.74	3164.11
332.95	2711.51
333.16	2768.85
333.37	3233.74
333.58	2889.68
333.80	2809.81
334.01	2547.67
334.22	2981.84
334.43	2865.11
334.64	2772.95
334.86	2652.12
335.07	2791.38
335.28	3141.58
335.49	2693.08
335.70	2865.11
335.92	3162.06
336.13	3272.65
336.34	2881.49
336.55	2858.96
336.76	3078.10
336.98	2664.41
337.19	2832.34
337.40	2955.22
337.61	3483.59
337.82	2869.20
338.04	2992.08
338.25	2682.84
338.46	2877.40
338.67	2926.55
338.88	2738.13
339.09	2641.88
339.31	2942.93
339.52	2754.52
339.73	2752.47
339.94	2834.39
340.15	3117.01
340.36	2916.31
340.58	2807.77
340.79	2754.52
341.00	3133.39
341.21	2752.47
341.42	2983.89
341.63	2822.10
341.85	3164.11
342.06	2947.03
342.27	2787.29
342.48	2985.94
342.69	2768.85
342.90	2969.55
343.12	3108.82
343.33	2715.61
343.54	3065.81
343.75	3270.61
343.96	2906.07
344.17	2682.84
344.38	2998.23
344.60	2789.33
344.81	2746.33
345.02	2830.29
345.23	3239.89
345.44	3493.83
345.65	2885.59
345.86	2852.82
346.07	2949.08
346.29	2836.44
346.50	3008.47
346.71	2818.00
346.92	3172.30
347.13	3356.62
347.34	2918.36
347.55	2705.37
347.76	3141.58
347.98	2721.75
348.19	2836.44
348.40	2992.08
348.61	2981.84
348.82	3243.98
349.03	2904.02
349.24	2791.38
349.45	3375.05
349.66	2668.50
349.88	2791.38
350.09	2721.75
350.30	3239.89
350.51	3198.93
350.72	2955.22
350.93	2836.44
351.14	2869.20
351.35	3035.09
351.56	2805.72
351.77	2850.77
351.99	3076.05
352.20	3260.37
352.41	2953.17
352.62	2650.07
352.83	2904.02
353.04	3035.09
353.25	2772.95
353.46	2824.15
353.67	3178.45
353.88	2627.54
354.09	2797.53
354.30	2783.19
354.52	3110.86
354.73	2871.25
354.94	2789.33
355.15	2811.86
355.36	3350.48
355.57	2871.25
355.78	2713.56
355.99	2844.63
356.20	2912.21
356.41	3180.50
356.62	2877.40
356.83	2846.68
357.04	3231.69
357.25	2723.80
357.46	2787.29
357.68	2717.65
357.89	2807.77
358.10	2971.60
358.31	2748.37
358.52	2783.19
358.73	2762.71
358.94	2803.67
359.15	2731.99
359.36	2852.82
359.57	3069.91
359.78	2926.55
359.99	3024.85
360.20	2772.95
360.41	2918.36
360.62	3074.00
360.83	2906.07
361.04	2879.44
361.25	3033.04
361.46	3227.60
361.67	2947.03
361.88	2801.62
362.09	3168.21
362.30	3041.23
362.51	2709.46
362.72	2850.77
362.93	3039.19
363.14	3147.73
363.35	2899.92
363.56	2723.80
363.78	3168.21
363.99	3117.01
364.20	2846.68
364.41	2852.82
364.62	3284.94
364.83	3024.85
365.04	2881.49
365.25	2828.24
365.46	3319.76
365.67	2865.11
365.88	2891.73
366.09	2772.95
366.30	2938.84
366.51	3002.32
366.72	2717.65
366.93	2836.44
367.14	2979.79
367.35	3215.31
367.56	2736.09
367.77	2922.45
367.98	2973.65
368.18	3102.67
368.39	2926.55
368.60	2729.94
368.81	3233.74
369.02	3100.62
369.23	2844.63
369.44	2721.75
369.65	2904.02
369.86	3043.28
370.07	2932.69
370.28	2770.90
370.49	3106.77
370.70	3043.28
370.91	2738.13
371.12	2578.39
371.33	3135.44
371.54	2926.55
371.75	2938.84
371.96	2557.91
372.17	3041.23
372.38	2934.74
372.59	2801.62
372.80	2832.34
373.01	3000.27
373.22	3026.90
373.43	2781.14
373.64	2695.13
373.85	3151.82
374.06	3391.44
374.26	3043.28
374.47	2961.36
374.68	3260.37
374.89	3000.27
375.10	2770.90
375.31	2889.68
375.52	3028.95
375.73	2957.27
375.94	2719.70
376.15	2967.51
376.36	2877.40
376.57	2942.93
376.78	2867.16
376.99	2938.84
377.20	3225.55
377.40	2983.89
377.61	3106.77
377.82	2731.99
378.03	3223.50
378.24	3123.15
378.45	2887.64
378.66	2854.87
378.87	2688.98
379.08	2725.85
379.29	2895.83
379.50	2983.89
379.71	2973.65
379.91	3051.47
380.12	2803.67
380.33	2875.35
380.54	2994.13
380.75	2912.21
380.96	2791.38
381.17	2842.58
381.38	3061.71
381.59	2983.89
381.80	2830.29
382.00	2975.70
382.21	2971.60
382.42	3250.13
382.63	3117.01
382.84	2977.75
383.05	3114.96
383.26	3227.60
383.47	2910.16
383.68	2815.96
383.88	3143.63
384.09	3041.23
384.30	3074.00
384.51	2861.01
384.72	2867.16
384.93	2818.00
385.14	2891.73
385.35	3018.71
385.55	2705.37
385.76	3200.98
385.97	2756.57
386.18	2752.47
386.39	2783.19
386.60	2883.54
386.81	2858.96
387.02	2672.60
387.22	2783.19
387.43	3102.67
387.64	2906.07
387.85	3110.86
388.06	2936.79
388.27	4108.23
388.48	7235.47
388.68	10788.70
388.89	13563.70
389.10	14579.49
389.31	13961.00
389.52	10979.16
389.73	9611.12
389.93	8992.63
390.14	8144.77
390.35	7286.67
390.56	6832.02
390.77	5545.90
390.98	4263.87
391.18	3690.44
391.39	3336.14
391.60	2961.36
391.81	3057.62
392.02	2926.55
392.23	3346.38
392.43	2983.89
392.64	2998.23
392.85	2877.40
393.06	3272.65
393.27	2965.46
393.47	2746.33
393.68	2916.31
393.89	2934.74
394.10	3188.69
394.31	2840.53
394.52	2832.34
394.72	2844.63
394.93	3160.02
395.14	2680.79
395.35	2893.78
395.56	2899.92
395.76	2895.83
395.97	2787.29
396.18	3033.04
396.39	2895.83
396.60	3522.51
396.80	3157.97
397.01	3010.51
397.22	3155.92
397.43	3176.40
397.64	2818.00
397.84	2858.96
398.05	3411.92
398.26	2949.08
398.47	3012.56
398.67	3039.19
398.88	2987.99
399.09	3110.86
399.30	2750.42
399.51	2936.79
399.71	2811.86
399.92	2906.07
400.13	2914.26
400.34	2828.24
400.54	3053.52
400.75	3268.56
400.96	2981.84
401.17	3135.44
401.37	3071.95
401.58	3020.75
401.79	2832.34
402.00	2947.03
402.21	3426.25
402.41	3213.26
402.62	3082.19
402.83	3170.26
403.04	3278.80
403.24	3565.51
403.45	2975.70
403.66	3098.58
403.87	3217.36
404.07	3293.13
404.28	3104.72
404.49	3094.48
404.70	3057.62
404.90	3123.15
405.11	2844.63
405.32	2938.84
405.52	2914.26
405.73	2881.49
405.94	2770.90
406.15	2766.81
406.35	3131.34
406.56	3194.83
406.77	2834.39
406.98	2861.01
407.18	2809.81
407.39	3235.79
407.60	2844.63
407.80	2908.12
408.01	2990.03
408.22	3112.91
408.43	2762.71
408.63	2889.68
408.84	3098.58
409.05	3231.69
409.25	2768.85
409.46	2838.48
409.67	2959.31
409.88	2818.00
410.08	2781.14
410.29	2826.20
410.50	3180.50
410.70	3108.82
410.91	2703.32
411.12	2936.79
411.32	2985.94
411.53	2822.10
411.74	2955.22
411.95	2965.46
412.15	2979.79
412.36	3133.39
412.57	3059.67
412.77	3006.42
412.98	2969.55
413.19	2928.60
413.39	2906.07
413.60	2967.51
413.81	3209.17
414.01	2791.38
414.22	2895.83
414.43	3033.04
414.63	2940.88
414.84	3190.74
415.05	2789.33
415.25	2705.37
415.46	3049.43
415.67	2836.44
415.87	2967.51
416.08	2820.05
416.29	2914.26
416.49	3110.86
416.70	2899.92
416.91	2813.91
417.11	2942.93
417.32	3137.49
417.53	2899.92
417.73	2967.51
417.94	2920.40
418.15	3051.47
418.35	2920.40
418.56	2901.97
418.77	3352.52
418.97	2979.79
419.18	2871.25
419.38	2537.43
419.59	2947.03
419.80	3237.84
420.00	2768.85
420.21	2846.68
420.42	3168.21
420.62	3082.19
420.83	2805.72
421.04	2850.77
421.24	2979.79
421.45	3061.71
421.65	2983.89
421.86	2895.83
422.07	3069.91
422.27	3076.05
422.48	2748.37
422.69	2666.46
422.89	3004.37
423.10	2899.92
423.30	2721.75
423.51	2893.78
423.72	3090.38
423.92	3153.87
424.13	2713.56
424.33	2983.89
424.54	3137.49
424.75	3030.99
424.95	3102.67
425.16	2781.14
425.36	2987.99
425.57	3092.43
425.78	3008.47
425.98	2940.88
426.19	3022.80
426.39	2899.92
426.60	2869.20
426.81	3035.09
427.01	3033.04
427.22	2889.68
427.42	2703.32
427.63	2764.76
427.83	3172.30
428.04	3239.89
428.25	2916.31
428.45	2957.27
428.66	3178.45
428.86	2906.07
429.07	2897.88
429.28	2869.20
429.48	2994.13
429.69	2836.44
429.89	2887.64
430.10	2768.85
430.30	3110.86
430.51	3172.30
430.71	2797.53
430.92	2887.64
431.13	2842.58
431.33	3106.77
431.54	2897.88
431.74	3063.76
431.95	3393.48
432.15	2830.29
432.36	2854.87
432.56	2858.96
432.77	3315.66
432.98	3352.52
433.18	2863.06
433.39	2785.24
433.59	2969.55
433.80	3340.24
434.00	3022.80
434.21	2850.77
434.41	2844.63
434.62	3483.59
434.82	2797.53
435.03	2703.32
435.23	3082.19
435.44	2818.00
435.64	2779.09
435.85	2863.06
436.06	3104.72
436.26	3182.54
436.47	2858.96
436.67	2826.20
436.88	2994.13
437.08	3153.87
437.29	3051.47
437.49	2944.98
437.70	3256.27
437.90	3012.56
438.11	3035.09
438.31	2930.64
438.52	3184.59
438.72	3123.15
438.93	3147.73
439.13	2971.60
439.34	3135.44
439.54	2893.78
439.75	2953.17
439.95	2924.50
440.16	2754.52
440.36	2975.70
440.57	2856.92
440.77	2795.48
440.98	2928.60
441.18	3168.21
441.39	2762.71
441.59	2684.89
441.80	3442.64
442.00	2996.18
442.21	2949.08
442.41	2775.00
442.62	3162.06
442.82	2815.96
443.02	2772.95
443.23	2856.92
443.43	3000.27
443.64	3200.98
443.84	2768.85
444.05	2965.46
444.25	2990.03
444.46	2904.02
444.66	2768.85
444.87	2992.08
445.07	2764.76
445.28	3028.95
445.48	3008.47
445.69	2944.98
445.89	3491.79
446.09	2871.25
446.30	3151.82
446.50	3248.08
446.71	4749.24
446.91	5756.84
447.12	6561.69
447.32	6932.37
447.53	6838.17
447.73	5728.17
447.93	4874.17
448.14	4671.42
448.34	4888.50
448.55	4149.18
448.75	4134.85
448.96	3837.89
449.16	3661.77
449.36	3551.18
449.57	3028.95
449.77	2914.26
449.98	2863.06
450.18	3059.67
450.39	2861.01
450.59	2979.79
450.79	3045.33
451.00	2951.12
451.20	3039.19
451.41	2789.33
451.61	3071.95
451.81	2955.22
452.02	2801.62
452.22	2854.87
452.43	2918.36
452.63	2887.64
452.84	2926.55
453.04	2824.15
453.24	2934.74
453.45	2820.05
453.65	2838.48
453.86	2899.92
454.06	3026.90
454.26	2992.08
454.47	2832.34
454.67	3078.10
454.87	3051.47
455.08	2940.88
455.28	2981.84
455.49	3043.28
455.69	2824.15
455.89	3315.66
456.10	2971.60
456.30	2879.44
456.51	3205.07
456.71	3026.90
456.91	3016.66
457.12	2766.81
457.32	3151.82
457.52	2828.24
457.73	3053.52
457.93	3008.47
458.14	2938.84
458.34	2752.47
458.54	2824.15
458.75	2811.86
458.95	3131.34
459.15	3108.82
459.36	2885.59
459.56	2854.87
459.76	3418.06
459.97	2926.55
460.17	2836.44
460.37	2940.88
460.58	3043.28
460.78	3063.76
460.99	2805.72
461.19	2770.90
461.39	2914.26
461.60	3012.56
461.80	2959.31
462.00	2748.37
462.21	2881.49
462.41	2877.40
462.61	2721.75
462.82	2662.36
463.02	3094.48
463.22	2947.03
463.43	2926.55
463.63	2815.96
463.83	3178.45
464.04	3022.80
464.24	2865.11
464.44	2746.33
464.64	3010.51
464.85	3098.58
465.05	2875.35
465.25	2828.24
465.46	2842.58
465.66	3129.30
465.86	2908.12
466.07	2830.29
466.27	2924.50
466.47	2791.38
466.68	2670.55
466.88	2998.23
467.08	3006.42
467.29	3155.92
467.49	2889.68
467.69	2947.03
467.89	3043.28
468.10	2979.79
468.30	2869.20
468.50	2942.93
468.71	3084.24
468.91	2801.62
469.11	3098.58
469.31	2869.20
469.52	2842.58
469.72	3358.67
469.92	3022.80
470.13	2895.83
470.33	2953.17
470.53	3090.38
470.73	3186.64
470.94	3461.07
471.14	3549.13
471.34	4175.81
471.54	3827.65
471.75	3604.42
471.95	3356.62
472.15	3205.07
472.36	3291.09
472.56	3192.78
472.76	3313.61
472.96	3266.51
473.17	3102.67
473.37	3074.00
473.57	2936.79
473.77	3012.56
473.98	2979.79
474.18	2789.33
474.38	3516.36
474.58	2918.36
474.79	2717.65
474.99	3041.23
475.19	3188.69
475.39	2895.83
475.60	2990.03
475.80	2906.07
476.00	3014.61
476.20	2940.88
476.41	2916.31
476.61	2912.21
476.81	3213.26
477.01	2891.73
477.21	3057.62
477.42	2940.88
477.62	2850.77
477.82	3102.67
478.02	2756.57
478.23	2908.12
478.43	2893.78
478.63	2893.78
478.83	2869.20
479.03	2830.29
479.24	3215.31
479.44	3373.00
479.64	2752.47
479.84	2637.78
480.04	2887.64
480.25	3160.02
480.45	2838.48
480.65	2820.05
480.85	3321.81
481.06	2881.49
481.26	3028.95
481.46	2820.05
481.66	3092.43
481.86	2840.53
482.06	3069.91
482.27	2932.69
482.47	2992.08
482.67	3094.48
482.87	2830.29
483.07	2949.08
483.28	2885.59
483.48	2840.53
483.68	2848.72
483.88	2682.84
484.08	2650.07
484.29	2844.63
484.49	2963.41
484.69	2650.07
484.89	3270.61
485.09	3217.36
485.29	2924.50
485.50	2959.31
485.70	2916.31
485.90	3176.40
486.10	2955.22
486.30	2779.09
486.50	3178.45
486.71	3022.80
486.91	2881.49
487.11	2971.60
487.31	2754.52
487.51	3153.87
487.71	2881.49
487.91	2713.56
488.12	2731.99
488.32	2652.12
488.52	2858.96
488.72	2664.41
488.92	3045.33
489.12	3155.92
489.32	3055.57
489.53	2867.16
489.73	2709.46
489.93	3268.56
490.13	2797.53
490.33	2713.56
490.53	3026.90
490.73	3270.61
490.94	2688.98
491.14	2959.31
491.34	3106.77
491.54	3096.53
491.74	3667.91
491.94	4245.44
492.14	4683.70
492.34	4749.24
492.54	4345.79
492.75	3708.87
492.95	3852.23
493.15	3659.72
493.35	3514.31
493.55	3518.41
493.75	3340.24
493.95	3385.29
494.15	3078.10
494.35	2947.03
494.56	2930.64
494.76	2865.11
494.96	2953.17
495.16	2734.04
495.36	3045.33
495.56	2947.03
495.76	2996.18
495.96	2791.38
496.16	2916.31
496.36	3246.03
496.56	2820.05
496.77	2885.59
496.97	3033.04
497.17	3237.84
497.37	2701.27
497.57	2994.13
497.77	3039.19
497.97	2820.05
498.17	2865.11
498.37	2748.37
498.57	3026.90
498.77	2910.16
498.97	3022.80
499.17	3172.30
499.38	2965.46
499.58	3049.43
499.78	3008.47
499.98	2983.89
500.18	2932.69
500.38	2824.15
500.58	2987.99
500.78	3426.25
500.98	5427.12
501.18	7335.82
501.38	8757.11
501.58	9854.83
501.78	9523.05
501.98	7886.73
502.18	6791.06
502.38	5982.12
502.58	5785.51
502.78	5164.98
502.98	4716.47
503.18	4579.26
503.38	4413.37
503.59	3835.85
503.79	3579.85
503.99	3465.16
504.19	3459.02
504.39	3469.26
504.59	3289.04
504.79	3268.56
504.99	3502.03
505.19	3291.09
505.39	2942.93
505.59	3254.22
505.79	3338.19
505.99	3133.39
506.19	2928.60
506.39	3067.86
506.59	2891.73
506.79	2877.40
506.99	3088.34
507.19	2807.77
507.39	3020.75
507.59	2731.99
507.79	2807.77
507.99	2766.81
508.19	3094.48
508.39	2947.03
508.59	2856.92
508.79	2983.89
508.99	3446.73
509.19	2844.63
509.39	2889.68
509.59	2721.75
509.79	2883.54
509.99	3078.10
510.19	2981.84
510.39	3028.95
510.59	3094.48
510.79	2971.60
510.99	2627.54
511.19	2830.29
511.39	3254.22
511.59	3102.67
511.79	3059.67
511.99	2836.44
512.19	3291.09
512.38	2938.84
512.58	2799.57
512.78	2824.15
512.98	3121.10
513.18	3317.71
513.38	2713.56
513.58	2932.69
513.78	2947.03
513.98	2949.08
514.18	2879.44
514.38	2834.39
514.58	3102.67
514.78	2885.59
514.98	2789.33
515.18	2801.62
515.38	2805.72
515.58	3248.08
515.78	2877.40
515.98	2846.68
516.18	3030.99
516.38	2973.65
516.57	2760.66
516.77	2838.48
516.97	3061.71
517.17	2983.89
517.37	2648.02
517.57	2959.31
517.77	2996.18
517.97	2916.31
518.17	2854.87
518.37	2772.95
518.57	2830.29
518.77	2871.25
518.97	2836.44
519.16	2973.65
519.36	3192.78
519.56	2858.96
519.76	2783.19
519.96	2840.53
520.16	3190.74
520.36	2760.66
520.56	2992.08
520.76	2805.72
520.96	3057.62
521.16	3241.93
521.35	3074.00
521.55	2959.31
521.75	3049.43
521.95	2901.97
522.15	2820.05
522.35	2609.11
522.55	2873.30
522.75	3082.19
522.95	2693.08
523.14	2699.22
523.34	3080.14
523.54	2936.79
523.74	2938.84
523.94	2922.45
524.14	2738.13
524.34	3041.23
524.54	3028.95
524.73	2852.82
524.93	3094.48
525.13	3026.90
525.33	2721.75
525.53	3016.66
525.73	3086.29
525.93	2963.41
526.13	2908.12
526.32	2785.24
526.52	3176.40
526.72	3133.39
526.92	2840.53
527.12	2746.33
527.32	2781.14
527.52	3092.43
527.71	2826.20
527.91	2932.69
528.11	2930.64
528.31	2965.46
528.51	2748.37
528.71	2955.22
528.90	3061.71
529.10	3164.11
529.30	2932.69
529.50	2688.98
529.70	3002.32
529.90	2916.31
530.09	2863.06
530.29	2697.17
530.49	2801.62
530.69	3411.92
530.89	2885.59
531.09	2936.79
531.28	2969.55
531.48	3205.07
531.68	2879.44
531.88	2922.45
532.08	3162.06
532.28	2916.31
532.47	2987.99
532.67	2918.36
532.87	3061.71
533.07	2738.13
533.27	2961.36
533.46	2904.02
533.66	2990.03
533.86	2977.75
534.06	2826.20
534.26	2871.25
534.45	2873.30
534.65	3117.01
534.85	2908.12
535.05	2818.00
535.25	3137.49
535.44	2664.41
535.64	2996.18
535.84	2807.77
536.04	2908.12
536.24	2893.78
536.43	2826.20
536.63	2820.05
536.83	2979.79
537.03	3016.66
537.22	2717.65
537.42	2670.55
537.62	3045.33
537.82	2873.30
538.02	2996.18
538.21	2922.45
538.41	3538.89
538.61	3028.95
538.81	2883.54
539.00	3086.29
539.20	2775.00
539.40	2918.36
539.60	2861.01
539.79	2990.03
539.99	2977.75
540.19	2822.10
540.39	2899.92
540.58	2832.34
540.78	3129.30
540.98	3033.04
541.18	3012.56
541.37	2863.06
541.57	3022.80
541.77	3016.66
541.97	2670.55
542.16	2697.17
542.36	2930.64
542.56	2930.64
542.76	3037.14
542.95	2965.46
543.15	3069.91
543.35	3096.53
543.54	2781.14
543.74	2734.04
543.94	3180.50
544.14	2895.83
544.33	2904.02
544.53	2865.11
544.73	2916.31
544.93	2875.35
545.12	2815.96
545.32	2873.30
545.52	2920.40
545.71	2775.00
545.91	2809.81
546.11	2865.11
546.30	2834.39
546.50	3002.32
546.70	2936.79
546.90	2899.92
547.09	2693.08
547.29	2992.08
547.49	3018.71
547.68	2832.34
547.88	2940.88
548.08	3094.48
548.27	3108.82
548.47	2940.88
548.67	2934.74
548.87	3141.58
549.06	2846.68
549.26	2840.53
549.46	3063.76
549.65	2871.25
549.85	2889.68
550.05	2754.52
550.24	2795.48
550.44	2899.92
550.64	2904.02
550.83	2998.23
551.03	3172.30
551.23	3135.44
551.42	2940.88
551.62	2838.48
551.82	2996.18
552.01	2912.21
552.21	3190.74
552.41	2963.41
552.60	3229.65
552.80	3010.51
553.00	2869.20
553.19	2828.24
553.39	3217.36
553.59	2783.19
553.78	2992.08
553.98	2856.92
554.17	2908.12
554.37	3022.80
554.57	3020.75
554.76	2721.75
554.96	2910.16
555.16	2975.70
555.35	2992.08
555.55	2942.93
555.75	2981.84
555.94	3043.28
556.14	2762.71
556.33	2869.20
556.53	2977.75
556.73	2992.08
556.92	2969.55
557.12	2805.72
557.32	3307.47
557.51	3190.74
557.71	2858.96
557.90	2990.03
558.10	3235.79
558.30	2973.65
558.49	2916.31
558.69	2881.49
558.88	3117.01
559.08	3074.00
559.28	2873.30
559.47	2875.35
559.67	3151.82
559.86	3325.90
560.06	2897.88
560.26	2858.96
560.45	3057.62
560.65	2875.35
560.84	3057.62
561.04	2707.41
561.24	3153.87
561.43	2820.05
561.63	3074.00
561.82	3004.37
562.02	3051.47
562.22	2801.62
562.41	2744.28
562.61	2818.00
562.80	2822.10
563.00	3389.39
563.19	2963.41
563.39	2949.08
563.59	3123.15
563.78	2795.48
563.98	2598.87
564.17	2830.29
564.37	2725.85
564.56	2987.99
564.76	2740.18
564.96	2973.65
565.15	3039.19
565.35	3463.12
565.54	2844.63
565.74	2938.84
565.93	3160.02
566.13	3026.90
566.32	2957.27
566.52	2918.36
566.71	3004.37
566.91	3147.73
567.11	2938.84
567.30	2748.37
567.50	3086.29
567.69	3061.71
567.89	2858.96
568.08	2748.37
568.28	2963.41
568.47	2801.62
568.67	2951.12
568.86	2842.58
569.06	3215.31
569.25	2940.88
569.45	2727.89
569.64	2834.39
569.84	2963.41
570.04	3002.32
570.23	2815.96
570.43	2891.73
570.62	3018.71
570.82	3241.93
571.01	2738.13
571.21	2779.09
571.40	2871.25
571.60	3160.02
571.79	2969.55
571.99	2830.29
572.18	2838.48
572.38	2934.74
572.57	2865.11
572.77	2949.08
572.96	3502.03
573.16	2987.99
573.35	2826.20
573.55	2934.74
573.74	3071.95
573.94	2863.06
574.13	2867.16
574.33	3043.28
574.52	3213.26
574.71	2951.12
574.91	2912.21
575.10	2701.27
575.30	2881.49
575.49	2811.86
575.69	2748.37
575.88	2844.63
576.08	2918.36
576.27	3162.06
576.47	2752.47
576.66	2990.03
576.86	3307.47
577.05	3006.42
577.25	3000.27
577.44	3092.43
577.64	2928.60
577.83	3164.11
578.02	2844.63
578.22	3002.32
578.41	3248.08
578.61	2936.79
578.80	2807.77
579.00	2918.36
579.19	2996.18
579.39	3084.24
579.58	3033.04
579.77	2910.16
579.97	3198.93
580.16	3147.73
580.36	3033.04
580.55	2893.78
580.75	3065.81
580.94	3033.04
581.13	3108.82
581.33	3170.26
581.52	2990.03
581.72	3358.67
581.91	2981.84
582.11	2893.78
582.30	3133.39
582.49	3018.71
582.69	3188.69
582.88	2885.59
583.08	3059.67
583.27	3178.45
583.47	2979.79
583.66	2881.49
583.85	2775.00
584.05	2926.55
584.24	3002.32
584.44	2985.94
584.63	3196.88
584.82	3145.68
585.02	3076.05
585.21	2994.13
585.41	3114.96
585.60	3076.05
585.79	3114.96
585.99	3112.91
586.18	3030.99
586.37	3925.96
586.57	5707.69
586.76	16779.01
586.96	35495.39
587.15	48891.16
587.34	56847.52
587.54	61080.67
587.73	54672.57
587.93	38774.19
588.12	29570.62
588.31	24153.74
588.51	21284.54
588.70	19785.43
588.89	17188.60
589.09	14710.56
589.28	12527.42
589.47	9906.02
589.67	7600.01
589.86	5986.21
590.06	4732.86
590.25	4106.18
590.44	3631.05
590.64	3258.32
590.83	3325.90
591.02	3203.02
591.22	2873.30
591.41	2967.51
591.60	3026.90
591.80	3434.44
591.99	2750.42
592.18	2818.00
592.38	3104.72
592.57	2951.12
592.76	2944.98
592.96	3002.32
593.15	2957.27
593.34	3155.92
593.54	2869.20
593.73	2981.84
593.92	3045.33
594.12	3039.19
594.31	2936.79
594.50	3086.29
594.70	2998.23
594.89	3403.72
595.08	2721.75
595.28	3000.27
595.47	3655.62
595.66	3137.49
595.86	2779.09
596.05	2660.31
596.24	2934.74
596.43	3311.57
596.63	2977.75
596.82	2938.84
597.01	3108.82
597.21	3305.42
597.40	2850.77
597.59	2885.59
597.79	2955.22
597.98	3094.48
598.17	2924.50
598.36	2934.74
598.56	3127.25
598.75	2975.70
598.94	2920.40
599.14	2947.03
599.33	2869.20
599.52	3096.53
599.71	2992.08
599.91	2852.82
600.10	3123.15
600.29	2967.51
600.48	3047.38
600.68	2926.55
600.87	3065.81
601.06	2912.21
601.26	3016.66
601.45	2969.55
601.64	2908.12
601.83	3215.31
602.03	2834.39
602.22	2791.38
602.41	3143.63
602.60	3366.86
602.80	2938.84
602.99	3069.91
603.18	2846.68
603.37	2971.60
603.57	2822.10
603.76	2910.16
603.95	3217.36
604.14	2887.64
604.34	2783.19
604.53	2879.44
604.72	2938.84
604.91	3039.19
605.10	2899.92
605.30	2680.79
605.49	3354.57
605.68	3098.58
605.87	2965.46
606.07	2809.81
606.26	3053.52
606.45	2992.08
606.64	2877.40
606.84	2760.66
607.03	3006.42
607.22	3123.15
607.41	2842.58
607.60	2883.54
607.80	3176.40
607.99	2971.60
608.18	2856.92
608.37	2928.60
608.56	2926.55
608.76	3164.11
608.95	3059.67
609.14	2930.64
609.33	3160.02
609.52	3235.79
609.72	3039.19
609.91	3084.24
610.10	3016.66
610.29	3223.50
610.48	2926.55
610.68	3006.42
610.87	2994.13
611.06	3102.67
611.25	2916.31
611.44	2981.84
611.63	2910.16
611.83	3164.11
612.02	2830.29
612.21	3065.81
612.40	2756.57
612.59	2818.00
612.79	2818.00
612.98	2985.94
613.17	3268.56
613.36	2973.65
613.55	3006.42
613.74	2879.44
613.93	2977.75
614.13	3041.23
614.32	3090.38
614.51	2940.88
614.70	3018.71
614.89	2987.99
615.08	2938.84
615.28	3280.85
615.47	2750.42
615.66	3170.26
615.85	2910.16
616.04	3008.47
616.23	2924.50
616.42	2963.41
616.62	2828.24
616.81	2867.16
617.00	2973.65
617.19	3108.82
617.38	2922.45
617.57	2936.79
617.76	3112.91
617.95	3082.19
618.15	2965.46
618.34	3110.86
618.53	2865.11
618.72	3151.82
618.91	3008.47
619.10	2965.46
619.29	3030.99
619.48	2957.27
619.68	2783.19
619.87	2824.15
620.06	2748.37
620.25	3104.72
620.44	2758.61
620.63	2830.29
620.82	3121.10
621.01	2930.64
621.20	2879.44
621.39	2916.31
621.59	2996.18
621.78	2953.17
621.97	2897.88
622.16	3012.56
622.35	3061.71
622.54	3086.29
622.73	2977.75
622.92	2627.54
623.11	3155.92
623.30	2981.84
623.49	3006.42
623.68	2772.95
623.88	3303.37
624.07	2897.88
624.26	2811.86
624.45	2762.71
624.64	2936.79
624.83	3018.71
625.02	2815.96
625.21	2820.05
625.40	3006.42
625.59	3237.84
625.78	2906.07
625.97	3059.67
626.16	3186.64
626.35	3020.75
626.54	2904.02
626.74	3133.39
626.93	2906.07
627.12	2906.07
627.31	2936.79
627.50	2920.40
627.69	3127.25
627.88	2869.20
628.07	2834.39
628.26	2705.37
628.45	2865.11
628.64	2781.14
628.83	2793.43
629.02	2731.99
629.21	3055.57
629.40	3043.28
629.59	2813.91
629.78	2834.39
629.97	3000.27
630.16	3020.75
630.35	2881.49
630.54	2901.97
630.73	2838.48
630.92	3033.04
631.11	2723.80
631.30	2887.64
631.49	3110.86
631.68	3024.85
631.87	2934.74
632.06	2754.52
632.25	3391.44
632.44	3004.37
632.63	2910.16
632.82	2809.81
633.01	2940.88
633.20	2990.03
633.39	2850.77
633.58	2707.41
633.77	3037.14
633.96	3094.48
634.15	2969.55
634.34	2910.16
634.53	3059.67
634.72	2807.77
634.91	2693.08
635.10	2891.73
635.29	3127.25
635.48	2963.41
635.67	2793.43
635.86	2709.46
636.05	3178.45
636.24	2965.46
636.43	2856.92
636.62	2961.36
636.81	2629.59
637.00	3037.14
637.19	2883.54
637.38	2832.34
637.57	2865.11
637.76	3039.19
637.95	2959.31
638.14	2852.82
638.33	2973.65
638.52	3008.47
638.71	2670.55
638.89	2795.48
639.08	3489.74
639.27	3123.15
639.46	3002.32
639.65	3309.52
639.84	3368.91
640.03	3520.46
640.22	3217.36
640.41	3274.70
640.60	3096.53
640.79	3194.83
640.98	2893.78
641.17	3106.77
641.36	3243.98
641.55	3186.64
641.74	2750.42
641.92	2779.09
642.11	2842.58
642.30	2904.02
642.49	2748.37
642.68	2836.44
642.87	3121.10
643.06	3147.73
643.25	2734.04
643.44	2781.14
643.63	2983.89
643.82	3176.40
644.00	2729.94
644.19	2887.64
644.38	2828.24
644.57	3059.67
644.76	2901.97
644.95	2875.35
645.14	3000.27
645.33	2961.36
645.52	2947.03
645.71	2701.27
645.89	2910.16
646.08	2985.94
646.27	2879.44
646.46	3143.63
646.65	2795.48
646.84	3008.47
647.03	2815.96
647.22	2990.03
647.40	3002.32
647.59	2985.94
647.78	2691.03
647.97	2756.57
648.16	2846.68
648.35	3252.17
648.54	3039.19
648.73	2799.57
648.91	3133.39
649.10	3004.37
649.29	2748.37
649.48	2815.96
649.67	3053.52
649.86	2940.88
650.05	2861.01
650.23	3065.81
650.42	2861.01
650.61	3295.18
650.80	3170.26
650.99	3100.62
651.18	3250.13
651.36	3117.01
651.55	2750.42
651.74	3061.71
651.93	2987.99
652.12	3022.80
652.31	2873.30
652.49	2963.41
652.68	2926.55
652.87	3319.76
653.06	2881.49
653.25	3123.15
653.44	3090.38
653.62	3254.22
653.81	2856.92
654.00	2924.50
654.19	3125.20
654.38	3420.11
654.56	2983.89
654.75	2803.67
654.94	3178.45
655.13	3028.95
655.32	2850.77
655.51	2981.84
655.69	2973.65
655.88	3057.62
656.07	2775.00
656.26	2906.07
656.45	2820.05
656.63	3028.95
656.82	2871.25
657.01	3090.38
657.20	2951.12
657.38	3225.55
657.57	2756.57
657.76	2760.66
657.95	3125.20
658.14	2899.92
658.32	3057.62
658.51	2795.48
658.70	2959.31
658.89	2965.46
659.08	2881.49
659.26	3119.06
659.45	2797.53
659.64	2996.18
659.83	2805.72
660.01	3270.61
660.20	3020.75
660.39	3289.04
660.58	2531.29
660.76	2901.97
660.95	2731.99
661.14	3014.61
661.33	2691.03
661.51	2758.61
661.70	2951.12
661.89	3069.91
662.08	2863.06
662.26	2672.60
662.45	2832.34
662.64	3379.15
662.83	2906.07
663.01	2717.65
663.20	2836.44
663.39	3194.83
663.58	2865.11
663.76	2871.25
663.95	3022.80
664.14	2826.20
664.32	2932.69
664.51	2760.66
664.70	2648.02
664.89	3049.43
665.07	2768.85
665.26	3053.52
665.45	2740.18
665.64	3133.39
665.82	2869.20
666.01	2922.45
666.20	2766.81
666.38	3114.96
666.57	3143.63
666.76	4861.88
666.95	11099.99
667.13	17751.79
667.32	21657.27
667.51	24370.83
667.69	24938.12
667.88	21065.41
668.07	15214.36
668.25	12902.20
668.44	11183.96
668.63	9641.84
668.81	8529.79
669.00	7325.58
669.19	6764.44
669.38	5935.01
669.56	5158.83
669.75	4372.41
669.94	3889.09
670.12	3463.12
670.31	3112.91
670.50	3174.35
670.68	3211.22
670.87	3045.33
671.06	2858.96
671.24	2947.03
671.43	3282.89
671.62	3030.99
671.80	2791.38
671.99	2985.94
672.18	2967.51
672.36	3143.63
672.55	2973.65
672.74	2908.12
672.92	2906.07
673.11	3008.47
673.29	2793.43
673.48	3067.86
673.67	2951.12
673.85	3141.58
674.04	2770.90
674.23	2942.93
674.41	3323.85
674.60	2789.33
674.79	2717.65
674.97	2789.33
675.16	3121.10
675.34	3133.39
675.53	2854.87
675.72	2953.17
675.90	3293.13
676.09	2936.79
676.28	2936.79
676.46	2734.04
676.65	3131.34
676.83	2807.77
677.02	2971.60
677.21	2947.03
677.39	2977.75
677.58	2822.10
677.77	2854.87
677.95	2840.53
678.14	2891.73
678.32	2955.22
678.51	2932.69
678.70	3102.67
678.88	2848.72
679.07	3012.56
679.25	2959.31
679.44	2828.24
679.63	2820.05
679.81	2992.08
680.00	3125.20
680.18	2922.45
680.37	3303.37
680.55	2996.18
680.74	2652.12
680.93	2629.59
681.11	3006.42
681.30	2947.03
681.48	2930.64
681.67	2953.17
681.85	2947.03
682.04	2838.48
682.23	2979.79
682.41	2885.59
682.60	2912.21
682.78	2912.21
682.97	2768.85
683.15	2924.50
683.34	3076.05
683.53	3239.89
683.71	2725.85
683.90	2957.27
684.08	3252.17
684.27	2953.17
684.45	2992.08
684.64	3069.91
684.82	2985.94
685.01	3030.99
685.19	2852.82
685.38	3098.58
685.57	3037.14
685.75	2775.00
685.94	2797.53
686.12	2723.80
686.31	2975.70
686.49	3211.22
686.68	2658.26
686.86	2875.35
687.05	3000.27
687.23	3323.85
687.42	2826.20
687.60	2672.60
687.79	3141.58
687.97	3252.17
688.16	2990.03
688.34	3082.19
688.53	2680.79
688.71	3086.29
688.90	3215.31
689.08	2926.55
689.27	2697.17
689.45	3151.82
689.64	3043.28
689.82	2981.84
690.01	3141.58
690.19	2990.03
690.38	2914.26
690.56	2975.70
690.75	2801.62
690.93	2895.83
691.12	2736.09
691.30	2985.94
691.49	2942.93
691.67	2996.18
691.86	3133.39
692.04	2815.96
692.23	2957.27
692.41	2951.12
692.60	3213.26
692.78	3035.09
692.97	3002.32
693.15	3125.20
693.34	3108.82
693.52	3125.20
693.71	2844.63
693.89	2899.92
694.08	2676.70
694.26	2926.55
694.44	3026.90
694.63	3028.95
694.81	2846.68
695.00	2811.86
695.18	3229.65
695.37	3370.96
695.55	2940.88
695.74	2990.03
695.92	2836.44
696.10	3235.79
696.29	2744.28
696.47	2867.16
696.66	2729.94
696.84	2766.81
697.03	2824.15
697.21	3137.49
697.40	4429.76
697.58	3143.63
697.76	2861.01
697.95	2807.77
698.13	2842.58
698.32	2836.44
698.50	2818.00
698.68	2926.55
698.87	3067.86
699.05	3256.27
699.24	2934.74
699.42	2801.62
699.61	3016.66
699.79	2975.70
699.97	2895.83
700.16	2713.56
700.34	2725.85
700.53	2981.84
700.71	3094.48
700.89	2949.08
701.08	2850.77
701.26	2895.83
701.45	3289.04
701.63	2842.58
701.81	2848.72
702.00	2877.40
702.18	2897.88
702.37	2826.20
702.55	3203.02
702.73	3002.32
702.92	2879.44
703.10	3160.02
703.28	3162.06
703.47	2801.62
703.65	3141.58
703.84	3065.81
704.02	2891.73
704.20	3139.54
704.39	2809.81
704.57	2803.67
704.75	3098.58
704.94	3037.14
705.12	2916.31
705.30	3459.02
705.49	6741.91
705.67	12775.23
705.86	18147.05
706.04	20432.58
706.22	22793.89
706.41	22245.04
706.59	16873.21
706.77	13184.82
706.96	11525.97
707.14	10227.56
707.32	8984.44
707.51	7888.78
707.69	6508.44
707.87	5441.45
708.06	4591.55
708.24	4073.41
708.42	3690.44
708.61	3669.96
708.79	2967.51
708.97	2985.94
709.16	3041.23
709.34	3030.99
709.52	2916.31
709.71	2928.60
709.89	3094.48
710.07	2861.01
710.26	2762.71
710.44	2922.45
710.62	3086.29
710.80	2985.94
710.99	2893.78
711.17	2992.08
711.35	2801.62
711.54	2992.08
711.72	3004.37
711.90	2932.69
712.09	3061.71
712.27	2893.78
712.45	2906.07
712.63	2856.92
712.82	2965.46
713.00	2990.03
713.18	2990.03
713.37	2983.89
713.55	3071.95
713.73	3078.10
713.91	2961.36
714.10	2844.63
714.28	2944.98
714.46	3000.27
714.65	2942.93
714.83	2891.73
715.01	3074.00
715.19	2961.36
715.38	2822.10
715.56	2963.41
715.74	2856.92
715.92	2768.85
716.11	3209.17
716.29	2686.94
716.47	3004.37
716.65	2906.07
716.84	2643.93
717.02	2928.60
717.20	2760.66
717.38	2871.25
717.57	2961.36
717.75	2906.07
717.93	2861.01
718.11	3053.52
718.30	2750.42
718.48	2947.03
718.66	3239.89
718.84	3176.40
719.03	2836.44
719.21	2713.56
719.39	3340.24
719.57	3090.38
719.75	3010.51
719.94	2836.44
720.12	2889.68
720.30	3041.23
720.48	3049.43
720.67	2797.53
720.85	2781.14
721.03	2899.92
721.21	2840.53
721.39	2955.22
721.58	3028.95
721.76	2977.75
721.94	2926.55
722.12	2953.17
722.30	3221.45
722.49	2901.97
722.67	2920.40
722.85	2871.25
723.03	2729.94
723.21	2848.72
723.40	2879.44
723.58	3096.53
723.76	3033.04
723.94	3196.88
724.12	2891.73
724.30	3141.58
724.49	3147.73
724.67	2965.46
724.85	2924.50
725.03	2736.09
725.21	3082.19
725.40	3102.67
725.58	2856.92
725.76	3084.24
725.94	3104.72
726.12	2797.53
726.30	2910.16
726.49	2752.47
726.67	2891.73
726.85	3100.62
727.03	3397.58
727.21	4419.52
727.39	5371.82
727.57	5846.95
727.76	6328.22
727.94	6367.13
728.12	5492.65
728.30	4650.94
728.48	4460.48
728.66	4161.47
728.84	4024.26
729.03	3561.42
729.21	3375.05
729.39	3233.74
729.57	3059.67
729.75	3188.69
729.93	2914.26
730.11	2867.16
730.30	2924.50
730.48	2906.07
730.66	2961.36
730.84	3002.32
731.02	3012.56
731.20	2918.36
731.38	2969.55
731.56	2762.71
731.74	2670.55
731.93	3041.23
732.11	2981.84
732.29	2858.96
732.47	3020.75
732.65	3000.27
732.83	3086.29
733.01	3057.62
733.19	2856.92
733.37	3030.99
733.56	2889.68
733.74	2824.15
733.92	3184.59
734.10	2852.82
734.28	3028.95
734.46	2711.51
734.64	2936.79
734.82	2971.60
735.00	2717.65
735.18	2856.92
735.36	3016.66
735.54	2955.22
735.73	2830.29
735.91	2944.98
736.09	3203.02
736.27	2949.08
736.45	2904.02
736.63	2607.06
736.81	2877.40
736.99	3131.34
737.17	3090.38
737.35	2877.40
737.53	2983.89
737.71	2883.54
737.89	3024.85
738.07	2783.19
738.25	2879.44
738.43	2697.17
738.61	2889.68
738.80	2713.56
738.98	2752.47
739.16	2885.59
739.34	2803.67
739.52	3219.41
739.70	2969.55
739.88	3041.23
740.06	3000.27
740.24	2617.30
740.42	3164.11
740.60	2711.51
740.78	2889.68
740.96	2631.64
741.14	2975.70
741.32	2906.07
741.50	2699.22
741.68	3098.58
741.86	3205.07
742.04	2854.87
742.22	2762.71
742.40	2836.44
742.58	3106.77
742.76	2799.57
742.94	3069.91
743.12	2617.30
743.30	2961.36
743.48	3082.19
743.66	2764.76
743.84	2942.93
744.02	2912.21
744.20	2901.97
744.38	2764.76
744.56	2820.05
744.74	3278.80
744.92	3211.22
745.10	3069.91
745.28	2926.55
745.46	3321.81
745.64	2955.22
745.82	2977.75
746.00	2838.48
746.18	3080.14
746.36	2824.15
746.54	2940.88
746.72	2899.92
746.90	2854.87
747.08	3211.22
747.26	2846.68
747.44	3055.57
747.62	3059.67
747.80	2987.99
747.98	2992.08
748.15	2836.44
748.33	3338.19
748.51	2934.74
748.69	2975.70
748.87	2815.96
749.05	2926.55
749.23	2967.51
749.41	2838.48
749.59	2910.16
749.77	3180.50
749.95	2922.45
750.13	2754.52
750.31	2967.51
750.49	3022.80
750.67	3117.01
750.85	3020.75
751.03	2885.59
751.20	3307.47
751.38	2975.70
751.56	2889.68
751.74	2908.12
751.92	2996.18
752.10	2727.89
752.28	3016.66
752.46	2838.48
752.64	3014.61
752.82	2914.26
753.00	3080.14
753.18	2846.68
753.35	3008.47
753.53	2975.70
753.71	2811.86
753.89	2940.88
754.07	3014.61
754.25	3155.92
754.43	2965.46
754.61	2723.80
754.79	3182.54
754.97	2916.31
755.14	3106.77
755.32	2707.41
755.50	3045.33
755.68	3008.47
755.86	2748.37
756.04	2828.24
756.22	2688.98
756.40	3092.43
756.57	3098.58
756.75	2803.67
756.93	3147.73
757.11	3065.81
757.29	2793.43
757.47	2754.52
757.65	2662.36
757.82	2629.59
758.00	2809.81
758.18	2813.91
758.36	2918.36
758.54	3284.94
758.72	2664.41
758.90	3000.27
759.07	3110.86
759.25	2805.72
759.43	2920.40
759.61	2791.38
759.79	4198.34
759.97	3141.58
760.15	2805.72
760.32	2781.14
760.50	2998.23
760.68	3276.75
760.86	2731.99
761.04	3035.09
761.22	3131.34
761.39	3035.09
761.57	3045.33
761.75	2875.35
761.93	3028.95
762.11	2996.18
762.28	2844.63
762.46	2836.44
762.64	3131.34
762.82	2738.13
763.00	2828.24
763.18	3016.66
763.35	2803.67
763.53	3121.10
763.71	2934.74
763.89	2787.29
764.07	3051.47
764.24	2969.55
764.42	3030.99
764.60	2906.07
764.78	3082.19
764.96	3131.34
765.13	3061.71
765.31	2793.43
765.49	3092.43
765.67	2871.25
765.84	2875.35
766.02	2813.91
766.20	2701.27
766.38	3047.38
766.56	2957.27
766.73	2985.94
766.91	3045.33
767.09	2932.69
767.27	2938.84
767.44	2768.85
767.62	3039.19
767.80	3039.19
767.98	2863.06
768.15	2928.60
768.33	3092.43
768.51	3090.38
768.69	2930.64
768.87	2863.06
769.04	2998.23
769.22	3487.69
769.40	2983.89
769.58	3000.27
769.75	3071.95
769.93	3151.82
770.11	2934.74
770.28	2789.33
770.46	3141.58
770.64	3067.86
770.82	2826.20
770.99	2813.91
771.17	3065.81
771.35	2871.25
771.53	2865.11
771.70	2783.19
771.88	3008.47
772.06	2930.64
772.23	2865.11
772.41	2897.88
772.59	2940.88
772.77	2863.06
772.94	2856.92
773.12	2891.73
773.30	2861.01
773.47	3039.19
773.65	2834.39
773.83	3022.80
774.01	2971.60
774.18	2756.57
774.36	2828.24
774.54	2717.65
774.71	2994.13
774.89	2693.08
775.07	2762.71
775.24	2830.29
775.42	2856.92
775.60	3340.24
775.78	2822.10
775.95	2709.46
776.13	2707.41
776.31	2711.51
776.48	2936.79
776.66	3082.19
776.84	2908.12
777.01	2867.16
777.19	2809.81
777.37	2818.00
777.54	3168.21
777.72	3360.72
777.90	2955.22
778.07	2789.33
778.25	3545.03
778.43	3123.15
778.60	2783.19
778.78	2889.68
778.96	3246.03
779.13	2834.39
779.31	2994.13
779.49	2926.55
779.66	3059.67
779.84	2914.26
780.01	2852.82
780.19	2775.00
780.37	3184.59
780.54	3037.14
780.72	2727.89
780.90	2922.45
781.07	2928.60
781.25	2875.35
781.43	3137.49
781.60	2899.92
781.78	3092.43
781.95	2983.89
782.13	2824.15
782.31	2820.05
782.48	2625.50
782.66	2928.60
782.83	3164.11
783.01	2967.51
783.19	3129.30
783.36	2885.59
783.54	2795.48
783.72	3024.85
783.89	2928.60
784.07	3057.62
784.24	2975.70
784.42	3030.99
784.60	2942.93
784.77	3041.23
784.95	2648.02
785.12	2803.67
785.30	3028.95
785.47	2795.48
785.65	2740.18
785.83	2889.68
786.00	2879.44
786.18	3055.57
786.35	2777.05
786.53	2727.89
786.71	3149.78
786.88	3000.27
787.06	2924.50
787.23	2885.59
787.41	2779.09
787.58	3018.71
787.76	2701.27
787.94	2955.22
788.11	2987.99
788.29	2818.00
788.46	2850.77
788.64	2672.60
788.81	2865.11
788.99	2791.38
789.16	2779.09
789.34	2918.36
789.52	2906.07
789.69	2895.83
789.87	2615.26
790.04	2865.11
790.22	2963.41
790.39	3284.94
790.57	2748.37
790.74	2727.89
790.92	3225.55
791.09	2740.18
791.27	2871.25
791.44	2951.12
791.62	2906.07
791.79	3117.01
791.97	2938.84
792.15	3231.69
792.32	3133.39
792.50	3123.15
792.67	3119.06
792.85	3051.47
793.02	2944.98
793.20	2893.78
793.37	2742.23
793.55	2805.72
793.72	2738.13
793.90	3182.54
794.07	2811.86
794.25	2820.05
794.42	2957.27
794.60	2910.16
794.77	2969.55
794.95	2969.55
795.12	3123.15
795.30	2985.94
795.47	2641.88
795.65	3229.65
795.82	3055.57
796.00	2832.34
796.17	2844.63
796.34	2787.29
796.52	3026.90
796.69	3065.81
796.87	2990.03
797.04	2987.99
797.22	3168.21
797.39	3074.00
797.57	2985.94
797.74	2885.59
797.92	3043.28
798.09	2885.59
798.27	3143.63
798.44	2783.19
798.62	2846.68
798.79	2951.12
798.96	2908.12
799.14	2793.43
799.31	3330.00
799.49	2940.88
799.66	2797.53
799.84	2861.01
800.01	2731.99
800.19	3067.86
800.36	2619.35
800.53	2897.88
800.71	3082.19
800.88	3207.12
801.06	2805.72
801.23	2772.95
801.41	2942.93
801.58	2824.15
801.75	2824.15
801.93	2953.17
802.10	3172.30
802.28	3014.61
802.45	2838.48
802.63	2942.93
802.80	3266.51
802.97	2883.54
803.15	2865.11
803.32	2869.20
803.50	2856.92
803.67	2775.00
803.84	2734.04
804.02	2942.93
804.19	2955.22
804.37	2557.91
804.54	2717.65
804.71	2766.81
804.89	3035.09
805.06	2848.72
805.24	2758.61
805.41	2746.33
805.58	2846.68
805.76	3391.44
805.93	2942.93
806.10	3002.32
806.28	3063.76
806.45	3076.05
806.63	3000.27
806.80	2918.36
806.97	3024.85
807.15	2944.98
807.32	2938.84
807.49	2904.02
807.67	2772.95
807.84	3002.32
808.01	2707.41
808.19	3022.80
808.36	3438.54
808.54	2893.78
808.71	2811.86
808.88	2797.53
809.06	3184.59
809.23	3237.84
809.40	2932.69
809.58	2842.58
809.75	2938.84
809.92	2775.00
810.10	3170.26
810.27	2863.06
810.44	3080.14
810.62	3155.92
810.79	2873.30
810.96	2912.21
811.14	2918.36
811.31	3080.14
811.48	2979.79
811.66	2914.26
811.83	3209.17
812.00	3082.19
812.18	2873.30
812.35	3123.15
812.52	2879.44
812.69	2922.45
812.87	2848.72
813.04	2807.77
813.21	3006.42
813.39	2856.92
813.56	2711.51
813.73	3125.20
813.91	2719.70
814.08	2996.18
814.25	2947.03
814.42	2658.26
814.60	2953.17
814.77	3039.19
814.94	2883.54
815.12	2895.83
815.29	3260.37
815.46	2926.55
815.63	2873.30
815.81	2813.91
815.98	2811.86
816.15	2934.74
816.33	2881.49
816.50	2848.72
816.67	2947.03
816.84	2908.12
817.02	2758.61
817.19	2861.01
817.36	3055.57
817.53	3030.99
817.71	2828.24
817.88	2955.22
818.05	2973.65
818.22	2885.59
818.40	3114.96
818.57	2838.48
818.74	2975.70
818.91	2883.54
819.09	3043.28
819.26	2969.55
819.43	2871.25
819.60	2889.68
819.78	3024.85
819.95	3035.09
820.12	2760.66
820.29	3143.63
820.47	3123.15
820.64	2818.00
820.81	2840.53
820.98	2895.83
821.15	2846.68
821.33	2963.41
821.50	2754.52
821.67	3037.14
821.84	2795.48
822.02	2881.49
822.19	3053.52
822.36	2906.07
822.53	2764.76
822.70	2736.09
822.88	2877.40
823.05	3211.22
823.22	2861.01
823.39	2861.01
823.56	2963.41
823.74	3250.13
823.91	2748.37
824.08	2760.66
824.25	2748.37
824.42	3301.33
824.60	2709.46
824.77	2908.12
824.94	2926.55
825.11	3080.14
825.28	2734.04
825.45	2961.36
825.63	3061.71
825.80	2801.62
825.97	2881.49
826.14	2944.98
826.31	2783.19
826.48	3065.81
826.66	2867.16
826.83	2793.43
827.00	2967.51
827.17	2879.44
827.34	2850.77
827.51	2877.40
827.69	2865.11
827.86	2678.74
828.03	2889.68
828.20	2867.16
828.37	2793.43
828.54	2996.18
828.71	2779.09
828.89	2955.22
829.06	3000.27
829.23	3301.33
829.40	2914.26
829.57	2820.05
829.74	3012.56
829.91	2934.74
830.09	2791.38
830.26	2971.60
830.43	3184.59
830.60	2899.92
830.77	2820.05
830.94	3043.28
831.11	3100.62
831.28	2912.21
831.46	2965.46
831.63	2850.77
831.80	3198.93
831.97	2873.30
832.14	2858.96
832.31	2852.82
832.48	2994.13
832.65	3117.01
832.82	2885.59
832.99	2938.84
833.17	2832.34
833.34	3180.50
833.51	2809.81
833.68	2627.54
833.85	3104.72
834.02	2818.00
834.19	2738.13
834.36	2799.57
834.53	2965.46
834.70	3143.63
834.87	2787.29
835.04	2654.17
835.22	2818.00
835.39	2881.49
835.56	2686.94
835.73	2709.46
835.90	3102.67
836.07	2791.38
836.24	2918.36
836.41	2777.05
836.58	2785.24
836.75	3149.78
836.92	2768.85
837.09	2715.61
837.26	3051.47
837.43	3051.47
837.60	2721.75
837.77	2731.99
837.94	3065.81
838.12	3211.22
838.29	2617.30
838.46	2602.97
838.63	2754.52
838.80	3200.98
838.97	2756.57
839.14	2688.98
839.31	3018.71
839.48	3061.71
839.65	2779.09
839.82	2844.63
839.99	3028.95
840.16	2975.70
840.33	2678.74
840.50	2803.67
840.67	2844.63
840.84	2576.34
841.01	2662.36
841.18	2734.04
841.35	2856.92
841.52	3127.25
841.69	3065.81
841.86	2901.97
842.03	3010.51
842.20	3094.48
842.37	2723.80
842.54	2873.30
842.71	2967.51
842.88	2736.09
843.05	2777.05
843.22	2752.47
843.39	3022.80
843.56	2852.82
843.73	2684.89
843.90	2793.43
844.07	3049.43
844.24	3135.44
844.41	2844.63
844.58	2711.51
844.75	2955.22
844.92	2983.89
845.09	2752.47
845.26	2729.94
845.43	3065.81
845.60	2906.07
845.77	2908.12
845.94	2807.77
846.10	3061.71
846.27	2705.37
846.44	2678.74
846.61	2594.78
846.78	2973.65
846.95	3117.01
847.12	2731.99
847.29	2746.33
847.46	2863.06
847.63	3088.34
847.80	2666.46
847.97	2719.70
848.14	3385.29
848.31	2951.12
848.48	2633.69
848.65	2680.79
848.82	2863.06
848.98	3405.77
849.15	2826.20
849.32	2840.53
849.49	3182.54
849.66	3041.23
849.83	2775.00
850.00	2701.27
850.17	3043.28
850.34	2906.07
850.51	2768.85
850.68	2768.85
850.85	3381.20
851.01	3008.47
851.18	2721.75
851.35	2846.68
851.52	3110.86
851.69	3096.53
851.86	2662.36
852.03	2719.70
852.20	3084.24
852.37	2953.17
852.53	2572.25
852.70	2631.64
852.87	3014.61
853.04	3090.38
853.21	2787.29
853.38	2961.36
853.55	3229.65
853.72	3188.69
853.89	2639.83
854.05	2723.80
854.22	2856.92
854.39	2914.26
854.56	2752.47
854.73	2914.26
854.90	2836.44
855.07	2965.46
855.23	2645.98
855.40	2750.42
855.57	2938.84
855.74	2664.41
855.91	2961.36
856.08	2705.37
856.25	2789.33
856.41	2840.53
856.58	2717.65
856.75	2809.81
856.92	2752.47
857.09	3114.96
857.26	2559.96
857.42	2768.85
857.59	3067.86
857.76	3004.37
857.93	2699.22
858.10	2858.96
858.27	2813.91
858.43	2889.68
858.60	2697.17
858.77	2629.59
858.94	2891.73
859.11	3123.15
859.27	2770.90
859.44	2609.11
859.61	3342.28
859.78	3092.43
859.95	2719.70
860.12	2701.27
860.28	3317.71
860.45	3362.76
860.62	2688.98
860.79	2856.92
860.95	2953.17
861.12	2811.86
861.29	2607.06
861.46	2682.84
861.63	2938.84
861.79	3014.61
861.96	2627.54
862.13	2719.70
862.30	3180.50
862.47	2848.72
862.63	2641.88
862.80	2899.92
862.97	3065.81
863.14	3059.67
863.30	2731.99
863.47	2691.03
863.64	3237.84
863.81	3037.14
863.97	2662.36
864.14	2805.72
864.31	2869.20
864.48	3065.81
864.65	2746.33
864.81	2846.68
864.98	3112.91
865.15	3123.15
865.32	2813.91
865.48	2805.72
865.65	3293.13
865.82	2768.85
865.98	2801.62
866.15	2885.59
866.32	2996.18
866.49	2914.26
866.65	2869.20
866.82	2729.94
866.99	3033.04
867.16	2914.26
867.32	2760.66
867.49	2668.50
867.66	2961.36
867.83	2842.58
867.99	2631.64
868.16	2721.75
868.33	2822.10
868.49	2949.08
868.66	2703.32
868.83	2805.72
868.99	2940.88
869.16	2979.79
869.33	2869.20
869.50	2781.14
869.66	2971.60
869.83	2963.41
870.00	2711.51
870.16	2906.07
870.33	2947.03
870.50	3176.40
870.66	2822.10
870.83	2713.56
871.00	2963.41
871.17	3059.67
871.33	2838.48
871.50	2760.66
871.67	2930.64
871.83	2838.48
872.00	2865.11
872.17	2715.61
872.33	3237.84
872.50	3071.95
872.67	2820.05
872.83	2795.48
873.00	3016.66
873.17	3006.42
873.33	2801.62
873.50	2793.43
873.67	2906.07
873.83	2838.48
874.00	2734.04
874.16	2861.01
874.33	3012.56
874.50	2772.95
874.66	2688.98
874.83	2820.05
875.00	3149.78
875.16	3196.88
875.33	2838.48
875.50	2482.14
875.66	2875.35
875.83	2967.51
875.99	2820.05
876.16	2803.67
876.33	2803.67
876.49	2924.50
876.66	2748.37
876.83	2875.35
876.99	2697.17
877.16	2949.08
877.32	2711.51
877.49	2772.95
877.66	3059.67
877.82	3264.46
877.99	2838.48
878.15	2977.75
878.32	3018.71
878.49	3074.00
878.65	2738.13
878.82	3000.27
878.98	2885.59
879.15	3082.19
879.32	2906.07
879.48	2932.69
879.65	2953.17
879.81	2830.29
879.98	2738.13
880.15	2795.48
880.31	3117.01
880.48	2811.86
880.64	2824.15
880.81	2805.72
880.97	3289.04
881.14	3260.37
881.31	2731.99
881.47	2904.02
881.64	2971.60
881.80	2754.52
881.97	2922.45
882.13	2768.85
882.30	2758.61
882.47	2924.50
882.63	2713.56
882.80	2707.41
882.96	2944.98
883.13	3289.04
883.29	2768.85
883.46	2779.09
883.62	3354.57
883.79	2983.89
883.95	2858.96
884.12	2723.80
884.29	3166.16
884.45	2969.55
884.62	2795.48
884.78	2660.31
884.95	3305.42
885.11	2854.87
885.28	2775.00
885.44	2699.22
885.61	3086.29
885.77	3141.58
885.94	2887.64
886.10	2856.92
886.27	3037.14
886.43	3297.23
886.60	3000.27
886.76	2750.42
886.93	2813.91
887.09	2977.75
887.26	2578.39
887.42	2766.81
887.59	3137.49
887.75	3334.09
887.92	2938.84
888.08	2877.40
888.25	3264.46
888.41	3143.63
888.58	2795.48
888.74	2701.27
888.91	2916.31
>>>>>End Processed Spectral Data<<<<<
