SpectraSuite Data File
++++++++++++++++++++++++++++++++++++
Date: Thu May 05 21:11:10 CEST 2016
User: root
Dark Spectrum Present: No
Reference Spectrum Present: No
Number of Sampled Component Spectra: 1
Spectrometers: USB4C02835
Integration Time (usec): 100000 (USB4C02835)
Spectra Averaged: 1 (USB4C02835)
Boxcar Smoothing: 0 (USB4C02835)
Correct for Electrical Dark: No (USB4C02835)
Strobe/Lamp Enabled: No (USB4C02835)
Correct for Detector Non-linearity: No (USB4C02835)
Correct for Stray Light: No (USB4C02835)
Number of Pixels in Processed Spectrum: 3648
>>>>>Begin Processed Spectral Data<<<<<
177.47	2109.41
177.69	2109.41
177.91	2109.41
178.13	2133.98
178.36	2058.21
178.58	2822.10
178.80	2901.97
179.02	2801.62
179.24	2848.72
179.46	2570.20
179.68	2668.50
179.90	2912.21
180.13	2930.64
180.35	2471.90
180.57	2551.77
180.79	3119.06
181.01	2953.17
181.23	2752.47
181.45	2822.10
181.67	3082.19
181.90	3151.82
182.12	2738.13
182.34	2555.86
182.56	3096.53
182.78	3086.29
183.00	2590.68
183.22	2744.28
183.44	2637.78
183.66	3559.37
183.89	2918.36
184.11	2727.89
184.33	3092.43
184.55	3207.12
184.77	2676.70
184.99	2752.47
185.21	2891.73
185.43	3499.98
185.65	2670.55
185.87	2639.83
186.10	3387.34
186.32	3377.10
186.54	2803.67
186.76	2772.95
186.98	3143.63
187.20	2934.74
187.42	2764.76
187.64	2631.64
187.86	3090.38
188.08	3157.97
188.30	2639.83
188.52	2652.12
188.75	3139.54
188.97	3196.88
189.19	2654.17
189.41	2643.93
189.63	3082.19
189.85	2951.12
190.07	2551.77
190.29	2535.39
190.51	3045.33
190.73	2762.71
190.95	2865.11
191.17	2762.71
191.39	2688.98
191.61	2979.79
191.84	2643.93
192.06	2695.13
192.28	2713.56
192.50	3477.45
192.72	2793.43
192.94	2772.95
193.16	3217.36
193.38	3069.91
193.60	2598.87
193.82	2832.34
194.04	3160.02
194.26	2979.79
194.48	2729.94
194.70	2707.41
194.92	2942.93
195.14	3205.07
195.36	2633.69
195.58	2719.70
195.80	2928.60
196.02	2885.59
196.24	2672.60
196.46	2797.53
196.69	2926.55
196.91	3393.48
197.13	2594.78
197.35	2656.22
197.57	3188.69
197.79	3086.29
198.01	2699.22
198.23	2658.26
198.45	3020.75
198.67	2752.47
198.89	2527.19
199.11	2795.48
199.33	2844.63
199.55	2631.64
199.77	2631.64
199.99	2805.72
200.21	2914.26
200.43	3020.75
200.65	2607.06
200.87	2545.63
201.09	3000.27
201.31	3039.19
201.53	2754.52
201.75	2725.85
201.97	3065.81
202.19	3047.38
202.41	2768.85
202.63	2834.39
202.85	3110.86
203.07	3004.37
203.29	2768.85
203.51	2639.83
203.73	2873.30
203.95	3502.03
204.17	2621.40
204.39	2768.85
204.61	3055.57
204.83	2910.16
205.05	2768.85
205.27	2723.80
205.49	3438.54
205.71	2932.69
205.93	2584.54
206.15	2631.64
206.37	2932.69
206.59	2889.68
206.81	2586.58
207.03	2629.59
207.25	2781.14
207.47	3112.91
207.69	2746.33
207.91	2871.25
208.13	3256.27
208.34	2865.11
208.56	2590.68
208.78	2781.14
209.00	2916.31
209.22	2875.35
209.44	2717.65
209.66	2598.87
209.88	2973.65
210.10	2975.70
210.32	2652.12
210.54	2691.03
210.76	2932.69
210.98	3080.14
211.20	2582.49
211.42	2818.00
211.64	3160.02
211.86	3051.47
212.08	2777.05
212.30	2658.26
212.52	2955.22
212.74	3067.86
212.96	2787.29
213.17	2719.70
213.39	3166.16
213.61	3203.02
213.83	2660.31
214.05	2572.25
214.27	3051.47
214.49	2781.14
214.71	2621.40
214.93	2703.32
215.15	2973.65
215.37	3168.21
215.59	2586.58
215.81	2717.65
216.03	3203.02
216.24	2955.22
216.46	2660.31
216.68	2783.19
216.90	3057.62
217.12	3215.31
217.34	2697.17
217.56	2850.77
217.78	3254.22
218.00	3074.00
218.22	2697.17
218.44	2736.09
218.66	3000.27
218.87	3356.62
219.09	2746.33
219.31	2645.98
219.53	3110.86
219.75	2901.97
219.97	2717.65
220.19	2719.70
220.41	3047.38
220.63	3225.55
220.85	2633.69
221.06	2703.32
221.28	3266.51
221.50	3153.87
221.72	2680.79
221.94	2623.45
222.16	3002.32
222.38	3168.21
222.60	2662.36
222.82	2772.95
223.03	3108.82
223.25	2832.34
223.47	2709.46
223.69	2944.98
223.91	3160.02
224.13	2908.12
224.35	2529.24
224.57	2848.72
224.78	3092.43
225.00	2858.96
225.22	2787.29
225.44	2617.30
225.66	3182.54
225.88	2947.03
226.10	2791.38
226.32	2717.65
226.53	3299.28
226.75	2891.73
226.97	2717.65
227.19	2762.71
227.41	2873.30
227.63	2858.96
227.85	2469.85
228.06	2701.27
228.28	2942.93
228.50	3098.58
228.72	2545.63
228.94	2684.89
229.16	2752.47
229.37	2787.29
229.59	2707.41
229.81	2895.83
230.03	2869.20
230.25	2740.18
230.47	2531.29
230.69	2684.89
230.90	3094.48
231.12	2924.50
231.34	2807.77
231.56	2793.43
231.78	2818.00
232.00	3024.85
232.21	2752.47
232.43	2789.33
232.65	2592.73
232.87	3096.53
233.09	2635.74
233.30	2594.78
233.52	3104.72
233.74	2922.45
233.96	2596.82
234.18	2838.48
234.40	3020.75
234.61	3352.52
234.83	2541.53
235.05	2650.07
235.27	3477.45
235.49	3190.74
235.70	2574.30
235.92	2772.95
236.14	3059.67
236.36	3370.96
236.58	2508.76
236.79	2777.05
237.01	2971.60
237.23	2901.97
237.45	2893.78
237.67	2756.57
237.88	3047.38
238.10	3282.89
238.32	2594.78
238.54	2641.88
238.76	2953.17
238.97	2807.77
239.19	2619.35
239.41	2748.37
239.63	3180.50
239.85	2820.05
240.06	2719.70
240.28	2670.55
240.50	3233.74
240.72	2875.35
240.93	2654.17
241.15	2772.95
241.37	3033.04
241.59	3229.65
241.81	2615.26
242.02	2754.52
242.24	2979.79
242.46	3028.95
242.68	2592.73
242.89	2625.50
243.11	3172.30
243.33	2930.64
243.55	2680.79
243.76	2695.13
243.98	2828.24
244.20	2994.13
244.42	2697.17
244.64	2697.17
244.85	2746.33
245.07	2805.72
245.29	2643.93
245.51	2770.90
245.72	3069.91
245.94	3133.39
246.16	2707.41
246.38	2688.98
246.59	2916.31
246.81	2893.78
247.03	2633.69
247.24	2568.15
247.46	2914.26
247.68	3088.34
247.90	2594.78
248.11	2607.06
248.33	3049.43
248.55	3049.43
248.77	2744.28
248.98	2772.95
249.20	3297.23
249.42	3010.51
249.64	2621.40
249.85	2680.79
250.07	2858.96
250.29	3196.88
250.50	2781.14
250.72	2643.93
250.94	2990.03
251.16	3373.00
251.37	2672.60
251.59	2818.00
251.81	3039.19
252.02	3239.89
252.24	2650.07
252.46	2783.19
252.68	2867.16
252.89	2844.63
253.11	2461.66
253.33	2807.77
253.54	3203.02
253.76	2725.85
253.98	2705.37
254.20	2641.88
254.41	2729.94
254.63	3004.37
254.85	2455.51
255.06	2723.80
255.28	3030.99
255.50	2922.45
255.71	2695.13
255.93	2543.58
256.15	2930.64
256.36	3039.19
256.58	2607.06
256.80	2650.07
257.02	2910.16
257.23	2822.10
257.45	2686.94
257.67	2791.38
257.88	2879.44
258.10	3030.99
258.32	2664.41
258.53	2811.86
258.75	3305.42
258.97	2801.62
259.18	2594.78
259.40	2600.92
259.62	3248.08
259.83	3223.50
260.05	2701.27
260.27	3516.36
260.48	3182.54
260.70	2826.20
260.92	2592.73
261.13	2742.23
261.35	2934.74
261.57	3035.09
261.78	2572.25
262.00	2691.03
262.22	3076.05
262.43	2824.15
262.65	2736.09
262.86	2719.70
263.08	3405.77
263.30	2959.31
263.51	2535.39
263.73	2699.22
263.95	3299.28
264.16	2758.61
264.38	2613.21
264.60	2717.65
264.81	2928.60
265.03	3186.64
265.25	2998.23
265.46	2650.07
265.68	3231.69
265.89	3119.06
266.11	2492.38
266.33	2688.98
266.54	3119.06
266.76	3024.85
266.98	2809.81
267.19	2803.67
267.41	3168.21
267.62	2910.16
267.84	2562.01
268.06	2809.81
268.27	3022.80
268.49	3192.78
268.70	2764.76
268.92	2721.75
269.14	2879.44
269.35	2775.00
269.57	2797.53
269.79	2783.19
270.00	2920.40
270.22	3266.51
270.43	2578.39
270.65	2547.67
270.87	3078.10
271.08	3076.05
271.30	2818.00
271.51	2768.85
271.73	3084.24
271.95	3182.54
272.16	2576.34
272.38	2869.20
272.59	2916.31
272.81	3131.34
273.02	2654.17
273.24	2674.65
273.46	3196.88
273.67	2842.58
273.89	2600.92
274.10	2713.56
274.32	3151.82
274.54	3016.66
274.75	2762.71
274.97	2772.95
275.18	3180.50
275.40	3080.14
275.61	2740.18
275.83	2842.58
276.05	2844.63
276.26	2983.89
276.48	2740.18
276.69	2869.20
276.91	2873.30
277.12	3219.41
277.34	2875.35
277.55	2942.93
277.77	2992.08
277.99	2910.16
278.20	2805.72
278.42	2770.90
278.63	2840.53
278.85	2777.05
279.06	2811.86
279.28	2877.40
279.49	3135.44
279.71	3135.44
279.93	2836.44
280.14	2822.10
280.36	2879.44
280.57	3166.16
280.79	2912.21
281.00	2721.75
281.22	2936.79
281.43	3129.30
281.65	2564.06
281.86	2721.75
282.08	3067.86
282.29	3313.61
282.51	2697.17
282.73	2715.61
282.94	2707.41
283.16	3059.67
283.37	2901.97
283.59	2842.58
283.80	3067.86
284.02	3043.28
284.23	2854.87
284.45	2760.66
284.66	2895.83
284.88	2885.59
285.09	2672.60
285.31	2861.01
285.52	3108.82
285.74	2688.98
285.95	2891.73
286.17	2863.06
286.38	3180.50
286.60	2869.20
286.81	2717.65
287.03	2779.09
287.24	3016.66
287.46	3088.34
287.67	2822.10
287.89	3008.47
288.10	2979.79
288.32	3033.04
288.53	2973.65
288.75	2797.53
288.96	3121.10
289.18	2893.78
289.39	2744.28
289.61	2836.44
289.82	3356.62
290.04	3229.65
290.25	2693.08
290.47	2918.36
290.68	2953.17
290.90	3135.44
291.11	2631.64
291.33	2883.54
291.54	2850.77
291.76	2887.64
291.97	2924.50
292.18	2926.55
292.40	3047.38
292.61	2885.59
292.83	3086.29
293.04	2826.20
293.26	3024.85
293.47	2977.75
293.69	2748.37
293.90	2744.28
294.12	3246.03
294.33	2918.36
294.55	2834.39
294.76	2930.64
294.97	3264.46
295.19	3295.18
295.40	2797.53
295.62	2850.77
295.83	3092.43
296.05	2983.89
296.26	3051.47
296.48	2684.89
296.69	3035.09
296.90	2832.34
297.12	2934.74
297.33	2916.31
297.55	3041.23
297.76	3164.11
297.98	2885.59
298.19	2899.92
298.41	3063.76
298.62	2865.11
298.83	3061.71
299.05	2850.77
299.26	2959.31
299.48	2828.24
299.69	2901.97
299.90	2865.11
300.12	2840.53
300.33	3143.63
300.55	2854.87
300.76	2883.54
300.98	2891.73
301.19	3026.90
301.40	2807.77
301.62	2789.33
301.83	3045.33
302.05	3020.75
302.26	2760.66
302.47	2844.63
302.69	2797.53
302.90	3006.42
303.12	2580.44
303.33	2912.21
303.54	3293.13
303.76	2801.62
303.97	2836.44
304.19	3012.56
304.40	2871.25
304.61	3069.91
304.83	2926.55
305.04	2906.07
305.26	3071.95
305.47	2863.06
305.68	2883.54
305.90	2633.69
306.11	3192.78
306.33	2965.46
306.54	2598.87
306.75	2779.09
306.97	2746.33
307.18	2756.57
307.39	2756.57
307.61	2871.25
307.82	2944.98
308.04	3100.62
308.25	2770.90
308.46	2932.69
308.68	2953.17
308.89	3006.42
309.10	2951.12
309.32	2826.20
309.53	2932.69
309.74	3082.19
309.96	2725.85
310.17	2934.74
310.39	2912.21
310.60	3127.25
310.81	2879.44
311.03	2670.55
311.24	3131.34
311.45	3020.75
311.67	3030.99
311.88	2869.20
312.09	2856.92
312.31	2809.81
312.52	2711.51
312.73	2803.67
312.95	2754.52
313.16	2879.44
313.37	2987.99
313.59	2981.84
313.80	3045.33
314.01	3243.98
314.23	2869.20
314.44	2770.90
314.65	2756.57
314.87	2750.42
315.08	2777.05
315.29	2760.66
315.51	2803.67
315.72	2715.61
315.93	2920.40
316.15	2838.48
316.36	2947.03
316.57	2971.60
316.79	2797.53
317.00	2770.90
317.21	3131.34
317.43	2906.07
317.64	2856.92
317.85	2682.84
318.07	2834.39
318.28	2965.46
318.49	2912.21
318.70	2944.98
318.92	3039.19
319.13	3024.85
319.34	3020.75
319.56	2809.81
319.77	3053.52
319.98	3123.15
320.20	3030.99
320.41	2871.25
320.62	3051.47
320.83	2795.48
321.05	3018.71
321.26	2766.81
321.47	2928.60
321.69	3219.41
321.90	2643.93
322.11	2764.76
322.32	3051.47
322.54	3221.45
322.75	2725.85
322.96	3585.99
323.18	2740.18
323.39	2715.61
323.60	2740.18
323.81	2938.84
324.03	2914.26
324.24	3033.04
324.45	2901.97
324.66	2727.89
324.88	3155.92
325.09	3149.78
325.30	2729.94
325.52	2684.89
325.73	2998.23
325.94	2783.19
326.15	2621.40
326.37	2627.54
326.58	3119.06
326.79	3319.76
327.00	2760.66
327.22	2787.29
327.43	2949.08
327.64	2770.90
327.85	2879.44
328.07	2818.00
328.28	3338.19
328.49	2842.58
328.70	2791.38
328.92	2758.61
329.13	2938.84
329.34	3024.85
329.55	3033.04
329.76	2852.82
329.98	2848.72
330.19	3133.39
330.40	2883.54
330.61	2875.35
330.83	3143.63
331.04	2824.15
331.25	2875.35
331.46	2781.14
331.68	2701.27
331.89	3252.17
332.10	2854.87
332.31	2766.81
332.52	3059.67
332.74	3176.40
332.95	2656.22
333.16	2828.24
333.37	3067.86
333.58	2926.55
333.80	2750.42
334.01	2648.02
334.22	2887.64
334.43	2904.02
334.64	2805.72
334.86	2686.94
335.07	2785.24
335.28	3178.45
335.49	2627.54
335.70	2932.69
335.92	3192.78
336.13	3383.24
336.34	2906.07
336.55	2873.30
336.76	3047.38
336.98	2680.79
337.19	2779.09
337.40	2955.22
337.61	3528.65
337.82	2963.41
338.04	2881.49
338.25	2678.74
338.46	3002.32
338.67	2947.03
338.88	2709.46
339.09	2691.03
339.31	2863.06
339.52	2820.05
339.73	2760.66
339.94	2869.20
340.15	3084.24
340.36	2951.12
340.58	2856.92
340.79	2731.99
341.00	3035.09
341.21	2709.46
341.42	3020.75
341.63	2740.18
341.85	3110.86
342.06	2973.65
342.27	2799.57
342.48	2904.02
342.69	2709.46
342.90	3049.43
343.12	3106.77
343.33	2770.90
343.54	3123.15
343.75	3233.74
343.96	2818.00
344.17	2686.94
344.38	2938.84
344.60	2840.53
344.81	2719.70
345.02	2852.82
345.23	3203.02
345.44	3438.54
345.65	2842.58
345.86	2830.29
346.07	3016.66
346.29	2871.25
346.50	2881.49
346.71	2893.78
346.92	3188.69
347.13	3342.28
347.34	2889.68
347.55	2781.14
347.76	2985.94
347.98	2723.80
348.19	2818.00
348.40	3014.61
348.61	2926.55
348.82	3262.41
349.03	2805.72
349.24	2688.98
349.45	3422.16
349.66	2652.12
349.88	2772.95
350.09	2736.09
350.30	3166.16
350.51	3129.30
350.72	2992.08
350.93	2844.63
351.14	2908.12
351.35	3041.23
351.56	2789.33
351.77	2897.88
351.99	3057.62
352.20	3198.93
352.41	2983.89
352.62	2629.59
352.83	3000.27
353.04	2944.98
353.25	2768.85
353.46	2973.65
353.67	3135.44
353.88	2680.79
354.09	2740.18
354.30	2807.77
354.52	3100.62
354.73	2938.84
354.94	2779.09
355.15	2854.87
355.36	3229.65
355.57	2879.44
355.78	2867.16
355.99	2775.00
356.20	2926.55
356.41	3174.35
356.62	2879.44
356.83	2875.35
357.04	3184.59
357.25	2770.90
357.46	2852.82
357.68	2713.56
357.89	2844.63
358.10	2916.31
358.31	2809.81
358.52	2858.96
358.73	2766.81
358.94	2824.15
359.15	2787.29
359.36	2789.33
359.57	3006.42
359.78	2963.41
359.99	3028.95
360.20	2654.17
360.41	2979.79
360.62	3094.48
360.83	2904.02
361.04	2756.57
361.25	2957.27
361.46	3297.23
361.67	2846.68
361.88	2899.92
362.09	3047.38
362.30	3123.15
362.51	2693.08
362.72	2863.06
362.93	3135.44
363.14	3102.67
363.35	2895.83
363.56	2705.37
363.78	3096.53
363.99	3162.06
364.20	2756.57
364.41	2842.58
364.62	3293.13
364.83	3067.86
365.04	2895.83
365.25	2803.67
365.46	3338.19
365.67	2918.36
365.88	2940.88
366.09	2820.05
366.30	2873.30
366.51	3061.71
366.72	2674.65
366.93	2766.81
367.14	2994.13
367.35	3221.45
367.56	2803.67
367.77	2940.88
367.98	2875.35
368.18	3053.52
368.39	2869.20
368.60	2691.03
368.81	3194.83
369.02	3024.85
369.23	2824.15
369.44	2621.40
369.65	2928.60
369.86	2910.16
370.07	2883.54
370.28	2666.46
370.49	3051.47
370.70	3143.63
370.91	2639.83
371.12	2676.70
371.33	3188.69
371.54	2967.51
371.75	2977.75
371.96	2627.54
372.17	3002.32
372.38	3030.99
372.59	2828.24
372.80	2725.85
373.01	2940.88
373.22	3014.61
373.43	2873.30
373.64	2678.74
373.85	3209.17
374.06	3274.70
374.26	2996.18
374.47	2924.50
374.68	3286.99
374.89	3037.14
375.10	2818.00
375.31	2883.54
375.52	2904.02
375.73	3014.61
375.94	2668.50
376.15	2914.26
376.36	2867.16
376.57	2861.01
376.78	2856.92
376.99	2811.86
377.20	3153.87
377.40	2924.50
377.61	2994.13
377.82	2754.52
378.03	3213.26
378.24	3080.14
378.45	2863.06
378.66	2844.63
378.87	2764.76
379.08	2734.04
379.29	2772.95
379.50	3022.80
379.71	2985.94
379.91	3114.96
380.12	2852.82
380.33	2832.34
380.54	2971.60
380.75	2928.60
380.96	2805.72
381.17	2836.44
381.38	3094.48
381.59	2944.98
381.80	2897.88
382.00	2985.94
382.21	3067.86
382.42	3274.70
382.63	3143.63
382.84	3004.37
383.05	3252.17
383.26	3200.98
383.47	2969.55
383.68	2836.44
383.88	3149.78
384.09	3061.71
384.30	2971.60
384.51	2879.44
384.72	2987.99
384.93	2799.57
385.14	2959.31
385.35	3065.81
385.55	2777.05
385.76	3119.06
385.97	2805.72
386.18	2680.79
386.39	2815.96
386.60	2815.96
386.81	2768.85
387.02	2768.85
387.22	2686.94
387.43	3043.28
387.64	2861.01
387.85	3041.23
388.06	3037.14
388.27	4116.42
388.48	7255.95
388.68	10964.82
388.89	13463.35
389.10	14391.08
389.31	14337.83
389.52	11364.18
389.73	10037.09
389.93	8882.04
390.14	8089.48
390.35	7460.75
390.56	6887.32
390.77	5636.01
390.98	4351.93
391.18	3626.95
391.39	3520.46
391.60	2975.70
391.81	3078.10
392.02	2918.36
392.23	3430.35
392.43	3098.58
392.64	2940.88
392.85	2912.21
393.06	3184.59
393.27	2990.03
393.47	2785.24
393.68	2877.40
393.89	2985.94
394.10	3225.55
394.31	2807.77
394.52	2779.09
394.72	2895.83
394.93	3237.84
395.14	2715.61
395.35	2928.60
395.56	2881.49
395.76	2944.98
395.97	2805.72
396.18	2953.17
396.39	3012.56
396.60	3520.46
396.80	3178.45
397.01	3020.75
397.22	3074.00
397.43	3205.07
397.64	2803.67
397.84	2873.30
398.05	3383.24
398.26	2938.84
398.47	2973.65
398.67	3061.71
398.88	2983.89
399.09	3149.78
399.30	2783.19
399.51	2838.48
399.71	2818.00
399.92	2961.36
400.13	2994.13
400.34	2777.05
400.54	2981.84
400.75	3305.42
400.96	2969.55
401.17	3170.26
401.37	3026.90
401.58	3024.85
401.79	2824.15
402.00	2961.36
402.21	3370.96
402.41	3231.69
402.62	3190.74
402.83	3221.45
403.04	3362.76
403.24	3610.57
403.45	2924.50
403.66	3147.73
403.87	3178.45
404.07	3383.24
404.28	3098.58
404.49	3141.58
404.70	3055.57
404.90	3084.24
405.11	2830.29
405.32	2967.51
405.52	2901.97
405.73	2947.03
405.94	2822.10
406.15	2961.36
406.35	3018.71
406.56	3123.15
406.77	2887.64
406.98	2879.44
407.18	2936.79
407.39	3252.17
407.60	2899.92
407.80	2951.12
408.01	2953.17
408.22	3090.38
408.43	2797.53
408.63	2928.60
408.84	3141.58
409.05	3074.00
409.25	2727.89
409.46	2836.44
409.67	2865.11
409.88	2916.31
410.08	2881.49
410.29	2867.16
410.50	3117.01
410.70	3057.62
410.91	2723.80
411.12	2854.87
411.32	2912.21
411.53	2846.68
411.74	2854.87
411.95	2830.29
412.15	2947.03
412.36	3053.52
412.57	3012.56
412.77	3024.85
412.98	2992.08
413.19	2928.60
413.39	2942.93
413.60	2842.58
413.81	3237.84
414.01	2770.90
414.22	2871.25
414.43	2949.08
414.63	2994.13
414.84	3229.65
415.05	2856.92
415.25	2734.04
415.46	3084.24
415.67	2965.46
415.87	2850.77
416.08	2916.31
416.29	2998.23
416.49	3045.33
416.70	2797.53
416.91	2897.88
417.11	2953.17
417.32	3088.34
417.53	2891.73
417.73	3002.32
417.94	2985.94
418.15	3063.76
418.35	2904.02
418.56	2856.92
418.77	3370.96
418.97	3035.09
419.18	2836.44
419.38	2621.40
419.59	2971.60
419.80	3270.61
420.00	2775.00
420.21	2758.61
420.42	3137.49
420.62	3053.52
420.83	2787.29
421.04	2879.44
421.24	2908.12
421.45	3141.58
421.65	2856.92
421.86	2803.67
422.07	3194.83
422.27	3164.11
422.48	2787.29
422.69	2664.41
422.89	2949.08
423.10	2879.44
423.30	2744.28
423.51	2838.48
423.72	3028.95
423.92	3160.02
424.13	2701.27
424.33	2871.25
424.54	3110.86
424.75	2969.55
424.95	3006.42
425.16	2785.24
425.36	2961.36
425.57	3176.40
425.78	2963.41
425.98	2883.54
426.19	2959.31
426.39	2793.43
426.60	2893.78
426.81	2998.23
427.01	3074.00
427.22	2887.64
427.42	2635.74
427.63	2756.57
427.83	3123.15
428.04	3276.75
428.25	2942.93
428.45	2969.55
428.66	3155.92
428.86	3026.90
429.07	2951.12
429.28	2873.30
429.48	2932.69
429.69	2861.01
429.89	2815.96
430.10	2721.75
430.30	3174.35
430.51	3127.25
430.71	2725.85
430.92	2844.63
431.13	2920.40
431.33	3067.86
431.54	2889.68
431.74	3035.09
431.95	3373.00
432.15	2770.90
432.36	2895.83
432.56	2922.45
432.77	3295.18
432.98	3346.38
433.18	2885.59
433.39	2760.66
433.59	2922.45
433.80	3352.52
434.00	3047.38
434.21	2865.11
434.41	2856.92
434.62	3456.97
434.82	2686.94
435.03	2813.91
435.23	2983.89
435.44	2731.99
435.64	2840.53
435.85	2901.97
436.06	3059.67
436.26	3082.19
436.47	2830.29
436.67	2801.62
436.88	2992.08
437.08	3151.82
437.29	2949.08
437.49	2908.12
437.70	3350.48
437.90	3006.42
438.11	3074.00
438.31	3049.43
438.52	3180.50
438.72	3147.73
438.93	3168.21
439.13	2932.69
439.34	3192.78
439.54	2865.11
439.75	2959.31
439.95	2985.94
440.16	2861.01
440.36	3000.27
440.57	2901.97
440.77	2752.47
440.98	3006.42
441.18	3106.77
441.39	2740.18
441.59	2709.46
441.80	3297.23
442.00	2942.93
442.21	2916.31
442.41	2748.37
442.62	3198.93
442.82	2904.02
443.02	2813.91
443.23	2893.78
443.43	2910.16
443.64	3174.35
443.84	2783.19
444.05	2912.21
444.25	3012.56
444.46	2944.98
444.66	2846.68
444.87	3051.47
445.07	2744.28
445.28	2918.36
445.48	3069.91
445.69	3053.52
445.89	3377.10
446.09	2867.16
446.30	3176.40
446.50	3213.26
446.71	4632.51
446.91	5793.70
447.12	6557.60
447.32	6997.91
447.53	6961.05
447.73	5853.09
447.93	5087.15
448.14	4829.11
448.34	4829.11
448.55	4091.84
448.75	4011.97
448.96	3827.65
449.16	3710.92
449.36	3426.25
449.57	3049.43
449.77	2936.79
449.98	2906.07
450.18	2985.94
450.39	2824.15
450.59	3006.42
450.79	3059.67
451.00	2867.16
451.20	2994.13
451.41	2865.11
451.61	3074.00
451.81	3002.32
452.02	2742.23
452.22	2785.24
452.43	2910.16
452.63	2885.59
452.84	2842.58
453.04	2805.72
453.24	3057.62
453.45	2836.44
453.65	2873.30
453.86	2813.91
454.06	2983.89
454.26	2994.13
454.47	2799.57
454.67	3086.29
454.87	3143.63
455.08	2983.89
455.28	2936.79
455.49	2979.79
455.69	2883.54
455.89	3340.24
456.10	2998.23
456.30	2861.01
456.51	3151.82
456.71	3041.23
456.91	2901.97
457.12	2850.77
457.32	3057.62
457.52	2799.57
457.73	2928.60
457.93	3059.67
458.14	2897.88
458.34	2736.09
458.54	2873.30
458.75	2791.38
458.95	3123.15
459.15	3053.52
459.36	2858.96
459.56	2832.34
459.76	3370.96
459.97	2953.17
460.17	2807.77
460.37	3059.67
460.58	2994.13
460.78	3082.19
460.99	2830.29
461.19	2887.64
461.39	2840.53
461.60	2947.03
461.80	2897.88
462.00	2734.04
462.21	2983.89
462.41	2854.87
462.61	2621.40
462.82	2658.26
463.02	3055.57
463.22	2983.89
463.43	2883.54
463.63	2832.34
463.83	3213.26
464.04	3045.33
464.24	2789.33
464.44	2801.62
464.64	3018.71
464.85	3190.74
465.05	2854.87
465.25	2809.81
465.46	2934.74
465.66	3117.01
465.86	2922.45
466.07	2869.20
466.27	2969.55
466.47	2754.52
466.68	2688.98
466.88	3024.85
467.08	3125.20
467.29	3166.16
467.49	2910.16
467.69	2965.46
467.89	3110.86
468.10	2973.65
468.30	2949.08
468.50	2992.08
468.71	3110.86
468.91	2785.24
469.11	3090.38
469.31	2922.45
469.52	2934.74
469.72	3276.75
469.92	3102.67
470.13	2856.92
470.33	2983.89
470.53	2979.79
470.73	3200.98
470.94	3551.18
471.14	3706.82
471.34	4108.23
471.54	3895.24
471.75	3600.33
471.95	3485.64
472.15	3313.61
472.36	3403.72
472.56	3200.98
472.76	3393.48
472.96	3323.85
473.17	3049.43
473.37	2924.50
473.57	2975.70
473.77	3104.72
473.98	2922.45
474.18	2701.27
474.38	3545.03
474.58	2895.83
474.79	2748.37
474.99	3000.27
475.19	3262.41
475.39	2893.78
475.60	2893.78
475.80	2826.20
476.00	3071.95
476.20	2926.55
476.41	2930.64
476.61	2994.13
476.81	3317.71
477.01	2785.24
477.21	3198.93
477.42	2959.31
477.62	2850.77
477.82	3076.05
478.02	2762.71
478.23	2967.51
478.43	2797.53
478.63	2889.68
478.83	2871.25
479.03	2881.49
479.24	3186.64
479.44	3334.09
479.64	2818.00
479.84	2656.22
480.04	2826.20
480.25	3137.49
480.45	2772.95
480.65	2738.13
480.85	3186.64
481.06	2899.92
481.26	2963.41
481.46	2871.25
481.66	3074.00
481.86	2877.40
482.06	2928.60
482.27	2844.63
482.47	2842.58
482.67	3067.86
482.87	2947.03
483.07	2936.79
483.28	2801.62
483.48	2820.05
483.68	2885.59
483.88	2797.53
484.08	2568.15
484.29	2838.48
484.49	2873.30
484.69	2707.41
484.89	3272.65
485.09	3139.54
485.29	2850.77
485.50	2926.55
485.70	2887.64
485.90	3254.22
486.10	2983.89
486.30	2770.90
486.50	3139.54
486.71	2973.65
486.91	2951.12
487.11	3039.19
487.31	2809.81
487.51	3059.67
487.71	2811.86
487.91	2828.24
488.12	2838.48
488.32	2590.68
488.52	2852.82
488.72	2613.21
488.92	3153.87
489.12	3172.30
489.32	2932.69
489.53	2830.29
489.73	2783.19
489.93	3241.93
490.13	2861.01
490.33	2709.46
490.53	2934.74
490.73	3227.60
490.94	2715.61
491.14	2934.74
491.34	3096.53
491.54	3114.96
491.74	3737.54
491.94	4257.73
492.14	4519.87
492.34	4716.47
492.54	4306.88
492.75	3760.07
492.95	3870.66
493.15	3700.68
493.35	3524.55
493.55	3502.03
493.75	3325.90
493.95	3491.79
494.15	3133.39
494.35	2895.83
494.56	3000.27
494.76	2863.06
494.96	2983.89
495.16	2787.29
495.36	2990.03
495.56	3098.58
495.76	2924.50
495.96	2852.82
496.16	2908.12
496.36	3313.61
496.56	2883.54
496.77	2893.78
496.97	3030.99
497.17	3250.13
497.37	2607.06
497.57	2932.69
497.77	3055.57
497.97	2912.21
498.17	2875.35
498.37	2775.00
498.57	3114.96
498.77	2848.72
498.97	3012.56
499.17	3141.58
499.38	2879.44
499.58	3094.48
499.78	2967.51
499.98	3002.32
500.18	2906.07
500.38	2865.11
500.58	2998.23
500.78	3448.78
500.98	5517.23
501.18	7464.85
501.38	8892.28
501.58	9916.26
501.78	9600.88
501.98	8167.30
502.18	6813.59
502.38	5900.20
502.58	5775.27
502.78	5105.59
502.98	4890.55
503.18	4634.55
503.38	4431.80
503.59	3831.75
503.79	3618.76
503.99	3338.19
504.19	3444.68
504.39	3483.59
504.59	3323.85
504.79	3262.41
504.99	3549.13
505.19	3143.63
505.39	3061.71
505.59	3155.92
505.79	3336.14
505.99	3145.68
506.19	2910.16
506.39	3114.96
506.59	2863.06
506.79	2863.06
506.99	3020.75
507.19	2770.90
507.39	2979.79
507.59	2793.43
507.79	2838.48
507.99	2748.37
508.19	3020.75
508.39	2879.44
508.59	2983.89
508.79	2979.79
508.99	3356.62
509.19	2861.01
509.39	2940.88
509.59	2805.72
509.79	2947.03
509.99	3010.51
510.19	2908.12
510.39	3051.47
510.59	3035.09
510.79	2879.44
510.99	2699.22
511.19	2834.39
511.39	3262.41
511.59	3117.01
511.79	2992.08
511.99	2815.96
512.19	3303.37
512.38	2944.98
512.58	2734.04
512.78	2801.62
512.98	3162.06
513.18	3252.17
513.38	2775.00
513.58	2910.16
513.78	3030.99
513.98	2996.18
514.18	2852.82
514.38	2834.39
514.58	3071.95
514.78	2861.01
514.98	2754.52
515.18	2848.72
515.38	2752.47
515.58	3346.38
515.78	2863.06
515.98	2852.82
516.18	3071.95
516.38	2955.22
516.57	2785.24
516.77	2795.48
516.97	3117.01
517.17	2824.15
517.37	2623.45
517.57	2901.97
517.77	2985.94
517.97	2740.18
518.17	2922.45
518.37	2756.57
518.57	2846.68
518.77	2879.44
518.97	2887.64
519.16	2912.21
519.36	3094.48
519.56	2897.88
519.76	2799.57
519.96	2916.31
520.16	3268.56
520.36	2785.24
520.56	3055.57
520.76	2758.61
520.96	2922.45
521.16	3192.78
521.35	3047.38
521.55	2981.84
521.75	2998.23
521.95	2908.12
522.15	2822.10
522.35	2734.04
522.55	2809.81
522.75	3170.26
522.95	2775.00
523.14	2793.43
523.34	3078.10
523.54	2904.02
523.74	2928.60
523.94	2893.78
524.14	2770.90
524.34	3000.27
524.54	3043.28
524.73	2854.87
524.93	3133.39
525.13	3012.56
525.33	2748.37
525.53	3049.43
525.73	3157.97
525.93	3012.56
526.13	2805.72
526.32	2793.43
526.52	3256.27
526.72	3051.47
526.92	2916.31
527.12	2789.33
527.32	2752.47
527.52	3035.09
527.71	2826.20
527.91	2787.29
528.11	2938.84
528.31	2969.55
528.51	2760.66
528.71	2992.08
528.90	3086.29
529.10	3186.64
529.30	2926.55
529.50	2641.88
529.70	3043.28
529.90	2904.02
530.09	2830.29
530.29	2781.14
530.49	2756.57
530.69	3530.70
530.89	2938.84
531.09	2904.02
531.28	2912.21
531.48	3147.73
531.68	2869.20
531.88	2801.62
532.08	3198.93
532.28	2904.02
532.47	3033.04
532.67	3026.90
532.87	3006.42
533.07	2889.68
533.27	2961.36
533.46	2916.31
533.66	3098.58
533.86	2928.60
534.06	2869.20
534.26	2928.60
534.45	2863.06
534.65	3198.93
534.85	2983.89
535.05	2783.19
535.25	3053.52
535.44	2785.24
535.64	2895.83
535.84	2834.39
536.04	2985.94
536.24	2877.40
536.43	2785.24
536.63	2865.11
536.83	2973.65
537.03	2959.31
537.22	2705.37
537.42	2621.40
537.62	3035.09
537.82	2877.40
538.02	3067.86
538.21	2922.45
538.41	3524.55
538.61	3090.38
538.81	2889.68
539.00	2981.84
539.20	2801.62
539.40	2992.08
539.60	2904.02
539.79	3057.62
539.99	3088.34
540.19	2820.05
540.39	2918.36
540.58	2938.84
540.78	3182.54
540.98	2983.89
541.18	3082.19
541.37	2928.60
541.57	2975.70
541.77	3049.43
541.97	2740.18
542.16	2717.65
542.36	2854.87
542.56	2848.72
542.76	3096.53
542.95	2971.60
543.15	3026.90
543.35	3098.58
543.54	2826.20
543.74	2791.38
543.94	3227.60
544.14	2820.05
544.33	2918.36
544.53	2795.48
544.73	2977.75
544.93	2856.92
545.12	2822.10
545.32	2856.92
545.52	2963.41
545.71	2750.42
545.91	2908.12
546.11	2770.90
546.30	2781.14
546.50	2926.55
546.70	2977.75
546.90	2951.12
547.09	2766.81
547.29	2944.98
547.49	2983.89
547.68	2869.20
547.88	2830.29
548.08	3094.48
548.27	3229.65
548.47	2852.82
548.67	2891.73
548.87	3033.04
549.06	2875.35
549.26	2805.72
549.46	3123.15
549.65	2856.92
549.85	2940.88
550.05	2818.00
550.24	2750.42
550.44	3108.82
550.64	2895.83
550.83	2793.43
551.03	3186.64
551.23	3151.82
551.42	2953.17
551.62	2897.88
551.82	3000.27
552.01	2922.45
552.21	3155.92
552.41	2879.44
552.60	3178.45
552.80	3086.29
553.00	2854.87
553.19	2899.92
553.39	3291.09
553.59	2813.91
553.78	3000.27
553.98	2820.05
554.17	2729.94
554.37	3030.99
554.57	2942.93
554.76	2713.56
554.96	2854.87
555.16	2944.98
555.35	2930.64
555.55	2996.18
555.75	2979.79
555.94	3088.34
556.14	2594.78
556.33	2908.12
556.53	2944.98
556.73	2904.02
556.92	2938.84
557.12	2826.20
557.32	3301.33
557.51	3196.88
557.71	2891.73
557.90	3057.62
558.10	3233.74
558.30	2936.79
558.49	2832.34
558.69	2918.36
558.88	3086.29
559.08	2965.46
559.28	2887.64
559.47	2820.05
559.67	3106.77
559.86	3334.09
560.06	2807.77
560.26	2893.78
560.45	3123.15
560.65	2947.03
560.84	3100.62
561.04	2811.86
561.24	3055.57
561.43	2711.51
561.63	3114.96
561.82	2979.79
562.02	3106.77
562.22	2879.44
562.41	2815.96
562.61	2842.58
562.80	2758.61
563.00	3344.33
563.19	2856.92
563.39	2983.89
563.59	3004.37
563.78	2742.23
563.98	2635.74
564.17	2824.15
564.37	2705.37
564.56	2926.55
564.76	2799.57
564.96	2969.55
565.15	3084.24
565.35	3362.76
565.54	2834.39
565.74	2779.09
565.93	3100.62
566.13	2983.89
566.32	2897.88
566.52	2977.75
566.71	3012.56
566.91	3153.87
567.11	3059.67
567.30	2723.80
567.50	3059.67
567.69	3090.38
567.89	2858.96
568.08	2779.09
568.28	2975.70
568.47	2799.57
568.67	2957.27
568.86	2805.72
569.06	3110.86
569.25	2863.06
569.45	2672.60
569.64	2832.34
569.84	2912.21
570.04	3024.85
570.23	2863.06
570.43	2924.50
570.62	3006.42
570.82	3284.94
571.01	2752.47
571.21	2731.99
571.40	2850.77
571.60	3108.82
571.79	2916.31
571.99	2834.39
572.18	2883.54
572.38	3078.10
572.57	2867.16
572.77	2932.69
572.96	3473.36
573.16	3010.51
573.35	2879.44
573.55	3022.80
573.74	2994.13
573.94	2906.07
574.13	2852.82
574.33	3026.90
574.52	3133.39
574.71	2949.08
574.91	2977.75
575.10	2684.89
575.30	2912.21
575.49	2895.83
575.69	2766.81
575.88	2807.77
576.08	2983.89
576.27	3106.77
576.47	2809.81
576.66	3039.19
576.86	3256.27
577.05	3098.58
577.25	2963.41
577.44	3059.67
577.64	2916.31
577.83	3059.67
578.02	2781.14
578.22	3047.38
578.41	3305.42
578.61	2832.34
578.80	2686.94
579.00	2942.93
579.19	3033.04
579.39	3014.61
579.58	2996.18
579.77	2953.17
579.97	3327.95
580.16	3188.69
580.36	3028.95
580.55	2967.51
580.75	3053.52
580.94	3041.23
581.13	3053.52
581.33	3086.29
581.52	3000.27
581.72	3340.24
581.91	3053.52
582.11	2959.31
582.30	3168.21
582.49	2951.12
582.69	3137.49
582.88	2918.36
583.08	2969.55
583.27	3205.07
583.47	2985.94
583.66	2813.91
583.85	2873.30
584.05	3016.66
584.24	3006.42
584.44	2910.16
584.63	3200.98
584.82	3172.30
585.02	3053.52
585.21	2934.74
585.41	3090.38
585.60	3102.67
585.79	3119.06
585.99	3164.11
586.18	3106.77
586.37	3930.05
586.57	5812.14
586.76	16656.13
586.96	36128.22
587.15	49335.57
587.34	57390.23
587.54	62022.73
587.73	55270.58
587.93	39208.36
588.12	29785.66
588.31	24364.68
588.51	21565.11
588.70	19699.41
588.89	17389.30
589.09	14794.53
589.28	12687.17
589.47	9930.60
589.67	7673.74
589.86	5932.97
590.06	4736.95
590.25	4171.71
590.44	3573.71
590.64	3262.41
590.83	3192.78
591.02	3246.03
591.22	2893.78
591.41	2920.40
591.60	2969.55
591.80	3409.87
591.99	2766.81
592.18	2840.53
592.38	3076.05
592.57	2938.84
592.76	2854.87
592.96	2994.13
593.15	2951.12
593.34	3174.35
593.54	2875.35
593.73	2963.41
593.92	3022.80
594.12	3051.47
594.31	2951.12
594.50	3110.86
594.70	3139.54
594.89	3532.75
595.08	2775.00
595.28	2932.69
595.47	3555.27
595.66	3121.10
595.86	2772.95
596.05	2781.14
596.24	2951.12
596.43	3330.00
596.63	2969.55
596.82	2944.98
597.01	3047.38
597.21	3286.99
597.40	2852.82
597.59	2973.65
597.79	3018.71
597.98	3104.72
598.17	3026.90
598.36	2881.49
598.56	3112.91
598.75	2885.59
598.94	2949.08
599.14	2922.45
599.33	2899.92
599.52	3155.92
599.71	2916.31
599.91	2901.97
600.10	3129.30
600.29	3002.32
600.48	3049.43
600.68	2990.03
600.87	3141.58
601.06	2985.94
601.26	2994.13
601.45	2951.12
601.64	2944.98
601.83	3286.99
602.03	2727.89
602.22	2791.38
602.41	3164.11
602.60	3434.44
602.80	2975.70
602.99	2973.65
603.18	2865.11
603.37	3020.75
603.57	2793.43
603.76	2875.35
603.95	3119.06
604.14	2869.20
604.34	2797.53
604.53	2734.04
604.72	3043.28
604.91	3059.67
605.10	2881.49
605.30	2650.07
605.49	3356.62
605.68	3076.05
605.87	2967.51
606.07	2797.53
606.26	2947.03
606.45	3082.19
606.64	2924.50
606.84	2777.05
607.03	2981.84
607.22	3057.62
607.41	2891.73
607.60	2842.58
607.80	3106.77
607.99	2983.89
608.18	2887.64
608.37	2901.97
608.56	2973.65
608.76	3229.65
608.95	2983.89
609.14	2869.20
609.33	3123.15
609.52	3262.41
609.72	2895.83
609.91	3008.47
610.10	3063.76
610.29	3229.65
610.48	2983.89
610.68	2998.23
610.87	3059.67
611.06	3069.91
611.25	2887.64
611.44	2994.13
611.63	2901.97
611.83	3203.02
612.02	2693.08
612.21	3008.47
612.40	2643.93
612.59	2824.15
612.79	2846.68
612.98	2881.49
613.17	3274.70
613.36	3039.19
613.55	2951.12
613.74	2858.96
613.93	3043.28
614.13	3114.96
614.32	3016.66
614.51	3022.80
614.70	2990.03
614.89	2953.17
615.08	2922.45
615.28	3309.52
615.47	2805.72
615.66	3047.38
615.85	2981.84
616.04	2992.08
616.23	3002.32
616.42	2971.60
616.62	2879.44
616.81	2883.54
617.00	2940.88
617.19	3114.96
617.38	2834.39
617.57	2942.93
617.76	3090.38
617.95	3098.58
618.15	2996.18
618.34	3078.10
618.53	2715.61
618.72	3172.30
618.91	3030.99
619.10	2932.69
619.29	2973.65
619.48	3037.14
619.68	2750.42
619.87	2881.49
620.06	2762.71
620.25	3065.81
620.44	2908.12
620.63	2811.86
620.82	3020.75
621.01	3006.42
621.20	2844.63
621.39	2940.88
621.59	3100.62
621.78	2971.60
621.97	2844.63
622.16	2987.99
622.35	2969.55
622.54	3076.05
622.73	2936.79
622.92	2637.78
623.11	3133.39
623.30	2877.40
623.49	3035.09
623.68	2781.14
623.88	3160.02
624.07	2906.07
624.26	2820.05
624.45	2877.40
624.64	2969.55
624.83	3039.19
625.02	2793.43
625.21	2901.97
625.40	2944.98
625.59	3262.41
625.78	2926.55
625.97	3039.19
626.16	3098.58
626.35	3020.75
626.54	2871.25
626.74	3014.61
626.93	2916.31
627.12	2975.70
627.31	2893.78
627.50	2906.07
627.69	3078.10
627.88	2822.10
628.07	2783.19
628.26	2727.89
628.45	2916.31
628.64	2820.05
628.83	2875.35
629.02	2707.41
629.21	3166.16
629.40	3069.91
629.59	2809.81
629.78	2744.28
629.97	3002.32
630.16	2942.93
630.35	2738.13
630.54	2924.50
630.73	2910.16
630.92	2959.31
631.11	2787.29
631.30	2867.16
631.49	3229.65
631.68	2949.08
631.87	2895.83
632.06	2766.81
632.25	3413.96
632.44	3037.14
632.63	2998.23
632.82	2916.31
633.01	2938.84
633.20	3045.33
633.39	2803.67
633.58	2719.70
633.77	3041.23
633.96	3125.20
634.15	2897.88
634.34	2961.36
634.53	2975.70
634.72	2887.64
634.91	2742.23
635.10	2852.82
635.29	3022.80
635.48	2975.70
635.67	2740.18
635.86	2801.62
636.05	3203.02
636.24	3026.90
636.43	2906.07
636.62	2922.45
636.81	2627.54
637.00	3014.61
637.19	2936.79
637.38	2889.68
637.57	2967.51
637.76	3012.56
637.95	2969.55
638.14	2836.44
638.33	3092.43
638.52	2990.03
638.71	2666.46
638.89	2750.42
639.08	3483.59
639.27	3131.34
639.46	3049.43
639.65	3340.24
639.84	3440.59
640.03	3598.28
640.22	3194.83
640.41	3239.89
640.60	3055.57
640.79	3162.06
640.98	2994.13
641.17	3037.14
641.36	3125.20
641.55	3100.62
641.74	2748.37
641.92	2777.05
642.11	2815.96
642.30	2918.36
642.49	2811.86
642.68	2793.43
642.87	2981.84
643.06	3119.06
643.25	2707.41
643.44	2770.90
643.63	2912.21
643.82	3217.36
644.00	2744.28
644.19	2887.64
644.38	2856.92
644.57	3092.43
644.76	2873.30
644.95	2873.30
645.14	3000.27
645.33	2994.13
645.52	2936.79
645.71	2645.98
645.89	2818.00
646.08	2953.17
646.27	2904.02
646.46	3016.66
646.65	2801.62
646.84	3035.09
647.03	2785.24
647.22	3033.04
647.40	3006.42
647.59	2861.01
647.78	2674.65
647.97	2752.47
648.16	2830.29
648.35	3237.84
648.54	3065.81
648.73	2887.64
648.91	3098.58
649.10	2918.36
649.29	2832.34
649.48	2832.34
649.67	2961.36
649.86	2985.94
650.05	2781.14
650.23	2897.88
650.42	2942.93
650.61	3155.92
650.80	3016.66
650.99	3188.69
651.18	3209.17
651.36	3194.83
651.55	2830.29
651.74	3039.19
651.93	2992.08
652.12	2977.75
652.31	2920.40
652.49	2863.06
652.68	2908.12
652.87	3231.69
653.06	2877.40
653.25	3166.16
653.44	2936.79
653.62	3246.03
653.81	2916.31
654.00	2797.53
654.19	3092.43
654.38	3438.54
654.56	2934.74
654.75	2848.72
654.94	3143.63
655.13	3071.95
655.32	2883.54
655.51	2889.68
655.69	2889.68
655.88	3168.21
656.07	2717.65
656.26	2906.07
656.45	2787.29
656.63	2951.12
656.82	2805.72
657.01	3147.73
657.20	2924.50
657.38	3164.11
657.57	2775.00
657.76	2660.31
657.95	3043.28
658.14	2914.26
658.32	2906.07
658.51	2672.60
658.70	2983.89
658.89	3012.56
659.08	2920.40
659.26	3088.34
659.45	2809.81
659.64	3045.33
659.83	2828.24
660.01	3209.17
660.20	2983.89
660.39	3336.14
660.58	2611.16
660.76	2965.46
660.95	2758.61
661.14	2916.31
661.33	2731.99
661.51	2873.30
661.70	2869.20
661.89	3055.57
662.08	2932.69
662.26	2707.41
662.45	2791.38
662.64	3317.71
662.83	2938.84
663.01	2744.28
663.20	2906.07
663.39	3200.98
663.58	2789.33
663.76	2834.39
663.95	3037.14
664.14	2865.11
664.32	2834.39
664.51	2762.71
664.70	2721.75
664.89	3108.82
665.07	2691.03
665.26	2992.08
665.45	2760.66
665.64	3043.28
665.82	2738.13
666.01	2942.93
666.20	2830.29
666.38	3098.58
666.57	3172.30
666.76	4935.60
666.95	11130.71
667.13	17710.83
667.32	21679.80
667.51	24497.80
667.69	25378.43
667.88	21479.10
668.07	15542.03
668.25	13143.86
668.44	11179.86
668.63	9815.91
668.81	8728.44
669.00	7540.62
669.19	6856.60
669.38	5943.21
669.56	5056.43
669.75	4427.71
669.94	3944.39
670.12	3499.98
670.31	3168.21
670.50	3106.77
670.68	3110.86
670.87	3008.47
671.06	2883.54
671.24	2979.79
671.43	3190.74
671.62	2959.31
671.80	2844.63
671.99	3037.14
672.18	2947.03
672.36	3192.78
672.55	2965.46
672.74	2893.78
672.92	2938.84
673.11	3112.91
673.29	2772.95
673.48	3028.95
673.67	2842.58
673.85	3164.11
674.04	2777.05
674.23	2992.08
674.41	3368.91
674.60	2756.57
674.79	2633.69
674.97	2707.41
675.16	3063.76
675.34	3086.29
675.53	2891.73
675.72	2957.27
675.90	3348.43
676.09	2865.11
676.28	2938.84
676.46	2713.56
676.65	3108.82
676.83	2789.33
677.02	2914.26
677.21	2965.46
677.39	3022.80
677.58	2805.72
677.77	2809.81
677.95	2807.77
678.14	2990.03
678.32	2930.64
678.51	2795.48
678.70	3221.45
678.88	2879.44
679.07	2981.84
679.25	2889.68
679.44	2899.92
679.63	2854.87
679.81	3028.95
680.00	3059.67
680.18	2977.75
680.37	3215.31
680.55	2992.08
680.74	2734.04
680.93	2586.58
681.11	3119.06
681.30	3014.61
681.48	2881.49
681.67	2891.73
681.85	3037.14
682.04	2863.06
682.23	3069.91
682.41	3035.09
682.60	2850.77
682.78	2973.65
682.97	2686.94
683.15	2926.55
683.34	3024.85
683.53	3211.22
683.71	2684.89
683.90	2994.13
684.08	3219.41
684.27	2959.31
684.45	2920.40
684.64	3061.71
684.82	2998.23
685.01	3123.15
685.19	2916.31
685.38	3104.72
685.57	2918.36
685.75	2836.44
685.94	2863.06
686.12	2865.11
686.31	2979.79
686.49	3231.69
686.68	2654.17
686.86	2836.44
687.05	2881.49
687.23	3180.50
687.42	2863.06
687.60	2715.61
687.79	3112.91
687.97	3217.36
688.16	3071.95
688.34	2949.08
688.53	2697.17
688.71	3016.66
688.90	3157.97
689.08	2836.44
689.27	2656.22
689.45	3149.78
689.64	3047.38
689.82	2848.72
690.01	3061.71
690.19	3014.61
690.38	2912.21
690.56	3026.90
690.75	2844.63
690.93	2906.07
691.12	2803.67
691.30	2981.84
691.49	2887.64
691.67	2959.31
691.86	3170.26
692.04	2842.58
692.23	2983.89
692.41	2969.55
692.60	3162.06
692.78	3059.67
692.97	3030.99
693.15	3028.95
693.34	3026.90
693.52	3061.71
693.71	2891.73
693.89	2951.12
694.08	2660.31
694.26	2951.12
694.44	3037.14
694.63	3061.71
694.81	2807.77
695.00	2852.82
695.18	3272.65
695.37	3391.44
695.55	2967.51
695.74	2875.35
695.92	2856.92
696.10	3231.69
696.29	2727.89
696.47	2813.91
696.66	2822.10
696.84	2838.48
697.03	2881.49
697.21	3131.34
697.40	4446.14
697.58	3188.69
697.76	2842.58
697.95	2793.43
698.13	2861.01
698.32	2953.17
698.50	2920.40
698.68	2869.20
698.87	2973.65
699.05	3241.93
699.24	2887.64
699.42	2721.75
699.61	3119.06
699.79	3000.27
699.97	2877.40
700.16	2719.70
700.34	2738.13
700.53	3071.95
700.71	3063.76
700.89	2942.93
701.08	2924.50
701.26	2983.89
701.45	3258.32
701.63	2830.29
701.81	2815.96
702.00	2842.58
702.18	2953.17
702.37	2846.68
702.55	3180.50
702.73	3043.28
702.92	2869.20
703.10	3157.97
703.28	3139.54
703.47	2828.24
703.65	3074.00
703.84	2932.69
704.02	2891.73
704.20	3381.20
704.39	2762.71
704.57	2942.93
704.75	3049.43
704.94	3041.23
705.12	3039.19
705.30	3581.90
705.49	6741.91
705.67	12988.22
705.86	18417.38
706.04	20825.79
706.22	23189.15
706.41	22376.11
706.59	17145.59
706.77	13365.04
706.96	11775.82
707.14	10563.42
707.32	9115.51
707.51	7960.45
707.69	6528.92
707.87	5494.70
708.06	4536.25
708.24	3989.44
708.42	3528.65
708.61	3801.03
708.79	2875.35
708.97	3004.37
709.16	3084.24
709.34	3006.42
709.52	2877.40
709.71	2834.39
709.89	3104.72
710.07	2852.82
710.26	2838.48
710.44	2916.31
710.62	3143.63
710.80	3008.47
710.99	2998.23
711.17	3041.23
711.35	2944.98
711.54	2871.25
711.72	3055.57
711.90	3008.47
712.09	2998.23
712.27	2969.55
712.45	2957.27
712.63	2885.59
712.82	3035.09
713.00	2975.70
713.18	3043.28
713.37	3080.14
713.55	3160.02
713.73	3100.62
713.91	2910.16
714.10	2906.07
714.28	2987.99
714.46	3055.57
714.65	2881.49
714.83	2981.84
715.01	2932.69
715.19	3016.66
715.38	2809.81
715.56	3028.95
715.74	2826.20
715.92	2856.92
716.11	3133.39
716.29	2672.60
716.47	2930.64
716.65	2918.36
716.84	2756.57
717.02	2934.74
717.20	2615.26
717.38	2832.34
717.57	2981.84
717.75	2951.12
717.93	2895.83
718.11	3069.91
718.30	2721.75
718.48	2994.13
718.66	3237.84
718.84	3151.82
719.03	2916.31
719.21	2711.51
719.39	3248.08
719.57	3100.62
719.75	2912.21
719.94	2813.91
720.12	2910.16
720.30	3026.90
720.48	3028.95
720.67	2807.77
720.85	2742.23
721.03	2910.16
721.21	2834.39
721.39	2930.64
721.58	3022.80
721.76	2932.69
721.94	2914.26
722.12	2981.84
722.30	3186.64
722.49	2928.60
722.67	2881.49
722.85	2869.20
723.03	2729.94
723.21	2887.64
723.40	2865.11
723.58	3049.43
723.76	3069.91
723.94	3119.06
724.12	2983.89
724.30	3094.48
724.49	3143.63
724.67	2832.34
724.85	3028.95
725.03	2742.23
725.21	3102.67
725.40	3262.41
725.58	2908.12
725.76	3043.28
725.94	3080.14
726.12	2807.77
726.30	2926.55
726.49	2828.24
726.67	2959.31
726.85	3096.53
727.03	3514.31
727.21	4347.84
727.39	5668.78
727.57	5900.20
727.76	6293.41
727.94	6412.19
728.12	5652.39
728.30	4794.29
728.48	4382.65
728.66	4132.80
728.84	3952.58
729.03	3585.99
729.21	3289.04
729.39	3174.35
729.57	3039.19
729.75	3084.24
729.93	2926.55
730.11	2772.95
730.30	2922.45
730.48	2967.51
730.66	2944.98
730.84	3053.52
731.02	3012.56
731.20	2840.53
731.38	2865.11
731.56	2754.52
731.74	2750.42
731.93	2992.08
732.11	2889.68
732.29	2858.96
732.47	3078.10
732.65	3065.81
732.83	3010.51
733.01	2938.84
733.19	2832.34
733.37	3080.14
733.56	2951.12
733.74	2719.70
733.92	3164.11
734.10	2953.17
734.28	3014.61
734.46	2680.79
734.64	2916.31
734.82	2912.21
735.00	2795.48
735.18	2858.96
735.36	2922.45
735.54	2951.12
735.73	2815.96
735.91	3030.99
736.09	3225.55
736.27	2930.64
736.45	2961.36
736.63	2617.30
736.81	2912.21
736.99	3088.34
737.17	3045.33
737.35	2822.10
737.53	2897.88
737.71	2840.53
737.89	3065.81
738.07	2904.02
738.25	2762.71
738.43	2711.51
738.61	2803.67
738.80	2727.89
738.98	2801.62
739.16	2957.27
739.34	2793.43
739.52	3157.97
739.70	3000.27
739.88	3053.52
740.06	3049.43
740.24	2703.32
740.42	3188.69
740.60	2625.50
740.78	2865.11
740.96	2648.02
741.14	2979.79
741.32	2965.46
741.50	2758.61
741.68	3172.30
741.86	3213.26
742.04	2830.29
742.22	2738.13
742.40	2938.84
742.58	3065.81
742.76	2838.48
742.94	3076.05
743.12	2678.74
743.30	2975.70
743.48	3139.54
743.66	2791.38
743.84	2813.91
744.02	2969.55
744.20	2969.55
744.38	2703.32
744.56	2725.85
744.74	3282.89
744.92	3061.71
745.10	3063.76
745.28	2967.51
745.46	3299.28
745.64	2951.12
745.82	3022.80
746.00	2861.01
746.18	3096.53
746.36	2727.89
746.54	2885.59
746.72	2865.11
746.90	2813.91
747.08	3086.29
747.26	2883.54
747.44	3033.04
747.62	3086.29
747.80	3092.43
747.98	3000.27
748.15	2846.68
748.33	3368.91
748.51	2961.36
748.69	2947.03
748.87	2738.13
749.05	2928.60
749.23	2922.45
749.41	2922.45
749.59	2836.44
749.77	3166.16
749.95	2947.03
750.13	2801.62
750.31	3012.56
750.49	2957.27
750.67	3096.53
750.85	3014.61
751.03	2830.29
751.20	3280.85
751.38	2965.46
751.56	2838.48
751.74	2885.59
751.92	2930.64
752.10	2793.43
752.28	3016.66
752.46	2758.61
752.64	2949.08
752.82	2922.45
753.00	3008.47
753.18	2793.43
753.35	2961.36
753.53	2906.07
753.71	2756.57
753.89	2985.94
754.07	3026.90
754.25	3155.92
754.43	2971.60
754.61	2781.14
754.79	3045.33
754.97	2942.93
755.14	3069.91
755.32	2877.40
755.50	2938.84
755.68	3020.75
755.86	2848.72
756.04	2820.05
756.22	2742.23
756.40	3133.39
756.57	3088.34
756.75	2861.01
756.93	3151.82
757.11	3119.06
757.29	2772.95
757.47	2736.09
757.65	2791.38
757.82	2600.92
758.00	2793.43
758.18	2781.14
758.36	2779.09
758.54	3262.41
758.72	2725.85
758.90	3024.85
759.07	3106.77
759.25	2805.72
759.43	2996.18
759.61	2699.22
759.79	4147.14
759.97	3196.88
760.15	2830.29
760.32	2932.69
760.50	3055.57
760.68	3274.70
760.86	2775.00
761.04	3059.67
761.22	3100.62
761.39	2930.64
761.57	2924.50
761.75	2865.11
761.93	3053.52
762.11	2930.64
762.28	2951.12
762.46	2746.33
762.64	3129.30
762.82	2852.82
763.00	2818.00
763.18	3045.33
763.35	2850.77
763.53	3030.99
763.71	2912.21
763.89	2822.10
764.07	3053.52
764.24	3033.04
764.42	3030.99
764.60	2863.06
764.78	2955.22
764.96	3047.38
765.13	3057.62
765.31	2762.71
765.49	3041.23
765.67	2785.24
765.84	2863.06
766.02	2875.35
766.20	2828.24
766.38	3037.14
766.56	2963.41
766.73	3002.32
766.91	2926.55
767.09	2949.08
767.27	2979.79
767.44	2766.81
767.62	3114.96
767.80	3055.57
767.98	2842.58
768.15	2867.16
768.33	3155.92
768.51	3051.47
768.69	2996.18
768.87	2934.74
769.04	3016.66
769.22	3391.44
769.40	2981.84
769.58	3006.42
769.75	3043.28
769.93	3235.79
770.11	2861.01
770.28	2824.15
770.46	3108.82
770.64	3071.95
770.82	2811.86
770.99	2877.40
771.17	3076.05
771.35	2975.70
771.53	2969.55
771.70	2858.96
771.88	3047.38
772.06	2971.60
772.23	2772.95
772.41	2959.31
772.59	2981.84
772.77	2879.44
772.94	2906.07
773.12	2934.74
773.30	2906.07
773.47	2977.75
773.65	2811.86
773.83	3037.14
774.01	2942.93
774.18	2736.09
774.36	2936.79
774.54	2742.23
774.71	3014.61
774.89	2729.94
775.07	2789.33
775.24	2805.72
775.42	2887.64
775.60	3286.99
775.78	2824.15
775.95	2707.41
776.13	2666.46
776.31	2701.27
776.48	2985.94
776.66	3157.97
776.84	2916.31
777.01	2822.10
777.19	2785.24
777.37	2783.19
777.54	3063.76
777.72	3286.99
777.90	2965.46
778.07	2795.48
778.25	3497.93
778.43	3149.78
778.60	2809.81
778.78	2918.36
778.96	3209.17
779.13	2787.29
779.31	2932.69
779.49	2947.03
779.66	2953.17
779.84	2891.73
780.01	2867.16
780.19	2779.09
780.37	3188.69
780.54	3098.58
780.72	2799.57
780.90	2799.57
781.07	2936.79
781.25	2944.98
781.43	3004.37
781.60	2828.24
781.78	3235.79
781.95	2955.22
782.13	2826.20
782.31	2881.49
782.48	2652.12
782.66	2938.84
782.83	3172.30
783.01	2928.60
783.19	3147.73
783.36	2932.69
783.54	2791.38
783.72	2949.08
783.89	2932.69
784.07	2949.08
784.24	2938.84
784.42	3045.33
784.60	3022.80
784.77	3000.27
784.95	2629.59
785.12	2908.12
785.30	3039.19
785.47	2775.00
785.65	2836.44
785.83	2895.83
786.00	2883.54
786.18	2940.88
786.35	2707.41
786.53	2768.85
786.71	3157.97
786.88	3123.15
787.06	2912.21
787.23	2848.72
787.41	2795.48
787.58	2916.31
787.76	2811.86
787.94	2852.82
788.11	3078.10
788.29	2754.52
788.46	2846.68
788.64	2682.84
788.81	2928.60
788.99	2781.14
789.16	2875.35
789.34	2924.50
789.52	2871.25
789.69	2901.97
789.87	2697.17
790.04	2793.43
790.22	2977.75
790.39	3358.67
790.57	2756.57
790.74	2799.57
790.92	3231.69
791.09	2762.71
791.27	2893.78
791.44	2992.08
791.62	2922.45
791.79	3121.10
791.97	2867.16
792.15	3123.15
792.32	3039.19
792.50	3074.00
792.67	3049.43
792.85	3123.15
793.02	3008.47
793.20	2895.83
793.37	2682.84
793.55	2838.48
793.72	2754.52
793.90	3049.43
794.07	2861.01
794.25	2805.72
794.42	2987.99
794.60	2899.92
794.77	2963.41
794.95	3014.61
795.12	3133.39
795.30	2992.08
795.47	2686.94
795.65	3235.79
795.82	3069.91
796.00	2852.82
796.17	2949.08
796.34	2766.81
796.52	2971.60
796.69	3106.77
796.87	2887.64
797.04	2926.55
797.22	3141.58
797.39	3065.81
797.57	3014.61
797.74	2981.84
797.92	2969.55
798.09	2861.01
798.27	3100.62
798.44	2797.53
798.62	2840.53
798.79	3006.42
798.96	3016.66
799.14	2901.97
799.31	3467.21
799.49	2955.22
799.66	2895.83
799.84	2961.36
800.01	2723.80
800.19	2944.98
800.36	2637.78
800.53	2850.77
800.71	3143.63
800.88	3270.61
801.06	2762.71
801.23	2818.00
801.41	2975.70
801.58	2877.40
801.75	2885.59
801.93	2893.78
802.10	3051.47
802.28	2996.18
802.45	2863.06
802.63	2947.03
802.80	3239.89
802.97	2871.25
803.15	2889.68
803.32	2908.12
803.50	2897.88
803.67	2875.35
803.84	2717.65
804.02	2858.96
804.19	2940.88
804.37	2607.06
804.54	2637.78
804.71	2723.80
804.89	2955.22
805.06	2811.86
805.24	2643.93
805.41	2705.37
805.58	2772.95
805.76	3368.91
805.93	2928.60
806.10	3041.23
806.28	3039.19
806.45	3080.14
806.63	3000.27
806.80	2985.94
806.97	3033.04
807.15	3074.00
807.32	2971.60
807.49	2832.34
807.67	2787.29
807.84	2998.23
808.01	2664.41
808.19	3071.95
808.36	3256.27
808.54	2953.17
808.71	2750.42
808.88	2838.48
809.06	3203.02
809.23	3268.56
809.40	2881.49
809.58	2885.59
809.75	2965.46
809.92	2805.72
810.10	3051.47
810.27	2891.73
810.44	3020.75
810.62	3117.01
810.79	2908.12
810.96	2721.75
811.14	2985.94
811.31	3039.19
811.48	3012.56
811.66	2865.11
811.83	3088.34
812.00	3088.34
812.18	2901.97
812.35	3133.39
812.52	2901.97
812.69	2824.15
812.87	2760.66
813.04	2781.14
813.21	3018.71
813.39	2809.81
813.56	2793.43
813.73	3071.95
813.91	2676.70
814.08	3014.61
814.25	2963.41
814.42	2787.29
814.60	2934.74
814.77	3045.33
814.94	2803.67
815.12	2949.08
815.29	3291.09
815.46	2865.11
815.63	2887.64
815.81	2871.25
815.98	2889.68
816.15	2934.74
816.33	2885.59
816.50	2826.20
816.67	3014.61
816.84	2967.51
817.02	2791.38
817.19	2807.77
817.36	2969.55
817.53	3078.10
817.71	2758.61
817.88	2926.55
818.05	2858.96
818.22	2981.84
818.40	3004.37
818.57	2836.44
818.74	3033.04
818.91	2914.26
819.09	3049.43
819.26	2914.26
819.43	2785.24
819.60	2904.02
819.78	3049.43
819.95	2942.93
820.12	2779.09
820.29	3264.46
820.47	3137.49
820.64	2795.48
820.81	2713.56
820.98	2852.82
821.15	2832.34
821.33	3033.04
821.50	2721.75
821.67	3047.38
821.84	2910.16
822.02	2901.97
822.19	3121.10
822.36	2877.40
822.53	2924.50
822.70	2820.05
822.88	2877.40
823.05	3147.73
823.22	2908.12
823.39	2883.54
823.56	2973.65
823.74	3358.67
823.91	2699.22
824.08	2729.94
824.25	2752.47
824.42	3250.13
824.60	2682.84
824.77	2955.22
824.94	2930.64
825.11	3102.67
825.28	2777.05
825.45	2963.41
825.63	2918.36
825.80	2869.20
825.97	2961.36
826.14	2887.64
826.31	2727.89
826.48	3047.38
826.66	2871.25
826.83	2871.25
827.00	2971.60
827.17	2830.29
827.34	2807.77
827.51	2869.20
827.69	2973.65
827.86	2797.53
828.03	2899.92
828.20	2936.79
828.37	2877.40
828.54	3106.77
828.71	2824.15
828.89	2955.22
829.06	2918.36
829.23	3270.61
829.40	2762.71
829.57	2789.33
829.74	3069.91
829.91	2901.97
830.09	2828.24
830.26	2865.11
830.43	3196.88
830.60	2949.08
830.77	2955.22
830.94	3069.91
831.11	3063.76
831.28	2918.36
831.46	3078.10
831.63	2756.57
831.80	3198.93
831.97	2766.81
832.14	2852.82
832.31	2904.02
832.48	3039.19
832.65	3102.67
832.82	2971.60
832.99	2924.50
833.17	2740.18
833.34	3258.32
833.51	2889.68
833.68	2605.02
833.85	3119.06
834.02	2795.48
834.19	2785.24
834.36	2813.91
834.53	3037.14
834.70	3123.15
834.87	2838.48
835.04	2668.50
835.22	2789.33
835.39	2916.31
835.56	2729.94
835.73	2695.13
835.90	3166.16
836.07	2867.16
836.24	2885.59
836.41	2703.32
836.58	2854.87
836.75	3076.05
836.92	2775.00
837.09	2672.60
837.26	3088.34
837.43	3078.10
837.60	2772.95
837.77	2811.86
837.94	3127.25
838.12	3215.31
838.29	2684.89
838.46	2619.35
838.63	2781.14
838.80	3248.08
838.97	2742.23
839.14	2674.65
839.31	2963.41
839.48	2994.13
839.65	2772.95
839.82	2799.57
839.99	2910.16
840.16	2987.99
840.33	2723.80
840.50	2729.94
840.67	2844.63
840.84	2658.26
841.01	2754.52
841.18	2705.37
841.35	2979.79
841.52	3045.33
841.69	3080.14
841.86	2809.81
842.03	2947.03
842.20	3188.69
842.37	2736.09
842.54	2783.19
842.71	2928.60
842.88	2686.94
843.05	2791.38
843.22	2701.27
843.39	3082.19
843.56	2762.71
843.73	2713.56
843.90	2781.14
844.07	3057.62
844.24	3084.24
844.41	2838.48
844.58	2748.37
844.75	2930.64
844.92	3100.62
845.09	2762.71
845.26	2742.23
845.43	3123.15
845.60	2914.26
845.77	2844.63
845.94	2834.39
846.10	3143.63
846.27	2717.65
846.44	2650.07
846.61	2627.54
846.78	3024.85
846.95	3127.25
847.12	2752.47
847.29	2748.37
847.46	2820.05
847.63	3135.44
847.80	2678.74
847.97	2721.75
848.14	3358.67
848.31	2987.99
848.48	2652.12
848.65	2770.90
848.82	2842.58
848.98	3397.58
849.15	2818.00
849.32	2748.37
849.49	3078.10
849.66	3016.66
849.83	2744.28
850.00	2592.73
850.17	3102.67
850.34	2852.82
850.51	2660.31
850.68	2772.95
850.85	3299.28
851.01	3016.66
851.18	2697.17
851.35	2797.53
851.52	3053.52
851.69	3186.64
851.86	2697.17
852.03	2686.94
852.20	3104.72
852.37	2994.13
852.53	2584.54
852.70	2660.31
852.87	2983.89
853.04	3043.28
853.21	2760.66
853.38	2998.23
853.55	3145.68
853.72	3174.35
853.89	2672.60
854.05	2705.37
854.22	2953.17
854.39	2867.16
854.56	2736.09
854.73	2969.55
854.90	2854.87
855.07	2994.13
855.23	2742.23
855.40	2693.08
855.57	2901.97
855.74	2668.50
855.91	2936.79
856.08	2559.96
856.25	2715.61
856.41	2834.39
856.58	2752.47
856.75	2707.41
856.92	2736.09
857.09	3108.82
857.26	2590.68
857.42	2772.95
857.59	3080.14
857.76	2942.93
857.93	2738.13
858.10	2848.72
858.27	2832.34
858.43	2953.17
858.60	2721.75
858.77	2516.95
858.94	2883.54
859.11	3164.11
859.27	2779.09
859.44	2641.88
859.61	3403.72
859.78	3014.61
859.95	2719.70
860.12	2641.88
860.28	3397.58
860.45	3311.57
860.62	2652.12
860.79	2854.87
860.95	2838.48
861.12	2830.29
861.29	2656.22
861.46	2731.99
861.63	2977.75
861.79	2985.94
861.96	2613.21
862.13	2744.28
862.30	3217.36
862.47	2881.49
862.63	2584.54
862.80	2797.53
862.97	3090.38
863.14	3094.48
863.30	2766.81
863.47	2639.83
863.64	3266.51
863.81	3016.66
863.97	2633.69
864.14	2785.24
864.31	2963.41
864.48	2975.70
864.65	2717.65
864.81	2840.53
864.98	3084.24
865.15	3090.38
865.32	2758.61
865.48	2805.72
865.65	3262.41
865.82	2809.81
865.98	2793.43
866.15	2809.81
866.32	2942.93
866.49	2926.55
866.65	2863.06
866.82	2721.75
866.99	2936.79
867.16	2842.58
867.32	2695.13
867.49	2668.50
867.66	2891.73
867.83	2850.77
867.99	2652.12
868.16	2768.85
868.33	2760.66
868.49	3033.04
868.66	2672.60
868.83	2791.38
868.99	2998.23
869.16	3033.04
869.33	2856.92
869.50	2840.53
869.66	2912.21
869.83	2926.55
870.00	2658.26
870.16	2867.16
870.33	2959.31
870.50	3004.37
870.66	2818.00
870.83	2781.14
871.00	2949.08
871.17	3055.57
871.33	2818.00
871.50	2750.42
871.67	2922.45
871.83	2908.12
872.00	2820.05
872.17	2744.28
872.33	3219.41
872.50	3188.69
872.67	2727.89
872.83	2650.07
873.00	3000.27
873.17	2967.51
873.33	2852.82
873.50	2852.82
873.67	2752.47
873.83	2852.82
874.00	2729.94
874.16	2889.68
874.33	2949.08
874.50	2797.53
874.66	2746.33
874.83	2895.83
875.00	3153.87
875.16	3094.48
875.33	2840.53
875.50	2586.58
875.66	2809.81
875.83	2944.98
875.99	2850.77
876.16	2797.53
876.33	2875.35
876.49	2918.36
876.66	2748.37
876.83	2828.24
876.99	2721.75
877.16	2942.93
877.32	2725.85
877.49	2820.05
877.66	2961.36
877.82	3248.08
877.99	2815.96
878.15	2912.21
878.32	3033.04
878.49	2981.84
878.65	2811.86
878.82	2942.93
878.98	2861.01
879.15	3061.71
879.32	2871.25
879.48	2854.87
879.65	2865.11
879.81	2852.82
879.98	2748.37
880.15	2840.53
880.31	3100.62
880.48	2865.11
880.64	2840.53
880.81	2895.83
880.97	3297.23
881.14	3178.45
881.31	2676.70
881.47	2885.59
881.64	2961.36
881.80	2703.32
881.97	2887.64
882.13	2801.62
882.30	2713.56
882.47	2762.71
882.63	2727.89
882.80	2627.54
882.96	2820.05
883.13	3243.98
883.29	2764.76
883.46	2729.94
883.62	3354.57
883.79	2934.74
883.95	2840.53
884.12	2705.37
884.29	3164.11
884.45	3016.66
884.62	2809.81
884.78	2674.65
884.95	3215.31
885.11	2885.59
885.28	2881.49
885.44	2775.00
885.61	3186.64
885.77	3168.21
885.94	2863.06
886.10	2852.82
886.27	2987.99
886.43	3243.98
886.60	2928.60
886.76	2672.60
886.93	2844.63
887.09	3000.27
887.26	2621.40
887.42	2846.68
887.59	3192.78
887.75	3338.19
887.92	2869.20
888.08	2899.92
888.25	3266.51
888.41	3104.72
888.58	2717.65
888.74	2658.26
888.91	2877.40
>>>>>End Processed Spectral Data<<<<<
