SpectraSuite Data File
++++++++++++++++++++++++++++++++++++
Date: Thu May 05 21:11:08 CEST 2016
User: root
Dark Spectrum Present: No
Reference Spectrum Present: No
Number of Sampled Component Spectra: 1
Spectrometers: USB4C02835
Integration Time (usec): 100000 (USB4C02835)
Spectra Averaged: 1 (USB4C02835)
Boxcar Smoothing: 0 (USB4C02835)
Correct for Electrical Dark: No (USB4C02835)
Strobe/Lamp Enabled: No (USB4C02835)
Correct for Detector Non-linearity: No (USB4C02835)
Correct for Stray Light: No (USB4C02835)
Number of Pixels in Processed Spectrum: 3648
>>>>>Begin Processed Spectral Data<<<<<
177.47	2078.69
177.69	2078.69
177.91	2078.69
178.13	2133.98
178.36	2095.07
178.58	2770.90
178.80	2940.88
179.02	2709.46
179.24	2854.87
179.46	2574.30
179.68	2582.49
179.90	2928.60
180.13	3067.86
180.35	2504.67
180.57	2656.22
180.79	3078.10
181.01	2998.23
181.23	2719.70
181.45	2805.72
181.67	3157.97
181.90	3174.35
182.12	2723.80
182.34	2525.15
182.56	3143.63
182.78	3045.33
183.00	2641.88
183.22	2703.32
183.44	2654.17
183.66	3508.17
183.89	2787.29
184.11	2695.13
184.33	3090.38
184.55	3200.98
184.77	2684.89
184.99	2645.98
185.21	2932.69
185.43	3499.98
185.65	2666.46
185.87	2607.06
186.10	3401.68
186.32	3399.63
186.54	2840.53
186.76	2826.20
186.98	3133.39
187.20	2983.89
187.42	2693.08
187.64	2666.46
187.86	3071.95
188.08	3155.92
188.30	2600.92
188.52	2656.22
188.75	3160.02
188.97	3233.74
189.19	2625.50
189.41	2607.06
189.63	3028.95
189.85	2893.78
190.07	2588.63
190.29	2461.66
190.51	3061.71
190.73	2809.81
190.95	2867.16
191.17	2688.98
191.39	2678.74
191.61	2955.22
191.84	2680.79
192.06	2785.24
192.28	2662.36
192.50	3499.98
192.72	2832.34
192.94	2777.05
193.16	3192.78
193.38	3024.85
193.60	2684.89
193.82	2779.09
194.04	3188.69
194.26	3096.53
194.48	2783.19
194.70	2709.46
194.92	2883.54
195.14	3164.11
195.36	2625.50
195.58	2777.05
195.80	2914.26
196.02	2852.82
196.24	2682.84
196.46	2873.30
196.69	2916.31
196.91	3424.20
197.13	2602.97
197.35	2746.33
197.57	3248.08
197.79	3108.82
198.01	2711.51
198.23	2678.74
198.45	3041.23
198.67	2760.66
198.89	2572.25
199.11	2768.85
199.33	2828.24
199.55	2664.41
199.77	2625.50
199.99	2861.01
200.21	2906.07
200.43	2944.98
200.65	2578.39
200.87	2533.34
201.09	3080.14
201.31	2906.07
201.53	2699.22
201.75	2742.23
201.97	3028.95
202.19	3024.85
202.41	2701.27
202.63	2799.57
202.85	3043.28
203.07	3082.19
203.29	2731.99
203.51	2537.43
203.73	2899.92
203.95	3465.16
204.17	2744.28
204.39	2834.39
204.61	2916.31
204.83	2953.17
205.05	2901.97
205.27	2697.17
205.49	3313.61
205.71	3008.47
205.93	2570.20
206.15	2611.16
206.37	3051.47
206.59	3002.32
206.81	2570.20
207.03	2422.75
207.25	2789.33
207.47	3121.10
207.69	2668.50
207.91	2920.40
208.13	3243.98
208.34	2938.84
208.56	2611.16
208.78	2736.09
209.00	2873.30
209.22	2947.03
209.44	2777.05
209.66	2674.65
209.88	2981.84
210.10	2936.79
210.32	2709.46
210.54	2760.66
210.76	2936.79
210.98	3221.45
211.20	2609.11
211.42	2807.77
211.64	3192.78
211.86	3028.95
212.08	2729.94
212.30	2715.61
212.52	2934.74
212.74	3037.14
212.96	2719.70
213.17	2744.28
213.39	3051.47
213.61	3389.39
213.83	2660.31
214.05	2584.54
214.27	3170.26
214.49	2863.06
214.71	2719.70
214.93	2752.47
215.15	3045.33
215.37	3069.91
215.59	2566.10
215.81	2746.33
216.03	3157.97
216.24	3010.51
216.46	2668.50
216.68	2760.66
216.90	3207.12
217.12	3157.97
217.34	2598.87
217.56	2838.48
217.78	3321.81
218.00	3067.86
218.22	2764.76
218.44	2695.13
218.66	3045.33
218.87	3373.00
219.09	2695.13
219.31	2678.74
219.53	3088.34
219.75	2879.44
219.97	2705.37
220.19	2684.89
220.41	2996.18
220.63	3241.93
220.85	2686.94
221.06	2742.23
221.28	3192.78
221.50	3137.49
221.72	2805.72
221.94	2682.84
222.16	3000.27
222.38	3174.35
222.60	2686.94
222.82	2721.75
223.03	3231.69
223.25	2766.81
223.47	2693.08
223.69	2856.92
223.91	3205.07
224.13	3049.43
224.35	2615.26
224.57	2914.26
224.78	3121.10
225.00	2820.05
225.22	2764.76
225.44	2668.50
225.66	3094.48
225.88	2912.21
226.10	2834.39
226.32	2740.18
226.53	3180.50
226.75	2926.55
226.97	2813.91
227.19	2621.40
227.41	2889.68
227.63	2914.26
227.85	2510.81
228.06	2752.47
228.28	3067.86
228.50	3123.15
228.72	2623.45
228.94	2713.56
229.16	2740.18
229.37	2834.39
229.59	2664.41
229.81	2881.49
230.03	2955.22
230.25	2727.89
230.47	2574.30
230.69	2637.78
230.90	3086.29
231.12	2801.62
231.34	2799.57
231.56	2756.57
231.78	2901.97
232.00	2987.99
232.21	2658.26
232.43	2668.50
232.65	2697.17
232.87	3030.99
233.09	2527.19
233.30	2662.36
233.52	3080.14
233.74	2965.46
233.96	2650.07
234.18	2861.01
234.40	3000.27
234.61	3393.48
234.83	2609.11
235.05	2693.08
235.27	3383.24
235.49	3221.45
235.70	2600.92
235.92	2725.85
236.14	3119.06
236.36	3420.11
236.58	2586.58
236.79	2719.70
237.01	2967.51
237.23	2926.55
237.45	2867.16
237.67	2762.71
237.88	3129.30
238.10	3295.18
238.32	2519.00
238.54	2658.26
238.76	2971.60
238.97	2842.58
239.19	2559.96
239.41	2738.13
239.63	3229.65
239.85	2926.55
240.06	2668.50
240.28	2652.12
240.50	3160.02
240.72	2983.89
240.93	2641.88
241.15	2738.13
241.37	2975.70
241.59	3172.30
241.81	2666.46
242.02	2684.89
242.24	3125.20
242.46	3059.67
242.68	2475.99
242.89	2674.65
243.11	3176.40
243.33	2910.16
243.55	2615.26
243.76	2703.32
243.98	2893.78
244.20	2920.40
244.42	2670.55
244.64	2602.97
244.85	2729.94
245.07	2899.92
245.29	2670.55
245.51	2729.94
245.72	3022.80
245.94	3178.45
246.16	2695.13
246.38	2709.46
246.59	2840.53
246.81	2828.24
247.03	2594.78
247.24	2613.21
247.46	2922.45
247.68	3043.28
247.90	2627.54
248.11	2719.70
248.33	3215.31
248.55	3055.57
248.77	2719.70
248.98	2734.04
249.20	3182.54
249.42	3033.04
249.64	2727.89
249.85	2637.78
250.07	2836.44
250.29	3127.25
250.50	2768.85
250.72	2592.73
250.94	2957.27
251.16	3387.34
251.37	2652.12
251.59	2691.03
251.81	3088.34
252.02	3262.41
252.24	2590.68
252.46	2783.19
252.68	2871.25
252.89	2856.92
253.11	2465.75
253.33	2795.48
253.54	3164.11
253.76	2803.67
253.98	2695.13
254.20	2658.26
254.41	2818.00
254.63	2922.45
254.85	2572.25
255.06	2746.33
255.28	3067.86
255.50	2951.12
255.71	2670.55
255.93	2516.95
256.15	2918.36
256.36	3102.67
256.58	2564.06
256.80	2709.46
257.02	2938.84
257.23	2932.69
257.45	2678.74
257.67	2824.15
257.88	2856.92
258.10	3076.05
258.32	2660.31
258.53	2744.28
258.75	3186.64
258.97	2867.16
259.18	2654.17
259.40	2598.87
259.62	3250.13
259.83	3221.45
260.05	2703.32
260.27	3463.12
260.48	3137.49
260.70	2772.95
260.92	2564.06
261.13	2717.65
261.35	3000.27
261.57	3080.14
261.78	2543.58
262.00	2639.83
262.22	3078.10
262.43	2717.65
262.65	2723.80
262.86	2699.22
263.08	3469.26
263.30	3006.42
263.51	2545.63
263.73	2559.96
263.95	3348.43
264.16	2813.91
264.38	2533.34
264.60	2693.08
264.81	2951.12
265.03	3157.97
265.25	3014.61
265.46	2607.06
265.68	3084.24
265.89	3135.44
266.11	2566.10
266.33	2643.93
266.54	3280.85
266.76	3022.80
266.98	2758.61
267.19	2869.20
267.41	3133.39
267.62	3020.75
267.84	2488.28
268.06	2797.53
268.27	3008.47
268.49	3182.54
268.70	2719.70
268.92	2672.60
269.14	2865.11
269.35	2820.05
269.57	2797.53
269.79	2727.89
270.00	2793.43
270.22	3280.85
270.43	2514.91
270.65	2537.43
270.87	3067.86
271.08	3080.14
271.30	2815.96
271.51	2703.32
271.73	3170.26
271.95	3227.60
272.16	2652.12
272.38	2838.48
272.59	2914.26
272.81	3030.99
273.02	2686.94
273.24	2695.13
273.46	3129.30
273.67	2693.08
273.89	2605.02
274.10	2678.74
274.32	3219.41
274.54	3106.77
274.75	2799.57
274.97	2770.90
275.18	3186.64
275.40	3065.81
275.61	2666.46
275.83	2856.92
276.05	2811.86
276.26	2975.70
276.48	2805.72
276.69	2914.26
276.91	2873.30
277.12	3149.78
277.34	2854.87
277.55	2914.26
277.77	2981.84
277.99	2930.64
278.20	2793.43
278.42	2764.76
278.63	2832.34
278.85	2785.24
279.06	2731.99
279.28	2914.26
279.49	3110.86
279.71	3104.72
279.93	2891.73
280.14	2709.46
280.36	2772.95
280.57	3129.30
280.79	2922.45
281.00	2721.75
281.22	2846.68
281.43	3160.02
281.65	2580.44
281.86	2660.31
282.08	3037.14
282.29	3338.19
282.51	2764.76
282.73	2641.88
282.94	2756.57
283.16	3135.44
283.37	2899.92
283.59	2838.48
283.80	3008.47
284.02	2879.44
284.23	2787.29
284.45	2820.05
284.66	2889.68
284.88	2836.44
285.09	2717.65
285.31	2895.83
285.52	3043.28
285.74	2740.18
285.95	2965.46
286.17	2908.12
286.38	3151.82
286.60	2832.34
286.81	2756.57
287.03	2768.85
287.24	3008.47
287.46	3035.09
287.67	2891.73
287.89	2971.60
288.10	2987.99
288.32	2938.84
288.53	3039.19
288.75	2809.81
288.96	3182.54
289.18	2883.54
289.39	2731.99
289.61	2852.82
289.82	3377.10
290.04	3260.37
290.25	2719.70
290.47	2881.49
290.68	2955.22
290.90	3186.64
291.11	2645.98
291.33	2942.93
291.54	2811.86
291.76	2895.83
291.97	2830.29
292.18	2932.69
292.40	2953.17
292.61	2863.06
292.83	3071.95
293.04	2842.58
293.26	3047.38
293.47	3008.47
293.69	2703.32
293.90	2719.70
294.12	3190.74
294.33	3022.80
294.55	2914.26
294.76	2883.54
294.97	3178.45
295.19	3336.14
295.40	2797.53
295.62	2928.60
295.83	3162.06
296.05	2858.96
296.26	2973.65
296.48	2779.09
296.69	2996.18
296.90	2971.60
297.12	2920.40
297.33	2944.98
297.55	3000.27
297.76	2983.89
297.98	2889.68
298.19	2957.27
298.41	2850.77
298.62	2818.00
298.83	2973.65
299.05	2910.16
299.26	2875.35
299.48	2877.40
299.69	2865.11
299.90	2840.53
300.12	2793.43
300.33	3104.72
300.55	2889.68
300.76	2854.87
300.98	2836.44
301.19	3121.10
301.40	2824.15
301.62	2809.81
301.83	3033.04
302.05	3024.85
302.26	2789.33
302.47	2848.72
302.69	2791.38
302.90	3008.47
303.12	2645.98
303.33	2852.82
303.54	3317.71
303.76	2959.31
303.97	2775.00
304.19	3012.56
304.40	2861.01
304.61	3012.56
304.83	2940.88
305.04	2836.44
305.26	3139.54
305.47	2940.88
305.68	2799.57
305.90	2688.98
306.11	3215.31
306.33	2979.79
306.54	2705.37
306.75	2648.02
306.97	2815.96
307.18	2881.49
307.39	2715.61
307.61	2824.15
307.82	2985.94
308.04	3024.85
308.25	2572.25
308.46	2932.69
308.68	3039.19
308.89	3035.09
309.10	2934.74
309.32	2922.45
309.53	3010.51
309.74	3106.77
309.96	2805.72
310.17	2881.49
310.39	2895.83
310.60	3131.34
310.81	2811.86
311.03	2711.51
311.24	3028.95
311.45	2992.08
311.67	3010.51
311.88	2967.51
312.09	2949.08
312.31	2936.79
312.52	2746.33
312.73	2772.95
312.95	2762.71
313.16	2908.12
313.37	2977.75
313.59	2981.84
313.80	3149.78
314.01	3321.81
314.23	2811.86
314.44	2754.52
314.65	2787.29
314.87	2926.55
315.08	2791.38
315.29	2789.33
315.51	2899.92
315.72	2791.38
315.93	2834.39
316.15	2916.31
316.36	2899.92
316.57	3090.38
316.79	2848.72
317.00	2713.56
317.21	3123.15
317.43	2842.58
317.64	2824.15
317.85	2725.85
318.07	2895.83
318.28	2871.25
318.49	2899.92
318.70	3018.71
318.92	2975.70
319.13	3092.43
319.34	2942.93
319.56	2764.76
319.77	3059.67
319.98	3092.43
320.20	2908.12
320.41	2897.88
320.62	3069.91
320.83	2752.47
321.05	2998.23
321.26	2801.62
321.47	2963.41
321.69	3143.63
321.90	2674.65
322.11	2760.66
322.32	3033.04
322.54	3164.11
322.75	2725.85
322.96	3520.46
323.18	2811.86
323.39	2701.27
323.60	2674.65
323.81	2922.45
324.03	2838.48
324.24	3047.38
324.45	2877.40
324.66	2738.13
324.88	3209.17
325.09	3121.10
325.30	2881.49
325.52	2736.09
325.73	3010.51
325.94	2830.29
326.15	2660.31
326.37	2680.79
326.58	3174.35
326.79	3250.13
327.00	2787.29
327.22	2781.14
327.43	2936.79
327.64	2766.81
327.85	2973.65
328.07	2914.26
328.28	3221.45
328.49	2916.31
328.70	2793.43
328.92	2729.94
329.13	2893.78
329.34	3024.85
329.55	3037.14
329.76	2873.30
329.98	2916.31
330.19	3231.69
330.40	2799.57
330.61	2928.60
330.83	3143.63
331.04	2795.48
331.25	2891.73
331.46	2770.90
331.68	2760.66
331.89	3182.54
332.10	2818.00
332.31	2719.70
332.52	3022.80
332.74	3221.45
332.95	2635.74
333.16	2738.13
333.37	3084.24
333.58	2920.40
333.80	2813.91
334.01	2609.11
334.22	2906.07
334.43	2867.16
334.64	2748.37
334.86	2844.63
335.07	2799.57
335.28	3227.60
335.49	2729.94
335.70	2893.78
335.92	3180.50
336.13	3420.11
336.34	2922.45
336.55	2828.24
336.76	3088.34
336.98	2635.74
337.19	2865.11
337.40	2951.12
337.61	3465.16
337.82	2893.78
338.04	2879.44
338.25	2668.50
338.46	2949.08
338.67	2949.08
338.88	2680.79
339.09	2738.13
339.31	2873.30
339.52	2738.13
339.73	2619.35
339.94	2811.86
340.15	3086.29
340.36	2861.01
340.58	2881.49
340.79	2709.46
341.00	3067.86
341.21	2721.75
341.42	3002.32
341.63	2858.96
341.85	3106.77
342.06	2975.70
342.27	2768.85
342.48	2951.12
342.69	2686.94
342.90	3022.80
343.12	3028.95
343.33	2662.36
343.54	3198.93
343.75	3192.78
343.96	2910.16
344.17	2693.08
344.38	2953.17
344.60	2815.96
344.81	2748.37
345.02	2795.48
345.23	3215.31
345.44	3418.06
345.65	2838.48
345.86	2963.41
346.07	2940.88
346.29	2887.64
346.50	2963.41
346.71	2863.06
346.92	3243.98
347.13	3385.29
347.34	2844.63
347.55	2682.84
347.76	3076.05
347.98	2654.17
348.19	2899.92
348.40	3037.14
348.61	2961.36
348.82	3264.46
349.03	2906.07
349.24	2756.57
349.45	3346.38
349.66	2709.46
349.88	2777.05
350.09	2756.57
350.30	3184.59
350.51	3168.21
350.72	2975.70
350.93	2770.90
351.14	2916.31
351.35	3041.23
351.56	2865.11
351.77	2852.82
351.99	3030.99
352.20	3192.78
352.41	2901.97
352.62	2623.45
352.83	2899.92
353.04	2904.02
353.25	2809.81
353.46	2861.01
353.67	3065.81
353.88	2656.22
354.09	2717.65
354.30	2820.05
354.52	3166.16
354.73	2983.89
354.94	2820.05
355.15	2848.72
355.36	3336.14
355.57	2942.93
355.78	2764.76
355.99	2750.42
356.20	3006.42
356.41	3106.77
356.62	2867.16
356.83	2820.05
357.04	3235.79
357.25	2713.56
357.46	2748.37
357.68	2682.84
357.89	2846.68
358.10	2961.36
358.31	2858.96
358.52	2801.62
358.73	2850.77
358.94	2787.29
359.15	2801.62
359.36	2772.95
359.57	2979.79
359.78	2934.74
359.99	3008.47
360.20	2707.41
360.41	3065.81
360.62	3153.87
360.83	2848.72
361.04	2881.49
361.25	3012.56
361.46	3225.55
361.67	2873.30
361.88	2856.92
362.09	3108.82
362.30	2983.89
362.51	2756.57
362.72	2844.63
362.93	3164.11
363.14	3012.56
363.35	2922.45
363.56	2766.81
363.78	3203.02
363.99	3098.58
364.20	2822.10
364.41	2758.61
364.62	3330.00
364.83	3016.66
365.04	2818.00
365.25	2797.53
365.46	3487.69
365.67	2910.16
365.88	2846.68
366.09	2768.85
366.30	2883.54
366.51	2897.88
366.72	2621.40
366.93	2779.09
367.14	3043.28
367.35	3303.37
367.56	2768.85
367.77	2936.79
367.98	2965.46
368.18	3026.90
368.39	2930.64
368.60	2760.66
368.81	3192.78
369.02	3065.81
369.23	2838.48
369.44	2727.89
369.65	2881.49
369.86	3024.85
370.07	2922.45
370.28	2721.75
370.49	2961.36
370.70	3061.71
370.91	2756.57
371.12	2664.41
371.33	3137.49
371.54	2815.96
371.75	2947.03
371.96	2598.87
372.17	3069.91
372.38	2936.79
372.59	2899.92
372.80	2783.19
373.01	2955.22
373.22	3088.34
373.43	2785.24
373.64	2768.85
373.85	3241.93
374.06	3243.98
374.26	2967.51
374.47	2854.87
374.68	3176.40
374.89	2990.03
375.10	2750.42
375.31	2822.10
375.52	3041.23
375.73	2981.84
375.94	2635.74
376.15	2912.21
376.36	2809.81
376.57	2977.75
376.78	2865.11
376.99	2897.88
377.20	3213.26
377.40	2916.31
377.61	3065.81
377.82	2764.76
378.03	3323.85
378.24	3098.58
378.45	2809.81
378.66	2871.25
378.87	2746.33
379.08	2705.37
379.29	2801.62
379.50	3022.80
379.71	2977.75
379.91	3104.72
380.12	2813.91
380.33	2949.08
380.54	2918.36
380.75	2969.55
380.96	2736.09
381.17	2885.59
381.38	2932.69
381.59	2994.13
381.80	2871.25
382.00	2961.36
382.21	2926.55
382.42	3248.08
382.63	3213.26
382.84	2912.21
383.05	3094.48
383.26	3203.02
383.47	2873.30
383.68	2772.95
383.88	3045.33
384.09	2897.88
384.30	3071.95
384.51	2840.53
384.72	2895.83
384.93	2779.09
385.14	2965.46
385.35	2975.70
385.55	2807.77
385.76	3178.45
385.97	2758.61
386.18	2705.37
386.39	2807.77
386.60	2899.92
386.81	2813.91
387.02	2723.80
387.22	2760.66
387.43	3061.71
387.64	2922.45
387.85	3135.44
388.06	3078.10
388.27	3985.35
388.48	7153.55
388.68	10874.71
388.89	13205.30
389.10	14303.01
389.31	14010.15
389.52	11136.85
389.73	9656.17
389.93	8865.66
390.14	8132.48
390.35	7210.90
390.56	6762.39
390.77	5572.52
390.98	4292.54
391.18	3698.63
391.39	3459.02
391.60	2971.60
391.81	3018.71
392.02	2828.24
392.23	3373.00
392.43	3033.04
392.64	2959.31
392.85	2871.25
393.06	3286.99
393.27	2955.22
393.47	2824.15
393.68	2873.30
393.89	2856.92
394.10	3176.40
394.31	2877.40
394.52	2856.92
394.72	2899.92
394.93	3239.89
395.14	2707.41
395.35	2871.25
395.56	2854.87
395.76	2992.08
395.97	2777.05
396.18	3022.80
396.39	3012.56
396.60	3536.84
396.80	3135.44
397.01	3002.32
397.22	3096.53
397.43	3205.07
397.64	2777.05
397.84	2877.40
398.05	3360.72
398.26	3041.23
398.47	2906.07
398.67	2996.18
398.88	3061.71
399.09	3053.52
399.30	2832.34
399.51	2979.79
399.71	2850.77
399.92	3039.19
400.13	2889.68
400.34	2824.15
400.54	2987.99
400.75	3264.46
400.96	2959.31
401.17	3119.06
401.37	3049.43
401.58	2906.07
401.79	2858.96
402.00	2971.60
402.21	3450.83
402.41	3170.26
402.62	3147.73
402.83	3289.04
403.04	3297.23
403.24	3633.10
403.45	2953.17
403.66	3057.62
403.87	3155.92
404.07	3227.60
404.28	3063.76
404.49	3033.04
404.70	3086.29
404.90	3129.30
405.11	2877.40
405.32	3043.28
405.52	2871.25
405.73	2912.21
405.94	2781.14
406.15	2848.72
406.35	3137.49
406.56	3127.25
406.77	2912.21
406.98	2863.06
407.18	2885.59
407.39	3243.98
407.60	2863.06
407.80	2936.79
408.01	2871.25
408.22	3067.86
408.43	2801.62
408.63	2908.12
408.84	3176.40
409.05	3084.24
409.25	2830.29
409.46	2781.14
409.67	2949.08
409.88	2844.63
410.08	2844.63
410.29	2740.18
410.50	3108.82
410.70	3016.66
410.91	2719.70
411.12	2873.30
411.32	3002.32
411.53	2846.68
411.74	2891.73
411.95	2901.97
412.15	3080.14
412.36	3080.14
412.57	2887.64
412.77	3047.38
412.98	2977.75
413.19	2934.74
413.39	2863.06
413.60	2873.30
413.81	3176.40
414.01	2809.81
414.22	2826.20
414.43	2932.69
414.63	2912.21
414.84	3098.58
415.05	2928.60
415.25	2725.85
415.46	2969.55
415.67	2885.59
415.87	2893.78
416.08	2826.20
416.29	2938.84
416.49	3041.23
416.70	2893.78
416.91	2799.57
417.11	2949.08
417.32	3205.07
417.53	2987.99
417.73	2961.36
417.94	2998.23
418.15	2981.84
418.35	2777.05
418.56	2899.92
418.77	3411.92
418.97	2985.94
419.18	2942.93
419.38	2533.34
419.59	2914.26
419.80	3303.37
420.00	2756.57
420.21	2910.16
420.42	3280.85
420.62	3074.00
420.83	2818.00
421.04	2928.60
421.24	2957.27
421.45	3121.10
421.65	2863.06
421.86	2852.82
422.07	3162.06
422.27	3129.30
422.48	2746.33
422.69	2666.46
422.89	3030.99
423.10	2920.40
423.30	2793.43
423.51	2912.21
423.72	3094.48
423.92	3071.95
424.13	2668.50
424.33	2906.07
424.54	3110.86
424.75	3024.85
424.95	3076.05
425.16	2770.90
425.36	2936.79
425.57	3137.49
425.78	2979.79
425.98	2983.89
426.19	2897.88
426.39	2844.63
426.60	2897.88
426.81	2987.99
427.01	3071.95
427.22	2869.20
427.42	2682.84
427.63	2795.48
427.83	3096.53
428.04	3301.33
428.25	2934.74
428.45	3012.56
428.66	3258.32
428.86	2910.16
429.07	2889.68
429.28	2824.15
429.48	3010.51
429.69	2901.97
429.89	2883.54
430.10	2701.27
430.30	3047.38
430.51	3178.45
430.71	2846.68
430.92	2918.36
431.13	2867.16
431.33	3049.43
431.54	2895.83
431.74	3035.09
431.95	3448.78
432.15	2844.63
432.36	2873.30
432.56	2918.36
432.77	3315.66
432.98	3260.37
433.18	2873.30
433.39	2731.99
433.59	2936.79
433.80	3293.13
434.00	3037.14
434.21	2846.68
434.41	2842.58
434.62	3395.53
434.82	2756.57
435.03	2805.72
435.23	3047.38
435.44	2785.24
435.64	2787.29
435.85	2873.30
436.06	3213.26
436.26	3172.30
436.47	2875.35
436.67	2809.81
436.88	2891.73
437.08	3160.02
437.29	3016.66
437.49	3008.47
437.70	3213.26
437.90	2983.89
438.11	2990.03
438.31	2934.74
438.52	3284.94
438.72	3180.50
438.93	3080.14
439.13	2897.88
439.34	3157.97
439.54	2928.60
439.75	2949.08
439.95	2893.78
440.16	2869.20
440.36	3018.71
440.57	2867.16
440.77	2928.60
440.98	3016.66
441.18	3086.29
441.39	2809.81
441.59	2740.18
441.80	3389.39
442.00	2963.41
442.21	2887.64
442.41	2668.50
442.62	3186.64
442.82	2854.87
443.02	2815.96
443.23	2830.29
443.43	2912.21
443.64	3209.17
443.84	2785.24
444.05	3039.19
444.25	3006.42
444.46	2813.91
444.66	2842.58
444.87	3039.19
445.07	2672.60
445.28	2965.46
445.48	3030.99
445.69	2949.08
445.89	3459.02
446.09	2922.45
446.30	3198.93
446.50	3223.50
446.71	4644.79
446.91	5656.49
447.12	6608.80
447.32	6848.41
447.53	6776.73
447.73	5781.42
447.93	5015.48
448.14	4706.23
448.34	4773.82
448.55	4028.35
448.75	4057.03
448.96	3839.94
449.16	3608.52
449.36	3436.49
449.57	3121.10
449.77	2893.78
449.98	2987.99
450.18	3055.57
450.39	2830.29
450.59	2998.23
450.79	2987.99
451.00	2885.59
451.20	3004.37
451.41	2824.15
451.61	3051.47
451.81	2992.08
452.02	2856.92
452.22	2938.84
452.43	2838.48
452.63	2852.82
452.84	2910.16
453.04	2752.47
453.24	3104.72
453.45	2858.96
453.65	2848.72
453.86	2813.91
454.06	3096.53
454.26	2957.27
454.47	2805.72
454.67	3028.95
454.87	3078.10
455.08	2842.58
455.28	3006.42
455.49	2985.94
455.69	2756.57
455.89	3317.71
456.10	2934.74
456.30	2830.29
456.51	3010.51
456.71	2975.70
456.91	3022.80
457.12	2877.40
457.32	3012.56
457.52	2822.10
457.73	3035.09
457.93	2967.51
458.14	2955.22
458.34	2748.37
458.54	2887.64
458.75	2789.33
458.95	3209.17
459.15	3051.47
459.36	2885.59
459.56	2887.64
459.76	3426.25
459.97	2992.08
460.17	2801.62
460.37	3051.47
460.58	2998.23
460.78	3086.29
460.99	2893.78
461.19	2879.44
461.39	2869.20
461.60	2906.07
461.80	2957.27
462.00	2799.57
462.21	2895.83
462.41	2803.67
462.61	2703.32
462.82	2658.26
463.02	3094.48
463.22	2947.03
463.43	2942.93
463.63	2787.29
463.83	3200.98
464.04	3065.81
464.24	2803.67
464.44	2768.85
464.64	3051.47
464.85	3065.81
465.05	2916.31
465.25	2777.05
465.46	2904.02
465.66	3114.96
465.86	2908.12
466.07	2789.33
466.27	2940.88
466.47	2781.14
466.68	2650.07
466.88	3063.76
467.08	3080.14
467.29	3123.15
467.49	2932.69
467.69	2879.44
467.89	3082.19
468.10	3002.32
468.30	2965.46
468.50	2934.74
468.71	3157.97
468.91	2824.15
469.11	3053.52
469.31	2967.51
469.52	2877.40
469.72	3295.18
469.92	3067.86
470.13	2858.96
470.33	3074.00
470.53	3100.62
470.73	3243.98
470.94	3512.27
471.14	3553.23
471.34	4130.75
471.54	3807.17
471.75	3557.32
471.95	3211.22
472.15	3375.05
472.36	3403.72
472.56	3258.32
472.76	3489.74
472.96	3311.57
473.17	3012.56
473.37	3016.66
473.57	2996.18
473.77	3026.90
473.98	3010.51
474.18	2830.29
474.38	3504.07
474.58	2944.98
474.79	2693.08
474.99	2891.73
475.19	3192.78
475.39	2844.63
475.60	2987.99
475.80	2865.11
476.00	3074.00
476.20	2922.45
476.41	2934.74
476.61	2975.70
476.81	3205.07
477.01	2848.72
477.21	3071.95
477.42	3014.61
477.62	2836.44
477.82	3110.86
478.02	2840.53
478.23	2908.12
478.43	2789.33
478.63	3018.71
478.83	2910.16
479.03	2897.88
479.24	3246.03
479.44	3340.24
479.64	2744.28
479.84	2721.75
480.04	2832.34
480.25	3098.58
480.45	2828.24
480.65	2832.34
480.85	3266.51
481.06	2889.68
481.26	2906.07
481.46	2844.63
481.66	3071.95
481.86	2861.01
482.06	3082.19
482.27	2924.50
482.47	2928.60
482.67	3051.47
482.87	2858.96
483.07	2942.93
483.28	2930.64
483.48	2791.38
483.68	2863.06
483.88	2748.37
484.08	2643.93
484.29	2656.22
484.49	2877.40
484.69	2611.16
484.89	3250.13
485.09	3139.54
485.29	2895.83
485.50	2965.46
485.70	2947.03
485.90	3301.33
486.10	2977.75
486.30	2815.96
486.50	3160.02
486.71	3059.67
486.91	2830.29
487.11	2965.46
487.31	2752.47
487.51	3063.76
487.71	2781.14
487.91	2707.41
488.12	2803.67
488.32	2574.30
488.52	2842.58
488.72	2592.73
488.92	3024.85
489.12	3190.74
489.32	3014.61
489.53	2906.07
489.73	2744.28
489.93	3266.51
490.13	2811.86
490.33	2719.70
490.53	3012.56
490.73	3190.74
490.94	2729.94
491.14	3059.67
491.34	3082.19
491.54	3108.82
491.74	3715.02
491.94	4112.32
492.14	4683.70
492.34	4767.67
492.54	4499.39
492.75	3782.60
492.95	3960.77
493.15	3565.51
493.35	3489.74
493.55	3409.87
493.75	3346.38
493.95	3479.50
494.15	3112.91
494.35	3006.42
494.56	3039.19
494.76	2869.20
494.96	2983.89
495.16	2787.29
495.36	3045.33
495.56	3055.57
495.76	2928.60
495.96	2795.48
496.16	2861.01
496.36	3352.52
496.56	2818.00
496.77	2965.46
496.97	3119.06
497.17	3203.02
497.37	2731.99
497.57	2951.12
497.77	3024.85
497.97	2879.44
498.17	2865.11
498.37	2807.77
498.57	3059.67
498.77	2920.40
498.97	2975.70
499.17	3131.34
499.38	2977.75
499.58	3065.81
499.78	3014.61
499.98	3043.28
500.18	2973.65
500.38	2789.33
500.58	3098.58
500.78	3409.87
500.98	5574.57
501.18	7366.54
501.38	8505.21
501.58	9564.01
501.78	9547.63
501.98	8089.48
502.18	6616.99
502.38	5859.24
502.58	5644.20
502.78	5119.92
502.98	4865.97
503.18	4517.82
503.38	4317.12
503.59	3792.84
503.79	3708.87
503.99	3508.17
504.19	3518.41
504.39	3373.00
504.59	3362.76
504.79	3139.54
504.99	3424.20
505.19	3166.16
505.39	2955.22
505.59	3289.04
505.79	3354.57
505.99	3237.84
506.19	2934.74
506.39	3133.39
506.59	2838.48
506.79	2949.08
506.99	3047.38
507.19	2813.91
507.39	3010.51
507.59	2779.09
507.79	2727.89
507.99	2750.42
508.19	3012.56
508.39	2906.07
508.59	2901.97
508.79	2955.22
508.99	3293.13
509.19	2926.55
509.39	2936.79
509.59	2676.70
509.79	2867.16
509.99	2983.89
510.19	2957.27
510.39	2926.55
510.59	3004.37
510.79	2887.64
510.99	2623.45
511.19	2873.30
511.39	3360.72
511.59	3164.11
511.79	2959.31
511.99	2856.92
512.19	3303.37
512.38	3098.58
512.58	2787.29
512.78	2824.15
512.98	3162.06
513.18	3209.17
513.38	2793.43
513.58	2881.49
513.78	2932.69
513.98	3026.90
514.18	2881.49
514.38	2830.29
514.58	3082.19
514.78	2824.15
514.98	2811.86
515.18	2895.83
515.38	2828.24
515.58	3252.17
515.78	2844.63
515.98	2914.26
516.18	3096.53
516.38	2932.69
516.57	2895.83
516.77	2826.20
516.97	3131.34
517.17	2889.68
517.37	2695.13
517.57	2918.36
517.77	2938.84
517.97	2848.72
518.17	2928.60
518.37	2734.04
518.57	2787.29
518.77	2957.27
518.97	2885.59
519.16	2844.63
519.36	3209.17
519.56	2916.31
519.76	2826.20
519.96	2869.20
520.16	3205.07
520.36	2852.82
520.56	2994.13
520.76	2756.57
520.96	2920.40
521.16	3137.49
521.35	3074.00
521.55	3004.37
521.75	2971.60
521.95	2867.16
522.15	2832.34
522.35	2701.27
522.55	2840.53
522.75	3086.29
522.95	2775.00
523.14	2750.42
523.34	3078.10
523.54	2920.40
523.74	2887.64
523.94	2906.07
524.14	2686.94
524.34	3024.85
524.54	3084.24
524.73	2877.40
524.93	3147.73
525.13	3030.99
525.33	2820.05
525.53	3074.00
525.73	3057.62
525.93	3028.95
526.13	2846.68
526.32	2740.18
526.52	3074.00
526.72	3223.50
526.92	2869.20
527.12	2799.57
527.32	2703.32
527.52	3049.43
527.71	2936.79
527.91	2861.01
528.11	3000.27
528.31	2938.84
528.51	2820.05
528.71	3008.47
528.90	2998.23
529.10	3133.39
529.30	2922.45
529.50	2664.41
529.70	3018.71
529.90	2983.89
530.09	2893.78
530.29	2752.47
530.49	2807.77
530.69	3461.07
530.89	2990.03
531.09	2973.65
531.28	2844.63
531.48	3203.02
531.68	2887.64
531.88	2856.92
532.08	3145.68
532.28	2912.21
532.47	3016.66
532.67	2985.94
532.87	3100.62
533.07	2807.77
533.27	2901.97
533.46	2910.16
533.66	3026.90
533.86	2936.79
534.06	2901.97
534.26	2852.82
534.45	2959.31
534.65	3147.73
534.85	2951.12
535.05	2731.99
535.25	3157.97
535.44	2729.94
535.64	2854.87
535.84	2918.36
536.04	2869.20
536.24	2955.22
536.43	2830.29
536.63	2795.48
536.83	2992.08
537.03	3018.71
537.22	2680.79
537.42	2625.50
537.62	2955.22
537.82	2928.60
538.02	3076.05
538.21	2904.02
538.41	3534.79
538.61	3131.34
538.81	2912.21
539.00	2873.30
539.20	2705.37
539.40	2914.26
539.60	2746.33
539.79	3010.51
539.99	2979.79
540.19	2861.01
540.39	2854.87
540.58	2897.88
540.78	3076.05
540.98	3051.47
541.18	3018.71
541.37	2926.55
541.57	3014.61
541.77	3037.14
541.97	2772.95
542.16	2789.33
542.36	2881.49
542.56	2947.03
542.76	3041.23
542.95	3000.27
543.15	3061.71
543.35	3104.72
543.54	2750.42
543.74	2764.76
543.94	3217.36
544.14	2897.88
544.33	2953.17
544.53	2908.12
544.73	2922.45
544.93	2914.26
545.12	2895.83
545.32	2875.35
545.52	2906.07
545.71	2822.10
545.91	2729.94
546.11	2736.09
546.30	2865.11
546.50	2951.12
546.70	2975.70
546.90	2828.24
547.09	2719.70
547.29	2965.46
547.49	3012.56
547.68	2828.24
547.88	2867.16
548.08	3104.72
548.27	3250.13
548.47	2820.05
548.67	2897.88
548.87	3008.47
549.06	2885.59
549.26	2840.53
549.46	3022.80
549.65	2885.59
549.85	2938.84
550.05	2838.48
550.24	2811.86
550.44	2957.27
550.64	2828.24
550.83	2883.54
551.03	3250.13
551.23	3219.41
551.42	2918.36
551.62	2858.96
551.82	2916.31
552.01	2951.12
552.21	3110.86
552.41	2920.40
552.60	3203.02
552.80	2983.89
553.00	2723.80
553.19	2936.79
553.39	3395.53
553.59	2871.25
553.78	2961.36
553.98	2826.20
554.17	2775.00
554.37	3059.67
554.57	2963.41
554.76	2711.51
554.96	2891.73
555.16	3035.09
555.35	2922.45
555.55	3059.67
555.75	2953.17
555.94	3186.64
556.14	2658.26
556.33	2873.30
556.53	2965.46
556.73	2975.70
556.92	2914.26
557.12	2818.00
557.32	3340.24
557.51	3313.61
557.71	2856.92
557.90	3055.57
558.10	3188.69
558.30	2887.64
558.49	2789.33
558.69	2938.84
558.88	3114.96
559.08	2987.99
559.28	2803.67
559.47	2883.54
559.67	2977.75
559.86	3368.91
560.06	2820.05
560.26	2967.51
560.45	3059.67
560.65	2961.36
560.84	3078.10
561.04	2705.37
561.24	3194.83
561.43	2795.48
561.63	3141.58
561.82	2947.03
562.02	3051.47
562.22	2850.77
562.41	2820.05
562.61	2910.16
562.80	2785.24
563.00	3387.34
563.19	2889.68
563.39	2944.98
563.59	3102.67
563.78	2764.76
563.98	2594.78
564.17	2789.33
564.37	2699.22
564.56	2998.23
564.76	2717.65
564.96	3008.47
565.15	3033.04
565.35	3387.34
565.54	2906.07
565.74	2850.77
565.93	3098.58
566.13	2990.03
566.32	2918.36
566.52	3018.71
566.71	2924.50
566.91	3096.53
567.11	2963.41
567.30	2842.58
567.50	3131.34
567.69	2994.13
567.89	2834.39
568.08	2738.13
568.28	3041.23
568.47	2799.57
568.67	2783.19
568.86	2756.57
569.06	3114.96
569.25	2926.55
569.45	2662.36
569.64	2881.49
569.84	2861.01
570.04	3045.33
570.23	2830.29
570.43	2926.55
570.62	2971.60
570.82	3203.02
571.01	2807.77
571.21	2762.71
571.40	2834.39
571.60	3067.86
571.79	2897.88
571.99	2940.88
572.18	2813.91
572.38	3076.05
572.57	2850.77
572.77	2865.11
572.96	3375.05
573.16	3039.19
573.35	2848.72
573.55	3014.61
573.74	2987.99
573.94	2949.08
574.13	2893.78
574.33	3055.57
574.52	3178.45
574.71	2975.70
574.91	2906.07
575.10	2697.17
575.30	2832.34
575.49	2828.24
575.69	2813.91
575.88	2838.48
576.08	2944.98
576.27	3184.59
576.47	2772.95
576.66	2987.99
576.86	3196.88
577.05	3090.38
577.25	2893.78
577.44	3106.77
577.64	2752.47
577.83	3237.84
578.02	2906.07
578.22	3063.76
578.41	3303.37
578.61	2912.21
578.80	2766.81
579.00	2897.88
579.19	2977.75
579.39	3000.27
579.58	2987.99
579.77	2951.12
579.97	3188.69
580.16	3139.54
580.36	2947.03
580.55	2875.35
580.75	2967.51
580.94	2979.79
581.13	3041.23
581.33	3076.05
581.52	2944.98
581.72	3278.80
581.91	3020.75
582.11	2883.54
582.30	3168.21
582.49	3039.19
582.69	3170.26
582.88	2973.65
583.08	3051.47
583.27	3229.65
583.47	2930.64
583.66	2873.30
583.85	2867.16
584.05	2916.31
584.24	3045.33
584.44	2856.92
584.63	3246.03
584.82	3239.89
585.02	3117.01
585.21	3010.51
585.41	3053.52
585.60	3006.42
585.79	3129.30
585.99	3153.87
586.18	3004.37
586.37	3829.70
586.57	5828.52
586.76	16498.44
586.96	35565.03
587.15	48696.60
587.34	56566.94
587.54	61146.20
587.73	54590.66
587.93	38827.44
588.12	29406.78
588.31	23885.46
588.51	21075.65
588.70	19658.45
588.89	16948.99
589.09	14591.78
589.28	12619.58
589.47	9688.94
589.67	7559.05
589.86	5906.34
590.06	4554.68
590.25	4069.31
590.44	3526.60
590.64	3282.89
590.83	3225.55
591.02	3241.93
591.22	2953.17
591.41	2899.92
591.60	2938.84
591.80	3403.72
591.99	2731.99
592.18	2758.61
592.38	3117.01
592.57	2899.92
592.76	2861.01
592.96	2994.13
593.15	2971.60
593.34	3162.06
593.54	2906.07
593.73	2938.84
593.92	3022.80
594.12	3172.30
594.31	2924.50
594.50	3014.61
594.70	3100.62
594.89	3446.73
595.08	2697.17
595.28	2926.55
595.47	3481.55
595.66	3172.30
595.86	2734.04
596.05	2820.05
596.24	2932.69
596.43	3291.09
596.63	3010.51
596.82	2944.98
597.01	3067.86
597.21	3305.42
597.40	2832.34
597.59	2877.40
597.79	2944.98
597.98	3143.63
598.17	2889.68
598.36	2889.68
598.56	3102.67
598.75	2885.59
598.94	2994.13
599.14	2801.62
599.33	2879.44
599.52	3141.58
599.71	2992.08
599.91	2928.60
600.10	3100.62
600.29	2938.84
600.48	2953.17
600.68	3024.85
600.87	3063.76
601.06	2877.40
601.26	2908.12
601.45	2938.84
601.64	2873.30
601.83	3233.74
602.03	2826.20
602.22	2746.33
602.41	3239.89
602.60	3413.96
602.80	2969.55
602.99	2951.12
603.18	2955.22
603.37	3098.58
603.57	2844.63
603.76	2863.06
603.95	3246.03
604.14	2963.41
604.34	2779.09
604.53	2775.00
604.72	3071.95
604.91	3143.63
605.10	2877.40
605.30	2744.28
605.49	3387.34
605.68	3086.29
605.87	2869.20
606.07	2793.43
606.26	3004.37
606.45	3022.80
606.64	2908.12
606.84	2775.00
607.03	3010.51
607.22	3182.54
607.41	2772.95
607.60	2820.05
607.80	3119.06
607.99	2926.55
608.18	2873.30
608.37	2871.25
608.56	2918.36
608.76	3139.54
608.95	3051.47
609.14	2840.53
609.33	3123.15
609.52	3260.37
609.72	2953.17
609.91	2906.07
610.10	3033.04
610.29	3225.55
610.48	2959.31
610.68	2951.12
610.87	2940.88
611.06	3145.68
611.25	2914.26
611.44	2961.36
611.63	2932.69
611.83	3151.82
612.02	2795.48
612.21	3057.62
612.40	2670.55
612.59	2781.14
612.79	2760.66
612.98	2975.70
613.17	3272.65
613.36	2994.13
613.55	2973.65
613.74	2930.64
613.93	3071.95
614.13	3026.90
614.32	3041.23
614.51	2924.50
614.70	2963.41
614.89	2951.12
615.08	2971.60
615.28	3284.94
615.47	2783.19
615.66	3137.49
615.85	2818.00
616.04	2955.22
616.23	2973.65
616.42	3076.05
616.62	2953.17
616.81	2975.70
617.00	3002.32
617.19	3037.14
617.38	2846.68
617.57	2973.65
617.76	3108.82
617.95	3155.92
618.15	3002.32
618.34	3108.82
618.53	2803.67
618.72	3200.98
618.91	2918.36
619.10	3004.37
619.29	3043.28
619.48	3018.71
619.68	2815.96
619.87	2805.72
620.06	2813.91
620.25	3051.47
620.44	2807.77
620.63	2826.20
620.82	2961.36
621.01	2992.08
621.20	2901.97
621.39	2920.40
621.59	3045.33
621.78	2985.94
621.97	2783.19
622.16	3041.23
622.35	3053.52
622.54	3090.38
622.73	2942.93
622.92	2738.13
623.11	3155.92
623.30	2895.83
623.49	2916.31
623.68	2826.20
623.88	3239.89
624.07	2842.58
624.26	2803.67
624.45	2957.27
624.64	2963.41
624.83	2979.79
625.02	2768.85
625.21	2924.50
625.40	3082.19
625.59	3211.22
625.78	2916.31
625.97	3053.52
626.16	3194.83
626.35	3170.26
626.54	2934.74
626.74	3100.62
626.93	3067.86
627.12	2885.59
627.31	2881.49
627.50	2828.24
627.69	3039.19
627.88	2861.01
628.07	2838.48
628.26	2719.70
628.45	2912.21
628.64	2840.53
628.83	2791.38
629.02	2779.09
629.21	2998.23
629.40	3114.96
629.59	2758.61
629.78	2854.87
629.97	3020.75
630.16	3033.04
630.35	2844.63
630.54	2881.49
630.73	2871.25
630.92	2932.69
631.11	2850.77
631.30	2822.10
631.49	3164.11
631.68	3055.57
631.87	2934.74
632.06	2764.76
632.25	3446.73
632.44	3030.99
632.63	2912.21
632.82	2861.01
633.01	2922.45
633.20	2983.89
633.39	2832.34
633.58	2662.36
633.77	3016.66
633.96	3110.86
634.15	2967.51
634.34	2947.03
634.53	3041.23
634.72	2951.12
634.91	2691.03
635.10	2942.93
635.29	3119.06
635.48	3008.47
635.67	2783.19
635.86	2758.61
636.05	3252.17
636.24	2971.60
636.43	2828.24
636.62	2973.65
636.81	2580.44
637.00	3022.80
637.19	2922.45
637.38	2912.21
637.57	2873.30
637.76	2918.36
637.95	2990.03
638.14	2830.29
638.33	3022.80
638.52	2987.99
638.71	2721.75
638.89	2672.60
639.08	3497.93
639.27	3182.54
639.46	2969.55
639.65	3309.52
639.84	3364.81
640.03	3467.21
640.22	3209.17
640.41	3254.22
640.60	3008.47
640.79	3045.33
640.98	3057.62
641.17	3016.66
641.36	3162.06
641.55	3108.82
641.74	2777.05
641.92	2781.14
642.11	2879.44
642.30	2928.60
642.49	2811.86
642.68	2826.20
642.87	3086.29
643.06	3164.11
643.25	2764.76
643.44	2754.52
643.63	2906.07
643.82	3213.26
644.00	2723.80
644.19	2840.53
644.38	2850.77
644.57	3119.06
644.76	2924.50
644.95	2906.07
645.14	3030.99
645.33	2957.27
645.52	2944.98
645.71	2719.70
645.89	2842.58
646.08	2926.55
646.27	2828.24
646.46	3067.86
646.65	2740.18
646.84	3096.53
647.03	2787.29
647.22	2973.65
647.40	3020.75
647.59	2977.75
647.78	2590.68
647.97	2762.71
648.16	2783.19
648.35	3157.97
648.54	2975.70
648.73	2867.16
648.91	3237.84
649.10	2994.13
649.29	2850.77
649.48	2750.42
649.67	3047.38
649.86	3033.04
650.05	2875.35
650.23	3041.23
650.42	2852.82
650.61	3106.77
650.80	3006.42
650.99	3127.25
651.18	3200.98
651.36	3149.78
651.55	2836.44
651.74	3059.67
651.93	3000.27
652.12	2926.55
652.31	2930.64
652.49	2920.40
652.68	2863.06
652.87	3264.46
653.06	3010.51
653.25	3168.21
653.44	2994.13
653.62	3198.93
653.81	2858.96
654.00	2830.29
654.19	3102.67
654.38	3495.88
654.56	3002.32
654.75	2832.34
654.94	3141.58
655.13	3028.95
655.32	2764.76
655.51	2908.12
655.69	2910.16
655.88	3141.58
656.07	2717.65
656.26	2920.40
656.45	2826.20
656.63	3039.19
656.82	2916.31
657.01	3067.86
657.20	2969.55
657.38	3270.61
657.57	2832.34
657.76	2711.51
657.95	3123.15
658.14	2940.88
658.32	3045.33
658.51	2777.05
658.70	3035.09
658.89	2961.36
659.08	2934.74
659.26	3102.67
659.45	2924.50
659.64	3039.19
659.83	2867.16
660.01	3229.65
660.20	2977.75
660.39	3260.37
660.58	2605.02
660.76	2934.74
660.95	2760.66
661.14	2963.41
661.33	2754.52
661.51	2873.30
661.70	2906.07
661.89	3102.67
662.08	2914.26
662.26	2721.75
662.45	2838.48
662.64	3317.71
662.83	2963.41
663.01	2701.27
663.20	2947.03
663.39	3266.51
663.58	2846.68
663.76	2801.62
663.95	3071.95
664.14	2844.63
664.32	2889.68
664.51	2807.77
664.70	2725.85
664.89	3006.42
665.07	2666.46
665.26	3018.71
665.45	2877.40
665.64	3035.09
665.82	2852.82
666.01	3020.75
666.20	2703.32
666.38	3051.47
666.57	3114.96
666.76	4769.72
666.95	10964.82
667.13	17610.48
667.32	21518.01
667.51	24145.55
667.69	24737.41
667.88	20838.08
668.07	15111.96
668.25	12803.90
668.44	11118.42
668.63	9664.36
668.81	8591.23
669.00	7358.35
669.19	6778.78
669.38	5822.38
669.56	5154.74
669.75	4423.61
669.94	3938.24
670.12	3389.39
670.31	3239.89
670.50	3145.68
670.68	3180.50
670.87	3100.62
671.06	2807.77
671.24	3010.51
671.43	3344.33
671.62	3000.27
671.80	2908.12
671.99	2963.41
672.18	3000.27
672.36	3137.49
672.55	2924.50
672.74	2918.36
672.92	2865.11
673.11	3114.96
673.29	2731.99
673.48	3012.56
673.67	2926.55
673.85	3147.73
674.04	2760.66
674.23	2934.74
674.41	3340.24
674.60	2789.33
674.79	2625.50
674.97	2813.91
675.16	3096.53
675.34	3121.10
675.53	2865.11
675.72	2959.31
675.90	3334.09
676.09	2912.21
676.28	3043.28
676.46	2731.99
676.65	3205.07
676.83	2822.10
677.02	2920.40
677.21	3026.90
677.39	3108.82
677.58	2822.10
677.77	2779.09
677.95	2791.38
678.14	2940.88
678.32	2858.96
678.51	2787.29
678.70	3157.97
678.88	2844.63
679.07	2955.22
679.25	2836.44
679.44	2875.35
679.63	2844.63
679.81	2961.36
680.00	3071.95
680.18	2926.55
680.37	3235.79
680.55	3076.05
680.74	2760.66
680.93	2654.17
681.11	3080.14
681.30	3033.04
681.48	2838.48
681.67	2871.25
681.85	3055.57
682.04	2781.14
682.23	3028.95
682.41	2975.70
682.60	2965.46
682.78	2938.84
682.97	2777.05
683.15	2852.82
683.34	2979.79
683.53	3213.26
683.71	2674.65
683.90	2893.78
684.08	3278.80
684.27	2910.16
684.45	2922.45
684.64	2947.03
684.82	2973.65
685.01	3074.00
685.19	2944.98
685.38	3147.73
685.57	2910.16
685.75	2854.87
685.94	2828.24
686.12	2809.81
686.31	2893.78
686.49	3330.00
686.68	2594.78
686.86	2924.50
687.05	2885.59
687.23	3153.87
687.42	2832.34
687.60	2723.80
687.79	3178.45
687.97	3252.17
688.16	3047.38
688.34	2996.18
688.53	2666.46
688.71	3086.29
688.90	3209.17
689.08	2832.34
689.27	2701.27
689.45	3237.84
689.64	2910.16
689.82	2914.26
690.01	3028.95
690.19	3016.66
690.38	2951.12
690.56	2963.41
690.75	2793.43
690.93	2885.59
691.12	2861.01
691.30	2889.68
691.49	2904.02
691.67	2914.26
691.86	3274.70
692.04	2891.73
692.23	2908.12
692.41	2990.03
692.60	3176.40
692.78	3090.38
692.97	3024.85
693.15	3055.57
693.34	3069.91
693.52	3053.52
693.71	2904.02
693.89	2922.45
694.08	2709.46
694.26	2883.54
694.44	3205.07
694.63	3162.06
694.81	2752.47
695.00	2899.92
695.18	3141.58
695.37	3411.92
695.55	2955.22
695.74	2912.21
695.92	2893.78
696.10	3327.95
696.29	2752.47
696.47	2756.57
696.66	2760.66
696.84	2813.91
697.03	2856.92
697.21	3139.54
697.40	4446.14
697.58	3155.92
697.76	2820.05
697.95	2768.85
698.13	2867.16
698.32	2832.34
698.50	2848.72
698.68	2934.74
698.87	3020.75
699.05	3291.09
699.24	2818.00
699.42	2770.90
699.61	2992.08
699.79	3012.56
699.97	2879.44
700.16	2752.47
700.34	2781.14
700.53	3051.47
700.71	3086.29
700.89	2985.94
701.08	2869.20
701.26	2936.79
701.45	3217.36
701.63	2834.39
701.81	2873.30
702.00	2820.05
702.18	2869.20
702.37	2904.02
702.55	3119.06
702.73	3002.32
702.92	2787.29
703.10	3211.22
703.28	3059.67
703.47	2766.81
703.65	3145.68
703.84	2977.75
704.02	2830.29
704.20	3237.84
704.39	2756.57
704.57	2756.57
704.75	3166.16
704.94	3047.38
705.12	2990.03
705.30	3387.34
705.49	6690.71
705.67	12582.72
705.86	18304.74
706.04	20360.91
706.22	22824.61
706.41	22048.43
706.59	16594.69
706.77	12898.11
706.96	11286.36
707.14	10313.57
707.32	8869.75
707.51	7962.50
707.69	6408.09
707.87	5359.53
708.06	4487.10
708.24	4073.41
708.42	3598.28
708.61	3790.79
708.79	2983.89
708.97	2947.03
709.16	3043.28
709.34	3022.80
709.52	2891.73
709.71	2881.49
709.89	3145.68
710.07	2863.06
710.26	2815.96
710.44	2897.88
710.62	3057.62
710.80	2992.08
710.99	2953.17
711.17	3049.43
711.35	2895.83
711.54	2805.72
711.72	3133.39
711.90	2985.94
712.09	3065.81
712.27	2818.00
712.45	3039.19
712.63	2844.63
712.82	3030.99
713.00	3041.23
713.18	2987.99
713.37	2994.13
713.55	3098.58
713.73	3051.47
713.91	2969.55
714.10	2842.58
714.28	2932.69
714.46	3024.85
714.65	2932.69
714.83	2930.64
715.01	3074.00
715.19	2969.55
715.38	2789.33
715.56	3041.23
715.74	2791.38
715.92	2887.64
716.11	3074.00
716.29	2557.91
716.47	2998.23
716.65	2973.65
716.84	2674.65
717.02	2893.78
717.20	2783.19
717.38	2797.53
717.57	2994.13
717.75	2914.26
717.93	2879.44
718.11	3065.81
718.30	2775.00
718.48	2899.92
718.66	3196.88
718.84	3098.58
719.03	2858.96
719.21	2746.33
719.39	3284.94
719.57	3065.81
719.75	2971.60
719.94	2850.77
720.12	2961.36
720.30	3020.75
720.48	3012.56
720.67	2842.58
720.85	2858.96
721.03	2910.16
721.21	2832.34
721.39	2953.17
721.58	2977.75
721.76	3035.09
721.94	2949.08
722.12	3006.42
722.30	3209.17
722.49	2861.01
722.67	2957.27
722.85	2936.79
723.03	2783.19
723.21	2955.22
723.40	2863.06
723.58	3049.43
723.76	3000.27
723.94	3190.74
724.12	2920.40
724.30	3096.53
724.49	3123.15
724.67	2822.10
724.85	3022.80
725.03	2758.61
725.21	3119.06
725.40	3098.58
725.58	2891.73
725.76	3125.20
725.94	3051.47
726.12	2805.72
726.30	2924.50
726.49	2828.24
726.67	2877.40
726.85	3102.67
727.03	3397.58
727.21	4337.60
727.39	5463.98
727.57	5697.45
727.76	6141.86
727.94	6150.05
728.12	5603.24
728.30	4575.16
728.48	4435.90
728.66	4104.13
728.84	4016.07
729.03	3530.70
729.21	3385.29
729.39	3192.78
729.57	3053.52
729.75	3096.53
729.93	2879.44
730.11	2764.76
730.30	2881.49
730.48	3012.56
730.66	2940.88
730.84	3010.51
731.02	3022.80
731.20	2783.19
731.38	2858.96
731.56	2742.23
731.74	2787.29
731.93	2998.23
732.11	2973.65
732.29	2850.77
732.47	3078.10
732.65	2987.99
732.83	2949.08
733.01	3008.47
733.19	2838.48
733.37	3069.91
733.56	2875.35
733.74	2772.95
733.92	3295.18
734.10	2910.16
734.28	3020.75
734.46	2605.02
734.64	2904.02
734.82	2924.50
735.00	2801.62
735.18	2918.36
735.36	3035.09
735.54	2996.18
735.73	2836.44
735.91	2992.08
736.09	3262.41
736.27	2971.60
736.45	2899.92
736.63	2580.44
736.81	2863.06
736.99	3137.49
737.17	3084.24
737.35	2818.00
737.53	3035.09
737.71	2957.27
737.89	3092.43
738.07	2807.77
738.25	2820.05
738.43	2727.89
738.61	2867.16
738.80	2719.70
738.98	2715.61
739.16	2912.21
739.34	2742.23
739.52	3172.30
739.70	2979.79
739.88	3137.49
740.06	3014.61
740.24	2580.44
740.42	3280.85
740.60	2707.41
740.78	2750.42
740.96	2635.74
741.14	2881.49
741.32	3016.66
741.50	2691.03
741.68	3131.34
741.86	3168.21
742.04	2777.05
742.22	2848.72
742.40	2846.68
742.58	3028.95
742.76	2875.35
742.94	3008.47
743.12	2621.40
743.30	2951.12
743.48	3076.05
743.66	2875.35
743.84	2891.73
744.02	2891.73
744.20	2998.23
744.38	2820.05
744.56	2881.49
744.74	3330.00
744.92	3071.95
745.10	3010.51
745.28	3010.51
745.46	3319.76
745.64	2981.84
745.82	3018.71
746.00	2861.01
746.18	3051.47
746.36	2787.29
746.54	2895.83
746.72	2885.59
746.90	2805.72
747.08	3141.58
747.26	2891.73
747.44	2996.18
747.62	3065.81
747.80	2936.79
747.98	2916.31
748.15	2772.95
748.33	3332.05
748.51	2961.36
748.69	2934.74
748.87	2709.46
749.05	2906.07
749.23	3000.27
749.41	2918.36
749.59	2856.92
749.77	3092.43
749.95	2951.12
750.13	2764.76
750.31	3037.14
750.49	3002.32
750.67	3086.29
750.85	3006.42
751.03	2899.92
751.20	3319.76
751.38	3000.27
751.56	2838.48
751.74	2889.68
751.92	2955.22
752.10	2813.91
752.28	3016.66
752.46	2818.00
752.64	2924.50
752.82	2920.40
753.00	2963.41
753.18	2775.00
753.35	2957.27
753.53	2985.94
753.71	2852.82
753.89	2992.08
754.07	3053.52
754.25	3137.49
754.43	2947.03
754.61	2789.33
754.79	3086.29
754.97	2875.35
755.14	3043.28
755.32	2783.19
755.50	3000.27
755.68	2947.03
755.86	2717.65
756.04	2811.86
756.22	2641.88
756.40	3069.91
756.57	3125.20
756.75	2885.59
756.93	3147.73
757.11	3090.38
757.29	2807.77
757.47	2756.57
757.65	2824.15
757.82	2598.87
758.00	2750.42
758.18	2768.85
758.36	2838.48
758.54	3315.66
758.72	2719.70
758.90	3002.32
759.07	3049.43
759.25	2799.57
759.43	2932.69
759.61	2738.13
759.79	4239.30
759.97	3121.10
760.15	2922.45
760.32	2873.30
760.50	3045.33
760.68	3289.04
760.86	2680.79
761.04	3098.58
761.22	3139.54
761.39	2979.79
761.57	2867.16
761.75	2850.77
761.93	2992.08
762.11	2971.60
762.28	2904.02
762.46	2754.52
762.64	3151.82
762.82	2750.42
763.00	2828.24
763.18	3051.47
763.35	2717.65
763.53	3166.16
763.71	2967.51
763.89	2779.09
764.07	2969.55
764.24	2938.84
764.42	3069.91
764.60	2879.44
764.78	3047.38
764.96	3123.15
765.13	3012.56
765.31	2758.61
765.49	3102.67
765.67	2799.57
765.84	2883.54
766.02	2762.71
766.20	2752.47
766.38	3127.25
766.56	2914.26
766.73	2987.99
766.91	3041.23
767.09	2928.60
767.27	2953.17
767.44	2770.90
767.62	3147.73
767.80	3028.95
767.98	2811.86
768.15	2906.07
768.33	3102.67
768.51	3092.43
768.69	2981.84
768.87	2838.48
769.04	2881.49
769.22	3422.16
769.40	3082.19
769.58	2987.99
769.75	3069.91
769.93	3237.84
770.11	2811.86
770.28	2791.38
770.46	3080.14
770.64	3114.96
770.82	2873.30
770.99	2729.94
771.17	3090.38
771.35	2891.73
771.53	2928.60
771.70	2865.11
771.88	3082.19
772.06	2901.97
772.23	2871.25
772.41	2961.36
772.59	2871.25
772.77	2803.67
772.94	2858.96
773.12	3008.47
773.30	2863.06
773.47	2938.84
773.65	2793.43
773.83	3024.85
774.01	3000.27
774.18	2711.51
774.36	2873.30
774.54	2709.46
774.71	3012.56
774.89	2772.95
775.07	2775.00
775.24	2846.68
775.42	2842.58
775.60	3286.99
775.78	2873.30
775.95	2693.08
776.13	2731.99
776.31	2682.84
776.48	2963.41
776.66	3084.24
776.84	2944.98
777.01	2861.01
777.19	2787.29
777.37	2879.44
777.54	3129.30
777.72	3346.38
777.90	2967.51
778.07	2895.83
778.25	3585.99
778.43	3131.34
778.60	2846.68
778.78	2924.50
778.96	3289.04
779.13	2697.17
779.31	2957.27
779.49	2930.64
779.66	3041.23
779.84	2852.82
780.01	2867.16
780.19	2744.28
780.37	3147.73
780.54	3090.38
780.72	2752.47
780.90	2920.40
781.07	2963.41
781.25	2914.26
781.43	3061.71
781.60	2813.91
781.78	3211.22
781.95	2969.55
782.13	2789.33
782.31	2871.25
782.48	2674.65
782.66	2994.13
782.83	3078.10
783.01	2992.08
783.19	3133.39
783.36	2924.50
783.54	2809.81
783.72	2932.69
783.89	2953.17
784.07	2893.78
784.24	2942.93
784.42	3061.71
784.60	2957.27
784.77	3006.42
784.95	2684.89
785.12	2791.38
785.30	3039.19
785.47	2746.33
785.65	2760.66
785.83	2893.78
786.00	2858.96
786.18	2967.51
786.35	2738.13
786.53	2770.90
786.71	3067.86
786.88	3006.42
787.06	2897.88
787.23	2854.87
787.41	2727.89
787.58	2963.41
787.76	2750.42
787.94	2887.64
788.11	2951.12
788.29	2791.38
788.46	2777.05
788.64	2686.94
788.81	2947.03
788.99	2920.40
789.16	2832.34
789.34	2861.01
789.52	2885.59
789.69	2908.12
789.87	2695.13
790.04	2736.09
790.22	2951.12
790.39	3299.28
790.57	2744.28
790.74	2807.77
790.92	3127.25
791.09	2734.04
791.27	2979.79
791.44	3012.56
791.62	2926.55
791.79	3110.86
791.97	2826.20
792.15	3196.88
792.32	3063.76
792.50	3166.16
792.67	3024.85
792.85	3164.11
793.02	3000.27
793.20	2916.31
793.37	2656.22
793.55	2764.76
793.72	2723.80
793.90	3055.57
794.07	2818.00
794.25	2742.23
794.42	3014.61
794.60	2998.23
794.77	2889.68
794.95	3041.23
795.12	3074.00
795.30	2965.46
795.47	2627.54
795.65	3215.31
795.82	3002.32
796.00	2815.96
796.17	2955.22
796.34	2686.94
796.52	3002.32
796.69	3147.73
796.87	3014.61
797.04	2930.64
797.22	3153.87
797.39	3092.43
797.57	3057.62
797.74	2961.36
797.92	3057.62
798.09	2826.20
798.27	3123.15
798.44	2852.82
798.62	2846.68
798.79	2975.70
798.96	2981.84
799.14	2836.44
799.31	3420.11
799.49	2938.84
799.66	2863.06
799.84	2820.05
800.01	2748.37
800.19	3016.66
800.36	2674.65
800.53	2953.17
800.71	3059.67
800.88	3188.69
801.06	2815.96
801.23	2815.96
801.41	2863.06
801.58	2828.24
801.75	2842.58
801.93	2930.64
802.10	3002.32
802.28	2942.93
802.45	2795.48
802.63	3030.99
802.80	3211.22
802.97	2928.60
803.15	2889.68
803.32	2746.33
803.50	2906.07
803.67	2828.24
803.84	2836.44
804.02	2885.59
804.19	2955.22
804.37	2586.58
804.54	2660.31
804.71	2772.95
804.89	2957.27
805.06	2713.56
805.24	2801.62
805.41	2695.13
805.58	2856.92
805.76	3373.00
805.93	2895.83
806.10	3084.24
806.28	3092.43
806.45	2985.94
806.63	3002.32
806.80	2858.96
806.97	2990.03
807.15	3133.39
807.32	2912.21
807.49	2850.77
807.67	2789.33
807.84	3051.47
808.01	2668.50
808.19	3028.95
808.36	3301.33
808.54	2916.31
808.71	2856.92
808.88	2744.28
809.06	3211.22
809.23	3170.26
809.40	2779.09
809.58	2822.10
809.75	2998.23
809.92	2846.68
810.10	3069.91
810.27	2871.25
810.44	3006.42
810.62	3108.82
810.79	2928.60
810.96	2815.96
811.14	2881.49
811.31	2990.03
811.48	3047.38
811.66	2904.02
811.83	3246.03
812.00	3043.28
812.18	2949.08
812.35	3194.83
812.52	2938.84
812.69	2928.60
812.87	2871.25
813.04	2772.95
813.21	2875.35
813.39	2838.48
813.56	2762.71
813.73	3119.06
813.91	2797.53
814.08	2994.13
814.25	2846.68
814.42	2656.22
814.60	2865.11
814.77	2922.45
814.94	2844.63
815.12	2957.27
815.29	3258.32
815.46	2834.39
815.63	2904.02
815.81	2879.44
815.98	2887.64
816.15	2906.07
816.33	2877.40
816.50	2840.53
816.67	3035.09
816.84	2897.88
817.02	2754.52
817.19	2885.59
817.36	2963.41
817.53	3043.28
817.71	2815.96
817.88	2916.31
818.05	2977.75
818.22	2944.98
818.40	3071.95
818.57	2836.44
818.74	3080.14
818.91	3016.66
819.09	3051.47
819.26	2969.55
819.43	2824.15
819.60	2914.26
819.78	3020.75
819.95	2965.46
820.12	2779.09
820.29	3231.69
820.47	3149.78
820.64	2836.44
820.81	2766.81
820.98	2754.52
821.15	2869.20
821.33	3024.85
821.50	2787.29
821.67	3098.58
821.84	2858.96
822.02	2965.46
822.19	3153.87
822.36	2822.10
822.53	2791.38
822.70	2775.00
822.88	2947.03
823.05	3194.83
823.22	2858.96
823.39	2891.73
823.56	2942.93
823.74	3237.84
823.91	2770.90
824.08	2815.96
824.25	2791.38
824.42	3205.07
824.60	2664.41
824.77	2861.01
824.94	2865.11
825.11	3049.43
825.28	2770.90
825.45	2953.17
825.63	3002.32
825.80	2770.90
825.97	2944.98
826.14	2881.49
826.31	2652.12
826.48	3000.27
826.66	2799.57
826.83	2844.63
827.00	2797.53
827.17	2762.71
827.34	2922.45
827.51	2822.10
827.69	2938.84
827.86	2742.23
828.03	2797.53
828.20	2879.44
828.37	2813.91
828.54	3002.32
828.71	2791.38
828.89	3016.66
829.06	2922.45
829.23	3178.45
829.40	2818.00
829.57	2795.48
829.74	3094.48
829.91	2867.16
830.09	2760.66
830.26	3084.24
830.43	3211.22
830.60	2914.26
830.77	2873.30
830.94	3078.10
831.11	3065.81
831.28	2955.22
831.46	2918.36
831.63	2852.82
831.80	3102.67
831.97	2842.58
832.14	2840.53
832.31	2844.63
832.48	3020.75
832.65	3090.38
832.82	2901.97
832.99	2957.27
833.17	2740.18
833.34	3223.50
833.51	2883.54
833.68	2580.44
833.85	3059.67
834.02	2830.29
834.19	2711.51
834.36	2781.14
834.53	3033.04
834.70	3160.02
834.87	2906.07
835.04	2645.98
835.22	2858.96
835.39	2951.12
835.56	2703.32
835.73	2752.47
835.90	3086.29
836.07	2801.62
836.24	2873.30
836.41	2756.57
836.58	2885.59
836.75	3145.68
836.92	2744.28
837.09	2613.21
837.26	3127.25
837.43	3020.75
837.60	2766.81
837.77	2731.99
837.94	3176.40
838.12	3137.49
838.29	2602.97
838.46	2639.83
838.63	2758.61
838.80	3157.97
838.97	2775.00
839.14	2709.46
839.31	3024.85
839.48	3008.47
839.65	2709.46
839.82	2865.11
839.99	3016.66
840.16	3041.23
840.33	2721.75
840.50	2807.77
840.67	2848.72
840.84	2652.12
841.01	2648.02
841.18	2654.17
841.35	2918.36
841.52	3110.86
841.69	3117.01
841.86	2832.34
842.03	2955.22
842.20	3016.66
842.37	2660.31
842.54	2717.65
842.71	3008.47
842.88	2746.33
843.05	2709.46
843.22	2764.76
843.39	3119.06
843.56	2910.16
843.73	2723.80
843.90	2861.01
844.07	2971.60
844.24	3090.38
844.41	2815.96
844.58	2723.80
844.75	3069.91
844.92	3139.54
845.09	2754.52
845.26	2719.70
845.43	3053.52
845.60	2828.24
845.77	2881.49
845.94	2731.99
846.10	3108.82
846.27	2729.94
846.44	2629.59
846.61	2682.84
846.78	3030.99
846.95	3084.24
847.12	2768.85
847.29	2752.47
847.46	2918.36
847.63	3102.67
847.80	2725.85
847.97	2762.71
848.14	3315.66
848.31	2834.39
848.48	2562.01
848.65	2748.37
848.82	2854.87
848.98	3370.96
849.15	2805.72
849.32	2869.20
849.49	3094.48
849.66	2975.70
849.83	2750.42
850.00	2742.23
850.17	3071.95
850.34	2848.72
850.51	2697.17
850.68	2783.19
850.85	3350.48
851.01	3069.91
851.18	2691.03
851.35	2748.37
851.52	3051.47
851.69	3127.25
851.86	2650.07
852.03	2645.98
852.20	3002.32
852.37	2918.36
852.53	2582.49
852.70	2693.08
852.87	2963.41
853.04	3026.90
853.21	2736.09
853.38	2967.51
853.55	3239.89
853.72	3248.08
853.89	2607.06
854.05	2695.13
854.22	2842.58
854.39	2854.87
854.56	2723.80
854.73	2928.60
854.90	2715.61
855.07	2895.83
855.23	2648.02
855.40	2699.22
855.57	2938.84
855.74	2639.83
855.91	2922.45
856.08	2637.78
856.25	2754.52
856.41	2877.40
856.58	2746.33
856.75	2684.89
856.92	2742.23
857.09	3096.53
857.26	2580.44
857.42	2838.48
857.59	3067.86
857.76	2928.60
857.93	2734.04
858.10	2779.09
858.27	2750.42
858.43	3030.99
858.60	2721.75
858.77	2674.65
858.94	2893.78
859.11	3076.05
859.27	2846.68
859.44	2625.50
859.61	3342.28
859.78	3067.86
859.95	2736.09
860.12	2734.04
860.28	3381.20
860.45	3284.94
860.62	2648.02
860.79	2877.40
860.95	2959.31
861.12	2869.20
861.29	2668.50
861.46	2715.61
861.63	2875.35
861.79	3035.09
861.96	2615.26
862.13	2768.85
862.30	3121.10
862.47	2815.96
862.63	2656.22
862.80	2805.72
862.97	3137.49
863.14	3055.57
863.30	2770.90
863.47	2609.11
863.64	3237.84
863.81	2926.55
863.97	2785.24
864.14	2781.14
864.31	2942.93
864.48	2971.60
864.65	2785.24
864.81	2879.44
864.98	3078.10
865.15	3147.73
865.32	2891.73
865.48	2809.81
865.65	3303.37
865.82	2957.27
865.98	2783.19
866.15	2793.43
866.32	2891.73
866.49	2969.55
866.65	2828.24
866.82	2719.70
866.99	3014.61
867.16	2826.20
867.32	2762.71
867.49	2691.03
867.66	2924.50
867.83	2924.50
867.99	2633.69
868.16	2793.43
868.33	2795.48
868.49	2953.17
868.66	2744.28
868.83	2764.76
868.99	2920.40
869.16	2985.94
869.33	2887.64
869.50	2762.71
869.66	3037.14
869.83	2924.50
870.00	2652.12
870.16	2791.38
870.33	2985.94
870.50	3119.06
870.66	2762.71
870.83	2789.33
871.00	3020.75
871.17	3041.23
871.33	2766.81
871.50	2756.57
871.67	2899.92
871.83	2797.53
872.00	2826.20
872.17	2758.61
872.33	3278.80
872.50	3157.97
872.67	2717.65
872.83	2740.18
873.00	2953.17
873.17	2932.69
873.33	2865.11
873.50	2822.10
873.67	2852.82
873.83	2858.96
874.00	2721.75
874.16	2848.72
874.33	2998.23
874.50	2832.34
874.66	2731.99
874.83	2834.39
875.00	3225.55
875.16	3151.82
875.33	2848.72
875.50	2572.25
875.66	2850.77
875.83	2957.27
875.99	2787.29
876.16	2852.82
876.33	2865.11
876.49	2891.73
876.66	2731.99
876.83	2795.48
876.99	2697.17
877.16	2951.12
877.32	2703.32
877.49	2867.16
877.66	3080.14
877.82	3235.79
877.99	2840.53
878.15	2942.93
878.32	3039.19
878.49	3014.61
878.65	2688.98
878.82	2983.89
878.98	2885.59
879.15	3141.58
879.32	2914.26
879.48	2895.83
879.65	2887.64
879.81	2928.60
879.98	2768.85
880.15	2785.24
880.31	3063.76
880.48	2881.49
880.64	2893.78
880.81	2852.82
880.97	3293.13
881.14	3227.60
881.31	2701.27
881.47	2920.40
881.64	2983.89
881.80	2715.61
881.97	2904.02
882.13	2805.72
882.30	2789.33
882.47	2826.20
882.63	2637.78
882.80	2699.22
882.96	2889.68
883.13	3141.58
883.29	2762.71
883.46	2768.85
883.62	3346.38
883.79	3016.66
883.95	2875.35
884.12	2727.89
884.29	3192.78
884.45	2883.54
884.62	2746.33
884.78	2744.28
884.95	3215.31
885.11	2854.87
885.28	2873.30
885.44	2752.47
885.61	3096.53
885.77	3180.50
885.94	2901.97
886.10	2799.57
886.27	3045.33
886.43	3217.36
886.60	2957.27
886.76	2754.52
886.93	2811.86
887.09	2994.13
887.26	2670.55
887.42	2756.57
887.59	3063.76
887.75	3317.71
887.92	2949.08
888.08	2848.72
888.25	3291.09
888.41	3233.74
888.58	2799.57
888.74	2633.69
888.91	2832.34
>>>>>End Processed Spectral Data<<<<<
