SpectraSuite Data File
++++++++++++++++++++++++++++++++++++
Date: Thu May 05 21:11:14 CEST 2016
User: root
Dark Spectrum Present: No
Reference Spectrum Present: No
Number of Sampled Component Spectra: 1
Spectrometers: USB4C02835
Integration Time (usec): 100000 (USB4C02835)
Spectra Averaged: 1 (USB4C02835)
Boxcar Smoothing: 0 (USB4C02835)
Correct for Electrical Dark: No (USB4C02835)
Strobe/Lamp Enabled: No (USB4C02835)
Correct for Detector Non-linearity: No (USB4C02835)
Correct for Stray Light: No (USB4C02835)
Number of Pixels in Processed Spectrum: 3648
>>>>>Begin Processed Spectral Data<<<<<
177.47	2146.27
177.69	2146.27
177.91	2146.27
178.13	2119.65
178.36	2207.71
178.58	2797.53
178.80	2936.79
179.02	2731.99
179.24	2815.96
179.46	2605.02
179.68	2668.50
179.90	2904.02
180.13	3037.14
180.35	2519.00
180.57	2484.19
180.79	3043.28
181.01	2967.51
181.23	2674.65
181.45	2795.48
181.67	3028.95
181.90	3084.24
182.12	2756.57
182.34	2531.29
182.56	3012.56
182.78	3112.91
183.00	2592.73
183.22	2697.17
183.44	2627.54
183.66	3524.55
183.89	2785.24
184.11	2654.17
184.33	3078.10
184.55	3205.07
184.77	2643.93
184.99	2611.16
185.21	2932.69
185.43	3477.45
185.65	2664.41
185.87	2627.54
186.10	3334.09
186.32	3282.89
186.54	2787.29
186.76	2775.00
186.98	3164.11
187.20	2918.36
187.42	2705.37
187.64	2582.49
187.86	3030.99
188.08	3194.83
188.30	2609.11
188.52	2803.67
188.75	3223.50
188.97	3233.74
189.19	2666.46
189.41	2715.61
189.63	3123.15
189.85	2961.36
190.07	2523.10
190.29	2529.24
190.51	3084.24
190.73	2799.57
190.95	2852.82
191.17	2719.70
191.39	2650.07
191.61	2865.11
191.84	2613.21
192.06	2713.56
192.28	2703.32
192.50	3579.85
192.72	2828.24
192.94	2842.58
193.16	3192.78
193.38	3082.19
193.60	2572.25
193.82	2758.61
194.04	3155.92
194.26	3010.51
194.48	2719.70
194.70	2717.65
194.92	2963.41
195.14	3139.54
195.36	2660.31
195.58	2731.99
195.80	2990.03
196.02	2840.53
196.24	2680.79
196.46	2740.18
196.69	2906.07
196.91	3463.12
197.13	2686.94
197.35	2766.81
197.57	3246.03
197.79	3114.96
198.01	2697.17
198.23	2731.99
198.45	3131.34
198.67	2779.09
198.89	2576.34
199.11	2785.24
199.33	2818.00
199.55	2631.64
199.77	2598.87
199.99	2826.20
200.21	2967.51
200.43	3104.72
200.65	2539.48
200.87	2590.68
201.09	3014.61
201.31	2867.16
201.53	2711.51
201.75	2791.38
201.97	2979.79
202.19	2873.30
202.41	2760.66
202.63	2783.19
202.85	3096.53
203.07	3006.42
203.29	2639.83
203.51	2580.44
203.73	2914.26
203.95	3477.45
204.17	2660.31
204.39	2791.38
204.61	2994.13
204.83	2877.40
205.05	2893.78
205.27	2756.57
205.49	3356.62
205.71	2957.27
205.93	2551.77
206.15	2635.74
206.37	3030.99
206.59	2959.31
206.81	2531.29
207.03	2541.53
207.25	2787.29
207.47	3207.12
207.69	2680.79
207.91	2914.26
208.13	3198.93
208.34	2893.78
208.56	2615.26
208.78	2705.37
209.00	2938.84
209.22	2914.26
209.44	2697.17
209.66	2645.98
209.88	3026.90
210.10	2994.13
210.32	2719.70
210.54	2807.77
210.76	2951.12
210.98	3102.67
211.20	2500.57
211.42	2768.85
211.64	3225.55
211.86	3035.09
212.08	2795.48
212.30	2615.26
212.52	2949.08
212.74	2996.18
212.96	2789.33
213.17	2703.32
213.39	3086.29
213.61	3323.85
213.83	2666.46
214.05	2580.44
214.27	3180.50
214.49	2818.00
214.71	2613.21
214.93	2754.52
215.15	3002.32
215.37	3235.79
215.59	2508.76
215.81	2740.18
216.03	3213.26
216.24	2922.45
216.46	2729.94
216.68	2768.85
216.90	3178.45
217.12	3178.45
217.34	2660.31
217.56	2836.44
217.78	3237.84
218.00	3069.91
218.22	2734.04
218.44	2818.00
218.66	2979.79
218.87	3325.90
219.09	2635.74
219.31	2617.30
219.53	2922.45
219.75	2990.03
219.97	2666.46
220.19	2705.37
220.41	2996.18
220.63	3309.52
220.85	2705.37
221.06	2795.48
221.28	3235.79
221.50	3114.96
221.72	2697.17
221.94	2568.15
222.16	3028.95
222.38	3164.11
222.60	2629.59
222.82	2699.22
223.03	3151.82
223.25	2746.33
223.47	2707.41
223.69	2942.93
223.91	3213.26
224.13	3035.09
224.35	2551.77
224.57	2861.01
224.78	3096.53
225.00	2803.67
225.22	2729.94
225.44	2697.17
225.66	3203.02
225.88	2897.88
226.10	2809.81
226.32	2688.98
226.53	3268.56
226.75	2838.48
226.97	2725.85
227.19	2746.33
227.41	2756.57
227.63	2912.21
227.85	2602.97
228.06	2680.79
228.28	3024.85
228.50	3145.68
228.72	2551.77
228.94	2658.26
229.16	2697.17
229.37	2781.14
229.59	2643.93
229.81	2854.87
230.03	2865.11
230.25	2779.09
230.47	2582.49
230.69	2662.36
230.90	3133.39
231.12	2930.64
231.34	2734.04
231.56	2762.71
231.78	2729.94
232.00	3059.67
232.21	2693.08
232.43	2721.75
232.65	2611.16
232.87	3067.86
233.09	2607.06
233.30	2566.10
233.52	3198.93
233.74	2959.31
233.96	2740.18
234.18	2846.68
234.40	2920.40
234.61	3373.00
234.83	2607.06
235.05	2605.02
235.27	3393.48
235.49	3176.40
235.70	2592.73
235.92	2805.72
236.14	3084.24
236.36	3389.39
236.58	2617.30
236.79	2691.03
237.01	2994.13
237.23	3000.27
237.45	2891.73
237.67	2691.03
237.88	3088.34
238.10	3346.38
238.32	2600.92
238.54	2605.02
238.76	2926.55
238.97	2799.57
239.19	2637.78
239.41	2707.41
239.63	3123.15
239.85	2856.92
240.06	2658.26
240.28	2609.11
240.50	3149.78
240.72	2977.75
240.93	2555.86
241.15	2815.96
241.37	3037.14
241.59	3196.88
241.81	2742.23
242.02	2648.02
242.24	3057.62
242.46	3164.11
242.68	2551.77
242.89	2584.54
243.11	3235.79
243.33	3002.32
243.55	2678.74
243.76	2707.41
243.98	2781.14
244.20	2979.79
244.42	2684.89
244.64	2695.13
244.85	2752.47
245.07	2787.29
245.29	2652.12
245.51	2731.99
245.72	3092.43
245.94	3172.30
246.16	2611.16
246.38	2660.31
246.59	2865.11
246.81	2818.00
247.03	2633.69
247.24	2559.96
247.46	2881.49
247.68	3037.14
247.90	2648.02
248.11	2648.02
248.33	3084.24
248.55	2969.55
248.77	2719.70
248.98	2748.37
249.20	3250.13
249.42	3035.09
249.64	2666.46
249.85	2736.09
250.07	2856.92
250.29	3131.34
250.50	2709.46
250.72	2699.22
250.94	3045.33
251.16	3483.59
251.37	2654.17
251.59	2731.99
251.81	3059.67
252.02	3190.74
252.24	2682.84
252.46	2832.34
252.68	2867.16
252.89	2901.97
253.11	2566.10
253.33	2852.82
253.54	3260.37
253.76	2779.09
253.98	2717.65
254.20	2596.82
254.41	2770.90
254.63	2848.72
254.85	2545.63
255.06	2748.37
255.28	3082.19
255.50	2967.51
255.71	2611.16
255.93	2529.24
256.15	2990.03
256.36	3117.01
256.58	2555.86
256.80	2648.02
257.02	3008.47
257.23	2891.73
257.45	2785.24
257.67	2820.05
257.88	2881.49
258.10	3061.71
258.32	2682.84
258.53	2738.13
258.75	3360.72
258.97	2889.68
259.18	2611.16
259.40	2682.84
259.62	3237.84
259.83	3332.05
260.05	2652.12
260.27	3461.07
260.48	3110.86
260.70	2789.33
260.92	2586.58
261.13	2678.74
261.35	2992.08
261.57	3110.86
261.78	2555.86
262.00	2586.58
262.22	3086.29
262.43	2842.58
262.65	2721.75
262.86	2697.17
263.08	3340.24
263.30	3037.14
263.51	2555.86
263.73	2652.12
263.95	3194.83
264.16	2844.63
264.38	2547.67
264.60	2688.98
264.81	2971.60
265.03	3155.92
265.25	3170.26
265.46	2609.11
265.68	3194.83
265.89	3123.15
266.11	2545.63
266.33	2703.32
266.54	3241.93
266.76	3121.10
266.98	2848.72
267.19	2858.96
267.41	3143.63
267.62	2971.60
267.84	2551.77
268.06	2799.57
268.27	3041.23
268.49	3223.50
268.70	2686.94
268.92	2639.83
269.14	2830.29
269.35	2746.33
269.57	2699.22
269.79	2791.38
270.00	3020.75
270.22	3286.99
270.43	2562.01
270.65	2508.76
270.87	2981.84
271.08	3053.52
271.30	2772.95
271.51	2707.41
271.73	3088.34
271.95	3153.87
272.16	2645.98
272.38	2799.57
272.59	2912.21
272.81	3131.34
273.02	2629.59
273.24	2734.04
273.46	3153.87
273.67	2744.28
273.89	2506.71
274.10	2668.50
274.32	3227.60
274.54	3041.23
274.75	2777.05
274.97	2803.67
275.18	3049.43
275.40	3125.20
275.61	2752.47
275.83	2811.86
276.05	2820.05
276.26	3041.23
276.48	2791.38
276.69	2772.95
276.91	2879.44
277.12	3215.31
277.34	2828.24
277.55	2938.84
277.77	2944.98
277.99	2885.59
278.20	2742.23
278.42	2719.70
278.63	2826.20
278.85	2820.05
279.06	2688.98
279.28	2852.82
279.49	3131.34
279.71	3055.57
279.93	2748.37
280.14	2775.00
280.36	2938.84
280.57	3145.68
280.79	2928.60
281.00	2691.03
281.22	2922.45
281.43	3186.64
281.65	2586.58
281.86	2682.84
282.08	3098.58
282.29	3416.01
282.51	2684.89
282.73	2758.61
282.94	2729.94
283.16	3110.86
283.37	2824.15
283.59	2801.62
283.80	3112.91
284.02	3020.75
284.23	2920.40
284.45	2852.82
284.66	2811.86
284.88	2934.74
285.09	2701.27
285.31	2885.59
285.52	3090.38
285.74	2701.27
285.95	3000.27
286.17	2883.54
286.38	3264.46
286.60	2840.53
286.81	2783.19
287.03	2832.34
287.24	3074.00
287.46	3096.53
287.67	2820.05
287.89	2981.84
288.10	2957.27
288.32	3035.09
288.53	3012.56
288.75	2867.16
288.96	3102.67
289.18	2940.88
289.39	2756.57
289.61	2822.10
289.82	3370.96
290.04	3325.90
290.25	2600.92
290.47	2881.49
290.68	2922.45
290.90	3114.96
291.11	2596.82
291.33	2920.40
291.54	2793.43
291.76	2863.06
291.97	2957.27
292.18	2867.16
292.40	2891.73
292.61	2881.49
292.83	3184.59
293.04	2815.96
293.26	3080.14
293.47	2922.45
293.69	2717.65
293.90	2703.32
294.12	3135.44
294.33	2951.12
294.55	2777.05
294.76	3024.85
294.97	3313.61
295.19	3340.24
295.40	2781.14
295.62	2873.30
295.83	3131.34
296.05	2877.40
296.26	3010.51
296.48	2822.10
296.69	2934.74
296.90	2994.13
297.12	2852.82
297.33	2957.27
297.55	3065.81
297.76	3076.05
297.98	3010.51
298.19	2869.20
298.41	2953.17
298.62	2789.33
298.83	3024.85
299.05	2906.07
299.26	2936.79
299.48	2805.72
299.69	2867.16
299.90	2830.29
300.12	2885.59
300.33	3127.25
300.55	2818.00
300.76	2824.15
300.98	2785.24
301.19	3141.58
301.40	2801.62
301.62	2768.85
301.83	3071.95
302.05	3043.28
302.26	2756.57
302.47	2846.68
302.69	2791.38
302.90	3010.51
303.12	2617.30
303.33	2920.40
303.54	3375.05
303.76	2883.54
303.97	2756.57
304.19	2977.75
304.40	2785.24
304.61	3094.48
304.83	2916.31
305.04	2861.01
305.26	3008.47
305.47	2904.02
305.68	2824.15
305.90	2736.09
306.11	3147.73
306.33	2959.31
306.54	2688.98
306.75	2731.99
306.97	2740.18
307.18	2820.05
307.39	2822.10
307.61	2934.74
307.82	2990.03
308.04	3104.72
308.25	2594.78
308.46	2932.69
308.68	2940.88
308.89	2990.03
309.10	2955.22
309.32	2803.67
309.53	2965.46
309.74	3055.57
309.96	2727.89
310.17	2883.54
310.39	2930.64
310.60	3059.67
310.81	2824.15
311.03	2695.13
311.24	3065.81
311.45	3028.95
311.67	3090.38
311.88	2863.06
312.09	2922.45
312.31	2922.45
312.52	2781.14
312.73	2832.34
312.95	2768.85
313.16	2824.15
313.37	2987.99
313.59	2936.79
313.80	3164.11
314.01	3182.54
314.23	2764.76
314.44	2787.29
314.65	2824.15
314.87	2863.06
315.08	2793.43
315.29	2836.44
315.51	2791.38
315.72	2754.52
315.93	2926.55
316.15	2811.86
316.36	2949.08
316.57	2975.70
316.79	2805.72
317.00	2734.04
317.21	3180.50
317.43	2852.82
317.64	2748.37
317.85	2705.37
318.07	2803.67
318.28	2885.59
318.49	2799.57
318.70	2996.18
318.92	2977.75
319.13	3012.56
319.34	2932.69
319.56	2805.72
319.77	3061.71
319.98	3139.54
320.20	3047.38
320.41	2957.27
320.62	3080.14
320.83	2820.05
321.05	2961.36
321.26	2901.97
321.47	3053.52
321.69	3135.44
321.90	2625.50
322.11	2754.52
322.32	3012.56
322.54	3311.57
322.75	2895.83
322.96	3590.09
323.18	2826.20
323.39	2705.37
323.60	2705.37
323.81	2908.12
324.03	2826.20
324.24	2969.55
324.45	2904.02
324.66	2818.00
324.88	3129.30
325.09	3225.55
325.30	2797.53
325.52	2688.98
325.73	3012.56
325.94	2748.37
326.15	2688.98
326.37	2664.41
326.58	3114.96
326.79	3360.72
327.00	2752.47
327.22	2731.99
327.43	2967.51
327.64	2783.19
327.85	2883.54
328.07	2775.00
328.28	3252.17
328.49	2885.59
328.70	2883.54
328.92	2813.91
329.13	2969.55
329.34	3069.91
329.55	3057.62
329.76	2938.84
329.98	2861.01
330.19	3286.99
330.40	2861.01
330.61	2912.21
330.83	3028.95
331.04	2844.63
331.25	2858.96
331.46	2777.05
331.68	2834.39
331.89	3170.26
332.10	2797.53
332.31	2641.88
332.52	3008.47
332.74	3272.65
332.95	2586.58
333.16	2832.34
333.37	3088.34
333.58	2842.58
333.80	2797.53
334.01	2635.74
334.22	2906.07
334.43	2856.92
334.64	2826.20
334.86	2686.94
335.07	2869.20
335.28	3215.31
335.49	2750.42
335.70	2877.40
335.92	3205.07
336.13	3334.09
336.34	2904.02
336.55	2834.39
336.76	3098.58
336.98	2719.70
337.19	2756.57
337.40	2959.31
337.61	3456.97
337.82	2947.03
338.04	2916.31
338.25	2658.26
338.46	2930.64
338.67	2934.74
338.88	2731.99
339.09	2723.80
339.31	2846.68
339.52	2846.68
339.73	2729.94
339.94	2836.44
340.15	3049.43
340.36	2873.30
340.58	2869.20
340.79	2658.26
341.00	3164.11
341.21	2840.53
341.42	3010.51
341.63	2789.33
341.85	3074.00
342.06	3057.62
342.27	2789.33
342.48	2994.13
342.69	2787.29
342.90	3000.27
343.12	3137.49
343.33	2717.65
343.54	3184.59
343.75	3180.50
343.96	2942.93
344.17	2768.85
344.38	2930.64
344.60	2822.10
344.81	2762.71
345.02	2762.71
345.23	3114.96
345.44	3393.48
345.65	2863.06
345.86	2865.11
346.07	3020.75
346.29	2813.91
346.50	2936.79
346.71	2858.96
346.92	3315.66
347.13	3321.81
347.34	2836.44
347.55	2627.54
347.76	2990.03
347.98	2772.95
348.19	2852.82
348.40	2897.88
348.61	2936.79
348.82	3221.45
349.03	2854.87
349.24	2721.75
349.45	3280.85
349.66	2676.70
349.88	2772.95
350.09	2680.79
350.30	3231.69
350.51	3162.06
350.72	2887.64
350.93	2740.18
351.14	2848.72
351.35	3061.71
351.56	2815.96
351.77	2750.42
351.99	3143.63
352.20	3278.80
352.41	2924.50
352.62	2654.17
352.83	3018.71
353.04	3028.95
353.25	2793.43
353.46	2799.57
353.67	3153.87
353.88	2703.32
354.09	2703.32
354.30	2869.20
354.52	3151.82
354.73	2899.92
354.94	2830.29
355.15	2934.74
355.36	3313.61
355.57	2861.01
355.78	2770.90
355.99	2750.42
356.20	2983.89
356.41	3176.40
356.62	2928.60
356.83	2858.96
357.04	3241.93
357.25	2703.32
357.46	2727.89
357.68	2617.30
357.89	2746.33
358.10	2955.22
358.31	2797.53
358.52	2793.43
358.73	2815.96
358.94	2789.33
359.15	2826.20
359.36	2936.79
359.57	2985.94
359.78	2942.93
359.99	3022.80
360.20	2713.56
360.41	2930.64
360.62	3057.62
360.83	2883.54
361.04	2746.33
361.25	3047.38
361.46	3262.41
361.67	2975.70
361.88	2842.58
362.09	3145.68
362.30	3100.62
362.51	2723.80
362.72	2772.95
362.93	3198.93
363.14	3090.38
363.35	2897.88
363.56	2705.37
363.78	3168.21
363.99	3110.86
364.20	2723.80
364.41	2863.06
364.62	3330.00
364.83	3121.10
365.04	2820.05
365.25	2885.59
365.46	3278.80
365.67	2832.34
365.88	2877.40
366.09	2828.24
366.30	2906.07
366.51	2985.94
366.72	2693.08
366.93	2850.77
367.14	2918.36
367.35	3178.45
367.56	2783.19
367.77	2971.60
367.98	2975.70
368.18	3024.85
368.39	2858.96
368.60	2701.27
368.81	3172.30
369.02	3014.61
369.23	2805.72
369.44	2666.46
369.65	2836.44
369.86	3157.97
370.07	2994.13
370.28	2748.37
370.49	3086.29
370.70	2990.03
370.91	2766.81
371.12	2656.22
371.33	3174.35
371.54	2873.30
371.75	2914.26
371.96	2627.54
372.17	2955.22
372.38	2889.68
372.59	2779.09
372.80	2734.04
373.01	2947.03
373.22	2973.65
373.43	2838.48
373.64	2680.79
373.85	3186.64
374.06	3248.08
374.26	2990.03
374.47	2846.68
374.68	3233.74
374.89	3137.49
375.10	2791.38
375.31	2877.40
375.52	3022.80
375.73	3061.71
375.94	2676.70
376.15	2934.74
376.36	2879.44
376.57	2922.45
376.78	2787.29
376.99	2836.44
377.20	3200.98
377.40	2971.60
377.61	2983.89
377.82	2750.42
378.03	3262.41
378.24	3110.86
378.45	2854.87
378.66	2852.82
378.87	2731.99
379.08	2727.89
379.29	2787.29
379.50	2885.59
379.71	2973.65
379.91	3065.81
380.12	2875.35
380.33	2801.62
380.54	2928.60
380.75	2981.84
380.96	2867.16
381.17	2803.67
381.38	3000.27
381.59	2994.13
381.80	2877.40
382.00	3008.47
382.21	2965.46
382.42	3270.61
382.63	3094.48
382.84	3043.28
383.05	3082.19
383.26	3278.80
383.47	2813.91
383.68	2779.09
383.88	3135.44
384.09	3049.43
384.30	3022.80
384.51	2899.92
384.72	2947.03
384.93	2801.62
385.14	2854.87
385.35	2959.31
385.55	2766.81
385.76	3176.40
385.97	2801.62
386.18	2721.75
386.39	2873.30
386.60	2807.77
386.81	2770.90
387.02	2695.13
387.22	2770.90
387.43	3014.61
387.64	2856.92
387.85	3059.67
388.06	3000.27
388.27	3966.92
388.48	7110.55
388.68	10796.89
388.89	13156.15
389.10	14217.00
389.31	13985.58
389.52	11233.11
389.73	9574.25
389.93	8716.16
390.14	8021.89
390.35	7286.67
390.56	6610.84
390.77	5537.71
390.98	4302.78
391.18	3708.87
391.39	3459.02
391.60	2924.50
391.81	3045.33
392.02	2877.40
392.23	3340.24
392.43	2979.79
392.64	2922.45
392.85	2871.25
393.06	3256.27
393.27	3008.47
393.47	2754.52
393.68	2875.35
393.89	2842.58
394.10	3213.26
394.31	2799.57
394.52	2768.85
394.72	2881.49
394.93	3282.89
395.14	2676.70
395.35	2940.88
395.56	2881.49
395.76	2977.75
395.97	2940.88
396.18	3057.62
396.39	2996.18
396.60	3575.75
396.80	3145.68
397.01	3010.51
397.22	3131.34
397.43	3188.69
397.64	2727.89
397.84	2893.78
398.05	3356.62
398.26	2977.75
398.47	2977.75
398.67	3008.47
398.88	2971.60
399.09	3117.01
399.30	2838.48
399.51	2899.92
399.71	2807.77
399.92	3006.42
400.13	2932.69
400.34	2840.53
400.54	2994.13
400.75	3266.51
400.96	3000.27
401.17	3133.39
401.37	3074.00
401.58	2965.46
401.79	2840.53
402.00	2971.60
402.21	3506.12
402.41	3133.39
402.62	3106.77
402.83	3268.56
403.04	3327.95
403.24	3717.06
403.45	2951.12
403.66	3207.12
403.87	3123.15
404.07	3293.13
404.28	3088.34
404.49	3180.50
404.70	3053.52
404.90	3067.86
405.11	2852.82
405.32	2930.64
405.52	2887.64
405.73	2961.36
405.94	2783.19
406.15	2877.40
406.35	3063.76
406.56	3117.01
406.77	2832.34
406.98	2852.82
407.18	2877.40
407.39	3295.18
407.60	2799.57
407.80	2895.83
408.01	2893.78
408.22	3041.23
408.43	2770.90
408.63	2887.64
408.84	3188.69
409.05	3010.51
409.25	2805.72
409.46	2838.48
409.67	2912.21
409.88	2885.59
410.08	2877.40
410.29	2899.92
410.50	3114.96
410.70	2963.41
410.91	2760.66
411.12	2934.74
411.32	3010.51
411.53	2891.73
411.74	2875.35
411.95	2959.31
412.15	3004.37
412.36	3164.11
412.57	3080.14
412.77	3018.71
412.98	2938.84
413.19	2920.40
413.39	3035.09
413.60	2846.68
413.81	3227.60
414.01	2787.29
414.22	2832.34
414.43	3049.43
414.63	2895.83
414.84	3200.98
415.05	2820.05
415.25	2633.69
415.46	3186.64
415.67	2877.40
415.87	2897.88
416.08	2748.37
416.29	2985.94
416.49	2994.13
416.70	2867.16
416.91	2772.95
417.11	2897.88
417.32	3219.41
417.53	2906.07
417.73	2881.49
417.94	2996.18
418.15	3043.28
418.35	2895.83
418.56	2848.72
418.77	3391.44
418.97	3080.14
419.18	2891.73
419.38	2600.92
419.59	3000.27
419.80	3200.98
420.00	2762.71
420.21	2869.20
420.42	3223.50
420.62	3047.38
420.83	2779.09
421.04	2772.95
421.24	3033.04
421.45	3117.01
421.65	2848.72
421.86	2879.44
422.07	3069.91
422.27	3010.51
422.48	2836.44
422.69	2734.04
422.89	2944.98
423.10	2901.97
423.30	2789.33
423.51	2875.35
423.72	3092.43
423.92	3037.14
424.13	2754.52
424.33	2955.22
424.54	3125.20
424.75	2967.51
424.95	3071.95
425.16	2873.30
425.36	2928.60
425.57	3135.44
425.78	3006.42
425.98	2979.79
426.19	2854.87
426.39	2848.72
426.60	2938.84
426.81	2981.84
427.01	3076.05
427.22	2869.20
427.42	2680.79
427.63	2723.80
427.83	3133.39
428.04	3307.47
428.25	2916.31
428.45	2930.64
428.66	3209.17
428.86	2920.40
429.07	2916.31
429.28	2897.88
429.48	2947.03
429.69	2871.25
429.89	2883.54
430.10	2738.13
430.30	3078.10
430.51	3147.73
430.71	2723.80
430.92	2924.50
431.13	2877.40
431.33	3112.91
431.54	2818.00
431.74	3117.01
431.95	3321.81
432.15	2877.40
432.36	2887.64
432.56	2869.20
432.77	3323.85
432.98	3323.85
433.18	2883.54
433.39	2756.57
433.59	2926.55
433.80	3311.57
434.00	2985.94
434.21	2820.05
434.41	2897.88
434.62	3413.96
434.82	2717.65
435.03	2793.43
435.23	3108.82
435.44	2746.33
435.64	2830.29
435.85	2897.88
436.06	3151.82
436.26	3190.74
436.47	2856.92
436.67	2797.53
436.88	2938.84
437.08	3260.37
437.29	2977.75
437.49	2961.36
437.70	3110.86
437.90	3006.42
438.11	3051.47
438.31	2922.45
438.52	3246.03
438.72	3061.71
438.93	3094.48
439.13	2901.97
439.34	3149.78
439.54	2885.59
439.75	2895.83
439.95	2936.79
440.16	2850.77
440.36	2955.22
440.57	2924.50
440.77	2928.60
440.98	2957.27
441.18	3037.14
441.39	2850.77
441.59	2713.56
441.80	3327.95
442.00	2981.84
442.21	2949.08
442.41	2664.41
442.62	3112.91
442.82	2883.54
443.02	2811.86
443.23	2904.02
443.43	2867.16
443.64	3162.06
443.84	2678.74
444.05	2963.41
444.25	2992.08
444.46	2940.88
444.66	2779.09
444.87	3123.15
445.07	2688.98
445.28	2959.31
445.48	3004.37
445.69	2930.64
445.89	3393.48
446.09	2836.44
446.30	3139.54
446.50	3262.41
446.71	4679.61
446.91	5617.58
447.12	6580.12
447.32	6842.26
447.53	6815.64
447.73	5703.59
447.93	4958.13
448.14	4722.62
448.34	4716.47
448.55	4093.89
448.75	4011.97
448.96	3905.48
449.16	3606.47
449.36	3526.60
449.57	3055.57
449.77	2912.21
449.98	2901.97
450.18	3041.23
450.39	2865.11
450.59	2955.22
450.79	2979.79
451.00	2803.67
451.20	2981.84
451.41	2893.78
451.61	3076.05
451.81	2895.83
452.02	2832.34
452.22	2805.72
452.43	2908.12
452.63	2891.73
452.84	2893.78
453.04	2772.95
453.24	3063.76
453.45	2840.53
453.65	2848.72
453.86	2891.73
454.06	3000.27
454.26	2994.13
454.47	2861.01
454.67	3016.66
454.87	3098.58
455.08	2912.21
455.28	2971.60
455.49	3006.42
455.69	2836.44
455.89	3379.15
456.10	2942.93
456.30	2801.62
456.51	3117.01
456.71	3051.47
456.91	2979.79
457.12	2885.59
457.32	3041.23
457.52	2824.15
457.73	2955.22
457.93	3016.66
458.14	2875.35
458.34	2686.94
458.54	2791.38
458.75	2799.57
458.95	3194.83
459.15	3067.86
459.36	2987.99
459.56	2828.24
459.76	3301.33
459.97	3049.43
460.17	2815.96
460.37	3020.75
460.58	2969.55
460.78	3078.10
460.99	2813.91
461.19	2881.49
461.39	2877.40
461.60	2930.64
461.80	2824.15
462.00	2779.09
462.21	2959.31
462.41	2805.72
462.61	2664.41
462.82	2727.89
463.02	3076.05
463.22	3090.38
463.43	2912.21
463.63	2758.61
463.83	3190.74
464.04	3008.47
464.24	2822.10
464.44	2844.63
464.64	2996.18
464.85	3067.86
465.05	2858.96
465.25	2742.23
465.46	2944.98
465.66	3028.95
465.86	2928.60
466.07	2803.67
466.27	2959.31
466.47	2770.90
466.68	2623.45
466.88	2971.60
467.08	3133.39
467.29	3174.35
467.49	2879.44
467.69	2951.12
467.89	3123.15
468.10	2904.02
468.30	2953.17
468.50	2951.12
468.71	3155.92
468.91	2838.48
469.11	3065.81
469.31	2891.73
469.52	2850.77
469.72	3209.17
469.92	3057.62
470.13	2871.25
470.33	3018.71
470.53	3041.23
470.73	3221.45
470.94	3526.60
471.14	3590.09
471.34	4204.48
471.54	3741.64
471.75	3502.03
471.95	3405.77
472.15	3338.19
472.36	3405.77
472.56	3215.31
472.76	3397.58
472.96	3387.34
473.17	3080.14
473.37	3035.09
473.57	3035.09
473.77	3098.58
473.98	2975.70
474.18	2738.13
474.38	3520.46
474.58	2901.97
474.79	2727.89
474.99	3002.32
475.19	3117.01
475.39	2889.68
475.60	2910.16
475.80	2846.68
476.00	3135.44
476.20	2904.02
476.41	2981.84
476.61	2957.27
476.81	3243.98
477.01	2861.01
477.21	3035.09
477.42	3018.71
477.62	2734.04
477.82	3129.30
478.02	2916.31
478.23	2914.26
478.43	2951.12
478.63	2914.26
478.83	2895.83
479.03	2844.63
479.24	3315.66
479.44	3323.85
479.64	2699.22
479.84	2729.94
480.04	2854.87
480.25	3149.78
480.45	2748.37
480.65	2801.62
480.85	3364.81
481.06	2979.79
481.26	2920.40
481.46	2908.12
481.66	3139.54
481.86	2838.48
482.06	3071.95
482.27	2897.88
482.47	2901.97
482.67	3090.38
482.87	2824.15
483.07	2861.01
483.28	2869.20
483.48	2795.48
483.68	2834.39
483.88	2807.77
484.08	2680.79
484.29	2832.34
484.49	2908.12
484.69	2699.22
484.89	3246.03
485.09	3166.16
485.29	2858.96
485.50	2975.70
485.70	2955.22
485.90	3200.98
486.10	2848.72
486.30	2854.87
486.50	3233.74
486.71	3026.90
486.91	2926.55
487.11	2955.22
487.31	2772.95
487.51	3002.32
487.71	2820.05
487.91	2742.23
488.12	2858.96
488.32	2621.40
488.52	2836.44
488.72	2602.97
488.92	3041.23
489.12	3196.88
489.32	2992.08
489.53	2867.16
489.73	2709.46
489.93	3231.69
490.13	2842.58
490.33	2656.22
490.53	3037.14
490.73	3133.39
490.94	2676.70
491.14	2961.36
491.34	3131.34
491.54	3110.86
491.74	3624.90
491.94	4200.38
492.14	4669.37
492.34	4693.94
492.54	4358.08
492.75	3672.01
492.95	3895.24
493.15	3727.30
493.35	3545.03
493.55	3487.69
493.75	3444.68
493.95	3434.44
494.15	3057.62
494.35	2852.82
494.56	3010.51
494.76	2883.54
494.96	3024.85
495.16	2840.53
495.36	2973.65
495.56	3026.90
495.76	2936.79
495.96	2863.06
496.16	2842.58
496.36	3373.00
496.56	2854.87
496.77	2953.17
496.97	2992.08
497.17	3200.98
497.37	2605.02
497.57	2938.84
497.77	3014.61
497.97	2789.33
498.17	2848.72
498.37	2879.44
498.57	3071.95
498.77	2858.96
498.97	2994.13
499.17	3123.15
499.38	2861.01
499.58	3114.96
499.78	3006.42
499.98	3014.61
500.18	3039.19
500.38	2844.63
500.58	2983.89
500.78	3387.34
500.98	5506.99
501.18	7180.18
501.38	8941.43
501.58	9572.21
501.78	9607.02
501.98	8007.56
502.18	6748.06
502.38	5676.97
502.58	5791.66
502.78	5035.96
502.98	4759.48
503.18	4532.15
503.38	4360.13
503.59	3659.72
503.79	3723.21
503.99	3442.64
504.19	3430.35
504.39	3422.16
504.59	3305.42
504.79	3241.93
504.99	3473.36
505.19	3176.40
505.39	2895.83
505.59	3178.45
505.79	3262.41
505.99	3241.93
506.19	2842.58
506.39	3076.05
506.59	2893.78
506.79	2904.02
506.99	2998.23
507.19	2842.58
507.39	3057.62
507.59	2740.18
507.79	2924.50
507.99	2766.81
508.19	3030.99
508.39	2889.68
508.59	2914.26
508.79	2871.25
508.99	3385.29
509.19	2858.96
509.39	2940.88
509.59	2770.90
509.79	2803.67
509.99	3035.09
510.19	3000.27
510.39	3020.75
510.59	3010.51
510.79	2822.10
510.99	2709.46
511.19	2838.48
511.39	3274.70
511.59	3235.79
511.79	2998.23
511.99	2844.63
512.19	3243.98
512.38	2998.23
512.58	2740.18
512.78	2840.53
512.98	3258.32
513.18	3188.69
513.38	2811.86
513.58	2996.18
513.78	2977.75
513.98	2914.26
514.18	2904.02
514.38	2885.59
514.58	3014.61
514.78	2877.40
514.98	2750.42
515.18	2854.87
515.38	2787.29
515.58	3246.03
515.78	2772.95
515.98	2877.40
516.18	3069.91
516.38	3000.27
516.57	2781.14
516.77	2861.01
516.97	3182.54
517.17	2811.86
517.37	2711.51
517.57	2904.02
517.77	3065.81
517.97	2820.05
518.17	2854.87
518.37	2717.65
518.57	2856.92
518.77	2877.40
518.97	2858.96
519.16	2918.36
519.36	3229.65
519.56	2863.06
519.76	2824.15
519.96	2844.63
520.16	3307.47
520.36	2779.09
520.56	3039.19
520.76	2803.67
520.96	2981.84
521.16	3137.49
521.35	3071.95
521.55	3028.95
521.75	2910.16
521.95	2861.01
522.15	2818.00
522.35	2746.33
522.55	2871.25
522.75	3135.44
522.95	2846.68
523.14	2688.98
523.34	3049.43
523.54	2861.01
523.74	2922.45
523.94	2906.07
524.14	2752.47
524.34	3096.53
524.54	3076.05
524.73	2858.96
524.93	3123.15
525.13	2942.93
525.33	2764.76
525.53	3114.96
525.73	3080.14
525.93	2961.36
526.13	2844.63
526.32	2811.86
526.52	3129.30
526.72	3080.14
526.92	2854.87
527.12	2772.95
527.32	2783.19
527.52	3088.34
527.71	2955.22
527.91	2840.53
528.11	2979.79
528.31	3033.04
528.51	2826.20
528.71	2975.70
528.90	3088.34
529.10	3172.30
529.30	2979.79
529.50	2609.11
529.70	3055.57
529.90	2910.16
530.09	2869.20
530.29	2707.41
530.49	2824.15
530.69	3524.55
530.89	3041.23
531.09	2932.69
531.28	2914.26
531.48	3225.55
531.68	2914.26
531.88	2852.82
532.08	3151.82
532.28	2920.40
532.47	2955.22
532.67	3030.99
532.87	3076.05
533.07	2832.34
533.27	2977.75
533.46	2889.68
533.66	3004.37
533.86	3059.67
534.06	2842.58
534.26	2879.44
534.45	2840.53
534.65	3082.19
534.85	2879.44
535.05	2869.20
535.25	3131.34
535.44	2750.42
535.64	2947.03
535.84	2955.22
536.04	2910.16
536.24	2871.25
536.43	2791.38
536.63	2899.92
536.83	2912.21
537.03	3063.76
537.22	2648.02
537.42	2645.98
537.62	3020.75
537.82	2799.57
538.02	3004.37
538.21	2924.50
538.41	3469.26
538.61	3074.00
538.81	2873.30
539.00	2992.08
539.20	2693.08
539.40	2953.17
539.60	2815.96
539.79	3069.91
539.99	2969.55
540.19	2846.68
540.39	2861.01
540.58	2926.55
540.78	3137.49
540.98	2975.70
541.18	3047.38
541.37	2932.69
541.57	2920.40
541.77	3022.80
541.97	2754.52
542.16	2658.26
542.36	2883.54
542.56	2920.40
542.76	3074.00
542.95	2998.23
543.15	3012.56
543.35	3065.81
543.54	2775.00
543.74	2772.95
543.94	3274.70
544.14	2852.82
544.33	2895.83
544.53	2836.44
544.73	3024.85
544.93	2953.17
545.12	2775.00
545.32	2846.68
545.52	2887.64
545.71	2729.94
545.91	2717.65
546.11	2856.92
546.30	2869.20
546.50	2996.18
546.70	2916.31
546.90	2889.68
547.09	2645.98
547.29	2922.45
547.49	2971.60
547.68	2828.24
547.88	2838.48
548.08	3108.82
548.27	3196.88
548.47	2801.62
548.67	2969.55
548.87	3026.90
549.06	2863.06
549.26	2746.33
549.46	3045.33
549.65	2897.88
549.85	2891.73
550.05	2822.10
550.24	2754.52
550.44	2973.65
550.64	2828.24
550.83	2926.55
551.03	3182.54
551.23	3153.87
551.42	2983.89
551.62	2883.54
551.82	2930.64
552.01	2936.79
552.21	3123.15
552.41	2918.36
552.60	3135.44
552.80	2879.44
553.00	2793.43
553.19	2928.60
553.39	3297.23
553.59	2875.35
553.78	2920.40
553.98	2920.40
554.17	2873.30
554.37	3006.42
554.57	2899.92
554.76	2779.09
554.96	2856.92
555.16	3080.14
555.35	2820.05
555.55	3039.19
555.75	3018.71
555.94	3035.09
556.14	2658.26
556.33	2944.98
556.53	3018.71
556.73	2947.03
556.92	2858.96
557.12	2838.48
557.32	3389.39
557.51	3219.41
557.71	2938.84
557.90	3092.43
558.10	3262.41
558.30	2893.78
558.49	2822.10
558.69	2811.86
558.88	2992.08
559.08	2920.40
559.28	2889.68
559.47	2885.59
559.67	3168.21
559.86	3366.86
560.06	2877.40
560.26	2873.30
560.45	3047.38
560.65	2951.12
560.84	3139.54
561.04	2844.63
561.24	3102.67
561.43	2797.53
561.63	3129.30
561.82	2977.75
562.02	3022.80
562.22	2807.77
562.41	2770.90
562.61	2818.00
562.80	2805.72
563.00	3420.11
563.19	2957.27
563.39	2977.75
563.59	3069.91
563.78	2764.76
563.98	2652.12
564.17	2781.14
564.37	2754.52
564.56	2871.25
564.76	2725.85
564.96	2955.22
565.15	3084.24
565.35	3434.44
565.54	2865.11
565.74	2910.16
565.93	3088.34
566.13	3043.28
566.32	2912.21
566.52	3024.85
566.71	3016.66
566.91	3164.11
567.11	2944.98
567.30	2793.43
567.50	3063.76
567.69	3041.23
567.89	2787.29
568.08	2684.89
568.28	2992.08
568.47	2844.63
568.67	2912.21
568.86	2781.14
569.06	3162.06
569.25	2875.35
569.45	2705.37
569.64	2832.34
569.84	2914.26
570.04	3168.21
570.23	2875.35
570.43	2834.39
570.62	3053.52
570.82	3282.89
571.01	2830.29
571.21	2734.04
571.40	2828.24
571.60	3207.12
571.79	3049.43
571.99	2865.11
572.18	2840.53
572.38	3125.20
572.57	2828.24
572.77	2944.98
572.96	3479.50
573.16	3055.57
573.35	2869.20
573.55	3051.47
573.74	2981.84
573.94	2854.87
574.13	2836.44
574.33	3028.95
574.52	3205.07
574.71	2996.18
574.91	2873.30
575.10	2826.20
575.30	2949.08
575.49	2801.62
575.69	2795.48
575.88	2850.77
576.08	3016.66
576.27	3137.49
576.47	2772.95
576.66	2992.08
576.86	3239.89
577.05	3053.52
577.25	3014.61
577.44	3024.85
577.64	2928.60
577.83	3162.06
578.02	2842.58
578.22	2983.89
578.41	3164.11
578.61	2994.13
578.80	2779.09
579.00	2879.44
579.19	2977.75
579.39	3035.09
579.58	2996.18
579.77	2908.12
579.97	3155.92
580.16	3135.44
580.36	3063.76
580.55	3026.90
580.75	3012.56
580.94	2953.17
581.13	3053.52
581.33	3129.30
581.52	2891.73
581.72	3266.51
581.91	2969.55
582.11	2918.36
582.30	3162.06
582.49	2977.75
582.69	3166.16
582.88	2904.02
583.08	3057.62
583.27	3168.21
583.47	2944.98
583.66	2807.77
583.85	2850.77
584.05	2969.55
584.24	2975.70
584.44	2940.88
584.63	3137.49
584.82	3184.59
585.02	3112.91
585.21	3006.42
585.41	3086.29
585.60	2983.89
585.79	3125.20
585.99	3170.26
586.18	3039.19
586.37	3936.20
586.57	5687.21
586.76	16584.45
586.96	35155.43
587.15	48311.58
587.34	56689.82
587.54	60869.73
587.73	53949.64
587.93	38444.47
588.12	29154.88
588.31	24100.50
588.51	21063.36
588.70	19539.67
588.89	17293.05
589.09	14438.18
589.28	12291.91
589.47	9777.00
589.67	7481.23
589.86	5924.77
590.06	4620.22
590.25	4071.36
590.44	3571.66
590.64	3286.99
590.83	3198.93
591.02	3258.32
591.22	2908.12
591.41	2940.88
591.60	2971.60
591.80	3428.30
591.99	2654.17
592.18	2885.59
592.38	3233.74
592.57	2975.70
592.76	3002.32
592.96	2861.01
593.15	2918.36
593.34	3227.60
593.54	2844.63
593.73	2985.94
593.92	2996.18
594.12	3082.19
594.31	2861.01
594.50	3049.43
594.70	3106.77
594.89	3459.02
595.08	2815.96
595.28	2947.03
595.47	3526.60
595.66	3170.26
595.86	2703.32
596.05	2791.38
596.24	2983.89
596.43	3311.57
596.63	3016.66
596.82	2965.46
597.01	3110.86
597.21	3278.80
597.40	2822.10
597.59	2856.92
597.79	3000.27
597.98	3141.58
598.17	2983.89
598.36	2924.50
598.56	3215.31
598.75	2881.49
598.94	2887.64
599.14	2920.40
599.33	2891.73
599.52	3131.34
599.71	3026.90
599.91	2836.44
600.10	3045.33
600.29	2973.65
600.48	2942.93
600.68	2957.27
600.87	3076.05
601.06	2852.82
601.26	2967.51
601.45	3020.75
601.64	2979.79
601.83	3330.00
602.03	2754.52
602.22	2734.04
602.41	3196.88
602.60	3405.77
602.80	3008.47
602.99	2858.96
603.18	2895.83
603.37	2992.08
603.57	2772.95
603.76	2863.06
603.95	3108.82
604.14	2838.48
604.34	2811.86
604.53	2863.06
604.72	3088.34
604.91	3147.73
605.10	2906.07
605.30	2701.27
605.49	3360.72
605.68	3153.87
605.87	2877.40
606.07	2865.11
606.26	2973.65
606.45	2977.75
606.64	2895.83
606.84	2760.66
607.03	2996.18
607.22	3188.69
607.41	2918.36
607.60	2824.15
607.80	3145.68
607.99	3004.37
608.18	2850.77
608.37	2865.11
608.56	2815.96
608.76	3231.69
608.95	3008.47
609.14	2901.97
609.33	3033.04
609.52	3254.22
609.72	2938.84
609.91	3024.85
610.10	3074.00
610.29	3356.62
610.48	3000.27
610.68	2893.78
610.87	2926.55
611.06	3092.43
611.25	2852.82
611.44	3018.71
611.63	2957.27
611.83	3215.31
612.02	2707.41
612.21	2969.55
612.40	2684.89
612.59	2740.18
612.79	2758.61
612.98	2942.93
613.17	3243.98
613.36	3004.37
613.55	3022.80
613.74	2846.68
613.93	3094.48
614.13	3051.47
614.32	2996.18
614.51	2895.83
614.70	2863.06
614.89	2918.36
615.08	2975.70
615.28	3297.23
615.47	2764.76
615.66	3037.14
615.85	2883.54
616.04	2940.88
616.23	2928.60
616.42	2940.88
616.62	2877.40
616.81	2883.54
617.00	3065.81
617.19	3100.62
617.38	2918.36
617.57	2871.25
617.76	3037.14
617.95	3141.58
618.15	2932.69
618.34	3110.86
618.53	2695.13
618.72	3135.44
618.91	3010.51
619.10	2957.27
619.29	2981.84
619.48	2942.93
619.68	2854.87
619.87	2791.38
620.06	2830.29
620.25	3149.78
620.44	2772.95
620.63	2877.40
620.82	2938.84
621.01	3057.62
621.20	2852.82
621.39	2967.51
621.59	2987.99
621.78	2938.84
621.97	2936.79
622.16	2951.12
622.35	3074.00
622.54	3188.69
622.73	2865.11
622.92	2707.41
623.11	3131.34
623.30	2904.02
623.49	2965.46
623.68	2803.67
623.88	3190.74
624.07	2895.83
624.26	2869.20
624.45	2901.97
624.64	2992.08
624.83	3147.73
625.02	2822.10
625.21	2912.21
625.40	2901.97
625.59	3231.69
625.78	2885.59
625.97	3047.38
626.16	3262.41
626.35	3037.14
626.54	2922.45
626.74	3047.38
626.93	2953.17
627.12	2904.02
627.31	2914.26
627.50	2990.03
627.69	3141.58
627.88	2801.62
628.07	2775.00
628.26	2762.71
628.45	2820.05
628.64	2826.20
628.83	2932.69
629.02	2697.17
629.21	3080.14
629.40	3059.67
629.59	2799.57
629.78	2824.15
629.97	2985.94
630.16	3051.47
630.35	2899.92
630.54	2899.92
630.73	2824.15
630.92	2981.84
631.11	2805.72
631.30	2936.79
631.49	3088.34
631.68	2924.50
631.87	2922.45
632.06	2779.09
632.25	3461.07
632.44	3022.80
632.63	2887.64
632.82	2813.91
633.01	2912.21
633.20	3096.53
633.39	2848.72
633.58	2760.66
633.77	3121.10
633.96	3102.67
634.15	2938.84
634.34	3035.09
634.53	3098.58
634.72	2871.25
634.91	2656.22
635.10	2932.69
635.29	3209.17
635.48	2928.60
635.67	2752.47
635.86	2781.14
636.05	3264.46
636.24	2904.02
636.43	2826.20
636.62	2975.70
636.81	2602.97
637.00	2981.84
637.19	2953.17
637.38	2916.31
637.57	2977.75
637.76	3016.66
637.95	3090.38
638.14	2856.92
638.33	3059.67
638.52	2955.22
638.71	2762.71
638.89	2756.57
639.08	3413.96
639.27	3162.06
639.46	2924.50
639.65	3348.43
639.84	3481.55
640.03	3526.60
640.22	3215.31
640.41	3264.46
640.60	3010.51
640.79	3071.95
640.98	2934.74
641.17	3133.39
641.36	3164.11
641.55	3076.05
641.74	2740.18
641.92	2832.34
642.11	2910.16
642.30	2893.78
642.49	2744.28
642.68	2844.63
642.87	3065.81
643.06	3114.96
643.25	2830.29
643.44	2762.71
643.63	3022.80
643.82	3160.02
644.00	2707.41
644.19	2889.68
644.38	2865.11
644.57	3129.30
644.76	2813.91
644.95	2957.27
645.14	3035.09
645.33	2971.60
645.52	2936.79
645.71	2701.27
645.89	2850.77
646.08	2928.60
646.27	2916.31
646.46	3094.48
646.65	2826.20
646.84	3065.81
647.03	2750.42
647.22	2977.75
647.40	3033.04
647.59	2967.51
647.78	2600.92
647.97	2826.20
648.16	2783.19
648.35	3102.67
648.54	3151.82
648.73	2813.91
648.91	3055.57
649.10	3022.80
649.29	2871.25
649.48	2887.64
649.67	3012.56
649.86	3100.62
650.05	2869.20
650.23	3051.47
650.42	2865.11
650.61	3200.98
650.80	3057.62
650.99	3168.21
651.18	3182.54
651.36	3223.50
651.55	2803.67
651.74	2975.70
651.93	3008.47
652.12	2959.31
652.31	2897.88
652.49	2904.02
652.68	2924.50
652.87	3166.16
653.06	2992.08
653.25	3086.29
653.44	2955.22
653.62	3297.23
653.81	2865.11
654.00	2768.85
654.19	3157.97
654.38	3356.62
654.56	2938.84
654.75	2742.23
654.94	3166.16
655.13	2996.18
655.32	2822.10
655.51	2967.51
655.69	2865.11
655.88	3162.06
656.07	2803.67
656.26	2908.12
656.45	2777.05
656.63	3035.09
656.82	2858.96
657.01	3137.49
657.20	2844.63
657.38	3295.18
657.57	2799.57
657.76	2686.94
657.95	3045.33
658.14	2908.12
658.32	2967.51
658.51	2744.28
658.70	3100.62
658.89	3057.62
659.08	2848.72
659.26	3043.28
659.45	2858.96
659.64	3137.49
659.83	2785.24
660.01	3221.45
660.20	2965.46
660.39	3209.17
660.58	2697.17
660.76	2924.50
660.95	2807.77
661.14	3051.47
661.33	2682.84
661.51	2910.16
661.70	2901.97
661.89	3022.80
662.08	2904.02
662.26	2654.17
662.45	2844.63
662.64	3319.76
662.83	2953.17
663.01	2772.95
663.20	2934.74
663.39	3205.07
663.58	2871.25
663.76	2830.29
663.95	3098.58
664.14	2824.15
664.32	2846.68
664.51	2729.94
664.70	2756.57
664.89	2985.94
665.07	2731.99
665.26	3043.28
665.45	2756.57
665.64	3045.33
665.82	2830.29
666.01	2940.88
666.20	2658.26
666.38	3160.02
666.57	3162.06
666.76	4831.16
666.95	10950.49
667.13	17454.84
667.32	21122.75
667.51	23891.60
667.69	24630.92
667.88	21077.69
668.07	15152.92
668.25	12865.34
668.44	11007.83
668.63	9766.76
668.81	8433.54
669.00	7358.35
669.19	6786.97
669.38	5812.14
669.56	5048.24
669.75	4376.51
669.94	3887.04
670.12	3377.10
670.31	3061.71
670.50	3178.45
670.68	3164.11
670.87	3147.73
671.06	2828.24
671.24	3000.27
671.43	3194.83
671.62	3016.66
671.80	2822.10
671.99	2985.94
672.18	3000.27
672.36	3014.61
672.55	2906.07
672.74	2861.01
672.92	2942.93
673.11	3098.58
673.29	2770.90
673.48	2996.18
673.67	2985.94
673.85	3209.17
674.04	2762.71
674.23	2992.08
674.41	3307.47
674.60	2852.82
674.79	2660.31
674.97	2803.67
675.16	3172.30
675.34	3155.92
675.53	2775.00
675.72	2869.20
675.90	3225.55
676.09	2953.17
676.28	2895.83
676.46	2662.36
676.65	3006.42
676.83	2729.94
677.02	2873.30
677.21	2965.46
677.39	2949.08
677.58	2777.05
677.77	2856.92
677.95	2879.44
678.14	2910.16
678.32	2852.82
678.51	2836.44
678.70	3094.48
678.88	2951.12
679.07	3006.42
679.25	2963.41
679.44	2858.96
679.63	2873.30
679.81	3018.71
680.00	3119.06
680.18	2947.03
680.37	3313.61
680.55	2936.79
680.74	2719.70
680.93	2631.64
681.11	3004.37
681.30	2955.22
681.48	2910.16
681.67	2912.21
681.85	3014.61
682.04	2779.09
682.23	3026.90
682.41	2967.51
682.60	2942.93
682.78	3049.43
682.97	2736.09
683.15	2879.44
683.34	3102.67
683.53	3180.50
683.71	2713.56
683.90	3014.61
684.08	3278.80
684.27	2944.98
684.45	2914.26
684.64	3055.57
684.82	2930.64
685.01	3098.58
685.19	2873.30
685.38	3172.30
685.57	2953.17
685.75	2834.39
685.94	2795.48
686.12	2717.65
686.31	2985.94
686.49	3207.12
686.68	2695.13
686.86	2897.88
687.05	2951.12
687.23	3207.12
687.42	2871.25
687.60	2758.61
687.79	3065.81
687.97	3203.02
688.16	2987.99
688.34	3065.81
688.53	2740.18
688.71	3016.66
688.90	3043.28
689.08	2887.64
689.27	2705.37
689.45	3106.77
689.64	3051.47
689.82	2926.55
690.01	3065.81
690.19	3061.71
690.38	2793.43
690.56	2992.08
690.75	2918.36
690.93	2996.18
691.12	2807.77
691.30	2824.15
691.49	2987.99
691.67	3059.67
691.86	3114.96
692.04	2858.96
692.23	2889.68
692.41	2942.93
692.60	3233.74
692.78	3037.14
692.97	2924.50
693.15	3151.82
693.34	3098.58
693.52	3024.85
693.71	2918.36
693.89	2926.55
694.08	2731.99
694.26	2918.36
694.44	3092.43
694.63	3166.16
694.81	2713.56
695.00	2803.67
695.18	3178.45
695.37	3393.48
695.55	2926.55
695.74	2914.26
695.92	2957.27
696.10	3272.65
696.29	2783.19
696.47	2844.63
696.66	2826.20
696.84	2820.05
697.03	2942.93
697.21	3121.10
697.40	4483.00
697.58	3280.85
697.76	2858.96
697.95	2975.70
698.13	2828.24
698.32	2887.64
698.50	2844.63
698.68	2916.31
698.87	3086.29
699.05	3270.61
699.24	2811.86
699.42	2738.13
699.61	2990.03
699.79	3016.66
699.97	2877.40
700.16	2797.53
700.34	2744.28
700.53	3037.14
700.71	3096.53
700.89	3014.61
701.08	2940.88
701.26	2957.27
701.45	3313.61
701.63	2777.05
701.81	2881.49
702.00	2881.49
702.18	2959.31
702.37	2830.29
702.55	3215.31
702.73	3047.38
702.92	2760.66
703.10	3192.78
703.28	3100.62
703.47	2772.95
703.65	2973.65
703.84	3008.47
704.02	2922.45
704.20	3256.27
704.39	2901.97
704.57	2834.39
704.75	3041.23
704.94	3125.20
705.12	3020.75
705.30	3463.12
705.49	6567.84
705.67	12783.42
705.86	17932.01
706.04	20389.58
706.22	22494.89
706.41	21747.38
706.59	16754.43
706.77	12980.03
706.96	11192.15
707.14	10311.52
707.32	8832.89
707.51	7757.71
707.69	6485.92
707.87	5285.81
708.06	4609.98
708.24	3968.96
708.42	3563.47
708.61	3700.68
708.79	2969.55
708.97	3049.43
709.16	3035.09
709.34	3022.80
709.52	2942.93
709.71	2869.20
709.89	3129.30
710.07	2854.87
710.26	2781.14
710.44	2916.31
710.62	3080.14
710.80	3030.99
710.99	2990.03
711.17	2967.51
711.35	2904.02
711.54	2889.68
711.72	2965.46
711.90	2928.60
712.09	3004.37
712.27	2877.40
712.45	2924.50
712.63	2842.58
712.82	2992.08
713.00	2947.03
713.18	2928.60
713.37	3045.33
713.55	3114.96
713.73	3088.34
713.91	2973.65
714.10	2867.16
714.28	2994.13
714.46	3045.33
714.65	2928.60
714.83	2893.78
715.01	3028.95
715.19	2963.41
715.38	2799.57
715.56	3012.56
715.74	2887.64
715.92	2793.43
716.11	3090.38
716.29	2566.10
716.47	3035.09
716.65	2971.60
716.84	2760.66
717.02	2957.27
717.20	2662.36
717.38	2922.45
717.57	2979.79
717.75	2981.84
717.93	2967.51
718.11	3069.91
718.30	2809.81
718.48	2879.44
718.66	3215.31
718.84	3205.07
719.03	2944.98
719.21	2707.41
719.39	3276.75
719.57	3057.62
719.75	2990.03
719.94	2787.29
720.12	2926.55
720.30	2987.99
720.48	2969.55
720.67	2826.20
720.85	2822.10
721.03	2852.82
721.21	2840.53
721.39	2947.03
721.58	3106.77
721.76	3008.47
721.94	2965.46
722.12	2918.36
722.30	3262.41
722.49	2934.74
722.67	2883.54
722.85	2889.68
723.03	2740.18
723.21	2994.13
723.40	2901.97
723.58	2996.18
723.76	3053.52
723.94	3170.26
724.12	2920.40
724.30	3090.38
724.49	3108.82
724.67	2822.10
724.85	2983.89
725.03	2686.94
725.21	3053.52
725.40	3106.77
725.58	2797.53
725.76	3106.77
725.94	3067.86
726.12	2811.86
726.30	2951.12
726.49	2846.68
726.67	2965.46
726.85	3063.76
727.03	3448.78
727.21	4417.47
727.39	5377.97
727.57	5777.32
727.76	6168.48
727.94	6219.68
728.12	5580.71
728.30	4718.52
728.48	4489.15
728.66	4120.51
728.84	3915.72
729.03	3481.55
729.21	3370.96
729.39	3231.69
729.57	3035.09
729.75	2955.22
729.93	2975.70
730.11	2764.76
730.30	2885.59
730.48	2920.40
730.66	3002.32
730.84	2965.46
731.02	3033.04
731.20	2967.51
731.38	2877.40
731.56	2762.71
731.74	2760.66
731.93	2963.41
732.11	2883.54
732.29	2877.40
732.47	3067.86
732.65	3012.56
732.83	3110.86
733.01	2983.89
733.19	2942.93
733.37	3108.82
733.56	2922.45
733.74	2787.29
733.92	3272.65
734.10	2938.84
734.28	3024.85
734.46	2746.33
734.64	2934.74
734.82	2924.50
735.00	2879.44
735.18	2791.38
735.36	2947.03
735.54	3067.86
735.73	2838.48
735.91	2895.83
736.09	3217.36
736.27	2930.64
736.45	2979.79
736.63	2588.63
736.81	2951.12
736.99	3133.39
737.17	3043.28
737.35	2852.82
737.53	3057.62
737.71	2953.17
737.89	3061.71
738.07	2736.09
738.25	2895.83
738.43	2754.52
738.61	2951.12
738.80	2729.94
738.98	2791.38
739.16	2897.88
739.34	2803.67
739.52	3196.88
739.70	2961.36
739.88	3028.95
740.06	2922.45
740.24	2582.49
740.42	3166.16
740.60	2721.75
740.78	2863.06
740.96	2670.55
741.14	3020.75
741.32	2897.88
741.50	2789.33
741.68	3084.24
741.86	3221.45
742.04	2779.09
742.22	2676.70
742.40	2893.78
742.58	3020.75
742.76	2803.67
742.94	3041.23
743.12	2715.61
743.30	2994.13
743.48	2967.51
743.66	2840.53
743.84	2863.06
744.02	2897.88
744.20	3045.33
744.38	2803.67
744.56	2793.43
744.74	3231.69
744.92	3104.72
745.10	3151.82
745.28	2928.60
745.46	3256.27
745.64	2940.88
745.82	2987.99
746.00	2834.39
746.18	3030.99
746.36	2854.87
746.54	2959.31
746.72	2856.92
746.90	2770.90
747.08	3162.06
747.26	2889.68
747.44	3018.71
747.62	3065.81
747.80	2981.84
747.98	2967.51
748.15	2918.36
748.33	3299.28
748.51	2973.65
748.69	2883.54
748.87	2820.05
749.05	2967.51
749.23	3033.04
749.41	2830.29
749.59	2822.10
749.77	3145.68
749.95	2916.31
750.13	2871.25
750.31	2965.46
750.49	2947.03
750.67	3117.01
750.85	2994.13
751.03	2858.96
751.20	3405.77
751.38	2965.46
751.56	2879.44
751.74	2914.26
751.92	2877.40
752.10	2756.57
752.28	3082.19
752.46	2844.63
752.64	3028.95
752.82	3000.27
753.00	3028.95
753.18	2811.86
753.35	2936.79
753.53	3000.27
753.71	2803.67
753.89	3061.71
754.07	3114.96
754.25	3114.96
754.43	2920.40
754.61	2838.48
754.79	3020.75
754.97	2887.64
755.14	3059.67
755.32	2818.00
755.50	2969.55
755.68	3024.85
755.86	2789.33
756.04	2813.91
756.22	2719.70
756.40	3180.50
756.57	3074.00
756.75	2803.67
756.93	3188.69
757.11	3196.88
757.29	2717.65
757.47	2746.33
757.65	2744.28
757.82	2617.30
758.00	2734.04
758.18	2750.42
758.36	2879.44
758.54	3289.04
758.72	2701.27
758.90	2987.99
759.07	3057.62
759.25	2920.40
759.43	3008.47
759.61	2719.70
759.79	4265.92
759.97	3106.77
760.15	2844.63
760.32	2863.06
760.50	3006.42
760.68	3221.45
760.86	2740.18
761.04	3026.90
761.22	3106.77
761.39	2996.18
761.57	3012.56
761.75	2850.77
761.93	3131.34
762.11	2983.89
762.28	3012.56
762.46	2822.10
762.64	3211.22
762.82	2822.10
763.00	2807.77
763.18	3098.58
763.35	2691.03
763.53	3053.52
763.71	2998.23
763.89	2858.96
764.07	2975.70
764.24	2918.36
764.42	2947.03
764.60	2877.40
764.78	3108.82
764.96	3121.10
765.13	3035.09
765.31	2695.13
765.49	3047.38
765.67	2768.85
765.84	2828.24
766.02	2803.67
766.20	2721.75
766.38	3000.27
766.56	2969.55
766.73	2990.03
766.91	2992.08
767.09	2906.07
767.27	2979.79
767.44	2783.19
767.62	3043.28
767.80	3078.10
767.98	2811.86
768.15	2848.72
768.33	3246.03
768.51	3198.93
768.69	2983.89
768.87	2922.45
769.04	3000.27
769.22	3446.73
769.40	2961.36
769.58	3049.43
769.75	3074.00
769.93	3164.11
770.11	2869.20
770.28	2740.18
770.46	3076.05
770.64	3047.38
770.82	2910.16
770.99	2717.65
771.17	3125.20
771.35	2875.35
771.53	2920.40
771.70	2826.20
771.88	3084.24
772.06	2951.12
772.23	2828.24
772.41	2932.69
772.59	2906.07
772.77	2797.53
772.94	2824.15
773.12	2973.65
773.30	2951.12
773.47	3067.86
773.65	2815.96
773.83	3147.73
774.01	2928.60
774.18	2660.31
774.36	2928.60
774.54	2768.85
774.71	3088.34
774.89	2678.74
775.07	2777.05
775.24	2836.44
775.42	2852.82
775.60	3344.33
775.78	2785.24
775.95	2738.13
776.13	2693.08
776.31	2697.17
776.48	3000.27
776.66	3098.58
776.84	2865.11
777.01	2844.63
777.19	2758.61
777.37	2828.24
777.54	3074.00
777.72	3241.93
777.90	3002.32
778.07	2797.53
778.25	3575.75
778.43	3127.25
778.60	2779.09
778.78	2996.18
778.96	3262.41
779.13	2785.24
779.31	2942.93
779.49	2895.83
779.66	2949.08
779.84	2926.55
780.01	2863.06
780.19	2731.99
780.37	3129.30
780.54	3117.01
780.72	2721.75
780.90	2856.92
781.07	2977.75
781.25	2809.81
781.43	3014.61
781.60	2826.20
781.78	3205.07
781.95	2963.41
782.13	2752.47
782.31	2811.86
782.48	2654.17
782.66	2922.45
782.83	3074.00
783.01	2957.27
783.19	3129.30
783.36	2877.40
783.54	2756.57
783.72	2985.94
783.89	2914.26
784.07	3092.43
784.24	2928.60
784.42	3012.56
784.60	2965.46
784.77	3084.24
784.95	2672.60
785.12	2779.09
785.30	2996.18
785.47	2895.83
785.65	2738.13
785.83	2822.10
786.00	2838.48
786.18	3010.51
786.35	2795.48
786.53	2688.98
786.71	3211.22
786.88	3086.29
787.06	2844.63
787.23	2926.55
787.41	2762.71
787.58	2920.40
787.76	2777.05
787.94	2967.51
788.11	3055.57
788.29	2805.72
788.46	2746.33
788.64	2682.84
788.81	2846.68
788.99	2828.24
789.16	2818.00
789.34	2856.92
789.52	2926.55
789.69	2875.35
789.87	2652.12
790.04	2861.01
790.22	3012.56
790.39	3282.89
790.57	2742.23
790.74	2826.20
790.92	3061.71
791.09	2731.99
791.27	2928.60
791.44	2951.12
791.62	3037.14
791.79	3149.78
791.97	2940.88
792.15	3203.02
792.32	3076.05
792.50	3090.38
792.67	3106.77
792.85	3110.86
793.02	3012.56
793.20	2912.21
793.37	2772.95
793.55	2770.90
793.72	2766.81
793.90	2994.13
794.07	2834.39
794.25	2793.43
794.42	3016.66
794.60	2942.93
794.77	2955.22
794.95	2955.22
795.12	3119.06
795.30	2910.16
795.47	2633.69
795.65	3209.17
795.82	3076.05
796.00	2772.95
796.17	2918.36
796.34	2764.76
796.52	2992.08
796.69	3137.49
796.87	2947.03
797.04	2973.65
797.22	3155.92
797.39	3037.14
797.57	2969.55
797.74	2897.88
797.92	3010.51
798.09	2904.02
798.27	3190.74
798.44	2824.15
798.62	2754.52
798.79	3063.76
798.96	2881.49
799.14	2883.54
799.31	3442.64
799.49	3037.14
799.66	2848.72
799.84	2959.31
800.01	2711.51
800.19	3024.85
800.36	2643.93
800.53	2897.88
800.71	3129.30
800.88	3266.51
801.06	2750.42
801.23	2783.19
801.41	3037.14
801.58	2781.14
801.75	2840.53
801.93	2875.35
802.10	2975.70
802.28	2953.17
802.45	2918.36
802.63	2957.27
802.80	3252.17
802.97	2922.45
803.15	2834.39
803.32	2793.43
803.50	2820.05
803.67	2942.93
803.84	2746.33
804.02	2932.69
804.19	2928.60
804.37	2596.82
804.54	2707.41
804.71	2770.90
804.89	2987.99
805.06	2770.90
805.24	2863.06
805.41	2695.13
805.58	2852.82
805.76	3381.20
805.93	2736.09
806.10	2987.99
806.28	3151.82
806.45	2969.55
806.63	2967.51
806.80	2940.88
806.97	3008.47
807.15	3076.05
807.32	2938.84
807.49	2791.38
807.67	2795.48
807.84	2983.89
808.01	2650.07
808.19	3127.25
808.36	3397.58
808.54	2826.20
808.71	2826.20
808.88	2869.20
809.06	3170.26
809.23	3264.46
809.40	2824.15
809.58	2854.87
809.75	2985.94
809.92	2869.20
810.10	3114.96
810.27	2922.45
810.44	3039.19
810.62	3045.33
810.79	2901.97
810.96	2828.24
811.14	2863.06
811.31	3004.37
811.48	2973.65
811.66	2901.97
811.83	3145.68
812.00	3071.95
812.18	2936.79
812.35	3088.34
812.52	2889.68
812.69	2959.31
812.87	2789.33
813.04	2770.90
813.21	2928.60
813.39	2940.88
813.56	2883.54
813.73	3000.27
813.91	2754.52
814.08	2963.41
814.25	2920.40
814.42	2744.28
814.60	2924.50
814.77	2897.88
814.94	2801.62
815.12	2850.77
815.29	3227.60
815.46	2906.07
815.63	2906.07
815.81	2865.11
815.98	2912.21
816.15	3041.23
816.33	2916.31
816.50	2854.87
816.67	2994.13
816.84	2930.64
817.02	2789.33
817.19	2848.72
817.36	3012.56
817.53	3016.66
817.71	2742.23
817.88	2955.22
818.05	2928.60
818.22	2899.92
818.40	3088.34
818.57	2793.43
818.74	2985.94
818.91	2961.36
819.09	2938.84
819.26	2920.40
819.43	2844.63
819.60	2914.26
819.78	3092.43
819.95	2895.83
820.12	2766.81
820.29	3205.07
820.47	3071.95
820.64	2793.43
820.81	2787.29
820.98	2856.92
821.15	2881.49
821.33	3047.38
821.50	2750.42
821.67	3137.49
821.84	2785.24
822.02	2910.16
822.19	3078.10
822.36	2928.60
822.53	2820.05
822.70	2719.70
822.88	2975.70
823.05	3264.46
823.22	2895.83
823.39	2934.74
823.56	2947.03
823.74	3330.00
823.91	2793.43
824.08	2756.57
824.25	2779.09
824.42	3254.22
824.60	2793.43
824.77	2971.60
824.94	2947.03
825.11	3092.43
825.28	2678.74
825.45	3037.14
825.63	2987.99
825.80	2813.91
825.97	2953.17
826.14	3006.42
826.31	2697.17
826.48	3069.91
826.66	2811.86
826.83	2772.95
827.00	2889.68
827.17	2785.24
827.34	2844.63
827.51	2856.92
827.69	2914.26
827.86	2752.47
828.03	2877.40
828.20	2877.40
828.37	2873.30
828.54	3033.04
828.71	2705.37
828.89	2967.51
829.06	3057.62
829.23	3264.46
829.40	2830.29
829.57	2818.00
829.74	3100.62
829.91	2877.40
830.09	2795.48
830.26	2959.31
830.43	3145.68
830.60	2975.70
830.77	2951.12
830.94	2967.51
831.11	3094.48
831.28	2881.49
831.46	3006.42
831.63	2805.72
831.80	3057.62
831.97	2865.11
832.14	2824.15
832.31	2879.44
832.48	3024.85
832.65	3135.44
832.82	2887.64
832.99	2967.51
833.17	2764.76
833.34	3129.30
833.51	2848.72
833.68	2613.21
833.85	3133.39
834.02	2803.67
834.19	2783.19
834.36	2850.77
834.53	3018.71
834.70	3123.15
834.87	2854.87
835.04	2670.55
835.22	2822.10
835.39	2844.63
835.56	2656.22
835.73	2748.37
835.90	3063.76
836.07	2889.68
836.24	2877.40
836.41	2670.55
836.58	2873.30
836.75	3084.24
836.92	2740.18
837.09	2672.60
837.26	3000.27
837.43	2930.64
837.60	2801.62
837.77	2754.52
837.94	3057.62
838.12	3147.73
838.29	2643.93
838.46	2559.96
838.63	2881.49
838.80	3266.51
838.97	2818.00
839.14	2605.02
839.31	2992.08
839.48	3004.37
839.65	2742.23
839.82	2803.67
839.99	2942.93
840.16	2920.40
840.33	2658.26
840.50	2695.13
840.67	2828.24
840.84	2609.11
841.01	2664.41
841.18	2734.04
841.35	2987.99
841.52	3051.47
841.69	3000.27
841.86	2701.27
842.03	2973.65
842.20	3188.69
842.37	2781.14
842.54	2742.23
842.71	2895.83
842.88	2768.85
843.05	2779.09
843.22	2709.46
843.39	3149.78
843.56	2920.40
843.73	2672.60
843.90	2770.90
844.07	3010.51
844.24	3061.71
844.41	2873.30
844.58	2725.85
844.75	2895.83
844.92	3008.47
845.09	2777.05
845.26	2697.17
845.43	3090.38
845.60	2885.59
845.77	2901.97
845.94	2803.67
846.10	3104.72
846.27	2779.09
846.44	2602.97
846.61	2637.78
846.78	3020.75
846.95	3127.25
847.12	2731.99
847.29	2717.65
847.46	2904.02
847.63	3139.54
847.80	2670.55
847.97	2772.95
848.14	3332.05
848.31	2934.74
848.48	2609.11
848.65	2723.80
848.82	2815.96
848.98	3377.10
849.15	2867.16
849.32	2854.87
849.49	3117.01
849.66	2910.16
849.83	2760.66
850.00	2654.17
850.17	3078.10
850.34	2910.16
850.51	2627.54
850.68	2717.65
850.85	3362.76
851.01	3047.38
851.18	2691.03
851.35	2822.10
851.52	3000.27
851.69	3192.78
851.86	2611.16
852.03	2740.18
852.20	3006.42
852.37	2955.22
852.53	2709.46
852.70	2711.51
852.87	2959.31
853.04	3094.48
853.21	2746.33
853.38	3004.37
853.55	3174.35
853.72	3164.11
853.89	2666.46
854.05	2723.80
854.22	3006.42
854.39	2953.17
854.56	2727.89
854.73	2852.82
854.90	2922.45
855.07	2975.70
855.23	2688.98
855.40	2768.85
855.57	2897.88
855.74	2660.31
855.91	2951.12
856.08	2633.69
856.25	2727.89
856.41	2885.59
856.58	2719.70
856.75	2754.52
856.92	2740.18
857.09	3108.82
857.26	2619.35
857.42	2830.29
857.59	3067.86
857.76	2930.64
857.93	2684.89
858.10	2844.63
858.27	2738.13
858.43	3024.85
858.60	2711.51
858.77	2594.78
858.94	2883.54
859.11	3098.58
859.27	2775.00
859.44	2627.54
859.61	3284.94
859.78	3035.09
859.95	2699.22
860.12	2623.45
860.28	3424.20
860.45	3315.66
860.62	2617.30
860.79	2785.24
860.95	2820.05
861.12	2899.92
861.29	2631.64
861.46	2645.98
861.63	2953.17
861.79	3041.23
861.96	2631.64
862.13	2725.85
862.30	3233.74
862.47	2779.09
862.63	2637.78
862.80	2877.40
862.97	3086.29
863.14	3065.81
863.30	2711.51
863.47	2635.74
863.64	3221.45
863.81	3018.71
863.97	2654.17
864.14	2789.33
864.31	2934.74
864.48	3069.91
864.65	2686.94
864.81	2811.86
864.98	3059.67
865.15	3082.19
865.32	2889.68
865.48	2750.42
865.65	3252.17
865.82	2787.29
865.98	2729.94
866.15	2803.67
866.32	2987.99
866.49	2865.11
866.65	2869.20
866.82	2772.95
866.99	2922.45
867.16	2912.21
867.32	2711.51
867.49	2641.88
867.66	2881.49
867.83	2840.53
867.99	2670.55
868.16	2693.08
868.33	2850.77
868.49	2920.40
868.66	2725.85
868.83	2797.53
868.99	2951.12
869.16	2963.41
869.33	2947.03
869.50	2746.33
869.66	2918.36
869.83	2977.75
870.00	2598.87
870.16	2869.20
870.33	2895.83
870.50	3078.10
870.66	2752.47
870.83	2820.05
871.00	2930.64
871.17	3071.95
871.33	2883.54
871.50	2619.35
871.67	2996.18
871.83	2787.29
872.00	2807.77
872.17	2781.14
872.33	3330.00
872.50	3127.25
872.67	2764.76
872.83	2648.02
873.00	2914.26
873.17	2963.41
873.33	2746.33
873.50	2813.91
873.67	2779.09
873.83	2863.06
874.00	2676.70
874.16	2893.78
874.33	2961.36
874.50	2713.56
874.66	2736.09
874.83	2914.26
875.00	3188.69
875.16	3117.01
875.33	2781.14
875.50	2531.29
875.66	2844.63
875.83	2967.51
875.99	2799.57
876.16	2801.62
876.33	2824.15
876.49	2975.70
876.66	2756.57
876.83	2818.00
876.99	2656.22
877.16	2887.64
877.32	2629.59
877.49	2766.81
877.66	3059.67
877.82	3215.31
877.99	2795.48
878.15	3037.14
878.32	3018.71
878.49	2990.03
878.65	2705.37
878.82	2953.17
878.98	2869.20
879.15	3145.68
879.32	2942.93
879.48	2920.40
879.65	2944.98
879.81	2842.58
879.98	2746.33
880.15	2842.58
880.31	3119.06
880.48	2779.09
880.64	2893.78
880.81	2889.68
880.97	3217.36
881.14	3196.88
881.31	2699.22
881.47	2877.40
881.64	2910.16
881.80	2650.07
881.97	2910.16
882.13	2809.81
882.30	2803.67
882.47	2947.03
882.63	2762.71
882.80	2711.51
882.96	2922.45
883.13	3274.70
883.29	2775.00
883.46	2756.57
883.62	3311.57
883.79	2910.16
883.95	2916.31
884.12	2719.70
884.29	3112.91
884.45	2947.03
884.62	2768.85
884.78	2664.41
884.95	3225.55
885.11	2824.15
885.28	2842.58
885.44	2791.38
885.61	3096.53
885.77	3190.74
885.94	2850.77
886.10	2787.29
886.27	2953.17
886.43	3301.33
886.60	2906.07
886.76	2791.38
886.93	2844.63
887.09	2957.27
887.26	2631.64
887.42	2820.05
887.59	3151.82
887.75	3295.18
887.92	2934.74
888.08	2877.40
888.25	3219.41
888.41	3088.34
888.58	2832.34
888.74	2654.17
888.91	2869.20
>>>>>End Processed Spectral Data<<<<<
