SpectraSuite Data File
++++++++++++++++++++++++++++++++++++
Date: Thu May 05 21:11:15 CEST 2016
User: root
Dark Spectrum Present: No
Reference Spectrum Present: No
Number of Sampled Component Spectra: 1
Spectrometers: USB4C02835
Integration Time (usec): 100000 (USB4C02835)
Spectra Averaged: 1 (USB4C02835)
Boxcar Smoothing: 0 (USB4C02835)
Correct for Electrical Dark: No (USB4C02835)
Strobe/Lamp Enabled: No (USB4C02835)
Correct for Detector Non-linearity: No (USB4C02835)
Correct for Stray Light: No (USB4C02835)
Number of Pixels in Processed Spectrum: 3648
>>>>>Begin Processed Spectral Data<<<<<
177.47	2150.37
177.69	2150.37
177.91	2150.37
178.13	2115.55
178.36	2150.37
178.58	2750.42
178.80	2920.40
179.02	2762.71
179.24	2861.01
179.46	2613.21
179.68	2684.89
179.90	2906.07
180.13	2918.36
180.35	2535.39
180.57	2658.26
180.79	3182.54
181.01	3061.71
181.23	2631.64
181.45	2799.57
181.67	3108.82
181.90	3039.19
182.12	2729.94
182.34	2543.58
182.56	3088.34
182.78	3094.48
183.00	2623.45
183.22	2703.32
183.44	2680.79
183.66	3561.42
183.89	2836.44
184.11	2662.36
184.33	3069.91
184.55	3286.99
184.77	2600.92
184.99	2744.28
185.21	2867.16
185.43	3307.47
185.65	2635.74
185.87	2617.30
186.10	3344.33
186.32	3489.74
186.54	2852.82
186.76	2801.62
186.98	3151.82
187.20	2940.88
187.42	2662.36
187.64	2650.07
187.86	3092.43
188.08	3151.82
188.30	2658.26
188.52	2682.84
188.75	3190.74
188.97	3274.70
189.19	2680.79
189.41	2713.56
189.63	3114.96
189.85	2938.84
190.07	2562.01
190.29	2566.10
190.51	3020.75
190.73	2709.46
190.95	2858.96
191.17	2772.95
191.39	2826.20
191.61	2942.93
191.84	2688.98
192.06	2793.43
192.28	2744.28
192.50	3514.31
192.72	2803.67
192.94	2725.85
193.16	3217.36
193.38	3049.43
193.60	2621.40
193.82	2858.96
194.04	3184.59
194.26	3043.28
194.48	2641.88
194.70	2660.31
194.92	2826.20
195.14	3139.54
195.36	2744.28
195.58	2738.13
195.80	2998.23
196.02	2861.01
196.24	2635.74
196.46	2721.75
196.69	2824.15
196.91	3370.96
197.13	2768.85
197.35	2695.13
197.57	3291.09
197.79	3137.49
198.01	2756.57
198.23	2691.03
198.45	3082.19
198.67	2811.86
198.89	2510.81
199.11	2756.57
199.33	2918.36
199.55	2701.27
199.77	2568.15
199.99	2805.72
200.21	2932.69
200.43	3000.27
200.65	2592.73
200.87	2555.86
201.09	3000.27
201.31	2965.46
201.53	2678.74
201.75	2711.51
201.97	3074.00
202.19	2934.74
202.41	2777.05
202.63	2852.82
202.85	3030.99
203.07	3065.81
203.29	2797.53
203.51	2652.12
203.73	2799.57
203.95	3467.21
204.17	2703.32
204.39	2801.62
204.61	2930.64
204.83	2871.25
205.05	2830.29
205.27	2701.27
205.49	3360.72
205.71	3033.04
205.93	2592.73
206.15	2648.02
206.37	2973.65
206.59	2942.93
206.81	2521.05
207.03	2533.34
207.25	2824.15
207.47	3063.76
207.69	2717.65
207.91	2869.20
208.13	3297.23
208.34	2832.34
208.56	2658.26
208.78	2731.99
209.00	2922.45
209.22	2770.90
209.44	2748.37
209.66	2654.17
209.88	2934.74
210.10	2998.23
210.32	2682.84
210.54	2746.33
210.76	2955.22
210.98	3090.38
211.20	2529.24
211.42	2738.13
211.64	3221.45
211.86	2990.03
212.08	2758.61
212.30	2723.80
212.52	2938.84
212.74	3049.43
212.96	2756.57
213.17	2697.17
213.39	3100.62
213.61	3272.65
213.83	2602.97
214.05	2637.78
214.27	3252.17
214.49	2861.01
214.71	2699.22
214.93	2805.72
215.15	3016.66
215.37	3164.11
215.59	2615.26
215.81	2820.05
216.03	3221.45
216.24	3080.14
216.46	2721.75
216.68	2746.33
216.90	3139.54
217.12	3090.38
217.34	2658.26
217.56	2832.34
217.78	3243.98
218.00	3139.54
218.22	2672.60
218.44	2775.00
218.66	3092.43
218.87	3413.96
219.09	2740.18
219.31	2664.41
219.53	3098.58
219.75	2920.40
219.97	2740.18
220.19	2807.77
220.41	2887.64
220.63	3360.72
220.85	2652.12
221.06	2699.22
221.28	3151.82
221.50	3049.43
221.72	2744.28
221.94	2613.21
222.16	3055.57
222.38	3166.16
222.60	2701.27
222.82	2639.83
223.03	3200.98
223.25	2840.53
223.47	2688.98
223.69	2846.68
223.91	3082.19
224.13	3055.57
224.35	2596.82
224.57	2889.68
224.78	3147.73
225.00	2848.72
225.22	2756.57
225.44	2650.07
225.66	3155.92
225.88	2914.26
226.10	2775.00
226.32	2701.27
226.53	3223.50
226.75	2869.20
226.97	2768.85
227.19	2713.56
227.41	2848.72
227.63	2863.06
227.85	2578.39
228.06	2648.02
228.28	3041.23
228.50	3090.38
228.72	2586.58
228.94	2613.21
229.16	2666.46
229.37	2748.37
229.59	2627.54
229.81	2844.63
230.03	2887.64
230.25	2682.84
230.47	2576.34
230.69	2654.17
230.90	3117.01
231.12	2875.35
231.34	2789.33
231.56	2834.39
231.78	2818.00
232.00	3004.37
232.21	2666.46
232.43	2682.84
232.65	2627.54
232.87	3100.62
233.09	2598.87
233.30	2598.87
233.52	3180.50
233.74	3041.23
233.96	2688.98
234.18	2850.77
234.40	2918.36
234.61	3510.22
234.83	2627.54
235.05	2643.93
235.27	3444.68
235.49	3203.02
235.70	2586.58
235.92	2668.50
236.14	3094.48
236.36	3364.81
236.58	2553.82
236.79	2713.56
237.01	2955.22
237.23	2920.40
237.45	2914.26
237.67	2688.98
237.88	3098.58
238.10	3358.67
238.32	2590.68
238.54	2641.88
238.76	2949.08
238.97	2873.30
239.19	2598.87
239.41	2818.00
239.63	3239.89
239.85	2920.40
240.06	2738.13
240.28	2652.12
240.50	3117.01
240.72	3016.66
240.93	2580.44
241.15	2779.09
241.37	2953.17
241.59	3229.65
241.81	2695.13
242.02	2717.65
242.24	3106.77
242.46	3104.72
242.68	2475.99
242.89	2576.34
243.11	3051.47
243.33	3045.33
243.55	2672.60
243.76	2658.26
243.98	2867.16
244.20	3000.27
244.42	2666.46
244.64	2697.17
244.85	2824.15
245.07	2775.00
245.29	2693.08
245.51	2734.04
245.72	3080.14
245.94	3209.17
246.16	2672.60
246.38	2738.13
246.59	2910.16
246.81	2811.86
247.03	2549.72
247.24	2602.97
247.46	2865.11
247.68	3014.61
247.90	2598.87
248.11	2672.60
248.33	3114.96
248.55	2947.03
248.77	2746.33
248.98	2818.00
249.20	3231.69
249.42	2987.99
249.64	2734.04
249.85	2674.65
250.07	2846.68
250.29	3078.10
250.50	2750.42
250.72	2598.87
250.94	3059.67
251.16	3311.57
251.37	2678.74
251.59	2805.72
251.81	3043.28
252.02	3297.23
252.24	2633.69
252.46	2883.54
252.68	2836.44
252.89	2912.21
253.11	2512.86
253.33	2836.44
253.54	3301.33
253.76	2764.76
253.98	2701.27
254.20	2676.70
254.41	2729.94
254.63	2932.69
254.85	2523.10
255.06	2729.94
255.28	3078.10
255.50	2883.54
255.71	2635.74
255.93	2611.16
256.15	2973.65
256.36	2959.31
256.58	2543.58
256.80	2752.47
257.02	3102.67
257.23	2942.93
257.45	2699.22
257.67	2740.18
257.88	2842.58
258.10	3074.00
258.32	2656.22
258.53	2785.24
258.75	3241.93
258.97	2895.83
259.18	2615.26
259.40	2607.06
259.62	3250.13
259.83	3207.12
260.05	2717.65
260.27	3497.93
260.48	3127.25
260.70	2756.57
260.92	2584.54
261.13	2662.36
261.35	2953.17
261.57	2969.55
261.78	2578.39
262.00	2629.59
262.22	3074.00
262.43	2848.72
262.65	2672.60
262.86	2670.55
263.08	3389.39
263.30	2998.23
263.51	2586.58
263.73	2631.64
263.95	3155.92
264.16	2809.81
264.38	2496.47
264.60	2584.54
264.81	3071.95
265.03	3184.59
265.25	2975.70
265.46	2672.60
265.68	3182.54
265.89	3153.87
266.11	2590.68
266.33	2568.15
266.54	3170.26
266.76	3069.91
266.98	2793.43
267.19	2789.33
267.41	3215.31
267.62	2985.94
267.84	2478.04
268.06	2740.18
268.27	2998.23
268.49	3172.30
268.70	2719.70
268.92	2713.56
269.14	2858.96
269.35	2746.33
269.57	2775.00
269.79	2820.05
270.00	2926.55
270.22	3250.13
270.43	2627.54
270.65	2533.34
270.87	3008.47
271.08	3106.77
271.30	2754.52
271.51	2711.51
271.73	3078.10
271.95	3211.22
272.16	2592.73
272.38	2856.92
272.59	2967.51
272.81	3102.67
273.02	2607.06
273.24	2766.81
273.46	3180.50
273.67	2746.33
273.89	2586.58
274.10	2656.22
274.32	3184.59
274.54	3137.49
274.75	2766.81
274.97	2797.53
275.18	3033.04
275.40	3078.10
275.61	2752.47
275.83	2891.73
276.05	2848.72
276.26	3014.61
276.48	2807.77
276.69	2775.00
276.91	2815.96
277.12	3182.54
277.34	2883.54
277.55	2981.84
277.77	2985.94
277.99	3012.56
278.20	2715.61
278.42	2719.70
278.63	2815.96
278.85	2949.08
279.06	2711.51
279.28	2865.11
279.49	3229.65
279.71	3129.30
279.93	2826.20
280.14	2901.97
280.36	2873.30
280.57	3213.26
280.79	2926.55
281.00	2715.61
281.22	2926.55
281.43	3162.06
281.65	2580.44
281.86	2697.17
282.08	3100.62
282.29	3356.62
282.51	2652.12
282.73	2678.74
282.94	2684.89
283.16	3121.10
283.37	2951.12
283.59	2818.00
283.80	3121.10
284.02	2951.12
284.23	2856.92
284.45	2797.53
284.66	2762.71
284.88	2824.15
285.09	2734.04
285.31	2899.92
285.52	2992.08
285.74	2772.95
285.95	2936.79
286.17	2924.50
286.38	3215.31
286.60	2871.25
286.81	2834.39
287.03	2766.81
287.24	2947.03
287.46	3051.47
287.67	2928.60
287.89	3002.32
288.10	2914.26
288.32	3010.51
288.53	3049.43
288.75	2858.96
288.96	3192.78
289.18	2871.25
289.39	2787.29
289.61	2820.05
289.82	3422.16
290.04	3289.04
290.25	2707.41
290.47	2854.87
290.68	2971.60
290.90	3155.92
291.11	2584.54
291.33	2942.93
291.54	2830.29
291.76	2836.44
291.97	2922.45
292.18	2867.16
292.40	2969.55
292.61	2914.26
292.83	3069.91
293.04	2842.58
293.26	3086.29
293.47	2953.17
293.69	2729.94
293.90	2766.81
294.12	3235.79
294.33	3028.95
294.55	2799.57
294.76	2965.46
294.97	3151.82
295.19	3428.30
295.40	2797.53
295.62	2887.64
295.83	3110.86
296.05	2863.06
296.26	3008.47
296.48	2801.62
296.69	2959.31
296.90	2912.21
297.12	2932.69
297.33	3020.75
297.55	3026.90
297.76	3074.00
297.98	2934.74
298.19	2912.21
298.41	2996.18
298.62	2863.06
298.83	3026.90
299.05	2906.07
299.26	2895.83
299.48	2770.90
299.69	2897.88
299.90	2746.33
300.12	2850.77
300.33	3164.11
300.55	2840.53
300.76	2781.14
300.98	2815.96
301.19	3149.78
301.40	2852.82
301.62	2811.86
301.83	3080.14
302.05	3018.71
302.26	2766.81
302.47	2805.72
302.69	2795.48
302.90	3004.37
303.12	2537.43
303.33	2981.84
303.54	3295.18
303.76	2922.45
303.97	2799.57
304.19	2973.65
304.40	2840.53
304.61	2987.99
304.83	2899.92
305.04	2871.25
305.26	3114.96
305.47	2797.53
305.68	2801.62
305.90	2762.71
306.11	3174.35
306.33	2979.79
306.54	2697.17
306.75	2740.18
306.97	2756.57
307.18	2885.59
307.39	2770.90
307.61	2881.49
307.82	2926.55
308.04	3026.90
308.25	2676.70
308.46	2867.16
308.68	3049.43
308.89	2914.26
309.10	2936.79
309.32	2897.88
309.53	2983.89
309.74	3016.66
309.96	2787.29
310.17	2875.35
310.39	2887.64
310.60	3076.05
310.81	2727.89
311.03	2772.95
311.24	3200.98
311.45	3016.66
311.67	3078.10
311.88	2916.31
312.09	2934.74
312.31	2891.73
312.52	2791.38
312.73	2818.00
312.95	2707.41
313.16	2838.48
313.37	2932.69
313.59	2953.17
313.80	3127.25
314.01	3323.85
314.23	2756.57
314.44	2703.32
314.65	2758.61
314.87	2834.39
315.08	2813.91
315.29	2762.71
315.51	2895.83
315.72	2725.85
315.93	2889.68
316.15	2836.44
316.36	2955.22
316.57	3000.27
316.79	2779.09
317.00	2734.04
317.21	3000.27
317.43	2844.63
317.64	2840.53
317.85	2633.69
318.07	2840.53
318.28	2879.44
318.49	2916.31
318.70	2981.84
318.92	2990.03
319.13	3071.95
319.34	2936.79
319.56	2803.67
319.77	3117.01
319.98	3074.00
320.20	2987.99
320.41	2971.60
320.62	3018.71
320.83	2852.82
321.05	2979.79
321.26	2785.24
321.47	3008.47
321.69	3123.15
321.90	2719.70
322.11	2738.13
322.32	3041.23
322.54	3248.08
322.75	2777.05
322.96	3477.45
323.18	2758.61
323.39	2695.13
323.60	2664.41
323.81	2920.40
324.03	2877.40
324.24	2985.94
324.45	2906.07
324.66	2815.96
324.88	3162.06
325.09	3272.65
325.30	2734.04
325.52	2709.46
325.73	3045.33
325.94	2811.86
326.15	2729.94
326.37	2693.08
326.58	3108.82
326.79	3254.22
327.00	2664.41
327.22	2875.35
327.43	2947.03
327.64	2770.90
327.85	2936.79
328.07	2897.88
328.28	3239.89
328.49	2844.63
328.70	2844.63
328.92	2781.14
329.13	2922.45
329.34	3092.43
329.55	3026.90
329.76	2973.65
329.98	2918.36
330.19	3166.16
330.40	2873.30
330.61	2918.36
330.83	3143.63
331.04	2858.96
331.25	2916.31
331.46	2867.16
331.68	2803.67
331.89	3157.97
332.10	2811.86
332.31	2707.41
332.52	2979.79
332.74	3176.40
332.95	2643.93
333.16	2781.14
333.37	3168.21
333.58	2889.68
333.80	2885.59
334.01	2627.54
334.22	2908.12
334.43	2922.45
334.64	2754.52
334.86	2789.33
335.07	2848.72
335.28	3299.28
335.49	2701.27
335.70	2885.59
335.92	3198.93
336.13	3334.09
336.34	2906.07
336.55	2842.58
336.76	3006.42
336.98	2645.98
337.19	2881.49
337.40	2867.16
337.61	3479.50
337.82	2975.70
338.04	2910.16
338.25	2623.45
338.46	2824.15
338.67	2953.17
338.88	2766.81
339.09	2666.46
339.31	2942.93
339.52	2777.05
339.73	2703.32
339.94	2883.54
340.15	3037.14
340.36	2906.07
340.58	2779.09
340.79	2705.37
341.00	2996.18
341.21	2783.19
341.42	3088.34
341.63	2770.90
341.85	3131.34
342.06	3028.95
342.27	2758.61
342.48	2992.08
342.69	2725.85
342.90	3053.52
343.12	3094.48
343.33	2725.85
343.54	3088.34
343.75	3313.61
343.96	2863.06
344.17	2705.37
344.38	2959.31
344.60	2738.13
344.81	2738.13
345.02	2791.38
345.23	3237.84
345.44	3463.12
345.65	2881.49
345.86	2910.16
346.07	3094.48
346.29	2926.55
346.50	2940.88
346.71	2871.25
346.92	3237.84
347.13	3352.52
347.34	2867.16
347.55	2709.46
347.76	3035.09
347.98	2766.81
348.19	2899.92
348.40	3043.28
348.61	2942.93
348.82	3227.60
349.03	2848.72
349.24	2779.09
349.45	3278.80
349.66	2623.45
349.88	2766.81
350.09	2768.85
350.30	3248.08
350.51	3217.36
350.72	2985.94
350.93	2781.14
351.14	2918.36
351.35	3039.19
351.56	2770.90
351.77	2838.48
351.99	3047.38
352.20	3227.60
352.41	2922.45
352.62	2609.11
352.83	2881.49
353.04	2973.65
353.25	2830.29
353.46	2904.02
353.67	3098.58
353.88	2697.17
354.09	2684.89
354.30	2795.48
354.52	3174.35
354.73	2916.31
354.94	2834.39
355.15	2899.92
355.36	3325.90
355.57	2928.60
355.78	2740.18
355.99	2758.61
356.20	2932.69
356.41	3174.35
356.62	2979.79
356.83	2844.63
357.04	3229.65
357.25	2723.80
357.46	2815.96
357.68	2688.98
357.89	2803.67
358.10	2887.64
358.31	2842.58
358.52	2869.20
358.73	2785.24
358.94	2863.06
359.15	2789.33
359.36	2803.67
359.57	3008.47
359.78	2887.64
359.99	2967.51
360.20	2654.17
360.41	3012.56
360.62	3135.44
360.83	2826.20
361.04	2848.72
361.25	2959.31
361.46	3268.56
361.67	2906.07
361.88	2858.96
362.09	3174.35
362.30	3088.34
362.51	2731.99
362.72	2842.58
362.93	3090.38
363.14	3030.99
363.35	2879.44
363.56	2678.74
363.78	3164.11
363.99	3133.39
364.20	2789.33
364.41	2891.73
364.62	3342.28
364.83	3037.14
365.04	2820.05
365.25	2830.29
365.46	3262.41
365.67	2885.59
365.88	2922.45
366.09	2772.95
366.30	2957.27
366.51	2951.12
366.72	2779.09
366.93	2736.09
367.14	3014.61
367.35	3219.41
367.56	2801.62
367.77	2975.70
367.98	2987.99
368.18	3078.10
368.39	2910.16
368.60	2701.27
368.81	3119.06
369.02	3067.86
369.23	2850.77
369.44	2693.08
369.65	2922.45
369.86	3018.71
370.07	2899.92
370.28	2748.37
370.49	3088.34
370.70	3043.28
370.91	2701.27
371.12	2656.22
371.33	3160.02
371.54	2873.30
371.75	2938.84
371.96	2539.48
372.17	3043.28
372.38	2922.45
372.59	2801.62
372.80	2756.57
373.01	2965.46
373.22	3020.75
373.43	2820.05
373.64	2748.37
373.85	3323.85
374.06	3239.89
374.26	2992.08
374.47	2930.64
374.68	3200.98
374.89	2992.08
375.10	2752.47
375.31	2885.59
375.52	2965.46
375.73	2975.70
375.94	2693.08
376.15	2926.55
376.36	2938.84
376.57	2885.59
376.78	2760.66
376.99	2867.16
377.20	3164.11
377.40	2848.72
377.61	3135.44
377.82	2668.50
378.03	3203.02
378.24	3145.68
378.45	2928.60
378.66	2893.78
378.87	2723.80
379.08	2760.66
379.29	2846.68
379.50	2953.17
379.71	2938.84
379.91	3057.62
380.12	2801.62
380.33	2901.97
380.54	2940.88
380.75	2994.13
380.96	2783.19
381.17	2852.82
381.38	2883.54
381.59	2987.99
381.80	2887.64
382.00	3004.37
382.21	3035.09
382.42	3366.86
382.63	3037.14
382.84	2961.36
383.05	3045.33
383.26	3272.65
383.47	2953.17
383.68	2787.29
383.88	3133.39
384.09	2990.03
384.30	3067.86
384.51	2899.92
384.72	2949.08
384.93	2770.90
385.14	2856.92
385.35	3016.66
385.55	2703.32
385.76	3205.07
385.97	2820.05
386.18	2701.27
386.39	2787.29
386.60	2891.73
386.81	2834.39
387.02	2779.09
387.22	2754.52
387.43	3125.20
387.64	2861.01
387.85	3067.86
388.06	2977.75
388.27	3958.72
388.48	7350.16
388.68	10823.51
388.89	13367.09
389.10	14456.61
389.31	14087.98
389.52	11372.37
389.73	9762.67
389.93	8722.30
390.14	8198.02
390.35	7253.91
390.56	6711.19
390.77	5615.53
390.98	4429.76
391.18	3686.34
391.39	3428.30
391.60	2965.46
391.81	3022.80
392.02	2904.02
392.23	3379.15
392.43	3002.32
392.64	2918.36
392.85	2889.68
393.06	3246.03
393.27	2967.51
393.47	2795.48
393.68	2916.31
393.89	2895.83
394.10	3143.63
394.31	2799.57
394.52	2725.85
394.72	2852.82
394.93	3280.85
395.14	2676.70
395.35	2889.68
395.56	2856.92
395.76	2994.13
395.97	2799.57
396.18	2951.12
396.39	2981.84
396.60	3516.36
396.80	3149.78
397.01	3076.05
397.22	3110.86
397.43	3141.58
397.64	2811.86
397.84	2944.98
398.05	3350.48
398.26	2963.41
398.47	3002.32
398.67	3033.04
398.88	3127.25
399.09	3153.87
399.30	2742.23
399.51	2922.45
399.71	2891.73
399.92	3030.99
400.13	2904.02
400.34	2828.24
400.54	2934.74
400.75	3231.69
400.96	2924.50
401.17	3104.72
401.37	3098.58
401.58	3000.27
401.79	2770.90
402.00	2942.93
402.21	3563.47
402.41	3117.01
402.62	3131.34
402.83	3223.50
403.04	3403.72
403.24	3735.50
403.45	2975.70
403.66	3084.24
403.87	3155.92
404.07	3315.66
404.28	3045.33
404.49	3033.04
404.70	3030.99
404.90	3155.92
405.11	2865.11
405.32	2947.03
405.52	3030.99
405.73	2926.55
405.94	2799.57
406.15	2914.26
406.35	3063.76
406.56	3123.15
406.77	2879.44
406.98	2824.15
407.18	2832.34
407.39	3246.03
407.60	2844.63
407.80	2953.17
408.01	2832.34
408.22	2994.13
408.43	2789.33
408.63	2904.02
408.84	3108.82
409.05	3145.68
409.25	2775.00
409.46	2803.67
409.67	2920.40
409.88	2852.82
410.08	2846.68
410.29	2869.20
410.50	3098.58
410.70	3063.76
410.91	2777.05
411.12	2912.21
411.32	2983.89
411.53	2861.01
411.74	2926.55
411.95	2922.45
412.15	2987.99
412.36	3123.15
412.57	2955.22
412.77	3049.43
412.98	2965.46
413.19	2897.88
413.39	2918.36
413.60	2895.83
413.81	3188.69
414.01	2775.00
414.22	2885.59
414.43	2938.84
414.63	2861.01
414.84	3133.39
415.05	2881.49
415.25	2772.95
415.46	3162.06
415.67	2926.55
415.87	2908.12
416.08	2846.68
416.29	2899.92
416.49	3026.90
416.70	2924.50
416.91	2838.48
417.11	2955.22
417.32	3071.95
417.53	2979.79
417.73	2918.36
417.94	2983.89
418.15	3071.95
418.35	2889.68
418.56	2881.49
418.77	3387.34
418.97	2889.68
419.18	2850.77
419.38	2555.86
419.59	2889.68
419.80	3227.60
420.00	2787.29
420.21	2848.72
420.42	3260.37
420.62	3057.62
420.83	2828.24
421.04	2834.39
421.24	2977.75
421.45	3117.01
421.65	2914.26
421.86	2897.88
422.07	3129.30
422.27	3026.90
422.48	2756.57
422.69	2709.46
422.89	3030.99
423.10	2992.08
423.30	2772.95
423.51	2846.68
423.72	2992.08
423.92	3157.97
424.13	2676.70
424.33	2893.78
424.54	3108.82
424.75	3004.37
424.95	3028.95
425.16	2832.34
425.36	2979.79
425.57	3043.28
425.78	3039.19
425.98	2928.60
426.19	2973.65
426.39	2797.53
426.60	2901.97
426.81	2938.84
427.01	3026.90
427.22	2838.48
427.42	2688.98
427.63	2820.05
427.83	3098.58
428.04	3264.46
428.25	2897.88
428.45	2920.40
428.66	3192.78
428.86	2996.18
429.07	2803.67
429.28	2762.71
429.48	2922.45
429.69	2842.58
429.89	2955.22
430.10	2725.85
430.30	3137.49
430.51	3237.84
430.71	2832.34
430.92	2836.44
431.13	2883.54
431.33	2983.89
431.54	2895.83
431.74	3082.19
431.95	3424.20
432.15	2820.05
432.36	2883.54
432.56	2891.73
432.77	3323.85
432.98	3356.62
433.18	2928.60
433.39	2770.90
433.59	2944.98
433.80	3330.00
434.00	3114.96
434.21	2928.60
434.41	2891.73
434.62	3393.48
434.82	2701.27
435.03	2736.09
435.23	3078.10
435.44	2797.53
435.64	2815.96
435.85	2947.03
436.06	3164.11
436.26	3147.73
436.47	2879.44
436.67	2822.10
436.88	2936.79
437.08	3147.73
437.29	2953.17
437.49	2994.13
437.70	3243.98
437.90	2940.88
438.11	3076.05
438.31	2969.55
438.52	3131.34
438.72	3192.78
438.93	3127.25
439.13	2965.46
439.34	3162.06
439.54	2936.79
439.75	2936.79
439.95	2992.08
440.16	2803.67
440.36	3033.04
440.57	2863.06
440.77	2891.73
440.98	3092.43
441.18	2987.99
441.39	2723.80
441.59	2680.79
441.80	3352.52
442.00	2969.55
442.21	2926.55
442.41	2756.57
442.62	3137.49
442.82	2914.26
443.02	2781.14
443.23	2848.72
443.43	2889.68
443.64	3266.51
443.84	2770.90
444.05	2942.93
444.25	3004.37
444.46	2947.03
444.66	2850.77
444.87	3065.81
445.07	2815.96
445.28	2805.72
445.48	2979.79
445.69	2930.64
445.89	3401.68
446.09	2832.34
446.30	3209.17
446.50	3250.13
446.71	4751.29
446.91	5738.41
447.12	6555.55
447.32	6942.61
447.53	6829.98
447.73	5744.55
447.93	5072.82
448.14	4837.30
448.34	4812.73
448.55	4048.83
448.75	4032.45
448.96	3782.60
449.16	3751.88
449.36	3485.64
449.57	2963.41
449.77	2871.25
449.98	2906.07
450.18	3008.47
450.39	2861.01
450.59	3039.19
450.79	2910.16
451.00	2887.64
451.20	3061.71
451.41	2764.76
451.61	3039.19
451.81	2969.55
452.02	2863.06
452.22	2877.40
452.43	2906.07
452.63	2897.88
452.84	2850.77
453.04	2805.72
453.24	2971.60
453.45	2824.15
453.65	2742.23
453.86	2895.83
454.06	3090.38
454.26	3035.09
454.47	2738.13
454.67	2973.65
454.87	3000.27
455.08	2912.21
455.28	2973.65
455.49	3014.61
455.69	2885.59
455.89	3381.20
456.10	2973.65
456.30	2846.68
456.51	3090.38
456.71	3055.57
456.91	2955.22
457.12	2803.67
457.32	3022.80
457.52	2775.00
457.73	3096.53
457.93	3024.85
458.14	2889.68
458.34	2672.60
458.54	2811.86
458.75	2830.29
458.95	3125.20
459.15	2992.08
459.36	2942.93
459.56	2936.79
459.76	3397.58
459.97	3041.23
460.17	2867.16
460.37	2973.65
460.58	3039.19
460.78	3033.04
460.99	2875.35
461.19	2824.15
461.39	2914.26
461.60	2994.13
461.80	2908.12
462.00	2748.37
462.21	2928.60
462.41	2836.44
462.61	2703.32
462.82	2682.84
463.02	3051.47
463.22	3014.61
463.43	2910.16
463.63	2856.92
463.83	3162.06
464.04	2998.23
464.24	2803.67
464.44	2807.77
464.64	3067.86
464.85	3071.95
465.05	2953.17
465.25	2736.09
465.46	2844.63
465.66	3074.00
465.86	2922.45
466.07	2791.38
466.27	2965.46
466.47	2750.42
466.68	2748.37
466.88	3006.42
467.08	3106.77
467.29	3141.58
467.49	2912.21
467.69	2944.98
467.89	3080.14
468.10	3004.37
468.30	2936.79
468.50	2949.08
468.71	3141.58
468.91	2715.61
469.11	3014.61
469.31	2852.82
469.52	2848.72
469.72	3237.84
469.92	3053.52
470.13	2912.21
470.33	2985.94
470.53	3037.14
470.73	3182.54
470.94	3475.40
471.14	3471.31
471.34	4048.83
471.54	3794.89
471.75	3577.80
471.95	3373.00
472.15	3325.90
472.36	3280.85
472.56	3252.17
472.76	3479.50
472.96	3344.33
473.17	3016.66
473.37	2981.84
473.57	2963.41
473.77	3090.38
473.98	2985.94
474.18	2754.52
474.38	3491.79
474.58	2895.83
474.79	2734.04
474.99	3030.99
475.19	3180.50
475.39	2854.87
475.60	2944.98
475.80	2832.34
476.00	3037.14
476.20	2871.25
476.41	2957.27
476.61	2914.26
476.81	3166.16
477.01	2801.62
477.21	3067.86
477.42	3020.75
477.62	2875.35
477.82	3188.69
478.02	2822.10
478.23	2897.88
478.43	2863.06
478.63	2889.68
478.83	2854.87
479.03	2818.00
479.24	3172.30
479.44	3360.72
479.64	2695.13
479.84	2654.17
480.04	2846.68
480.25	3110.86
480.45	2766.81
480.65	2813.91
480.85	3203.02
481.06	2867.16
481.26	2930.64
481.46	2764.76
481.66	3059.67
481.86	2877.40
482.06	3065.81
482.27	2830.29
482.47	2879.44
482.67	3080.14
482.87	2826.20
483.07	2914.26
483.28	2904.02
483.48	2758.61
483.68	2842.58
483.88	2738.13
484.08	2662.36
484.29	2789.33
484.49	2881.49
484.69	2725.85
484.89	3200.98
485.09	3221.45
485.29	2953.17
485.50	2934.74
485.70	2893.78
485.90	3190.74
486.10	2994.13
486.30	2850.77
486.50	3289.04
486.71	3012.56
486.91	2938.84
487.11	2951.12
487.31	2832.34
487.51	3067.86
487.71	2785.24
487.91	2840.53
488.12	2899.92
488.32	2600.92
488.52	2791.38
488.72	2668.50
488.92	3012.56
489.12	3213.26
489.32	3053.52
489.53	2863.06
489.73	2766.81
489.93	3264.46
490.13	2705.37
490.33	2721.75
490.53	3065.81
490.73	3127.25
490.94	2736.09
491.14	2893.78
491.34	3127.25
491.54	3149.78
491.74	3712.97
491.94	4280.25
492.14	4663.22
492.34	4652.98
492.54	4456.38
492.75	3770.31
492.95	3923.91
493.15	3631.05
493.35	3467.21
493.55	3444.68
493.75	3401.68
493.95	3438.54
494.15	3108.82
494.35	2942.93
494.56	2959.31
494.76	2873.30
494.96	2914.26
495.16	2865.11
495.36	3039.19
495.56	3051.47
495.76	2772.95
495.96	2799.57
496.16	2912.21
496.36	3379.15
496.56	2815.96
496.77	2869.20
496.97	3047.38
497.17	3200.98
497.37	2627.54
497.57	2936.79
497.77	3051.47
497.97	2748.37
498.17	2947.03
498.37	2863.06
498.57	3160.02
498.77	2906.07
498.97	3026.90
499.17	3194.83
499.38	2875.35
499.58	3074.00
499.78	2983.89
499.98	3037.14
500.18	3010.51
500.38	2775.00
500.58	2998.23
500.78	3280.85
500.98	5609.39
501.18	7407.50
501.38	8896.38
501.58	9727.85
501.78	9549.68
501.98	7884.68
502.18	6600.60
502.38	5924.77
502.58	5805.99
502.78	5038.00
502.98	4923.32
503.18	4640.70
503.38	4372.41
503.59	3776.45
503.79	3661.77
503.99	3360.72
504.19	3510.22
504.39	3510.22
504.59	3315.66
504.79	3227.60
504.99	3465.16
505.19	3182.54
505.39	2992.08
505.59	3160.02
505.79	3379.15
505.99	3166.16
506.19	2912.21
506.39	3061.71
506.59	2838.48
506.79	2889.68
506.99	3063.76
507.19	2877.40
507.39	3012.56
507.59	2754.52
507.79	2785.24
507.99	2766.81
508.19	3022.80
508.39	2920.40
508.59	2873.30
508.79	2938.84
508.99	3293.13
509.19	2844.63
509.39	2985.94
509.59	2770.90
509.79	2930.64
509.99	2959.31
510.19	3055.57
510.39	3000.27
510.59	2916.31
510.79	2910.16
510.99	2713.56
511.19	2863.06
511.39	3243.98
511.59	3121.10
511.79	3006.42
511.99	2942.93
512.19	3293.13
512.38	3033.04
512.58	2799.57
512.78	2797.53
512.98	3178.45
513.18	3264.46
513.38	2729.94
513.58	2971.60
513.78	2961.36
513.98	2912.21
514.18	2885.59
514.38	2775.00
514.58	3006.42
514.78	2803.67
514.98	2715.61
515.18	2826.20
515.38	2764.76
515.58	3229.65
515.78	2846.68
515.98	2893.78
516.18	3180.50
516.38	2992.08
516.57	2836.44
516.77	2824.15
516.97	3155.92
517.17	2914.26
517.37	2633.69
517.57	2916.31
517.77	2934.74
517.97	2918.36
518.17	2877.40
518.37	2731.99
518.57	2897.88
518.77	2924.50
518.97	2877.40
519.16	2901.97
519.36	3117.01
519.56	2813.91
519.76	2899.92
519.96	2885.59
520.16	3307.47
520.36	2856.92
520.56	3033.04
520.76	2820.05
520.96	2877.40
521.16	3196.88
521.35	3006.42
521.55	3084.24
521.75	3028.95
521.95	2916.31
522.15	2922.45
522.35	2688.98
522.55	2795.48
522.75	3143.63
522.95	2738.13
523.14	2734.04
523.34	3084.24
523.54	2918.36
523.74	2873.30
523.94	2838.48
524.14	2742.23
524.34	3088.34
524.54	3026.90
524.73	2953.17
524.93	3045.33
525.13	2912.21
525.33	2795.48
525.53	3078.10
525.73	3121.10
525.93	3057.62
526.13	2844.63
526.32	2813.91
526.52	3125.20
526.72	3114.96
526.92	2844.63
527.12	2748.37
527.32	2731.99
527.52	3063.76
527.71	2901.97
527.91	2901.97
528.11	2926.55
528.31	3006.42
528.51	2785.24
528.71	2992.08
528.90	3022.80
529.10	3192.78
529.30	2955.22
529.50	2607.06
529.70	3012.56
529.90	2985.94
530.09	2877.40
530.29	2736.09
530.49	2852.82
530.69	3454.92
530.89	2901.97
531.09	2877.40
531.28	2891.73
531.48	3166.16
531.68	2809.81
531.88	2889.68
532.08	3112.91
532.28	3043.28
532.47	2987.99
532.67	2940.88
532.87	3125.20
533.07	2748.37
533.27	2955.22
533.46	2942.93
533.66	3078.10
533.86	2967.51
534.06	2914.26
534.26	2934.74
534.45	2985.94
534.65	3125.20
534.85	2957.27
535.05	2746.33
535.25	3102.67
535.44	2670.55
535.64	2934.74
535.84	2924.50
536.04	2906.07
536.24	2885.59
536.43	2826.20
536.63	2795.48
536.83	3020.75
537.03	3024.85
537.22	2672.60
537.42	2670.55
537.62	3092.43
537.82	2809.81
538.02	3028.95
538.21	2994.13
538.41	3555.27
538.61	3049.43
538.81	2897.88
539.00	2967.51
539.20	2744.28
539.40	2951.12
539.60	2863.06
539.79	3059.67
539.99	2922.45
540.19	2815.96
540.39	2832.34
540.58	2891.73
540.78	3145.68
540.98	3020.75
541.18	3059.67
541.37	2893.78
541.57	2875.35
541.77	3061.71
541.97	2744.28
542.16	2750.42
542.36	2916.31
542.56	2887.64
542.76	3030.99
542.95	2973.65
543.15	3092.43
543.35	3041.23
543.54	2787.29
543.74	2785.24
543.94	3237.84
544.14	2938.84
544.33	2949.08
544.53	2893.78
544.73	2881.49
544.93	2901.97
545.12	2811.86
545.32	2926.55
545.52	2887.64
545.71	2832.34
545.91	2807.77
546.11	2779.09
546.30	2891.73
546.50	2934.74
546.70	2854.87
546.90	2904.02
547.09	2727.89
547.29	2975.70
547.49	3026.90
547.68	2828.24
547.88	2908.12
548.08	3139.54
548.27	3196.88
548.47	2801.62
548.67	2951.12
548.87	3084.24
549.06	2807.77
549.26	2801.62
549.46	2998.23
549.65	2922.45
549.85	2850.77
550.05	2858.96
550.24	2742.23
550.44	2930.64
550.64	2879.44
550.83	2885.59
551.03	3184.59
551.23	3200.98
551.42	2963.41
551.62	2924.50
551.82	2875.35
552.01	2938.84
552.21	3055.57
552.41	2875.35
552.60	3168.21
552.80	2951.12
553.00	2813.91
553.19	2887.64
553.39	3319.76
553.59	2787.29
553.78	2961.36
553.98	2807.77
554.17	2822.10
554.37	3037.14
554.57	2951.12
554.76	2738.13
554.96	2961.36
555.16	2940.88
555.35	2906.07
555.55	3010.51
555.75	3057.62
555.94	3065.81
556.14	2658.26
556.33	2910.16
556.53	2940.88
556.73	2961.36
556.92	2938.84
557.12	2863.06
557.32	3321.81
557.51	3145.68
557.71	2914.26
557.90	3028.95
558.10	3157.97
558.30	2983.89
558.49	2865.11
558.69	2793.43
558.88	3225.55
559.08	3012.56
559.28	2889.68
559.47	2883.54
559.67	3063.76
559.86	3344.33
560.06	2846.68
560.26	2861.01
560.45	3209.17
560.65	2899.92
560.84	3033.04
561.04	2758.61
561.24	3086.29
561.43	2856.92
561.63	3110.86
561.82	2961.36
562.02	3059.67
562.22	2914.26
562.41	2856.92
562.61	2869.20
562.80	2881.49
563.00	3469.26
563.19	2987.99
563.39	2942.93
563.59	3133.39
563.78	2803.67
563.98	2596.82
564.17	2789.33
564.37	2699.22
564.56	2942.93
564.76	2656.22
564.96	2922.45
565.15	3041.23
565.35	3444.68
565.54	2824.15
565.74	2881.49
565.93	3082.19
566.13	2877.40
566.32	2885.59
566.52	2973.65
566.71	3041.23
566.91	3110.86
567.11	2969.55
567.30	2723.80
567.50	3108.82
567.69	3080.14
567.89	2895.83
568.08	2738.13
568.28	3063.76
568.47	2793.43
568.67	2865.11
568.86	2799.57
569.06	3098.58
569.25	2918.36
569.45	2703.32
569.64	2873.30
569.84	2996.18
570.04	2938.84
570.23	2793.43
570.43	2834.39
570.62	3061.71
570.82	3223.50
571.01	2785.24
571.21	2822.10
571.40	2752.47
571.60	3100.62
571.79	2869.20
571.99	2844.63
572.18	2824.15
572.38	2959.31
572.57	2883.54
572.77	2869.20
572.96	3549.13
573.16	2955.22
573.35	2791.38
573.55	3039.19
573.74	2994.13
573.94	2889.68
574.13	2889.68
574.33	3018.71
574.52	3153.87
574.71	3061.71
574.91	2897.88
575.10	2746.33
575.30	2842.58
575.49	2832.34
575.69	2770.90
575.88	2852.82
576.08	3069.91
576.27	3133.39
576.47	2811.86
576.66	3061.71
576.86	3198.93
577.05	2987.99
577.25	2955.22
577.44	3030.99
577.64	2971.60
577.83	3121.10
578.02	2873.30
578.22	3096.53
578.41	3284.94
578.61	2987.99
578.80	2731.99
579.00	2899.92
579.19	2940.88
579.39	3047.38
579.58	2963.41
579.77	2904.02
579.97	3114.96
580.16	3188.69
580.36	3045.33
580.55	2885.59
580.75	3061.71
580.94	2998.23
581.13	3028.95
581.33	3149.78
581.52	2963.41
581.72	3299.28
581.91	3020.75
582.11	2824.15
582.30	3125.20
582.49	3014.61
582.69	3207.12
582.88	2971.60
583.08	3037.14
583.27	3098.58
583.47	2971.60
583.66	2854.87
583.85	2858.96
584.05	2944.98
584.24	2897.88
584.44	2901.97
584.63	3149.78
584.82	3162.06
585.02	3076.05
585.21	3065.81
585.41	3137.49
585.60	2996.18
585.79	3069.91
585.99	3205.07
586.18	3133.39
586.37	3821.51
586.57	5838.76
586.76	16647.94
586.96	35821.02
587.15	48936.21
587.34	57099.42
587.54	61398.10
587.73	54623.42
587.93	39247.27
588.12	29496.89
588.31	24022.67
588.51	21188.28
588.70	19879.63
588.89	17284.86
589.09	14659.36
589.28	12576.58
589.47	9897.83
589.67	7501.71
589.86	5967.78
590.06	4745.14
590.25	4126.66
590.44	3518.41
590.64	3309.52
590.83	3184.59
591.02	3231.69
591.22	2887.64
591.41	2934.74
591.60	2963.41
591.80	3442.64
591.99	2758.61
592.18	2885.59
592.38	3149.78
592.57	2877.40
592.76	2944.98
592.96	2949.08
593.15	2971.60
593.34	3162.06
593.54	2863.06
593.73	2975.70
593.92	3112.91
594.12	3020.75
594.31	2920.40
594.50	3092.43
594.70	3086.29
594.89	3534.79
595.08	2803.67
595.28	3082.19
595.47	3555.27
595.66	3098.58
595.86	2822.10
596.05	2731.99
596.24	2914.26
596.43	3334.09
596.63	2985.94
596.82	3026.90
597.01	3088.34
597.21	3356.62
597.40	2869.20
597.59	2889.68
597.79	2955.22
597.98	3078.10
598.17	2990.03
598.36	2877.40
598.56	3123.15
598.75	2944.98
598.94	2942.93
599.14	2906.07
599.33	2951.12
599.52	3065.81
599.71	2977.75
599.91	2916.31
600.10	3067.86
600.29	2961.36
600.48	2936.79
600.68	2990.03
600.87	3033.04
601.06	2861.01
601.26	2967.51
601.45	2938.84
601.64	2944.98
601.83	3291.09
602.03	2856.92
602.22	2797.53
602.41	3180.50
602.60	3344.33
602.80	2977.75
602.99	2953.17
603.18	2895.83
603.37	2965.46
603.57	2838.48
603.76	2959.31
603.95	3227.60
604.14	2957.27
604.34	2723.80
604.53	2844.63
604.72	3010.51
604.91	3057.62
605.10	2861.01
605.30	2641.88
605.49	3393.48
605.68	3094.48
605.87	2928.60
606.07	2748.37
606.26	2983.89
606.45	3094.48
606.64	2815.96
606.84	2713.56
607.03	3030.99
607.22	3117.01
607.41	2922.45
607.60	2813.91
607.80	3131.34
607.99	2994.13
608.18	2940.88
608.37	2908.12
608.56	2838.48
608.76	3237.84
608.95	2992.08
609.14	2801.62
609.33	3125.20
609.52	3192.78
609.72	2953.17
609.91	2963.41
610.10	3080.14
610.29	3246.03
610.48	2955.22
610.68	2963.41
610.87	2938.84
611.06	3100.62
611.25	2846.68
611.44	3057.62
611.63	2893.78
611.83	3188.69
612.02	2762.71
612.21	2953.17
612.40	2660.31
612.59	2807.77
612.79	2707.41
612.98	2904.02
613.17	3303.37
613.36	3024.85
613.55	3053.52
613.74	2826.20
613.93	3033.04
614.13	3092.43
614.32	3026.90
614.51	2938.84
614.70	3012.56
614.89	2953.17
615.08	3006.42
615.28	3336.14
615.47	2809.81
615.66	3049.43
615.85	2940.88
616.04	3014.61
616.23	2834.39
616.42	2955.22
616.62	2840.53
616.81	2940.88
617.00	2930.64
617.19	3110.86
617.38	2897.88
617.57	2871.25
617.76	3102.67
617.95	3114.96
618.15	3020.75
618.34	3100.62
618.53	2809.81
618.72	3174.35
618.91	2983.89
619.10	2953.17
619.29	2940.88
619.48	2994.13
619.68	2760.66
619.87	2861.01
620.06	2787.29
620.25	3037.14
620.44	2895.83
620.63	2813.91
620.82	3108.82
621.01	2918.36
621.20	2803.67
621.39	2932.69
621.59	2947.03
621.78	3000.27
621.97	2858.96
622.16	2955.22
622.35	3024.85
622.54	3117.01
622.73	2942.93
622.92	2703.32
623.11	3196.88
623.30	2994.13
623.49	2994.13
623.68	2746.33
623.88	3217.36
624.07	2836.44
624.26	2828.24
624.45	2891.73
624.64	2936.79
624.83	3090.38
625.02	2777.05
625.21	2842.58
625.40	2889.68
625.59	3196.88
625.78	2887.64
625.97	3010.51
626.16	3246.03
626.35	3155.92
626.54	2834.39
626.74	3147.73
626.93	2869.20
627.12	2996.18
627.31	2985.94
627.50	2932.69
627.69	3190.74
627.88	2844.63
628.07	2791.38
628.26	2674.65
628.45	2908.12
628.64	2842.58
628.83	2899.92
629.02	2740.18
629.21	3063.76
629.40	3047.38
629.59	2717.65
629.78	2883.54
629.97	3033.04
630.16	3018.71
630.35	2852.82
630.54	3004.37
630.73	2815.96
630.92	2994.13
631.11	2758.61
631.30	2879.44
631.49	3147.73
631.68	3037.14
631.87	2955.22
632.06	2818.00
632.25	3420.11
632.44	3028.95
632.63	3004.37
632.82	2899.92
633.01	2899.92
633.20	3018.71
633.39	2840.53
633.58	2723.80
633.77	3035.09
633.96	3110.86
634.15	2926.55
634.34	2881.49
634.53	3020.75
634.72	2838.48
634.91	2648.02
635.10	2938.84
635.29	3123.15
635.48	3004.37
635.67	2723.80
635.86	2693.08
636.05	3311.57
636.24	3024.85
636.43	2830.29
636.62	2920.40
636.81	2570.20
637.00	3016.66
637.19	2893.78
637.38	2914.26
637.57	2871.25
637.76	2967.51
637.95	2994.13
638.14	2852.82
638.33	3098.58
638.52	3002.32
638.71	2729.94
638.89	2703.32
639.08	3481.55
639.27	3215.31
639.46	3041.23
639.65	3354.57
639.84	3381.20
640.03	3596.23
640.22	3166.16
640.41	3254.22
640.60	3078.10
640.79	3178.45
640.98	3043.28
641.17	3065.81
641.36	3104.72
641.55	3155.92
641.74	2678.74
641.92	2828.24
642.11	2883.54
642.30	2985.94
642.49	2809.81
642.68	2787.29
642.87	3053.52
643.06	3106.77
643.25	2758.61
643.44	2799.57
643.63	2985.94
643.82	3110.86
644.00	2748.37
644.19	2822.10
644.38	2793.43
644.57	3084.24
644.76	2904.02
644.95	2996.18
645.14	3045.33
645.33	3018.71
645.52	2910.16
645.71	2721.75
645.89	2803.67
646.08	3006.42
646.27	2838.48
646.46	3098.58
646.65	2731.99
646.84	3035.09
647.03	2729.94
647.22	2967.51
647.40	3041.23
647.59	2930.64
647.78	2613.21
647.97	2852.82
648.16	2787.29
648.35	3200.98
648.54	3020.75
648.73	2912.21
648.91	3129.30
649.10	3008.47
649.29	2805.72
649.48	2906.07
649.67	3024.85
649.86	3043.28
650.05	2852.82
650.23	3024.85
650.42	2961.36
650.61	3157.97
650.80	2996.18
650.99	3145.68
651.18	3188.69
651.36	3043.28
651.55	2770.90
651.74	3047.38
651.93	2930.64
652.12	2887.64
652.31	2893.78
652.49	2914.26
652.68	2924.50
652.87	3180.50
653.06	2922.45
653.25	3088.34
653.44	2928.60
653.62	3254.22
653.81	2826.20
654.00	2805.72
654.19	3117.01
654.38	3340.24
654.56	2934.74
654.75	2785.24
654.94	3137.49
655.13	3037.14
655.32	2754.52
655.51	2877.40
655.69	2850.77
655.88	3192.78
656.07	2705.37
656.26	2869.20
656.45	2826.20
656.63	3047.38
656.82	2901.97
657.01	3096.53
657.20	2938.84
657.38	3194.83
657.57	2783.19
657.76	2693.08
657.95	3086.29
658.14	2908.12
658.32	2953.17
658.51	2766.81
658.70	2965.46
658.89	3004.37
659.08	2875.35
659.26	3051.47
659.45	2813.91
659.64	3024.85
659.83	2863.06
660.01	3252.17
660.20	3004.37
660.39	3190.74
660.58	2635.74
660.76	2940.88
660.95	2781.14
661.14	2926.55
661.33	2654.17
661.51	2799.57
661.70	2920.40
661.89	3026.90
662.08	2863.06
662.26	2744.28
662.45	2844.63
662.64	3260.37
662.83	2871.25
663.01	2674.65
663.20	2889.68
663.39	3231.69
663.58	2863.06
663.76	2787.29
663.95	3057.62
664.14	2791.38
664.32	2867.16
664.51	2738.13
664.70	2697.17
664.89	3074.00
665.07	2764.76
665.26	2990.03
665.45	2863.06
665.64	3112.91
665.82	2846.68
666.01	2955.22
666.20	2801.62
666.38	3110.86
666.57	3108.82
666.76	4745.14
666.95	11032.41
667.13	17659.63
667.32	21470.90
667.51	24303.25
667.69	25149.06
667.88	21407.42
668.07	15433.49
668.25	12992.31
668.44	11110.23
668.63	9820.01
668.81	8613.76
669.00	7370.64
669.19	6664.09
669.38	5916.58
669.56	5023.67
669.75	4370.37
669.94	3827.65
670.12	3424.20
670.31	3096.53
670.50	3192.78
670.68	3147.73
670.87	3121.10
671.06	2863.06
671.24	2975.70
671.43	3289.04
671.62	3026.90
671.80	2818.00
671.99	2942.93
672.18	2914.26
672.36	3172.30
672.55	2932.69
672.74	2901.97
672.92	2899.92
673.11	3094.48
673.29	2768.85
673.48	3084.24
673.67	2914.26
673.85	3207.12
674.04	2772.95
674.23	2944.98
674.41	3311.57
674.60	2801.62
674.79	2621.40
674.97	2772.95
675.16	3110.86
675.34	3168.21
675.53	2840.53
675.72	2959.31
675.90	3317.71
676.09	2951.12
676.28	2885.59
676.46	2701.27
676.65	3078.10
676.83	2789.33
677.02	2928.60
677.21	2899.92
677.39	3006.42
677.58	2830.29
677.77	2783.19
677.95	2713.56
678.14	2906.07
678.32	2822.10
678.51	2813.91
678.70	3123.15
678.88	2844.63
679.07	2953.17
679.25	2912.21
679.44	2906.07
679.63	2775.00
679.81	3000.27
680.00	3067.86
680.18	2951.12
680.37	3227.60
680.55	2963.41
680.74	2711.51
680.93	2713.56
681.11	3033.04
681.30	2955.22
681.48	2899.92
681.67	2842.58
681.85	2981.84
682.04	2838.48
682.23	3004.37
682.41	3008.47
682.60	2940.88
682.78	2809.81
682.97	2805.72
683.15	2885.59
683.34	3057.62
683.53	3262.41
683.71	2713.56
683.90	2965.46
684.08	3280.85
684.27	2975.70
684.45	2961.36
684.64	3061.71
684.82	2975.70
685.01	3063.76
685.19	2858.96
685.38	3133.39
685.57	3061.71
685.75	2906.07
685.94	2871.25
686.12	2756.57
686.31	2877.40
686.49	3200.98
686.68	2676.70
686.86	2875.35
687.05	2953.17
687.23	3258.32
687.42	2799.57
687.60	2705.37
687.79	3106.77
687.97	3231.69
688.16	3051.47
688.34	3080.14
688.53	2721.75
688.71	3016.66
688.90	3145.68
689.08	2942.93
689.27	2734.04
689.45	3057.62
689.64	3000.27
689.82	3069.91
690.01	3026.90
690.19	3020.75
690.38	2891.73
690.56	3057.62
690.75	2863.06
690.93	2869.20
691.12	2813.91
691.30	2951.12
691.49	2932.69
691.67	2981.84
691.86	3182.54
692.04	2861.01
692.23	2965.46
692.41	2996.18
692.60	3223.50
692.78	3047.38
692.97	2850.77
693.15	3086.29
693.34	3055.57
693.52	3012.56
693.71	2922.45
693.89	2879.44
694.08	2779.09
694.26	2936.79
694.44	3112.91
694.63	3055.57
694.81	2779.09
695.00	2885.59
695.18	3164.11
695.37	3452.88
695.55	2904.02
695.74	2863.06
695.92	2889.68
696.10	3170.26
696.29	2717.65
696.47	2873.30
696.66	2713.56
696.84	2828.24
697.03	2893.78
697.21	3117.01
697.40	4384.70
697.58	3215.31
697.76	2811.86
697.95	2781.14
698.13	2838.48
698.32	2916.31
698.50	2918.36
698.68	2981.84
698.87	2994.13
699.05	3274.70
699.24	2875.35
699.42	2834.39
699.61	3012.56
699.79	2928.60
699.97	2930.64
700.16	2713.56
700.34	2830.29
700.53	3080.14
700.71	3123.15
700.89	2975.70
701.08	2887.64
701.26	2967.51
701.45	3295.18
701.63	2846.68
701.81	2951.12
702.00	2781.14
702.18	2861.01
702.37	2854.87
702.55	3198.93
702.73	3016.66
702.92	2820.05
703.10	3176.40
703.28	3037.14
703.47	2801.62
703.65	3047.38
703.84	2979.79
704.02	2942.93
704.20	3180.50
704.39	2721.75
704.57	2803.67
704.75	3125.20
704.94	3108.82
705.12	2920.40
705.30	3393.48
705.49	6565.79
705.67	12822.33
705.86	18222.83
706.04	20829.89
706.22	23033.50
706.41	22402.73
706.59	16893.69
706.77	13221.69
706.96	11401.04
707.14	10405.73
707.32	8998.77
707.51	7853.96
707.69	6547.36
707.87	5474.22
708.06	4534.20
708.24	4089.79
708.42	3557.32
708.61	3755.97
708.79	2969.55
708.97	3018.71
709.16	3082.19
709.34	2957.27
709.52	2803.67
709.71	2897.88
709.89	3127.25
710.07	2781.14
710.26	2760.66
710.44	2891.73
710.62	3067.86
710.80	2983.89
710.99	2934.74
711.17	3008.47
711.35	2891.73
711.54	2926.55
711.72	3037.14
711.90	2955.22
712.09	3020.75
712.27	2877.40
712.45	3006.42
712.63	2762.71
712.82	2979.79
713.00	2897.88
713.18	2975.70
713.37	3063.76
713.55	3082.19
713.73	3096.53
713.91	2961.36
714.10	2877.40
714.28	2852.82
714.46	2957.27
714.65	3041.23
714.83	2844.63
715.01	3006.42
715.19	2985.94
715.38	2811.86
715.56	3018.71
715.74	2777.05
715.92	2846.68
716.11	3117.01
716.29	2705.37
716.47	2942.93
716.65	2920.40
716.84	2684.89
717.02	2963.41
717.20	2729.94
717.38	2869.20
717.57	2971.60
717.75	2973.65
717.93	2949.08
718.11	3106.77
718.30	2738.13
718.48	2895.83
718.66	3131.34
718.84	3168.21
719.03	2856.92
719.21	2801.62
719.39	3196.88
719.57	3149.78
719.75	2955.22
719.94	2787.29
720.12	2926.55
720.30	2947.03
720.48	2922.45
720.67	2838.48
720.85	2805.72
721.03	2885.59
721.21	2768.85
721.39	2938.84
721.58	3080.14
721.76	2869.20
721.94	2871.25
722.12	2904.02
722.30	3174.35
722.49	2910.16
722.67	2912.21
722.85	2901.97
723.03	2756.57
723.21	2844.63
723.40	2856.92
723.58	3035.09
723.76	3096.53
723.94	3108.82
724.12	2897.88
724.30	3084.24
724.49	3213.26
724.67	2848.72
724.85	2983.89
725.03	2807.77
725.21	3041.23
725.40	3217.36
725.58	2877.40
725.76	3061.71
725.94	3092.43
726.12	2770.90
726.30	2940.88
726.49	2797.53
726.67	2844.63
726.85	3082.19
727.03	3383.24
727.21	4444.09
727.39	5412.78
727.57	5926.82
727.76	6211.49
727.94	6244.26
728.12	5638.06
728.30	4716.47
728.48	4437.95
728.66	4108.23
728.84	3917.76
729.03	3506.12
729.21	3330.00
729.39	3151.82
729.57	3033.04
729.75	3106.77
729.93	3030.99
730.11	2801.62
730.30	2879.44
730.48	2879.44
730.66	2992.08
730.84	2951.12
731.02	2981.84
731.20	2867.16
731.38	2932.69
731.56	2713.56
731.74	2768.85
731.93	3123.15
732.11	2963.41
732.29	2852.82
732.47	3131.34
732.65	2899.92
732.83	3028.95
733.01	3012.56
733.19	2811.86
733.37	3084.24
733.56	2947.03
733.74	2801.62
733.92	3192.78
734.10	2934.74
734.28	2947.03
734.46	2617.30
734.64	2877.40
734.82	2983.89
735.00	2772.95
735.18	2844.63
735.36	3030.99
735.54	3002.32
735.73	2826.20
735.91	2985.94
736.09	3272.65
736.27	2955.22
736.45	2963.41
736.63	2627.54
736.81	2912.21
736.99	3162.06
737.17	3125.20
737.35	2799.57
737.53	3008.47
737.71	2924.50
737.89	2992.08
738.07	2781.14
738.25	2809.81
738.43	2760.66
738.61	2846.68
738.80	2715.61
738.98	2834.39
739.16	2928.60
739.34	2856.92
739.52	3137.49
739.70	2887.64
739.88	3108.82
740.06	3045.33
740.24	2627.54
740.42	3110.86
740.60	2703.32
740.78	2840.53
740.96	2656.22
741.14	2951.12
741.32	2994.13
741.50	2658.26
741.68	3184.59
741.86	3172.30
742.04	2752.47
742.22	2775.00
742.40	2947.03
742.58	3110.86
742.76	2805.72
742.94	3045.33
743.12	2633.69
743.30	2996.18
743.48	3006.42
743.66	2779.09
743.84	2910.16
744.02	2904.02
744.20	2897.88
744.38	2895.83
744.56	2840.53
744.74	3360.72
744.92	3014.61
745.10	3125.20
745.28	2965.46
745.46	3301.33
745.64	3024.85
745.82	2961.36
746.00	2887.64
746.18	3043.28
746.36	2822.10
746.54	2926.55
746.72	2813.91
746.90	2813.91
747.08	3131.34
747.26	2899.92
747.44	2987.99
747.62	3078.10
747.80	3039.19
747.98	3016.66
748.15	2926.55
748.33	3295.18
748.51	3012.56
748.69	2979.79
748.87	2734.04
749.05	2949.08
749.23	2934.74
749.41	2842.58
749.59	2904.02
749.77	3082.19
749.95	2953.17
750.13	2854.87
750.31	3035.09
750.49	2987.99
750.67	3092.43
750.85	3012.56
751.03	2877.40
751.20	3342.28
751.38	2916.31
751.56	2840.53
751.74	2818.00
751.92	2961.36
752.10	2836.44
752.28	3033.04
752.46	2809.81
752.64	3059.67
752.82	2967.51
753.00	3006.42
753.18	2828.24
753.35	2869.20
753.53	3022.80
753.71	2740.18
753.89	3008.47
754.07	3022.80
754.25	3098.58
754.43	2996.18
754.61	2791.38
754.79	3121.10
754.97	2942.93
755.14	3014.61
755.32	2713.56
755.50	2926.55
755.68	3035.09
755.86	2797.53
756.04	2885.59
756.22	2652.12
756.40	3178.45
756.57	3139.54
756.75	2871.25
756.93	3227.60
757.11	3090.38
757.29	2723.80
757.47	2711.51
757.65	2680.79
757.82	2553.82
758.00	2797.53
758.18	2801.62
758.36	2869.20
758.54	3319.76
758.72	2715.61
758.90	2965.46
759.07	3049.43
759.25	2799.57
759.43	2953.17
759.61	2695.13
759.79	4149.18
759.97	3166.16
760.15	2811.86
760.32	2832.34
760.50	2942.93
760.68	3221.45
760.86	2744.28
761.04	3045.33
761.22	3004.37
761.39	2987.99
761.57	2912.21
761.75	2904.02
761.93	3127.25
762.11	2893.78
762.28	2893.78
762.46	2770.90
762.64	3194.83
762.82	2791.38
763.00	2899.92
763.18	3110.86
763.35	2762.71
763.53	3143.63
763.71	2926.55
763.89	2840.53
764.07	3026.90
764.24	3004.37
764.42	3024.85
764.60	2842.58
764.78	3094.48
764.96	3141.58
765.13	2994.13
765.31	2701.27
765.49	3063.76
765.67	2899.92
765.84	2842.58
766.02	2715.61
766.20	2666.46
766.38	3022.80
766.56	2990.03
766.73	2951.12
766.91	2920.40
767.09	2959.31
767.27	2930.64
767.44	2801.62
767.62	3043.28
767.80	2994.13
767.98	2826.20
768.15	2852.82
768.33	3041.23
768.51	3207.12
768.69	3063.76
768.87	2869.20
769.04	2990.03
769.22	3432.40
769.40	3026.90
769.58	2965.46
769.75	3059.67
769.93	3164.11
770.11	2897.88
770.28	2742.23
770.46	3082.19
770.64	3086.29
770.82	2875.35
770.99	2848.72
771.17	3110.86
771.35	2899.92
771.53	2916.31
771.70	2731.99
771.88	3030.99
772.06	2848.72
772.23	2848.72
772.41	2873.30
772.59	2910.16
772.77	2770.90
772.94	2815.96
773.12	2965.46
773.30	2895.83
773.47	3057.62
773.65	2725.85
773.83	3033.04
774.01	2912.21
774.18	2688.98
774.36	2832.34
774.54	2787.29
774.71	3010.51
774.89	2719.70
775.07	2828.24
775.24	2899.92
775.42	2858.96
775.60	3303.37
775.78	2729.94
775.95	2725.85
776.13	2719.70
776.31	2645.98
776.48	3030.99
776.66	3069.91
776.84	2953.17
777.01	2795.48
777.19	2795.48
777.37	2770.90
777.54	3149.78
777.72	3336.14
777.90	2949.08
778.07	2795.48
778.25	3569.61
778.43	3229.65
778.60	2793.43
778.78	3037.14
778.96	3166.16
779.13	2789.33
779.31	3004.37
779.49	2922.45
779.66	3024.85
779.84	2906.07
780.01	2791.38
780.19	2721.75
780.37	3170.26
780.54	3110.86
780.72	2785.24
780.90	2848.72
781.07	2922.45
781.25	2807.77
781.43	3100.62
781.60	2877.40
781.78	3145.68
781.95	2979.79
782.13	2746.33
782.31	2887.64
782.48	2705.37
782.66	2992.08
782.83	3123.15
783.01	2977.75
783.19	3127.25
783.36	2832.34
783.54	2707.41
783.72	3000.27
783.89	2942.93
784.07	3008.47
784.24	2873.30
784.42	3106.77
784.60	2951.12
784.77	3008.47
784.95	2668.50
785.12	2877.40
785.30	2979.79
785.47	2791.38
785.65	2736.09
785.83	2963.41
786.00	2871.25
786.18	2936.79
786.35	2770.90
786.53	2762.71
786.71	3119.06
786.88	3028.95
787.06	2908.12
787.23	2918.36
787.41	2781.14
787.58	2934.74
787.76	2766.81
787.94	2883.54
788.11	3035.09
788.29	2779.09
788.46	2815.96
788.64	2686.94
788.81	2914.26
788.99	2910.16
789.16	2729.94
789.34	2873.30
789.52	2895.83
789.69	2953.17
789.87	2660.31
790.04	2889.68
790.22	3020.75
790.39	3348.43
790.57	2746.33
790.74	2785.24
790.92	3180.50
791.09	2703.32
791.27	2899.92
791.44	3030.99
791.62	2990.03
791.79	3164.11
791.97	2848.72
792.15	3194.83
792.32	2979.79
792.50	3088.34
792.67	3014.61
792.85	3127.25
793.02	3030.99
793.20	2916.31
793.37	2797.53
793.55	2838.48
793.72	2723.80
793.90	3061.71
794.07	2787.29
794.25	2770.90
794.42	3020.75
794.60	2873.30
794.77	2983.89
794.95	3002.32
795.12	3139.54
795.30	2953.17
795.47	2611.16
795.65	3264.46
795.82	3002.32
796.00	2742.23
796.17	2897.88
796.34	2754.52
796.52	3063.76
796.69	3084.24
796.87	2963.41
797.04	2961.36
797.22	3131.34
797.39	3004.37
797.57	2985.94
797.74	2973.65
797.92	3061.71
798.09	2887.64
798.27	3149.78
798.44	2930.64
798.62	2871.25
798.79	2979.79
798.96	2922.45
799.14	2863.06
799.31	3444.68
799.49	2977.75
799.66	2869.20
799.84	2904.02
800.01	2834.39
800.19	2953.17
800.36	2641.88
800.53	2944.98
800.71	3172.30
800.88	3162.06
801.06	2811.86
801.23	2770.90
801.41	2975.70
801.58	2846.68
801.75	2854.87
801.93	2938.84
802.10	3096.53
802.28	2922.45
802.45	2875.35
802.63	2899.92
802.80	3186.64
802.97	2922.45
803.15	2852.82
803.32	2830.29
803.50	2926.55
803.67	2824.15
803.84	2742.23
804.02	2904.02
804.19	2881.49
804.37	2598.87
804.54	2621.40
804.71	2854.87
804.89	2981.84
805.06	2760.66
805.24	2750.42
805.41	2682.84
805.58	2824.15
805.76	3479.50
805.93	2938.84
806.10	3026.90
806.28	3121.10
806.45	3059.67
806.63	3071.95
806.80	2953.17
806.97	3041.23
807.15	3002.32
807.32	2904.02
807.49	2840.53
807.67	2836.44
807.84	2987.99
808.01	2678.74
808.19	3002.32
808.36	3332.05
808.54	2985.94
808.71	2865.11
808.88	2899.92
809.06	3147.73
809.23	3215.31
809.40	2871.25
809.58	2842.58
809.75	2910.16
809.92	2713.56
810.10	3203.02
810.27	2881.49
810.44	3055.57
810.62	3106.77
810.79	3014.61
810.96	2793.43
811.14	2949.08
811.31	3082.19
811.48	3020.75
811.66	2869.20
811.83	3055.57
812.00	3110.86
812.18	2885.59
812.35	3117.01
812.52	2910.16
812.69	2871.25
812.87	2885.59
813.04	2742.23
813.21	2979.79
813.39	2830.29
813.56	2740.18
813.73	3078.10
813.91	2744.28
814.08	3002.32
814.25	2916.31
814.42	2707.41
814.60	2901.97
814.77	3010.51
814.94	2871.25
815.12	2965.46
815.29	3194.83
815.46	2795.48
815.63	2879.44
815.81	2787.29
815.98	2901.97
816.15	2979.79
816.33	2867.16
816.50	2834.39
816.67	2953.17
816.84	2938.84
817.02	2828.24
817.19	2852.82
817.36	2951.12
817.53	3018.71
817.71	2748.37
817.88	2967.51
818.05	2998.23
818.22	2934.74
818.40	3104.72
818.57	2807.77
818.74	3035.09
818.91	2942.93
819.09	2944.98
819.26	2957.27
819.43	2897.88
819.60	2813.91
819.78	2949.08
819.95	2940.88
820.12	2852.82
820.29	3143.63
820.47	3061.71
820.64	2785.24
820.81	2725.85
820.98	2869.20
821.15	2854.87
821.33	2922.45
821.50	2688.98
821.67	3110.86
821.84	2873.30
822.02	2949.08
822.19	3160.02
822.36	2916.31
822.53	2807.77
822.70	2738.13
822.88	2897.88
823.05	3225.55
823.22	2920.40
823.39	2899.92
823.56	2918.36
823.74	3213.26
823.91	2781.14
824.08	2783.19
824.25	2764.76
824.42	3327.95
824.60	2740.18
824.77	2920.40
824.94	3035.09
825.11	3074.00
825.28	2721.75
825.45	2944.98
825.63	3100.62
825.80	2830.29
825.97	3012.56
826.14	2901.97
826.31	2643.93
826.48	3014.61
826.66	2807.77
826.83	2848.72
827.00	2922.45
827.17	2877.40
827.34	2875.35
827.51	2840.53
827.69	2932.69
827.86	2727.89
828.03	2848.72
828.20	2901.97
828.37	2910.16
828.54	3069.91
828.71	2863.06
828.89	2928.60
829.06	3000.27
829.23	3299.28
829.40	2793.43
829.57	2844.63
829.74	3133.39
829.91	2899.92
830.09	2840.53
830.26	2920.40
830.43	3254.22
830.60	2971.60
830.77	2942.93
830.94	3020.75
831.11	3106.77
831.28	2914.26
831.46	2987.99
831.63	2885.59
831.80	3110.86
831.97	2848.72
832.14	2873.30
832.31	2951.12
832.48	2981.84
832.65	3174.35
832.82	2906.07
832.99	2897.88
833.17	2729.94
833.34	3239.89
833.51	2844.63
833.68	2584.54
833.85	3119.06
834.02	2889.68
834.19	2811.86
834.36	2861.01
834.53	3014.61
834.70	3209.17
834.87	2938.84
835.04	2635.74
835.22	2766.81
835.39	2944.98
835.56	2740.18
835.73	2719.70
835.90	3123.15
836.07	2877.40
836.24	2910.16
836.41	2707.41
836.58	2861.01
836.75	3145.68
836.92	2840.53
837.09	2658.26
837.26	3053.52
837.43	3018.71
837.60	2758.61
837.77	2729.94
837.94	3096.53
838.12	3143.63
838.29	2658.26
838.46	2643.93
838.63	2850.77
838.80	3196.88
838.97	2828.24
839.14	2805.72
839.31	3010.51
839.48	3049.43
839.65	2779.09
839.82	2756.57
839.99	3020.75
840.16	2998.23
840.33	2682.84
840.50	2787.29
840.67	2834.39
840.84	2564.06
841.01	2691.03
841.18	2715.61
841.35	2930.64
841.52	3096.53
841.69	2969.55
841.86	2791.38
842.03	2951.12
842.20	3125.20
842.37	2746.33
842.54	2797.53
842.71	2977.75
842.88	2762.71
843.05	2740.18
843.22	2701.27
843.39	3137.49
843.56	2908.12
843.73	2723.80
843.90	2777.05
844.07	2996.18
844.24	3178.45
844.41	2863.06
844.58	2721.75
844.75	2936.79
844.92	3147.73
845.09	2840.53
845.26	2768.85
845.43	3112.91
845.60	2914.26
845.77	2818.00
845.94	2813.91
846.10	3092.43
846.27	2734.04
846.44	2633.69
846.61	2605.02
846.78	2951.12
846.95	3198.93
847.12	2648.02
847.29	2740.18
847.46	2811.86
847.63	3076.05
847.80	2691.03
847.97	2779.09
848.14	3311.57
848.31	2961.36
848.48	2633.69
848.65	2770.90
848.82	2811.86
848.98	3446.73
849.15	2822.10
849.32	2813.91
849.49	3141.58
849.66	2953.17
849.83	2707.41
850.00	2727.89
850.17	3061.71
850.34	2879.44
850.51	2727.89
850.68	2781.14
850.85	3307.47
851.01	2977.75
851.18	2721.75
851.35	2744.28
851.52	3051.47
851.69	3176.40
851.86	2672.60
852.03	2746.33
852.20	3129.30
852.37	2963.41
852.53	2592.73
852.70	2629.59
852.87	3006.42
853.04	3084.24
853.21	2691.03
853.38	2949.08
853.55	3198.93
853.72	3137.49
853.89	2580.44
854.05	2650.07
854.22	2987.99
854.39	2940.88
854.56	2680.79
854.73	2840.53
854.90	2820.05
855.07	2869.20
855.23	2553.82
855.40	2662.36
855.57	2914.26
855.74	2631.64
855.91	2951.12
856.08	2584.54
856.25	2723.80
856.41	2858.96
856.58	2725.85
856.75	2760.66
856.92	2805.72
857.09	3160.02
857.26	2588.63
857.42	2770.90
857.59	3149.78
857.76	2826.20
857.93	2709.46
858.10	2828.24
858.27	2750.42
858.43	3067.86
858.60	2719.70
858.77	2627.54
858.94	2861.01
859.11	3141.58
859.27	2850.77
859.44	2629.59
859.61	3389.39
859.78	3094.48
859.95	2705.37
860.12	2709.46
860.28	3301.33
860.45	3268.56
860.62	2615.26
860.79	2850.77
860.95	2891.73
861.12	2848.72
861.29	2633.69
861.46	2723.80
861.63	2963.41
861.79	2977.75
861.96	2686.94
862.13	2770.90
862.30	3192.78
862.47	2889.68
862.63	2660.31
862.80	2795.48
862.97	3112.91
863.14	3174.35
863.30	2772.95
863.47	2680.79
863.64	3180.50
863.81	3008.47
863.97	2684.89
864.14	2779.09
864.31	2865.11
864.48	2932.69
864.65	2799.57
864.81	2828.24
864.98	3063.76
865.15	3051.47
865.32	2783.19
865.48	2891.73
865.65	3293.13
865.82	2781.14
865.98	2834.39
866.15	2787.29
866.32	2926.55
866.49	2936.79
866.65	2805.72
866.82	2824.15
866.99	2928.60
867.16	2983.89
867.32	2770.90
867.49	2674.65
867.66	3010.51
867.83	2916.31
867.99	2686.94
868.16	2824.15
868.33	2697.17
868.49	2973.65
868.66	2727.89
868.83	2803.67
868.99	3024.85
869.16	3022.80
869.33	2844.63
869.50	2863.06
869.66	3037.14
869.83	2934.74
870.00	2645.98
870.16	2789.33
870.33	2990.03
870.50	3084.24
870.66	2836.44
870.83	2815.96
871.00	2971.60
871.17	3088.34
871.33	2799.57
871.50	2629.59
871.67	2959.31
871.83	2858.96
872.00	2836.44
872.17	2721.75
872.33	3188.69
872.50	3133.39
872.67	2740.18
872.83	2703.32
873.00	3004.37
873.17	2985.94
873.33	2697.17
873.50	2807.77
873.67	2858.96
873.83	2883.54
874.00	2750.42
874.16	2883.54
874.33	2959.31
874.50	2738.13
874.66	2727.89
874.83	2842.58
875.00	3246.03
875.16	3162.06
875.33	2834.39
875.50	2545.63
875.66	2840.53
875.83	2940.88
875.99	2791.38
876.16	2793.43
876.33	2934.74
876.49	2910.16
876.66	2824.15
876.83	2742.23
876.99	2715.61
877.16	2904.02
877.32	2719.70
877.49	2807.77
877.66	3119.06
877.82	3190.74
877.99	2793.43
878.15	2981.84
878.32	3012.56
878.49	3069.91
878.65	2785.24
878.82	2955.22
878.98	2906.07
879.15	3164.11
879.32	2844.63
879.48	2844.63
879.65	2891.73
879.81	2895.83
879.98	2731.99
880.15	2844.63
880.31	3086.29
880.48	2815.96
880.64	2875.35
880.81	2840.53
880.97	3235.79
881.14	3266.51
881.31	2725.85
881.47	3002.32
881.64	2916.31
881.80	2713.56
881.97	2940.88
882.13	2783.19
882.30	2824.15
882.47	2822.10
882.63	2746.33
882.80	2734.04
882.96	2924.50
883.13	3180.50
883.29	2787.29
883.46	2807.77
883.62	3346.38
883.79	2944.98
883.95	2918.36
884.12	2723.80
884.29	3188.69
884.45	3022.80
884.62	2789.33
884.78	2668.50
884.95	3293.13
885.11	2863.06
885.28	2828.24
885.44	2785.24
885.61	3086.29
885.77	3225.55
885.94	2867.16
886.10	2846.68
886.27	3030.99
886.43	3237.84
886.60	2992.08
886.76	2752.47
886.93	2850.77
887.09	3074.00
887.26	2594.78
887.42	2811.86
887.59	3164.11
887.75	3327.95
887.92	2926.55
888.08	2899.92
888.25	3243.98
888.41	3057.62
888.58	2725.85
888.74	2637.78
888.91	2924.50
>>>>>End Processed Spectral Data<<<<<
