SpectraSuite Data File
++++++++++++++++++++++++++++++++++++
Date: Thu May 05 21:11:11 CEST 2016
User: root
Dark Spectrum Present: No
Reference Spectrum Present: No
Number of Sampled Component Spectra: 1
Spectrometers: USB4C02835
Integration Time (usec): 100000 (USB4C02835)
Spectra Averaged: 1 (USB4C02835)
Boxcar Smoothing: 0 (USB4C02835)
Correct for Electrical Dark: No (USB4C02835)
Strobe/Lamp Enabled: No (USB4C02835)
Correct for Detector Non-linearity: No (USB4C02835)
Correct for Stray Light: No (USB4C02835)
Number of Pixels in Processed Spectrum: 3648
>>>>>Begin Processed Spectral Data<<<<<
177.47	2158.56
177.69	2158.56
177.91	2158.56
178.13	2129.89
178.36	2123.74
178.58	2815.96
178.80	2904.02
179.02	2785.24
179.24	2764.76
179.46	2570.20
179.68	2672.60
179.90	2947.03
180.13	2920.40
180.35	2504.67
180.57	2656.22
180.79	3076.05
181.01	3020.75
181.23	2697.17
181.45	2781.14
181.67	3094.48
181.90	3170.26
182.12	2684.89
182.34	2574.30
182.56	3063.76
182.78	3080.14
183.00	2713.56
183.22	2695.13
183.44	2713.56
183.66	3456.97
183.89	2916.31
184.11	2684.89
184.33	3086.29
184.55	3172.30
184.77	2680.79
184.99	2756.57
185.21	2920.40
185.43	3342.28
185.65	2686.94
185.87	2623.45
186.10	3321.81
186.32	3397.58
186.54	2779.09
186.76	2779.09
186.98	3180.50
187.20	2987.99
187.42	2678.74
187.64	2664.41
187.86	3039.19
188.08	3180.50
188.30	2578.39
188.52	2699.22
188.75	3188.69
188.97	3243.98
189.19	2662.36
189.41	2635.74
189.63	3045.33
189.85	2906.07
190.07	2547.67
190.29	2533.34
190.51	3063.76
190.73	2752.47
190.95	2865.11
191.17	2701.27
191.39	2688.98
191.61	2969.55
191.84	2674.65
192.06	2795.48
192.28	2729.94
192.50	3506.12
192.72	2815.96
192.94	2664.41
193.16	3176.40
193.38	3188.69
193.60	2588.63
193.82	2932.69
194.04	3182.54
194.26	3035.09
194.48	2656.22
194.70	2674.65
194.92	2944.98
195.14	3084.24
195.36	2605.02
195.58	2752.47
195.80	2973.65
196.02	2877.40
196.24	2637.78
196.46	2809.81
196.69	2858.96
196.91	3346.38
197.13	2721.75
197.35	2699.22
197.57	3258.32
197.79	3059.67
198.01	2809.81
198.23	2680.79
198.45	3008.47
198.67	2777.05
198.89	2555.86
199.11	2799.57
199.33	2914.26
199.55	2652.12
199.77	2648.02
199.99	2770.90
200.21	2955.22
200.43	3055.57
200.65	2576.34
200.87	2512.86
201.09	2961.36
201.31	2897.88
201.53	2705.37
201.75	2736.09
201.97	3022.80
202.19	3030.99
202.41	2719.70
202.63	2846.68
202.85	3149.78
203.07	2965.46
203.29	2838.48
203.51	2598.87
203.73	2897.88
203.95	3459.02
204.17	2658.26
204.39	2912.21
204.61	2983.89
204.83	2901.97
205.05	2815.96
205.27	2713.56
205.49	3411.92
205.71	2975.70
205.93	2574.30
206.15	2668.50
206.37	3028.95
206.59	2963.41
206.81	2594.78
207.03	2551.77
207.25	2824.15
207.47	3117.01
207.69	2670.55
207.91	2910.16
208.13	3260.37
208.34	2854.87
208.56	2631.64
208.78	2691.03
209.00	2949.08
209.22	2877.40
209.44	2656.22
209.66	2664.41
209.88	3000.27
210.10	2906.07
210.32	2680.79
210.54	2820.05
210.76	3024.85
210.98	3149.78
211.20	2535.39
211.42	2807.77
211.64	3223.50
211.86	3098.58
212.08	2785.24
212.30	2713.56
212.52	2928.60
212.74	3086.29
212.96	2799.57
213.17	2781.14
213.39	3178.45
213.61	3172.30
213.83	2662.36
214.05	2516.95
214.27	3104.72
214.49	2828.24
214.71	2674.65
214.93	2795.48
215.15	2961.36
215.37	3104.72
215.59	2543.58
215.81	2760.66
216.03	3194.83
216.24	2969.55
216.46	2684.89
216.68	2805.72
216.90	3100.62
217.12	3215.31
217.34	2656.22
217.56	2805.72
217.78	3243.98
218.00	3028.95
218.22	2695.13
218.44	2756.57
218.66	3035.09
218.87	3356.62
219.09	2709.46
219.31	2703.32
219.53	3104.72
219.75	2926.55
219.97	2750.42
220.19	2668.50
220.41	2975.70
220.63	3217.36
220.85	2668.50
221.06	2727.89
221.28	3229.65
221.50	3090.38
221.72	2721.75
221.94	2645.98
222.16	2977.75
222.38	3141.58
222.60	2699.22
222.82	2680.79
223.03	3133.39
223.25	2772.95
223.47	2594.78
223.69	2910.16
223.91	3069.91
224.13	3037.14
224.35	2613.21
224.57	2822.10
224.78	3100.62
225.00	2818.00
225.22	2744.28
225.44	2691.03
225.66	3125.20
225.88	2893.78
226.10	2815.96
226.32	2693.08
226.53	3207.12
226.75	2957.27
226.97	2762.71
227.19	2701.27
227.41	2895.83
227.63	2920.40
227.85	2486.23
228.06	2697.17
228.28	3043.28
228.50	3182.54
228.72	2582.49
228.94	2691.03
229.16	2709.46
229.37	2795.48
229.59	2684.89
229.81	2926.55
230.03	2924.50
230.25	2699.22
230.47	2580.44
230.69	2621.40
230.90	3139.54
231.12	2869.20
231.34	2783.19
231.56	2811.86
231.78	2740.18
232.00	3014.61
232.21	2707.41
232.43	2680.79
232.65	2670.55
232.87	2953.17
233.09	2498.52
233.30	2686.94
233.52	3205.07
233.74	2996.18
233.96	2600.92
234.18	2820.05
234.40	2959.31
234.61	3491.79
234.83	2531.29
235.05	2748.37
235.27	3463.12
235.49	3178.45
235.70	2545.63
235.92	2715.61
236.14	3086.29
236.36	3323.85
236.58	2582.49
236.79	2756.57
237.01	3012.56
237.23	3014.61
237.45	2785.24
237.67	2699.22
237.88	3114.96
238.10	3297.23
238.32	2559.96
238.54	2639.83
238.76	2994.13
238.97	2861.01
239.19	2629.59
239.41	2777.05
239.63	3149.78
239.85	2897.88
240.06	2727.89
240.28	2629.59
240.50	3078.10
240.72	2998.23
240.93	2619.35
241.15	2787.29
241.37	2994.13
241.59	3131.34
241.81	2680.79
242.02	2723.80
242.24	3053.52
242.46	3049.43
242.68	2549.72
242.89	2600.92
243.11	3119.06
243.33	2967.51
243.55	2693.08
243.76	2648.02
243.98	2924.50
244.20	2944.98
244.42	2650.07
244.64	2715.61
244.85	2789.33
245.07	2852.82
245.29	2645.98
245.51	2744.28
245.72	2998.23
245.94	3203.02
246.16	2621.40
246.38	2676.70
246.59	2916.31
246.81	2852.82
247.03	2633.69
247.24	2586.58
247.46	2897.88
247.68	3041.23
247.90	2592.73
248.11	2721.75
248.33	3143.63
248.55	2912.21
248.77	2711.51
248.98	2750.42
249.20	3278.80
249.42	3000.27
249.64	2682.84
249.85	2697.17
250.07	2908.12
250.29	3086.29
250.50	2727.89
250.72	2607.06
250.94	3114.96
251.16	3317.71
251.37	2705.37
251.59	2738.13
251.81	3018.71
252.02	3268.56
252.24	2600.92
252.46	2852.82
252.68	2910.16
252.89	2901.97
253.11	2549.72
253.33	2805.72
253.54	3252.17
253.76	2705.37
253.98	2717.65
254.20	2668.50
254.41	2795.48
254.63	2914.26
254.85	2566.10
255.06	2758.61
255.28	3016.66
255.50	2899.92
255.71	2670.55
255.93	2555.86
256.15	2908.12
256.36	2979.79
256.58	2576.34
256.80	2676.70
257.02	3020.75
257.23	2951.12
257.45	2787.29
257.67	2822.10
257.88	2940.88
258.10	3112.91
258.32	2697.17
258.53	2754.52
258.75	3268.56
258.97	2951.12
259.18	2629.59
259.40	2602.97
259.62	3282.89
259.83	3221.45
260.05	2688.98
260.27	3551.18
260.48	3139.54
260.70	2777.05
260.92	2541.53
261.13	2680.79
261.35	2987.99
261.57	3057.62
261.78	2621.40
262.00	2611.16
262.22	3014.61
262.43	2834.39
262.65	2701.27
262.86	2715.61
263.08	3426.25
263.30	3037.14
263.51	2545.63
263.73	2645.98
263.95	3264.46
264.16	2871.25
264.38	2586.58
264.60	2572.25
264.81	2973.65
265.03	3166.16
265.25	3139.54
265.46	2672.60
265.68	3166.16
265.89	3053.52
266.11	2541.53
266.33	2676.70
266.54	3162.06
266.76	3041.23
266.98	2688.98
267.19	2891.73
267.41	3127.25
267.62	2897.88
267.84	2537.43
268.06	2752.47
268.27	3002.32
268.49	3182.54
268.70	2717.65
268.92	2674.65
269.14	2760.66
269.35	2703.32
269.57	2764.76
269.79	2682.84
270.00	2867.16
270.22	3336.14
270.43	2578.39
270.65	2514.91
270.87	3074.00
271.08	3096.53
271.30	2850.77
271.51	2605.02
271.73	3094.48
271.95	3178.45
272.16	2666.46
272.38	2772.95
272.59	2901.97
272.81	3074.00
273.02	2701.27
273.24	2727.89
273.46	3194.83
273.67	2811.86
273.89	2516.95
274.10	2555.86
274.32	3182.54
274.54	2994.13
274.75	2754.52
274.97	2723.80
275.18	3092.43
275.40	3071.95
275.61	2768.85
275.83	2875.35
276.05	2801.62
276.26	2944.98
276.48	2791.38
276.69	2764.76
276.91	3028.95
277.12	3176.40
277.34	2883.54
277.55	2877.40
277.77	2971.60
277.99	2977.75
278.20	2760.66
278.42	2697.17
278.63	2877.40
278.85	2811.86
279.06	2750.42
279.28	2916.31
279.49	3147.73
279.71	3184.59
279.93	2865.11
280.14	2867.16
280.36	2852.82
280.57	3074.00
280.79	2803.67
281.00	2715.61
281.22	2856.92
281.43	3153.87
281.65	2598.87
281.86	2703.32
282.08	3055.57
282.29	3327.95
282.51	2670.55
282.73	2693.08
282.94	2672.60
283.16	3057.62
283.37	2901.97
283.59	2848.72
283.80	3164.11
284.02	2949.08
284.23	2840.53
284.45	2783.19
284.66	2824.15
284.88	2858.96
285.09	2754.52
285.31	2959.31
285.52	2949.08
285.74	2787.29
285.95	3002.32
286.17	2852.82
286.38	3127.25
286.60	2881.49
286.81	2768.85
287.03	2781.14
287.24	2965.46
287.46	3104.72
287.67	2830.29
287.89	3035.09
288.10	3088.34
288.32	3035.09
288.53	2938.84
288.75	2858.96
288.96	3149.78
289.18	2881.49
289.39	2715.61
289.61	2791.38
289.82	3307.47
290.04	3334.09
290.25	2674.65
290.47	2861.01
290.68	2955.22
290.90	3104.72
291.11	2672.60
291.33	2885.59
291.54	2840.53
291.76	2818.00
291.97	2807.77
292.18	2895.83
292.40	2875.35
292.61	2940.88
292.83	3004.37
293.04	2813.91
293.26	3076.05
293.47	2940.88
293.69	2654.17
293.90	2695.13
294.12	3176.40
294.33	2975.70
294.55	2834.39
294.76	2969.55
294.97	3141.58
295.19	3405.77
295.40	2760.66
295.62	2953.17
295.83	3125.20
296.05	2912.21
296.26	2957.27
296.48	2832.34
296.69	2951.12
296.90	2904.02
297.12	2994.13
297.33	2942.93
297.55	3026.90
297.76	3153.87
297.98	2830.29
298.19	2852.82
298.41	2904.02
298.62	2822.10
298.83	3092.43
299.05	2865.11
299.26	2922.45
299.48	2699.22
299.69	2766.81
299.90	2811.86
300.12	2803.67
300.33	3131.34
300.55	2840.53
300.76	2873.30
300.98	2797.53
301.19	3166.16
301.40	2768.85
301.62	2830.29
301.83	3063.76
302.05	2934.74
302.26	2775.00
302.47	2934.74
302.69	2797.53
302.90	2981.84
303.12	2623.45
303.33	2897.88
303.54	3295.18
303.76	2846.68
303.97	2807.77
304.19	3045.33
304.40	2852.82
304.61	3098.58
304.83	2977.75
305.04	2897.88
305.26	3094.48
305.47	2826.20
305.68	2789.33
305.90	2695.13
306.11	3157.97
306.33	2920.40
306.54	2688.98
306.75	2717.65
306.97	2795.48
307.18	2856.92
307.39	2813.91
307.61	2916.31
307.82	2887.64
308.04	3108.82
308.25	2754.52
308.46	2957.27
308.68	2969.55
308.89	2971.60
309.10	2924.50
309.32	2764.76
309.53	3030.99
309.74	3098.58
309.96	2809.81
310.17	2926.55
310.39	2856.92
310.60	3067.86
310.81	2787.29
311.03	2744.28
311.24	3164.11
311.45	3000.27
311.67	3014.61
311.88	2877.40
312.09	2885.59
312.31	2826.20
312.52	2779.09
312.73	2740.18
312.95	2766.81
313.16	2871.25
313.37	2949.08
313.59	2967.51
313.80	3043.28
314.01	3205.07
314.23	2830.29
314.44	2754.52
314.65	2822.10
314.87	2811.86
315.08	2818.00
315.29	2799.57
315.51	2775.00
315.72	2760.66
315.93	2830.29
316.15	2865.11
316.36	2885.59
316.57	3035.09
316.79	2813.91
317.00	2721.75
317.21	3096.53
317.43	2912.21
317.64	2807.77
317.85	2762.71
318.07	2865.11
318.28	2963.41
318.49	2875.35
318.70	3012.56
318.92	3033.04
319.13	3155.92
319.34	3059.67
319.56	2832.34
319.77	3123.15
319.98	3117.01
320.20	2971.60
320.41	2910.16
320.62	2998.23
320.83	2840.53
321.05	3074.00
321.26	2877.40
321.47	2942.93
321.69	3225.55
321.90	2676.70
322.11	2707.41
322.32	3010.51
322.54	3313.61
322.75	2877.40
322.96	3551.18
323.18	2752.47
323.39	2637.78
323.60	2727.89
323.81	2867.16
324.03	2822.10
324.24	2967.51
324.45	2863.06
324.66	2826.20
324.88	3162.06
325.09	3151.82
325.30	2744.28
325.52	2713.56
325.73	3092.43
325.94	2772.95
326.15	2707.41
326.37	2658.26
326.58	3094.48
326.79	3188.69
327.00	2670.55
327.22	2772.95
327.43	2936.79
327.64	2863.06
327.85	2936.79
328.07	2881.49
328.28	3336.14
328.49	2901.97
328.70	2785.24
328.92	2781.14
329.13	2942.93
329.34	3094.48
329.55	2971.60
329.76	2981.84
329.98	2883.54
330.19	3135.44
330.40	2850.77
330.61	2955.22
330.83	3096.53
331.04	2871.25
331.25	2875.35
331.46	2885.59
331.68	2779.09
331.89	3178.45
332.10	2754.52
332.31	2627.54
332.52	2979.79
332.74	3211.22
332.95	2619.35
333.16	2725.85
333.37	3102.67
333.58	2932.69
333.80	2844.63
334.01	2729.94
334.22	2971.60
334.43	2904.02
334.64	2746.33
334.86	2731.99
335.07	2832.34
335.28	3233.74
335.49	2721.75
335.70	2877.40
335.92	3160.02
336.13	3381.20
336.34	2852.82
336.55	2832.34
336.76	3110.86
336.98	2670.55
337.19	2832.34
337.40	2967.51
337.61	3516.36
337.82	2957.27
338.04	2908.12
338.25	2592.73
338.46	2967.51
338.67	2889.68
338.88	2680.79
339.09	2693.08
339.31	2942.93
339.52	2758.61
339.73	2785.24
339.94	2809.81
340.15	3065.81
340.36	2826.20
340.58	2924.50
340.79	2740.18
341.00	3039.19
341.21	2813.91
341.42	3010.51
341.63	2838.48
341.85	3080.14
342.06	3010.51
342.27	2824.15
342.48	2928.60
342.69	2746.33
342.90	3012.56
343.12	3059.67
343.33	2736.09
343.54	3211.22
343.75	3180.50
343.96	2809.81
344.17	2701.27
344.38	2928.60
344.60	2826.20
344.81	2736.09
345.02	2754.52
345.23	3209.17
345.44	3452.88
345.65	2912.21
345.86	2779.09
346.07	3057.62
346.29	2908.12
346.50	2887.64
346.71	2897.88
346.92	3194.83
347.13	3391.44
347.34	2869.20
347.55	2719.70
347.76	3033.04
347.98	2707.41
348.19	2799.57
348.40	3067.86
348.61	2869.20
348.82	3237.84
349.03	2836.44
349.24	2799.57
349.45	3280.85
349.66	2625.50
349.88	2840.53
350.09	2693.08
350.30	3215.31
350.51	3246.03
350.72	2893.78
350.93	2807.77
351.14	2885.59
351.35	3047.38
351.56	2818.00
351.77	2861.01
351.99	2998.23
352.20	3209.17
352.41	2953.17
352.62	2633.69
352.83	2926.55
353.04	3078.10
353.25	2744.28
353.46	2791.38
353.67	3229.65
353.88	2660.31
354.09	2781.14
354.30	2811.86
354.52	3080.14
354.73	2969.55
354.94	2779.09
355.15	2871.25
355.36	3327.95
355.57	2918.36
355.78	2770.90
355.99	2772.95
356.20	2930.64
356.41	3241.93
356.62	2904.02
356.83	2813.91
357.04	3235.79
357.25	2688.98
357.46	2775.00
357.68	2639.83
357.89	2775.00
358.10	2938.84
358.31	2766.81
358.52	2912.21
358.73	2760.66
358.94	2768.85
359.15	2791.38
359.36	2758.61
359.57	3018.71
359.78	2979.79
359.99	2987.99
360.20	2717.65
360.41	3006.42
360.62	3137.49
360.83	2926.55
361.04	2801.62
361.25	3045.33
361.46	3223.50
361.67	2934.74
361.88	2854.87
362.09	3180.50
362.30	3026.90
362.51	2746.33
362.72	2838.48
362.93	3102.67
363.14	3114.96
363.35	2938.84
363.56	2684.89
363.78	3170.26
363.99	3102.67
364.20	2926.55
364.41	2899.92
364.62	3338.19
364.83	3065.81
365.04	2811.86
365.25	2838.48
365.46	3317.71
365.67	2795.48
365.88	2934.74
366.09	2766.81
366.30	2910.16
366.51	3008.47
366.72	2688.98
366.93	2746.33
367.14	2985.94
367.35	3180.50
367.56	2820.05
367.77	2850.77
367.98	2863.06
368.18	3076.05
368.39	2951.12
368.60	2789.33
368.81	3098.58
369.02	3074.00
369.23	2785.24
369.44	2674.65
369.65	2832.34
369.86	3074.00
370.07	2971.60
370.28	2723.80
370.49	3016.66
370.70	3074.00
370.91	2703.32
371.12	2678.74
371.33	3190.74
371.54	2865.11
371.75	2861.01
371.96	2568.15
372.17	3033.04
372.38	2908.12
372.59	2858.96
372.80	2787.29
373.01	2951.12
373.22	3047.38
373.43	2740.18
373.64	2652.12
373.85	3133.39
374.06	3272.65
374.26	2852.82
374.47	2932.69
374.68	3162.06
374.89	3030.99
375.10	2764.76
375.31	2893.78
375.52	3057.62
375.73	3059.67
375.94	2635.74
376.15	2928.60
376.36	2844.63
376.57	2926.55
376.78	2848.72
376.99	2830.29
377.20	3219.41
377.40	2922.45
377.61	3045.33
377.82	2760.66
378.03	3235.79
378.24	3057.62
378.45	2910.16
378.66	2869.20
378.87	2709.46
379.08	2770.90
379.29	2844.63
379.50	2990.03
379.71	2957.27
379.91	3090.38
380.12	2856.92
380.33	2901.97
380.54	2975.70
380.75	2910.16
380.96	2901.97
381.17	2959.31
381.38	2922.45
381.59	2918.36
381.80	2809.81
382.00	2959.31
382.21	3004.37
382.42	3303.37
382.63	3153.87
382.84	2932.69
383.05	3178.45
383.26	3231.69
383.47	2963.41
383.68	2832.34
383.88	3059.67
384.09	2994.13
384.30	3055.57
384.51	2889.68
384.72	2936.79
384.93	2736.09
385.14	2891.73
385.35	3108.82
385.55	2781.14
385.76	3211.22
385.97	2848.72
386.18	2748.37
386.39	2871.25
386.60	2891.73
386.81	2836.44
387.02	2752.47
387.22	2711.51
387.43	3049.43
387.64	2944.98
387.85	3112.91
388.06	3026.90
388.27	3977.16
388.48	7260.05
388.68	11028.31
388.89	13565.74
389.10	14622.50
389.31	14411.56
389.52	11458.39
389.73	9795.43
389.93	8914.81
390.14	8152.96
390.35	7370.64
390.56	6737.82
390.77	5570.48
390.98	4306.88
391.18	3637.19
391.39	3477.45
391.60	3063.76
391.81	3018.71
392.02	2822.10
392.23	3403.72
392.43	3035.09
392.64	3004.37
392.85	2959.31
393.06	3289.04
393.27	2959.31
393.47	2805.72
393.68	2811.86
393.89	2930.64
394.10	3274.70
394.31	2789.33
394.52	2809.81
394.72	2838.48
394.93	3207.12
395.14	2691.03
395.35	2906.07
395.56	2920.40
395.76	2965.46
395.97	2867.16
396.18	2965.46
396.39	2992.08
396.60	3581.90
396.80	3143.63
397.01	3059.67
397.22	3119.06
397.43	3045.33
397.64	2785.24
397.84	2891.73
398.05	3352.52
398.26	2971.60
398.47	2908.12
398.67	3018.71
398.88	3022.80
399.09	3078.10
399.30	2828.24
399.51	2885.59
399.71	2934.74
399.92	2883.54
400.13	2889.68
400.34	2840.53
400.54	2967.51
400.75	3151.82
400.96	2953.17
401.17	3188.69
401.37	3114.96
401.58	3002.32
401.79	2793.43
402.00	2932.69
402.21	3459.02
402.41	3076.05
402.62	3102.67
402.83	3213.26
403.04	3407.82
403.24	3633.10
403.45	2963.41
403.66	3074.00
403.87	3209.17
404.07	3434.44
404.28	3047.38
404.49	3180.50
404.70	3018.71
404.90	3067.86
405.11	2932.69
405.32	2990.03
405.52	2861.01
405.73	2908.12
405.94	2760.66
406.15	2930.64
406.35	3121.10
406.56	3164.11
406.77	2916.31
406.98	2873.30
407.18	2824.15
407.39	3297.23
407.60	2871.25
407.80	2918.36
408.01	2912.21
408.22	3061.71
408.43	2801.62
408.63	2910.16
408.84	3104.72
409.05	3145.68
409.25	2848.72
409.46	2863.06
409.67	2928.60
409.88	2893.78
410.08	2916.31
410.29	2785.24
410.50	3252.17
410.70	3100.62
410.91	2803.67
411.12	2881.49
411.32	2981.84
411.53	2891.73
411.74	2895.83
411.95	2951.12
412.15	3024.85
412.36	3160.02
412.57	2930.64
412.77	2998.23
412.98	2994.13
413.19	2875.35
413.39	2895.83
413.60	2815.96
413.81	3237.84
414.01	2803.67
414.22	2803.67
414.43	3045.33
414.63	2887.64
414.84	3258.32
415.05	2904.02
415.25	2637.78
415.46	3117.01
415.67	2938.84
415.87	2940.88
416.08	2830.29
416.29	2940.88
416.49	3000.27
416.70	2791.38
416.91	2869.20
417.11	2883.54
417.32	3145.68
417.53	2928.60
417.73	2873.30
417.94	2918.36
418.15	3051.47
418.35	2840.53
418.56	2877.40
418.77	3360.72
418.97	3016.66
419.18	2938.84
419.38	2588.63
419.59	2920.40
419.80	3241.93
420.00	2740.18
420.21	2789.33
420.42	3205.07
420.62	3086.29
420.83	2772.95
421.04	2885.59
421.24	2949.08
421.45	3223.50
421.65	2901.97
421.86	2828.24
422.07	3127.25
422.27	3129.30
422.48	2775.00
422.69	2768.85
422.89	3002.32
423.10	2938.84
423.30	2746.33
423.51	2893.78
423.72	3129.30
423.92	3127.25
424.13	2752.47
424.33	2901.97
424.54	3170.26
424.75	3041.23
424.95	3039.19
425.16	2834.39
425.36	2928.60
425.57	3209.17
425.78	3020.75
425.98	3018.71
426.19	3057.62
426.39	2813.91
426.60	2957.27
426.81	2985.94
427.01	3065.81
427.22	2893.78
427.42	2621.40
427.63	2748.37
427.83	3151.82
428.04	3297.23
428.25	2881.49
428.45	2930.64
428.66	3149.78
428.86	2965.46
429.07	2942.93
429.28	2901.97
429.48	2908.12
429.69	2795.48
429.89	2852.82
430.10	2789.33
430.30	3186.64
430.51	3131.34
430.71	2791.38
430.92	2856.92
431.13	2889.68
431.33	3039.19
431.54	2944.98
431.74	2994.13
431.95	3344.33
432.15	2815.96
432.36	2865.11
432.56	2973.65
432.77	3248.08
432.98	3334.09
433.18	2875.35
433.39	2799.57
433.59	2928.60
433.80	3264.46
434.00	3088.34
434.21	2875.35
434.41	2844.63
434.62	3352.52
434.82	2688.98
435.03	2740.18
435.23	3035.09
435.44	2721.75
435.64	2838.48
435.85	2836.44
436.06	3157.97
436.26	3149.78
436.47	2768.85
436.67	2930.64
436.88	2944.98
437.08	3104.72
437.29	2965.46
437.49	2938.84
437.70	3121.10
437.90	2942.93
438.11	3012.56
438.31	2924.50
438.52	3168.21
438.72	3168.21
438.93	3160.02
439.13	2942.93
439.34	3141.58
439.54	2912.21
439.75	2992.08
439.95	2906.07
440.16	2822.10
440.36	2922.45
440.57	2820.05
440.77	2920.40
440.98	3018.71
441.18	3014.61
441.39	2813.91
441.59	2744.28
441.80	3323.85
442.00	3037.14
442.21	2895.83
442.41	2686.94
442.62	3096.53
442.82	2916.31
443.02	2789.33
443.23	2904.02
443.43	2940.88
443.64	3184.59
443.84	2715.61
444.05	2928.60
444.25	3039.19
444.46	2873.30
444.66	2803.67
444.87	3057.62
445.07	2682.84
445.28	2975.70
445.48	2955.22
445.69	2944.98
445.89	3360.72
446.09	2985.94
446.30	3145.68
446.50	3141.58
446.71	4736.95
446.91	5849.00
447.12	6508.44
447.32	7059.35
447.53	6895.51
447.73	5631.91
447.93	5167.03
448.14	4714.42
448.34	4937.65
448.55	4114.37
448.75	4118.47
448.96	3870.66
449.16	3551.18
449.36	3522.51
449.57	3039.19
449.77	2865.11
449.98	2963.41
450.18	3098.58
450.39	2723.80
450.59	3000.27
450.79	2981.84
451.00	2824.15
451.20	3041.23
451.41	2789.33
451.61	3104.72
451.81	2942.93
452.02	2795.48
452.22	2797.53
452.43	2858.96
452.63	2830.29
452.84	2858.96
453.04	2791.38
453.24	3004.37
453.45	2828.24
453.65	2889.68
453.86	2906.07
454.06	2983.89
454.26	2918.36
454.47	2754.52
454.67	3106.77
454.87	3092.43
455.08	2924.50
455.28	2928.60
455.49	2916.31
455.69	2875.35
455.89	3336.14
456.10	2938.84
456.30	2832.34
456.51	3157.97
456.71	3008.47
456.91	2955.22
457.12	2875.35
457.32	3067.86
457.52	2801.62
457.73	2850.77
457.93	3084.24
458.14	2904.02
458.34	2633.69
458.54	2901.97
458.75	2789.33
458.95	3160.02
459.15	3112.91
459.36	2865.11
459.56	2887.64
459.76	3397.58
459.97	3010.51
460.17	2785.24
460.37	3016.66
460.58	2963.41
460.78	3137.49
460.99	2801.62
461.19	2904.02
461.39	2910.16
461.60	2914.26
461.80	2926.55
462.00	2750.42
462.21	3067.86
462.41	2879.44
462.61	2820.05
462.82	2662.36
463.02	3026.90
463.22	3006.42
463.43	2846.68
463.63	2779.09
463.83	3188.69
464.04	3057.62
464.24	2807.77
464.44	2897.88
464.64	3033.04
464.85	3143.63
465.05	2901.97
465.25	2838.48
465.46	2994.13
465.66	3082.19
465.86	2922.45
466.07	2822.10
466.27	3061.71
466.47	2777.05
466.68	2693.08
466.88	3020.75
467.08	3151.82
467.29	3147.73
467.49	2883.54
467.69	2924.50
467.89	3098.58
468.10	2947.03
468.30	2891.73
468.50	2985.94
468.71	3112.91
468.91	2766.81
469.11	3069.91
469.31	2920.40
469.52	2834.39
469.72	3264.46
469.92	3141.58
470.13	2901.97
470.33	3033.04
470.53	3096.53
470.73	3250.13
470.94	3616.71
471.14	3624.90
471.34	4122.56
471.54	3891.14
471.75	3606.47
471.95	3362.76
472.15	3321.81
472.36	3317.71
472.56	3190.74
472.76	3373.00
472.96	3315.66
473.17	3063.76
473.37	3108.82
473.57	2992.08
473.77	3076.05
473.98	2965.46
474.18	2705.37
474.38	3522.51
474.58	2897.88
474.79	2734.04
474.99	2922.45
475.19	3225.55
475.39	2787.29
475.60	2957.27
475.80	2838.48
476.00	3030.99
476.20	2922.45
476.41	2965.46
476.61	2920.40
476.81	3235.79
477.01	2858.96
477.21	3106.77
477.42	2983.89
477.62	2904.02
477.82	3123.15
478.02	2813.91
478.23	3018.71
478.43	2881.49
478.63	2914.26
478.83	2969.55
479.03	2828.24
479.24	3200.98
479.44	3385.29
479.64	2744.28
479.84	2637.78
480.04	2846.68
480.25	3225.55
480.45	2828.24
480.65	2770.90
480.85	3180.50
481.06	2883.54
481.26	2967.51
481.46	2926.55
481.66	3151.82
481.86	2813.91
482.06	3063.76
482.27	2793.43
482.47	2895.83
482.67	2975.70
482.87	2836.44
483.07	2891.73
483.28	2924.50
483.48	2721.75
483.68	2850.77
483.88	2764.76
484.08	2680.79
484.29	2811.86
484.49	2908.12
484.69	2686.94
484.89	3172.30
485.09	3153.87
485.29	2901.97
485.50	2965.46
485.70	2885.59
485.90	3112.91
486.10	3028.95
486.30	2793.43
486.50	3155.92
486.71	3053.52
486.91	2947.03
487.11	2965.46
487.31	2789.33
487.51	3078.10
487.71	2834.39
487.91	2684.89
488.12	2848.72
488.32	2627.54
488.52	2877.40
488.72	2602.97
488.92	3047.38
489.12	3162.06
489.32	2996.18
489.53	2871.25
489.73	2705.37
489.93	3325.90
490.13	2815.96
490.33	2721.75
490.53	3043.28
490.73	3221.45
490.94	2715.61
491.14	2998.23
491.34	3057.62
491.54	3121.10
491.74	3637.19
491.94	4325.31
492.14	4724.66
492.34	4745.14
492.54	4444.09
492.75	3915.72
492.95	3954.63
493.15	3715.02
493.35	3448.78
493.55	3430.35
493.75	3383.24
493.95	3377.10
494.15	3037.14
494.35	2942.93
494.56	2973.65
494.76	2881.49
494.96	2981.84
495.16	2770.90
495.36	2940.88
495.56	3043.28
495.76	2910.16
495.96	2844.63
496.16	2869.20
496.36	3385.29
496.56	2838.48
496.77	2904.02
496.97	3004.37
497.17	3256.27
497.37	2686.94
497.57	2930.64
497.77	2975.70
497.97	2869.20
498.17	2863.06
498.37	2770.90
498.57	3059.67
498.77	2912.21
498.97	3063.76
499.17	3198.93
499.38	2973.65
499.58	3018.71
499.78	3051.47
499.98	3010.51
500.18	3002.32
500.38	2850.77
500.58	3055.57
500.78	3409.87
500.98	5541.80
501.18	7387.02
501.38	8826.75
501.58	9723.76
501.78	9670.51
501.98	8030.09
502.18	6768.54
502.38	5900.20
502.58	5636.01
502.78	4984.76
502.98	4820.92
503.18	4722.62
503.38	4308.93
503.59	3782.60
503.79	3596.23
503.99	3448.78
504.19	3448.78
504.39	3477.45
504.59	3282.89
504.79	3155.92
504.99	3434.44
505.19	3151.82
505.39	3026.90
505.59	3221.45
505.79	3313.61
505.99	3256.27
506.19	2938.84
506.39	3129.30
506.59	2826.20
506.79	2955.22
506.99	3071.95
507.19	2850.77
507.39	3069.91
507.59	2760.66
507.79	2840.53
507.99	2803.67
508.19	2987.99
508.39	2924.50
508.59	2906.07
508.79	3016.66
508.99	3272.65
509.19	2836.44
509.39	2885.59
509.59	2787.29
509.79	2897.88
509.99	3080.14
510.19	3006.42
510.39	3000.27
510.59	3039.19
510.79	2840.53
510.99	2691.03
511.19	2828.24
511.39	3225.55
511.59	3133.39
511.79	3004.37
511.99	2822.10
512.19	3346.38
512.38	3002.32
512.58	2813.91
512.78	2791.38
512.98	3229.65
513.18	3295.18
513.38	2805.72
513.58	2912.21
513.78	2977.75
513.98	3000.27
514.18	2865.11
514.38	2848.72
514.58	3035.09
514.78	2869.20
514.98	2820.05
515.18	2865.11
515.38	2799.57
515.58	3330.00
515.78	2834.39
515.98	2813.91
516.18	3080.14
516.38	3018.71
516.57	2834.39
516.77	2807.77
516.97	3131.34
517.17	2885.59
517.37	2680.79
517.57	2912.21
517.77	2973.65
517.97	2863.06
518.17	2893.78
518.37	2768.85
518.57	2957.27
518.77	2904.02
518.97	2918.36
519.16	2846.68
519.36	3184.59
519.56	2846.68
519.76	2840.53
519.96	2891.73
520.16	3264.46
520.36	2762.71
520.56	3071.95
520.76	2744.28
520.96	2914.26
521.16	3164.11
521.35	2961.36
521.55	2965.46
521.75	2879.44
521.95	2883.54
522.15	2834.39
522.35	2695.13
522.55	2813.91
522.75	3129.30
522.95	2723.80
523.14	2723.80
523.34	3039.19
523.54	2863.06
523.74	2942.93
523.94	2908.12
524.14	2697.17
524.34	3008.47
524.54	2975.70
524.73	2820.05
524.93	3108.82
525.13	3020.75
525.33	2756.57
525.53	3024.85
525.73	3125.20
525.93	2951.12
526.13	2807.77
526.32	2768.85
526.52	3176.40
526.72	3082.19
526.92	2858.96
527.12	2858.96
527.32	2777.05
527.52	3006.42
527.71	2807.77
527.91	2838.48
528.11	2940.88
528.31	3030.99
528.51	2795.48
528.71	2985.94
528.90	3082.19
529.10	3203.02
529.30	2832.34
529.50	2578.39
529.70	2979.79
529.90	2990.03
530.09	2856.92
530.29	2686.94
530.49	2766.81
530.69	3465.16
530.89	2922.45
531.09	2942.93
531.28	2965.46
531.48	3180.50
531.68	2930.64
531.88	2836.44
532.08	3092.43
532.28	2985.94
532.47	2963.41
532.67	2998.23
532.87	3041.23
533.07	2836.44
533.27	2912.21
533.46	2922.45
533.66	3106.77
533.86	2990.03
534.06	3000.27
534.26	2858.96
534.45	2910.16
534.65	3196.88
534.85	2934.74
535.05	2822.10
535.25	3147.73
535.44	2770.90
535.64	2930.64
535.84	2830.29
536.04	2936.79
536.24	2975.70
536.43	2809.81
536.63	2856.92
536.83	2979.79
537.03	3045.33
537.22	2760.66
537.42	2736.09
537.62	3039.19
537.82	2846.68
538.02	3000.27
538.21	2951.12
538.41	3477.45
538.61	3090.38
538.81	2920.40
539.00	3028.95
539.20	2750.42
539.40	2971.60
539.60	2799.57
539.79	3033.04
539.99	3065.81
540.19	2813.91
540.39	2848.72
540.58	2928.60
540.78	3131.34
540.98	2992.08
541.18	3071.95
541.37	2957.27
541.57	2969.55
541.77	3057.62
541.97	2764.76
542.16	2639.83
542.36	2897.88
542.56	2977.75
542.76	3092.43
542.95	2971.60
543.15	3082.19
543.35	3065.81
543.54	2791.38
543.74	2787.29
543.94	3243.98
544.14	2901.97
544.33	2987.99
544.53	2908.12
544.73	2920.40
544.93	2904.02
545.12	2885.59
545.32	2797.53
545.52	2940.88
545.71	2803.67
545.91	2748.37
546.11	2789.33
546.30	2848.72
546.50	2942.93
546.70	2854.87
546.90	2865.11
547.09	2699.22
547.29	3024.85
547.49	2953.17
547.68	2818.00
547.88	2891.73
548.08	3074.00
548.27	3266.51
548.47	2756.57
548.67	2926.55
548.87	3043.28
549.06	2797.53
549.26	2836.44
549.46	3090.38
549.65	2910.16
549.85	2910.16
550.05	2869.20
550.24	2840.53
550.44	3041.23
550.64	2871.25
550.83	2914.26
551.03	3182.54
551.23	3192.78
551.42	2856.92
551.62	2889.68
551.82	3012.56
552.01	2967.51
552.21	3143.63
552.41	2916.31
552.60	3203.02
552.80	3006.42
553.00	2820.05
553.19	2889.68
553.39	3350.48
553.59	2828.24
553.78	2928.60
553.98	2838.48
554.17	2797.53
554.37	3047.38
554.57	3000.27
554.76	2731.99
554.96	2875.35
555.16	3008.47
555.35	2955.22
555.55	3030.99
555.75	2998.23
555.94	3141.58
556.14	2639.83
556.33	2840.53
556.53	2992.08
556.73	2965.46
556.92	2908.12
557.12	2834.39
557.32	3411.92
557.51	3213.26
557.71	2944.98
557.90	3082.19
558.10	3174.35
558.30	2973.65
558.49	2856.92
558.69	2852.82
558.88	3100.62
559.08	2947.03
559.28	2926.55
559.47	2918.36
559.67	3022.80
559.86	3373.00
560.06	2811.86
560.26	2871.25
560.45	3086.29
560.65	2961.36
560.84	3110.86
561.04	2832.34
561.24	3114.96
561.43	2838.48
561.63	2969.55
561.82	2977.75
562.02	3006.42
562.22	2754.52
562.41	2834.39
562.61	2783.19
562.80	2779.09
563.00	3475.40
563.19	2918.36
563.39	2953.17
563.59	3092.43
563.78	2764.76
563.98	2598.87
564.17	2836.44
564.37	2666.46
564.56	2916.31
564.76	2686.94
564.96	2971.60
565.15	3071.95
565.35	3395.53
565.54	2889.68
565.74	2973.65
565.93	3086.29
566.13	2969.55
566.32	2914.26
566.52	2916.31
566.71	2918.36
566.91	3082.19
567.11	2969.55
567.30	2756.57
567.50	3028.95
567.69	2971.60
567.89	2791.38
568.08	2746.33
568.28	2998.23
568.47	2828.24
568.67	2844.63
568.86	2830.29
569.06	3090.38
569.25	2916.31
569.45	2738.13
569.64	2867.16
569.84	2897.88
570.04	3028.95
570.23	2824.15
570.43	2830.29
570.62	3022.80
570.82	3241.93
571.01	2717.65
571.21	2822.10
571.40	2899.92
571.60	3092.43
571.79	2856.92
571.99	2918.36
572.18	2775.00
572.38	3000.27
572.57	2869.20
572.77	2840.53
572.96	3459.02
573.16	3078.10
573.35	2858.96
573.55	2981.84
573.74	2971.60
573.94	2897.88
574.13	2893.78
574.33	2975.70
574.52	3194.83
574.71	2975.70
574.91	2932.69
575.10	2729.94
575.30	2887.64
575.49	2881.49
575.69	2746.33
575.88	2830.29
576.08	2947.03
576.27	3268.56
576.47	2787.29
576.66	3012.56
576.86	3246.03
577.05	3080.14
577.25	2877.40
577.44	3047.38
577.64	2856.92
577.83	3078.10
578.02	2807.77
578.22	2967.51
578.41	3327.95
578.61	2863.06
578.80	2719.70
579.00	2881.49
579.19	2942.93
579.39	3030.99
579.58	2936.79
579.77	2877.40
579.97	3200.98
580.16	3162.06
580.36	3074.00
580.55	2985.94
580.75	3129.30
580.94	3041.23
581.13	3059.67
581.33	3086.29
581.52	2949.08
581.72	3340.24
581.91	3010.51
582.11	2815.96
582.30	3143.63
582.49	3051.47
582.69	3188.69
582.88	2963.41
583.08	3000.27
583.27	3137.49
583.47	2904.02
583.66	2756.57
583.85	2834.39
584.05	3018.71
584.24	3020.75
584.44	2904.02
584.63	3188.69
584.82	3200.98
585.02	3131.34
585.21	3035.09
585.41	3137.49
585.60	3063.76
585.79	3086.29
585.99	3233.74
586.18	3074.00
586.37	3870.66
586.57	5826.47
586.76	16815.87
586.96	36140.50
587.15	49124.63
587.34	57427.09
587.54	61439.06
587.73	55092.41
587.93	39345.58
588.12	30133.81
588.31	24221.33
588.51	21601.97
588.70	19810.00
588.89	17299.19
589.09	14571.30
589.28	12592.96
589.47	9809.77
589.67	7514.00
589.86	6055.84
590.06	4728.76
590.25	4116.42
590.44	3567.56
590.64	3319.76
590.83	3280.85
591.02	3209.17
591.22	2881.49
591.41	2949.08
591.60	2961.36
591.80	3409.87
591.99	2744.28
592.18	2844.63
592.38	3149.78
592.57	2893.78
592.76	2807.77
592.96	2973.65
593.15	2957.27
593.34	3160.02
593.54	2881.49
593.73	2969.55
593.92	3186.64
594.12	3100.62
594.31	2920.40
594.50	3092.43
594.70	3092.43
594.89	3559.37
595.08	2768.85
595.28	2998.23
595.47	3585.99
595.66	3123.15
595.86	2779.09
596.05	2799.57
596.24	2969.55
596.43	3395.53
596.63	2961.36
596.82	3041.23
597.01	3006.42
597.21	3258.32
597.40	2883.54
597.59	2838.48
597.79	2887.64
597.98	3026.90
598.17	2973.65
598.36	2791.38
598.56	3200.98
598.75	2916.31
598.94	2944.98
599.14	2947.03
599.33	2940.88
599.52	3094.48
599.71	2940.88
599.91	2926.55
600.10	3084.24
600.29	3045.33
600.48	3057.62
600.68	2975.70
600.87	3071.95
601.06	2883.54
601.26	2951.12
601.45	2920.40
601.64	2944.98
601.83	3215.31
602.03	2822.10
602.22	2748.37
602.41	3196.88
602.60	3450.83
602.80	2926.55
602.99	2940.88
603.18	2906.07
603.37	3014.61
603.57	2805.72
603.76	2928.60
603.95	3254.22
604.14	2922.45
604.34	2740.18
604.53	2801.62
604.72	3018.71
604.91	3030.99
605.10	2891.73
605.30	2740.18
605.49	3413.96
605.68	3059.67
605.87	2887.64
606.07	2811.86
606.26	3065.81
606.45	3061.71
606.64	2873.30
606.84	2766.81
607.03	2963.41
607.22	3147.73
607.41	2899.92
607.60	2852.82
607.80	3139.54
607.99	2992.08
608.18	2883.54
608.37	2877.40
608.56	2850.77
608.76	3119.06
608.95	2959.31
609.14	2877.40
609.33	3250.13
609.52	3123.15
609.72	2977.75
609.91	2924.50
610.10	3018.71
610.29	3229.65
610.48	2975.70
610.68	2957.27
610.87	3020.75
611.06	3035.09
611.25	2854.87
611.44	3051.47
611.63	2949.08
611.83	3282.89
612.02	2793.43
612.21	2977.75
612.40	2678.74
612.59	2781.14
612.79	2805.72
612.98	2975.70
613.17	3264.46
613.36	2936.79
613.55	3012.56
613.74	2842.58
613.93	3012.56
614.13	3119.06
614.32	3127.25
614.51	2877.40
614.70	3030.99
614.89	2906.07
615.08	2910.16
615.28	3274.70
615.47	2850.77
615.66	3112.91
615.85	2877.40
616.04	2918.36
616.23	2973.65
616.42	2893.78
616.62	2879.44
616.81	2926.55
617.00	2990.03
617.19	3055.57
617.38	2869.20
617.57	2955.22
617.76	3094.48
617.95	3114.96
618.15	3045.33
618.34	3129.30
618.53	2752.47
618.72	3166.16
618.91	2893.78
619.10	2969.55
619.29	2992.08
619.48	3063.76
619.68	2805.72
619.87	2799.57
620.06	2758.61
620.25	3149.78
620.44	2791.38
620.63	2775.00
620.82	3022.80
621.01	2975.70
621.20	2901.97
621.39	2951.12
621.59	3074.00
621.78	2996.18
621.97	2901.97
622.16	3026.90
622.35	2981.84
622.54	3112.91
622.73	2959.31
622.92	2699.22
623.11	3121.10
623.30	2897.88
623.49	2910.16
623.68	2738.13
623.88	3205.07
624.07	2938.84
624.26	2787.29
624.45	2832.34
624.64	2889.68
624.83	3035.09
625.02	2781.14
625.21	2912.21
625.40	3108.82
625.59	3305.42
625.78	2828.24
625.97	2961.36
626.16	3211.22
626.35	3110.86
626.54	2885.59
626.74	3002.32
626.93	2955.22
627.12	2961.36
627.31	2918.36
627.50	2832.34
627.69	3084.24
627.88	2873.30
628.07	2891.73
628.26	2703.32
628.45	2830.29
628.64	2846.68
628.83	2834.39
629.02	2717.65
629.21	3096.53
629.40	3000.27
629.59	2840.53
629.78	2799.57
629.97	3061.71
630.16	3069.91
630.35	2832.34
630.54	2920.40
630.73	2875.35
630.92	2996.18
631.11	2799.57
631.30	2883.54
631.49	3184.59
631.68	2996.18
631.87	2869.20
632.06	2699.22
632.25	3356.62
632.44	2918.36
632.63	2842.58
632.82	2879.44
633.01	2828.24
633.20	3018.71
633.39	2865.11
633.58	2725.85
633.77	3110.86
633.96	3112.91
634.15	3033.04
634.34	2965.46
634.53	3166.16
634.72	2951.12
634.91	2682.84
635.10	2861.01
635.29	3145.68
635.48	2985.94
635.67	2625.50
635.86	2695.13
636.05	3268.56
636.24	3014.61
636.43	2850.77
636.62	2899.92
636.81	2635.74
637.00	3030.99
637.19	2877.40
637.38	2942.93
637.57	2904.02
637.76	2938.84
637.95	3045.33
638.14	2924.50
638.33	3006.42
638.52	3047.38
638.71	2723.80
638.89	2676.70
639.08	3430.35
639.27	3076.05
639.46	3039.19
639.65	3323.85
639.84	3442.64
640.03	3454.92
640.22	3250.13
640.41	3270.61
640.60	3065.81
640.79	3127.25
640.98	3008.47
641.17	3125.20
641.36	3106.77
641.55	3110.86
641.74	2836.44
641.92	2783.19
642.11	2883.54
642.30	2914.26
642.49	2793.43
642.68	2865.11
642.87	2994.13
643.06	3164.11
643.25	2707.41
643.44	2770.90
643.63	2975.70
643.82	3225.55
644.00	2703.32
644.19	2938.84
644.38	2760.66
644.57	3051.47
644.76	2850.77
644.95	2910.16
645.14	3061.71
645.33	2971.60
645.52	2901.97
645.71	2668.50
645.89	2785.24
646.08	2934.74
646.27	2834.39
646.46	3151.82
646.65	2797.53
646.84	3012.56
647.03	2770.90
647.22	3051.47
647.40	2985.94
647.59	2947.03
647.78	2650.07
647.97	2785.24
648.16	2842.58
648.35	3184.59
648.54	3086.29
648.73	2867.16
648.91	3176.40
649.10	2975.70
649.29	2820.05
649.48	2785.24
649.67	3004.37
649.86	3051.47
650.05	2848.72
650.23	3086.29
650.42	2914.26
650.61	3286.99
650.80	3074.00
650.99	3133.39
651.18	3184.59
651.36	3170.26
651.55	2854.87
651.74	3000.27
651.93	2985.94
652.12	3035.09
652.31	2959.31
652.49	2881.49
652.68	2961.36
652.87	3231.69
653.06	2877.40
653.25	3100.62
653.44	3008.47
653.62	3215.31
653.81	2861.01
654.00	2895.83
654.19	3166.16
654.38	3438.54
654.56	2883.54
654.75	2813.91
654.94	3121.10
655.13	3016.66
655.32	2807.77
655.51	2930.64
655.69	2936.79
655.88	3067.86
656.07	2822.10
656.26	2920.40
656.45	2736.09
656.63	3051.47
656.82	2861.01
657.01	3035.09
657.20	2826.20
657.38	3268.56
657.57	2836.44
657.76	2654.17
657.95	3026.90
658.14	2914.26
658.32	2889.68
658.51	2731.99
658.70	3012.56
658.89	3084.24
659.08	2877.40
659.26	3061.71
659.45	2844.63
659.64	3114.96
659.83	2820.05
660.01	3248.08
660.20	2987.99
660.39	3241.93
660.58	2576.34
660.76	2912.21
660.95	2779.09
661.14	3004.37
661.33	2701.27
661.51	2916.31
661.70	2891.73
661.89	3051.47
662.08	2910.16
662.26	2701.27
662.45	2777.05
662.64	3340.24
662.83	2957.27
663.01	2746.33
663.20	2918.36
663.39	3180.50
663.58	2955.22
663.76	2807.77
663.95	3071.95
664.14	2805.72
664.32	2805.72
664.51	2684.89
664.70	2709.46
664.89	2953.17
665.07	2723.80
665.26	3074.00
665.45	2772.95
665.64	3094.48
665.82	2815.96
666.01	2926.55
666.20	2783.19
666.38	3114.96
666.57	3119.06
666.76	4777.91
666.95	11190.10
667.13	17649.39
667.32	21810.87
667.51	24252.05
667.69	25280.13
667.88	21106.37
668.07	15343.38
668.25	13010.75
668.44	11153.24
668.63	9635.69
668.81	8630.14
669.00	7456.65
669.19	6719.39
669.38	5805.99
669.56	5111.73
669.75	4376.51
669.94	4073.41
670.12	3422.16
670.31	3141.58
670.50	3145.68
670.68	3215.31
670.87	3074.00
671.06	2873.30
671.24	2959.31
671.43	3233.74
671.62	3067.86
671.80	2852.82
671.99	2971.60
672.18	3041.23
672.36	3094.48
672.55	3045.33
672.74	2863.06
672.92	3002.32
673.11	3047.38
673.29	2666.46
673.48	2971.60
673.67	2938.84
673.85	3157.97
674.04	2844.63
674.23	2873.30
674.41	3377.10
674.60	2803.67
674.79	2654.17
674.97	2729.94
675.16	3153.87
675.34	3135.44
675.53	2842.58
675.72	2985.94
675.90	3307.47
676.09	2879.44
676.28	2881.49
676.46	2703.32
676.65	3074.00
676.83	2856.92
677.02	2930.64
677.21	2947.03
677.39	3020.75
677.58	2871.25
677.77	2875.35
677.95	2742.23
678.14	2967.51
678.32	2969.55
678.51	2766.81
678.70	3155.92
678.88	2875.35
679.07	2981.84
679.25	2920.40
679.44	2881.49
679.63	2713.56
679.81	2953.17
680.00	3090.38
680.18	2947.03
680.37	3231.69
680.55	2957.27
680.74	2729.94
680.93	2668.50
681.11	3057.62
681.30	2979.79
681.48	2885.59
681.67	2885.59
681.85	3008.47
682.04	2828.24
682.23	3043.28
682.41	2996.18
682.60	2881.49
682.78	2965.46
682.97	2772.95
683.15	2975.70
683.34	3104.72
683.53	3301.33
683.71	2787.29
683.90	2977.75
684.08	3225.55
684.27	2906.07
684.45	2928.60
684.64	2971.60
684.82	2994.13
685.01	3067.86
685.19	2881.49
685.38	3135.44
685.57	2897.88
685.75	2815.96
685.94	2885.59
686.12	2713.56
686.31	2844.63
686.49	3260.37
686.68	2703.32
686.86	2965.46
687.05	2922.45
687.23	3219.41
687.42	2895.83
687.60	2666.46
687.79	3123.15
687.97	3315.66
688.16	2922.45
688.34	3006.42
688.53	2731.99
688.71	3131.34
688.90	3125.20
689.08	2856.92
689.27	2715.61
689.45	3106.77
689.64	2981.84
689.82	2930.64
690.01	3133.39
690.19	3043.28
690.38	2918.36
690.56	3043.28
690.75	2783.19
690.93	2910.16
691.12	2899.92
691.30	2885.59
691.49	2969.55
691.67	2981.84
691.86	3121.10
692.04	2871.25
692.23	2904.02
692.41	2877.40
692.60	3174.35
692.78	3051.47
692.97	2957.27
693.15	3119.06
693.34	3039.19
693.52	3026.90
693.71	2906.07
693.89	2869.20
694.08	2709.46
694.26	2944.98
694.44	3170.26
694.63	3143.63
694.81	2807.77
695.00	2842.58
695.18	3250.13
695.37	3387.34
695.55	3030.99
695.74	2928.60
695.92	2844.63
696.10	3207.12
696.29	2766.81
696.47	2750.42
696.66	2779.09
696.84	2877.40
697.03	2910.16
697.21	3094.48
697.40	4472.76
697.58	3211.22
697.76	2815.96
697.95	2856.92
698.13	2811.86
698.32	2914.26
698.50	2873.30
698.68	2893.78
698.87	3043.28
699.05	3284.94
699.24	2887.64
699.42	2705.37
699.61	2992.08
699.79	3037.14
699.97	3018.71
700.16	2721.75
700.34	2723.80
700.53	3139.54
700.71	3119.06
700.89	2938.84
701.08	2979.79
701.26	3022.80
701.45	3272.65
701.63	2822.10
701.81	2899.92
702.00	2850.77
702.18	2863.06
702.37	2777.05
702.55	3180.50
702.73	3041.23
702.92	2863.06
703.10	3100.62
703.28	3100.62
703.47	2750.42
703.65	3071.95
703.84	3022.80
704.02	2936.79
704.20	3229.65
704.39	2856.92
704.57	2926.55
704.75	3088.34
704.94	3092.43
705.12	2951.12
705.30	3430.35
705.49	6686.62
705.67	12889.92
705.86	18290.41
706.04	20831.94
706.22	22851.24
706.41	22265.52
706.59	16957.18
706.77	13240.12
706.96	11454.29
707.14	10442.59
707.32	9031.54
707.51	7901.06
707.69	6582.17
707.87	5343.15
708.06	4478.91
708.24	3950.53
708.42	3571.66
708.61	3758.02
708.79	2926.55
708.97	2924.50
709.16	3100.62
709.34	3059.67
709.52	2922.45
709.71	2879.44
709.89	3045.33
710.07	2879.44
710.26	2766.81
710.44	2967.51
710.62	3149.78
710.80	2979.79
710.99	2977.75
711.17	3030.99
711.35	2957.27
711.54	2826.20
711.72	3057.62
711.90	2987.99
712.09	3008.47
712.27	2881.49
712.45	2977.75
712.63	2856.92
712.82	3033.04
713.00	2987.99
713.18	3000.27
713.37	2967.51
713.55	3045.33
713.73	3137.49
713.91	2938.84
714.10	2869.20
714.28	2965.46
714.46	3004.37
714.65	2906.07
714.83	2961.36
715.01	2971.60
715.19	2961.36
715.38	2775.00
715.56	3014.61
715.74	2844.63
715.92	2738.13
716.11	3096.53
716.29	2678.74
716.47	2936.79
716.65	2856.92
716.84	2641.88
717.02	2920.40
717.20	2660.31
717.38	2856.92
717.57	2996.18
717.75	2912.21
717.93	2879.44
718.11	3114.96
718.30	2744.28
718.48	2881.49
718.66	3067.86
718.84	3133.39
719.03	2883.54
719.21	2779.09
719.39	3272.65
719.57	3102.67
719.75	3051.47
719.94	2836.44
720.12	2932.69
720.30	2955.22
720.48	3028.95
720.67	2904.02
720.85	2826.20
721.03	2881.49
721.21	2801.62
721.39	3006.42
721.58	3114.96
721.76	3065.81
721.94	2881.49
722.12	2969.55
722.30	3291.09
722.49	2844.63
722.67	2850.77
722.85	2901.97
723.03	2768.85
723.21	2838.48
723.40	2875.35
723.58	3035.09
723.76	3063.76
723.94	3274.70
724.12	2975.70
724.30	3080.14
724.49	3069.91
724.67	2820.05
724.85	3049.43
725.03	2656.22
725.21	3022.80
725.40	3162.06
725.58	2824.15
725.76	3074.00
725.94	3129.30
726.12	2871.25
726.30	2998.23
726.49	2832.34
726.67	2865.11
726.85	3039.19
727.03	3385.29
727.21	4321.21
727.39	5482.41
727.57	5871.53
727.76	6285.22
727.94	6332.32
728.12	5742.50
728.30	4671.42
728.48	4437.95
728.66	4249.54
728.84	4063.17
729.03	3499.98
729.21	3334.09
729.39	3176.40
729.57	3035.09
729.75	3094.48
729.93	2906.07
730.11	2795.48
730.30	2854.87
730.48	2998.23
730.66	2998.23
730.84	2949.08
731.02	2983.89
731.20	2906.07
731.38	2932.69
731.56	2707.41
731.74	2779.09
731.93	3067.86
732.11	2889.68
732.29	2912.21
732.47	3057.62
732.65	3127.25
732.83	3004.37
733.01	3012.56
733.19	2826.20
733.37	3174.35
733.56	2840.53
733.74	2818.00
733.92	3213.26
734.10	2934.74
734.28	3053.52
734.46	2684.89
734.64	2922.45
734.82	2899.92
735.00	2918.36
735.18	2840.53
735.36	2990.03
735.54	2891.73
735.73	2838.48
735.91	3028.95
736.09	3227.60
736.27	3057.62
736.45	3008.47
736.63	2664.41
736.81	2863.06
736.99	3110.86
737.17	3104.72
737.35	2787.29
737.53	2961.36
737.71	3018.71
737.89	3133.39
738.07	2858.96
738.25	2922.45
738.43	2682.84
738.61	2885.59
738.80	2705.37
738.98	2793.43
739.16	2861.01
739.34	2858.96
739.52	3164.11
739.70	2928.60
739.88	3047.38
740.06	3002.32
740.24	2617.30
740.42	3164.11
740.60	2691.03
740.78	2856.92
740.96	2598.87
741.14	2963.41
741.32	3041.23
741.50	2740.18
741.68	3170.26
741.86	3229.65
742.04	2863.06
742.22	2760.66
742.40	2863.06
742.58	3067.86
742.76	2754.52
742.94	3106.77
743.12	2684.89
743.30	3008.47
743.48	3078.10
743.66	2828.24
743.84	2840.53
744.02	2955.22
744.20	2977.75
744.38	2756.57
744.56	2840.53
744.74	3323.85
744.92	3174.35
745.10	3098.58
745.28	2949.08
745.46	3262.41
745.64	2981.84
745.82	2932.69
746.00	2947.03
746.18	3053.52
746.36	2805.72
746.54	2891.73
746.72	2914.26
746.90	2840.53
747.08	3176.40
747.26	2940.88
747.44	2965.46
747.62	3039.19
747.80	3168.21
747.98	2934.74
748.15	2881.49
748.33	3233.74
748.51	2922.45
748.69	3022.80
748.87	2832.34
749.05	2938.84
749.23	3018.71
749.41	2848.72
749.59	2887.64
749.77	3178.45
749.95	2942.93
750.13	2846.68
750.31	2944.98
750.49	2957.27
750.67	3141.58
750.85	3000.27
751.03	2863.06
751.20	3305.42
751.38	2992.08
751.56	2854.87
751.74	2914.26
751.92	2914.26
752.10	2779.09
752.28	3022.80
752.46	2815.96
752.64	2899.92
752.82	2936.79
753.00	3078.10
753.18	2828.24
753.35	2852.82
753.53	2953.17
753.71	2879.44
753.89	2895.83
754.07	2975.70
754.25	3123.15
754.43	2918.36
754.61	2777.05
754.79	3133.39
754.97	2961.36
755.14	3104.72
755.32	2779.09
755.50	2990.03
755.68	3014.61
755.86	2772.95
756.04	2854.87
756.22	2703.32
756.40	3125.20
756.57	3117.01
756.75	2834.39
756.93	3147.73
757.11	3114.96
757.29	2760.66
757.47	2781.14
757.65	2748.37
757.82	2549.72
758.00	2762.71
758.18	2893.78
758.36	2924.50
758.54	3295.18
758.72	2652.12
758.90	2951.12
759.07	3010.51
759.25	2809.81
759.43	2928.60
759.61	2721.75
759.79	4186.05
759.97	3188.69
760.15	2830.29
760.32	2772.95
760.50	3063.76
760.68	3250.13
760.86	2789.33
761.04	3078.10
761.22	3125.20
761.39	3051.47
761.57	3065.81
761.75	2846.68
761.93	3123.15
762.11	2897.88
762.28	2983.89
762.46	2842.58
762.64	3069.91
762.82	2709.46
763.00	2854.87
763.18	2951.12
763.35	2787.29
763.53	3088.34
763.71	2889.68
763.89	2889.68
764.07	2979.79
764.24	2979.79
764.42	3057.62
764.60	2895.83
764.78	3033.04
764.96	3137.49
765.13	3033.04
765.31	2813.91
765.49	3141.58
765.67	2787.29
765.84	2818.00
766.02	2822.10
766.20	2781.14
766.38	3065.81
766.56	2949.08
766.73	3010.51
766.91	2987.99
767.09	2881.49
767.27	2971.60
767.44	2758.61
767.62	3055.57
767.80	3008.47
767.98	2867.16
768.15	2942.93
768.33	3086.29
768.51	2987.99
768.69	3016.66
768.87	2924.50
769.04	3028.95
769.22	3426.25
769.40	3004.37
769.58	3061.71
769.75	3065.81
769.93	3264.46
770.11	2910.16
770.28	2727.89
770.46	3039.19
770.64	3074.00
770.82	2863.06
770.99	2775.00
771.17	3121.10
771.35	2975.70
771.53	2871.25
771.70	2926.55
771.88	3065.81
772.06	2961.36
772.23	2891.73
772.41	3002.32
772.59	2932.69
772.77	2803.67
772.94	2928.60
773.12	2912.21
773.30	2826.20
773.47	3028.95
773.65	2805.72
773.83	3045.33
774.01	3033.04
774.18	2691.03
774.36	2848.72
774.54	2713.56
774.71	3045.33
774.89	2709.46
775.07	2838.48
775.24	2887.64
775.42	2871.25
775.60	3299.28
775.78	2830.29
775.95	2688.98
776.13	2639.83
776.31	2762.71
776.48	2936.79
776.66	3053.52
776.84	3022.80
777.01	2779.09
777.19	2793.43
777.37	2838.48
777.54	3043.28
777.72	3332.05
777.90	2965.46
778.07	2858.96
778.25	3473.36
778.43	3164.11
778.60	2783.19
778.78	2908.12
778.96	3256.27
779.13	2779.09
779.31	2963.41
779.49	2875.35
779.66	3059.67
779.84	2899.92
780.01	2840.53
780.19	2770.90
780.37	3225.55
780.54	3129.30
780.72	2734.04
780.90	2920.40
781.07	2965.46
781.25	2928.60
781.43	3016.66
781.60	2846.68
781.78	3166.16
781.95	3082.19
782.13	2893.78
782.31	2856.92
782.48	2744.28
782.66	2983.89
782.83	3078.10
783.01	2994.13
783.19	3157.97
783.36	2936.79
783.54	2842.58
783.72	2926.55
783.89	2863.06
784.07	2953.17
784.24	2879.44
784.42	3022.80
784.60	3024.85
784.77	2973.65
784.95	2611.16
785.12	2863.06
785.30	3020.75
785.47	2863.06
785.65	2803.67
785.83	2926.55
786.00	2957.27
786.18	2994.13
786.35	2770.90
786.53	2701.27
786.71	3172.30
786.88	3047.38
787.06	2877.40
787.23	2891.73
787.41	2703.32
787.58	2940.88
787.76	2785.24
787.94	2908.12
788.11	3026.90
788.29	2736.09
788.46	2766.81
788.64	2680.79
788.81	2938.84
788.99	2850.77
789.16	2740.18
789.34	2850.77
789.52	2822.10
789.69	2922.45
789.87	2596.82
790.04	2871.25
790.22	2959.31
790.39	3346.38
790.57	2813.91
790.74	2863.06
790.92	3125.20
791.09	2684.89
791.27	2973.65
791.44	3004.37
791.62	2908.12
791.79	3127.25
791.97	2901.97
792.15	3100.62
792.32	3117.01
792.50	3030.99
792.67	3037.14
792.85	3090.38
793.02	2971.60
793.20	2824.15
793.37	2760.66
793.55	2826.20
793.72	2736.09
793.90	3104.72
794.07	2787.29
794.25	2760.66
794.42	2990.03
794.60	2924.50
794.77	2975.70
794.95	3039.19
795.12	3135.44
795.30	2990.03
795.47	2666.46
795.65	3205.07
795.82	3100.62
796.00	2813.91
796.17	2889.68
796.34	2746.33
796.52	3039.19
796.69	3139.54
796.87	2936.79
797.04	2996.18
797.22	3182.54
797.39	3043.28
797.57	2987.99
797.74	2891.73
797.92	3000.27
798.09	2912.21
798.27	3119.06
798.44	2811.86
798.62	2758.61
798.79	2959.31
798.96	2963.41
799.14	2904.02
799.31	3413.96
799.49	2869.20
799.66	2836.44
799.84	2846.68
800.01	2725.85
800.19	3047.38
800.36	2662.36
800.53	2930.64
800.71	3092.43
800.88	3082.19
801.06	2820.05
801.23	2734.04
801.41	2871.25
801.58	2748.37
801.75	2863.06
801.93	2912.21
802.10	3174.35
802.28	2926.55
802.45	2877.40
802.63	2910.16
802.80	3194.83
802.97	2842.58
803.15	2899.92
803.32	2791.38
803.50	2879.44
803.67	2850.77
803.84	2756.57
804.02	2936.79
804.19	2861.01
804.37	2607.06
804.54	2717.65
804.71	2791.38
804.89	3020.75
805.06	2877.40
805.24	2815.96
805.41	2660.31
805.58	2815.96
805.76	3385.29
805.93	2844.63
806.10	2983.89
806.28	3098.58
806.45	3002.32
806.63	2979.79
806.80	2953.17
806.97	3047.38
807.15	3014.61
807.32	2912.21
807.49	2879.44
807.67	2734.04
807.84	3014.61
808.01	2619.35
808.19	3055.57
808.36	3336.14
808.54	2904.02
808.71	2805.72
808.88	2926.55
809.06	3227.60
809.23	3289.04
809.40	2836.44
809.58	2912.21
809.75	2953.17
809.92	2805.72
810.10	3082.19
810.27	2858.96
810.44	3049.43
810.62	3139.54
810.79	2971.60
810.96	2832.34
811.14	2934.74
811.31	3084.24
811.48	3002.32
811.66	2955.22
811.83	3194.83
812.00	3063.76
812.18	2969.55
812.35	3215.31
812.52	2934.74
812.69	2914.26
812.87	2867.16
813.04	2822.10
813.21	2891.73
813.39	2824.15
813.56	2824.15
813.73	3100.62
813.91	2815.96
814.08	3020.75
814.25	2920.40
814.42	2707.41
814.60	2951.12
814.77	2998.23
814.94	2856.92
815.12	2998.23
815.29	3188.69
815.46	2826.20
815.63	2932.69
815.81	2848.72
815.98	2906.07
816.15	3004.37
816.33	2889.68
816.50	2863.06
816.67	2971.60
816.84	3012.56
817.02	2664.41
817.19	2813.91
817.36	2977.75
817.53	3010.51
817.71	2723.80
817.88	2959.31
818.05	2979.79
818.22	2924.50
818.40	3143.63
818.57	2826.20
818.74	3104.72
818.91	2899.92
819.09	3053.52
819.26	2897.88
819.43	2959.31
819.60	2807.77
819.78	2953.17
819.95	2942.93
820.12	2844.63
820.29	3180.50
820.47	3092.43
820.64	2779.09
820.81	2795.48
820.98	2940.88
821.15	2807.77
821.33	2987.99
821.50	2777.05
821.67	3139.54
821.84	2850.77
822.02	2844.63
822.19	3141.58
822.36	2850.77
822.53	2844.63
822.70	2711.51
822.88	2947.03
823.05	3170.26
823.22	2920.40
823.39	2949.08
823.56	2897.88
823.74	3354.57
823.91	2721.75
824.08	2789.33
824.25	2803.67
824.42	3293.13
824.60	2770.90
824.77	2922.45
824.94	2936.79
825.11	3094.48
825.28	2801.62
825.45	2975.70
825.63	3004.37
825.80	2824.15
825.97	2940.88
826.14	2975.70
826.31	2691.03
826.48	3074.00
826.66	2775.00
826.83	2719.70
827.00	2944.98
827.17	2791.38
827.34	2813.91
827.51	2838.48
827.69	2891.73
827.86	2846.68
828.03	3018.71
828.20	2879.44
828.37	2801.62
828.54	3045.33
828.71	2789.33
828.89	3002.32
829.06	2924.50
829.23	3217.36
829.40	2842.58
829.57	2861.01
829.74	3033.04
829.91	2920.40
830.09	2842.58
830.26	2996.18
830.43	3258.32
830.60	2904.02
830.77	3000.27
830.94	2992.08
831.11	3178.45
831.28	2967.51
831.46	2969.55
831.63	2891.73
831.80	3180.50
831.97	2836.44
832.14	2830.29
832.31	2959.31
832.48	2967.51
832.65	3135.44
832.82	2940.88
832.99	2908.12
833.17	2789.33
833.34	3200.98
833.51	2889.68
833.68	2697.17
833.85	3166.16
834.02	2787.29
834.19	2756.57
834.36	2928.60
834.53	2963.41
834.70	3139.54
834.87	2914.26
835.04	2682.84
835.22	2836.44
835.39	2881.49
835.56	2668.50
835.73	2723.80
835.90	3205.07
836.07	2842.58
836.24	2938.84
836.41	2756.57
836.58	2873.30
836.75	3127.25
836.92	2766.81
837.09	2691.03
837.26	3160.02
837.43	2961.36
837.60	2668.50
837.77	2723.80
837.94	3157.97
838.12	3196.88
838.29	2668.50
838.46	2648.02
838.63	2779.09
838.80	3203.02
838.97	2813.91
839.14	2791.38
839.31	3033.04
839.48	3069.91
839.65	2729.94
839.82	2873.30
839.99	2994.13
840.16	2936.79
840.33	2658.26
840.50	2785.24
840.67	2836.44
840.84	2621.40
841.01	2641.88
841.18	2701.27
841.35	2936.79
841.52	3080.14
841.69	3076.05
841.86	2805.72
842.03	2967.51
842.20	3174.35
842.37	2656.22
842.54	2775.00
842.71	2981.84
842.88	2705.37
843.05	2785.24
843.22	2727.89
843.39	3106.77
843.56	2854.87
843.73	2762.71
843.90	2803.67
844.07	3053.52
844.24	3145.68
844.41	2738.13
844.58	2754.52
844.75	2938.84
844.92	3047.38
845.09	2779.09
845.26	2791.38
845.43	3102.67
845.60	2906.07
845.77	2881.49
845.94	2799.57
846.10	3110.86
846.27	2729.94
846.44	2664.41
846.61	2633.69
846.78	2975.70
846.95	3047.38
847.12	2686.94
847.29	2781.14
847.46	2832.34
847.63	3119.06
847.80	2672.60
847.97	2772.95
848.14	3301.33
848.31	2934.74
848.48	2648.02
848.65	2736.09
848.82	2887.64
848.98	3430.35
849.15	2828.24
849.32	2858.96
849.49	3168.21
849.66	2861.01
849.83	2740.18
850.00	2697.17
850.17	3030.99
850.34	2961.36
850.51	2682.84
850.68	2723.80
850.85	3407.82
851.01	2985.94
851.18	2752.47
851.35	2805.72
851.52	3022.80
851.69	3305.42
851.86	2617.30
852.03	2723.80
852.20	3114.96
852.37	3030.99
852.53	2695.13
852.70	2717.65
852.87	3022.80
853.04	3080.14
853.21	2754.52
853.38	2987.99
853.55	3223.50
853.72	3131.34
853.89	2648.02
854.05	2666.46
854.22	2934.74
854.39	2838.48
854.56	2762.71
854.73	2899.92
854.90	2873.30
855.07	3004.37
855.23	2648.02
855.40	2668.50
855.57	2932.69
855.74	2615.26
855.91	2920.40
856.08	2592.73
856.25	2723.80
856.41	2856.92
856.58	2693.08
856.75	2748.37
856.92	2789.33
857.09	3100.62
857.26	2643.93
857.42	2750.42
857.59	3098.58
857.76	2871.25
857.93	2691.03
858.10	2779.09
858.27	2740.18
858.43	2979.79
858.60	2742.23
858.77	2631.64
858.94	2842.58
859.11	3147.73
859.27	2752.47
859.44	2635.74
859.61	3358.67
859.78	3149.78
859.95	2721.75
860.12	2617.30
860.28	3350.48
860.45	3330.00
860.62	2682.84
860.79	2818.00
860.95	2928.60
861.12	2813.91
861.29	2621.40
861.46	2682.84
861.63	2969.55
861.79	2983.89
861.96	2686.94
862.13	2822.10
862.30	3225.55
862.47	2863.06
862.63	2623.45
862.80	2807.77
862.97	3080.14
863.14	3024.85
863.30	2779.09
863.47	2697.17
863.64	3198.93
863.81	3004.37
863.97	2664.41
864.14	2754.52
864.31	2897.88
864.48	2977.75
864.65	2705.37
864.81	2799.57
864.98	3125.20
865.15	3082.19
865.32	2797.53
865.48	2867.16
865.65	3286.99
865.82	2899.92
865.98	2787.29
866.15	2824.15
866.32	2930.64
866.49	2936.79
866.65	2912.21
866.82	2772.95
866.99	2998.23
867.16	2881.49
867.32	2711.51
867.49	2705.37
867.66	2934.74
867.83	2846.68
867.99	2740.18
868.16	2781.14
868.33	2768.85
868.49	2959.31
868.66	2775.00
868.83	2879.44
868.99	3012.56
869.16	2918.36
869.33	2953.17
869.50	2805.72
869.66	2949.08
869.83	2936.79
870.00	2662.36
870.16	2836.44
870.33	2928.60
870.50	3137.49
870.66	2799.57
870.83	2799.57
871.00	2990.03
871.17	3055.57
871.33	2820.05
871.50	2717.65
871.67	2990.03
871.83	2854.87
872.00	2785.24
872.17	2760.66
872.33	3336.14
872.50	3147.73
872.67	2777.05
872.83	2738.13
873.00	3045.33
873.17	2981.84
873.33	2828.24
873.50	2820.05
873.67	2865.11
873.83	2844.63
874.00	2777.05
874.16	2928.60
874.33	3035.09
874.50	2717.65
874.66	2699.22
874.83	2772.95
875.00	3078.10
875.16	3088.34
875.33	2836.44
875.50	2484.19
875.66	2861.01
875.83	2912.21
875.99	2818.00
876.16	2793.43
876.33	2731.99
876.49	2965.46
876.66	2738.13
876.83	2799.57
876.99	2752.47
877.16	2936.79
877.32	2768.85
877.49	2770.90
877.66	3041.23
877.82	3284.94
877.99	2785.24
878.15	2979.79
878.32	3014.61
878.49	3024.85
878.65	2744.28
878.82	3039.19
878.98	2906.07
879.15	3082.19
879.32	2940.88
879.48	2822.10
879.65	2901.97
879.81	2918.36
879.98	2775.00
880.15	2797.53
880.31	3123.15
880.48	2895.83
880.64	2856.92
880.81	2828.24
880.97	3258.32
881.14	3229.65
881.31	2670.55
881.47	2904.02
881.64	3053.52
881.80	2666.46
881.97	2836.44
882.13	2684.89
882.30	2840.53
882.47	2846.68
882.63	2731.99
882.80	2756.57
882.96	2848.72
883.13	3205.07
883.29	2697.17
883.46	2740.18
883.62	3416.01
883.79	3004.37
883.95	2912.21
884.12	2658.26
884.29	3143.63
884.45	2963.41
884.62	2820.05
884.78	2723.80
884.95	3217.36
885.11	2904.02
885.28	2809.81
885.44	2766.81
885.61	3078.10
885.77	3254.22
885.94	2865.11
886.10	2807.77
886.27	2928.60
886.43	3250.13
886.60	2957.27
886.76	2818.00
886.93	2789.33
887.09	3000.27
887.26	2621.40
887.42	2811.86
887.59	3145.68
887.75	3332.05
887.92	2885.59
888.08	2914.26
888.25	3276.75
888.41	3131.34
888.58	2832.34
888.74	2711.51
888.91	2881.49
>>>>>End Processed Spectral Data<<<<<
