SpectraSuite Data File
++++++++++++++++++++++++++++++++++++
Date: Thu May 05 21:11:27 CEST 2016
User: root
Dark Spectrum Present: No
Reference Spectrum Present: No
Number of Sampled Component Spectra: 1
Spectrometers: USB4C02835
Integration Time (usec): 100000 (USB4C02835)
Spectra Averaged: 1 (USB4C02835)
Boxcar Smoothing: 0 (USB4C02835)
Correct for Electrical Dark: No (USB4C02835)
Strobe/Lamp Enabled: No (USB4C02835)
Correct for Detector Non-linearity: No (USB4C02835)
Correct for Stray Light: No (USB4C02835)
Number of Pixels in Processed Spectrum: 3648
>>>>>Begin Processed Spectral Data<<<<<
177.47	2176.99
177.69	2176.99
177.91	2176.99
178.13	2142.18
178.36	2107.36
178.58	2678.74
178.80	2897.88
179.02	2676.70
179.24	2789.33
179.46	2643.93
179.68	2699.22
179.90	2912.21
180.13	2959.31
180.35	2488.28
180.57	2641.88
180.79	3059.67
181.01	2975.70
181.23	2721.75
181.45	2799.57
181.67	3155.92
181.90	3143.63
182.12	2658.26
182.34	2465.75
182.56	3108.82
182.78	2981.84
183.00	2635.74
183.22	2656.22
183.44	2764.76
183.66	3508.17
183.89	2793.43
184.11	2738.13
184.33	3162.06
184.55	3184.59
184.77	2664.41
184.99	2693.08
185.21	2961.36
185.43	3426.25
185.65	2713.56
185.87	2701.27
186.10	3391.44
186.32	3409.87
186.54	2793.43
186.76	2736.09
186.98	3254.22
187.20	2897.88
187.42	2699.22
187.64	2633.69
187.86	3131.34
188.08	3205.07
188.30	2580.44
188.52	2738.13
188.75	3223.50
188.97	3225.55
189.19	2648.02
189.41	2602.97
189.63	3170.26
189.85	2951.12
190.07	2512.86
190.29	2553.82
190.51	3065.81
190.73	2770.90
190.95	2891.73
191.17	2691.03
191.39	2627.54
191.61	2955.22
191.84	2686.94
192.06	2738.13
192.28	2770.90
192.50	3487.69
192.72	2906.07
192.94	2781.14
193.16	3143.63
193.38	3051.47
193.60	2594.78
193.82	2805.72
194.04	3112.91
194.26	3035.09
194.48	2684.89
194.70	2674.65
194.92	2883.54
195.14	3043.28
195.36	2688.98
195.58	2721.75
195.80	2850.77
196.02	2871.25
196.24	2645.98
196.46	2770.90
196.69	2891.73
196.91	3448.78
197.13	2648.02
197.35	2662.36
197.57	3225.55
197.79	3094.48
198.01	2762.71
198.23	2721.75
198.45	3045.33
198.67	2738.13
198.89	2533.34
199.11	2803.67
199.33	2869.20
199.55	2686.94
199.77	2680.79
199.99	2844.63
200.21	2959.31
200.43	3002.32
200.65	2527.19
200.87	2496.47
201.09	3012.56
201.31	2893.78
201.53	2643.93
201.75	2701.27
201.97	3024.85
202.19	2959.31
202.41	2701.27
202.63	2852.82
202.85	3178.45
203.07	3008.47
203.29	2748.37
203.51	2574.30
203.73	2824.15
203.95	3473.36
204.17	2658.26
204.39	2779.09
204.61	2938.84
204.83	2959.31
205.05	2873.30
205.27	2699.22
205.49	3248.08
205.71	2893.78
205.93	2611.16
206.15	2639.83
206.37	2949.08
206.59	3039.19
206.81	2586.58
207.03	2648.02
207.25	2879.44
207.47	3065.81
207.69	2727.89
207.91	2906.07
208.13	3270.61
208.34	2891.73
208.56	2617.30
208.78	2705.37
209.00	2942.93
209.22	2951.12
209.44	2799.57
209.66	2617.30
209.88	3043.28
210.10	2897.88
210.32	2711.51
210.54	2793.43
210.76	2936.79
210.98	3100.62
211.20	2557.91
211.42	2822.10
211.64	3141.58
211.86	3127.25
212.08	2760.66
212.30	2688.98
212.52	2906.07
212.74	3106.77
212.96	2772.95
213.17	2822.10
213.39	3074.00
213.61	3272.65
213.83	2691.03
214.05	2475.99
214.27	3231.69
214.49	2850.77
214.71	2516.95
214.93	2723.80
215.15	3026.90
215.37	3145.68
215.59	2680.79
215.81	2713.56
216.03	3252.17
216.24	2828.24
216.46	2686.94
216.68	2725.85
216.90	3147.73
217.12	3219.41
217.34	2725.85
217.56	2897.88
217.78	3248.08
218.00	3082.19
218.22	2779.09
218.44	2799.57
218.66	2977.75
218.87	3428.30
219.09	2715.61
219.31	2721.75
219.53	2996.18
219.75	2932.69
219.97	2684.89
220.19	2736.09
220.41	2971.60
220.63	3231.69
220.85	2744.28
221.06	2693.08
221.28	3178.45
221.50	3119.06
221.72	2701.27
221.94	2582.49
222.16	3047.38
222.38	3086.29
222.60	2643.93
222.82	2727.89
223.03	3196.88
223.25	2811.86
223.47	2713.56
223.69	2885.59
223.91	3149.78
224.13	2977.75
224.35	2588.63
224.57	2871.25
224.78	3086.29
225.00	2793.43
225.22	2748.37
225.44	2609.11
225.66	3196.88
225.88	2858.96
226.10	2820.05
226.32	2736.09
226.53	3280.85
226.75	2871.25
226.97	2713.56
227.19	2629.59
227.41	2887.64
227.63	2891.73
227.85	2541.53
228.06	2684.89
228.28	2965.46
228.50	3104.72
228.72	2486.23
228.94	2637.78
229.16	2742.23
229.37	2824.15
229.59	2637.78
229.81	2934.74
230.03	2969.55
230.25	2727.89
230.47	2586.58
230.69	2738.13
230.90	3121.10
231.12	2803.67
231.34	2797.53
231.56	2801.62
231.78	2793.43
232.00	3041.23
232.21	2672.60
232.43	2758.61
232.65	2707.41
232.87	3012.56
233.09	2596.82
233.30	2729.94
233.52	3203.02
233.74	2963.41
233.96	2691.03
234.18	2813.91
234.40	2936.79
234.61	3354.57
234.83	2605.02
235.05	2594.78
235.27	3461.07
235.49	3209.17
235.70	2588.63
235.92	2754.52
236.14	3067.86
236.36	3401.68
236.58	2541.53
236.79	2725.85
237.01	2979.79
237.23	2861.01
237.45	2895.83
237.67	2713.56
237.88	2975.70
238.10	3405.77
238.32	2617.30
238.54	2684.89
238.76	2992.08
238.97	2818.00
239.19	2574.30
239.41	2723.80
239.63	3231.69
239.85	2879.44
240.06	2713.56
240.28	2717.65
240.50	3119.06
240.72	2947.03
240.93	2588.63
241.15	2754.52
241.37	3002.32
241.59	3211.22
241.81	2678.74
242.02	2721.75
242.24	3069.91
242.46	3098.58
242.68	2588.63
242.89	2654.17
243.11	3147.73
243.33	2934.74
243.55	2695.13
243.76	2707.41
243.98	2920.40
244.20	2979.79
244.42	2721.75
244.64	2664.41
244.85	2670.55
245.07	2893.78
245.29	2742.23
245.51	2697.17
245.72	3090.38
245.94	3215.31
246.16	2715.61
246.38	2740.18
246.59	2832.34
246.81	2869.20
247.03	2510.81
247.24	2619.35
247.46	2918.36
247.68	3033.04
247.90	2598.87
248.11	2779.09
248.33	3108.82
248.55	2940.88
248.77	2674.65
248.98	2740.18
249.20	3301.33
249.42	2975.70
249.64	2742.23
249.85	2574.30
250.07	2881.49
250.29	3157.97
250.50	2775.00
250.72	2672.60
250.94	3047.38
251.16	3389.39
251.37	2645.98
251.59	2770.90
251.81	3065.81
252.02	3129.30
252.24	2609.11
252.46	2813.91
252.68	2791.38
252.89	2906.07
253.11	2486.23
253.33	2867.16
253.54	3213.26
253.76	2731.99
253.98	2701.27
254.20	2650.07
254.41	2793.43
254.63	2985.94
254.85	2480.09
255.06	2762.71
255.28	3080.14
255.50	2987.99
255.71	2600.92
255.93	2617.30
256.15	2889.68
256.36	3016.66
256.58	2516.95
256.80	2629.59
257.02	2936.79
257.23	2871.25
257.45	2717.65
257.67	2748.37
257.88	2951.12
258.10	3033.04
258.32	2725.85
258.53	2752.47
258.75	3227.60
258.97	2797.53
259.18	2609.11
259.40	2750.42
259.62	3301.33
259.83	3225.55
260.05	2697.17
260.27	3461.07
260.48	3133.39
260.70	2848.72
260.92	2598.87
261.13	2734.04
261.35	2963.41
261.57	2965.46
261.78	2592.73
262.00	2635.74
262.22	3063.76
262.43	2830.29
262.65	2748.37
262.86	2707.41
263.08	3469.26
263.30	2918.36
263.51	2514.91
263.73	2637.78
263.95	3160.02
264.16	2908.12
264.38	2533.34
264.60	2637.78
264.81	2920.40
265.03	3260.37
265.25	3137.49
265.46	2688.98
265.68	3157.97
265.89	3119.06
266.11	2541.53
266.33	2715.61
266.54	3211.22
266.76	3057.62
266.98	2766.81
267.19	2885.59
267.41	3147.73
267.62	2963.41
267.84	2508.76
268.06	2775.00
268.27	3051.47
268.49	3139.54
268.70	2760.66
268.92	2707.41
269.14	2901.97
269.35	2742.23
269.57	2811.86
269.79	2744.28
270.00	2875.35
270.22	3295.18
270.43	2504.67
270.65	2523.10
270.87	2992.08
271.08	3112.91
271.30	2760.66
271.51	2697.17
271.73	3074.00
271.95	3194.83
272.16	2654.17
272.38	2815.96
272.59	2932.69
272.81	3065.81
273.02	2572.25
273.24	2734.04
273.46	3153.87
273.67	2779.09
273.89	2578.39
274.10	2688.98
274.32	3241.93
274.54	2983.89
274.75	2713.56
274.97	2824.15
275.18	3112.91
275.40	3168.21
275.61	2783.19
275.83	2832.34
276.05	2750.42
276.26	2967.51
276.48	2748.37
276.69	2820.05
276.91	2867.16
277.12	3274.70
277.34	2828.24
277.55	2918.36
277.77	2899.92
277.99	2873.30
278.20	2707.41
278.42	2664.41
278.63	2869.20
278.85	2854.87
279.06	2731.99
279.28	2871.25
279.49	3065.81
279.71	3041.23
279.93	2811.86
280.14	2815.96
280.36	2836.44
280.57	3110.86
280.79	2901.97
281.00	2766.81
281.22	2920.40
281.43	3200.98
281.65	2549.72
281.86	2723.80
282.08	3094.48
282.29	3311.57
282.51	2688.98
282.73	2662.36
282.94	2711.51
283.16	3129.30
283.37	2994.13
283.59	2815.96
283.80	3071.95
284.02	2934.74
284.23	2809.81
284.45	2779.09
284.66	2760.66
284.88	2920.40
285.09	2734.04
285.31	2838.48
285.52	3053.52
285.74	2723.80
285.95	2947.03
286.17	2824.15
286.38	3088.34
286.60	2824.15
286.81	2713.56
287.03	2795.48
287.24	2969.55
287.46	3043.28
287.67	2924.50
287.89	2985.94
288.10	3035.09
288.32	3018.71
288.53	2971.60
288.75	2811.86
288.96	3094.48
289.18	2971.60
289.39	2789.33
289.61	2842.58
289.82	3325.90
290.04	3313.61
290.25	2764.76
290.47	2895.83
290.68	3000.27
290.90	3125.20
291.11	2562.01
291.33	2992.08
291.54	2889.68
291.76	2840.53
291.97	2867.16
292.18	2854.87
292.40	2899.92
292.61	2904.02
292.83	3063.76
293.04	2815.96
293.26	3022.80
293.47	2899.92
293.69	2803.67
293.90	2699.22
294.12	3117.01
294.33	3012.56
294.55	2762.71
294.76	2973.65
294.97	3250.13
295.19	3334.09
295.40	2789.33
295.62	2908.12
295.83	3076.05
296.05	2815.96
296.26	2985.94
296.48	2756.57
296.69	2990.03
296.90	2910.16
297.12	2910.16
297.33	2953.17
297.55	3049.43
297.76	3074.00
297.98	2838.48
298.19	2910.16
298.41	2983.89
298.62	2822.10
298.83	2951.12
299.05	2920.40
299.26	2906.07
299.48	2828.24
299.69	2832.34
299.90	2795.48
300.12	2858.96
300.33	3102.67
300.55	2801.62
300.76	2772.95
300.98	2717.65
301.19	3033.04
301.40	2818.00
301.62	2764.76
301.83	3092.43
302.05	2990.03
302.26	2725.85
302.47	2928.60
302.69	2852.82
302.90	3016.66
303.12	2652.12
303.33	2953.17
303.54	3243.98
303.76	2949.08
303.97	2750.42
304.19	3041.23
304.40	2830.29
304.61	3022.80
304.83	2928.60
305.04	2908.12
305.26	3117.01
305.47	2944.98
305.68	2818.00
305.90	2711.51
306.11	3168.21
306.33	2897.88
306.54	2672.60
306.75	2752.47
306.97	2840.53
307.18	2832.34
307.39	2715.61
307.61	2885.59
307.82	2992.08
308.04	3088.34
308.25	2703.32
308.46	2865.11
308.68	2953.17
308.89	2920.40
309.10	2840.53
309.32	2858.96
309.53	2965.46
309.74	3035.09
309.96	2731.99
310.17	2895.83
310.39	2934.74
310.60	3153.87
310.81	2772.95
311.03	2721.75
311.24	3121.10
311.45	3008.47
311.67	3053.52
311.88	2858.96
312.09	2990.03
312.31	2854.87
312.52	2768.85
312.73	2746.33
312.95	2731.99
313.16	2791.38
313.37	3022.80
313.59	2990.03
313.80	3168.21
314.01	3215.31
314.23	2844.63
314.44	2668.50
314.65	2772.95
314.87	2846.68
315.08	2740.18
315.29	2799.57
315.51	2824.15
315.72	2750.42
315.93	2856.92
316.15	2781.14
316.36	2963.41
316.57	2973.65
316.79	2785.24
317.00	2795.48
317.21	3069.91
317.43	2867.16
317.64	2869.20
317.85	2672.60
318.07	2842.58
318.28	2906.07
318.49	2842.58
318.70	3055.57
318.92	3059.67
319.13	3053.52
319.34	2942.93
319.56	2822.10
319.77	3074.00
319.98	3151.82
320.20	2955.22
320.41	2891.73
320.62	3121.10
320.83	2801.62
321.05	3024.85
321.26	2871.25
321.47	2977.75
321.69	3098.58
321.90	2701.27
322.11	2770.90
322.32	2897.88
322.54	3254.22
322.75	2875.35
322.96	3456.97
323.18	2717.65
323.39	2643.93
323.60	2672.60
323.81	2850.77
324.03	2904.02
324.24	2979.79
324.45	2891.73
324.66	2789.33
324.88	3051.47
325.09	3221.45
325.30	2813.91
325.52	2744.28
325.73	3168.21
325.94	2830.29
326.15	2668.50
326.37	2654.17
326.58	3043.28
326.79	3274.70
327.00	2760.66
327.22	2809.81
327.43	2938.84
327.64	2752.47
327.85	2850.77
328.07	2856.92
328.28	3327.95
328.49	2891.73
328.70	2818.00
328.92	2789.33
329.13	2961.36
329.34	2973.65
329.55	3008.47
329.76	2928.60
329.98	2916.31
330.19	3119.06
330.40	2918.36
330.61	2942.93
330.83	3135.44
331.04	2875.35
331.25	2830.29
331.46	2815.96
331.68	2844.63
331.89	3188.69
332.10	2766.81
332.31	2697.17
332.52	2930.64
332.74	3184.59
332.95	2668.50
333.16	2764.76
333.37	3082.19
333.58	2895.83
333.80	2779.09
334.01	2590.68
334.22	3020.75
334.43	2850.77
334.64	2713.56
334.86	2709.46
335.07	2875.35
335.28	3229.65
335.49	2670.55
335.70	2871.25
335.92	3217.36
336.13	3356.62
336.34	2856.92
336.55	2832.34
336.76	3008.47
336.98	2586.58
337.19	2828.24
337.40	2920.40
337.61	3479.50
337.82	2912.21
338.04	2987.99
338.25	2574.30
338.46	2957.27
338.67	2965.46
338.88	2791.38
339.09	2754.52
339.31	2916.31
339.52	2791.38
339.73	2795.48
339.94	2826.20
340.15	3069.91
340.36	2906.07
340.58	2815.96
340.79	2818.00
341.00	3059.67
341.21	2707.41
341.42	3084.24
341.63	2758.61
341.85	3076.05
342.06	3057.62
342.27	2705.37
342.48	2871.25
342.69	2801.62
342.90	3051.47
343.12	3131.34
343.33	2719.70
343.54	3098.58
343.75	3246.03
343.96	2865.11
344.17	2705.37
344.38	2957.27
344.60	2785.24
344.81	2721.75
345.02	2863.06
345.23	3203.02
345.44	3413.96
345.65	2930.64
345.86	2858.96
346.07	2951.12
346.29	2846.68
346.50	2883.54
346.71	2891.73
346.92	3241.93
347.13	3373.00
347.34	2861.01
347.55	2672.60
347.76	3086.29
347.98	2707.41
348.19	2854.87
348.40	2918.36
348.61	3026.90
348.82	3301.33
349.03	2838.48
349.24	2678.74
349.45	3387.34
349.66	2695.13
349.88	2709.46
350.09	2707.41
350.30	3182.54
350.51	3157.97
350.72	2979.79
350.93	2852.82
351.14	2901.97
351.35	3039.19
351.56	2772.95
351.77	2789.33
351.99	3076.05
352.20	3272.65
352.41	2936.79
352.62	2656.22
352.83	2963.41
353.04	2955.22
353.25	2803.67
353.46	2885.59
353.67	3246.03
353.88	2688.98
354.09	2748.37
354.30	2871.25
354.52	3067.86
354.73	2914.26
354.94	2719.70
355.15	2844.63
355.36	3332.05
355.57	2846.68
355.78	2785.24
355.99	2707.41
356.20	2914.26
356.41	3168.21
356.62	2834.39
356.83	2869.20
357.04	3205.07
357.25	2727.89
357.46	2729.94
357.68	2545.63
357.89	2832.34
358.10	2992.08
358.31	2852.82
358.52	2852.82
358.73	2744.28
358.94	2848.72
359.15	2801.62
359.36	2803.67
359.57	3037.14
359.78	2901.97
359.99	2947.03
360.20	2797.53
360.41	2992.08
360.62	3063.76
360.83	2899.92
361.04	2787.29
361.25	3010.51
361.46	3241.93
361.67	2875.35
361.88	2930.64
362.09	3106.77
362.30	3059.67
362.51	2734.04
362.72	2838.48
362.93	3076.05
363.14	3051.47
363.35	2867.16
363.56	2697.17
363.78	3170.26
363.99	3170.26
364.20	2820.05
364.41	2836.44
364.62	3266.51
364.83	3106.77
365.04	2787.29
365.25	2809.81
365.46	3186.64
365.67	2856.92
365.88	2938.84
366.09	2756.57
366.30	2893.78
366.51	2992.08
366.72	2781.14
366.93	2758.61
367.14	3067.86
367.35	3235.79
367.56	2744.28
367.77	2906.07
367.98	3033.04
368.18	3067.86
368.39	2897.88
368.60	2760.66
368.81	3088.34
369.02	3033.04
369.23	2838.48
369.44	2691.03
369.65	2881.49
369.86	2975.70
370.07	2955.22
370.28	2725.85
370.49	3020.75
370.70	2983.89
370.91	2705.37
371.12	2674.65
371.33	3190.74
371.54	2873.30
371.75	2947.03
371.96	2512.86
372.17	3016.66
372.38	2965.46
372.59	2846.68
372.80	2756.57
373.01	2916.31
373.22	2992.08
373.43	2738.13
373.64	2633.69
373.85	3192.78
374.06	3315.66
374.26	2959.31
374.47	2873.30
374.68	3225.55
374.89	2990.03
375.10	2768.85
375.31	2949.08
375.52	2891.73
375.73	3067.86
375.94	2631.64
376.15	3000.27
376.36	2811.86
376.57	2875.35
376.78	2867.16
376.99	2912.21
377.20	3184.59
377.40	2994.13
377.61	3112.91
377.82	2680.79
378.03	3170.26
378.24	3117.01
378.45	2959.31
378.66	2838.48
378.87	2750.42
379.08	2731.99
379.29	2793.43
379.50	3002.32
379.71	3014.61
379.91	3082.19
380.12	2785.24
380.33	2930.64
380.54	2979.79
380.75	2932.69
380.96	2713.56
381.17	2861.01
381.38	2990.03
381.59	3043.28
381.80	2826.20
382.00	2916.31
382.21	2963.41
382.42	3311.57
382.63	3145.68
382.84	2957.27
383.05	3055.57
383.26	3241.93
383.47	2918.36
383.68	2834.39
383.88	3119.06
384.09	3014.61
384.30	3074.00
384.51	2987.99
384.72	2910.16
384.93	2752.47
385.14	2830.29
385.35	3006.42
385.55	2680.79
385.76	3272.65
385.97	2748.37
386.18	2639.83
386.39	2846.68
386.60	2908.12
386.81	2752.47
387.02	2709.46
387.22	2760.66
387.43	3061.71
387.64	2918.36
387.85	3049.43
388.06	3020.75
388.27	4192.19
388.48	7192.47
388.68	10747.74
388.89	13213.49
389.10	14382.88
389.31	13942.57
389.52	11079.51
389.73	9588.59
389.93	8787.83
390.14	8089.48
390.35	7239.57
390.56	6700.95
390.77	5416.88
390.98	4294.59
391.18	3635.14
391.39	3489.74
391.60	2996.18
391.81	3094.48
392.02	2838.48
392.23	3354.57
392.43	3006.42
392.64	2953.17
392.85	2901.97
393.06	3336.14
393.27	2981.84
393.47	2783.19
393.68	2805.72
393.89	2875.35
394.10	3108.82
394.31	2760.66
394.52	2779.09
394.72	2826.20
394.93	3217.36
395.14	2734.04
395.35	2965.46
395.56	2865.11
395.76	2994.13
395.97	2850.77
396.18	2942.93
396.39	3043.28
396.60	3583.95
396.80	3092.43
397.01	2969.55
397.22	3059.67
397.43	3200.98
397.64	2799.57
397.84	2863.06
398.05	3379.15
398.26	2944.98
398.47	2942.93
398.67	3063.76
398.88	3018.71
399.09	3108.82
399.30	2801.62
399.51	2893.78
399.71	2842.58
399.92	2944.98
400.13	2858.96
400.34	2844.63
400.54	3024.85
400.75	3350.48
400.96	2918.36
401.17	3162.06
401.37	2998.23
401.58	2977.75
401.79	2844.63
402.00	2932.69
402.21	3440.59
402.41	3155.92
402.62	3180.50
402.83	3209.17
403.04	3358.67
403.24	3639.24
403.45	2957.27
403.66	3172.30
403.87	3176.40
404.07	3297.23
404.28	3028.95
404.49	3082.19
404.70	3196.88
404.90	3014.61
405.11	2873.30
405.32	2940.88
405.52	2893.78
405.73	2832.34
405.94	2783.19
406.15	2877.40
406.35	3112.91
406.56	3086.29
406.77	2879.44
406.98	2801.62
407.18	2848.72
407.39	3239.89
407.60	2830.29
407.80	2850.77
408.01	2768.85
408.22	3065.81
408.43	2822.10
408.63	2959.31
408.84	3108.82
409.05	3119.06
409.25	2799.57
409.46	2889.68
409.67	2889.68
409.88	2885.59
410.08	2854.87
410.29	2772.95
410.50	3178.45
410.70	3078.10
410.91	2758.61
411.12	2965.46
411.32	2967.51
411.53	2881.49
411.74	2879.44
411.95	2836.44
412.15	3033.04
412.36	3076.05
412.57	2975.70
412.77	2996.18
412.98	3028.95
413.19	2875.35
413.39	2789.33
413.60	2914.26
413.81	3221.45
414.01	2840.53
414.22	2953.17
414.43	3010.51
414.63	2971.60
414.84	3190.74
415.05	2826.20
415.25	2654.17
415.46	3043.28
415.67	2844.63
415.87	2891.73
416.08	2781.14
416.29	2848.72
416.49	3037.14
416.70	2791.38
416.91	2838.48
417.11	2883.54
417.32	3119.06
417.53	2912.21
417.73	2920.40
417.94	3000.27
418.15	3069.91
418.35	2869.20
418.56	2856.92
418.77	3424.20
418.97	2955.22
419.18	2842.58
419.38	2578.39
419.59	2951.12
419.80	3209.17
420.00	2703.32
420.21	2873.30
420.42	3145.68
420.62	3028.95
420.83	2875.35
421.04	2785.24
421.24	2975.70
421.45	3223.50
421.65	2850.77
421.86	2811.86
422.07	3151.82
422.27	2998.23
422.48	2783.19
422.69	2641.88
422.89	2885.59
423.10	2889.68
423.30	2717.65
423.51	2924.50
423.72	3043.28
423.92	3082.19
424.13	2779.09
424.33	2910.16
424.54	3119.06
424.75	2910.16
424.95	3024.85
425.16	2840.53
425.36	2910.16
425.57	3135.44
425.78	2912.21
425.98	2981.84
426.19	2930.64
426.39	2877.40
426.60	2871.25
426.81	3014.61
427.01	2998.23
427.22	2832.34
427.42	2707.41
427.63	2744.28
427.83	3211.22
428.04	3278.80
428.25	2887.64
428.45	2992.08
428.66	3215.31
428.86	2930.64
429.07	2873.30
429.28	2877.40
429.48	2955.22
429.69	2908.12
429.89	2875.35
430.10	2777.05
430.30	3047.38
430.51	3188.69
430.71	2766.81
430.92	2840.53
431.13	2924.50
431.33	3012.56
431.54	2920.40
431.74	3102.67
431.95	3311.57
432.15	2723.80
432.36	2828.24
432.56	2934.74
432.77	3291.09
432.98	3286.99
433.18	2877.40
433.39	2789.33
433.59	2936.79
433.80	3350.48
434.00	3014.61
434.21	2840.53
434.41	2838.48
434.62	3393.48
434.82	2725.85
435.03	2740.18
435.23	3033.04
435.44	2715.61
435.64	2750.42
435.85	2897.88
436.06	3104.72
436.26	3102.67
436.47	2824.15
436.67	2813.91
436.88	2920.40
437.08	3184.59
437.29	2965.46
437.49	2936.79
437.70	3166.16
437.90	3002.32
438.11	3074.00
438.31	2983.89
438.52	3157.97
438.72	3162.06
438.93	3190.74
439.13	2936.79
439.34	3069.91
439.54	2895.83
439.75	2963.41
439.95	2904.02
440.16	2885.59
440.36	3010.51
440.57	2914.26
440.77	2758.61
440.98	2951.12
441.18	3084.24
441.39	2729.94
441.59	2680.79
441.80	3407.82
442.00	2897.88
442.21	2969.55
442.41	2654.17
442.62	3088.34
442.82	2834.39
443.02	2793.43
443.23	2897.88
443.43	2908.12
443.64	3182.54
443.84	2838.48
444.05	2895.83
444.25	3002.32
444.46	2842.58
444.66	2846.68
444.87	3020.75
445.07	2748.37
445.28	2916.31
445.48	3039.19
445.69	2836.44
445.89	3391.44
446.09	2944.98
446.30	3123.15
446.50	3176.40
446.71	4704.18
446.91	5846.95
447.12	6432.67
447.32	6959.00
447.53	6901.65
447.73	5697.45
447.93	4986.80
448.14	4739.00
448.34	4865.97
448.55	4048.83
448.75	4077.51
448.96	3837.89
449.16	3633.10
449.36	3481.55
449.57	3057.62
449.77	2914.26
449.98	2867.16
450.18	3076.05
450.39	2811.86
450.59	2996.18
450.79	3047.38
451.00	2959.31
451.20	2963.41
451.41	2791.38
451.61	3069.91
451.81	2947.03
452.02	2752.47
452.22	2901.97
452.43	2877.40
452.63	2813.91
452.84	2828.24
453.04	2775.00
453.24	3014.61
453.45	2795.48
453.65	2961.36
453.86	2897.88
454.06	3061.71
454.26	3010.51
454.47	2758.61
454.67	3012.56
454.87	3065.81
455.08	2969.55
455.28	3010.51
455.49	2951.12
455.69	2891.73
455.89	3293.13
456.10	2940.88
456.30	2801.62
456.51	3151.82
456.71	3045.33
456.91	2936.79
457.12	2846.68
457.32	3069.91
457.52	2750.42
457.73	2957.27
457.93	3074.00
458.14	2881.49
458.34	2680.79
458.54	2830.29
458.75	2838.48
458.95	3241.93
459.15	3078.10
459.36	2951.12
459.56	2811.86
459.76	3352.52
459.97	3049.43
460.17	2799.57
460.37	2926.55
460.58	2977.75
460.78	3143.63
460.99	2891.73
461.19	2881.49
461.39	2873.30
461.60	2895.83
461.80	2887.64
462.00	2762.71
462.21	2910.16
462.41	2844.63
462.61	2723.80
462.82	2697.17
463.02	3086.29
463.22	2936.79
463.43	2838.48
463.63	2824.15
463.83	3207.12
464.04	3123.15
464.24	2822.10
464.44	2746.33
464.64	3053.52
464.85	3067.86
465.05	2901.97
465.25	2811.86
465.46	2834.39
465.66	3137.49
465.86	2926.55
466.07	2889.68
466.27	3035.09
466.47	2748.37
466.68	2682.84
466.88	2983.89
467.08	3071.95
467.29	3241.93
467.49	2858.96
467.69	2996.18
467.89	3094.48
468.10	3004.37
468.30	2920.40
468.50	2944.98
468.71	3153.87
468.91	2664.41
469.11	3110.86
469.31	2934.74
469.52	2799.57
469.72	3217.36
469.92	3112.91
470.13	2885.59
470.33	3033.04
470.53	3035.09
470.73	3164.11
470.94	3481.55
471.14	3665.86
471.34	4147.14
471.54	3850.18
471.75	3485.64
471.95	3315.66
472.15	3289.04
472.36	3346.38
472.56	3172.30
472.76	3424.20
472.96	3219.41
473.17	3076.05
473.37	3020.75
473.57	2922.45
473.77	3039.19
473.98	2897.88
474.18	2779.09
474.38	3481.55
474.58	2873.30
474.79	2717.65
474.99	2971.60
475.19	3117.01
475.39	2871.25
475.60	2928.60
475.80	2846.68
476.00	3129.30
476.20	2863.06
476.41	2889.68
476.61	2879.44
476.81	3227.60
477.01	2824.15
477.21	3078.10
477.42	3008.47
477.62	2842.58
477.82	3102.67
478.02	2852.82
478.23	2949.08
478.43	2891.73
478.63	2906.07
478.83	2879.44
479.03	2891.73
479.24	3221.45
479.44	3330.00
479.64	2813.91
479.84	2703.32
480.04	2912.21
480.25	3069.91
480.45	2797.53
480.65	2842.58
480.85	3192.78
481.06	2838.48
481.26	2910.16
481.46	2893.78
481.66	3074.00
481.86	2908.12
482.06	3065.81
482.27	2881.49
482.47	2959.31
482.67	3071.95
482.87	2854.87
483.07	2899.92
483.28	2879.44
483.48	2746.33
483.68	2830.29
483.88	2820.05
484.08	2652.12
484.29	2791.38
484.49	2881.49
484.69	2596.82
484.89	3217.36
485.09	3160.02
485.29	2967.51
485.50	2987.99
485.70	2838.48
485.90	3264.46
486.10	3002.32
486.30	2848.72
486.50	3276.75
486.71	2981.84
486.91	2908.12
487.11	2865.11
487.31	2797.53
487.51	3090.38
487.71	2717.65
487.91	2705.37
488.12	2783.19
488.32	2553.82
488.52	2809.81
488.72	2594.78
488.92	3000.27
489.12	3203.02
489.32	3049.43
489.53	2881.49
489.73	2674.65
489.93	3301.33
490.13	2869.20
490.33	2684.89
490.53	2904.02
490.73	3174.35
490.94	2680.79
491.14	2959.31
491.34	3080.14
491.54	3143.63
491.74	3747.78
491.94	4196.29
492.14	4648.89
492.34	4747.19
492.54	4364.22
492.75	3794.89
492.95	3919.81
493.15	3676.10
493.35	3459.02
493.55	3389.39
493.75	3352.52
493.95	3452.88
494.15	3055.57
494.35	2871.25
494.56	2981.84
494.76	2856.92
494.96	2967.51
495.16	2768.85
495.36	2992.08
495.56	3059.67
495.76	2899.92
495.96	2912.21
496.16	2822.10
496.36	3256.27
496.56	2844.63
496.77	2994.13
496.97	2959.31
497.17	3258.32
497.37	2674.65
497.57	2963.41
497.77	2990.03
497.97	2789.33
498.17	2942.93
498.37	2838.48
498.57	3014.61
498.77	2922.45
498.97	3028.95
499.17	3215.31
499.38	2996.18
499.58	3008.47
499.78	2947.03
499.98	3080.14
500.18	2918.36
500.38	2852.82
500.58	3065.81
500.78	3377.10
500.98	5390.25
501.18	7405.46
501.38	8812.41
501.58	9740.14
501.78	9590.64
501.98	7985.03
502.18	6739.87
502.38	5832.62
502.58	5740.46
502.78	5011.38
502.98	4792.25
503.18	4472.76
503.38	4386.75
503.59	3807.17
503.79	3639.24
503.99	3411.92
504.19	3473.36
504.39	3448.78
504.59	3385.29
504.79	3276.75
504.99	3479.50
505.19	3170.26
505.39	3030.99
505.59	3248.08
505.79	3260.37
505.99	3174.35
506.19	2838.48
506.39	3172.30
506.59	2834.39
506.79	2897.88
506.99	2987.99
507.19	2836.44
507.39	3020.75
507.59	2756.57
507.79	2891.73
507.99	2840.53
508.19	2969.55
508.39	2891.73
508.59	2938.84
508.79	2895.83
508.99	3366.86
509.19	2824.15
509.39	2926.55
509.59	2815.96
509.79	2834.39
509.99	2983.89
510.19	2969.55
510.39	2975.70
510.59	2938.84
510.79	2861.01
510.99	2762.71
511.19	2766.81
511.39	3272.65
511.59	3211.22
511.79	2987.99
511.99	2811.86
512.19	3309.52
512.38	3026.90
512.58	2818.00
512.78	2797.53
512.98	3233.74
513.18	3217.36
513.38	2729.94
513.58	2924.50
513.78	3053.52
513.98	2846.68
514.18	2889.68
514.38	2891.73
514.58	3039.19
514.78	2809.81
514.98	2750.42
515.18	2840.53
515.38	2750.42
515.58	3221.45
515.78	2734.04
515.98	2963.41
516.18	3090.38
516.38	3002.32
516.57	2801.62
516.77	2836.44
516.97	3002.32
517.17	2871.25
517.37	2660.31
517.57	2918.36
517.77	2969.55
517.97	2887.64
518.17	2926.55
518.37	2738.13
518.57	2885.59
518.77	2977.75
518.97	2863.06
519.16	2979.79
519.36	3217.36
519.56	2852.82
519.76	2822.10
519.96	2873.30
520.16	3246.03
520.36	2768.85
520.56	3080.14
520.76	2838.48
520.96	2965.46
521.16	3172.30
521.35	2973.65
521.55	3002.32
521.75	2961.36
521.95	2963.41
522.15	2770.90
522.35	2754.52
522.55	2883.54
522.75	3112.91
522.95	2820.05
523.14	2772.95
523.34	3078.10
523.54	2885.59
523.74	2865.11
523.94	2875.35
524.14	2818.00
524.34	2975.70
524.54	3028.95
524.73	2836.44
524.93	3092.43
525.13	2983.89
525.33	2754.52
525.53	3110.86
525.73	3098.58
525.93	3028.95
526.13	2865.11
526.32	2824.15
526.52	3145.68
526.72	3137.49
526.92	2818.00
527.12	2799.57
527.32	2678.74
527.52	3051.47
527.71	2863.06
527.91	2883.54
528.11	2873.30
528.31	2967.51
528.51	2760.66
528.71	3016.66
528.90	3051.47
529.10	3229.65
529.30	2922.45
529.50	2559.96
529.70	3096.53
529.90	2934.74
530.09	2848.72
530.29	2721.75
530.49	2764.76
530.69	3438.54
530.89	2977.75
531.09	2961.36
531.28	2918.36
531.48	3192.78
531.68	2848.72
531.88	2834.39
532.08	3100.62
532.28	2936.79
532.47	2983.89
532.67	2926.55
532.87	3125.20
533.07	2871.25
533.27	2858.96
533.46	2901.97
533.66	3037.14
533.86	2889.68
534.06	2842.58
534.26	2826.20
534.45	2918.36
534.65	3229.65
534.85	2955.22
535.05	2740.18
535.25	3143.63
535.44	2723.80
535.64	2953.17
535.84	2875.35
536.04	2957.27
536.24	2951.12
536.43	2791.38
536.63	2852.82
536.83	2897.88
537.03	2992.08
537.22	2688.98
537.42	2652.12
537.62	3010.51
537.82	2889.68
538.02	3041.23
538.21	2863.06
538.41	3471.31
538.61	3114.96
538.81	2867.16
539.00	3069.91
539.20	2805.72
539.40	2985.94
539.60	2811.86
539.79	3059.67
539.99	2867.16
540.19	2838.48
540.39	2756.57
540.58	2947.03
540.78	3184.59
540.98	2961.36
541.18	3008.47
541.37	2934.74
541.57	2981.84
541.77	3106.77
541.97	2824.15
542.16	2654.17
542.36	2959.31
542.56	3213.26
542.76	3096.53
542.95	2981.84
543.15	3074.00
543.35	3074.00
543.54	2789.33
543.74	2736.09
543.94	3221.45
544.14	2949.08
544.33	2901.97
544.53	2904.02
544.73	2885.59
544.93	2906.07
545.12	2787.29
545.32	2910.16
545.52	2944.98
545.71	2850.77
545.91	2813.91
546.11	2746.33
546.30	2832.34
546.50	3051.47
546.70	2873.30
546.90	2910.16
547.09	2693.08
547.29	2971.60
547.49	3008.47
547.68	2920.40
547.88	2867.16
548.08	3065.81
548.27	3239.89
548.47	2768.85
548.67	2906.07
548.87	3053.52
549.06	2828.24
549.26	2828.24
549.46	3010.51
549.65	2901.97
549.85	2920.40
550.05	2924.50
550.24	2746.33
550.44	2930.64
550.64	2942.93
550.83	2885.59
551.03	3196.88
551.23	3119.06
551.42	2920.40
551.62	2893.78
551.82	3004.37
552.01	2985.94
552.21	3119.06
552.41	2914.26
552.60	3213.26
552.80	3080.14
553.00	2781.14
553.19	2936.79
553.39	3211.22
553.59	2834.39
553.78	2992.08
553.98	2885.59
554.17	2760.66
554.37	2920.40
554.57	2969.55
554.76	2719.70
554.96	2924.50
555.16	3016.66
555.35	2926.55
555.55	3053.52
555.75	3018.71
555.94	3104.72
556.14	2666.46
556.33	2912.21
556.53	3024.85
556.73	2912.21
556.92	2926.55
557.12	2865.11
557.32	3350.48
557.51	3229.65
557.71	2873.30
557.90	3014.61
558.10	3227.60
558.30	2875.35
558.49	2938.84
558.69	2758.61
558.88	3137.49
559.08	3078.10
559.28	2895.83
559.47	2938.84
559.67	3127.25
559.86	3276.75
560.06	2897.88
560.26	2834.39
560.45	3035.09
560.65	2955.22
560.84	3127.25
561.04	2756.57
561.24	3039.19
561.43	2772.95
561.63	3076.05
561.82	2963.41
562.02	3174.35
562.22	2840.53
562.41	2758.61
562.61	2770.90
562.80	2818.00
563.00	3442.64
563.19	2893.78
563.39	2895.83
563.59	3166.16
563.78	2731.99
563.98	2633.69
564.17	2844.63
564.37	2643.93
564.56	3071.95
564.76	2772.95
564.96	2981.84
565.15	3002.32
565.35	3446.73
565.54	2791.38
565.74	2959.31
565.93	3022.80
566.13	3002.32
566.32	2959.31
566.52	2926.55
566.71	2906.07
566.91	3166.16
567.11	3018.71
567.30	2793.43
567.50	3090.38
567.69	3051.47
567.89	2793.43
568.08	2750.42
568.28	2961.36
568.47	2734.04
568.67	2934.74
568.86	2781.14
569.06	3119.06
569.25	2918.36
569.45	2734.04
569.64	2863.06
569.84	2908.12
570.04	3051.47
570.23	2893.78
570.43	2987.99
570.62	3090.38
570.82	3280.85
571.01	2678.74
571.21	2803.67
571.40	2826.20
571.60	3114.96
571.79	3008.47
571.99	2777.05
572.18	2871.25
572.38	3049.43
572.57	2824.15
572.77	2961.36
572.96	3438.54
573.16	3059.67
573.35	2895.83
573.55	2973.65
573.74	3033.04
573.94	2856.92
574.13	2838.48
574.33	3024.85
574.52	3217.36
574.71	2992.08
574.91	2908.12
575.10	2742.23
575.30	2838.48
575.49	2781.14
575.69	2858.96
575.88	2850.77
576.08	2953.17
576.27	3170.26
576.47	2818.00
576.66	3090.38
576.86	3200.98
577.05	3047.38
577.25	2906.07
577.44	3012.56
577.64	2901.97
577.83	3119.06
578.02	2811.86
578.22	3082.19
578.41	3352.52
578.61	2977.75
578.80	2691.03
579.00	2858.96
579.19	2955.22
579.39	3110.86
579.58	2992.08
579.77	2936.79
579.97	3223.50
580.16	3104.72
580.36	3014.61
580.55	2959.31
580.75	3063.76
580.94	3002.32
581.13	2981.84
581.33	3112.91
581.52	3047.38
581.72	3340.24
581.91	2940.88
582.11	2822.10
582.30	3108.82
582.49	2981.84
582.69	3166.16
582.88	2998.23
583.08	3102.67
583.27	3157.97
583.47	2987.99
583.66	2861.01
583.85	2818.00
584.05	3014.61
584.24	2938.84
584.44	2899.92
584.63	3182.54
584.82	3176.40
585.02	3090.38
585.21	3000.27
585.41	3088.34
585.60	3041.23
585.79	3127.25
585.99	3215.31
586.18	3112.91
586.37	3936.20
586.57	5746.60
586.76	16664.32
586.96	35175.91
587.15	48606.49
587.34	56591.52
587.54	61224.03
587.73	54097.09
587.93	38704.56
588.12	29261.38
588.31	24014.48
588.51	21190.33
588.70	19545.81
588.89	17078.01
589.09	14659.36
589.28	12611.39
589.47	9670.51
589.67	7489.42
589.86	5912.49
590.06	4571.07
590.25	4067.27
590.44	3592.14
590.64	3330.00
590.83	3231.69
591.02	3235.79
591.22	2936.79
591.41	2918.36
591.60	2928.60
591.80	3430.35
591.99	2750.42
592.18	2863.06
592.38	3127.25
592.57	2908.12
592.76	2920.40
592.96	2826.20
593.15	2973.65
593.34	3221.45
593.54	2889.68
593.73	2971.60
593.92	3030.99
594.12	3162.06
594.31	3000.27
594.50	3098.58
594.70	3231.69
594.89	3473.36
595.08	2848.72
595.28	3010.51
595.47	3592.14
595.66	3123.15
595.86	2736.09
596.05	2795.48
596.24	2881.49
596.43	3325.90
596.63	3045.33
596.82	2959.31
597.01	3067.86
597.21	3303.37
597.40	2869.20
597.59	2871.25
597.79	3028.95
597.98	3114.96
598.17	2938.84
598.36	2942.93
598.56	3061.71
598.75	2973.65
598.94	2951.12
599.14	2877.40
599.33	2834.39
599.52	3098.58
599.71	2965.46
599.91	2932.69
600.10	3112.91
600.29	3041.23
600.48	2961.36
600.68	3059.67
600.87	2977.75
601.06	2830.29
601.26	2918.36
601.45	2969.55
601.64	2961.36
601.83	3241.93
602.03	2803.67
602.22	2770.90
602.41	3194.83
602.60	3428.30
602.80	2879.44
602.99	3014.61
603.18	2918.36
603.37	3000.27
603.57	2795.48
603.76	2904.02
603.95	3155.92
604.14	2914.26
604.34	2772.95
604.53	2820.05
604.72	3059.67
604.91	3147.73
605.10	2875.35
605.30	2686.94
605.49	3432.40
605.68	3117.01
605.87	2873.30
606.07	2803.67
606.26	3037.14
606.45	3074.00
606.64	2836.44
606.84	2801.62
607.03	2969.55
607.22	3157.97
607.41	2836.44
607.60	2840.53
607.80	3184.59
607.99	2951.12
608.18	2926.55
608.37	2901.97
608.56	2852.82
608.76	3237.84
608.95	2961.36
609.14	2897.88
609.33	3241.93
609.52	3217.36
609.72	2901.97
609.91	3016.66
610.10	3000.27
610.29	3219.41
610.48	3024.85
610.68	2979.79
610.87	2893.78
611.06	3125.20
611.25	2789.33
611.44	2977.75
611.63	2906.07
611.83	3274.70
612.02	2770.90
612.21	2955.22
612.40	2764.76
612.59	2842.58
612.79	2754.52
612.98	2875.35
613.17	3260.37
613.36	2910.16
613.55	3043.28
613.74	2865.11
613.93	2969.55
614.13	3049.43
614.32	3049.43
614.51	2928.60
614.70	2961.36
614.89	2951.12
615.08	2940.88
615.28	3327.95
615.47	2815.96
615.66	3162.06
615.85	2891.73
616.04	2990.03
616.23	3053.52
616.42	3045.33
616.62	2799.57
616.81	2836.44
617.00	2947.03
617.19	2987.99
617.38	2795.48
617.57	2877.40
617.76	3129.30
617.95	3076.05
618.15	2996.18
618.34	3049.43
618.53	2820.05
618.72	3268.56
618.91	3041.23
619.10	2983.89
619.29	2969.55
619.48	2944.98
619.68	2725.85
619.87	2772.95
620.06	2807.77
620.25	3090.38
620.44	2818.00
620.63	2838.48
620.82	2983.89
621.01	3024.85
621.20	2875.35
621.39	2926.55
621.59	3047.38
621.78	2949.08
621.97	2928.60
622.16	2959.31
622.35	3045.33
622.54	3117.01
622.73	2975.70
622.92	2668.50
623.11	3051.47
623.30	2979.79
623.49	3039.19
623.68	2830.29
623.88	3178.45
624.07	2875.35
624.26	2826.20
624.45	2836.44
624.64	2889.68
624.83	2985.94
625.02	2863.06
625.21	2869.20
625.40	2969.55
625.59	3170.26
625.78	2971.60
625.97	2959.31
626.16	3315.66
626.35	3164.11
626.54	2926.55
626.74	3033.04
626.93	2961.36
627.12	2863.06
627.31	2951.12
627.50	2953.17
627.69	3114.96
627.88	2840.53
628.07	2887.64
628.26	2744.28
628.45	2826.20
628.64	2777.05
628.83	2869.20
629.02	2754.52
629.21	3028.95
629.40	2998.23
629.59	2764.76
629.78	2811.86
629.97	3012.56
630.16	3033.04
630.35	2856.92
630.54	2852.82
630.73	2930.64
630.92	3039.19
631.11	2799.57
631.30	2932.69
631.49	3121.10
631.68	2940.88
631.87	2930.64
632.06	2824.15
632.25	3364.81
632.44	2994.13
632.63	2858.96
632.82	2785.24
633.01	2848.72
633.20	2944.98
633.39	2834.39
633.58	2709.46
633.77	3022.80
633.96	3067.86
634.15	3026.90
634.34	2992.08
634.53	3000.27
634.72	2885.59
634.91	2664.41
635.10	2844.63
635.29	3121.10
635.48	3045.33
635.67	2791.38
635.86	2727.89
636.05	3282.89
636.24	2918.36
636.43	2846.68
636.62	2936.79
636.81	2568.15
637.00	3014.61
637.19	2920.40
637.38	2893.78
637.57	2961.36
637.76	2985.94
637.95	3063.76
638.14	2897.88
638.33	3069.91
638.52	2967.51
638.71	2856.92
638.89	2699.22
639.08	3401.68
639.27	3067.86
639.46	3041.23
639.65	3321.81
639.84	3387.34
640.03	3485.64
640.22	3190.74
640.41	3321.81
640.60	3008.47
640.79	3172.30
640.98	3012.56
641.17	3028.95
641.36	3172.30
641.55	3182.54
641.74	2828.24
641.92	2781.14
642.11	2807.77
642.30	2975.70
642.49	2852.82
642.68	2818.00
642.87	3061.71
643.06	3123.15
643.25	2789.33
643.44	2789.33
643.63	2998.23
643.82	3176.40
644.00	2678.74
644.19	2959.31
644.38	2867.16
644.57	3164.11
644.76	2840.53
644.95	2895.83
645.14	3055.57
645.33	2930.64
645.52	2875.35
645.71	2674.65
645.89	2865.11
646.08	3012.56
646.27	2844.63
646.46	3100.62
646.65	2723.80
646.84	3028.95
647.03	2688.98
647.22	3020.75
647.40	3055.57
647.59	2924.50
647.78	2693.08
647.97	2858.96
648.16	2910.16
648.35	3180.50
648.54	3096.53
648.73	2863.06
648.91	3166.16
649.10	2998.23
649.29	2834.39
649.48	2779.09
649.67	3037.14
649.86	2969.55
650.05	2869.20
650.23	3061.71
650.42	2895.83
650.61	3241.93
650.80	3143.63
650.99	3129.30
651.18	3235.79
651.36	3178.45
651.55	2789.33
651.74	3000.27
651.93	2930.64
652.12	2951.12
652.31	2944.98
652.49	2920.40
652.68	2947.03
652.87	3272.65
653.06	3030.99
653.25	3080.14
653.44	3018.71
653.62	3215.31
653.81	2920.40
654.00	2758.61
654.19	3147.73
654.38	3422.16
654.56	2908.12
654.75	2920.40
654.94	3153.87
655.13	3024.85
655.32	2867.16
655.51	3020.75
655.69	2871.25
655.88	3078.10
656.07	2781.14
656.26	2904.02
656.45	2822.10
656.63	3020.75
656.82	2824.15
657.01	3160.02
657.20	2858.96
657.38	3252.17
657.57	2783.19
657.76	2723.80
657.95	3160.02
658.14	2924.50
658.32	2936.79
658.51	2758.61
658.70	3045.33
658.89	3016.66
659.08	2963.41
659.26	3071.95
659.45	2844.63
659.64	3033.04
659.83	2877.40
660.01	3239.89
660.20	3014.61
660.39	3205.07
660.58	2484.19
660.76	2912.21
660.95	2750.42
661.14	2957.27
661.33	2721.75
661.51	2818.00
661.70	2942.93
661.89	3100.62
662.08	2828.24
662.26	2617.30
662.45	2775.00
662.64	3336.14
662.83	2885.59
663.01	2682.84
663.20	2877.40
663.39	3184.59
663.58	2920.40
663.76	2867.16
663.95	3024.85
664.14	2854.87
664.32	2865.11
664.51	2713.56
664.70	2766.81
664.89	3057.62
665.07	2775.00
665.26	2951.12
665.45	2674.65
665.64	3061.71
665.82	2850.77
666.01	2959.31
666.20	2813.91
666.38	3168.21
666.57	3164.11
666.76	4898.74
666.95	10966.87
667.13	17659.63
667.32	21411.51
667.51	23826.07
667.69	24864.39
667.88	20981.44
668.07	15097.63
668.25	12775.23
668.44	11267.92
668.63	9650.03
668.81	8589.18
669.00	7198.61
669.19	6727.58
669.38	5894.05
669.56	5109.68
669.75	4433.85
669.94	3885.00
670.12	3405.77
670.31	3065.81
670.50	3153.87
670.68	3096.53
670.87	3026.90
671.06	2842.58
671.24	2842.58
671.43	3321.81
671.62	3108.82
671.80	2932.69
671.99	2934.74
672.18	2955.22
672.36	3133.39
672.55	2998.23
672.74	2910.16
672.92	2938.84
673.11	3082.19
673.29	2711.51
673.48	3030.99
673.67	2979.79
673.85	3129.30
674.04	2760.66
674.23	3018.71
674.41	3323.85
674.60	2768.85
674.79	2621.40
674.97	2807.77
675.16	3141.58
675.34	3127.25
675.53	2766.81
675.72	2949.08
675.90	3172.30
676.09	2965.46
676.28	2957.27
676.46	2760.66
676.65	3131.34
676.83	2889.68
677.02	2875.35
677.21	2949.08
677.39	2994.13
677.58	2789.33
677.77	2887.64
677.95	2682.84
678.14	2987.99
678.32	2901.97
678.51	2768.85
678.70	3112.91
678.88	3012.56
679.07	3008.47
679.25	2842.58
679.44	2897.88
679.63	2779.09
679.81	3051.47
680.00	3090.38
680.18	2963.41
680.37	3237.84
680.55	2965.46
680.74	2676.70
680.93	2609.11
681.11	3086.29
681.30	3000.27
681.48	2914.26
681.67	2838.48
681.85	2961.36
682.04	2815.96
682.23	2981.84
682.41	2899.92
682.60	2914.26
682.78	2981.84
682.97	2762.71
683.15	2914.26
683.34	3024.85
683.53	3227.60
683.71	2738.13
683.90	2942.93
684.08	3284.94
684.27	2922.45
684.45	2904.02
684.64	3018.71
684.82	3000.27
685.01	3057.62
685.19	2867.16
685.38	3153.87
685.57	2953.17
685.75	2869.20
685.94	2787.29
686.12	2832.34
686.31	2836.44
686.49	3227.60
686.68	2744.28
686.86	2873.30
687.05	2981.84
687.23	3274.70
687.42	2889.68
687.60	2746.33
687.79	3164.11
687.97	3235.79
688.16	3010.51
688.34	3028.95
688.53	2676.70
688.71	3006.42
688.90	3139.54
689.08	2928.60
689.27	2719.70
689.45	3139.54
689.64	3020.75
689.82	2949.08
690.01	3059.67
690.19	3104.72
690.38	2985.94
690.56	3000.27
690.75	2830.29
690.93	2887.64
691.12	2777.05
691.30	2928.60
691.49	2936.79
691.67	2990.03
691.86	3176.40
692.04	2846.68
692.23	2932.69
692.41	2959.31
692.60	3194.83
692.78	3065.81
692.97	3020.75
693.15	3157.97
693.34	3096.53
693.52	3018.71
693.71	2928.60
693.89	2899.92
694.08	2744.28
694.26	2996.18
694.44	3139.54
694.63	3082.19
694.81	2842.58
695.00	2789.33
695.18	3164.11
695.37	3397.58
695.55	2967.51
695.74	2891.73
695.92	2893.78
696.10	3205.07
696.29	2818.00
696.47	2848.72
696.66	2793.43
696.84	2811.86
697.03	2934.74
697.21	3170.26
697.40	4440.00
697.58	3235.79
697.76	2811.86
697.95	2895.83
698.13	2801.62
698.32	2867.16
698.50	2879.44
698.68	2940.88
698.87	3045.33
699.05	3219.41
699.24	2940.88
699.42	2764.76
699.61	2971.60
699.79	3018.71
699.97	2838.48
700.16	2729.94
700.34	2824.15
700.53	2971.60
700.71	3131.34
700.89	2992.08
701.08	2969.55
701.26	2918.36
701.45	3239.89
701.63	2791.38
701.81	2926.55
702.00	2789.33
702.18	2932.69
702.37	2705.37
702.55	3188.69
702.73	3065.81
702.92	2889.68
703.10	3143.63
703.28	3139.54
703.47	2783.19
703.65	3084.24
703.84	2983.89
704.02	2863.06
704.20	3264.46
704.39	2805.72
704.57	2840.53
704.75	3059.67
704.94	2996.18
705.12	2861.01
705.30	3407.82
705.49	6651.80
705.67	12965.69
705.86	18083.56
706.04	20756.16
706.22	22851.24
706.41	21989.04
706.59	17004.28
706.77	13252.41
706.96	11261.78
707.14	10315.62
707.32	8990.58
707.51	7890.82
707.69	6477.73
707.87	5468.08
708.06	4566.97
708.24	4040.64
708.42	3606.47
708.61	3704.78
708.79	2994.13
708.97	3071.95
709.16	3084.24
709.34	3008.47
709.52	2834.39
709.71	2854.87
709.89	3086.29
710.07	2781.14
710.26	2756.57
710.44	2842.58
710.62	3096.53
710.80	3000.27
710.99	3014.61
711.17	2983.89
711.35	2951.12
711.54	2815.96
711.72	3090.38
711.90	3051.47
712.09	3119.06
712.27	2863.06
712.45	3055.57
712.63	2904.02
712.82	2990.03
713.00	2883.54
713.18	3020.75
713.37	3071.95
713.55	3219.41
713.73	3039.19
713.91	2975.70
714.10	2805.72
714.28	2981.84
714.46	3012.56
714.65	2975.70
714.83	2916.31
715.01	2928.60
715.19	2979.79
715.38	2815.96
715.56	2924.50
715.74	2879.44
715.92	2844.63
716.11	3125.20
716.29	2639.83
716.47	2967.51
716.65	2867.16
716.84	2629.59
717.02	2994.13
717.20	2703.32
717.38	2846.68
717.57	3004.37
717.75	2934.74
717.93	2881.49
718.11	3039.19
718.30	2709.46
718.48	2869.20
718.66	3223.50
718.84	3141.58
719.03	2947.03
719.21	2729.94
719.39	3188.69
719.57	3051.47
719.75	2959.31
719.94	2834.39
720.12	2920.40
720.30	2992.08
720.48	2975.70
720.67	2818.00
720.85	2822.10
721.03	2807.77
721.21	2883.54
721.39	2987.99
721.58	3082.19
721.76	2973.65
721.94	3006.42
722.12	2961.36
722.30	3231.69
722.49	2899.92
722.67	2983.89
722.85	2856.92
723.03	2754.52
723.21	2881.49
723.40	2908.12
723.58	3080.14
723.76	3160.02
723.94	3248.08
724.12	2918.36
724.30	3100.62
724.49	3151.82
724.67	2807.77
724.85	3018.71
725.03	2727.89
725.21	3121.10
725.40	3264.46
725.58	2824.15
725.76	3024.85
725.94	3090.38
726.12	2789.33
726.30	2971.60
726.49	2793.43
726.67	2912.21
726.85	3069.91
727.03	3330.00
727.21	4403.13
727.39	5453.74
727.57	5898.15
727.76	6371.23
727.94	6367.13
728.12	5543.85
728.30	4634.55
728.48	4415.42
728.66	4173.76
728.84	3889.09
729.03	3479.50
729.21	3370.96
729.39	3307.47
729.57	3102.67
729.75	3098.58
729.93	2944.98
730.11	2775.00
730.30	2992.08
730.48	2924.50
730.66	2944.98
730.84	2985.94
731.02	2981.84
731.20	2848.72
731.38	2979.79
731.56	2707.41
731.74	2791.38
731.93	2987.99
732.11	2965.46
732.29	2832.34
732.47	3043.28
732.65	2944.98
732.83	3108.82
733.01	2959.31
733.19	2801.62
733.37	3059.67
733.56	2848.72
733.74	2779.09
733.92	3233.74
734.10	2971.60
734.28	3092.43
734.46	2693.08
734.64	2940.88
734.82	2856.92
735.00	2848.72
735.18	2822.10
735.36	2947.03
735.54	2959.31
735.73	2779.09
735.91	2975.70
736.09	3221.45
736.27	2947.03
736.45	2979.79
736.63	2672.60
736.81	2801.62
736.99	3172.30
737.17	3049.43
737.35	2815.96
737.53	3028.95
737.71	2938.84
737.89	3033.04
738.07	2824.15
738.25	2861.01
738.43	2707.41
738.61	2908.12
738.80	2746.33
738.98	2781.14
739.16	2916.31
739.34	2793.43
739.52	3067.86
739.70	2953.17
739.88	3047.38
740.06	3002.32
740.24	2688.98
740.42	3155.92
740.60	2756.57
740.78	2881.49
740.96	2607.06
741.14	2924.50
741.32	2951.12
741.50	2736.09
741.68	3174.35
741.86	3272.65
742.04	2854.87
742.22	2785.24
742.40	2846.68
742.58	3088.34
742.76	2889.68
742.94	3051.47
743.12	2711.51
743.30	2977.75
743.48	3086.29
743.66	2803.67
743.84	2930.64
744.02	2959.31
744.20	2938.84
744.38	2783.19
744.56	2865.11
744.74	3315.66
744.92	3002.32
745.10	3084.24
745.28	2895.83
745.46	3276.75
745.64	2981.84
745.82	2955.22
746.00	2844.63
746.18	2990.03
746.36	2842.58
746.54	2916.31
746.72	2873.30
746.90	2818.00
747.08	3164.11
747.26	2867.16
747.44	2932.69
747.62	3076.05
747.80	3047.38
747.98	3006.42
748.15	2836.44
748.33	3297.23
748.51	3012.56
748.69	2904.02
748.87	2742.23
749.05	2990.03
749.23	2983.89
749.41	2863.06
749.59	2918.36
749.77	3112.91
749.95	2955.22
750.13	2889.68
750.31	2957.27
750.49	2977.75
750.67	3129.30
750.85	2930.64
751.03	2861.01
751.20	3233.74
751.38	3024.85
751.56	2822.10
751.74	2926.55
751.92	2914.26
752.10	2861.01
752.28	3057.62
752.46	2891.73
752.64	2910.16
752.82	2955.22
753.00	2977.75
753.18	2830.29
753.35	2899.92
753.53	3061.71
753.71	2797.53
753.89	2901.97
754.07	3069.91
754.25	3084.24
754.43	2977.75
754.61	2674.65
754.79	3041.23
754.97	3006.42
755.14	2979.79
755.32	2734.04
755.50	2961.36
755.68	2983.89
755.86	2867.16
756.04	2772.95
756.22	2678.74
756.40	3045.33
756.57	3041.23
756.75	2801.62
756.93	3180.50
757.11	3215.31
757.29	2697.17
757.47	2811.86
757.65	2760.66
757.82	2641.88
758.00	2770.90
758.18	2891.73
758.36	2838.48
758.54	3235.79
758.72	2725.85
758.90	3037.14
759.07	3006.42
759.25	2828.24
759.43	2897.88
759.61	2731.99
759.79	4227.01
759.97	3082.19
760.15	2906.07
760.32	2856.92
760.50	3071.95
760.68	3301.33
760.86	2754.52
761.04	3076.05
761.22	3102.67
761.39	2944.98
761.57	3033.04
761.75	2910.16
761.93	3069.91
762.11	2934.74
762.28	2906.07
762.46	2830.29
762.64	3166.16
762.82	2813.91
763.00	2848.72
763.18	3123.15
763.35	2822.10
763.53	3045.33
763.71	2938.84
763.89	2846.68
764.07	3092.43
764.24	3030.99
764.42	2973.65
764.60	2815.96
764.78	3078.10
764.96	3196.88
765.13	2963.41
765.31	2738.13
765.49	3100.62
765.67	2861.01
765.84	2852.82
766.02	2764.76
766.20	2777.05
766.38	3051.47
766.56	2938.84
766.73	3016.66
766.91	3012.56
767.09	3028.95
767.27	3006.42
767.44	2766.81
767.62	3108.82
767.80	3033.04
767.98	2834.39
768.15	2828.24
768.33	3219.41
768.51	3174.35
768.69	2979.79
768.87	2858.96
769.04	3006.42
769.22	3434.44
769.40	3049.43
769.58	3076.05
769.75	3010.51
769.93	3147.73
770.11	2899.92
770.28	2815.96
770.46	3026.90
770.64	2994.13
770.82	2910.16
770.99	2779.09
771.17	3026.90
771.35	2965.46
771.53	2885.59
771.70	2803.67
771.88	3117.01
772.06	3010.51
772.23	2861.01
772.41	2895.83
772.59	2906.07
772.77	2822.10
772.94	2795.48
773.12	2942.93
773.30	2955.22
773.47	3051.47
773.65	2920.40
773.83	3037.14
774.01	2893.78
774.18	2750.42
774.36	2828.24
774.54	2777.05
774.71	3053.52
774.89	2746.33
775.07	2787.29
775.24	2820.05
775.42	2848.72
775.60	3225.55
775.78	2772.95
775.95	2719.70
776.13	2701.27
776.31	2643.93
776.48	3010.51
776.66	3051.47
776.84	2914.26
777.01	2863.06
777.19	2822.10
777.37	2795.48
777.54	3104.72
777.72	3323.85
777.90	2924.50
778.07	2799.57
778.25	3516.36
778.43	3125.20
778.60	2832.34
778.78	2951.12
778.96	3145.68
779.13	2811.86
779.31	2879.44
779.49	2904.02
779.66	3071.95
779.84	2922.45
780.01	2842.58
780.19	2758.61
780.37	3194.83
780.54	3086.29
780.72	2811.86
780.90	2854.87
781.07	2840.53
781.25	2858.96
781.43	2930.64
781.60	2809.81
781.78	3182.54
781.95	3065.81
782.13	2793.43
782.31	2777.05
782.48	2684.89
782.66	2926.55
782.83	3135.44
783.01	3006.42
783.19	3108.82
783.36	2871.25
783.54	2789.33
783.72	2967.51
783.89	2953.17
784.07	2994.13
784.24	3000.27
784.42	3006.42
784.60	3020.75
784.77	2998.23
784.95	2639.83
785.12	2725.85
785.30	2969.55
785.47	2893.78
785.65	2777.05
785.83	2897.88
786.00	2889.68
786.18	2996.18
786.35	2832.34
786.53	2680.79
786.71	3233.74
786.88	3000.27
787.06	2891.73
787.23	2861.01
787.41	2762.71
787.58	3008.47
787.76	2781.14
787.94	2885.59
788.11	3020.75
788.29	2742.23
788.46	2826.20
788.64	2654.17
788.81	2922.45
788.99	2822.10
789.16	2740.18
789.34	2955.22
789.52	2893.78
789.69	2813.91
789.87	2691.03
790.04	2805.72
790.22	2987.99
790.39	3354.57
790.57	2826.20
790.74	2762.71
790.92	3192.78
791.09	2729.94
791.27	2867.16
791.44	2990.03
791.62	2924.50
791.79	3106.77
791.97	2906.07
792.15	3205.07
792.32	3067.86
792.50	3106.77
792.67	3123.15
792.85	3180.50
793.02	3037.14
793.20	2877.40
793.37	2736.09
793.55	2881.49
793.72	2729.94
793.90	3061.71
794.07	2815.96
794.25	2861.01
794.42	3098.58
794.60	2942.93
794.77	2930.64
794.95	2891.73
795.12	3160.02
795.30	2955.22
795.47	2648.02
795.65	3248.08
795.82	3028.95
796.00	2854.87
796.17	2875.35
796.34	2803.67
796.52	3010.51
796.69	3164.11
796.87	2992.08
797.04	2914.26
797.22	3178.45
797.39	3026.90
797.57	2951.12
797.74	2961.36
797.92	3059.67
798.09	2901.97
798.27	3057.62
798.44	2826.20
798.62	2865.11
798.79	2981.84
798.96	2981.84
799.14	2815.96
799.31	3422.16
799.49	3000.27
799.66	2916.31
799.84	2901.97
800.01	2746.33
800.19	3047.38
800.36	2676.70
800.53	2887.64
800.71	3123.15
800.88	3268.56
801.06	2736.09
801.23	2811.86
801.41	2957.27
801.58	2906.07
801.75	2797.53
801.93	2940.88
802.10	2992.08
802.28	2961.36
802.45	2844.63
802.63	2947.03
802.80	3170.26
802.97	2901.97
803.15	2922.45
803.32	2820.05
803.50	2893.78
803.67	2863.06
803.84	2762.71
804.02	2883.54
804.19	2918.36
804.37	2645.98
804.54	2658.26
804.71	2770.90
804.89	2992.08
805.06	2842.58
805.24	2787.29
805.41	2740.18
805.58	2815.96
805.76	3413.96
805.93	2848.72
806.10	2961.36
806.28	3092.43
806.45	3010.51
806.63	2936.79
806.80	2906.07
806.97	2998.23
807.15	3006.42
807.32	2928.60
807.49	2922.45
807.67	2760.66
807.84	3065.81
808.01	2676.70
808.19	3106.77
808.36	3368.91
808.54	2922.45
808.71	2820.05
808.88	2828.24
809.06	3200.98
809.23	3262.41
809.40	2887.64
809.58	2942.93
809.75	2977.75
809.92	2705.37
810.10	3182.54
810.27	2904.02
810.44	2979.79
810.62	3065.81
810.79	2871.25
810.96	2809.81
811.14	2865.11
811.31	3094.48
811.48	2996.18
811.66	2953.17
811.83	3190.74
812.00	3061.71
812.18	3010.51
812.35	3123.15
812.52	2947.03
812.69	2863.06
812.87	2793.43
813.04	2762.71
813.21	2947.03
813.39	2815.96
813.56	2752.47
813.73	2951.12
813.91	2721.75
814.08	2969.55
814.25	2861.01
814.42	2588.63
814.60	2895.83
814.77	2979.79
814.94	2873.30
815.12	2947.03
815.29	3246.03
815.46	2858.96
815.63	2926.55
815.81	2861.01
815.98	2938.84
816.15	2996.18
816.33	2934.74
816.50	2834.39
816.67	2895.83
816.84	2916.31
817.02	2715.61
817.19	2815.96
817.36	3012.56
817.53	2975.70
817.71	2781.14
817.88	2944.98
818.05	2854.87
818.22	2901.97
818.40	3024.85
818.57	2863.06
818.74	3069.91
818.91	2803.67
819.09	2981.84
819.26	3035.09
819.43	2842.58
819.60	2944.98
819.78	3012.56
819.95	2947.03
820.12	2729.94
820.29	3131.34
820.47	3078.10
820.64	2768.85
820.81	2799.57
820.98	2836.44
821.15	2795.48
821.33	3020.75
821.50	2621.40
821.67	3051.47
821.84	2805.72
822.02	2885.59
822.19	3104.72
822.36	2893.78
822.53	2834.39
822.70	2813.91
822.88	2967.51
823.05	3231.69
823.22	2899.92
823.39	2918.36
823.56	2942.93
823.74	3184.59
823.91	2729.94
824.08	2754.52
824.25	2904.02
824.42	3358.67
824.60	2701.27
824.77	2899.92
824.94	2994.13
825.11	3076.05
825.28	2641.88
825.45	3004.37
825.63	3059.67
825.80	2848.72
825.97	2987.99
826.14	2912.21
826.31	2715.61
826.48	3088.34
826.66	2799.57
826.83	2805.72
827.00	2906.07
827.17	2895.83
827.34	2883.54
827.51	2809.81
827.69	3024.85
827.86	2758.61
828.03	2920.40
828.20	2840.53
828.37	2818.00
828.54	3000.27
828.71	2828.24
828.89	2934.74
829.06	3000.27
829.23	3305.42
829.40	2842.58
829.57	2803.67
829.74	3108.82
829.91	2877.40
830.09	2824.15
830.26	2987.99
830.43	3241.93
830.60	2875.35
830.77	2895.83
830.94	3020.75
831.11	3162.06
831.28	2920.40
831.46	2957.27
831.63	2846.68
831.80	3129.30
831.97	2861.01
832.14	2787.29
832.31	2895.83
832.48	3061.71
832.65	3102.67
832.82	2947.03
832.99	2981.84
833.17	2869.20
833.34	3166.16
833.51	2840.53
833.68	2629.59
833.85	3233.74
834.02	2848.72
834.19	2809.81
834.36	2832.34
834.53	3030.99
834.70	3205.07
834.87	2856.92
835.04	2641.88
835.22	2746.33
835.39	2918.36
835.56	2707.41
835.73	2713.56
835.90	3061.71
836.07	2867.16
836.24	2842.58
836.41	2723.80
836.58	2793.43
836.75	3213.26
836.92	2795.48
837.09	2611.16
837.26	3074.00
837.43	3045.33
837.60	2850.77
837.77	2779.09
837.94	3184.59
838.12	3157.97
838.29	2717.65
838.46	2584.54
838.63	2807.77
838.80	3254.22
838.97	2693.08
839.14	2686.94
839.31	3004.37
839.48	3008.47
839.65	2731.99
839.82	2779.09
839.99	2994.13
840.16	2996.18
840.33	2795.48
840.50	2793.43
840.67	2820.05
840.84	2533.34
841.01	2758.61
841.18	2717.65
841.35	2963.41
841.52	3102.67
841.69	3018.71
841.86	2723.80
842.03	2922.45
842.20	3176.40
842.37	2742.23
842.54	2772.95
842.71	2928.60
842.88	2697.17
843.05	2740.18
843.22	2797.53
843.39	3047.38
843.56	2828.24
843.73	2752.47
843.90	2820.05
844.07	2955.22
844.24	3059.67
844.41	2822.10
844.58	2781.14
844.75	2955.22
844.92	3057.62
845.09	2815.96
845.26	2772.95
845.43	3059.67
845.60	2858.96
845.77	2824.15
845.94	2783.19
846.10	3098.58
846.27	2734.04
846.44	2615.26
846.61	2662.36
846.78	3065.81
846.95	3262.41
847.12	2719.70
847.29	2705.37
847.46	2809.81
847.63	3153.87
847.80	2693.08
847.97	2742.23
848.14	3284.94
848.31	2926.55
848.48	2629.59
848.65	2746.33
848.82	2842.58
848.98	3381.20
849.15	2840.53
849.32	2830.29
849.49	3180.50
849.66	2969.55
849.83	2699.22
850.00	2680.79
850.17	3119.06
850.34	2893.78
850.51	2656.22
850.68	2740.18
850.85	3370.96
851.01	3080.14
851.18	2740.18
851.35	2758.61
851.52	3057.62
851.69	3184.59
851.86	2660.31
852.03	2693.08
852.20	3135.44
852.37	2881.49
852.53	2639.83
852.70	2666.46
852.87	2942.93
853.04	3100.62
853.21	2742.23
853.38	2977.75
853.55	3143.63
853.72	3182.54
853.89	2703.32
854.05	2729.94
854.22	2953.17
854.39	2908.12
854.56	2768.85
854.73	2838.48
854.90	2799.57
855.07	2932.69
855.23	2656.22
855.40	2701.27
855.57	2885.59
855.74	2639.83
855.91	2965.46
856.08	2598.87
856.25	2711.51
856.41	2856.92
856.58	2775.00
856.75	2787.29
856.92	2775.00
857.09	3145.68
857.26	2562.01
857.42	2818.00
857.59	3145.68
857.76	2914.26
857.93	2764.76
858.10	2789.33
858.27	2742.23
858.43	2924.50
858.60	2709.46
858.77	2525.15
858.94	2824.15
859.11	3172.30
859.27	2805.72
859.44	2658.26
859.61	3307.47
859.78	3008.47
859.95	2727.89
860.12	2725.85
860.28	3229.65
860.45	3325.90
860.62	2701.27
860.79	2783.19
860.95	2967.51
861.12	2822.10
861.29	2641.88
861.46	2680.79
861.63	2914.26
861.79	3002.32
861.96	2662.36
862.13	2703.32
862.30	3260.37
862.47	2918.36
862.63	2648.02
862.80	2850.77
862.97	3198.93
863.14	2985.94
863.30	2709.46
863.47	2713.56
863.64	3221.45
863.81	2940.88
863.97	2635.74
864.14	2834.39
864.31	2916.31
864.48	3028.95
864.65	2744.28
864.81	2879.44
864.98	3094.48
865.15	3119.06
865.32	2836.44
865.48	2879.44
865.65	3217.36
865.82	2828.24
865.98	2846.68
866.15	2820.05
866.32	2922.45
866.49	2912.21
866.65	2899.92
866.82	2723.80
866.99	2969.55
867.16	2883.54
867.32	2715.61
867.49	2723.80
867.66	2924.50
867.83	2867.16
867.99	2629.59
868.16	2830.29
868.33	2820.05
868.49	2942.93
868.66	2721.75
868.83	2938.84
868.99	2928.60
869.16	3045.33
869.33	2840.53
869.50	2807.77
869.66	2963.41
869.83	2930.64
870.00	2609.11
870.16	2756.57
870.33	2961.36
870.50	3151.82
870.66	2775.00
870.83	2736.09
871.00	2975.70
871.17	3053.52
871.33	2721.75
871.50	2748.37
871.67	2975.70
871.83	2856.92
872.00	2848.72
872.17	2756.57
872.33	3260.37
872.50	3172.30
872.67	2719.70
872.83	2709.46
873.00	3045.33
873.17	2912.21
873.33	2772.95
873.50	2824.15
873.67	2815.96
873.83	2951.12
874.00	2734.04
874.16	2805.72
874.33	3018.71
874.50	2697.17
874.66	2699.22
874.83	2830.29
875.00	3157.97
875.16	3129.30
875.33	2881.49
875.50	2562.01
875.66	2834.39
875.83	3006.42
875.99	2818.00
876.16	2813.91
876.33	2748.37
876.49	2996.18
876.66	2793.43
876.83	2785.24
876.99	2703.32
877.16	2979.79
877.32	2686.94
877.49	2772.95
877.66	2981.84
877.82	3143.63
877.99	2852.82
878.15	2977.75
878.32	3030.99
878.49	3063.76
878.65	2805.72
878.82	3024.85
878.98	2791.38
879.15	3104.72
879.32	2881.49
879.48	2842.58
879.65	2897.88
879.81	2811.86
879.98	2756.57
880.15	2775.00
880.31	3069.91
880.48	2779.09
880.64	2807.77
880.81	2920.40
880.97	3309.52
881.14	3114.96
881.31	2731.99
881.47	2914.26
881.64	2850.77
881.80	2684.89
881.97	2934.74
882.13	2785.24
882.30	2734.04
882.47	2889.68
882.63	2734.04
882.80	2709.46
882.96	2914.26
883.13	3162.06
883.29	2766.81
883.46	2772.95
883.62	3397.58
883.79	2938.84
883.95	2875.35
884.12	2674.65
884.29	3043.28
884.45	2926.55
884.62	2805.72
884.78	2645.98
884.95	3231.69
885.11	2793.43
885.28	2844.63
885.44	2746.33
885.61	3004.37
885.77	3270.61
885.94	2908.12
886.10	2811.86
886.27	2981.84
886.43	3311.57
886.60	2994.13
886.76	2740.18
886.93	2838.48
887.09	2983.89
887.26	2674.65
887.42	2840.53
887.59	3129.30
887.75	3268.56
887.92	2949.08
888.08	2811.86
888.25	3241.93
888.41	3151.82
888.58	2873.30
888.74	2764.76
888.91	2836.44
>>>>>End Processed Spectral Data<<<<<
