SpectraSuite Data File
++++++++++++++++++++++++++++++++++++
Date: Thu May 05 21:11:18 CEST 2016
User: root
Dark Spectrum Present: No
Reference Spectrum Present: No
Number of Sampled Component Spectra: 1
Spectrometers: USB4C02835
Integration Time (usec): 100000 (USB4C02835)
Spectra Averaged: 1 (USB4C02835)
Boxcar Smoothing: 0 (USB4C02835)
Correct for Electrical Dark: No (USB4C02835)
Strobe/Lamp Enabled: No (USB4C02835)
Correct for Detector Non-linearity: No (USB4C02835)
Correct for Stray Light: No (USB4C02835)
Number of Pixels in Processed Spectrum: 3648
>>>>>Begin Processed Spectral Data<<<<<
177.47	2097.12
177.69	2097.12
177.91	2097.12
178.13	2129.89
178.36	2215.90
178.58	2760.66
178.80	2928.60
179.02	2740.18
179.24	2789.33
179.46	2570.20
179.68	2721.75
179.90	2910.16
180.13	2944.98
180.35	2545.63
180.57	2688.98
180.79	3028.95
181.01	2965.46
181.23	2725.85
181.45	2844.63
181.67	3110.86
181.90	3186.64
182.12	2779.09
182.34	2506.71
182.56	3090.38
182.78	3090.38
183.00	2672.60
183.22	2703.32
183.44	2791.38
183.66	3465.16
183.89	2828.24
184.11	2754.52
184.33	3119.06
184.55	3229.65
184.77	2650.07
184.99	2688.98
185.21	2977.75
185.43	3450.83
185.65	2641.88
185.87	2670.55
186.10	3438.54
186.32	3370.96
186.54	2805.72
186.76	2793.43
186.98	3078.10
187.20	2983.89
187.42	2684.89
187.64	2701.27
187.86	3014.61
188.08	3149.78
188.30	2555.86
188.52	2799.57
188.75	3149.78
188.97	3162.06
189.19	2643.93
189.41	2652.12
189.63	3133.39
189.85	2822.10
190.07	2543.58
190.29	2580.44
190.51	3020.75
190.73	2803.67
190.95	2856.92
191.17	2729.94
191.39	2719.70
191.61	2963.41
191.84	2668.50
192.06	2832.34
192.28	2725.85
192.50	3583.95
192.72	2820.05
192.94	2809.81
193.16	3237.84
193.38	2987.99
193.60	2617.30
193.82	2795.48
194.04	3143.63
194.26	3028.95
194.48	2699.22
194.70	2658.26
194.92	2934.74
195.14	3094.48
195.36	2627.54
195.58	2832.34
195.80	2947.03
196.02	2795.48
196.24	2570.20
196.46	2754.52
196.69	2920.40
196.91	3354.57
197.13	2758.61
197.35	2738.13
197.57	3250.13
197.79	3074.00
198.01	2742.23
198.23	2736.09
198.45	3041.23
198.67	2734.04
198.89	2635.74
199.11	2746.33
199.33	2879.44
199.55	2580.44
199.77	2611.16
199.99	2830.29
200.21	2953.17
200.43	3024.85
200.65	2580.44
200.87	2553.82
201.09	2983.89
201.31	2895.83
201.53	2697.17
201.75	2746.33
201.97	3049.43
202.19	2983.89
202.41	2781.14
202.63	2824.15
202.85	3090.38
203.07	3035.09
203.29	2760.66
203.51	2617.30
203.73	2770.90
203.95	3399.63
204.17	2678.74
204.39	2842.58
204.61	2906.07
204.83	2891.73
205.05	2822.10
205.27	2746.33
205.49	3366.86
205.71	2885.59
205.93	2625.50
206.15	2625.50
206.37	2987.99
206.59	2891.73
206.81	2555.86
207.03	2519.00
207.25	2811.86
207.47	3076.05
207.69	2748.37
207.91	2904.02
208.13	3194.83
208.34	2883.54
208.56	2660.31
208.78	2682.84
209.00	2901.97
209.22	2895.83
209.44	2699.22
209.66	2695.13
209.88	2959.31
210.10	2871.25
210.32	2691.03
210.54	2883.54
210.76	2928.60
210.98	3217.36
211.20	2586.58
211.42	2818.00
211.64	3264.46
211.86	3047.38
212.08	2754.52
212.30	2697.17
212.52	2955.22
212.74	3053.52
212.96	2691.03
213.17	2801.62
213.39	3112.91
213.61	3239.89
213.83	2676.70
214.05	2605.02
214.27	3174.35
214.49	2848.72
214.71	2648.02
214.93	2797.53
215.15	2975.70
215.37	3125.20
215.59	2506.71
215.81	2734.04
216.03	3223.50
216.24	2979.79
216.46	2725.85
216.68	2768.85
216.90	3119.06
217.12	3241.93
217.34	2623.45
217.56	2815.96
217.78	3172.30
218.00	3153.87
218.22	2738.13
218.44	2754.52
218.66	3078.10
218.87	3346.38
219.09	2680.79
219.31	2736.09
219.53	3069.91
219.75	2912.21
219.97	2772.95
220.19	2686.94
220.41	2951.12
220.63	3295.18
220.85	2740.18
221.06	2662.36
221.28	3262.41
221.50	3162.06
221.72	2678.74
221.94	2562.01
222.16	3055.57
222.38	3125.20
222.60	2719.70
222.82	2793.43
223.03	3125.20
223.25	2770.90
223.47	2684.89
223.69	2854.87
223.91	3131.34
224.13	3010.51
224.35	2639.83
224.57	2848.72
224.78	3117.01
225.00	2871.25
225.22	2764.76
225.44	2656.22
225.66	3063.76
225.88	2904.02
226.10	2779.09
226.32	2672.60
226.53	3297.23
226.75	2918.36
226.97	2693.08
227.19	2668.50
227.41	2858.96
227.63	2951.12
227.85	2514.91
228.06	2731.99
228.28	3035.09
228.50	3139.54
228.72	2521.05
228.94	2672.60
229.16	2684.89
229.37	2762.71
229.59	2643.93
229.81	2871.25
230.03	2848.72
230.25	2781.14
230.47	2559.96
230.69	2598.87
230.90	3071.95
231.12	2850.77
231.34	2729.94
231.56	2793.43
231.78	2803.67
232.00	3016.66
232.21	2691.03
232.43	2697.17
232.65	2594.78
232.87	3076.05
233.09	2533.34
233.30	2623.45
233.52	3246.03
233.74	2951.12
233.96	2607.06
234.18	2881.49
234.40	3026.90
234.61	3391.44
234.83	2568.15
235.05	2639.83
235.27	3506.12
235.49	3293.13
235.70	2533.34
235.92	2715.61
236.14	3004.37
236.36	3403.72
236.58	2543.58
236.79	2717.65
237.01	3033.04
237.23	2957.27
237.45	2930.64
237.67	2641.88
237.88	3063.76
238.10	3278.80
238.32	2672.60
238.54	2750.42
238.76	2973.65
238.97	2811.86
239.19	2613.21
239.41	2803.67
239.63	3205.07
239.85	2889.68
240.06	2699.22
240.28	2684.89
240.50	3203.02
240.72	3059.67
240.93	2549.72
241.15	2795.48
241.37	2840.53
241.59	3315.66
241.81	2691.03
242.02	2721.75
242.24	3098.58
242.46	3143.63
242.68	2566.10
242.89	2617.30
243.11	3121.10
243.33	2971.60
243.55	2658.26
243.76	2768.85
243.98	2908.12
244.20	2881.49
244.42	2656.22
244.64	2680.79
244.85	2707.41
245.07	2840.53
245.29	2684.89
245.51	2682.84
245.72	3041.23
245.94	3131.34
246.16	2666.46
246.38	2738.13
246.59	2895.83
246.81	2822.10
247.03	2600.92
247.24	2576.34
247.46	2879.44
247.68	3008.47
247.90	2643.93
248.11	2729.94
248.33	3131.34
248.55	2910.16
248.77	2731.99
248.98	2856.92
249.20	3237.84
249.42	3053.52
249.64	2637.78
249.85	2588.63
250.07	2910.16
250.29	3084.24
250.50	2783.19
250.72	2602.97
250.94	3065.81
251.16	3377.10
251.37	2723.80
251.59	2779.09
251.81	3090.38
252.02	3319.76
252.24	2627.54
252.46	2846.68
252.68	2869.20
252.89	2912.21
253.11	2523.10
253.33	2891.73
253.54	3211.22
253.76	2729.94
253.98	2668.50
254.20	2674.65
254.41	2770.90
254.63	3008.47
254.85	2572.25
255.06	2705.37
255.28	3100.62
255.50	2881.49
255.71	2637.78
255.93	2541.53
256.15	2951.12
256.36	3074.00
256.58	2594.78
256.80	2654.17
257.02	2936.79
257.23	2938.84
257.45	2734.04
257.67	2760.66
257.88	2893.78
258.10	3057.62
258.32	2615.26
258.53	2734.04
258.75	3239.89
258.97	2844.63
259.18	2639.83
259.40	2660.31
259.62	3276.75
259.83	3205.07
260.05	2672.60
260.27	3389.39
260.48	3157.97
260.70	2799.57
260.92	2611.16
261.13	2719.70
261.35	3000.27
261.57	2983.89
261.78	2611.16
262.00	2602.97
262.22	3090.38
262.43	2873.30
262.65	2760.66
262.86	2584.54
263.08	3456.97
263.30	3071.95
263.51	2498.52
263.73	2654.17
263.95	3243.98
264.16	2805.72
264.38	2545.63
264.60	2637.78
264.81	2969.55
265.03	3131.34
265.25	3082.19
265.46	2578.39
265.68	3162.06
265.89	3217.36
266.11	2473.95
266.33	2666.46
266.54	3272.65
266.76	3117.01
266.98	2764.76
267.19	2807.77
267.41	3153.87
267.62	3000.27
267.84	2545.63
268.06	2754.52
268.27	2971.60
268.49	3098.58
268.70	2719.70
268.92	2680.79
269.14	2809.81
269.35	2818.00
269.57	2893.78
269.79	2740.18
270.00	2887.64
270.22	3297.23
270.43	2555.86
270.65	2611.16
270.87	3078.10
271.08	3080.14
271.30	2856.92
271.51	2680.79
271.73	3082.19
271.95	3192.78
272.16	2623.45
272.38	2805.72
272.59	2942.93
272.81	3182.54
273.02	2641.88
273.24	2719.70
273.46	3112.91
273.67	2713.56
273.89	2566.10
274.10	2666.46
274.32	3057.62
274.54	3002.32
274.75	2879.44
274.97	2723.80
275.18	3110.86
275.40	3104.72
275.61	2701.27
275.83	2809.81
276.05	2838.48
276.26	2983.89
276.48	2756.57
276.69	2762.71
276.91	2918.36
277.12	3200.98
277.34	2863.06
277.55	3024.85
277.77	2973.65
277.99	2936.79
278.20	2693.08
278.42	2637.78
278.63	2822.10
278.85	2803.67
279.06	2662.36
279.28	2901.97
279.49	3065.81
279.71	3151.82
279.93	2836.44
280.14	2811.86
280.36	2944.98
280.57	3200.98
280.79	2826.20
281.00	2770.90
281.22	2953.17
281.43	3127.25
281.65	2539.48
281.86	2688.98
282.08	3045.33
282.29	3332.05
282.51	2578.39
282.73	2650.07
282.94	2775.00
283.16	3139.54
283.37	2922.45
283.59	2799.57
283.80	3084.24
284.02	2994.13
284.23	2850.77
284.45	2871.25
284.66	2844.63
284.88	2838.48
285.09	2740.18
285.31	2844.63
285.52	3104.72
285.74	2770.90
285.95	3002.32
286.17	2897.88
286.38	3168.21
286.60	2846.68
286.81	2789.33
287.03	2729.94
287.24	3000.27
287.46	3117.01
287.67	2957.27
287.89	3121.10
288.10	2959.31
288.32	3045.33
288.53	2944.98
288.75	2828.24
288.96	3080.14
289.18	2906.07
289.39	2670.55
289.61	2908.12
289.82	3323.85
290.04	3379.15
290.25	2660.31
290.47	2858.96
290.68	2955.22
290.90	3094.48
291.11	2609.11
291.33	2873.30
291.54	2826.20
291.76	2791.38
291.97	2899.92
292.18	2912.21
292.40	2893.78
292.61	2848.72
292.83	3069.91
293.04	2826.20
293.26	3045.33
293.47	2969.55
293.69	2719.70
293.90	2750.42
294.12	3248.08
294.33	3045.33
294.55	2844.63
294.76	2910.16
294.97	3139.54
295.19	3370.96
295.40	2807.77
295.62	2895.83
295.83	3117.01
296.05	2922.45
296.26	2926.55
296.48	2791.38
296.69	2961.36
296.90	2985.94
297.12	2944.98
297.33	2942.93
297.55	2963.41
297.76	3063.76
297.98	2934.74
298.19	2893.78
298.41	2916.31
298.62	2887.64
298.83	3012.56
299.05	2840.53
299.26	2985.94
299.48	2951.12
299.69	2930.64
299.90	2762.71
300.12	2826.20
300.33	3096.53
300.55	2793.43
300.76	2940.88
300.98	2836.44
301.19	3117.01
301.40	2828.24
301.62	2762.71
301.83	3117.01
302.05	3016.66
302.26	2740.18
302.47	2838.48
302.69	2791.38
302.90	3022.80
303.12	2699.22
303.33	2955.22
303.54	3346.38
303.76	2914.26
303.97	2791.38
304.19	2908.12
304.40	2840.53
304.61	3082.19
304.83	2928.60
305.04	2850.77
305.26	3143.63
305.47	2846.68
305.68	2844.63
305.90	2701.27
306.11	3248.08
306.33	3045.33
306.54	2656.22
306.75	2760.66
306.97	2809.81
307.18	2875.35
307.39	2820.05
307.61	2949.08
307.82	2955.22
308.04	3069.91
308.25	2660.31
308.46	2799.57
308.68	3026.90
308.89	3004.37
309.10	2942.93
309.32	2899.92
309.53	2979.79
309.74	3069.91
309.96	2670.55
310.17	2908.12
310.39	2932.69
310.60	3102.67
310.81	2740.18
311.03	2750.42
311.24	3047.38
311.45	2959.31
311.67	2971.60
311.88	2934.74
312.09	2961.36
312.31	2889.68
312.52	2797.53
312.73	2803.67
312.95	2736.09
313.16	2768.85
313.37	2897.88
313.59	2889.68
313.80	3149.78
314.01	3309.52
314.23	2805.72
314.44	2654.17
314.65	2781.14
314.87	2815.96
315.08	2838.48
315.29	2772.95
315.51	2803.67
315.72	2746.33
315.93	2885.59
316.15	2850.77
316.36	2928.60
316.57	3000.27
316.79	2820.05
317.00	2736.09
317.21	3063.76
317.43	2912.21
317.64	2840.53
317.85	2734.04
318.07	2828.24
318.28	2910.16
318.49	2959.31
318.70	2998.23
318.92	2932.69
319.13	2934.74
319.34	2955.22
319.56	2856.92
319.77	3100.62
319.98	3160.02
320.20	3035.09
320.41	2963.41
320.62	3082.19
320.83	2856.92
321.05	3061.71
321.26	2910.16
321.47	2930.64
321.69	3272.65
321.90	2738.13
322.11	2678.74
322.32	3016.66
322.54	3174.35
322.75	2760.66
322.96	3575.75
323.18	2697.17
323.39	2680.79
323.60	2752.47
323.81	2877.40
324.03	2852.82
324.24	2947.03
324.45	2955.22
324.66	2742.23
324.88	3235.79
325.09	3260.37
325.30	2770.90
325.52	2775.00
325.73	2977.75
325.94	2795.48
326.15	2699.22
326.37	2760.66
326.58	3188.69
326.79	3284.94
327.00	2746.33
327.22	2777.05
327.43	2897.88
327.64	2736.09
327.85	2904.02
328.07	2805.72
328.28	3323.85
328.49	2844.63
328.70	2861.01
328.92	2785.24
329.13	2977.75
329.34	3059.67
329.55	2949.08
329.76	2899.92
329.98	2920.40
330.19	3172.30
330.40	2918.36
330.61	2955.22
330.83	3194.83
331.04	2861.01
331.25	2883.54
331.46	2861.01
331.68	2832.34
331.89	3164.11
332.10	2850.77
332.31	2711.51
332.52	2926.55
332.74	3219.41
332.95	2621.40
333.16	2781.14
333.37	3121.10
333.58	2975.70
333.80	2836.44
334.01	2648.02
334.22	2953.17
334.43	2873.30
334.64	2758.61
334.86	2701.27
335.07	2881.49
335.28	3205.07
335.49	2658.26
335.70	2942.93
335.92	3194.83
336.13	3407.82
336.34	2869.20
336.55	2828.24
336.76	3069.91
336.98	2627.54
337.19	2834.39
337.40	2924.50
337.61	3467.21
337.82	2987.99
338.04	2899.92
338.25	2674.65
338.46	2918.36
338.67	2953.17
338.88	2695.13
339.09	2674.65
339.31	2934.74
339.52	2746.33
339.73	2779.09
339.94	2766.81
340.15	3153.87
340.36	2863.06
340.58	2885.59
340.79	2752.47
341.00	3119.06
341.21	2811.86
341.42	2951.12
341.63	2836.44
341.85	3188.69
342.06	3035.09
342.27	2678.74
342.48	2918.36
342.69	2764.76
342.90	3039.19
343.12	3108.82
343.33	2740.18
343.54	3188.69
343.75	3227.60
343.96	2881.49
344.17	2717.65
344.38	3014.61
344.60	2930.64
344.81	2775.00
345.02	2777.05
345.23	3198.93
345.44	3368.91
345.65	2854.87
345.86	2858.96
346.07	2942.93
346.29	2899.92
346.50	2924.50
346.71	2930.64
346.92	3270.61
347.13	3377.10
347.34	2959.31
347.55	2818.00
347.76	3033.04
347.98	2795.48
348.19	2832.34
348.40	2967.51
348.61	2908.12
348.82	3196.88
349.03	2838.48
349.24	2779.09
349.45	3266.51
349.66	2701.27
349.88	2775.00
350.09	2682.84
350.30	3223.50
350.51	3143.63
350.72	3035.09
350.93	2781.14
351.14	2906.07
351.35	3071.95
351.56	2834.39
351.77	2772.95
351.99	3125.20
352.20	3260.37
352.41	2938.84
352.62	2582.49
352.83	2987.99
353.04	2938.84
353.25	2844.63
353.46	2801.62
353.67	3164.11
353.88	2613.21
354.09	2813.91
354.30	2801.62
354.52	3131.34
354.73	2928.60
354.94	2811.86
355.15	2824.15
355.36	3348.43
355.57	2815.96
355.78	2838.48
355.99	2777.05
356.20	2869.20
356.41	3117.01
356.62	2844.63
356.83	2838.48
357.04	3170.26
357.25	2731.99
357.46	2801.62
357.68	2635.74
357.89	2824.15
358.10	2979.79
358.31	2772.95
358.52	2852.82
358.73	2746.33
358.94	2838.48
359.15	2785.24
359.36	2873.30
359.57	2977.75
359.78	2979.79
359.99	2957.27
360.20	2703.32
360.41	2856.92
360.62	3006.42
360.83	2838.48
361.04	2904.02
361.25	3049.43
361.46	3276.75
361.67	2990.03
361.88	2781.14
362.09	3233.74
362.30	3028.95
362.51	2711.51
362.72	2873.30
362.93	3074.00
363.14	3084.24
363.35	2916.31
363.56	2686.94
363.78	3272.65
363.99	3188.69
364.20	2775.00
364.41	2858.96
364.62	3311.57
364.83	3047.38
365.04	2795.48
365.25	2805.72
365.46	3268.56
365.67	2844.63
365.88	2904.02
366.09	2865.11
366.30	2924.50
366.51	3061.71
366.72	2709.46
366.93	2781.14
367.14	2928.60
367.35	3289.04
367.56	2834.39
367.77	2883.54
367.98	3028.95
368.18	3104.72
368.39	2891.73
368.60	2736.09
368.81	3141.58
369.02	3026.90
369.23	2858.96
369.44	2725.85
369.65	2861.01
369.86	3123.15
370.07	2895.83
370.28	2703.32
370.49	2979.79
370.70	3018.71
370.91	2676.70
371.12	2670.55
371.33	3143.63
371.54	2873.30
371.75	2934.74
371.96	2484.19
372.17	2971.60
372.38	2965.46
372.59	2863.06
372.80	2760.66
373.01	2940.88
373.22	3002.32
373.43	2861.01
373.64	2658.26
373.85	3235.79
374.06	3282.89
374.26	2901.97
374.47	2975.70
374.68	3289.04
374.89	3037.14
375.10	2707.41
375.31	2955.22
375.52	2967.51
375.73	3037.14
375.94	2680.79
376.15	2926.55
376.36	2844.63
376.57	2918.36
376.78	2834.39
376.99	2830.29
377.20	3149.78
377.40	2957.27
377.61	3065.81
377.82	2756.57
378.03	3215.31
378.24	3092.43
378.45	2901.97
378.66	2916.31
378.87	2797.53
379.08	2684.89
379.29	2742.23
379.50	2967.51
379.71	2906.07
379.91	3155.92
380.12	2723.80
380.33	2834.39
380.54	3002.32
380.75	2969.55
380.96	2772.95
381.17	2910.16
381.38	3039.19
381.59	2936.79
381.80	2850.77
382.00	2985.94
382.21	3020.75
382.42	3219.41
382.63	3176.40
382.84	2920.40
383.05	3086.29
383.26	3231.69
383.47	2967.51
383.68	2713.56
383.88	3078.10
384.09	3065.81
384.30	3096.53
384.51	2938.84
384.72	2891.73
384.93	2717.65
385.14	2865.11
385.35	3055.57
385.55	2777.05
385.76	3168.21
385.97	2895.83
386.18	2705.37
386.39	2938.84
386.60	2930.64
386.81	2770.90
387.02	2748.37
387.22	2830.29
387.43	3123.15
387.64	2951.12
387.85	3024.85
388.06	3045.33
388.27	3973.06
388.48	7329.68
388.68	10809.18
388.89	13293.37
389.10	14442.28
389.31	14133.03
389.52	11194.20
389.73	9748.33
389.93	8957.82
390.14	8019.85
390.35	7366.54
390.56	6672.28
390.77	5529.52
390.98	4224.96
391.18	3647.43
391.39	3416.01
391.60	3008.47
391.81	3012.56
392.02	2852.82
392.23	3428.30
392.43	3033.04
392.64	2969.55
392.85	2930.64
393.06	3227.60
393.27	3002.32
393.47	2707.41
393.68	2901.97
393.89	2979.79
394.10	3145.68
394.31	2801.62
394.52	2793.43
394.72	2863.06
394.93	3166.16
395.14	2756.57
395.35	2949.08
395.56	2944.98
395.76	2951.12
395.97	2856.92
396.18	3016.66
396.39	3010.51
396.60	3606.47
396.80	3139.54
397.01	2985.94
397.22	3088.34
397.43	3135.44
397.64	2772.95
397.84	2963.41
398.05	3366.86
398.26	2973.65
398.47	2930.64
398.67	3094.48
398.88	3022.80
399.09	3162.06
399.30	2772.95
399.51	2893.78
399.71	2797.53
399.92	2983.89
400.13	2918.36
400.34	2824.15
400.54	3098.58
400.75	3280.85
400.96	2973.65
401.17	3176.40
401.37	3041.23
401.58	2944.98
401.79	2785.24
402.00	2955.22
402.21	3424.20
402.41	3168.21
402.62	3106.77
402.83	3305.42
403.04	3264.46
403.24	3692.49
403.45	2971.60
403.66	3246.03
403.87	3164.11
404.07	3246.03
404.28	3049.43
404.49	3117.01
404.70	3129.30
404.90	3129.30
405.11	2830.29
405.32	3024.85
405.52	2908.12
405.73	2899.92
405.94	2799.57
406.15	2924.50
406.35	3110.86
406.56	3141.58
406.77	2924.50
406.98	2887.64
407.18	2797.53
407.39	3176.40
407.60	2828.24
407.80	2942.93
408.01	2942.93
408.22	3106.77
408.43	2783.19
408.63	2883.54
408.84	3143.63
409.05	3143.63
409.25	2779.09
409.46	2811.86
409.67	2805.72
409.88	2869.20
410.08	2875.35
410.29	2783.19
410.50	3145.68
410.70	3049.43
410.91	2715.61
411.12	2881.49
411.32	2938.84
411.53	2797.53
411.74	2867.16
411.95	2861.01
412.15	3043.28
412.36	3033.04
412.57	2953.17
412.77	2977.75
412.98	2854.87
413.19	2875.35
413.39	2871.25
413.60	2844.63
413.81	3219.41
414.01	2777.05
414.22	2901.97
414.43	3008.47
414.63	2887.64
414.84	3205.07
415.05	2848.72
415.25	2670.55
415.46	3174.35
415.67	2848.72
415.87	2920.40
416.08	2854.87
416.29	2936.79
416.49	3129.30
416.70	2922.45
416.91	2865.11
417.11	2957.27
417.32	3149.78
417.53	2955.22
417.73	2889.68
417.94	2994.13
418.15	3043.28
418.35	2879.44
418.56	2879.44
418.77	3487.69
418.97	3018.71
419.18	2926.55
419.38	2547.67
419.59	3012.56
419.80	3237.84
420.00	2846.68
420.21	2871.25
420.42	3166.16
420.62	3082.19
420.83	2863.06
421.04	2813.91
421.24	2906.07
421.45	3166.16
421.65	2922.45
421.86	2854.87
422.07	3141.58
422.27	3049.43
422.48	2850.77
422.69	2742.23
422.89	2944.98
423.10	2918.36
423.30	2791.38
423.51	2805.72
423.72	3139.54
423.92	3133.39
424.13	2693.08
424.33	2912.21
424.54	3123.15
424.75	3008.47
424.95	3041.23
425.16	2842.58
425.36	2981.84
425.57	3143.63
425.78	3012.56
425.98	2947.03
426.19	2912.21
426.39	2891.73
426.60	3018.71
426.81	3024.85
427.01	3151.82
427.22	2811.86
427.42	2662.36
427.63	2701.27
427.83	3121.10
428.04	3246.03
428.25	2869.20
428.45	3012.56
428.66	3223.50
428.86	2940.88
429.07	2912.21
429.28	2916.31
429.48	2934.74
429.69	2813.91
429.89	2852.82
430.10	2844.63
430.30	3184.59
430.51	3172.30
430.71	2703.32
430.92	2793.43
431.13	2836.44
431.33	3074.00
431.54	2904.02
431.74	3047.38
431.95	3389.39
432.15	2830.29
432.36	2850.77
432.56	2918.36
432.77	3381.20
432.98	3323.85
433.18	2953.17
433.39	2742.23
433.59	2990.03
433.80	3413.96
434.00	3065.81
434.21	2815.96
434.41	2887.64
434.62	3393.48
434.82	2768.85
435.03	2731.99
435.23	3016.66
435.44	2674.65
435.64	2785.24
435.85	2908.12
436.06	3133.39
436.26	3219.41
436.47	2877.40
436.67	2779.09
436.88	2949.08
437.08	3227.60
437.29	2992.08
437.49	3000.27
437.70	3166.16
437.90	2922.45
438.11	3020.75
438.31	2942.93
438.52	3178.45
438.72	3151.82
438.93	3121.10
439.13	2938.84
439.34	3196.88
439.54	2930.64
439.75	2971.60
439.95	2955.22
440.16	2912.21
440.36	2944.98
440.57	2879.44
440.77	2830.29
440.98	2949.08
441.18	3043.28
441.39	2762.71
441.59	2666.46
441.80	3327.95
442.00	3022.80
442.21	2983.89
442.41	2641.88
442.62	3211.22
442.82	2951.12
443.02	2766.81
443.23	2842.58
443.43	2875.35
443.64	3221.45
443.84	2772.95
444.05	3022.80
444.25	2996.18
444.46	2885.59
444.66	2883.54
444.87	3018.71
445.07	2756.57
445.28	2951.12
445.48	3102.67
445.69	2914.26
445.89	3436.49
446.09	2951.12
446.30	3170.26
446.50	3280.85
446.71	4755.38
446.91	5873.57
447.12	6356.90
447.32	6942.61
447.53	6903.70
447.73	5779.37
447.93	4874.17
448.14	4714.42
448.34	4859.83
448.55	4044.74
448.75	3977.16
448.96	3866.56
449.16	3594.19
449.36	3516.36
449.57	3069.91
449.77	2809.81
449.98	2959.31
450.18	3069.91
450.39	2838.48
450.59	3108.82
450.79	2893.78
451.00	2779.09
451.20	3078.10
451.41	2729.94
451.61	3057.62
451.81	2938.84
452.02	2863.06
452.22	2844.63
452.43	2924.50
452.63	2815.96
452.84	2920.40
453.04	2820.05
453.24	3071.95
453.45	2740.18
453.65	2893.78
453.86	2867.16
454.06	3014.61
454.26	2944.98
454.47	2824.15
454.67	3047.38
454.87	3008.47
455.08	2920.40
455.28	3002.32
455.49	2936.79
455.69	2795.48
455.89	3346.38
456.10	2981.84
456.30	2863.06
456.51	3063.76
456.71	3000.27
456.91	2971.60
457.12	2799.57
457.32	3074.00
457.52	2815.96
457.73	3080.14
457.93	3014.61
458.14	2883.54
458.34	2813.91
458.54	2803.67
458.75	2865.11
458.95	3151.82
459.15	3067.86
459.36	2889.68
459.56	2871.25
459.76	3377.10
459.97	2975.70
460.17	2826.20
460.37	2973.65
460.58	2926.55
460.78	3094.48
460.99	2881.49
461.19	2867.16
461.39	2904.02
461.60	2942.93
461.80	2850.77
462.00	2750.42
462.21	2998.23
462.41	2820.05
462.61	2725.85
462.82	2660.31
463.02	3078.10
463.22	2975.70
463.43	2936.79
463.63	2799.57
463.83	3239.89
464.04	3047.38
464.24	2840.53
464.44	2783.19
464.64	3022.80
464.85	3071.95
465.05	2936.79
465.25	2805.72
465.46	2838.48
465.66	3067.86
465.86	2918.36
466.07	2785.24
466.27	2942.93
466.47	2731.99
466.68	2684.89
466.88	2957.27
467.08	3074.00
467.29	3176.40
467.49	2895.83
467.69	2963.41
467.89	3112.91
468.10	2904.02
468.30	2922.45
468.50	3022.80
468.71	3170.26
468.91	2770.90
469.11	2973.65
469.31	2924.50
469.52	2854.87
469.72	3330.00
469.92	3067.86
470.13	2899.92
470.33	2938.84
470.53	3061.71
470.73	3203.02
470.94	3483.59
471.14	3702.73
471.34	4069.31
471.54	3755.97
471.75	3540.94
471.95	3393.48
472.15	3330.00
472.36	3362.76
472.56	3192.78
472.76	3502.03
472.96	3360.72
473.17	3061.71
473.37	2992.08
473.57	2920.40
473.77	3041.23
473.98	2928.60
474.18	2775.00
474.38	3465.16
474.58	2897.88
474.79	2662.36
474.99	2944.98
475.19	3186.64
475.39	2834.39
475.60	2961.36
475.80	2873.30
476.00	3076.05
476.20	2957.27
476.41	2928.60
476.61	2887.64
476.81	3327.95
477.01	2791.38
477.21	3086.29
477.42	2938.84
477.62	2772.95
477.82	3117.01
478.02	2826.20
478.23	2922.45
478.43	2850.77
478.63	3037.14
478.83	2897.88
479.03	2838.48
479.24	3217.36
479.44	3377.10
479.64	2809.81
479.84	2641.88
480.04	2863.06
480.25	3074.00
480.45	2805.72
480.65	2801.62
480.85	3348.43
481.06	2973.65
481.26	2953.17
481.46	2926.55
481.66	3098.58
481.86	2803.67
482.06	3051.47
482.27	2951.12
482.47	2871.25
482.67	3127.25
482.87	2949.08
483.07	2912.21
483.28	2852.82
483.48	2807.77
483.68	2799.57
483.88	2717.65
484.08	2635.74
484.29	2832.34
484.49	2879.44
484.69	2764.76
484.89	3235.79
485.09	3162.06
485.29	2854.87
485.50	2992.08
485.70	2875.35
485.90	3198.93
486.10	2957.27
486.30	2793.43
486.50	3293.13
486.71	3006.42
486.91	3008.47
487.11	2940.88
487.31	2830.29
487.51	3104.72
487.71	2746.33
487.91	2738.13
488.12	2858.96
488.32	2531.29
488.52	2811.86
488.72	2478.04
488.92	3033.04
489.12	3194.83
489.32	3080.14
489.53	2916.31
489.73	2844.63
489.93	3342.28
490.13	2781.14
490.33	2766.81
490.53	3037.14
490.73	3186.64
490.94	2754.52
491.14	3018.71
491.34	3074.00
491.54	3121.10
491.74	3618.76
491.94	4175.81
492.14	4626.36
492.34	4595.64
492.54	4423.61
492.75	3768.26
492.95	3844.04
493.15	3626.95
493.35	3547.08
493.55	3461.07
493.75	3358.67
493.95	3477.45
494.15	3106.77
494.35	2879.44
494.56	2910.16
494.76	2918.36
494.96	2928.60
495.16	2824.15
495.36	2973.65
495.56	3055.57
495.76	2938.84
495.96	2877.40
496.16	2891.73
496.36	3299.28
496.56	2881.49
496.77	2854.87
496.97	2992.08
497.17	3155.92
497.37	2676.70
497.57	2953.17
497.77	3053.52
497.97	2777.05
498.17	2920.40
498.37	2885.59
498.57	3094.48
498.77	2906.07
498.97	3006.42
499.17	3194.83
499.38	2961.36
499.58	3022.80
499.78	2998.23
499.98	3010.51
500.18	2940.88
500.38	2824.15
500.58	3067.86
500.78	3282.89
500.98	5525.42
501.18	7366.54
501.38	8714.11
501.58	9684.84
501.78	9480.05
501.98	8007.56
502.18	6832.02
502.38	5832.62
502.58	5666.73
502.78	5019.57
502.98	4777.91
503.18	4638.65
503.38	4421.56
503.59	3762.12
503.79	3657.67
503.99	3416.01
504.19	3360.72
504.39	3352.52
504.59	3370.96
504.79	3184.59
504.99	3452.88
505.19	3297.23
505.39	3041.23
505.59	3237.84
505.79	3385.29
505.99	3168.21
506.19	2844.63
506.39	3053.52
506.59	2924.50
506.79	2881.49
506.99	2998.23
507.19	2869.20
507.39	3030.99
507.59	2772.95
507.79	2731.99
507.99	2764.76
508.19	3043.28
508.39	2973.65
508.59	2840.53
508.79	3008.47
508.99	3268.56
509.19	2932.69
509.39	3000.27
509.59	2740.18
509.79	2893.78
509.99	3018.71
510.19	2961.36
510.39	2920.40
510.59	3084.24
510.79	2942.93
510.99	2684.89
511.19	2895.83
511.39	3286.99
511.59	3231.69
511.79	2957.27
511.99	2742.23
512.19	3282.89
512.38	2977.75
512.58	2861.01
512.78	2785.24
512.98	3293.13
513.18	3180.50
513.38	2791.38
513.58	2932.69
513.78	2932.69
513.98	2932.69
514.18	2858.96
514.38	2830.29
514.58	3035.09
514.78	2932.69
514.98	2740.18
515.18	2867.16
515.38	2830.29
515.58	3303.37
515.78	2914.26
515.98	2885.59
516.18	3041.23
516.38	3026.90
516.57	2867.16
516.77	2813.91
516.97	3117.01
517.17	2856.92
517.37	2668.50
517.57	2940.88
517.77	3039.19
517.97	2777.05
518.17	2973.65
518.37	2772.95
518.57	2920.40
518.77	2863.06
518.97	2836.44
519.16	2944.98
519.36	3160.02
519.56	2869.20
519.76	2791.38
519.96	2824.15
520.16	3135.44
520.36	2858.96
520.56	3051.47
520.76	2775.00
520.96	2959.31
521.16	3278.80
521.35	3076.05
521.55	2977.75
521.75	2916.31
521.95	2922.45
522.15	2805.72
522.35	2674.65
522.55	2936.79
522.75	3147.73
522.95	2795.48
523.14	2766.81
523.34	3149.78
523.54	2926.55
523.74	2977.75
523.94	2885.59
524.14	2631.64
524.34	3037.14
524.54	3102.67
524.73	2832.34
524.93	2998.23
525.13	3076.05
525.33	2711.51
525.53	3106.77
525.73	3098.58
525.93	3002.32
526.13	2869.20
526.32	2828.24
526.52	3252.17
526.72	3160.02
526.92	2879.44
527.12	2809.81
527.32	2742.23
527.52	2957.27
527.71	2947.03
527.91	2906.07
528.11	2961.36
528.31	3016.66
528.51	2887.64
528.71	3010.51
528.90	3022.80
529.10	3166.16
529.30	2947.03
529.50	2535.39
529.70	3063.76
529.90	2983.89
530.09	2828.24
530.29	2723.80
530.49	2861.01
530.69	3391.44
530.89	2932.69
531.09	2953.17
531.28	2897.88
531.48	3176.40
531.68	2807.77
531.88	2850.77
532.08	3071.95
532.28	2940.88
532.47	2996.18
532.67	2932.69
532.87	3045.33
533.07	2846.68
533.27	2916.31
533.46	2877.40
533.66	3102.67
533.86	2895.83
534.06	2895.83
534.26	2865.11
534.45	2858.96
534.65	3094.48
534.85	3008.47
535.05	2791.38
535.25	3086.29
535.44	2744.28
535.64	2910.16
535.84	2942.93
536.04	2914.26
536.24	2893.78
536.43	2758.61
536.63	2901.97
536.83	2981.84
537.03	2914.26
537.22	2662.36
537.42	2721.75
537.62	3016.66
537.82	2897.88
538.02	3080.14
538.21	2944.98
538.41	3434.44
538.61	3069.91
538.81	2797.53
539.00	2904.02
539.20	2752.47
539.40	2901.97
539.60	2869.20
539.79	3002.32
539.99	2953.17
540.19	2768.85
540.39	2828.24
540.58	2916.31
540.78	3145.68
540.98	3022.80
541.18	3108.82
541.37	2953.17
541.57	2924.50
541.77	3026.90
541.97	2834.39
542.16	2672.60
542.36	2936.79
542.56	2883.54
542.76	3041.23
542.95	2947.03
543.15	3094.48
543.35	3151.82
543.54	2723.80
543.74	2762.71
543.94	3198.93
544.14	2885.59
544.33	2916.31
544.53	2852.82
544.73	2881.49
544.93	2979.79
545.12	2836.44
545.32	2820.05
545.52	2901.97
545.71	2777.05
545.91	2844.63
546.11	2852.82
546.30	2832.34
546.50	2969.55
546.70	2938.84
546.90	2883.54
547.09	2664.41
547.29	3053.52
547.49	3051.47
547.68	2858.96
547.88	2852.82
548.08	2996.18
548.27	3207.12
548.47	2865.11
548.67	2906.07
548.87	3129.30
549.06	2795.48
549.26	2772.95
549.46	3102.67
549.65	2826.20
549.85	2873.30
550.05	2936.79
550.24	2746.33
550.44	2979.79
550.64	2879.44
550.83	2922.45
551.03	3272.65
551.23	3035.09
551.42	2961.36
551.62	2813.91
551.82	2975.70
552.01	2981.84
552.21	3217.36
552.41	2944.98
552.60	3215.31
552.80	3002.32
553.00	2758.61
553.19	2914.26
553.39	3291.09
553.59	2801.62
553.78	2887.64
553.98	2877.40
554.17	2799.57
554.37	2955.22
554.57	2928.60
554.76	2736.09
554.96	2899.92
555.16	3037.14
555.35	2971.60
555.55	2973.65
555.75	2981.84
555.94	3090.38
556.14	2740.18
556.33	2883.54
556.53	2953.17
556.73	2973.65
556.92	3020.75
557.12	2826.20
557.32	3340.24
557.51	3256.27
557.71	2953.17
557.90	3074.00
558.10	3184.59
558.30	2922.45
558.49	2893.78
558.69	2897.88
558.88	3071.95
559.08	3026.90
559.28	2926.55
559.47	2914.26
559.67	3096.53
559.86	3309.52
560.06	2791.38
560.26	2836.44
560.45	3108.82
560.65	3061.71
560.84	3069.91
561.04	2744.28
561.24	3055.57
561.43	2748.37
561.63	3051.47
561.82	2963.41
562.02	3059.67
562.22	2871.25
562.41	2779.09
562.61	2762.71
562.80	2922.45
563.00	3332.05
563.19	2926.55
563.39	2924.50
563.59	3094.48
563.78	2820.05
563.98	2602.97
564.17	2801.62
564.37	2680.79
564.56	2914.26
564.76	2758.61
564.96	2969.55
565.15	3039.19
565.35	3370.96
565.54	2869.20
565.74	2936.79
565.93	3123.15
566.13	3057.62
566.32	2861.01
566.52	2987.99
566.71	3024.85
566.91	3155.92
567.11	2973.65
567.30	2832.34
567.50	3071.95
567.69	3024.85
567.89	2828.24
568.08	2744.28
568.28	3057.62
568.47	2838.48
568.67	2877.40
568.86	2822.10
569.06	3135.44
569.25	2922.45
569.45	2707.41
569.64	2828.24
569.84	2918.36
570.04	3069.91
570.23	2856.92
570.43	2910.16
570.62	3006.42
570.82	3313.61
571.01	2740.18
571.21	2828.24
571.40	2854.87
571.60	3106.77
571.79	2942.93
571.99	2873.30
572.18	2813.91
572.38	3018.71
572.57	2832.34
572.77	2951.12
572.96	3479.50
573.16	3033.04
573.35	2899.92
573.55	2957.27
573.74	3043.28
573.94	2924.50
574.13	2863.06
574.33	2977.75
574.52	3139.54
574.71	2983.89
574.91	2889.68
575.10	2736.09
575.30	2934.74
575.49	2740.18
575.69	2867.16
575.88	2861.01
576.08	2908.12
576.27	3084.24
576.47	2801.62
576.66	3006.42
576.86	3225.55
577.05	3057.62
577.25	2949.08
577.44	3090.38
577.64	2981.84
577.83	3108.82
578.02	2850.77
578.22	3022.80
578.41	3289.04
578.61	2953.17
578.80	2746.33
579.00	2926.55
579.19	3037.14
579.39	3051.47
579.58	2998.23
579.77	2850.77
579.97	3217.36
580.16	3200.98
580.36	3069.91
580.55	2959.31
580.75	3094.48
580.94	2932.69
581.13	3114.96
581.33	3057.62
581.52	2938.84
581.72	3297.23
581.91	3045.33
582.11	2873.30
582.30	3145.68
582.49	3006.42
582.69	3127.25
582.88	2879.44
583.08	3014.61
583.27	3164.11
583.47	2904.02
583.66	2813.91
583.85	2799.57
584.05	3043.28
584.24	2959.31
584.44	2965.46
584.63	3211.22
584.82	3221.45
585.02	3071.95
585.21	2983.89
585.41	3094.48
585.60	3057.62
585.79	3194.83
585.99	3145.68
586.18	3045.33
586.37	3833.80
586.57	5767.08
586.76	16672.51
586.96	35098.09
587.15	48434.46
587.34	56450.21
587.54	60335.21
587.73	54484.16
587.93	38862.26
588.12	29605.44
588.31	24002.19
588.51	21298.88
588.70	19341.02
588.89	17176.31
589.09	14507.81
589.28	12513.09
589.47	9850.73
589.67	7477.13
589.86	5916.58
590.06	4614.07
590.25	4061.12
590.44	3592.14
590.64	3239.89
590.83	3289.04
591.02	3297.23
591.22	2885.59
591.41	3000.27
591.60	2957.27
591.80	3450.83
591.99	2721.75
592.18	2824.15
592.38	3176.40
592.57	2932.69
592.76	2947.03
592.96	2904.02
593.15	2983.89
593.34	3272.65
593.54	2807.77
593.73	3024.85
593.92	3100.62
594.12	3100.62
594.31	2965.46
594.50	2934.74
594.70	3153.87
594.89	3489.74
595.08	2635.74
595.28	2994.13
595.47	3569.61
595.66	3190.74
595.86	2797.53
596.05	2828.24
596.24	2938.84
596.43	3389.39
596.63	2996.18
596.82	2963.41
597.01	3102.67
597.21	3293.13
597.40	2895.83
597.59	2889.68
597.79	2875.35
597.98	3209.17
598.17	2926.55
598.36	2848.72
598.56	3123.15
598.75	2912.21
598.94	2895.83
599.14	2918.36
599.33	2854.87
599.52	3164.11
599.71	2916.31
599.91	2940.88
600.10	3108.82
600.29	3028.95
600.48	2938.84
600.68	3014.61
600.87	3127.25
601.06	2772.95
601.26	2895.83
601.45	2981.84
601.64	2967.51
601.83	3293.13
602.03	2846.68
602.22	2688.98
602.41	3098.58
602.60	3444.68
602.80	2967.51
602.99	2957.27
603.18	2916.31
603.37	3016.66
603.57	2848.72
603.76	2920.40
603.95	3194.83
604.14	2854.87
604.34	2744.28
604.53	2826.20
604.72	3016.66
604.91	3041.23
605.10	2920.40
605.30	2744.28
605.49	3262.41
605.68	3139.54
605.87	2910.16
606.07	2832.34
606.26	3030.99
606.45	2992.08
606.64	2887.64
606.84	2787.29
607.03	2979.79
607.22	3094.48
607.41	2867.16
607.60	2820.05
607.80	3153.87
607.99	2979.79
608.18	2891.73
608.37	2934.74
608.56	2947.03
608.76	3141.58
608.95	3082.19
609.14	2811.86
609.33	3166.16
609.52	3262.41
609.72	2924.50
609.91	3057.62
610.10	3071.95
610.29	3286.99
610.48	2953.17
610.68	2959.31
610.87	2910.16
611.06	3172.30
611.25	2877.40
611.44	2969.55
611.63	2979.79
611.83	3221.45
612.02	2781.14
612.21	2987.99
612.40	2787.29
612.59	2740.18
612.79	2742.23
612.98	2928.60
613.17	3166.16
613.36	3006.42
613.55	2973.65
613.74	2877.40
613.93	2979.79
614.13	3071.95
614.32	2987.99
614.51	2936.79
614.70	3084.24
614.89	2942.93
615.08	2949.08
615.28	3321.81
615.47	2791.38
615.66	3035.09
615.85	2928.60
616.04	3094.48
616.23	2996.18
616.42	3006.42
616.62	2838.48
616.81	2885.59
617.00	3016.66
617.19	2983.89
617.38	2871.25
617.57	2973.65
617.76	3074.00
617.95	3141.58
618.15	2942.93
618.34	3049.43
618.53	2701.27
618.72	3223.50
618.91	3065.81
619.10	2930.64
619.29	2973.65
619.48	3045.33
619.68	2787.29
619.87	2828.24
620.06	2805.72
620.25	3143.63
620.44	2777.05
620.63	2813.91
620.82	3061.71
621.01	2994.13
621.20	2777.05
621.39	2957.27
621.59	3037.14
621.78	3045.33
621.97	2879.44
622.16	3008.47
622.35	3028.95
622.54	3151.82
622.73	3014.61
622.92	2731.99
623.11	3098.58
623.30	2975.70
623.49	3035.09
623.68	2754.52
623.88	3272.65
624.07	2873.30
624.26	2770.90
624.45	2844.63
624.64	2965.46
624.83	2957.27
625.02	2828.24
625.21	2822.10
625.40	3035.09
625.59	3176.40
625.78	2961.36
625.97	2955.22
626.16	3231.69
626.35	3143.63
626.54	2879.44
626.74	3078.10
626.93	2899.92
627.12	2889.68
627.31	2897.88
627.50	2897.88
627.69	3192.78
627.88	2832.34
628.07	2779.09
628.26	2617.30
628.45	2885.59
628.64	2863.06
628.83	2858.96
629.02	2711.51
629.21	3076.05
629.40	3106.77
629.59	2787.29
629.78	2787.29
629.97	2969.55
630.16	2955.22
630.35	2742.23
630.54	2965.46
630.73	2938.84
630.92	2901.97
631.11	2824.15
631.30	2910.16
631.49	3162.06
631.68	3016.66
631.87	2975.70
632.06	2820.05
632.25	3481.55
632.44	3022.80
632.63	2924.50
632.82	2875.35
633.01	2844.63
633.20	3026.90
633.39	2852.82
633.58	2729.94
633.77	3047.38
633.96	3127.25
634.15	2961.36
634.34	2893.78
634.53	3024.85
634.72	2856.92
634.91	2648.02
635.10	2856.92
635.29	3172.30
635.48	2987.99
635.67	2795.48
635.86	2699.22
636.05	3207.12
636.24	2975.70
636.43	2861.01
636.62	2889.68
636.81	2691.03
637.00	3004.37
637.19	2871.25
637.38	2828.24
637.57	2934.74
637.76	2961.36
637.95	3026.90
638.14	2856.92
638.33	2981.84
638.52	2996.18
638.71	2772.95
638.89	2764.76
639.08	3387.34
639.27	3160.02
639.46	3018.71
639.65	3352.52
639.84	3293.13
640.03	3510.22
640.22	3205.07
640.41	3250.13
640.60	3053.52
640.79	3170.26
640.98	2987.99
641.17	3008.47
641.36	3131.34
641.55	3166.16
641.74	2695.13
641.92	2748.37
642.11	2846.68
642.30	2926.55
642.49	2772.95
642.68	2815.96
642.87	2994.13
643.06	3033.04
643.25	2658.26
643.44	2754.52
643.63	2938.84
643.82	3192.78
644.00	2832.34
644.19	2906.07
644.38	2795.48
644.57	3086.29
644.76	2928.60
644.95	2897.88
645.14	3123.15
645.33	2977.75
645.52	2899.92
645.71	2648.02
645.89	2883.54
646.08	2877.40
646.27	2850.77
646.46	3104.72
646.65	2828.24
646.84	2975.70
647.03	2740.18
647.22	2953.17
647.40	3012.56
647.59	2936.79
647.78	2676.70
647.97	2867.16
648.16	2879.44
648.35	3166.16
648.54	3090.38
648.73	2885.59
648.91	3153.87
649.10	3002.32
649.29	2725.85
649.48	2871.25
649.67	3045.33
649.86	3112.91
650.05	2867.16
650.23	3037.14
650.42	2883.54
650.61	3186.64
650.80	2979.79
650.99	3211.22
651.18	3207.12
651.36	3135.44
651.55	2856.92
651.74	3026.90
651.93	2944.98
652.12	2914.26
652.31	2840.53
652.49	2850.77
652.68	2883.54
652.87	3166.16
653.06	2959.31
653.25	3166.16
653.44	3026.90
653.62	3274.70
653.81	2865.11
654.00	2840.53
654.19	3153.87
654.38	3461.07
654.56	2961.36
654.75	2826.20
654.94	3123.15
655.13	3016.66
655.32	2850.77
655.51	2983.89
655.69	2867.16
655.88	3080.14
656.07	2793.43
656.26	2924.50
656.45	2670.55
656.63	3082.19
656.82	2895.83
657.01	3127.25
657.20	2848.72
657.38	3198.93
657.57	2883.54
657.76	2639.83
657.95	3125.20
658.14	2838.48
658.32	2961.36
658.51	2711.51
658.70	3078.10
658.89	3033.04
659.08	2875.35
659.26	3114.96
659.45	2838.48
659.64	3098.58
659.83	2858.96
660.01	3254.22
660.20	2934.74
660.39	3225.55
660.58	2590.68
660.76	2967.51
660.95	2824.15
661.14	2887.64
661.33	2740.18
661.51	2824.15
661.70	2895.83
661.89	3053.52
662.08	2828.24
662.26	2740.18
662.45	2805.72
662.64	3264.46
662.83	2916.31
663.01	2674.65
663.20	2873.30
663.39	3209.17
663.58	2770.90
663.76	2822.10
663.95	3121.10
664.14	2820.05
664.32	2924.50
664.51	2709.46
664.70	2639.83
664.89	3002.32
665.07	2693.08
665.26	3010.51
665.45	2789.33
665.64	3078.10
665.82	2818.00
666.01	2918.36
666.20	2729.94
666.38	2996.18
666.57	3133.39
666.76	4771.77
666.95	10917.72
667.13	17598.20
667.32	21384.89
667.51	24237.71
667.69	24915.59
667.88	20938.43
668.07	15036.19
668.25	12830.52
668.44	11120.47
668.63	9635.69
668.81	8523.65
669.00	7458.70
669.19	6659.99
669.38	5990.31
669.56	5038.00
669.75	4337.60
669.94	3868.61
670.12	3370.96
670.31	3215.31
670.50	3166.16
670.68	3188.69
670.87	3067.86
671.06	2856.92
671.24	2920.40
671.43	3160.02
671.62	2936.79
671.80	2906.07
671.99	2955.22
672.18	2885.59
672.36	3174.35
672.55	2965.46
672.74	2885.59
672.92	2869.20
673.11	3125.20
673.29	2736.09
673.48	3002.32
673.67	2906.07
673.85	3188.69
674.04	2768.85
674.23	2975.70
674.41	3246.03
674.60	2805.72
674.79	2660.31
674.97	2785.24
675.16	3063.76
675.34	3145.68
675.53	2801.62
675.72	2959.31
675.90	3348.43
676.09	2934.74
676.28	3000.27
676.46	2727.89
676.65	3143.63
676.83	2832.34
677.02	2926.55
677.21	2977.75
677.39	3014.61
677.58	2818.00
677.77	2865.11
677.95	2789.33
678.14	2942.93
678.32	2918.36
678.51	2791.38
678.70	3190.74
678.88	2848.72
679.07	3000.27
679.25	2783.19
679.44	2912.21
679.63	2754.52
679.81	2951.12
680.00	3057.62
680.18	3033.04
680.37	3233.74
680.55	2977.75
680.74	2746.33
680.93	2641.88
681.11	3065.81
681.30	2961.36
681.48	2858.96
681.67	2846.68
681.85	3057.62
682.04	2830.29
682.23	2987.99
682.41	2934.74
682.60	2949.08
682.78	2996.18
682.97	2828.24
683.15	2893.78
683.34	2994.13
683.53	3243.98
683.71	2746.33
683.90	2967.51
684.08	3317.71
684.27	2942.93
684.45	2895.83
684.64	3000.27
684.82	2881.49
685.01	3131.34
685.19	2922.45
685.38	3110.86
685.57	2985.94
685.75	2901.97
685.94	2781.14
686.12	2811.86
686.31	2975.70
686.49	3203.02
686.68	2641.88
686.86	2891.73
687.05	2932.69
687.23	3215.31
687.42	2836.44
687.60	2701.27
687.79	3090.38
687.97	3338.19
688.16	3010.51
688.34	3045.33
688.53	2723.80
688.71	3049.43
688.90	3143.63
689.08	2803.67
689.27	2762.71
689.45	3102.67
689.64	2961.36
689.82	2961.36
690.01	3065.81
690.19	3055.57
690.38	2877.40
690.56	2959.31
690.75	2842.58
690.93	2897.88
691.12	2779.09
691.30	2844.63
691.49	2891.73
691.67	2963.41
691.86	3121.10
692.04	2838.48
692.23	2824.15
692.41	2920.40
692.60	3209.17
692.78	3065.81
692.97	2971.60
693.15	3059.67
693.34	3135.44
693.52	3133.39
693.71	2899.92
693.89	2828.24
694.08	2648.02
694.26	2955.22
694.44	3092.43
694.63	3086.29
694.81	2766.81
695.00	2805.72
695.18	3209.17
695.37	3344.33
695.55	2926.55
695.74	2914.26
695.92	2840.53
696.10	3248.08
696.29	2656.22
696.47	2834.39
696.66	2791.38
696.84	2879.44
697.03	2873.30
697.21	3203.02
697.40	4452.28
697.58	3164.11
697.76	2791.38
697.95	2852.82
698.13	2834.39
698.32	2850.77
698.50	2887.64
698.68	2906.07
698.87	3051.47
699.05	3323.85
699.24	2926.55
699.42	2744.28
699.61	3045.33
699.79	2951.12
699.97	2828.24
700.16	2779.09
700.34	2799.57
700.53	3016.66
700.71	3074.00
700.89	3065.81
701.08	2879.44
701.26	2924.50
701.45	3243.98
701.63	2815.96
701.81	2858.96
702.00	2854.87
702.18	2895.83
702.37	2893.78
702.55	3164.11
702.73	2963.41
702.92	2783.19
703.10	3047.38
703.28	3149.78
703.47	2795.48
703.65	3047.38
703.84	3024.85
704.02	2852.82
704.20	3176.40
704.39	2785.24
704.57	2914.26
704.75	3147.73
704.94	3078.10
705.12	3030.99
705.30	3356.62
705.49	6674.33
705.67	12941.11
705.86	17837.81
706.04	20219.60
706.22	22578.86
706.41	21954.22
706.59	16815.87
706.77	13070.14
706.96	11216.72
707.14	10280.80
707.32	8945.53
707.51	7911.30
707.69	6455.20
707.87	5433.26
708.06	4523.96
708.24	3981.25
708.42	3610.57
708.61	3680.20
708.79	2985.94
708.97	2934.74
709.16	3030.99
709.34	3028.95
709.52	2869.20
709.71	2854.87
709.89	3090.38
710.07	2811.86
710.26	2820.05
710.44	2822.10
710.62	3086.29
710.80	2959.31
710.99	2973.65
711.17	2955.22
711.35	2865.11
711.54	2920.40
711.72	3012.56
711.90	2924.50
712.09	2963.41
712.27	2877.40
712.45	2977.75
712.63	2791.38
712.82	2979.79
713.00	2934.74
713.18	2994.13
713.37	3063.76
713.55	3106.77
713.73	3041.23
713.91	3057.62
714.10	2873.30
714.28	2926.55
714.46	3071.95
714.65	2990.03
714.83	2863.06
715.01	2992.08
715.19	2947.03
715.38	2856.92
715.56	3039.19
715.74	2858.96
715.92	2785.24
716.11	3117.01
716.29	2725.85
716.47	2916.31
716.65	2879.44
716.84	2791.38
717.02	2934.74
717.20	2731.99
717.38	2822.10
717.57	2959.31
717.75	2914.26
717.93	2885.59
718.11	3039.19
718.30	2725.85
718.48	2942.93
718.66	3090.38
718.84	3172.30
719.03	2899.92
719.21	2781.14
719.39	3233.74
719.57	3102.67
719.75	2985.94
719.94	2721.75
720.12	2865.11
720.30	2975.70
720.48	2906.07
720.67	2879.44
720.85	2805.72
721.03	2906.07
721.21	2785.24
721.39	2873.30
721.58	3088.34
721.76	3039.19
721.94	2918.36
722.12	2985.94
722.30	3219.41
722.49	2850.77
722.67	2838.48
722.85	2879.44
723.03	2760.66
723.21	2818.00
723.40	2955.22
723.58	3043.28
723.76	3061.71
723.94	3131.34
724.12	2906.07
724.30	3067.86
724.49	3188.69
724.67	2838.48
724.85	3004.37
725.03	2740.18
725.21	3069.91
725.40	3182.54
725.58	2766.81
725.76	3104.72
725.94	3016.66
726.12	2842.58
726.30	2932.69
726.49	2785.24
726.67	2930.64
726.85	3030.99
727.03	3383.24
727.21	4347.84
727.39	5523.37
727.57	5836.71
727.76	6317.98
727.94	6332.32
728.12	5558.19
728.30	4612.03
728.48	4374.46
728.66	4257.73
728.84	3979.20
729.03	3434.44
729.21	3307.47
729.39	3209.17
729.57	3067.86
729.75	3069.91
729.93	2951.12
730.11	2756.57
730.30	2885.59
730.48	2926.55
730.66	2959.31
730.84	3041.23
731.02	3024.85
731.20	2979.79
731.38	2955.22
731.56	2717.65
731.74	2748.37
731.93	3018.71
732.11	2926.55
732.29	2818.00
732.47	3061.71
732.65	2940.88
732.83	3112.91
733.01	2994.13
733.19	2844.63
733.37	3114.96
733.56	2924.50
733.74	2848.72
733.92	3235.79
734.10	2914.26
734.28	3092.43
734.46	2729.94
734.64	2901.97
734.82	2920.40
735.00	2785.24
735.18	2772.95
735.36	3006.42
735.54	2985.94
735.73	2877.40
735.91	2969.55
736.09	3266.51
736.27	3057.62
736.45	2895.83
736.63	2705.37
736.81	2797.53
736.99	3147.73
737.17	3106.77
737.35	2818.00
737.53	2949.08
737.71	2918.36
737.89	3127.25
738.07	2791.38
738.25	2865.11
738.43	2693.08
738.61	2844.63
738.80	2727.89
738.98	2867.16
739.16	2912.21
739.34	2867.16
739.52	3188.69
739.70	2916.31
739.88	3030.99
740.06	3082.19
740.24	2562.01
740.42	3157.97
740.60	2758.61
740.78	2916.31
740.96	2660.31
741.14	2861.01
741.32	2934.74
741.50	2633.69
741.68	3133.39
741.86	3270.61
742.04	2811.86
742.22	2748.37
742.40	2865.11
742.58	3033.04
742.76	2865.11
742.94	3035.09
743.12	2652.12
743.30	2951.12
743.48	3186.64
743.66	2740.18
743.84	2912.21
744.02	2947.03
744.20	2897.88
744.38	2764.76
744.56	2869.20
744.74	3250.13
744.92	3055.57
745.10	3098.58
745.28	2979.79
745.46	3258.32
745.64	2987.99
745.82	3053.52
746.00	2885.59
746.18	3047.38
746.36	2793.43
746.54	2922.45
746.72	2891.73
746.90	2846.68
747.08	3100.62
747.26	2873.30
747.44	2975.70
747.62	3084.24
747.80	2996.18
747.98	2928.60
748.15	2858.96
748.33	3344.33
748.51	3010.51
748.69	2981.84
748.87	2775.00
749.05	2977.75
749.23	2971.60
749.41	2844.63
749.59	2805.72
749.77	3110.86
749.95	2887.64
750.13	2783.19
750.31	2901.97
750.49	2813.91
750.67	3035.09
750.85	2983.89
751.03	2865.11
751.20	3299.28
751.38	3020.75
751.56	2844.63
751.74	2924.50
751.92	2906.07
752.10	2803.67
752.28	3133.39
752.46	2871.25
752.64	2871.25
752.82	2920.40
753.00	2992.08
753.18	2818.00
753.35	2873.30
753.53	2985.94
753.71	2850.77
753.89	3020.75
754.07	3014.61
754.25	3207.12
754.43	2914.26
754.61	2777.05
754.79	3061.71
754.97	2965.46
755.14	2998.23
755.32	2731.99
755.50	3055.57
755.68	3035.09
755.86	2838.48
756.04	2770.90
756.22	2711.51
756.40	3112.91
756.57	3162.06
756.75	2777.05
756.93	3213.26
757.11	3014.61
757.29	2738.13
757.47	2772.95
757.65	2621.40
757.82	2654.17
758.00	2801.62
758.18	2813.91
758.36	2904.02
758.54	3262.41
758.72	2676.70
758.90	3047.38
759.07	3061.71
759.25	2818.00
759.43	2971.60
759.61	2686.94
759.79	4214.72
759.97	3190.74
760.15	2865.11
760.32	2901.97
760.50	3030.99
760.68	3297.23
760.86	2723.80
761.04	3033.04
761.22	3047.38
761.39	2963.41
761.57	3014.61
761.75	2838.48
761.93	3194.83
762.11	2947.03
762.28	2883.54
762.46	2770.90
762.64	3131.34
762.82	2785.24
763.00	2818.00
763.18	3033.04
763.35	2811.86
763.53	3059.67
763.71	2881.49
763.89	2865.11
764.07	3014.61
764.24	3078.10
764.42	2998.23
764.60	2834.39
764.78	3002.32
764.96	3028.95
765.13	3014.61
765.31	2772.95
765.49	2990.03
765.67	2781.14
765.84	2828.24
766.02	2781.14
766.20	2703.32
766.38	3018.71
766.56	3028.95
766.73	2961.36
766.91	2959.31
767.09	3059.67
767.27	2967.51
767.44	2789.33
767.62	3055.57
767.80	3037.14
767.98	2791.38
768.15	2772.95
768.33	3112.91
768.51	3139.54
768.69	2994.13
768.87	2942.93
769.04	2920.40
769.22	3413.96
769.40	3067.86
769.58	3051.47
769.75	3028.95
769.93	3121.10
770.11	2875.35
770.28	2770.90
770.46	3149.78
770.64	3035.09
770.82	2928.60
770.99	2758.61
771.17	3117.01
771.35	2914.26
771.53	2895.83
771.70	2836.44
771.88	3102.67
772.06	2953.17
772.23	2770.90
772.41	2930.64
772.59	2985.94
772.77	2807.77
772.94	2834.39
773.12	2942.93
773.30	2906.07
773.47	2973.65
773.65	2795.48
773.83	2940.88
774.01	2983.89
774.18	2725.85
774.36	2891.73
774.54	2781.14
774.71	3098.58
774.89	2865.11
775.07	2783.19
775.24	2830.29
775.42	2899.92
775.60	3299.28
775.78	2762.71
775.95	2766.81
776.13	2693.08
776.31	2645.98
776.48	2924.50
776.66	3065.81
776.84	2848.72
777.01	2871.25
777.19	2701.27
777.37	2783.19
777.54	3030.99
777.72	3295.18
777.90	2973.65
778.07	2701.27
778.25	3526.60
778.43	3114.96
778.60	2883.54
778.78	2955.22
778.96	3166.16
779.13	2818.00
779.31	2930.64
779.49	2959.31
779.66	3014.61
779.84	2936.79
780.01	2897.88
780.19	2811.86
780.37	3170.26
780.54	3071.95
780.72	2811.86
780.90	2934.74
781.07	2959.31
781.25	2869.20
781.43	2971.60
781.60	2875.35
781.78	3176.40
781.95	2899.92
782.13	2856.92
782.31	2830.29
782.48	2703.32
782.66	2955.22
782.83	3067.86
783.01	2992.08
783.19	3143.63
783.36	2904.02
783.54	2830.29
783.72	2985.94
783.89	2953.17
784.07	2977.75
784.24	3065.81
784.42	3037.14
784.60	2973.65
784.77	3033.04
784.95	2660.31
785.12	2836.44
785.30	3067.86
785.47	2815.96
785.65	2795.48
785.83	2856.92
786.00	2881.49
786.18	2992.08
786.35	2766.81
786.53	2805.72
786.71	3209.17
786.88	3053.52
787.06	2881.49
787.23	2869.20
787.41	2775.00
787.58	3020.75
787.76	2768.85
787.94	2877.40
788.11	3016.66
788.29	2871.25
788.46	2887.64
788.64	2658.26
788.81	2918.36
788.99	2877.40
789.16	2793.43
789.34	2944.98
789.52	2869.20
789.69	2895.83
789.87	2607.06
790.04	2795.48
790.22	3010.51
790.39	3286.99
790.57	2725.85
790.74	2830.29
790.92	3110.86
791.09	2752.47
791.27	2908.12
791.44	2963.41
791.62	2975.70
791.79	3030.99
791.97	2901.97
792.15	3231.69
792.32	3096.53
792.50	3153.87
792.67	3051.47
792.85	3174.35
793.02	2990.03
793.20	2940.88
793.37	2643.93
793.55	2791.38
793.72	2742.23
793.90	3045.33
794.07	2824.15
794.25	2764.76
794.42	2934.74
794.60	2936.79
794.77	2990.03
794.95	2994.13
795.12	3145.68
795.30	2981.84
795.47	2656.22
795.65	3160.02
795.82	3014.61
796.00	2828.24
796.17	2906.07
796.34	2727.89
796.52	3039.19
796.69	3131.34
796.87	2930.64
797.04	2891.73
797.22	3137.49
797.39	3004.37
797.57	2932.69
797.74	2947.03
797.92	3033.04
798.09	2889.68
798.27	3098.58
798.44	2828.24
798.62	2871.25
798.79	2977.75
798.96	3041.23
799.14	2863.06
799.31	3438.54
799.49	2928.60
799.66	2883.54
799.84	2912.21
800.01	2738.13
800.19	2926.55
800.36	2736.09
800.53	2848.72
800.71	2977.75
800.88	3336.14
801.06	2748.37
801.23	2789.33
801.41	2957.27
801.58	2805.72
801.75	2705.37
801.93	2965.46
802.10	3039.19
802.28	2895.83
802.45	2858.96
802.63	2985.94
802.80	3313.61
802.97	2936.79
803.15	2865.11
803.32	2820.05
803.50	2836.44
803.67	2852.82
803.84	2799.57
804.02	2844.63
804.19	2848.72
804.37	2615.26
804.54	2703.32
804.71	2803.67
804.89	2901.97
805.06	2705.37
805.24	2731.99
805.41	2727.89
805.58	2852.82
805.76	3362.76
805.93	2809.81
806.10	3004.37
806.28	3055.57
806.45	2992.08
806.63	2959.31
806.80	2938.84
806.97	2971.60
807.15	3014.61
807.32	2895.83
807.49	2815.96
807.67	2844.63
807.84	3045.33
808.01	2705.37
808.19	3035.09
808.36	3323.85
808.54	2885.59
808.71	2822.10
808.88	2861.01
809.06	3143.63
809.23	3209.17
809.40	2752.47
809.58	2846.68
809.75	2940.88
809.92	2824.15
810.10	3149.78
810.27	2826.20
810.44	3024.85
810.62	3172.30
810.79	2873.30
810.96	2824.15
811.14	2842.58
811.31	3008.47
811.48	2985.94
811.66	2942.93
811.83	3147.73
812.00	3051.47
812.18	2930.64
812.35	3174.35
812.52	2985.94
812.69	2887.64
812.87	2842.58
813.04	2738.13
813.21	2987.99
813.39	2863.06
813.56	2803.67
813.73	3065.81
813.91	2729.94
814.08	2944.98
814.25	2852.82
814.42	2686.94
814.60	2910.16
814.77	2959.31
814.94	2818.00
815.12	2922.45
815.29	3274.70
815.46	2953.17
815.63	2893.78
815.81	2736.09
815.98	2916.31
816.15	3000.27
816.33	2879.44
816.50	2852.82
816.67	2881.49
816.84	3006.42
817.02	2746.33
817.19	2863.06
817.36	3035.09
817.53	3104.72
817.71	2738.13
817.88	2910.16
818.05	2947.03
818.22	2867.16
818.40	3078.10
818.57	2854.87
818.74	3002.32
818.91	2897.88
819.09	2987.99
819.26	2867.16
819.43	2889.68
819.60	2822.10
819.78	3030.99
819.95	2949.08
820.12	2850.77
820.29	3207.12
820.47	3110.86
820.64	2795.48
820.81	2697.17
820.98	2832.34
821.15	2836.44
821.33	3055.57
821.50	2723.80
821.67	3086.29
821.84	2832.34
822.02	2940.88
822.19	2992.08
822.36	2854.87
822.53	2838.48
822.70	2734.04
822.88	2973.65
823.05	3248.08
823.22	2901.97
823.39	2947.03
823.56	3008.47
823.74	3205.07
823.91	2693.08
824.08	2746.33
824.25	2846.68
824.42	3321.81
824.60	2707.41
824.77	2932.69
824.94	2961.36
825.11	3043.28
825.28	2592.73
825.45	3049.43
825.63	2934.74
825.80	2820.05
825.97	2981.84
826.14	2889.68
826.31	2779.09
826.48	3012.56
826.66	2801.62
826.83	2861.01
827.00	2918.36
827.17	2818.00
827.34	2846.68
827.51	2785.24
827.69	2840.53
827.86	2680.79
828.03	2965.46
828.20	2891.73
828.37	2838.48
828.54	3086.29
828.71	2805.72
828.89	2928.60
829.06	3028.95
829.23	3219.41
829.40	2838.48
829.57	2861.01
829.74	3110.86
829.91	2938.84
830.09	2752.47
830.26	2949.08
830.43	3227.60
830.60	2865.11
830.77	2992.08
830.94	3043.28
831.11	3037.14
831.28	2955.22
831.46	2985.94
831.63	2856.92
831.80	3104.72
831.97	2887.64
832.14	2856.92
832.31	2916.31
832.48	3045.33
832.65	3127.25
832.82	2901.97
832.99	2959.31
833.17	2758.61
833.34	3239.89
833.51	2842.58
833.68	2617.30
833.85	3131.34
834.02	2836.44
834.19	2750.42
834.36	2783.19
834.53	3020.75
834.70	3182.54
834.87	2863.06
835.04	2686.94
835.22	2865.11
835.39	2848.72
835.56	2701.27
835.73	2731.99
835.90	3135.44
836.07	2791.38
836.24	2916.31
836.41	2680.79
836.58	2918.36
836.75	3143.63
836.92	2752.47
837.09	2652.12
837.26	3117.01
837.43	2934.74
837.60	2824.15
837.77	2752.47
837.94	3112.91
838.12	3123.15
838.29	2652.12
838.46	2715.61
838.63	2791.38
838.80	3172.30
838.97	2842.58
839.14	2734.04
839.31	3024.85
839.48	3071.95
839.65	2742.23
839.82	2852.82
839.99	2951.12
840.16	2987.99
840.33	2731.99
840.50	2787.29
840.67	2867.16
840.84	2596.82
841.01	2760.66
841.18	2715.61
841.35	2998.23
841.52	3106.77
841.69	3002.32
841.86	2775.00
842.03	2908.12
842.20	3110.86
842.37	2652.12
842.54	2775.00
842.71	3026.90
842.88	2729.94
843.05	2791.38
843.22	2688.98
843.39	3131.34
843.56	2795.48
843.73	2723.80
843.90	2766.81
844.07	2936.79
844.24	3082.19
844.41	2869.20
844.58	2715.61
844.75	2967.51
844.92	3063.76
845.09	2805.72
845.26	2760.66
845.43	3119.06
845.60	2871.25
845.77	2848.72
845.94	2809.81
846.10	3102.67
846.27	2738.13
846.44	2674.65
846.61	2643.93
846.78	3028.95
846.95	3139.54
847.12	2717.65
847.29	2742.23
847.46	2832.34
847.63	3092.43
847.80	2664.41
847.97	2754.52
848.14	3360.72
848.31	2918.36
848.48	2607.06
848.65	2822.10
848.82	2858.96
848.98	3465.16
849.15	2815.96
849.32	2867.16
849.49	3121.10
849.66	2985.94
849.83	2791.38
850.00	2627.54
850.17	3033.04
850.34	2899.92
850.51	2752.47
850.68	2805.72
850.85	3315.66
851.01	2996.18
851.18	2797.53
851.35	2656.22
851.52	3059.67
851.69	3217.36
851.86	2740.18
852.03	2697.17
852.20	3110.86
852.37	2979.79
852.53	2629.59
852.70	2684.89
852.87	3043.28
853.04	3100.62
853.21	2738.13
853.38	2971.60
853.55	3129.30
853.72	3180.50
853.89	2691.03
854.05	2680.79
854.22	2920.40
854.39	2918.36
854.56	2627.54
854.73	2768.85
854.90	2777.05
855.07	2918.36
855.23	2668.50
855.40	2688.98
855.57	2934.74
855.74	2602.97
855.91	2918.36
856.08	2637.78
856.25	2779.09
856.41	2811.86
856.58	2748.37
856.75	2742.23
856.92	2783.19
857.09	3090.38
857.26	2625.50
857.42	2772.95
857.59	3088.34
857.76	2942.93
857.93	2783.19
858.10	2832.34
858.27	2818.00
858.43	3022.80
858.60	2775.00
858.77	2660.31
858.94	2908.12
859.11	3092.43
859.27	2777.05
859.44	2637.78
859.61	3274.70
859.78	3100.62
859.95	2746.33
860.12	2643.93
860.28	3411.92
860.45	3237.84
860.62	2711.51
860.79	2797.53
860.95	2883.54
861.12	2789.33
861.29	2682.84
861.46	2670.55
861.63	2924.50
861.79	3041.23
861.96	2551.77
862.13	2746.33
862.30	3258.32
862.47	2809.81
862.63	2658.26
862.80	2815.96
862.97	3114.96
863.14	3006.42
863.30	2688.98
863.47	2639.83
863.64	3235.79
863.81	3020.75
863.97	2613.21
864.14	2832.34
864.31	2887.64
864.48	2990.03
864.65	2787.29
864.81	2850.77
864.98	3082.19
865.15	3119.06
865.32	2811.86
865.48	2826.20
865.65	3211.22
865.82	2828.24
865.98	2785.24
866.15	2766.81
866.32	3018.71
866.49	2852.82
866.65	2914.26
866.82	2783.19
866.99	2867.16
867.16	2856.92
867.32	2738.13
867.49	2656.22
867.66	2873.30
867.83	2959.31
867.99	2617.30
868.16	2729.94
868.33	2818.00
868.49	2928.60
868.66	2744.28
868.83	2803.67
868.99	3039.19
869.16	3018.71
869.33	2846.68
869.50	2818.00
869.66	2944.98
869.83	2944.98
870.00	2707.41
870.16	2822.10
870.33	2895.83
870.50	3051.47
870.66	2824.15
870.83	2750.42
871.00	3008.47
871.17	3186.64
871.33	2828.24
871.50	2754.52
871.67	2971.60
871.83	2934.74
872.00	2893.78
872.17	2631.64
872.33	3297.23
872.50	3162.06
872.67	2688.98
872.83	2744.28
873.00	3104.72
873.17	2961.36
873.33	2791.38
873.50	2707.41
873.67	2873.30
873.83	2766.81
874.00	2746.33
874.16	2828.24
874.33	2998.23
874.50	2770.90
874.66	2725.85
874.83	2811.86
875.00	3121.10
875.16	3160.02
875.33	2772.95
875.50	2551.77
875.66	2840.53
875.83	3002.32
875.99	2852.82
876.16	2830.29
876.33	2840.53
876.49	2928.60
876.66	2754.52
876.83	2750.42
876.99	2746.33
877.16	2973.65
877.32	2631.64
877.49	2717.65
877.66	3049.43
877.82	3280.85
877.99	2770.90
878.15	2990.03
878.32	3012.56
878.49	3030.99
878.65	2818.00
878.82	2992.08
878.98	2791.38
879.15	3127.25
879.32	2875.35
879.48	2967.51
879.65	3004.37
879.81	2897.88
879.98	2668.50
880.15	2832.34
880.31	3123.15
880.48	2838.48
880.64	2861.01
880.81	2947.03
880.97	3325.90
881.14	3100.62
881.31	2664.41
881.47	2889.68
881.64	2977.75
881.80	2727.89
881.97	2848.72
882.13	2748.37
882.30	2844.63
882.47	2811.86
882.63	2740.18
882.80	2746.33
882.96	2881.49
883.13	3133.39
883.29	2820.05
883.46	2705.37
883.62	3368.91
883.79	3067.86
883.95	2858.96
884.12	2727.89
884.29	3168.21
884.45	2977.75
884.62	2768.85
884.78	2729.94
884.95	3268.56
885.11	2762.71
885.28	2840.53
885.44	2756.57
885.61	3094.48
885.77	3127.25
885.94	2832.34
886.10	2813.91
886.27	3006.42
886.43	3278.80
886.60	2971.60
886.76	2764.76
886.93	2850.77
887.09	2971.60
887.26	2615.26
887.42	2820.05
887.59	3153.87
887.75	3346.38
887.92	3037.14
888.08	2856.92
888.25	3221.45
888.41	3090.38
888.58	2883.54
888.74	2772.95
888.91	2848.72
>>>>>End Processed Spectral Data<<<<<
