SpectraSuite Data File
++++++++++++++++++++++++++++++++++++
Date: Thu May 05 21:11:25 CEST 2016
User: root
Dark Spectrum Present: No
Reference Spectrum Present: No
Number of Sampled Component Spectra: 1
Spectrometers: USB4C02835
Integration Time (usec): 100000 (USB4C02835)
Spectra Averaged: 1 (USB4C02835)
Boxcar Smoothing: 0 (USB4C02835)
Correct for Electrical Dark: No (USB4C02835)
Strobe/Lamp Enabled: No (USB4C02835)
Correct for Detector Non-linearity: No (USB4C02835)
Correct for Stray Light: No (USB4C02835)
Number of Pixels in Processed Spectrum: 3648
>>>>>Begin Processed Spectral Data<<<<<
177.47	2131.94
177.69	2131.94
177.91	2131.94
178.13	2127.84
178.36	2172.89
178.58	2783.19
178.80	2895.83
179.02	2746.33
179.24	2805.72
179.46	2617.30
179.68	2674.65
179.90	2985.94
180.13	2975.70
180.35	2570.20
180.57	2625.50
180.79	3090.38
181.01	2953.17
181.23	2672.60
181.45	2830.29
181.67	3094.48
181.90	3137.49
182.12	2713.56
182.34	2516.95
182.56	3145.68
182.78	3045.33
183.00	2623.45
183.22	2783.19
183.44	2701.27
183.66	3442.64
183.89	2740.18
184.11	2680.79
184.33	3049.43
184.55	3254.22
184.77	2744.28
184.99	2727.89
185.21	2914.26
185.43	3409.87
185.65	2764.76
185.87	2641.88
186.10	3379.15
186.32	3379.15
186.54	2795.48
186.76	2762.71
186.98	3117.01
187.20	2996.18
187.42	2637.78
187.64	2715.61
187.86	3078.10
188.08	3094.48
188.30	2650.07
188.52	2766.81
188.75	3276.75
188.97	3149.78
189.19	2600.92
189.41	2633.69
189.63	3090.38
189.85	2893.78
190.07	2588.63
190.29	2582.49
190.51	3074.00
190.73	2672.60
190.95	2856.92
191.17	2670.55
191.39	2705.37
191.61	2959.31
191.84	2621.40
192.06	2762.71
192.28	2793.43
192.50	3516.36
192.72	2830.29
192.94	2762.71
193.16	3149.78
193.38	3053.52
193.60	2590.68
193.82	2764.76
194.04	3143.63
194.26	3082.19
194.48	2742.23
194.70	2674.65
194.92	2916.31
195.14	3200.98
195.36	2693.08
195.58	2721.75
195.80	2908.12
196.02	2865.11
196.24	2617.30
196.46	2803.67
196.69	2944.98
196.91	3428.30
197.13	2723.80
197.35	2815.96
197.57	3200.98
197.79	3035.09
198.01	2695.13
198.23	2648.02
198.45	3016.66
198.67	2740.18
198.89	2514.91
199.11	2815.96
199.33	2865.11
199.55	2686.94
199.77	2594.78
199.99	2781.14
200.21	2852.82
200.43	3078.10
200.65	2547.67
200.87	2484.19
201.09	2955.22
201.31	2914.26
201.53	2686.94
201.75	2680.79
201.97	3039.19
202.19	2975.70
202.41	2713.56
202.63	2854.87
202.85	3071.95
203.07	3074.00
203.29	2797.53
203.51	2578.39
203.73	2906.07
203.95	3389.39
204.17	2609.11
204.39	2885.59
204.61	2967.51
204.83	2920.40
205.05	2854.87
205.27	2707.41
205.49	3413.96
205.71	3008.47
205.93	2605.02
206.15	2580.44
206.37	3002.32
206.59	2977.75
206.81	2529.24
207.03	2600.92
207.25	2832.34
207.47	3133.39
207.69	2691.03
207.91	2852.82
208.13	3225.55
208.34	2828.24
208.56	2764.76
208.78	2746.33
209.00	2975.70
209.22	2920.40
209.44	2758.61
209.66	2723.80
209.88	3008.47
210.10	3008.47
210.32	2713.56
210.54	2715.61
210.76	2990.03
210.98	3141.58
211.20	2494.43
211.42	2801.62
211.64	3239.89
211.86	3065.81
212.08	2791.38
212.30	2648.02
212.52	2916.31
212.74	2971.60
212.96	2731.99
213.17	2783.19
213.39	3069.91
213.61	3286.99
213.83	2723.80
214.05	2621.40
214.27	3192.78
214.49	2828.24
214.71	2648.02
214.93	2750.42
215.15	2947.03
215.37	3211.22
215.59	2586.58
215.81	2701.27
216.03	3221.45
216.24	2942.93
216.46	2668.50
216.68	2750.42
216.90	3104.72
217.12	3133.39
217.34	2660.31
217.56	2797.53
217.78	3213.26
218.00	3092.43
218.22	2820.05
218.44	2795.48
218.66	3078.10
218.87	3348.43
219.09	2688.98
219.31	2750.42
219.53	2998.23
219.75	2959.31
219.97	2631.64
220.19	2729.94
220.41	2998.23
220.63	3297.23
220.85	2723.80
221.06	2717.65
221.28	3211.22
221.50	3110.86
221.72	2652.12
221.94	2592.73
222.16	2967.51
222.38	3186.64
222.60	2609.11
222.82	2713.56
223.03	3133.39
223.25	2797.53
223.47	2705.37
223.69	2803.67
223.91	3078.10
224.13	2969.55
224.35	2598.87
224.57	2871.25
224.78	3049.43
225.00	2818.00
225.22	2748.37
225.44	2570.20
225.66	3104.72
225.88	2979.79
226.10	2815.96
226.32	2701.27
226.53	3295.18
226.75	2885.59
226.97	2754.52
227.19	2613.21
227.41	2897.88
227.63	2906.07
227.85	2508.76
228.06	2668.50
228.28	3053.52
228.50	3074.00
228.72	2570.20
228.94	2623.45
229.16	2674.65
229.37	2740.18
229.59	2574.30
229.81	2893.78
230.03	2873.30
230.25	2803.67
230.47	2570.20
230.69	2684.89
230.90	3164.11
231.12	2953.17
231.34	2783.19
231.56	2744.28
231.78	2723.80
232.00	2992.08
232.21	2664.41
232.43	2787.29
232.65	2637.78
232.87	3074.00
233.09	2594.78
233.30	2611.16
233.52	3143.63
233.74	2885.59
233.96	2650.07
234.18	2822.10
234.40	2967.51
234.61	3368.91
234.83	2519.00
235.05	2654.17
235.27	3409.87
235.49	3170.26
235.70	2623.45
235.92	2772.95
236.14	3067.86
236.36	3370.96
236.58	2562.01
236.79	2785.24
237.01	2934.74
237.23	2975.70
237.45	2908.12
237.67	2748.37
237.88	3057.62
238.10	3477.45
238.32	2598.87
238.54	2705.37
238.76	2928.60
238.97	2842.58
239.19	2631.64
239.41	2740.18
239.63	3172.30
239.85	2883.54
240.06	2645.98
240.28	2641.88
240.50	3219.41
240.72	3006.42
240.93	2592.73
241.15	2754.52
241.37	2912.21
241.59	3286.99
241.81	2723.80
242.02	2727.89
242.24	3012.56
242.46	3096.53
242.68	2588.63
242.89	2662.36
243.11	3055.57
243.33	2942.93
243.55	2750.42
243.76	2711.51
243.98	2895.83
244.20	2977.75
244.42	2711.51
244.64	2637.78
244.85	2818.00
245.07	2834.39
245.29	2654.17
245.51	2678.74
245.72	3051.47
245.94	3160.02
246.16	2637.78
246.38	2701.27
246.59	2873.30
246.81	2854.87
247.03	2607.06
247.24	2582.49
247.46	2942.93
247.68	2994.13
247.90	2584.54
248.11	2674.65
248.33	3123.15
248.55	2893.78
248.77	2795.48
248.98	2785.24
249.20	3227.60
249.42	2994.13
249.64	2648.02
249.85	2607.06
250.07	2873.30
250.29	3086.29
250.50	2818.00
250.72	2738.13
250.94	3090.38
251.16	3389.39
251.37	2650.07
251.59	2719.70
251.81	3037.14
252.02	3258.32
252.24	2600.92
252.46	2762.71
252.68	2793.43
252.89	2822.10
253.11	2533.34
253.33	2791.38
253.54	3241.93
253.76	2832.34
253.98	2695.13
254.20	2633.69
254.41	2858.96
254.63	2992.08
254.85	2656.22
255.06	2867.16
255.28	3133.39
255.50	2957.27
255.71	2639.83
255.93	2582.49
256.15	2990.03
256.36	3043.28
256.58	2572.25
256.80	2625.50
257.02	2994.13
257.23	2916.31
257.45	2723.80
257.67	2770.90
257.88	2951.12
258.10	3012.56
258.32	2656.22
258.53	2760.66
258.75	3274.70
258.97	2842.58
259.18	2631.64
259.40	2652.12
259.62	3301.33
259.83	3174.35
260.05	2731.99
260.27	3370.96
260.48	3157.97
260.70	2848.72
260.92	2564.06
261.13	2707.41
261.35	3028.95
261.57	3098.58
261.78	2555.86
262.00	2562.01
262.22	3123.15
262.43	2844.63
262.65	2693.08
262.86	2701.27
263.08	3346.38
263.30	3030.99
263.51	2512.86
263.73	2609.11
263.95	3207.12
264.16	2912.21
264.38	2523.10
264.60	2635.74
264.81	2938.84
265.03	3137.49
265.25	3006.42
265.46	2703.32
265.68	3151.82
265.89	3133.39
266.11	2570.20
266.33	2699.22
266.54	3282.89
266.76	3100.62
266.98	2783.19
267.19	2805.72
267.41	3114.96
267.62	2947.03
267.84	2512.86
268.06	2844.63
268.27	3035.09
268.49	3190.74
268.70	2777.05
268.92	2648.02
269.14	2842.58
269.35	2695.13
269.57	2731.99
269.79	2775.00
270.00	2787.29
270.22	3227.60
270.43	2584.54
270.65	2570.20
270.87	2963.41
271.08	3143.63
271.30	2828.24
271.51	2648.02
271.73	3125.20
271.95	3256.27
272.16	2672.60
272.38	2914.26
272.59	2924.50
272.81	3194.83
273.02	2623.45
273.24	2748.37
273.46	3186.64
273.67	2754.52
273.89	2553.82
274.10	2699.22
274.32	3131.34
274.54	3010.51
274.75	2740.18
274.97	2742.23
275.18	3147.73
275.40	3092.43
275.61	2746.33
275.83	2887.64
276.05	2838.48
276.26	2987.99
276.48	2803.67
276.69	2738.13
276.91	2822.10
277.12	3166.16
277.34	2822.10
277.55	2985.94
277.77	2996.18
277.99	2922.45
278.20	2830.29
278.42	2648.02
278.63	2803.67
278.85	2768.85
279.06	2754.52
279.28	2899.92
279.49	3217.36
279.71	3090.38
279.93	2832.34
280.14	2850.77
280.36	2873.30
280.57	3194.83
280.79	2897.88
281.00	2803.67
281.22	2949.08
281.43	3196.88
281.65	2533.34
281.86	2709.46
282.08	3078.10
282.29	3338.19
282.51	2654.17
282.73	2709.46
282.94	2688.98
283.16	3135.44
283.37	3004.37
283.59	2852.82
283.80	3135.44
284.02	2994.13
284.23	2914.26
284.45	2824.15
284.66	2877.40
284.88	2854.87
285.09	2746.33
285.31	2842.58
285.52	2969.55
285.74	2768.85
285.95	2987.99
286.17	2897.88
286.38	3186.64
286.60	2865.11
286.81	2852.82
287.03	2830.29
287.24	3030.99
287.46	3053.52
287.67	2914.26
287.89	3035.09
288.10	2953.17
288.32	2959.31
288.53	2940.88
288.75	2828.24
288.96	3088.34
289.18	2930.64
289.39	2736.09
289.61	2891.73
289.82	3332.05
290.04	3233.74
290.25	2678.74
290.47	2914.26
290.68	2865.11
290.90	3186.64
291.11	2641.88
291.33	2940.88
291.54	2867.16
291.76	2854.87
291.97	2838.48
292.18	2828.24
292.40	2930.64
292.61	2926.55
292.83	3024.85
293.04	2834.39
293.26	3020.75
293.47	3074.00
293.69	2703.32
293.90	2707.41
294.12	3170.26
294.33	2897.88
294.55	2756.57
294.76	3049.43
294.97	3227.60
295.19	3325.90
295.40	2801.62
295.62	2828.24
295.83	3143.63
296.05	2867.16
296.26	2969.55
296.48	2789.33
296.69	2971.60
296.90	3020.75
297.12	2930.64
297.33	2998.23
297.55	2996.18
297.76	3014.61
297.98	2863.06
298.19	2916.31
298.41	2967.51
298.62	2910.16
298.83	3020.75
299.05	2873.30
299.26	2856.92
299.48	2783.19
299.69	2858.96
299.90	2729.94
300.12	2879.44
300.33	3194.83
300.55	2850.77
300.76	2867.16
300.98	2789.33
301.19	3071.95
301.40	2777.05
301.62	2885.59
301.83	3053.52
302.05	2940.88
302.26	2791.38
302.47	2820.05
302.69	2813.91
302.90	3020.75
303.12	2631.64
303.33	2920.40
303.54	3327.95
303.76	2891.73
303.97	2805.72
304.19	3000.27
304.40	2811.86
304.61	3043.28
304.83	2979.79
305.04	2918.36
305.26	3030.99
305.47	2824.15
305.68	2768.85
305.90	2740.18
306.11	3278.80
306.33	2879.44
306.54	2723.80
306.75	2754.52
306.97	2705.37
307.18	2867.16
307.39	2805.72
307.61	2944.98
307.82	2920.40
308.04	3100.62
308.25	2586.58
308.46	2842.58
308.68	2994.13
308.89	3000.27
309.10	2877.40
309.32	2803.67
309.53	2965.46
309.74	3039.19
309.96	2738.13
310.17	2908.12
310.39	2883.54
310.60	3123.15
310.81	2858.96
311.03	2727.89
311.24	3104.72
311.45	2969.55
311.67	3030.99
311.88	2861.01
312.09	2885.59
312.31	2873.30
312.52	2770.90
312.73	2768.85
312.95	2670.55
313.16	2912.21
313.37	2912.21
313.59	2977.75
313.80	3090.38
314.01	3373.00
314.23	2828.24
314.44	2699.22
314.65	2772.95
314.87	2830.29
315.08	2723.80
315.29	2799.57
315.51	2850.77
315.72	2715.61
315.93	2854.87
316.15	2844.63
316.36	2928.60
316.57	2922.45
316.79	2848.72
317.00	2731.99
317.21	3123.15
317.43	2779.09
317.64	2830.29
317.85	2729.94
318.07	2918.36
318.28	2871.25
318.49	2867.16
318.70	3004.37
318.92	3002.32
319.13	3071.95
319.34	2985.94
319.56	2820.05
319.77	3071.95
319.98	3061.71
320.20	3004.37
320.41	2953.17
320.62	3039.19
320.83	2822.10
321.05	3033.04
321.26	2904.02
321.47	3010.51
321.69	3192.78
321.90	2695.13
322.11	2787.29
322.32	3008.47
322.54	3231.69
322.75	2840.53
322.96	3585.99
323.18	2725.85
323.39	2666.46
323.60	2707.41
323.81	2889.68
324.03	2869.20
324.24	2961.36
324.45	2863.06
324.66	2760.66
324.88	3284.94
325.09	3188.69
325.30	2848.72
325.52	2842.58
325.73	3080.14
325.94	2850.77
326.15	2707.41
326.37	2740.18
326.58	3028.95
326.79	3342.28
327.00	2731.99
327.22	2822.10
327.43	2983.89
327.64	2852.82
327.85	2869.20
328.07	2883.54
328.28	3225.55
328.49	2916.31
328.70	2844.63
328.92	2801.62
329.13	2885.59
329.34	3078.10
329.55	3078.10
329.76	2895.83
329.98	2932.69
330.19	3125.20
330.40	2965.46
330.61	2865.11
330.83	3121.10
331.04	2856.92
331.25	2901.97
331.46	2871.25
331.68	2838.48
331.89	3256.27
332.10	2777.05
332.31	2717.65
332.52	2908.12
332.74	3164.11
332.95	2719.70
333.16	2832.34
333.37	3069.91
333.58	2891.73
333.80	2818.00
334.01	2654.17
334.22	2944.98
334.43	2885.59
334.64	2787.29
334.86	2754.52
335.07	2867.16
335.28	3178.45
335.49	2717.65
335.70	2836.44
335.92	3223.50
336.13	3370.96
336.34	2861.01
336.55	2885.59
336.76	3074.00
336.98	2562.01
337.19	2848.72
337.40	2949.08
337.61	3387.34
337.82	2959.31
338.04	2910.16
338.25	2666.46
338.46	2920.40
338.67	2985.94
338.88	2703.32
339.09	2686.94
339.31	2861.01
339.52	2750.42
339.73	2729.94
339.94	2869.20
340.15	3151.82
340.36	2893.78
340.58	2828.24
340.79	2664.41
341.00	3059.67
341.21	2803.67
341.42	3037.14
341.63	2766.81
341.85	3071.95
342.06	3057.62
342.27	2803.67
342.48	3022.80
342.69	2658.26
342.90	3006.42
343.12	3030.99
343.33	2658.26
343.54	3125.20
343.75	3211.22
343.96	2883.54
344.17	2684.89
344.38	2942.93
344.60	2805.72
344.81	2768.85
345.02	2848.72
345.23	3182.54
345.44	3381.20
345.65	2899.92
345.86	2828.24
346.07	3026.90
346.29	2861.01
346.50	2983.89
346.71	2897.88
346.92	3137.49
347.13	3395.53
347.34	2858.96
347.55	2793.43
347.76	3030.99
347.98	2725.85
348.19	2815.96
348.40	2985.94
348.61	2895.83
348.82	3198.93
349.03	2865.11
349.24	2674.65
349.45	3332.05
349.66	2660.31
349.88	2824.15
350.09	2686.94
350.30	3194.83
350.51	3157.97
350.72	2942.93
350.93	2838.48
351.14	2981.84
351.35	3092.43
351.56	2875.35
351.77	2863.06
351.99	3010.51
352.20	3176.40
352.41	2942.93
352.62	2721.75
352.83	2934.74
353.04	2965.46
353.25	2815.96
353.46	2828.24
353.67	3182.54
353.88	2629.59
354.09	2693.08
354.30	2811.86
354.52	3030.99
354.73	2979.79
354.94	2791.38
355.15	2881.49
355.36	3266.51
355.57	2885.59
355.78	2775.00
355.99	2727.89
356.20	2916.31
356.41	3266.51
356.62	2830.29
356.83	2795.48
357.04	3278.80
357.25	2734.04
357.46	2824.15
357.68	2619.35
357.89	2789.33
358.10	2947.03
358.31	2760.66
358.52	2799.57
358.73	2818.00
358.94	2828.24
359.15	2852.82
359.36	2848.72
359.57	2934.74
359.78	3033.04
359.99	3020.75
360.20	2674.65
360.41	2940.88
360.62	3112.91
360.83	2885.59
361.04	2916.31
361.25	3002.32
361.46	3213.26
361.67	2944.98
361.88	2813.91
362.09	3186.64
362.30	3074.00
362.51	2795.48
362.72	2944.98
362.93	3178.45
363.14	3090.38
363.35	2932.69
363.56	2754.52
363.78	3274.70
363.99	3084.24
364.20	2750.42
364.41	2844.63
364.62	3346.38
364.83	2963.41
365.04	2781.14
365.25	2965.46
365.46	3256.27
365.67	2846.68
365.88	2910.16
366.09	2842.58
366.30	2922.45
366.51	2957.27
366.72	2723.80
366.93	2750.42
367.14	2951.12
367.35	3246.03
367.56	2742.23
367.77	2955.22
367.98	2979.79
368.18	3112.91
368.39	2897.88
368.60	2703.32
368.81	3114.96
369.02	3137.49
369.23	2848.72
369.44	2676.70
369.65	2920.40
369.86	2979.79
370.07	2910.16
370.28	2725.85
370.49	3051.47
370.70	3026.90
370.91	2666.46
371.12	2621.40
371.33	3176.40
371.54	2805.72
371.75	2947.03
371.96	2541.53
372.17	3000.27
372.38	2951.12
372.59	2793.43
372.80	2787.29
373.01	3004.37
373.22	3112.91
373.43	2820.05
373.64	2709.46
373.85	3200.98
374.06	3237.84
374.26	2899.92
374.47	2807.77
374.68	3200.98
374.89	3041.23
375.10	2707.41
375.31	2908.12
375.52	3094.48
375.73	3094.48
375.94	2697.17
376.15	2963.41
376.36	2836.44
376.57	2805.72
376.78	2813.91
376.99	2904.02
377.20	3141.58
377.40	2979.79
377.61	3100.62
377.82	2756.57
378.03	3286.99
378.24	3114.96
378.45	2836.44
378.66	2957.27
378.87	2705.37
379.08	2731.99
379.29	2871.25
379.50	2996.18
379.71	2842.58
379.91	3020.75
380.12	2818.00
380.33	2906.07
380.54	2928.60
380.75	2983.89
380.96	2734.04
381.17	2871.25
381.38	2977.75
381.59	2985.94
381.80	2871.25
382.00	2961.36
382.21	2977.75
382.42	3153.87
382.63	3131.34
382.84	2922.45
383.05	3157.97
383.26	3260.37
383.47	2873.30
383.68	2811.86
383.88	3119.06
384.09	2987.99
384.30	3055.57
384.51	2863.06
384.72	2893.78
384.93	2791.38
385.14	2901.97
385.35	3143.63
385.55	2715.61
385.76	3141.58
385.97	2758.61
386.18	2656.22
386.39	2904.02
386.60	2926.55
386.81	2758.61
387.02	2672.60
387.22	2832.34
387.43	3176.40
387.64	2877.40
387.85	3082.19
388.06	2938.84
388.27	4085.70
388.48	7176.08
388.68	10665.82
388.89	13166.39
389.10	14487.33
389.31	13991.72
389.52	11247.44
389.73	9686.89
389.93	8974.20
390.14	8009.61
390.35	7235.47
390.56	6735.77
390.77	5506.99
390.98	4255.68
391.18	3641.29
391.39	3442.64
391.60	2983.89
391.81	2977.75
392.02	2916.31
392.23	3377.10
392.43	3114.96
392.64	2957.27
392.85	2918.36
393.06	3213.26
393.27	2969.55
393.47	2824.15
393.68	2846.68
393.89	2908.12
394.10	3233.74
394.31	2838.48
394.52	2734.04
394.72	2889.68
394.93	3182.54
395.14	2801.62
395.35	2947.03
395.56	2844.63
395.76	2967.51
395.97	2842.58
396.18	2957.27
396.39	3020.75
396.60	3592.14
396.80	3198.93
397.01	3008.47
397.22	3076.05
397.43	3227.60
397.64	2750.42
397.84	2912.21
398.05	3354.57
398.26	3004.37
398.47	2983.89
398.67	2992.08
398.88	3078.10
399.09	3098.58
399.30	2858.96
399.51	2883.54
399.71	2858.96
399.92	2897.88
400.13	2865.11
400.34	2797.53
400.54	2889.68
400.75	3239.89
400.96	2994.13
401.17	3108.82
401.37	3090.38
401.58	2973.65
401.79	2815.96
402.00	2947.03
402.21	3358.67
402.41	3084.24
402.62	3094.48
402.83	3170.26
403.04	3356.62
403.24	3686.34
403.45	2955.22
403.66	3157.97
403.87	3227.60
404.07	3174.35
404.28	3119.06
404.49	3192.78
404.70	3086.29
404.90	3215.31
405.11	2883.54
405.32	2852.82
405.52	2865.11
405.73	2893.78
405.94	2725.85
406.15	2869.20
406.35	3112.91
406.56	3104.72
406.77	2875.35
406.98	2811.86
407.18	2861.01
407.39	3223.50
407.60	2953.17
407.80	2961.36
408.01	2967.51
408.22	3117.01
408.43	2795.48
408.63	2942.93
408.84	3117.01
409.05	3139.54
409.25	2711.51
409.46	2807.77
409.67	2910.16
409.88	2990.03
410.08	2865.11
410.29	2799.57
410.50	3096.53
410.70	2975.70
410.91	2719.70
411.12	2924.50
411.32	3008.47
411.53	2799.57
411.74	2914.26
411.95	2885.59
412.15	3172.30
412.36	3141.58
412.57	2947.03
412.77	3000.27
412.98	2955.22
413.19	2957.27
413.39	2813.91
413.60	2809.81
413.81	3203.02
414.01	2832.34
414.22	2899.92
414.43	3004.37
414.63	2967.51
414.84	3164.11
415.05	2885.59
415.25	2592.73
415.46	3121.10
415.67	2959.31
415.87	2869.20
416.08	2805.72
416.29	2920.40
416.49	3016.66
416.70	2838.48
416.91	2777.05
417.11	2940.88
417.32	3192.78
417.53	3014.61
417.73	2885.59
417.94	2965.46
418.15	3008.47
418.35	2875.35
418.56	2875.35
418.77	3332.05
418.97	2975.70
419.18	2961.36
419.38	2566.10
419.59	2908.12
419.80	3176.40
420.00	2775.00
420.21	2830.29
420.42	3313.61
420.62	2965.46
420.83	2865.11
421.04	2811.86
421.24	2983.89
421.45	3098.58
421.65	2881.49
421.86	2791.38
422.07	3200.98
422.27	3071.95
422.48	2795.48
422.69	2713.56
422.89	2963.41
423.10	2865.11
423.30	2785.24
423.51	2992.08
423.72	3102.67
423.92	3098.58
424.13	2703.32
424.33	2869.20
424.54	3125.20
424.75	3024.85
424.95	3114.96
425.16	2852.82
425.36	2893.78
425.57	3180.50
425.78	2883.54
425.98	2928.60
426.19	2934.74
426.39	2836.44
426.60	2928.60
426.81	2953.17
427.01	3045.33
427.22	2834.39
427.42	2664.41
427.63	2760.66
427.83	3090.38
428.04	3274.70
428.25	2951.12
428.45	2901.97
428.66	3168.21
428.86	2975.70
429.07	2842.58
429.28	2807.77
429.48	2942.93
429.69	2850.77
429.89	2944.98
430.10	2764.76
430.30	3123.15
430.51	3198.93
430.71	2719.70
430.92	2922.45
431.13	2850.77
431.33	3059.67
431.54	2920.40
431.74	3037.14
431.95	3454.92
432.15	2850.77
432.36	2953.17
432.56	2844.63
432.77	3352.52
432.98	3330.00
433.18	2807.77
433.39	2783.19
433.59	2957.27
433.80	3373.00
434.00	3051.47
434.21	2916.31
434.41	2934.74
434.62	3391.44
434.82	2762.71
435.03	2760.66
435.23	3035.09
435.44	2709.46
435.64	2768.85
435.85	2889.68
436.06	3166.16
436.26	3192.78
436.47	2779.09
436.67	2762.71
436.88	2885.59
437.08	3065.81
437.29	3000.27
437.49	2918.36
437.70	3172.30
437.90	2922.45
438.11	3063.76
438.31	2928.60
438.52	3270.61
438.72	3125.20
438.93	3129.30
439.13	2801.62
439.34	3135.44
439.54	2963.41
439.75	2897.88
439.95	2906.07
440.16	2803.67
440.36	3022.80
440.57	2867.16
440.77	2836.44
440.98	2938.84
441.18	3043.28
441.39	2756.57
441.59	2801.62
441.80	3395.53
442.00	2951.12
442.21	2930.64
442.41	2670.55
442.62	3194.83
442.82	2893.78
443.02	2838.48
443.23	2940.88
443.43	2944.98
443.64	3174.35
443.84	2748.37
444.05	2910.16
444.25	2959.31
444.46	2934.74
444.66	2850.77
444.87	3096.53
445.07	2813.91
445.28	2969.55
445.48	3022.80
445.69	2969.55
445.89	3493.83
446.09	2926.55
446.30	3135.44
446.50	3182.54
446.71	4655.03
446.91	5752.74
447.12	6545.31
447.32	6799.26
447.53	6692.76
447.73	5650.35
447.93	4976.56
448.14	4755.38
448.34	4822.97
448.55	3983.30
448.75	4042.69
448.96	3887.04
449.16	3694.54
449.36	3409.87
449.57	3008.47
449.77	2916.31
449.98	2965.46
450.18	3100.62
450.39	2777.05
450.59	3041.23
450.79	2987.99
451.00	2875.35
451.20	2987.99
451.41	2746.33
451.61	3092.43
451.81	2934.74
452.02	2834.39
452.22	2881.49
452.43	2934.74
452.63	2824.15
452.84	2818.00
453.04	2750.42
453.24	2949.08
453.45	2856.92
453.65	2832.34
453.86	2949.08
454.06	2975.70
454.26	3024.85
454.47	2797.53
454.67	2977.75
454.87	3094.48
455.08	2926.55
455.28	2961.36
455.49	2918.36
455.69	2820.05
455.89	3295.18
456.10	2957.27
456.30	2727.89
456.51	3028.95
456.71	3049.43
456.91	2926.55
457.12	2869.20
457.32	3162.06
457.52	2779.09
457.73	2947.03
457.93	2981.84
458.14	2949.08
458.34	2719.70
458.54	2795.48
458.75	2834.39
458.95	3125.20
459.15	3051.47
459.36	2881.49
459.56	2885.59
459.76	3438.54
459.97	2912.21
460.17	2805.72
460.37	2967.51
460.58	3071.95
460.78	3213.26
460.99	2897.88
461.19	2875.35
461.39	2940.88
461.60	2998.23
461.80	2885.59
462.00	2736.09
462.21	3000.27
462.41	2881.49
462.61	2635.74
462.82	2678.74
463.02	3117.01
463.22	3033.04
463.43	2879.44
463.63	2795.48
463.83	3196.88
464.04	3028.95
464.24	2791.38
464.44	2842.58
464.64	3063.76
464.85	3188.69
465.05	2961.36
465.25	2797.53
465.46	2930.64
465.66	3033.04
465.86	2957.27
466.07	2815.96
466.27	3000.27
466.47	2772.95
466.68	2721.75
466.88	2949.08
467.08	3092.43
467.29	3160.02
467.49	2852.82
467.69	2897.88
467.89	3061.71
468.10	2942.93
468.30	2926.55
468.50	2971.60
468.71	3137.49
468.91	2760.66
469.11	3090.38
469.31	2930.64
469.52	2844.63
469.72	3309.52
469.92	3139.54
470.13	2863.06
470.33	3024.85
470.53	2981.84
470.73	3205.07
470.94	3497.93
471.14	3540.94
471.34	4106.18
471.54	3825.61
471.75	3551.18
471.95	3362.76
472.15	3346.38
472.36	3336.14
472.56	3203.02
472.76	3434.44
472.96	3284.94
473.17	3096.53
473.37	2983.89
473.57	2949.08
473.77	3051.47
473.98	2967.51
474.18	2760.66
474.38	3575.75
474.58	2942.93
474.79	2723.80
474.99	2963.41
475.19	3182.54
475.39	2781.14
475.60	2842.58
475.80	2809.81
476.00	2992.08
476.20	2967.51
476.41	2981.84
476.61	2904.02
476.81	3211.22
477.01	2936.79
477.21	3041.23
477.42	2959.31
477.62	2779.09
477.82	3047.38
478.02	2772.95
478.23	2918.36
478.43	2781.14
478.63	2885.59
478.83	2899.92
479.03	2897.88
479.24	3229.65
479.44	3346.38
479.64	2803.67
479.84	2650.07
480.04	2914.26
480.25	3219.41
480.45	2834.39
480.65	2781.14
480.85	3350.48
481.06	2883.54
481.26	2873.30
481.46	2848.72
481.66	3076.05
481.86	2852.82
482.06	2979.79
482.27	2979.79
482.47	2920.40
482.67	3065.81
482.87	2871.25
483.07	2934.74
483.28	2949.08
483.48	2805.72
483.68	2869.20
483.88	2678.74
484.08	2652.12
484.29	2861.01
484.49	2889.68
484.69	2705.37
484.89	3250.13
485.09	3133.39
485.29	2949.08
485.50	3049.43
485.70	2879.44
485.90	3221.45
486.10	3004.37
486.30	2846.68
486.50	3198.93
486.71	3026.90
486.91	3010.51
487.11	2930.64
487.31	2824.15
487.51	3041.23
487.71	2801.62
487.91	2772.95
488.12	2912.21
488.32	2613.21
488.52	2891.73
488.72	2658.26
488.92	3096.53
489.12	3071.95
489.32	3012.56
489.53	2858.96
489.73	2688.98
489.93	3221.45
490.13	2867.16
490.33	2713.56
490.53	3098.58
490.73	3137.49
490.94	2772.95
491.14	2916.31
491.34	3094.48
491.54	3164.11
491.74	3600.33
491.94	4128.70
492.14	4585.40
492.34	4661.18
492.54	4458.43
492.75	3766.21
492.95	3887.04
493.15	3700.68
493.35	3573.71
493.55	3360.72
493.75	3346.38
493.95	3469.26
494.15	3100.62
494.35	2928.60
494.56	2963.41
494.76	2770.90
494.96	2936.79
495.16	2779.09
495.36	2957.27
495.56	3024.85
495.76	2844.63
495.96	2723.80
496.16	2805.72
496.36	3334.09
496.56	2834.39
496.77	2934.74
496.97	2979.79
497.17	3321.81
497.37	2703.32
497.57	2963.41
497.77	2994.13
497.97	2840.53
498.17	2963.41
498.37	2861.01
498.57	3069.91
498.77	2998.23
498.97	2977.75
499.17	3139.54
499.38	2967.51
499.58	3028.95
499.78	2942.93
499.98	2967.51
500.18	2996.18
500.38	2863.06
500.58	3076.05
500.78	3260.37
500.98	5435.31
501.18	7255.95
501.38	8732.54
501.58	9664.36
501.78	9537.39
501.98	7860.10
502.18	6703.00
502.38	5777.32
502.58	5648.30
502.78	5021.62
502.98	4734.90
503.18	4700.09
503.38	4270.01
503.59	3811.27
503.79	3643.34
503.99	3454.92
504.19	3426.25
504.39	3422.16
504.59	3258.32
504.79	3274.70
504.99	3483.59
505.19	3139.54
505.39	3090.38
505.59	3207.12
505.79	3315.66
505.99	3235.79
506.19	2889.68
506.39	3037.14
506.59	2922.45
506.79	2904.02
506.99	3004.37
507.19	2811.86
507.39	3030.99
507.59	2772.95
507.79	2840.53
507.99	2807.77
508.19	2979.79
508.39	2838.48
508.59	2820.05
508.79	3016.66
508.99	3276.75
509.19	2887.64
509.39	2895.83
509.59	2820.05
509.79	2871.25
509.99	2955.22
510.19	2961.36
510.39	2967.51
510.59	3020.75
510.79	2881.49
510.99	2725.85
511.19	2803.67
511.39	3215.31
511.59	3030.99
511.79	2932.69
511.99	2914.26
512.19	3379.15
512.38	2840.53
512.58	2795.48
512.78	2787.29
512.98	3114.96
513.18	3274.70
513.38	2705.37
513.58	2971.60
513.78	2955.22
513.98	2926.55
514.18	2881.49
514.38	2828.24
514.58	3047.38
514.78	2893.78
514.98	2760.66
515.18	2836.44
515.38	2758.61
515.58	3289.04
515.78	2836.44
515.98	2897.88
516.18	3065.81
516.38	2977.75
516.57	2777.05
516.77	2775.00
516.97	3139.54
517.17	2861.01
517.37	2705.37
517.57	2904.02
517.77	2918.36
517.97	2869.20
518.17	2877.40
518.37	2742.23
518.57	2846.68
518.77	2861.01
518.97	2899.92
519.16	2928.60
519.36	3303.37
519.56	2904.02
519.76	2873.30
519.96	2830.29
520.16	3233.74
520.36	2793.43
520.56	3000.27
520.76	2844.63
520.96	2971.60
521.16	3082.19
521.35	3041.23
521.55	2985.94
521.75	2985.94
521.95	2942.93
522.15	2799.57
522.35	2645.98
522.55	2844.63
522.75	3104.72
522.95	2785.24
523.14	2650.07
523.34	3108.82
523.54	2947.03
523.74	2942.93
523.94	2889.68
524.14	2707.41
524.34	2987.99
524.54	3051.47
524.73	2897.88
524.93	3162.06
525.13	3020.75
525.33	2785.24
525.53	3049.43
525.73	3035.09
525.93	3008.47
526.13	2803.67
526.32	2809.81
526.52	3174.35
526.72	3153.87
526.92	2863.06
527.12	2795.48
527.32	2758.61
527.52	3082.19
527.71	2867.16
527.91	2885.59
528.11	2912.21
528.31	2987.99
528.51	2734.04
528.71	3030.99
528.90	3039.19
529.10	3141.58
529.30	2955.22
529.50	2602.97
529.70	3028.95
529.90	3002.32
530.09	2867.16
530.29	2682.84
530.49	2856.92
530.69	3526.60
530.89	2879.44
531.09	3000.27
531.28	2863.06
531.48	3182.54
531.68	2877.40
531.88	2869.20
532.08	3153.87
532.28	2934.74
532.47	3035.09
532.67	2932.69
532.87	3090.38
533.07	2846.68
533.27	2971.60
533.46	2895.83
533.66	3020.75
533.86	2891.73
534.06	2820.05
534.26	2854.87
534.45	2887.64
534.65	3104.72
534.85	2912.21
535.05	2711.51
535.25	3211.22
535.44	2729.94
535.64	2926.55
535.84	2877.40
536.04	2918.36
536.24	2865.11
536.43	2856.92
536.63	2764.76
536.83	3045.33
537.03	2947.03
537.22	2645.98
537.42	2623.45
537.62	3030.99
537.82	2877.40
538.02	3041.23
538.21	2977.75
538.41	3479.50
538.61	3063.76
538.81	2842.58
539.00	2979.79
539.20	2699.22
539.40	2985.94
539.60	2942.93
539.79	3071.95
539.99	2975.70
540.19	2842.58
540.39	2858.96
540.58	2881.49
540.78	3180.50
540.98	3008.47
541.18	3033.04
541.37	2955.22
541.57	3004.37
541.77	3039.19
541.97	2820.05
542.16	2691.03
542.36	2906.07
542.56	3129.30
542.76	3082.19
542.95	2963.41
543.15	3108.82
543.35	3117.01
543.54	2752.47
543.74	2822.10
543.94	3174.35
544.14	2924.50
544.33	2930.64
544.53	2830.29
544.73	2891.73
544.93	2910.16
545.12	2891.73
545.32	2791.38
545.52	2934.74
545.71	2744.28
545.91	2828.24
546.11	2791.38
546.30	2793.43
546.50	3010.51
546.70	2963.41
546.90	2887.64
547.09	2750.42
547.29	3018.71
547.49	3000.27
547.68	2879.44
547.88	2904.02
548.08	3100.62
548.27	3252.17
548.47	2832.34
548.67	2826.20
548.87	3010.51
549.06	2811.86
549.26	2758.61
549.46	3078.10
549.65	2885.59
549.85	2875.35
550.05	2955.22
550.24	2877.40
550.44	2983.89
550.64	2899.92
550.83	2850.77
551.03	3186.64
551.23	3123.15
551.42	3049.43
551.62	2811.86
551.82	3020.75
552.01	2914.26
552.21	3168.21
552.41	2930.64
552.60	3186.64
552.80	3039.19
553.00	2775.00
553.19	2908.12
553.39	3293.13
553.59	2805.72
553.78	3043.28
553.98	2824.15
554.17	2760.66
554.37	3082.19
554.57	2998.23
554.76	2598.87
554.96	2981.84
555.16	2979.79
555.35	2901.97
555.55	3035.09
555.75	2973.65
555.94	3086.29
556.14	2723.80
556.33	2867.16
556.53	2940.88
556.73	2953.17
556.92	2891.73
557.12	2858.96
557.32	3377.10
557.51	3229.65
557.71	2877.40
557.90	3106.77
558.10	3215.31
558.30	2895.83
558.49	2881.49
558.69	2822.10
558.88	3106.77
559.08	3039.19
559.28	2846.68
559.47	2918.36
559.67	3055.57
559.86	3309.52
560.06	2908.12
560.26	2838.48
560.45	2973.65
560.65	2942.93
560.84	3092.43
561.04	2746.33
561.24	3043.28
561.43	2783.19
561.63	3098.58
561.82	3018.71
562.02	3096.53
562.22	2897.88
562.41	2768.85
562.61	2799.57
562.80	2801.62
563.00	3514.31
563.19	2895.83
563.39	2990.03
563.59	3106.77
563.78	2824.15
563.98	2658.26
564.17	2795.48
564.37	2672.60
564.56	2922.45
564.76	2731.99
564.96	2965.46
565.15	3080.14
565.35	3469.26
565.54	2828.24
565.74	2881.49
565.93	3071.95
566.13	3004.37
566.32	2873.30
566.52	2992.08
566.71	3026.90
566.91	3172.30
567.11	2951.12
567.30	2828.24
567.50	3078.10
567.69	3020.75
567.89	2824.15
568.08	2844.63
568.28	2994.13
568.47	2811.86
568.67	2850.77
568.86	2846.68
569.06	3110.86
569.25	2895.83
569.45	2756.57
569.64	2928.60
569.84	2965.46
570.04	3065.81
570.23	2762.71
570.43	2873.30
570.62	3071.95
570.82	3180.50
571.01	2746.33
571.21	2826.20
571.40	2826.20
571.60	3108.82
571.79	2942.93
571.99	2893.78
572.18	2768.85
572.38	3129.30
572.57	2914.26
572.77	2973.65
572.96	3487.69
573.16	3047.38
573.35	2873.30
573.55	3010.51
573.74	3008.47
573.94	2885.59
574.13	2850.77
574.33	3026.90
574.52	3137.49
574.71	2963.41
574.91	2930.64
575.10	2738.13
575.30	2947.03
575.49	2881.49
575.69	2822.10
575.88	2850.77
576.08	2906.07
576.27	3123.15
576.47	2811.86
576.66	3088.34
576.86	3237.84
577.05	2983.89
577.25	2867.16
577.44	3104.72
577.64	2990.03
577.83	3182.54
578.02	2887.64
578.22	3020.75
578.41	3246.03
578.61	2963.41
578.80	2717.65
579.00	2926.55
579.19	2973.65
579.39	3026.90
579.58	2930.64
579.77	2918.36
579.97	3209.17
580.16	3102.67
580.36	3082.19
580.55	2924.50
580.75	3026.90
580.94	3037.14
581.13	3057.62
581.33	3092.43
581.52	2998.23
581.72	3336.14
581.91	3100.62
582.11	2760.66
582.30	3129.30
582.49	3053.52
582.69	3170.26
582.88	3000.27
583.08	3024.85
583.27	3147.73
583.47	2936.79
583.66	2807.77
583.85	2764.76
584.05	2967.51
584.24	2996.18
584.44	2904.02
584.63	3119.06
584.82	3239.89
585.02	3180.50
585.21	3041.23
585.41	3016.66
585.60	2998.23
585.79	2947.03
585.99	3121.10
586.18	3010.51
586.37	3774.41
586.57	5849.00
586.76	16504.58
586.96	35538.40
587.15	48555.29
587.34	56728.73
587.54	60689.51
587.73	54344.90
587.93	38559.16
588.12	29673.02
588.31	24229.52
588.51	21208.76
588.70	19392.22
588.89	17219.32
589.09	14653.22
589.28	12400.45
589.47	9881.45
589.67	7579.53
589.86	5889.96
590.06	4603.83
590.25	4020.16
590.44	3567.56
590.64	3151.82
590.83	3278.80
591.02	3272.65
591.22	2889.68
591.41	3030.99
591.60	2971.60
591.80	3418.06
591.99	2725.85
592.18	2828.24
592.38	3168.21
592.57	2928.60
592.76	2893.78
592.96	2877.40
593.15	2926.55
593.34	3203.02
593.54	2828.24
593.73	2934.74
593.92	3039.19
594.12	3078.10
594.31	2932.69
594.50	3024.85
594.70	3092.43
594.89	3475.40
595.08	2740.18
595.28	2932.69
595.47	3567.56
595.66	3178.45
595.86	2731.99
596.05	2836.44
596.24	2961.36
596.43	3192.78
596.63	3045.33
596.82	3035.09
597.01	3092.43
597.21	3293.13
597.40	2877.40
597.59	2826.20
597.79	2959.31
597.98	3078.10
598.17	2934.74
598.36	2928.60
598.56	3065.81
598.75	2963.41
598.94	2924.50
599.14	2981.84
599.33	2891.73
599.52	3141.58
599.71	2924.50
599.91	2822.10
600.10	3135.44
600.29	2971.60
600.48	2990.03
600.68	3008.47
600.87	3098.58
601.06	2885.59
601.26	2928.60
601.45	2969.55
601.64	2834.39
601.83	3268.56
602.03	2713.56
602.22	2846.68
602.41	3147.73
602.60	3442.64
602.80	2957.27
602.99	2942.93
603.18	2875.35
603.37	3055.57
603.57	2846.68
603.76	2918.36
603.95	3106.77
604.14	2906.07
604.34	2805.72
604.53	2828.24
604.72	3112.91
604.91	3106.77
605.10	2930.64
605.30	2772.95
605.49	3399.63
605.68	3131.34
605.87	2865.11
606.07	2742.23
606.26	2987.99
606.45	3131.34
606.64	2879.44
606.84	2848.72
607.03	3041.23
607.22	3207.12
607.41	2910.16
607.60	2867.16
607.80	3137.49
607.99	3049.43
608.18	2861.01
608.37	2867.16
608.56	2858.96
608.76	3280.85
608.95	3065.81
609.14	2897.88
609.33	3186.64
609.52	3280.85
609.72	2897.88
609.91	2922.45
610.10	3037.14
610.29	3231.69
610.48	2887.64
610.68	2992.08
610.87	2936.79
611.06	3139.54
611.25	2885.59
611.44	3008.47
611.63	2863.06
611.83	3178.45
612.02	2775.00
612.21	3106.77
612.40	2674.65
612.59	2772.95
612.79	2766.81
612.98	2885.59
613.17	3205.07
613.36	2996.18
613.55	3008.47
613.74	2805.72
613.93	2957.27
614.13	3061.71
614.32	2973.65
614.51	2865.11
614.70	3000.27
614.89	2942.93
615.08	2965.46
615.28	3213.26
615.47	2756.57
615.66	3067.86
615.85	2922.45
616.04	2967.51
616.23	2910.16
616.42	2934.74
616.62	2863.06
616.81	2906.07
617.00	3047.38
617.19	3049.43
617.38	2834.39
617.57	2910.16
617.76	3065.81
617.95	2996.18
618.15	3045.33
618.34	3051.47
618.53	2768.85
618.72	3180.50
618.91	2994.13
619.10	3037.14
619.29	3030.99
619.48	2928.60
619.68	2766.81
619.87	2801.62
620.06	2766.81
620.25	3141.58
620.44	2830.29
620.63	2801.62
620.82	3069.91
621.01	2955.22
621.20	2873.30
621.39	2975.70
621.59	3049.43
621.78	3010.51
621.97	2789.33
622.16	2990.03
622.35	3065.81
622.54	3131.34
622.73	2949.08
622.92	2701.27
623.11	3160.02
623.30	2951.12
623.49	3014.61
623.68	2787.29
623.88	3194.83
624.07	2856.92
624.26	2844.63
624.45	2844.63
624.64	2949.08
624.83	3080.14
625.02	2897.88
625.21	2924.50
625.40	3106.77
625.59	3217.36
625.78	2955.22
625.97	2953.17
626.16	3227.60
626.35	3096.53
626.54	2955.22
626.74	3059.67
626.93	2947.03
627.12	2875.35
627.31	3006.42
627.50	2904.02
627.69	3176.40
627.88	2852.82
628.07	2691.03
628.26	2738.13
628.45	2836.44
628.64	2787.29
628.83	2885.59
629.02	2697.17
629.21	3127.25
629.40	3024.85
629.59	2797.53
629.78	2760.66
629.97	2959.31
630.16	2949.08
630.35	2891.73
630.54	2916.31
630.73	2944.98
630.92	2973.65
631.11	2779.09
631.30	2944.98
631.49	3147.73
631.68	2930.64
631.87	2852.82
632.06	2828.24
632.25	3393.48
632.44	3000.27
632.63	2953.17
632.82	2846.68
633.01	2916.31
633.20	3004.37
633.39	2813.91
633.58	2711.51
633.77	3123.15
633.96	3020.75
634.15	3008.47
634.34	2973.65
634.53	3078.10
634.72	2850.77
634.91	2729.94
635.10	2801.62
635.29	3129.30
635.48	3006.42
635.67	2729.94
635.86	2779.09
636.05	3319.76
636.24	2934.74
636.43	2858.96
636.62	2963.41
636.81	2639.83
637.00	3002.32
637.19	2899.92
637.38	2836.44
637.57	2852.82
637.76	2922.45
637.95	3045.33
638.14	2822.10
638.33	3041.23
638.52	2916.31
638.71	2645.98
638.89	2729.94
639.08	3473.36
639.27	3174.35
639.46	3047.38
639.65	3368.91
639.84	3332.05
640.03	3518.41
640.22	3213.26
640.41	3172.30
640.60	3014.61
640.79	3088.34
640.98	2949.08
641.17	3131.34
641.36	3086.29
641.55	3080.14
641.74	2738.13
641.92	2820.05
642.11	2832.34
642.30	2985.94
642.49	2793.43
642.68	2820.05
642.87	3033.04
643.06	3114.96
643.25	2748.37
643.44	2703.32
643.63	2936.79
643.82	3182.54
644.00	2674.65
644.19	2922.45
644.38	2840.53
644.57	3092.43
644.76	2904.02
644.95	2971.60
645.14	3004.37
645.33	2967.51
645.52	2881.49
645.71	2686.94
645.89	2822.10
646.08	2928.60
646.27	2797.53
646.46	3131.34
646.65	2754.52
646.84	3037.14
647.03	2717.65
647.22	3012.56
647.40	3000.27
647.59	2906.07
647.78	2697.17
647.97	2836.44
648.16	2799.57
648.35	3178.45
648.54	3053.52
648.73	2805.72
648.91	3147.73
649.10	3035.09
649.29	2836.44
649.48	2826.20
649.67	3049.43
649.86	2947.03
650.05	2871.25
650.23	2994.13
650.42	2938.84
650.61	3172.30
650.80	3106.77
650.99	3125.20
651.18	3121.10
651.36	3186.64
651.55	2818.00
651.74	3002.32
651.93	3039.19
652.12	2975.70
652.31	2809.81
652.49	2891.73
652.68	2963.41
652.87	3241.93
653.06	2951.12
653.25	3078.10
653.44	2985.94
653.62	3194.83
653.81	2869.20
654.00	2942.93
654.19	3155.92
654.38	3442.64
654.56	2949.08
654.75	2820.05
654.94	3049.43
655.13	3002.32
655.32	2908.12
655.51	2934.74
655.69	2916.31
655.88	3037.14
656.07	2805.72
656.26	2914.26
656.45	2756.57
656.63	3016.66
656.82	2881.49
657.01	3119.06
657.20	2877.40
657.38	3198.93
657.57	2861.01
657.76	2658.26
657.95	3141.58
658.14	2961.36
658.32	2934.74
658.51	2754.52
658.70	3074.00
658.89	2990.03
659.08	2914.26
659.26	3067.86
659.45	2916.31
659.64	3135.44
659.83	2834.39
660.01	3213.26
660.20	2998.23
660.39	3258.32
660.58	2627.54
660.76	2891.73
660.95	2770.90
661.14	3028.95
661.33	2693.08
661.51	2918.36
661.70	2901.97
661.89	3090.38
662.08	2881.49
662.26	2709.46
662.45	2775.00
662.64	3286.99
662.83	2942.93
663.01	2772.95
663.20	2901.97
663.39	3260.37
663.58	2834.39
663.76	2750.42
663.95	3057.62
664.14	2834.39
664.32	2809.81
664.51	2826.20
664.70	2699.22
664.89	3100.62
665.07	2770.90
665.26	3106.77
665.45	2738.13
665.64	3092.43
665.82	2807.77
666.01	3018.71
666.20	2725.85
666.38	3123.15
666.57	3194.83
666.76	4954.04
666.95	10897.24
667.13	17454.84
667.32	21325.50
667.51	24346.25
667.69	25015.94
667.88	21124.80
668.07	15204.12
668.25	12752.70
668.44	11190.10
668.63	9637.74
668.81	8570.75
669.00	7339.92
669.19	6567.84
669.38	5844.90
669.56	5001.14
669.75	4394.94
669.94	3979.20
670.12	3512.27
670.31	3196.88
670.50	3172.30
670.68	3182.54
670.87	3078.10
671.06	2766.81
671.24	2887.64
671.43	3319.76
671.62	2979.79
671.80	2895.83
671.99	2887.64
672.18	3008.47
672.36	3086.29
672.55	2951.12
672.74	2959.31
672.92	2865.11
673.11	3117.01
673.29	2662.36
673.48	2987.99
673.67	2971.60
673.85	3196.88
674.04	2742.23
674.23	2975.70
674.41	3268.56
674.60	2805.72
674.79	2686.94
674.97	2713.56
675.16	3143.63
675.34	3155.92
675.53	2793.43
675.72	2930.64
675.90	3319.76
676.09	2985.94
676.28	2975.70
676.46	2723.80
676.65	3065.81
676.83	2865.11
677.02	2947.03
677.21	2910.16
677.39	2940.88
677.58	2848.72
677.77	2875.35
677.95	2822.10
678.14	2830.29
678.32	2959.31
678.51	2879.44
678.70	3164.11
678.88	2953.17
679.07	3059.67
679.25	2904.02
679.44	2871.25
679.63	2826.20
679.81	3008.47
680.00	3010.51
680.18	2957.27
680.37	3262.41
680.55	2967.51
680.74	2672.60
680.93	2619.35
681.11	3012.56
681.30	2936.79
681.48	2883.54
681.67	2789.33
681.85	3008.47
682.04	2867.16
682.23	2949.08
682.41	2969.55
682.60	2998.23
682.78	2959.31
682.97	2775.00
683.15	2844.63
683.34	2961.36
683.53	3227.60
683.71	2727.89
683.90	2996.18
684.08	3274.70
684.27	2901.97
684.45	2918.36
684.64	3063.76
684.82	2996.18
685.01	3094.48
685.19	2910.16
685.38	3149.78
685.57	2977.75
685.75	2850.77
685.94	2779.09
686.12	2809.81
686.31	2971.60
686.49	3313.61
686.68	2629.59
686.86	2865.11
687.05	2926.55
687.23	3278.80
687.42	2910.16
687.60	2713.56
687.79	3110.86
687.97	3270.61
688.16	2938.84
688.34	3084.24
688.53	2695.13
688.71	3061.71
688.90	3033.04
689.08	2846.68
689.27	2695.13
689.45	3076.05
689.64	3014.61
689.82	2906.07
690.01	3069.91
690.19	2979.79
690.38	2994.13
690.56	3057.62
690.75	2865.11
690.93	2967.51
691.12	2787.29
691.30	2844.63
691.49	2920.40
691.67	2992.08
691.86	3198.93
692.04	2826.20
692.23	2918.36
692.41	2969.55
692.60	3151.82
692.78	3051.47
692.97	2994.13
693.15	3035.09
693.34	3133.39
693.52	3086.29
693.71	2965.46
693.89	2801.62
694.08	2738.13
694.26	3000.27
694.44	3092.43
694.63	3098.58
694.81	2770.90
695.00	2781.14
695.18	3262.41
695.37	3430.35
695.55	2904.02
695.74	2901.97
695.92	2914.26
696.10	3205.07
696.29	2691.03
696.47	2826.20
696.66	2770.90
696.84	2840.53
697.03	2852.82
697.21	3102.67
697.40	4388.80
697.58	3092.43
697.76	2836.44
697.95	2813.91
698.13	2742.23
698.32	2861.01
698.50	2899.92
698.68	2885.59
698.87	2940.88
699.05	3217.36
699.24	2887.64
699.42	2822.10
699.61	3092.43
699.79	2918.36
699.97	2914.26
700.16	2775.00
700.34	2799.57
700.53	3024.85
700.71	3112.91
700.89	2949.08
701.08	2908.12
701.26	2971.60
701.45	3246.03
701.63	2775.00
701.81	2869.20
702.00	2848.72
702.18	2934.74
702.37	2807.77
702.55	3203.02
702.73	2979.79
702.92	2836.44
703.10	3080.14
703.28	3104.72
703.47	2838.48
703.65	3106.77
703.84	2985.94
704.02	2838.48
704.20	3143.63
704.39	2805.72
704.57	2844.63
704.75	3205.07
704.94	3020.75
705.12	3000.27
705.30	3426.25
705.49	6686.62
705.67	12564.29
705.86	18102.00
706.04	20690.63
706.22	22988.45
706.41	21855.92
706.59	16729.86
706.77	13055.80
706.96	11425.62
707.14	10254.18
707.32	8957.82
707.51	7665.55
707.69	6422.43
707.87	5425.07
708.06	4480.96
708.24	3995.59
708.42	3624.90
708.61	3755.97
708.79	3014.61
708.97	3006.42
709.16	3069.91
709.34	3033.04
709.52	2885.59
709.71	2830.29
709.89	3125.20
710.07	2893.78
710.26	2729.94
710.44	2879.44
710.62	3186.64
710.80	3008.47
710.99	2994.13
711.17	2928.60
711.35	2822.10
711.54	2899.92
711.72	3065.81
711.90	2951.12
712.09	3039.19
712.27	2901.97
712.45	3039.19
712.63	2850.77
712.82	2992.08
713.00	3002.32
713.18	3024.85
713.37	3030.99
713.55	3147.73
713.73	3080.14
713.91	3010.51
714.10	2879.44
714.28	2998.23
714.46	3055.57
714.65	2901.97
714.83	2951.12
715.01	2998.23
715.19	3020.75
715.38	2805.72
715.56	2942.93
715.74	2764.76
715.92	2760.66
716.11	3102.67
716.29	2641.88
716.47	2994.13
716.65	2934.74
716.84	2760.66
717.02	2992.08
717.20	2600.92
717.38	2883.54
717.57	2983.89
717.75	2899.92
717.93	2899.92
718.11	3026.90
718.30	2699.22
718.48	2901.97
718.66	3178.45
718.84	3178.45
719.03	2906.07
719.21	2695.13
719.39	3358.67
719.57	3004.37
719.75	3008.47
719.94	2785.24
720.12	2871.25
720.30	2969.55
720.48	2949.08
720.67	2834.39
720.85	2844.63
721.03	2867.16
721.21	2770.90
721.39	2990.03
721.58	3080.14
721.76	2895.83
721.94	2889.68
722.12	2908.12
722.30	3256.27
722.49	2861.01
722.67	2885.59
722.85	2893.78
723.03	2824.15
723.21	2873.30
723.40	2906.07
723.58	3004.37
723.76	3059.67
723.94	3119.06
724.12	2916.31
724.30	3133.39
724.49	3164.11
724.67	2842.58
724.85	2983.89
725.03	2766.81
725.21	3084.24
725.40	3088.34
725.58	2867.16
725.76	3076.05
725.94	3082.19
726.12	2883.54
726.30	2936.79
726.49	2828.24
726.67	2920.40
726.85	3078.10
727.03	3436.49
727.21	4358.08
727.39	5488.56
727.57	5851.05
727.76	6236.06
727.94	6367.13
728.12	5574.57
728.30	4644.79
728.48	4450.24
728.66	4132.80
728.84	3950.53
729.03	3471.31
729.21	3334.09
729.39	3194.83
729.57	3147.73
729.75	3065.81
729.93	2936.79
730.11	2820.05
730.30	2906.07
730.48	2934.74
730.66	2965.46
730.84	2981.84
731.02	3006.42
731.20	2990.03
731.38	3033.04
731.56	2744.28
731.74	2799.57
731.93	2994.13
732.11	2949.08
732.29	2936.79
732.47	3110.86
732.65	3057.62
732.83	3100.62
733.01	3065.81
733.19	2926.55
733.37	3139.54
733.56	2910.16
733.74	2779.09
733.92	3200.98
734.10	2973.65
734.28	3074.00
734.46	2672.60
734.64	2963.41
734.82	2910.16
735.00	2850.77
735.18	2772.95
735.36	2985.94
735.54	2957.27
735.73	2871.25
735.91	2965.46
736.09	3327.95
736.27	2955.22
736.45	2979.79
736.63	2699.22
736.81	2920.40
736.99	3284.94
737.17	3074.00
737.35	2844.63
737.53	2983.89
737.71	2940.88
737.89	2996.18
738.07	2828.24
738.25	2834.39
738.43	2717.65
738.61	2834.39
738.80	2729.94
738.98	2906.07
739.16	2963.41
739.34	2680.79
739.52	3203.02
739.70	2914.26
739.88	3033.04
740.06	3055.57
740.24	2658.26
740.42	3184.59
740.60	2752.47
740.78	2848.72
740.96	2588.63
741.14	2955.22
741.32	2979.79
741.50	2770.90
741.68	3076.05
741.86	3190.74
742.04	2846.68
742.22	2801.62
742.40	2865.11
742.58	3033.04
742.76	2820.05
742.94	3125.20
743.12	2740.18
743.30	3092.43
743.48	3024.85
743.66	2818.00
743.84	2928.60
744.02	2949.08
744.20	2963.41
744.38	2785.24
744.56	2742.23
744.74	3291.09
744.92	3041.23
745.10	3102.67
745.28	2930.64
745.46	3303.37
745.64	2934.74
745.82	2940.88
746.00	2861.01
746.18	3074.00
746.36	2797.53
746.54	2936.79
746.72	2922.45
746.90	2803.67
747.08	3211.22
747.26	2863.06
747.44	2961.36
747.62	3129.30
747.80	3069.91
747.98	2938.84
748.15	2901.97
748.33	3311.57
748.51	2947.03
748.69	2934.74
748.87	2760.66
749.05	2951.12
749.23	2893.78
749.41	2838.48
749.59	2904.02
749.77	3166.16
749.95	2936.79
750.13	2797.53
750.31	2955.22
750.49	2981.84
750.67	3133.39
750.85	3088.34
751.03	2852.82
751.20	3309.52
751.38	2985.94
751.56	2877.40
751.74	2863.06
751.92	2953.17
752.10	2760.66
752.28	3055.57
752.46	2869.20
752.64	3041.23
752.82	2891.73
753.00	2996.18
753.18	2797.53
753.35	2961.36
753.53	3049.43
753.71	2775.00
753.89	2920.40
754.07	3069.91
754.25	3121.10
754.43	2951.12
754.61	2818.00
754.79	3084.24
754.97	2891.73
755.14	3071.95
755.32	2750.42
755.50	3041.23
755.68	3002.32
755.86	2830.29
756.04	2787.29
756.22	2645.98
756.40	3168.21
756.57	3043.28
756.75	2768.85
756.93	3147.73
757.11	3235.79
757.29	2725.85
757.47	2766.81
757.65	2711.51
757.82	2662.36
758.00	2740.18
758.18	2770.90
758.36	2820.05
758.54	3217.36
758.72	2662.36
758.90	3026.90
759.07	3092.43
759.25	2826.20
759.43	2944.98
759.61	2635.74
759.79	4270.01
759.97	3155.92
760.15	2805.72
760.32	2750.42
760.50	3065.81
760.68	3243.98
760.86	2717.65
761.04	3049.43
761.22	3092.43
761.39	2867.16
761.57	2924.50
761.75	2766.81
761.93	3143.63
762.11	2975.70
762.28	2969.55
762.46	2818.00
762.64	3135.44
762.82	2691.03
763.00	2910.16
763.18	3039.19
763.35	2826.20
763.53	3010.51
763.71	2822.10
763.89	2789.33
764.07	3035.09
764.24	2975.70
764.42	2953.17
764.60	2858.96
764.78	3010.51
764.96	3127.25
765.13	2973.65
765.31	2815.96
765.49	3100.62
765.67	2789.33
765.84	2822.10
766.02	2861.01
766.20	2760.66
766.38	2996.18
766.56	2906.07
766.73	2985.94
766.91	3026.90
767.09	2996.18
767.27	2940.88
767.44	2742.23
767.62	3117.01
767.80	3020.75
767.98	2822.10
768.15	2850.77
768.33	3157.97
768.51	3055.57
768.69	3020.75
768.87	2846.68
769.04	2975.70
769.22	3508.17
769.40	3092.43
769.58	3074.00
769.75	3024.85
769.93	3155.92
770.11	2887.64
770.28	2801.62
770.46	3071.95
770.64	3086.29
770.82	2826.20
770.99	2828.24
771.17	3037.14
771.35	2916.31
771.53	2979.79
771.70	2820.05
771.88	3069.91
772.06	3041.23
772.23	2832.34
772.41	2854.87
772.59	2953.17
772.77	2779.09
772.94	2834.39
773.12	2828.24
773.30	2885.59
773.47	3002.32
773.65	2805.72
773.83	3057.62
774.01	2957.27
774.18	2734.04
774.36	2828.24
774.54	2740.18
774.71	3114.96
774.89	2758.61
775.07	2764.76
775.24	2803.67
775.42	2895.83
775.60	3321.81
775.78	2754.52
775.95	2768.85
776.13	2797.53
776.31	2713.56
776.48	3016.66
776.66	3100.62
776.84	2967.51
777.01	2838.48
777.19	2856.92
777.37	2777.05
777.54	3102.67
777.72	3340.24
777.90	2897.88
778.07	2772.95
778.25	3577.80
778.43	3170.26
778.60	2785.24
778.78	2934.74
778.96	3209.17
779.13	2779.09
779.31	3024.85
779.49	2867.16
779.66	3117.01
779.84	2932.69
780.01	2875.35
780.19	2811.86
780.37	3239.89
780.54	2996.18
780.72	2666.46
780.90	2836.44
781.07	2910.16
781.25	2873.30
781.43	3002.32
781.60	2836.44
781.78	3200.98
781.95	3067.86
782.13	2869.20
782.31	2887.64
782.48	2652.12
782.66	2904.02
782.83	3125.20
783.01	2969.55
783.19	3106.77
783.36	2930.64
783.54	2766.81
783.72	2969.55
783.89	2920.40
784.07	2969.55
784.24	2994.13
784.42	3094.48
784.60	3084.24
784.77	2951.12
784.95	2570.20
785.12	2793.43
785.30	3016.66
785.47	2858.96
785.65	2797.53
785.83	2949.08
786.00	2893.78
786.18	3008.47
786.35	2731.99
786.53	2727.89
786.71	3170.26
786.88	3104.72
787.06	2887.64
787.23	2901.97
787.41	2748.37
787.58	2901.97
787.76	2719.70
787.94	2914.26
788.11	3035.09
788.29	2828.24
788.46	2783.19
788.64	2631.64
788.81	2947.03
788.99	2824.15
789.16	2818.00
789.34	2875.35
789.52	2889.68
789.69	2852.82
789.87	2652.12
790.04	2885.59
790.22	2967.51
790.39	3213.26
790.57	2768.85
790.74	2799.57
790.92	3119.06
791.09	2766.81
791.27	2904.02
791.44	2990.03
791.62	2891.73
791.79	3078.10
791.97	2901.97
792.15	3168.21
792.32	3053.52
792.50	3049.43
792.67	3090.38
792.85	3153.87
793.02	3037.14
793.20	2906.07
793.37	2760.66
793.55	2752.47
793.72	2818.00
793.90	3104.72
794.07	2846.68
794.25	2725.85
794.42	2961.36
794.60	2934.74
794.77	2987.99
794.95	3051.47
795.12	3143.63
795.30	2926.55
795.47	2631.64
795.65	3121.10
795.82	3076.05
796.00	2840.53
796.17	2922.45
796.34	2797.53
796.52	3078.10
796.69	3112.91
796.87	3016.66
797.04	2955.22
797.22	3088.34
797.39	3006.42
797.57	2979.79
797.74	2967.51
797.92	2987.99
798.09	2912.21
798.27	3180.50
798.44	2779.09
798.62	2875.35
798.79	2973.65
798.96	2947.03
799.14	2797.53
799.31	3397.58
799.49	2998.23
799.66	2791.38
799.84	2912.21
800.01	2766.81
800.19	2979.79
800.36	2666.46
800.53	2934.74
800.71	3053.52
800.88	3215.31
801.06	2887.64
801.23	2830.29
801.41	2863.06
801.58	2828.24
801.75	2838.48
801.93	2979.79
802.10	3088.34
802.28	2901.97
802.45	2822.10
802.63	2910.16
802.80	3235.79
802.97	2885.59
803.15	2807.77
803.32	2760.66
803.50	2807.77
803.67	2824.15
803.84	2801.62
804.02	2951.12
804.19	2914.26
804.37	2598.87
804.54	2697.17
804.71	2813.91
804.89	2965.46
805.06	2889.68
805.24	2684.89
805.41	2756.57
805.58	2783.19
805.76	3434.44
805.93	2836.44
806.10	2959.31
806.28	3026.90
806.45	3004.37
806.63	2891.73
806.80	2918.36
806.97	2963.41
807.15	3053.52
807.32	2992.08
807.49	2881.49
807.67	2797.53
807.84	3024.85
808.01	2691.03
808.19	3088.34
808.36	3354.57
808.54	2936.79
808.71	2830.29
808.88	2820.05
809.06	3262.41
809.23	3254.22
809.40	2836.44
809.58	2975.70
809.75	2955.22
809.92	2760.66
810.10	3096.53
810.27	2850.77
810.44	3076.05
810.62	3139.54
810.79	2889.68
810.96	2901.97
811.14	2922.45
811.31	2981.84
811.48	2992.08
811.66	2877.40
811.83	3266.51
812.00	3014.61
812.18	2973.65
812.35	3174.35
812.52	2910.16
812.69	2883.54
812.87	2832.34
813.04	2785.24
813.21	2924.50
813.39	2838.48
813.56	2779.09
813.73	3137.49
813.91	2762.71
814.08	2949.08
814.25	2785.24
814.42	2699.22
814.60	2916.31
814.77	3030.99
814.94	2871.25
815.12	2932.69
815.29	3241.93
815.46	2793.43
815.63	2863.06
815.81	2856.92
815.98	2957.27
816.15	2910.16
816.33	2926.55
816.50	2818.00
816.67	2979.79
816.84	2918.36
817.02	2787.29
817.19	2826.20
817.36	2985.94
817.53	3016.66
817.71	2760.66
817.88	2920.40
818.05	2979.79
818.22	2922.45
818.40	3022.80
818.57	2787.29
818.74	3022.80
818.91	3012.56
819.09	3071.95
819.26	3006.42
819.43	2879.44
819.60	2828.24
819.78	3026.90
819.95	2992.08
820.12	2789.33
820.29	3241.93
820.47	3092.43
820.64	2777.05
820.81	2674.65
820.98	2805.72
821.15	2820.05
821.33	3053.52
821.50	2740.18
821.67	3024.85
821.84	2848.72
822.02	2949.08
822.19	3004.37
822.36	2889.68
822.53	2723.80
822.70	2668.50
822.88	2985.94
823.05	3246.03
823.22	3002.32
823.39	2947.03
823.56	2992.08
823.74	3315.66
823.91	2791.38
824.08	2697.17
824.25	2777.05
824.42	3166.16
824.60	2697.17
824.77	2959.31
824.94	2887.64
825.11	3069.91
825.28	2731.99
825.45	3051.47
825.63	3039.19
825.80	2783.19
825.97	3059.67
826.14	2879.44
826.31	2676.70
826.48	3045.33
826.66	2818.00
826.83	2797.53
827.00	2897.88
827.17	2781.14
827.34	2877.40
827.51	2783.19
827.69	2883.54
827.86	2750.42
828.03	2987.99
828.20	2904.02
828.37	2858.96
828.54	2944.98
828.71	2789.33
828.89	3012.56
829.06	3080.14
829.23	3254.22
829.40	2820.05
829.57	2797.53
829.74	3061.71
829.91	2758.61
830.09	2717.65
830.26	3014.61
830.43	3166.16
830.60	2924.50
830.77	3006.42
830.94	3045.33
831.11	3184.59
831.28	2926.55
831.46	3010.51
831.63	2854.87
831.80	3082.19
831.97	2889.68
832.14	2842.58
832.31	2850.77
832.48	3088.34
832.65	3180.50
832.82	2983.89
832.99	2961.36
833.17	2881.49
833.34	3211.22
833.51	2891.73
833.68	2588.63
833.85	3108.82
834.02	2789.33
834.19	2815.96
834.36	2861.01
834.53	3008.47
834.70	3215.31
834.87	2930.64
835.04	2660.31
835.22	2916.31
835.39	2881.49
835.56	2750.42
835.73	2711.51
835.90	3143.63
836.07	2852.82
836.24	2899.92
836.41	2695.13
836.58	2756.57
836.75	3174.35
836.92	2770.90
837.09	2652.12
837.26	3137.49
837.43	2985.94
837.60	2830.29
837.77	2697.17
837.94	3141.58
838.12	3137.49
838.29	2617.30
838.46	2668.50
838.63	2844.63
838.80	3170.26
838.97	2867.16
839.14	2578.39
839.31	3012.56
839.48	3100.62
839.65	2688.98
839.82	2904.02
839.99	2930.64
840.16	3002.32
840.33	2734.04
840.50	2707.41
840.67	2807.77
840.84	2521.05
841.01	2678.74
841.18	2680.79
841.35	2981.84
841.52	3096.53
841.69	2994.13
841.86	2727.89
842.03	2897.88
842.20	3139.54
842.37	2744.28
842.54	2873.30
842.71	2985.94
842.88	2707.41
843.05	2691.03
843.22	2727.89
843.39	3100.62
843.56	2867.16
843.73	2711.51
843.90	2736.09
844.07	2934.74
844.24	3162.06
844.41	2856.92
844.58	2807.77
844.75	3020.75
844.92	3098.58
845.09	2795.48
845.26	2715.61
845.43	3108.82
845.60	2803.67
845.77	2916.31
845.94	2832.34
846.10	3106.77
846.27	2736.09
846.44	2684.89
846.61	2627.54
846.78	3104.72
846.95	3188.69
847.12	2701.27
847.29	2813.91
847.46	2748.37
847.63	3147.73
847.80	2654.17
847.97	2740.18
848.14	3434.44
848.31	2918.36
848.48	2596.82
848.65	2768.85
848.82	2783.19
848.98	3321.81
849.15	2848.72
849.32	2885.59
849.49	3203.02
849.66	2906.07
849.83	2756.57
850.00	2727.89
850.17	3074.00
850.34	2963.41
850.51	2770.90
850.68	2772.95
850.85	3381.20
851.01	2938.84
851.18	2674.65
851.35	2783.19
851.52	2996.18
851.69	3205.07
851.86	2652.12
852.03	2738.13
852.20	3014.61
852.37	3010.51
852.53	2674.65
852.70	2611.16
852.87	3008.47
853.04	3018.71
853.21	2715.61
853.38	2957.27
853.55	3196.88
853.72	3149.78
853.89	2617.30
854.05	2758.61
854.22	2908.12
854.39	2893.78
854.56	2660.31
854.73	2873.30
854.90	2807.77
855.07	2899.92
855.23	2635.74
855.40	2635.74
855.57	3018.71
855.74	2637.78
855.91	2869.20
856.08	2691.03
856.25	2750.42
856.41	2883.54
856.58	2695.13
856.75	2713.56
856.92	2764.76
857.09	3041.23
857.26	2570.20
857.42	2758.61
857.59	3051.47
857.76	2867.16
857.93	2756.57
858.10	2832.34
858.27	2744.28
858.43	3035.09
858.60	2660.31
858.77	2584.54
858.94	2844.63
859.11	3149.78
859.27	2709.46
859.44	2660.31
859.61	3327.95
859.78	3098.58
859.95	2781.14
860.12	2676.70
860.28	3368.91
860.45	3344.33
860.62	2658.26
860.79	2877.40
860.95	2922.45
861.12	2744.28
861.29	2693.08
861.46	2764.76
861.63	2967.51
861.79	3139.54
861.96	2621.40
862.13	2684.89
862.30	3266.51
862.47	2883.54
862.63	2637.78
862.80	2736.09
862.97	3086.29
863.14	2967.51
863.30	2746.33
863.47	2684.89
863.64	3256.27
863.81	2977.75
863.97	2619.35
864.14	2760.66
864.31	2891.73
864.48	2955.22
864.65	2688.98
864.81	2873.30
864.98	3018.71
865.15	3078.10
865.32	2731.99
865.48	2899.92
865.65	3278.80
865.82	2863.06
865.98	2869.20
866.15	2832.34
866.32	2985.94
866.49	2895.83
866.65	2861.01
866.82	2838.48
866.99	2891.73
867.16	2879.44
867.32	2770.90
867.49	2678.74
867.66	2940.88
867.83	2889.68
867.99	2674.65
868.16	2824.15
868.33	2766.81
868.49	2979.79
868.66	2711.51
868.83	2871.25
868.99	3051.47
869.16	2965.46
869.33	2926.55
869.50	2781.14
869.66	2947.03
869.83	2965.46
870.00	2578.39
870.16	2842.58
870.33	3016.66
870.50	3155.92
870.66	2822.10
870.83	2750.42
871.00	2971.60
871.17	3082.19
871.33	2842.58
871.50	2729.94
871.67	2987.99
871.83	2867.16
872.00	2877.40
872.17	2762.71
872.33	3348.43
872.50	3198.93
872.67	2695.13
872.83	2688.98
873.00	2992.08
873.17	2969.55
873.33	2772.95
873.50	2738.13
873.67	2824.15
873.83	2932.69
874.00	2758.61
874.16	2904.02
874.33	2973.65
874.50	2760.66
874.66	2707.41
874.83	2854.87
875.00	3129.30
875.16	3176.40
875.33	2805.72
875.50	2570.20
875.66	2891.73
875.83	3035.09
875.99	2826.20
876.16	2813.91
876.33	2836.44
876.49	2889.68
876.66	2820.05
876.83	2826.20
876.99	2736.09
877.16	2951.12
877.32	2674.65
877.49	2805.72
877.66	3024.85
877.82	3301.33
877.99	2799.57
878.15	3000.27
878.32	3041.23
878.49	3004.37
878.65	2676.70
878.82	3008.47
878.98	2795.48
879.15	3137.49
879.32	2891.73
879.48	2926.55
879.65	2863.06
879.81	2936.79
879.98	2762.71
880.15	2787.29
880.31	3080.14
880.48	2861.01
880.64	2822.10
880.81	2889.68
880.97	3293.13
881.14	3190.74
881.31	2664.41
881.47	2979.79
881.64	2889.68
881.80	2740.18
881.97	2932.69
882.13	2787.29
882.30	2764.76
882.47	2871.25
882.63	2742.23
882.80	2658.26
882.96	2949.08
883.13	3182.54
883.29	2717.65
883.46	2725.85
883.62	3375.05
883.79	2938.84
883.95	2852.82
884.12	2703.32
884.29	3149.78
884.45	2922.45
884.62	2760.66
884.78	2777.05
884.95	3219.41
885.11	2846.68
885.28	2852.82
885.44	2840.53
885.61	3157.97
885.77	3170.26
885.94	2877.40
886.10	2752.47
886.27	2922.45
886.43	3301.33
886.60	2893.78
886.76	2680.79
886.93	2815.96
887.09	3006.42
887.26	2617.30
887.42	2754.52
887.59	3182.54
887.75	3370.96
887.92	2895.83
888.08	2793.43
888.25	3405.77
888.41	3129.30
888.58	2807.77
888.74	2703.32
888.91	2863.06
>>>>>End Processed Spectral Data<<<<<
