SpectraSuite Data File
++++++++++++++++++++++++++++++++++++
Date: Thu May 05 21:11:21 CEST 2016
User: root
Dark Spectrum Present: No
Reference Spectrum Present: No
Number of Sampled Component Spectra: 1
Spectrometers: USB4C02835
Integration Time (usec): 100000 (USB4C02835)
Spectra Averaged: 1 (USB4C02835)
Boxcar Smoothing: 0 (USB4C02835)
Correct for Electrical Dark: No (USB4C02835)
Strobe/Lamp Enabled: No (USB4C02835)
Correct for Detector Non-linearity: No (USB4C02835)
Correct for Stray Light: No (USB4C02835)
Number of Pixels in Processed Spectrum: 3648
>>>>>Begin Processed Spectral Data<<<<<
177.47	2131.94
177.69	2131.94
177.91	2131.94
178.13	2133.98
178.36	2138.08
178.58	2750.42
178.80	2904.02
179.02	2781.14
179.24	2813.91
179.46	2594.78
179.68	2672.60
179.90	2922.45
180.13	2975.70
180.35	2584.54
180.57	2615.26
180.79	3088.34
181.01	2922.45
181.23	2652.12
181.45	2820.05
181.67	3074.00
181.90	3139.54
182.12	2703.32
182.34	2482.14
182.56	3117.01
182.78	3039.19
183.00	2666.46
183.22	2727.89
183.44	2639.83
183.66	3444.68
183.89	2824.15
184.11	2650.07
184.33	3160.02
184.55	3168.21
184.77	2717.65
184.99	2719.70
185.21	2822.10
185.43	3418.06
185.65	2754.52
185.87	2592.73
186.10	3325.90
186.32	3379.15
186.54	2738.13
186.76	2727.89
186.98	3131.34
187.20	2994.13
187.42	2764.76
187.64	2645.98
187.86	3084.24
188.08	3219.41
188.30	2600.92
188.52	2719.70
188.75	3203.02
188.97	3166.16
189.19	2676.70
189.41	2641.88
189.63	3033.04
189.85	2891.73
190.07	2588.63
190.29	2447.32
190.51	3033.04
190.73	2758.61
190.95	2842.58
191.17	2760.66
191.39	2664.41
191.61	2938.84
191.84	2697.17
192.06	2813.91
192.28	2750.42
192.50	3456.97
192.72	2768.85
192.94	2785.24
193.16	3168.21
193.38	3051.47
193.60	2619.35
193.82	2787.29
194.04	3063.76
194.26	3065.81
194.48	2705.37
194.70	2559.96
194.92	2924.50
195.14	3125.20
195.36	2699.22
195.58	2791.38
195.80	2916.31
196.02	2920.40
196.24	2697.17
196.46	2760.66
196.69	2832.34
196.91	3452.88
197.13	2811.86
197.35	2703.32
197.57	3278.80
197.79	3012.56
198.01	2697.17
198.23	2746.33
198.45	3110.86
198.67	2803.67
198.89	2607.06
199.11	2762.71
199.33	2836.44
199.55	2652.12
199.77	2734.04
199.99	2885.59
200.21	2975.70
200.43	2973.65
200.65	2588.63
200.87	2543.58
201.09	2914.26
201.31	2963.41
201.53	2775.00
201.75	2813.91
201.97	3028.95
202.19	2981.84
202.41	2766.81
202.63	2807.77
202.85	3110.86
203.07	3071.95
203.29	2754.52
203.51	2631.64
203.73	2893.78
203.95	3473.36
204.17	2680.79
204.39	2842.58
204.61	2963.41
204.83	2897.88
205.05	2842.58
205.27	2680.79
205.49	3407.82
205.71	3002.32
205.93	2582.49
206.15	2672.60
206.37	2967.51
206.59	2965.46
206.81	2512.86
207.03	2613.21
207.25	2893.78
207.47	3203.02
207.69	2766.81
207.91	2885.59
208.13	3291.09
208.34	2858.96
208.56	2639.83
208.78	2668.50
209.00	2916.31
209.22	2944.98
209.44	2723.80
209.66	2598.87
209.88	2983.89
210.10	3022.80
210.32	2627.54
210.54	2744.28
210.76	2996.18
210.98	3168.21
211.20	2512.86
211.42	2846.68
211.64	3254.22
211.86	3008.47
212.08	2729.94
212.30	2637.78
212.52	3012.56
212.74	3035.09
212.96	2713.56
213.17	2760.66
213.39	3131.34
213.61	3299.28
213.83	2678.74
214.05	2684.89
214.27	3178.45
214.49	2791.38
214.71	2617.30
214.93	2799.57
215.15	3030.99
215.37	3137.49
215.59	2545.63
215.81	2744.28
216.03	3207.12
216.24	2953.17
216.46	2695.13
216.68	2781.14
216.90	3110.86
217.12	3166.16
217.34	2635.74
217.56	2914.26
217.78	3223.50
218.00	3051.47
218.22	2758.61
218.44	2779.09
218.66	3053.52
218.87	3364.81
219.09	2723.80
219.31	2721.75
219.53	3049.43
219.75	2918.36
219.97	2729.94
220.19	2713.56
220.41	2975.70
220.63	3358.67
220.85	2801.62
221.06	2756.57
221.28	3143.63
221.50	3018.71
221.72	2662.36
221.94	2592.73
222.16	3080.14
222.38	3119.06
222.60	2633.69
222.82	2756.57
223.03	3037.14
223.25	2797.53
223.47	2684.89
223.69	2873.30
223.91	3108.82
224.13	2924.50
224.35	2594.78
224.57	2791.38
224.78	3131.34
225.00	2797.53
225.22	2740.18
225.44	2688.98
225.66	3139.54
225.88	2981.84
226.10	2848.72
226.32	2676.70
226.53	3289.04
226.75	2908.12
226.97	2731.99
227.19	2672.60
227.41	2861.01
227.63	2850.77
227.85	2484.19
228.06	2744.28
228.28	2996.18
228.50	3131.34
228.72	2613.21
228.94	2645.98
229.16	2668.50
229.37	2871.25
229.59	2609.11
229.81	2889.68
230.03	2893.78
230.25	2713.56
230.47	2580.44
230.69	2576.34
230.90	3180.50
231.12	2850.77
231.34	2711.51
231.56	2820.05
231.78	2871.25
232.00	3008.47
232.21	2607.06
232.43	2760.66
232.65	2615.26
232.87	3063.76
233.09	2568.15
233.30	2619.35
233.52	3155.92
233.74	2887.64
233.96	2635.74
234.18	2850.77
234.40	2953.17
234.61	3418.06
234.83	2613.21
235.05	2641.88
235.27	3397.58
235.49	3186.64
235.70	2582.49
235.92	2772.95
236.14	3059.67
236.36	3481.55
236.58	2600.92
236.79	2815.96
237.01	3002.32
237.23	2969.55
237.45	2873.30
237.67	2674.65
237.88	3063.76
238.10	3319.76
238.32	2637.78
238.54	2598.87
238.76	2938.84
238.97	2873.30
239.19	2578.39
239.41	2740.18
239.63	3192.78
239.85	2949.08
240.06	2695.13
240.28	2736.09
240.50	3147.73
240.72	2953.17
240.93	2615.26
241.15	2772.95
241.37	2998.23
241.59	3227.60
241.81	2648.02
242.02	2791.38
242.24	3033.04
242.46	3135.44
242.68	2590.68
242.89	2701.27
243.11	3080.14
243.33	2959.31
243.55	2680.79
243.76	2734.04
243.98	2883.54
244.20	2994.13
244.42	2662.36
244.64	2664.41
244.85	2805.72
245.07	2820.05
245.29	2600.92
245.51	2693.08
245.72	3106.77
245.94	3260.37
246.16	2631.64
246.38	2746.33
246.59	2916.31
246.81	2863.06
247.03	2686.94
247.24	2492.38
247.46	2918.36
247.68	3037.14
247.90	2617.30
248.11	2686.94
248.33	3176.40
248.55	2959.31
248.77	2674.65
248.98	2783.19
249.20	3274.70
249.42	3000.27
249.64	2619.35
249.85	2709.46
250.07	2869.20
250.29	3076.05
250.50	2807.77
250.72	2568.15
250.94	3084.24
251.16	3278.80
251.37	2688.98
251.59	2770.90
251.81	3084.24
252.02	3252.17
252.24	2588.63
252.46	2828.24
252.68	2858.96
252.89	2803.67
253.11	2471.90
253.33	2828.24
253.54	3198.93
253.76	2775.00
253.98	2701.27
254.20	2633.69
254.41	2840.53
254.63	3024.85
254.85	2535.39
255.06	2779.09
255.28	3051.47
255.50	2994.13
255.71	2734.04
255.93	2502.62
256.15	2992.08
256.36	3188.69
256.58	2498.52
256.80	2666.46
257.02	2934.74
257.23	2904.02
257.45	2762.71
257.67	2752.47
257.88	2887.64
258.10	3022.80
258.32	2645.98
258.53	2779.09
258.75	3284.94
258.97	2893.78
259.18	2617.30
259.40	2650.07
259.62	3315.66
259.83	3260.37
260.05	2672.60
260.27	3487.69
260.48	3198.93
260.70	2854.87
260.92	2576.34
261.13	2688.98
261.35	3033.04
261.57	3082.19
261.78	2549.72
262.00	2648.02
262.22	2987.99
262.43	2828.24
262.65	2713.56
262.86	2799.57
263.08	3444.68
263.30	3000.27
263.51	2557.91
263.73	2676.70
263.95	3170.26
264.16	2899.92
264.38	2596.82
264.60	2584.54
264.81	3037.14
265.03	3125.20
265.25	3065.81
265.46	2639.83
265.68	3184.59
265.89	3151.82
266.11	2545.63
266.33	2643.93
266.54	3133.39
266.76	3000.27
266.98	2738.13
267.19	2926.55
267.41	3225.55
267.62	2932.69
267.84	2557.91
268.06	2736.09
268.27	3028.95
268.49	3180.50
268.70	2752.47
268.92	2643.93
269.14	2779.09
269.35	2740.18
269.57	2682.84
269.79	2721.75
270.00	2924.50
270.22	3332.05
270.43	2598.87
270.65	2584.54
270.87	3086.29
271.08	3170.26
271.30	2727.89
271.51	2699.22
271.73	3153.87
271.95	3203.02
272.16	2656.22
272.38	2836.44
272.59	2932.69
272.81	3002.32
273.02	2668.50
273.24	2723.80
273.46	3196.88
273.67	2836.44
273.89	2598.87
274.10	2701.27
274.32	3215.31
274.54	3026.90
274.75	2754.52
274.97	2815.96
275.18	3114.96
275.40	3035.09
275.61	2668.50
275.83	2901.97
276.05	2775.00
276.26	2994.13
276.48	2693.08
276.69	2828.24
276.91	2893.78
277.12	3223.50
277.34	2899.92
277.55	2944.98
277.77	3012.56
277.99	2947.03
278.20	2715.61
278.42	2662.36
278.63	2797.53
278.85	2867.16
279.06	2697.17
279.28	2879.44
279.49	3219.41
279.71	3131.34
279.93	2832.34
280.14	2830.29
280.36	2867.16
280.57	3151.82
280.79	2920.40
281.00	2748.37
281.22	2979.79
281.43	3205.07
281.65	2537.43
281.86	2709.46
282.08	3071.95
282.29	3346.38
282.51	2693.08
282.73	2672.60
282.94	2744.28
283.16	3223.50
283.37	2938.84
283.59	2852.82
283.80	3020.75
284.02	2924.50
284.23	2883.54
284.45	2783.19
284.66	2803.67
284.88	2820.05
285.09	2695.13
285.31	2908.12
285.52	2979.79
285.74	2691.03
285.95	2996.18
286.17	2807.77
286.38	3147.73
286.60	2901.97
286.81	2731.99
287.03	2787.29
287.24	2932.69
287.46	3069.91
287.67	2932.69
287.89	3102.67
288.10	2947.03
288.32	2891.73
288.53	2916.31
288.75	2877.40
288.96	3106.77
289.18	2779.09
289.39	2777.05
289.61	2863.06
289.82	3393.48
290.04	3340.24
290.25	2684.89
290.47	2809.81
290.68	2932.69
290.90	3037.14
291.11	2617.30
291.33	2926.55
291.54	2889.68
291.76	2910.16
291.97	2856.92
292.18	2861.01
292.40	2891.73
292.61	2850.77
292.83	3088.34
293.04	2922.45
293.26	2983.89
293.47	2951.12
293.69	2658.26
293.90	2686.94
294.12	3137.49
294.33	2920.40
294.55	2799.57
294.76	2963.41
294.97	3319.76
295.19	3401.68
295.40	2801.62
295.62	2848.72
295.83	3213.26
296.05	2873.30
296.26	2985.94
296.48	2815.96
296.69	2944.98
296.90	2979.79
297.12	2922.45
297.33	2938.84
297.55	2996.18
297.76	3067.86
297.98	2887.64
298.19	2893.78
298.41	2973.65
298.62	2789.33
298.83	3022.80
299.05	2861.01
299.26	2981.84
299.48	2793.43
299.69	2938.84
299.90	2787.29
300.12	2830.29
300.33	3071.95
300.55	2842.58
300.76	2836.44
300.98	2822.10
301.19	3078.10
301.40	2789.33
301.62	2834.39
301.83	3108.82
302.05	2959.31
302.26	2815.96
302.47	2818.00
302.69	2770.90
302.90	2990.03
303.12	2662.36
303.33	2885.59
303.54	3309.52
303.76	2897.88
303.97	2791.38
304.19	2992.08
304.40	2867.16
304.61	3104.72
304.83	2922.45
305.04	2912.21
305.26	3121.10
305.47	2818.00
305.68	2768.85
305.90	2641.88
306.11	3203.02
306.33	2865.11
306.54	2676.70
306.75	2781.14
306.97	2740.18
307.18	2787.29
307.39	2797.53
307.61	2895.83
307.82	2944.98
308.04	3123.15
308.25	2711.51
308.46	2873.30
308.68	2990.03
308.89	3078.10
309.10	2914.26
309.32	2881.49
309.53	2947.03
309.74	3063.76
309.96	2756.57
310.17	2934.74
310.39	2879.44
310.60	3174.35
310.81	2813.91
311.03	2727.89
311.24	2990.03
311.45	2969.55
311.67	2983.89
311.88	2910.16
312.09	2904.02
312.31	2871.25
312.52	2738.13
312.73	2781.14
312.95	2809.81
313.16	2805.72
313.37	2904.02
313.59	2951.12
313.80	3125.20
314.01	3225.55
314.23	2738.13
314.44	2705.37
314.65	2807.77
314.87	2805.72
315.08	2820.05
315.29	2797.53
315.51	2834.39
315.72	2752.47
315.93	2893.78
316.15	2809.81
316.36	2863.06
316.57	2977.75
316.79	2822.10
317.00	2754.52
317.21	3033.04
317.43	2842.58
317.64	2912.21
317.85	2777.05
318.07	2793.43
318.28	2922.45
318.49	2887.64
318.70	3004.37
318.92	3020.75
319.13	3084.24
319.34	3026.90
319.56	2813.91
319.77	3067.86
319.98	3131.34
320.20	3020.75
320.41	2924.50
320.62	3033.04
320.83	2795.48
321.05	3041.23
321.26	2858.96
321.47	3133.39
321.69	3137.49
321.90	2719.70
322.11	2742.23
322.32	3026.90
322.54	3233.74
322.75	2877.40
322.96	3579.85
323.18	2738.13
323.39	2697.17
323.60	2725.85
323.81	2887.64
324.03	2922.45
324.24	2951.12
324.45	2908.12
324.66	2789.33
324.88	3143.63
325.09	3162.06
325.30	2887.64
325.52	2729.94
325.73	3049.43
325.94	2850.77
326.15	2637.78
326.37	2725.85
326.58	3164.11
326.79	3264.46
327.00	2734.04
327.22	2869.20
327.43	2987.99
327.64	2803.67
327.85	2856.92
328.07	2811.86
328.28	3282.89
328.49	2914.26
328.70	2848.72
328.92	2799.57
329.13	2877.40
329.34	3012.56
329.55	3033.04
329.76	2873.30
329.98	2883.54
330.19	3178.45
330.40	2912.21
330.61	2891.73
330.83	3133.39
331.04	2848.72
331.25	2848.72
331.46	2832.34
331.68	2734.04
331.89	3162.06
332.10	2846.68
332.31	2742.23
332.52	3076.05
332.74	3110.86
332.95	2688.98
333.16	2813.91
333.37	3067.86
333.58	2873.30
333.80	2852.82
334.01	2580.44
334.22	2979.79
334.43	2897.88
334.64	2713.56
334.86	2680.79
335.07	2865.11
335.28	3174.35
335.49	2600.92
335.70	2895.83
335.92	3188.69
336.13	3385.29
336.34	2887.64
336.55	2871.25
336.76	3076.05
336.98	2625.50
337.19	2738.13
337.40	2879.44
337.61	3409.87
337.82	2887.64
338.04	2848.72
338.25	2703.32
338.46	2928.60
338.67	2875.35
338.88	2711.51
339.09	2693.08
339.31	2908.12
339.52	2754.52
339.73	2762.71
339.94	2848.72
340.15	3110.86
340.36	2828.24
340.58	2815.96
340.79	2711.51
341.00	3084.24
341.21	2795.48
341.42	3012.56
341.63	2791.38
341.85	3184.59
342.06	2971.60
342.27	2719.70
342.48	2926.55
342.69	2709.46
342.90	3100.62
343.12	3098.58
343.33	2775.00
343.54	3186.64
343.75	3196.88
343.96	2822.10
344.17	2750.42
344.38	2920.40
344.60	2852.82
344.81	2697.17
345.02	2813.91
345.23	3229.65
345.44	3491.79
345.65	2887.64
345.86	2879.44
346.07	3008.47
346.29	2879.44
346.50	2998.23
346.71	2805.72
346.92	3289.04
347.13	3354.57
347.34	2930.64
347.55	2731.99
347.76	3110.86
347.98	2684.89
348.19	2748.37
348.40	3030.99
348.61	2932.69
348.82	3233.74
349.03	2869.20
349.24	2754.52
349.45	3303.37
349.66	2582.49
349.88	2801.62
350.09	2787.29
350.30	3164.11
350.51	3262.41
350.72	2955.22
350.93	2809.81
351.14	2908.12
351.35	3082.19
351.56	2830.29
351.77	2912.21
351.99	3030.99
352.20	3254.22
352.41	2834.39
352.62	2666.46
352.83	3000.27
353.04	2955.22
353.25	2793.43
353.46	2897.88
353.67	3188.69
353.88	2662.36
354.09	2746.33
354.30	2867.16
354.52	3117.01
354.73	2957.27
354.94	2727.89
355.15	2828.24
355.36	3295.18
355.57	2836.44
355.78	2693.08
355.99	2783.19
356.20	2897.88
356.41	3155.92
356.62	2844.63
356.83	2842.58
357.04	3176.40
357.25	2697.17
357.46	2818.00
357.68	2734.04
357.89	2809.81
358.10	2947.03
358.31	2754.52
358.52	2824.15
358.73	2811.86
358.94	2799.57
359.15	2797.53
359.36	2912.21
359.57	2983.89
359.78	2953.17
359.99	2967.51
360.20	2701.27
360.41	2975.70
360.62	3090.38
360.83	2846.68
361.04	2871.25
361.25	3082.19
361.46	3293.13
361.67	2936.79
361.88	2738.13
362.09	3254.22
362.30	3026.90
362.51	2742.23
362.72	2861.01
362.93	3065.81
363.14	3065.81
363.35	2932.69
363.56	2613.21
363.78	3166.16
363.99	3215.31
364.20	2734.04
364.41	2818.00
364.62	3280.85
364.83	2942.93
365.04	2740.18
365.25	2863.06
365.46	3276.75
365.67	2904.02
365.88	2920.40
366.09	2785.24
366.30	2891.73
366.51	2930.64
366.72	2725.85
366.93	2803.67
367.14	2955.22
367.35	3272.65
367.56	2787.29
367.77	2924.50
367.98	2924.50
368.18	3076.05
368.39	2889.68
368.60	2713.56
368.81	3112.91
369.02	2998.23
369.23	2813.91
369.44	2678.74
369.65	2926.55
369.86	3096.53
370.07	2889.68
370.28	2664.41
370.49	2961.36
370.70	3096.53
370.91	2731.99
371.12	2674.65
371.33	3174.35
371.54	2877.40
371.75	2889.68
371.96	2572.25
372.17	3063.76
372.38	2885.59
372.59	2760.66
372.80	2709.46
373.01	2891.73
373.22	2992.08
373.43	2768.85
373.64	2658.26
373.85	3131.34
374.06	3262.41
374.26	2969.55
374.47	2953.17
374.68	3264.46
374.89	2969.55
375.10	2725.85
375.31	2934.74
375.52	3008.47
375.73	3000.27
375.94	2633.69
376.15	2998.23
376.36	2797.53
376.57	2881.49
376.78	2805.72
376.99	2789.33
377.20	3235.79
377.40	2981.84
377.61	3047.38
377.82	2777.05
378.03	3239.89
378.24	3030.99
378.45	2922.45
378.66	2873.30
378.87	2772.95
379.08	2818.00
379.29	2805.72
379.50	2975.70
379.71	2967.51
379.91	3149.78
380.12	2770.90
380.33	2875.35
380.54	2963.41
380.75	2842.58
380.96	2693.08
381.17	2879.44
381.38	3018.71
381.59	2979.79
381.80	2846.68
382.00	3016.66
382.21	2963.41
382.42	3262.41
382.63	3088.34
382.84	2924.50
383.05	3133.39
383.26	3235.79
383.47	3000.27
383.68	2766.81
383.88	3094.48
384.09	3008.47
384.30	3049.43
384.51	2926.55
384.72	2930.64
384.93	2824.15
385.14	2901.97
385.35	3041.23
385.55	2705.37
385.76	3207.12
385.97	2805.72
386.18	2768.85
386.39	2883.54
386.60	2838.48
386.81	2789.33
387.02	2721.75
387.22	2807.77
387.43	3127.25
387.64	2885.59
387.85	3082.19
388.06	2975.70
388.27	4097.99
388.48	7255.95
388.68	10860.38
388.89	13281.08
389.10	14610.21
389.31	14092.07
389.52	11241.30
389.73	9690.99
389.93	8882.04
390.14	8071.04
390.35	7329.68
390.56	6817.69
390.77	5644.20
390.98	4333.50
391.18	3696.58
391.39	3375.05
391.60	3006.42
391.81	3024.85
392.02	2873.30
392.23	3418.06
392.43	3000.27
392.64	2940.88
392.85	2912.21
393.06	3262.41
393.27	3008.47
393.47	2746.33
393.68	2869.20
393.89	2912.21
394.10	3221.45
394.31	2838.48
394.52	2695.13
394.72	2830.29
394.93	3194.83
395.14	2748.37
395.35	2887.64
395.56	2938.84
395.76	3020.75
395.97	2830.29
396.18	2912.21
396.39	2998.23
396.60	3598.28
396.80	3241.93
397.01	3026.90
397.22	3143.63
397.43	3155.92
397.64	2709.46
397.84	2908.12
398.05	3350.48
398.26	2938.84
398.47	2910.16
398.67	3008.47
398.88	3065.81
399.09	3215.31
399.30	2830.29
399.51	2928.60
399.71	2858.96
399.92	3022.80
400.13	2895.83
400.34	2797.53
400.54	2983.89
400.75	3258.32
400.96	3045.33
401.17	3139.54
401.37	3135.44
401.58	2947.03
401.79	2801.62
402.00	2965.46
402.21	3424.20
402.41	3172.30
402.62	3094.48
402.83	3205.07
403.04	3307.47
403.24	3624.90
403.45	3000.27
403.66	3135.44
403.87	3207.12
404.07	3215.31
404.28	3100.62
404.49	3172.30
404.70	3020.75
404.90	3172.30
405.11	2813.91
405.32	2947.03
405.52	2969.55
405.73	2934.74
405.94	2772.95
406.15	2920.40
406.35	3063.76
406.56	3141.58
406.77	2924.50
406.98	2772.95
407.18	2932.69
407.39	3301.33
407.60	2840.53
407.80	2861.01
408.01	2969.55
408.22	2961.36
408.43	2775.00
408.63	2971.60
408.84	3135.44
409.05	3164.11
409.25	2729.94
409.46	2838.48
409.67	2879.44
409.88	2928.60
410.08	2893.78
410.29	2836.44
410.50	3137.49
410.70	3002.32
410.91	2744.28
411.12	2873.30
411.32	2895.83
411.53	2809.81
411.74	2846.68
411.95	2928.60
412.15	2914.26
412.36	3071.95
412.57	2846.68
412.77	3039.19
412.98	2928.60
413.19	2873.30
413.39	2867.16
413.60	2822.10
413.81	3203.02
414.01	2727.89
414.22	2918.36
414.43	3078.10
414.63	2889.68
414.84	3108.82
415.05	2967.51
415.25	2699.22
415.46	3039.19
415.67	2926.55
415.87	2873.30
416.08	2815.96
416.29	2895.83
416.49	3030.99
416.70	2834.39
416.91	2815.96
417.11	2932.69
417.32	3080.14
417.53	2953.17
417.73	2994.13
417.94	2940.88
418.15	2957.27
418.35	2930.64
418.56	2840.53
418.77	3350.48
418.97	2998.23
419.18	2947.03
419.38	2670.55
419.59	2949.08
419.80	3246.03
420.00	2793.43
420.21	2836.44
420.42	3180.50
420.62	3059.67
420.83	2768.85
421.04	2846.68
421.24	2959.31
421.45	3119.06
421.65	2832.34
421.86	2795.48
422.07	3074.00
422.27	3006.42
422.48	2803.67
422.69	2623.45
422.89	2955.22
423.10	2920.40
423.30	2766.81
423.51	2813.91
423.72	2985.94
423.92	3135.44
424.13	2676.70
424.33	2996.18
424.54	3110.86
424.75	3026.90
424.95	3055.57
425.16	2762.71
425.36	2981.84
425.57	3203.02
425.78	2967.51
425.98	2975.70
426.19	2910.16
426.39	2863.06
426.60	2994.13
426.81	2951.12
427.01	3065.81
427.22	2875.35
427.42	2691.03
427.63	2736.09
427.83	3157.97
428.04	3385.29
428.25	2863.06
428.45	2983.89
428.66	3200.98
428.86	2992.08
429.07	2893.78
429.28	2891.73
429.48	2932.69
429.69	2858.96
429.89	2869.20
430.10	2752.47
430.30	2979.79
430.51	3203.02
430.71	2766.81
430.92	2875.35
431.13	2893.78
431.33	3074.00
431.54	2944.98
431.74	3008.47
431.95	3344.33
432.15	2887.64
432.36	2844.63
432.56	2873.30
432.77	3301.33
432.98	3258.32
433.18	2865.11
433.39	2785.24
433.59	2889.68
433.80	3268.56
434.00	3059.67
434.21	2883.54
434.41	2858.96
434.62	3430.35
434.82	2748.37
435.03	2785.24
435.23	3057.62
435.44	2705.37
435.64	2820.05
435.85	2920.40
436.06	3069.91
436.26	3162.06
436.47	2826.20
436.67	2752.47
436.88	2953.17
437.08	3098.58
437.29	2979.79
437.49	2938.84
437.70	3194.83
437.90	2916.31
438.11	3096.53
438.31	2899.92
438.52	3188.69
438.72	3149.78
438.93	3137.49
439.13	2914.26
439.34	3139.54
439.54	2895.83
439.75	2959.31
439.95	2936.79
440.16	2846.68
440.36	2969.55
440.57	2881.49
440.77	2875.35
440.98	3037.14
441.18	3098.58
441.39	2795.48
441.59	2707.41
441.80	3311.57
442.00	2985.94
442.21	2951.12
442.41	2699.22
442.62	3106.77
442.82	2879.44
443.02	2865.11
443.23	2828.24
443.43	2977.75
443.64	3254.22
443.84	2766.81
444.05	2914.26
444.25	2987.99
444.46	2893.78
444.66	2869.20
444.87	3125.20
445.07	2772.95
445.28	2953.17
445.48	3033.04
445.69	2930.64
445.89	3520.46
446.09	2889.68
446.30	3127.25
446.50	3184.59
446.71	4702.14
446.91	5883.81
447.12	6543.26
447.32	6877.08
447.53	6848.41
447.73	5695.40
447.93	4847.54
448.14	4802.49
448.34	4876.21
448.55	4118.47
448.75	4069.31
448.96	3844.04
449.16	3723.21
449.36	3532.75
449.57	3057.62
449.77	2887.64
449.98	2957.27
450.18	3094.48
450.39	2844.63
450.59	3082.19
450.79	3041.23
451.00	2861.01
451.20	2920.40
451.41	2813.91
451.61	3121.10
451.81	2918.36
452.02	2854.87
452.22	2940.88
452.43	2854.87
452.63	2934.74
452.84	2879.44
453.04	2746.33
453.24	3041.23
453.45	2904.02
453.65	2904.02
453.86	2824.15
454.06	3020.75
454.26	2887.64
454.47	2762.71
454.67	3033.04
454.87	3069.91
455.08	2928.60
455.28	3004.37
455.49	2940.88
455.69	2901.97
455.89	3393.48
456.10	3045.33
456.30	2828.24
456.51	3000.27
456.71	2994.13
456.91	2932.69
457.12	2828.24
457.32	3071.95
457.52	2805.72
457.73	2973.65
457.93	2967.51
458.14	2828.24
458.34	2715.61
458.54	2824.15
458.75	2801.62
458.95	3192.78
459.15	3137.49
459.36	2889.68
459.56	2805.72
459.76	3467.21
459.97	2996.18
460.17	2789.33
460.37	2992.08
460.58	3012.56
460.78	3157.97
460.99	2914.26
461.19	2820.05
461.39	2840.53
461.60	2912.21
461.80	2861.01
462.00	2787.29
462.21	3059.67
462.41	2838.48
462.61	2731.99
462.82	2621.40
463.02	3028.95
463.22	3026.90
463.43	2938.84
463.63	2879.44
463.83	3221.45
464.04	3119.06
464.24	2916.31
464.44	2795.48
464.64	3030.99
464.85	3092.43
465.05	2877.40
465.25	2799.57
465.46	2904.02
465.66	3188.69
465.86	2891.73
466.07	2783.19
466.27	2959.31
466.47	2818.00
466.68	2715.61
466.88	2977.75
467.08	3114.96
467.29	3231.69
467.49	2840.53
467.69	2856.92
467.89	3020.75
468.10	2930.64
468.30	2904.02
468.50	2963.41
468.71	3157.97
468.91	2736.09
469.11	3057.62
469.31	2910.16
469.52	2795.48
469.72	3299.28
469.92	3147.73
470.13	2916.31
470.33	2912.21
470.53	3074.00
470.73	3278.80
470.94	3518.41
471.14	3565.51
471.34	4270.01
471.54	3854.28
471.75	3573.71
471.95	3413.96
472.15	3397.58
472.36	3362.76
472.56	3186.64
472.76	3456.97
472.96	3248.08
473.17	3157.97
473.37	2959.31
473.57	2936.79
473.77	3098.58
473.98	2951.12
474.18	2740.18
474.38	3491.79
474.58	2861.01
474.79	2641.88
474.99	2916.31
475.19	3174.35
475.39	2811.86
475.60	2998.23
475.80	2795.48
476.00	3082.19
476.20	2871.25
476.41	2944.98
476.61	2965.46
476.81	3258.32
477.01	2887.64
477.21	3004.37
477.42	3016.66
477.62	2865.11
477.82	3112.91
478.02	2799.57
478.23	2932.69
478.43	2893.78
478.63	2977.75
478.83	2895.83
479.03	2846.68
479.24	3289.04
479.44	3317.71
479.64	2772.95
479.84	2703.32
480.04	2936.79
480.25	3135.44
480.45	2777.05
480.65	2770.90
480.85	3307.47
481.06	2856.92
481.26	2947.03
481.46	2813.91
481.66	3129.30
481.86	2852.82
482.06	3037.14
482.27	2848.72
482.47	2949.08
482.67	3000.27
482.87	2947.03
483.07	2936.79
483.28	2834.39
483.48	2781.14
483.68	2830.29
483.88	2721.75
484.08	2633.69
484.29	2820.05
484.49	2897.88
484.69	2717.65
484.89	3231.69
485.09	3147.73
485.29	2852.82
485.50	3051.47
485.70	2881.49
485.90	3137.49
486.10	3024.85
486.30	2766.81
486.50	3239.89
486.71	3045.33
486.91	2928.60
487.11	2947.03
487.31	2789.33
487.51	3014.61
487.71	2834.39
487.91	2772.95
488.12	2883.54
488.32	2535.39
488.52	2832.34
488.72	2637.78
488.92	3043.28
489.12	3246.03
489.32	3047.38
489.53	2951.12
489.73	2746.33
489.93	3297.23
490.13	2787.29
490.33	2656.22
490.53	3008.47
490.73	3151.82
490.94	2629.59
491.14	3012.56
491.34	2949.08
491.54	3172.30
491.74	3694.54
491.94	4288.45
492.14	4609.98
492.34	4616.12
492.54	4407.23
492.75	3776.45
492.95	3907.52
493.15	3643.34
493.35	3573.71
493.55	3428.30
493.75	3391.44
493.95	3479.50
494.15	3041.23
494.35	2934.74
494.56	2979.79
494.76	2904.02
494.96	3039.19
495.16	2764.76
495.36	2979.79
495.56	3041.23
495.76	2994.13
495.96	2877.40
496.16	2895.83
496.36	3387.34
496.56	2842.58
496.77	2918.36
496.97	2985.94
497.17	3225.55
497.37	2660.31
497.57	2955.22
497.77	3008.47
497.97	2836.44
498.17	2885.59
498.37	2772.95
498.57	3123.15
498.77	2908.12
498.97	3045.33
499.17	3241.93
499.38	2955.22
499.58	3059.67
499.78	3000.27
499.98	3030.99
500.18	2985.94
500.38	2738.13
500.58	3071.95
500.78	3440.59
500.98	5558.19
501.18	7362.45
501.38	8703.87
501.58	9766.76
501.78	9834.35
501.98	8103.81
502.18	6606.75
502.38	5832.62
502.58	5625.77
502.78	4988.85
502.98	4835.25
503.18	4745.14
503.38	4333.50
503.59	3674.06
503.79	3678.15
503.99	3485.64
504.19	3465.16
504.39	3456.97
504.59	3309.52
504.79	3233.74
504.99	3545.03
505.19	3198.93
505.39	3024.85
505.59	3227.60
505.79	3321.81
505.99	3198.93
506.19	2906.07
506.39	3149.78
506.59	2809.81
506.79	2867.16
506.99	3090.38
507.19	2891.73
507.39	3059.67
507.59	2818.00
507.79	2791.38
507.99	2891.73
508.19	3026.90
508.39	2912.21
508.59	2908.12
508.79	3020.75
508.99	3332.05
509.19	2871.25
509.39	2895.83
509.59	2770.90
509.79	2883.54
509.99	3041.23
510.19	2990.03
510.39	3004.37
510.59	3129.30
510.79	2809.81
510.99	2701.27
511.19	2793.43
511.39	3264.46
511.59	3258.32
511.79	3028.95
511.99	2836.44
512.19	3270.61
512.38	3041.23
512.58	2783.19
512.78	2838.48
512.98	3119.06
513.18	3264.46
513.38	2721.75
513.58	2873.30
513.78	2957.27
513.98	2953.17
514.18	2856.92
514.38	2842.58
514.58	3024.85
514.78	2834.39
514.98	2781.14
515.18	2918.36
515.38	2830.29
515.58	3305.42
515.78	2799.57
515.98	2869.20
516.18	3123.15
516.38	2949.08
516.57	2856.92
516.77	2752.47
516.97	3182.54
517.17	2863.06
517.37	2686.94
517.57	2910.16
517.77	2914.26
517.97	2908.12
518.17	2932.69
518.37	2764.76
518.57	2846.68
518.77	2893.78
518.97	2869.20
519.16	2881.49
519.36	3200.98
519.56	2865.11
519.76	2811.86
519.96	2887.64
520.16	3157.97
520.36	2865.11
520.56	2990.03
520.76	2828.24
520.96	2893.78
521.16	3108.82
521.35	2977.75
521.55	2930.64
521.75	2940.88
521.95	3008.47
522.15	2807.77
522.35	2695.13
522.55	2912.21
522.75	3108.82
522.95	2731.99
523.14	2662.36
523.34	3030.99
523.54	2914.26
523.74	2981.84
523.94	2875.35
524.14	2797.53
524.34	3086.29
524.54	3074.00
524.73	2861.01
524.93	3026.90
525.13	2957.27
525.33	2822.10
525.53	3020.75
525.73	3129.30
525.93	3035.09
526.13	2877.40
526.32	2813.91
526.52	3153.87
526.72	3164.11
526.92	2914.26
527.12	2725.85
527.32	2762.71
527.52	3094.48
527.71	2977.75
527.91	2832.34
528.11	2928.60
528.31	2953.17
528.51	2789.33
528.71	2912.21
528.90	3051.47
529.10	3112.91
529.30	2877.40
529.50	2625.50
529.70	3088.34
529.90	2869.20
530.09	2949.08
530.29	2734.04
530.49	2822.10
530.69	3459.02
530.89	2932.69
531.09	2883.54
531.28	2926.55
531.48	3153.87
531.68	2912.21
531.88	2766.81
532.08	3174.35
532.28	2893.78
532.47	3030.99
532.67	2904.02
532.87	3035.09
533.07	2895.83
533.27	2973.65
533.46	2930.64
533.66	2990.03
533.86	3012.56
534.06	2947.03
534.26	2924.50
534.45	2961.36
534.65	3168.21
534.85	2889.68
535.05	2756.57
535.25	3172.30
535.44	2740.18
535.64	2928.60
535.84	2885.59
536.04	2910.16
536.24	2922.45
536.43	2789.33
536.63	2885.59
536.83	2949.08
537.03	2914.26
537.22	2654.17
537.42	2686.94
537.62	3088.34
537.82	2760.66
538.02	3010.51
538.21	2920.40
538.41	3561.42
538.61	3094.48
538.81	2826.20
539.00	2990.03
539.20	2727.89
539.40	2985.94
539.60	2877.40
539.79	2994.13
539.99	3028.95
540.19	2830.29
540.39	2756.57
540.58	2953.17
540.78	3190.74
540.98	2994.13
541.18	3049.43
541.37	2881.49
541.57	2998.23
541.77	2967.51
541.97	2746.33
542.16	2672.60
542.36	2918.36
542.56	2901.97
542.76	3063.76
542.95	2983.89
543.15	3014.61
543.35	3139.54
543.54	2846.68
543.74	2830.29
543.94	3235.79
544.14	2842.58
544.33	2977.75
544.53	2779.09
544.73	2914.26
544.93	2926.55
545.12	2895.83
545.32	2869.20
545.52	2938.84
545.71	2783.19
545.91	2877.40
546.11	2799.57
546.30	2883.54
546.50	2971.60
546.70	2922.45
546.90	2781.14
547.09	2676.70
547.29	3071.95
547.49	3020.75
547.68	2895.83
547.88	2865.11
548.08	3041.23
548.27	3176.40
548.47	2818.00
548.67	2901.97
548.87	3067.86
549.06	2791.38
549.26	2820.05
549.46	3106.77
549.65	2910.16
549.85	2953.17
550.05	2891.73
550.24	2684.89
550.44	2981.84
550.64	2869.20
550.83	2990.03
551.03	3297.23
551.23	3192.78
551.42	2938.84
551.62	2885.59
551.82	2953.17
552.01	2971.60
552.21	3080.14
552.41	2885.59
552.60	3291.09
552.80	2987.99
553.00	2787.29
553.19	2883.54
553.39	3274.70
553.59	2748.37
553.78	2965.46
553.98	2842.58
554.17	2861.01
554.37	2994.13
554.57	3008.47
554.76	2693.08
554.96	2916.31
555.16	3059.67
555.35	2957.27
555.55	2910.16
555.75	3094.48
555.94	3106.77
556.14	2674.65
556.33	2967.51
556.53	2942.93
556.73	2951.12
556.92	2971.60
557.12	2838.48
557.32	3383.24
557.51	3248.08
557.71	2936.79
557.90	3033.04
558.10	3266.51
558.30	2875.35
558.49	2838.48
558.69	2852.82
558.88	3108.82
559.08	3024.85
559.28	2815.96
559.47	2869.20
559.67	3166.16
559.86	3319.76
560.06	2813.91
560.26	2852.82
560.45	3106.77
560.65	2934.74
560.84	3100.62
561.04	2779.09
561.24	3098.58
561.43	2811.86
561.63	3059.67
561.82	2992.08
562.02	3133.39
562.22	2805.72
562.41	2818.00
562.61	2748.37
562.80	2805.72
563.00	3397.58
563.19	2920.40
563.39	2906.07
563.59	3129.30
563.78	2863.06
563.98	2619.35
564.17	2815.96
564.37	2678.74
564.56	3065.81
564.76	2658.26
564.96	2977.75
565.15	3028.95
565.35	3368.91
565.54	2871.25
565.74	2906.07
565.93	3078.10
566.13	3033.04
566.32	2959.31
566.52	2938.84
566.71	3157.97
566.91	3117.01
567.11	2953.17
567.30	2744.28
567.50	3055.57
567.69	3104.72
567.89	2828.24
568.08	2715.61
568.28	3030.99
568.47	2828.24
568.67	2904.02
568.86	2897.88
569.06	3112.91
569.25	2901.97
569.45	2717.65
569.64	2820.05
569.84	2881.49
570.04	3067.86
570.23	2838.48
570.43	2895.83
570.62	3016.66
570.82	3264.46
571.01	2727.89
571.21	2811.86
571.40	2729.94
571.60	3112.91
571.79	2840.53
571.99	2904.02
572.18	2813.91
572.38	3006.42
572.57	2932.69
572.77	2904.02
572.96	3485.64
573.16	3030.99
573.35	2779.09
573.55	3000.27
573.74	3028.95
573.94	2938.84
574.13	2893.78
574.33	2994.13
574.52	3119.06
574.71	2971.60
574.91	2879.44
575.10	2691.03
575.30	2891.73
575.49	2828.24
575.69	2725.85
575.88	2795.48
576.08	2932.69
576.27	3143.63
576.47	2744.28
576.66	3010.51
576.86	3223.50
577.05	3125.20
577.25	2901.97
577.44	3082.19
577.64	2856.92
577.83	3127.25
578.02	2942.93
578.22	3110.86
578.41	3338.19
578.61	2942.93
578.80	2676.70
579.00	2912.21
579.19	2977.75
579.39	3016.66
579.58	3002.32
579.77	2961.36
579.97	3164.11
580.16	3102.67
580.36	3030.99
580.55	2920.40
580.75	3092.43
580.94	2996.18
581.13	3030.99
581.33	3112.91
581.52	3014.61
581.72	3358.67
581.91	3030.99
582.11	2836.44
582.30	3106.77
582.49	3024.85
582.69	3184.59
582.88	2875.35
583.08	2936.79
583.27	3196.88
583.47	2861.01
583.66	2838.48
583.85	2824.15
584.05	3063.76
584.24	3010.51
584.44	2901.97
584.63	3180.50
584.82	3221.45
585.02	3053.52
585.21	2971.60
585.41	3098.58
585.60	2977.75
585.79	3143.63
585.99	3125.20
586.18	3063.76
586.37	3901.38
586.57	5832.62
586.76	16736.00
586.96	35657.18
587.15	48966.93
587.34	57693.33
587.54	61494.36
587.73	54592.70
587.93	38757.81
588.12	29707.83
588.31	24092.30
588.51	21264.06
588.70	19343.06
588.89	17309.43
589.09	14679.84
589.28	12441.41
589.47	9891.69
589.67	7569.29
589.86	5869.48
590.06	4636.60
590.25	4042.69
590.44	3479.50
590.64	3325.90
590.83	3221.45
591.02	3268.56
591.22	2916.31
591.41	2975.70
591.60	3024.85
591.80	3387.34
591.99	2846.68
592.18	2863.06
592.38	3117.01
592.57	2875.35
592.76	2910.16
592.96	2910.16
593.15	2983.89
593.34	3213.26
593.54	2914.26
593.73	3000.27
593.92	3016.66
594.12	3123.15
594.31	2908.12
594.50	3028.95
594.70	3088.34
594.89	3532.75
595.08	2658.26
595.28	3028.95
595.47	3596.23
595.66	3147.73
595.86	2738.13
596.05	2846.68
596.24	2861.01
596.43	3315.66
596.63	3022.80
596.82	2992.08
597.01	3100.62
597.21	3383.24
597.40	2879.44
597.59	2885.59
597.79	3033.04
597.98	3112.91
598.17	2926.55
598.36	2877.40
598.56	3141.58
598.75	2848.72
598.94	2944.98
599.14	2918.36
599.33	2920.40
599.52	3145.68
599.71	2971.60
599.91	2936.79
600.10	3037.14
600.29	2975.70
600.48	2957.27
600.68	3006.42
600.87	3082.19
601.06	2863.06
601.26	2973.65
601.45	2987.99
601.64	2944.98
601.83	3188.69
602.03	2754.52
602.22	2846.68
602.41	3153.87
602.60	3405.77
602.80	2965.46
602.99	2983.89
603.18	2781.14
603.37	2994.13
603.57	2920.40
603.76	2932.69
603.95	3145.68
604.14	2936.79
604.34	2731.99
604.53	2846.68
604.72	3078.10
604.91	3149.78
605.10	2887.64
605.30	2725.85
605.49	3354.57
605.68	3164.11
605.87	2873.30
606.07	2752.47
606.26	2967.51
606.45	3112.91
606.64	2891.73
606.84	2742.23
607.03	2944.98
607.22	3096.53
607.41	2891.73
607.60	2809.81
607.80	3117.01
607.99	2887.64
608.18	2938.84
608.37	2879.44
608.56	2875.35
608.76	3125.20
608.95	3129.30
609.14	2846.68
609.33	3151.82
609.52	3129.30
609.72	2967.51
609.91	3028.95
610.10	2998.23
610.29	3229.65
610.48	2942.93
610.68	2897.88
610.87	3049.43
611.06	3139.54
611.25	2807.77
611.44	3024.85
611.63	2918.36
611.83	3268.56
612.02	2762.71
612.21	2992.08
612.40	2676.70
612.59	2797.53
612.79	2822.10
612.98	2975.70
613.17	3266.51
613.36	3041.23
613.55	3024.85
613.74	2861.01
613.93	3065.81
614.13	3014.61
614.32	3043.28
614.51	2973.65
614.70	3020.75
614.89	2899.92
615.08	2928.60
615.28	3256.27
615.47	2906.07
615.66	3090.38
615.85	2938.84
616.04	2963.41
616.23	3039.19
616.42	2951.12
616.62	2869.20
616.81	2922.45
617.00	3059.67
617.19	3020.75
617.38	2891.73
617.57	2930.64
617.76	3133.39
617.95	3180.50
618.15	3039.19
618.34	3082.19
618.53	2779.09
618.72	3121.10
618.91	2983.89
619.10	2992.08
619.29	2955.22
619.48	3104.72
619.68	2746.33
619.87	2828.24
620.06	2736.09
620.25	3067.86
620.44	2873.30
620.63	2742.23
620.82	3037.14
621.01	3008.47
621.20	2930.64
621.39	2979.79
621.59	3155.92
621.78	2871.25
621.97	2861.01
622.16	2969.55
622.35	2979.79
622.54	3174.35
622.73	2922.45
622.92	2631.64
623.11	3098.58
623.30	2975.70
623.49	2889.68
623.68	2736.09
623.88	3192.78
624.07	2820.05
624.26	2824.15
624.45	2887.64
624.64	2938.84
624.83	3059.67
625.02	2899.92
625.21	2936.79
625.40	3037.14
625.59	3239.89
625.78	2922.45
625.97	2967.51
626.16	3268.56
626.35	3104.72
626.54	2881.49
626.74	3151.82
626.93	2938.84
627.12	2918.36
627.31	2983.89
627.50	2906.07
627.69	3143.63
627.88	2830.29
628.07	2807.77
628.26	2664.41
628.45	2916.31
628.64	2813.91
628.83	2879.44
629.02	2598.87
629.21	3112.91
629.40	2959.31
629.59	2844.63
629.78	2863.06
629.97	2969.55
630.16	2969.55
630.35	2801.62
630.54	2920.40
630.73	2885.59
630.92	3004.37
631.11	2848.72
631.30	2883.54
631.49	3098.58
631.68	2906.07
631.87	2938.84
632.06	2781.14
632.25	3393.48
632.44	3086.29
632.63	2936.79
632.82	2809.81
633.01	2842.58
633.20	3076.05
633.39	2826.20
633.58	2680.79
633.77	3057.62
633.96	3100.62
634.15	2985.94
634.34	2998.23
634.53	3092.43
634.72	2922.45
634.91	2738.13
635.10	2953.17
635.29	3123.15
635.48	3026.90
635.67	2736.09
635.86	2627.54
636.05	3211.22
636.24	2918.36
636.43	2844.63
636.62	2963.41
636.81	2623.45
637.00	3037.14
637.19	2846.68
637.38	2818.00
637.57	2893.78
637.76	2957.27
637.95	3030.99
638.14	2856.92
638.33	2975.70
638.52	3028.95
638.71	2807.77
638.89	2688.98
639.08	3418.06
639.27	3180.50
639.46	3078.10
639.65	3313.61
639.84	3418.06
640.03	3469.26
640.22	3151.82
640.41	3274.70
640.60	3047.38
640.79	3168.21
640.98	2965.46
641.17	3059.67
641.36	3164.11
641.55	3088.34
641.74	2746.33
641.92	2865.11
642.11	2865.11
642.30	2928.60
642.49	2676.70
642.68	2865.11
642.87	3102.67
643.06	3094.48
643.25	2662.36
643.44	2801.62
643.63	2973.65
643.82	3170.26
644.00	2760.66
644.19	2852.82
644.38	2877.40
644.57	3071.95
644.76	2877.40
644.95	2975.70
645.14	3074.00
645.33	2963.41
645.52	2936.79
645.71	2668.50
645.89	2850.77
646.08	2930.64
646.27	2846.68
646.46	3028.95
646.65	2789.33
646.84	2977.75
647.03	2744.28
647.22	3059.67
647.40	3026.90
647.59	2992.08
647.78	2668.50
647.97	2828.24
648.16	2932.69
648.35	3258.32
648.54	3141.58
648.73	2883.54
648.91	3157.97
649.10	3018.71
649.29	2795.48
649.48	2795.48
649.67	3055.57
649.86	3012.56
650.05	2930.64
650.23	3043.28
650.42	2949.08
650.61	3225.55
650.80	3078.10
650.99	3098.58
651.18	3196.88
651.36	3098.58
651.55	2787.29
651.74	3012.56
651.93	3018.71
652.12	2979.79
652.31	2955.22
652.49	2924.50
652.68	2942.93
652.87	3252.17
653.06	2979.79
653.25	3129.30
653.44	3006.42
653.62	3266.51
653.81	2881.49
654.00	2854.87
654.19	3094.48
654.38	3403.72
654.56	2994.13
654.75	2822.10
654.94	3100.62
655.13	3084.24
655.32	2879.44
655.51	2944.98
655.69	2969.55
655.88	3168.21
656.07	2725.85
656.26	2885.59
656.45	2844.63
656.63	3012.56
656.82	2906.07
657.01	3135.44
657.20	2889.68
657.38	3153.87
657.57	2818.00
657.76	2760.66
657.95	3059.67
658.14	2861.01
658.32	2861.01
658.51	2787.29
658.70	2951.12
658.89	2975.70
659.08	2957.27
659.26	3110.86
659.45	2891.73
659.64	3049.43
659.83	2717.65
660.01	3297.23
660.20	2992.08
660.39	3274.70
660.58	2639.83
660.76	2996.18
660.95	2795.48
661.14	2963.41
661.33	2723.80
661.51	2928.60
661.70	2965.46
661.89	3010.51
662.08	2998.23
662.26	2742.23
662.45	2793.43
662.64	3295.18
662.83	2856.92
663.01	2754.52
663.20	2940.88
663.39	3254.22
663.58	2789.33
663.76	2781.14
663.95	3067.86
664.14	2740.18
664.32	2959.31
664.51	2680.79
664.70	2719.70
664.89	3012.56
665.07	2742.23
665.26	2996.18
665.45	2867.16
665.64	3092.43
665.82	2930.64
666.01	2947.03
666.20	2777.05
666.38	3153.87
666.57	3080.14
666.76	4861.88
666.95	10954.58
667.13	17606.39
667.32	21444.28
667.51	24346.25
667.69	25022.08
667.88	21075.65
668.07	15259.42
668.25	12898.11
668.44	11126.61
668.63	9684.84
668.81	8544.13
669.00	7303.06
669.19	6649.75
669.38	5826.47
669.56	4990.90
669.75	4315.07
669.94	3936.20
670.12	3375.05
670.31	3160.02
670.50	3147.73
670.68	3178.45
670.87	3059.67
671.06	2799.57
671.24	2957.27
671.43	3282.89
671.62	2977.75
671.80	2815.96
671.99	2944.98
672.18	3043.28
672.36	3086.29
672.55	2994.13
672.74	2826.20
672.92	2963.41
673.11	2996.18
673.29	2746.33
673.48	3010.51
673.67	2967.51
673.85	3102.67
674.04	2783.19
674.23	3002.32
674.41	3190.74
674.60	2770.90
674.79	2637.78
674.97	2736.09
675.16	3106.77
675.34	3112.91
675.53	2799.57
675.72	2889.68
675.90	3370.96
676.09	2940.88
676.28	2914.26
676.46	2676.70
676.65	3078.10
676.83	2779.09
677.02	2940.88
677.21	2996.18
677.39	3006.42
677.58	2809.81
677.77	2807.77
677.95	2748.37
678.14	2867.16
678.32	2926.55
678.51	2891.73
678.70	3200.98
678.88	2869.20
679.07	3033.04
679.25	2881.49
679.44	2875.35
679.63	2848.72
679.81	3041.23
680.00	3104.72
680.18	2998.23
680.37	3297.23
680.55	3049.43
680.74	2791.38
680.93	2670.55
681.11	3127.25
681.30	2936.79
681.48	2875.35
681.67	2801.62
681.85	2959.31
682.04	2897.88
682.23	2983.89
682.41	2936.79
682.60	2918.36
682.78	2926.55
682.97	2766.81
683.15	2922.45
683.34	3018.71
683.53	3205.07
683.71	2707.41
683.90	2873.30
684.08	3286.99
684.27	2871.25
684.45	2799.57
684.64	3016.66
684.82	3022.80
685.01	3157.97
685.19	2838.48
685.38	3071.95
685.57	3026.90
685.75	2858.96
685.94	2754.52
686.12	2752.47
686.31	2883.54
686.49	3286.99
686.68	2662.36
686.86	2785.24
687.05	2967.51
687.23	3209.17
687.42	2789.33
687.60	2764.76
687.79	3112.91
687.97	3221.45
688.16	2990.03
688.34	3059.67
688.53	2721.75
688.71	2965.46
688.90	3114.96
689.08	2873.30
689.27	2705.37
689.45	3043.28
689.64	3028.95
689.82	2951.12
690.01	3108.82
690.19	2961.36
690.38	2904.02
690.56	2990.03
690.75	2811.86
690.93	2807.77
691.12	2818.00
691.30	2883.54
691.49	2926.55
691.67	2953.17
691.86	3241.93
692.04	2881.49
692.23	2863.06
692.41	2994.13
692.60	3203.02
692.78	3008.47
692.97	3047.38
693.15	2992.08
693.34	3059.67
693.52	3119.06
693.71	2858.96
693.89	2947.03
694.08	2695.13
694.26	2990.03
694.44	3106.77
694.63	3176.40
694.81	2863.06
695.00	2838.48
695.18	3078.10
695.37	3463.12
695.55	2967.51
695.74	2916.31
695.92	2879.44
696.10	3205.07
696.29	2664.41
696.47	2877.40
696.66	2801.62
696.84	2893.78
697.03	2951.12
697.21	3196.88
697.40	4403.13
697.58	3129.30
697.76	2787.29
697.95	2844.63
698.13	2844.63
698.32	2901.97
698.50	2820.05
698.68	2901.97
698.87	3047.38
699.05	3192.78
699.24	2836.44
699.42	2754.52
699.61	3008.47
699.79	2973.65
699.97	2850.77
700.16	2721.75
700.34	2715.61
700.53	3190.74
700.71	3041.23
700.89	3028.95
701.08	2891.73
701.26	2971.60
701.45	3311.57
701.63	2871.25
701.81	2920.40
702.00	2844.63
702.18	2895.83
702.37	2820.05
702.55	3106.77
702.73	3088.34
702.92	2893.78
703.10	3172.30
703.28	3114.96
703.47	2805.72
703.65	3047.38
703.84	3000.27
704.02	2906.07
704.20	3211.22
704.39	2789.33
704.57	2809.81
704.75	3160.02
704.94	3049.43
705.12	3051.47
705.30	3405.77
705.49	6727.58
705.67	13047.61
705.86	18394.86
706.04	20448.97
706.22	22767.27
706.41	22281.90
706.59	17137.40
706.77	13098.81
706.96	11220.82
707.14	10401.63
707.32	9117.56
707.51	7827.34
707.69	6444.96
707.87	5466.03
708.06	4493.24
708.24	4016.07
708.42	3579.85
708.61	3725.26
708.79	2938.84
708.97	2969.55
709.16	3065.81
709.34	3028.95
709.52	2828.24
709.71	2916.31
709.89	3100.62
710.07	2844.63
710.26	2795.48
710.44	2863.06
710.62	3074.00
710.80	2940.88
710.99	2959.31
711.17	2963.41
711.35	2850.77
711.54	2820.05
711.72	3024.85
711.90	2994.13
712.09	3035.09
712.27	2928.60
712.45	2987.99
712.63	2893.78
712.82	2987.99
713.00	3057.62
713.18	3000.27
713.37	3014.61
713.55	3151.82
713.73	3160.02
713.91	2957.27
714.10	2856.92
714.28	2996.18
714.46	3065.81
714.65	3000.27
714.83	2922.45
715.01	3028.95
715.19	3004.37
715.38	2822.10
715.56	3037.14
715.74	2889.68
715.92	2854.87
716.11	3135.44
716.29	2723.80
716.47	2957.27
716.65	2969.55
716.84	2764.76
717.02	2942.93
717.20	2787.29
717.38	2793.43
717.57	2963.41
717.75	2928.60
717.93	2891.73
718.11	3076.05
718.30	2760.66
718.48	2883.54
718.66	3231.69
718.84	3157.97
719.03	2881.49
719.21	2717.65
719.39	3225.55
719.57	3000.27
719.75	3000.27
719.94	2766.81
720.12	2914.26
720.30	3024.85
720.48	2971.60
720.67	2863.06
720.85	2785.24
721.03	2861.01
721.21	2846.68
721.39	2955.22
721.58	3026.90
721.76	2969.55
721.94	2961.36
722.12	2957.27
722.30	3223.50
722.49	2908.12
722.67	2834.39
722.85	2932.69
723.03	2668.50
723.21	2832.34
723.40	2920.40
723.58	3063.76
723.76	3117.01
723.94	3129.30
724.12	2947.03
724.30	3102.67
724.49	3203.02
724.67	2863.06
724.85	3037.14
725.03	2775.00
725.21	2969.55
725.40	3131.34
725.58	2875.35
725.76	3035.09
725.94	3061.71
726.12	2805.72
726.30	2873.30
726.49	2865.11
726.67	2895.83
726.85	3057.62
727.03	3430.35
727.21	4409.28
727.39	5519.28
727.57	5752.74
727.76	6213.54
727.94	6180.77
728.12	5472.17
728.30	4708.28
728.48	4480.96
728.66	4087.75
728.84	3837.89
729.03	3553.23
729.21	3391.44
729.39	3211.22
729.57	2975.70
729.75	3125.20
729.93	2977.75
730.11	2783.19
730.30	2947.03
730.48	2975.70
730.66	3008.47
730.84	2963.41
731.02	2971.60
731.20	2934.74
731.38	2916.31
731.56	2809.81
731.74	2838.48
731.93	3010.51
732.11	2930.64
732.29	2770.90
732.47	3121.10
732.65	3086.29
732.83	3080.14
733.01	2979.79
733.19	2832.34
733.37	3164.11
733.56	2987.99
733.74	2832.34
733.92	3243.98
734.10	2885.59
734.28	2981.84
734.46	2727.89
734.64	2928.60
734.82	2846.68
735.00	2840.53
735.18	2865.11
735.36	2936.79
735.54	2953.17
735.73	2865.11
735.91	3000.27
736.09	3223.50
736.27	2904.02
736.45	2951.12
736.63	2605.02
736.81	2922.45
736.99	3174.35
737.17	3063.76
737.35	2846.68
737.53	3076.05
737.71	2924.50
737.89	3018.71
738.07	2836.44
738.25	2877.40
738.43	2688.98
738.61	2820.05
738.80	2764.76
738.98	2801.62
739.16	2955.22
739.34	2822.10
739.52	3053.52
739.70	3033.04
739.88	3051.47
740.06	2973.65
740.24	2625.50
740.42	3119.06
740.60	2738.13
740.78	2836.44
740.96	2615.26
741.14	2910.16
741.32	3000.27
741.50	2734.04
741.68	3117.01
741.86	3207.12
742.04	2742.23
742.22	2770.90
742.40	2901.97
742.58	3071.95
742.76	2901.97
742.94	3008.47
743.12	2680.79
743.30	2971.60
743.48	3039.19
743.66	2842.58
743.84	2895.83
744.02	2932.69
744.20	2918.36
744.38	2664.41
744.56	2867.16
744.74	3381.20
744.92	3090.38
745.10	3080.14
745.28	2969.55
745.46	3278.80
745.64	2926.55
745.82	3018.71
746.00	2858.96
746.18	3014.61
746.36	2840.53
746.54	2979.79
746.72	2893.78
746.90	2807.77
747.08	3235.79
747.26	2836.44
747.44	2977.75
747.62	3067.86
747.80	3000.27
747.98	2953.17
748.15	2928.60
748.33	3356.62
748.51	2949.08
748.69	2869.20
748.87	2754.52
749.05	2981.84
749.23	2918.36
749.41	2824.15
749.59	2818.00
749.77	3155.92
749.95	2830.29
750.13	2807.77
750.31	2914.26
750.49	2985.94
750.67	3063.76
750.85	3012.56
751.03	2893.78
751.20	3354.57
751.38	3018.71
751.56	2826.20
751.74	2906.07
751.92	2934.74
752.10	2789.33
752.28	3094.48
752.46	2822.10
752.64	2912.21
752.82	2977.75
753.00	3037.14
753.18	2834.39
753.35	2881.49
753.53	2953.17
753.71	2820.05
753.89	2879.44
754.07	2963.41
754.25	3143.63
754.43	2971.60
754.61	2723.80
754.79	2977.75
754.97	2955.22
755.14	3053.52
755.32	2734.04
755.50	3000.27
755.68	2959.31
755.86	2734.04
756.04	2838.48
756.22	2664.41
756.40	3135.44
756.57	3147.73
756.75	2795.48
756.93	3198.93
757.11	3061.71
757.29	2678.74
757.47	2795.48
757.65	2729.94
757.82	2631.64
758.00	2832.34
758.18	2803.67
758.36	2793.43
758.54	3284.94
758.72	2744.28
758.90	2969.55
759.07	3078.10
759.25	2897.88
759.43	2959.31
759.61	2779.09
759.79	4313.02
759.97	3145.68
760.15	2885.59
760.32	2772.95
760.50	3057.62
760.68	3268.56
760.86	2721.75
761.04	3123.15
761.22	3010.51
761.39	2949.08
761.57	2951.12
761.75	2838.48
761.93	2987.99
762.11	2990.03
762.28	2932.69
762.46	2766.81
762.64	3084.24
762.82	2768.85
763.00	2811.86
763.18	3112.91
763.35	2811.86
763.53	3065.81
763.71	2936.79
763.89	2852.82
764.07	2981.84
764.24	3049.43
764.42	2977.75
764.60	2897.88
764.78	3004.37
764.96	3160.02
765.13	3061.71
765.31	2799.57
765.49	3051.47
765.67	2746.33
765.84	2758.61
766.02	2854.87
766.20	2719.70
766.38	3082.19
766.56	2963.41
766.73	3024.85
766.91	2969.55
767.09	2967.51
767.27	2875.35
767.44	2815.96
767.62	3145.68
767.80	3004.37
767.98	2799.57
768.15	2846.68
768.33	3100.62
768.51	3147.73
768.69	2975.70
768.87	2854.87
769.04	3008.47
769.22	3510.22
769.40	2979.79
769.58	3024.85
769.75	2979.79
769.93	3160.02
770.11	2893.78
770.28	2803.67
770.46	3106.77
770.64	3028.95
770.82	2885.59
770.99	2789.33
771.17	3106.77
771.35	2844.63
771.53	2846.68
771.70	2789.33
771.88	2979.79
772.06	2920.40
772.23	2875.35
772.41	2967.51
772.59	2867.16
772.77	2875.35
772.94	2920.40
773.12	2906.07
773.30	2965.46
773.47	2955.22
773.65	2797.53
773.83	3090.38
774.01	3012.56
774.18	2752.47
774.36	2899.92
774.54	2754.52
774.71	3100.62
774.89	2750.42
775.07	2711.51
775.24	2899.92
775.42	2830.29
775.60	3268.56
775.78	2791.38
775.95	2717.65
776.13	2709.46
776.31	2760.66
776.48	2930.64
776.66	3008.47
776.84	2818.00
777.01	2832.34
777.19	2824.15
777.37	2768.85
777.54	3043.28
777.72	3391.44
777.90	3002.32
778.07	2818.00
778.25	3577.80
778.43	3178.45
778.60	2801.62
778.78	2934.74
778.96	3231.69
779.13	2746.33
779.31	2942.93
779.49	2961.36
779.66	3047.38
779.84	2922.45
780.01	2811.86
780.19	2789.33
780.37	3209.17
780.54	3090.38
780.72	2738.13
780.90	2899.92
781.07	2994.13
781.25	2899.92
781.43	3059.67
781.60	2789.33
781.78	3129.30
781.95	3071.95
782.13	2785.24
782.31	2840.53
782.48	2658.26
782.66	3037.14
782.83	3151.82
783.01	2973.65
783.19	3123.15
783.36	2848.72
783.54	2813.91
783.72	2936.79
783.89	2883.54
784.07	3088.34
784.24	2942.93
784.42	3051.47
784.60	2942.93
784.77	3033.04
784.95	2656.22
785.12	2787.29
785.30	2994.13
785.47	2844.63
785.65	2836.44
785.83	2840.53
786.00	2906.07
786.18	2965.46
786.35	2766.81
786.53	2740.18
786.71	3172.30
786.88	3090.38
787.06	2916.31
787.23	2969.55
787.41	2772.95
787.58	3012.56
787.76	2779.09
787.94	2897.88
788.11	2944.98
788.29	2783.19
788.46	2764.76
788.64	2729.94
788.81	2932.69
788.99	2787.29
789.16	2799.57
789.34	2904.02
789.52	2871.25
789.69	2957.27
789.87	2625.50
790.04	2836.44
790.22	2949.08
790.39	3307.47
790.57	2830.29
790.74	2731.99
790.92	3125.20
791.09	2686.94
791.27	2938.84
791.44	2953.17
791.62	3004.37
791.79	3164.11
791.97	2904.02
792.15	3266.51
792.32	3188.69
792.50	3170.26
792.67	3047.38
792.85	3047.38
793.02	2990.03
793.20	2928.60
793.37	2736.09
793.55	2803.67
793.72	2611.16
793.90	3045.33
794.07	2889.68
794.25	2742.23
794.42	2983.89
794.60	2922.45
794.77	2883.54
794.95	2955.22
795.12	3084.24
795.30	2861.01
795.47	2584.54
795.65	3250.13
795.82	3012.56
796.00	2873.30
796.17	2893.78
796.34	2758.61
796.52	3028.95
796.69	3147.73
796.87	2875.35
797.04	2904.02
797.22	3157.97
797.39	2969.55
797.57	3030.99
797.74	2957.27
797.92	3045.33
798.09	2924.50
798.27	3086.29
798.44	2811.86
798.62	2832.34
798.79	2973.65
798.96	2922.45
799.14	2885.59
799.31	3491.79
799.49	2818.00
799.66	2797.53
799.84	2871.25
800.01	2684.89
800.19	3006.42
800.36	2738.13
800.53	2875.35
800.71	3063.76
800.88	3239.89
801.06	2865.11
801.23	2805.72
801.41	2867.16
801.58	2805.72
801.75	2834.39
801.93	2924.50
802.10	3045.33
802.28	3045.33
802.45	2916.31
802.63	2809.81
802.80	3274.70
802.97	2875.35
803.15	2920.40
803.32	2844.63
803.50	2863.06
803.67	2856.92
803.84	2754.52
804.02	2875.35
804.19	2844.63
804.37	2617.30
804.54	2711.51
804.71	2813.91
804.89	2983.89
805.06	2869.20
805.24	2822.10
805.41	2721.75
805.58	2836.44
805.76	3373.00
805.93	2840.53
806.10	3010.51
806.28	3061.71
806.45	3020.75
806.63	3012.56
806.80	2828.24
806.97	2985.94
807.15	3047.38
807.32	2953.17
807.49	2867.16
807.67	2824.15
807.84	3057.62
808.01	2697.17
808.19	3022.80
808.36	3366.86
808.54	2881.49
808.71	2772.95
808.88	2815.96
809.06	3180.50
809.23	3284.94
809.40	2863.06
809.58	2926.55
809.75	2981.84
809.92	2826.20
810.10	3039.19
810.27	2850.77
810.44	3057.62
810.62	3094.48
810.79	2920.40
810.96	2828.24
811.14	2942.93
811.31	2969.55
811.48	3028.95
811.66	2908.12
811.83	3225.55
812.00	3143.63
812.18	2928.60
812.35	3200.98
812.52	2926.55
812.69	2969.55
812.87	2883.54
813.04	2772.95
813.21	3055.57
813.39	2824.15
813.56	2742.23
813.73	3108.82
813.91	2828.24
814.08	2973.65
814.25	2928.60
814.42	2611.16
814.60	2959.31
814.77	3020.75
814.94	2820.05
815.12	2975.70
815.29	3205.07
815.46	2834.39
815.63	2877.40
815.81	2881.49
815.98	2861.01
816.15	2914.26
816.33	2852.82
816.50	2963.41
816.67	2922.45
816.84	2867.16
817.02	2711.51
817.19	2895.83
817.36	2979.79
817.53	3143.63
817.71	2756.57
817.88	2934.74
818.05	2967.51
818.22	2887.64
818.40	3088.34
818.57	2811.86
818.74	3024.85
818.91	2961.36
819.09	3028.95
819.26	2987.99
819.43	2875.35
819.60	2799.57
819.78	2922.45
819.95	2940.88
820.12	2848.72
820.29	3235.79
820.47	3143.63
820.64	2766.81
820.81	2709.46
820.98	2779.09
821.15	2865.11
821.33	2987.99
821.50	2756.57
821.67	3002.32
821.84	2768.85
822.02	2914.26
822.19	3092.43
822.36	2863.06
822.53	2779.09
822.70	2713.56
822.88	2899.92
823.05	3262.41
823.22	2918.36
823.39	2910.16
823.56	2965.46
823.74	3315.66
823.91	2809.81
824.08	2668.50
824.25	2785.24
824.42	3205.07
824.60	2783.19
824.77	2912.21
824.94	2891.73
825.11	2983.89
825.28	2631.64
825.45	2963.41
825.63	3039.19
825.80	2856.92
825.97	2899.92
826.14	2930.64
826.31	2727.89
826.48	3125.20
826.66	2748.37
826.83	2815.96
827.00	2891.73
827.17	2803.67
827.34	2914.26
827.51	2772.95
827.69	2908.12
827.86	2707.41
828.03	2858.96
828.20	2922.45
828.37	2895.83
828.54	3074.00
828.71	2828.24
828.89	3014.61
829.06	3041.23
829.23	3194.83
829.40	2801.62
829.57	2772.95
829.74	3055.57
829.91	2809.81
830.09	2738.13
830.26	3033.04
830.43	3200.98
830.60	2920.40
830.77	3000.27
830.94	3043.28
831.11	3114.96
831.28	2820.05
831.46	2963.41
831.63	2885.59
831.80	3153.87
831.97	2858.96
832.14	2953.17
832.31	2852.82
832.48	3014.61
832.65	3133.39
832.82	2895.83
832.99	2891.73
833.17	2858.96
833.34	3211.22
833.51	2830.29
833.68	2631.64
833.85	3112.91
834.02	2820.05
834.19	2744.28
834.36	2709.46
834.53	2992.08
834.70	3133.39
834.87	2893.78
835.04	2637.78
835.22	2846.68
835.39	2881.49
835.56	2693.08
835.73	2693.08
835.90	3155.92
836.07	2838.48
836.24	2867.16
836.41	2740.18
836.58	2811.86
836.75	3114.96
836.92	2727.89
837.09	2654.17
837.26	3200.98
837.43	3002.32
837.60	2764.76
837.77	2709.46
837.94	3125.20
838.12	3143.63
838.29	2676.70
838.46	2623.45
838.63	2830.29
838.80	3225.55
838.97	2764.76
839.14	2697.17
839.31	3047.38
839.48	3049.43
839.65	2678.74
839.82	2799.57
839.99	3061.71
840.16	3010.51
840.33	2723.80
840.50	2760.66
840.67	2799.57
840.84	2631.64
841.01	2748.37
841.18	2656.22
841.35	2985.94
841.52	3162.06
841.69	3039.19
841.86	2775.00
842.03	2963.41
842.20	3045.33
842.37	2738.13
842.54	2746.33
842.71	2957.27
842.88	2766.81
843.05	2760.66
843.22	2777.05
843.39	3133.39
843.56	2852.82
843.73	2684.89
843.90	2725.85
844.07	3006.42
844.24	3147.73
844.41	2818.00
844.58	2738.13
844.75	3022.80
844.92	2975.70
845.09	2797.53
845.26	2705.37
845.43	3147.73
845.60	2959.31
845.77	2832.34
845.94	2914.26
846.10	3143.63
846.27	2797.53
846.44	2621.40
846.61	2633.69
846.78	3030.99
846.95	3139.54
847.12	2715.61
847.29	2820.05
847.46	2752.47
847.63	3110.86
847.80	2674.65
847.97	2703.32
848.14	3327.95
848.31	2930.64
848.48	2582.49
848.65	2779.09
848.82	2901.97
848.98	3342.28
849.15	2820.05
849.32	2867.16
849.49	3051.47
849.66	2979.79
849.83	2680.79
850.00	2666.46
850.17	3100.62
850.34	2944.98
850.51	2676.70
850.68	2725.85
850.85	3385.29
851.01	3053.52
851.18	2693.08
851.35	2803.67
851.52	3016.66
851.69	3190.74
851.86	2598.87
852.03	2656.22
852.20	3074.00
852.37	2912.21
852.53	2582.49
852.70	2693.08
852.87	2996.18
853.04	3076.05
853.21	2742.23
853.38	2940.88
853.55	3307.47
853.72	3196.88
853.89	2654.17
854.05	2691.03
854.22	2904.02
854.39	2865.11
854.56	2648.02
854.73	2922.45
854.90	2766.81
855.07	2924.50
855.23	2731.99
855.40	2605.02
855.57	2916.31
855.74	2619.35
855.91	2910.16
856.08	2564.06
856.25	2801.62
856.41	2885.59
856.58	2682.84
856.75	2789.33
856.92	2777.05
857.09	3114.96
857.26	2617.30
857.42	2811.86
857.59	3074.00
857.76	2908.12
857.93	2715.61
858.10	2818.00
858.27	2858.96
858.43	3000.27
858.60	2686.94
858.77	2598.87
858.94	2766.81
859.11	3203.02
859.27	2791.38
859.44	2623.45
859.61	3352.52
859.78	3049.43
859.95	2738.13
860.12	2707.41
860.28	3377.10
860.45	3268.56
860.62	2748.37
860.79	2811.86
860.95	2934.74
861.12	2791.38
861.29	2668.50
861.46	2752.47
861.63	2963.41
861.79	2936.79
861.96	2605.02
862.13	2721.75
862.30	3198.93
862.47	2815.96
862.63	2654.17
862.80	2734.04
862.97	3123.15
863.14	3045.33
863.30	2746.33
863.47	2635.74
863.64	3180.50
863.81	2992.08
863.97	2553.82
864.14	2734.04
864.31	2908.12
864.48	3000.27
864.65	2709.46
864.81	2873.30
864.98	3067.86
865.15	3123.15
865.32	2779.09
865.48	2818.00
865.65	3194.83
865.82	2805.72
865.98	2791.38
866.15	2713.56
866.32	2918.36
866.49	2938.84
866.65	2820.05
866.82	2709.46
866.99	2899.92
867.16	2838.48
867.32	2725.85
867.49	2682.84
867.66	2961.36
867.83	2883.54
867.99	2611.16
868.16	2772.95
868.33	2807.77
868.49	2955.22
868.66	2746.33
868.83	2813.91
868.99	2973.65
869.16	2992.08
869.33	2875.35
869.50	2756.57
869.66	3033.04
869.83	2887.64
870.00	2629.59
870.16	2924.50
870.33	2906.07
870.50	3108.82
870.66	2828.24
870.83	2795.48
871.00	2942.93
871.17	3010.51
871.33	2828.24
871.50	2664.41
871.67	2926.55
871.83	2889.68
872.00	2809.81
872.17	2748.37
872.33	3278.80
872.50	3174.35
872.67	2697.17
872.83	2734.04
873.00	2947.03
873.17	2959.31
873.33	2793.43
873.50	2779.09
873.67	2879.44
873.83	2848.72
874.00	2721.75
874.16	2967.51
874.33	3030.99
874.50	2764.76
874.66	2762.71
874.83	2740.18
875.00	3162.06
875.16	3151.82
875.33	2840.53
875.50	2510.81
875.66	2916.31
875.83	2959.31
875.99	2799.57
876.16	2731.99
876.33	2869.20
876.49	2914.26
876.66	2721.75
876.83	2803.67
876.99	2729.94
877.16	2914.26
877.32	2639.83
877.49	2807.77
877.66	3018.71
877.82	3219.41
877.99	2848.72
878.15	3028.95
878.32	3084.24
878.49	3002.32
878.65	2785.24
878.82	3051.47
878.98	2858.96
879.15	3278.80
879.32	2904.02
879.48	2891.73
879.65	3026.90
879.81	2920.40
879.98	2754.52
880.15	2709.46
880.31	3080.14
880.48	2805.72
880.64	2805.72
880.81	2777.05
880.97	3366.86
881.14	3164.11
881.31	2666.46
881.47	2951.12
881.64	2883.54
881.80	2744.28
881.97	2867.16
882.13	2756.57
882.30	2856.92
882.47	2811.86
882.63	2766.81
882.80	2639.83
882.96	2987.99
883.13	3166.16
883.29	2764.76
883.46	2764.76
883.62	3354.57
883.79	2992.08
883.95	2875.35
884.12	2762.71
884.29	3215.31
884.45	2961.36
884.62	2684.89
884.78	2770.90
884.95	3221.45
885.11	2754.52
885.28	2801.62
885.44	2785.24
885.61	3059.67
885.77	3254.22
885.94	2930.64
886.10	2822.10
886.27	2981.84
886.43	3248.08
886.60	3039.19
886.76	2787.29
886.93	2789.33
887.09	3047.38
887.26	2623.45
887.42	2703.32
887.59	3141.58
887.75	3430.35
887.92	2985.94
888.08	2861.01
888.25	3319.76
888.41	3192.78
888.58	2734.04
888.74	2709.46
888.91	2867.16
>>>>>End Processed Spectral Data<<<<<
