SpectraSuite Data File
++++++++++++++++++++++++++++++++++++
Date: Thu May 05 21:11:26 CEST 2016
User: root
Dark Spectrum Present: No
Reference Spectrum Present: No
Number of Sampled Component Spectra: 1
Spectrometers: USB4C02835
Integration Time (usec): 100000 (USB4C02835)
Spectra Averaged: 1 (USB4C02835)
Boxcar Smoothing: 0 (USB4C02835)
Correct for Electrical Dark: No (USB4C02835)
Strobe/Lamp Enabled: No (USB4C02835)
Correct for Detector Non-linearity: No (USB4C02835)
Correct for Stray Light: No (USB4C02835)
Number of Pixels in Processed Spectrum: 3648
>>>>>Begin Processed Spectral Data<<<<<
177.47	2234.33
177.69	2234.33
177.91	2234.33
178.13	2123.74
178.36	2187.23
178.58	2809.81
178.80	2854.87
179.02	2752.47
179.24	2791.38
179.46	2676.70
179.68	2729.94
179.90	3037.14
180.13	2936.79
180.35	2488.28
180.57	2658.26
180.79	3121.10
181.01	2893.78
181.23	2766.81
181.45	2815.96
181.67	3123.15
181.90	3147.73
182.12	2764.76
182.34	2502.62
182.56	3151.82
182.78	3092.43
183.00	2670.55
183.22	2713.56
183.44	2752.47
183.66	3450.83
183.89	2813.91
184.11	2721.75
184.33	3121.10
184.55	3119.06
184.77	2611.16
184.99	2746.33
185.21	2912.21
185.43	3524.55
185.65	2639.83
185.87	2588.63
186.10	3375.05
186.32	3364.81
186.54	2756.57
186.76	2803.67
186.98	3211.22
187.20	2916.31
187.42	2754.52
187.64	2635.74
187.86	3063.76
188.08	3117.01
188.30	2627.54
188.52	2815.96
188.75	3155.92
188.97	3190.74
189.19	2660.31
189.41	2664.41
189.63	3041.23
189.85	2916.31
190.07	2578.39
190.29	2512.86
190.51	3076.05
190.73	2715.61
190.95	2836.44
191.17	2738.13
191.39	2742.23
191.61	2998.23
191.84	2672.60
192.06	2805.72
192.28	2846.68
192.50	3567.56
192.72	2838.48
192.94	2777.05
193.16	3092.43
193.38	3065.81
193.60	2598.87
193.82	2824.15
194.04	3239.89
194.26	2994.13
194.48	2648.02
194.70	2691.03
194.92	2867.16
195.14	3104.72
195.36	2674.65
195.58	2746.33
195.80	3020.75
196.02	2793.43
196.24	2664.41
196.46	2764.76
196.69	2977.75
196.91	3401.68
197.13	2775.00
197.35	2762.71
197.57	3307.47
197.79	3129.30
198.01	2781.14
198.23	2775.00
198.45	3033.04
198.67	2824.15
198.89	2498.52
199.11	2801.62
199.33	2914.26
199.55	2654.17
199.77	2635.74
199.99	2807.77
200.21	2877.40
200.43	3086.29
200.65	2523.10
200.87	2617.30
201.09	2990.03
201.31	2916.31
201.53	2703.32
201.75	2781.14
201.97	3030.99
202.19	3016.66
202.41	2766.81
202.63	2738.13
202.85	3037.14
203.07	3076.05
203.29	2766.81
203.51	2617.30
203.73	2830.29
203.95	3518.41
204.17	2662.36
204.39	2861.01
204.61	2932.69
204.83	2944.98
205.05	2840.53
205.27	2740.18
205.49	3405.77
205.71	2983.89
205.93	2562.01
206.15	2625.50
206.37	3016.66
206.59	2992.08
206.81	2525.15
207.03	2566.10
207.25	2789.33
207.47	3069.91
207.69	2697.17
207.91	2967.51
208.13	3178.45
208.34	2881.49
208.56	2590.68
208.78	2641.88
209.00	2863.06
209.22	2967.51
209.44	2658.26
209.66	2686.94
209.88	2947.03
210.10	2899.92
210.32	2699.22
210.54	2820.05
210.76	2928.60
210.98	3135.44
211.20	2596.82
211.42	2772.95
211.64	3229.65
211.86	3108.82
212.08	2746.33
212.30	2691.03
212.52	2975.70
212.74	3133.39
212.96	2668.50
213.17	2770.90
213.39	3127.25
213.61	3325.90
213.83	2684.89
214.05	2617.30
214.27	3131.34
214.49	2842.58
214.71	2621.40
214.93	2762.71
215.15	3010.51
215.37	3141.58
215.59	2553.82
215.81	2734.04
216.03	3182.54
216.24	3033.04
216.46	2701.27
216.68	2750.42
216.90	3112.91
217.12	3131.34
217.34	2598.87
217.56	2887.64
217.78	3223.50
218.00	3098.58
218.22	2734.04
218.44	2752.47
218.66	3102.67
218.87	3405.77
219.09	2738.13
219.31	2752.47
219.53	3059.67
219.75	2885.59
219.97	2707.41
220.19	2707.41
220.41	3010.51
220.63	3291.09
220.85	2715.61
221.06	2717.65
221.28	3192.78
221.50	3106.77
221.72	2666.46
221.94	2678.74
222.16	3004.37
222.38	3145.68
222.60	2762.71
222.82	2750.42
223.03	3143.63
223.25	2840.53
223.47	2684.89
223.69	2930.64
223.91	3125.20
224.13	2992.08
224.35	2615.26
224.57	2928.60
224.78	3176.40
225.00	2793.43
225.22	2799.57
225.44	2631.64
225.66	3074.00
225.88	2957.27
226.10	2787.29
226.32	2680.79
226.53	3256.27
226.75	2920.40
226.97	2799.57
227.19	2674.65
227.41	2826.20
227.63	2811.86
227.85	2549.72
228.06	2715.61
228.28	3082.19
228.50	3143.63
228.72	2592.73
228.94	2652.12
229.16	2695.13
229.37	2707.41
229.59	2650.07
229.81	2899.92
230.03	2944.98
230.25	2766.81
230.47	2557.91
230.69	2707.41
230.90	3248.08
231.12	2887.64
231.34	2764.76
231.56	2764.76
231.78	2822.10
232.00	3102.67
232.21	2609.11
232.43	2754.52
232.65	2672.60
232.87	3094.48
233.09	2568.15
233.30	2568.15
233.52	3190.74
233.74	2969.55
233.96	2666.46
234.18	2815.96
234.40	2949.08
234.61	3344.33
234.83	2666.46
235.05	2572.25
235.27	3428.30
235.49	3164.11
235.70	2576.34
235.92	2717.65
236.14	3123.15
236.36	3422.16
236.58	2539.48
236.79	2854.87
237.01	3074.00
237.23	2953.17
237.45	2906.07
237.67	2715.61
237.88	3119.06
238.10	3307.47
238.32	2648.02
238.54	2660.31
238.76	2953.17
238.97	2818.00
239.19	2594.78
239.41	2830.29
239.63	3176.40
239.85	2899.92
240.06	2684.89
240.28	2725.85
240.50	3184.59
240.72	3020.75
240.93	2602.97
241.15	2799.57
241.37	2936.79
241.59	3168.21
241.81	2668.50
242.02	2801.62
242.24	3010.51
242.46	3119.06
242.68	2568.15
242.89	2631.64
243.11	3219.41
243.33	2992.08
243.55	2666.46
243.76	2754.52
243.98	2910.16
244.20	2979.79
244.42	2709.46
244.64	2678.74
244.85	2715.61
245.07	2770.90
245.29	2750.42
245.51	2701.27
245.72	3016.66
245.94	3074.00
246.16	2645.98
246.38	2770.90
246.59	2828.24
246.81	2881.49
247.03	2660.31
247.24	2582.49
247.46	2865.11
247.68	3074.00
247.90	2652.12
248.11	2758.61
248.33	3037.14
248.55	2983.89
248.77	2721.75
248.98	2709.46
249.20	3180.50
249.42	3028.95
249.64	2631.64
249.85	2658.26
250.07	2820.05
250.29	3135.44
250.50	2818.00
250.72	2600.92
250.94	3053.52
251.16	3385.29
251.37	2584.54
251.59	2799.57
251.81	3039.19
252.02	3213.26
252.24	2691.03
252.46	2754.52
252.68	2836.44
252.89	2908.12
253.11	2555.86
253.33	2850.77
253.54	3274.70
253.76	2809.81
253.98	2752.47
254.20	2701.27
254.41	2752.47
254.63	3033.04
254.85	2547.67
255.06	2848.72
255.28	3074.00
255.50	2858.96
255.71	2627.54
255.93	2549.72
256.15	2930.64
256.36	3098.58
256.58	2557.91
256.80	2631.64
257.02	2994.13
257.23	2914.26
257.45	2693.08
257.67	2772.95
257.88	2895.83
258.10	3045.33
258.32	2705.37
258.53	2727.89
258.75	3317.71
258.97	2826.20
259.18	2592.73
259.40	2676.70
259.62	3254.22
259.83	3282.89
260.05	2678.74
260.27	3471.31
260.48	3155.92
260.70	2875.35
260.92	2576.34
261.13	2705.37
261.35	3012.56
261.57	3037.14
261.78	2633.69
262.00	2650.07
262.22	3063.76
262.43	2867.16
262.65	2734.04
262.86	2793.43
263.08	3405.77
263.30	3063.76
263.51	2541.53
263.73	2754.52
263.95	3246.03
264.16	2772.95
264.38	2576.34
264.60	2660.31
264.81	2916.31
265.03	3112.91
265.25	3014.61
265.46	2619.35
265.68	3219.41
265.89	3024.85
266.11	2568.15
266.33	2668.50
266.54	3117.01
266.76	3098.58
266.98	2760.66
267.19	2834.39
267.41	3213.26
267.62	2953.17
267.84	2494.43
268.06	2777.05
268.27	3078.10
268.49	3233.74
268.70	2660.31
268.92	2656.22
269.14	2832.34
269.35	2729.94
269.57	2768.85
269.79	2744.28
270.00	2887.64
270.22	3291.09
270.43	2590.68
270.65	2562.01
270.87	3055.57
271.08	3063.76
271.30	2885.59
271.51	2699.22
271.73	3035.09
271.95	3211.22
272.16	2711.51
272.38	2875.35
272.59	2897.88
272.81	3080.14
273.02	2686.94
273.24	2775.00
273.46	3084.24
273.67	2863.06
273.89	2588.63
274.10	2664.41
274.32	3110.86
274.54	2981.84
274.75	2729.94
274.97	2756.57
275.18	3082.19
275.40	3069.91
275.61	2725.85
275.83	2910.16
276.05	2766.81
276.26	2828.24
276.48	2748.37
276.69	2838.48
276.91	2877.40
277.12	3248.08
277.34	2826.20
277.55	3020.75
277.77	3074.00
277.99	2992.08
278.20	2783.19
278.42	2678.74
278.63	2957.27
278.85	2787.29
279.06	2717.65
279.28	2934.74
279.49	3143.63
279.71	3090.38
279.93	2861.01
280.14	2793.43
280.36	2832.34
280.57	3114.96
280.79	2836.44
281.00	2682.84
281.22	2881.49
281.43	3164.11
281.65	2576.34
281.86	2717.65
282.08	3164.11
282.29	3385.29
282.51	2639.83
282.73	2723.80
282.94	2770.90
283.16	3106.77
283.37	2834.39
283.59	2799.57
283.80	3088.34
284.02	3088.34
284.23	2840.53
284.45	2873.30
284.66	2856.92
284.88	2885.59
285.09	2801.62
285.31	2881.49
285.52	3030.99
285.74	2666.46
285.95	2977.75
286.17	2858.96
286.38	3145.68
286.60	2932.69
286.81	2777.05
287.03	2758.61
287.24	2910.16
287.46	3129.30
287.67	2918.36
287.89	3037.14
288.10	3039.19
288.32	3020.75
288.53	3014.61
288.75	2820.05
288.96	3141.58
289.18	2889.68
289.39	2672.60
289.61	2856.92
289.82	3315.66
290.04	3399.63
290.25	2598.87
290.47	2826.20
290.68	2940.88
290.90	3117.01
291.11	2631.64
291.33	3010.51
291.54	2807.77
291.76	2891.73
291.97	2844.63
292.18	2918.36
292.40	2981.84
292.61	2820.05
292.83	3053.52
293.04	2850.77
293.26	3074.00
293.47	2879.44
293.69	2734.04
293.90	2717.65
294.12	3209.17
294.33	2969.55
294.55	2783.19
294.76	3028.95
294.97	3252.17
295.19	3389.39
295.40	2777.05
295.62	2807.77
295.83	3139.54
296.05	2877.40
296.26	2965.46
296.48	2752.47
296.69	2932.69
296.90	2936.79
297.12	2883.54
297.33	3041.23
297.55	2942.93
297.76	3061.71
297.98	2871.25
298.19	2930.64
298.41	2908.12
298.62	2846.68
298.83	2975.70
299.05	2916.31
299.26	2901.97
299.48	2799.57
299.69	2838.48
299.90	2848.72
300.12	2836.44
300.33	3114.96
300.55	2865.11
300.76	2895.83
300.98	2818.00
301.19	3076.05
301.40	2779.09
301.62	2787.29
301.83	3063.76
302.05	3080.14
302.26	2844.63
302.47	2846.68
302.69	2856.92
302.90	2996.18
303.12	2627.54
303.33	2963.41
303.54	3319.76
303.76	2854.87
303.97	2838.48
304.19	2994.13
304.40	2895.83
304.61	3198.93
304.83	2944.98
305.04	2865.11
305.26	3035.09
305.47	3004.37
305.68	2807.77
305.90	2682.84
306.11	3229.65
306.33	2977.75
306.54	2652.12
306.75	2789.33
306.97	2799.57
307.18	2867.16
307.39	2807.77
307.61	2922.45
307.82	2906.07
308.04	2992.08
308.25	2660.31
308.46	2893.78
308.68	2959.31
308.89	2936.79
309.10	2942.93
309.32	2893.78
309.53	2936.79
309.74	3043.28
309.96	2717.65
310.17	2932.69
310.39	2924.50
310.60	3155.92
310.81	2844.63
311.03	2682.84
311.24	3125.20
311.45	2979.79
311.67	3092.43
311.88	2879.44
312.09	2897.88
312.31	2879.44
312.52	2775.00
312.73	2795.48
312.95	2736.09
313.16	2813.91
313.37	3012.56
313.59	2926.55
313.80	3114.96
314.01	3305.42
314.23	2791.38
314.44	2752.47
314.65	2758.61
314.87	2842.58
315.08	2680.79
315.29	2795.48
315.51	2861.01
315.72	2711.51
315.93	2947.03
316.15	2875.35
316.36	2822.10
316.57	3035.09
316.79	2877.40
317.00	2848.72
317.21	3022.80
317.43	2805.72
317.64	2854.87
317.85	2746.33
318.07	2901.97
318.28	2920.40
318.49	2891.73
318.70	2969.55
318.92	3086.29
319.13	3071.95
319.34	2998.23
319.56	2766.81
319.77	3143.63
319.98	3112.91
320.20	3057.62
320.41	2910.16
320.62	3061.71
320.83	2758.61
321.05	3069.91
321.26	2887.64
321.47	2973.65
321.69	3192.78
321.90	2725.85
322.11	2731.99
322.32	2949.08
322.54	3198.93
322.75	2758.61
322.96	3596.23
323.18	2713.56
323.39	2729.94
323.60	2775.00
323.81	2883.54
324.03	2822.10
324.24	2990.03
324.45	2914.26
324.66	2701.27
324.88	3264.46
325.09	3227.60
325.30	2815.96
325.52	2799.57
325.73	2981.84
325.94	2818.00
326.15	2623.45
326.37	2691.03
326.58	3104.72
326.79	3215.31
327.00	2715.61
327.22	2828.24
327.43	2944.98
327.64	2813.91
327.85	2904.02
328.07	2856.92
328.28	3342.28
328.49	2906.07
328.70	2793.43
328.92	2781.14
329.13	2924.50
329.34	3123.15
329.55	3069.91
329.76	2942.93
329.98	2885.59
330.19	3174.35
330.40	2772.95
330.61	2983.89
330.83	3096.53
331.04	2877.40
331.25	2852.82
331.46	2775.00
331.68	2768.85
331.89	3182.54
332.10	2826.20
332.31	2729.94
332.52	2967.51
332.74	3219.41
332.95	2695.13
333.16	2762.71
333.37	3141.58
333.58	2926.55
333.80	2803.67
334.01	2641.88
334.22	2963.41
334.43	2832.34
334.64	2762.71
334.86	2639.83
335.07	2768.85
335.28	3282.89
335.49	2699.22
335.70	2869.20
335.92	3178.45
336.13	3356.62
336.34	2918.36
336.55	2734.04
336.76	3198.93
336.98	2656.22
337.19	2852.82
337.40	2944.98
337.61	3483.59
337.82	2936.79
338.04	2873.30
338.25	2627.54
338.46	2979.79
338.67	2992.08
338.88	2764.76
339.09	2760.66
339.31	2889.68
339.52	2758.61
339.73	2705.37
339.94	2799.57
340.15	3117.01
340.36	2901.97
340.58	2865.11
340.79	2740.18
341.00	3129.30
341.21	2838.48
341.42	3074.00
341.63	2688.98
341.85	3084.24
342.06	3117.01
342.27	2809.81
342.48	2916.31
342.69	2799.57
342.90	3092.43
343.12	3143.63
343.33	2768.85
343.54	3139.54
343.75	3223.50
343.96	2834.39
344.17	2686.94
344.38	2992.08
344.60	2854.87
344.81	2662.36
345.02	2795.48
345.23	3151.82
345.44	3413.96
345.65	2865.11
345.86	2871.25
346.07	2957.27
346.29	2932.69
346.50	2959.31
346.71	2924.50
346.92	3248.08
347.13	3381.20
347.34	2856.92
347.55	2740.18
347.76	3059.67
347.98	2783.19
348.19	2832.34
348.40	2969.55
348.61	2865.11
348.82	3241.93
349.03	2861.01
349.24	2707.41
349.45	3368.91
349.66	2619.35
349.88	2779.09
350.09	2725.85
350.30	3289.04
350.51	3276.75
350.72	2957.27
350.93	2783.19
351.14	2971.60
351.35	3022.80
351.56	2830.29
351.77	2830.29
351.99	3164.11
352.20	3260.37
352.41	2967.51
352.62	2627.54
352.83	2895.83
353.04	2953.17
353.25	2762.71
353.46	2885.59
353.67	3145.68
353.88	2641.88
354.09	2719.70
354.30	2842.58
354.52	3168.21
354.73	2983.89
354.94	2787.29
355.15	2883.54
355.36	3293.13
355.57	2854.87
355.78	2760.66
355.99	2752.47
356.20	2955.22
356.41	3145.68
356.62	2836.44
356.83	2832.34
357.04	3280.85
357.25	2754.52
357.46	2877.40
357.68	2615.26
357.89	2887.64
358.10	3028.95
358.31	2842.58
358.52	2846.68
358.73	2762.71
358.94	2822.10
359.15	2764.76
359.36	2875.35
359.57	3026.90
359.78	2959.31
359.99	3022.80
360.20	2680.79
360.41	3008.47
360.62	3100.62
360.83	2885.59
361.04	2904.02
361.25	3030.99
361.46	3205.07
361.67	2891.73
361.88	2848.72
362.09	3176.40
362.30	3010.51
362.51	2672.60
362.72	2832.34
362.93	3135.44
363.14	3069.91
363.35	2850.77
363.56	2742.23
363.78	3133.39
363.99	3149.78
364.20	2772.95
364.41	2822.10
364.62	3336.14
364.83	3012.56
365.04	2842.58
365.25	2906.07
365.46	3344.33
365.67	2873.30
365.88	2881.49
366.09	2834.39
366.30	3012.56
366.51	3028.95
366.72	2744.28
366.93	2809.81
367.14	3047.38
367.35	3289.04
367.56	2746.33
367.77	2973.65
367.98	2985.94
368.18	3037.14
368.39	2947.03
368.60	2793.43
368.81	3104.72
369.02	3100.62
369.23	2852.82
369.44	2693.08
369.65	2895.83
369.86	3051.47
370.07	2916.31
370.28	2721.75
370.49	3055.57
370.70	3061.71
370.91	2711.51
371.12	2684.89
371.33	3211.22
371.54	2852.82
371.75	2932.69
371.96	2521.05
372.17	3002.32
372.38	2858.96
372.59	2840.53
372.80	2799.57
373.01	2967.51
373.22	2992.08
373.43	2801.62
373.64	2680.79
373.85	3250.13
374.06	3278.80
374.26	2987.99
374.47	2951.12
374.68	3239.89
374.89	3043.28
375.10	2717.65
375.31	2940.88
375.52	3000.27
375.73	3055.57
375.94	2617.30
376.15	2893.78
376.36	2865.11
376.57	2867.16
376.78	2842.58
376.99	2863.06
377.20	3112.91
377.40	2957.27
377.61	3000.27
377.82	2699.22
378.03	3164.11
378.24	3078.10
378.45	2854.87
378.66	2908.12
378.87	2715.61
379.08	2811.86
379.29	2818.00
379.50	2977.75
379.71	2983.89
379.91	3123.15
380.12	2811.86
380.33	2809.81
380.54	2985.94
380.75	2949.08
380.96	2750.42
381.17	2885.59
381.38	3002.32
381.59	2904.02
381.80	2858.96
382.00	3051.47
382.21	3010.51
382.42	3178.45
382.63	3215.31
382.84	2885.59
383.05	3110.86
383.26	3256.27
383.47	2897.88
383.68	2791.38
383.88	3125.20
384.09	3008.47
384.30	3053.52
384.51	3004.37
384.72	2918.36
384.93	2758.61
385.14	2918.36
385.35	3084.24
385.55	2762.71
385.76	3143.63
385.97	2848.72
386.18	2656.22
386.39	2828.24
386.60	2869.20
386.81	2738.13
387.02	2707.41
387.22	2734.04
387.43	3104.72
387.64	2920.40
387.85	3024.85
388.06	3121.10
388.27	4032.45
388.48	7331.73
388.68	10934.11
388.89	13455.15
389.10	14745.38
389.31	14028.59
389.52	11267.92
389.73	9664.36
389.93	8890.23
390.14	8105.86
390.35	7384.98
390.56	6741.91
390.77	5697.45
390.98	4364.22
391.18	3676.10
391.39	3321.81
391.60	2977.75
391.81	3012.56
392.02	2858.96
392.23	3375.05
392.43	3004.37
392.64	2926.55
392.85	2904.02
393.06	3254.22
393.27	2983.89
393.47	2760.66
393.68	2897.88
393.89	2912.21
394.10	3149.78
394.31	2871.25
394.52	2768.85
394.72	2801.62
394.93	3250.13
395.14	2723.80
395.35	2963.41
395.56	2861.01
395.76	3008.47
395.97	2787.29
396.18	3004.37
396.39	3084.24
396.60	3538.89
396.80	3110.86
397.01	3039.19
397.22	3145.68
397.43	3215.31
397.64	2801.62
397.84	2873.30
398.05	3325.90
398.26	2940.88
398.47	2973.65
398.67	3065.81
398.88	3035.09
399.09	3055.57
399.30	2750.42
399.51	2920.40
399.71	2840.53
399.92	2955.22
400.13	2932.69
400.34	2844.63
400.54	3090.38
400.75	3241.93
400.96	2969.55
401.17	3055.57
401.37	3108.82
401.58	2910.16
401.79	2801.62
402.00	2987.99
402.21	3366.86
402.41	3131.34
402.62	2971.60
402.83	3215.31
403.04	3399.63
403.24	3604.42
403.45	3022.80
403.66	3137.49
403.87	3166.16
404.07	3260.37
404.28	3117.01
404.49	3082.19
404.70	3076.05
404.90	3047.38
405.11	2811.86
405.32	2910.16
405.52	2885.59
405.73	2836.44
405.94	2777.05
406.15	2979.79
406.35	3086.29
406.56	3239.89
406.77	2830.29
406.98	2852.82
407.18	2875.35
407.39	3186.64
407.60	2748.37
407.80	2979.79
408.01	2959.31
408.22	3002.32
408.43	2688.98
408.63	2992.08
408.84	3133.39
409.05	3170.26
409.25	2758.61
409.46	2904.02
409.67	2916.31
409.88	2936.79
410.08	2879.44
410.29	2809.81
410.50	3215.31
410.70	3088.34
410.91	2697.17
411.12	2861.01
411.32	2975.70
411.53	2797.53
411.74	2793.43
411.95	2942.93
412.15	2936.79
412.36	3135.44
412.57	3012.56
412.77	3002.32
412.98	2971.60
413.19	2850.77
413.39	2858.96
413.60	2910.16
413.81	3305.42
414.01	2895.83
414.22	2875.35
414.43	2926.55
414.63	2906.07
414.84	3149.78
415.05	2852.82
415.25	2766.81
415.46	3137.49
415.67	2897.88
415.87	2836.44
416.08	2858.96
416.29	2981.84
416.49	3160.02
416.70	2846.68
416.91	2893.78
417.11	2961.36
417.32	3117.01
417.53	2994.13
417.73	2983.89
417.94	3010.51
418.15	3102.67
418.35	2899.92
418.56	2912.21
418.77	3467.21
418.97	2985.94
419.18	2973.65
419.38	2543.58
419.59	2951.12
419.80	3190.74
420.00	2758.61
420.21	2904.02
420.42	3151.82
420.62	3112.91
420.83	2779.09
421.04	2850.77
421.24	2936.79
421.45	3061.71
421.65	2938.84
421.86	2861.01
422.07	3145.68
422.27	3071.95
422.48	2828.24
422.69	2731.99
422.89	2955.22
423.10	2959.31
423.30	2797.53
423.51	2883.54
423.72	3100.62
423.92	3100.62
424.13	2721.75
424.33	2957.27
424.54	3170.26
424.75	2983.89
424.95	3035.09
425.16	2785.24
425.36	2949.08
425.57	3117.01
425.78	2990.03
425.98	2922.45
426.19	2947.03
426.39	2770.90
426.60	2916.31
426.81	3022.80
427.01	3004.37
427.22	2883.54
427.42	2717.65
427.63	2772.95
427.83	3147.73
428.04	3246.03
428.25	2906.07
428.45	2932.69
428.66	3143.63
428.86	2940.88
429.07	2826.20
429.28	2858.96
429.48	2965.46
429.69	2889.68
429.89	2840.53
430.10	2709.46
430.30	3155.92
430.51	3176.40
430.71	2789.33
430.92	2957.27
431.13	2869.20
431.33	3067.86
431.54	2899.92
431.74	3024.85
431.95	3366.86
432.15	2713.56
432.36	2873.30
432.56	2879.44
432.77	3336.14
432.98	3284.94
433.18	2832.34
433.39	2725.85
433.59	2967.51
433.80	3243.98
434.00	3100.62
434.21	2822.10
434.41	2877.40
434.62	3407.82
434.82	2754.52
435.03	2752.47
435.23	3018.71
435.44	2713.56
435.64	2793.43
435.85	2889.68
436.06	3162.06
436.26	3137.49
436.47	2848.72
436.67	2746.33
436.88	2910.16
437.08	3143.63
437.29	2971.60
437.49	2977.75
437.70	3200.98
437.90	2977.75
438.11	3086.29
438.31	2912.21
438.52	3153.87
438.72	3065.81
438.93	3162.06
439.13	2912.21
439.34	3209.17
439.54	2871.25
439.75	2955.22
439.95	2916.31
440.16	2877.40
440.36	3018.71
440.57	2852.82
440.77	2893.78
440.98	2977.75
441.18	3037.14
441.39	2818.00
441.59	2746.33
441.80	3370.96
442.00	2942.93
442.21	2947.03
442.41	2693.08
442.62	3182.54
442.82	2801.62
443.02	2815.96
443.23	2848.72
443.43	2961.36
443.64	3200.98
443.84	2766.81
444.05	2920.40
444.25	3016.66
444.46	2865.11
444.66	2842.58
444.87	2987.99
445.07	2758.61
445.28	2955.22
445.48	3061.71
445.69	2918.36
445.89	3440.59
446.09	2959.31
446.30	3104.72
446.50	3264.46
446.71	4685.75
446.91	5834.66
447.12	6561.69
447.32	7088.02
447.53	6809.50
447.73	5808.04
447.93	4960.18
448.14	4851.64
448.34	4749.24
448.55	4093.89
448.75	4069.31
448.96	3893.19
449.16	3626.95
449.36	3522.51
449.57	3035.09
449.77	2951.12
449.98	2881.49
450.18	3114.96
450.39	2865.11
450.59	3030.99
450.79	2992.08
451.00	2801.62
451.20	2940.88
451.41	2766.81
451.61	3092.43
451.81	2985.94
452.02	2828.24
452.22	2789.33
452.43	2912.21
452.63	2867.16
452.84	2797.53
453.04	2758.61
453.24	3018.71
453.45	2873.30
453.65	2828.24
453.86	2920.40
454.06	2981.84
454.26	3008.47
454.47	2818.00
454.67	3090.38
454.87	3084.24
455.08	2820.05
455.28	2990.03
455.49	2924.50
455.69	2834.39
455.89	3325.90
456.10	2996.18
456.30	2797.53
456.51	3225.55
456.71	2922.45
456.91	2871.25
457.12	2867.16
457.32	2983.89
457.52	2828.24
457.73	2955.22
457.93	3043.28
458.14	2895.83
458.34	2674.65
458.54	2838.48
458.75	2756.57
458.95	3174.35
459.15	3049.43
459.36	2922.45
459.56	2848.72
459.76	3364.81
459.97	3047.38
460.17	2764.76
460.37	3002.32
460.58	3065.81
460.78	3098.58
460.99	2922.45
461.19	2811.86
461.39	2961.36
461.60	2965.46
461.80	2938.84
462.00	2680.79
462.21	3012.56
462.41	2838.48
462.61	2799.57
462.82	2660.31
463.02	3125.20
463.22	3078.10
463.43	2914.26
463.63	2793.43
463.83	3184.59
464.04	3004.37
464.24	2736.09
464.44	2781.14
464.64	2973.65
464.85	3176.40
465.05	2998.23
465.25	2770.90
465.46	2824.15
465.66	3080.14
465.86	2938.84
466.07	2893.78
466.27	3028.95
466.47	2785.24
466.68	2738.13
466.88	3033.04
467.08	3035.09
467.29	3196.88
467.49	2826.20
467.69	2914.26
467.89	3168.21
468.10	2910.16
468.30	2942.93
468.50	2983.89
468.71	3065.81
468.91	2779.09
469.11	3022.80
469.31	2928.60
469.52	2826.20
469.72	3307.47
469.92	3155.92
470.13	2858.96
470.33	3121.10
470.53	3035.09
470.73	3166.16
470.94	3473.36
471.14	3667.91
471.34	4124.61
471.54	3930.05
471.75	3534.79
471.95	3436.49
472.15	3336.14
472.36	3303.37
472.56	3153.87
472.76	3413.96
472.96	3229.65
473.17	3106.77
473.37	3022.80
473.57	2942.93
473.77	3080.14
473.98	2932.69
474.18	2721.75
474.38	3569.61
474.58	2901.97
474.79	2715.61
474.99	2961.36
475.19	3223.50
475.39	2797.53
475.60	2871.25
475.80	2844.63
476.00	3014.61
476.20	3010.51
476.41	2865.11
476.61	2897.88
476.81	3184.59
477.01	2865.11
477.21	3035.09
477.42	3008.47
477.62	2858.96
477.82	3092.43
478.02	2787.29
478.23	2887.64
478.43	2772.95
478.63	2901.97
478.83	2920.40
479.03	2914.26
479.24	3153.87
479.44	3338.19
479.64	2766.81
479.84	2627.54
480.04	2846.68
480.25	3188.69
480.45	2783.19
480.65	2789.33
480.85	3229.65
481.06	2818.00
481.26	2957.27
481.46	2826.20
481.66	3102.67
481.86	2858.96
482.06	3037.14
482.27	2861.01
482.47	2971.60
482.67	3104.72
482.87	2863.06
483.07	2904.02
483.28	2899.92
483.48	2873.30
483.68	2834.39
483.88	2758.61
484.08	2725.85
484.29	2754.52
484.49	2883.54
484.69	2635.74
484.89	3289.04
485.09	3147.73
485.29	2869.20
485.50	2891.73
485.70	2918.36
485.90	3205.07
486.10	2990.03
486.30	2807.77
486.50	3211.22
486.71	3014.61
486.91	2981.84
487.11	2920.40
487.31	2727.89
487.51	2973.65
487.71	2772.95
487.91	2752.47
488.12	2791.38
488.32	2625.50
488.52	2791.38
488.72	2576.34
488.92	3047.38
489.12	3266.51
489.32	3033.04
489.53	2883.54
489.73	2768.85
489.93	3260.37
490.13	2756.57
490.33	2734.04
490.53	3039.19
490.73	3203.02
490.94	2686.94
491.14	2959.31
491.34	3127.25
491.54	3209.17
491.74	3708.87
491.94	4151.23
492.14	4749.24
492.34	4663.22
492.54	4300.73
492.75	3813.32
492.95	3880.90
493.15	3739.59
493.35	3622.86
493.55	3393.48
493.75	3299.28
493.95	3495.88
494.15	3086.29
494.35	2852.82
494.56	2996.18
494.76	2858.96
494.96	3012.56
495.16	2799.57
495.36	2949.08
495.56	2914.26
495.76	2926.55
495.96	2854.87
496.16	2867.16
496.36	3291.09
496.56	2848.72
496.77	2867.16
496.97	2936.79
497.17	3157.97
497.37	2688.98
497.57	3012.56
497.77	3043.28
497.97	2899.92
498.17	2818.00
498.37	2858.96
498.57	3071.95
498.77	2918.36
498.97	3026.90
499.17	3102.67
499.38	2885.59
499.58	3100.62
499.78	3014.61
499.98	3053.52
500.18	2885.59
500.38	2807.77
500.58	3039.19
500.78	3401.68
500.98	5453.74
501.18	7280.53
501.38	8853.37
501.58	9678.70
501.78	9707.37
501.98	8189.83
502.18	6750.10
502.38	5887.91
502.58	5728.17
502.78	5050.29
502.98	4904.89
503.18	4630.46
503.38	4390.84
503.59	3788.74
503.79	3598.28
503.99	3381.20
504.19	3471.31
504.39	3409.87
504.59	3317.71
504.79	3282.89
504.99	3495.88
505.19	3209.17
505.39	2971.60
505.59	3289.04
505.79	3297.23
505.99	3135.44
506.19	2883.54
506.39	3121.10
506.59	2863.06
506.79	2996.18
506.99	3080.14
507.19	2850.77
507.39	3045.33
507.59	2779.09
507.79	2848.72
507.99	2781.14
508.19	3030.99
508.39	2891.73
508.59	2803.67
508.79	2930.64
508.99	3295.18
509.19	2944.98
509.39	2959.31
509.59	2731.99
509.79	2885.59
509.99	3002.32
510.19	3063.76
510.39	3055.57
510.59	3039.19
510.79	2883.54
510.99	2703.32
511.19	2809.81
511.39	3217.36
511.59	3147.73
511.79	3069.91
511.99	2842.58
512.19	3313.61
512.38	3010.51
512.58	2801.62
512.78	2785.24
512.98	3145.68
513.18	3243.98
513.38	2729.94
513.58	2967.51
513.78	2949.08
513.98	3016.66
514.18	2805.72
514.38	2822.10
514.58	3055.57
514.78	2897.88
514.98	2795.48
515.18	2887.64
515.38	2764.76
515.58	3280.85
515.78	2848.72
515.98	2873.30
516.18	3039.19
516.38	2955.22
516.57	2836.44
516.77	2815.96
516.97	3069.91
517.17	2836.44
517.37	2717.65
517.57	2897.88
517.77	2934.74
517.97	2854.87
518.17	2885.59
518.37	2779.09
518.57	2844.63
518.77	2901.97
518.97	2904.02
519.16	2893.78
519.36	3213.26
519.56	2879.44
519.76	2777.05
519.96	2879.44
520.16	3229.65
520.36	2842.58
520.56	2955.22
520.76	2793.43
520.96	2936.79
521.16	3125.20
521.35	3026.90
521.55	2987.99
521.75	3090.38
521.95	2912.21
522.15	2840.53
522.35	2660.31
522.55	2818.00
522.75	3182.54
522.95	2809.81
523.14	2756.57
523.34	3008.47
523.54	2887.64
523.74	2983.89
523.94	2844.63
524.14	2746.33
524.34	3082.19
524.54	3028.95
524.73	2840.53
524.93	3125.20
525.13	3045.33
525.33	2742.23
525.53	3139.54
525.73	3049.43
525.93	2994.13
526.13	2775.00
526.32	2850.77
526.52	3137.49
526.72	3123.15
526.92	2832.34
527.12	2715.61
527.32	2693.08
527.52	3047.38
527.71	2924.50
527.91	2893.78
528.11	2947.03
528.31	2983.89
528.51	2789.33
528.71	3000.27
528.90	3057.62
529.10	3139.54
529.30	2971.60
529.50	2531.29
529.70	3051.47
529.90	2942.93
530.09	2811.86
530.29	2691.03
530.49	2924.50
530.69	3499.98
530.89	2914.26
531.09	3000.27
531.28	2834.39
531.48	3157.97
531.68	2906.07
531.88	2844.63
532.08	3125.20
532.28	2877.40
532.47	2965.46
532.67	2985.94
532.87	3117.01
533.07	2836.44
533.27	2883.54
533.46	2947.03
533.66	3039.19
533.86	3053.52
534.06	2916.31
534.26	2842.58
534.45	2973.65
534.65	3088.34
534.85	2918.36
535.05	2781.14
535.25	3160.02
535.44	2693.08
535.64	3002.32
535.84	2871.25
536.04	2930.64
536.24	2949.08
536.43	2850.77
536.63	2820.05
536.83	3028.95
537.03	2881.49
537.22	2641.88
537.42	2621.40
537.62	3047.38
537.82	2803.67
538.02	3137.49
538.21	3000.27
538.41	3542.99
538.61	3069.91
538.81	2926.55
539.00	2930.64
539.20	2766.81
539.40	2883.54
539.60	2871.25
539.79	3035.09
539.99	2965.46
540.19	2809.81
540.39	2801.62
540.58	2904.02
540.78	3180.50
540.98	3028.95
541.18	3059.67
541.37	2934.74
541.57	2992.08
541.77	2990.03
541.97	2762.71
542.16	2666.46
542.36	2885.59
542.56	3151.82
542.76	3094.48
542.95	2938.84
543.15	3057.62
543.35	3108.82
543.54	2875.35
543.74	2770.90
543.94	3229.65
544.14	2828.24
544.33	2899.92
544.53	2846.68
544.73	3030.99
544.93	2887.64
545.12	2815.96
545.32	2856.92
545.52	2865.11
545.71	2754.52
545.91	2877.40
546.11	2844.63
546.30	2832.34
546.50	2963.41
546.70	2944.98
546.90	2961.36
547.09	2701.27
547.29	2973.65
547.49	2971.60
547.68	2787.29
547.88	2854.87
548.08	3098.58
548.27	3172.30
548.47	2852.82
548.67	2908.12
548.87	3037.14
549.06	2813.91
549.26	2783.19
549.46	3084.24
549.65	2834.39
549.85	2824.15
550.05	2889.68
550.24	2793.43
550.44	2987.99
550.64	2944.98
550.83	2920.40
551.03	3155.92
551.23	3076.05
551.42	2916.31
551.62	2893.78
551.82	3030.99
552.01	2953.17
552.21	3104.72
552.41	2910.16
552.60	3184.59
552.80	2918.36
553.00	2768.85
553.19	2897.88
553.39	3338.19
553.59	2805.72
553.78	2947.03
553.98	2799.57
554.17	2795.48
554.37	2961.36
554.57	2910.16
554.76	2691.03
554.96	2912.21
555.16	2961.36
555.35	2920.40
555.55	3016.66
555.75	3043.28
555.94	3012.56
556.14	2674.65
556.33	2897.88
556.53	2920.40
556.73	2990.03
556.92	2856.92
557.12	2799.57
557.32	3377.10
557.51	3196.88
557.71	3008.47
557.90	3026.90
558.10	3219.41
558.30	2836.44
558.49	2764.76
558.69	2879.44
558.88	3078.10
559.08	2959.31
559.28	2895.83
559.47	2883.54
559.67	3039.19
559.86	3330.00
560.06	2858.96
560.26	2805.72
560.45	3045.33
560.65	2914.26
560.84	2967.51
561.04	2756.57
561.24	3082.19
561.43	2787.29
561.63	3057.62
561.82	2951.12
562.02	3061.71
562.22	2801.62
562.41	2709.46
562.61	2850.77
562.80	2805.72
563.00	3336.14
563.19	2934.74
563.39	2920.40
563.59	3071.95
563.78	2803.67
563.98	2658.26
564.17	2781.14
564.37	2715.61
564.56	2895.83
564.76	2693.08
564.96	2979.79
565.15	3061.71
565.35	3477.45
565.54	2746.33
565.74	2889.68
565.93	3119.06
566.13	2828.24
566.32	2940.88
566.52	2947.03
566.71	2961.36
566.91	3076.05
567.11	2947.03
567.30	2846.68
567.50	3008.47
567.69	3088.34
567.89	2938.84
568.08	2723.80
568.28	2969.55
568.47	2744.28
568.67	2826.20
568.86	2922.45
569.06	3143.63
569.25	3004.37
569.45	2731.99
569.64	2875.35
569.84	2904.02
570.04	3012.56
570.23	2828.24
570.43	2836.44
570.62	2936.79
570.82	3284.94
571.01	2660.31
571.21	2826.20
571.40	2834.39
571.60	3139.54
571.79	2969.55
571.99	2844.63
572.18	2801.62
572.38	3059.67
572.57	2893.78
572.77	2920.40
572.96	3344.33
573.16	3035.09
573.35	2887.64
573.55	2979.79
573.74	3020.75
573.94	2949.08
574.13	2856.92
574.33	3051.47
574.52	3217.36
574.71	3014.61
574.91	2944.98
575.10	2711.51
575.30	2811.86
575.49	2885.59
575.69	2746.33
575.88	2844.63
576.08	2957.27
576.27	3198.93
576.47	2838.48
576.66	2969.55
576.86	3252.17
577.05	3043.28
577.25	2910.16
577.44	3094.48
577.64	2899.92
577.83	3168.21
578.02	2867.16
578.22	3008.47
578.41	3260.37
578.61	2940.88
578.80	2717.65
579.00	2926.55
579.19	3094.48
579.39	3033.04
579.58	2910.16
579.77	2846.68
579.97	3270.61
580.16	3151.82
580.36	2938.84
580.55	3000.27
580.75	2994.13
580.94	2975.70
581.13	3008.47
581.33	3102.67
581.52	2987.99
581.72	3313.61
581.91	3041.23
582.11	2805.72
582.30	3100.62
582.49	2987.99
582.69	3254.22
582.88	2965.46
583.08	2985.94
583.27	3231.69
583.47	2975.70
583.66	2842.58
583.85	2772.95
584.05	2918.36
584.24	2992.08
584.44	2813.91
584.63	3168.21
584.82	3237.84
585.02	3141.58
585.21	3000.27
585.41	3102.67
585.60	2983.89
585.79	3045.33
585.99	3217.36
586.18	3004.37
586.37	3862.47
586.57	5662.63
586.76	16760.58
586.96	36052.44
587.15	49061.14
587.34	57054.36
587.54	61406.30
587.73	54688.96
587.93	39171.50
588.12	29476.41
588.31	24311.44
588.51	21434.04
588.70	19580.63
588.89	17415.93
589.09	14634.78
589.28	12453.70
589.47	9916.26
589.67	7563.15
589.86	6021.03
590.06	4693.94
590.25	4040.64
590.44	3485.64
590.64	3241.93
590.83	3215.31
591.02	3196.88
591.22	2922.45
591.41	2877.40
591.60	2936.79
591.80	3450.83
591.99	2731.99
592.18	2852.82
592.38	3061.71
592.57	2906.07
592.76	2951.12
592.96	2963.41
593.15	2944.98
593.34	3215.31
593.54	2881.49
593.73	3022.80
593.92	3008.47
594.12	3117.01
594.31	2936.79
594.50	3043.28
594.70	3160.02
594.89	3358.67
595.08	2705.37
595.28	2963.41
595.47	3463.12
595.66	3143.63
595.86	2801.62
596.05	2840.53
596.24	2910.16
596.43	3354.57
596.63	3004.37
596.82	2895.83
597.01	2998.23
597.21	3303.37
597.40	2865.11
597.59	2934.74
597.79	2998.23
597.98	3114.96
598.17	2930.64
598.36	2901.97
598.56	3155.92
598.75	2910.16
598.94	2920.40
599.14	2906.07
599.33	2934.74
599.52	3155.92
599.71	2914.26
599.91	2850.77
600.10	3053.52
600.29	3018.71
600.48	2947.03
600.68	2983.89
600.87	3106.77
601.06	2893.78
601.26	2893.78
601.45	2953.17
601.64	2918.36
601.83	3213.26
602.03	2815.96
602.22	2795.48
602.41	3119.06
602.60	3368.91
602.80	3018.71
602.99	2983.89
603.18	2920.40
603.37	2987.99
603.57	2879.44
603.76	2918.36
603.95	3160.02
604.14	2830.29
604.34	2838.48
604.53	2858.96
604.72	3074.00
604.91	3131.34
605.10	2928.60
605.30	2758.61
605.49	3352.52
605.68	3129.30
605.87	2951.12
606.07	2850.77
606.26	3004.37
606.45	3094.48
606.64	2912.21
606.84	2766.81
607.03	2944.98
607.22	3141.58
607.41	2973.65
607.60	2846.68
607.80	3160.02
607.99	2959.31
608.18	2834.39
608.37	2932.69
608.56	2881.49
608.76	3147.73
608.95	3051.47
609.14	2842.58
609.33	3137.49
609.52	3192.78
609.72	2959.31
609.91	2942.93
610.10	2912.21
610.29	3211.22
610.48	2906.07
610.68	2971.60
610.87	3069.91
611.06	3051.47
611.25	2889.68
611.44	2920.40
611.63	2832.34
611.83	3246.03
612.02	2766.81
612.21	2936.79
612.40	2789.33
612.59	2799.57
612.79	2701.27
612.98	2969.55
613.17	3237.84
613.36	3094.48
613.55	3047.38
613.74	2791.38
613.93	2953.17
614.13	3106.77
614.32	2985.94
614.51	3057.62
614.70	2944.98
614.89	2926.55
615.08	2955.22
615.28	3346.38
615.47	2834.39
615.66	3084.24
615.85	2881.49
616.04	2961.36
616.23	3024.85
616.42	2891.73
616.62	2912.21
616.81	2885.59
617.00	2959.31
617.19	3059.67
617.38	2791.38
617.57	2955.22
617.76	3100.62
617.95	3106.77
618.15	2981.84
618.34	3071.95
618.53	2803.67
618.72	3104.72
618.91	2934.74
619.10	3008.47
619.29	3069.91
619.48	2910.16
619.68	2725.85
619.87	2826.20
620.06	2744.28
620.25	3063.76
620.44	2807.77
620.63	2828.24
620.82	3053.52
621.01	2983.89
621.20	2895.83
621.39	2996.18
621.59	3016.66
621.78	2947.03
621.97	2867.16
622.16	2975.70
622.35	3033.04
622.54	3108.82
622.73	2928.60
622.92	2680.79
623.11	3080.14
623.30	2973.65
623.49	2951.12
623.68	2748.37
623.88	3211.22
624.07	2901.97
624.26	2895.83
624.45	3002.32
624.64	2848.72
624.83	3026.90
625.02	2787.29
625.21	2904.02
625.40	2944.98
625.59	3164.11
625.78	2936.79
625.97	2951.12
626.16	3231.69
626.35	3135.44
626.54	2818.00
626.74	3117.01
626.93	2871.25
627.12	3016.66
627.31	2947.03
627.50	2924.50
627.69	3104.72
627.88	2854.87
628.07	2824.15
628.26	2629.59
628.45	2848.72
628.64	2834.39
628.83	2811.86
629.02	2652.12
629.21	3022.80
629.40	3018.71
629.59	2791.38
629.78	2760.66
629.97	2922.45
630.16	3059.67
630.35	2818.00
630.54	2912.21
630.73	2834.39
630.92	2963.41
631.11	2740.18
631.30	2869.20
631.49	3112.91
631.68	2961.36
631.87	2854.87
632.06	2781.14
632.25	3317.71
632.44	2899.92
632.63	2969.55
632.82	2850.77
633.01	2840.53
633.20	3030.99
633.39	2871.25
633.58	2768.85
633.77	3049.43
633.96	3035.09
634.15	2918.36
634.34	2985.94
634.53	3076.05
634.72	2904.02
634.91	2701.27
635.10	2871.25
635.29	3108.82
635.48	3035.09
635.67	2758.61
635.86	2695.13
636.05	3268.56
636.24	3004.37
636.43	2861.01
636.62	2922.45
636.81	2623.45
637.00	3008.47
637.19	2861.01
637.38	2865.11
637.57	2871.25
637.76	2996.18
637.95	3016.66
638.14	2879.44
638.33	3033.04
638.52	2994.13
638.71	2836.44
638.89	2770.90
639.08	3471.31
639.27	3164.11
639.46	3010.51
639.65	3260.37
639.84	3356.62
640.03	3590.09
640.22	3221.45
640.41	3289.04
640.60	3065.81
640.79	3110.86
640.98	2932.69
641.17	3076.05
641.36	3215.31
641.55	3135.44
641.74	2752.47
641.92	2705.37
642.11	2795.48
642.30	2854.87
642.49	2715.61
642.68	2830.29
642.87	3055.57
643.06	3043.28
643.25	2729.94
643.44	2760.66
643.63	2869.20
643.82	3231.69
644.00	2703.32
644.19	2832.34
644.38	2818.00
644.57	3053.52
644.76	2924.50
644.95	2924.50
645.14	2975.70
645.33	2961.36
645.52	2957.27
645.71	2725.85
645.89	2834.39
646.08	2955.22
646.27	2883.54
646.46	3024.85
646.65	2805.72
646.84	3096.53
647.03	2779.09
647.22	3002.32
647.40	3037.14
647.59	2922.45
647.78	2703.32
647.97	2848.72
648.16	2928.60
648.35	3178.45
648.54	3090.38
648.73	2897.88
648.91	3127.25
649.10	2957.27
649.29	2803.67
649.48	2813.91
649.67	3018.71
649.86	3051.47
650.05	2813.91
650.23	3012.56
650.42	2842.58
650.61	3215.31
650.80	2996.18
650.99	3104.72
651.18	3114.96
651.36	3258.32
651.55	2852.82
651.74	3043.28
651.93	3037.14
652.12	2967.51
652.31	2807.77
652.49	2840.53
652.68	2910.16
652.87	3200.98
653.06	2967.51
653.25	3174.35
653.44	2944.98
653.62	3125.20
653.81	2815.96
654.00	2781.14
654.19	3170.26
654.38	3293.13
654.56	2875.35
654.75	2809.81
654.94	3123.15
655.13	3018.71
655.32	2824.15
655.51	2930.64
655.69	2828.24
655.88	3127.25
656.07	2758.61
656.26	2953.17
656.45	2760.66
656.63	3049.43
656.82	2858.96
657.01	3045.33
657.20	2887.64
657.38	3270.61
657.57	2826.20
657.76	2598.87
657.95	3041.23
658.14	2942.93
658.32	2930.64
658.51	2746.33
658.70	2944.98
658.89	2998.23
659.08	2901.97
659.26	3065.81
659.45	2803.67
659.64	3041.23
659.83	2846.68
660.01	3315.66
660.20	2949.08
660.39	3225.55
660.58	2580.44
660.76	2944.98
660.95	2742.23
661.14	3033.04
661.33	2691.03
661.51	2844.63
661.70	2916.31
661.89	3037.14
662.08	2953.17
662.26	2707.41
662.45	2738.13
662.64	3266.51
662.83	2969.55
663.01	2682.84
663.20	2920.40
663.39	3272.65
663.58	2836.44
663.76	2852.82
663.95	3086.29
664.14	2787.29
664.32	2834.39
664.51	2731.99
664.70	2758.61
664.89	3004.37
665.07	2709.46
665.26	2981.84
665.45	2772.95
665.64	3098.58
665.82	2830.29
666.01	2977.75
666.20	2731.99
666.38	3153.87
666.57	3143.63
666.76	4853.69
666.95	11036.50
667.13	17755.89
667.32	21595.83
667.51	24389.26
667.69	25077.38
667.88	21419.71
668.07	15335.19
668.25	12851.00
668.44	11233.11
668.63	9719.66
668.81	8718.20
669.00	7462.80
669.19	6891.41
669.38	5805.99
669.56	5140.40
669.75	4376.51
669.94	4030.40
670.12	3422.16
670.31	3188.69
670.50	3149.78
670.68	3135.44
670.87	3028.95
671.06	2828.24
671.24	2994.13
671.43	3266.51
671.62	3076.05
671.80	2787.29
671.99	2951.12
672.18	2967.51
672.36	3106.77
672.55	2926.55
672.74	2922.45
672.92	2942.93
673.11	3184.59
673.29	2764.76
673.48	3049.43
673.67	2912.21
673.85	3106.77
674.04	2834.39
674.23	2942.93
674.41	3311.57
674.60	2725.85
674.79	2688.98
674.97	2777.05
675.16	3127.25
675.34	3092.43
675.53	2799.57
675.72	2916.31
675.90	3366.86
676.09	2942.93
676.28	2979.79
676.46	2699.22
676.65	3145.68
676.83	2813.91
677.02	2846.68
677.21	3020.75
677.39	2963.41
677.58	2856.92
677.77	2815.96
677.95	2787.29
678.14	2944.98
678.32	2908.12
678.51	2818.00
678.70	3215.31
678.88	2906.07
679.07	3014.61
679.25	2805.72
679.44	2809.81
679.63	2797.53
679.81	2961.36
680.00	2992.08
680.18	2910.16
680.37	3254.22
680.55	3041.23
680.74	2727.89
680.93	2615.26
681.11	3030.99
681.30	2965.46
681.48	2858.96
681.67	2893.78
681.85	2983.89
682.04	2815.96
682.23	2996.18
682.41	2965.46
682.60	2934.74
682.78	3010.51
682.97	2705.37
683.15	2826.20
683.34	3084.24
683.53	3309.52
683.71	2830.29
683.90	2983.89
684.08	3368.91
684.27	2934.74
684.45	2852.82
684.64	3043.28
684.82	3051.47
685.01	3092.43
685.19	2897.88
685.38	3119.06
685.57	3010.51
685.75	2770.90
685.94	2772.95
686.12	2793.43
686.31	2848.72
686.49	3262.41
686.68	2605.02
686.86	2846.68
687.05	2953.17
687.23	3266.51
687.42	2832.34
687.60	2721.75
687.79	3147.73
687.97	3147.73
688.16	2953.17
688.34	3061.71
688.53	2791.38
688.71	3008.47
688.90	3119.06
689.08	2842.58
689.27	2758.61
689.45	3088.34
689.64	2996.18
689.82	2856.92
690.01	3100.62
690.19	3084.24
690.38	2865.11
690.56	2897.88
690.75	2881.49
690.93	2861.01
691.12	2844.63
691.30	2912.21
691.49	2879.44
691.67	3033.04
691.86	3233.74
692.04	2861.01
692.23	2983.89
692.41	3028.95
692.60	3176.40
692.78	3057.62
692.97	2969.55
693.15	3117.01
693.34	3121.10
693.52	3014.61
693.71	3006.42
693.89	2861.01
694.08	2697.17
694.26	2959.31
694.44	3106.77
694.63	3071.95
694.81	2727.89
695.00	2908.12
695.18	3106.77
695.37	3420.11
695.55	2990.03
695.74	2934.74
695.92	2871.25
696.10	3250.13
696.29	2758.61
696.47	2926.55
696.66	2777.05
696.84	2805.72
697.03	2916.31
697.21	3155.92
697.40	4458.43
697.58	3123.15
697.76	2871.25
697.95	2809.81
698.13	2772.95
698.32	2912.21
698.50	2883.54
698.68	2918.36
698.87	3082.19
699.05	3272.65
699.24	2930.64
699.42	2738.13
699.61	2916.31
699.79	3014.61
699.97	2938.84
700.16	2758.61
700.34	2885.59
700.53	3002.32
700.71	3114.96
700.89	2987.99
701.08	2967.51
701.26	2959.31
701.45	3246.03
701.63	2795.48
701.81	2891.73
702.00	2818.00
702.18	2836.44
702.37	2838.48
702.55	3211.22
702.73	3035.09
702.92	2826.20
703.10	3100.62
703.28	3131.34
703.47	2805.72
703.65	3078.10
703.84	2965.46
704.02	2867.16
704.20	3252.17
704.39	2748.37
704.57	2736.09
704.75	3129.30
704.94	3084.24
705.12	2994.13
705.30	3430.35
705.49	6688.67
705.67	13102.90
705.86	18357.99
706.04	20836.03
706.22	22998.69
706.41	22335.15
706.59	16979.71
706.77	13281.08
706.96	11431.76
707.14	10418.02
707.32	9060.21
707.51	8030.09
707.69	6440.86
707.87	5482.41
708.06	4483.00
708.24	4014.02
708.42	3643.34
708.61	3729.35
708.79	2940.88
708.97	2979.79
709.16	3080.14
709.34	3000.27
709.52	2863.06
709.71	2922.45
709.89	3055.57
710.07	2820.05
710.26	2840.53
710.44	2901.97
710.62	3172.30
710.80	2979.79
710.99	3022.80
711.17	3037.14
711.35	2877.40
711.54	2887.64
711.72	3037.14
711.90	2996.18
712.09	3028.95
712.27	2840.53
712.45	3016.66
712.63	2830.29
712.82	3039.19
713.00	3065.81
713.18	3020.75
713.37	3098.58
713.55	3112.91
713.73	3024.85
713.91	2963.41
714.10	2848.72
714.28	2916.31
714.46	3041.23
714.65	2961.36
714.83	2912.21
715.01	2987.99
715.19	3008.47
715.38	2781.14
715.56	2965.46
715.74	2826.20
715.92	2889.68
716.11	3074.00
716.29	2674.65
716.47	3030.99
716.65	2924.50
716.84	2738.13
717.02	2965.46
717.20	2750.42
717.38	2897.88
717.57	2910.16
717.75	2906.07
717.93	2830.29
718.11	3061.71
718.30	2803.67
718.48	2912.21
718.66	3192.78
718.84	3145.68
719.03	2850.77
719.21	2813.91
719.39	3278.80
719.57	3076.05
719.75	2928.60
719.94	2797.53
720.12	2936.79
720.30	2998.23
720.48	2961.36
720.67	2897.88
720.85	2852.82
721.03	2914.26
721.21	2820.05
721.39	2975.70
721.58	3055.57
721.76	2992.08
721.94	2891.73
722.12	2977.75
722.30	3262.41
722.49	2852.82
722.67	2846.68
722.85	2910.16
723.03	2742.23
723.21	2844.63
723.40	2949.08
723.58	3082.19
723.76	3129.30
723.94	3178.45
724.12	2910.16
724.30	3096.53
724.49	3188.69
724.67	2764.76
724.85	3014.61
725.03	2678.74
725.21	3086.29
725.40	3188.69
725.58	2871.25
725.76	3143.63
725.94	3045.33
726.12	2762.71
726.30	2959.31
726.49	2836.44
726.67	2873.30
726.85	3035.09
727.03	3424.20
727.21	4501.44
727.39	5402.54
727.57	5955.49
727.76	6336.42
727.94	6360.99
728.12	5523.37
728.30	4687.80
728.48	4388.80
728.66	4122.56
728.84	3975.11
729.03	3540.94
729.21	3358.67
729.39	3123.15
729.57	2977.75
729.75	3114.96
729.93	2971.60
730.11	2791.38
730.30	2922.45
730.48	2879.44
730.66	2920.40
730.84	3026.90
731.02	2928.60
731.20	2994.13
731.38	3000.27
731.56	2707.41
731.74	2750.42
731.93	2975.70
732.11	2910.16
732.29	2854.87
732.47	2973.65
732.65	3018.71
732.83	3006.42
733.01	2926.55
733.19	2820.05
733.37	3065.81
733.56	2916.31
733.74	2731.99
733.92	3223.50
734.10	2832.34
734.28	3057.62
734.46	2693.08
734.64	2938.84
734.82	2934.74
735.00	2811.86
735.18	2791.38
735.36	2983.89
735.54	2938.84
735.73	2848.72
735.91	3008.47
736.09	3311.57
736.27	2975.70
736.45	2916.31
736.63	2709.46
736.81	2885.59
736.99	3190.74
737.17	3119.06
737.35	2766.81
737.53	3002.32
737.71	2854.87
737.89	3047.38
738.07	2781.14
738.25	2809.81
738.43	2742.23
738.61	2871.25
738.80	2699.22
738.98	2783.19
739.16	2899.92
739.34	2762.71
739.52	3143.63
739.70	3004.37
739.88	3092.43
740.06	3078.10
740.24	2611.16
740.42	3086.29
740.60	2754.52
740.78	2906.07
740.96	2666.46
741.14	2987.99
741.32	2996.18
741.50	2727.89
741.68	3131.34
741.86	3241.93
742.04	2861.01
742.22	2746.33
742.40	2828.24
742.58	3106.77
742.76	2912.21
742.94	2969.55
743.12	2695.13
743.30	2987.99
743.48	3065.81
743.66	2777.05
743.84	2934.74
744.02	2910.16
744.20	2940.88
744.38	2750.42
744.56	2770.90
744.74	3332.05
744.92	3112.91
745.10	3086.29
745.28	2918.36
745.46	3170.26
745.64	2897.88
745.82	2990.03
746.00	2752.47
746.18	3084.24
746.36	2795.48
746.54	2891.73
746.72	2856.92
746.90	2777.05
747.08	3256.27
747.26	2901.97
747.44	2992.08
747.62	3074.00
747.80	3071.95
747.98	3022.80
748.15	2801.62
748.33	3243.98
748.51	2998.23
748.69	2947.03
748.87	2764.76
749.05	2983.89
749.23	2942.93
749.41	2861.01
749.59	2879.44
749.77	3143.63
749.95	2887.64
750.13	2844.63
750.31	2973.65
750.49	3000.27
750.67	3157.97
750.85	3098.58
751.03	2930.64
751.20	3297.23
751.38	3006.42
751.56	2844.63
751.74	2877.40
751.92	2901.97
752.10	2768.85
752.28	3024.85
752.46	2809.81
752.64	2971.60
752.82	2955.22
753.00	3000.27
753.18	2852.82
753.35	2850.77
753.53	2901.97
753.71	2721.75
753.89	2922.45
754.07	3119.06
754.25	3188.69
754.43	2852.82
754.61	2727.89
754.79	3010.51
754.97	3028.95
755.14	3092.43
755.32	2701.27
755.50	2951.12
755.68	2992.08
755.86	2848.72
756.04	2779.09
756.22	2648.02
756.40	3123.15
756.57	3143.63
756.75	2830.29
756.93	3194.83
757.11	3133.39
757.29	2758.61
757.47	2750.42
757.65	2693.08
757.82	2531.29
758.00	2779.09
758.18	2828.24
758.36	2918.36
758.54	3250.13
758.72	2768.85
758.90	3043.28
759.07	3137.49
759.25	2809.81
759.43	2949.08
759.61	2717.65
759.79	4200.38
759.97	3147.73
760.15	2883.54
760.32	2834.39
760.50	3002.32
760.68	3266.51
760.86	2779.09
761.04	3033.04
761.22	3145.68
761.39	3016.66
761.57	2965.46
761.75	2891.73
761.93	3000.27
762.11	2893.78
762.28	2906.07
762.46	2797.53
762.64	3227.60
762.82	2740.18
763.00	2783.19
763.18	3047.38
763.35	2775.00
763.53	3104.72
763.71	2910.16
763.89	2883.54
764.07	2930.64
764.24	2914.26
764.42	3024.85
764.60	2865.11
764.78	3067.86
764.96	3143.63
765.13	2965.46
765.31	2838.48
765.49	3090.38
765.67	2770.90
765.84	2861.01
766.02	2881.49
766.20	2748.37
766.38	3008.47
766.56	2981.84
766.73	2959.31
766.91	3012.56
767.09	3006.42
767.27	2985.94
767.44	2807.77
767.62	3000.27
767.80	3061.71
767.98	2842.58
768.15	2836.44
768.33	2983.89
768.51	3219.41
768.69	3014.61
768.87	2922.45
769.04	2965.46
769.22	3332.05
769.40	2916.31
769.58	3016.66
769.75	3037.14
769.93	3225.55
770.11	2920.40
770.28	2777.05
770.46	3035.09
770.64	3137.49
770.82	2848.72
770.99	2811.86
771.17	3137.49
771.35	2947.03
771.53	2955.22
771.70	2826.20
771.88	3002.32
772.06	2963.41
772.23	2830.29
772.41	2953.17
772.59	2944.98
772.77	2879.44
772.94	2912.21
773.12	2973.65
773.30	2990.03
773.47	3026.90
773.65	2791.38
773.83	3020.75
774.01	2963.41
774.18	2670.55
774.36	2883.54
774.54	2748.37
774.71	2983.89
774.89	2779.09
775.07	2717.65
775.24	2840.53
775.42	2901.97
775.60	3239.89
775.78	2727.89
775.95	2715.61
776.13	2695.13
776.31	2688.98
776.48	3006.42
776.66	3049.43
776.84	2979.79
777.01	2822.10
777.19	2830.29
777.37	2746.33
777.54	3045.33
777.72	3239.89
777.90	3024.85
778.07	2803.67
778.25	3557.32
778.43	3162.06
778.60	2824.15
778.78	2908.12
778.96	3110.86
779.13	2834.39
779.31	2918.36
779.49	2897.88
779.66	3059.67
779.84	2992.08
780.01	2775.00
780.19	2764.76
780.37	3166.16
780.54	2975.70
780.72	2713.56
780.90	2871.25
781.07	2944.98
781.25	2916.31
781.43	3098.58
781.60	2783.19
781.78	3260.37
781.95	2983.89
782.13	2852.82
782.31	2795.48
782.48	2631.64
782.66	2883.54
782.83	3110.86
783.01	3078.10
783.19	3090.38
783.36	2938.84
783.54	2719.70
783.72	2949.08
783.89	2916.31
784.07	3016.66
784.24	2942.93
784.42	3117.01
784.60	2998.23
784.77	2936.79
784.95	2619.35
785.12	2828.24
785.30	2981.84
785.47	2795.48
785.65	2740.18
785.83	2844.63
786.00	2973.65
786.18	2959.31
786.35	2791.38
786.53	2772.95
786.71	3190.74
786.88	3108.82
787.06	2865.11
787.23	2953.17
787.41	2793.43
787.58	2973.65
787.76	2754.52
787.94	2992.08
788.11	3059.67
788.29	2813.91
788.46	2797.53
788.64	2721.75
788.81	3014.61
788.99	2889.68
789.16	2734.04
789.34	2871.25
789.52	2914.26
789.69	2844.63
789.87	2682.84
790.04	2779.09
790.22	3055.57
790.39	3309.52
790.57	2783.19
790.74	2766.81
790.92	3127.25
791.09	2680.79
791.27	2983.89
791.44	2938.84
791.62	2924.50
791.79	3143.63
791.97	2949.08
792.15	3221.45
792.32	3035.09
792.50	3100.62
792.67	3084.24
792.85	3141.58
793.02	2967.51
793.20	2842.58
793.37	2701.27
793.55	2875.35
793.72	2828.24
793.90	3123.15
794.07	2758.61
794.25	2775.00
794.42	2983.89
794.60	2891.73
794.77	2932.69
794.95	2994.13
795.12	3160.02
795.30	2918.36
795.47	2719.70
795.65	3223.50
795.82	3016.66
796.00	2803.67
796.17	2824.15
796.34	2764.76
796.52	3086.29
796.69	3121.10
796.87	3002.32
797.04	2924.50
797.22	3086.29
797.39	3057.62
797.57	3049.43
797.74	2951.12
797.92	3063.76
798.09	2879.44
798.27	3119.06
798.44	2815.96
798.62	2813.91
798.79	3002.32
798.96	2959.31
799.14	2881.49
799.31	3338.19
799.49	3033.04
799.66	2818.00
799.84	2893.78
800.01	2705.37
800.19	3065.81
800.36	2600.92
800.53	2901.97
800.71	3117.01
800.88	3256.27
801.06	2785.24
801.23	2801.62
801.41	2908.12
801.58	2914.26
801.75	2883.54
801.93	2928.60
802.10	3076.05
802.28	2969.55
802.45	2899.92
802.63	3000.27
802.80	3266.51
802.97	2893.78
803.15	2928.60
803.32	2891.73
803.50	2815.96
803.67	2846.68
803.84	2805.72
804.02	2889.68
804.19	2914.26
804.37	2605.02
804.54	2721.75
804.71	2838.48
804.89	2924.50
805.06	2813.91
805.24	2793.43
805.41	2693.08
805.58	2838.48
805.76	3407.82
805.93	2856.92
806.10	3018.71
806.28	3024.85
806.45	2959.31
806.63	2928.60
806.80	2930.64
806.97	3059.67
807.15	2985.94
807.32	2867.16
807.49	2875.35
807.67	2760.66
807.84	2963.41
808.01	2631.64
808.19	3069.91
808.36	3317.71
808.54	2858.96
808.71	2844.63
808.88	2846.68
809.06	3067.86
809.23	3155.92
809.40	2838.48
809.58	2885.59
809.75	3004.37
809.92	2906.07
810.10	3196.88
810.27	2799.57
810.44	2998.23
810.62	2985.94
810.79	2901.97
810.96	2791.38
811.14	2768.85
811.31	3045.33
811.48	2906.07
811.66	2938.84
811.83	3250.13
812.00	3074.00
812.18	2973.65
812.35	3117.01
812.52	2930.64
812.69	2912.21
812.87	2740.18
813.04	2766.81
813.21	2955.22
813.39	2871.25
813.56	2750.42
813.73	3166.16
813.91	2785.24
814.08	2928.60
814.25	2934.74
814.42	2707.41
814.60	2957.27
814.77	3024.85
814.94	2885.59
815.12	2985.94
815.29	3229.65
815.46	2846.68
815.63	2832.34
815.81	2926.55
815.98	2852.82
816.15	2928.60
816.33	2867.16
816.50	2838.48
816.67	2979.79
816.84	2881.49
817.02	2797.53
817.19	2789.33
817.36	2967.51
817.53	3039.19
817.71	2811.86
817.88	2891.73
818.05	2908.12
818.22	2918.36
818.40	3063.76
818.57	2840.53
818.74	3004.37
818.91	2912.21
819.09	3047.38
819.26	2971.60
819.43	2760.66
819.60	2815.96
819.78	3067.86
819.95	2975.70
820.12	2832.34
820.29	3200.98
820.47	2987.99
820.64	2785.24
820.81	2754.52
820.98	2793.43
821.15	2797.53
821.33	2996.18
821.50	2746.33
821.67	3125.20
821.84	2768.85
822.02	2932.69
822.19	3139.54
822.36	2891.73
822.53	2848.72
822.70	2748.37
822.88	2895.83
823.05	3256.27
823.22	2965.46
823.39	2848.72
823.56	2944.98
823.74	3332.05
823.91	2695.13
824.08	2787.29
824.25	2828.24
824.42	3256.27
824.60	2697.17
824.77	2961.36
824.94	2910.16
825.11	3020.75
825.28	2719.70
825.45	2916.31
825.63	3010.51
825.80	2813.91
825.97	2928.60
826.14	2912.21
826.31	2719.70
826.48	3059.67
826.66	2924.50
826.83	2740.18
827.00	2987.99
827.17	2713.56
827.34	2840.53
827.51	2723.80
827.69	2887.64
827.86	2711.51
828.03	2953.17
828.20	2934.74
828.37	2850.77
828.54	3110.86
828.71	2807.77
828.89	3024.85
829.06	3074.00
829.23	3239.89
829.40	2754.52
829.57	2797.53
829.74	3069.91
829.91	2893.78
830.09	2770.90
830.26	2949.08
830.43	3186.64
830.60	2955.22
830.77	2971.60
830.94	3106.77
831.11	3147.73
831.28	2932.69
831.46	3006.42
831.63	2836.44
831.80	3213.26
831.97	2807.77
832.14	2809.81
832.31	2922.45
832.48	2998.23
832.65	3207.12
832.82	2875.35
832.99	2930.64
833.17	2848.72
833.34	3200.98
833.51	2754.52
833.68	2627.54
833.85	3162.06
834.02	2904.02
834.19	2842.58
834.36	2830.29
834.53	2969.55
834.70	3106.77
834.87	2842.58
835.04	2707.41
835.22	2822.10
835.39	2889.68
835.56	2682.84
835.73	2682.84
835.90	3178.45
836.07	2838.48
836.24	2912.21
836.41	2627.54
836.58	2840.53
836.75	3155.92
836.92	2758.61
837.09	2664.41
837.26	3045.33
837.43	3065.81
837.60	2762.71
837.77	2709.46
837.94	3084.24
838.12	3180.50
838.29	2701.27
838.46	2598.87
838.63	2766.81
838.80	3196.88
838.97	2734.04
839.14	2750.42
839.31	2934.74
839.48	3018.71
839.65	2695.13
839.82	2801.62
839.99	3055.57
840.16	3026.90
840.33	2717.65
840.50	2766.81
840.67	2787.29
840.84	2504.67
841.01	2682.84
841.18	2756.57
841.35	2985.94
841.52	3041.23
841.69	3033.04
841.86	2740.18
842.03	3006.42
842.20	3065.81
842.37	2736.09
842.54	2803.67
842.71	2969.55
842.88	2764.76
843.05	2754.52
843.22	2635.74
843.39	3069.91
843.56	2822.10
843.73	2713.56
843.90	2818.00
844.07	2938.84
844.24	3133.39
844.41	2815.96
844.58	2736.09
844.75	2992.08
844.92	3037.14
845.09	2752.47
845.26	2809.81
845.43	3045.33
845.60	2953.17
845.77	2846.68
845.94	2867.16
846.10	3022.80
846.27	2705.37
846.44	2615.26
846.61	2652.12
846.78	3041.23
846.95	3092.43
847.12	2613.21
847.29	2809.81
847.46	2871.25
847.63	3082.19
847.80	2688.98
847.97	2828.24
848.14	3395.53
848.31	2975.70
848.48	2693.08
848.65	2754.52
848.82	2885.59
848.98	3395.53
849.15	2832.34
849.32	2869.20
849.49	3110.86
849.66	3014.61
849.83	2746.33
850.00	2715.61
850.17	3090.38
850.34	2914.26
850.51	2648.02
850.68	2858.96
850.85	3348.43
851.01	3106.77
851.18	2758.61
851.35	2764.76
851.52	2963.41
851.69	3172.30
851.86	2641.88
852.03	2736.09
852.20	3112.91
852.37	2908.12
852.53	2633.69
852.70	2695.13
852.87	2961.36
853.04	3076.05
853.21	2709.46
853.38	2947.03
853.55	3129.30
853.72	3262.41
853.89	2637.78
854.05	2717.65
854.22	2871.25
854.39	2881.49
854.56	2691.03
854.73	2861.01
854.90	2916.31
855.07	2848.72
855.23	2682.84
855.40	2660.31
855.57	2949.08
855.74	2684.89
855.91	2944.98
856.08	2611.16
856.25	2822.10
856.41	2846.68
856.58	2674.65
856.75	2772.95
856.92	2781.14
857.09	3174.35
857.26	2559.96
857.42	2785.24
857.59	3143.63
857.76	2844.63
857.93	2748.37
858.10	2809.81
858.27	2824.15
858.43	2985.94
858.60	2746.33
858.77	2613.21
858.94	2924.50
859.11	3092.43
859.27	2828.24
859.44	2656.22
859.61	3327.95
859.78	3074.00
859.95	2727.89
860.12	2703.32
860.28	3274.70
860.45	3356.62
860.62	2674.65
860.79	2852.82
860.95	2910.16
861.12	2869.20
861.29	2682.84
861.46	2705.37
861.63	2987.99
861.79	3024.85
861.96	2686.94
862.13	2764.76
862.30	3135.44
862.47	2869.20
862.63	2670.55
862.80	2861.01
862.97	3033.04
863.14	3026.90
863.30	2772.95
863.47	2713.56
863.64	3157.97
863.81	3043.28
863.97	2680.79
864.14	2820.05
864.31	2944.98
864.48	2969.55
864.65	2701.27
864.81	2818.00
864.98	3108.82
865.15	3098.58
865.32	2770.90
865.48	2811.86
865.65	3235.79
865.82	2891.73
865.98	2836.44
866.15	2799.57
866.32	2904.02
866.49	2871.25
866.65	2863.06
866.82	2742.23
866.99	2942.93
867.16	2910.16
867.32	2789.33
867.49	2668.50
867.66	2881.49
867.83	2895.83
867.99	2637.78
868.16	2682.84
868.33	2805.72
868.49	2916.31
868.66	2752.47
868.83	2791.38
868.99	2930.64
869.16	3010.51
869.33	2867.16
869.50	2742.23
869.66	3041.23
869.83	2858.96
870.00	2693.08
870.16	2834.39
870.33	2906.07
870.50	3110.86
870.66	2848.72
870.83	2787.29
871.00	2879.44
871.17	3098.58
871.33	2752.47
871.50	2666.46
871.67	2922.45
871.83	2914.26
872.00	2863.06
872.17	2791.38
872.33	3327.95
872.50	3117.01
872.67	2723.80
872.83	2723.80
873.00	3002.32
873.17	2992.08
873.33	2754.52
873.50	2719.70
873.67	2832.34
873.83	2815.96
874.00	2721.75
874.16	2897.88
874.33	2955.22
874.50	2766.81
874.66	2650.07
874.83	2887.64
875.00	3231.69
875.16	3133.39
875.33	2848.72
875.50	2568.15
875.66	2889.68
875.83	2887.64
875.99	2842.58
876.16	2781.14
876.33	2820.05
876.49	2914.26
876.66	2799.57
876.83	2781.14
876.99	2693.08
877.16	2938.84
877.32	2742.23
877.49	2813.91
877.66	3057.62
877.82	3227.60
877.99	2846.68
878.15	2979.79
878.32	2983.89
878.49	3037.14
878.65	2701.27
878.82	2996.18
878.98	2828.24
879.15	3237.84
879.32	2922.45
879.48	2942.93
879.65	2926.55
879.81	2822.10
879.98	2787.29
880.15	2844.63
880.31	3108.82
880.48	2783.19
880.64	2852.82
880.81	2906.07
880.97	3264.46
881.14	3235.79
881.31	2709.46
881.47	2889.68
881.64	2992.08
881.80	2664.41
881.97	2969.55
882.13	2750.42
882.30	2746.33
882.47	2869.20
882.63	2740.18
882.80	2674.65
882.96	2930.64
883.13	3282.89
883.29	2803.67
883.46	2781.14
883.62	3198.93
883.79	3041.23
883.95	3010.51
884.12	2715.61
884.29	3178.45
884.45	3012.56
884.62	2850.77
884.78	2660.31
884.95	3258.32
885.11	2783.19
885.28	2832.34
885.44	2764.76
885.61	3164.11
885.77	3266.51
885.94	2846.68
886.10	2797.53
886.27	3045.33
886.43	3256.27
886.60	2957.27
886.76	2826.20
886.93	2899.92
887.09	2992.08
887.26	2617.30
887.42	2832.34
887.59	3243.98
887.75	3348.43
887.92	2940.88
888.08	2824.15
888.25	3278.80
888.41	3149.78
888.58	2818.00
888.74	2682.84
888.91	2895.83
>>>>>End Processed Spectral Data<<<<<
