SpectraSuite Data File
++++++++++++++++++++++++++++++++++++
Date: Thu May 05 21:11:22 CEST 2016
User: root
Dark Spectrum Present: No
Reference Spectrum Present: No
Number of Sampled Component Spectra: 1
Spectrometers: USB4C02835
Integration Time (usec): 100000 (USB4C02835)
Spectra Averaged: 1 (USB4C02835)
Boxcar Smoothing: 0 (USB4C02835)
Correct for Electrical Dark: No (USB4C02835)
Strobe/Lamp Enabled: No (USB4C02835)
Correct for Detector Non-linearity: No (USB4C02835)
Correct for Stray Light: No (USB4C02835)
Number of Pixels in Processed Spectrum: 3648
>>>>>Begin Processed Spectral Data<<<<<
177.47	2099.17
177.69	2099.17
177.91	2099.17
178.13	2117.60
178.36	2207.71
178.58	2809.81
178.80	2983.89
179.02	2764.76
179.24	2750.42
179.46	2592.73
179.68	2699.22
179.90	2938.84
180.13	2994.13
180.35	2467.80
180.57	2680.79
180.79	3045.33
181.01	2992.08
181.23	2691.03
181.45	2815.96
181.67	3084.24
181.90	3135.44
182.12	2711.51
182.34	2504.67
182.56	3110.86
182.78	3024.85
183.00	2600.92
183.22	2715.61
183.44	2629.59
183.66	3516.36
183.89	2772.95
184.11	2635.74
184.33	3078.10
184.55	3213.26
184.77	2625.50
184.99	2752.47
185.21	2881.49
185.43	3411.92
185.65	2619.35
185.87	2641.88
186.10	3487.69
186.32	3442.64
186.54	2717.65
186.76	2813.91
186.98	3119.06
187.20	2944.98
187.42	2727.89
187.64	2695.13
187.86	3092.43
188.08	3157.97
188.30	2600.92
188.52	2715.61
188.75	3207.12
188.97	3317.71
189.19	2641.88
189.41	2643.93
189.63	3082.19
189.85	2918.36
190.07	2572.25
190.29	2547.67
190.51	3112.91
190.73	2725.85
190.95	2951.12
191.17	2756.57
191.39	2639.83
191.61	2955.22
191.84	2709.46
192.06	2742.23
192.28	2707.41
192.50	3553.23
192.72	2791.38
192.94	2691.03
193.16	3209.17
193.38	3047.38
193.60	2635.74
193.82	2703.32
194.04	3114.96
194.26	3067.86
194.48	2680.79
194.70	2619.35
194.92	2942.93
195.14	3194.83
195.36	2711.51
195.58	2691.03
195.80	2949.08
196.02	2865.11
196.24	2648.02
196.46	2754.52
196.69	2901.97
196.91	3444.68
197.13	2738.13
197.35	2738.13
197.57	3282.89
197.79	3045.33
198.01	2844.63
198.23	2697.17
198.45	3055.57
198.67	2830.29
198.89	2553.82
199.11	2756.57
199.33	2830.29
199.55	2621.40
199.77	2643.93
199.99	2785.24
200.21	2936.79
200.43	3106.77
200.65	2494.43
200.87	2545.63
201.09	2998.23
201.31	2944.98
201.53	2662.36
201.75	2752.47
201.97	3000.27
202.19	3076.05
202.41	2768.85
202.63	2801.62
202.85	3092.43
203.07	3051.47
203.29	2787.29
203.51	2625.50
203.73	2875.35
203.95	3571.66
204.17	2701.27
204.39	2820.05
204.61	2971.60
204.83	2912.21
205.05	2852.82
205.27	2760.66
205.49	3346.38
205.71	2893.78
205.93	2488.28
206.15	2613.21
206.37	2985.94
206.59	2987.99
206.81	2531.29
207.03	2602.97
207.25	2863.06
207.47	3080.14
207.69	2719.70
207.91	2969.55
208.13	3207.12
208.34	2875.35
208.56	2684.89
208.78	2678.74
209.00	2959.31
209.22	2920.40
209.44	2643.93
209.66	2686.94
209.88	2998.23
210.10	2889.68
210.32	2695.13
210.54	2824.15
210.76	2936.79
210.98	3125.20
211.20	2568.15
211.42	2750.42
211.64	3268.56
211.86	3016.66
212.08	2654.17
212.30	2711.51
212.52	2922.45
212.74	3047.38
212.96	2781.14
213.17	2674.65
213.39	3252.17
213.61	3332.05
213.83	2623.45
214.05	2609.11
214.27	3235.79
214.49	2797.53
214.71	2611.16
214.93	2709.46
215.15	2891.73
215.37	3051.47
215.59	2559.96
215.81	2721.75
216.03	3323.85
216.24	3000.27
216.46	2641.88
216.68	2699.22
216.90	3086.29
217.12	3160.02
217.34	2611.16
217.56	2799.57
217.78	3229.65
218.00	3033.04
218.22	2836.44
218.44	2811.86
218.66	3057.62
218.87	3370.96
219.09	2607.06
219.31	2711.51
219.53	3063.76
219.75	2967.51
219.97	2750.42
220.19	2680.79
220.41	2942.93
220.63	3350.48
220.85	2801.62
221.06	2750.42
221.28	3176.40
221.50	3155.92
221.72	2791.38
221.94	2592.73
222.16	3028.95
222.38	3135.44
222.60	2705.37
222.82	2740.18
223.03	3149.78
223.25	2846.68
223.47	2650.07
223.69	2951.12
223.91	3162.06
224.13	3035.09
224.35	2533.34
224.57	2873.30
224.78	3155.92
225.00	2799.57
225.22	2781.14
225.44	2668.50
225.66	3286.99
225.88	2889.68
226.10	2781.14
226.32	2645.98
226.53	3311.57
226.75	2932.69
226.97	2717.65
227.19	2705.37
227.41	2852.82
227.63	2924.50
227.85	2580.44
228.06	2672.60
228.28	3053.52
228.50	3127.25
228.72	2502.62
228.94	2682.84
229.16	2721.75
229.37	2881.49
229.59	2631.64
229.81	3002.32
230.03	2996.18
230.25	2711.51
230.47	2580.44
230.69	2678.74
230.90	3192.78
231.12	2809.81
231.34	2795.48
231.56	2779.09
231.78	2844.63
232.00	3014.61
232.21	2678.74
232.43	2803.67
232.65	2600.92
232.87	3104.72
233.09	2600.92
233.30	2641.88
233.52	3090.38
233.74	2961.36
233.96	2621.40
234.18	2840.53
234.40	2965.46
234.61	3401.68
234.83	2602.97
235.05	2656.22
235.27	3383.24
235.49	3153.87
235.70	2566.10
235.92	2750.42
236.14	3104.72
236.36	3459.02
236.58	2574.30
236.79	2779.09
237.01	2969.55
237.23	2996.18
237.45	2955.22
237.67	2748.37
237.88	3100.62
238.10	3358.67
238.32	2580.44
238.54	2688.98
238.76	2942.93
238.97	2781.14
239.19	2629.59
239.41	2762.71
239.63	3198.93
239.85	2895.83
240.06	2742.23
240.28	2697.17
240.50	3117.01
240.72	2938.84
240.93	2639.83
241.15	2801.62
241.37	2951.12
241.59	3180.50
241.81	2754.52
242.02	2777.05
242.24	3024.85
242.46	3100.62
242.68	2490.33
242.89	2703.32
243.11	3137.49
243.33	2883.54
243.55	2633.69
243.76	2688.98
243.98	2834.39
244.20	3000.27
244.42	2721.75
244.64	2660.31
244.85	2678.74
245.07	2871.25
245.29	2627.54
245.51	2719.70
245.72	2994.13
245.94	3119.06
246.16	2678.74
246.38	2762.71
246.59	2869.20
246.81	2914.26
247.03	2535.39
247.24	2605.02
247.46	2822.10
247.68	2979.79
247.90	2609.11
248.11	2731.99
248.33	3192.78
248.55	3018.71
248.77	2750.42
248.98	2729.94
249.20	3289.04
249.42	3033.04
249.64	2688.98
249.85	2652.12
250.07	2944.98
250.29	3125.20
250.50	2754.52
250.72	2607.06
250.94	3065.81
251.16	3368.91
251.37	2629.59
251.59	2764.76
251.81	3127.25
252.02	3227.60
252.24	2705.37
252.46	2848.72
252.68	2858.96
252.89	2824.15
253.11	2553.82
253.33	2795.48
253.54	3280.85
253.76	2805.72
253.98	2676.70
254.20	2631.64
254.41	2785.24
254.63	2994.13
254.85	2498.52
255.06	2805.72
255.28	3061.71
255.50	2971.60
255.71	2631.64
255.93	2570.20
256.15	2922.45
256.36	3147.73
256.58	2539.48
256.80	2656.22
257.02	2967.51
257.23	2897.88
257.45	2695.13
257.67	2727.89
257.88	2924.50
258.10	3086.29
258.32	2664.41
258.53	2844.63
258.75	3293.13
258.97	2893.78
259.18	2600.92
259.40	2670.55
259.62	3237.84
259.83	3198.93
260.05	2670.55
260.27	3479.50
260.48	3192.78
260.70	2781.14
260.92	2639.83
261.13	2686.94
261.35	3039.19
261.57	3016.66
261.78	2545.63
262.00	2680.79
262.22	3012.56
262.43	2844.63
262.65	2713.56
262.86	2713.56
263.08	3467.21
263.30	3028.95
263.51	2480.09
263.73	2580.44
263.95	3248.08
264.16	2830.29
264.38	2580.44
264.60	2662.36
264.81	3012.56
265.03	3164.11
265.25	3065.81
265.46	2633.69
265.68	3225.55
265.89	3188.69
266.11	2570.20
266.33	2652.12
266.54	3184.59
266.76	3258.32
266.98	2777.05
267.19	2846.68
267.41	3139.54
267.62	3033.04
267.84	2484.19
268.06	2809.81
268.27	2959.31
268.49	3205.07
268.70	2731.99
268.92	2684.89
269.14	2793.43
269.35	2678.74
269.57	2740.18
269.79	2711.51
270.00	2885.59
270.22	3284.94
270.43	2590.68
270.65	2547.67
270.87	3078.10
271.08	3080.14
271.30	2822.10
271.51	2641.88
271.73	3082.19
271.95	3289.04
272.16	2635.74
272.38	2789.33
272.59	2914.26
272.81	3121.10
273.02	2625.50
273.24	2670.55
273.46	3203.02
273.67	2770.90
273.89	2572.25
274.10	2664.41
274.32	3137.49
274.54	3053.52
274.75	2691.03
274.97	2818.00
275.18	3162.06
275.40	3137.49
275.61	2785.24
275.83	2824.15
276.05	2789.33
276.26	2861.01
276.48	2834.39
276.69	2766.81
276.91	2920.40
277.12	3254.22
277.34	2904.02
277.55	2975.70
277.77	2987.99
277.99	2949.08
278.20	2734.04
278.42	2660.31
278.63	2840.53
278.85	2885.59
279.06	2764.76
279.28	2846.68
279.49	3241.93
279.71	3020.75
279.93	2848.72
280.14	2815.96
280.36	2820.05
280.57	3205.07
280.79	2893.78
281.00	2734.04
281.22	2916.31
281.43	3176.40
281.65	2588.63
281.86	2723.80
282.08	3162.06
282.29	3397.58
282.51	2645.98
282.73	2688.98
282.94	2727.89
283.16	3108.82
283.37	2949.08
283.59	2820.05
283.80	3049.43
284.02	2961.36
284.23	2856.92
284.45	2762.71
284.66	2787.29
284.88	2813.91
285.09	2729.94
285.31	2906.07
285.52	3055.57
285.74	2703.32
285.95	2975.70
286.17	2895.83
286.38	3246.03
286.60	2881.49
286.81	2830.29
287.03	2781.14
287.24	2942.93
287.46	3067.86
287.67	2844.63
287.89	3020.75
288.10	2996.18
288.32	3008.47
288.53	2947.03
288.75	2787.29
288.96	3123.15
289.18	2922.45
289.39	2725.85
289.61	2975.70
289.82	3368.91
290.04	3342.28
290.25	2635.74
290.47	2832.34
290.68	2906.07
290.90	3246.03
291.11	2519.00
291.33	2949.08
291.54	2924.50
291.76	2803.67
291.97	2955.22
292.18	2904.02
292.40	2936.79
292.61	2813.91
292.83	3080.14
293.04	2803.67
293.26	3002.32
293.47	2957.27
293.69	2703.32
293.90	2697.17
294.12	3117.01
294.33	2975.70
294.55	2803.67
294.76	2897.88
294.97	3223.50
295.19	3356.62
295.40	2799.57
295.62	2918.36
295.83	3069.91
296.05	2881.49
296.26	2955.22
296.48	2797.53
296.69	2895.83
296.90	3004.37
297.12	2924.50
297.33	2961.36
297.55	3012.56
297.76	3137.49
297.98	2856.92
298.19	2944.98
298.41	2934.74
298.62	2809.81
298.83	2975.70
299.05	2834.39
299.26	2893.78
299.48	2795.48
299.69	2838.48
299.90	2775.00
300.12	2908.12
300.33	3053.52
300.55	2840.53
300.76	2861.01
300.98	2836.44
301.19	3076.05
301.40	2783.19
301.62	2807.77
301.83	3047.38
302.05	3055.57
302.26	2734.04
302.47	2785.24
302.69	2799.57
302.90	3024.85
303.12	2572.25
303.33	2901.97
303.54	3366.86
303.76	2912.21
303.97	2768.85
304.19	3057.62
304.40	2815.96
304.61	3123.15
304.83	2899.92
305.04	2861.01
305.26	3108.82
305.47	2869.20
305.68	2805.72
305.90	2652.12
306.11	3198.93
306.33	2992.08
306.54	2742.23
306.75	2682.84
306.97	2762.71
307.18	2824.15
307.39	2772.95
307.61	2899.92
307.82	2965.46
308.04	3020.75
308.25	2727.89
308.46	2949.08
308.68	2967.51
308.89	2938.84
309.10	2942.93
309.32	2822.10
309.53	2949.08
309.74	3022.80
309.96	2762.71
310.17	2934.74
310.39	2830.29
310.60	3133.39
310.81	2867.16
311.03	2736.09
311.24	3104.72
311.45	2973.65
311.67	3094.48
311.88	2906.07
312.09	2953.17
312.31	2910.16
312.52	2768.85
312.73	2705.37
312.95	2775.00
313.16	2934.74
313.37	2932.69
313.59	2969.55
313.80	3151.82
314.01	3229.65
314.23	2809.81
314.44	2713.56
314.65	2799.57
314.87	2809.81
315.08	2799.57
315.29	2785.24
315.51	2807.77
315.72	2811.86
315.93	2901.97
316.15	2807.77
316.36	2852.82
316.57	2918.36
316.79	2801.62
317.00	2803.67
317.21	3125.20
317.43	2846.68
317.64	2914.26
317.85	2801.62
318.07	2863.06
318.28	2885.59
318.49	2906.07
318.70	3039.19
318.92	3057.62
319.13	3065.81
319.34	2971.60
319.56	2799.57
319.77	3043.28
319.98	3074.00
320.20	3055.57
320.41	2901.97
320.62	3033.04
320.83	2826.20
321.05	2963.41
321.26	2811.86
321.47	2951.12
321.69	3127.25
321.90	2713.56
322.11	2830.29
322.32	3117.01
322.54	3198.93
322.75	2805.72
322.96	3583.95
323.18	2740.18
323.39	2676.70
323.60	2682.84
323.81	2932.69
324.03	2918.36
324.24	3033.04
324.45	2883.54
324.66	2715.61
324.88	3246.03
325.09	3176.40
325.30	2824.15
325.52	2787.29
325.73	3094.48
325.94	2815.96
326.15	2678.74
326.37	2787.29
326.58	3139.54
326.79	3303.37
327.00	2758.61
327.22	2709.46
327.43	2953.17
327.64	2740.18
327.85	2994.13
328.07	2867.16
328.28	3373.00
328.49	2811.86
328.70	2828.24
328.92	2850.77
329.13	2891.73
329.34	3000.27
329.55	3078.10
329.76	2914.26
329.98	2879.44
330.19	3194.83
330.40	2867.16
330.61	2838.48
330.83	3063.76
331.04	2875.35
331.25	2742.23
331.46	2779.09
331.68	2822.10
331.89	3188.69
332.10	2762.71
332.31	2650.07
332.52	2934.74
332.74	3207.12
332.95	2623.45
333.16	2815.96
333.37	2977.75
333.58	2979.79
333.80	2861.01
334.01	2541.53
334.22	2881.49
334.43	2867.16
334.64	2797.53
334.86	2678.74
335.07	2879.44
335.28	3286.99
335.49	2660.31
335.70	2926.55
335.92	3258.32
336.13	3370.96
336.34	2904.02
336.55	2742.23
336.76	3065.81
336.98	2684.89
337.19	2826.20
337.40	2885.59
337.61	3411.92
337.82	2985.94
338.04	2912.21
338.25	2672.60
338.46	2957.27
338.67	2897.88
338.88	2658.26
339.09	2727.89
339.31	2906.07
339.52	2762.71
339.73	2752.47
339.94	2922.45
340.15	3067.86
340.36	2916.31
340.58	2879.44
340.79	2766.81
341.00	3166.16
341.21	2783.19
341.42	3065.81
341.63	2754.52
341.85	3184.59
342.06	3053.52
342.27	2783.19
342.48	2918.36
342.69	2787.29
342.90	3080.14
343.12	3106.77
343.33	2719.70
343.54	3112.91
343.75	3217.36
343.96	2918.36
344.17	2691.03
344.38	2844.63
344.60	2787.29
344.81	2676.70
345.02	2770.90
345.23	3114.96
345.44	3346.38
345.65	2901.97
345.86	2910.16
346.07	3053.52
346.29	2944.98
346.50	2957.27
346.71	2871.25
346.92	3250.13
347.13	3409.87
347.34	2879.44
347.55	2633.69
347.76	3151.82
347.98	2762.71
348.19	2797.53
348.40	2959.31
348.61	2947.03
348.82	3223.50
349.03	2889.68
349.24	2754.52
349.45	3313.61
349.66	2656.22
349.88	2789.33
350.09	2713.56
350.30	3145.68
350.51	3184.59
350.72	2975.70
350.93	2721.75
351.14	2953.17
351.35	3051.47
351.56	2828.24
351.77	2801.62
351.99	3164.11
352.20	3221.45
352.41	2891.73
352.62	2625.50
352.83	3014.61
353.04	3026.90
353.25	2775.00
353.46	2838.48
353.67	3227.60
353.88	2633.69
354.09	2734.04
354.30	2875.35
354.52	3127.25
354.73	2985.94
354.94	2752.47
355.15	2869.20
355.36	3264.46
355.57	2916.31
355.78	2746.33
355.99	2711.51
356.20	2967.51
356.41	3280.85
356.62	2930.64
356.83	2854.87
357.04	3231.69
357.25	2676.70
357.46	2828.24
357.68	2619.35
357.89	2811.86
358.10	3024.85
358.31	2711.51
358.52	2813.91
358.73	2828.24
358.94	2779.09
359.15	2742.23
359.36	2873.30
359.57	2994.13
359.78	2928.60
359.99	2994.13
360.20	2758.61
360.41	2969.55
360.62	3076.05
360.83	2830.29
361.04	2869.20
361.25	3080.14
361.46	3239.89
361.67	2947.03
361.88	2887.64
362.09	3149.78
362.30	3043.28
362.51	2707.41
362.72	2801.62
362.93	3092.43
363.14	3149.78
363.35	2811.86
363.56	2740.18
363.78	3160.02
363.99	3147.73
364.20	2785.24
364.41	2930.64
364.62	3295.18
364.83	3037.14
365.04	2805.72
365.25	2756.57
365.46	3303.37
365.67	2832.34
365.88	2920.40
366.09	2758.61
366.30	2928.60
366.51	2885.59
366.72	2779.09
366.93	2807.77
367.14	2990.03
367.35	3231.69
367.56	2756.57
367.77	2932.69
367.98	2961.36
368.18	3053.52
368.39	2912.21
368.60	2750.42
368.81	3188.69
369.02	3065.81
369.23	2775.00
369.44	2592.73
369.65	2981.84
369.86	3002.32
370.07	2959.31
370.28	2707.41
370.49	3125.20
370.70	3049.43
370.91	2713.56
371.12	2643.93
371.33	3184.59
371.54	2840.53
371.75	2942.93
371.96	2494.43
372.17	3045.33
372.38	2908.12
372.59	2815.96
372.80	2705.37
373.01	2867.16
373.22	2987.99
373.43	2879.44
373.64	2652.12
373.85	3180.50
374.06	3196.88
374.26	2975.70
374.47	2904.02
374.68	3327.95
374.89	3045.33
375.10	2711.51
375.31	2920.40
375.52	3028.95
375.73	3010.51
375.94	2703.32
376.15	2865.11
376.36	2885.59
376.57	2861.01
376.78	2783.19
376.99	2834.39
377.20	3213.26
377.40	3006.42
377.61	2994.13
377.82	2725.85
378.03	3176.40
378.24	3147.73
378.45	2881.49
378.66	2856.92
378.87	2777.05
379.08	2793.43
379.29	2818.00
379.50	2998.23
379.71	2990.03
379.91	3057.62
380.12	2820.05
380.33	2895.83
380.54	2881.49
380.75	2944.98
380.96	2752.47
381.17	2901.97
381.38	2949.08
381.59	2932.69
381.80	2791.38
382.00	3000.27
382.21	3055.57
382.42	3289.04
382.63	3119.06
382.84	2930.64
383.05	3106.77
383.26	3207.12
383.47	2897.88
383.68	2760.66
383.88	3030.99
384.09	3059.67
384.30	3074.00
384.51	2967.51
384.72	2934.74
384.93	2809.81
385.14	2861.01
385.35	2975.70
385.55	2648.02
385.76	3155.92
385.97	2801.62
386.18	2787.29
386.39	2867.16
386.60	2869.20
386.81	2744.28
387.02	2748.37
387.22	2770.90
387.43	3051.47
387.64	2922.45
387.85	3084.24
388.06	3039.19
388.27	4044.74
388.48	7229.33
388.68	10884.95
388.89	13500.21
389.10	14620.45
389.31	14012.20
389.52	11464.53
389.73	9762.67
389.93	8978.30
390.14	8218.50
390.35	7495.57
390.56	6938.52
390.77	5654.44
390.98	4308.93
391.18	3672.01
391.39	3401.68
391.60	2973.65
391.81	3061.71
392.02	2836.44
392.23	3360.72
392.43	3088.34
392.64	2920.40
392.85	2936.79
393.06	3262.41
393.27	2951.12
393.47	2746.33
393.68	2836.44
393.89	2938.84
394.10	3235.79
394.31	2826.20
394.52	2813.91
394.72	2818.00
394.93	3258.32
395.14	2752.47
395.35	2887.64
395.56	2920.40
395.76	2934.74
395.97	2815.96
396.18	2961.36
396.39	3047.38
396.60	3542.99
396.80	3155.92
397.01	3002.32
397.22	3043.28
397.43	3184.59
397.64	2832.34
397.84	2936.79
398.05	3325.90
398.26	2951.12
398.47	2940.88
398.67	3049.43
398.88	3012.56
399.09	3092.43
399.30	2781.14
399.51	2887.64
399.71	2869.20
399.92	2998.23
400.13	2867.16
400.34	2836.44
400.54	3016.66
400.75	3237.84
400.96	2940.88
401.17	3151.82
401.37	3069.91
401.58	3008.47
401.79	2850.77
402.00	2983.89
402.21	3418.06
402.41	3147.73
402.62	3096.53
402.83	3098.58
403.04	3330.00
403.24	3680.20
403.45	2965.46
403.66	3096.53
403.87	3200.98
404.07	3221.45
404.28	3020.75
404.49	3094.48
404.70	3092.43
404.90	3074.00
405.11	2850.77
405.32	2955.22
405.52	2832.34
405.73	2916.31
405.94	2668.50
406.15	2922.45
406.35	3076.05
406.56	3221.45
406.77	2928.60
406.98	2797.53
407.18	2840.53
407.39	3246.03
407.60	2762.71
407.80	2932.69
408.01	2897.88
408.22	3065.81
408.43	2729.94
408.63	2938.84
408.84	3209.17
409.05	3172.30
409.25	2713.56
409.46	2844.63
409.67	2918.36
409.88	2940.88
410.08	2897.88
410.29	2684.89
410.50	3145.68
410.70	3131.34
410.91	2775.00
411.12	2895.83
411.32	3022.80
411.53	2803.67
411.74	2832.34
411.95	2932.69
412.15	3074.00
412.36	3024.85
412.57	2967.51
412.77	3104.72
412.98	2940.88
413.19	2916.31
413.39	2885.59
413.60	2836.44
413.81	3256.27
414.01	2811.86
414.22	2904.02
414.43	2955.22
414.63	2938.84
414.84	3229.65
415.05	2815.96
415.25	2650.07
415.46	3092.43
415.67	2901.97
415.87	2901.97
416.08	2813.91
416.29	2942.93
416.49	3117.01
416.70	2861.01
416.91	2887.64
417.11	2893.78
417.32	3172.30
417.53	2998.23
417.73	2953.17
417.94	2990.03
418.15	3080.14
418.35	2867.16
418.56	2779.09
418.77	3332.05
418.97	2961.36
419.18	2914.26
419.38	2584.54
419.59	2924.50
419.80	3260.37
420.00	2822.10
420.21	2861.01
420.42	3180.50
420.62	3090.38
420.83	2775.00
421.04	2770.90
421.24	2959.31
421.45	3100.62
421.65	2830.29
421.86	2879.44
422.07	3102.67
422.27	3057.62
422.48	2742.23
422.69	2609.11
422.89	3026.90
423.10	2959.31
423.30	2777.05
423.51	2922.45
423.72	3088.34
423.92	3074.00
424.13	2762.71
424.33	2959.31
424.54	3057.62
424.75	3008.47
424.95	3145.68
425.16	2852.82
425.36	2981.84
425.57	3164.11
425.78	2996.18
425.98	2885.59
426.19	2957.27
426.39	2787.29
426.60	2904.02
426.81	2959.31
427.01	3090.38
427.22	2963.41
427.42	2699.22
427.63	2797.53
427.83	3176.40
428.04	3182.54
428.25	2928.60
428.45	2936.79
428.66	3182.54
428.86	2957.27
429.07	2848.72
429.28	2852.82
429.48	3002.32
429.69	2791.38
429.89	2922.45
430.10	2824.15
430.30	3059.67
430.51	3147.73
430.71	2805.72
430.92	2893.78
431.13	2940.88
431.33	3119.06
431.54	2842.58
431.74	3045.33
431.95	3381.20
432.15	2852.82
432.36	2854.87
432.56	3006.42
432.77	3307.47
432.98	3315.66
433.18	2899.92
433.39	2809.81
433.59	3041.23
433.80	3360.72
434.00	3074.00
434.21	2852.82
434.41	2867.16
434.62	3352.52
434.82	2729.94
435.03	2742.23
435.23	3074.00
435.44	2758.61
435.64	2750.42
435.85	2858.96
436.06	3092.43
436.26	3153.87
436.47	2787.29
436.67	2727.89
436.88	3033.04
437.08	3203.02
437.29	2969.55
437.49	3012.56
437.70	3143.63
437.90	2932.69
438.11	3078.10
438.31	2959.31
438.52	3182.54
438.72	3192.78
438.93	3143.63
439.13	2969.55
439.34	3074.00
439.54	2871.25
439.75	2901.97
439.95	3033.04
440.16	2772.95
440.36	2893.78
440.57	2844.63
440.77	2908.12
440.98	2996.18
441.18	3053.52
441.39	2738.13
441.59	2721.75
441.80	3383.24
442.00	2963.41
442.21	2914.26
442.41	2723.80
442.62	3196.88
442.82	2906.07
443.02	2791.38
443.23	2867.16
443.43	2901.97
443.64	3246.03
443.84	2764.76
444.05	2920.40
444.25	2951.12
444.46	2897.88
444.66	2848.72
444.87	3063.76
445.07	2674.65
445.28	2936.79
445.48	3059.67
445.69	2910.16
445.89	3485.64
446.09	2924.50
446.30	3180.50
446.50	3209.17
446.71	4745.14
446.91	5867.43
447.12	6563.74
447.32	6961.05
447.53	6856.60
447.73	5748.65
447.93	4997.04
448.14	4714.42
448.34	4812.73
448.55	4102.08
448.75	4040.64
448.96	3903.43
449.16	3631.05
449.36	3629.00
449.57	3143.63
449.77	2947.03
449.98	2996.18
450.18	3090.38
450.39	2805.72
450.59	3000.27
450.79	2975.70
451.00	2895.83
451.20	2987.99
451.41	2879.44
451.61	3176.40
451.81	2965.46
452.02	2775.00
452.22	2930.64
452.43	2949.08
452.63	2861.01
452.84	2918.36
453.04	2762.71
453.24	2926.55
453.45	2871.25
453.65	2877.40
453.86	2834.39
454.06	3024.85
454.26	3028.95
454.47	2777.05
454.67	3076.05
454.87	3137.49
455.08	2959.31
455.28	3041.23
455.49	2987.99
455.69	2879.44
455.89	3364.81
456.10	2977.75
456.30	2856.92
456.51	3076.05
456.71	3051.47
456.91	2895.83
457.12	2775.00
457.32	3051.47
457.52	2852.82
457.73	3067.86
457.93	2975.70
458.14	2928.60
458.34	2725.85
458.54	2797.53
458.75	2801.62
458.95	3133.39
459.15	3065.81
459.36	2901.97
459.56	2973.65
459.76	3342.28
459.97	3010.51
460.17	2899.92
460.37	3041.23
460.58	2987.99
460.78	3096.53
460.99	2873.30
461.19	2797.53
461.39	2875.35
461.60	2922.45
461.80	2891.73
462.00	2758.61
462.21	3006.42
462.41	2820.05
462.61	2815.96
462.82	2727.89
463.02	3096.53
463.22	2926.55
463.43	2949.08
463.63	2836.44
463.83	3227.60
464.04	3051.47
464.24	2795.48
464.44	2791.38
464.64	3018.71
464.85	3131.34
465.05	2924.50
465.25	2813.91
465.46	2953.17
465.66	3172.30
465.86	2940.88
466.07	2852.82
466.27	2904.02
466.47	2758.61
466.68	2631.64
466.88	2949.08
467.08	3123.15
467.29	3162.06
467.49	2840.53
467.69	2928.60
467.89	3016.66
468.10	2967.51
468.30	2856.92
468.50	2938.84
468.71	3129.30
468.91	2799.57
469.11	3063.76
469.31	2957.27
469.52	2846.68
469.72	3373.00
469.92	3102.67
470.13	2781.14
470.33	2967.51
470.53	3106.77
470.73	3151.82
470.94	3497.93
471.14	3600.33
471.34	4118.47
471.54	3805.13
471.75	3428.30
471.95	3368.91
472.15	3330.00
472.36	3340.24
472.56	3289.04
472.76	3389.39
472.96	3282.89
473.17	3137.49
473.37	3078.10
473.57	2854.87
473.77	3129.30
473.98	2949.08
474.18	2729.94
474.38	3545.03
474.58	2924.50
474.79	2713.56
474.99	2942.93
475.19	3254.22
475.39	2772.95
475.60	2934.74
475.80	2750.42
476.00	3069.91
476.20	2944.98
476.41	2861.01
476.61	2924.50
476.81	3200.98
477.01	2836.44
477.21	3104.72
477.42	3045.33
477.62	2844.63
477.82	3071.95
478.02	2740.18
478.23	2910.16
478.43	2922.45
478.63	2910.16
478.83	2865.11
479.03	2928.60
479.24	3198.93
479.44	3319.76
479.64	2809.81
479.84	2664.41
480.04	2908.12
480.25	3153.87
480.45	2777.05
480.65	2811.86
480.85	3276.75
481.06	2928.60
481.26	3000.27
481.46	2844.63
481.66	2955.22
481.86	2738.13
482.06	3061.71
482.27	2885.59
482.47	2934.74
482.67	3008.47
482.87	2789.33
483.07	2994.13
483.28	2912.21
483.48	2836.44
483.68	2815.96
483.88	2688.98
484.08	2623.45
484.29	2793.43
484.49	2889.68
484.69	2725.85
484.89	3231.69
485.09	3080.14
485.29	2846.68
485.50	2985.94
485.70	2940.88
485.90	3186.64
486.10	2996.18
486.30	2881.49
486.50	3221.45
486.71	3071.95
486.91	2883.54
487.11	2994.13
487.31	2869.20
487.51	3133.39
487.71	2832.34
487.91	2705.37
488.12	2809.81
488.32	2629.59
488.52	2787.29
488.72	2617.30
488.92	2920.40
489.12	3164.11
489.32	3012.56
489.53	2885.59
489.73	2758.61
489.93	3276.75
490.13	2789.33
490.33	2729.94
490.53	3018.71
490.73	3184.59
490.94	2783.19
491.14	3069.91
491.34	3137.49
491.54	3153.87
491.74	3624.90
491.94	4128.70
492.14	4655.03
492.34	4755.38
492.54	4411.32
492.75	3712.97
492.95	3811.27
493.15	3647.43
493.35	3489.74
493.55	3481.55
493.75	3293.13
493.95	3567.56
494.15	3067.86
494.35	2904.02
494.56	2906.07
494.76	2891.73
494.96	2877.40
495.16	2836.44
495.36	2832.34
495.56	2992.08
495.76	2871.25
495.96	2885.59
496.16	2828.24
496.36	3338.19
496.56	2768.85
496.77	2889.68
496.97	2969.55
497.17	3252.17
497.37	2758.61
497.57	3014.61
497.77	3008.47
497.97	2797.53
498.17	2871.25
498.37	2813.91
498.57	3067.86
498.77	2922.45
498.97	2985.94
499.17	3207.12
499.38	3043.28
499.58	3184.59
499.78	2977.75
499.98	2992.08
500.18	2969.55
500.38	2785.24
500.58	3030.99
500.78	3395.53
500.98	5552.04
501.18	7354.26
501.38	8861.56
501.58	9754.48
501.78	9670.51
501.98	8081.28
502.18	6832.02
502.38	5783.46
502.58	5707.69
502.78	4931.51
502.98	4816.82
503.18	4599.74
503.38	4292.54
503.59	3833.80
503.79	3667.91
503.99	3393.48
504.19	3459.02
504.39	3469.26
504.59	3377.10
504.79	3229.65
504.99	3516.36
505.19	3147.73
505.39	3076.05
505.59	3264.46
505.79	3383.24
505.99	3196.88
506.19	2932.69
506.39	3041.23
506.59	2895.83
506.79	2947.03
506.99	3039.19
507.19	2881.49
507.39	2985.94
507.59	2797.53
507.79	2742.23
507.99	2863.06
508.19	2967.51
508.39	2944.98
508.59	2885.59
508.79	2977.75
508.99	3323.85
509.19	2809.81
509.39	2953.17
509.59	2811.86
509.79	2940.88
509.99	3108.82
510.19	3024.85
510.39	2990.03
510.59	2985.94
510.79	2861.01
510.99	2729.94
511.19	2887.64
511.39	3291.09
511.59	3182.54
511.79	2992.08
511.99	2824.15
512.19	3344.33
512.38	2977.75
512.58	2777.05
512.78	2770.90
512.98	3213.26
513.18	3196.88
513.38	2736.09
513.58	2901.97
513.78	2842.58
513.98	2942.93
514.18	2842.58
514.38	2758.61
514.58	3000.27
514.78	2811.86
514.98	2775.00
515.18	2912.21
515.38	2824.15
515.58	3250.13
515.78	2918.36
515.98	2865.11
516.18	3004.37
516.38	2883.54
516.57	2789.33
516.77	2709.46
516.97	3155.92
517.17	2879.44
517.37	2641.88
517.57	2912.21
517.77	2944.98
517.97	2846.68
518.17	2914.26
518.37	2762.71
518.57	2912.21
518.77	2910.16
518.97	2863.06
519.16	2820.05
519.36	3215.31
519.56	2834.39
519.76	2846.68
519.96	2879.44
520.16	3299.28
520.36	2807.77
520.56	3047.38
520.76	2813.91
520.96	2875.35
521.16	3098.58
521.35	3080.14
521.55	3004.37
521.75	2904.02
521.95	2971.60
522.15	2842.58
522.35	2723.80
522.55	2887.64
522.75	3135.44
522.95	2787.29
523.14	2750.42
523.34	3002.32
523.54	2863.06
523.74	3020.75
523.94	2887.64
524.14	2748.37
524.34	3043.28
524.54	3061.71
524.73	2885.59
524.93	3100.62
525.13	2961.36
525.33	2725.85
525.53	3090.38
525.73	3133.39
525.93	2965.46
526.13	2893.78
526.32	2797.53
526.52	3211.22
526.72	3168.21
526.92	2906.07
527.12	2791.38
527.32	2770.90
527.52	3076.05
527.71	2936.79
527.91	2858.96
528.11	2916.31
528.31	3018.71
528.51	2764.76
528.71	2961.36
528.90	3127.25
529.10	3147.73
529.30	2916.31
529.50	2578.39
529.70	3094.48
529.90	3008.47
530.09	2938.84
530.29	2674.65
530.49	2832.34
530.69	3438.54
530.89	2947.03
531.09	2906.07
531.28	2873.30
531.48	3166.16
531.68	2910.16
531.88	2918.36
532.08	3178.45
532.28	2932.69
532.47	2947.03
532.67	2938.84
532.87	3024.85
533.07	2838.48
533.27	2928.60
533.46	2899.92
533.66	3002.32
533.86	2953.17
534.06	2912.21
534.26	2803.67
534.45	2977.75
534.65	3135.44
534.85	2873.30
535.05	2770.90
535.25	3114.96
535.44	2691.03
535.64	2932.69
535.84	2834.39
536.04	2811.86
536.24	2965.46
536.43	2818.00
536.63	2824.15
536.83	2981.84
537.03	2912.21
537.22	2676.70
537.42	2707.41
537.62	2955.22
537.82	2795.48
538.02	2979.79
538.21	2942.93
538.41	3522.51
538.61	3137.49
538.81	2811.86
539.00	3006.42
539.20	2686.94
539.40	2971.60
539.60	2908.12
539.79	2963.41
539.99	2877.40
540.19	2873.30
540.39	2826.20
540.58	2942.93
540.78	3178.45
540.98	3082.19
541.18	3112.91
541.37	2887.64
541.57	2985.94
541.77	3076.05
541.97	2719.70
542.16	2684.89
542.36	2863.06
542.56	2944.98
542.76	3092.43
542.95	2879.44
543.15	3104.72
543.35	3030.99
543.54	2789.33
543.74	2815.96
543.94	3229.65
544.14	2904.02
544.33	2985.94
544.53	2879.44
544.73	2951.12
544.93	2904.02
545.12	2834.39
545.32	2891.73
545.52	2924.50
545.71	2758.61
545.91	2824.15
546.11	2768.85
546.30	2840.53
546.50	2875.35
546.70	2994.13
546.90	2918.36
547.09	2729.94
547.29	2979.79
547.49	2977.75
547.68	2856.92
547.88	2842.58
548.08	3129.30
548.27	3229.65
548.47	2750.42
548.67	2924.50
548.87	3147.73
549.06	2865.11
549.26	2795.48
549.46	3104.72
549.65	2820.05
549.85	2891.73
550.05	2875.35
550.24	2813.91
550.44	2901.97
550.64	2918.36
550.83	2936.79
551.03	3192.78
551.23	3133.39
551.42	2938.84
551.62	3006.42
551.82	2918.36
552.01	2938.84
552.21	3110.86
552.41	2912.21
552.60	3243.98
552.80	2947.03
553.00	2785.24
553.19	2951.12
553.39	3231.69
553.59	2805.72
553.78	2992.08
553.98	2865.11
554.17	2758.61
554.37	3012.56
554.57	2961.36
554.76	2731.99
554.96	2914.26
555.16	2932.69
555.35	2885.59
555.55	3022.80
555.75	2987.99
555.94	3063.76
556.14	2719.70
556.33	2951.12
556.53	2979.79
556.73	2967.51
556.92	2916.31
557.12	2871.25
557.32	3356.62
557.51	3239.89
557.71	2885.59
557.90	2965.46
558.10	3190.74
558.30	2906.07
558.49	2865.11
558.69	2799.57
558.88	3039.19
559.08	3008.47
559.28	2908.12
559.47	2889.68
559.67	3141.58
559.86	3360.72
560.06	2783.19
560.26	2811.86
560.45	3080.14
560.65	2959.31
560.84	3117.01
561.04	2709.46
561.24	3127.25
561.43	2818.00
561.63	3147.73
561.82	2848.72
562.02	3110.86
562.22	2818.00
562.41	2750.42
562.61	2818.00
562.80	2803.67
563.00	3450.83
563.19	2926.55
563.39	2873.30
563.59	3106.77
563.78	2752.47
563.98	2666.46
564.17	2850.77
564.37	2717.65
564.56	3006.42
564.76	2684.89
564.96	2957.27
565.15	2987.99
565.35	3436.49
565.54	2912.21
565.74	2938.84
565.93	3071.95
566.13	2983.89
566.32	2932.69
566.52	2961.36
566.71	3039.19
566.91	3145.68
567.11	2863.06
567.30	2809.81
567.50	3030.99
567.69	2949.08
567.89	2885.59
568.08	2787.29
568.28	3022.80
568.47	2754.52
568.67	2920.40
568.86	2813.91
569.06	3106.77
569.25	2904.02
569.45	2707.41
569.64	2904.02
569.84	2879.44
570.04	2973.65
570.23	2785.24
570.43	2834.39
570.62	2981.84
570.82	3348.43
571.01	2705.37
571.21	2789.33
571.40	2811.86
571.60	3157.97
571.79	2930.64
571.99	2881.49
572.18	2809.81
572.38	3053.52
572.57	2922.45
572.77	2951.12
572.96	3391.44
573.16	3004.37
573.35	2846.68
573.55	2971.60
573.74	3018.71
573.94	2897.88
574.13	2820.05
574.33	3012.56
574.52	3153.87
574.71	3047.38
574.91	2910.16
575.10	2715.61
575.30	2965.46
575.49	2871.25
575.69	2760.66
575.88	2848.72
576.08	2826.20
576.27	3207.12
576.47	2826.20
576.66	2975.70
576.86	3241.93
577.05	3102.67
577.25	2906.07
577.44	3106.77
577.64	2885.59
577.83	3094.48
578.02	2899.92
578.22	3063.76
578.41	3354.57
578.61	2887.64
578.80	2740.18
579.00	2863.06
579.19	2934.74
579.39	3080.14
579.58	2904.02
579.77	2883.54
579.97	3276.75
580.16	3127.25
580.36	2963.41
580.55	2906.07
580.75	3100.62
580.94	2961.36
581.13	3094.48
581.33	3039.19
581.52	3000.27
581.72	3358.67
581.91	2979.79
582.11	2846.68
582.30	3145.68
582.49	3004.37
582.69	3192.78
582.88	2914.26
583.08	2967.51
583.27	3117.01
583.47	3039.19
583.66	2811.86
583.85	2869.20
584.05	2885.59
584.24	3020.75
584.44	2901.97
584.63	3172.30
584.82	3196.88
585.02	3071.95
585.21	3033.04
585.41	3092.43
585.60	3018.71
585.79	3149.78
585.99	3250.13
586.18	3098.58
586.37	3813.32
586.57	5916.58
586.76	16879.36
586.96	36191.70
587.15	49450.25
587.34	57394.32
587.54	61795.41
587.73	55481.52
587.93	39093.68
588.12	30043.70
588.31	24436.36
588.51	21612.21
588.70	19951.31
588.89	17370.87
589.09	14903.07
589.28	12689.21
589.47	9955.18
589.67	7526.29
589.86	6025.12
590.06	4700.09
590.25	4020.16
590.44	3602.38
590.64	3260.37
590.83	3260.37
591.02	3174.35
591.22	2852.82
591.41	2934.74
591.60	2973.65
591.80	3428.30
591.99	2768.85
592.18	2920.40
592.38	3117.01
592.57	2893.78
592.76	2930.64
592.96	2897.88
593.15	3051.47
593.34	3176.40
593.54	2846.68
593.73	3012.56
593.92	3024.85
594.12	3133.39
594.31	2973.65
594.50	3080.14
594.70	3135.44
594.89	3497.93
595.08	2684.89
595.28	2926.55
595.47	3606.47
595.66	3184.59
595.86	2781.14
596.05	2772.95
596.24	2912.21
596.43	3182.54
596.63	2951.12
596.82	3037.14
597.01	3033.04
597.21	3299.28
597.40	2836.44
597.59	2918.36
597.79	2906.07
597.98	3074.00
598.17	2971.60
598.36	2854.87
598.56	3123.15
598.75	2889.68
598.94	2965.46
599.14	2873.30
599.33	2901.97
599.52	3131.34
599.71	2977.75
599.91	2904.02
600.10	3110.86
600.29	3035.09
600.48	2934.74
600.68	2932.69
600.87	3030.99
601.06	2846.68
601.26	2969.55
601.45	2938.84
601.64	2979.79
601.83	3301.33
602.03	2729.94
602.22	2744.28
602.41	3131.34
602.60	3448.78
602.80	2969.55
602.99	2961.36
603.18	2840.53
603.37	2998.23
603.57	2805.72
603.76	2942.93
603.95	3198.93
604.14	2879.44
604.34	2807.77
604.53	2750.42
604.72	3035.09
604.91	3049.43
605.10	2969.55
605.30	2748.37
605.49	3342.28
605.68	3094.48
605.87	2891.73
606.07	2760.66
606.26	3092.43
606.45	3170.26
606.64	2969.55
606.84	2727.89
607.03	2908.12
607.22	3112.91
607.41	2893.78
607.60	2852.82
607.80	3123.15
607.99	2990.03
608.18	2985.94
608.37	2850.77
608.56	2856.92
608.76	3174.35
608.95	2942.93
609.14	2875.35
609.33	3090.38
609.52	3256.27
609.72	2959.31
609.91	2979.79
610.10	3014.61
610.29	3200.98
610.48	3026.90
610.68	2854.87
610.87	2961.36
611.06	3141.58
611.25	2824.15
611.44	2975.70
611.63	2899.92
611.83	3254.22
612.02	2805.72
612.21	3022.80
612.40	2693.08
612.59	2781.14
612.79	2811.86
612.98	2815.96
613.17	3264.46
613.36	3039.19
613.55	3016.66
613.74	2828.24
613.93	2979.79
614.13	3106.77
614.32	3016.66
614.51	2990.03
614.70	2992.08
614.89	2949.08
615.08	3043.28
615.28	3303.37
615.47	2791.38
615.66	2979.79
615.85	2959.31
616.04	2942.93
616.23	3028.95
616.42	2961.36
616.62	2940.88
616.81	2924.50
617.00	2938.84
617.19	3078.10
617.38	2826.20
617.57	2920.40
617.76	3076.05
617.95	3149.78
618.15	3004.37
618.34	3108.82
618.53	2777.05
618.72	3221.45
618.91	3016.66
619.10	2926.55
619.29	2881.49
619.48	3012.56
619.68	2742.23
619.87	2861.01
620.06	2807.77
620.25	3082.19
620.44	2779.09
620.63	2885.59
620.82	3024.85
621.01	2975.70
621.20	2893.78
621.39	2936.79
621.59	3033.04
621.78	2883.54
621.97	2818.00
622.16	2996.18
622.35	3035.09
622.54	3074.00
622.73	3035.09
622.92	2709.46
623.11	3114.96
623.30	2887.64
623.49	3002.32
623.68	2742.23
623.88	3280.85
624.07	2897.88
624.26	2752.47
624.45	2897.88
624.64	2920.40
624.83	3047.38
625.02	2836.44
625.21	2867.16
625.40	3043.28
625.59	3241.93
625.78	2912.21
625.97	2934.74
626.16	3225.55
626.35	3110.86
626.54	2861.01
626.74	3035.09
626.93	2973.65
627.12	2971.60
627.31	2918.36
627.50	2889.68
627.69	3078.10
627.88	2836.44
628.07	2793.43
628.26	2709.46
628.45	2942.93
628.64	2844.63
628.83	2906.07
629.02	2744.28
629.21	3059.67
629.40	3094.48
629.59	2791.38
629.78	2756.57
629.97	3037.14
630.16	3037.14
630.35	2879.44
630.54	2918.36
630.73	2856.92
630.92	2969.55
631.11	2791.38
631.30	2908.12
631.49	3157.97
631.68	2918.36
631.87	2998.23
632.06	2719.70
632.25	3424.20
632.44	2963.41
632.63	2922.45
632.82	2863.06
633.01	2883.54
633.20	3074.00
633.39	2858.96
633.58	2699.22
633.77	3004.37
633.96	3024.85
634.15	2985.94
634.34	2928.60
634.53	3069.91
634.72	2885.59
634.91	2719.70
635.10	2861.01
635.29	3100.62
635.48	3057.62
635.67	2820.05
635.86	2660.31
636.05	3246.03
636.24	2983.89
636.43	2901.97
636.62	2994.13
636.81	2555.86
637.00	3053.52
637.19	2938.84
637.38	2897.88
637.57	2908.12
637.76	3035.09
637.95	3065.81
638.14	2875.35
638.33	3045.33
638.52	3004.37
638.71	2754.52
638.89	2729.94
639.08	3471.31
639.27	3174.35
639.46	3022.80
639.65	3323.85
639.84	3321.81
640.03	3504.07
640.22	3250.13
640.41	3262.41
640.60	3071.95
640.79	3071.95
640.98	2957.27
641.17	3076.05
641.36	3084.24
641.55	3129.30
641.74	2658.26
641.92	2822.10
642.11	2871.25
642.30	2934.74
642.49	2815.96
642.68	2813.91
642.87	3082.19
643.06	3000.27
643.25	2762.71
643.44	2672.60
643.63	2949.08
643.82	3246.03
644.00	2670.55
644.19	2914.26
644.38	2734.04
644.57	3030.99
644.76	2858.96
644.95	2885.59
645.14	3020.75
645.33	2895.83
645.52	2883.54
645.71	2703.32
645.89	2772.95
646.08	2975.70
646.27	2811.86
646.46	3074.00
646.65	2836.44
646.84	3055.57
647.03	2764.76
647.22	2987.99
647.40	2904.02
647.59	3018.71
647.78	2619.35
647.97	2736.09
648.16	2793.43
648.35	3207.12
648.54	3168.21
648.73	2881.49
648.91	3082.19
649.10	3008.47
649.29	2842.58
649.48	2787.29
649.67	3037.14
649.86	3084.24
650.05	2875.35
650.23	3076.05
650.42	2865.11
650.61	3248.08
650.80	3037.14
650.99	3106.77
651.18	3092.43
651.36	3192.78
651.55	2740.18
651.74	2985.94
651.93	2912.21
652.12	2901.97
652.31	2981.84
652.49	2820.05
652.68	2934.74
652.87	3182.54
653.06	2961.36
653.25	3084.24
653.44	3051.47
653.62	3280.85
653.81	2891.73
654.00	2856.92
654.19	3153.87
654.38	3475.40
654.56	2893.78
654.75	2772.95
654.94	3125.20
655.13	2971.60
655.32	2815.96
655.51	2961.36
655.69	2875.35
655.88	3117.01
656.07	2762.71
656.26	2924.50
656.45	2789.33
656.63	3010.51
656.82	2842.58
657.01	3114.96
657.20	2807.77
657.38	3166.16
657.57	2834.39
657.76	2672.60
657.95	3129.30
658.14	2918.36
658.32	2920.40
658.51	2750.42
658.70	3055.57
658.89	3080.14
659.08	2891.73
659.26	3076.05
659.45	2854.87
659.64	3088.34
659.83	2885.59
660.01	3276.75
660.20	3012.56
660.39	3233.74
660.58	2641.88
660.76	2973.65
660.95	2641.88
661.14	2914.26
661.33	2723.80
661.51	2877.40
661.70	2944.98
661.89	3125.20
662.08	2861.01
662.26	2717.65
662.45	2772.95
662.64	3284.94
662.83	2969.55
663.01	2779.09
663.20	2869.20
663.39	3284.94
663.58	2881.49
663.76	2801.62
663.95	3078.10
664.14	2824.15
664.32	2850.77
664.51	2799.57
664.70	2725.85
664.89	3002.32
665.07	2744.28
665.26	2983.89
665.45	2848.72
665.64	3084.24
665.82	2881.49
666.01	2985.94
666.20	2820.05
666.38	3117.01
666.57	3162.06
666.76	4829.11
666.95	11175.77
667.13	17774.32
667.32	21632.69
667.51	24516.23
667.69	25917.04
667.88	21368.51
668.07	15433.49
668.25	13141.82
668.44	11362.13
668.63	9856.87
668.81	8793.98
669.00	7491.47
669.19	6735.77
669.38	5980.07
669.56	5107.63
669.75	4376.51
669.94	3876.80
670.12	3403.72
670.31	3174.35
670.50	3102.67
670.68	3157.97
670.87	2994.13
671.06	2791.38
671.24	2967.51
671.43	3207.12
671.62	2967.51
671.80	2828.24
671.99	2904.02
672.18	2998.23
672.36	3082.19
672.55	2998.23
672.74	2873.30
672.92	2916.31
673.11	3074.00
673.29	2650.07
673.48	2938.84
673.67	2891.73
673.85	3172.30
674.04	2832.34
674.23	2893.78
674.41	3250.13
674.60	2840.53
674.79	2682.84
674.97	2736.09
675.16	3135.44
675.34	3166.16
675.53	2838.48
675.72	2955.22
675.90	3336.14
676.09	2807.77
676.28	2938.84
676.46	2623.45
676.65	3092.43
676.83	2842.58
677.02	2820.05
677.21	2973.65
677.39	3051.47
677.58	2858.96
677.77	2879.44
677.95	2791.38
678.14	3008.47
678.32	2947.03
678.51	2758.61
678.70	3192.78
678.88	2822.10
679.07	3069.91
679.25	2869.20
679.44	2885.59
679.63	2858.96
679.81	3014.61
680.00	3057.62
680.18	2977.75
680.37	3301.33
680.55	2955.22
680.74	2744.28
680.93	2582.49
681.11	3045.33
681.30	3024.85
681.48	2930.64
681.67	2811.86
681.85	3065.81
682.04	2887.64
682.23	3086.29
682.41	2938.84
682.60	2910.16
682.78	2985.94
682.97	2762.71
683.15	2877.40
683.34	3018.71
683.53	3198.93
683.71	2736.09
683.90	3059.67
684.08	3184.59
684.27	2916.31
684.45	2897.88
684.64	3028.95
684.82	2873.30
685.01	3033.04
685.19	2797.53
685.38	3162.06
685.57	3026.90
685.75	2932.69
685.94	2787.29
686.12	2836.44
686.31	2889.68
686.49	3237.84
686.68	2697.17
686.86	2901.97
687.05	2926.55
687.23	3225.55
687.42	2850.77
687.60	2676.70
687.79	3074.00
687.97	3264.46
688.16	3035.09
688.34	3024.85
688.53	2666.46
688.71	3137.49
688.90	3100.62
689.08	2953.17
689.27	2660.31
689.45	3131.34
689.64	3026.90
689.82	2934.74
690.01	3080.14
690.19	3014.61
690.38	2969.55
690.56	3045.33
690.75	2785.24
690.93	2834.39
691.12	2799.57
691.30	2901.97
691.49	2975.70
691.67	2957.27
691.86	3205.07
692.04	2906.07
692.23	2901.97
692.41	2934.74
692.60	3194.83
692.78	3022.80
692.97	3071.95
693.15	3139.54
693.34	3100.62
693.52	3057.62
693.71	2861.01
693.89	2922.45
694.08	2609.11
694.26	2916.31
694.44	3153.87
694.63	3071.95
694.81	2721.75
695.00	2863.06
695.18	3170.26
695.37	3428.30
695.55	2985.94
695.74	2926.55
695.92	2875.35
696.10	3162.06
696.29	2762.71
696.47	2877.40
696.66	2799.57
696.84	2856.92
697.03	2901.97
697.21	3176.40
697.40	4470.72
697.58	3231.69
697.76	2893.78
697.95	2809.81
698.13	2805.72
698.32	2893.78
698.50	2832.34
698.68	2904.02
698.87	3022.80
699.05	3278.80
699.24	2779.09
699.42	2846.68
699.61	3141.58
699.79	3076.05
699.97	2891.73
700.16	2772.95
700.34	2793.43
700.53	2981.84
700.71	3055.57
700.89	2967.51
701.08	2809.81
701.26	2863.06
701.45	3170.26
701.63	2766.81
701.81	2910.16
702.00	2852.82
702.18	2901.97
702.37	2791.38
702.55	3207.12
702.73	3096.53
702.92	2848.72
703.10	3231.69
703.28	3123.15
703.47	2828.24
703.65	2983.89
703.84	3065.81
704.02	2906.07
704.20	3241.93
704.39	2789.33
704.57	2811.86
704.75	3205.07
704.94	3117.01
705.12	3051.47
705.30	3297.23
705.49	6614.94
705.67	13291.32
705.86	18515.69
706.04	20809.41
706.22	23140.00
706.41	22525.61
706.59	17188.60
706.77	13209.40
706.96	11454.29
707.14	10463.07
707.32	9156.47
707.51	8042.37
707.69	6641.56
707.87	5486.51
708.06	4521.92
708.24	3952.58
708.42	3575.75
708.61	3696.58
708.79	2936.79
708.97	3037.14
709.16	3145.68
709.34	2990.03
709.52	2904.02
709.71	2838.48
709.89	3127.25
710.07	2836.44
710.26	2797.53
710.44	2879.44
710.62	3160.02
710.80	2924.50
710.99	2998.23
711.17	2965.46
711.35	2830.29
711.54	2861.01
711.72	3110.86
711.90	2973.65
712.09	3063.76
712.27	2844.63
712.45	3008.47
712.63	2881.49
712.82	3039.19
713.00	2969.55
713.18	3012.56
713.37	2987.99
713.55	3129.30
713.73	3082.19
713.91	3008.47
714.10	2875.35
714.28	2949.08
714.46	3059.67
714.65	2891.73
714.83	2914.26
715.01	3008.47
715.19	3010.51
715.38	2793.43
715.56	2850.77
715.74	2906.07
715.92	2809.81
716.11	3137.49
716.29	2678.74
716.47	3008.47
716.65	2922.45
716.84	2756.57
717.02	2979.79
717.20	2750.42
717.38	2928.60
717.57	2981.84
717.75	2871.25
717.93	2844.63
718.11	2987.99
718.30	2686.94
718.48	2828.24
718.66	3160.02
718.84	3207.12
719.03	2846.68
719.21	2752.47
719.39	3227.60
719.57	3061.71
719.75	2940.88
719.94	2766.81
720.12	2922.45
720.30	3049.43
720.48	2934.74
720.67	2871.25
720.85	2772.95
721.03	2908.12
721.21	2746.33
721.39	2990.03
721.58	3057.62
721.76	3016.66
721.94	2924.50
722.12	3008.47
722.30	3180.50
722.49	2897.88
722.67	2856.92
722.85	2926.55
723.03	2713.56
723.21	2856.92
723.40	2879.44
723.58	3014.61
723.76	3030.99
723.94	3190.74
724.12	2914.26
724.30	3026.90
724.49	3143.63
724.67	2822.10
724.85	2992.08
725.03	2768.85
725.21	3041.23
725.40	3164.11
725.58	2822.10
725.76	2985.94
725.94	3168.21
726.12	2805.72
726.30	2965.46
726.49	2887.64
726.67	2877.40
726.85	3117.01
727.03	3381.20
727.21	4419.52
727.39	5517.23
727.57	5949.35
727.76	6266.78
727.94	6311.84
728.12	5724.07
728.30	4792.25
728.48	4505.53
728.66	4114.37
728.84	3936.20
729.03	3557.32
729.21	3368.91
729.39	3180.50
729.57	3067.86
729.75	3028.95
729.93	2932.69
730.11	2838.48
730.30	2852.82
730.48	2918.36
730.66	2967.51
730.84	3012.56
731.02	3012.56
731.20	2848.72
731.38	2934.74
731.56	2768.85
731.74	2766.81
731.93	2973.65
732.11	2969.55
732.29	2910.16
732.47	3067.86
732.65	3000.27
732.83	3039.19
733.01	2983.89
733.19	2824.15
733.37	3084.24
733.56	2844.63
733.74	2789.33
733.92	3291.09
734.10	2883.54
734.28	2969.55
734.46	2775.00
734.64	2912.21
734.82	2906.07
735.00	2772.95
735.18	2883.54
735.36	2983.89
735.54	2985.94
735.73	2861.01
735.91	2994.13
736.09	3186.64
736.27	3018.71
736.45	2918.36
736.63	2611.16
736.81	2930.64
736.99	3139.54
737.17	3145.68
737.35	2754.52
737.53	2979.79
737.71	2992.08
737.89	3063.76
738.07	2830.29
738.25	2875.35
738.43	2731.99
738.61	2873.30
738.80	2670.55
738.98	2760.66
739.16	2916.31
739.34	2820.05
739.52	3117.01
739.70	2938.84
739.88	2951.12
740.06	3104.72
740.24	2590.68
740.42	3125.20
740.60	2738.13
740.78	2758.61
740.96	2695.13
741.14	2908.12
741.32	3055.57
741.50	2682.84
741.68	3176.40
741.86	3252.17
742.04	2807.77
742.22	2740.18
742.40	2867.16
742.58	3096.53
742.76	2906.07
742.94	3035.09
743.12	2693.08
743.30	2953.17
743.48	3043.28
743.66	2818.00
743.84	2901.97
744.02	2916.31
744.20	2934.74
744.38	2643.93
744.56	2797.53
744.74	3325.90
744.92	3055.57
745.10	3100.62
745.28	2979.79
745.46	3311.57
745.64	2949.08
745.82	2908.12
746.00	2904.02
746.18	3041.23
746.36	2830.29
746.54	2891.73
746.72	2893.78
746.90	2811.86
747.08	3098.58
747.26	2762.71
747.44	2936.79
747.62	3086.29
747.80	3112.91
747.98	2904.02
748.15	2893.78
748.33	3207.12
748.51	2973.65
748.69	2975.70
748.87	2772.95
749.05	2963.41
749.23	2961.36
749.41	2809.81
749.59	2807.77
749.77	3114.96
749.95	2944.98
750.13	2793.43
750.31	2973.65
750.49	2996.18
750.67	3129.30
750.85	3053.52
751.03	2832.34
751.20	3336.14
751.38	2973.65
751.56	2879.44
751.74	2889.68
751.92	2920.40
752.10	2775.00
752.28	3053.52
752.46	2764.76
752.64	3000.27
752.82	2930.64
753.00	2916.31
753.18	2748.37
753.35	2926.55
753.53	2891.73
753.71	2811.86
753.89	2940.88
754.07	3090.38
754.25	3123.15
754.43	2877.40
754.61	2699.22
754.79	3057.62
754.97	2938.84
755.14	3028.95
755.32	2703.32
755.50	2957.27
755.68	2996.18
755.86	2762.71
756.04	2799.57
756.22	2633.69
756.40	3143.63
756.57	3078.10
756.75	2877.40
756.93	3121.10
757.11	3131.34
757.29	2820.05
757.47	2750.42
757.65	2742.23
757.82	2609.11
758.00	2799.57
758.18	2869.20
758.36	2805.72
758.54	3311.57
758.72	2619.35
758.90	2955.22
759.07	3037.14
759.25	2865.11
759.43	2957.27
759.61	2691.03
759.79	4194.24
759.97	3125.20
760.15	2803.67
760.32	2854.87
760.50	3098.58
760.68	3309.52
760.86	2734.04
761.04	3110.86
761.22	3102.67
761.39	3071.95
761.57	3004.37
761.75	2867.16
761.93	3071.95
762.11	3000.27
762.28	3016.66
762.46	2791.38
762.64	3151.82
762.82	2738.13
763.00	2891.73
763.18	3059.67
763.35	2818.00
763.53	3051.47
763.71	2936.79
763.89	2869.20
764.07	2977.75
764.24	2916.31
764.42	2947.03
764.60	2899.92
764.78	3045.33
764.96	3117.01
765.13	3080.14
765.31	2729.94
765.49	3084.24
765.67	2781.14
765.84	2818.00
766.02	2838.48
766.20	2742.23
766.38	2965.46
766.56	2947.03
766.73	2967.51
766.91	2975.70
767.09	2969.55
767.27	2957.27
767.44	2746.33
767.62	3086.29
767.80	3035.09
767.98	2781.14
768.15	2815.96
768.33	3082.19
768.51	3043.28
768.69	2947.03
768.87	2852.82
769.04	3002.32
769.22	3487.69
769.40	3041.23
769.58	2996.18
769.75	3033.04
769.93	3141.58
770.11	2887.64
770.28	2760.66
770.46	3086.29
770.64	3094.48
770.82	2828.24
770.99	2795.48
771.17	3022.80
771.35	2926.55
771.53	2953.17
771.70	2848.72
771.88	3071.95
772.06	3004.37
772.23	2879.44
772.41	2906.07
772.59	2953.17
772.77	2877.40
772.94	2918.36
773.12	3008.47
773.30	2813.91
773.47	3041.23
773.65	2750.42
773.83	2979.79
774.01	2990.03
774.18	2672.60
774.36	2889.68
774.54	2703.32
774.71	3067.86
774.89	2719.70
775.07	2799.57
775.24	2822.10
775.42	2822.10
775.60	3209.17
775.78	2770.90
775.95	2699.22
776.13	2750.42
776.31	2709.46
776.48	2930.64
776.66	3133.39
776.84	2942.93
777.01	2844.63
777.19	2811.86
777.37	2785.24
777.54	3078.10
777.72	3282.89
777.90	2940.88
778.07	2863.06
778.25	3475.40
778.43	3186.64
778.60	2783.19
778.78	2973.65
778.96	3168.21
779.13	2785.24
779.31	2881.49
779.49	2928.60
779.66	3063.76
779.84	3020.75
780.01	2772.95
780.19	2748.37
780.37	3200.98
780.54	3030.99
780.72	2740.18
780.90	2828.24
781.07	2875.35
781.25	2944.98
781.43	3004.37
781.60	2877.40
781.78	3192.78
781.95	2928.60
782.13	2752.47
782.31	2846.68
782.48	2611.16
782.66	2973.65
782.83	3045.33
783.01	2979.79
783.19	3061.71
783.36	2918.36
783.54	2807.77
783.72	2951.12
783.89	2944.98
784.07	3037.14
784.24	2998.23
784.42	3010.51
784.60	3094.48
784.77	3080.14
784.95	2637.78
785.12	2797.53
785.30	3002.32
785.47	2797.53
785.65	2701.27
785.83	2906.07
786.00	2940.88
786.18	3014.61
786.35	2775.00
786.53	2799.57
786.71	3102.67
786.88	3057.62
787.06	2910.16
787.23	2940.88
787.41	2740.18
787.58	2957.27
787.76	2772.95
787.94	2842.58
788.11	3104.72
788.29	2840.53
788.46	2820.05
788.64	2734.04
788.81	2944.98
788.99	2758.61
789.16	2801.62
789.34	2869.20
789.52	2846.68
789.69	2959.31
789.87	2641.88
790.04	2809.81
790.22	2957.27
790.39	3325.90
790.57	2772.95
790.74	2785.24
790.92	3135.44
791.09	2725.85
791.27	2926.55
791.44	2955.22
791.62	2934.74
791.79	3112.91
791.97	2899.92
792.15	3135.44
792.32	3141.58
792.50	3123.15
792.67	3082.19
792.85	3055.57
793.02	3041.23
793.20	2914.26
793.37	2760.66
793.55	2807.77
793.72	2775.00
793.90	3045.33
794.07	2887.64
794.25	2766.81
794.42	2934.74
794.60	2873.30
794.77	2883.54
794.95	3016.66
795.12	3200.98
795.30	2942.93
795.47	2652.12
795.65	3123.15
795.82	3071.95
796.00	2885.59
796.17	2893.78
796.34	2830.29
796.52	3080.14
796.69	3035.09
796.87	3024.85
797.04	2910.16
797.22	3080.14
797.39	2990.03
797.57	3035.09
797.74	2916.31
797.92	3004.37
798.09	2887.64
798.27	3106.77
798.44	2803.67
798.62	2926.55
798.79	2975.70
798.96	2914.26
799.14	2930.64
799.31	3356.62
799.49	2926.55
799.66	2738.13
799.84	2906.07
800.01	2734.04
800.19	3057.62
800.36	2688.98
800.53	2863.06
800.71	3094.48
800.88	3196.88
801.06	2787.29
801.23	2899.92
801.41	2938.84
801.58	2830.29
801.75	2856.92
801.93	2877.40
802.10	3051.47
802.28	2901.97
802.45	2887.64
802.63	2914.26
802.80	3184.59
802.97	2836.44
803.15	2918.36
803.32	2877.40
803.50	2885.59
803.67	2803.67
803.84	2713.56
804.02	2889.68
804.19	2852.82
804.37	2650.07
804.54	2721.75
804.71	2752.47
804.89	3067.86
805.06	2828.24
805.24	2770.90
805.41	2746.33
805.58	2754.52
805.76	3344.33
805.93	2813.91
806.10	3014.61
806.28	3106.77
806.45	3035.09
806.63	2955.22
806.80	2947.03
806.97	2971.60
807.15	3030.99
807.32	2965.46
807.49	2879.44
807.67	2818.00
807.84	3057.62
808.01	2715.61
808.19	3047.38
808.36	3409.87
808.54	2889.68
808.71	2838.48
808.88	2803.67
809.06	3227.60
809.23	3317.71
809.40	2891.73
809.58	2873.30
809.75	2996.18
809.92	2731.99
810.10	3141.58
810.27	2807.77
810.44	3026.90
810.62	3100.62
810.79	2938.84
810.96	2744.28
811.14	2998.23
811.31	3026.90
811.48	3049.43
811.66	2887.64
811.83	3112.91
812.00	3037.14
812.18	2922.45
812.35	3164.11
812.52	2985.94
812.69	2834.39
812.87	2842.58
813.04	2744.28
813.21	2906.07
813.39	2865.11
813.56	2752.47
813.73	3106.77
813.91	2705.37
814.08	2947.03
814.25	2908.12
814.42	2740.18
814.60	2918.36
814.77	2959.31
814.94	2848.72
815.12	2928.60
815.29	3221.45
815.46	2869.20
815.63	2953.17
815.81	2805.72
815.98	2977.75
816.15	2963.41
816.33	2883.54
816.50	2918.36
816.67	2944.98
816.84	2897.88
817.02	2770.90
817.19	2803.67
817.36	3014.61
817.53	3074.00
817.71	2754.52
817.88	2975.70
818.05	2834.39
818.22	2856.92
818.40	2990.03
818.57	2863.06
818.74	2979.79
818.91	2881.49
819.09	3026.90
819.26	2957.27
819.43	2826.20
819.60	2871.25
819.78	2992.08
819.95	2940.88
820.12	2760.66
820.29	3221.45
820.47	3102.67
820.64	2826.20
820.81	2781.14
820.98	2799.57
821.15	2787.29
821.33	2975.70
821.50	2664.41
821.67	3074.00
821.84	2752.47
822.02	2918.36
822.19	3055.57
822.36	2842.58
822.53	2783.19
822.70	2719.70
822.88	2922.45
823.05	3237.84
823.22	2871.25
823.39	2912.21
823.56	2904.02
823.74	3282.89
823.91	2762.71
824.08	2721.75
824.25	2813.91
824.42	3278.80
824.60	2736.09
824.77	2932.69
824.94	2920.40
825.11	3074.00
825.28	2713.56
825.45	3080.14
825.63	3135.44
825.80	2852.82
825.97	2918.36
826.14	2846.68
826.31	2703.32
826.48	3094.48
826.66	2801.62
826.83	2717.65
827.00	2914.26
827.17	2807.77
827.34	2850.77
827.51	2799.57
827.69	2926.55
827.86	2713.56
828.03	2877.40
828.20	2865.11
828.37	2908.12
828.54	3024.85
828.71	2793.43
828.89	3004.37
829.06	2996.18
829.23	3284.94
829.40	2809.81
829.57	2830.29
829.74	3100.62
829.91	2858.96
830.09	2738.13
830.26	3006.42
830.43	3299.28
830.60	2877.40
830.77	3012.56
830.94	3006.42
831.11	3094.48
831.28	2838.48
831.46	2891.73
831.63	2858.96
831.80	3110.86
831.97	2895.83
832.14	2830.29
832.31	2885.59
832.48	3059.67
832.65	3155.92
832.82	2955.22
832.99	2959.31
833.17	2783.19
833.34	3297.23
833.51	2885.59
833.68	2623.45
833.85	3231.69
834.02	2813.91
834.19	2818.00
834.36	2813.91
834.53	2959.31
834.70	3112.91
834.87	2844.63
835.04	2580.44
835.22	2879.44
835.39	2889.68
835.56	2641.88
835.73	2736.09
835.90	3082.19
836.07	2748.37
836.24	2875.35
836.41	2705.37
836.58	2793.43
836.75	3229.65
836.92	2723.80
837.09	2637.78
837.26	3096.53
837.43	2910.16
837.60	2719.70
837.77	2738.13
837.94	3080.14
838.12	3180.50
838.29	2652.12
838.46	2635.74
838.63	2799.57
838.80	3211.22
838.97	2809.81
839.14	2697.17
839.31	2992.08
839.48	3033.04
839.65	2688.98
839.82	2861.01
839.99	3039.19
840.16	2965.46
840.33	2731.99
840.50	2797.53
840.67	2856.92
840.84	2639.83
841.01	2650.07
841.18	2711.51
841.35	2906.07
841.52	3100.62
841.69	2998.23
841.86	2811.86
842.03	3018.71
842.20	3002.32
842.37	2740.18
842.54	2805.72
842.71	3020.75
842.88	2731.99
843.05	2746.33
843.22	2703.32
843.39	3094.48
843.56	2930.64
843.73	2729.94
843.90	2746.33
844.07	2940.88
844.24	3119.06
844.41	2840.53
844.58	2748.37
844.75	2906.07
844.92	3053.52
845.09	2746.33
845.26	2713.56
845.43	3022.80
845.60	2949.08
845.77	2904.02
845.94	2731.99
846.10	3166.16
846.27	2684.89
846.44	2643.93
846.61	2625.50
846.78	3059.67
846.95	3055.57
847.12	2711.51
847.29	2795.48
847.46	2940.88
847.63	3141.58
847.80	2695.13
847.97	2662.36
848.14	3366.86
848.31	2904.02
848.48	2535.39
848.65	2762.71
848.82	2830.29
848.98	3432.40
849.15	2840.53
849.32	2832.34
849.49	3094.48
849.66	2944.98
849.83	2711.51
850.00	2676.70
850.17	3172.30
850.34	2834.39
850.51	2645.98
850.68	2729.94
850.85	3377.10
851.01	2953.17
851.18	2686.94
851.35	2713.56
851.52	3020.75
851.69	3182.54
851.86	2621.40
852.03	2721.75
852.20	3149.78
852.37	3016.66
852.53	2611.16
852.70	2666.46
852.87	3008.47
853.04	3096.53
853.21	2734.04
853.38	3020.75
853.55	3241.93
853.72	3198.93
853.89	2688.98
854.05	2772.95
854.22	2981.84
854.39	2930.64
854.56	2709.46
854.73	2873.30
854.90	2797.53
855.07	2951.12
855.23	2678.74
855.40	2744.28
855.57	2836.44
855.74	2686.94
855.91	2934.74
856.08	2611.16
856.25	2748.37
856.41	2877.40
856.58	2742.23
856.75	2783.19
856.92	2775.00
857.09	3151.82
857.26	2658.26
857.42	2760.66
857.59	3020.75
857.76	2936.79
857.93	2738.13
858.10	2775.00
858.27	2785.24
858.43	3002.32
858.60	2770.90
858.77	2537.43
858.94	2824.15
859.11	3172.30
859.27	2834.39
859.44	2725.85
859.61	3323.85
859.78	3055.57
859.95	2766.81
860.12	2723.80
860.28	3340.24
860.45	3205.07
860.62	2711.51
860.79	2830.29
860.95	2944.98
861.12	2775.00
861.29	2635.74
861.46	2713.56
861.63	2975.70
861.79	3008.47
861.96	2625.50
862.13	2756.57
862.30	3186.64
862.47	2848.72
862.63	2670.55
862.80	2770.90
862.97	3088.34
863.14	3004.37
863.30	2801.62
863.47	2717.65
863.64	3196.88
863.81	3008.47
863.97	2643.93
864.14	2768.85
864.31	2932.69
864.48	3030.99
864.65	2756.57
864.81	2836.44
864.98	2963.41
865.15	3100.62
865.32	2830.29
865.48	2901.97
865.65	3321.81
865.82	2918.36
865.98	2838.48
866.15	2815.96
866.32	2953.17
866.49	2885.59
866.65	2908.12
866.82	2721.75
866.99	2994.13
867.16	2883.54
867.32	2777.05
867.49	2660.31
867.66	2940.88
867.83	2871.25
867.99	2580.44
868.16	2828.24
868.33	2746.33
868.49	2975.70
868.66	2723.80
868.83	2801.62
868.99	3016.66
869.16	2992.08
869.33	2895.83
869.50	2815.96
869.66	2967.51
869.83	2865.11
870.00	2693.08
870.16	2861.01
870.33	2899.92
870.50	3151.82
870.66	2756.57
870.83	2799.57
871.00	3022.80
871.17	3088.34
871.33	2797.53
871.50	2672.60
871.67	2934.74
871.83	2830.29
872.00	2795.48
872.17	2768.85
872.33	3282.89
872.50	3147.73
872.67	2797.53
872.83	2734.04
873.00	3016.66
873.17	2979.79
873.33	2848.72
873.50	2803.67
873.67	2822.10
873.83	2889.68
874.00	2793.43
874.16	2932.69
874.33	2940.88
874.50	2766.81
874.66	2779.09
874.83	2832.34
875.00	3053.52
875.16	3153.87
875.33	2762.71
875.50	2568.15
875.66	2918.36
875.83	2998.23
875.99	2873.30
876.16	2746.33
876.33	2840.53
876.49	2836.44
876.66	2707.41
876.83	2766.81
876.99	2713.56
877.16	2922.45
877.32	2746.33
877.49	2785.24
877.66	2938.84
877.82	3243.98
877.99	2793.43
878.15	2953.17
878.32	2996.18
878.49	2926.55
878.65	2856.92
878.82	2979.79
878.98	2897.88
879.15	3168.21
879.32	2815.96
879.48	2955.22
879.65	2951.12
879.81	2955.22
879.98	2729.94
880.15	2811.86
880.31	3151.82
880.48	2787.29
880.64	2904.02
880.81	2959.31
880.97	3188.69
881.14	3188.69
881.31	2719.70
881.47	2934.74
881.64	2869.20
881.80	2729.94
881.97	2885.59
882.13	2729.94
882.30	2863.06
882.47	2877.40
882.63	2775.00
882.80	2654.17
882.96	2922.45
883.13	3186.64
883.29	2768.85
883.46	2662.36
883.62	3338.19
883.79	2990.03
883.95	2844.63
884.12	2723.80
884.29	3125.20
884.45	2942.93
884.62	2820.05
884.78	2760.66
884.95	3237.84
885.11	2789.33
885.28	2734.04
885.44	2822.10
885.61	3063.76
885.77	3217.36
885.94	2895.83
886.10	2867.16
886.27	3020.75
886.43	3274.70
886.60	2985.94
886.76	2787.29
886.93	2750.42
887.09	3010.51
887.26	2641.88
887.42	2770.90
887.59	3176.40
887.75	3393.48
887.92	2947.03
888.08	2877.40
888.25	3293.13
888.41	3184.59
888.58	2805.72
888.74	2703.32
888.91	2848.72
>>>>>End Processed Spectral Data<<<<<
