SpectraSuite Data File
++++++++++++++++++++++++++++++++++++
Date: Thu May 05 21:11:20 CEST 2016
User: root
Dark Spectrum Present: No
Reference Spectrum Present: No
Number of Sampled Component Spectra: 1
Spectrometers: USB4C02835
Integration Time (usec): 100000 (USB4C02835)
Spectra Averaged: 1 (USB4C02835)
Boxcar Smoothing: 0 (USB4C02835)
Correct for Electrical Dark: No (USB4C02835)
Strobe/Lamp Enabled: No (USB4C02835)
Correct for Detector Non-linearity: No (USB4C02835)
Correct for Stray Light: No (USB4C02835)
Number of Pixels in Processed Spectrum: 3648
>>>>>Begin Processed Spectral Data<<<<<
177.47	2144.22
177.69	2144.22
177.91	2144.22
178.13	2121.70
178.36	2084.83
178.58	2791.38
178.80	2985.94
179.02	2811.86
179.24	2822.10
179.46	2625.50
179.68	2725.85
179.90	2877.40
180.13	3041.23
180.35	2533.34
180.57	2613.21
180.79	3143.63
181.01	2920.40
181.23	2709.46
181.45	2846.68
181.67	3162.06
181.90	3063.76
182.12	2758.61
182.34	2504.67
182.56	3076.05
182.78	3117.01
183.00	2686.94
183.22	2750.42
183.44	2725.85
183.66	3540.94
183.89	2822.10
184.11	2705.37
184.33	3149.78
184.55	3262.41
184.77	2693.08
184.99	2674.65
185.21	2932.69
185.43	3330.00
185.65	2637.78
185.87	2648.02
186.10	3370.96
186.32	3471.31
186.54	2797.53
186.76	2772.95
186.98	3157.97
187.20	2928.60
187.42	2723.80
187.64	2709.46
187.86	3110.86
188.08	3141.58
188.30	2584.54
188.52	2721.75
188.75	3233.74
188.97	3196.88
189.19	2676.70
189.41	2586.58
189.63	3125.20
189.85	2904.02
190.07	2576.34
190.29	2523.10
190.51	3043.28
190.73	2770.90
190.95	2830.29
191.17	2691.03
191.39	2744.28
191.61	2957.27
191.84	2686.94
192.06	2717.65
192.28	2736.09
192.50	3528.65
192.72	2766.81
192.94	2756.57
193.16	3229.65
193.38	3088.34
193.60	2553.82
193.82	2826.20
194.04	3119.06
194.26	3033.04
194.48	2715.61
194.70	2658.26
194.92	2877.40
195.14	3174.35
195.36	2650.07
195.58	2695.13
195.80	2922.45
196.02	2830.29
196.24	2670.55
196.46	2760.66
196.69	2787.29
196.91	3346.38
197.13	2740.18
197.35	2818.00
197.57	3272.65
197.79	3037.14
198.01	2750.42
198.23	2693.08
198.45	3037.14
198.67	2783.19
198.89	2471.90
199.11	2801.62
199.33	2861.01
199.55	2631.64
199.77	2652.12
199.99	2789.33
200.21	2901.97
200.43	3096.53
200.65	2572.25
200.87	2537.43
201.09	2895.83
201.31	2947.03
201.53	2752.47
201.75	2779.09
201.97	2975.70
202.19	3053.52
202.41	2664.41
202.63	2865.11
202.85	3106.77
203.07	3084.24
203.29	2684.89
203.51	2637.78
203.73	2850.77
203.95	3434.44
204.17	2682.84
204.39	2789.33
204.61	2963.41
204.83	2844.63
205.05	2830.29
205.27	2748.37
205.49	3395.53
205.71	2879.44
205.93	2619.35
206.15	2574.30
206.37	3030.99
206.59	2957.27
206.81	2619.35
207.03	2594.78
207.25	2834.39
207.47	3098.58
207.69	2731.99
207.91	2914.26
208.13	3286.99
208.34	2842.58
208.56	2582.49
208.78	2760.66
209.00	2877.40
209.22	2926.55
209.44	2736.09
209.66	2652.12
209.88	3059.67
210.10	2893.78
210.32	2596.82
210.54	2785.24
210.76	2930.64
210.98	3137.49
211.20	2547.67
211.42	2684.89
211.64	3121.10
211.86	3065.81
212.08	2854.87
212.30	2652.12
212.52	2887.64
212.74	3065.81
212.96	2711.51
213.17	2736.09
213.39	3135.44
213.61	3231.69
213.83	2676.70
214.05	2545.63
214.27	3188.69
214.49	2799.57
214.71	2672.60
214.93	2791.38
215.15	2924.50
215.37	3168.21
215.59	2533.34
215.81	2789.33
216.03	3260.37
216.24	2944.98
216.46	2617.30
216.68	2731.99
216.90	3188.69
217.12	3131.34
217.34	2605.02
217.56	2840.53
217.78	3299.28
218.00	3051.47
218.22	2801.62
218.44	2775.00
218.66	3026.90
218.87	3313.61
219.09	2727.89
219.31	2688.98
219.53	3049.43
219.75	2975.70
219.97	2656.22
220.19	2715.61
220.41	2957.27
220.63	3381.20
220.85	2713.56
221.06	2648.02
221.28	3319.76
221.50	3041.23
221.72	2621.40
221.94	2627.54
222.16	2981.84
222.38	3100.62
222.60	2637.78
222.82	2727.89
223.03	3133.39
223.25	2828.24
223.47	2713.56
223.69	2942.93
223.91	3127.25
224.13	3057.62
224.35	2627.54
224.57	2887.64
224.78	3149.78
225.00	2904.02
225.22	2734.04
225.44	2592.73
225.66	3080.14
225.88	2889.68
226.10	2797.53
226.32	2682.84
226.53	3196.88
226.75	2942.93
226.97	2787.29
227.19	2770.90
227.41	2867.16
227.63	2963.41
227.85	2441.18
228.06	2727.89
228.28	3028.95
228.50	3117.01
228.72	2582.49
228.94	2584.54
229.16	2705.37
229.37	2848.72
229.59	2625.50
229.81	2844.63
230.03	2938.84
230.25	2791.38
230.47	2562.01
230.69	2654.17
230.90	3157.97
231.12	2879.44
231.34	2756.57
231.56	2813.91
231.78	2770.90
232.00	2992.08
232.21	2727.89
232.43	2723.80
232.65	2711.51
232.87	3041.23
233.09	2545.63
233.30	2654.17
233.52	3209.17
233.74	2932.69
233.96	2643.93
234.18	2848.72
234.40	2965.46
234.61	3405.77
234.83	2535.39
235.05	2617.30
235.27	3362.76
235.49	3149.78
235.70	2584.54
235.92	2768.85
236.14	3125.20
236.36	3403.72
236.58	2500.57
236.79	2754.52
237.01	2926.55
237.23	2949.08
237.45	2942.93
237.67	2707.41
237.88	3020.75
238.10	3291.09
238.32	2590.68
238.54	2684.89
238.76	2951.12
238.97	2807.77
239.19	2586.58
239.41	2762.71
239.63	3217.36
239.85	2906.07
240.06	2658.26
240.28	2596.82
240.50	3233.74
240.72	3012.56
240.93	2535.39
241.15	2838.48
241.37	2963.41
241.59	3278.80
241.81	2703.32
242.02	2754.52
242.24	3098.58
242.46	3114.96
242.68	2471.90
242.89	2703.32
243.11	3047.38
243.33	2910.16
243.55	2748.37
243.76	2697.17
243.98	2850.77
244.20	2914.26
244.42	2715.61
244.64	2691.03
244.85	2828.24
245.07	2844.63
245.29	2676.70
245.51	2707.41
245.72	3049.43
245.94	3098.58
246.16	2664.41
246.38	2727.89
246.59	2856.92
246.81	2842.58
247.03	2580.44
247.24	2471.90
247.46	2889.68
247.68	3002.32
247.90	2557.91
248.11	2729.94
248.33	3006.42
248.55	2969.55
248.77	2766.81
248.98	2820.05
249.20	3299.28
249.42	3053.52
249.64	2727.89
249.85	2709.46
250.07	2924.50
250.29	3092.43
250.50	2697.17
250.72	2570.20
250.94	2990.03
251.16	3450.83
251.37	2711.51
251.59	2729.94
251.81	3045.33
252.02	3313.61
252.24	2596.82
252.46	2838.48
252.68	2891.73
252.89	2883.54
253.11	2572.25
253.33	2824.15
253.54	3309.52
253.76	2775.00
253.98	2721.75
254.20	2703.32
254.41	2762.71
254.63	3016.66
254.85	2557.91
255.06	2772.95
255.28	3039.19
255.50	2953.17
255.71	2648.02
255.93	2549.72
256.15	2865.11
256.36	3137.49
256.58	2662.36
256.80	2605.02
257.02	2985.94
257.23	2844.63
257.45	2750.42
257.67	2805.72
257.88	2895.83
258.10	3039.19
258.32	2682.84
258.53	2799.57
258.75	3225.55
258.97	2795.48
259.18	2621.40
259.40	2662.36
259.62	3311.57
259.83	3153.87
260.05	2625.50
260.27	3540.94
260.48	3039.19
260.70	2758.61
260.92	2623.45
261.13	2686.94
261.35	3049.43
261.57	3053.52
261.78	2639.83
262.00	2566.10
262.22	3043.28
262.43	2863.06
262.65	2719.70
262.86	2641.88
263.08	3368.91
263.30	3043.28
263.51	2617.30
263.73	2639.83
263.95	3217.36
264.16	2858.96
264.38	2607.06
264.60	2615.26
264.81	2979.79
265.03	3190.74
265.25	3022.80
265.46	2666.46
265.68	3241.93
265.89	3022.80
266.11	2512.86
266.33	2746.33
266.54	3192.78
266.76	2977.75
266.98	2781.14
267.19	2854.87
267.41	3162.06
267.62	2949.08
267.84	2531.29
268.06	2719.70
268.27	3049.43
268.49	3186.64
268.70	2660.31
268.92	2629.59
269.14	2838.48
269.35	2721.75
269.57	2727.89
269.79	2707.41
270.00	2834.39
270.22	3342.28
270.43	2625.50
270.65	2467.80
270.87	3000.27
271.08	3121.10
271.30	2760.66
271.51	2707.41
271.73	3071.95
271.95	3246.03
272.16	2619.35
272.38	2818.00
272.59	2961.36
272.81	3049.43
273.02	2635.74
273.24	2682.84
273.46	3114.96
273.67	2719.70
273.89	2562.01
274.10	2639.83
274.32	3180.50
274.54	3018.71
274.75	2766.81
274.97	2731.99
275.18	3108.82
275.40	3057.62
275.61	2762.71
275.83	2779.09
276.05	2775.00
276.26	2951.12
276.48	2801.62
276.69	2854.87
276.91	2826.20
277.12	3231.69
277.34	2883.54
277.55	2906.07
277.77	3096.53
277.99	3000.27
278.20	2738.13
278.42	2734.04
278.63	2867.16
278.85	2805.72
279.06	2715.61
279.28	2912.21
279.49	3229.65
279.71	3082.19
279.93	2854.87
280.14	2822.10
280.36	2848.72
280.57	3102.67
280.79	2889.68
281.00	2734.04
281.22	2783.19
281.43	3192.78
281.65	2625.50
281.86	2697.17
282.08	3063.76
282.29	3344.33
282.51	2725.85
282.73	2697.17
282.94	2711.51
283.16	3088.34
283.37	2930.64
283.59	2836.44
283.80	3016.66
284.02	3076.05
284.23	2875.35
284.45	2764.76
284.66	2836.44
284.88	2850.77
285.09	2723.80
285.31	2895.83
285.52	3127.25
285.74	2746.33
285.95	2930.64
286.17	2813.91
286.38	3180.50
286.60	2895.83
286.81	2762.71
287.03	2856.92
287.24	2996.18
287.46	3014.61
287.67	2895.83
287.89	3041.23
288.10	2977.75
288.32	3010.51
288.53	3002.32
288.75	2838.48
288.96	3102.67
289.18	2883.54
289.39	2762.71
289.61	2922.45
289.82	3428.30
290.04	3270.61
290.25	2705.37
290.47	2861.01
290.68	2977.75
290.90	3102.67
291.11	2703.32
291.33	2963.41
291.54	2918.36
291.76	2844.63
291.97	2936.79
292.18	2828.24
292.40	2918.36
292.61	2965.46
292.83	3033.04
293.04	2838.48
293.26	3096.53
293.47	3043.28
293.69	2695.13
293.90	2680.79
294.12	3303.37
294.33	2992.08
294.55	2887.64
294.76	2938.84
294.97	3219.41
295.19	3366.86
295.40	2842.58
295.62	2832.34
295.83	3063.76
296.05	2844.63
296.26	3006.42
296.48	2779.09
296.69	2975.70
296.90	2998.23
297.12	2920.40
297.33	2940.88
297.55	3059.67
297.76	3063.76
297.98	2904.02
298.19	2906.07
298.41	3024.85
298.62	2836.44
298.83	2992.08
299.05	2899.92
299.26	2867.16
299.48	2781.14
299.69	2904.02
299.90	2820.05
300.12	2742.23
300.33	3082.19
300.55	2815.96
300.76	2850.77
300.98	2822.10
301.19	3153.87
301.40	2861.01
301.62	2766.81
301.83	3057.62
302.05	2987.99
302.26	2717.65
302.47	2883.54
302.69	2822.10
302.90	3094.48
303.12	2547.67
303.33	2914.26
303.54	3250.13
303.76	2967.51
303.97	2705.37
304.19	3008.47
304.40	2869.20
304.61	2975.70
304.83	2887.64
305.04	2922.45
305.26	3071.95
305.47	2887.64
305.68	2783.19
305.90	2748.37
306.11	3102.67
306.33	2908.12
306.54	2688.98
306.75	2795.48
306.97	2762.71
307.18	2904.02
307.39	2744.28
307.61	2918.36
307.82	2897.88
308.04	2975.70
308.25	2674.65
308.46	2895.83
308.68	3022.80
308.89	2987.99
309.10	2973.65
309.32	2901.97
309.53	2932.69
309.74	3076.05
309.96	2744.28
310.17	2944.98
310.39	2895.83
310.60	3084.24
310.81	2832.34
311.03	2736.09
311.24	3080.14
311.45	3018.71
311.67	3041.23
311.88	2885.59
312.09	2920.40
312.31	2875.35
312.52	2729.94
312.73	2789.33
312.95	2820.05
313.16	2721.75
313.37	3022.80
313.59	2998.23
313.80	3059.67
314.01	3254.22
314.23	2740.18
314.44	2705.37
314.65	2803.67
314.87	2832.34
315.08	2834.39
315.29	2803.67
315.51	2850.77
315.72	2803.67
315.93	2914.26
316.15	2815.96
316.36	2906.07
316.57	2957.27
316.79	2889.68
317.00	2772.95
317.21	3119.06
317.43	2854.87
317.64	2852.82
317.85	2703.32
318.07	2861.01
318.28	2904.02
318.49	2926.55
318.70	3010.51
318.92	3045.33
319.13	3043.28
319.34	3006.42
319.56	2791.38
319.77	3080.14
319.98	3125.20
320.20	3047.38
320.41	2938.84
320.62	2979.79
320.83	2834.39
321.05	3035.09
321.26	2754.52
321.47	3061.71
321.69	3157.97
321.90	2725.85
322.11	2740.18
322.32	2985.94
322.54	3164.11
322.75	2787.29
322.96	3524.55
323.18	2680.79
323.39	2742.23
323.60	2660.31
323.81	2938.84
324.03	2936.79
324.24	2992.08
324.45	2906.07
324.66	2807.77
324.88	3317.71
325.09	3174.35
325.30	2777.05
325.52	2793.43
325.73	3157.97
325.94	2789.33
326.15	2750.42
326.37	2654.17
326.58	3117.01
326.79	3223.50
327.00	2709.46
327.22	2754.52
327.43	2940.88
327.64	2772.95
327.85	2983.89
328.07	2854.87
328.28	3297.23
328.49	2867.16
328.70	2797.53
328.92	2846.68
329.13	2861.01
329.34	3051.47
329.55	2928.60
329.76	2955.22
329.98	2908.12
330.19	3211.22
330.40	2883.54
330.61	2928.60
330.83	3069.91
331.04	2865.11
331.25	2887.64
331.46	2852.82
331.68	2799.57
331.89	3198.93
332.10	2885.59
332.31	2713.56
332.52	2893.78
332.74	3254.22
332.95	2611.16
333.16	2775.00
333.37	3176.40
333.58	2967.51
333.80	2832.34
334.01	2658.26
334.22	2922.45
334.43	2826.20
334.64	2748.37
334.86	2713.56
335.07	2856.92
335.28	3215.31
335.49	2682.84
335.70	2840.53
335.92	3166.16
336.13	3387.34
336.34	2904.02
336.55	2854.87
336.76	3098.58
336.98	2693.08
337.19	2875.35
337.40	2875.35
337.61	3456.97
337.82	2963.41
338.04	2910.16
338.25	2664.41
338.46	3022.80
338.67	2930.64
338.88	2709.46
339.09	2754.52
339.31	2959.31
339.52	2758.61
339.73	2703.32
339.94	2822.10
340.15	3059.67
340.36	2942.93
340.58	2865.11
340.79	2789.33
341.00	3106.77
341.21	2727.89
341.42	3078.10
341.63	2869.20
341.85	3094.48
342.06	2998.23
342.27	2797.53
342.48	2981.84
342.69	2721.75
342.90	3030.99
343.12	3088.34
343.33	2721.75
343.54	3125.20
343.75	3268.56
343.96	2807.77
344.17	2701.27
344.38	3004.37
344.60	2842.58
344.81	2768.85
345.02	2731.99
345.23	3196.88
345.44	3405.77
345.65	2889.68
345.86	2893.78
346.07	2975.70
346.29	2910.16
346.50	2949.08
346.71	2873.30
346.92	3248.08
347.13	3319.76
347.34	2838.48
347.55	2602.97
347.76	2957.27
347.98	2674.65
348.19	2861.01
348.40	2930.64
348.61	2899.92
348.82	3225.55
349.03	2871.25
349.24	2731.99
349.45	3264.46
349.66	2717.65
349.88	2797.53
350.09	2772.95
350.30	3176.40
350.51	3186.64
350.72	2951.12
350.93	2772.95
351.14	2942.93
351.35	3061.71
351.56	2818.00
351.77	2813.91
351.99	3106.77
352.20	3250.13
352.41	2955.22
352.62	2615.26
352.83	2961.36
353.04	2936.79
353.25	2820.05
353.46	2781.14
353.67	3219.41
353.88	2750.42
354.09	2676.70
354.30	2840.53
354.52	3047.38
354.73	2975.70
354.94	2754.52
355.15	2887.64
355.36	3229.65
355.57	2891.73
355.78	2744.28
355.99	2748.37
356.20	2889.68
356.41	3184.59
356.62	2854.87
356.83	2889.68
357.04	3143.63
357.25	2676.70
357.46	2770.90
357.68	2668.50
357.89	2787.29
358.10	2947.03
358.31	2750.42
358.52	2678.74
358.73	2736.09
358.94	2807.77
359.15	2723.80
359.36	2867.16
359.57	2906.07
359.78	2926.55
359.99	2983.89
360.20	2715.61
360.41	2987.99
360.62	3055.57
360.83	2850.77
361.04	2871.25
361.25	3030.99
361.46	3239.89
361.67	2926.55
361.88	2754.52
362.09	3102.67
362.30	3041.23
362.51	2744.28
362.72	2871.25
362.93	3086.29
363.14	3098.58
363.35	2834.39
363.56	2691.03
363.78	3149.78
363.99	3117.01
364.20	2686.94
364.41	2901.97
364.62	3262.41
364.83	3061.71
365.04	2826.20
365.25	2775.00
365.46	3356.62
365.67	2856.92
365.88	2922.45
366.09	2748.37
366.30	2922.45
366.51	2951.12
366.72	2715.61
366.93	2895.83
367.14	3086.29
367.35	3280.85
367.56	2742.23
367.77	2899.92
367.98	2981.84
368.18	3088.34
368.39	2959.31
368.60	2719.70
368.81	3080.14
369.02	3008.47
369.23	2815.96
369.44	2662.36
369.65	2912.21
369.86	3102.67
370.07	2940.88
370.28	2705.37
370.49	3043.28
370.70	3074.00
370.91	2684.89
371.12	2684.89
371.33	3221.45
371.54	2879.44
371.75	2912.21
371.96	2592.73
372.17	2940.88
372.38	2875.35
372.59	2830.29
372.80	2727.89
373.01	2920.40
373.22	3035.09
373.43	2813.91
373.64	2676.70
373.85	3280.85
374.06	3176.40
374.26	2977.75
374.47	2920.40
374.68	3186.64
374.89	3033.04
375.10	2770.90
375.31	2934.74
375.52	3022.80
375.73	3067.86
375.94	2643.93
376.15	2987.99
376.36	2879.44
376.57	2863.06
376.78	2848.72
376.99	2818.00
377.20	3205.07
377.40	2916.31
377.61	3055.57
377.82	2791.38
378.03	3233.74
378.24	3196.88
378.45	2910.16
378.66	2904.02
378.87	2742.23
379.08	2688.98
379.29	2758.61
379.50	2940.88
379.71	2940.88
379.91	3080.14
380.12	2871.25
380.33	2871.25
380.54	3012.56
380.75	2936.79
380.96	2752.47
381.17	2826.20
381.38	3010.51
381.59	2985.94
381.80	2879.44
382.00	3000.27
382.21	3041.23
382.42	3268.56
382.63	3114.96
382.84	2885.59
383.05	3041.23
383.26	3274.70
383.47	2971.60
383.68	2783.19
383.88	3092.43
384.09	3035.09
384.30	3074.00
384.51	2883.54
384.72	2867.16
384.93	2738.13
385.14	2891.73
385.35	3067.86
385.55	2752.47
385.76	3157.97
385.97	2824.15
386.18	2662.36
386.39	2887.64
386.60	2920.40
386.81	2760.66
387.02	2762.71
387.22	2744.28
387.43	3041.23
387.64	2926.55
387.85	3045.33
388.06	3067.86
388.27	4061.12
388.48	7272.34
388.68	10800.99
388.89	13125.43
389.10	14495.52
389.31	13815.60
389.52	11050.84
389.73	9645.93
389.93	8898.42
390.14	8028.04
390.35	7399.31
390.56	6791.06
390.77	5609.39
390.98	4364.22
391.18	3633.10
391.39	3479.50
391.60	2963.41
391.81	3035.09
392.02	2861.01
392.23	3405.77
392.43	3063.76
392.64	2940.88
392.85	2863.06
393.06	3258.32
393.27	3020.75
393.47	2777.05
393.68	2936.79
393.89	2914.26
394.10	3147.73
394.31	2822.10
394.52	2822.10
394.72	2920.40
394.93	3260.37
395.14	2717.65
395.35	2951.12
395.56	2826.20
395.76	2895.83
395.97	2793.43
396.18	2914.26
396.39	3014.61
396.60	3551.18
396.80	3143.63
397.01	3033.04
397.22	3104.72
397.43	3221.45
397.64	2830.29
397.84	2897.88
398.05	3334.09
398.26	2992.08
398.47	2936.79
398.67	2977.75
398.88	2973.65
399.09	3129.30
399.30	2885.59
399.51	2924.50
399.71	2856.92
399.92	3008.47
400.13	2922.45
400.34	2848.72
400.54	3016.66
400.75	3387.34
400.96	2940.88
401.17	3102.67
401.37	3127.25
401.58	3028.95
401.79	2863.06
402.00	2912.21
402.21	3307.47
402.41	3090.38
402.62	3080.14
402.83	3215.31
403.04	3407.82
403.24	3678.15
403.45	2885.59
403.66	3160.02
403.87	3178.45
404.07	3327.95
404.28	3037.14
404.49	3096.53
404.70	3002.32
404.90	3028.95
405.11	2840.53
405.32	2881.49
405.52	2897.88
405.73	2879.44
405.94	2797.53
406.15	2858.96
406.35	3143.63
406.56	3110.86
406.77	2871.25
406.98	2881.49
407.18	2881.49
407.39	3297.23
407.60	2885.59
407.80	2869.20
408.01	2916.31
408.22	2971.60
408.43	2772.95
408.63	2957.27
408.84	3112.91
409.05	3123.15
409.25	2781.14
409.46	2854.87
409.67	2934.74
409.88	2901.97
410.08	2922.45
410.29	2861.01
410.50	3149.78
410.70	3049.43
410.91	2754.52
411.12	2869.20
411.32	3033.04
411.53	2764.76
411.74	2889.68
411.95	2885.59
412.15	3012.56
412.36	3102.67
412.57	3004.37
412.77	2955.22
412.98	2938.84
413.19	2922.45
413.39	2932.69
413.60	2850.77
413.81	3129.30
414.01	2815.96
414.22	2822.10
414.43	2983.89
414.63	2938.84
414.84	3125.20
415.05	2844.63
415.25	2656.22
415.46	3194.83
415.67	2858.96
415.87	2858.96
416.08	2815.96
416.29	2897.88
416.49	3137.49
416.70	2871.25
416.91	2856.92
417.11	2895.83
417.32	3194.83
417.53	2951.12
417.73	3026.90
417.94	2904.02
418.15	2994.13
418.35	2899.92
418.56	2858.96
418.77	3401.68
418.97	3110.86
419.18	2893.78
419.38	2496.47
419.59	2985.94
419.80	3203.02
420.00	2838.48
420.21	2865.11
420.42	3229.65
420.62	3016.66
420.83	2813.91
421.04	2865.11
421.24	2873.30
421.45	3147.73
421.65	2942.93
421.86	2850.77
422.07	3110.86
422.27	3076.05
422.48	2758.61
422.69	2678.74
422.89	2959.31
423.10	2985.94
423.30	2760.66
423.51	2852.82
423.72	3049.43
423.92	3117.01
424.13	2746.33
424.33	2887.64
424.54	3028.95
424.75	3012.56
424.95	3067.86
425.16	2777.05
425.36	2938.84
425.57	3123.15
425.78	2934.74
425.98	2885.59
426.19	2940.88
426.39	2750.42
426.60	2869.20
426.81	3045.33
427.01	3049.43
427.22	2822.10
427.42	2713.56
427.63	2760.66
427.83	3243.98
428.04	3176.40
428.25	2848.72
428.45	2965.46
428.66	3194.83
428.86	2969.55
429.07	2858.96
429.28	2875.35
429.48	3049.43
429.69	2811.86
429.89	2883.54
430.10	2674.65
430.30	3180.50
430.51	3135.44
430.71	2762.71
430.92	2928.60
431.13	2881.49
431.33	3088.34
431.54	2908.12
431.74	3086.29
431.95	3413.96
432.15	2914.26
432.36	2942.93
432.56	2951.12
432.77	3397.58
432.98	3280.85
433.18	2914.26
433.39	2748.37
433.59	2936.79
433.80	3401.68
434.00	3039.19
434.21	2867.16
434.41	2793.43
434.62	3391.44
434.82	2691.03
435.03	2746.33
435.23	3067.86
435.44	2760.66
435.64	2768.85
435.85	2856.92
436.06	3176.40
436.26	3203.02
436.47	2947.03
436.67	2850.77
436.88	2934.74
437.08	3229.65
437.29	2959.31
437.49	2836.44
437.70	3180.50
437.90	2951.12
438.11	3069.91
438.31	2930.64
438.52	3194.83
438.72	3196.88
438.93	3170.26
439.13	2899.92
439.34	3139.54
439.54	2877.40
439.75	2975.70
439.95	2899.92
440.16	2824.15
440.36	2971.60
440.57	2793.43
440.77	2852.82
440.98	2979.79
441.18	3004.37
441.39	2801.62
441.59	2731.99
441.80	3364.81
442.00	2955.22
442.21	2904.02
442.41	2742.23
442.62	3207.12
442.82	2838.48
443.02	2752.47
443.23	2805.72
443.43	2908.12
443.64	3176.40
443.84	2725.85
444.05	2934.74
444.25	2961.36
444.46	2996.18
444.66	2912.21
444.87	3090.38
445.07	2758.61
445.28	2912.21
445.48	2979.79
445.69	2920.40
445.89	3342.28
446.09	2951.12
446.30	3131.34
446.50	3211.22
446.71	4739.00
446.91	5656.49
447.12	6457.25
447.32	6891.41
447.53	6825.88
447.73	5636.01
447.93	4945.84
448.14	4704.18
448.34	4784.06
448.55	3999.68
448.75	3950.53
448.96	3796.93
449.16	3635.14
449.36	3506.12
449.57	3086.29
449.77	2979.79
449.98	2957.27
450.18	3117.01
450.39	2836.44
450.59	2963.41
450.79	3090.38
451.00	2865.11
451.20	2969.55
451.41	2791.38
451.61	3096.53
451.81	3028.95
452.02	2836.44
452.22	2885.59
452.43	2938.84
452.63	2891.73
452.84	2891.73
453.04	2805.72
453.24	3014.61
453.45	2861.01
453.65	2844.63
453.86	2955.22
454.06	3047.38
454.26	2983.89
454.47	2785.24
454.67	3016.66
454.87	3104.72
455.08	2977.75
455.28	2932.69
455.49	2955.22
455.69	2822.10
455.89	3348.43
456.10	2957.27
456.30	2811.86
456.51	3164.11
456.71	3074.00
456.91	3006.42
457.12	2828.24
457.32	3125.20
457.52	2770.90
457.73	2985.94
457.93	2967.51
458.14	2916.31
458.34	2650.07
458.54	2848.72
458.75	2727.89
458.95	3030.99
459.15	3035.09
459.36	2916.31
459.56	2949.08
459.76	3383.24
459.97	3002.32
460.17	2848.72
460.37	2971.60
460.58	3028.95
460.78	3000.27
460.99	2856.92
461.19	2822.10
461.39	2926.55
461.60	2908.12
461.80	2924.50
462.00	2762.71
462.21	2973.65
462.41	2805.72
462.61	2768.85
462.82	2645.98
463.02	3137.49
463.22	3063.76
463.43	2928.60
463.63	2844.63
463.83	3155.92
464.04	3008.47
464.24	2852.82
464.44	2781.14
464.64	2985.94
464.85	3090.38
465.05	2815.96
465.25	2889.68
465.46	2830.29
465.66	3039.19
465.86	2914.26
466.07	2869.20
466.27	2977.75
466.47	2770.90
466.68	2674.65
466.88	2981.84
467.08	3098.58
467.29	3131.34
467.49	2863.06
467.69	2965.46
467.89	3092.43
468.10	2942.93
468.30	2904.02
468.50	2994.13
468.71	3051.47
468.91	2828.24
469.11	3088.34
469.31	2973.65
469.52	2871.25
469.72	3174.35
469.92	3108.82
470.13	2809.81
470.33	2965.46
470.53	3061.71
470.73	3219.41
470.94	3497.93
471.14	3590.09
471.34	4159.42
471.54	3735.50
471.75	3545.03
471.95	3432.40
472.15	3381.20
472.36	3286.99
472.56	3178.45
472.76	3442.64
472.96	3387.34
473.17	3108.82
473.37	3012.56
473.57	2963.41
473.77	3104.72
473.98	2967.51
474.18	2760.66
474.38	3473.36
474.58	2973.65
474.79	2748.37
474.99	3006.42
475.19	3188.69
475.39	2832.34
475.60	2887.64
475.80	2858.96
476.00	3008.47
476.20	2957.27
476.41	2910.16
476.61	3006.42
476.81	3258.32
477.01	2813.91
477.21	3043.28
477.42	2994.13
477.62	2822.10
477.82	3098.58
478.02	2777.05
478.23	2928.60
478.43	2846.68
478.63	2879.44
478.83	2914.26
479.03	2904.02
479.24	3297.23
479.44	3375.05
479.64	2772.95
479.84	2709.46
480.04	2936.79
480.25	3237.84
480.45	2801.62
480.65	2875.35
480.85	3223.50
481.06	2899.92
481.26	2885.59
481.46	2865.11
481.66	3137.49
481.86	2770.90
482.06	3086.29
482.27	2940.88
482.47	2904.02
482.67	3141.58
482.87	2840.53
483.07	2963.41
483.28	2926.55
483.48	2920.40
483.68	2883.54
483.88	2680.79
484.08	2660.31
484.29	2758.61
484.49	2938.84
484.69	2701.27
484.89	3168.21
485.09	3104.72
485.29	2850.77
485.50	2953.17
485.70	2910.16
485.90	3135.44
486.10	2930.64
486.30	2820.05
486.50	3203.02
486.71	2977.75
486.91	2961.36
487.11	3035.09
487.31	2752.47
487.51	3139.54
487.71	2787.29
487.91	2815.96
488.12	2813.91
488.32	2521.05
488.52	2840.53
488.72	2664.41
488.92	3014.61
489.12	3221.45
489.32	2922.45
489.53	2832.34
489.73	2723.80
489.93	3293.13
490.13	2805.72
490.33	2727.89
490.53	3061.71
490.73	3129.30
490.94	2635.74
491.14	2881.49
491.34	3104.72
491.54	3096.53
491.74	3680.20
491.94	4261.82
492.14	4652.98
492.34	4636.60
492.54	4351.93
492.75	3786.69
492.95	3903.43
493.15	3639.24
493.35	3520.46
493.55	3416.01
493.75	3389.39
493.95	3471.31
494.15	3168.21
494.35	2963.41
494.56	3039.19
494.76	2904.02
494.96	2951.12
495.16	2721.75
495.36	2944.98
495.56	2983.89
495.76	2936.79
495.96	2875.35
496.16	2891.73
496.36	3352.52
496.56	2793.43
496.77	2912.21
496.97	2975.70
497.17	3268.56
497.37	2670.55
497.57	3067.86
497.77	2975.70
497.97	2844.63
498.17	2889.68
498.37	2793.43
498.57	3071.95
498.77	2842.58
498.97	2998.23
499.17	3157.97
499.38	2928.60
499.58	3127.25
499.78	3002.32
499.98	3022.80
500.18	2940.88
500.38	2783.19
500.58	3016.66
500.78	3407.82
500.98	5488.56
501.18	7311.25
501.38	8763.26
501.58	9539.44
501.78	9645.93
501.98	8013.70
502.18	6649.75
502.38	5781.42
502.58	5789.61
502.78	5029.81
502.98	4847.54
503.18	4720.57
503.38	4376.51
503.59	3778.50
503.79	3592.14
503.99	3377.10
504.19	3465.16
504.39	3379.15
504.59	3301.33
504.79	3229.65
504.99	3473.36
505.19	3125.20
505.39	3043.28
505.59	3168.21
505.79	3379.15
505.99	3106.77
506.19	2947.03
506.39	3100.62
506.59	2926.55
506.79	2926.55
506.99	3078.10
507.19	2842.58
507.39	3006.42
507.59	2762.71
507.79	2795.48
507.99	2807.77
508.19	3043.28
508.39	2934.74
508.59	2867.16
508.79	2924.50
508.99	3350.48
509.19	2949.08
509.39	2930.64
509.59	2791.38
509.79	2897.88
509.99	3018.71
510.19	3012.56
510.39	2979.79
510.59	3028.95
510.79	2893.78
510.99	2715.61
511.19	2834.39
511.39	3260.37
511.59	3139.54
511.79	2951.12
511.99	2920.40
512.19	3338.19
512.38	2969.55
512.58	2854.87
512.78	2734.04
512.98	3252.17
513.18	3289.04
513.38	2744.28
513.58	2957.27
513.78	3055.57
513.98	2914.26
514.18	2936.79
514.38	2877.40
514.58	3037.14
514.78	2938.84
514.98	2762.71
515.18	2770.90
515.38	2842.58
515.58	3321.81
515.78	2852.82
515.98	2861.01
516.18	3178.45
516.38	3016.66
516.57	2815.96
516.77	2756.57
516.97	3098.58
517.17	2869.20
517.37	2586.58
517.57	2910.16
517.77	2985.94
517.97	2904.02
518.17	2926.55
518.37	2754.52
518.57	2850.77
518.77	2971.60
518.97	2926.55
519.16	2949.08
519.36	3157.97
519.56	2934.74
519.76	2805.72
519.96	2826.20
520.16	3274.70
520.36	2813.91
520.56	3012.56
520.76	2791.38
520.96	2961.36
521.16	3155.92
521.35	3063.76
521.55	2928.60
521.75	2975.70
521.95	2863.06
522.15	2840.53
522.35	2641.88
522.55	2904.02
522.75	3100.62
522.95	2766.81
523.14	2615.26
523.34	3037.14
523.54	2877.40
523.74	2961.36
523.94	2881.49
524.14	2803.67
524.34	3002.32
524.54	3133.39
524.73	2787.29
524.93	3117.01
525.13	3010.51
525.33	2781.14
525.53	3155.92
525.73	3112.91
525.93	3026.90
526.13	2914.26
526.32	2756.57
526.52	3178.45
526.72	3139.54
526.92	2910.16
527.12	2789.33
527.32	2740.18
527.52	3030.99
527.71	2871.25
527.91	2852.82
528.11	2885.59
528.31	2889.68
528.51	2818.00
528.71	2895.83
528.90	2985.94
529.10	3192.78
529.30	2887.64
529.50	2543.58
529.70	2967.51
529.90	2904.02
530.09	2820.05
530.29	2709.46
530.49	2893.78
530.69	3528.65
530.89	2922.45
531.09	2965.46
531.28	2869.20
531.48	3170.26
531.68	2936.79
531.88	2805.72
532.08	3227.60
532.28	2955.22
532.47	2889.68
532.67	3041.23
532.87	3020.75
533.07	2854.87
533.27	2928.60
533.46	2951.12
533.66	3039.19
533.86	2973.65
534.06	2908.12
534.26	2924.50
534.45	3014.61
534.65	3119.06
534.85	2979.79
535.05	2756.57
535.25	3143.63
535.44	2652.12
535.64	2959.31
535.84	2791.38
536.04	2887.64
536.24	2965.46
536.43	2779.09
536.63	2889.68
536.83	2992.08
537.03	2916.31
537.22	2656.22
537.42	2713.56
537.62	3000.27
537.82	2842.58
538.02	2985.94
538.21	2949.08
538.41	3493.83
538.61	2981.84
538.81	2846.68
539.00	2981.84
539.20	2686.94
539.40	2920.40
539.60	2916.31
539.79	3035.09
539.99	3035.09
540.19	2795.48
540.39	2889.68
540.58	2930.64
540.78	3180.50
540.98	2990.03
541.18	2992.08
541.37	2879.44
541.57	3041.23
541.77	3039.19
541.97	2764.76
542.16	2682.84
542.36	2924.50
542.56	2858.96
542.76	3102.67
542.95	2949.08
543.15	3078.10
543.35	3106.77
543.54	2793.43
543.74	2783.19
543.94	3299.28
544.14	2897.88
544.33	2924.50
544.53	2891.73
544.73	2951.12
544.93	2906.07
545.12	2885.59
545.32	2893.78
545.52	2881.49
545.71	2725.85
545.91	2865.11
546.11	2775.00
546.30	2822.10
546.50	2951.12
546.70	2949.08
546.90	2830.29
547.09	2729.94
547.29	2910.16
547.49	3049.43
547.68	2848.72
547.88	2805.72
548.08	3166.16
548.27	3211.22
548.47	2797.53
548.67	2940.88
548.87	3102.67
549.06	2813.91
549.26	2768.85
549.46	3076.05
549.65	2885.59
549.85	2848.72
550.05	2891.73
550.24	2801.62
550.44	2992.08
550.64	2838.48
550.83	2938.84
551.03	3200.98
551.23	3074.00
551.42	2951.12
551.62	2846.68
551.82	3018.71
552.01	2996.18
552.21	3182.54
552.41	2805.72
552.60	3233.74
552.80	3067.86
553.00	2838.48
553.19	2895.83
553.39	3262.41
553.59	2815.96
553.78	2969.55
553.98	2809.81
554.17	2789.33
554.37	3041.23
554.57	2979.79
554.76	2738.13
554.96	2895.83
555.16	2983.89
555.35	2944.98
555.55	2975.70
555.75	3026.90
555.94	3166.16
556.14	2633.69
556.33	2936.79
556.53	3037.14
556.73	2924.50
556.92	2932.69
557.12	2856.92
557.32	3364.81
557.51	3229.65
557.71	2875.35
557.90	3045.33
558.10	3278.80
558.30	2926.55
558.49	2844.63
558.69	2846.68
558.88	3016.66
559.08	3004.37
559.28	2924.50
559.47	2977.75
559.67	3082.19
559.86	3364.81
560.06	2895.83
560.26	2918.36
560.45	2987.99
560.65	2918.36
560.84	3131.34
561.04	2734.04
561.24	3098.58
561.43	2793.43
561.63	3065.81
561.82	2885.59
562.02	3094.48
562.22	2820.05
562.41	2705.37
562.61	2729.94
562.80	2807.77
563.00	3409.87
563.19	2893.78
563.39	2897.88
563.59	3084.24
563.78	2813.91
563.98	2674.65
564.17	2805.72
564.37	2818.00
564.56	3039.19
564.76	2783.19
564.96	2967.51
565.15	3014.61
565.35	3336.14
565.54	2856.92
565.74	2856.92
565.93	3069.91
566.13	3012.56
566.32	2891.73
566.52	2940.88
566.71	2867.16
566.91	3110.86
567.11	3035.09
567.30	2742.23
567.50	3061.71
567.69	3004.37
567.89	2869.20
568.08	2748.37
568.28	2961.36
568.47	2846.68
568.67	2854.87
568.86	2906.07
569.06	3063.76
569.25	2879.44
569.45	2717.65
569.64	2820.05
569.84	2887.64
570.04	2975.70
570.23	2824.15
570.43	2910.16
570.62	3020.75
570.82	3368.91
571.01	2815.96
571.21	2818.00
571.40	2861.01
571.60	3102.67
571.79	2975.70
571.99	2807.77
572.18	2828.24
572.38	2987.99
572.57	2848.72
572.77	2955.22
572.96	3450.83
573.16	3008.47
573.35	2846.68
573.55	3002.32
573.74	2985.94
573.94	2871.25
574.13	2883.54
574.33	2985.94
574.52	3176.40
574.71	3006.42
574.91	2967.51
575.10	2746.33
575.30	2842.58
575.49	2815.96
575.69	2736.09
575.88	2809.81
576.08	2887.64
576.27	3008.47
576.47	2785.24
576.66	3037.14
576.86	3192.78
577.05	2953.17
577.25	2930.64
577.44	3071.95
577.64	2908.12
577.83	3258.32
578.02	2762.71
578.22	3030.99
578.41	3332.05
578.61	2908.12
578.80	2744.28
579.00	2877.40
579.19	2908.12
579.39	3086.29
579.58	2926.55
579.77	2791.38
579.97	3209.17
580.16	3160.02
580.36	3024.85
580.55	2893.78
580.75	3051.47
580.94	3059.67
581.13	2973.65
581.33	3106.77
581.52	2895.83
581.72	3327.95
581.91	2957.27
582.11	2813.91
582.30	3160.02
582.49	2934.74
582.69	3164.11
582.88	2977.75
583.08	3071.95
583.27	3143.63
583.47	3026.90
583.66	2846.68
583.85	2910.16
584.05	2936.79
584.24	2975.70
584.44	2895.83
584.63	3241.93
584.82	3235.79
585.02	3030.99
585.21	3030.99
585.41	3071.95
585.60	3037.14
585.79	3088.34
585.99	3145.68
586.18	3092.43
586.37	3852.23
586.57	5836.71
586.76	16373.51
586.96	35315.17
587.15	48166.18
587.34	56374.44
587.54	60630.11
587.73	54265.03
587.93	38153.66
588.12	29488.70
588.31	23649.94
588.51	21149.37
588.70	19381.98
588.89	17014.52
589.09	14585.63
589.28	12496.71
589.47	9807.72
589.67	7407.50
589.86	5939.11
590.06	4566.97
590.25	3985.35
590.44	3573.71
590.64	3188.69
590.83	3332.05
591.02	3233.74
591.22	2944.98
591.41	2942.93
591.60	2994.13
591.80	3387.34
591.99	2795.48
592.18	2744.28
592.38	3192.78
592.57	2863.06
592.76	2904.02
592.96	2996.18
593.15	3006.42
593.34	3157.97
593.54	2926.55
593.73	2994.13
593.92	3078.10
594.12	3071.95
594.31	2904.02
594.50	3096.53
594.70	3043.28
594.89	3409.87
595.08	2754.52
595.28	2973.65
595.47	3559.37
595.66	3096.53
595.86	2688.98
596.05	2787.29
596.24	3030.99
596.43	3219.41
596.63	3004.37
596.82	3016.66
597.01	3108.82
597.21	3340.24
597.40	2822.10
597.59	2904.02
597.79	2912.21
597.98	3061.71
598.17	2910.16
598.36	2865.11
598.56	3149.78
598.75	2928.60
598.94	2979.79
599.14	2942.93
599.33	2891.73
599.52	3133.39
599.71	2985.94
599.91	2920.40
600.10	3076.05
600.29	2996.18
600.48	3030.99
600.68	3004.37
600.87	3057.62
601.06	2871.25
601.26	2944.98
601.45	2953.17
601.64	2951.12
601.83	3186.64
602.03	2779.09
602.22	2746.33
602.41	3233.74
602.60	3364.81
602.80	3002.32
602.99	3026.90
603.18	2973.65
603.37	3020.75
603.57	2879.44
603.76	2938.84
603.95	3129.30
604.14	2926.55
604.34	2723.80
604.53	2871.25
604.72	3069.91
604.91	3071.95
605.10	2910.16
605.30	2752.47
605.49	3401.68
605.68	3096.53
605.87	2856.92
606.07	2787.29
606.26	3074.00
606.45	3194.83
606.64	2863.06
606.84	2781.14
607.03	3002.32
607.22	3086.29
607.41	2846.68
607.60	2846.68
607.80	3076.05
607.99	2938.84
608.18	2863.06
608.37	2838.48
608.56	2842.58
608.76	3215.31
608.95	3020.75
609.14	2818.00
609.33	3170.26
609.52	3166.16
609.72	2971.60
609.91	3028.95
610.10	3055.57
610.29	3209.17
610.48	2940.88
610.68	2916.31
610.87	2959.31
611.06	3110.86
611.25	2928.60
611.44	2914.26
611.63	2881.49
611.83	3246.03
612.02	2803.67
612.21	2975.70
612.40	2676.70
612.59	2840.53
612.79	2764.76
612.98	2922.45
613.17	3307.47
613.36	2975.70
613.55	2985.94
613.74	2875.35
613.93	3033.04
614.13	3100.62
614.32	3041.23
614.51	2873.30
614.70	2949.08
614.89	2918.36
615.08	2967.51
615.28	3325.90
615.47	2807.77
615.66	3106.77
615.85	2856.92
616.04	2885.59
616.23	2981.84
616.42	2992.08
616.62	2805.72
616.81	2877.40
617.00	3039.19
617.19	3131.34
617.38	2842.58
617.57	2881.49
617.76	3078.10
617.95	3125.20
618.15	3030.99
618.34	3121.10
618.53	2670.55
618.72	3231.69
618.91	2994.13
619.10	2932.69
619.29	3012.56
619.48	3069.91
619.68	2750.42
619.87	2840.53
620.06	2752.47
620.25	2996.18
620.44	2875.35
620.63	2836.44
620.82	3045.33
621.01	3051.47
621.20	2908.12
621.39	2973.65
621.59	3090.38
621.78	2912.21
621.97	2957.27
622.16	3016.66
622.35	3059.67
622.54	3194.83
622.73	2983.89
622.92	2607.06
623.11	3155.92
623.30	3002.32
623.49	2967.51
623.68	2824.15
623.88	3200.98
624.07	2858.96
624.26	2850.77
624.45	2879.44
624.64	2975.70
624.83	3039.19
625.02	2852.82
625.21	2856.92
625.40	2998.23
625.59	3233.74
625.78	2873.30
625.97	2992.08
626.16	3184.59
626.35	3121.10
626.54	2930.64
626.74	3104.72
626.93	2930.64
627.12	2879.44
627.31	2975.70
627.50	2910.16
627.69	3180.50
627.88	2904.02
628.07	2746.33
628.26	2637.78
628.45	2883.54
628.64	2848.72
628.83	2820.05
629.02	2688.98
629.21	3020.75
629.40	3059.67
629.59	2811.86
629.78	2795.48
629.97	2930.64
630.16	3008.47
630.35	2895.83
630.54	3010.51
630.73	2877.40
630.92	3018.71
631.11	2803.67
631.30	2928.60
631.49	3080.14
631.68	2973.65
631.87	2944.98
632.06	2725.85
632.25	3379.15
632.44	2955.22
632.63	2901.97
632.82	2885.59
633.01	2897.88
633.20	3004.37
633.39	2865.11
633.58	2754.52
633.77	3030.99
633.96	3090.38
634.15	2947.03
634.34	2920.40
634.53	3078.10
634.72	2885.59
634.91	2740.18
635.10	2867.16
635.29	3145.68
635.48	2975.70
635.67	2801.62
635.86	2772.95
636.05	3213.26
636.24	2926.55
636.43	2795.48
636.62	2940.88
636.81	2648.02
637.00	3000.27
637.19	2899.92
637.38	2832.34
637.57	2881.49
637.76	3074.00
637.95	3069.91
638.14	2926.55
638.33	2990.03
638.52	3022.80
638.71	2803.67
638.89	2717.65
639.08	3446.73
639.27	3102.67
639.46	3022.80
639.65	3375.05
639.84	3481.55
640.03	3542.99
640.22	3217.36
640.41	3278.80
640.60	3041.23
640.79	3170.26
640.98	3053.52
641.17	3045.33
641.36	3114.96
641.55	3155.92
641.74	2748.37
641.92	2811.86
642.11	2838.48
642.30	2904.02
642.49	2772.95
642.68	2858.96
642.87	3014.61
643.06	3065.81
643.25	2766.81
643.44	2836.44
643.63	2998.23
643.82	3172.30
644.00	2736.09
644.19	2838.48
644.38	2836.44
644.57	3035.09
644.76	2897.88
644.95	2879.44
645.14	3024.85
645.33	2918.36
645.52	2924.50
645.71	2664.41
645.89	2815.96
646.08	2942.93
646.27	2949.08
646.46	3082.19
646.65	2727.89
646.84	3033.04
647.03	2738.13
647.22	3016.66
647.40	3067.86
647.59	2938.84
647.78	2592.73
647.97	2826.20
648.16	2885.59
648.35	3231.69
648.54	3065.81
648.73	2879.44
648.91	3098.58
649.10	2963.41
649.29	2873.30
649.48	2787.29
649.67	3067.86
649.86	2928.60
650.05	2916.31
650.23	3069.91
650.42	2842.58
650.61	3223.50
650.80	3045.33
650.99	3110.86
651.18	3180.50
651.36	3176.40
651.55	2863.06
651.74	3051.47
651.93	2912.21
652.12	3049.43
652.31	2893.78
652.49	2832.34
652.68	2861.01
652.87	3190.74
653.06	2953.17
653.25	3082.19
653.44	3022.80
653.62	3198.93
653.81	2852.82
654.00	2830.29
654.19	3172.30
654.38	3407.82
654.56	2947.03
654.75	2887.64
654.94	3157.97
655.13	3061.71
655.32	2877.40
655.51	2967.51
655.69	2844.63
655.88	3057.62
656.07	2768.85
656.26	2895.83
656.45	2830.29
656.63	3037.14
656.82	2912.21
657.01	3084.24
657.20	2848.72
657.38	3231.69
657.57	2846.68
657.76	2701.27
657.95	3192.78
658.14	2887.64
658.32	2932.69
658.51	2799.57
658.70	2975.70
658.89	3057.62
659.08	2934.74
659.26	3106.77
659.45	2838.48
659.64	3065.81
659.83	2869.20
660.01	3198.93
660.20	3012.56
660.39	3272.65
660.58	2695.13
660.76	2967.51
660.95	2756.57
661.14	3008.47
661.33	2695.13
661.51	2873.30
661.70	2908.12
661.89	2977.75
662.08	2895.83
662.26	2658.26
662.45	2820.05
662.64	3387.34
662.83	2916.31
663.01	2785.24
663.20	2793.43
663.39	3274.70
663.58	2887.64
663.76	2869.20
663.95	3104.72
664.14	2852.82
664.32	3000.27
664.51	2713.56
664.70	2656.22
664.89	3037.14
665.07	2725.85
665.26	3028.95
665.45	2799.57
665.64	3053.52
665.82	2824.15
666.01	2992.08
666.20	2725.85
666.38	3137.49
666.57	3135.44
666.76	4761.53
666.95	11020.12
667.13	17497.84
667.32	21290.68
667.51	23936.66
667.69	24823.43
667.88	20833.99
668.07	15208.22
668.25	12836.67
668.44	11214.68
668.63	9547.63
668.81	8494.97
669.00	7380.88
669.19	6659.99
669.38	6000.55
669.56	5093.30
669.75	4339.65
669.94	3977.16
670.12	3454.92
670.31	3137.49
670.50	3155.92
670.68	3186.64
670.87	3076.05
671.06	2901.97
671.24	3016.66
671.43	3325.90
671.62	3012.56
671.80	2826.20
671.99	2994.13
672.18	2942.93
672.36	3076.05
672.55	2959.31
672.74	2924.50
672.92	2961.36
673.11	3092.43
673.29	2738.13
673.48	3043.28
673.67	2961.36
673.85	3194.83
674.04	2820.05
674.23	3039.19
674.41	3268.56
674.60	2820.05
674.79	2654.17
674.97	2707.41
675.16	3198.93
675.34	3207.12
675.53	2877.40
675.72	2912.21
675.90	3250.13
676.09	2908.12
676.28	2947.03
676.46	2715.61
676.65	3135.44
676.83	2869.20
677.02	2891.73
677.21	2861.01
677.39	2985.94
677.58	2869.20
677.77	2799.57
677.95	2725.85
678.14	2967.51
678.32	2926.55
678.51	2867.16
678.70	3188.69
678.88	2873.30
679.07	3076.05
679.25	2852.82
679.44	2844.63
679.63	2779.09
679.81	3018.71
680.00	3123.15
680.18	2944.98
680.37	3266.51
680.55	2971.60
680.74	2727.89
680.93	2635.74
681.11	3102.67
681.30	2975.70
681.48	2957.27
681.67	2863.06
681.85	2967.51
682.04	2846.68
682.23	2969.55
682.41	2987.99
682.60	2932.69
682.78	3012.56
682.97	2754.52
683.15	2977.75
683.34	2953.17
683.53	3248.08
683.71	2693.08
683.90	2967.51
684.08	3243.98
684.27	2928.60
684.45	2928.60
684.64	3049.43
684.82	2951.12
685.01	3137.49
685.19	2893.78
685.38	3082.19
685.57	2981.84
685.75	2842.58
685.94	2781.14
686.12	2805.72
686.31	2928.60
686.49	3305.42
686.68	2613.21
686.86	2893.78
687.05	2820.05
687.23	3311.57
687.42	2809.81
687.60	2738.13
687.79	3174.35
687.97	3229.65
688.16	3098.58
688.34	3035.09
688.53	2699.22
688.71	3002.32
688.90	3102.67
689.08	2785.24
689.27	2713.56
689.45	3098.58
689.64	3022.80
689.82	2953.17
690.01	3063.76
690.19	3014.61
690.38	2865.11
690.56	3010.51
690.75	2867.16
690.93	2947.03
691.12	2881.49
691.30	2887.64
691.49	2807.77
691.67	2895.83
691.86	3188.69
692.04	2818.00
692.23	2883.54
692.41	3012.56
692.60	3174.35
692.78	3096.53
692.97	2967.51
693.15	3190.74
693.34	3149.78
693.52	3071.95
693.71	2918.36
693.89	2951.12
694.08	2666.46
694.26	2971.60
694.44	3010.51
694.63	3078.10
694.81	2809.81
695.00	2844.63
695.18	3188.69
695.37	3432.40
695.55	2959.31
695.74	2938.84
695.92	2762.71
696.10	3262.41
696.29	2779.09
696.47	2805.72
696.66	2719.70
696.84	2899.92
697.03	2914.26
697.21	3110.86
697.40	4421.56
697.58	3141.58
697.76	2901.97
697.95	2758.61
698.13	2803.67
698.32	2897.88
698.50	2856.92
698.68	2865.11
698.87	3061.71
699.05	3258.32
699.24	2836.44
699.42	2832.34
699.61	2969.55
699.79	2959.31
699.97	2920.40
700.16	2682.84
700.34	2799.57
700.53	3024.85
700.71	3069.91
700.89	3057.62
701.08	2883.54
701.26	3004.37
701.45	3280.85
701.63	2830.29
701.81	2850.77
702.00	2746.33
702.18	2932.69
702.37	2781.14
702.55	3200.98
702.73	3000.27
702.92	2840.53
703.10	3160.02
703.28	3127.25
703.47	2775.00
703.65	3174.35
703.84	2979.79
704.02	2766.81
704.20	3344.33
704.39	2854.87
704.57	2910.16
704.75	3086.29
704.94	3094.48
705.12	2994.13
705.30	3383.24
705.49	6602.65
705.67	12769.09
705.86	17925.87
706.04	20489.93
706.22	22683.30
706.41	22169.26
706.59	16781.06
706.77	13070.14
706.96	11054.94
707.14	10381.15
707.32	8988.53
707.51	7868.30
707.69	6399.90
707.87	5533.61
708.06	4476.86
708.24	4026.31
708.42	3624.90
708.61	3737.54
708.79	2973.65
708.97	2973.65
709.16	3035.09
709.34	3096.53
709.52	2899.92
709.71	2965.46
709.89	3045.33
710.07	2867.16
710.26	2828.24
710.44	2813.91
710.62	3176.40
710.80	2971.60
710.99	2918.36
711.17	2949.08
711.35	2840.53
711.54	2918.36
711.72	3055.57
711.90	2998.23
712.09	2998.23
712.27	2906.07
712.45	2951.12
712.63	2775.00
712.82	2981.84
713.00	2965.46
713.18	3014.61
713.37	3028.95
713.55	3067.86
713.73	3078.10
713.91	2887.64
714.10	2936.79
714.28	2920.40
714.46	3049.43
714.65	3020.75
714.83	2973.65
715.01	3000.27
715.19	3045.33
715.38	2768.85
715.56	3016.66
715.74	2834.39
715.92	2820.05
716.11	3106.77
716.29	2621.40
716.47	2932.69
716.65	2967.51
716.84	2775.00
717.02	2971.60
717.20	2625.50
717.38	2818.00
717.57	3071.95
717.75	2938.84
717.93	2881.49
718.11	3039.19
718.30	2725.85
718.48	2951.12
718.66	3172.30
718.84	3192.78
719.03	2940.88
719.21	2717.65
719.39	3248.08
719.57	3082.19
719.75	3018.71
719.94	2815.96
720.12	2891.73
720.30	2957.27
720.48	2971.60
720.67	2856.92
720.85	2772.95
721.03	2844.63
721.21	2807.77
721.39	2975.70
721.58	3104.72
721.76	2887.64
721.94	2983.89
722.12	3014.61
722.30	3276.75
722.49	2938.84
722.67	2879.44
722.85	2944.98
723.03	2729.94
723.21	2955.22
723.40	2850.77
723.58	2971.60
723.76	3155.92
723.94	3264.46
724.12	2908.12
724.30	3016.66
724.49	3172.30
724.67	2824.15
724.85	3047.38
725.03	2801.62
725.21	3141.58
725.40	3155.92
725.58	2885.59
725.76	3092.43
725.94	3012.56
726.12	2824.15
726.30	2883.54
726.49	2826.20
726.67	2895.83
726.85	3117.01
727.03	3364.81
727.21	4403.13
727.39	5408.69
727.57	5910.44
727.76	6174.63
727.94	6281.12
728.12	5603.24
728.30	4618.17
728.48	4366.27
728.66	4087.75
728.84	3897.28
729.03	3516.36
729.21	3377.10
729.39	3260.37
729.57	3076.05
729.75	3061.71
729.93	2936.79
730.11	2832.34
730.30	2863.06
730.48	2955.22
730.66	2961.36
730.84	2953.17
731.02	3008.47
731.20	2926.55
731.38	2957.27
731.56	2664.41
731.74	2731.99
731.93	3041.23
732.11	2879.44
732.29	2818.00
732.47	3125.20
732.65	3012.56
732.83	3071.95
733.01	2891.73
733.19	2828.24
733.37	3045.33
733.56	2846.68
733.74	2770.90
733.92	3209.17
734.10	2906.07
734.28	2981.84
734.46	2633.69
734.64	2871.25
734.82	2961.36
735.00	2883.54
735.18	2824.15
735.36	2983.89
735.54	3094.48
735.73	2910.16
735.91	2949.08
736.09	3211.22
736.27	2887.64
736.45	2957.27
736.63	2727.89
736.81	2852.82
736.99	3127.25
737.17	3014.61
737.35	2875.35
737.53	2987.99
737.71	2949.08
737.89	3055.57
738.07	2822.10
738.25	2852.82
738.43	2727.89
738.61	2858.96
738.80	2731.99
738.98	2846.68
739.16	2844.63
739.34	2846.68
739.52	3094.48
739.70	2940.88
739.88	3110.86
740.06	3022.80
740.24	2656.22
740.42	3231.69
740.60	2668.50
740.78	2826.20
740.96	2594.78
741.14	2863.06
741.32	2994.13
741.50	2713.56
741.68	3151.82
741.86	3182.54
742.04	2830.29
742.22	2815.96
742.40	2889.68
742.58	3129.30
742.76	2908.12
742.94	3153.87
743.12	2691.03
743.30	3039.19
743.48	3026.90
743.66	2770.90
743.84	2871.25
744.02	2947.03
744.20	2953.17
744.38	2795.48
744.56	2748.37
744.74	3246.03
744.92	3074.00
745.10	3088.34
745.28	2994.13
745.46	3250.13
745.64	2947.03
745.82	2959.31
746.00	2832.34
746.18	3004.37
746.36	2852.82
746.54	2944.98
746.72	2854.87
746.90	2863.06
747.08	3149.78
747.26	2854.87
747.44	3067.86
747.62	3084.24
747.80	2979.79
747.98	3006.42
748.15	2811.86
748.33	3303.37
748.51	3016.66
748.69	2953.17
748.87	2789.33
749.05	2996.18
749.23	2879.44
749.41	2881.49
749.59	2844.63
749.77	3096.53
749.95	2934.74
750.13	2844.63
750.31	3020.75
750.49	3012.56
750.67	3125.20
750.85	3080.14
751.03	2871.25
751.20	3321.81
751.38	3008.47
751.56	2922.45
751.74	2807.77
751.92	2926.55
752.10	2795.48
752.28	2973.65
752.46	2885.59
752.64	2947.03
752.82	2904.02
753.00	2936.79
753.18	2746.33
753.35	2936.79
753.53	2910.16
753.71	2824.15
753.89	2953.17
754.07	3063.76
754.25	3082.19
754.43	2936.79
754.61	2789.33
754.79	3114.96
754.97	2936.79
755.14	2975.70
755.32	2713.56
755.50	3020.75
755.68	2981.84
755.86	2779.09
756.04	2764.76
756.22	2688.98
756.40	3133.39
756.57	3149.78
756.75	2838.48
756.93	3229.65
757.11	3133.39
757.29	2719.70
757.47	2770.90
757.65	2734.04
757.82	2619.35
758.00	2742.23
758.18	2842.58
758.36	2799.57
758.54	3241.93
758.72	2627.54
758.90	2953.17
759.07	3006.42
759.25	2856.92
759.43	2934.74
759.61	2758.61
759.79	4220.86
759.97	3133.39
760.15	2867.16
760.32	2906.07
760.50	3059.67
760.68	3295.18
760.86	2744.28
761.04	3067.86
761.22	3139.54
761.39	2987.99
761.57	2912.21
761.75	2795.48
761.93	3069.91
762.11	2899.92
762.28	2975.70
762.46	2793.43
762.64	3100.62
762.82	2760.66
763.00	2799.57
763.18	3063.76
763.35	2793.43
763.53	3063.76
763.71	2938.84
763.89	2887.64
764.07	2963.41
764.24	2926.55
764.42	3000.27
764.60	2877.40
764.78	2979.79
764.96	3129.30
765.13	3014.61
765.31	2770.90
765.49	3078.10
765.67	2713.56
765.84	2863.06
766.02	2781.14
766.20	2711.51
766.38	3082.19
766.56	3000.27
766.73	2992.08
766.91	3002.32
767.09	2938.84
767.27	2893.78
767.44	2688.98
767.62	3082.19
767.80	3010.51
767.98	2738.13
768.15	2877.40
768.33	3100.62
768.51	3182.54
768.69	3012.56
768.87	2918.36
769.04	3080.14
769.22	3452.88
769.40	3067.86
769.58	3071.95
769.75	3045.33
769.93	3143.63
770.11	2848.72
770.28	2803.67
770.46	3096.53
770.64	3035.09
770.82	2842.58
770.99	2791.38
771.17	3117.01
771.35	2942.93
771.53	2813.91
771.70	2854.87
771.88	3028.95
772.06	2940.88
772.23	2803.67
772.41	2930.64
772.59	2959.31
772.77	2813.91
772.94	2893.78
773.12	2893.78
773.30	2830.29
773.47	2994.13
773.65	2758.61
773.83	3018.71
774.01	3010.51
774.18	2742.23
774.36	2791.38
774.54	2697.17
774.71	3020.75
774.89	2674.65
775.07	2680.79
775.24	2822.10
775.42	2818.00
775.60	3319.76
775.78	2725.85
775.95	2717.65
776.13	2697.17
776.31	2750.42
776.48	2979.79
776.66	3010.51
776.84	2920.40
777.01	2832.34
777.19	2746.33
777.37	2824.15
777.54	3039.19
777.72	3264.46
777.90	2955.22
778.07	2893.78
778.25	3493.83
778.43	3176.40
778.60	2772.95
778.78	2959.31
778.96	3205.07
779.13	2736.09
779.31	2981.84
779.49	2895.83
779.66	2994.13
779.84	2932.69
780.01	2906.07
780.19	2781.14
780.37	3157.97
780.54	3049.43
780.72	2781.14
780.90	2846.68
781.07	2979.79
781.25	2840.53
781.43	3063.76
781.60	2781.14
781.78	3182.54
781.95	2983.89
782.13	2854.87
782.31	2826.20
782.48	2590.68
782.66	3024.85
782.83	3110.86
783.01	2869.20
783.19	3094.48
783.36	2912.21
783.54	2815.96
783.72	2957.27
783.89	2895.83
784.07	3028.95
784.24	3014.61
784.42	3004.37
784.60	3028.95
784.77	3100.62
784.95	2623.45
785.12	2844.63
785.30	3078.10
785.47	2850.77
785.65	2682.84
785.83	2861.01
786.00	2889.68
786.18	2998.23
786.35	2693.08
786.53	2770.90
786.71	3207.12
786.88	3147.73
787.06	2887.64
787.23	2887.64
787.41	2797.53
787.58	3004.37
787.76	2717.65
787.94	2936.79
788.11	3033.04
788.29	2721.75
788.46	2803.67
788.64	2596.82
788.81	2932.69
788.99	2922.45
789.16	2824.15
789.34	2930.64
789.52	2908.12
789.69	2842.58
789.87	2633.69
790.04	2820.05
790.22	2971.60
790.39	3256.27
790.57	2729.94
790.74	2820.05
790.92	3176.40
791.09	2709.46
791.27	2883.54
791.44	2967.51
791.62	2987.99
791.79	3164.11
791.97	2908.12
792.15	3198.93
792.32	3067.86
792.50	3090.38
792.67	3067.86
792.85	3018.71
793.02	3051.47
793.20	2906.07
793.37	2697.17
793.55	2815.96
793.72	2815.96
793.90	3008.47
794.07	2871.25
794.25	2738.13
794.42	3014.61
794.60	2934.74
794.77	2932.69
794.95	2957.27
795.12	3168.21
795.30	2977.75
795.47	2607.06
795.65	3213.26
795.82	3016.66
796.00	2820.05
796.17	2975.70
796.34	2815.96
796.52	2977.75
796.69	3174.35
796.87	3016.66
797.04	3004.37
797.22	3119.06
797.39	3014.61
797.57	3006.42
797.74	2893.78
797.92	2928.60
798.09	2861.01
798.27	3053.52
798.44	2772.95
798.62	2865.11
798.79	3059.67
798.96	2973.65
799.14	2936.79
799.31	3373.00
799.49	2953.17
799.66	2934.74
799.84	2897.88
800.01	2754.52
800.19	3069.91
800.36	2701.27
800.53	2934.74
800.71	3123.15
800.88	3289.04
801.06	2820.05
801.23	2824.15
801.41	3012.56
801.58	2826.20
801.75	2856.92
801.93	2893.78
802.10	3080.14
802.28	2959.31
802.45	2850.77
802.63	2963.41
802.80	3246.03
802.97	2887.64
803.15	2846.68
803.32	2840.53
803.50	2899.92
803.67	2875.35
803.84	2820.05
804.02	2949.08
804.19	2914.26
804.37	2605.02
804.54	2717.65
804.71	2783.19
804.89	3008.47
805.06	2813.91
805.24	2770.90
805.41	2731.99
805.58	2912.21
805.76	3391.44
805.93	2822.10
806.10	3000.27
806.28	3129.30
806.45	3014.61
806.63	2969.55
806.80	2920.40
806.97	2983.89
807.15	2969.55
807.32	2906.07
807.49	2779.09
807.67	2758.61
807.84	3051.47
808.01	2674.65
808.19	3030.99
808.36	3330.00
808.54	2895.83
808.71	2766.81
808.88	2895.83
809.06	3162.06
809.23	3207.12
809.40	2861.01
809.58	2889.68
809.75	2947.03
809.92	2721.75
810.10	3143.63
810.27	2871.25
810.44	3110.86
810.62	3160.02
810.79	2985.94
810.96	2838.48
811.14	2975.70
811.31	3104.72
811.48	3024.85
811.66	2891.73
811.83	3243.98
812.00	3102.67
812.18	2987.99
812.35	3127.25
812.52	2826.20
812.69	2912.21
812.87	2789.33
813.04	2815.96
813.21	2957.27
813.39	2865.11
813.56	2793.43
813.73	3100.62
813.91	2760.66
814.08	3004.37
814.25	2836.44
814.42	2795.48
814.60	2842.58
814.77	3051.47
814.94	2850.77
815.12	2930.64
815.29	3262.41
815.46	2838.48
815.63	2863.06
815.81	2836.44
815.98	2916.31
816.15	2955.22
816.33	2957.27
816.50	2883.54
816.67	3000.27
816.84	2899.92
817.02	2787.29
817.19	2846.68
817.36	2936.79
817.53	3008.47
817.71	2764.76
817.88	2881.49
818.05	2930.64
818.22	2910.16
818.40	3108.82
818.57	2850.77
818.74	2983.89
818.91	2951.12
819.09	3030.99
819.26	2983.89
819.43	2883.54
819.60	2848.72
819.78	3020.75
819.95	2949.08
820.12	2768.85
820.29	3319.76
820.47	3074.00
820.64	2807.77
820.81	2691.03
820.98	2875.35
821.15	2842.58
821.33	2973.65
821.50	2742.23
821.67	3039.19
821.84	2795.48
822.02	2824.15
822.19	3108.82
822.36	2932.69
822.53	2775.00
822.70	2752.47
822.88	2904.02
823.05	3157.97
823.22	2944.98
823.39	2899.92
823.56	2959.31
823.74	3352.52
823.91	2697.17
824.08	2805.72
824.25	2731.99
824.42	3248.08
824.60	2719.70
824.77	2998.23
824.94	2928.60
825.11	3125.20
825.28	2707.41
825.45	2947.03
825.63	3049.43
825.80	2826.20
825.97	2926.55
826.14	2918.36
826.31	2699.22
826.48	3057.62
826.66	2836.44
826.83	2711.51
827.00	2955.22
827.17	2844.63
827.34	2936.79
827.51	2865.11
827.69	2940.88
827.86	2650.07
828.03	2904.02
828.20	2885.59
828.37	2899.92
828.54	3071.95
828.71	2793.43
828.89	3010.51
829.06	3004.37
829.23	3286.99
829.40	2818.00
829.57	2760.66
829.74	3067.86
829.91	2906.07
830.09	2811.86
830.26	2944.98
830.43	3188.69
830.60	2936.79
830.77	2981.84
830.94	3071.95
831.11	3102.67
831.28	2889.68
831.46	2965.46
831.63	2838.48
831.80	3061.71
831.97	2828.24
832.14	2832.34
832.31	2910.16
832.48	3067.86
832.65	3121.10
832.82	2826.20
832.99	2963.41
833.17	2824.15
833.34	3151.82
833.51	2910.16
833.68	2650.07
833.85	3117.01
834.02	2777.05
834.19	2797.53
834.36	2822.10
834.53	3012.56
834.70	3188.69
834.87	2830.29
835.04	2648.02
835.22	2791.38
835.39	2938.84
835.56	2701.27
835.73	2721.75
835.90	3178.45
836.07	2766.81
836.24	2813.91
836.41	2719.70
836.58	2756.57
836.75	3125.20
836.92	2783.19
837.09	2711.51
837.26	3139.54
837.43	3014.61
837.60	2713.56
837.77	2762.71
837.94	3131.34
838.12	3229.65
838.29	2654.17
838.46	2652.12
838.63	2754.52
838.80	3170.26
838.97	2801.62
839.14	2736.09
839.31	2998.23
839.48	3045.33
839.65	2742.23
839.82	2779.09
839.99	2990.03
840.16	3018.71
840.33	2680.79
840.50	2793.43
840.67	2840.53
840.84	2519.00
841.01	2746.33
841.18	2727.89
841.35	2887.64
841.52	3067.86
841.69	2924.50
841.86	2799.57
842.03	2987.99
842.20	3127.25
842.37	2766.81
842.54	2799.57
842.71	3018.71
842.88	2742.23
843.05	2756.57
843.22	2668.50
843.39	3203.02
843.56	2920.40
843.73	2680.79
843.90	2885.59
844.07	3074.00
844.24	3121.10
844.41	2844.63
844.58	2766.81
844.75	2979.79
844.92	2996.18
845.09	2834.39
845.26	2828.24
845.43	3114.96
845.60	2877.40
845.77	2852.82
845.94	2822.10
846.10	3180.50
846.27	2750.42
846.44	2711.51
846.61	2613.21
846.78	3024.85
846.95	3151.82
847.12	2637.78
847.29	2734.04
847.46	2873.30
847.63	3096.53
847.80	2684.89
847.97	2781.14
848.14	3350.48
848.31	2924.50
848.48	2596.82
848.65	2783.19
848.82	2895.83
848.98	3506.12
849.15	2848.72
849.32	2895.83
849.49	3080.14
849.66	2938.84
849.83	2748.37
850.00	2666.46
850.17	3057.62
850.34	2965.46
850.51	2697.17
850.68	2760.66
850.85	3370.96
851.01	3063.76
851.18	2738.13
851.35	2809.81
851.52	3012.56
851.69	3252.17
851.86	2688.98
852.03	2666.46
852.20	3074.00
852.37	2965.46
852.53	2559.96
852.70	2672.60
852.87	3045.33
853.04	3157.97
853.21	2688.98
853.38	2930.64
853.55	3190.74
853.72	3203.02
853.89	2633.69
854.05	2668.50
854.22	2949.08
854.39	2934.74
854.56	2715.61
854.73	2828.24
854.90	2877.40
855.07	3018.71
855.23	2654.17
855.40	2672.60
855.57	2828.24
855.74	2627.54
855.91	2951.12
856.08	2592.73
856.25	2756.57
856.41	2895.83
856.58	2768.85
856.75	2785.24
856.92	2777.05
857.09	3186.64
857.26	2580.44
857.42	2832.34
857.59	3059.67
857.76	2967.51
857.93	2729.94
858.10	2791.38
858.27	2838.48
858.43	2953.17
858.60	2731.99
858.77	2645.98
858.94	2889.68
859.11	3151.82
859.27	2844.63
859.44	2691.03
859.61	3262.41
859.78	3135.44
859.95	2703.32
860.12	2656.22
860.28	3360.72
860.45	3286.99
860.62	2703.32
860.79	2805.72
860.95	2893.78
861.12	2815.96
861.29	2641.88
861.46	2674.65
861.63	2953.17
861.79	3067.86
861.96	2670.55
862.13	2734.04
862.30	3211.22
862.47	2826.20
862.63	2605.02
862.80	2805.72
862.97	3063.76
863.14	2938.84
863.30	2803.67
863.47	2641.88
863.64	3233.74
863.81	3018.71
863.97	2719.70
864.14	2770.90
864.31	2994.13
864.48	3033.04
864.65	2703.32
864.81	2863.06
864.98	3065.81
865.15	3139.54
865.32	2752.47
865.48	2869.20
865.65	3280.85
865.82	2824.15
865.98	2766.81
866.15	2824.15
866.32	2942.93
866.49	2836.44
866.65	2801.62
866.82	2711.51
866.99	3006.42
867.16	2910.16
867.32	2707.41
867.49	2697.17
867.66	2904.02
867.83	2914.26
867.99	2596.82
868.16	2785.24
868.33	2822.10
868.49	2977.75
868.66	2748.37
868.83	2803.67
868.99	3049.43
869.16	2969.55
869.33	2830.29
869.50	2748.37
869.66	3028.95
869.83	2871.25
870.00	2627.54
870.16	2818.00
870.33	3008.47
870.50	3094.48
870.66	2820.05
870.83	2820.05
871.00	2990.03
871.17	3041.23
871.33	2844.63
871.50	2648.02
871.67	2906.07
871.83	2899.92
872.00	2801.62
872.17	2713.56
872.33	3260.37
872.50	3147.73
872.67	2777.05
872.83	2791.38
873.00	3016.66
873.17	2975.70
873.33	2824.15
873.50	2828.24
873.67	2777.05
873.83	2811.86
874.00	2830.29
874.16	2836.44
874.33	2994.13
874.50	2795.48
874.66	2676.70
874.83	2756.57
875.00	3157.97
875.16	3098.58
875.33	2863.06
875.50	2514.91
875.66	2875.35
875.83	3010.51
875.99	2820.05
876.16	2801.62
876.33	2760.66
876.49	2852.82
876.66	2826.20
876.83	2822.10
876.99	2713.56
877.16	2856.92
877.32	2678.74
877.49	2736.09
877.66	3121.10
877.82	3186.64
877.99	2830.29
878.15	2975.70
878.32	3045.33
878.49	3053.52
878.65	2797.53
878.82	2998.23
878.98	2895.83
879.15	3186.64
879.32	2856.92
879.48	2873.30
879.65	2938.84
879.81	2834.39
879.98	2693.08
880.15	2838.48
880.31	3092.43
880.48	2940.88
880.64	2818.00
880.81	2809.81
880.97	3248.08
881.14	3174.35
881.31	2695.13
881.47	2842.58
881.64	2998.23
881.80	2723.80
881.97	2865.11
882.13	2754.52
882.30	2787.29
882.47	2852.82
882.63	2729.94
882.80	2740.18
882.96	2883.54
883.13	3241.93
883.29	2758.61
883.46	2758.61
883.62	3293.13
883.79	2975.70
883.95	2910.16
884.12	2691.03
884.29	3080.14
884.45	2992.08
884.62	2811.86
884.78	2668.50
884.95	3180.50
885.11	2820.05
885.28	2871.25
885.44	2674.65
885.61	3053.52
885.77	3172.30
885.94	2918.36
886.10	2797.53
886.27	2930.64
886.43	3293.13
886.60	2926.55
886.76	2697.17
886.93	2850.77
887.09	3026.90
887.26	2631.64
887.42	2852.82
887.59	3143.63
887.75	3293.13
887.92	2979.79
888.08	2891.73
888.25	3299.28
888.41	3112.91
888.58	2791.38
888.74	2709.46
888.91	2871.25
>>>>>End Processed Spectral Data<<<<<
