SpectraSuite Data File
++++++++++++++++++++++++++++++++++++
Date: Thu May 05 21:11:19 CEST 2016
User: root
Dark Spectrum Present: No
Reference Spectrum Present: No
Number of Sampled Component Spectra: 1
Spectrometers: USB4C02835
Integration Time (usec): 100000 (USB4C02835)
Spectra Averaged: 1 (USB4C02835)
Boxcar Smoothing: 0 (USB4C02835)
Correct for Electrical Dark: No (USB4C02835)
Strobe/Lamp Enabled: No (USB4C02835)
Correct for Detector Non-linearity: No (USB4C02835)
Correct for Stray Light: No (USB4C02835)
Number of Pixels in Processed Spectrum: 3648
>>>>>Begin Processed Spectral Data<<<<<
177.47	2168.80
177.69	2168.80
177.91	2168.80
178.13	2168.80
178.36	2131.94
178.58	2711.51
178.80	2944.98
179.02	2723.80
179.24	2820.05
179.46	2590.68
179.68	2605.02
179.90	2940.88
180.13	2924.50
180.35	2502.62
180.57	2652.12
180.79	3117.01
181.01	2940.88
181.23	2740.18
181.45	2820.05
181.67	3108.82
181.90	3145.68
182.12	2746.33
182.34	2555.86
182.56	3139.54
182.78	3100.62
183.00	2596.82
183.22	2680.79
183.44	2621.40
183.66	3514.31
183.89	2787.29
184.11	2664.41
184.33	3002.32
184.55	3280.85
184.77	2619.35
184.99	2672.60
185.21	2912.21
185.43	3454.92
185.65	2666.46
185.87	2684.89
186.10	3389.39
186.32	3393.48
186.54	2797.53
186.76	2766.81
186.98	3172.30
187.20	2928.60
187.42	2697.17
187.64	2734.04
187.86	2998.23
188.08	3129.30
188.30	2643.93
188.52	2705.37
188.75	3272.65
188.97	3157.97
189.19	2633.69
189.41	2740.18
189.63	3041.23
189.85	2881.49
190.07	2600.92
190.29	2527.19
190.51	3106.77
190.73	2731.99
190.95	2832.34
191.17	2701.27
191.39	2684.89
191.61	2967.51
191.84	2693.08
192.06	2715.61
192.28	2740.18
192.50	3530.70
192.72	2789.33
192.94	2772.95
193.16	3174.35
193.38	3139.54
193.60	2629.59
193.82	2795.48
194.04	3135.44
194.26	3008.47
194.48	2615.26
194.70	2705.37
194.92	2850.77
195.14	3153.87
195.36	2627.54
195.58	2750.42
195.80	2965.46
196.02	2858.96
196.24	2709.46
196.46	2795.48
196.69	2836.44
196.91	3504.07
197.13	2598.87
197.35	2691.03
197.57	3213.26
197.79	3162.06
198.01	2744.28
198.23	2725.85
198.45	3090.38
198.67	2762.71
198.89	2615.26
199.11	2752.47
199.33	2897.88
199.55	2615.26
199.77	2686.94
199.99	2834.39
200.21	2971.60
200.43	2977.75
200.65	2686.94
200.87	2584.54
201.09	2938.84
201.31	2969.55
201.53	2736.09
201.75	2697.17
201.97	3117.01
202.19	3020.75
202.41	2711.51
202.63	2807.77
202.85	3045.33
203.07	3057.62
203.29	2713.56
203.51	2570.20
203.73	2836.44
203.95	3432.40
204.17	2613.21
204.39	2803.67
204.61	3020.75
204.83	2951.12
205.05	2793.43
205.27	2731.99
205.49	3434.44
205.71	2901.97
205.93	2586.58
206.15	2623.45
206.37	2949.08
206.59	2887.64
206.81	2510.81
207.03	2598.87
207.25	2734.04
207.47	3086.29
207.69	2709.46
207.91	2942.93
208.13	3346.38
208.34	2922.45
208.56	2580.44
208.78	2701.27
209.00	2961.36
209.22	2897.88
209.44	2641.88
209.66	2621.40
209.88	3030.99
210.10	2899.92
210.32	2602.97
210.54	2729.94
210.76	2899.92
210.98	3184.59
211.20	2602.97
211.42	2797.53
211.64	3233.74
211.86	3008.47
212.08	2783.19
212.30	2662.36
212.52	2912.21
212.74	3117.01
212.96	2795.48
213.17	2791.38
213.39	3112.91
213.61	3219.41
213.83	2703.32
214.05	2566.10
214.27	3203.02
214.49	2842.58
214.71	2693.08
214.93	2797.53
215.15	2994.13
215.37	3166.16
215.59	2607.06
215.81	2652.12
216.03	3194.83
216.24	3008.47
216.46	2711.51
216.68	2688.98
216.90	3178.45
217.12	3192.78
217.34	2648.02
217.56	2861.01
217.78	3239.89
218.00	3028.95
218.22	2775.00
218.44	2803.67
218.66	3037.14
218.87	3389.39
219.09	2688.98
219.31	2707.41
219.53	2987.99
219.75	2865.11
219.97	2738.13
220.19	2695.13
220.41	2951.12
220.63	3313.61
220.85	2731.99
221.06	2639.83
221.28	3272.65
221.50	3078.10
221.72	2711.51
221.94	2607.06
222.16	3035.09
222.38	3096.53
222.60	2701.27
222.82	2762.71
223.03	3125.20
223.25	2838.48
223.47	2652.12
223.69	2916.31
223.91	3215.31
224.13	2971.60
224.35	2598.87
224.57	2877.40
224.78	3123.15
225.00	2883.54
225.22	2742.23
225.44	2592.73
225.66	3096.53
225.88	2930.64
226.10	2789.33
226.32	2672.60
226.53	3268.56
226.75	2858.96
226.97	2775.00
227.19	2736.09
227.41	2844.63
227.63	2869.20
227.85	2519.00
228.06	2723.80
228.28	2959.31
228.50	3100.62
228.72	2541.53
228.94	2549.72
229.16	2748.37
229.37	2850.77
229.59	2684.89
229.81	2889.68
230.03	3026.90
230.25	2770.90
230.47	2559.96
230.69	2672.60
230.90	3157.97
231.12	2813.91
231.34	2787.29
231.56	2787.29
231.78	2918.36
232.00	3047.38
232.21	2797.53
232.43	2691.03
232.65	2600.92
232.87	3037.14
233.09	2582.49
233.30	2674.65
233.52	3272.65
233.74	3002.32
233.96	2678.74
234.18	2803.67
234.40	2959.31
234.61	3344.33
234.83	2594.78
235.05	2668.50
235.27	3438.54
235.49	3237.84
235.70	2607.06
235.92	2744.28
236.14	2996.18
236.36	3418.06
236.58	2578.39
236.79	2779.09
237.01	2969.55
237.23	3026.90
237.45	2930.64
237.67	2709.46
237.88	3039.19
238.10	3354.57
238.32	2594.78
238.54	2645.98
238.76	2994.13
238.97	2846.68
239.19	2650.07
239.41	2705.37
239.63	3145.68
239.85	2936.79
240.06	2707.41
240.28	2721.75
240.50	3143.63
240.72	2904.02
240.93	2576.34
241.15	2799.57
241.37	3026.90
241.59	3221.45
241.81	2650.07
242.02	2736.09
242.24	3047.38
242.46	3114.96
242.68	2541.53
242.89	2709.46
243.11	3235.79
243.33	2981.84
243.55	2697.17
243.76	2713.56
243.98	2850.77
244.20	3043.28
244.42	2719.70
244.64	2709.46
244.85	2762.71
245.07	2830.29
245.29	2715.61
245.51	2707.41
245.72	3006.42
245.94	3143.63
246.16	2760.66
246.38	2768.85
246.59	2924.50
246.81	2842.58
247.03	2637.78
247.24	2598.87
247.46	2899.92
247.68	3030.99
247.90	2582.49
248.11	2695.13
248.33	3125.20
248.55	3022.80
248.77	2695.13
248.98	2803.67
249.20	3235.79
249.42	2987.99
249.64	2672.60
249.85	2631.64
250.07	2906.07
250.29	3033.04
250.50	2770.90
250.72	2617.30
250.94	3030.99
251.16	3356.62
251.37	2742.23
251.59	2791.38
251.81	3090.38
252.02	3256.27
252.24	2553.82
252.46	2752.47
252.68	2893.78
252.89	2899.92
253.11	2510.81
253.33	2813.91
253.54	3246.03
253.76	2775.00
253.98	2715.61
254.20	2670.55
254.41	2703.32
254.63	2891.73
254.85	2566.10
255.06	2756.57
255.28	3016.66
255.50	2918.36
255.71	2660.31
255.93	2512.86
256.15	2893.78
256.36	3110.86
256.58	2611.16
256.80	2691.03
257.02	2947.03
257.23	2906.07
257.45	2664.41
257.67	2727.89
257.88	2822.10
258.10	3016.66
258.32	2637.78
258.53	2836.44
258.75	3307.47
258.97	2877.40
259.18	2568.15
259.40	2717.65
259.62	3207.12
259.83	3196.88
260.05	2684.89
260.27	3456.97
260.48	3164.11
260.70	2803.67
260.92	2629.59
261.13	2729.94
261.35	3022.80
261.57	3114.96
261.78	2611.16
262.00	2562.01
262.22	3094.48
262.43	2912.21
262.65	2705.37
262.86	2682.84
263.08	3391.44
263.30	3047.38
263.51	2480.09
263.73	2615.26
263.95	3299.28
264.16	2781.14
264.38	2533.34
264.60	2643.93
264.81	3000.27
265.03	3178.45
265.25	3043.28
265.46	2635.74
265.68	3176.40
265.89	3090.38
266.11	2516.95
266.33	2688.98
266.54	3133.39
266.76	3090.38
266.98	2779.09
267.19	2836.44
267.41	3168.21
267.62	2924.50
267.84	2443.23
268.06	2836.44
268.27	2979.79
268.49	3139.54
268.70	2746.33
268.92	2682.84
269.14	2836.44
269.35	2838.48
269.57	2715.61
269.79	2791.38
270.00	2924.50
270.22	3354.57
270.43	2590.68
270.65	2607.06
270.87	3012.56
271.08	3147.73
271.30	2805.72
271.51	2695.13
271.73	3033.04
271.95	3332.05
272.16	2639.83
272.38	2844.63
272.59	2885.59
272.81	3098.58
273.02	2639.83
273.24	2731.99
273.46	3164.11
273.67	2822.10
273.89	2576.34
274.10	2785.24
274.32	3166.16
274.54	3071.95
274.75	2832.34
274.97	2791.38
275.18	3139.54
275.40	3063.76
275.61	2770.90
275.83	2846.68
276.05	2783.19
276.26	2949.08
276.48	2756.57
276.69	2795.48
276.91	2869.20
277.12	3188.69
277.34	2889.68
277.55	2930.64
277.77	3076.05
277.99	2926.55
278.20	2709.46
278.42	2631.64
278.63	2768.85
278.85	2781.14
279.06	2750.42
279.28	2934.74
279.49	3162.06
279.71	3084.24
279.93	2803.67
280.14	2793.43
280.36	2883.54
280.57	3162.06
280.79	2940.88
281.00	2742.23
281.22	2863.06
281.43	3217.36
281.65	2584.54
281.86	2779.09
282.08	3074.00
282.29	3280.85
282.51	2674.65
282.73	2709.46
282.94	2680.79
283.16	3121.10
283.37	2885.59
283.59	2828.24
283.80	3041.23
284.02	3004.37
284.23	2803.67
284.45	2752.47
284.66	2818.00
284.88	2856.92
285.09	2723.80
285.31	2887.64
285.52	2967.51
285.74	2676.70
285.95	2932.69
286.17	2906.07
286.38	3188.69
286.60	2877.40
286.81	2760.66
287.03	2805.72
287.24	2951.12
287.46	3119.06
287.67	2926.55
287.89	2967.51
288.10	2895.83
288.32	3010.51
288.53	3020.75
288.75	2807.77
288.96	3133.39
289.18	2791.38
289.39	2707.41
289.61	2895.83
289.82	3391.44
290.04	3338.19
290.25	2758.61
290.47	2836.44
290.68	2942.93
290.90	3137.49
291.11	2592.73
291.33	2924.50
291.54	2838.48
291.76	2895.83
291.97	2930.64
292.18	2844.63
292.40	2916.31
292.61	2885.59
292.83	2971.60
293.04	2867.16
293.26	3057.62
293.47	2934.74
293.69	2801.62
293.90	2695.13
294.12	3176.40
294.33	2990.03
294.55	2820.05
294.76	2949.08
294.97	3246.03
295.19	3330.00
295.40	2736.09
295.62	2858.96
295.83	3141.58
296.05	2889.68
296.26	3008.47
296.48	2781.14
296.69	3002.32
296.90	2975.70
297.12	2897.88
297.33	2961.36
297.55	2914.26
297.76	3049.43
297.98	2936.79
298.19	2942.93
298.41	2947.03
298.62	2775.00
298.83	2938.84
299.05	2846.68
299.26	2883.54
299.48	2781.14
299.69	2891.73
299.90	2789.33
300.12	2809.81
300.33	3061.71
300.55	2809.81
300.76	2820.05
300.98	2818.00
301.19	3088.34
301.40	2748.37
301.62	2777.05
301.83	3139.54
302.05	3004.37
302.26	2756.57
302.47	2904.02
302.69	2791.38
302.90	3014.61
303.12	2527.19
303.33	2957.27
303.54	3346.38
303.76	2918.36
303.97	2742.23
304.19	3020.75
304.40	2858.96
304.61	3094.48
304.83	2895.83
305.04	2885.59
305.26	3008.47
305.47	2828.24
305.68	2799.57
305.90	2684.89
306.11	3119.06
306.33	2826.20
306.54	2734.04
306.75	2766.81
306.97	2666.46
307.18	2795.48
307.39	2721.75
307.61	2840.53
307.82	2969.55
308.04	3090.38
308.25	2672.60
308.46	2928.60
308.68	3012.56
308.89	2947.03
309.10	2971.60
309.32	2899.92
309.53	3016.66
309.74	3112.91
309.96	2713.56
310.17	2920.40
310.39	2830.29
310.60	3098.58
310.81	2828.24
311.03	2717.65
311.24	2994.13
311.45	3010.51
311.67	3018.71
311.88	2867.16
312.09	2791.38
312.31	2838.48
312.52	2779.09
312.73	2717.65
312.95	2760.66
313.16	2783.19
313.37	2936.79
313.59	2955.22
313.80	3223.50
314.01	3268.56
314.23	2777.05
314.44	2744.28
314.65	2748.37
314.87	2764.76
315.08	2779.09
315.29	2844.63
315.51	2764.76
315.72	2787.29
315.93	2883.54
316.15	2828.24
316.36	2877.40
316.57	2971.60
316.79	2770.90
317.00	2779.09
317.21	3024.85
317.43	2861.01
317.64	2811.86
317.85	2750.42
318.07	2848.72
318.28	2936.79
318.49	2938.84
318.70	2953.17
318.92	3035.09
319.13	3057.62
319.34	3026.90
319.56	2906.07
319.77	3106.77
319.98	3117.01
320.20	3059.67
320.41	3010.51
320.62	3100.62
320.83	2742.23
321.05	3030.99
321.26	2885.59
321.47	3022.80
321.69	3172.30
321.90	2734.04
322.11	2740.18
322.32	2953.17
322.54	3229.65
322.75	2742.23
322.96	3583.95
323.18	2742.23
323.39	2725.85
323.60	2695.13
323.81	2881.49
324.03	2889.68
324.24	3043.28
324.45	2891.73
324.66	2756.57
324.88	3176.40
325.09	3192.78
325.30	2852.82
325.52	2758.61
325.73	2996.18
325.94	2764.76
326.15	2717.65
326.37	2695.13
326.58	3168.21
326.79	3286.99
327.00	2811.86
327.22	2789.33
327.43	2967.51
327.64	2856.92
327.85	2947.03
328.07	2871.25
328.28	3377.10
328.49	2897.88
328.70	2848.72
328.92	2813.91
329.13	2985.94
329.34	3092.43
329.55	3014.61
329.76	2926.55
329.98	2953.17
330.19	3155.92
330.40	2955.22
330.61	2953.17
330.83	3098.58
331.04	2846.68
331.25	2908.12
331.46	2805.72
331.68	2826.20
331.89	3205.07
332.10	2842.58
332.31	2668.50
332.52	3012.56
332.74	3098.58
332.95	2682.84
333.16	2731.99
333.37	3082.19
333.58	2877.40
333.80	2783.19
334.01	2625.50
334.22	2957.27
334.43	2897.88
334.64	2781.14
334.86	2785.24
335.07	2863.06
335.28	3213.26
335.49	2662.36
335.70	2805.72
335.92	3272.65
336.13	3409.87
336.34	2942.93
336.55	2830.29
336.76	3020.75
336.98	2664.41
337.19	2762.71
337.40	2901.97
337.61	3469.26
337.82	2908.12
338.04	2873.30
338.25	2625.50
338.46	2971.60
338.67	3008.47
338.88	2713.56
339.09	2756.57
339.31	2912.21
339.52	2744.28
339.73	2764.76
339.94	2873.30
340.15	3110.86
340.36	2885.59
340.58	2865.11
340.79	2721.75
341.00	3041.23
341.21	2746.33
341.42	2938.84
341.63	2813.91
341.85	3174.35
342.06	3039.19
342.27	2770.90
342.48	2938.84
342.69	2731.99
342.90	3088.34
343.12	3037.14
343.33	2760.66
343.54	3080.14
343.75	3313.61
343.96	2893.78
344.17	2734.04
344.38	2971.60
344.60	2830.29
344.81	2709.46
345.02	2826.20
345.23	3200.98
345.44	3364.81
345.65	2826.20
345.86	2932.69
346.07	2944.98
346.29	2877.40
346.50	2949.08
346.71	2885.59
346.92	3282.89
347.13	3301.33
347.34	2893.78
347.55	2709.46
347.76	3141.58
347.98	2709.46
348.19	2852.82
348.40	3030.99
348.61	2955.22
348.82	3217.36
349.03	2910.16
349.24	2772.95
349.45	3221.45
349.66	2695.13
349.88	2807.77
350.09	2744.28
350.30	3278.80
350.51	3143.63
350.72	3014.61
350.93	2754.52
351.14	2955.22
351.35	3053.52
351.56	2848.72
351.77	2738.13
351.99	3076.05
352.20	3270.61
352.41	2934.74
352.62	2627.54
352.83	2906.07
353.04	2965.46
353.25	2828.24
353.46	2858.96
353.67	3110.86
353.88	2715.61
354.09	2766.81
354.30	2822.10
354.52	3147.73
354.73	2996.18
354.94	2801.62
355.15	2775.00
355.36	3381.20
355.57	2949.08
355.78	2797.53
355.99	2777.05
356.20	2942.93
356.41	3180.50
356.62	2828.24
356.83	2916.31
357.04	3213.26
357.25	2684.89
357.46	2805.72
357.68	2658.26
357.89	2828.24
358.10	2885.59
358.31	2826.20
358.52	2820.05
358.73	2801.62
358.94	2770.90
359.15	2791.38
359.36	2910.16
359.57	3028.95
359.78	2961.36
359.99	2951.12
360.20	2715.61
360.41	3033.04
360.62	3024.85
360.83	2873.30
361.04	2795.48
361.25	3004.37
361.46	3192.78
361.67	2912.21
361.88	2832.34
362.09	3063.76
362.30	2987.99
362.51	2703.32
362.72	2834.39
362.93	3133.39
363.14	3094.48
363.35	2889.68
363.56	2750.42
363.78	3225.55
363.99	3110.86
364.20	2834.39
364.41	3004.37
364.62	3336.14
364.83	3080.14
365.04	2832.34
365.25	2858.96
365.46	3235.79
365.67	2867.16
365.88	2867.16
366.09	2809.81
366.30	2963.41
366.51	2975.70
366.72	2736.09
366.93	2734.04
367.14	2998.23
367.35	3133.39
367.56	2768.85
367.77	2971.60
367.98	2975.70
368.18	3102.67
368.39	2910.16
368.60	2738.13
368.81	3092.43
369.02	3049.43
369.23	2813.91
369.44	2578.39
369.65	2885.59
369.86	3037.14
370.07	2897.88
370.28	2756.57
370.49	3067.86
370.70	3090.38
370.91	2717.65
371.12	2580.44
371.33	3137.49
371.54	2820.05
371.75	2904.02
371.96	2605.02
372.17	3028.95
372.38	2879.44
372.59	2858.96
372.80	2736.09
373.01	2977.75
373.22	2951.12
373.43	2781.14
373.64	2734.04
373.85	3164.11
374.06	3237.84
374.26	3033.04
374.47	2832.34
374.68	3252.17
374.89	2992.08
375.10	2805.72
375.31	2912.21
375.52	3004.37
375.73	2947.03
375.94	2631.64
376.15	2904.02
376.36	2877.40
376.57	2883.54
376.78	2858.96
376.99	2846.68
377.20	3139.54
377.40	2879.44
377.61	3045.33
377.82	2789.33
378.03	3162.06
378.24	3082.19
378.45	2836.44
378.66	2844.63
378.87	2697.17
379.08	2705.37
379.29	2883.54
379.50	2947.03
379.71	2967.51
379.91	3045.33
380.12	2818.00
380.33	2844.63
380.54	2992.08
380.75	2873.30
380.96	2811.86
381.17	2846.68
381.38	2969.55
381.59	2916.31
381.80	2783.19
382.00	3000.27
382.21	2998.23
382.42	3340.24
382.63	3203.02
382.84	2916.31
383.05	3166.16
383.26	3219.41
383.47	2979.79
383.68	2824.15
383.88	3076.05
384.09	3028.95
384.30	3094.48
384.51	2965.46
384.72	2824.15
384.93	2736.09
385.14	2951.12
385.35	3037.14
385.55	2729.94
385.76	3137.49
385.97	2834.39
386.18	2734.04
386.39	2877.40
386.60	2912.21
386.81	2789.33
387.02	2731.99
387.22	2746.33
387.43	3092.43
387.64	2887.64
387.85	3076.05
388.06	3059.67
388.27	3954.63
388.48	7219.09
388.68	10827.61
388.89	13428.53
389.10	14477.09
389.31	14122.79
389.52	11317.08
389.73	9887.59
389.93	8853.37
390.14	8265.60
390.35	7346.06
390.56	6692.76
390.77	5730.22
390.98	4298.69
391.18	3706.82
391.39	3424.20
391.60	2934.74
391.81	3112.91
392.02	2832.34
392.23	3405.77
392.43	3047.38
392.64	2955.22
392.85	2803.67
393.06	3289.04
393.27	3010.51
393.47	2793.43
393.68	2828.24
393.89	2928.60
394.10	3164.11
394.31	2756.57
394.52	2822.10
394.72	2768.85
394.93	3180.50
395.14	2795.48
395.35	2942.93
395.56	2818.00
395.76	3004.37
395.97	2754.52
396.18	3004.37
396.39	3049.43
396.60	3504.07
396.80	3151.82
397.01	3020.75
397.22	3117.01
397.43	3229.65
397.64	2789.33
397.84	2920.40
398.05	3293.13
398.26	2881.49
398.47	2955.22
398.67	2983.89
398.88	3033.04
399.09	3133.39
399.30	2834.39
399.51	2869.20
399.71	2899.92
399.92	2949.08
400.13	2996.18
400.34	2775.00
400.54	2953.17
400.75	3284.94
400.96	2975.70
401.17	3094.48
401.37	3149.78
401.58	2940.88
401.79	2805.72
402.00	2947.03
402.21	3401.68
402.41	3135.44
402.62	3108.82
402.83	3184.59
403.04	3403.72
403.24	3647.43
403.45	2920.40
403.66	3119.06
403.87	3225.55
404.07	3284.94
404.28	2979.79
404.49	3139.54
404.70	3094.48
404.90	3106.77
405.11	2793.43
405.32	3026.90
405.52	2879.44
405.73	2940.88
405.94	2752.47
406.15	2820.05
406.35	3047.38
406.56	3084.24
406.77	2922.45
406.98	2871.25
407.18	2832.34
407.39	3313.61
407.60	2815.96
407.80	2883.54
408.01	2953.17
408.22	3106.77
408.43	2746.33
408.63	2877.40
408.84	3209.17
409.05	3096.53
409.25	2731.99
409.46	2850.77
409.67	2904.02
409.88	2861.01
410.08	2877.40
410.29	2805.72
410.50	3035.09
410.70	3071.95
410.91	2748.37
411.12	2881.49
411.32	3049.43
411.53	2893.78
411.74	2918.36
411.95	2912.21
412.15	3012.56
412.36	3012.56
412.57	2965.46
412.77	3055.57
412.98	2957.27
413.19	2996.18
413.39	2908.12
413.60	2938.84
413.81	3180.50
414.01	2799.57
414.22	2887.64
414.43	2944.98
414.63	2918.36
414.84	3180.50
415.05	2867.16
415.25	2705.37
415.46	3071.95
415.67	2820.05
415.87	2861.01
416.08	2756.57
416.29	2934.74
416.49	3110.86
416.70	2846.68
416.91	2871.25
417.11	2981.84
417.32	3051.47
417.53	3024.85
417.73	2916.31
417.94	3035.09
418.15	3026.90
418.35	2856.92
418.56	2920.40
418.77	3407.82
418.97	3024.85
419.18	2928.60
419.38	2596.82
419.59	2969.55
419.80	3346.38
420.00	2775.00
420.21	2871.25
420.42	3121.10
420.62	3084.24
420.83	2858.96
421.04	2863.06
421.24	2916.31
421.45	3125.20
421.65	2830.29
421.86	2742.23
422.07	3194.83
422.27	3016.66
422.48	2852.82
422.69	2738.13
422.89	2998.23
423.10	2934.74
423.30	2742.23
423.51	2912.21
423.72	3160.02
423.92	3131.34
424.13	2701.27
424.33	2832.34
424.54	3127.25
424.75	3049.43
424.95	3108.82
425.16	2779.09
425.36	2873.30
425.57	3166.16
425.78	2930.64
425.98	2949.08
426.19	2942.93
426.39	2883.54
426.60	2932.69
426.81	2967.51
427.01	3016.66
427.22	2899.92
427.42	2590.68
427.63	2785.24
427.83	3223.50
428.04	3389.39
428.25	2977.75
428.45	2936.79
428.66	3147.73
428.86	2973.65
429.07	2820.05
429.28	2881.49
429.48	3022.80
429.69	2828.24
429.89	2947.03
430.10	2756.57
430.30	3139.54
430.51	3147.73
430.71	2799.57
430.92	2809.81
431.13	2924.50
431.33	3086.29
431.54	2852.82
431.74	3127.25
431.95	3383.24
432.15	2809.81
432.36	2949.08
432.56	2881.49
432.77	3379.15
432.98	3297.23
433.18	2930.64
433.39	2785.24
433.59	2908.12
433.80	3284.94
434.00	3039.19
434.21	2842.58
434.41	2889.68
434.62	3405.77
434.82	2783.19
435.03	2709.46
435.23	3065.81
435.44	2672.60
435.64	2852.82
435.85	2848.72
436.06	3057.62
436.26	3221.45
436.47	2781.14
436.67	2775.00
436.88	2926.55
437.08	3166.16
437.29	3014.61
437.49	2936.79
437.70	3160.02
437.90	3008.47
438.11	3063.76
438.31	2971.60
438.52	3235.79
438.72	3182.54
438.93	3221.45
439.13	2979.79
439.34	3061.71
439.54	2838.48
439.75	2924.50
439.95	2844.63
440.16	2789.33
440.36	2908.12
440.57	2885.59
440.77	2852.82
440.98	2947.03
441.18	3061.71
441.39	2807.77
441.59	2695.13
441.80	3346.38
442.00	2940.88
442.21	2912.21
442.41	2672.60
442.62	3123.15
442.82	2926.55
443.02	2768.85
443.23	2828.24
443.43	2883.54
443.64	3211.22
443.84	2750.42
444.05	2953.17
444.25	2934.74
444.46	2934.74
444.66	2793.43
444.87	3074.00
445.07	2783.19
445.28	2891.73
445.48	3047.38
445.69	2971.60
445.89	3407.82
446.09	3018.71
446.30	3119.06
446.50	3166.16
446.71	4704.18
446.91	5705.64
447.12	6508.44
447.32	7038.87
447.53	6752.15
447.73	5744.55
447.93	4958.13
448.14	4859.83
448.34	4794.29
448.55	4014.02
448.75	4036.55
448.96	3790.79
449.16	3606.47
449.36	3540.94
449.57	3100.62
449.77	2875.35
449.98	2920.40
450.18	3133.39
450.39	2899.92
450.59	3002.32
450.79	3067.86
451.00	2869.20
451.20	3018.71
451.41	2834.39
451.61	3004.37
451.81	2916.31
452.02	2805.72
452.22	2791.38
452.43	2942.93
452.63	2772.95
452.84	2901.97
453.04	2836.44
453.24	3012.56
453.45	2887.64
453.65	2922.45
453.86	2912.21
454.06	2987.99
454.26	2951.12
454.47	2756.57
454.67	3051.47
454.87	3086.29
455.08	2930.64
455.28	3037.14
455.49	2930.64
455.69	2865.11
455.89	3352.52
456.10	2977.75
456.30	2770.90
456.51	3035.09
456.71	3049.43
456.91	2951.12
457.12	2844.63
457.32	3098.58
457.52	2744.28
457.73	3084.24
457.93	3055.57
458.14	2861.01
458.34	2738.13
458.54	2873.30
458.75	2781.14
458.95	3162.06
459.15	3119.06
459.36	2895.83
459.56	2832.34
459.76	3397.58
459.97	2930.64
460.17	2850.77
460.37	3049.43
460.58	3039.19
460.78	3039.19
460.99	2858.96
461.19	2844.63
461.39	2936.79
461.60	2928.60
461.80	2858.96
462.00	2779.09
462.21	2967.51
462.41	2838.48
462.61	2697.17
462.82	2670.55
463.02	3110.86
463.22	3016.66
463.43	2922.45
463.63	2824.15
463.83	3289.04
464.04	3063.76
464.24	2858.96
464.44	2787.29
464.64	2977.75
464.85	3164.11
465.05	2916.31
465.25	2779.09
465.46	2883.54
465.66	3110.86
465.86	2871.25
466.07	2838.48
466.27	2967.51
466.47	2793.43
466.68	2668.50
466.88	2990.03
467.08	3055.57
467.29	3213.26
467.49	2877.40
467.69	2985.94
467.89	3024.85
468.10	2938.84
468.30	2926.55
468.50	3022.80
468.71	3090.38
468.91	2766.81
469.11	3053.52
469.31	2916.31
469.52	2850.77
469.72	3241.93
469.92	3143.63
470.13	2766.81
470.33	3020.75
470.53	3067.86
470.73	3221.45
470.94	3577.80
471.14	3688.39
471.34	4100.03
471.54	3794.89
471.75	3590.09
471.95	3342.28
472.15	3299.28
472.36	3364.81
472.56	3164.11
472.76	3465.16
472.96	3377.10
473.17	3043.28
473.37	2932.69
473.57	2924.50
473.77	3110.86
473.98	2910.16
474.18	2752.47
474.38	3526.60
474.58	2828.24
474.79	2758.61
474.99	2904.02
475.19	3219.41
475.39	2840.53
475.60	2887.64
475.80	2832.34
476.00	2963.41
476.20	2947.03
476.41	2961.36
476.61	2920.40
476.81	3213.26
477.01	2897.88
477.21	3067.86
477.42	2977.75
477.62	2914.26
477.82	3121.10
478.02	2875.35
478.23	2930.64
478.43	2881.49
478.63	2885.59
478.83	2906.07
479.03	2879.44
479.24	3223.50
479.44	3401.68
479.64	2775.00
479.84	2664.41
480.04	2906.07
480.25	3180.50
480.45	2787.29
480.65	2869.20
480.85	3219.41
481.06	2928.60
481.26	2920.40
481.46	2834.39
481.66	3182.54
481.86	2889.68
482.06	2998.23
482.27	2865.11
482.47	2996.18
482.67	3057.62
482.87	2826.20
483.07	2955.22
483.28	2920.40
483.48	2805.72
483.68	2856.92
483.88	2684.89
484.08	2656.22
484.29	2832.34
484.49	2881.49
484.69	2594.78
484.89	3305.42
485.09	3112.91
485.29	2877.40
485.50	2963.41
485.70	2840.53
485.90	3235.79
486.10	3037.14
486.30	2807.77
486.50	3143.63
486.71	3074.00
486.91	2947.03
487.11	2992.08
487.31	2707.41
487.51	3082.19
487.71	2815.96
487.91	2740.18
488.12	2910.16
488.32	2609.11
488.52	2797.53
488.72	2533.34
488.92	2922.45
489.12	3203.02
489.32	3010.51
489.53	2844.63
489.73	2727.89
489.93	3225.55
490.13	2871.25
490.33	2688.98
490.53	3012.56
490.73	3157.97
490.94	2734.04
491.14	2957.27
491.34	3225.55
491.54	3166.16
491.74	3678.15
491.94	4110.27
492.14	4601.79
492.34	4736.95
492.54	4298.69
492.75	3829.70
492.95	3841.99
493.15	3739.59
493.35	3510.22
493.55	3405.77
493.75	3360.72
493.95	3520.46
494.15	3125.20
494.35	2897.88
494.56	2992.08
494.76	2928.60
494.96	2998.23
495.16	2787.29
495.36	2981.84
495.56	3084.24
495.76	2875.35
495.96	2781.14
496.16	2760.66
496.36	3416.01
496.56	2844.63
496.77	2918.36
496.97	2990.03
497.17	3184.59
497.37	2697.17
497.57	2871.25
497.77	2955.22
497.97	2787.29
498.17	2889.68
498.37	2852.82
498.57	3147.73
498.77	2957.27
498.97	3004.37
499.17	3127.25
499.38	2897.88
499.58	3074.00
499.78	3035.09
499.98	2998.23
500.18	2938.84
500.38	2793.43
500.58	3067.86
500.78	3323.85
500.98	5476.27
501.18	7251.86
501.38	8796.03
501.58	9678.70
501.78	9496.43
501.98	7933.83
502.18	6764.44
502.38	5836.71
502.58	5689.26
502.78	5072.82
502.98	4865.97
503.18	4640.70
503.38	4364.22
503.59	3780.55
503.79	3760.07
503.99	3413.96
504.19	3438.54
504.39	3518.41
504.59	3286.99
504.79	3274.70
504.99	3514.31
505.19	3162.06
505.39	2983.89
505.59	3151.82
505.79	3295.18
505.99	3200.98
506.19	2848.72
506.39	3131.34
506.59	2904.02
506.79	2977.75
506.99	2987.99
507.19	2883.54
507.39	3057.62
507.59	2785.24
507.79	2783.19
507.99	2826.20
508.19	3123.15
508.39	2920.40
508.59	2887.64
508.79	2863.06
508.99	3346.38
509.19	2828.24
509.39	2934.74
509.59	2779.09
509.79	2846.68
509.99	2979.79
510.19	2981.84
510.39	2996.18
510.59	3037.14
510.79	2836.44
510.99	2637.78
511.19	2858.96
511.39	3274.70
511.59	3211.22
511.79	2967.51
511.99	2861.01
512.19	3354.57
512.38	3037.14
512.58	2770.90
512.78	2809.81
512.98	3250.13
513.18	3274.70
513.38	2772.95
513.58	2920.40
513.78	2912.21
513.98	2936.79
514.18	2906.07
514.38	2893.78
514.58	3143.63
514.78	2828.24
514.98	2744.28
515.18	2842.58
515.38	2834.39
515.58	3330.00
515.78	2770.90
515.98	2873.30
516.18	3053.52
516.38	2994.13
516.57	2801.62
516.77	2883.54
516.97	2987.99
517.17	2893.78
517.37	2621.40
517.57	2992.08
517.77	2985.94
517.97	2785.24
518.17	2934.74
518.37	2779.09
518.57	2861.01
518.77	2920.40
518.97	2879.44
519.16	2887.64
519.36	3162.06
519.56	2920.40
519.76	2836.44
519.96	2947.03
520.16	3293.13
520.36	2826.20
520.56	3043.28
520.76	2754.52
520.96	2936.79
521.16	3080.14
521.35	3071.95
521.55	2930.64
521.75	2975.70
521.95	2912.21
522.15	2791.38
522.35	2676.70
522.55	2889.68
522.75	3139.54
522.95	2723.80
523.14	2672.60
523.34	3078.10
523.54	2883.54
523.74	2899.92
523.94	2918.36
524.14	2725.85
524.34	3008.47
524.54	3026.90
524.73	2811.86
524.93	3039.19
525.13	2951.12
525.33	2760.66
525.53	3047.38
525.73	3108.82
525.93	3051.47
526.13	2840.53
526.32	2795.48
526.52	3135.44
526.72	3170.26
526.92	2971.60
527.12	2906.07
527.32	2750.42
527.52	3106.77
527.71	2824.15
527.91	2889.68
528.11	2850.77
528.31	2994.13
528.51	2815.96
528.71	2938.84
528.90	3074.00
529.10	3205.07
529.30	2897.88
529.50	2584.54
529.70	3084.24
529.90	2981.84
530.09	2877.40
530.29	2824.15
530.49	2863.06
530.69	3366.86
530.89	3016.66
531.09	3006.42
531.28	2910.16
531.48	3164.11
531.68	2906.07
531.88	2785.24
532.08	3166.16
532.28	2949.08
532.47	3049.43
532.67	3016.66
532.87	3080.14
533.07	2834.39
533.27	2924.50
533.46	2852.82
533.66	2949.08
533.86	2951.12
534.06	2934.74
534.26	2873.30
534.45	2895.83
534.65	3112.91
534.85	2963.41
535.05	2809.81
535.25	3168.21
535.44	2772.95
535.64	2908.12
535.84	2914.26
536.04	2871.25
536.24	2904.02
536.43	2783.19
536.63	2858.96
536.83	2957.27
537.03	3000.27
537.22	2686.94
537.42	2684.89
537.62	2955.22
537.82	2834.39
538.02	2987.99
538.21	2969.55
538.41	3426.25
538.61	3151.82
538.81	2883.54
539.00	3063.76
539.20	2813.91
539.40	2924.50
539.60	2879.44
539.79	2963.41
539.99	3047.38
540.19	2826.20
540.39	2830.29
540.58	2924.50
540.78	3137.49
540.98	2961.36
541.18	3012.56
541.37	2930.64
541.57	3043.28
541.77	3092.43
541.97	2711.51
542.16	2750.42
542.36	2938.84
542.56	2881.49
542.76	3131.34
542.95	2947.03
543.15	3051.47
543.35	3112.91
543.54	2818.00
543.74	2734.04
543.94	3170.26
544.14	2922.45
544.33	2949.08
544.53	2850.77
544.73	2961.36
544.93	2975.70
545.12	2799.57
545.32	2854.87
545.52	2987.99
545.71	2852.82
545.91	2838.48
546.11	2789.33
546.30	2824.15
546.50	2981.84
546.70	2936.79
546.90	2867.16
547.09	2727.89
547.29	2967.51
547.49	3022.80
547.68	2934.74
547.88	2881.49
548.08	3088.34
548.27	3178.45
548.47	2775.00
548.67	2846.68
548.87	3166.16
549.06	2826.20
549.26	2787.29
549.46	3041.23
549.65	2850.77
549.85	2893.78
550.05	2848.72
550.24	2766.81
550.44	3078.10
550.64	2838.48
550.83	2955.22
551.03	3186.64
551.23	3096.53
551.42	2901.97
551.62	2947.03
551.82	2936.79
552.01	2885.59
552.21	3104.72
552.41	2951.12
552.60	3250.13
552.80	2953.17
553.00	2897.88
553.19	2895.83
553.39	3205.07
553.59	2744.28
553.78	2990.03
553.98	2820.05
554.17	2766.81
554.37	3024.85
554.57	2987.99
554.76	2723.80
554.96	2922.45
555.16	3022.80
555.35	2949.08
555.55	3018.71
555.75	2979.79
555.94	3112.91
556.14	2684.89
556.33	2920.40
556.53	2889.68
556.73	3028.95
556.92	2910.16
557.12	2871.25
557.32	3319.76
557.51	3219.41
557.71	2914.26
557.90	3043.28
558.10	3196.88
558.30	2850.77
558.49	2932.69
558.69	2820.05
558.88	3000.27
559.08	3051.47
559.28	2867.16
559.47	2873.30
559.67	3174.35
559.86	3383.24
560.06	2795.48
560.26	2797.53
560.45	3098.58
560.65	2959.31
560.84	3026.90
561.04	2764.76
561.24	2996.18
561.43	2871.25
561.63	3157.97
561.82	2990.03
562.02	3182.54
562.22	2803.67
562.41	2744.28
562.61	2791.38
562.80	2865.11
563.00	3446.73
563.19	2867.16
563.39	2985.94
563.59	3184.59
563.78	2901.97
563.98	2650.07
564.17	2828.24
564.37	2641.88
564.56	3018.71
564.76	2789.33
564.96	3004.37
565.15	3166.16
565.35	3344.33
565.54	2865.11
565.74	2920.40
565.93	3057.62
566.13	3020.75
566.32	2994.13
566.52	2998.23
566.71	2965.46
566.91	3147.73
567.11	2987.99
567.30	2768.85
567.50	3082.19
567.69	2920.40
567.89	2854.87
568.08	2815.96
568.28	3051.47
568.47	2688.98
568.67	2865.11
568.86	2803.67
569.06	3147.73
569.25	2947.03
569.45	2701.27
569.64	2879.44
569.84	2918.36
570.04	3049.43
570.23	2803.67
570.43	2848.72
570.62	3065.81
570.82	3266.51
571.01	2805.72
571.21	2756.57
571.40	2754.52
571.60	3162.06
571.79	2963.41
571.99	2951.12
572.18	2801.62
572.38	3024.85
572.57	2803.67
572.77	2942.93
572.96	3450.83
573.16	3002.32
573.35	2863.06
573.55	2977.75
573.74	2985.94
573.94	2983.89
574.13	2799.57
574.33	3014.61
574.52	3166.16
574.71	2961.36
574.91	2947.03
575.10	2688.98
575.30	2787.29
575.49	2908.12
575.69	2813.91
575.88	2832.34
576.08	2906.07
576.27	3129.30
576.47	2801.62
576.66	3059.67
576.86	3233.74
577.05	2981.84
577.25	2918.36
577.44	3100.62
577.64	2990.03
577.83	3190.74
578.02	2824.15
578.22	2940.88
578.41	3258.32
578.61	2959.31
578.80	2793.43
579.00	2836.44
579.19	3006.42
579.39	3082.19
579.58	2918.36
579.77	2885.59
579.97	3178.45
580.16	3131.34
580.36	3096.53
580.55	2944.98
580.75	3035.09
580.94	3012.56
581.13	3104.72
581.33	3061.71
581.52	2912.21
581.72	3301.33
581.91	2992.08
582.11	2875.35
582.30	3137.49
582.49	3100.62
582.69	3082.19
582.88	2893.78
583.08	3022.80
583.27	3186.64
583.47	2924.50
583.66	2818.00
583.85	2836.44
584.05	2949.08
584.24	2961.36
584.44	2887.64
584.63	3164.11
584.82	3141.58
585.02	3129.30
585.21	2961.36
585.41	3117.01
585.60	3006.42
585.79	3157.97
585.99	3100.62
586.18	3074.00
586.37	3813.32
586.57	5787.56
586.76	16574.21
586.96	35696.10
587.15	48813.34
587.34	57296.02
587.54	61348.95
587.73	54903.99
587.93	39015.85
588.12	29453.89
588.31	24266.38
588.51	21092.03
588.70	19750.61
588.89	17454.84
589.09	14796.57
589.28	12527.42
589.47	10020.71
589.67	7477.13
589.86	5996.45
590.06	4571.07
590.25	4077.51
590.44	3483.59
590.64	3241.93
590.83	3250.13
591.02	3342.28
591.22	2805.72
591.41	2944.98
591.60	2967.51
591.80	3456.97
591.99	2758.61
592.18	2842.58
592.38	3215.31
592.57	2858.96
592.76	2805.72
592.96	2992.08
593.15	2897.88
593.34	3147.73
593.54	2881.49
593.73	2987.99
593.92	3010.51
594.12	2963.41
594.31	2947.03
594.50	3024.85
594.70	3065.81
594.89	3549.13
595.08	2764.76
595.28	2985.94
595.47	3502.03
595.66	3047.38
595.86	2795.48
596.05	2770.90
596.24	2934.74
596.43	3356.62
596.63	3041.23
596.82	2985.94
597.01	3100.62
597.21	3235.79
597.40	2906.07
597.59	2912.21
597.79	2951.12
597.98	3086.29
598.17	2955.22
598.36	2934.74
598.56	3117.01
598.75	2936.79
598.94	2932.69
599.14	2969.55
599.33	2899.92
599.52	3100.62
599.71	2955.22
599.91	2815.96
600.10	3127.25
600.29	3024.85
600.48	2922.45
600.68	2932.69
600.87	3053.52
601.06	2869.20
601.26	2908.12
601.45	2906.07
601.64	2951.12
601.83	3209.17
602.03	2818.00
602.22	2744.28
602.41	3274.70
602.60	3440.59
602.80	2992.08
602.99	3000.27
603.18	2861.01
603.37	3084.24
603.57	2740.18
603.76	2854.87
603.95	3162.06
604.14	2942.93
604.34	2762.71
604.53	2893.78
604.72	2971.60
604.91	3047.38
605.10	2895.83
605.30	2699.22
605.49	3346.38
605.68	3033.04
605.87	2895.83
606.07	2795.48
606.26	2983.89
606.45	3004.37
606.64	2867.16
606.84	2736.09
607.03	3004.37
607.22	3147.73
607.41	2803.67
607.60	2797.53
607.80	3196.88
607.99	2994.13
608.18	2973.65
608.37	2920.40
608.56	2910.16
608.76	3129.30
608.95	3059.67
609.14	2775.00
609.33	3082.19
609.52	3123.15
609.72	2965.46
609.91	3026.90
610.10	2998.23
610.29	3289.04
610.48	2990.03
610.68	3053.52
610.87	3014.61
611.06	3139.54
611.25	2842.58
611.44	2949.08
611.63	2914.26
611.83	3192.78
612.02	2760.66
612.21	3016.66
612.40	2662.36
612.59	2793.43
612.79	2736.09
612.98	2973.65
613.17	3248.08
613.36	2940.88
613.55	3028.95
613.74	2883.54
613.93	2973.65
614.13	3051.47
614.32	3071.95
614.51	2912.21
614.70	2994.13
614.89	2963.41
615.08	3051.47
615.28	3252.17
615.47	2830.29
615.66	3108.82
615.85	2875.35
616.04	2942.93
616.23	3035.09
616.42	2992.08
616.62	2858.96
616.81	2854.87
617.00	2969.55
617.19	3065.81
617.38	2873.30
617.57	2942.93
617.76	3018.71
617.95	3114.96
618.15	3018.71
618.34	3108.82
618.53	2748.37
618.72	3104.72
618.91	2979.79
619.10	2990.03
619.29	3061.71
619.48	3076.05
619.68	2754.52
619.87	2858.96
620.06	2772.95
620.25	3106.77
620.44	2795.48
620.63	2852.82
620.82	2942.93
621.01	3024.85
621.20	2901.97
621.39	2953.17
621.59	3090.38
621.78	2975.70
621.97	2863.06
622.16	2971.60
622.35	3063.76
622.54	3213.26
622.73	2879.44
622.92	2668.50
623.11	3160.02
623.30	2969.55
623.49	2922.45
623.68	2830.29
623.88	3160.02
624.07	2854.87
624.26	2826.20
624.45	2922.45
624.64	3033.04
624.83	3030.99
625.02	2863.06
625.21	2834.39
625.40	3067.86
625.59	3112.91
625.78	2930.64
625.97	2969.55
626.16	3198.93
626.35	3139.54
626.54	2918.36
626.74	3094.48
626.93	2922.45
627.12	2936.79
627.31	3004.37
627.50	2904.02
627.69	3100.62
627.88	2852.82
628.07	2764.76
628.26	2727.89
628.45	2869.20
628.64	2824.15
628.83	2893.78
629.02	2656.22
629.21	3082.19
629.40	3024.85
629.59	2809.81
629.78	2838.48
629.97	3012.56
630.16	2994.13
630.35	2832.34
630.54	2969.55
630.73	2818.00
630.92	2893.78
631.11	2797.53
631.30	2850.77
631.49	3080.14
631.68	2967.51
631.87	2938.84
632.06	2754.52
632.25	3373.00
632.44	2975.70
632.63	2883.54
632.82	2848.72
633.01	2887.64
633.20	3022.80
633.39	2852.82
633.58	2633.69
633.77	2973.65
633.96	3061.71
634.15	2998.23
634.34	3002.32
634.53	3098.58
634.72	2897.88
634.91	2703.32
635.10	2873.30
635.29	3108.82
635.48	3012.56
635.67	2779.09
635.86	2639.83
636.05	3233.74
636.24	2942.93
636.43	2746.33
636.62	2977.75
636.81	2615.26
637.00	2944.98
637.19	2813.91
637.38	2863.06
637.57	2944.98
637.76	2901.97
637.95	3047.38
638.14	2818.00
638.33	3004.37
638.52	2957.27
638.71	2740.18
638.89	2686.94
639.08	3389.39
639.27	3227.60
639.46	3035.09
639.65	3286.99
639.84	3370.96
640.03	3573.71
640.22	3248.08
640.41	3260.37
640.60	3045.33
640.79	3153.87
640.98	2977.75
641.17	3047.38
641.36	3268.56
641.55	3129.30
641.74	2680.79
641.92	2742.23
642.11	2836.44
642.30	2942.93
642.49	2799.57
642.68	2854.87
642.87	3059.67
643.06	3162.06
643.25	2727.89
643.44	2754.52
643.63	2971.60
643.82	3184.59
644.00	2731.99
644.19	2811.86
644.38	2830.29
644.57	3020.75
644.76	2805.72
644.95	2955.22
645.14	2940.88
645.33	2951.12
645.52	2967.51
645.71	2701.27
645.89	2822.10
646.08	2891.73
646.27	2912.21
646.46	3123.15
646.65	2760.66
646.84	2973.65
647.03	2746.33
647.22	2967.51
647.40	3006.42
647.59	2953.17
647.78	2670.55
647.97	2809.81
648.16	2820.05
648.35	3207.12
648.54	3076.05
648.73	2879.44
648.91	3114.96
649.10	2992.08
649.29	2822.10
649.48	2846.68
649.67	3020.75
649.86	2981.84
650.05	2836.44
650.23	3108.82
650.42	2863.06
650.61	3229.65
650.80	3153.87
650.99	3200.98
651.18	3209.17
651.36	3145.68
651.55	2785.24
651.74	3010.51
651.93	2985.94
652.12	2969.55
652.31	2893.78
652.49	2863.06
652.68	2955.22
652.87	3229.65
653.06	2963.41
653.25	3155.92
653.44	2934.74
653.62	3299.28
653.81	2867.16
654.00	2846.68
654.19	3139.54
654.38	3311.57
654.56	2979.79
654.75	2893.78
654.94	3215.31
655.13	3065.81
655.32	2795.48
655.51	2910.16
655.69	2926.55
655.88	3067.86
656.07	2750.42
656.26	2881.49
656.45	2750.42
656.63	3096.53
656.82	2854.87
657.01	3149.78
657.20	2947.03
657.38	3274.70
657.57	2850.77
657.76	2705.37
657.95	3176.40
658.14	2838.48
658.32	3051.47
658.51	2701.27
658.70	3008.47
658.89	3090.38
659.08	2858.96
659.26	3047.38
659.45	2717.65
659.64	3084.24
659.83	2840.53
660.01	3239.89
660.20	2998.23
660.39	3299.28
660.58	2615.26
660.76	2922.45
660.95	2777.05
661.14	2947.03
661.33	2705.37
661.51	2879.44
661.70	2893.78
661.89	3045.33
662.08	2881.49
662.26	2680.79
662.45	2766.81
662.64	3368.91
662.83	2901.97
663.01	2736.09
663.20	2918.36
663.39	3196.88
663.58	2815.96
663.76	2815.96
663.95	3035.09
664.14	2838.48
664.32	2873.30
664.51	2750.42
664.70	2701.27
664.89	3039.19
665.07	2703.32
665.26	2971.60
665.45	2820.05
665.64	3135.44
665.82	2877.40
666.01	2899.92
666.20	2826.20
666.38	3074.00
666.57	3151.82
666.76	4782.01
666.95	11013.98
667.13	17852.14
667.32	21307.07
667.51	24192.65
667.69	24917.64
667.88	21096.13
668.07	15386.39
668.25	13066.04
668.44	11052.89
668.63	9709.42
668.81	8464.25
669.00	7272.34
669.19	6772.63
669.38	5662.63
669.56	5146.55
669.75	4511.68
669.94	3960.77
670.12	3497.93
670.31	3180.50
670.50	3086.29
670.68	3133.39
670.87	3131.34
671.06	2846.68
671.24	2934.74
671.43	3260.37
671.62	2867.16
671.80	2910.16
671.99	2963.41
672.18	2994.13
672.36	3143.63
672.55	2998.23
672.74	2840.53
672.92	2912.21
673.11	3098.58
673.29	2717.65
673.48	2969.55
673.67	3037.14
673.85	3053.52
674.04	2785.24
674.23	2904.02
674.41	3317.71
674.60	2815.96
674.79	2703.32
674.97	2815.96
675.16	3094.48
675.34	3141.58
675.53	2805.72
675.72	2965.46
675.90	3301.33
676.09	2848.72
676.28	2924.50
676.46	2715.61
676.65	3088.34
676.83	2830.29
677.02	2856.92
677.21	2969.55
677.39	2973.65
677.58	2840.53
677.77	2875.35
677.95	2760.66
678.14	2885.59
678.32	2963.41
678.51	2844.63
678.70	3243.98
678.88	2949.08
679.07	2967.51
679.25	2865.11
679.44	2861.01
679.63	2764.76
679.81	2977.75
680.00	3053.52
680.18	2977.75
680.37	3418.06
680.55	2990.03
680.74	2688.98
680.93	2551.77
681.11	3131.34
681.30	2922.45
681.48	2844.63
681.67	2799.57
681.85	3022.80
682.04	2766.81
682.23	2971.60
682.41	3043.28
682.60	2938.84
682.78	2969.55
682.97	2754.52
683.15	2873.30
683.34	3084.24
683.53	3198.93
683.71	2660.31
683.90	2969.55
684.08	3344.33
684.27	2820.05
684.45	2908.12
684.64	3008.47
684.82	2979.79
685.01	3069.91
685.19	2854.87
685.38	3112.91
685.57	3014.61
685.75	2803.67
685.94	2779.09
686.12	2723.80
686.31	2863.06
686.49	3311.57
686.68	2627.54
686.86	2947.03
687.05	2953.17
687.23	3239.89
687.42	2813.91
687.60	2654.17
687.79	3166.16
687.97	3241.93
688.16	2965.46
688.34	3030.99
688.53	2617.30
688.71	3147.73
688.90	3045.33
689.08	2848.72
689.27	2656.22
689.45	3153.87
689.64	2983.89
689.82	2887.64
690.01	3045.33
690.19	3053.52
690.38	2846.68
690.56	2992.08
690.75	2836.44
690.93	2934.74
691.12	2815.96
691.30	2893.78
691.49	2922.45
691.67	3055.57
691.86	3211.22
692.04	2852.82
692.23	2912.21
692.41	3014.61
692.60	3178.45
692.78	2985.94
692.97	2938.84
693.15	3110.86
693.34	3053.52
693.52	3082.19
693.71	2836.44
693.89	2885.59
694.08	2731.99
694.26	2852.82
694.44	3117.01
694.63	3102.67
694.81	2803.67
695.00	2775.00
695.18	3153.87
695.37	3416.01
695.55	2953.17
695.74	2848.72
695.92	2850.77
696.10	3266.51
696.29	2840.53
696.47	2756.57
696.66	2789.33
696.84	2791.38
697.03	2971.60
697.21	3039.19
697.40	4497.34
697.58	3176.40
697.76	2842.58
697.95	2809.81
698.13	2865.11
698.32	2930.64
698.50	2807.77
698.68	2904.02
698.87	3125.20
699.05	3223.50
699.24	2895.83
699.42	2779.09
699.61	2953.17
699.79	2922.45
699.97	2944.98
700.16	2725.85
700.34	2818.00
700.53	3082.19
700.71	3100.62
700.89	3024.85
701.08	2906.07
701.26	2959.31
701.45	3250.13
701.63	2822.10
701.81	2934.74
702.00	2893.78
702.18	2910.16
702.37	2842.58
702.55	3250.13
702.73	2965.46
702.92	2826.20
703.10	3196.88
703.28	3110.86
703.47	2834.39
703.65	3149.78
703.84	3061.71
704.02	2867.16
704.20	3207.12
704.39	2848.72
704.57	2824.15
704.75	3108.82
704.94	3026.90
705.12	2940.88
705.30	3481.55
705.49	6694.81
705.67	12918.59
705.86	18173.67
706.04	20512.46
706.22	22810.28
706.41	22060.72
706.59	16736.00
706.77	13197.11
706.96	11341.65
707.14	10432.35
707.32	9064.31
707.51	8025.99
707.69	6551.45
707.87	5410.73
708.06	4556.73
708.24	3950.53
708.42	3555.27
708.61	3678.15
708.79	2969.55
708.97	3014.61
709.16	3102.67
709.34	2981.84
709.52	2904.02
709.71	2863.06
709.89	3080.14
710.07	2791.38
710.26	2748.37
710.44	2830.29
710.62	3071.95
710.80	2951.12
710.99	2979.79
711.17	2985.94
711.35	2883.54
711.54	2916.31
711.72	3108.82
711.90	2953.17
712.09	3035.09
712.27	2832.34
712.45	2947.03
712.63	2783.19
712.82	2969.55
713.00	2992.08
713.18	3067.86
713.37	3014.61
713.55	3129.30
713.73	2998.23
713.91	2971.60
714.10	2910.16
714.28	2992.08
714.46	2951.12
714.65	2959.31
714.83	2910.16
715.01	3012.56
715.19	2936.79
715.38	2830.29
715.56	2983.89
715.74	2899.92
715.92	2791.38
716.11	3127.25
716.29	2617.30
716.47	2914.26
716.65	2910.16
716.84	2703.32
717.02	2955.22
717.20	2717.65
717.38	2852.82
717.57	2928.60
717.75	2922.45
717.93	2906.07
718.11	3053.52
718.30	2682.84
718.48	2897.88
718.66	3272.65
718.84	3157.97
719.03	2904.02
719.21	2688.98
719.39	3313.61
719.57	3024.85
719.75	2916.31
719.94	2717.65
720.12	2944.98
720.30	2994.13
720.48	2975.70
720.67	2885.59
720.85	2858.96
721.03	3004.37
721.21	2822.10
721.39	2981.84
721.58	3039.19
721.76	2963.41
721.94	2934.74
722.12	2920.40
722.30	3241.93
722.49	2844.63
722.67	2852.82
722.85	2887.64
723.03	2701.27
723.21	2910.16
723.40	2951.12
723.58	3035.09
723.76	3102.67
723.94	3248.08
724.12	2947.03
724.30	3071.95
724.49	3200.98
724.67	2895.83
724.85	2971.60
725.03	2703.32
725.21	3071.95
725.40	3186.64
725.58	2856.92
725.76	3094.48
725.94	3035.09
726.12	2840.53
726.30	2901.97
726.49	2830.29
726.67	2779.09
726.85	3063.76
727.03	3481.55
727.21	4317.12
727.39	5474.22
727.57	5883.81
727.76	6248.35
727.94	6383.52
728.12	5509.04
728.30	4644.79
728.48	4437.95
728.66	4181.95
728.84	4034.50
729.03	3514.31
729.21	3330.00
729.39	3192.78
729.57	3041.23
729.75	3106.77
729.93	2996.18
730.11	2818.00
730.30	2889.68
730.48	2887.64
730.66	2971.60
730.84	3010.51
731.02	3018.71
731.20	2850.77
731.38	3002.32
731.56	2725.85
731.74	2785.24
731.93	3000.27
732.11	2906.07
732.29	2828.24
732.47	3121.10
732.65	3061.71
732.83	3176.40
733.01	2967.51
733.19	2854.87
733.37	3086.29
733.56	2852.82
733.74	2793.43
733.92	3153.87
734.10	2914.26
734.28	3047.38
734.46	2764.76
734.64	2869.20
734.82	2887.64
735.00	2863.06
735.18	2852.82
735.36	3061.71
735.54	2932.69
735.73	2795.48
735.91	3012.56
736.09	3192.78
736.27	2979.79
736.45	2910.16
736.63	2658.26
736.81	2785.24
736.99	3172.30
737.17	3088.34
737.35	2791.38
737.53	3018.71
737.71	2920.40
737.89	3037.14
738.07	2836.44
738.25	2926.55
738.43	2668.50
738.61	2873.30
738.80	2719.70
738.98	2889.68
739.16	2895.83
739.34	2848.72
739.52	3061.71
739.70	2985.94
739.88	2983.89
740.06	3012.56
740.24	2615.26
740.42	3192.78
740.60	2779.09
740.78	2820.05
740.96	2582.49
741.14	2949.08
741.32	2930.64
741.50	2684.89
741.68	3117.01
741.86	3170.26
742.04	2797.53
742.22	2815.96
742.40	2842.58
742.58	3131.34
742.76	2887.64
742.94	3100.62
743.12	2686.94
743.30	2977.75
743.48	3049.43
743.66	2822.10
743.84	2918.36
744.02	2994.13
744.20	2936.79
744.38	2740.18
744.56	2832.34
744.74	3246.03
744.92	3049.43
745.10	3008.47
745.28	2985.94
745.46	3291.09
745.64	2938.84
745.82	2910.16
746.00	2897.88
746.18	3016.66
746.36	2813.91
746.54	2979.79
746.72	2873.30
746.90	2875.35
747.08	3200.98
747.26	2901.97
747.44	2992.08
747.62	3049.43
747.80	2963.41
747.98	2992.08
748.15	2904.02
748.33	3274.70
748.51	3024.85
748.69	2928.60
748.87	2768.85
749.05	2947.03
749.23	2979.79
749.41	2883.54
749.59	2775.00
749.77	3102.67
749.95	2867.16
750.13	2836.44
750.31	2918.36
750.49	2928.60
750.67	3172.30
750.85	3028.95
751.03	2914.26
751.20	3373.00
751.38	2955.22
751.56	2953.17
751.74	2795.48
751.92	2891.73
752.10	2715.61
752.28	3039.19
752.46	2746.33
752.64	2934.74
752.82	2985.94
753.00	2996.18
753.18	2801.62
753.35	2865.11
753.53	2975.70
753.71	2801.62
753.89	2992.08
754.07	2998.23
754.25	3121.10
754.43	2998.23
754.61	2824.15
754.79	2990.03
754.97	2871.25
755.14	3043.28
755.32	2791.38
755.50	2916.31
755.68	3004.37
755.86	2781.14
756.04	2813.91
756.22	2666.46
756.40	3127.25
756.57	3153.87
756.75	2795.48
756.93	3155.92
757.11	3121.10
757.29	2744.28
757.47	2740.18
757.65	2729.94
757.82	2611.16
758.00	2719.70
758.18	2811.86
758.36	2889.68
758.54	3256.27
758.72	2723.80
758.90	3028.95
759.07	3018.71
759.25	2775.00
759.43	2957.27
759.61	2738.13
759.79	4161.47
759.97	3166.16
760.15	2932.69
760.32	2844.63
760.50	3084.24
760.68	3262.41
760.86	2783.19
761.04	3157.97
761.22	3098.58
761.39	3055.57
761.57	3020.75
761.75	2889.68
761.93	3098.58
762.11	2942.93
762.28	2963.41
762.46	2758.61
762.64	3080.14
762.82	2723.80
763.00	2867.16
763.18	3053.52
763.35	2850.77
763.53	3078.10
763.71	2865.11
763.89	2813.91
764.07	3108.82
764.24	2985.94
764.42	3008.47
764.60	2844.63
764.78	3022.80
764.96	3127.25
765.13	2994.13
765.31	2770.90
765.49	3051.47
765.67	2848.72
765.84	2762.71
766.02	2772.95
766.20	2740.18
766.38	2942.93
766.56	2944.98
766.73	2998.23
766.91	2803.67
767.09	2959.31
767.27	2942.93
767.44	2856.92
767.62	3063.76
767.80	2951.12
767.98	2772.95
768.15	2904.02
768.33	3065.81
768.51	3086.29
768.69	2973.65
768.87	2875.35
769.04	2994.13
769.22	3373.00
769.40	2973.65
769.58	3051.47
769.75	3112.91
769.93	3188.69
770.11	2797.53
770.28	2815.96
770.46	3149.78
770.64	3071.95
770.82	2924.50
770.99	2813.91
771.17	3170.26
771.35	2918.36
771.53	2883.54
771.70	2826.20
771.88	3071.95
772.06	3000.27
772.23	2867.16
772.41	2924.50
772.59	2918.36
772.77	2854.87
772.94	2848.72
773.12	2910.16
773.30	2875.35
773.47	2977.75
773.65	2721.75
773.83	3094.48
774.01	2908.12
774.18	2754.52
774.36	2811.86
774.54	2678.74
774.71	3051.47
774.89	2766.81
775.07	2744.28
775.24	2787.29
775.42	2928.60
775.60	3284.94
775.78	2738.13
775.95	2838.48
776.13	2711.51
776.31	2633.69
776.48	3012.56
776.66	3125.20
776.84	2920.40
777.01	2803.67
777.19	2746.33
777.37	2758.61
777.54	3090.38
777.72	3368.91
777.90	2940.88
778.07	2770.90
778.25	3551.18
778.43	3180.50
778.60	2815.96
778.78	2914.26
778.96	3205.07
779.13	2752.47
779.31	2928.60
779.49	2926.55
779.66	3008.47
779.84	2944.98
780.01	2891.73
780.19	2740.18
780.37	3200.98
780.54	3074.00
780.72	2768.85
780.90	2940.88
781.07	2871.25
781.25	2811.86
781.43	3051.47
781.60	2836.44
781.78	3129.30
781.95	2981.84
782.13	2826.20
782.31	2836.44
782.48	2641.88
782.66	2971.60
782.83	3074.00
783.01	3024.85
783.19	3059.67
783.36	2957.27
783.54	2748.37
783.72	2904.02
783.89	2934.74
784.07	3018.71
784.24	2932.69
784.42	3008.47
784.60	3090.38
784.77	3090.38
784.95	2541.53
785.12	2781.14
785.30	3024.85
785.47	2830.29
785.65	2725.85
785.83	2914.26
786.00	2930.64
786.18	2951.12
786.35	2703.32
786.53	2775.00
786.71	3166.16
786.88	3074.00
787.06	2912.21
787.23	2893.78
787.41	2871.25
787.58	2979.79
787.76	2795.48
787.94	2811.86
788.11	2949.08
788.29	2744.28
788.46	2842.58
788.64	2664.41
788.81	2938.84
788.99	2754.52
789.16	2854.87
789.34	2844.63
789.52	2861.01
789.69	2873.30
789.87	2545.63
790.04	2873.30
790.22	2957.27
790.39	3381.20
790.57	2717.65
790.74	2736.09
790.92	3186.64
791.09	2650.07
791.27	2947.03
791.44	3004.37
791.62	2858.96
791.79	3125.20
791.97	2924.50
792.15	3155.92
792.32	3069.91
792.50	3178.45
792.67	3102.67
792.85	3086.29
793.02	3063.76
793.20	2895.83
793.37	2727.89
793.55	2801.62
793.72	2901.97
793.90	3053.52
794.07	2754.52
794.25	2826.20
794.42	2979.79
794.60	2953.17
794.77	2959.31
794.95	2983.89
795.12	3145.68
795.30	2983.89
795.47	2635.74
795.65	3211.22
795.82	2969.55
796.00	2815.96
796.17	2822.10
796.34	2801.62
796.52	2983.89
796.69	3155.92
796.87	2887.64
797.04	2963.41
797.22	3162.06
797.39	3057.62
797.57	3018.71
797.74	2914.26
797.92	2951.12
798.09	2856.92
798.27	3151.82
798.44	2799.57
798.62	2904.02
798.79	3006.42
798.96	2977.75
799.14	2875.35
799.31	3401.68
799.49	3006.42
799.66	2908.12
799.84	2846.68
800.01	2666.46
800.19	3112.91
800.36	2637.78
800.53	2873.30
800.71	3133.39
800.88	3352.52
801.06	2830.29
801.23	2826.20
801.41	2969.55
801.58	2824.15
801.75	2842.58
801.93	2934.74
802.10	3033.04
802.28	2885.59
802.45	2910.16
802.63	2918.36
802.80	3129.30
802.97	2912.21
803.15	2875.35
803.32	2820.05
803.50	2856.92
803.67	2824.15
803.84	2766.81
804.02	2914.26
804.19	2934.74
804.37	2574.30
804.54	2725.85
804.71	2791.38
804.89	3000.27
805.06	2846.68
805.24	2682.84
805.41	2682.84
805.58	2789.33
805.76	3411.92
805.93	2815.96
806.10	3063.76
806.28	3086.29
806.45	2887.64
806.63	2920.40
806.80	2965.46
806.97	3033.04
807.15	2983.89
807.32	3020.75
807.49	2924.50
807.67	2791.38
807.84	2973.65
808.01	2672.60
808.19	3059.67
808.36	3282.89
808.54	2901.97
808.71	2828.24
808.88	2856.92
809.06	3135.44
809.23	3188.69
809.40	2863.06
809.58	2881.49
809.75	3028.95
809.92	2693.08
810.10	3076.05
810.27	2852.82
810.44	3061.71
810.62	3000.27
810.79	2899.92
810.96	2813.91
811.14	2885.59
811.31	3086.29
811.48	3080.14
811.66	2914.26
811.83	3149.78
812.00	3063.76
812.18	2910.16
812.35	3106.77
812.52	2979.79
812.69	2828.24
812.87	2871.25
813.04	2770.90
813.21	2940.88
813.39	2883.54
813.56	2752.47
813.73	3039.19
813.91	2783.19
814.08	3002.32
814.25	2818.00
814.42	2650.07
814.60	2861.01
814.77	2963.41
814.94	2912.21
815.12	2930.64
815.29	3200.98
815.46	2801.62
815.63	2852.82
815.81	2830.29
815.98	2883.54
816.15	2889.68
816.33	2879.44
816.50	2828.24
816.67	2910.16
816.84	2893.78
817.02	2779.09
817.19	2875.35
817.36	2981.84
817.53	3063.76
817.71	2791.38
817.88	2942.93
818.05	2926.55
818.22	2863.06
818.40	3080.14
818.57	2848.72
818.74	3033.04
818.91	2973.65
819.09	3002.32
819.26	2957.27
819.43	2856.92
819.60	2832.34
819.78	3033.04
819.95	3002.32
820.12	2848.72
820.29	3196.88
820.47	3100.62
820.64	2834.39
820.81	2668.50
820.98	2830.29
821.15	2906.07
821.33	2951.12
821.50	2715.61
821.67	3002.32
821.84	2818.00
822.02	2947.03
822.19	3084.24
822.36	2889.68
822.53	2893.78
822.70	2719.70
822.88	2961.36
823.05	3252.17
823.22	2944.98
823.39	2891.73
823.56	3022.80
823.74	3280.85
823.91	2727.89
824.08	2680.79
824.25	2770.90
824.42	3309.52
824.60	2721.75
824.77	2959.31
824.94	2957.27
825.11	3084.24
825.28	2762.71
825.45	2969.55
825.63	3014.61
825.80	2801.62
825.97	2965.46
826.14	2936.79
826.31	2654.17
826.48	3024.85
826.66	2754.52
826.83	2826.20
827.00	2959.31
827.17	2775.00
827.34	2865.11
827.51	2781.14
827.69	2994.13
827.86	2705.37
828.03	2856.92
828.20	2936.79
828.37	2889.68
828.54	3067.86
828.71	2818.00
828.89	2979.79
829.06	2977.75
829.23	3205.07
829.40	2785.24
829.57	2797.53
829.74	3016.66
829.91	2959.31
830.09	2813.91
830.26	3002.32
830.43	3270.61
830.60	2975.70
830.77	2965.46
830.94	3082.19
831.11	3102.67
831.28	2873.30
831.46	2914.26
831.63	2867.16
831.80	3178.45
831.97	2848.72
832.14	2865.11
832.31	2871.25
832.48	3002.32
832.65	3106.77
832.82	2926.55
832.99	3016.66
833.17	2822.10
833.34	3213.26
833.51	2897.88
833.68	2588.63
833.85	3110.86
834.02	2697.17
834.19	2830.29
834.36	2738.13
834.53	2928.60
834.70	3141.58
834.87	2897.88
835.04	2611.16
835.22	2854.87
835.39	2975.70
835.56	2719.70
835.73	2695.13
835.90	3127.25
836.07	2838.48
836.24	2891.73
836.41	2703.32
836.58	2815.96
836.75	3188.69
836.92	2703.32
837.09	2734.04
837.26	3123.15
837.43	3033.04
837.60	2744.28
837.77	2834.39
837.94	3059.67
838.12	3123.15
838.29	2631.64
838.46	2658.26
838.63	2854.87
838.80	3215.31
838.97	2844.63
839.14	2727.89
839.31	2938.84
839.48	3092.43
839.65	2746.33
839.82	2772.95
839.99	3028.95
840.16	3022.80
840.33	2684.89
840.50	2758.61
840.67	2828.24
840.84	2559.96
841.01	2695.13
841.18	2713.56
841.35	2885.59
841.52	3137.49
841.69	3041.23
841.86	2764.76
842.03	2951.12
842.20	3094.48
842.37	2723.80
842.54	2770.90
842.71	2936.79
842.88	2701.27
843.05	2727.89
843.22	2707.41
843.39	3151.82
843.56	2951.12
843.73	2678.74
843.90	2729.94
844.07	2963.41
844.24	3051.47
844.41	2797.53
844.58	2809.81
844.75	2944.98
844.92	3063.76
845.09	2783.19
845.26	2688.98
845.43	3160.02
845.60	2904.02
845.77	2840.53
845.94	2785.24
846.10	3190.74
846.27	2736.09
846.44	2629.59
846.61	2662.36
846.78	3108.82
846.95	3104.72
847.12	2643.93
847.29	2736.09
847.46	2809.81
847.63	3059.67
847.80	2672.60
847.97	2811.86
848.14	3397.58
848.31	2899.92
848.48	2619.35
848.65	2789.33
848.82	2895.83
848.98	3411.92
849.15	2895.83
849.32	2818.00
849.49	3114.96
849.66	2918.36
849.83	2731.99
850.00	2699.22
850.17	3030.99
850.34	2850.77
850.51	2699.22
850.68	2731.99
850.85	3387.34
851.01	2967.51
851.18	2764.76
851.35	2760.66
851.52	2969.55
851.69	3164.11
851.86	2658.26
852.03	2697.17
852.20	3166.16
852.37	2979.79
852.53	2576.34
852.70	2617.30
852.87	3114.96
853.04	3012.56
853.21	2699.22
853.38	2967.51
853.55	3178.45
853.72	3143.63
853.89	2662.36
854.05	2727.89
854.22	2983.89
854.39	2893.78
854.56	2676.70
854.73	2871.25
854.90	2850.77
855.07	2889.68
855.23	2625.50
855.40	2715.61
855.57	2879.44
855.74	2600.92
855.91	2922.45
856.08	2570.20
856.25	2705.37
856.41	2916.31
856.58	2701.27
856.75	2785.24
856.92	2791.38
857.09	3110.86
857.26	2658.26
857.42	2740.18
857.59	3039.19
857.76	2914.26
857.93	2768.85
858.10	2873.30
858.27	2801.62
858.43	2965.46
858.60	2650.07
858.77	2635.74
858.94	2863.06
859.11	3094.48
859.27	2799.57
859.44	2666.46
859.61	3280.85
859.78	3057.62
859.95	2725.85
860.12	2656.22
860.28	3325.90
860.45	3272.65
860.62	2680.79
860.79	2764.76
860.95	2895.83
861.12	2893.78
861.29	2686.94
861.46	2787.29
861.63	2957.27
861.79	2998.23
861.96	2635.74
862.13	2713.56
862.30	3225.55
862.47	2918.36
862.63	2662.36
862.80	2781.14
862.97	3078.10
863.14	2992.08
863.30	2797.53
863.47	2662.36
863.64	3151.82
863.81	2985.94
863.97	2627.54
864.14	2740.18
864.31	2916.31
864.48	2959.31
864.65	2738.13
864.81	2818.00
864.98	3045.33
865.15	3117.01
865.32	2818.00
865.48	2901.97
865.65	3311.57
865.82	2961.36
865.98	2803.67
866.15	2746.33
866.32	2889.68
866.49	2924.50
866.65	2885.59
866.82	2768.85
866.99	2914.26
867.16	2830.29
867.32	2772.95
867.49	2611.16
867.66	2969.55
867.83	2965.46
867.99	2719.70
868.16	2832.34
868.33	2731.99
868.49	2904.02
868.66	2750.42
868.83	2742.23
868.99	2971.60
869.16	2926.55
869.33	2899.92
869.50	2783.19
869.66	2959.31
869.83	2992.08
870.00	2715.61
870.16	2877.40
870.33	2973.65
870.50	3051.47
870.66	2830.29
870.83	2820.05
871.00	2961.36
871.17	3110.86
871.33	2840.53
871.50	2762.71
871.67	2938.84
871.83	2830.29
872.00	2803.67
872.17	2797.53
872.33	3272.65
872.50	3180.50
872.67	2711.51
872.83	2711.51
873.00	3016.66
873.17	2971.60
873.33	2813.91
873.50	2830.29
873.67	2975.70
873.83	2893.78
874.00	2756.57
874.16	2895.83
874.33	2940.88
874.50	2787.29
874.66	2662.36
874.83	2813.91
875.00	3110.86
875.16	3246.03
875.33	2854.87
875.50	2529.24
875.66	2908.12
875.83	2961.36
875.99	2775.00
876.16	2793.43
876.33	2803.67
876.49	2971.60
876.66	2758.61
876.83	2744.28
876.99	2652.12
877.16	2910.16
877.32	2693.08
877.49	2799.57
877.66	3033.04
877.82	3186.64
877.99	2711.51
878.15	2961.36
878.32	3012.56
878.49	3057.62
878.65	2791.38
878.82	2944.98
878.98	2856.92
879.15	3143.63
879.32	2908.12
879.48	2850.77
879.65	2944.98
879.81	2942.93
879.98	2721.75
880.15	2822.10
880.31	3039.19
880.48	2904.02
880.64	2834.39
880.81	2875.35
880.97	3282.89
881.14	3203.02
881.31	2760.66
881.47	2906.07
881.64	2871.25
881.80	2760.66
881.97	2889.68
882.13	2830.29
882.30	2824.15
882.47	2820.05
882.63	2756.57
882.80	2729.94
882.96	2955.22
883.13	3262.41
883.29	2738.13
883.46	2754.52
883.62	3381.20
883.79	2975.70
883.95	2881.49
884.12	2662.36
884.29	3180.50
884.45	3002.32
884.62	2756.57
884.78	2666.46
884.95	3344.33
885.11	2828.24
885.28	2799.57
885.44	2770.90
885.61	3061.71
885.77	3145.68
885.94	2914.26
886.10	2785.24
886.27	2877.40
886.43	3241.93
886.60	2963.41
886.76	2701.27
886.93	2756.57
887.09	3053.52
887.26	2656.22
887.42	2770.90
887.59	3198.93
887.75	3346.38
887.92	2971.60
888.08	2906.07
888.25	3284.94
888.41	3135.44
888.58	2768.85
888.74	2699.22
888.91	2979.79
>>>>>End Processed Spectral Data<<<<<
