SpectraSuite Data File
++++++++++++++++++++++++++++++++++++
Date: Thu May 05 21:11:24 CEST 2016
User: root
Dark Spectrum Present: No
Reference Spectrum Present: No
Number of Sampled Component Spectra: 1
Spectrometers: USB4C02835
Integration Time (usec): 100000 (USB4C02835)
Spectra Averaged: 1 (USB4C02835)
Boxcar Smoothing: 0 (USB4C02835)
Correct for Electrical Dark: No (USB4C02835)
Strobe/Lamp Enabled: No (USB4C02835)
Correct for Detector Non-linearity: No (USB4C02835)
Correct for Stray Light: No (USB4C02835)
Number of Pixels in Processed Spectrum: 3648
>>>>>Begin Processed Spectral Data<<<<<
177.47	2193.37
177.69	2193.37
177.91	2193.37
178.13	2142.18
178.36	2148.32
178.58	2775.00
178.80	2885.59
179.02	2734.04
179.24	2848.72
179.46	2619.35
179.68	2637.78
179.90	2942.93
180.13	2975.70
180.35	2586.58
180.57	2635.74
180.79	3114.96
181.01	2949.08
181.23	2705.37
181.45	2795.48
181.67	3123.15
181.90	3164.11
182.12	2670.55
182.34	2535.39
182.56	3043.28
182.78	2936.79
183.00	2613.21
183.22	2674.65
183.44	2688.98
183.66	3516.36
183.89	2850.77
184.11	2670.55
184.33	3088.34
184.55	3231.69
184.77	2793.43
184.99	2711.51
185.21	2842.58
185.43	3436.49
185.65	2650.07
185.87	2678.74
186.10	3432.40
186.32	3327.95
186.54	2746.33
186.76	2756.57
186.98	3084.24
187.20	2985.94
187.42	2752.47
187.64	2680.79
187.86	3045.33
188.08	3129.30
188.30	2619.35
188.52	2768.85
188.75	3225.55
188.97	3237.84
189.19	2658.26
189.41	2650.07
189.63	3026.90
189.85	2944.98
190.07	2580.44
190.29	2547.67
190.51	3110.86
190.73	2844.63
190.95	2865.11
191.17	2748.37
191.39	2705.37
191.61	2944.98
191.84	2609.11
192.06	2758.61
192.28	2736.09
192.50	3448.78
192.72	2828.24
192.94	2703.32
193.16	3192.78
193.38	3096.53
193.60	2600.92
193.82	2838.48
194.04	3098.58
194.26	3047.38
194.48	2775.00
194.70	2682.84
194.92	2879.44
195.14	3114.96
195.36	2648.02
195.58	2799.57
195.80	2985.94
196.02	2869.20
196.24	2682.84
196.46	2818.00
196.69	2813.91
196.91	3461.07
197.13	2719.70
197.35	2824.15
197.57	3278.80
197.79	3135.44
198.01	2754.52
198.23	2715.61
198.45	3012.56
198.67	2801.62
198.89	2512.86
199.11	2740.18
199.33	2869.20
199.55	2664.41
199.77	2615.26
199.99	2826.20
200.21	2875.35
200.43	3010.51
200.65	2545.63
200.87	2521.05
201.09	2922.45
201.31	2953.17
201.53	2672.60
201.75	2650.07
201.97	3080.14
202.19	3037.14
202.41	2768.85
202.63	2768.85
202.85	3033.04
203.07	3080.14
203.29	2709.46
203.51	2600.92
203.73	2912.21
203.95	3463.12
204.17	2676.70
204.39	2791.38
204.61	2883.54
204.83	3039.19
205.05	2805.72
205.27	2703.32
205.49	3340.24
205.71	2942.93
205.93	2555.86
206.15	2578.39
206.37	2942.93
206.59	2883.54
206.81	2545.63
207.03	2633.69
207.25	2797.53
207.47	3141.58
207.69	2715.61
207.91	2904.02
208.13	3274.70
208.34	2865.11
208.56	2693.08
208.78	2705.37
209.00	2963.41
209.22	2922.45
209.44	2721.75
209.66	2584.54
209.88	2963.41
210.10	2936.79
210.32	2656.22
210.54	2777.05
210.76	2947.03
210.98	3139.54
211.20	2559.96
211.42	2836.44
211.64	3217.36
211.86	3135.44
212.08	2723.80
212.30	2707.41
212.52	2906.07
212.74	3160.02
212.96	2779.09
213.17	2756.57
213.39	3119.06
213.61	3241.93
213.83	2635.74
214.05	2492.38
214.27	3135.44
214.49	2861.01
214.71	2707.41
214.93	2797.53
215.15	2912.21
215.37	3131.34
215.59	2588.63
215.81	2760.66
216.03	3205.07
216.24	2975.70
216.46	2668.50
216.68	2713.56
216.90	3174.35
217.12	3231.69
217.34	2648.02
217.56	2809.81
217.78	3241.93
218.00	3102.67
218.22	2760.66
218.44	2805.72
218.66	2998.23
218.87	3364.81
219.09	2707.41
219.31	2684.89
219.53	3024.85
219.75	2840.53
219.97	2734.04
220.19	2729.94
220.41	2924.50
220.63	3332.05
220.85	2748.37
221.06	2789.33
221.28	3227.60
221.50	3053.52
221.72	2693.08
221.94	2549.72
222.16	2977.75
222.38	3086.29
222.60	2633.69
222.82	2740.18
223.03	3166.16
223.25	2809.81
223.47	2641.88
223.69	2883.54
223.91	3143.63
224.13	2977.75
224.35	2557.91
224.57	2826.20
224.78	3080.14
225.00	2877.40
225.22	2684.89
225.44	2611.16
225.66	3172.30
225.88	2922.45
226.10	2836.44
226.32	2686.94
226.53	3293.13
226.75	2899.92
226.97	2721.75
227.19	2709.46
227.41	2897.88
227.63	2940.88
227.85	2547.67
228.06	2697.17
228.28	3045.33
228.50	3184.59
228.72	2514.91
228.94	2613.21
229.16	2678.74
229.37	2820.05
229.59	2645.98
229.81	2922.45
230.03	2838.48
230.25	2721.75
230.47	2564.06
230.69	2602.97
230.90	3186.64
231.12	2871.25
231.34	2832.34
231.56	2770.90
231.78	2793.43
232.00	2969.55
232.21	2678.74
232.43	2691.03
232.65	2658.26
232.87	3076.05
233.09	2578.39
233.30	2631.64
233.52	3147.73
233.74	2938.84
233.96	2629.59
234.18	2848.72
234.40	3006.42
234.61	3413.96
234.83	2633.69
235.05	2703.32
235.27	3413.96
235.49	3246.03
235.70	2545.63
235.92	2766.81
236.14	3082.19
236.36	3407.82
236.58	2559.96
236.79	2760.66
237.01	3000.27
237.23	2965.46
237.45	2897.88
237.67	2781.14
237.88	3018.71
238.10	3305.42
238.32	2564.06
238.54	2674.65
238.76	2951.12
238.97	2795.48
239.19	2586.58
239.41	2783.19
239.63	3151.82
239.85	2879.44
240.06	2674.65
240.28	2639.83
240.50	3164.11
240.72	2961.36
240.93	2594.78
241.15	2797.53
241.37	2899.92
241.59	3205.07
241.81	2672.60
242.02	2723.80
242.24	3037.14
242.46	3182.54
242.68	2594.78
242.89	2611.16
243.11	3209.17
243.33	2969.55
243.55	2691.03
243.76	2746.33
243.98	2901.97
244.20	2942.93
244.42	2625.50
244.64	2680.79
244.85	2744.28
245.07	2801.62
245.29	2676.70
245.51	2684.89
245.72	2985.94
245.94	3182.54
246.16	2725.85
246.38	2664.41
246.59	2947.03
246.81	2879.44
247.03	2670.55
247.24	2590.68
247.46	2955.22
247.68	2936.79
247.90	2564.06
248.11	2680.79
248.33	3100.62
248.55	2967.51
248.77	2705.37
248.98	2822.10
249.20	3336.14
249.42	3059.67
249.64	2723.80
249.85	2637.78
250.07	2906.07
250.29	3112.91
250.50	2715.61
250.72	2592.73
250.94	3057.62
251.16	3377.10
251.37	2662.36
251.59	2684.89
251.81	3092.43
252.02	3190.74
252.24	2652.12
252.46	2738.13
252.68	2838.48
252.89	2887.64
253.11	2541.53
253.33	2805.72
253.54	3229.65
253.76	2748.37
253.98	2654.17
254.20	2639.83
254.41	2725.85
254.63	2951.12
254.85	2480.09
255.06	2766.81
255.28	3078.10
255.50	2975.70
255.71	2621.40
255.93	2582.49
256.15	2920.40
256.36	3094.48
256.58	2602.97
256.80	2584.54
257.02	2932.69
257.23	2942.93
257.45	2688.98
257.67	2826.20
257.88	2865.11
258.10	3106.77
258.32	2713.56
258.53	2772.95
258.75	3254.22
258.97	2901.97
259.18	2602.97
259.40	2559.96
259.62	3192.78
259.83	3297.23
260.05	2742.23
260.27	3461.07
260.48	3080.14
260.70	2832.34
260.92	2623.45
261.13	2791.38
261.35	3016.66
261.57	3018.71
261.78	2600.92
262.00	2617.30
262.22	3104.72
262.43	2822.10
262.65	2645.98
262.86	2754.52
263.08	3413.96
263.30	2953.17
263.51	2570.20
263.73	2678.74
263.95	3219.41
264.16	2871.25
264.38	2516.95
264.60	2578.39
264.81	3033.04
265.03	3168.21
265.25	2942.93
265.46	2658.26
265.68	3225.55
265.89	3121.10
266.11	2562.01
266.33	2709.46
266.54	3168.21
266.76	3157.97
266.98	2762.71
267.19	2863.06
267.41	3180.50
267.62	2926.55
267.84	2496.47
268.06	2818.00
268.27	3012.56
268.49	3209.17
268.70	2752.47
268.92	2648.02
269.14	2779.09
269.35	2699.22
269.57	2748.37
269.79	2820.05
270.00	2760.66
270.22	3233.74
270.43	2547.67
270.65	2576.34
270.87	3067.86
271.08	3117.01
271.30	2789.33
271.51	2709.46
271.73	3092.43
271.95	3327.95
272.16	2594.78
272.38	2895.83
272.59	2908.12
272.81	3012.56
273.02	2590.68
273.24	2809.81
273.46	3164.11
273.67	2762.71
273.89	2584.54
274.10	2701.27
274.32	3147.73
274.54	3004.37
274.75	2781.14
274.97	2797.53
275.18	3096.53
275.40	3096.53
275.61	2705.37
275.83	2820.05
276.05	2809.81
276.26	2949.08
276.48	2768.85
276.69	2873.30
276.91	2809.81
277.12	3188.69
277.34	2940.88
277.55	2906.07
277.77	3045.33
277.99	2944.98
278.20	2742.23
278.42	2693.08
278.63	2924.50
278.85	2799.57
279.06	2736.09
279.28	2832.34
279.49	3084.24
279.71	3069.91
279.93	2822.10
280.14	2789.33
280.36	2863.06
280.57	3160.02
280.79	2985.94
281.00	2703.32
281.22	2944.98
281.43	3225.55
281.65	2523.10
281.86	2656.22
282.08	3008.47
282.29	3373.00
282.51	2598.87
282.73	2639.83
282.94	2760.66
283.16	3092.43
283.37	2912.21
283.59	2887.64
283.80	3049.43
284.02	3024.85
284.23	2846.68
284.45	2820.05
284.66	2871.25
284.88	2895.83
285.09	2807.77
285.31	2832.34
285.52	3057.62
285.74	2793.43
285.95	2918.36
286.17	2848.72
286.38	3129.30
286.60	2899.92
286.81	2725.85
287.03	2799.57
287.24	2889.68
287.46	3037.14
287.67	2828.24
287.89	3039.19
288.10	2973.65
288.32	3049.43
288.53	2908.12
288.75	2901.97
288.96	3172.30
289.18	2924.50
289.39	2725.85
289.61	2936.79
289.82	3377.10
290.04	3274.70
290.25	2729.94
290.47	2861.01
290.68	3014.61
290.90	3162.06
291.11	2635.74
291.33	2924.50
291.54	2840.53
291.76	2856.92
291.97	2990.03
292.18	2901.97
292.40	2953.17
292.61	2852.82
292.83	3096.53
293.04	2815.96
293.26	2955.22
293.47	2936.79
293.69	2717.65
293.90	2725.85
294.12	3217.36
294.33	2926.55
294.55	2803.67
294.76	2973.65
294.97	3284.94
295.19	3368.91
295.40	2801.62
295.62	2871.25
295.83	3080.14
296.05	2826.20
296.26	2987.99
296.48	2838.48
296.69	2990.03
296.90	2996.18
297.12	2949.08
297.33	2881.49
297.55	2949.08
297.76	3065.81
297.98	2842.58
298.19	2944.98
298.41	2994.13
298.62	2844.63
298.83	2981.84
299.05	2873.30
299.26	2875.35
299.48	2791.38
299.69	2895.83
299.90	2840.53
300.12	2883.54
300.33	3135.44
300.55	2832.34
300.76	2867.16
300.98	2818.00
301.19	3127.25
301.40	2768.85
301.62	2781.14
301.83	3082.19
302.05	2965.46
302.26	2748.37
302.47	2869.20
302.69	2762.71
302.90	3022.80
303.12	2613.21
303.33	2932.69
303.54	3282.89
303.76	2918.36
303.97	2727.89
304.19	3047.38
304.40	2848.72
304.61	3084.24
304.83	2838.48
305.04	2940.88
305.26	3078.10
305.47	2871.25
305.68	2822.10
305.90	2623.45
306.11	3196.88
306.33	2926.55
306.54	2682.84
306.75	2713.56
306.97	2795.48
307.18	2832.34
307.39	2865.11
307.61	2869.20
307.82	2922.45
308.04	3061.71
308.25	2658.26
308.46	2885.59
308.68	2959.31
308.89	2924.50
309.10	2879.44
309.32	2772.95
309.53	2992.08
309.74	3041.23
309.96	2781.14
310.17	2926.55
310.39	2949.08
310.60	3094.48
310.81	2797.53
311.03	2740.18
311.24	3131.34
311.45	2998.23
311.67	3051.47
311.88	2901.97
312.09	2842.58
312.31	2901.97
312.52	2719.70
312.73	2801.62
312.95	2760.66
313.16	2750.42
313.37	2951.12
313.59	2949.08
313.80	3143.63
314.01	3315.66
314.23	2803.67
314.44	2648.02
314.65	2801.62
314.87	2781.14
315.08	2752.47
315.29	2779.09
315.51	2795.48
315.72	2789.33
315.93	2850.77
316.15	2852.82
316.36	2987.99
316.57	2983.89
316.79	2789.33
317.00	2684.89
317.21	3096.53
317.43	2885.59
317.64	2828.24
317.85	2731.99
318.07	2846.68
318.28	2936.79
318.49	2854.87
318.70	3035.09
318.92	2975.70
319.13	2979.79
319.34	2926.55
319.56	2791.38
319.77	3086.29
319.98	3096.53
320.20	3024.85
320.41	2904.02
320.62	3065.81
320.83	2768.85
321.05	2973.65
321.26	2805.72
321.47	3020.75
321.69	3252.17
321.90	2705.37
322.11	2775.00
322.32	2957.27
322.54	3246.03
322.75	2832.34
322.96	3485.64
323.18	2770.90
323.39	2686.94
323.60	2756.57
323.81	2942.93
324.03	2897.88
324.24	2942.93
324.45	2852.82
324.66	2766.81
324.88	3188.69
325.09	3278.80
325.30	2717.65
325.52	2729.94
325.73	3039.19
325.94	2820.05
326.15	2672.60
326.37	2783.19
326.58	3147.73
326.79	3295.18
327.00	2709.46
327.22	2760.66
327.43	2912.21
327.64	2703.32
327.85	2918.36
328.07	2783.19
328.28	3278.80
328.49	2920.40
328.70	2873.30
328.92	2770.90
329.13	2899.92
329.34	3059.67
329.55	3020.75
329.76	2934.74
329.98	2953.17
330.19	3117.01
330.40	2801.62
330.61	2879.44
330.83	3114.96
331.04	2842.58
331.25	2904.02
331.46	2836.44
331.68	2764.76
331.89	3141.58
332.10	2908.12
332.31	2619.35
332.52	2936.79
332.74	3135.44
332.95	2670.55
333.16	2861.01
333.37	3106.77
333.58	2930.64
333.80	2920.40
334.01	2664.41
334.22	2897.88
334.43	2838.48
334.64	2750.42
334.86	2707.41
335.07	2824.15
335.28	3153.87
335.49	2711.51
335.70	2822.10
335.92	3229.65
336.13	3366.86
336.34	2895.83
336.55	2834.39
336.76	3016.66
336.98	2625.50
337.19	2809.81
337.40	2922.45
337.61	3430.35
337.82	2912.21
338.04	2895.83
338.25	2588.63
338.46	2949.08
338.67	2901.97
338.88	2746.33
339.09	2754.52
339.31	2910.16
339.52	2762.71
339.73	2731.99
339.94	2785.24
340.15	3094.48
340.36	2838.48
340.58	2901.97
340.79	2738.13
341.00	3141.58
341.21	2758.61
341.42	3004.37
341.63	2793.43
341.85	3196.88
342.06	3022.80
342.27	2744.28
342.48	2942.93
342.69	2715.61
342.90	3074.00
343.12	3045.33
343.33	2799.57
343.54	3110.86
343.75	3256.27
343.96	2858.96
344.17	2781.14
344.38	3004.37
344.60	2879.44
344.81	2744.28
345.02	2731.99
345.23	3241.93
345.44	3411.92
345.65	2828.24
345.86	2848.72
346.07	3053.52
346.29	2861.01
346.50	2957.27
346.71	2942.93
346.92	3215.31
347.13	3397.58
347.34	2955.22
347.55	2670.55
347.76	3045.33
347.98	2695.13
348.19	2807.77
348.40	2967.51
348.61	2899.92
348.82	3215.31
349.03	2908.12
349.24	2727.89
349.45	3321.81
349.66	2668.50
349.88	2824.15
350.09	2738.13
350.30	3164.11
350.51	3131.34
350.72	2904.02
350.93	2867.16
351.14	2992.08
351.35	3119.06
351.56	2793.43
351.77	2912.21
351.99	3024.85
352.20	3270.61
352.41	2926.55
352.62	2576.34
352.83	2897.88
353.04	2969.55
353.25	2717.65
353.46	2858.96
353.67	3166.16
353.88	2584.54
354.09	2785.24
354.30	2844.63
354.52	3121.10
354.73	2957.27
354.94	2787.29
355.15	2813.91
355.36	3319.76
355.57	2873.30
355.78	2811.86
355.99	2770.90
356.20	2973.65
356.41	3198.93
356.62	2844.63
356.83	2901.97
357.04	3239.89
357.25	2703.32
357.46	2815.96
357.68	2707.41
357.89	2754.52
358.10	3002.32
358.31	2770.90
358.52	2813.91
358.73	2768.85
358.94	2826.20
359.15	2846.68
359.36	2815.96
359.57	2955.22
359.78	2965.46
359.99	2901.97
360.20	2748.37
360.41	3035.09
360.62	3127.25
360.83	2924.50
361.04	2850.77
361.25	3084.24
361.46	3254.22
361.67	2883.54
361.88	2889.68
362.09	3180.50
362.30	3100.62
362.51	2748.37
362.72	2861.01
362.93	3194.83
363.14	3045.33
363.35	2963.41
363.56	2762.71
363.78	3182.54
363.99	3135.44
364.20	2836.44
364.41	2865.11
364.62	3293.13
364.83	3074.00
365.04	2838.48
365.25	2805.72
365.46	3243.98
365.67	2893.78
365.88	2936.79
366.09	2775.00
366.30	2969.55
366.51	2906.07
366.72	2717.65
366.93	2844.63
367.14	3016.66
367.35	3270.61
367.56	2691.03
367.77	2912.21
367.98	3014.61
368.18	3055.57
368.39	2875.35
368.60	2772.95
368.81	3139.54
369.02	2996.18
369.23	2830.29
369.44	2666.46
369.65	2924.50
369.86	3012.56
370.07	2932.69
370.28	2670.55
370.49	3057.62
370.70	2977.75
370.91	2731.99
371.12	2650.07
371.33	3221.45
371.54	2904.02
371.75	2914.26
371.96	2555.86
372.17	3063.76
372.38	2959.31
372.59	2805.72
372.80	2772.95
373.01	2879.44
373.22	3012.56
373.43	2807.77
373.64	2662.36
373.85	3170.26
374.06	3155.92
374.26	2916.31
374.47	2926.55
374.68	3211.22
374.89	3041.23
375.10	2705.37
375.31	3004.37
375.52	2992.08
375.73	2936.79
375.94	2670.55
376.15	2938.84
376.36	2856.92
376.57	2879.44
376.78	2799.57
376.99	2818.00
377.20	3295.18
377.40	2983.89
377.61	3061.71
377.82	2820.05
378.03	3166.16
378.24	3084.24
378.45	2963.41
378.66	2871.25
378.87	2772.95
379.08	2740.18
379.29	2809.81
379.50	3020.75
379.71	2957.27
379.91	3098.58
380.12	2719.70
380.33	2916.31
380.54	2918.36
380.75	2957.27
380.96	2791.38
381.17	2873.30
381.38	3006.42
381.59	2959.31
381.80	2746.33
382.00	3008.47
382.21	2985.94
382.42	3280.85
382.63	3147.73
382.84	2951.12
383.05	3114.96
383.26	3233.74
383.47	2983.89
383.68	2795.48
383.88	2992.08
384.09	2955.22
384.30	3016.66
384.51	2867.16
384.72	2887.64
384.93	2824.15
385.14	2904.02
385.35	3074.00
385.55	2729.94
385.76	3182.54
385.97	2813.91
386.18	2678.74
386.39	2850.77
386.60	2854.87
386.81	2758.61
387.02	2697.17
387.22	2801.62
387.43	3043.28
387.64	2918.36
387.85	2987.99
388.06	3067.86
388.27	4007.87
388.48	7151.51
388.68	11093.85
388.89	13322.04
389.10	14589.73
389.31	14153.51
389.52	11145.05
389.73	9682.80
389.93	8925.05
390.14	8009.61
390.35	7321.49
390.56	6739.87
390.77	5679.02
390.98	4251.58
391.18	3608.52
391.39	3340.24
391.60	2947.03
391.81	3110.86
392.02	2912.21
392.23	3340.24
392.43	3041.23
392.64	2883.54
392.85	2885.59
393.06	3272.65
393.27	2920.40
393.47	2766.81
393.68	2848.72
393.89	2856.92
394.10	3129.30
394.31	2822.10
394.52	2731.99
394.72	2934.74
394.93	3194.83
395.14	2762.71
395.35	2961.36
395.56	2881.49
395.76	2975.70
395.97	2848.72
396.18	2992.08
396.39	3026.90
396.60	3585.99
396.80	3194.83
397.01	3063.76
397.22	3076.05
397.43	3205.07
397.64	2844.63
397.84	3014.61
398.05	3289.04
398.26	3006.42
398.47	2938.84
398.67	3030.99
398.88	3008.47
399.09	3133.39
399.30	2811.86
399.51	2936.79
399.71	2883.54
399.92	2983.89
400.13	2858.96
400.34	2797.53
400.54	2998.23
400.75	3219.41
400.96	2891.73
401.17	3137.49
401.37	3080.14
401.58	2869.20
401.79	2832.34
402.00	2985.94
402.21	3477.45
402.41	3121.10
402.62	3074.00
402.83	3246.03
403.04	3424.20
403.24	3626.95
403.45	3028.95
403.66	3094.48
403.87	3239.89
404.07	3188.69
404.28	3024.85
404.49	3172.30
404.70	3074.00
404.90	3030.99
405.11	2770.90
405.32	2926.55
405.52	2934.74
405.73	2854.87
405.94	2801.62
406.15	2850.77
406.35	3127.25
406.56	3098.58
406.77	2947.03
406.98	2858.96
407.18	2820.05
407.39	3336.14
407.60	2852.82
407.80	2944.98
408.01	2881.49
408.22	2994.13
408.43	2779.09
408.63	2908.12
408.84	3174.35
409.05	3162.06
409.25	2725.85
409.46	2891.73
409.67	2930.64
409.88	2846.68
410.08	2883.54
410.29	2801.62
410.50	3160.02
410.70	3133.39
410.91	2775.00
411.12	2795.48
411.32	2994.13
411.53	2807.77
411.74	2944.98
411.95	2875.35
412.15	3014.61
412.36	3096.53
412.57	2938.84
412.77	2938.84
412.98	2928.60
413.19	2885.59
413.39	2840.53
413.60	2897.88
413.81	3235.79
414.01	2818.00
414.22	2826.20
414.43	3047.38
414.63	2883.54
414.84	3137.49
415.05	2893.78
415.25	2682.84
415.46	3145.68
415.67	2910.16
415.87	2840.53
416.08	2781.14
416.29	2897.88
416.49	2992.08
416.70	2914.26
416.91	2811.86
417.11	2932.69
417.32	3074.00
417.53	2918.36
417.73	2875.35
417.94	2971.60
418.15	3057.62
418.35	2824.15
418.56	2791.38
418.77	3440.59
418.97	2996.18
419.18	2998.23
419.38	2555.86
419.59	2922.45
419.80	3250.13
420.00	2830.29
420.21	2869.20
420.42	3188.69
420.62	3104.72
420.83	2871.25
421.04	2793.43
421.24	2928.60
421.45	3067.86
421.65	2832.34
421.86	2904.02
422.07	3157.97
422.27	3098.58
422.48	2750.42
422.69	2664.41
422.89	2965.46
423.10	2985.94
423.30	2797.53
423.51	2885.59
423.72	3071.95
423.92	3160.02
424.13	2705.37
424.33	2875.35
424.54	3129.30
424.75	3018.71
424.95	3063.76
425.16	2834.39
425.36	2879.44
425.57	3209.17
425.78	2961.36
425.98	2955.22
426.19	3010.51
426.39	2869.20
426.60	3006.42
426.81	2983.89
427.01	3078.10
427.22	2865.11
427.42	2707.41
427.63	2717.65
427.83	3170.26
428.04	3305.42
428.25	2867.16
428.45	2942.93
428.66	3112.91
428.86	2965.46
429.07	2873.30
429.28	2955.22
429.48	2959.31
429.69	2883.54
429.89	2912.21
430.10	2785.24
430.30	3162.06
430.51	3239.89
430.71	2742.23
430.92	2818.00
431.13	2856.92
431.33	3084.24
431.54	2893.78
431.74	3100.62
431.95	3307.47
432.15	2820.05
432.36	2871.25
432.56	2897.88
432.77	3401.68
432.98	3354.57
433.18	2883.54
433.39	2688.98
433.59	2920.40
433.80	3207.12
434.00	2998.23
434.21	2811.86
434.41	2914.26
434.62	3411.92
434.82	2740.18
435.03	2746.33
435.23	3016.66
435.44	2660.31
435.64	2852.82
435.85	2934.74
436.06	3143.63
436.26	3049.43
436.47	2815.96
436.67	2742.23
436.88	2904.02
437.08	3071.95
437.29	2979.79
437.49	2971.60
437.70	3190.74
437.90	2910.16
438.11	3121.10
438.31	2867.16
438.52	3137.49
438.72	3256.27
438.93	3157.97
439.13	3006.42
439.34	3084.24
439.54	2987.99
439.75	2959.31
439.95	2922.45
440.16	2781.14
440.36	3033.04
440.57	2852.82
440.77	2906.07
440.98	3063.76
441.18	3080.14
441.39	2738.13
441.59	2775.00
441.80	3362.76
442.00	2940.88
442.21	2959.31
442.41	2754.52
442.62	3121.10
442.82	2904.02
443.02	2869.20
443.23	2811.86
443.43	2963.41
443.64	3186.64
443.84	2775.00
444.05	3016.66
444.25	3000.27
444.46	2916.31
444.66	2885.59
444.87	3020.75
445.07	2715.61
445.28	2947.03
445.48	3043.28
445.69	2893.78
445.89	3481.55
446.09	2932.69
446.30	3198.93
446.50	3151.82
446.71	4804.53
446.91	5719.98
447.12	6567.84
447.32	6965.14
447.53	6887.32
447.73	5670.83
447.93	4960.18
448.14	4763.58
448.34	4835.25
448.55	4214.72
448.75	3975.11
448.96	3934.15
449.16	3643.34
449.36	3516.36
449.57	3059.67
449.77	2879.44
449.98	2885.59
450.18	3092.43
450.39	2881.49
450.59	2998.23
450.79	3037.14
451.00	2953.17
451.20	3076.05
451.41	2799.57
451.61	3131.34
451.81	2971.60
452.02	2770.90
452.22	2873.30
452.43	2885.59
452.63	2908.12
452.84	2815.96
453.04	2854.87
453.24	3074.00
453.45	2838.48
453.65	2799.57
453.86	2834.39
454.06	2998.23
454.26	3018.71
454.47	2752.47
454.67	3047.38
454.87	3065.81
455.08	2930.64
455.28	2953.17
455.49	3071.95
455.69	2815.96
455.89	3286.99
456.10	2957.27
456.30	2799.57
456.51	3100.62
456.71	2977.75
456.91	2981.84
457.12	2793.43
457.32	3086.29
457.52	2830.29
457.73	3069.91
457.93	2994.13
458.14	2906.07
458.34	2772.95
458.54	2887.64
458.75	2770.90
458.95	3174.35
459.15	3078.10
459.36	2883.54
459.56	2869.20
459.76	3450.83
459.97	3008.47
460.17	2863.06
460.37	2934.74
460.58	3000.27
460.78	3100.62
460.99	2826.20
461.19	2901.97
461.39	2848.72
461.60	3018.71
461.80	2932.69
462.00	2801.62
462.21	3018.71
462.41	2858.96
462.61	2684.89
462.82	2658.26
463.02	3102.67
463.22	2953.17
463.43	2922.45
463.63	2840.53
463.83	3215.31
464.04	3071.95
464.24	2910.16
464.44	2803.67
464.64	3014.61
464.85	3188.69
465.05	2885.59
465.25	2863.06
465.46	2901.97
465.66	3172.30
465.86	2928.60
466.07	2842.58
466.27	2998.23
466.47	2791.38
466.68	2740.18
466.88	2961.36
467.08	3014.61
467.29	3192.78
467.49	2957.27
467.69	2918.36
467.89	3090.38
468.10	2922.45
468.30	2967.51
468.50	2951.12
468.71	3168.21
468.91	2789.33
469.11	3084.24
469.31	2889.68
469.52	2887.64
469.72	3313.61
469.92	3080.14
470.13	2875.35
470.33	2996.18
470.53	3088.34
470.73	3196.88
470.94	3590.09
471.14	3682.25
471.34	4069.31
471.54	3753.93
471.75	3534.79
471.95	3315.66
472.15	3387.34
472.36	3368.91
472.56	3256.27
472.76	3416.01
472.96	3307.47
473.17	3057.62
473.37	2990.03
473.57	2885.59
473.77	3028.95
473.98	2904.02
474.18	2740.18
474.38	3536.84
474.58	2904.02
474.79	2844.63
474.99	2936.79
475.19	3252.17
475.39	2871.25
475.60	2918.36
475.80	2787.29
476.00	3008.47
476.20	2959.31
476.41	2932.69
476.61	2961.36
476.81	3235.79
477.01	2924.50
477.21	3098.58
477.42	3037.14
477.62	2838.48
477.82	3084.24
478.02	2795.48
478.23	2908.12
478.43	2797.53
478.63	3016.66
478.83	2875.35
479.03	2901.97
479.24	3217.36
479.44	3373.00
479.64	2793.43
479.84	2645.98
480.04	2869.20
480.25	3098.58
480.45	2768.85
480.65	2756.57
480.85	3299.28
481.06	2899.92
481.26	2981.84
481.46	2850.77
481.66	2994.13
481.86	2852.82
482.06	2994.13
482.27	2881.49
482.47	2932.69
482.67	3035.09
482.87	2836.44
483.07	2922.45
483.28	2883.54
483.48	2787.29
483.68	2820.05
483.88	2697.17
484.08	2672.60
484.29	2838.48
484.49	2932.69
484.69	2670.55
484.89	3221.45
485.09	3141.58
485.29	2965.46
485.50	2990.03
485.70	2908.12
485.90	3094.48
486.10	3047.38
486.30	2815.96
486.50	3198.93
486.71	3076.05
486.91	2906.07
487.11	2965.46
487.31	2873.30
487.51	3106.77
487.71	2818.00
487.91	2805.72
488.12	2893.78
488.32	2660.31
488.52	2826.20
488.72	2648.02
488.92	2971.60
489.12	3164.11
489.32	2930.64
489.53	2879.44
489.73	2772.95
489.93	3188.69
490.13	2832.34
490.33	2705.37
490.53	3010.51
490.73	3303.37
490.94	2705.37
491.14	3008.47
491.34	3053.52
491.54	3090.38
491.74	3688.39
491.94	4257.73
492.14	4667.32
492.34	4773.82
492.54	4374.46
492.75	3743.69
492.95	3919.81
493.15	3624.90
493.35	3545.03
493.55	3401.68
493.75	3381.20
493.95	3530.70
494.15	3164.11
494.35	2949.08
494.56	2967.51
494.76	2850.77
494.96	2998.23
495.16	2756.57
495.36	2965.46
495.56	3030.99
495.76	2932.69
495.96	2942.93
496.16	2834.39
496.36	3387.34
496.56	2828.24
496.77	2926.55
496.97	3026.90
497.17	3256.27
497.37	2787.29
497.57	3008.47
497.77	3016.66
497.97	2803.67
498.17	2856.92
498.37	2830.29
498.57	3055.57
498.77	2887.64
498.97	3049.43
499.17	3133.39
499.38	2979.79
499.58	3114.96
499.78	3012.56
499.98	3041.23
500.18	2899.92
500.38	2897.88
500.58	3020.75
500.78	3393.48
500.98	5414.83
501.18	7346.06
501.38	8812.41
501.58	9750.38
501.78	9660.27
501.98	7841.67
502.18	6713.24
502.38	5896.10
502.58	5636.01
502.78	5062.58
502.98	4810.68
503.18	4683.70
503.38	4380.61
503.59	3725.26
503.79	3751.88
503.99	3463.12
504.19	3475.40
504.39	3436.49
504.59	3229.65
504.79	3262.41
504.99	3465.16
505.19	3170.26
505.39	3071.95
505.59	3252.17
505.79	3309.52
505.99	3084.24
506.19	2901.97
506.39	3008.47
506.59	2967.51
506.79	2932.69
506.99	2998.23
507.19	2871.25
507.39	3014.61
507.59	2813.91
507.79	2791.38
507.99	2723.80
508.19	3035.09
508.39	2856.92
508.59	2856.92
508.79	2938.84
508.99	3377.10
509.19	2940.88
509.39	3006.42
509.59	2803.67
509.79	2803.67
509.99	2998.23
510.19	3020.75
510.39	2977.75
510.59	3035.09
510.79	2848.72
510.99	2742.23
511.19	2729.94
511.39	3258.32
511.59	3096.53
511.79	3022.80
511.99	2809.81
512.19	3393.48
512.38	3043.28
512.58	2789.33
512.78	2885.59
512.98	3241.93
513.18	3237.84
513.38	2754.52
513.58	2916.31
513.78	2936.79
513.98	2887.64
514.18	2848.72
514.38	2867.16
514.58	3092.43
514.78	2934.74
514.98	2781.14
515.18	2828.24
515.38	2799.57
515.58	3250.13
515.78	2766.81
515.98	2869.20
516.18	3104.72
516.38	2990.03
516.57	2693.08
516.77	2830.29
516.97	3055.57
517.17	2920.40
517.37	2619.35
517.57	2889.68
517.77	2990.03
517.97	2836.44
518.17	2836.44
518.37	2699.22
518.57	2920.40
518.77	2965.46
518.97	2852.82
519.16	2891.73
519.36	3211.22
519.56	2926.55
519.76	2764.76
519.96	2848.72
520.16	3209.17
520.36	2815.96
520.56	2920.40
520.76	2818.00
520.96	2969.55
521.16	3129.30
521.35	2949.08
521.55	2981.84
521.75	2969.55
521.95	2922.45
522.15	2838.48
522.35	2715.61
522.55	2826.20
522.75	3168.21
522.95	2813.91
523.14	2707.41
523.34	3082.19
523.54	2947.03
523.74	2996.18
523.94	2895.83
524.14	2766.81
524.34	3035.09
524.54	3033.04
524.73	2871.25
524.93	3082.19
525.13	2990.03
525.33	2836.44
525.53	3151.82
525.73	3151.82
525.93	3020.75
526.13	2820.05
526.32	2820.05
526.52	3207.12
526.72	3121.10
526.92	2854.87
527.12	2826.20
527.32	2768.85
527.52	3018.71
527.71	2895.83
527.91	2893.78
528.11	3049.43
528.31	2951.12
528.51	2766.81
528.71	3018.71
528.90	3053.52
529.10	3164.11
529.30	2906.07
529.50	2674.65
529.70	3030.99
529.90	2932.69
530.09	2897.88
530.29	2731.99
530.49	2844.63
530.69	3442.64
530.89	2959.31
531.09	2977.75
531.28	2926.55
531.48	3194.83
531.68	2893.78
531.88	2920.40
532.08	3147.73
532.28	2947.03
532.47	2961.36
532.67	2955.22
532.87	3082.19
533.07	2809.81
533.27	2924.50
533.46	2983.89
533.66	3024.85
533.86	2947.03
534.06	2815.96
534.26	2889.68
534.45	2928.60
534.65	3104.72
534.85	2910.16
535.05	2781.14
535.25	3157.97
535.44	2758.61
535.64	2848.72
535.84	2893.78
536.04	2877.40
536.24	2893.78
536.43	2787.29
536.63	2770.90
536.83	2916.31
537.03	2987.99
537.22	2619.35
537.42	2672.60
537.62	3022.80
537.82	2867.16
538.02	3012.56
538.21	2992.08
538.41	3540.94
538.61	3028.95
538.81	2815.96
539.00	2990.03
539.20	2752.47
539.40	2987.99
539.60	2797.53
539.79	3024.85
539.99	2901.97
540.19	2813.91
540.39	2809.81
540.58	2877.40
540.78	3143.63
540.98	3012.56
541.18	3117.01
541.37	2973.65
541.57	3026.90
541.77	3094.48
541.97	2795.48
542.16	2676.70
542.36	2891.73
542.56	3143.63
542.76	3002.32
542.95	2906.07
543.15	3016.66
543.35	3086.29
543.54	2795.48
543.74	2750.42
543.94	3231.69
544.14	2883.54
544.33	3035.09
544.53	2820.05
544.73	2899.92
544.93	2904.02
545.12	2824.15
545.32	2815.96
545.52	2959.31
545.71	2818.00
545.91	2848.72
546.11	2795.48
546.30	2836.44
546.50	2957.27
546.70	2928.60
546.90	2885.59
547.09	2652.12
547.29	2965.46
547.49	3033.04
547.68	2789.33
547.88	2824.15
548.08	3065.81
548.27	3229.65
548.47	2805.72
548.67	3012.56
548.87	3119.06
549.06	2842.58
549.26	2805.72
549.46	3028.95
549.65	2965.46
549.85	2914.26
550.05	2924.50
550.24	2922.45
550.44	2992.08
550.64	2889.68
550.83	2869.20
551.03	3254.22
551.23	3086.29
551.42	2889.68
551.62	2881.49
551.82	2920.40
552.01	2904.02
552.21	3227.60
552.41	2856.92
552.60	3303.37
552.80	2985.94
553.00	2813.91
553.19	2897.88
553.39	3336.14
553.59	2686.94
553.78	2881.49
553.98	2897.88
554.17	2797.53
554.37	3035.09
554.57	2926.55
554.76	2656.22
554.96	2873.30
555.16	3010.51
555.35	2938.84
555.55	2967.51
555.75	3053.52
555.94	3164.11
556.14	2686.94
556.33	2887.64
556.53	2971.60
556.73	2987.99
556.92	2934.74
557.12	2801.62
557.32	3282.89
557.51	3272.65
557.71	2951.12
557.90	3004.37
558.10	3241.93
558.30	2936.79
558.49	2869.20
558.69	2840.53
558.88	3078.10
559.08	2967.51
559.28	2863.06
559.47	2885.59
559.67	3164.11
559.86	3340.24
560.06	2856.92
560.26	2838.48
560.45	3082.19
560.65	2908.12
560.84	3110.86
561.04	2783.19
561.24	3155.92
561.43	2697.17
561.63	3047.38
561.82	2912.21
562.02	3053.52
562.22	2918.36
562.41	2795.48
562.61	2838.48
562.80	2858.96
563.00	3360.72
563.19	2871.25
563.39	2893.78
563.59	3157.97
563.78	2836.44
563.98	2586.58
564.17	2889.68
564.37	2701.27
564.56	2959.31
564.76	2785.24
564.96	2983.89
565.15	3043.28
565.35	3409.87
565.54	2785.24
565.74	2936.79
565.93	3137.49
566.13	3024.85
566.32	2912.21
566.52	2971.60
566.71	2944.98
566.91	3170.26
567.11	2922.45
567.30	2736.09
567.50	3059.67
567.69	3049.43
567.89	2867.16
568.08	2770.90
568.28	3104.72
568.47	2772.95
568.67	2815.96
568.86	2813.91
569.06	3129.30
569.25	2901.97
569.45	2731.99
569.64	2828.24
569.84	2916.31
570.04	3059.67
570.23	2891.73
570.43	2942.93
570.62	3004.37
570.82	3243.98
571.01	2709.46
571.21	2750.42
571.40	2844.63
571.60	3131.34
571.79	2826.20
571.99	2897.88
572.18	2793.43
572.38	3041.23
572.57	2924.50
572.77	2969.55
572.96	3489.74
573.16	3016.66
573.35	2861.01
573.55	3092.43
573.74	3053.52
573.94	2869.20
574.13	2901.97
574.33	2969.55
574.52	3258.32
574.71	3078.10
574.91	2895.83
575.10	2705.37
575.30	2897.88
575.49	2809.81
575.69	2785.24
575.88	2836.44
576.08	3002.32
576.27	3135.44
576.47	2842.58
576.66	3067.86
576.86	3198.93
577.05	3098.58
577.25	2932.69
577.44	3078.10
577.64	2895.83
577.83	3157.97
578.02	2918.36
578.22	3092.43
578.41	3311.57
578.61	2871.25
578.80	2772.95
579.00	2918.36
579.19	2969.55
579.39	3024.85
579.58	2918.36
579.77	2973.65
579.97	3160.02
580.16	3188.69
580.36	3014.61
580.55	2949.08
580.75	3022.80
580.94	3014.61
581.13	3002.32
581.33	3084.24
581.52	3018.71
581.72	3319.76
581.91	2992.08
582.11	2973.65
582.30	3188.69
582.49	2994.13
582.69	3170.26
582.88	2944.98
583.08	2967.51
583.27	3155.92
583.47	2969.55
583.66	2879.44
583.85	2729.94
584.05	2920.40
584.24	2973.65
584.44	2914.26
584.63	3137.49
584.82	3145.68
585.02	3067.86
585.21	2932.69
585.41	3147.73
585.60	2975.70
585.79	3100.62
585.99	3157.97
586.18	2994.13
586.37	3815.37
586.57	5760.94
586.76	16750.34
586.96	35683.81
587.15	49014.04
587.34	56999.07
587.54	61400.15
587.73	54641.85
587.93	38841.78
588.12	29509.18
588.31	24360.59
588.51	21462.71
588.70	19887.82
588.89	17266.42
589.09	14618.40
589.28	12656.45
589.47	9938.79
589.67	7681.93
589.86	6037.41
590.06	4673.46
590.25	4102.08
590.44	3559.37
590.64	3291.09
590.83	3309.52
591.02	3153.87
591.22	2944.98
591.41	2932.69
591.60	2961.36
591.80	3391.44
591.99	2801.62
592.18	2828.24
592.38	3196.88
592.57	2912.21
592.76	2992.08
592.96	2926.55
593.15	2916.31
593.34	3172.30
593.54	2877.40
593.73	3071.95
593.92	3117.01
594.12	3061.71
594.31	2963.41
594.50	3131.34
594.70	3022.80
594.89	3430.35
595.08	2775.00
595.28	3026.90
595.47	3497.93
595.66	3168.21
595.86	2848.72
596.05	2811.86
596.24	2944.98
596.43	3272.65
596.63	2973.65
596.82	3033.04
597.01	3067.86
597.21	3225.55
597.40	2899.92
597.59	2983.89
597.79	2938.84
597.98	3065.81
598.17	2963.41
598.36	2803.67
598.56	3184.59
598.75	2949.08
598.94	2951.12
599.14	2861.01
599.33	2908.12
599.52	3112.91
599.71	2949.08
599.91	2906.07
600.10	3143.63
600.29	2947.03
600.48	2936.79
600.68	2959.31
600.87	3086.29
601.06	2899.92
601.26	2852.82
601.45	3006.42
601.64	2996.18
601.83	3258.32
602.03	2779.09
602.22	2820.05
602.41	3198.93
602.60	3487.69
602.80	2961.36
602.99	2918.36
603.18	2873.30
603.37	3002.32
603.57	2828.24
603.76	2944.98
603.95	3119.06
604.14	2957.27
604.34	2785.24
604.53	2846.68
604.72	3063.76
604.91	3024.85
605.10	2908.12
605.30	2715.61
605.49	3442.64
605.68	3125.20
605.87	2889.68
606.07	2797.53
606.26	3028.95
606.45	3139.54
606.64	2895.83
606.84	2738.13
607.03	3000.27
607.22	3145.68
607.41	2854.87
607.60	2834.39
607.80	3162.06
607.99	2992.08
608.18	2942.93
608.37	2904.02
608.56	2871.25
608.76	3215.31
608.95	3024.85
609.14	2836.44
609.33	3190.74
609.52	3176.40
609.72	3002.32
609.91	2977.75
610.10	2990.03
610.29	3223.50
610.48	3014.61
610.68	2949.08
610.87	3030.99
611.06	3082.19
611.25	2918.36
611.44	2944.98
611.63	2873.30
611.83	3207.12
612.02	2682.84
612.21	2928.60
612.40	2727.89
612.59	2768.85
612.79	2717.65
612.98	2854.87
613.17	3366.86
613.36	3024.85
613.55	3041.23
613.74	2838.48
613.93	2975.70
614.13	3033.04
614.32	3030.99
614.51	2889.68
614.70	2957.27
614.89	2861.01
615.08	3028.95
615.28	3262.41
615.47	2772.95
615.66	3033.04
615.85	2836.44
616.04	3026.90
616.23	2918.36
616.42	3049.43
616.62	2891.73
616.81	2959.31
617.00	2983.89
617.19	3119.06
617.38	2850.77
617.57	2940.88
617.76	3098.58
617.95	3135.44
618.15	3016.66
618.34	3026.90
618.53	2723.80
618.72	3143.63
618.91	3071.95
619.10	2975.70
619.29	3006.42
619.48	3010.51
619.68	2772.95
619.87	2883.54
620.06	2775.00
620.25	2975.70
620.44	2822.10
620.63	2820.05
620.82	3008.47
621.01	3016.66
621.20	2785.24
621.39	2930.64
621.59	3033.04
621.78	2938.84
621.97	2938.84
622.16	2942.93
622.35	3147.73
622.54	3100.62
622.73	2990.03
622.92	2625.50
623.11	3114.96
623.30	2863.06
623.49	2934.74
623.68	2781.14
623.88	3155.92
624.07	2858.96
624.26	2811.86
624.45	2803.67
624.64	2914.26
624.83	3092.43
625.02	2809.81
625.21	2852.82
625.40	3098.58
625.59	3223.50
625.78	2818.00
625.97	3006.42
626.16	3207.12
626.35	3176.40
626.54	2985.94
626.74	3106.77
626.93	2930.64
627.12	2953.17
627.31	2957.27
627.50	2961.36
627.69	3250.13
627.88	2795.48
628.07	2832.34
628.26	2688.98
628.45	2840.53
628.64	2797.53
628.83	2885.59
629.02	2648.02
629.21	3067.86
629.40	3022.80
629.59	2805.72
629.78	2842.58
629.97	2973.65
630.16	3018.71
630.35	2840.53
630.54	2887.64
630.73	2883.54
630.92	2934.74
631.11	2815.96
631.30	2895.83
631.49	3157.97
631.68	2969.55
631.87	2975.70
632.06	2772.95
632.25	3403.72
632.44	3008.47
632.63	2918.36
632.82	2904.02
633.01	2842.58
633.20	2951.12
633.39	2836.44
633.58	2609.11
633.77	3030.99
633.96	3055.57
634.15	2981.84
634.34	2942.93
634.53	3100.62
634.72	2871.25
634.91	2746.33
635.10	2856.92
635.29	3076.05
635.48	3004.37
635.67	2779.09
635.86	2764.76
636.05	3178.45
636.24	2949.08
636.43	2856.92
636.62	2936.79
636.81	2602.97
637.00	2881.49
637.19	2879.44
637.38	2830.29
637.57	2932.69
637.76	3022.80
637.95	3033.04
638.14	2856.92
638.33	3047.38
638.52	2947.03
638.71	2775.00
638.89	2727.89
639.08	3463.12
639.27	3200.98
639.46	2967.51
639.65	3358.67
639.84	3411.92
640.03	3463.12
640.22	3223.50
640.41	3196.88
640.60	3086.29
640.79	3131.34
640.98	2994.13
641.17	3061.71
641.36	3137.49
641.55	3084.24
641.74	2750.42
641.92	2824.15
642.11	2840.53
642.30	2924.50
642.49	2779.09
642.68	2836.44
642.87	3039.19
643.06	3084.24
643.25	2705.37
643.44	2676.70
643.63	3028.95
643.82	3135.44
644.00	2742.23
644.19	2824.15
644.38	2777.05
644.57	3028.95
644.76	2969.55
644.95	2932.69
645.14	3026.90
645.33	2973.65
645.52	2938.84
645.71	2738.13
645.89	2822.10
646.08	2965.46
646.27	2844.63
646.46	3082.19
646.65	2797.53
646.84	2983.89
647.03	2709.46
647.22	3037.14
647.40	3002.32
647.59	3020.75
647.78	2635.74
647.97	2865.11
648.16	2877.40
648.35	3184.59
648.54	3106.77
648.73	2813.91
648.91	3074.00
649.10	3018.71
649.29	2877.40
649.48	2848.72
649.67	3074.00
649.86	3026.90
650.05	2951.12
650.23	3145.68
650.42	2856.92
650.61	3164.11
650.80	3090.38
650.99	3080.14
651.18	3129.30
651.36	3209.17
651.55	2914.26
651.74	3018.71
651.93	2949.08
652.12	2928.60
652.31	2871.25
652.49	2836.44
652.68	2887.64
652.87	3274.70
653.06	2928.60
653.25	3121.10
653.44	3016.66
653.62	3319.76
653.81	2926.55
654.00	2791.38
654.19	3110.86
654.38	3493.83
654.56	2906.07
654.75	2779.09
654.94	3235.79
655.13	3022.80
655.32	2836.44
655.51	2928.60
655.69	2928.60
655.88	3143.63
656.07	2772.95
656.26	2953.17
656.45	2734.04
656.63	2992.08
656.82	2914.26
657.01	3078.10
657.20	2830.29
657.38	3264.46
657.57	2883.54
657.76	2691.03
657.95	3131.34
658.14	2906.07
658.32	2918.36
658.51	2639.83
658.70	3039.19
658.89	3049.43
659.08	2904.02
659.26	3106.77
659.45	2830.29
659.64	3082.19
659.83	2875.35
660.01	3252.17
660.20	3055.57
660.39	3221.45
660.58	2611.16
660.76	2951.12
660.95	2736.09
661.14	3057.62
661.33	2760.66
661.51	2799.57
661.70	2883.54
661.89	3006.42
662.08	2918.36
662.26	2699.22
662.45	2836.44
662.64	3377.10
662.83	2871.25
663.01	2787.29
663.20	2875.35
663.39	3239.89
663.58	2901.97
663.76	2820.05
663.95	3090.38
664.14	2910.16
664.32	2963.41
664.51	2731.99
664.70	2719.70
664.89	2985.94
665.07	2779.09
665.26	3000.27
665.45	2797.53
665.64	3067.86
665.82	2869.20
666.01	2910.16
666.20	2760.66
666.38	3112.91
666.57	3184.59
666.76	4835.25
666.95	11013.98
667.13	17626.87
667.32	21644.98
667.51	24301.20
667.69	24970.88
667.88	21085.89
668.07	15146.78
668.25	13010.75
668.44	11265.88
668.63	9690.99
668.81	8562.56
669.00	7292.82
669.19	6676.38
669.38	5877.67
669.56	5160.88
669.75	4339.65
669.94	3905.48
670.12	3508.17
670.31	3151.82
670.50	3117.01
670.68	3188.69
670.87	3080.14
671.06	2877.40
671.24	3004.37
671.43	3246.03
671.62	2963.41
671.80	2832.34
671.99	3045.33
672.18	3014.61
672.36	3184.59
672.55	2916.31
672.74	2828.24
672.92	2940.88
673.11	3098.58
673.29	2666.46
673.48	3014.61
673.67	2938.84
673.85	3149.78
674.04	2742.23
674.23	2918.36
674.41	3323.85
674.60	2848.72
674.79	2645.98
674.97	2691.03
675.16	3106.77
675.34	3264.46
675.53	2729.94
675.72	2932.69
675.90	3391.44
676.09	2883.54
676.28	2836.44
676.46	2707.41
676.65	3127.25
676.83	2842.58
677.02	2949.08
677.21	2987.99
677.39	2961.36
677.58	2797.53
677.77	2865.11
677.95	2783.19
678.14	2961.36
678.32	2934.74
678.51	2840.53
678.70	3082.19
678.88	2957.27
679.07	3018.71
679.25	2842.58
679.44	2918.36
679.63	2852.82
679.81	2959.31
680.00	3080.14
680.18	2928.60
680.37	3243.98
680.55	3018.71
680.74	2676.70
680.93	2656.22
681.11	2998.23
681.30	2914.26
681.48	2858.96
681.67	2877.40
681.85	3004.37
682.04	2850.77
682.23	3051.47
682.41	2940.88
682.60	2914.26
682.78	3024.85
682.97	2803.67
683.15	2926.55
683.34	3014.61
683.53	3246.03
683.71	2750.42
683.90	2940.88
684.08	3286.99
684.27	2871.25
684.45	2910.16
684.64	3041.23
684.82	2979.79
685.01	3090.38
685.19	2807.77
685.38	3039.19
685.57	2910.16
685.75	2914.26
685.94	2811.86
686.12	2713.56
686.31	2844.63
686.49	3295.18
686.68	2686.94
686.86	2936.79
687.05	2940.88
687.23	3243.98
687.42	2895.83
687.60	2615.26
687.79	3192.78
687.97	3256.27
688.16	2961.36
688.34	3057.62
688.53	2734.04
688.71	3049.43
688.90	3166.16
689.08	2940.88
689.27	2719.70
689.45	3102.67
689.64	3024.85
689.82	2940.88
690.01	3059.67
690.19	3045.33
690.38	2918.36
690.56	3022.80
690.75	2846.68
690.93	2947.03
691.12	2861.01
691.30	2932.69
691.49	2944.98
691.67	2955.22
691.86	3143.63
692.04	2920.40
692.23	2934.74
692.41	3076.05
692.60	3172.30
692.78	3080.14
692.97	2987.99
693.15	2940.88
693.34	3106.77
693.52	3047.38
693.71	2834.39
693.89	2836.44
694.08	2695.13
694.26	2985.94
694.44	3065.81
694.63	3125.20
694.81	2826.20
695.00	2828.24
695.18	3090.38
695.37	3450.83
695.55	2951.12
695.74	2877.40
695.92	2961.36
696.10	3237.84
696.29	2691.03
696.47	2887.64
696.66	2807.77
696.84	2820.05
697.03	2828.24
697.21	3119.06
697.40	4360.13
697.58	3231.69
697.76	2830.29
697.95	2850.77
698.13	2826.20
698.32	2895.83
698.50	2865.11
698.68	2877.40
698.87	3024.85
699.05	3256.27
699.24	2877.40
699.42	2715.61
699.61	3049.43
699.79	3045.33
699.97	2897.88
700.16	2766.81
700.34	2869.20
700.53	3039.19
700.71	3121.10
700.89	3022.80
701.08	2858.96
701.26	3061.71
701.45	3246.03
701.63	2805.72
701.81	2873.30
702.00	2840.53
702.18	2922.45
702.37	2809.81
702.55	3141.58
702.73	3008.47
702.92	2893.78
703.10	3117.01
703.28	3153.87
703.47	2793.43
703.65	3028.95
703.84	3043.28
704.02	2977.75
704.20	3256.27
704.39	2883.54
704.57	2942.93
704.75	3125.20
704.94	3020.75
705.12	2916.31
705.30	3442.64
705.49	6604.70
705.67	12951.35
705.86	18134.76
706.04	20518.60
706.22	22935.20
706.41	22103.73
706.59	16838.40
706.77	13125.43
706.96	11452.24
707.14	10250.08
707.32	8882.04
707.51	7899.02
707.69	6504.35
707.87	5511.08
708.06	4579.26
708.24	3930.05
708.42	3676.10
708.61	3733.45
708.79	2967.51
708.97	2983.89
709.16	3051.47
709.34	2985.94
709.52	2850.77
709.71	2805.72
709.89	3108.82
710.07	2858.96
710.26	2736.09
710.44	2955.22
710.62	3137.49
710.80	2994.13
710.99	2967.51
711.17	2967.51
711.35	2904.02
711.54	2865.11
711.72	2996.18
711.90	2885.59
712.09	3051.47
712.27	2944.98
712.45	2961.36
712.63	2756.57
712.82	3002.32
713.00	2967.51
713.18	3012.56
713.37	3145.68
713.55	3137.49
713.73	3069.91
713.91	2998.23
714.10	2883.54
714.28	3020.75
714.46	3098.58
714.65	2934.74
714.83	2875.35
715.01	2994.13
715.19	2965.46
715.38	2813.91
715.56	2975.70
715.74	2877.40
715.92	2922.45
716.11	3186.64
716.29	2664.41
716.47	2963.41
716.65	2947.03
716.84	2703.32
717.02	2922.45
717.20	2711.51
717.38	2883.54
717.57	2994.13
717.75	2910.16
717.93	2918.36
718.11	3082.19
718.30	2738.13
718.48	2895.83
718.66	3102.67
718.84	3143.63
719.03	2895.83
719.21	2684.89
719.39	3297.23
719.57	3112.91
719.75	2912.21
719.94	2795.48
720.12	2975.70
720.30	2930.64
720.48	2949.08
720.67	2822.10
720.85	2820.05
721.03	2875.35
721.21	2736.09
721.39	2994.13
721.58	3086.29
721.76	2990.03
721.94	2832.34
722.12	2985.94
722.30	3315.66
722.49	2879.44
722.67	2918.36
722.85	2910.16
723.03	2729.94
723.21	2912.21
723.40	2922.45
723.58	3026.90
723.76	3096.53
723.94	3164.11
724.12	3022.80
724.30	3123.15
724.49	3157.97
724.67	2865.11
724.85	2979.79
725.03	2795.48
725.21	3084.24
725.40	3188.69
725.58	2928.60
725.76	3084.24
725.94	3008.47
726.12	2721.75
726.30	2893.78
726.49	2879.44
726.67	2934.74
726.85	2985.94
727.03	3330.00
727.21	4360.13
727.39	5463.98
727.57	5885.86
727.76	6301.60
727.94	6195.11
728.12	5631.91
728.30	4712.38
728.48	4339.65
728.66	4179.90
728.84	3913.67
729.03	3495.88
729.21	3366.86
729.39	3266.51
729.57	2979.79
729.75	3155.92
729.93	3012.56
730.11	2799.57
730.30	2873.30
730.48	2961.36
730.66	2963.41
730.84	2990.03
731.02	3004.37
731.20	2934.74
731.38	2871.25
731.56	2691.03
731.74	2772.95
731.93	3020.75
732.11	2987.99
732.29	2881.49
732.47	3090.38
732.65	3043.28
732.83	3143.63
733.01	2992.08
733.19	2887.64
733.37	3061.71
733.56	2889.68
733.74	2863.06
733.92	3254.22
734.10	2971.60
734.28	2975.70
734.46	2629.59
734.64	2981.84
734.82	2875.35
735.00	2818.00
735.18	2844.63
735.36	3024.85
735.54	2965.46
735.73	2828.24
735.91	3006.42
736.09	3172.30
736.27	2975.70
736.45	2967.51
736.63	2652.12
736.81	2797.53
736.99	3061.71
737.17	3008.47
737.35	2822.10
737.53	3000.27
737.71	2938.84
737.89	3051.47
738.07	2828.24
738.25	2924.50
738.43	2731.99
738.61	2803.67
738.80	2719.70
738.98	2703.32
739.16	2865.11
739.34	2813.91
739.52	3053.52
739.70	2934.74
739.88	3147.73
740.06	2992.08
740.24	2650.07
740.42	3268.56
740.60	2693.08
740.78	2869.20
740.96	2711.51
741.14	2922.45
741.32	3035.09
741.50	2693.08
741.68	3059.67
741.86	3241.93
742.04	2858.96
742.22	2746.33
742.40	2875.35
742.58	3043.28
742.76	2885.59
742.94	3071.95
743.12	2707.41
743.30	2953.17
743.48	3117.01
743.66	2885.59
743.84	2922.45
744.02	2930.64
744.20	3000.27
744.38	2775.00
744.56	2811.86
744.74	3317.71
744.92	3002.32
745.10	3139.54
745.28	2951.12
745.46	3270.61
745.64	2858.96
745.82	2961.36
746.00	2867.16
746.18	3069.91
746.36	2852.82
746.54	2875.35
746.72	2885.59
746.90	2811.86
747.08	3153.87
747.26	2895.83
747.44	2965.46
747.62	3026.90
747.80	3033.04
747.98	3004.37
748.15	2912.21
748.33	3225.55
748.51	2922.45
748.69	2992.08
748.87	2723.80
749.05	2910.16
749.23	2971.60
749.41	2908.12
749.59	2897.88
749.77	3096.53
749.95	2852.82
750.13	2830.29
750.31	3047.38
750.49	2994.13
750.67	3141.58
750.85	3002.32
751.03	2889.68
751.20	3334.09
751.38	3030.99
751.56	2994.13
751.74	2830.29
751.92	2889.68
752.10	2826.20
752.28	3119.06
752.46	2799.57
752.64	2940.88
752.82	2930.64
753.00	3125.20
753.18	2818.00
753.35	2832.34
753.53	2897.88
753.71	2832.34
753.89	2910.16
754.07	3008.47
754.25	3196.88
754.43	2994.13
754.61	2758.61
754.79	3000.27
754.97	3022.80
755.14	3082.19
755.32	2713.56
755.50	2998.23
755.68	2975.70
755.86	2791.38
756.04	2787.29
756.22	2666.46
756.40	3112.91
756.57	3200.98
756.75	2826.20
756.93	3135.44
757.11	3155.92
757.29	2770.90
757.47	2789.33
757.65	2729.94
757.82	2619.35
758.00	2756.57
758.18	2727.89
758.36	2949.08
758.54	3309.52
758.72	2721.75
758.90	2975.70
759.07	3010.51
759.25	2865.11
759.43	2926.55
759.61	2736.09
759.79	4181.95
759.97	3170.26
760.15	2828.24
760.32	2815.96
760.50	3039.19
760.68	3278.80
760.86	2680.79
761.04	3096.53
761.22	3108.82
761.39	2975.70
761.57	2947.03
761.75	2879.44
761.93	3024.85
762.11	2904.02
762.28	2879.44
762.46	2758.61
762.64	3141.58
762.82	2834.39
763.00	2899.92
763.18	3049.43
763.35	2795.48
763.53	3057.62
763.71	2940.88
763.89	2834.39
764.07	2961.36
764.24	2936.79
764.42	2994.13
764.60	2920.40
764.78	3135.44
764.96	3074.00
765.13	3071.95
765.31	2789.33
765.49	3053.52
765.67	2846.68
765.84	2803.67
766.02	2799.57
766.20	2717.65
766.38	2983.89
766.56	2891.73
766.73	3047.38
766.91	3041.23
767.09	2947.03
767.27	2973.65
767.44	2731.99
767.62	3063.76
767.80	2959.31
767.98	2740.18
768.15	2844.63
768.33	3100.62
768.51	3112.91
768.69	3020.75
768.87	2873.30
769.04	3041.23
769.22	3424.20
769.40	3014.61
769.58	3069.91
769.75	3082.19
769.93	3221.45
770.11	2897.88
770.28	2770.90
770.46	3139.54
770.64	3067.86
770.82	2863.06
770.99	2797.53
771.17	3151.82
771.35	2875.35
771.53	2809.81
771.70	2799.57
771.88	3069.91
772.06	2934.74
772.23	2809.81
772.41	2858.96
772.59	2924.50
772.77	2770.90
772.94	2865.11
773.12	2920.40
773.30	2858.96
773.47	3010.51
773.65	2797.53
773.83	3069.91
774.01	2955.22
774.18	2666.46
774.36	2877.40
774.54	2658.26
774.71	3153.87
774.89	2764.76
775.07	2861.01
775.24	2818.00
775.42	2861.01
775.60	3301.33
775.78	2822.10
775.95	2760.66
776.13	2729.94
776.31	2734.04
776.48	2985.94
776.66	3092.43
776.84	2887.64
777.01	2863.06
777.19	2777.05
777.37	2813.91
777.54	3076.05
777.72	3291.09
777.90	2955.22
778.07	2820.05
778.25	3571.66
778.43	3127.25
778.60	2807.77
778.78	2998.23
778.96	3217.36
779.13	2797.53
779.31	2992.08
779.49	2865.11
779.66	3010.51
779.84	2969.55
780.01	2887.64
780.19	2813.91
780.37	3215.31
780.54	3002.32
780.72	2742.23
780.90	2764.76
781.07	2932.69
781.25	2871.25
781.43	3141.58
781.60	2762.71
781.78	3178.45
781.95	2998.23
782.13	2856.92
782.31	2846.68
782.48	2699.22
782.66	2938.84
782.83	3104.72
783.01	2992.08
783.19	3090.38
783.36	2854.87
783.54	2818.00
783.72	2961.36
783.89	2893.78
784.07	2994.13
784.24	2887.64
784.42	3076.05
784.60	2981.84
784.77	3102.67
784.95	2715.61
785.12	2813.91
785.30	3035.09
785.47	2836.44
785.65	2715.61
785.83	2951.12
786.00	2856.92
786.18	3047.38
786.35	2791.38
786.53	2750.42
786.71	3174.35
786.88	3035.09
787.06	2901.97
787.23	2951.12
787.41	2715.61
787.58	2996.18
787.76	2725.85
787.94	2895.83
788.11	2973.65
788.29	2795.48
788.46	2834.39
788.64	2676.70
788.81	2895.83
788.99	2838.48
789.16	2766.81
789.34	2877.40
789.52	2785.24
789.69	2861.01
789.87	2658.26
790.04	2766.81
790.22	2981.84
790.39	3270.61
790.57	2719.70
790.74	2770.90
790.92	3235.79
791.09	2742.23
791.27	2936.79
791.44	2940.88
791.62	2967.51
791.79	3151.82
791.97	2932.69
792.15	3217.36
792.32	3082.19
792.50	3110.86
792.67	3030.99
792.85	3147.73
793.02	3074.00
793.20	2828.24
793.37	2725.85
793.55	2879.44
793.72	2715.61
793.90	3090.38
794.07	2889.68
794.25	2678.74
794.42	2998.23
794.60	3000.27
794.77	2934.74
794.95	2998.23
795.12	3088.34
795.30	2981.84
795.47	2635.74
795.65	3203.02
795.82	3016.66
796.00	2813.91
796.17	2914.26
796.34	2766.81
796.52	3010.51
796.69	3084.24
796.87	2938.84
797.04	2967.51
797.22	3135.44
797.39	2922.45
797.57	2985.94
797.74	2947.03
797.92	3041.23
798.09	2879.44
798.27	3086.29
798.44	2803.67
798.62	2863.06
798.79	2920.40
798.96	2957.27
799.14	2867.16
799.31	3463.12
799.49	2959.31
799.66	2797.53
799.84	2942.93
800.01	2805.72
800.19	3074.00
800.36	2660.31
800.53	2820.05
800.71	3055.57
800.88	3262.41
801.06	2725.85
801.23	2791.38
801.41	2899.92
801.58	2928.60
801.75	2824.15
801.93	2953.17
802.10	3121.10
802.28	2850.77
802.45	2854.87
802.63	2901.97
802.80	3309.52
802.97	2875.35
803.15	2918.36
803.32	2836.44
803.50	2758.61
803.67	2912.21
803.84	2736.09
804.02	2951.12
804.19	2938.84
804.37	2568.15
804.54	2783.19
804.71	2813.91
804.89	3047.38
805.06	2770.90
805.24	2801.62
805.41	2678.74
805.58	2951.12
805.76	3389.39
805.93	2889.68
806.10	3008.47
806.28	3100.62
806.45	3026.90
806.63	2979.79
806.80	2965.46
806.97	3039.19
807.15	3057.62
807.32	2926.55
807.49	2824.15
807.67	2801.62
807.84	3028.95
808.01	2645.98
808.19	3084.24
808.36	3418.06
808.54	2873.30
808.71	2826.20
808.88	2865.11
809.06	3211.22
809.23	3278.80
809.40	2822.10
809.58	2928.60
809.75	2944.98
809.92	2777.05
810.10	3145.68
810.27	2820.05
810.44	3008.47
810.62	3092.43
810.79	2889.68
810.96	2885.59
811.14	2848.72
811.31	3117.01
811.48	3041.23
811.66	2944.98
811.83	3227.60
812.00	3104.72
812.18	2908.12
812.35	3176.40
812.52	2924.50
812.69	2852.82
812.87	2846.68
813.04	2734.04
813.21	3004.37
813.39	2865.11
813.56	2775.00
813.73	3055.57
813.91	2811.86
814.08	2985.94
814.25	2957.27
814.42	2686.94
814.60	2856.92
814.77	3037.14
814.94	2895.83
815.12	2908.12
815.29	3186.64
815.46	2807.77
815.63	2932.69
815.81	2918.36
815.98	2899.92
816.15	2832.34
816.33	2918.36
816.50	2828.24
816.67	2998.23
816.84	2959.31
817.02	2738.13
817.19	2818.00
817.36	2994.13
817.53	3028.95
817.71	2828.24
817.88	2928.60
818.05	2930.64
818.22	2938.84
818.40	3078.10
818.57	2691.03
818.74	3084.24
818.91	2865.11
819.09	2916.31
819.26	3000.27
819.43	2858.96
819.60	2922.45
819.78	2938.84
819.95	3035.09
820.12	2752.47
820.29	3289.04
820.47	3119.06
820.64	2731.99
820.81	2740.18
820.98	2818.00
821.15	2828.24
821.33	2944.98
821.50	2723.80
821.67	3096.53
821.84	2783.19
822.02	2914.26
822.19	3114.96
822.36	2981.84
822.53	2844.63
822.70	2672.60
822.88	2881.49
823.05	3227.60
823.22	2850.77
823.39	2957.27
823.56	2979.79
823.74	3254.22
823.91	2760.66
824.08	2799.57
824.25	2781.14
824.42	3248.08
824.60	2738.13
824.77	2926.55
824.94	2944.98
825.11	2973.65
825.28	2703.32
825.45	2994.13
825.63	2975.70
825.80	2779.09
825.97	2924.50
826.14	2858.96
826.31	2652.12
826.48	3069.91
826.66	2822.10
826.83	2729.94
827.00	2856.92
827.17	2762.71
827.34	2865.11
827.51	2709.46
827.69	2965.46
827.86	2695.13
828.03	2875.35
828.20	2912.21
828.37	2789.33
828.54	3139.54
828.71	2805.72
828.89	2897.88
829.06	3028.95
829.23	3237.84
829.40	2754.52
829.57	2850.77
829.74	3098.58
829.91	2836.44
830.09	2717.65
830.26	2959.31
830.43	3262.41
830.60	2883.54
830.77	2947.03
830.94	3020.75
831.11	3149.78
831.28	2949.08
831.46	3069.91
831.63	2846.68
831.80	3188.69
831.97	2875.35
832.14	2867.16
832.31	2957.27
832.48	3059.67
832.65	3170.26
832.82	2914.26
832.99	2901.97
833.17	2883.54
833.34	3196.88
833.51	2887.64
833.68	2609.11
833.85	3229.65
834.02	2770.90
834.19	2867.16
834.36	2824.15
834.53	3026.90
834.70	3123.15
834.87	2836.44
835.04	2695.13
835.22	2863.06
835.39	2861.01
835.56	2691.03
835.73	2721.75
835.90	3065.81
836.07	2861.01
836.24	2830.29
836.41	2695.13
836.58	2797.53
836.75	3071.95
836.92	2820.05
837.09	2717.65
837.26	3149.78
837.43	3067.86
837.60	2818.00
837.77	2742.23
837.94	3088.34
838.12	3174.35
838.29	2643.93
838.46	2596.82
838.63	2770.90
838.80	3162.06
838.97	2762.71
839.14	2697.17
839.31	3012.56
839.48	3076.05
839.65	2746.33
839.82	2809.81
839.99	3047.38
840.16	3106.77
840.33	2645.98
840.50	2766.81
840.67	2805.72
840.84	2645.98
841.01	2699.22
841.18	2648.02
841.35	2961.36
841.52	3078.10
841.69	3055.57
841.86	2795.48
842.03	2967.51
842.20	3110.86
842.37	2820.05
842.54	2811.86
842.71	2932.69
842.88	2723.80
843.05	2775.00
843.22	2777.05
843.39	3172.30
843.56	2863.06
843.73	2727.89
843.90	2748.37
844.07	3037.14
844.24	3076.05
844.41	2785.24
844.58	2830.29
844.75	3014.61
844.92	3014.61
845.09	2832.34
845.26	2703.32
845.43	2996.18
845.60	2967.51
845.77	2871.25
845.94	2815.96
846.10	3106.77
846.27	2721.75
846.44	2678.74
846.61	2609.11
846.78	3037.14
846.95	3121.10
847.12	2699.22
847.29	2795.48
847.46	2777.05
847.63	3131.34
847.80	2650.07
847.97	2760.66
848.14	3321.81
848.31	2973.65
848.48	2607.06
848.65	2734.04
848.82	2889.68
848.98	3375.05
849.15	2854.87
849.32	2918.36
849.49	3110.86
849.66	2973.65
849.83	2764.76
850.00	2721.75
850.17	3076.05
850.34	2846.68
850.51	2596.82
850.68	2736.09
850.85	3297.23
851.01	2947.03
851.18	2693.08
851.35	2809.81
851.52	3033.04
851.69	3119.06
851.86	2676.70
852.03	2711.51
852.20	3078.10
852.37	2951.12
852.53	2631.64
852.70	2629.59
852.87	2918.36
853.04	3098.58
853.21	2725.85
853.38	2904.02
853.55	3135.44
853.72	3098.58
853.89	2637.78
854.05	2684.89
854.22	3057.62
854.39	2891.73
854.56	2705.37
854.73	2895.83
854.90	2777.05
855.07	2873.30
855.23	2670.55
855.40	2766.81
855.57	2871.25
855.74	2684.89
855.91	2893.78
856.08	2557.91
856.25	2781.14
856.41	2901.97
856.58	2729.94
856.75	2789.33
856.92	2844.63
857.09	3147.73
857.26	2611.16
857.42	2740.18
857.59	3065.81
857.76	2906.07
857.93	2760.66
858.10	2824.15
858.27	2842.58
858.43	2983.89
858.60	2703.32
858.77	2531.29
858.94	2875.35
859.11	3157.97
859.27	2809.81
859.44	2740.18
859.61	3309.52
859.78	3149.78
859.95	2768.85
860.12	2758.61
860.28	3309.52
860.45	3260.37
860.62	2756.57
860.79	2838.48
860.95	2906.07
861.12	2854.87
861.29	2654.17
861.46	2682.84
861.63	2998.23
861.79	2949.08
861.96	2668.50
862.13	2723.80
862.30	3217.36
862.47	2766.81
862.63	2568.15
862.80	2836.44
862.97	3084.24
863.14	3088.34
863.30	2795.48
863.47	2699.22
863.64	3305.42
863.81	3043.28
863.97	2648.02
864.14	2770.90
864.31	2883.54
864.48	2990.03
864.65	2713.56
864.81	2832.34
864.98	3114.96
865.15	3094.48
865.32	2836.44
865.48	2809.81
865.65	3231.69
865.82	2871.25
865.98	2775.00
866.15	2836.44
866.32	2897.88
866.49	2949.08
866.65	2838.48
866.82	2723.80
866.99	2959.31
867.16	2803.67
867.32	2756.57
867.49	2666.46
867.66	2893.78
867.83	2746.33
867.99	2682.84
868.16	2813.91
868.33	2760.66
868.49	2996.18
868.66	2723.80
868.83	2889.68
868.99	2985.94
869.16	2977.75
869.33	2891.73
869.50	2729.94
869.66	2953.17
869.83	2965.46
870.00	2672.60
870.16	2916.31
870.33	2881.49
870.50	3024.85
870.66	2828.24
870.83	2777.05
871.00	2963.41
871.17	3069.91
871.33	2824.15
871.50	2752.47
871.67	2944.98
871.83	2885.59
872.00	2799.57
872.17	2797.53
872.33	3268.56
872.50	3172.30
872.67	2760.66
872.83	2699.22
873.00	3039.19
873.17	2969.55
873.33	2840.53
873.50	2803.67
873.67	2850.77
873.83	2822.10
874.00	2699.22
874.16	2936.79
874.33	2936.79
874.50	2744.28
874.66	2705.37
874.83	2805.72
875.00	3006.42
875.16	3188.69
875.33	2912.21
875.50	2510.81
875.66	2858.96
875.83	3004.37
875.99	2803.67
876.16	2777.05
876.33	2838.48
876.49	2881.49
876.66	2854.87
876.83	2768.85
876.99	2658.26
877.16	2842.58
877.32	2713.56
877.49	2832.34
877.66	3012.56
877.82	3229.65
877.99	2807.77
878.15	3024.85
878.32	3067.86
878.49	2973.65
878.65	2707.41
878.82	2963.41
878.98	2848.72
879.15	3160.02
879.32	2912.21
879.48	2852.82
879.65	2951.12
879.81	2852.82
879.98	2721.75
880.15	2785.24
880.31	3143.63
880.48	2877.40
880.64	2809.81
880.81	2873.30
880.97	3291.09
881.14	3225.55
881.31	2717.65
881.47	2934.74
881.64	2936.79
881.80	2760.66
881.97	2850.77
882.13	2783.19
882.30	2781.14
882.47	2838.48
882.63	2748.37
882.80	2779.09
882.96	2869.20
883.13	3203.02
883.29	2754.52
883.46	2793.43
883.62	3368.91
883.79	2985.94
883.95	2867.16
884.12	2725.85
884.29	3125.20
884.45	2969.55
884.62	2850.77
884.78	2680.79
884.95	3178.45
885.11	2764.76
885.28	2830.29
885.44	2764.76
885.61	3069.91
885.77	3121.10
885.94	2932.69
886.10	2844.63
886.27	2926.55
886.43	3282.89
886.60	2951.12
886.76	2772.95
886.93	2861.01
887.09	2983.89
887.26	2627.54
887.42	2818.00
887.59	3192.78
887.75	3393.48
887.92	2916.31
888.08	2891.73
888.25	3295.18
888.41	3133.39
888.58	2820.05
888.74	2668.50
888.91	2887.64
>>>>>End Processed Spectral Data<<<<<
