SpectraSuite Data File
++++++++++++++++++++++++++++++++++++
Date: Thu May 05 21:11:23 CEST 2016
User: root
Dark Spectrum Present: No
Reference Spectrum Present: No
Number of Sampled Component Spectra: 1
Spectrometers: USB4C02835
Integration Time (usec): 100000 (USB4C02835)
Spectra Averaged: 1 (USB4C02835)
Boxcar Smoothing: 0 (USB4C02835)
Correct for Electrical Dark: No (USB4C02835)
Strobe/Lamp Enabled: No (USB4C02835)
Correct for Detector Non-linearity: No (USB4C02835)
Correct for Stray Light: No (USB4C02835)
Number of Pixels in Processed Spectrum: 3648
>>>>>Begin Processed Spectral Data<<<<<
177.47	2115.55
177.69	2115.55
177.91	2115.55
178.13	2172.89
178.36	2133.98
178.58	2777.05
178.80	2904.02
179.02	2750.42
179.24	2785.24
179.46	2551.77
179.68	2721.75
179.90	2934.74
180.13	2977.75
180.35	2502.62
180.57	2607.06
180.79	3071.95
181.01	2951.12
181.23	2697.17
181.45	2852.82
181.67	3074.00
181.90	3026.90
182.12	2766.81
182.34	2555.86
182.56	3016.66
182.78	3057.62
183.00	2627.54
183.22	2670.55
183.44	2654.17
183.66	3479.50
183.89	2783.19
184.11	2709.46
184.33	3055.57
184.55	3180.50
184.77	2717.65
184.99	2678.74
185.21	2865.11
185.43	3403.72
185.65	2707.41
185.87	2650.07
186.10	3313.61
186.32	3418.06
186.54	2838.48
186.76	2775.00
186.98	3196.88
187.20	3033.04
187.42	2697.17
187.64	2666.46
187.86	3135.44
188.08	3170.26
188.30	2566.10
188.52	2731.99
188.75	3289.04
188.97	3182.54
189.19	2645.98
189.41	2570.20
189.63	3086.29
189.85	2955.22
190.07	2504.67
190.29	2576.34
190.51	2971.60
190.73	2777.05
190.95	2910.16
191.17	2703.32
191.39	2639.83
191.61	3000.27
191.84	2631.64
192.06	2811.86
192.28	2731.99
192.50	3542.99
192.72	2781.14
192.94	2807.77
193.16	3205.07
193.38	3037.14
193.60	2568.15
193.82	2826.20
194.04	3182.54
194.26	2983.89
194.48	2744.28
194.70	2656.22
194.92	2940.88
195.14	3225.55
195.36	2670.55
195.58	2742.23
195.80	2916.31
196.02	2885.59
196.24	2643.93
196.46	2815.96
196.69	2953.17
196.91	3360.72
197.13	2809.81
197.35	2742.23
197.57	3262.41
197.79	3033.04
198.01	2738.13
198.23	2766.81
198.45	3024.85
198.67	2807.77
198.89	2547.67
199.11	2766.81
199.33	2840.53
199.55	2652.12
199.77	2607.06
199.99	2838.48
200.21	2838.48
200.43	3086.29
200.65	2576.34
200.87	2545.63
201.09	2979.79
201.31	2942.93
201.53	2750.42
201.75	2727.89
201.97	3010.51
202.19	3030.99
202.41	2746.33
202.63	2832.34
202.85	3065.81
203.07	2981.84
203.29	2799.57
203.51	2598.87
203.73	2830.29
203.95	3456.97
204.17	2701.27
204.39	2805.72
204.61	2916.31
204.83	2959.31
205.05	2777.05
205.27	2697.17
205.49	3379.15
205.71	2985.94
205.93	2580.44
206.15	2699.22
206.37	2994.13
206.59	2969.55
206.81	2519.00
207.03	2607.06
207.25	2856.92
207.47	3065.81
207.69	2713.56
207.91	3014.61
208.13	3200.98
208.34	2873.30
208.56	2691.03
208.78	2721.75
209.00	2967.51
209.22	2906.07
209.44	2684.89
209.66	2719.70
209.88	2936.79
210.10	2959.31
210.32	2695.13
210.54	2721.75
210.76	2975.70
210.98	3108.82
211.20	2525.15
211.42	2781.14
211.64	3190.74
211.86	3143.63
212.08	2695.13
212.30	2686.94
212.52	2940.88
212.74	3037.14
212.96	2729.94
213.17	2766.81
213.39	3123.15
213.61	3295.18
213.83	2715.61
214.05	2504.67
214.27	3164.11
214.49	2828.24
214.71	2684.89
214.93	2770.90
215.15	3063.76
215.37	3209.17
215.59	2594.78
215.81	2779.09
216.03	3211.22
216.24	3008.47
216.46	2707.41
216.68	2746.33
216.90	3069.91
217.12	3166.16
217.34	2652.12
217.56	2926.55
217.78	3223.50
218.00	3022.80
218.22	2803.67
218.44	2799.57
218.66	2967.51
218.87	3385.29
219.09	2779.09
219.31	2719.70
219.53	2955.22
219.75	2947.03
219.97	2684.89
220.19	2715.61
220.41	2910.16
220.63	3272.65
220.85	2697.17
221.06	2729.94
221.28	3340.24
221.50	3108.82
221.72	2715.61
221.94	2670.55
222.16	3024.85
222.38	3121.10
222.60	2672.60
222.82	2680.79
223.03	3086.29
223.25	2836.44
223.47	2660.31
223.69	2881.49
223.91	3069.91
224.13	3004.37
224.35	2582.49
224.57	2818.00
224.78	3119.06
225.00	2861.01
225.22	2756.57
225.44	2643.93
225.66	3065.81
225.88	2975.70
226.10	2795.48
226.32	2684.89
226.53	3266.51
226.75	2887.64
226.97	2801.62
227.19	2695.13
227.41	2901.97
227.63	2891.73
227.85	2506.71
228.06	2680.79
228.28	2983.89
228.50	3074.00
228.72	2498.52
228.94	2602.97
229.16	2705.37
229.37	2750.42
229.59	2607.06
229.81	2979.79
230.03	2838.48
230.25	2750.42
230.47	2521.05
230.69	2596.82
230.90	3049.43
231.12	2836.44
231.34	2768.85
231.56	2701.27
231.78	2830.29
232.00	2994.13
232.21	2707.41
232.43	2717.65
232.65	2654.17
232.87	3110.86
233.09	2592.73
233.30	2619.35
233.52	3192.78
233.74	2985.94
233.96	2658.26
234.18	2918.36
234.40	2998.23
234.61	3385.29
234.83	2668.50
235.05	2596.82
235.27	3461.07
235.49	3172.30
235.70	2549.72
235.92	2672.60
236.14	3106.77
236.36	3303.37
236.58	2609.11
236.79	2680.79
237.01	2971.60
237.23	2881.49
237.45	2875.35
237.67	2709.46
237.88	3090.38
238.10	3309.52
238.32	2668.50
238.54	2652.12
238.76	2967.51
238.97	2830.29
239.19	2584.54
239.41	2762.71
239.63	3157.97
239.85	2885.59
240.06	2725.85
240.28	2760.66
240.50	3096.53
240.72	3022.80
240.93	2691.03
241.15	2828.24
241.37	3026.90
241.59	3344.33
241.81	2705.37
242.02	2705.37
242.24	3076.05
242.46	3174.35
242.68	2557.91
242.89	2623.45
243.11	3127.25
243.33	2904.02
243.55	2582.49
243.76	2650.07
243.98	2850.77
244.20	2906.07
244.42	2793.43
244.64	2617.30
244.85	2740.18
245.07	2856.92
245.29	2645.98
245.51	2684.89
245.72	3033.04
245.94	3155.92
246.16	2648.02
246.38	2740.18
246.59	2883.54
246.81	2854.87
247.03	2652.12
247.24	2609.11
247.46	2881.49
247.68	2965.46
247.90	2645.98
248.11	2723.80
248.33	3057.62
248.55	2985.94
248.77	2738.13
248.98	2768.85
249.20	3280.85
249.42	3026.90
249.64	2695.13
249.85	2711.51
250.07	2918.36
250.29	3200.98
250.50	2686.94
250.72	2568.15
250.94	3059.67
251.16	3295.18
251.37	2643.93
251.59	2770.90
251.81	3092.43
252.02	3280.85
252.24	2598.87
252.46	2813.91
252.68	2877.40
252.89	2936.79
253.11	2527.19
253.33	2844.63
253.54	3235.79
253.76	2811.86
253.98	2680.79
254.20	2682.84
254.41	2822.10
254.63	2955.22
254.85	2529.24
255.06	2799.57
255.28	3061.71
255.50	2918.36
255.71	2697.17
255.93	2514.91
256.15	2936.79
256.36	3125.20
256.58	2578.39
256.80	2670.55
257.02	2924.50
257.23	2942.93
257.45	2740.18
257.67	2746.33
257.88	2920.40
258.10	3129.30
258.32	2613.21
258.53	2758.61
258.75	3313.61
258.97	2850.77
259.18	2621.40
259.40	2609.11
259.62	3311.57
259.83	3250.13
260.05	2691.03
260.27	3432.40
260.48	3178.45
260.70	2727.89
260.92	2672.60
261.13	2717.65
261.35	3051.47
261.57	3057.62
261.78	2559.96
262.00	2641.88
262.22	3090.38
262.43	2754.52
262.65	2670.55
262.86	2738.13
263.08	3364.81
263.30	3055.57
263.51	2562.01
263.73	2648.02
263.95	3227.60
264.16	2906.07
264.38	2572.25
264.60	2660.31
264.81	2936.79
265.03	3180.50
265.25	2987.99
265.46	2672.60
265.68	3200.98
265.89	3153.87
266.11	2668.50
266.33	2664.41
266.54	3147.73
266.76	3076.05
266.98	2750.42
267.19	2842.58
267.41	3151.82
267.62	3024.85
267.84	2557.91
268.06	2848.72
268.27	3033.04
268.49	3205.07
268.70	2715.61
268.92	2674.65
269.14	2807.77
269.35	2772.95
269.57	2731.99
269.79	2744.28
270.00	2824.15
270.22	3233.74
270.43	2605.02
270.65	2578.39
270.87	3043.28
271.08	3129.30
271.30	2764.76
271.51	2678.74
271.73	3026.90
271.95	3225.55
272.16	2586.58
272.38	2815.96
272.59	2949.08
272.81	3026.90
273.02	2662.36
273.24	2723.80
273.46	3162.06
273.67	2824.15
273.89	2586.58
274.10	2666.46
274.32	3243.98
274.54	3030.99
274.75	2744.28
274.97	2758.61
275.18	3080.14
275.40	3121.10
275.61	2740.18
275.83	2795.48
276.05	2803.67
276.26	2959.31
276.48	2844.63
276.69	2746.33
276.91	2875.35
277.12	3291.09
277.34	2846.68
277.55	2916.31
277.77	3006.42
277.99	2947.03
278.20	2756.57
278.42	2676.70
278.63	2861.01
278.85	2807.77
279.06	2727.89
279.28	2963.41
279.49	3143.63
279.71	3123.15
279.93	2869.20
280.14	2805.72
280.36	2760.66
280.57	3110.86
280.79	2955.22
281.00	2729.94
281.22	2922.45
281.43	3200.98
281.65	2570.20
281.86	2682.84
282.08	2990.03
282.29	3395.53
282.51	2623.45
282.73	2654.17
282.94	2684.89
283.16	3125.20
283.37	2983.89
283.59	2858.96
283.80	3076.05
284.02	2959.31
284.23	2742.23
284.45	2861.01
284.66	2850.77
284.88	2842.58
285.09	2719.70
285.31	2885.59
285.52	3026.90
285.74	2775.00
285.95	2996.18
286.17	2940.88
286.38	3194.83
286.60	2852.82
286.81	2680.79
287.03	2729.94
287.24	2910.16
287.46	3143.63
287.67	2906.07
287.89	3012.56
288.10	2977.75
288.32	2975.70
288.53	2971.60
288.75	2893.78
288.96	3133.39
289.18	2938.84
289.39	2801.62
289.61	2879.44
289.82	3317.71
290.04	3321.81
290.25	2711.51
290.47	2922.45
290.68	2922.45
290.90	3258.32
291.11	2607.06
291.33	2844.63
291.54	2899.92
291.76	2889.68
291.97	2904.02
292.18	2975.70
292.40	2850.77
292.61	2840.53
292.83	3028.95
293.04	2803.67
293.26	3041.23
293.47	2934.74
293.69	2742.23
293.90	2729.94
294.12	3209.17
294.33	3004.37
294.55	2834.39
294.76	2906.07
294.97	3192.78
295.19	3317.71
295.40	2828.24
295.62	2895.83
295.83	3164.11
296.05	2828.24
296.26	2914.26
296.48	2783.19
296.69	3016.66
296.90	2922.45
297.12	2973.65
297.33	2994.13
297.55	3055.57
297.76	3053.52
297.98	2885.59
298.19	2932.69
298.41	2832.34
298.62	2854.87
298.83	2981.84
299.05	2875.35
299.26	2869.20
299.48	2791.38
299.69	2928.60
299.90	2783.19
300.12	2826.20
300.33	3006.42
300.55	2844.63
300.76	2828.24
300.98	2744.28
301.19	3131.34
301.40	2885.59
301.62	2760.66
301.83	3137.49
302.05	2959.31
302.26	2824.15
302.47	2838.48
302.69	2803.67
302.90	3035.09
303.12	2686.94
303.33	2936.79
303.54	3395.53
303.76	2932.69
303.97	2750.42
304.19	2963.41
304.40	2807.77
304.61	2998.23
304.83	2951.12
305.04	2873.30
305.26	3014.61
305.47	2947.03
305.68	2787.29
305.90	2650.07
306.11	3180.50
306.33	2912.21
306.54	2641.88
306.75	2891.73
306.97	2731.99
307.18	2852.82
307.39	2842.58
307.61	2869.20
307.82	2947.03
308.04	3090.38
308.25	2705.37
308.46	2842.58
308.68	3000.27
308.89	3071.95
309.10	2889.68
309.32	2848.72
309.53	2873.30
309.74	3114.96
309.96	2801.62
310.17	2961.36
310.39	2920.40
310.60	3082.19
310.81	2781.14
311.03	2770.90
311.24	3123.15
311.45	2961.36
311.67	3074.00
311.88	2811.86
312.09	2922.45
312.31	2820.05
312.52	2719.70
312.73	2783.19
312.95	2711.51
313.16	2797.53
313.37	3006.42
313.59	3016.66
313.80	3030.99
314.01	3260.37
314.23	2848.72
314.44	2787.29
314.65	2813.91
314.87	2836.44
315.08	2875.35
315.29	2885.59
315.51	2856.92
315.72	2727.89
315.93	2895.83
316.15	2822.10
316.36	2979.79
316.57	2979.79
316.79	2842.58
317.00	2764.76
317.21	3053.52
317.43	2893.78
317.64	2809.81
317.85	2729.94
318.07	2885.59
318.28	2906.07
318.49	2883.54
318.70	2899.92
318.92	3018.71
319.13	3049.43
319.34	2936.79
319.56	2906.07
319.77	3155.92
319.98	3180.50
320.20	3049.43
320.41	3016.66
320.62	3004.37
320.83	2781.14
321.05	3037.14
321.26	2863.06
321.47	2979.79
321.69	3160.02
321.90	2748.37
322.11	2684.89
322.32	3074.00
322.54	3213.26
322.75	2750.42
322.96	3581.90
323.18	2705.37
323.39	2750.42
323.60	2688.98
323.81	2885.59
324.03	2813.91
324.24	3004.37
324.45	2881.49
324.66	2764.76
324.88	3160.02
325.09	3137.49
325.30	2770.90
325.52	2803.67
325.73	3026.90
325.94	2881.49
326.15	2627.54
326.37	2703.32
326.58	3239.89
326.79	3246.03
327.00	2760.66
327.22	2824.15
327.43	2912.21
327.64	2760.66
327.85	2840.53
328.07	2842.58
328.28	3426.25
328.49	2918.36
328.70	2797.53
328.92	2793.43
329.13	2895.83
329.34	3129.30
329.55	2996.18
329.76	2906.07
329.98	2994.13
330.19	3133.39
330.40	2930.64
330.61	2848.72
330.83	3127.25
331.04	2889.68
331.25	2879.44
331.46	2856.92
331.68	2858.96
331.89	3149.78
332.10	2842.58
332.31	2717.65
332.52	2910.16
332.74	3172.30
332.95	2664.41
333.16	2764.76
333.37	3108.82
333.58	2891.73
333.80	2867.16
334.01	2648.02
334.22	2930.64
334.43	2858.96
334.64	2699.22
334.86	2731.99
335.07	2844.63
335.28	3303.37
335.49	2688.98
335.70	2908.12
335.92	3190.74
336.13	3336.14
336.34	2895.83
336.55	2803.67
336.76	3104.72
336.98	2662.36
337.19	2783.19
337.40	2934.74
337.61	3393.48
337.82	2891.73
338.04	2881.49
338.25	2627.54
338.46	2928.60
338.67	2969.55
338.88	2758.61
339.09	2684.89
339.31	2820.05
339.52	2834.39
339.73	2752.47
339.94	2869.20
340.15	3117.01
340.36	2834.39
340.58	2869.20
340.79	2729.94
341.00	3141.58
341.21	2756.57
341.42	3002.32
341.63	2861.01
341.85	3172.30
342.06	3002.32
342.27	2705.37
342.48	3008.47
342.69	2777.05
342.90	3016.66
343.12	3114.96
343.33	2734.04
343.54	3137.49
343.75	3254.22
343.96	2828.24
344.17	2801.62
344.38	2963.41
344.60	2791.38
344.81	2764.76
345.02	2828.24
345.23	3246.03
345.44	3473.36
345.65	2879.44
345.86	2942.93
346.07	3037.14
346.29	2856.92
346.50	2973.65
346.71	2813.91
346.92	3272.65
347.13	3379.15
347.34	2895.83
347.55	2697.17
347.76	3074.00
347.98	2768.85
348.19	2881.49
348.40	2992.08
348.61	2856.92
348.82	3270.61
349.03	2899.92
349.24	2660.31
349.45	3254.22
349.66	2664.41
349.88	2801.62
350.09	2652.12
350.30	3231.69
350.51	3248.08
350.72	2949.08
350.93	2871.25
351.14	2942.93
351.35	3030.99
351.56	2844.63
351.77	2846.68
351.99	3012.56
352.20	3205.07
352.41	2916.31
352.62	2531.29
352.83	2920.40
353.04	2990.03
353.25	2813.91
353.46	2826.20
353.67	3188.69
353.88	2586.58
354.09	2658.26
354.30	2830.29
354.52	3137.49
354.73	2990.03
354.94	2762.71
355.15	2885.59
355.36	3325.90
355.57	2973.65
355.78	2713.56
355.99	2809.81
356.20	2985.94
356.41	3205.07
356.62	2920.40
356.83	2869.20
357.04	3164.11
357.25	2705.37
357.46	2738.13
357.68	2664.41
357.89	2852.82
358.10	2914.26
358.31	2873.30
358.52	2844.63
358.73	2854.87
358.94	2867.16
359.15	2854.87
359.36	2850.77
359.57	3010.51
359.78	3004.37
359.99	2922.45
360.20	2648.02
360.41	3010.51
360.62	3041.23
360.83	2877.40
361.04	2805.72
361.25	3104.72
361.46	3346.38
361.67	2934.74
361.88	2842.58
362.09	3233.74
362.30	2987.99
362.51	2729.94
362.72	2899.92
362.93	3106.77
363.14	3041.23
363.35	2809.81
363.56	2670.55
363.78	3223.50
363.99	3065.81
364.20	2852.82
364.41	2885.59
364.62	3274.70
364.83	3043.28
365.04	2856.92
365.25	2830.29
365.46	3313.61
365.67	2832.34
365.88	2871.25
366.09	2762.71
366.30	2869.20
366.51	2992.08
366.72	2652.12
366.93	2813.91
367.14	2961.36
367.35	3270.61
367.56	2779.09
367.77	2863.06
367.98	2969.55
368.18	2994.13
368.39	2932.69
368.60	2748.37
368.81	3084.24
369.02	2959.31
369.23	2834.39
369.44	2570.20
369.65	2965.46
369.86	3020.75
370.07	2969.55
370.28	2746.33
370.49	3008.47
370.70	2996.18
370.91	2742.23
371.12	2693.08
371.33	3235.79
371.54	2885.59
371.75	2926.55
371.96	2557.91
372.17	3016.66
372.38	2938.84
372.59	2869.20
372.80	2758.61
373.01	3024.85
373.22	2983.89
373.43	2846.68
373.64	2652.12
373.85	3157.97
374.06	3350.48
374.26	3047.38
374.47	2910.16
374.68	3149.78
374.89	3030.99
375.10	2797.53
375.31	2887.64
375.52	3041.23
375.73	3026.90
375.94	2645.98
376.15	2842.58
376.36	2842.58
376.57	2992.08
376.78	2871.25
376.99	2908.12
377.20	3190.74
377.40	3035.09
377.61	3053.52
377.82	2824.15
378.03	3233.74
378.24	3084.24
378.45	2848.72
378.66	2848.72
378.87	2727.89
379.08	2693.08
379.29	2736.09
379.50	2899.92
379.71	2957.27
379.91	3114.96
380.12	2768.85
380.33	2949.08
380.54	2856.92
380.75	2983.89
380.96	2711.51
381.17	2805.72
381.38	3035.09
381.59	2940.88
381.80	2813.91
382.00	2977.75
382.21	3045.33
382.42	3229.65
382.63	3198.93
382.84	2949.08
383.05	3100.62
383.26	3270.61
383.47	2944.98
383.68	2861.01
383.88	3102.67
384.09	2951.12
384.30	2959.31
384.51	2834.39
384.72	2895.83
384.93	2781.14
385.14	2883.54
385.35	3059.67
385.55	2768.85
385.76	3227.60
385.97	2844.63
386.18	2688.98
386.39	2840.53
386.60	2901.97
386.81	2899.92
387.02	2674.65
387.22	2811.86
387.43	3041.23
387.64	2994.13
387.85	3022.80
388.06	3022.80
388.27	4038.59
388.48	7282.58
388.68	10882.91
388.89	13492.02
389.10	14579.49
389.31	14159.66
389.52	11214.68
389.73	9549.68
389.93	8916.86
390.14	8187.78
390.35	7337.87
390.56	6750.10
390.77	5695.40
390.98	4339.65
391.18	3647.43
391.39	3424.20
391.60	2983.89
391.81	3026.90
392.02	2891.73
392.23	3375.05
392.43	3047.38
392.64	2883.54
392.85	2904.02
393.06	3262.41
393.27	2977.75
393.47	2834.39
393.68	2826.20
393.89	2918.36
394.10	3211.22
394.31	2775.00
394.52	2834.39
394.72	2901.97
394.93	3305.42
395.14	2682.84
395.35	2910.16
395.56	2928.60
395.76	2949.08
395.97	2830.29
396.18	2967.51
396.39	2987.99
396.60	3659.72
396.80	3172.30
397.01	3059.67
397.22	3114.96
397.43	3112.91
397.64	2828.24
397.84	2942.93
398.05	3250.13
398.26	3016.66
398.47	2897.88
398.67	3039.19
398.88	2965.46
399.09	3096.53
399.30	2795.48
399.51	2834.39
399.71	2877.40
399.92	2873.30
400.13	2899.92
400.34	2916.31
400.54	2930.64
400.75	3293.13
400.96	3033.04
401.17	3096.53
401.37	3129.30
401.58	3024.85
401.79	2850.77
402.00	2893.78
402.21	3446.73
402.41	3168.21
402.62	3135.44
402.83	3182.54
403.04	3327.95
403.24	3655.62
403.45	2967.51
403.66	3166.16
403.87	3162.06
404.07	3295.18
404.28	3053.52
404.49	3145.68
404.70	3057.62
404.90	3114.96
405.11	2842.58
405.32	2971.60
405.52	2895.83
405.73	2926.55
405.94	2742.23
406.15	2811.86
406.35	3065.81
406.56	3119.06
406.77	2924.50
406.98	2899.92
407.18	2707.41
407.39	3266.51
407.60	2828.24
407.80	2922.45
408.01	2895.83
408.22	3108.82
408.43	2723.80
408.63	2877.40
408.84	3151.82
409.05	3094.48
409.25	2717.65
409.46	2844.63
409.67	2836.44
409.88	2901.97
410.08	2850.77
410.29	2762.71
410.50	3084.24
410.70	3022.80
410.91	2740.18
411.12	2854.87
411.32	2977.75
411.53	2826.20
411.74	2936.79
411.95	2936.79
412.15	3035.09
412.36	3102.67
412.57	3012.56
412.77	2963.41
412.98	3002.32
413.19	2863.06
413.39	2881.49
413.60	2906.07
413.81	3200.98
414.01	2772.95
414.22	2863.06
414.43	3086.29
414.63	2926.55
414.84	3131.34
415.05	2824.15
415.25	2650.07
415.46	3162.06
415.67	2820.05
415.87	2834.39
416.08	2836.44
416.29	2987.99
416.49	3082.19
416.70	2977.75
416.91	2834.39
417.11	2912.21
417.32	3166.16
417.53	2906.07
417.73	2854.87
417.94	3016.66
418.15	3129.30
418.35	2928.60
418.56	2871.25
418.77	3426.25
418.97	3014.61
419.18	2910.16
419.38	2553.82
419.59	2901.97
419.80	3139.54
420.00	2848.72
420.21	2826.20
420.42	3272.65
420.62	3033.04
420.83	2824.15
421.04	2748.37
421.24	2949.08
421.45	3084.24
421.65	2813.91
421.86	2838.48
422.07	3182.54
422.27	3129.30
422.48	2777.05
422.69	2727.89
422.89	2922.45
423.10	2957.27
423.30	2746.33
423.51	2885.59
423.72	3157.97
423.92	3170.26
424.13	2609.11
424.33	2897.88
424.54	3133.39
424.75	2975.70
424.95	3067.86
425.16	2838.48
425.36	2987.99
425.57	3198.93
425.78	3016.66
425.98	2965.46
426.19	2940.88
426.39	2826.20
426.60	2867.16
426.81	2918.36
427.01	3047.38
427.22	2908.12
427.42	2654.17
427.63	2762.71
427.83	3153.87
428.04	3209.17
428.25	2967.51
428.45	2983.89
428.66	3155.92
428.86	2940.88
429.07	2875.35
429.28	2918.36
429.48	2973.65
429.69	2832.34
429.89	2838.48
430.10	2815.96
430.30	3110.86
430.51	3121.10
430.71	2795.48
430.92	2822.10
431.13	2865.11
431.33	3084.24
431.54	2930.64
431.74	3000.27
431.95	3387.34
432.15	2830.29
432.36	2840.53
432.56	2818.00
432.77	3354.57
432.98	3280.85
433.18	2865.11
433.39	2697.17
433.59	2983.89
433.80	3395.53
434.00	2994.13
434.21	2850.77
434.41	2893.78
434.62	3368.91
434.82	2715.61
435.03	2766.81
435.23	3117.01
435.44	2740.18
435.64	2772.95
435.85	2889.68
436.06	3141.58
436.26	3188.69
436.47	2873.30
436.67	2760.66
436.88	2914.26
437.08	3186.64
437.29	3053.52
437.49	2942.93
437.70	3186.64
437.90	2934.74
438.11	3114.96
438.31	2873.30
438.52	3157.97
438.72	3188.69
438.93	3207.12
439.13	2869.20
439.34	3147.73
439.54	2885.59
439.75	2996.18
439.95	2996.18
440.16	2838.48
440.36	2996.18
440.57	2818.00
440.77	2897.88
440.98	2873.30
441.18	3016.66
441.39	2787.29
441.59	2740.18
441.80	3368.91
442.00	3065.81
442.21	2944.98
442.41	2729.94
442.62	3219.41
442.82	2820.05
443.02	2875.35
443.23	2953.17
443.43	2959.31
443.64	3215.31
443.84	2756.57
444.05	2930.64
444.25	3006.42
444.46	2953.17
444.66	2805.72
444.87	2996.18
445.07	2674.65
445.28	2920.40
445.48	3061.71
445.69	2895.83
445.89	3426.25
446.09	2910.16
446.30	3160.02
446.50	3258.32
446.71	4628.41
446.91	5808.04
447.12	6416.29
447.32	6946.71
447.53	6784.92
447.73	5756.84
447.93	5027.76
448.14	4755.38
448.34	4857.78
448.55	4040.64
448.75	4048.83
448.96	3803.08
449.16	3542.99
449.36	3512.27
449.57	3055.57
449.77	2922.45
449.98	2893.78
450.18	3059.67
450.39	2940.88
450.59	3049.43
450.79	3008.47
451.00	3016.66
451.20	2973.65
451.41	2828.24
451.61	2992.08
451.81	2971.60
452.02	2783.19
452.22	2881.49
452.43	2838.48
452.63	2840.53
452.84	2887.64
453.04	2779.09
453.24	3047.38
453.45	2848.72
453.65	2854.87
453.86	2914.26
454.06	3028.95
454.26	2971.60
454.47	2734.04
454.67	3055.57
454.87	3026.90
455.08	2934.74
455.28	2996.18
455.49	2953.17
455.69	2938.84
455.89	3276.75
456.10	2924.50
456.30	2787.29
456.51	3090.38
456.71	2983.89
456.91	2893.78
457.12	2871.25
457.32	3045.33
457.52	2830.29
457.73	3117.01
457.93	3049.43
458.14	2867.16
458.34	2672.60
458.54	2826.20
458.75	2897.88
458.95	3180.50
459.15	3090.38
459.36	2904.02
459.56	2807.77
459.76	3387.34
459.97	3037.14
460.17	2809.81
460.37	3000.27
460.58	3014.61
460.78	3045.33
460.99	2754.52
461.19	2818.00
461.39	2861.01
461.60	2949.08
461.80	2891.73
462.00	2746.33
462.21	3035.09
462.41	2811.86
462.61	2772.95
462.82	2688.98
463.02	3098.58
463.22	2934.74
463.43	2928.60
463.63	2846.68
463.83	3223.50
464.04	3069.91
464.24	2836.44
464.44	2766.81
464.64	3110.86
464.85	3127.25
465.05	2897.88
465.25	2811.86
465.46	2918.36
465.66	3145.68
465.86	2863.06
466.07	2914.26
466.27	2940.88
466.47	2807.77
466.68	2762.71
466.88	2938.84
467.08	3086.29
467.29	3139.54
467.49	2840.53
467.69	3055.57
467.89	3114.96
468.10	2906.07
468.30	2916.31
468.50	3010.51
468.71	3215.31
468.91	2807.77
469.11	2965.46
469.31	2951.12
469.52	2850.77
469.72	3280.85
469.92	3170.26
470.13	2785.24
470.33	2963.41
470.53	3018.71
470.73	3248.08
470.94	3506.12
471.14	3563.47
471.34	4114.37
471.54	3825.61
471.75	3553.23
471.95	3375.05
472.15	3389.39
472.36	3268.56
472.56	3196.88
472.76	3448.78
472.96	3315.66
473.17	3100.62
473.37	2998.23
473.57	2936.79
473.77	3114.96
473.98	3030.99
474.18	2779.09
474.38	3516.36
474.58	2811.86
474.79	2734.04
474.99	2983.89
475.19	3237.84
475.39	2809.81
475.60	2904.02
475.80	2832.34
476.00	3026.90
476.20	2908.12
476.41	2987.99
476.61	2957.27
476.81	3198.93
477.01	2850.77
477.21	3071.95
477.42	3049.43
477.62	2844.63
477.82	3096.53
478.02	2811.86
478.23	2850.77
478.43	2838.48
478.63	2912.21
478.83	2854.87
479.03	2820.05
479.24	3235.79
479.44	3301.33
479.64	2797.53
479.84	2676.70
480.04	2871.25
480.25	3149.78
480.45	2766.81
480.65	2752.47
480.85	3190.74
481.06	2914.26
481.26	3002.32
481.46	2865.11
481.66	3018.71
481.86	2785.24
482.06	3041.23
482.27	2867.16
482.47	2834.39
482.67	3112.91
482.87	2852.82
483.07	2951.12
483.28	2920.40
483.48	2871.25
483.68	2924.50
483.88	2766.81
484.08	2637.78
484.29	2772.95
484.49	2908.12
484.69	2740.18
484.89	3250.13
485.09	3151.82
485.29	2838.48
485.50	3020.75
485.70	3026.90
485.90	3164.11
486.10	2904.02
486.30	2875.35
486.50	3213.26
486.71	3008.47
486.91	2910.16
487.11	2957.27
487.31	2834.39
487.51	3076.05
487.71	2762.71
487.91	2748.37
488.12	2990.03
488.32	2525.15
488.52	2731.99
488.72	2631.64
488.92	2998.23
489.12	3188.69
489.32	2951.12
489.53	2957.27
489.73	2766.81
489.93	3258.32
490.13	2801.62
490.33	2682.84
490.53	2967.51
490.73	3164.11
490.94	2697.17
491.14	2985.94
491.34	3078.10
491.54	3086.29
491.74	3721.16
491.94	4276.16
492.14	4618.17
492.34	4659.13
492.54	4376.51
492.75	3835.85
492.95	3913.67
493.15	3569.61
493.35	3467.21
493.55	3459.02
493.75	3309.52
493.95	3489.74
494.15	3139.54
494.35	2938.84
494.56	2953.17
494.76	2951.12
494.96	3030.99
495.16	2838.48
495.36	3012.56
495.56	3037.14
495.76	2932.69
495.96	2809.81
496.16	2836.44
496.36	3366.86
496.56	2797.53
496.77	2942.93
496.97	2994.13
497.17	3180.50
497.37	2705.37
497.57	2930.64
497.77	2985.94
497.97	2830.29
498.17	2838.48
498.37	2832.34
498.57	3035.09
498.77	2910.16
498.97	2965.46
499.17	3166.16
499.38	3016.66
499.58	3035.09
499.78	3045.33
499.98	2983.89
500.18	2979.79
500.38	2871.25
500.58	3041.23
500.78	3360.72
500.98	5605.29
501.18	7477.13
501.38	8810.36
501.58	9705.32
501.78	9641.84
501.98	7968.65
502.18	6737.82
502.38	5791.66
502.58	5756.84
502.78	5109.68
502.98	4804.53
503.18	4673.46
503.38	4462.52
503.59	3739.59
503.79	3661.77
503.99	3411.92
504.19	3426.25
504.39	3446.73
504.59	3305.42
504.79	3278.80
504.99	3565.51
505.19	3104.72
505.39	2996.18
505.59	3176.40
505.79	3303.37
505.99	3186.64
506.19	2930.64
506.39	3061.71
506.59	2959.31
506.79	2893.78
506.99	3098.58
507.19	2904.02
507.39	3037.14
507.59	2781.14
507.79	2877.40
507.99	2828.24
508.19	2916.31
508.39	2910.16
508.59	2846.68
508.79	2942.93
508.99	3317.71
509.19	2891.73
509.39	2856.92
509.59	2742.23
509.79	2926.55
509.99	3045.33
510.19	2977.75
510.39	2914.26
510.59	2965.46
510.79	3008.47
510.99	2723.80
511.19	2838.48
511.39	3235.79
511.59	3143.63
511.79	3030.99
511.99	2775.00
512.19	3264.46
512.38	3041.23
512.58	2758.61
512.78	2871.25
512.98	3184.59
513.18	3237.84
513.38	2719.70
513.58	2895.83
513.78	2961.36
513.98	3006.42
514.18	2852.82
514.38	2889.68
514.58	3033.04
514.78	2938.84
514.98	2707.41
515.18	2893.78
515.38	2885.59
515.58	3348.43
515.78	2887.64
515.98	2793.43
516.18	3067.86
516.38	3026.90
516.57	2828.24
516.77	2791.38
516.97	3049.43
517.17	2893.78
517.37	2629.59
517.57	2867.16
517.77	2971.60
517.97	2760.66
518.17	2920.40
518.37	2793.43
518.57	2858.96
518.77	2994.13
518.97	2947.03
519.16	2942.93
519.36	3223.50
519.56	2928.60
519.76	2826.20
519.96	2805.72
520.16	3325.90
520.36	2828.24
520.56	3039.19
520.76	2813.91
520.96	2940.88
521.16	3180.50
521.35	2965.46
521.55	2983.89
521.75	2987.99
521.95	2848.72
522.15	2744.28
522.35	2723.80
522.55	2881.49
522.75	3074.00
522.95	2725.85
523.14	2762.71
523.34	3129.30
523.54	2854.87
523.74	2961.36
523.94	2922.45
524.14	2770.90
524.34	3082.19
524.54	3006.42
524.73	2914.26
524.93	3045.33
525.13	2955.22
525.33	2881.49
525.53	3127.25
525.73	3096.53
525.93	3010.51
526.13	2832.34
526.32	2770.90
526.52	3151.82
526.72	3110.86
526.92	2889.68
527.12	2818.00
527.32	2777.05
527.52	3008.47
527.71	2924.50
527.91	2842.58
528.11	2963.41
528.31	2951.12
528.51	2787.29
528.71	2965.46
528.90	3016.66
529.10	3084.24
529.30	2932.69
529.50	2533.34
529.70	2996.18
529.90	2942.93
530.09	2846.68
530.29	2688.98
530.49	2840.53
530.69	3506.12
530.89	2949.08
531.09	2983.89
531.28	2897.88
531.48	3246.03
531.68	2887.64
531.88	2887.64
532.08	3133.39
532.28	3014.61
532.47	2918.36
532.67	2947.03
532.87	3127.25
533.07	2820.05
533.27	2990.03
533.46	2920.40
533.66	3084.24
533.86	3008.47
534.06	2848.72
534.26	2865.11
534.45	2930.64
534.65	3188.69
534.85	2887.64
535.05	2775.00
535.25	3071.95
535.44	2731.99
535.64	2918.36
535.84	2897.88
536.04	2910.16
536.24	2914.26
536.43	2725.85
536.63	2818.00
536.83	3108.82
537.03	2918.36
537.22	2750.42
537.42	2668.50
537.62	3061.71
537.82	2834.39
538.02	3059.67
538.21	2967.51
538.41	3532.75
538.61	3172.30
538.81	2873.30
539.00	3020.75
539.20	2731.99
539.40	2961.36
539.60	2838.48
539.79	3002.32
539.99	2992.08
540.19	2836.44
540.39	2766.81
540.58	2961.36
540.78	3108.82
540.98	2922.45
541.18	2990.03
541.37	2971.60
541.57	3088.34
541.77	3100.62
541.97	2701.27
542.16	2709.46
542.36	2848.72
542.56	2983.89
542.76	3035.09
542.95	2883.54
543.15	3026.90
543.35	3160.02
543.54	2830.29
543.74	2777.05
543.94	3262.41
544.14	2836.44
544.33	2926.55
544.53	2770.90
544.73	2916.31
544.93	2922.45
545.12	2877.40
545.32	2957.27
545.52	2961.36
545.71	2850.77
545.91	2813.91
546.11	2744.28
546.30	2924.50
546.50	3030.99
546.70	2883.54
546.90	2867.16
547.09	2615.26
547.29	3045.33
547.49	2963.41
547.68	2815.96
547.88	2887.64
548.08	3094.48
548.27	3248.08
548.47	2789.33
548.67	2930.64
548.87	3049.43
549.06	2940.88
549.26	2713.56
549.46	2994.13
549.65	2875.35
549.85	2820.05
550.05	2861.01
550.24	2686.94
550.44	2998.23
550.64	2924.50
550.83	2820.05
551.03	3092.43
551.23	3196.88
551.42	2848.72
551.62	2838.48
551.82	2912.21
552.01	2858.96
552.21	3160.02
552.41	2967.51
552.60	3266.51
552.80	2996.18
553.00	2832.34
553.19	2867.16
553.39	3364.81
553.59	2795.48
553.78	3012.56
553.98	2871.25
554.17	2801.62
554.37	2996.18
554.57	2975.70
554.76	2738.13
554.96	2891.73
555.16	2992.08
555.35	2920.40
555.55	2998.23
555.75	3065.81
555.94	3117.01
556.14	2688.98
556.33	2885.59
556.53	2975.70
556.73	2959.31
556.92	3030.99
557.12	2818.00
557.32	3295.18
557.51	3219.41
557.71	2850.77
557.90	3012.56
558.10	3250.13
558.30	2932.69
558.49	2846.68
558.69	2805.72
558.88	3010.51
559.08	3094.48
559.28	2840.53
559.47	2854.87
559.67	3074.00
559.86	3231.69
560.06	2842.58
560.26	2848.72
560.45	3037.14
560.65	2914.26
560.84	3074.00
561.04	2848.72
561.24	3092.43
561.43	2805.72
561.63	3100.62
561.82	2932.69
562.02	3063.76
562.22	2789.33
562.41	2795.48
562.61	2863.06
562.80	2738.13
563.00	3293.13
563.19	2922.45
563.39	2953.17
563.59	3082.19
563.78	2762.71
563.98	2709.46
564.17	2916.31
564.37	2666.46
564.56	2942.93
564.76	2719.70
564.96	2998.23
565.15	3061.71
565.35	3409.87
565.54	2820.05
565.74	2867.16
565.93	3106.77
566.13	3057.62
566.32	2953.17
566.52	3012.56
566.71	3018.71
566.91	3108.82
567.11	2891.73
567.30	2781.14
567.50	2969.55
567.69	3076.05
567.89	2895.83
568.08	2727.89
568.28	3022.80
568.47	2875.35
568.67	2918.36
568.86	2803.67
569.06	3160.02
569.25	2871.25
569.45	2772.95
569.64	2815.96
569.84	2875.35
570.04	3074.00
570.23	2791.38
570.43	2820.05
570.62	2975.70
570.82	3241.93
571.01	2721.75
571.21	2858.96
571.40	2877.40
571.60	3069.91
571.79	2951.12
571.99	2869.20
572.18	2815.96
572.38	3051.47
572.57	2873.30
572.77	2926.55
572.96	3450.83
573.16	2975.70
573.35	2852.82
573.55	3028.95
573.74	3061.71
573.94	2985.94
574.13	2858.96
574.33	3018.71
574.52	3104.72
574.71	2983.89
574.91	2987.99
575.10	2779.09
575.30	2996.18
575.49	2885.59
575.69	2787.29
575.88	2818.00
576.08	2899.92
576.27	3076.05
576.47	2824.15
576.66	3037.14
576.86	3217.36
577.05	2996.18
577.25	2942.93
577.44	2967.51
577.64	2979.79
577.83	3137.49
578.02	2858.96
578.22	2996.18
578.41	3340.24
578.61	2969.55
578.80	2785.24
579.00	2971.60
579.19	2979.79
579.39	3057.62
579.58	2965.46
579.77	2854.87
579.97	3198.93
580.16	3174.35
580.36	3030.99
580.55	2977.75
580.75	3035.09
580.94	2969.55
581.13	3033.04
581.33	3049.43
581.52	2918.36
581.72	3362.76
581.91	2975.70
582.11	2836.44
582.30	3108.82
582.49	3030.99
582.69	3194.83
582.88	2930.64
583.08	2965.46
583.27	3153.87
583.47	2969.55
583.66	2940.88
583.85	2715.61
584.05	2924.50
584.24	3071.95
584.44	2801.62
584.63	3127.25
584.82	3086.29
585.02	3092.43
585.21	3035.09
585.41	3133.39
585.60	3004.37
585.79	3104.72
585.99	3196.88
586.18	3057.62
586.37	3903.43
586.57	5748.65
586.76	16668.42
586.96	36015.58
587.15	48723.22
587.34	57373.84
587.54	61113.44
587.73	54615.23
587.93	38919.60
588.12	29652.54
588.31	24161.94
588.51	21251.77
588.70	19859.15
588.89	17131.26
589.09	14712.61
589.28	12361.54
589.47	9588.59
589.67	7569.29
589.86	6027.17
590.06	4612.03
590.25	3975.11
590.44	3528.65
590.64	3330.00
590.83	3231.69
591.02	3254.22
591.22	2865.11
591.41	2942.93
591.60	3002.32
591.80	3422.16
591.99	2719.70
592.18	2877.40
592.38	3164.11
592.57	2863.06
592.76	2867.16
592.96	2992.08
593.15	2971.60
593.34	3135.44
593.54	2930.64
593.73	3014.61
593.92	3121.10
594.12	3100.62
594.31	2932.69
594.50	3069.91
594.70	3082.19
594.89	3508.17
595.08	2742.23
595.28	2920.40
595.47	3430.35
595.66	3157.97
595.86	2777.05
596.05	2799.57
596.24	2926.55
596.43	3248.08
596.63	3041.23
596.82	2969.55
597.01	3127.25
597.21	3311.57
597.40	2883.54
597.59	2867.16
597.79	3030.99
597.98	3067.86
598.17	2910.16
598.36	2863.06
598.56	3157.97
598.75	2854.87
598.94	2914.26
599.14	2891.73
599.33	2987.99
599.52	3108.82
599.71	2973.65
599.91	2873.30
600.10	3119.06
600.29	2983.89
600.48	2990.03
600.68	3053.52
600.87	3102.67
601.06	2820.05
601.26	2904.02
601.45	3016.66
601.64	2912.21
601.83	3229.65
602.03	2807.77
602.22	2748.37
602.41	3227.60
602.60	3481.55
602.80	2951.12
602.99	2981.84
603.18	2887.64
603.37	3024.85
603.57	2830.29
603.76	2928.60
603.95	3168.21
604.14	2897.88
604.34	2754.52
604.53	2779.09
604.72	2942.93
604.91	3074.00
605.10	2865.11
605.30	2822.10
605.49	3401.68
605.68	3182.54
605.87	2934.74
606.07	2762.71
606.26	3049.43
606.45	3135.44
606.64	2852.82
606.84	2719.70
607.03	2953.17
607.22	3184.59
607.41	2846.68
607.60	2897.88
607.80	3141.58
607.99	2996.18
608.18	2973.65
608.37	2834.39
608.56	2951.12
608.76	3190.74
608.95	3037.14
609.14	2830.29
609.33	3162.06
609.52	3211.22
609.72	2912.21
609.91	3033.04
610.10	3016.66
610.29	3221.45
610.48	3014.61
610.68	3010.51
610.87	2877.40
611.06	3127.25
611.25	2877.40
611.44	3020.75
611.63	2895.83
611.83	3168.21
612.02	2803.67
612.21	2969.55
612.40	2666.46
612.59	2758.61
612.79	2775.00
612.98	2916.31
613.17	3264.46
613.36	2965.46
613.55	3004.37
613.74	2865.11
613.93	3012.56
614.13	3030.99
614.32	3086.29
614.51	3024.85
614.70	2916.31
614.89	2992.08
615.08	3024.85
615.28	3327.95
615.47	2842.58
615.66	2977.75
615.85	2848.72
616.04	3018.71
616.23	2951.12
616.42	2969.55
616.62	2914.26
616.81	2783.19
617.00	3012.56
617.19	3053.52
617.38	2869.20
617.57	2967.51
617.76	3110.86
617.95	3086.29
618.15	3020.75
618.34	3137.49
618.53	2731.99
618.72	3178.45
618.91	2940.88
619.10	2949.08
619.29	2973.65
619.48	2922.45
619.68	2736.09
619.87	2811.86
620.06	2760.66
620.25	3080.14
620.44	2775.00
620.63	2873.30
620.82	2949.08
621.01	2996.18
621.20	2901.97
621.39	2981.84
621.59	3086.29
621.78	2996.18
621.97	2848.72
622.16	3000.27
622.35	3055.57
622.54	3055.57
622.73	2963.41
622.92	2613.21
623.11	3039.19
623.30	2891.73
623.49	2908.12
623.68	2719.70
623.88	3266.51
624.07	2932.69
624.26	2783.19
624.45	2854.87
624.64	2854.87
624.83	3008.47
625.02	2828.24
625.21	2944.98
625.40	3098.58
625.59	3110.86
625.78	2869.20
625.97	2965.46
626.16	3215.31
626.35	3182.54
626.54	2889.68
626.74	3094.48
626.93	2979.79
627.12	2975.70
627.31	2910.16
627.50	2873.30
627.69	3141.58
627.88	2893.78
628.07	2750.42
628.26	2664.41
628.45	2924.50
628.64	2789.33
628.83	2881.49
629.02	2746.33
629.21	3028.95
629.40	3043.28
629.59	2867.16
629.78	2834.39
629.97	2985.94
630.16	3006.42
630.35	2822.10
630.54	2899.92
630.73	2848.72
630.92	2983.89
631.11	2852.82
631.30	2918.36
631.49	3088.34
631.68	2985.94
631.87	2928.60
632.06	2734.04
632.25	3395.53
632.44	2912.21
632.63	2910.16
632.82	2795.48
633.01	2834.39
633.20	3014.61
633.39	2863.06
633.58	2713.56
633.77	3096.53
633.96	3090.38
634.15	2998.23
634.34	2932.69
634.53	3000.27
634.72	2846.68
634.91	2637.78
635.10	2901.97
635.29	3143.63
635.48	3043.28
635.67	2793.43
635.86	2688.98
636.05	3176.40
636.24	2979.79
636.43	2918.36
636.62	2912.21
636.81	2588.63
637.00	2971.60
637.19	2865.11
637.38	2932.69
637.57	2881.49
637.76	3004.37
637.95	3061.71
638.14	2840.53
638.33	3016.66
638.52	2944.98
638.71	2805.72
638.89	2746.33
639.08	3440.59
639.27	3219.41
639.46	2959.31
639.65	3409.87
639.84	3403.72
640.03	3542.99
640.22	3178.45
640.41	3254.22
640.60	3074.00
640.79	3121.10
640.98	3008.47
641.17	3035.09
641.36	3213.26
641.55	3117.01
641.74	2766.81
641.92	2844.63
642.11	2822.10
642.30	2975.70
642.49	2803.67
642.68	2811.86
642.87	3037.14
643.06	3104.72
643.25	2731.99
643.44	2770.90
643.63	2996.18
643.82	3162.06
644.00	2772.95
644.19	2904.02
644.38	2777.05
644.57	3121.10
644.76	2863.06
644.95	2934.74
645.14	3074.00
645.33	2934.74
645.52	2893.78
645.71	2754.52
645.89	2848.72
646.08	2926.55
646.27	2840.53
646.46	3067.86
646.65	2832.34
646.84	2985.94
647.03	2760.66
647.22	3112.91
647.40	3086.29
647.59	2891.73
647.78	2717.65
647.97	2791.38
648.16	2766.81
648.35	3184.59
648.54	3133.39
648.73	2789.33
648.91	3114.96
649.10	2936.79
649.29	2787.29
649.48	2867.16
649.67	3045.33
649.86	3055.57
650.05	2889.68
650.23	3043.28
650.42	2873.30
650.61	3252.17
650.80	3024.85
650.99	3182.54
651.18	3209.17
651.36	3178.45
651.55	2856.92
651.74	3004.37
651.93	3016.66
652.12	2992.08
652.31	2844.63
652.49	2899.92
652.68	2934.74
652.87	3219.41
653.06	2932.69
653.25	3133.39
653.44	2926.55
653.62	3254.22
653.81	2924.50
654.00	2928.60
654.19	3088.34
654.38	3436.49
654.56	2947.03
654.75	2772.95
654.94	3121.10
655.13	3033.04
655.32	2865.11
655.51	2996.18
655.69	2924.50
655.88	3110.86
656.07	2707.41
656.26	2916.31
656.45	2746.33
656.63	2994.13
656.82	2844.63
657.01	3100.62
657.20	2809.81
657.38	3264.46
657.57	2840.53
657.76	2727.89
657.95	3067.86
658.14	2928.60
658.32	2887.64
658.51	2736.09
658.70	3016.66
658.89	3055.57
659.08	2895.83
659.26	3117.01
659.45	2856.92
659.64	3180.50
659.83	2832.34
660.01	3280.85
660.20	2990.03
660.39	3207.12
660.58	2562.01
660.76	2854.87
660.95	2766.81
661.14	3000.27
661.33	2740.18
661.51	2846.68
661.70	2856.92
661.89	3078.10
662.08	2879.44
662.26	2738.13
662.45	2789.33
662.64	3280.85
662.83	2953.17
663.01	2731.99
663.20	2969.55
663.39	3239.89
663.58	2912.21
663.76	2787.29
663.95	3057.62
664.14	2822.10
664.32	2869.20
664.51	2734.04
664.70	2666.46
664.89	2983.89
665.07	2668.50
665.26	2992.08
665.45	2803.67
665.64	3010.51
665.82	2779.09
666.01	2957.27
666.20	2746.33
666.38	3149.78
666.57	3182.54
666.76	4935.60
666.95	11071.32
667.13	17557.24
667.32	21284.54
667.51	24039.06
667.69	25036.42
667.88	20971.20
668.07	15216.41
668.25	12824.38
668.44	11143.00
668.63	9828.20
668.81	8636.28
669.00	7401.36
669.19	6612.89
669.38	5892.01
669.56	5074.87
669.75	4358.08
669.94	3928.00
670.12	3469.26
670.31	3098.58
670.50	3096.53
670.68	3268.56
670.87	2975.70
671.06	2891.73
671.24	2932.69
671.43	3286.99
671.62	3000.27
671.80	2846.68
671.99	2942.93
672.18	3022.80
672.36	3106.77
672.55	2914.26
672.74	2926.55
672.92	2969.55
673.11	3129.30
673.29	2744.28
673.48	3086.29
673.67	2807.77
673.85	3157.97
674.04	2785.24
674.23	2942.93
674.41	3299.28
674.60	2758.61
674.79	2674.65
674.97	2756.57
675.16	3106.77
675.34	3127.25
675.53	2779.09
675.72	2951.12
675.90	3252.17
676.09	2904.02
676.28	2873.30
676.46	2680.79
676.65	3186.64
676.83	2811.86
677.02	2846.68
677.21	2971.60
677.39	3041.23
677.58	2934.74
677.77	2852.82
677.95	2779.09
678.14	2846.68
678.32	2936.79
678.51	2783.19
678.70	3190.74
678.88	2887.64
679.07	3043.28
679.25	2830.29
679.44	2885.59
679.63	2818.00
679.81	3041.23
680.00	3112.91
680.18	2922.45
680.37	3370.96
680.55	2981.84
680.74	2750.42
680.93	2648.02
681.11	3006.42
681.30	2877.40
681.48	2871.25
681.67	2858.96
681.85	3026.90
682.04	2813.91
682.23	3000.27
682.41	2908.12
682.60	2951.12
682.78	2934.74
682.97	2746.33
683.15	2938.84
683.34	2891.73
683.53	3237.84
683.71	2750.42
683.90	2994.13
684.08	3241.93
684.27	2901.97
684.45	2901.97
684.64	3051.47
684.82	2922.45
685.01	3110.86
685.19	2832.34
685.38	3149.78
685.57	3012.56
685.75	2910.16
685.94	2750.42
686.12	2789.33
686.31	2881.49
686.49	3254.22
686.68	2617.30
686.86	2863.06
687.05	2891.73
687.23	3243.98
687.42	2863.06
687.60	2691.03
687.79	3100.62
687.97	3196.88
688.16	3016.66
688.34	3057.62
688.53	2666.46
688.71	3106.77
688.90	3098.58
689.08	2861.01
689.27	2738.13
689.45	3047.38
689.64	2981.84
689.82	2969.55
690.01	3045.33
690.19	3082.19
690.38	2875.35
690.56	2983.89
690.75	2889.68
690.93	2875.35
691.12	2879.44
691.30	2861.01
691.49	2877.40
691.67	2965.46
691.86	3123.15
692.04	2834.39
692.23	2869.20
692.41	2955.22
692.60	3198.93
692.78	3057.62
692.97	3012.56
693.15	3102.67
693.34	3086.29
693.52	3061.71
693.71	2916.31
693.89	2942.93
694.08	2703.32
694.26	2942.93
694.44	3192.78
694.63	3096.53
694.81	2744.28
695.00	2848.72
695.18	3160.02
695.37	3401.68
695.55	2977.75
695.74	2824.15
695.92	2865.11
696.10	3221.45
696.29	2770.90
696.47	2813.91
696.66	2779.09
696.84	2746.33
697.03	2914.26
697.21	3198.93
697.40	4427.71
697.58	3225.55
697.76	2871.25
697.95	2824.15
698.13	2828.24
698.32	2901.97
698.50	2895.83
698.68	2885.59
698.87	3092.43
699.05	3264.46
699.24	2889.68
699.42	2834.39
699.61	2959.31
699.79	2990.03
699.97	2869.20
700.16	2756.57
700.34	2797.53
700.53	2992.08
700.71	3110.86
700.89	3006.42
701.08	2940.88
701.26	3020.75
701.45	3303.37
701.63	2838.48
701.81	2766.81
702.00	2832.34
702.18	2856.92
702.37	2787.29
702.55	3145.68
702.73	2955.22
702.92	2899.92
703.10	3155.92
703.28	3112.91
703.47	2826.20
703.65	3127.25
703.84	2992.08
704.02	2957.27
704.20	3141.58
704.39	2807.77
704.57	2836.44
704.75	3096.53
704.94	3110.86
705.12	2969.55
705.30	3403.72
705.49	6668.19
705.67	12889.92
705.86	18188.01
706.04	20403.91
706.22	22767.27
706.41	21980.85
706.59	16799.49
706.77	13281.08
706.96	11456.34
707.14	10397.54
707.32	9015.16
707.51	7976.84
707.69	6424.48
707.87	5339.05
708.06	4538.30
708.24	3981.25
708.42	3561.42
708.61	3684.30
708.79	2965.46
708.97	3020.75
709.16	3059.67
709.34	3020.75
709.52	2887.64
709.71	2934.74
709.89	3049.43
710.07	2799.57
710.26	2791.38
710.44	2856.92
710.62	3127.25
710.80	2967.51
710.99	3037.14
711.17	3024.85
711.35	2901.97
711.54	2885.59
711.72	3086.29
711.90	2959.31
712.09	2949.08
712.27	2947.03
712.45	3016.66
712.63	2838.48
712.82	3028.95
713.00	3033.04
713.18	3049.43
713.37	3133.39
713.55	3074.00
713.73	3074.00
713.91	2914.26
714.10	2834.39
714.28	2932.69
714.46	2895.83
714.65	2922.45
714.83	2873.30
715.01	3074.00
715.19	2985.94
715.38	2717.65
715.56	3006.42
715.74	2830.29
715.92	2818.00
716.11	3106.77
716.29	2666.46
716.47	2920.40
716.65	2924.50
716.84	2691.03
717.02	2944.98
717.20	2758.61
717.38	2844.63
717.57	2961.36
717.75	2983.89
717.93	2924.50
718.11	3008.47
718.30	2758.61
718.48	2963.41
718.66	3108.82
718.84	3108.82
719.03	2875.35
719.21	2701.27
719.39	3313.61
719.57	3035.09
719.75	2967.51
719.94	2754.52
720.12	2957.27
720.30	3030.99
720.48	2947.03
720.67	2750.42
720.85	2867.16
721.03	2910.16
721.21	2766.81
721.39	3082.19
721.58	3049.43
721.76	2877.40
721.94	2975.70
722.12	2979.79
722.30	3194.83
722.49	2904.02
722.67	2942.93
722.85	2926.55
723.03	2789.33
723.21	2924.50
723.40	2893.78
723.58	3022.80
723.76	3037.14
723.94	3094.48
724.12	2873.30
724.30	3106.77
724.49	3047.38
724.67	2793.43
724.85	2955.22
725.03	2758.61
725.21	3090.38
725.40	3196.88
725.58	2877.40
725.76	3076.05
725.94	3094.48
726.12	2832.34
726.30	2865.11
726.49	2867.16
726.67	2918.36
726.85	3149.78
727.03	3411.92
727.21	4401.08
727.39	5345.20
727.57	5885.86
727.76	6326.18
727.94	6346.66
728.12	5595.05
728.30	4589.50
728.48	4460.48
728.66	4110.27
728.84	3846.09
729.03	3522.51
729.21	3266.51
729.39	3248.08
729.57	3004.37
729.75	3008.47
729.93	2922.45
730.11	2840.53
730.30	2930.64
730.48	2981.84
730.66	2975.70
730.84	2912.21
731.02	2975.70
731.20	2930.64
731.38	2895.83
731.56	2740.18
731.74	2883.54
731.93	3016.66
732.11	3012.56
732.29	2772.95
732.47	3078.10
732.65	3033.04
732.83	3063.76
733.01	2942.93
733.19	2838.48
733.37	3055.57
733.56	2965.46
733.74	2764.76
733.92	3200.98
734.10	2850.77
734.28	2959.31
734.46	2693.08
734.64	2850.77
734.82	2922.45
735.00	2840.53
735.18	2803.67
735.36	3059.67
735.54	2977.75
735.73	2820.05
735.91	2973.65
736.09	3295.18
736.27	2955.22
736.45	2981.84
736.63	2654.17
736.81	2848.72
736.99	3157.97
737.17	3108.82
737.35	2791.38
737.53	2971.60
737.71	2930.64
737.89	3096.53
738.07	2770.90
738.25	2883.54
738.43	2811.86
738.61	2848.72
738.80	2717.65
738.98	2828.24
739.16	2883.54
739.34	2787.29
739.52	3098.58
739.70	2875.35
739.88	3086.29
740.06	3006.42
740.24	2697.17
740.42	3215.31
740.60	2656.22
740.78	2856.92
740.96	2637.78
741.14	2920.40
741.32	3002.32
741.50	2652.12
741.68	3065.81
741.86	3211.22
742.04	2797.53
742.22	2791.38
742.40	2846.68
742.58	3082.19
742.76	2822.10
742.94	3117.01
743.12	2686.94
743.30	2987.99
743.48	3049.43
743.66	2764.76
743.84	2936.79
744.02	2891.73
744.20	2955.22
744.38	2731.99
744.56	2863.06
744.74	3274.70
744.92	3074.00
745.10	3135.44
745.28	2930.64
745.46	3264.46
745.64	2865.11
745.82	2987.99
746.00	2871.25
746.18	3121.10
746.36	2785.24
746.54	2930.64
746.72	2867.16
746.90	2863.06
747.08	3153.87
747.26	2826.20
747.44	2969.55
747.62	3069.91
747.80	3037.14
747.98	2996.18
748.15	2828.24
748.33	3256.27
748.51	2940.88
748.69	3016.66
748.87	2688.98
749.05	2947.03
749.23	2965.46
749.41	2875.35
749.59	2863.06
749.77	3090.38
749.95	2877.40
750.13	2781.14
750.31	3045.33
750.49	2953.17
750.67	3092.43
750.85	3065.81
751.03	2899.92
751.20	3356.62
751.38	2994.13
751.56	2928.60
751.74	2918.36
751.92	2883.54
752.10	2875.35
752.28	3069.91
752.46	2762.71
752.64	2953.17
752.82	2953.17
753.00	3022.80
753.18	2822.10
753.35	2897.88
753.53	2938.84
753.71	2834.39
753.89	2979.79
754.07	3041.23
754.25	3102.67
754.43	2938.84
754.61	2807.77
754.79	3002.32
754.97	2897.88
755.14	3049.43
755.32	2752.47
755.50	3030.99
755.68	2983.89
755.86	2779.09
756.04	2863.06
756.22	2666.46
756.40	3170.26
756.57	3094.48
756.75	2875.35
756.93	3151.82
757.11	3106.77
757.29	2777.05
757.47	2754.52
757.65	2680.79
757.82	2613.21
758.00	2723.80
758.18	2770.90
758.36	2865.11
758.54	3225.55
758.72	2633.69
758.90	2996.18
759.07	3020.75
759.25	2760.66
759.43	2971.60
759.61	2754.52
759.79	4278.21
759.97	3039.19
760.15	2852.82
760.32	2844.63
760.50	2977.75
760.68	3233.74
760.86	2734.04
761.04	3059.67
761.22	3112.91
761.39	3037.14
761.57	3010.51
761.75	2904.02
761.93	3168.21
762.11	2930.64
762.28	2883.54
762.46	2781.14
762.64	3121.10
762.82	2813.91
763.00	2850.77
763.18	3088.34
763.35	2748.37
763.53	3061.71
763.71	2942.93
763.89	2822.10
764.07	3026.90
764.24	2926.55
764.42	2940.88
764.60	2815.96
764.78	3043.28
764.96	3086.29
765.13	3053.52
765.31	2779.09
765.49	3119.06
765.67	2715.61
765.84	2836.44
766.02	2758.61
766.20	2822.10
766.38	3008.47
766.56	2949.08
766.73	2983.89
766.91	3010.51
767.09	3020.75
767.27	2967.51
767.44	2781.14
767.62	3076.05
767.80	3082.19
767.98	2740.18
768.15	2744.28
768.33	3078.10
768.51	3080.14
768.69	2983.89
768.87	2885.59
769.04	2969.55
769.22	3413.96
769.40	3080.14
769.58	3074.00
769.75	2979.79
769.93	3172.30
770.11	2834.39
770.28	2740.18
770.46	3069.91
770.64	3030.99
770.82	2906.07
770.99	2779.09
771.17	3217.36
771.35	2912.21
771.53	2836.44
771.70	2785.24
771.88	2992.08
772.06	2977.75
772.23	2818.00
772.41	2873.30
772.59	2889.68
772.77	2856.92
772.94	2934.74
773.12	2936.79
773.30	2947.03
773.47	3039.19
773.65	2793.43
773.83	3088.34
774.01	2951.12
774.18	2697.17
774.36	2983.89
774.54	2762.71
774.71	3119.06
774.89	2731.99
775.07	2752.47
775.24	2736.09
775.42	2910.16
775.60	3346.38
775.78	2740.18
775.95	2736.09
776.13	2721.75
776.31	2670.55
776.48	2906.07
776.66	3094.48
776.84	2914.26
777.01	2783.19
777.19	2721.75
777.37	2793.43
777.54	3074.00
777.72	3256.27
777.90	2957.27
778.07	2832.34
778.25	3536.84
778.43	3192.78
778.60	2760.66
778.78	2934.74
778.96	3248.08
779.13	2805.72
779.31	2947.03
779.49	2881.49
779.66	2955.22
779.84	2895.83
780.01	2891.73
780.19	2742.23
780.37	3174.35
780.54	3057.62
780.72	2711.51
780.90	2918.36
781.07	2951.12
781.25	2887.64
781.43	2983.89
781.60	2889.68
781.78	3162.06
781.95	3020.75
782.13	2926.55
782.31	2793.43
782.48	2592.73
782.66	2975.70
782.83	3114.96
783.01	2983.89
783.19	3217.36
783.36	2961.36
783.54	2787.29
783.72	3026.90
783.89	2926.55
784.07	3000.27
784.24	2938.84
784.42	3035.09
784.60	3074.00
784.77	3071.95
784.95	2713.56
785.12	2762.71
785.30	3024.85
785.47	2818.00
785.65	2820.05
785.83	2893.78
786.00	2887.64
786.18	3010.51
786.35	2764.76
786.53	2752.47
786.71	3137.49
786.88	3094.48
787.06	2901.97
787.23	2926.55
787.41	2754.52
787.58	3024.85
787.76	2727.89
787.94	2863.06
788.11	2998.23
788.29	2805.72
788.46	2838.48
788.64	2715.61
788.81	2990.03
788.99	2791.38
789.16	2807.77
789.34	2885.59
789.52	2869.20
789.69	2994.13
789.87	2607.06
790.04	2738.13
790.22	3004.37
790.39	3336.14
790.57	2758.61
790.74	2770.90
790.92	3102.67
791.09	2723.80
791.27	2893.78
791.44	3002.32
791.62	2879.44
791.79	3131.34
791.97	2865.11
792.15	3162.06
792.32	3088.34
792.50	3164.11
792.67	3008.47
792.85	3092.43
793.02	2961.36
793.20	2887.64
793.37	2764.76
793.55	2742.23
793.72	2762.71
793.90	3039.19
794.07	2803.67
794.25	2781.14
794.42	2967.51
794.60	2867.16
794.77	3000.27
794.95	2936.79
795.12	3114.96
795.30	3028.95
795.47	2664.41
795.65	3196.88
795.82	3035.09
796.00	2836.44
796.17	2877.40
796.34	2764.76
796.52	3051.47
796.69	3108.82
796.87	2969.55
797.04	3002.32
797.22	3143.63
797.39	3059.67
797.57	3041.23
797.74	2938.84
797.92	3039.19
798.09	2920.40
798.27	3137.49
798.44	2852.82
798.62	2807.77
798.79	3002.32
798.96	3000.27
799.14	2793.43
799.31	3405.77
799.49	2949.08
799.66	2846.68
799.84	2889.68
800.01	2748.37
800.19	2963.41
800.36	2557.91
800.53	2873.30
800.71	3069.91
800.88	3278.80
801.06	2838.48
801.23	2793.43
801.41	2987.99
801.58	2840.53
801.75	2832.34
801.93	2967.51
802.10	3114.96
802.28	2944.98
802.45	2807.77
802.63	2936.79
802.80	3246.03
802.97	2879.44
803.15	2899.92
803.32	2752.47
803.50	2785.24
803.67	2809.81
803.84	2772.95
804.02	2942.93
804.19	2985.94
804.37	2592.73
804.54	2768.85
804.71	2750.42
804.89	3000.27
805.06	2818.00
805.24	2695.13
805.41	2707.41
805.58	2811.86
805.76	3422.16
805.93	2871.25
806.10	3043.28
806.28	3080.14
806.45	3000.27
806.63	3049.43
806.80	2942.93
806.97	2936.79
807.15	3053.52
807.32	2920.40
807.49	2854.87
807.67	2789.33
807.84	3110.86
808.01	2736.09
808.19	3114.96
808.36	3395.53
808.54	2881.49
808.71	2818.00
808.88	2875.35
809.06	3211.22
809.23	3225.55
809.40	2805.72
809.58	2828.24
809.75	3002.32
809.92	2748.37
810.10	3082.19
810.27	2848.72
810.44	3016.66
810.62	3178.45
810.79	2928.60
810.96	2861.01
811.14	2897.88
811.31	3082.19
811.48	2971.60
811.66	2961.36
811.83	3153.87
812.00	3028.95
812.18	2930.64
812.35	3160.02
812.52	2904.02
812.69	2852.82
812.87	2801.62
813.04	2799.57
813.21	2856.92
813.39	2916.31
813.56	2820.05
813.73	3123.15
813.91	2713.56
814.08	3018.71
814.25	3030.99
814.42	2680.79
814.60	2936.79
814.77	2953.17
814.94	2723.80
815.12	2904.02
815.29	3227.60
815.46	2836.44
815.63	2920.40
815.81	2850.77
815.98	2959.31
816.15	2930.64
816.33	2899.92
816.50	2858.96
816.67	2977.75
816.84	2949.08
817.02	2738.13
817.19	2901.97
817.36	2955.22
817.53	2987.99
817.71	2756.57
817.88	2877.40
818.05	2893.78
818.22	2832.34
818.40	3086.29
818.57	2856.92
818.74	3033.04
818.91	2934.74
819.09	2996.18
819.26	2987.99
819.43	2836.44
819.60	2926.55
819.78	3028.95
819.95	2979.79
820.12	2883.54
820.29	3192.78
820.47	3059.67
820.64	2775.00
820.81	2762.71
820.98	2832.34
821.15	2830.29
821.33	2996.18
821.50	2678.74
821.67	3149.78
821.84	2818.00
822.02	2947.03
822.19	3114.96
822.36	2932.69
822.53	2861.01
822.70	2750.42
822.88	2858.96
823.05	3258.32
823.22	2934.74
823.39	2869.20
823.56	2924.50
823.74	3289.04
823.91	2734.04
824.08	2760.66
824.25	2815.96
824.42	3207.12
824.60	2713.56
824.77	2938.84
824.94	2971.60
825.11	3080.14
825.28	2684.89
825.45	3004.37
825.63	3016.66
825.80	2850.77
825.97	2926.55
826.14	2846.68
826.31	2805.72
826.48	3114.96
826.66	2813.91
826.83	2844.63
827.00	2992.08
827.17	2871.25
827.34	2840.53
827.51	2811.86
827.69	2940.88
827.86	2746.33
828.03	2873.30
828.20	2873.30
828.37	2858.96
828.54	3078.10
828.71	2795.48
828.89	2996.18
829.06	2998.23
829.23	3319.76
829.40	2809.81
829.57	2768.85
829.74	3065.81
829.91	2799.57
830.09	2764.76
830.26	2959.31
830.43	3223.50
830.60	2901.97
830.77	2928.60
830.94	3157.97
831.11	3170.26
831.28	2910.16
831.46	3000.27
831.63	2824.15
831.80	3139.54
831.97	2852.82
832.14	2820.05
832.31	2856.92
832.48	2961.36
832.65	3135.44
832.82	2910.16
832.99	2965.46
833.17	2775.00
833.34	3098.58
833.51	2897.88
833.68	2615.26
833.85	3096.53
834.02	2760.66
834.19	2807.77
834.36	2809.81
834.53	2949.08
834.70	3164.11
834.87	2910.16
835.04	2658.26
835.22	2873.30
835.39	2846.68
835.56	2693.08
835.73	2787.29
835.90	3182.54
836.07	2815.96
836.24	2883.54
836.41	2693.08
836.58	2858.96
836.75	3174.35
836.92	2777.05
837.09	2688.98
837.26	3059.67
837.43	3053.52
837.60	2772.95
837.77	2760.66
837.94	3094.48
838.12	3160.02
838.29	2652.12
838.46	2678.74
838.63	2807.77
838.80	3211.22
838.97	2824.15
839.14	2693.08
839.31	3043.28
839.48	3057.62
839.65	2770.90
839.82	2756.57
839.99	2961.36
840.16	3004.37
840.33	2666.46
840.50	2705.37
840.67	2770.90
840.84	2598.87
841.01	2738.13
841.18	2725.85
841.35	2990.03
841.52	3106.77
841.69	3067.86
841.86	2789.33
842.03	2920.40
842.20	3256.27
842.37	2734.04
842.54	2744.28
842.71	3012.56
842.88	2688.98
843.05	2775.00
843.22	2754.52
843.39	3149.78
843.56	2844.63
843.73	2721.75
843.90	2770.90
844.07	2861.01
844.24	3188.69
844.41	2809.81
844.58	2707.41
844.75	2979.79
844.92	3092.43
845.09	2775.00
845.26	2723.80
845.43	2990.03
845.60	2906.07
845.77	2887.64
845.94	2832.34
846.10	3196.88
846.27	2744.28
846.44	2660.31
846.61	2660.31
846.78	3033.04
846.95	3084.24
847.12	2660.31
847.29	2740.18
847.46	2891.73
847.63	3157.97
847.80	2643.93
847.97	2768.85
848.14	3334.09
848.31	2879.44
848.48	2615.26
848.65	2676.70
848.82	2799.57
848.98	3379.15
849.15	2873.30
849.32	2938.84
849.49	3065.81
849.66	2981.84
849.83	2695.13
850.00	2678.74
850.17	3080.14
850.34	2987.99
850.51	2719.70
850.68	2727.89
850.85	3309.52
851.01	3004.37
851.18	2666.46
851.35	2746.33
851.52	3092.43
851.69	3162.06
851.86	2729.94
852.03	2768.85
852.20	3098.58
852.37	2944.98
852.53	2543.58
852.70	2703.32
852.87	3024.85
853.04	3041.23
853.21	2754.52
853.38	3030.99
853.55	3188.69
853.72	3227.60
853.89	2615.26
854.05	2672.60
854.22	2955.22
854.39	2852.82
854.56	2709.46
854.73	2877.40
854.90	2824.15
855.07	3008.47
855.23	2748.37
855.40	2652.12
855.57	2934.74
855.74	2619.35
855.91	2928.60
856.08	2576.34
856.25	2789.33
856.41	2906.07
856.58	2645.98
856.75	2793.43
856.92	2785.24
857.09	3160.02
857.26	2572.25
857.42	2738.13
857.59	3063.76
857.76	2889.68
857.93	2674.65
858.10	2783.19
858.27	2781.14
858.43	2975.70
858.60	2746.33
858.77	2559.96
858.94	2856.92
859.11	3170.26
859.27	2795.48
859.44	2666.46
859.61	3319.76
859.78	3049.43
859.95	2764.76
860.12	2688.98
860.28	3395.53
860.45	3317.71
860.62	2721.75
860.79	2832.34
860.95	2910.16
861.12	2869.20
861.29	2648.02
861.46	2705.37
861.63	2947.03
861.79	3080.14
861.96	2584.54
862.13	2729.94
862.30	3186.64
862.47	2908.12
862.63	2566.10
862.80	2789.33
862.97	3178.45
863.14	3047.38
863.30	2744.28
863.47	2631.64
863.64	3280.85
863.81	3002.32
863.97	2623.45
864.14	2832.34
864.31	2926.55
864.48	3008.47
864.65	2775.00
864.81	2818.00
864.98	2985.94
865.15	3096.53
865.32	2789.33
865.48	2828.24
865.65	3248.08
865.82	2883.54
865.98	2791.38
866.15	2793.43
866.32	3022.80
866.49	2949.08
866.65	2875.35
866.82	2734.04
866.99	2963.41
867.16	2901.97
867.32	2731.99
867.49	2664.41
867.66	2969.55
867.83	2879.44
867.99	2643.93
868.16	2738.13
868.33	2768.85
868.49	2969.55
868.66	2781.14
868.83	2873.30
868.99	3020.75
869.16	2955.22
869.33	2846.68
869.50	2815.96
869.66	2996.18
869.83	2926.55
870.00	2621.40
870.16	2852.82
870.33	2949.08
870.50	3088.34
870.66	2906.07
870.83	2793.43
871.00	3033.04
871.17	3053.52
871.33	2779.09
871.50	2678.74
871.67	2920.40
871.83	2865.11
872.00	2785.24
872.17	2772.95
872.33	3346.38
872.50	3229.65
872.67	2758.61
872.83	2740.18
873.00	3012.56
873.17	2990.03
873.33	2863.06
873.50	2783.19
873.67	2867.16
873.83	2803.67
874.00	2807.77
874.16	2861.01
874.33	3043.28
874.50	2830.29
874.66	2691.03
874.83	2848.72
875.00	3194.83
875.16	3092.43
875.33	2791.38
875.50	2549.72
875.66	2801.62
875.83	2992.08
875.99	2787.29
876.16	2848.72
876.33	2791.38
876.49	2883.54
876.66	2779.09
876.83	2828.24
876.99	2713.56
877.16	3012.56
877.32	2643.93
877.49	2723.80
877.66	2990.03
877.82	3241.93
877.99	2834.39
878.15	2969.55
878.32	2992.08
878.49	3082.19
878.65	2746.33
878.82	3016.66
878.98	2840.53
879.15	3174.35
879.32	2901.97
879.48	2924.50
879.65	2961.36
879.81	2877.40
879.98	2744.28
880.15	2688.98
880.31	3000.27
880.48	2811.86
880.64	2889.68
880.81	2844.63
880.97	3203.02
881.14	3114.96
881.31	2731.99
881.47	2895.83
881.64	2932.69
881.80	2670.55
881.97	2891.73
882.13	2803.67
882.30	2781.14
882.47	2836.44
882.63	2711.51
882.80	2719.70
882.96	2897.88
883.13	3178.45
883.29	2734.04
883.46	2858.96
883.62	3340.24
883.79	2932.69
883.95	2846.68
884.12	2715.61
884.29	3143.63
884.45	2953.17
884.62	2783.19
884.78	2635.74
884.95	3262.41
885.11	2740.18
885.28	2818.00
885.44	2805.72
885.61	3033.04
885.77	3256.27
885.94	2842.58
886.10	2846.68
886.27	2953.17
886.43	3252.17
886.60	2932.69
886.76	2775.00
886.93	2856.92
887.09	3016.66
887.26	2605.02
887.42	2787.29
887.59	3157.97
887.75	3354.57
887.92	2971.60
888.08	2822.10
888.25	3289.04
888.41	3057.62
888.58	2834.39
888.74	2643.93
888.91	2926.55
>>>>>End Processed Spectral Data<<<<<
