SpectraSuite Data File
++++++++++++++++++++++++++++++++++++
Date: Thu May 05 21:11:30 CEST 2016
User: root
Dark Spectrum Present: No
Reference Spectrum Present: No
Number of Sampled Component Spectra: 1
Spectrometers: USB4C02835
Integration Time (usec): 100000 (USB4C02835)
Spectra Averaged: 1 (USB4C02835)
Boxcar Smoothing: 0 (USB4C02835)
Correct for Electrical Dark: No (USB4C02835)
Strobe/Lamp Enabled: No (USB4C02835)
Correct for Detector Non-linearity: No (USB4C02835)
Correct for Stray Light: No (USB4C02835)
Number of Pixels in Processed Spectrum: 3648
>>>>>Begin Processed Spectral Data<<<<<
177.47	2113.50
177.69	2113.50
177.91	2113.50
178.13	2070.50
178.36	2209.76
178.58	2754.52
178.80	2897.88
179.02	2715.61
179.24	2766.81
179.46	2580.44
179.68	2658.26
179.90	2979.79
180.13	2940.88
180.35	2482.14
180.57	2658.26
180.79	3147.73
181.01	2914.26
181.23	2656.22
181.45	2717.65
181.67	3069.91
181.90	3176.40
182.12	2678.74
182.34	2527.19
182.56	3143.63
182.78	3047.38
183.00	2600.92
183.22	2676.70
183.44	2713.56
183.66	3602.38
183.89	2813.91
184.11	2672.60
184.33	3133.39
184.55	3149.78
184.77	2686.94
184.99	2660.31
185.21	3012.56
185.43	3373.00
185.65	2615.26
185.87	2656.22
186.10	3456.97
186.32	3411.92
186.54	2777.05
186.76	2795.48
186.98	3190.74
187.20	2918.36
187.42	2721.75
187.64	2619.35
187.86	3024.85
188.08	3170.26
188.30	2584.54
188.52	2719.70
188.75	3213.26
188.97	3217.36
189.19	2633.69
189.41	2666.46
189.63	2985.94
189.85	2863.06
190.07	2576.34
190.29	2582.49
190.51	3055.57
190.73	2803.67
190.95	2811.86
191.17	2672.60
191.39	2664.41
191.61	2967.51
191.84	2660.31
192.06	2820.05
192.28	2752.47
192.50	3538.89
192.72	2865.11
192.94	2811.86
193.16	3125.20
193.38	3114.96
193.60	2529.24
193.82	2858.96
194.04	3147.73
194.26	3035.09
194.48	2676.70
194.70	2621.40
194.92	2910.16
195.14	3100.62
195.36	2658.26
195.58	2744.28
195.80	2973.65
196.02	2869.20
196.24	2615.26
196.46	2729.94
196.69	2938.84
196.91	3383.24
197.13	2754.52
197.35	2746.33
197.57	3241.93
197.79	3112.91
198.01	2803.67
198.23	2713.56
198.45	3114.96
198.67	2789.33
198.89	2570.20
199.11	2717.65
199.33	2803.67
199.55	2643.93
199.77	2645.98
199.99	2801.62
200.21	2992.08
200.43	2947.03
200.65	2519.00
200.87	2467.80
201.09	2914.26
201.31	2922.45
201.53	2719.70
201.75	2756.57
201.97	2992.08
202.19	3002.32
202.41	2719.70
202.63	2842.58
202.85	3117.01
203.07	3026.90
203.29	2725.85
203.51	2594.78
203.73	2846.68
203.95	3436.49
204.17	2652.12
204.39	2789.33
204.61	2901.97
204.83	2799.57
205.05	2873.30
205.27	2688.98
205.49	3418.06
205.71	2975.70
205.93	2543.58
206.15	2648.02
206.37	2959.31
206.59	2947.03
206.81	2594.78
207.03	2527.19
207.25	2832.34
207.47	3127.25
207.69	2731.99
207.91	2940.88
208.13	3295.18
208.34	2834.39
208.56	2664.41
208.78	2731.99
209.00	2955.22
209.22	2920.40
209.44	2707.41
209.66	2596.82
209.88	3014.61
210.10	2959.31
210.32	2605.02
210.54	2772.95
210.76	2949.08
210.98	3172.30
211.20	2557.91
211.42	2779.09
211.64	3172.30
211.86	3102.67
212.08	2727.89
212.30	2781.14
212.52	2967.51
212.74	3082.19
212.96	2836.44
213.17	2756.57
213.39	3078.10
213.61	3311.57
213.83	2631.64
214.05	2545.63
214.27	3141.58
214.49	2799.57
214.71	2664.41
214.93	2805.72
215.15	2979.79
215.37	3157.97
215.59	2545.63
215.81	2766.81
216.03	3219.41
216.24	2965.46
216.46	2631.64
216.68	2719.70
216.90	3172.30
217.12	3162.06
217.34	2717.65
217.56	2916.31
217.78	3301.33
218.00	3059.67
218.22	2781.14
218.44	2740.18
218.66	2961.36
218.87	3426.25
219.09	2641.88
219.31	2731.99
219.53	3061.71
219.75	2895.83
219.97	2682.84
220.19	2731.99
220.41	3041.23
220.63	3262.41
220.85	2705.37
221.06	2695.13
221.28	3246.03
221.50	3123.15
221.72	2676.70
221.94	2562.01
222.16	3041.23
222.38	3088.34
222.60	2629.59
222.82	2688.98
223.03	3250.13
223.25	2795.48
223.47	2621.40
223.69	2906.07
223.91	3080.14
224.13	2928.60
224.35	2631.64
224.57	2873.30
224.78	3135.44
225.00	2740.18
225.22	2797.53
225.44	2629.59
225.66	3051.47
225.88	2867.16
226.10	2787.29
226.32	2758.61
226.53	3321.81
226.75	2844.63
226.97	2760.66
227.19	2740.18
227.41	2815.96
227.63	2891.73
227.85	2547.67
228.06	2758.61
228.28	3018.71
228.50	3162.06
228.72	2574.30
228.94	2645.98
229.16	2650.07
229.37	2803.67
229.59	2621.40
229.81	2879.44
230.03	2908.12
230.25	2744.28
230.47	2541.53
230.69	2627.54
230.90	3114.96
231.12	2926.55
231.34	2715.61
231.56	2721.75
231.78	2854.87
232.00	3024.85
232.21	2766.81
232.43	2688.98
232.65	2623.45
232.87	2973.65
233.09	2582.49
233.30	2748.37
233.52	3170.26
233.74	2971.60
233.96	2602.97
234.18	2873.30
234.40	2916.31
234.61	3366.86
234.83	2576.34
235.05	2617.30
235.27	3405.77
235.49	3129.30
235.70	2664.41
235.92	2723.80
236.14	3133.39
236.36	3391.44
236.58	2551.77
236.79	2783.19
237.01	2934.74
237.23	2889.68
237.45	2879.44
237.67	2631.64
237.88	3063.76
238.10	3286.99
238.32	2598.87
238.54	2635.74
238.76	3033.04
238.97	2852.82
239.19	2617.30
239.41	2744.28
239.63	3194.83
239.85	2858.96
240.06	2744.28
240.28	2734.04
240.50	3254.22
240.72	3061.71
240.93	2650.07
241.15	2770.90
241.37	2959.31
241.59	3123.15
241.81	2750.42
242.02	2701.27
242.24	3098.58
242.46	3074.00
242.68	2539.48
242.89	2648.02
243.11	3160.02
243.33	2971.60
243.55	2772.95
243.76	2670.55
243.98	2852.82
244.20	2955.22
244.42	2715.61
244.64	2615.26
244.85	2752.47
245.07	2787.29
245.29	2791.38
245.51	2738.13
245.72	3057.62
245.94	3129.30
246.16	2705.37
246.38	2697.17
246.59	2875.35
246.81	2863.06
247.03	2578.39
247.24	2602.97
247.46	2887.64
247.68	3024.85
247.90	2617.30
248.11	2701.27
248.33	3076.05
248.55	2957.27
248.77	2783.19
248.98	2805.72
249.20	3252.17
249.42	3016.66
249.64	2643.93
249.85	2650.07
250.07	2844.63
250.29	3170.26
250.50	2818.00
250.72	2613.21
250.94	3110.86
251.16	3348.43
251.37	2631.64
251.59	2721.75
251.81	3094.48
252.02	3215.31
252.24	2619.35
252.46	2811.86
252.68	2959.31
252.89	2818.00
253.11	2555.86
253.33	2838.48
253.54	3207.12
253.76	2762.71
253.98	2664.41
254.20	2650.07
254.41	2789.33
254.63	2969.55
254.85	2533.34
255.06	2795.48
255.28	3014.61
255.50	2918.36
255.71	2564.06
255.93	2519.00
256.15	2883.54
256.36	3057.62
256.58	2629.59
256.80	2662.36
257.02	2942.93
257.23	2949.08
257.45	2725.85
257.67	2801.62
257.88	2918.36
258.10	2983.89
258.32	2639.83
258.53	2742.23
258.75	3209.17
258.97	2838.48
259.18	2637.78
259.40	2641.88
259.62	3309.52
259.83	3196.88
260.05	2686.94
260.27	3397.58
260.48	3170.26
260.70	2775.00
260.92	2578.39
261.13	2813.91
261.35	2967.51
261.57	3082.19
261.78	2598.87
262.00	2611.16
262.22	3063.76
262.43	2801.62
262.65	2734.04
262.86	2637.78
263.08	3473.36
263.30	3022.80
263.51	2521.05
263.73	2629.59
263.95	3379.15
264.16	2789.33
264.38	2588.63
264.60	2586.58
264.81	2979.79
265.03	3102.67
265.25	3092.43
265.46	2705.37
265.68	3149.78
265.89	3127.25
266.11	2572.25
266.33	2660.31
266.54	3153.87
266.76	3043.28
266.98	2750.42
267.19	2869.20
267.41	3123.15
267.62	2914.26
267.84	2535.39
268.06	2803.67
268.27	3008.47
268.49	3160.02
268.70	2676.70
268.92	2709.46
269.14	2861.01
269.35	2772.95
269.57	2766.81
269.79	2770.90
270.00	2904.02
270.22	3368.91
270.43	2570.20
270.65	2570.20
270.87	3057.62
271.08	3082.19
271.30	2805.72
271.51	2658.26
271.73	3098.58
271.95	3221.45
272.16	2645.98
272.38	2926.55
272.59	2951.12
272.81	3090.38
273.02	2553.82
273.24	2764.76
273.46	3157.97
273.67	2785.24
273.89	2588.63
274.10	2580.44
274.32	3094.48
274.54	2998.23
274.75	2688.98
274.97	2801.62
275.18	3074.00
275.40	3157.97
275.61	2725.85
275.83	2805.72
276.05	2856.92
276.26	2918.36
276.48	2762.71
276.69	2822.10
276.91	2871.25
277.12	3223.50
277.34	2922.45
277.55	2955.22
277.77	2949.08
277.99	2940.88
278.20	2838.48
278.42	2672.60
278.63	2828.24
278.85	2842.58
279.06	2666.46
279.28	2901.97
279.49	3149.78
279.71	3114.96
279.93	2854.87
280.14	2799.57
280.36	2805.72
280.57	3139.54
280.79	2889.68
281.00	2736.09
281.22	2940.88
281.43	3143.63
281.65	2568.15
281.86	2711.51
282.08	3024.85
282.29	3297.23
282.51	2641.88
282.73	2746.33
282.94	2682.84
283.16	3078.10
283.37	2932.69
283.59	2801.62
283.80	3100.62
284.02	2922.45
284.23	2873.30
284.45	2842.58
284.66	2869.20
284.88	2803.67
285.09	2768.85
285.31	2815.96
285.52	3045.33
285.74	2691.03
285.95	2967.51
286.17	2850.77
286.38	3153.87
286.60	2959.31
286.81	2703.32
287.03	2721.75
287.24	2928.60
287.46	3016.66
287.67	2883.54
287.89	3078.10
288.10	2961.36
288.32	3012.56
288.53	2832.34
288.75	2875.35
288.96	3155.92
289.18	2897.88
289.39	2715.61
289.61	2883.54
289.82	3426.25
290.04	3368.91
290.25	2664.41
290.47	2977.75
290.68	2912.21
290.90	3223.50
291.11	2609.11
291.33	2881.49
291.54	2797.53
291.76	2791.38
291.97	2916.31
292.18	2871.25
292.40	2928.60
292.61	2893.78
292.83	3049.43
293.04	2832.34
293.26	2961.36
293.47	2904.02
293.69	2777.05
293.90	2783.19
294.12	3162.06
294.33	3035.09
294.55	2861.01
294.76	2877.40
294.97	3209.17
295.19	3377.10
295.40	2795.48
295.62	2838.48
295.83	3135.44
296.05	2865.11
296.26	3012.56
296.48	2826.20
296.69	2912.21
296.90	2947.03
297.12	3016.66
297.33	2983.89
297.55	3063.76
297.76	3084.24
297.98	2858.96
298.19	2906.07
298.41	3014.61
298.62	2887.64
298.83	2977.75
299.05	2901.97
299.26	2846.68
299.48	2779.09
299.69	2863.06
299.90	2768.85
300.12	2850.77
300.33	3078.10
300.55	2828.24
300.76	2758.61
300.98	2852.82
301.19	3110.86
301.40	2838.48
301.62	2815.96
301.83	3086.29
302.05	2977.75
302.26	2775.00
302.47	2848.72
302.69	2766.81
302.90	3076.05
303.12	2609.11
303.33	2877.40
303.54	3295.18
303.76	3018.71
303.97	2770.90
304.19	2944.98
304.40	2783.19
304.61	3037.14
304.83	2875.35
305.04	2916.31
305.26	3094.48
305.47	2852.82
305.68	2777.05
305.90	2670.55
306.11	3211.22
306.33	2920.40
306.54	2676.70
306.75	2742.23
306.97	2752.47
307.18	2805.72
307.39	2791.38
307.61	2918.36
307.82	3010.51
308.04	3016.66
308.25	2666.46
308.46	2979.79
308.68	3045.33
308.89	3006.42
309.10	2885.59
309.32	2777.05
309.53	2987.99
309.74	3102.67
309.96	2736.09
310.17	2936.79
310.39	2949.08
310.60	3121.10
310.81	2861.01
311.03	2783.19
311.24	3030.99
311.45	2975.70
311.67	2992.08
311.88	2871.25
312.09	2897.88
312.31	2879.44
312.52	2725.85
312.73	2832.34
312.95	2793.43
313.16	2865.11
313.37	2951.12
313.59	2916.31
313.80	3137.49
314.01	3241.93
314.23	2838.48
314.44	2770.90
314.65	2766.81
314.87	2861.01
315.08	2777.05
315.29	2828.24
315.51	2875.35
315.72	2734.04
315.93	2865.11
316.15	2799.57
316.36	2889.68
316.57	2928.60
316.79	2746.33
317.00	2705.37
317.21	3061.71
317.43	2834.39
317.64	2951.12
317.85	2762.71
318.07	2770.90
318.28	2875.35
318.49	2893.78
318.70	3049.43
318.92	2975.70
319.13	3063.76
319.34	2953.17
319.56	2805.72
319.77	3123.15
319.98	3028.95
320.20	3049.43
320.41	2932.69
320.62	3119.06
320.83	2844.63
321.05	2938.84
321.26	2852.82
321.47	3043.28
321.69	3112.91
321.90	2695.13
322.11	2764.76
322.32	3018.71
322.54	3160.02
322.75	2797.53
322.96	3538.89
323.18	2805.72
323.39	2756.57
323.60	2666.46
323.81	2861.01
324.03	2881.49
324.24	2934.74
324.45	2844.63
324.66	2770.90
324.88	3174.35
325.09	3147.73
325.30	2875.35
325.52	2674.65
325.73	3043.28
325.94	2781.14
326.15	2729.94
326.37	2680.79
326.58	3030.99
326.79	3241.93
327.00	2740.18
327.22	2809.81
327.43	2869.20
327.64	2789.33
327.85	2877.40
328.07	2795.48
328.28	3327.95
328.49	2947.03
328.70	2744.28
328.92	2850.77
329.13	2965.46
329.34	3008.47
329.55	2992.08
329.76	2985.94
329.98	2885.59
330.19	3225.55
330.40	2848.72
330.61	2861.01
330.83	3059.67
331.04	2766.81
331.25	2975.70
331.46	2789.33
331.68	2719.70
331.89	3235.79
332.10	2820.05
332.31	2619.35
332.52	2926.55
332.74	3200.98
332.95	2545.63
333.16	2820.05
333.37	3059.67
333.58	2934.74
333.80	2809.81
334.01	2607.06
334.22	2957.27
334.43	2832.34
334.64	2764.76
334.86	2740.18
335.07	2873.30
335.28	3264.46
335.49	2643.93
335.70	2877.40
335.92	3205.07
336.13	3362.76
336.34	2879.44
336.55	2818.00
336.76	3071.95
336.98	2619.35
337.19	2779.09
337.40	2957.27
337.61	3440.59
337.82	2938.84
338.04	2916.31
338.25	2674.65
338.46	2949.08
338.67	2899.92
338.88	2699.22
339.09	2688.98
339.31	2920.40
339.52	2791.38
339.73	2760.66
339.94	2891.73
340.15	3049.43
340.36	2957.27
340.58	2885.59
340.79	2742.23
341.00	3086.29
341.21	2779.09
341.42	2949.08
341.63	2766.81
341.85	3145.68
342.06	3063.76
342.27	2652.12
342.48	2942.93
342.69	2807.77
342.90	3020.75
343.12	3022.80
343.33	2740.18
343.54	3143.63
343.75	3200.98
343.96	2832.34
344.17	2656.22
344.38	2947.03
344.60	2820.05
344.81	2727.89
345.02	2811.86
345.23	3112.91
345.44	3442.64
345.65	2938.84
345.86	2961.36
346.07	3008.47
346.29	2901.97
346.50	2914.26
346.71	2908.12
346.92	3211.22
347.13	3416.01
347.34	2842.58
347.55	2709.46
347.76	2910.16
347.98	2777.05
348.19	2844.63
348.40	2942.93
348.61	2869.20
348.82	3338.19
349.03	2834.39
349.24	2748.37
349.45	3266.51
349.66	2656.22
349.88	2756.57
350.09	2742.23
350.30	3256.27
350.51	3235.79
350.72	2951.12
350.93	2787.29
351.14	2961.36
351.35	3084.24
351.56	2842.58
351.77	2867.16
351.99	3039.19
352.20	3262.41
352.41	2893.78
352.62	2658.26
352.83	2920.40
353.04	2930.64
353.25	2775.00
353.46	2838.48
353.67	3155.92
353.88	2691.03
354.09	2754.52
354.30	2785.24
354.52	3143.63
354.73	2936.79
354.94	2734.04
355.15	2904.02
355.36	3381.20
355.57	2891.73
355.78	2707.41
355.99	2799.57
356.20	2942.93
356.41	3168.21
356.62	2836.44
356.83	2828.24
357.04	3127.25
357.25	2721.75
357.46	2789.33
357.68	2723.80
357.89	2822.10
358.10	2953.17
358.31	2850.77
358.52	2920.40
358.73	2863.06
358.94	2775.00
359.15	2695.13
359.36	2852.82
359.57	2916.31
359.78	2922.45
359.99	2930.64
360.20	2654.17
360.41	2979.79
360.62	3084.24
360.83	2803.67
361.04	2766.81
361.25	3098.58
361.46	3225.55
361.67	2914.26
361.88	2803.67
362.09	3174.35
362.30	3049.43
362.51	2752.47
362.72	2893.78
362.93	3168.21
363.14	3059.67
363.35	2969.55
363.56	2662.36
363.78	3211.22
363.99	3026.90
364.20	2758.61
364.41	2846.68
364.62	3280.85
364.83	3018.71
365.04	2799.57
365.25	2764.76
365.46	3276.75
365.67	2822.10
365.88	2893.78
366.09	2756.57
366.30	2930.64
366.51	3016.66
366.72	2680.79
366.93	2752.47
367.14	3063.76
367.35	3272.65
367.56	2842.58
367.77	2942.93
367.98	2987.99
368.18	3076.05
368.39	2912.21
368.60	2756.57
368.81	3018.71
369.02	3059.67
369.23	2871.25
369.44	2721.75
369.65	2990.03
369.86	3065.81
370.07	2904.02
370.28	2764.76
370.49	3033.04
370.70	2971.60
370.91	2645.98
371.12	2682.84
371.33	3061.71
371.54	2830.29
371.75	2865.11
371.96	2521.05
372.17	3016.66
372.38	2949.08
372.59	2863.06
372.80	2795.48
373.01	2967.51
373.22	3035.09
373.43	2848.72
373.64	2762.71
373.85	3338.19
374.06	3235.79
374.26	2979.79
374.47	2797.53
374.68	3252.17
374.89	3000.27
375.10	2746.33
375.31	2828.24
375.52	2971.60
375.73	3086.29
375.94	2682.84
376.15	2963.41
376.36	2826.20
376.57	2983.89
376.78	2777.05
376.99	2906.07
377.20	3153.87
377.40	2969.55
377.61	3127.25
377.82	2777.05
378.03	3133.39
378.24	3086.29
378.45	2893.78
378.66	2867.16
378.87	2709.46
379.08	2666.46
379.29	2762.71
379.50	2934.74
379.71	2904.02
379.91	3069.91
380.12	2775.00
380.33	2893.78
380.54	3014.61
380.75	2959.31
380.96	2820.05
381.17	2830.29
381.38	3006.42
381.59	2871.25
381.80	2815.96
382.00	2987.99
382.21	3043.28
382.42	3258.32
382.63	3026.90
382.84	2848.72
383.05	3166.16
383.26	3205.07
383.47	2885.59
383.68	2840.53
383.88	3033.04
384.09	3008.47
384.30	3033.04
384.51	2899.92
384.72	2865.11
384.93	2822.10
385.14	2893.78
385.35	3039.19
385.55	2826.20
385.76	3164.11
385.97	2824.15
386.18	2678.74
386.39	2777.05
386.60	2883.54
386.81	2826.20
387.02	2719.70
387.22	2801.62
387.43	3074.00
387.64	2889.68
387.85	3004.37
388.06	3002.32
388.27	4073.41
388.48	7182.23
388.68	10983.26
388.89	13188.92
389.10	14589.73
389.31	14110.50
389.52	11235.16
389.73	9686.89
389.93	9080.69
390.14	7964.55
390.35	7329.68
390.56	6715.29
390.77	5679.02
390.98	4315.07
391.18	3743.69
391.39	3401.68
391.60	3074.00
391.81	2996.18
392.02	2807.77
392.23	3450.83
392.43	3010.51
392.64	2916.31
392.85	2934.74
393.06	3336.14
393.27	3018.71
393.47	2736.09
393.68	2832.34
393.89	2983.89
394.10	3213.26
394.31	2830.29
394.52	2746.33
394.72	2895.83
394.93	3270.61
395.14	2707.41
395.35	2981.84
395.56	2897.88
395.76	2920.40
395.97	2795.48
396.18	2897.88
396.39	3043.28
396.60	3569.61
396.80	3121.10
397.01	3041.23
397.22	3209.17
397.43	3149.78
397.64	2818.00
397.84	2875.35
398.05	3340.24
398.26	2873.30
398.47	3012.56
398.67	2990.03
398.88	2965.46
399.09	3051.47
399.30	2744.28
399.51	2910.16
399.71	2889.68
399.92	2926.55
400.13	2916.31
400.34	2811.86
400.54	2961.36
400.75	3215.31
400.96	3037.14
401.17	3121.10
401.37	3112.91
401.58	2901.97
401.79	2779.09
402.00	2977.75
402.21	3405.77
402.41	3176.40
402.62	3084.24
402.83	3205.07
403.04	3286.99
403.24	3688.39
403.45	2965.46
403.66	3071.95
403.87	3217.36
404.07	3319.76
404.28	3030.99
404.49	3119.06
404.70	3125.20
404.90	3041.23
405.11	2801.62
405.32	2897.88
405.52	2928.60
405.73	2854.87
405.94	2811.86
406.15	2830.29
406.35	3106.77
406.56	3082.19
406.77	2899.92
406.98	2863.06
407.18	2813.91
407.39	3262.41
407.60	2840.53
407.80	2959.31
408.01	2885.59
408.22	3018.71
408.43	2744.28
408.63	2906.07
408.84	3190.74
409.05	3133.39
409.25	2795.48
409.46	2824.15
409.67	2879.44
409.88	2873.30
410.08	2910.16
410.29	2856.92
410.50	3186.64
410.70	3104.72
410.91	2717.65
411.12	2924.50
411.32	3045.33
411.53	2801.62
411.74	2815.96
411.95	2791.38
412.15	3000.27
412.36	3088.34
412.57	2963.41
412.77	2998.23
412.98	2990.03
413.19	2942.93
413.39	2906.07
413.60	2889.68
413.81	3203.02
414.01	2699.22
414.22	2906.07
414.43	2947.03
414.63	2940.88
414.84	3258.32
415.05	2848.72
415.25	2686.94
415.46	3098.58
415.67	2883.54
415.87	2865.11
416.08	2844.63
416.29	2971.60
416.49	3102.67
416.70	2877.40
416.91	2781.14
417.11	2938.84
417.32	3067.86
417.53	2944.98
417.73	2893.78
417.94	2967.51
418.15	2992.08
418.35	2836.44
418.56	2881.49
418.77	3450.83
418.97	3024.85
419.18	2883.54
419.38	2523.10
419.59	2961.36
419.80	3250.13
420.00	2830.29
420.21	2795.48
420.42	3227.60
420.62	3016.66
420.83	2740.18
421.04	2861.01
421.24	2969.55
421.45	3133.39
421.65	2867.16
421.86	2787.29
422.07	3078.10
422.27	3090.38
422.48	2760.66
422.69	2699.22
422.89	2983.89
423.10	2955.22
423.30	2727.89
423.51	2895.83
423.72	3039.19
423.92	3117.01
424.13	2799.57
424.33	2920.40
424.54	3071.95
424.75	2994.13
424.95	3041.23
425.16	2850.77
425.36	2985.94
425.57	3182.54
425.78	2947.03
425.98	3020.75
426.19	2940.88
426.39	2820.05
426.60	3010.51
426.81	2949.08
427.01	3020.75
427.22	2852.82
427.42	2688.98
427.63	2744.28
427.83	3125.20
428.04	3270.61
428.25	2936.79
428.45	2959.31
428.66	3149.78
428.86	2973.65
429.07	2992.08
429.28	2895.83
429.48	3030.99
429.69	2861.01
429.89	2996.18
430.10	2846.68
430.30	3194.83
430.51	3155.92
430.71	2719.70
430.92	2785.24
431.13	2934.74
431.33	3037.14
431.54	2975.70
431.74	3037.14
431.95	3409.87
432.15	2756.57
432.36	2754.52
432.56	2938.84
432.77	3342.28
432.98	3323.85
433.18	2914.26
433.39	2742.23
433.59	2953.17
433.80	3323.85
434.00	3026.90
434.21	2869.20
434.41	2832.34
434.62	3530.70
434.82	2746.33
435.03	2754.52
435.23	3033.04
435.44	2813.91
435.64	2738.13
435.85	2910.16
436.06	3166.16
436.26	3184.59
436.47	2807.77
436.67	2875.35
436.88	2875.35
437.08	3157.97
437.29	2985.94
437.49	2967.51
437.70	3164.11
437.90	2983.89
438.11	3076.05
438.31	2928.60
438.52	3219.41
438.72	3166.16
438.93	3143.63
439.13	2840.53
439.34	3096.53
439.54	2951.12
439.75	3024.85
439.95	2899.92
440.16	2828.24
440.36	2944.98
440.57	2852.82
440.77	2885.59
440.98	2951.12
441.18	3110.86
441.39	2811.86
441.59	2779.09
441.80	3420.11
442.00	2938.84
442.21	2992.08
442.41	2766.81
442.62	3209.17
442.82	2865.11
443.02	2818.00
443.23	2899.92
443.43	2965.46
443.64	3166.16
443.84	2693.08
444.05	2969.55
444.25	3045.33
444.46	2967.51
444.66	2848.72
444.87	3098.58
445.07	2709.46
445.28	2938.84
445.48	3012.56
445.69	2895.83
445.89	3426.25
446.09	2914.26
446.30	3121.10
446.50	3184.59
446.71	4736.95
446.91	5765.03
447.12	6623.13
447.32	7049.11
447.53	6821.78
447.73	5769.13
447.93	5062.58
448.14	4726.71
448.34	4792.25
448.55	4100.03
448.75	4079.55
448.96	3782.60
449.16	3665.86
449.36	3465.16
449.57	3092.43
449.77	2955.22
449.98	2899.92
450.18	3180.50
450.39	2863.06
450.59	2973.65
450.79	2977.75
451.00	2822.10
451.20	2975.70
451.41	2852.82
451.61	3022.80
451.81	2949.08
452.02	2781.14
452.22	2891.73
452.43	2875.35
452.63	2897.88
452.84	2836.44
453.04	2820.05
453.24	3071.95
453.45	2832.34
453.65	2961.36
453.86	2881.49
454.06	2959.31
454.26	2992.08
454.47	2707.41
454.67	3051.47
454.87	3096.53
455.08	2908.12
455.28	3020.75
455.49	3047.38
455.69	2820.05
455.89	3358.67
456.10	2908.12
456.30	2750.42
456.51	3135.44
456.71	3069.91
456.91	2963.41
457.12	2869.20
457.32	3059.67
457.52	2813.91
457.73	2996.18
457.93	3063.76
458.14	2930.64
458.34	2736.09
458.54	2828.24
458.75	2826.20
458.95	3123.15
459.15	3080.14
459.36	2920.40
459.56	2863.06
459.76	3422.16
459.97	3024.85
460.17	2756.57
460.37	3065.81
460.58	3030.99
460.78	3057.62
460.99	2846.68
461.19	2799.57
461.39	2883.54
461.60	2944.98
461.80	2926.55
462.00	2742.23
462.21	2955.22
462.41	2760.66
462.61	2676.70
462.82	2654.17
463.02	3041.23
463.22	2971.60
463.43	3020.75
463.63	2830.29
463.83	3223.50
464.04	3086.29
464.24	2824.15
464.44	2869.20
464.64	3074.00
464.85	3157.97
465.05	2875.35
465.25	2861.01
465.46	2942.93
465.66	3147.73
465.86	2957.27
466.07	2836.44
466.27	3016.66
466.47	2795.48
466.68	2650.07
466.88	3016.66
467.08	3086.29
467.29	3135.44
467.49	2891.73
467.69	2920.40
467.89	3039.19
468.10	2899.92
468.30	2949.08
468.50	2979.79
468.71	3080.14
468.91	2844.63
469.11	3030.99
469.31	2930.64
469.52	2897.88
469.72	3237.84
469.92	3080.14
470.13	2854.87
470.33	2971.60
470.53	3127.25
470.73	3143.63
470.94	3477.45
471.14	3588.04
471.34	4108.23
471.54	3772.36
471.75	3512.27
471.95	3338.19
472.15	3344.33
472.36	3313.61
472.56	3184.59
472.76	3510.22
472.96	3321.81
473.17	3114.96
473.37	2932.69
473.57	2883.54
473.77	2967.51
473.98	2926.55
474.18	2797.53
474.38	3512.27
474.58	2963.41
474.79	2738.13
474.99	2967.51
475.19	3200.98
475.39	2820.05
475.60	2973.65
475.80	2828.24
476.00	3004.37
476.20	2904.02
476.41	2973.65
476.61	2895.83
476.81	3217.36
477.01	2830.29
477.21	3010.51
477.42	3014.61
477.62	2826.20
477.82	3125.20
478.02	2836.44
478.23	2842.58
478.43	2879.44
478.63	2908.12
478.83	2811.86
479.03	2932.69
479.24	3252.17
479.44	3297.23
479.64	2807.77
479.84	2658.26
480.04	2899.92
480.25	3108.82
480.45	2818.00
480.65	2820.05
480.85	3233.74
481.06	2901.97
481.26	2899.92
481.46	2926.55
481.66	3078.10
481.86	2844.63
482.06	2947.03
482.27	2883.54
482.47	2938.84
482.67	3071.95
482.87	2842.58
483.07	2992.08
483.28	2975.70
483.48	2807.77
483.68	2832.34
483.88	2746.33
484.08	2660.31
484.29	2758.61
484.49	2924.50
484.69	2729.94
484.89	3260.37
485.09	3149.78
485.29	2895.83
485.50	2953.17
485.70	2879.44
485.90	3168.21
486.10	2965.46
486.30	2863.06
486.50	3170.26
486.71	2977.75
486.91	2951.12
487.11	2987.99
487.31	2787.29
487.51	3061.71
487.71	2783.19
487.91	2822.10
488.12	2899.92
488.32	2570.20
488.52	2781.14
488.72	2619.35
488.92	2973.65
489.12	3147.73
489.32	2998.23
489.53	2887.64
489.73	2729.94
489.93	3401.68
490.13	2762.71
490.33	2637.78
490.53	2957.27
490.73	3141.58
490.94	2729.94
491.14	2961.36
491.34	3074.00
491.54	3096.53
491.74	3665.86
491.94	4173.76
492.14	4605.88
492.34	4638.65
492.54	4366.27
492.75	3733.45
492.95	3882.95
493.15	3596.23
493.35	3510.22
493.55	3442.64
493.75	3340.24
493.95	3479.50
494.15	3145.68
494.35	2953.17
494.56	3033.04
494.76	2826.20
494.96	3024.85
495.16	2799.57
495.36	3028.95
495.56	3057.62
495.76	2869.20
495.96	2828.24
496.16	2846.68
496.36	3452.88
496.56	2768.85
496.77	2955.22
496.97	2963.41
497.17	3164.11
497.37	2611.16
497.57	3006.42
497.77	2977.75
497.97	2801.62
498.17	2914.26
498.37	2832.34
498.57	2998.23
498.77	2983.89
498.97	3014.61
499.17	3203.02
499.38	3026.90
499.58	3074.00
499.78	3035.09
499.98	3018.71
500.18	2947.03
500.38	2920.40
500.58	3110.86
500.78	3409.87
500.98	5498.80
501.18	7427.98
501.38	8748.92
501.58	9824.11
501.78	9791.34
501.98	7997.32
502.18	6772.63
502.38	5867.43
502.58	5689.26
502.78	5064.63
502.98	4868.02
503.18	4595.64
503.38	4351.93
503.59	3815.37
503.79	3721.16
503.99	3446.73
504.19	3397.58
504.39	3405.77
504.59	3252.17
504.79	3233.74
504.99	3364.81
505.19	3176.40
505.39	3055.57
505.59	3217.36
505.79	3291.09
505.99	3160.02
506.19	2897.88
506.39	3127.25
506.59	2881.49
506.79	3033.04
506.99	3084.24
507.19	2779.09
507.39	3026.90
507.59	2770.90
507.79	2844.63
507.99	2783.19
508.19	3028.95
508.39	2885.59
508.59	2881.49
508.79	2961.36
508.99	3276.75
509.19	2953.17
509.39	2893.78
509.59	2807.77
509.79	2852.82
509.99	2996.18
510.19	2981.84
510.39	3014.61
510.59	3022.80
510.79	2897.88
510.99	2674.65
511.19	2822.10
511.39	3311.57
511.59	3186.64
511.79	3067.86
511.99	2846.68
512.19	3239.89
512.38	2963.41
512.58	2791.38
512.78	2762.71
512.98	3205.07
513.18	3284.94
513.38	2746.33
513.58	2992.08
513.78	3008.47
513.98	2916.31
514.18	2887.64
514.38	2854.87
514.58	3028.95
514.78	2865.11
514.98	2826.20
515.18	2856.92
515.38	2799.57
515.58	3321.81
515.78	2881.49
515.98	2801.62
516.18	3135.44
516.38	2959.31
516.57	2799.57
516.77	2799.57
516.97	3106.77
517.17	2840.53
517.37	2678.74
517.57	2926.55
517.77	3043.28
517.97	2877.40
518.17	2975.70
518.37	2734.04
518.57	2824.15
518.77	2930.64
518.97	2850.77
519.16	2947.03
519.36	3157.97
519.56	2944.98
519.76	2707.41
519.96	2858.96
520.16	3317.71
520.36	2752.47
520.56	3012.56
520.76	2795.48
520.96	2971.60
521.16	3153.87
521.35	3074.00
521.55	3000.27
521.75	3057.62
521.95	2854.87
522.15	2848.72
522.35	2707.41
522.55	2807.77
522.75	3143.63
522.95	2764.76
523.14	2594.78
523.34	3137.49
523.54	2854.87
523.74	2928.60
523.94	2895.83
524.14	2721.75
524.34	3026.90
524.54	3022.80
524.73	2828.24
524.93	3069.91
525.13	2979.79
525.33	2777.05
525.53	3137.49
525.73	3117.01
525.93	3004.37
526.13	2873.30
526.32	2775.00
526.52	3227.60
526.72	3078.10
526.92	2844.63
527.12	2797.53
527.32	2826.20
527.52	3063.76
527.71	2865.11
527.91	2881.49
528.11	2863.06
528.31	3057.62
528.51	2809.81
528.71	2926.55
528.90	3112.91
529.10	3143.63
529.30	2981.84
529.50	2592.73
529.70	3041.23
529.90	2951.12
530.09	2861.01
530.29	2691.03
530.49	2863.06
530.69	3436.49
530.89	2981.84
531.09	2910.16
531.28	2920.40
531.48	3221.45
531.68	2918.36
531.88	2906.07
532.08	3186.64
532.28	2977.75
532.47	2918.36
532.67	2969.55
532.87	3076.05
533.07	2789.33
533.27	2930.64
533.46	2910.16
533.66	3178.45
533.86	2877.40
534.06	2815.96
534.26	2879.44
534.45	2983.89
534.65	3110.86
534.85	2893.78
535.05	2791.38
535.25	3143.63
535.44	2709.46
535.64	2906.07
535.84	2754.52
536.04	2883.54
536.24	2895.83
536.43	2770.90
536.63	2852.82
536.83	2906.07
537.03	2920.40
537.22	2605.02
537.42	2662.36
537.62	3030.99
537.82	2828.24
538.02	3035.09
538.21	2967.51
538.41	3440.59
538.61	2959.31
538.81	2908.12
539.00	2981.84
539.20	2795.48
539.40	2875.35
539.60	2863.06
539.79	3067.86
539.99	2987.99
540.19	2848.72
540.39	2838.48
540.58	2924.50
540.78	3100.62
540.98	2987.99
541.18	3053.52
541.37	2996.18
541.57	3028.95
541.77	3030.99
541.97	2820.05
542.16	2731.99
542.36	2858.96
542.56	3246.03
542.76	3045.33
542.95	3000.27
543.15	3086.29
543.35	3100.62
543.54	2824.15
543.74	2832.34
543.94	3196.88
544.14	2889.68
544.33	3010.51
544.53	2789.33
544.73	2926.55
544.93	2949.08
545.12	2789.33
545.32	2883.54
545.52	2965.46
545.71	2846.68
545.91	2809.81
546.11	2844.63
546.30	2754.52
546.50	2987.99
546.70	2879.44
546.90	2832.34
547.09	2695.13
547.29	3022.80
547.49	2951.12
547.68	2889.68
547.88	2803.67
548.08	3043.28
548.27	3207.12
548.47	2781.14
548.67	2818.00
548.87	3104.72
549.06	2811.86
549.26	2889.68
549.46	3067.86
549.65	2906.07
549.85	2846.68
550.05	2867.16
550.24	2740.18
550.44	2920.40
550.64	2889.68
550.83	2942.93
551.03	3162.06
551.23	3241.93
551.42	2856.92
551.62	2895.83
551.82	3035.09
552.01	2893.78
552.21	3028.95
552.41	2930.64
552.60	3166.16
552.80	2922.45
553.00	2844.63
553.19	2922.45
553.39	3254.22
553.59	2805.72
553.78	3051.47
553.98	2889.68
554.17	2838.48
554.37	3022.80
554.57	2904.02
554.76	2795.48
554.96	2951.12
555.16	3028.95
555.35	2938.84
555.55	2985.94
555.75	3076.05
555.94	3082.19
556.14	2631.64
556.33	2922.45
556.53	3006.42
556.73	3016.66
556.92	2885.59
557.12	2879.44
557.32	3274.70
557.51	3205.07
557.71	2824.15
557.90	3102.67
558.10	3180.50
558.30	2934.74
558.49	2871.25
558.69	2926.55
558.88	3098.58
559.08	3045.33
559.28	2854.87
559.47	2852.82
559.67	3016.66
559.86	3286.99
560.06	2875.35
560.26	2863.06
560.45	3059.67
560.65	2912.21
560.84	3082.19
561.04	2820.05
561.24	3137.49
561.43	2815.96
561.63	3094.48
561.82	3010.51
562.02	3104.72
562.22	2832.34
562.41	2787.29
562.61	2820.05
562.80	2750.42
563.00	3411.92
563.19	2914.26
563.39	2928.60
563.59	3082.19
563.78	2865.11
563.98	2562.01
564.17	2795.48
564.37	2701.27
564.56	2944.98
564.76	2709.46
564.96	2985.94
565.15	3065.81
565.35	3354.57
565.54	2832.34
565.74	2889.68
565.93	3117.01
566.13	2953.17
566.32	2938.84
566.52	2971.60
566.71	2973.65
566.91	3104.72
567.11	2953.17
567.30	2731.99
567.50	3108.82
567.69	3024.85
567.89	2803.67
568.08	2734.04
568.28	2998.23
568.47	2807.77
568.67	2936.79
568.86	2854.87
569.06	3119.06
569.25	2895.83
569.45	2762.71
569.64	2797.53
569.84	2938.84
570.04	3043.28
570.23	2893.78
570.43	2811.86
570.62	3094.48
570.82	3348.43
571.01	2744.28
571.21	2875.35
571.40	2861.01
571.60	3069.91
571.79	2938.84
571.99	2883.54
572.18	2854.87
572.38	3026.90
572.57	2899.92
572.77	2877.40
572.96	3373.00
573.16	3026.90
573.35	2848.72
573.55	3024.85
573.74	3135.44
573.94	2965.46
574.13	2873.30
574.33	3063.76
574.52	3182.54
574.71	3018.71
574.91	2910.16
575.10	2727.89
575.30	2867.16
575.49	2838.48
575.69	2740.18
575.88	2858.96
576.08	2985.94
576.27	3180.50
576.47	2799.57
576.66	3020.75
576.86	3135.44
577.05	2957.27
577.25	2944.98
577.44	3074.00
577.64	2879.44
577.83	3172.30
578.02	2797.53
578.22	3049.43
578.41	3246.03
578.61	2887.64
578.80	2697.17
579.00	2885.59
579.19	2934.74
579.39	2977.75
579.58	2916.31
579.77	2854.87
579.97	3207.12
580.16	3178.45
580.36	2998.23
580.55	2891.73
580.75	3078.10
580.94	3018.71
581.13	3078.10
581.33	3071.95
581.52	2947.03
581.72	3295.18
581.91	2996.18
582.11	2881.49
582.30	3076.05
582.49	2971.60
582.69	3065.81
582.88	2918.36
583.08	2953.17
583.27	3106.77
583.47	3033.04
583.66	2766.81
583.85	2783.19
584.05	2877.40
584.24	3041.23
584.44	2897.88
584.63	3129.30
584.82	3176.40
585.02	3065.81
585.21	2977.75
585.41	3049.43
585.60	2992.08
585.79	3123.15
585.99	3147.73
586.18	3112.91
586.37	3911.62
586.57	5840.81
586.76	16799.49
586.96	36421.08
587.15	49065.24
587.34	57281.69
587.54	61580.37
587.73	55114.94
587.93	38886.83
588.12	29703.74
588.31	24645.26
588.51	21274.30
588.70	19885.78
588.89	17233.66
589.09	14659.36
589.28	12642.11
589.47	10018.66
589.67	7628.68
589.86	6094.76
590.06	4685.75
590.25	4175.81
590.44	3526.60
590.64	3342.28
590.83	3164.11
591.02	3211.22
591.22	2916.31
591.41	2963.41
591.60	2904.02
591.80	3430.35
591.99	2795.48
592.18	2863.06
592.38	3153.87
592.57	2947.03
592.76	2936.79
592.96	2971.60
593.15	2906.07
593.34	3180.50
593.54	2762.71
593.73	2936.79
593.92	3137.49
594.12	3133.39
594.31	2861.01
594.50	3071.95
594.70	3110.86
594.89	3463.12
595.08	2826.20
595.28	2961.36
595.47	3512.27
595.66	3100.62
595.86	2772.95
596.05	2791.38
596.24	2922.45
596.43	3266.51
596.63	3051.47
596.82	3053.52
597.01	3059.67
597.21	3272.65
597.40	2869.20
597.59	2906.07
597.79	3014.61
597.98	3051.47
598.17	2959.31
598.36	2951.12
598.56	3194.83
598.75	2965.46
598.94	2944.98
599.14	2977.75
599.33	2865.11
599.52	3141.58
599.71	2910.16
599.91	2963.41
600.10	3190.74
600.29	3049.43
600.48	3014.61
600.68	3049.43
600.87	2973.65
601.06	2926.55
601.26	2924.50
601.45	2969.55
601.64	2936.79
601.83	3235.79
602.03	2785.24
602.22	2762.71
602.41	3149.78
602.60	3516.36
602.80	3043.28
602.99	3053.52
603.18	2912.21
603.37	2983.89
603.57	2863.06
603.76	2936.79
603.95	3229.65
604.14	2906.07
604.34	2695.13
604.53	2775.00
604.72	3022.80
604.91	3100.62
605.10	2873.30
605.30	2758.61
605.49	3344.33
605.68	3096.53
605.87	2914.26
606.07	2897.88
606.26	3022.80
606.45	3057.62
606.64	2985.94
606.84	2744.28
607.03	2994.13
607.22	3164.11
607.41	2834.39
607.60	2852.82
607.80	3174.35
607.99	2975.70
608.18	2920.40
608.37	2875.35
608.56	2865.11
608.76	3100.62
608.95	3014.61
609.14	2873.30
609.33	3139.54
609.52	3151.82
609.72	2930.64
609.91	2977.75
610.10	3049.43
610.29	3233.74
610.48	3039.19
610.68	3000.27
610.87	2973.65
611.06	3178.45
611.25	2832.34
611.44	3016.66
611.63	2990.03
611.83	3178.45
612.02	2731.99
612.21	2998.23
612.40	2674.65
612.59	2879.44
612.79	2740.18
612.98	2914.26
613.17	3344.33
613.36	2926.55
613.55	3006.42
613.74	2830.29
613.93	3035.09
614.13	3076.05
614.32	2998.23
614.51	2883.54
614.70	2910.16
614.89	2951.12
615.08	3014.61
615.28	3262.41
615.47	2815.96
615.66	3047.38
615.85	2881.49
616.04	3012.56
616.23	2967.51
616.42	2873.30
616.62	2944.98
616.81	2940.88
617.00	2959.31
617.19	3065.81
617.38	2893.78
617.57	2875.35
617.76	3082.19
617.95	3049.43
618.15	2973.65
618.34	3074.00
618.53	2727.89
618.72	3229.65
618.91	2955.22
619.10	2893.78
619.29	2940.88
619.48	2996.18
619.68	2797.53
619.87	2736.09
620.06	2799.57
620.25	3147.73
620.44	2858.96
620.63	2799.57
620.82	2961.36
621.01	3022.80
621.20	2881.49
621.39	3061.71
621.59	3030.99
621.78	2924.50
621.97	2807.77
622.16	2934.74
622.35	3110.86
622.54	3145.68
622.73	2990.03
622.92	2582.49
623.11	3164.11
623.30	2959.31
623.49	2985.94
623.68	2791.38
623.88	3217.36
624.07	2858.96
624.26	2844.63
624.45	2842.58
624.64	2940.88
624.83	3041.23
625.02	2809.81
625.21	2914.26
625.40	3086.29
625.59	3262.41
625.78	2985.94
625.97	3028.95
626.16	3174.35
626.35	3088.34
626.54	2938.84
626.74	3008.47
626.93	2928.60
627.12	2914.26
627.31	2975.70
627.50	2901.97
627.69	3129.30
627.88	2807.77
628.07	2789.33
628.26	2637.78
628.45	2856.92
628.64	2785.24
628.83	2897.88
629.02	2756.57
629.21	3057.62
629.40	3043.28
629.59	2754.52
629.78	2820.05
629.97	3057.62
630.16	3012.56
630.35	2838.48
630.54	2959.31
630.73	2955.22
630.92	2959.31
631.11	2803.67
631.30	2957.27
631.49	3106.77
631.68	2940.88
631.87	2899.92
632.06	2754.52
632.25	3428.30
632.44	2959.31
632.63	2920.40
632.82	2830.29
633.01	2789.33
633.20	3016.66
633.39	2854.87
633.58	2688.98
633.77	3121.10
633.96	3096.53
634.15	2996.18
634.34	2881.49
634.53	3092.43
634.72	2877.40
634.91	2723.80
635.10	2926.55
635.29	3067.86
635.48	2932.69
635.67	2789.33
635.86	2672.60
636.05	3190.74
636.24	2908.12
636.43	2820.05
636.62	2893.78
636.81	2545.63
637.00	2944.98
637.19	2881.49
637.38	2809.81
637.57	2942.93
637.76	2977.75
637.95	3026.90
638.14	2815.96
638.33	2994.13
638.52	2949.08
638.71	2756.57
638.89	2711.51
639.08	3420.11
639.27	3157.97
639.46	3014.61
639.65	3336.14
639.84	3430.35
640.03	3506.12
640.22	3211.22
640.41	3264.46
640.60	3074.00
640.79	3129.30
640.98	2969.55
641.17	2987.99
641.36	3145.68
641.55	3231.69
641.74	2723.80
641.92	2781.14
642.11	2818.00
642.30	2932.69
642.49	2717.65
642.68	2842.58
642.87	3030.99
643.06	3049.43
643.25	2736.09
643.44	2779.09
643.63	2955.22
643.82	3205.07
644.00	2703.32
644.19	2926.55
644.38	2770.90
644.57	3131.34
644.76	2918.36
644.95	2961.36
645.14	2949.08
645.33	2975.70
645.52	2910.16
645.71	2693.08
645.89	2840.53
646.08	2940.88
646.27	2848.72
646.46	3114.96
646.65	2713.56
646.84	2979.79
647.03	2713.56
647.22	3039.19
647.40	2983.89
647.59	2904.02
647.78	2650.07
647.97	2840.53
648.16	2785.24
648.35	3209.17
648.54	3117.01
648.73	2764.76
648.91	3108.82
649.10	3043.28
649.29	2818.00
649.48	2777.05
649.67	3123.15
649.86	3008.47
650.05	2887.64
650.23	3063.76
650.42	2848.72
650.61	3219.41
650.80	2998.23
650.99	3090.38
651.18	3209.17
651.36	3170.26
651.55	2822.10
651.74	3018.71
651.93	2879.44
652.12	2852.82
652.31	2846.68
652.49	2856.92
652.68	2959.31
652.87	3168.21
653.06	2926.55
653.25	3160.02
653.44	2953.17
653.62	3252.17
653.81	2873.30
654.00	2891.73
654.19	3121.10
654.38	3442.64
654.56	2957.27
654.75	2820.05
654.94	3131.34
655.13	3037.14
655.32	2852.82
655.51	2942.93
655.69	2916.31
655.88	3080.14
656.07	2727.89
656.26	2944.98
656.45	2764.76
656.63	3049.43
656.82	2961.36
657.01	2985.94
657.20	2885.59
657.38	3229.65
657.57	2840.53
657.76	2686.94
657.95	3160.02
658.14	2955.22
658.32	2807.77
658.51	2766.81
658.70	2961.36
658.89	3004.37
659.08	2899.92
659.26	3100.62
659.45	2791.38
659.64	3018.71
659.83	2840.53
660.01	3254.22
660.20	3014.61
660.39	3205.07
660.58	2641.88
660.76	2899.92
660.95	2793.43
661.14	2967.51
661.33	2672.60
661.51	2889.68
661.70	2949.08
661.89	2959.31
662.08	2895.83
662.26	2713.56
662.45	2779.09
662.64	3379.15
662.83	2873.30
663.01	2758.61
663.20	2955.22
663.39	3211.22
663.58	2852.82
663.76	2779.09
663.95	3090.38
664.14	2871.25
664.32	2766.81
664.51	2727.89
664.70	2709.46
664.89	3082.19
665.07	2756.57
665.26	3010.51
665.45	2766.81
665.64	3004.37
665.82	2803.67
666.01	2928.60
666.20	2746.33
666.38	3143.63
666.57	3053.52
666.76	4827.06
666.95	11022.17
667.13	18005.74
667.32	21667.51
667.51	24307.34
667.69	25427.58
667.88	21145.28
668.07	15425.30
668.25	13004.60
668.44	11265.88
668.63	9830.25
668.81	8562.56
669.00	7425.93
669.19	6809.50
669.38	5982.12
669.56	5195.70
669.75	4495.29
669.94	3872.71
670.12	3346.38
670.31	3123.15
670.50	3121.10
670.68	3194.83
670.87	3035.09
671.06	2832.34
671.24	3069.91
671.43	3182.54
671.62	3047.38
671.80	2942.93
671.99	2967.51
672.18	3018.71
672.36	3086.29
672.55	2977.75
672.74	2893.78
672.92	2865.11
673.11	3119.06
673.29	2734.04
673.48	3028.95
673.67	2936.79
673.85	3233.74
674.04	2703.32
674.23	2944.98
674.41	3315.66
674.60	2731.99
674.79	2662.36
674.97	2699.22
675.16	3127.25
675.34	3198.93
675.53	2879.44
675.72	2908.12
675.90	3354.57
676.09	2920.40
676.28	2893.78
676.46	2809.81
676.65	3129.30
676.83	2844.63
677.02	2914.26
677.21	2928.60
677.39	2959.31
677.58	2846.68
677.77	2795.48
677.95	2828.24
678.14	2969.55
678.32	2883.54
678.51	2789.33
678.70	3139.54
678.88	2930.64
679.07	3067.86
679.25	2858.96
679.44	2813.91
679.63	2848.72
679.81	2994.13
680.00	3039.19
680.18	2897.88
680.37	3313.61
680.55	2944.98
680.74	2746.33
680.93	2721.75
681.11	3008.47
681.30	2887.64
681.48	2846.68
681.67	2901.97
681.85	2996.18
682.04	2834.39
682.23	2955.22
682.41	2944.98
682.60	2920.40
682.78	2994.13
682.97	2811.86
683.15	2893.78
683.34	3190.74
683.53	3243.98
683.71	2717.65
683.90	2944.98
684.08	3256.27
684.27	3010.51
684.45	2922.45
684.64	3022.80
684.82	2932.69
685.01	3016.66
685.19	2822.10
685.38	3119.06
685.57	3086.29
685.75	2938.84
685.94	2797.53
686.12	2729.94
686.31	2869.20
686.49	3190.74
686.68	2676.70
686.86	2994.13
687.05	3012.56
687.23	3262.41
687.42	2875.35
687.60	2672.60
687.79	3137.49
687.97	3192.78
688.16	2994.13
688.34	3002.32
688.53	2719.70
688.71	3037.14
688.90	3090.38
689.08	2910.16
689.27	2764.76
689.45	3139.54
689.64	2963.41
689.82	2983.89
690.01	3016.66
690.19	3096.53
690.38	2971.60
690.56	2959.31
690.75	2883.54
690.93	2877.40
691.12	2871.25
691.30	2904.02
691.49	2881.49
691.67	3078.10
691.86	3188.69
692.04	2832.34
692.23	2877.40
692.41	2985.94
692.60	3211.22
692.78	3033.04
692.97	2926.55
693.15	3096.53
693.34	3090.38
693.52	3039.19
693.71	2877.40
693.89	2803.67
694.08	2670.55
694.26	2951.12
694.44	3090.38
694.63	3090.38
694.81	2723.80
695.00	2879.44
695.18	3198.93
695.37	3315.66
695.55	2901.97
695.74	2936.79
695.92	2885.59
696.10	3258.32
696.29	2705.37
696.47	2848.72
696.66	2791.38
696.84	2762.71
697.03	2844.63
697.21	3184.59
697.40	4407.23
697.58	3229.65
697.76	2883.54
697.95	2834.39
698.13	2895.83
698.32	2832.34
698.50	2875.35
698.68	2906.07
698.87	3078.10
699.05	3282.89
699.24	2893.78
699.42	2734.04
699.61	3098.58
699.79	2996.18
699.97	2873.30
700.16	2746.33
700.34	2791.38
700.53	3033.04
700.71	3090.38
700.89	2985.94
701.08	2879.44
701.26	2906.07
701.45	3305.42
701.63	2791.38
701.81	2930.64
702.00	2871.25
702.18	2951.12
702.37	2832.34
702.55	3215.31
702.73	3057.62
702.92	2877.40
703.10	3133.39
703.28	3114.96
703.47	2818.00
703.65	3061.71
703.84	2996.18
704.02	2813.91
704.20	3219.41
704.39	2785.24
704.57	2881.49
704.75	3117.01
704.94	3053.52
705.12	2971.60
705.30	3450.83
705.49	6840.22
705.67	12990.27
705.86	18255.59
706.04	20704.96
706.22	22869.67
706.41	22288.04
706.59	17037.05
706.77	13041.46
706.96	11448.15
707.14	10604.38
707.32	9062.26
707.51	7862.15
707.69	6528.92
707.87	5502.89
708.06	4573.11
708.24	4032.45
708.42	3669.96
708.61	3794.89
708.79	2975.70
708.97	2973.65
709.16	3104.72
709.34	2938.84
709.52	2932.69
709.71	2869.20
709.89	3121.10
710.07	2762.71
710.26	2801.62
710.44	2822.10
710.62	3117.01
710.80	3002.32
710.99	2979.79
711.17	3057.62
711.35	2885.59
711.54	2842.58
711.72	3114.96
711.90	2979.79
712.09	3039.19
712.27	2910.16
712.45	2967.51
712.63	2777.05
712.82	3012.56
713.00	2959.31
713.18	2994.13
713.37	3067.86
713.55	3137.49
713.73	3061.71
713.91	2981.84
714.10	2856.92
714.28	2934.74
714.46	2977.75
714.65	3016.66
714.83	2944.98
715.01	2953.17
715.19	2987.99
715.38	2781.14
715.56	2869.20
715.74	2758.61
715.92	2854.87
716.11	3104.72
716.29	2641.88
716.47	2971.60
716.65	2918.36
716.84	2715.61
717.02	2985.94
717.20	2686.94
717.38	2858.96
717.57	2951.12
717.75	2861.01
717.93	2942.93
718.11	3053.52
718.30	2803.67
718.48	2871.25
718.66	3272.65
718.84	3139.54
719.03	2908.12
719.21	2680.79
719.39	3319.76
719.57	3016.66
719.75	3045.33
719.94	2742.23
720.12	2906.07
720.30	2961.36
720.48	2994.13
720.67	2772.95
720.85	2811.86
721.03	2883.54
721.21	2723.80
721.39	3043.28
721.58	3024.85
721.76	3065.81
721.94	2938.84
722.12	3012.56
722.30	3284.94
722.49	2869.20
722.67	2889.68
722.85	2920.40
723.03	2748.37
723.21	2830.29
723.40	2918.36
723.58	3047.38
723.76	3153.87
723.94	3205.07
724.12	2897.88
724.30	3080.14
724.49	3117.01
724.67	2752.47
724.85	3024.85
725.03	2691.03
725.21	3069.91
725.40	3147.73
725.58	2848.72
725.76	3076.05
725.94	3100.62
726.12	2858.96
726.30	2951.12
726.49	2787.29
726.67	2865.11
726.85	3053.52
727.03	3366.86
727.21	4310.97
727.39	5357.49
727.57	6033.32
727.76	6328.22
727.94	6178.72
728.12	5595.05
728.30	4782.01
728.48	4466.62
728.66	4175.81
728.84	3989.44
729.03	3499.98
729.21	3393.48
729.39	3213.26
729.57	3063.76
729.75	3078.10
729.93	2830.29
730.11	2783.19
730.30	2885.59
730.48	2930.64
730.66	3000.27
730.84	3045.33
731.02	3020.75
731.20	2885.59
731.38	2953.17
731.56	2731.99
731.74	2727.89
731.93	3057.62
732.11	2981.84
732.29	2863.06
732.47	3051.47
732.65	3102.67
732.83	3139.54
733.01	2985.94
733.19	2826.20
733.37	3082.19
733.56	2889.68
733.74	2867.16
733.92	3262.41
734.10	2852.82
734.28	3065.81
734.46	2664.41
734.64	2987.99
734.82	2969.55
735.00	2768.85
735.18	2852.82
735.36	2990.03
735.54	2969.55
735.73	2795.48
735.91	2951.12
736.09	3217.36
736.27	3000.27
736.45	2947.03
736.63	2688.98
736.81	2932.69
736.99	3166.16
737.17	3071.95
737.35	2834.39
737.53	3033.04
737.71	2928.60
737.89	3110.86
738.07	2805.72
738.25	2895.83
738.43	2805.72
738.61	2879.44
738.80	2713.56
738.98	2738.13
739.16	2936.79
739.34	2779.09
739.52	3182.54
739.70	2926.55
739.88	3008.47
740.06	3018.71
740.24	2627.54
740.42	3203.02
740.60	2705.37
740.78	2846.68
740.96	2594.78
741.14	2940.88
741.32	2953.17
741.50	2699.22
741.68	3067.86
741.86	3264.46
742.04	2762.71
742.22	2789.33
742.40	2756.57
742.58	3104.72
742.76	2838.48
742.94	3041.23
743.12	2658.26
743.30	3028.95
743.48	3086.29
743.66	2793.43
743.84	2873.30
744.02	2969.55
744.20	2987.99
744.38	2719.70
744.56	2787.29
744.74	3227.60
744.92	3067.86
745.10	3059.67
745.28	2934.74
745.46	3315.66
745.64	2994.13
745.82	3045.33
746.00	2885.59
746.18	3061.71
746.36	2809.81
746.54	2897.88
746.72	2971.60
746.90	2783.19
747.08	3143.63
747.26	2828.24
747.44	3024.85
747.62	3069.91
747.80	3020.75
747.98	2971.60
748.15	2844.63
748.33	3307.47
748.51	2969.55
748.69	2955.22
748.87	2748.37
749.05	2885.59
749.23	2947.03
749.41	2852.82
749.59	2965.46
749.77	3162.06
749.95	3008.47
750.13	2822.10
750.31	3000.27
750.49	2942.93
750.67	3121.10
750.85	3000.27
751.03	2981.84
751.20	3395.53
751.38	3004.37
751.56	2873.30
751.74	2944.98
751.92	2936.79
752.10	2758.61
752.28	3006.42
752.46	2832.34
752.64	2985.94
752.82	3074.00
753.00	2930.64
753.18	2836.44
753.35	2930.64
753.53	2985.94
753.71	2807.77
753.89	2893.78
754.07	3112.91
754.25	3151.82
754.43	2947.03
754.61	2787.29
754.79	3092.43
754.97	2904.02
755.14	3061.71
755.32	2789.33
755.50	3022.80
755.68	3043.28
755.86	2752.47
756.04	2731.99
756.22	2707.41
756.40	3133.39
756.57	3092.43
756.75	2785.24
756.93	3149.78
757.11	3219.41
757.29	2768.85
757.47	2766.81
757.65	2793.43
757.82	2635.74
758.00	2740.18
758.18	2867.16
758.36	2818.00
758.54	3307.47
758.72	2680.79
758.90	3053.52
759.07	2998.23
759.25	2928.60
759.43	2924.50
759.61	2699.22
759.79	4161.47
759.97	3147.73
760.15	2885.59
760.32	2934.74
760.50	3014.61
760.68	3256.27
760.86	2725.85
761.04	3121.10
761.22	3055.57
761.39	3037.14
761.57	2916.31
761.75	2838.48
761.93	3045.33
762.11	2930.64
762.28	2955.22
762.46	2787.29
762.64	3139.54
762.82	2736.09
763.00	2901.97
763.18	3139.54
763.35	2756.57
763.53	3133.39
763.71	2940.88
763.89	2879.44
764.07	2994.13
764.24	2918.36
764.42	2938.84
764.60	2904.02
764.78	3041.23
764.96	3061.71
765.13	2996.18
765.31	2750.42
765.49	3125.20
765.67	2801.62
765.84	2822.10
766.02	2893.78
766.20	2805.72
766.38	2987.99
766.56	2924.50
766.73	3000.27
766.91	2922.45
767.09	2969.55
767.27	2916.31
767.44	2799.57
767.62	3145.68
767.80	3012.56
767.98	2781.14
768.15	2858.96
768.33	3086.29
768.51	3168.21
768.69	3022.80
768.87	2914.26
769.04	2953.17
769.22	3506.12
769.40	3024.85
769.58	3051.47
769.75	2955.22
769.93	3215.31
770.11	2863.06
770.28	2672.60
770.46	3123.15
770.64	3086.29
770.82	2891.73
770.99	2715.61
771.17	3127.25
771.35	2928.60
771.53	2897.88
771.70	2856.92
771.88	3037.14
772.06	3008.47
772.23	2926.55
772.41	2893.78
772.59	2895.83
772.77	2783.19
772.94	2873.30
773.12	3000.27
773.30	2979.79
773.47	2975.70
773.65	2846.68
773.83	3008.47
774.01	2963.41
774.18	2725.85
774.36	2897.88
774.54	2705.37
774.71	3014.61
774.89	2727.89
775.07	2795.48
775.24	2818.00
775.42	2906.07
775.60	3229.65
775.78	2822.10
775.95	2719.70
776.13	2760.66
776.31	2709.46
776.48	2922.45
776.66	3057.62
776.84	2979.79
777.01	2881.49
777.19	2754.52
777.37	2836.44
777.54	3090.38
777.72	3264.46
777.90	2969.55
778.07	2865.11
778.25	3459.02
778.43	3170.26
778.60	2766.81
778.78	2973.65
778.96	3221.45
779.13	2779.09
779.31	2949.08
779.49	2920.40
779.66	2994.13
779.84	2998.23
780.01	2820.05
780.19	2754.52
780.37	3135.44
780.54	3114.96
780.72	2744.28
780.90	2795.48
781.07	2934.74
781.25	2942.93
781.43	3016.66
781.60	2858.96
781.78	3112.91
781.95	3071.95
782.13	2717.65
782.31	2775.00
782.48	2717.65
782.66	3049.43
782.83	3127.25
783.01	2916.31
783.19	3049.43
783.36	2914.26
783.54	2766.81
783.72	2979.79
783.89	2865.11
784.07	3014.61
784.24	3000.27
784.42	3008.47
784.60	3108.82
784.77	2987.99
784.95	2625.50
785.12	2803.67
785.30	3049.43
785.47	2869.20
785.65	2719.70
785.83	2904.02
786.00	2867.16
786.18	2992.08
786.35	2809.81
786.53	2731.99
786.71	3178.45
786.88	3117.01
787.06	2856.92
787.23	2899.92
787.41	2791.38
787.58	2940.88
787.76	2797.53
787.94	2887.64
788.11	3047.38
788.29	2838.48
788.46	2830.29
788.64	2617.30
788.81	2889.68
788.99	2818.00
789.16	2811.86
789.34	2846.68
789.52	2883.54
789.69	2869.20
789.87	2656.22
790.04	2813.91
790.22	2967.51
790.39	3227.60
790.57	2758.61
790.74	2828.24
790.92	3094.48
791.09	2770.90
791.27	2998.23
791.44	2961.36
791.62	2867.16
791.79	3145.68
791.97	2908.12
792.15	3211.22
792.32	3117.01
792.50	3190.74
792.67	3030.99
792.85	3139.54
793.02	3076.05
793.20	2899.92
793.37	2697.17
793.55	2789.33
793.72	2801.62
793.90	3082.19
794.07	2787.29
794.25	2779.09
794.42	3028.95
794.60	2906.07
794.77	2914.26
794.95	2934.74
795.12	3141.58
795.30	2912.21
795.47	2652.12
795.65	3164.11
795.82	3002.32
796.00	2893.78
796.17	2893.78
796.34	2711.51
796.52	2942.93
796.69	3194.83
796.87	2996.18
797.04	2992.08
797.22	3149.78
797.39	3053.52
797.57	3067.86
797.74	2848.72
797.92	3065.81
798.09	2912.21
798.27	3063.76
798.44	2791.38
798.62	2916.31
798.79	3010.51
798.96	2994.13
799.14	2856.92
799.31	3504.07
799.49	2965.46
799.66	2811.86
799.84	2901.97
800.01	2697.17
800.19	3041.23
800.36	2654.17
800.53	2904.02
800.71	3055.57
800.88	3321.81
801.06	2756.57
801.23	2803.67
801.41	2865.11
801.58	2867.16
801.75	2838.48
801.93	2861.01
802.10	3131.34
802.28	2928.60
802.45	2850.77
802.63	2961.36
802.80	3125.20
802.97	2906.07
803.15	2906.07
803.32	2924.50
803.50	2863.06
803.67	2844.63
803.84	2781.14
804.02	2904.02
804.19	2924.50
804.37	2627.54
804.54	2709.46
804.71	2768.85
804.89	2955.22
805.06	2760.66
805.24	2744.28
805.41	2779.09
805.58	2877.40
805.76	3502.03
805.93	2811.86
806.10	3006.42
806.28	3065.81
806.45	3014.61
806.63	2928.60
806.80	2912.21
806.97	3092.43
807.15	2987.99
807.32	2916.31
807.49	2865.11
807.67	2787.29
807.84	3016.66
808.01	2635.74
808.19	3016.66
808.36	3366.86
808.54	2920.40
808.71	2807.77
808.88	2787.29
809.06	3147.73
809.23	3186.64
809.40	2754.52
809.58	2924.50
809.75	2951.12
809.92	2789.33
810.10	3133.39
810.27	2838.48
810.44	3004.37
810.62	3125.20
810.79	2955.22
810.96	2805.72
811.14	2895.83
811.31	2994.13
811.48	3067.86
811.66	2932.69
811.83	3256.27
812.00	3090.38
812.18	2953.17
812.35	3164.11
812.52	2883.54
812.69	2885.59
812.87	2820.05
813.04	2805.72
813.21	3018.71
813.39	2918.36
813.56	2725.85
813.73	3084.24
813.91	2742.23
814.08	2947.03
814.25	2891.73
814.42	2674.65
814.60	2869.20
814.77	2959.31
814.94	2785.24
815.12	3002.32
815.29	3233.74
815.46	2885.59
815.63	2856.92
815.81	2834.39
815.98	2914.26
816.15	2963.41
816.33	2910.16
816.50	2863.06
816.67	3006.42
816.84	2963.41
817.02	2744.28
817.19	2873.30
817.36	3114.96
817.53	3026.90
817.71	2854.87
817.88	2975.70
818.05	2959.31
818.22	2920.40
818.40	3102.67
818.57	2758.61
818.74	2983.89
818.91	2949.08
819.09	2996.18
819.26	2977.75
819.43	2889.68
819.60	2838.48
819.78	2953.17
819.95	2996.18
820.12	2842.58
820.29	3299.28
820.47	3094.48
820.64	2811.86
820.81	2756.57
820.98	2801.62
821.15	2852.82
821.33	3020.75
821.50	2711.51
821.67	3190.74
821.84	2842.58
822.02	2854.87
822.19	3024.85
822.36	2889.68
822.53	2815.96
822.70	2701.27
822.88	2912.21
823.05	3250.13
823.22	2875.35
823.39	2930.64
823.56	2940.88
823.74	3190.74
823.91	2744.28
824.08	2756.57
824.25	2815.96
824.42	3250.13
824.60	2738.13
824.77	2899.92
824.94	2971.60
825.11	3041.23
825.28	2672.60
825.45	2920.40
825.63	2959.31
825.80	2809.81
825.97	2961.36
826.14	2916.31
826.31	2744.28
826.48	3112.91
826.66	2760.66
826.83	2803.67
827.00	2863.06
827.17	2826.20
827.34	2834.39
827.51	2805.72
827.69	2918.36
827.86	2719.70
828.03	2863.06
828.20	2881.49
828.37	2815.96
828.54	3100.62
828.71	2764.76
828.89	3067.86
829.06	3020.75
829.23	3276.75
829.40	2809.81
829.57	2820.05
829.74	3123.15
829.91	2867.16
830.09	2775.00
830.26	2953.17
830.43	3338.19
830.60	2951.12
830.77	2942.93
830.94	3010.51
831.11	3114.96
831.28	2848.72
831.46	3008.47
831.63	2779.09
831.80	3080.14
831.97	2840.53
832.14	2881.49
832.31	2906.07
832.48	3002.32
832.65	3137.49
832.82	2912.21
832.99	2897.88
833.17	2830.29
833.34	3237.84
833.51	2850.77
833.68	2629.59
833.85	3119.06
834.02	2854.87
834.19	2805.72
834.36	2875.35
834.53	3022.80
834.70	3092.43
834.87	2934.74
835.04	2695.13
835.22	2846.68
835.39	2873.30
835.56	2596.82
835.73	2678.74
835.90	3102.67
836.07	2791.38
836.24	2910.16
836.41	2713.56
836.58	2813.91
836.75	3104.72
836.92	2758.61
837.09	2775.00
837.26	3076.05
837.43	2932.69
837.60	2738.13
837.77	2758.61
837.94	3065.81
838.12	3172.30
838.29	2670.55
838.46	2652.12
838.63	2770.90
838.80	3248.08
838.97	2828.24
839.14	2701.27
839.31	2994.13
839.48	3082.19
839.65	2715.61
839.82	2844.63
839.99	3000.27
840.16	3020.75
840.33	2764.76
840.50	2807.77
840.67	2852.82
840.84	2535.39
841.01	2695.13
841.18	2633.69
841.35	2930.64
841.52	3035.09
841.69	3067.86
841.86	2785.24
842.03	2953.17
842.20	3078.10
842.37	2789.33
842.54	2836.44
842.71	2975.70
842.88	2815.96
843.05	2738.13
843.22	2785.24
843.39	3067.86
843.56	2879.44
843.73	2713.56
843.90	2764.76
844.07	2990.03
844.24	3086.29
844.41	2850.77
844.58	2748.37
844.75	2983.89
844.92	2994.13
845.09	2787.29
845.26	2752.47
845.43	3094.48
845.60	2926.55
845.77	2871.25
845.94	2832.34
846.10	3078.10
846.27	2695.13
846.44	2639.83
846.61	2678.74
846.78	3045.33
846.95	3117.01
847.12	2654.17
847.29	2731.99
847.46	2895.83
847.63	3080.14
847.80	2605.02
847.97	2731.99
848.14	3381.20
848.31	3035.09
848.48	2664.41
848.65	2738.13
848.82	2836.44
848.98	3381.20
849.15	2854.87
849.32	2768.85
849.49	3102.67
849.66	2899.92
849.83	2723.80
850.00	2627.54
850.17	3205.07
850.34	2912.21
850.51	2731.99
850.68	2764.76
850.85	3418.06
851.01	3026.90
851.18	2701.27
851.35	2752.47
851.52	3026.90
851.69	3209.17
851.86	2672.60
852.03	2731.99
852.20	3065.81
852.37	2885.59
852.53	2562.01
852.70	2693.08
852.87	3090.38
853.04	3112.91
853.21	2719.70
853.38	3018.71
853.55	3246.03
853.72	3168.21
853.89	2619.35
854.05	2660.31
854.22	2840.53
854.39	3012.56
854.56	2740.18
854.73	2889.68
854.90	2760.66
855.07	2959.31
855.23	2658.26
855.40	2701.27
855.57	2883.54
855.74	2652.12
855.91	2942.93
856.08	2611.16
856.25	2750.42
856.41	2863.06
856.58	2772.95
856.75	2766.81
856.92	2760.66
857.09	3102.67
857.26	2578.39
857.42	2723.80
857.59	3125.20
857.76	2926.55
857.93	2740.18
858.10	2842.58
858.27	2762.71
858.43	2998.23
858.60	2742.23
858.77	2615.26
858.94	2889.68
859.11	3200.98
859.27	2791.38
859.44	2779.09
859.61	3299.28
859.78	3166.16
859.95	2744.28
860.12	2682.84
860.28	3428.30
860.45	3348.43
860.62	2756.57
860.79	2908.12
860.95	2926.55
861.12	2869.20
861.29	2643.93
861.46	2623.45
861.63	2994.13
861.79	2983.89
861.96	2625.50
862.13	2740.18
862.30	3266.51
862.47	2850.77
862.63	2697.17
862.80	2877.40
862.97	3127.25
863.14	3000.27
863.30	2811.86
863.47	2738.13
863.64	3227.60
863.81	2998.23
863.97	2594.78
864.14	2734.04
864.31	2906.07
864.48	3051.47
864.65	2744.28
864.81	2826.20
864.98	3063.76
865.15	3160.02
865.32	2754.52
865.48	2852.82
865.65	3258.32
865.82	2981.84
865.98	2856.92
866.15	2828.24
866.32	2879.44
866.49	2936.79
866.65	2877.40
866.82	2641.88
866.99	2940.88
867.16	2863.06
867.32	2715.61
867.49	2652.12
867.66	2879.44
867.83	2889.68
867.99	2666.46
868.16	2738.13
868.33	2738.13
868.49	2985.94
868.66	2818.00
868.83	2852.82
868.99	2996.18
869.16	2953.17
869.33	2908.12
869.50	2766.81
869.66	2961.36
869.83	3024.85
870.00	2680.79
870.16	2924.50
870.33	2951.12
870.50	3108.82
870.66	2752.47
870.83	2772.95
871.00	2871.25
871.17	2990.03
871.33	2742.23
871.50	2736.09
871.67	2981.84
871.83	2854.87
872.00	2854.87
872.17	2768.85
872.33	3301.33
872.50	3051.47
872.67	2764.76
872.83	2729.94
873.00	3049.43
873.17	2901.97
873.33	2865.11
873.50	2828.24
873.67	2877.40
873.83	2854.87
874.00	2832.34
874.16	2895.83
874.33	2965.46
874.50	2795.48
874.66	2680.79
874.83	2805.72
875.00	3129.30
875.16	3071.95
875.33	2811.86
875.50	2494.43
875.66	2856.92
875.83	2961.36
875.99	2772.95
876.16	2877.40
876.33	2754.52
876.49	2969.55
876.66	2818.00
876.83	2785.24
876.99	2684.89
877.16	2875.35
877.32	2676.70
877.49	2822.10
877.66	2983.89
877.82	3207.12
877.99	2838.48
878.15	2979.79
878.32	3012.56
878.49	2969.55
878.65	2842.58
878.82	2973.65
878.98	2779.09
879.15	3149.78
879.32	2959.31
879.48	2858.96
879.65	2947.03
879.81	2912.21
879.98	2652.12
880.15	2697.17
880.31	3061.71
880.48	2850.77
880.64	2818.00
880.81	2865.11
880.97	3231.69
881.14	3184.59
881.31	2701.27
881.47	2965.46
881.64	2922.45
881.80	2652.12
881.97	2893.78
882.13	2707.41
882.30	2811.86
882.47	2920.40
882.63	2678.74
882.80	2772.95
882.96	2852.82
883.13	3131.34
883.29	2748.37
883.46	2727.89
883.62	3305.42
883.79	2926.55
883.95	2901.97
884.12	2674.65
884.29	3137.49
884.45	2965.46
884.62	2744.28
884.78	2756.57
884.95	3229.65
885.11	2807.77
885.28	2772.95
885.44	2805.72
885.61	3186.64
885.77	3178.45
885.94	2879.44
886.10	2781.14
886.27	2934.74
886.43	3327.95
886.60	2873.30
886.76	2731.99
886.93	2867.16
887.09	3010.51
887.26	2637.78
887.42	2725.85
887.59	3211.22
887.75	3344.33
887.92	2938.84
888.08	2850.77
888.25	3272.65
888.41	3078.10
888.58	2830.29
888.74	2658.26
888.91	2858.96
>>>>>End Processed Spectral Data<<<<<
