SpectraSuite Data File
++++++++++++++++++++++++++++++++++++
Date: Thu May 05 21:11:28 CEST 2016
User: root
Dark Spectrum Present: No
Reference Spectrum Present: No
Number of Sampled Component Spectra: 1
Spectrometers: USB4C02835
Integration Time (usec): 100000 (USB4C02835)
Spectra Averaged: 1 (USB4C02835)
Boxcar Smoothing: 0 (USB4C02835)
Correct for Electrical Dark: No (USB4C02835)
Strobe/Lamp Enabled: No (USB4C02835)
Correct for Detector Non-linearity: No (USB4C02835)
Correct for Stray Light: No (USB4C02835)
Number of Pixels in Processed Spectrum: 3648
>>>>>Begin Processed Spectral Data<<<<<
177.47	2123.74
177.69	2123.74
177.91	2123.74
178.13	2140.13
178.36	2193.37
178.58	2750.42
178.80	2910.16
179.02	2752.47
179.24	2836.44
179.46	2602.97
179.68	2680.79
179.90	2891.73
180.13	2981.84
180.35	2551.77
180.57	2584.54
180.79	3055.57
181.01	2957.27
181.23	2680.79
181.45	2844.63
181.67	3160.02
181.90	3102.67
182.12	2711.51
182.34	2506.71
182.56	3117.01
182.78	3059.67
183.00	2623.45
183.22	2709.46
183.44	2723.80
183.66	3518.41
183.89	2813.91
184.11	2686.94
184.33	3053.52
184.55	3147.73
184.77	2672.60
184.99	2686.94
185.21	2895.83
185.43	3426.25
185.65	2707.41
185.87	2627.54
186.10	3395.53
186.32	3407.82
186.54	2779.09
186.76	2764.76
186.98	3160.02
187.20	2922.45
187.42	2695.13
187.64	2684.89
187.86	3000.27
188.08	3200.98
188.30	2648.02
188.52	2789.33
188.75	3196.88
188.97	3237.84
189.19	2678.74
189.41	2691.03
189.63	3037.14
189.85	3008.47
190.07	2537.43
190.29	2535.39
190.51	3086.29
190.73	2832.34
190.95	2834.39
191.17	2711.51
191.39	2754.52
191.61	3004.37
191.84	2672.60
192.06	2762.71
192.28	2699.22
192.50	3557.32
192.72	2815.96
192.94	2707.41
193.16	3229.65
193.38	3086.29
193.60	2619.35
193.82	2799.57
194.04	3125.20
194.26	3059.67
194.48	2652.12
194.70	2625.50
194.92	2938.84
195.14	3110.86
195.36	2635.74
195.58	2717.65
195.80	2879.44
196.02	2865.11
196.24	2688.98
196.46	2758.61
196.69	2832.34
196.91	3274.70
197.13	2795.48
197.35	2643.93
197.57	3246.03
197.79	3125.20
198.01	2750.42
198.23	2709.46
198.45	3100.62
198.67	2797.53
198.89	2570.20
199.11	2766.81
199.33	2881.49
199.55	2615.26
199.77	2652.12
199.99	2811.86
200.21	2885.59
200.43	3024.85
200.65	2525.15
200.87	2529.24
201.09	2963.41
201.31	2965.46
201.53	2660.31
201.75	2742.23
201.97	3002.32
202.19	3039.19
202.41	2731.99
202.63	2889.68
202.85	3121.10
203.07	3102.67
203.29	2775.00
203.51	2658.26
203.73	2889.68
203.95	3403.72
204.17	2660.31
204.39	2865.11
204.61	2977.75
204.83	2965.46
205.05	2881.49
205.27	2723.80
205.49	3276.75
205.71	2996.18
205.93	2514.91
206.15	2621.40
206.37	3026.90
206.59	2981.84
206.81	2525.15
207.03	2594.78
207.25	2815.96
207.47	3114.96
207.69	2666.46
207.91	2967.51
208.13	3315.66
208.34	2865.11
208.56	2631.64
208.78	2815.96
209.00	2957.27
209.22	2889.68
209.44	2729.94
209.66	2680.79
209.88	3028.95
210.10	2979.79
210.32	2621.40
210.54	2852.82
210.76	2912.21
210.98	3117.01
211.20	2484.19
211.42	2895.83
211.64	3270.61
211.86	3094.48
212.08	2719.70
212.30	2670.55
212.52	2934.74
212.74	3108.82
212.96	2734.04
213.17	2777.05
213.39	3221.45
213.61	3221.45
213.83	2627.54
214.05	2582.49
214.27	3219.41
214.49	2738.13
214.71	2623.45
214.93	2775.00
215.15	3045.33
215.37	3227.60
215.59	2512.86
215.81	2746.33
216.03	3315.66
216.24	3008.47
216.46	2680.79
216.68	2705.37
216.90	3180.50
217.12	3135.44
217.34	2658.26
217.56	2944.98
217.78	3233.74
218.00	3155.92
218.22	2760.66
218.44	2797.53
218.66	3061.71
218.87	3411.92
219.09	2688.98
219.31	2742.23
219.53	3012.56
219.75	2852.82
219.97	2731.99
220.19	2705.37
220.41	2930.64
220.63	3303.37
220.85	2719.70
221.06	2678.74
221.28	3145.68
221.50	3155.92
221.72	2621.40
221.94	2631.64
222.16	3094.48
222.38	3211.22
222.60	2670.55
222.82	2811.86
223.03	3114.96
223.25	2740.18
223.47	2619.35
223.69	2979.79
223.91	3151.82
224.13	3047.38
224.35	2574.30
224.57	2936.79
224.78	3153.87
225.00	2848.72
225.22	2768.85
225.44	2611.16
225.66	3133.39
225.88	2799.57
226.10	2820.05
226.32	2715.61
226.53	3297.23
226.75	2850.77
226.97	2764.76
227.19	2660.31
227.41	2850.77
227.63	2863.06
227.85	2574.30
228.06	2699.22
228.28	3045.33
228.50	3129.30
228.72	2549.72
228.94	2625.50
229.16	2680.79
229.37	2723.80
229.59	2498.52
229.81	2901.97
230.03	3022.80
230.25	2768.85
230.47	2531.29
230.69	2731.99
230.90	3219.41
231.12	2850.77
231.34	2764.76
231.56	2822.10
231.78	2781.14
232.00	3012.56
232.21	2740.18
232.43	2729.94
232.65	2629.59
232.87	3041.23
233.09	2512.86
233.30	2584.54
233.52	3198.93
233.74	2881.49
233.96	2678.74
234.18	2861.01
234.40	2924.50
234.61	3356.62
234.83	2600.92
235.05	2609.11
235.27	3444.68
235.49	3184.59
235.70	2588.63
235.92	2766.81
236.14	3022.80
236.36	3368.91
236.58	2584.54
236.79	2772.95
237.01	2906.07
237.23	2992.08
237.45	2867.16
237.67	2568.15
237.88	3035.09
238.10	3354.57
238.32	2664.41
238.54	2627.54
238.76	3041.23
238.97	2906.07
239.19	2594.78
239.41	2742.23
239.63	3149.78
239.85	2916.31
240.06	2709.46
240.28	2639.83
240.50	3168.21
240.72	2969.55
240.93	2623.45
241.15	2820.05
241.37	3047.38
241.59	3229.65
241.81	2740.18
242.02	2703.32
242.24	2983.89
242.46	3137.49
242.68	2545.63
242.89	2516.95
243.11	3147.73
243.33	2981.84
243.55	2727.89
243.76	2705.37
243.98	2850.77
244.20	2942.93
244.42	2688.98
244.64	2701.27
244.85	2815.96
245.07	2799.57
245.29	2697.17
245.51	2709.46
245.72	3074.00
245.94	3133.39
246.16	2672.60
246.38	2775.00
246.59	2906.07
246.81	2889.68
247.03	2578.39
247.24	2547.67
247.46	2910.16
247.68	2959.31
247.90	2635.74
248.11	2715.61
248.33	3041.23
248.55	2850.77
248.77	2674.65
248.98	2854.87
249.20	3291.09
249.42	3090.38
249.64	2641.88
249.85	2686.94
250.07	2842.58
250.29	3164.11
250.50	2748.37
250.72	2492.38
250.94	3014.61
251.16	3350.48
251.37	2600.92
251.59	2756.57
251.81	2975.70
252.02	3209.17
252.24	2598.87
252.46	2779.09
252.68	2883.54
252.89	2861.01
253.11	2549.72
253.33	2818.00
253.54	3194.83
253.76	2799.57
253.98	2686.94
254.20	2707.41
254.41	2783.19
254.63	2949.08
254.85	2451.42
255.06	2770.90
255.28	3086.29
255.50	2947.03
255.71	2660.31
255.93	2557.91
256.15	2983.89
256.36	3014.61
256.58	2543.58
256.80	2641.88
257.02	2992.08
257.23	2879.44
257.45	2709.46
257.67	2744.28
257.88	2920.40
258.10	3012.56
258.32	2723.80
258.53	2711.51
258.75	3270.61
258.97	2891.73
259.18	2557.91
259.40	2648.02
259.62	3233.74
259.83	3239.89
260.05	2742.23
260.27	3454.92
260.48	3157.97
260.70	2768.85
260.92	2598.87
261.13	2746.33
261.35	2994.13
261.57	3061.71
261.78	2557.91
262.00	2625.50
262.22	3176.40
262.43	2914.26
262.65	2729.94
262.86	2684.89
263.08	3428.30
263.30	3016.66
263.51	2598.87
263.73	2592.73
263.95	3211.22
264.16	2846.68
264.38	2617.30
264.60	2535.39
264.81	2967.51
265.03	3184.59
265.25	3018.71
265.46	2664.41
265.68	3151.82
265.89	3110.86
266.11	2590.68
266.33	2658.26
266.54	3207.12
266.76	3086.29
266.98	2793.43
267.19	2871.25
267.41	3237.84
267.62	3024.85
267.84	2551.77
268.06	2805.72
268.27	2992.08
268.49	3117.01
268.70	2711.51
268.92	2688.98
269.14	2762.71
269.35	2738.13
269.57	2719.70
269.79	2721.75
270.00	2904.02
270.22	3262.41
270.43	2473.95
270.65	2574.30
270.87	2887.64
271.08	3082.19
271.30	2756.57
271.51	2740.18
271.73	3059.67
271.95	3223.50
272.16	2643.93
272.38	2840.53
272.59	2893.78
272.81	2967.51
273.02	2600.92
273.24	2742.23
273.46	3096.53
273.67	2707.41
273.89	2478.04
274.10	2707.41
274.32	3174.35
274.54	3051.47
274.75	2736.09
274.97	2777.05
275.18	3123.15
275.40	2996.18
275.61	2750.42
275.83	2936.79
276.05	2830.29
276.26	2957.27
276.48	2779.09
276.69	2805.72
276.91	2891.73
277.12	3178.45
277.34	2877.40
277.55	2881.49
277.77	3012.56
277.99	2924.50
278.20	2764.76
278.42	2703.32
278.63	2781.14
278.85	2852.82
279.06	2717.65
279.28	2891.73
279.49	3229.65
279.71	3145.68
279.93	2863.06
280.14	2912.21
280.36	2883.54
280.57	3145.68
280.79	2885.59
281.00	2656.22
281.22	2852.82
281.43	3166.16
281.65	2508.76
281.86	2762.71
282.08	3020.75
282.29	3272.65
282.51	2652.12
282.73	2717.65
282.94	2674.65
283.16	3145.68
283.37	2883.54
283.59	2807.77
283.80	2967.51
284.02	2975.70
284.23	2848.72
284.45	2727.89
284.66	2766.81
284.88	2912.21
285.09	2762.71
285.31	2904.02
285.52	3061.71
285.74	2811.86
285.95	2936.79
286.17	2787.29
286.38	3172.30
286.60	2891.73
286.81	2762.71
287.03	2764.76
287.24	2951.12
287.46	3012.56
287.67	2947.03
287.89	3024.85
288.10	2942.93
288.32	2969.55
288.53	2932.69
288.75	2834.39
288.96	3125.20
289.18	2885.59
289.39	2670.55
289.61	2897.88
289.82	3280.85
290.04	3358.67
290.25	2725.85
290.47	2873.30
290.68	2918.36
290.90	3106.77
291.11	2537.43
291.33	2916.31
291.54	2893.78
291.76	2828.24
291.97	2938.84
292.18	2811.86
292.40	2951.12
292.61	2924.50
292.83	3084.24
293.04	2934.74
293.26	3063.76
293.47	2969.55
293.69	2705.37
293.90	2760.66
294.12	3196.88
294.33	3002.32
294.55	2811.86
294.76	2934.74
294.97	3252.17
295.19	3438.54
295.40	2801.62
295.62	2865.11
295.83	3133.39
296.05	2830.29
296.26	2985.94
296.48	2742.23
296.69	2934.74
296.90	2981.84
297.12	2938.84
297.33	2875.35
297.55	2987.99
297.76	3000.27
297.98	2840.53
298.19	2871.25
298.41	2947.03
298.62	2836.44
298.83	2934.74
299.05	2889.68
299.26	2914.26
299.48	2854.87
299.69	2895.83
299.90	2746.33
300.12	2885.59
300.33	3196.88
300.55	2861.01
300.76	2928.60
300.98	2795.48
301.19	3104.72
301.40	2721.75
301.62	2762.71
301.83	3092.43
302.05	3059.67
302.26	2758.61
302.47	2822.10
302.69	2811.86
302.90	3059.67
303.12	2684.89
303.33	2971.60
303.54	3342.28
303.76	2867.16
303.97	2752.47
304.19	2981.84
304.40	2770.90
304.61	3174.35
304.83	2897.88
305.04	2834.39
305.26	3112.91
305.47	2893.78
305.68	2709.46
305.90	2613.21
306.11	3215.31
306.33	2885.59
306.54	2709.46
306.75	2719.70
306.97	2787.29
307.18	2842.58
307.39	2770.90
307.61	2844.63
307.82	2918.36
308.04	3090.38
308.25	2654.17
308.46	2938.84
308.68	3020.75
308.89	2850.77
309.10	2971.60
309.32	2867.16
309.53	2977.75
309.74	3080.14
309.96	2725.85
310.17	2858.96
310.39	2899.92
310.60	3020.75
310.81	2818.00
311.03	2678.74
311.24	3053.52
311.45	2861.01
311.67	3053.52
311.88	2805.72
312.09	2897.88
312.31	2869.20
312.52	2756.57
312.73	2785.24
312.95	2766.81
313.16	2840.53
313.37	2965.46
313.59	2897.88
313.80	3164.11
314.01	3305.42
314.23	2807.77
314.44	2752.47
314.65	2797.53
314.87	2887.64
315.08	2721.75
315.29	2828.24
315.51	2820.05
315.72	2738.13
315.93	2885.59
316.15	2893.78
316.36	3020.75
316.57	3016.66
316.79	2830.29
317.00	2750.42
317.21	3088.34
317.43	2914.26
317.64	2844.63
317.85	2754.52
318.07	2852.82
318.28	2916.31
318.49	2936.79
318.70	3018.71
318.92	2998.23
319.13	3069.91
319.34	3006.42
319.56	2762.71
319.77	3028.95
319.98	3119.06
320.20	3030.99
320.41	2912.21
320.62	3121.10
320.83	2854.87
321.05	3014.61
321.26	2842.58
321.47	2942.93
321.69	3221.45
321.90	2777.05
322.11	2775.00
322.32	3049.43
322.54	3340.24
322.75	2852.82
322.96	3493.83
323.18	2807.77
323.39	2725.85
323.60	2768.85
323.81	2949.08
324.03	2856.92
324.24	2969.55
324.45	2889.68
324.66	2756.57
324.88	3139.54
325.09	3147.73
325.30	2797.53
325.52	2811.86
325.73	3047.38
325.94	2789.33
326.15	2660.31
326.37	2676.70
326.58	3074.00
326.79	3246.03
327.00	2822.10
327.22	2729.94
327.43	3016.66
327.64	2865.11
327.85	2959.31
328.07	2828.24
328.28	3342.28
328.49	2930.64
328.70	2856.92
328.92	2764.76
329.13	2916.31
329.34	3074.00
329.55	3139.54
329.76	2928.60
329.98	2852.82
330.19	3174.35
330.40	2969.55
330.61	2865.11
330.83	3098.58
331.04	2820.05
331.25	2942.93
331.46	2772.95
331.68	2742.23
331.89	3151.82
332.10	2844.63
332.31	2697.17
332.52	2975.70
332.74	3160.02
332.95	2613.21
333.16	2797.53
333.37	3076.05
333.58	2891.73
333.80	2901.97
334.01	2629.59
334.22	2883.54
334.43	2877.40
334.64	2721.75
334.86	2752.47
335.07	2891.73
335.28	3301.33
335.49	2723.80
335.70	2895.83
335.92	3133.39
336.13	3401.68
336.34	2858.96
336.55	2871.25
336.76	3096.53
336.98	2629.59
337.19	2844.63
337.40	2928.60
337.61	3434.44
337.82	2959.31
338.04	2820.05
338.25	2648.02
338.46	2949.08
338.67	2973.65
338.88	2691.03
339.09	2654.17
339.31	2766.81
339.52	2865.11
339.73	2715.61
339.94	2744.28
340.15	3057.62
340.36	2861.01
340.58	2854.87
340.79	2699.22
341.00	3147.73
341.21	2813.91
341.42	2971.60
341.63	2783.19
341.85	3190.74
342.06	2994.13
342.27	2750.42
342.48	2975.70
342.69	2801.62
342.90	3082.19
343.12	3102.67
343.33	2748.37
343.54	3231.69
343.75	3231.69
343.96	2840.53
344.17	2746.33
344.38	2914.26
344.60	2820.05
344.81	2727.89
345.02	2822.10
345.23	3268.56
345.44	3499.98
345.65	2783.19
345.86	2877.40
346.07	3016.66
346.29	2793.43
346.50	2904.02
346.71	2871.25
346.92	3256.27
347.13	3416.01
347.34	2889.68
347.55	2729.94
347.76	2951.12
347.98	2686.94
348.19	2805.72
348.40	2994.13
348.61	2856.92
348.82	3252.17
349.03	2879.44
349.24	2717.65
349.45	3358.67
349.66	2691.03
349.88	2852.82
350.09	2734.04
350.30	3227.60
350.51	3174.35
350.72	2928.60
350.93	2805.72
351.14	2957.27
351.35	3004.37
351.56	2858.96
351.77	2838.48
351.99	3069.91
352.20	3327.95
352.41	2928.60
352.62	2570.20
352.83	2977.75
353.04	2985.94
353.25	2756.57
353.46	2942.93
353.67	3129.30
353.88	2709.46
354.09	2721.75
354.30	2795.48
354.52	3149.78
354.73	3030.99
354.94	2842.58
355.15	2809.81
355.36	3243.98
355.57	2912.21
355.78	2736.09
355.99	2764.76
356.20	2922.45
356.41	3198.93
356.62	2916.31
356.83	2822.10
357.04	3157.97
357.25	2701.27
357.46	2793.43
357.68	2680.79
357.89	2881.49
358.10	3024.85
358.31	2869.20
358.52	2844.63
358.73	2785.24
358.94	2828.24
359.15	2795.48
359.36	2848.72
359.57	3080.14
359.78	2910.16
359.99	3024.85
360.20	2611.16
360.41	2994.13
360.62	3063.76
360.83	2951.12
361.04	2832.34
361.25	3162.06
361.46	3211.22
361.67	2879.44
361.88	2803.67
362.09	3170.26
362.30	3049.43
362.51	2748.37
362.72	2832.34
362.93	3147.73
363.14	3127.25
363.35	2973.65
363.56	2668.50
363.78	3131.34
363.99	3133.39
364.20	2725.85
364.41	2861.01
364.62	3262.41
364.83	2990.03
365.04	2838.48
365.25	2883.54
365.46	3270.61
365.67	2906.07
365.88	2871.25
366.09	2744.28
366.30	2906.07
366.51	2914.26
366.72	2734.04
366.93	2770.90
367.14	3074.00
367.35	3252.17
367.56	2748.37
367.77	2930.64
367.98	2934.74
368.18	3014.61
368.39	2924.50
368.60	2705.37
368.81	3123.15
369.02	3000.27
369.23	2795.48
369.44	2648.02
369.65	2901.97
369.86	3049.43
370.07	2936.79
370.28	2781.14
370.49	3049.43
370.70	3051.47
370.91	2725.85
371.12	2635.74
371.33	3252.17
371.54	2910.16
371.75	2875.35
371.96	2562.01
372.17	2938.84
372.38	2967.51
372.59	2822.10
372.80	2781.14
373.01	2938.84
373.22	2975.70
373.43	2791.38
373.64	2672.60
373.85	3176.40
374.06	3270.61
374.26	2990.03
374.47	2846.68
374.68	3270.61
374.89	3096.53
375.10	2781.14
375.31	2928.60
375.52	3041.23
375.73	3030.99
375.94	2676.70
376.15	2934.74
376.36	2818.00
376.57	2891.73
376.78	2811.86
376.99	2895.83
377.20	3182.54
377.40	3010.51
377.61	3096.53
377.82	2775.00
378.03	3248.08
378.24	3041.23
378.45	2863.06
378.66	2875.35
378.87	2678.74
379.08	2693.08
379.29	2832.34
379.50	2965.46
379.71	2969.55
379.91	3055.57
380.12	2840.53
380.33	2877.40
380.54	3043.28
380.75	3014.61
380.96	2777.05
381.17	2824.15
381.38	2940.88
381.59	3125.20
381.80	2820.05
382.00	3008.47
382.21	2992.08
382.42	3364.81
382.63	3178.45
382.84	2836.44
383.05	3106.77
383.26	3162.06
383.47	2854.87
383.68	2779.09
383.88	3098.58
384.09	2965.46
384.30	3012.56
384.51	2926.55
384.72	2863.06
384.93	2848.72
385.14	2906.07
385.35	3082.19
385.55	2785.24
385.76	3200.98
385.97	2830.29
386.18	2723.80
386.39	2873.30
386.60	2883.54
386.81	2750.42
387.02	2727.89
387.22	2777.05
387.43	2987.99
387.64	2918.36
387.85	3086.29
388.06	2979.79
388.27	4108.23
388.48	7401.36
388.68	10678.11
388.89	13334.32
389.10	14640.93
389.31	14280.49
389.52	11312.98
389.73	9656.17
389.93	9070.45
390.14	8210.31
390.35	7251.86
390.56	6727.58
390.77	5574.57
390.98	4302.78
391.18	3723.21
391.39	3405.77
391.60	2996.18
391.81	3071.95
392.02	2920.40
392.23	3397.58
392.43	3026.90
392.64	2947.03
392.85	2842.58
393.06	3225.55
393.27	2985.94
393.47	2785.24
393.68	2906.07
393.89	2924.50
394.10	3174.35
394.31	2799.57
394.52	2672.60
394.72	2910.16
394.93	3280.85
395.14	2691.03
395.35	2922.45
395.56	2899.92
395.76	2959.31
395.97	2822.10
396.18	2846.68
396.39	2975.70
396.60	3536.84
396.80	3123.15
397.01	2953.17
397.22	3047.38
397.43	3123.15
397.64	2750.42
397.84	2940.88
398.05	3219.41
398.26	3106.77
398.47	2881.49
398.67	2994.13
398.88	3051.47
399.09	3147.73
399.30	2824.15
399.51	2834.39
399.71	2844.63
399.92	2959.31
400.13	2881.49
400.34	2791.38
400.54	2967.51
400.75	3278.80
400.96	3041.23
401.17	3092.43
401.37	3057.62
401.58	2928.60
401.79	2744.28
402.00	2951.12
402.21	3405.77
402.41	3125.20
402.62	3143.63
402.83	3205.07
403.04	3282.89
403.24	3645.38
403.45	2971.60
403.66	3157.97
403.87	3153.87
404.07	3225.55
404.28	3098.58
404.49	3041.23
404.70	3076.05
404.90	3051.47
405.11	2922.45
405.32	3004.37
405.52	2881.49
405.73	2883.54
405.94	2682.84
406.15	2891.73
406.35	3141.58
406.56	3131.34
406.77	2924.50
406.98	2838.48
407.18	2840.53
407.39	3327.95
407.60	2883.54
407.80	2803.67
408.01	2885.59
408.22	3063.76
408.43	2717.65
408.63	2969.55
408.84	3039.19
409.05	3157.97
409.25	2838.48
409.46	2793.43
409.67	2910.16
409.88	2901.97
410.08	2842.58
410.29	2797.53
410.50	3131.34
410.70	3035.09
410.91	2801.62
411.12	2897.88
411.32	2990.03
411.53	2912.21
411.74	2924.50
411.95	2922.45
412.15	3016.66
412.36	3080.14
412.57	3014.61
412.77	2992.08
412.98	2979.79
413.19	2910.16
413.39	2940.88
413.60	2971.60
413.81	3168.21
414.01	2754.52
414.22	2959.31
414.43	3037.14
414.63	2889.68
414.84	3119.06
415.05	2811.86
415.25	2731.99
415.46	3078.10
415.67	2861.01
415.87	2916.31
416.08	2846.68
416.29	2828.24
416.49	3110.86
416.70	2793.43
416.91	2850.77
417.11	2922.45
417.32	3094.48
417.53	2889.68
417.73	2850.77
417.94	3004.37
418.15	3028.95
418.35	2865.11
418.56	2818.00
418.77	3366.86
418.97	3026.90
419.18	2883.54
419.38	2607.06
419.59	2916.31
419.80	3266.51
420.00	2760.66
420.21	2881.49
420.42	3276.75
420.62	2994.13
420.83	2772.95
421.04	2854.87
421.24	2916.31
421.45	3145.68
421.65	2908.12
421.86	2785.24
422.07	3110.86
422.27	3067.86
422.48	2770.90
422.69	2713.56
422.89	3030.99
423.10	2996.18
423.30	2777.05
423.51	2877.40
423.72	3028.95
423.92	3049.43
424.13	2711.51
424.33	2897.88
424.54	3137.49
424.75	3026.90
424.95	3063.76
425.16	2832.34
425.36	2990.03
425.57	3119.06
425.78	2973.65
425.98	3016.66
426.19	2977.75
426.39	2777.05
426.60	2918.36
426.81	3012.56
427.01	3135.44
427.22	2856.92
427.42	2664.41
427.63	2684.89
427.83	3104.72
428.04	3258.32
428.25	2936.79
428.45	2998.23
428.66	3215.31
428.86	3012.56
429.07	2861.01
429.28	2850.77
429.48	3006.42
429.69	2865.11
429.89	2871.25
430.10	2740.18
430.30	3129.30
430.51	3223.50
430.71	2875.35
430.92	2883.54
431.13	2914.26
431.33	3084.24
431.54	2951.12
431.74	3074.00
431.95	3397.58
432.15	2832.34
432.36	2912.21
432.56	2875.35
432.77	3325.90
432.98	3330.00
433.18	2914.26
433.39	2738.13
433.59	3033.04
433.80	3340.24
434.00	3129.30
434.21	2885.59
434.41	2850.77
434.62	3385.29
434.82	2744.28
435.03	2748.37
435.23	2992.08
435.44	2783.19
435.64	2801.62
435.85	2854.87
436.06	3121.10
436.26	3166.16
436.47	2891.73
436.67	2844.63
436.88	2930.64
437.08	3157.97
437.29	3010.51
437.49	2959.31
437.70	3219.41
437.90	2983.89
438.11	3082.19
438.31	2934.74
438.52	3119.06
438.72	3180.50
438.93	3131.34
439.13	2918.36
439.34	3213.26
439.54	2920.40
439.75	2942.93
439.95	2932.69
440.16	2836.44
440.36	3024.85
440.57	2904.02
440.77	2828.24
440.98	3024.85
441.18	3082.19
441.39	2789.33
441.59	2772.95
441.80	3305.42
442.00	3000.27
442.21	2895.83
442.41	2697.17
442.62	3182.54
442.82	2811.86
443.02	2822.10
443.23	2815.96
443.43	2805.72
443.64	3145.68
443.84	2772.95
444.05	2879.44
444.25	2961.36
444.46	2873.30
444.66	2850.77
444.87	3071.95
445.07	2731.99
445.28	2934.74
445.48	2947.03
445.69	2887.64
445.89	3465.16
446.09	2934.74
446.30	3153.87
446.50	3125.20
446.71	4601.79
446.91	5861.29
447.12	6498.20
447.32	7012.24
447.53	6813.59
447.73	5799.85
447.93	5003.19
448.14	4773.82
448.34	4792.25
448.55	4184.00
448.75	4057.03
448.96	3811.27
449.16	3590.09
449.36	3504.07
449.57	3098.58
449.77	2899.92
449.98	2910.16
450.18	3035.09
450.39	2785.24
450.59	3024.85
450.79	2942.93
451.00	2852.82
451.20	2975.70
451.41	2828.24
451.61	3102.67
451.81	2949.08
452.02	2766.81
452.22	2861.01
452.43	2887.64
452.63	2813.91
452.84	2826.20
453.04	2858.96
453.24	2994.13
453.45	2861.01
453.65	2787.29
453.86	2850.77
454.06	2953.17
454.26	3059.67
454.47	2797.53
454.67	3069.91
454.87	2981.84
455.08	2899.92
455.28	2942.93
455.49	2969.55
455.69	2899.92
455.89	3313.61
456.10	2963.41
456.30	2865.11
456.51	3129.30
456.71	3059.67
456.91	2908.12
457.12	2863.06
457.32	3030.99
457.52	2807.77
457.73	2971.60
457.93	3000.27
458.14	2930.64
458.34	2703.32
458.54	2764.76
458.75	2815.96
458.95	3182.54
459.15	3008.47
459.36	2881.49
459.56	2885.59
459.76	3360.72
459.97	2936.79
460.17	2914.26
460.37	2942.93
460.58	3067.86
460.78	3125.20
460.99	2918.36
461.19	2910.16
461.39	2961.36
461.60	2957.27
461.80	2785.24
462.00	2742.23
462.21	3014.61
462.41	2813.91
462.61	2701.27
462.82	2660.31
463.02	3123.15
463.22	2973.65
463.43	2936.79
463.63	2736.09
463.83	3192.78
464.04	3030.99
464.24	2820.05
464.44	2760.66
464.64	2983.89
464.85	3114.96
465.05	2906.07
465.25	2818.00
465.46	2893.78
465.66	3100.62
465.86	2881.49
466.07	2850.77
466.27	2965.46
466.47	2758.61
466.68	2781.14
466.88	2961.36
467.08	3137.49
467.29	3192.78
467.49	2910.16
467.69	2940.88
467.89	3098.58
468.10	2885.59
468.30	2863.06
468.50	3012.56
468.71	3121.10
468.91	2856.92
469.11	3065.81
469.31	2885.59
469.52	2869.20
469.72	3278.80
469.92	3098.58
470.13	2826.20
470.33	3014.61
470.53	2963.41
470.73	3227.60
470.94	3506.12
471.14	3608.52
471.34	4085.70
471.54	3780.55
471.75	3542.99
471.95	3418.06
472.15	3282.89
472.36	3295.18
472.56	3252.17
472.76	3495.88
472.96	3323.85
473.17	3106.77
473.37	2992.08
473.57	2877.40
473.77	3080.14
473.98	3061.71
474.18	2668.50
474.38	3522.51
474.58	2822.10
474.79	2838.48
474.99	2895.83
475.19	3243.98
475.39	2828.24
475.60	2938.84
475.80	2822.10
476.00	3082.19
476.20	2922.45
476.41	2875.35
476.61	2865.11
476.81	3213.26
477.01	2875.35
477.21	3108.82
477.42	2973.65
477.62	2877.40
477.82	3090.38
478.02	2746.33
478.23	2918.36
478.43	2840.53
478.63	2944.98
478.83	2867.16
479.03	2891.73
479.24	3221.45
479.44	3383.24
479.64	2797.53
479.84	2652.12
480.04	2940.88
480.25	3082.19
480.45	2861.01
480.65	2813.91
480.85	3309.52
481.06	2912.21
481.26	2996.18
481.46	2858.96
481.66	3149.78
481.86	2879.44
482.06	2961.36
482.27	2887.64
482.47	2981.84
482.67	2992.08
482.87	2809.81
483.07	2934.74
483.28	2932.69
483.48	2746.33
483.68	2891.73
483.88	2783.19
484.08	2645.98
484.29	2838.48
484.49	2910.16
484.69	2711.51
484.89	3264.46
485.09	3106.77
485.29	2865.11
485.50	3018.71
485.70	2977.75
485.90	3260.37
486.10	2934.74
486.30	2873.30
486.50	3215.31
486.71	2996.18
486.91	2906.07
487.11	2955.22
487.31	2766.81
487.51	3004.37
487.71	2787.29
487.91	2846.68
488.12	2799.57
488.32	2600.92
488.52	2809.81
488.72	2615.26
488.92	3071.95
489.12	3151.82
489.32	3018.71
489.53	2838.48
489.73	2709.46
489.93	3356.62
490.13	2791.38
490.33	2719.70
490.53	2998.23
490.73	3260.37
490.94	2719.70
491.14	3037.14
491.34	3108.82
491.54	3045.33
491.74	3737.54
491.94	4224.96
492.14	4657.08
492.34	4587.45
492.54	4368.32
492.75	3708.87
492.95	3932.10
493.15	3653.58
493.35	3596.23
493.55	3506.12
493.75	3319.76
493.95	3485.64
494.15	3114.96
494.35	2899.92
494.56	2983.89
494.76	2934.74
494.96	2947.03
495.16	2789.33
495.36	2971.60
495.56	3004.37
495.76	2840.53
495.96	2789.33
496.16	2928.60
496.36	3284.94
496.56	2752.47
496.77	2910.16
496.97	3057.62
497.17	3217.36
497.37	2701.27
497.57	2938.84
497.77	3018.71
497.97	2799.57
498.17	2895.83
498.37	2807.77
498.57	3088.34
498.77	2887.64
498.97	3117.01
499.17	3172.30
499.38	2938.84
499.58	3035.09
499.78	3067.86
499.98	3057.62
500.18	2916.31
500.38	2799.57
500.58	3041.23
500.78	3319.76
500.98	5570.48
501.18	7589.77
501.38	8785.79
501.58	9703.28
501.78	9543.53
501.98	7911.30
502.18	6616.99
502.38	5709.74
502.58	5668.78
502.78	4958.13
502.98	4769.72
503.18	4605.88
503.38	4325.31
503.59	3774.41
503.79	3626.95
503.99	3409.87
504.19	3481.55
504.39	3532.75
504.59	3330.00
504.79	3227.60
504.99	3504.07
505.19	3094.48
505.39	3045.33
505.59	3198.93
505.79	3317.71
505.99	3164.11
506.19	2920.40
506.39	3123.15
506.59	2918.36
506.79	2858.96
506.99	3139.54
507.19	2838.48
507.39	3037.14
507.59	2777.05
507.79	2770.90
507.99	2818.00
508.19	2942.93
508.39	2899.92
508.59	2863.06
508.79	2981.84
508.99	3315.66
509.19	2944.98
509.39	2940.88
509.59	2775.00
509.79	2861.01
509.99	3037.14
510.19	2977.75
510.39	2969.55
510.59	3026.90
510.79	2901.97
510.99	2717.65
511.19	2762.71
511.39	3295.18
511.59	3174.35
511.79	2955.22
511.99	2820.05
512.19	3266.51
512.38	3024.85
512.58	2791.38
512.78	2787.29
512.98	3188.69
513.18	3272.65
513.38	2760.66
513.58	2899.92
513.78	3006.42
513.98	2904.02
514.18	2918.36
514.38	2877.40
514.58	3106.77
514.78	2871.25
514.98	2777.05
515.18	2938.84
515.38	2777.05
515.58	3295.18
515.78	2861.01
515.98	2858.96
516.18	3045.33
516.38	2977.75
516.57	2803.67
516.77	2858.96
516.97	3094.48
517.17	2885.59
517.37	2691.03
517.57	2938.84
517.77	3010.51
517.97	2875.35
518.17	2932.69
518.37	2758.61
518.57	2824.15
518.77	2910.16
518.97	2871.25
519.16	2858.96
519.36	3129.30
519.56	2936.79
519.76	2822.10
519.96	2844.63
520.16	3203.02
520.36	2717.65
520.56	3018.71
520.76	2799.57
520.96	2944.98
521.16	3131.34
521.35	3039.19
521.55	3026.90
521.75	2854.87
521.95	2850.77
522.15	2844.63
522.35	2654.17
522.55	2820.05
522.75	3131.34
522.95	2815.96
523.14	2746.33
523.34	2985.94
523.54	2963.41
523.74	3004.37
523.94	2881.49
524.14	2719.70
524.34	3014.61
524.54	3047.38
524.73	2850.77
524.93	3114.96
525.13	2922.45
525.33	2840.53
525.53	3135.44
525.73	3149.78
525.93	2987.99
526.13	2871.25
526.32	2715.61
526.52	3205.07
526.72	3166.16
526.92	2891.73
527.12	2746.33
527.32	2670.55
527.52	3102.67
527.71	2953.17
527.91	2836.44
528.11	2844.63
528.31	2967.51
528.51	2783.19
528.71	3035.09
528.90	3061.71
529.10	3194.83
529.30	2879.44
529.50	2617.30
529.70	3063.76
529.90	2963.41
530.09	2863.06
530.29	2734.04
530.49	2848.72
530.69	3358.67
530.89	2990.03
531.09	2912.21
531.28	2912.21
531.48	3198.93
531.68	2883.54
531.88	2906.07
532.08	3166.16
532.28	2942.93
532.47	3043.28
532.67	2985.94
532.87	3090.38
533.07	2805.72
533.27	2904.02
533.46	3006.42
533.66	3004.37
533.86	2895.83
534.06	2942.93
534.26	2875.35
534.45	2934.74
534.65	3139.54
534.85	2979.79
535.05	2779.09
535.25	3194.83
535.44	2725.85
535.64	2838.48
535.84	2861.01
536.04	2904.02
536.24	2953.17
536.43	2846.68
536.63	2807.77
536.83	3004.37
537.03	2879.44
537.22	2635.74
537.42	2645.98
537.62	3004.37
537.82	2869.20
538.02	3033.04
538.21	2963.41
538.41	3467.21
538.61	3135.44
538.81	2873.30
539.00	3018.71
539.20	2721.75
539.40	2981.84
539.60	2854.87
539.79	3030.99
539.99	3123.15
540.19	2815.96
540.39	2766.81
540.58	2940.88
540.78	3155.92
540.98	2912.21
541.18	3043.28
541.37	3008.47
541.57	3039.19
541.77	3059.67
541.97	2709.46
542.16	2746.33
542.36	2852.82
542.56	3237.84
542.76	3024.85
542.95	2938.84
543.15	3190.74
543.35	3125.20
543.54	2869.20
543.74	2785.24
543.94	3200.98
544.14	2805.72
544.33	2973.65
544.53	2828.24
544.73	2985.94
544.93	2918.36
545.12	2895.83
545.32	2836.44
545.52	2881.49
545.71	2813.91
545.91	2840.53
546.11	2869.20
546.30	2832.34
546.50	3016.66
546.70	2944.98
546.90	2844.63
547.09	2668.50
547.29	2983.89
547.49	2949.08
547.68	2871.25
547.88	2904.02
548.08	3076.05
548.27	3149.78
548.47	2797.53
548.67	2863.06
548.87	3045.33
549.06	2850.77
549.26	2803.67
549.46	3108.82
549.65	2893.78
549.85	2918.36
550.05	2901.97
550.24	2729.94
550.44	3016.66
550.64	2910.16
550.83	2895.83
551.03	3192.78
551.23	3164.11
551.42	2951.12
551.62	2842.58
551.82	3006.42
552.01	2983.89
552.21	3123.15
552.41	2869.20
552.60	3270.61
552.80	2983.89
553.00	2809.81
553.19	2832.34
553.39	3260.37
553.59	2723.80
553.78	2938.84
553.98	2842.58
554.17	2799.57
554.37	3078.10
554.57	2897.88
554.76	2670.55
554.96	2863.06
555.16	2998.23
555.35	2916.31
555.55	2918.36
555.75	3053.52
555.94	3078.10
556.14	2729.94
556.33	2910.16
556.53	3014.61
556.73	3022.80
556.92	2901.97
557.12	2899.92
557.32	3301.33
557.51	3237.84
557.71	2883.54
557.90	3108.82
558.10	3180.50
558.30	2856.92
558.49	2832.34
558.69	2854.87
558.88	3063.76
559.08	3039.19
559.28	2883.54
559.47	2885.59
559.67	3119.06
559.86	3317.71
560.06	2887.64
560.26	2787.29
560.45	3098.58
560.65	2924.50
560.84	2992.08
561.04	2746.33
561.24	3135.44
561.43	2834.39
561.63	3053.52
561.82	2963.41
562.02	3067.86
562.22	2828.24
562.41	2791.38
562.61	2799.57
562.80	2834.39
563.00	3368.91
563.19	2947.03
563.39	2955.22
563.59	3119.06
563.78	2775.00
563.98	2676.70
564.17	2826.20
564.37	2719.70
564.56	2975.70
564.76	2770.90
564.96	2951.12
565.15	3123.15
565.35	3438.54
565.54	2987.99
565.74	2998.23
565.93	3100.62
566.13	2940.88
566.32	2924.50
566.52	2949.08
566.71	3006.42
566.91	3121.10
567.11	3018.71
567.30	2746.33
567.50	3125.20
567.69	3082.19
567.89	2813.91
568.08	2746.33
568.28	2955.22
568.47	2820.05
568.67	2836.44
568.86	2889.68
569.06	3182.54
569.25	2842.58
569.45	2815.96
569.64	2844.63
569.84	2912.21
570.04	3074.00
570.23	2869.20
570.43	2916.31
570.62	3024.85
570.82	3299.28
571.01	2748.37
571.21	2768.85
571.40	2858.96
571.60	3117.01
571.79	2932.69
571.99	2795.48
572.18	2791.38
572.38	3014.61
572.57	2858.96
572.77	2944.98
572.96	3440.59
573.16	3018.71
573.35	2951.12
573.55	2998.23
573.74	3043.28
573.94	2983.89
574.13	2879.44
574.33	3065.81
574.52	3114.96
574.71	2979.79
574.91	3008.47
575.10	2758.61
575.30	2865.11
575.49	2762.71
575.69	2756.57
575.88	2861.01
576.08	2938.84
576.27	3215.31
576.47	2887.64
576.66	3026.90
576.86	3213.26
577.05	2908.12
577.25	2955.22
577.44	3033.04
577.64	2854.87
577.83	3170.26
578.02	2885.59
578.22	3049.43
578.41	3286.99
578.61	2922.45
578.80	2736.09
579.00	2861.01
579.19	2951.12
579.39	3024.85
579.58	3035.09
579.77	2867.16
579.97	3231.69
580.16	3135.44
580.36	3055.57
580.55	2955.22
580.75	2990.03
580.94	2979.79
581.13	3020.75
581.33	3098.58
581.52	2883.54
581.72	3280.85
581.91	2996.18
582.11	2729.94
582.30	3143.63
582.49	3069.91
582.69	3170.26
582.88	2975.70
583.08	2985.94
583.27	3278.80
583.47	2994.13
583.66	2852.82
583.85	2805.72
584.05	3006.42
584.24	3053.52
584.44	2918.36
584.63	3078.10
584.82	3147.73
585.02	3065.81
585.21	3012.56
585.41	3088.34
585.60	3098.58
585.79	3137.49
585.99	3137.49
586.18	3090.38
586.37	3825.61
586.57	5732.26
586.76	16766.72
586.96	36259.29
587.15	48913.69
587.34	57678.99
587.54	61400.15
587.73	54990.01
587.93	39321.00
588.12	29892.15
588.31	24503.95
588.51	21380.79
588.70	19580.63
588.89	17350.39
589.09	14673.70
589.28	12564.29
589.47	9875.31
589.67	7593.87
589.86	6041.51
590.06	4753.34
590.25	3991.49
590.44	3598.28
590.64	3254.22
590.83	3284.94
591.02	3295.18
591.22	2908.12
591.41	2951.12
591.60	2901.97
591.80	3452.88
591.99	2695.13
592.18	2889.68
592.38	3090.38
592.57	2846.68
592.76	2865.11
592.96	2963.41
593.15	2967.51
593.34	3166.16
593.54	2873.30
593.73	2940.88
593.92	3102.67
594.12	3149.78
594.31	2850.77
594.50	3096.53
594.70	3106.77
594.89	3442.64
595.08	2715.61
595.28	2951.12
595.47	3622.86
595.66	3157.97
595.86	2746.33
596.05	2799.57
596.24	2926.55
596.43	3293.13
596.63	2971.60
596.82	2957.27
597.01	3082.19
597.21	3211.22
597.40	2875.35
597.59	2922.45
597.79	2910.16
597.98	3080.14
598.17	2926.55
598.36	2936.79
598.56	3045.33
598.75	2887.64
598.94	2979.79
599.14	2930.64
599.33	2879.44
599.52	3082.19
599.71	2883.54
599.91	2815.96
600.10	3143.63
600.29	3020.75
600.48	2996.18
600.68	3000.27
600.87	3080.14
601.06	2869.20
601.26	2949.08
601.45	3002.32
601.64	2992.08
601.83	3198.93
602.03	2709.46
602.22	2691.03
602.41	3227.60
602.60	3416.01
602.80	2998.23
602.99	2932.69
603.18	2842.58
603.37	2998.23
603.57	2799.57
603.76	2856.92
603.95	3188.69
604.14	2914.26
604.34	2789.33
604.53	2871.25
604.72	2938.84
604.91	3065.81
605.10	2940.88
605.30	2750.42
605.49	3352.52
605.68	3127.25
605.87	2920.40
606.07	2877.40
606.26	2969.55
606.45	3033.04
606.64	2883.54
606.84	2760.66
607.03	2947.03
607.22	3121.10
607.41	2873.30
607.60	2897.88
607.80	3162.06
607.99	2967.51
608.18	2881.49
608.37	2844.63
608.56	2811.86
608.76	3119.06
608.95	3035.09
609.14	2904.02
609.33	3262.41
609.52	3170.26
609.72	2879.44
609.91	2977.75
610.10	3069.91
610.29	3311.57
610.48	2916.31
610.68	3004.37
610.87	2928.60
611.06	3131.34
611.25	2875.35
611.44	2998.23
611.63	3012.56
611.83	3188.69
612.02	2811.86
612.21	3018.71
612.40	2682.84
612.59	2875.35
612.79	2770.90
612.98	2910.16
613.17	3303.37
613.36	3014.61
613.55	3092.43
613.74	2873.30
613.93	3020.75
614.13	3043.28
614.32	2990.03
614.51	2887.64
614.70	3002.32
614.89	2889.68
615.08	2953.17
615.28	3325.90
615.47	2744.28
615.66	3071.95
615.85	2742.23
616.04	2914.26
616.23	3074.00
616.42	2926.55
616.62	2861.01
616.81	2838.48
617.00	3030.99
617.19	3084.24
617.38	2901.97
617.57	2924.50
617.76	3039.19
617.95	3090.38
618.15	2965.46
618.34	3012.56
618.53	2795.48
618.72	3190.74
618.91	2994.13
619.10	2983.89
619.29	3041.23
619.48	3002.32
619.68	2805.72
619.87	2820.05
620.06	2770.90
620.25	3074.00
620.44	2789.33
620.63	2842.58
620.82	2969.55
621.01	3069.91
621.20	2856.92
621.39	2932.69
621.59	2983.89
621.78	2971.60
621.97	2830.29
622.16	2979.79
622.35	3117.01
622.54	3108.82
622.73	2971.60
622.92	2691.03
623.11	3196.88
623.30	2947.03
623.49	2979.79
623.68	2736.09
623.88	3190.74
624.07	2813.91
624.26	2770.90
624.45	2858.96
624.64	2916.31
624.83	2994.13
625.02	2861.01
625.21	2869.20
625.40	2990.03
625.59	3217.36
625.78	2877.40
625.97	2969.55
626.16	3264.46
626.35	3037.14
626.54	2889.68
626.74	3020.75
626.93	2885.59
627.12	2818.00
627.31	2990.03
627.50	2832.34
627.69	3147.73
627.88	2852.82
628.07	2822.10
628.26	2609.11
628.45	2861.01
628.64	2850.77
628.83	2887.64
629.02	2758.61
629.21	3166.16
629.40	3024.85
629.59	2764.76
629.78	2822.10
629.97	2965.46
630.16	3016.66
630.35	2822.10
630.54	2979.79
630.73	2879.44
630.92	2983.89
631.11	2842.58
631.30	2904.02
631.49	3090.38
631.68	2979.79
631.87	2944.98
632.06	2844.63
632.25	3428.30
632.44	3002.32
632.63	2908.12
632.82	2875.35
633.01	2846.68
633.20	2992.08
633.39	2748.37
633.58	2723.80
633.77	3078.10
633.96	3057.62
634.15	2957.27
634.34	2947.03
634.53	3071.95
634.72	2836.44
634.91	2668.50
635.10	2928.60
635.29	3225.55
635.48	2965.46
635.67	2770.90
635.86	2699.22
636.05	3223.50
636.24	2965.46
636.43	2867.16
636.62	3004.37
636.81	2559.96
637.00	2957.27
637.19	2807.77
637.38	2961.36
637.57	2920.40
637.76	2908.12
637.95	3092.43
638.14	2858.96
638.33	3049.43
638.52	2940.88
638.71	2721.75
638.89	2762.71
639.08	3493.83
639.27	3237.84
639.46	2985.94
639.65	3352.52
639.84	3418.06
640.03	3545.03
640.22	3225.55
640.41	3260.37
640.60	3037.14
640.79	3188.69
640.98	2963.41
641.17	3076.05
641.36	3184.59
641.55	3133.39
641.74	2729.94
641.92	2779.09
642.11	2858.96
642.30	2932.69
642.49	2779.09
642.68	2848.72
642.87	3063.76
643.06	3067.86
643.25	2695.13
643.44	2797.53
643.63	2930.64
643.82	3164.11
644.00	2772.95
644.19	2826.20
644.38	2846.68
644.57	3041.23
644.76	2910.16
644.95	2951.12
645.14	3012.56
645.33	2949.08
645.52	2990.03
645.71	2688.98
645.89	2836.44
646.08	2904.02
646.27	2856.92
646.46	3014.61
646.65	2791.38
646.84	3018.71
647.03	2807.77
647.22	2996.18
647.40	2975.70
647.59	2949.08
647.78	2623.45
647.97	2861.01
648.16	2895.83
648.35	3213.26
648.54	3090.38
648.73	2879.44
648.91	3215.31
649.10	3057.62
649.29	2811.86
649.48	2772.95
649.67	2942.93
649.86	2930.64
650.05	2861.01
650.23	3119.06
650.42	2850.77
650.61	3174.35
650.80	3039.19
650.99	3131.34
651.18	3147.73
651.36	3186.64
651.55	2758.61
651.74	3074.00
651.93	2916.31
652.12	2910.16
652.31	2916.31
652.49	2895.83
652.68	2947.03
652.87	3170.26
653.06	2947.03
653.25	3076.05
653.44	3010.51
653.62	3200.98
653.81	2881.49
654.00	2897.88
654.19	3162.06
654.38	3504.07
654.56	2938.84
654.75	2811.86
654.94	3067.86
655.13	3010.51
655.32	2883.54
655.51	2987.99
655.69	2838.48
655.88	3127.25
656.07	2684.89
656.26	2959.31
656.45	2719.70
656.63	3086.29
656.82	2920.40
657.01	3049.43
657.20	2901.97
657.38	3227.60
657.57	2848.72
657.76	2707.41
657.95	3049.43
658.14	2881.49
658.32	2965.46
658.51	2725.85
658.70	2973.65
658.89	3010.51
659.08	2904.02
659.26	3074.00
659.45	2756.57
659.64	3053.52
659.83	2881.49
660.01	3235.79
660.20	3037.14
660.39	3229.65
660.58	2525.15
660.76	2920.40
660.95	2805.72
661.14	3016.66
661.33	2719.70
661.51	2836.44
661.70	2820.05
661.89	3074.00
662.08	2883.54
662.26	2729.94
662.45	2830.29
662.64	3366.86
662.83	2965.46
663.01	2668.50
663.20	2795.48
663.39	3233.74
663.58	2858.96
663.76	2820.05
663.95	3069.91
664.14	2787.29
664.32	2797.53
664.51	2764.76
664.70	2676.70
664.89	3063.76
665.07	2713.56
665.26	3020.75
665.45	2818.00
665.64	3059.67
665.82	2836.44
666.01	2977.75
666.20	2772.95
666.38	3047.38
666.57	3047.38
666.76	4894.65
666.95	10862.43
667.13	17800.94
667.32	21943.99
667.51	24442.51
667.69	25288.32
667.88	21231.29
668.07	15224.60
668.25	13061.94
668.44	11339.60
668.63	9666.41
668.81	8595.32
669.00	7276.43
669.19	6676.38
669.38	5902.25
669.56	5074.87
669.75	4300.73
669.94	3960.77
670.12	3499.98
670.31	3131.34
670.50	3147.73
670.68	3125.20
670.87	3053.52
671.06	2922.45
671.24	2901.97
671.43	3264.46
671.62	3028.95
671.80	2848.72
671.99	2961.36
672.18	2947.03
672.36	3069.91
672.55	2914.26
672.74	2916.31
672.92	2854.87
673.11	3074.00
673.29	2719.70
673.48	3065.81
673.67	2889.68
673.85	3063.76
674.04	2846.68
674.23	2930.64
674.41	3270.61
674.60	2779.09
674.79	2731.99
674.97	2791.38
675.16	3190.74
675.34	3133.39
675.53	2836.44
675.72	2904.02
675.90	3340.24
676.09	2947.03
676.28	2979.79
676.46	2676.70
676.65	3119.06
676.83	2904.02
677.02	2916.31
677.21	2867.16
677.39	3035.09
677.58	2836.44
677.77	2918.36
677.95	2750.42
678.14	2998.23
678.32	2949.08
678.51	2852.82
678.70	3203.02
678.88	2844.63
679.07	2994.13
679.25	2955.22
679.44	2856.92
679.63	2760.66
679.81	3057.62
680.00	3141.58
680.18	2947.03
680.37	3282.89
680.55	3022.80
680.74	2731.99
680.93	2619.35
681.11	3065.81
681.30	3057.62
681.48	2875.35
681.67	2846.68
681.85	3012.56
682.04	2856.92
682.23	3016.66
682.41	2994.13
682.60	2877.40
682.78	2906.07
682.97	2781.14
683.15	2895.83
683.34	2955.22
683.53	3270.61
683.71	2727.89
683.90	2897.88
684.08	3250.13
684.27	2953.17
684.45	2961.36
684.64	2977.75
684.82	3002.32
685.01	2996.18
685.19	2852.82
685.38	3139.54
685.57	2901.97
685.75	2877.40
685.94	2754.52
686.12	2717.65
686.31	2885.59
686.49	3377.10
686.68	2736.09
686.86	2904.02
687.05	2947.03
687.23	3246.03
687.42	2799.57
687.60	2709.46
687.79	3102.67
687.97	3286.99
688.16	3037.14
688.34	3065.81
688.53	2781.14
688.71	3014.61
688.90	3188.69
689.08	2887.64
689.27	2738.13
689.45	3037.14
689.64	3057.62
689.82	2932.69
690.01	3055.57
690.19	3074.00
690.38	2957.27
690.56	2930.64
690.75	2824.15
690.93	2897.88
691.12	2824.15
691.30	2914.26
691.49	2979.79
691.67	2983.89
691.86	3117.01
692.04	2889.68
692.23	2926.55
692.41	2977.75
692.60	3147.73
692.78	3012.56
692.97	2996.18
693.15	3100.62
693.34	3137.49
693.52	2994.13
693.71	2842.58
693.89	2951.12
694.08	2713.56
694.26	3016.66
694.44	3147.73
694.63	3119.06
694.81	2768.85
695.00	2801.62
695.18	3246.03
695.37	3452.88
695.55	3008.47
695.74	2899.92
695.92	2799.57
696.10	3196.88
696.29	2734.04
696.47	2869.20
696.66	2738.13
696.84	2861.01
697.03	2863.06
697.21	3160.02
697.40	4390.84
697.58	3153.87
697.76	2779.09
697.95	2805.72
698.13	2840.53
698.32	2834.39
698.50	2897.88
698.68	2891.73
698.87	3010.51
699.05	3231.69
699.24	2854.87
699.42	2789.33
699.61	3088.34
699.79	3041.23
699.97	2910.16
700.16	2793.43
700.34	2750.42
700.53	3098.58
700.71	3053.52
700.89	2922.45
701.08	3030.99
701.26	2985.94
701.45	3256.27
701.63	2793.43
701.81	2865.11
702.00	2838.48
702.18	2936.79
702.37	2887.64
702.55	3309.52
702.73	3043.28
702.92	2760.66
703.10	3094.48
703.28	3129.30
703.47	2897.88
703.65	3082.19
703.84	3051.47
704.02	2805.72
704.20	3233.74
704.39	2875.35
704.57	2856.92
704.75	3131.34
704.94	3035.09
705.12	2947.03
705.30	3397.58
705.49	6721.43
705.67	12848.96
705.86	18407.14
706.04	20790.98
706.22	23172.77
706.41	22451.88
706.59	17047.29
706.77	13258.55
706.96	11452.24
707.14	10467.17
707.32	8978.30
707.51	7868.30
707.69	6479.77
707.87	5420.97
708.06	4642.75
708.24	3864.52
708.42	3555.27
708.61	3692.49
708.79	2924.50
708.97	2953.17
709.16	3084.24
709.34	2975.70
709.52	2924.50
709.71	2869.20
709.89	3149.78
710.07	2863.06
710.26	2879.44
710.44	2912.21
710.62	3211.22
710.80	3002.32
710.99	2973.65
711.17	3076.05
711.35	2801.62
711.54	2846.68
711.72	2973.65
711.90	2922.45
712.09	3020.75
712.27	2875.35
712.45	2987.99
712.63	2877.40
712.82	3006.42
713.00	3028.95
713.18	3033.04
713.37	2947.03
713.55	3039.19
713.73	3053.52
713.91	2959.31
714.10	2861.01
714.28	2963.41
714.46	2975.70
714.65	3043.28
714.83	3051.47
715.01	2918.36
715.19	2985.94
715.38	2746.33
715.56	2963.41
715.74	2828.24
715.92	2815.96
716.11	3143.63
716.29	2619.35
716.47	3002.32
716.65	2840.53
716.84	2674.65
717.02	3030.99
717.20	2686.94
717.38	2848.72
717.57	2967.51
717.75	2885.59
717.93	2936.79
718.11	3057.62
718.30	2777.05
718.48	2838.48
718.66	3213.26
718.84	3157.97
719.03	2795.48
719.21	2654.17
719.39	3266.51
719.57	3030.99
719.75	2983.89
719.94	2762.71
720.12	2967.51
720.30	3065.81
720.48	2992.08
720.67	2801.62
720.85	2906.07
721.03	2920.40
721.21	2781.14
721.39	2985.94
721.58	3123.15
721.76	3063.76
721.94	2920.40
722.12	2987.99
722.30	3229.65
722.49	2842.58
722.67	2908.12
722.85	2934.74
723.03	2832.34
723.21	2951.12
723.40	2904.02
723.58	3006.42
723.76	3114.96
723.94	3243.98
724.12	2854.87
724.30	3016.66
724.49	3135.44
724.67	2818.00
724.85	2975.70
725.03	2734.04
725.21	3080.14
725.40	3172.30
725.58	2842.58
725.76	3061.71
725.94	3065.81
726.12	2809.81
726.30	2881.49
726.49	2881.49
726.67	2924.50
726.85	3088.34
727.03	3370.96
727.21	4423.61
727.39	5455.79
727.57	5828.52
727.76	6182.82
727.94	6283.17
728.12	5711.78
728.30	4665.27
728.48	4519.87
728.66	4216.77
728.84	3925.96
729.03	3583.95
729.21	3344.33
729.39	3110.86
729.57	3082.19
729.75	3100.62
729.93	2992.08
730.11	2805.72
730.30	2920.40
730.48	2904.02
730.66	2981.84
730.84	3030.99
731.02	3041.23
731.20	2963.41
731.38	2918.36
731.56	2750.42
731.74	2643.93
731.93	3024.85
732.11	2893.78
732.29	2836.44
732.47	3002.32
732.65	3010.51
732.83	3112.91
733.01	2996.18
733.19	2873.30
733.37	3147.73
733.56	2961.36
733.74	2731.99
733.92	3190.74
734.10	2924.50
734.28	2971.60
734.46	2748.37
734.64	2938.84
734.82	2947.03
735.00	2834.39
735.18	2865.11
735.36	3010.51
735.54	2932.69
735.73	2852.82
735.91	2981.84
736.09	3200.98
736.27	2904.02
736.45	2951.12
736.63	2572.25
736.81	2844.63
736.99	3205.07
737.17	3129.30
737.35	2848.72
737.53	3004.37
737.71	2971.60
737.89	3112.91
738.07	2850.77
738.25	2873.30
738.43	2744.28
738.61	2838.48
738.80	2744.28
738.98	2740.18
739.16	2865.11
739.34	2818.00
739.52	3131.34
739.70	2910.16
739.88	3067.86
740.06	3020.75
740.24	2615.26
740.42	3203.02
740.60	2779.09
740.78	2815.96
740.96	2684.89
741.14	2908.12
741.32	3010.51
741.50	2748.37
741.68	3119.06
741.86	3241.93
742.04	2772.95
742.22	2791.38
742.40	2824.15
742.58	3067.86
742.76	2861.01
742.94	3147.73
743.12	2680.79
743.30	2977.75
743.48	3059.67
743.66	2758.61
743.84	2914.26
744.02	2985.94
744.20	2934.74
744.38	2684.89
744.56	2815.96
744.74	3262.41
744.92	3053.52
745.10	3100.62
745.28	2928.60
745.46	3268.56
745.64	2975.70
745.82	3000.27
746.00	2791.38
746.18	3022.80
746.36	2867.16
746.54	2875.35
746.72	2856.92
746.90	2813.91
747.08	3237.84
747.26	2797.53
747.44	3049.43
747.62	3065.81
747.80	3061.71
747.98	3047.38
748.15	2836.44
748.33	3307.47
748.51	2963.41
748.69	2926.55
748.87	2770.90
749.05	2922.45
749.23	2924.50
749.41	2834.39
749.59	2947.03
749.77	3184.59
749.95	2975.70
750.13	2881.49
750.31	2971.60
750.49	2912.21
750.67	3076.05
750.85	2969.55
751.03	2867.16
751.20	3418.06
751.38	3047.38
751.56	2842.58
751.74	2934.74
751.92	2951.12
752.10	2822.10
752.28	3008.47
752.46	2772.95
752.64	2885.59
752.82	2963.41
753.00	2987.99
753.18	2912.21
753.35	2869.20
753.53	2953.17
753.71	2721.75
753.89	2910.16
754.07	3100.62
754.25	3024.85
754.43	2961.36
754.61	2688.98
754.79	3106.77
754.97	3026.90
755.14	3098.58
755.32	2809.81
755.50	2967.51
755.68	3006.42
755.86	2764.76
756.04	2840.53
756.22	2645.98
756.40	3151.82
756.57	3143.63
756.75	2813.91
756.93	3123.15
757.11	3196.88
757.29	2779.09
757.47	2775.00
757.65	2729.94
757.82	2627.54
758.00	2717.65
758.18	2750.42
758.36	2809.81
758.54	3260.37
758.72	2670.55
758.90	2987.99
759.07	3037.14
759.25	2840.53
759.43	2942.93
759.61	2721.75
759.79	4214.72
759.97	3051.47
760.15	2918.36
760.32	2885.59
760.50	3057.62
760.68	3237.84
760.86	2676.70
761.04	3051.47
761.22	3108.82
761.39	3010.51
761.57	2906.07
761.75	2842.58
761.93	3090.38
762.11	2895.83
762.28	2957.27
762.46	2811.86
762.64	3268.56
762.82	2686.94
763.00	2811.86
763.18	3125.20
763.35	2791.38
763.53	3088.34
763.71	2992.08
763.89	2813.91
764.07	2979.79
764.24	2959.31
764.42	2959.31
764.60	2944.98
764.78	3139.54
764.96	3127.25
765.13	3000.27
765.31	2787.29
765.49	3145.68
765.67	2869.20
765.84	2781.14
766.02	2801.62
766.20	2791.38
766.38	3016.66
766.56	2951.12
766.73	2920.40
766.91	2930.64
767.09	2971.60
767.27	2881.49
767.44	2723.80
767.62	3110.86
767.80	2957.27
767.98	2770.90
768.15	2818.00
768.33	3086.29
768.51	3094.48
768.69	3047.38
768.87	2863.06
769.04	2963.41
769.22	3442.64
769.40	3008.47
769.58	3008.47
769.75	3008.47
769.93	3180.50
770.11	2858.96
770.28	2818.00
770.46	3069.91
770.64	3055.57
770.82	2865.11
770.99	2775.00
771.17	3084.24
771.35	2918.36
771.53	2869.20
771.70	2871.25
771.88	3069.91
772.06	2934.74
772.23	2799.57
772.41	2930.64
772.59	3002.32
772.77	2818.00
772.94	2877.40
773.12	2942.93
773.30	2881.49
773.47	3043.28
773.65	2813.91
773.83	3059.67
774.01	2936.79
774.18	2713.56
774.36	2985.94
774.54	2750.42
774.71	3059.67
774.89	2705.37
775.07	2801.62
775.24	2916.31
775.42	2826.20
775.60	3307.47
775.78	2785.24
775.95	2721.75
776.13	2627.54
776.31	2705.37
776.48	2936.79
776.66	3020.75
776.84	2897.88
777.01	2869.20
777.19	2799.57
777.37	2766.81
777.54	3094.48
777.72	3358.67
777.90	2910.16
778.07	2865.11
778.25	3526.60
778.43	3176.40
778.60	2811.86
778.78	3000.27
778.96	3190.74
779.13	2731.99
779.31	2944.98
779.49	2930.64
779.66	3065.81
779.84	2967.51
780.01	2885.59
780.19	2772.95
780.37	3147.73
780.54	3108.82
780.72	2777.05
780.90	2848.72
781.07	2951.12
781.25	2889.68
781.43	2983.89
781.60	2885.59
781.78	3231.69
781.95	3018.71
782.13	2865.11
782.31	2840.53
782.48	2594.78
782.66	2947.03
782.83	3170.26
783.01	2957.27
783.19	3084.24
783.36	2861.01
783.54	2785.24
783.72	3008.47
783.89	2936.79
784.07	3119.06
784.24	3039.19
784.42	3090.38
784.60	3028.95
784.77	3053.52
784.95	2664.41
785.12	2815.96
785.30	3000.27
785.47	2889.68
785.65	2809.81
785.83	2881.49
786.00	2865.11
786.18	2953.17
786.35	2711.51
786.53	2795.48
786.71	3135.44
786.88	2975.70
787.06	3008.47
787.23	2885.59
787.41	2789.33
787.58	3076.05
787.76	2750.42
787.94	2922.45
788.11	3057.62
788.29	2775.00
788.46	2856.92
788.64	2619.35
788.81	2940.88
788.99	2799.57
789.16	2766.81
789.34	2828.24
789.52	2877.40
789.69	2863.06
789.87	2676.70
790.04	2797.53
790.22	2996.18
790.39	3426.25
790.57	2820.05
790.74	2717.65
790.92	3192.78
791.09	2682.84
791.27	2893.78
791.44	3002.32
791.62	2899.92
791.79	3090.38
791.97	2959.31
792.15	3190.74
792.32	3065.81
792.50	3041.23
792.67	3059.67
792.85	3151.82
793.02	2963.41
793.20	2887.64
793.37	2840.53
793.55	2820.05
793.72	2721.75
793.90	3024.85
794.07	2811.86
794.25	2752.47
794.42	2938.84
794.60	2848.72
794.77	2957.27
794.95	2955.22
795.12	3178.45
795.30	2865.11
795.47	2660.31
795.65	3221.45
795.82	3018.71
796.00	2832.34
796.17	2914.26
796.34	2772.95
796.52	2992.08
796.69	3166.16
796.87	2959.31
797.04	3020.75
797.22	3184.59
797.39	3033.04
797.57	2990.03
797.74	2918.36
797.92	2990.03
798.09	2906.07
798.27	3125.20
798.44	2910.16
798.62	2883.54
798.79	2975.70
798.96	2985.94
799.14	2879.44
799.31	3444.68
799.49	2987.99
799.66	2811.86
799.84	2953.17
800.01	2789.33
800.19	2998.23
800.36	2637.78
800.53	2959.31
800.71	3051.47
800.88	3227.60
801.06	2779.09
801.23	2789.33
801.41	2977.75
801.58	2834.39
801.75	2832.34
801.93	2893.78
802.10	3112.91
802.28	2910.16
802.45	2947.03
802.63	2895.83
802.80	3207.12
802.97	2944.98
803.15	2947.03
803.32	2801.62
803.50	2793.43
803.67	2871.25
803.84	2754.52
804.02	2910.16
804.19	2947.03
804.37	2559.96
804.54	2660.31
804.71	2848.72
804.89	2973.65
805.06	2883.54
805.24	2815.96
805.41	2731.99
805.58	2822.10
805.76	3338.19
805.93	2793.43
806.10	3051.47
806.28	3080.14
806.45	3006.42
806.63	2981.84
806.80	2881.49
806.97	2979.79
807.15	3053.52
807.32	2926.55
807.49	2918.36
807.67	2764.76
807.84	3053.52
808.01	2625.50
808.19	3082.19
808.36	3362.76
808.54	2883.54
808.71	2844.63
808.88	2867.16
809.06	3160.02
809.23	3207.12
809.40	2906.07
809.58	2924.50
809.75	3024.85
809.92	2746.33
810.10	3188.69
810.27	2844.63
810.44	3063.76
810.62	3061.71
810.79	2926.55
810.96	2852.82
811.14	2904.02
811.31	3067.86
811.48	2959.31
811.66	2897.88
811.83	3108.82
812.00	3114.96
812.18	2949.08
812.35	3145.68
812.52	2977.75
812.69	2856.92
812.87	2834.39
813.04	2783.19
813.21	2836.44
813.39	2850.77
813.56	2783.19
813.73	3100.62
813.91	2783.19
814.08	3037.14
814.25	2879.44
814.42	2742.23
814.60	2877.40
814.77	2996.18
814.94	2832.34
815.12	2994.13
815.29	3227.60
815.46	2858.96
815.63	2908.12
815.81	2830.29
815.98	2875.35
816.15	2959.31
816.33	2887.64
816.50	2840.53
816.67	2906.07
816.84	2922.45
817.02	2721.75
817.19	2899.92
817.36	3039.19
817.53	3098.58
817.71	2785.24
817.88	2889.68
818.05	2887.64
818.22	2910.16
818.40	3057.62
818.57	2824.15
818.74	3022.80
818.91	2977.75
819.09	2944.98
819.26	2973.65
819.43	2869.20
819.60	2768.85
819.78	3037.14
819.95	3018.71
820.12	2791.38
820.29	3192.78
820.47	3129.30
820.64	2787.29
820.81	2789.33
820.98	2805.72
821.15	2795.48
821.33	2947.03
821.50	2775.00
821.67	3043.28
821.84	2881.49
822.02	2969.55
822.19	3039.19
822.36	2877.40
822.53	2848.72
822.70	2707.41
822.88	2983.89
823.05	3209.17
823.22	2969.55
823.39	2852.82
823.56	2975.70
823.74	3258.32
823.91	2731.99
824.08	2793.43
824.25	2875.35
824.42	3303.37
824.60	2758.61
824.77	3010.51
824.94	3006.42
825.11	3090.38
825.28	2643.93
825.45	2971.60
825.63	3010.51
825.80	2822.10
825.97	3051.47
826.14	2881.49
826.31	2719.70
826.48	2979.79
826.66	2805.72
826.83	2740.18
827.00	2908.12
827.17	2813.91
827.34	2953.17
827.51	2822.10
827.69	2992.08
827.86	2723.80
828.03	2809.81
828.20	2916.31
828.37	2891.73
828.54	2998.23
828.71	2783.19
828.89	2969.55
829.06	2912.21
829.23	3221.45
829.40	2842.58
829.57	2793.43
829.74	3131.34
829.91	2908.12
830.09	2791.38
830.26	2908.12
830.43	3274.70
830.60	2908.12
830.77	2977.75
830.94	3002.32
831.11	3104.72
831.28	2906.07
831.46	2947.03
831.63	2772.95
831.80	3186.64
831.97	2850.77
832.14	2924.50
832.31	2918.36
832.48	3030.99
832.65	3143.63
832.82	2981.84
832.99	2852.82
833.17	2801.62
833.34	3211.22
833.51	2863.06
833.68	2637.78
833.85	3168.21
834.02	2846.68
834.19	2787.29
834.36	2818.00
834.53	2963.41
834.70	3141.58
834.87	2875.35
835.04	2725.85
835.22	2856.92
835.39	2932.69
835.56	2723.80
835.73	2672.60
835.90	3162.06
836.07	2879.44
836.24	2912.21
836.41	2693.08
836.58	2867.16
836.75	3110.86
836.92	2729.94
837.09	2592.73
837.26	3114.96
837.43	3014.61
837.60	2758.61
837.77	2688.98
837.94	3110.86
838.12	3174.35
838.29	2715.61
838.46	2650.07
838.63	2754.52
838.80	3278.80
838.97	2867.16
839.14	2703.32
839.31	3000.27
839.48	3125.20
839.65	2783.19
839.82	2832.34
839.99	2928.60
840.16	2930.64
840.33	2715.61
840.50	2772.95
840.67	2846.68
840.84	2605.02
841.01	2688.98
841.18	2699.22
841.35	3008.47
841.52	3112.91
841.69	3012.56
841.86	2756.57
842.03	2885.59
842.20	3092.43
842.37	2715.61
842.54	2731.99
842.71	2914.26
842.88	2713.56
843.05	2738.13
843.22	2731.99
843.39	3084.24
843.56	2914.26
843.73	2715.61
843.90	2813.91
844.07	3033.04
844.24	3078.10
844.41	2746.33
844.58	2772.95
844.75	2906.07
844.92	3043.28
845.09	2799.57
845.26	2742.23
845.43	3053.52
845.60	2904.02
845.77	2840.53
845.94	2834.39
846.10	3055.57
846.27	2650.07
846.44	2602.97
846.61	2635.74
846.78	3051.47
846.95	3182.54
847.12	2734.04
847.29	2793.43
847.46	2910.16
847.63	3157.97
847.80	2699.22
847.97	2715.61
848.14	3319.76
848.31	2949.08
848.48	2629.59
848.65	2738.13
848.82	2822.10
848.98	3461.07
849.15	2840.53
849.32	2838.48
849.49	3127.25
849.66	2920.40
849.83	2684.89
850.00	2688.98
850.17	3121.10
850.34	2834.39
850.51	2680.79
850.68	2789.33
850.85	3323.85
851.01	3020.75
851.18	2676.70
851.35	2873.30
851.52	3006.42
851.69	3170.26
851.86	2584.54
852.03	2697.17
852.20	3135.44
852.37	2983.89
852.53	2619.35
852.70	2695.13
852.87	3012.56
853.04	3041.23
853.21	2750.42
853.38	2959.31
853.55	3131.34
853.72	3246.03
853.89	2686.94
854.05	2707.41
854.22	2996.18
854.39	2863.06
854.56	2723.80
854.73	2803.67
854.90	2850.77
855.07	2858.96
855.23	2643.93
855.40	2729.94
855.57	2981.84
855.74	2654.17
855.91	3000.27
856.08	2623.45
856.25	2727.89
856.41	2879.44
856.58	2775.00
856.75	2758.61
856.92	2762.71
857.09	3125.20
857.26	2586.58
857.42	2818.00
857.59	3002.32
857.76	2861.01
857.93	2727.89
858.10	2818.00
858.27	2809.81
858.43	3000.27
858.60	2740.18
858.77	2670.55
858.94	2885.59
859.11	3067.86
859.27	2854.87
859.44	2678.74
859.61	3327.95
859.78	3002.32
859.95	2703.32
860.12	2697.17
860.28	3366.86
860.45	3299.28
860.62	2789.33
860.79	2838.48
860.95	2891.73
861.12	2844.63
861.29	2693.08
861.46	2652.12
861.63	2985.94
861.79	2994.13
861.96	2602.97
862.13	2723.80
862.30	3172.30
862.47	2838.48
862.63	2627.54
862.80	2721.75
862.97	3133.39
863.14	3041.23
863.30	2783.19
863.47	2701.27
863.64	3297.23
863.81	3037.14
863.97	2602.97
864.14	2795.48
864.31	2975.70
864.48	2975.70
864.65	2762.71
864.81	2856.92
864.98	3092.43
865.15	3059.67
865.32	2832.34
865.48	2852.82
865.65	3366.86
865.82	2828.24
865.98	2828.24
866.15	2877.40
866.32	2942.93
866.49	2815.96
866.65	2889.68
866.82	2684.89
866.99	2944.98
867.16	2932.69
867.32	2770.90
867.49	2588.63
867.66	2981.84
867.83	2918.36
867.99	2656.22
868.16	2707.41
868.33	2756.57
868.49	2867.16
868.66	2691.03
868.83	2809.81
868.99	3004.37
869.16	2914.26
869.33	2840.53
869.50	2813.91
869.66	2975.70
869.83	2861.01
870.00	2613.21
870.16	2830.29
870.33	2926.55
870.50	3039.19
870.66	2754.52
870.83	2715.61
871.00	2897.88
871.17	3133.39
871.33	2770.90
871.50	2713.56
871.67	2885.59
871.83	2871.25
872.00	2889.68
872.17	2754.52
872.33	3311.57
872.50	3084.24
872.67	2742.23
872.83	2772.95
873.00	2957.27
873.17	2936.79
873.33	2830.29
873.50	2826.20
873.67	2785.24
873.83	2916.31
874.00	2762.71
874.16	2938.84
874.33	3117.01
874.50	2811.86
874.66	2715.61
874.83	2889.68
875.00	3080.14
875.16	3151.82
875.33	2775.00
875.50	2582.49
875.66	2908.12
875.83	3012.56
875.99	2781.14
876.16	2854.87
876.33	2736.09
876.49	2885.59
876.66	2803.67
876.83	2779.09
876.99	2664.41
877.16	2975.70
877.32	2668.50
877.49	2781.14
877.66	3074.00
877.82	3282.89
877.99	2779.09
878.15	3022.80
878.32	3000.27
878.49	3024.85
878.65	2836.44
878.82	3016.66
878.98	2895.83
879.15	3098.58
879.32	2926.55
879.48	2889.68
879.65	2944.98
879.81	2914.26
879.98	2762.71
880.15	2793.43
880.31	3045.33
880.48	2842.58
880.64	2820.05
880.81	2912.21
880.97	3286.99
881.14	3153.87
881.31	2666.46
881.47	2924.50
881.64	2899.92
881.80	2662.36
881.97	2926.55
882.13	2836.44
882.30	2754.52
882.47	2871.25
882.63	2725.85
882.80	2686.94
882.96	2848.72
883.13	3205.07
883.29	2697.17
883.46	2768.85
883.62	3381.20
883.79	3030.99
883.95	2904.02
884.12	2682.84
884.29	3164.11
884.45	2924.50
884.62	2738.13
884.78	2711.51
884.95	3160.02
885.11	2838.48
885.28	2850.77
885.44	2775.00
885.61	3129.30
885.77	3098.58
885.94	2861.01
886.10	2770.90
886.27	2996.18
886.43	3323.85
886.60	2971.60
886.76	2760.66
886.93	2826.20
887.09	2977.75
887.26	2586.58
887.42	2811.86
887.59	3168.21
887.75	3293.13
887.92	2938.84
888.08	2904.02
888.25	3270.61
888.41	3114.96
888.58	2832.34
888.74	2680.79
888.91	2807.77
>>>>>End Processed Spectral Data<<<<<
