SpectraSuite Data File
++++++++++++++++++++++++++++++++++++
Date: Thu May 05 21:11:37 CEST 2016
User: root
Dark Spectrum Present: No
Reference Spectrum Present: No
Number of Sampled Component Spectra: 1
Spectrometers: USB4C02835
Integration Time (usec): 100000 (USB4C02835)
Spectra Averaged: 1 (USB4C02835)
Boxcar Smoothing: 0 (USB4C02835)
Correct for Electrical Dark: No (USB4C02835)
Strobe/Lamp Enabled: No (USB4C02835)
Correct for Detector Non-linearity: No (USB4C02835)
Correct for Stray Light: No (USB4C02835)
Number of Pixels in Processed Spectrum: 3648
>>>>>Begin Processed Spectral Data<<<<<
177.47	2205.66
177.69	2205.66
177.91	2205.66
178.13	2174.94
178.36	2152.42
178.58	2736.09
178.80	2863.06
179.02	2803.67
179.24	2815.96
179.46	2625.50
179.68	2674.65
179.90	3035.09
180.13	3012.56
180.35	2533.34
180.57	2662.36
180.79	3137.49
181.01	2973.65
181.23	2686.94
181.45	2801.62
181.67	3092.43
181.90	3145.68
182.12	2701.27
182.34	2533.34
182.56	3071.95
182.78	3098.58
183.00	2625.50
183.22	2705.37
183.44	2666.46
183.66	3450.83
183.89	2781.14
184.11	2721.75
184.33	3094.48
184.55	3067.86
184.77	2721.75
184.99	2680.79
185.21	2918.36
185.43	3479.50
185.65	2734.04
185.87	2600.92
186.10	3379.15
186.32	3311.57
186.54	2709.46
186.76	2871.25
186.98	3157.97
187.20	2973.65
187.42	2783.19
187.64	2674.65
187.86	3090.38
188.08	3139.54
188.30	2633.69
188.52	2707.41
188.75	3223.50
188.97	3178.45
189.19	2592.73
189.41	2723.80
189.63	3114.96
189.85	2990.03
190.07	2619.35
190.29	2625.50
190.51	3012.56
190.73	2721.75
190.95	2908.12
191.17	2758.61
191.39	2697.17
191.61	2951.12
191.84	2742.23
192.06	2838.48
192.28	2742.23
192.50	3528.65
192.72	2772.95
192.94	2713.56
193.16	3155.92
193.38	3063.76
193.60	2617.30
193.82	2846.68
194.04	3112.91
194.26	3090.38
194.48	2658.26
194.70	2711.51
194.92	2844.63
195.14	3102.67
195.36	2664.41
195.58	2734.04
195.80	2983.89
196.02	2842.58
196.24	2723.80
196.46	2727.89
196.69	2926.55
196.91	3487.69
197.13	2781.14
197.35	2775.00
197.57	3205.07
197.79	3039.19
198.01	2748.37
198.23	2725.85
198.45	3018.71
198.67	2811.86
198.89	2521.05
199.11	2844.63
199.33	2850.77
199.55	2682.84
199.77	2615.26
199.99	2795.48
200.21	2873.30
200.43	3039.19
200.65	2596.82
200.87	2525.15
201.09	3041.23
201.31	2961.36
201.53	2645.98
201.75	2770.90
201.97	3102.67
202.19	3024.85
202.41	2670.55
202.63	2828.24
202.85	3096.53
203.07	3024.85
203.29	2785.24
203.51	2519.00
203.73	2742.23
203.95	3495.88
204.17	2668.50
204.39	2793.43
204.61	2832.34
204.83	2922.45
205.05	2858.96
205.27	2703.32
205.49	3344.33
205.71	3000.27
205.93	2602.97
206.15	2551.77
206.37	3000.27
206.59	2953.17
206.81	2625.50
207.03	2578.39
207.25	2844.63
207.47	3008.47
207.69	2621.40
207.91	2879.44
208.13	3256.27
208.34	2906.07
208.56	2633.69
208.78	2676.70
209.00	2924.50
209.22	2850.77
209.44	2828.24
209.66	2611.16
209.88	2959.31
210.10	2934.74
210.32	2662.36
210.54	2738.13
210.76	2983.89
210.98	3239.89
211.20	2523.10
211.42	2744.28
211.64	3268.56
211.86	3084.24
212.08	2809.81
212.30	2688.98
212.52	2955.22
212.74	3024.85
212.96	2758.61
213.17	2736.09
213.39	3055.57
213.61	3297.23
213.83	2645.98
214.05	2590.68
214.27	3100.62
214.49	2844.63
214.71	2680.79
214.93	2779.09
215.15	3028.95
215.37	3149.78
215.59	2578.39
215.81	2803.67
216.03	3184.59
216.24	2957.27
216.46	2695.13
216.68	2734.04
216.90	3143.63
217.12	3143.63
217.34	2627.54
217.56	2818.00
217.78	3211.22
218.00	3041.23
218.22	2746.33
218.44	2731.99
218.66	2990.03
218.87	3428.30
219.09	2684.89
219.31	2707.41
219.53	3045.33
219.75	2940.88
219.97	2723.80
220.19	2725.85
220.41	2938.84
220.63	3356.62
220.85	2684.89
221.06	2697.17
221.28	3168.21
221.50	3049.43
221.72	2713.56
221.94	2635.74
222.16	2985.94
222.38	3055.57
222.60	2688.98
222.82	2742.23
223.03	3123.15
223.25	2746.33
223.47	2709.46
223.69	2893.78
223.91	3147.73
224.13	3014.61
224.35	2555.86
224.57	2852.82
224.78	3147.73
225.00	2813.91
225.22	2725.85
225.44	2674.65
225.66	3155.92
225.88	2916.31
226.10	2746.33
226.32	2740.18
226.53	3205.07
226.75	2936.79
226.97	2705.37
227.19	2699.22
227.41	2889.68
227.63	2891.73
227.85	2521.05
228.06	2723.80
228.28	3059.67
228.50	3186.64
228.72	2555.86
228.94	2645.98
229.16	2760.66
229.37	2869.20
229.59	2643.93
229.81	2904.02
230.03	3026.90
230.25	2828.24
230.47	2510.81
230.69	2645.98
230.90	3110.86
231.12	2912.21
231.34	2838.48
231.56	2799.57
231.78	2899.92
232.00	3000.27
232.21	2699.22
232.43	2586.58
232.65	2619.35
232.87	3084.24
233.09	2617.30
233.30	2637.78
233.52	3209.17
233.74	2926.55
233.96	2600.92
234.18	2887.64
234.40	2971.60
234.61	3393.48
234.83	2535.39
235.05	2680.79
235.27	3399.63
235.49	3194.83
235.70	2615.26
235.92	2734.04
236.14	3112.91
236.36	3342.28
236.58	2621.40
236.79	2758.61
237.01	2953.17
237.23	2947.03
237.45	2914.26
237.67	2693.08
237.88	2975.70
238.10	3303.37
238.32	2680.79
238.54	2660.31
238.76	2932.69
238.97	2856.92
239.19	2572.25
239.41	2709.46
239.63	3160.02
239.85	2844.63
240.06	2721.75
240.28	2654.17
240.50	3143.63
240.72	2998.23
240.93	2625.50
241.15	2740.18
241.37	2957.27
241.59	3096.53
241.81	2721.75
242.02	2738.13
242.24	3008.47
242.46	3207.12
242.68	2549.72
242.89	2623.45
243.11	3196.88
243.33	3002.32
243.55	2652.12
243.76	2672.60
243.98	2838.48
244.20	3033.04
244.42	2660.31
244.64	2707.41
244.85	2725.85
245.07	2822.10
245.29	2660.31
245.51	2738.13
245.72	2996.18
245.94	3200.98
246.16	2756.57
246.38	2770.90
246.59	2901.97
246.81	2881.49
247.03	2676.70
247.24	2519.00
247.46	2873.30
247.68	2953.17
247.90	2596.82
248.11	2584.54
248.33	3080.14
248.55	3014.61
248.77	2797.53
248.98	2846.68
249.20	3192.78
249.42	3008.47
249.64	2641.88
249.85	2590.68
250.07	2906.07
250.29	3157.97
250.50	2674.65
250.72	2639.83
250.94	3037.14
251.16	3364.81
251.37	2729.94
251.59	2787.29
251.81	3037.14
252.02	3260.37
252.24	2549.72
252.46	2807.77
252.68	2885.59
252.89	2910.16
253.11	2531.29
253.33	2785.24
253.54	3266.51
253.76	2805.72
253.98	2676.70
254.20	2686.94
254.41	2830.29
254.63	2981.84
254.85	2551.77
255.06	2676.70
255.28	3092.43
255.50	3020.75
255.71	2627.54
255.93	2572.25
256.15	2977.75
256.36	3055.57
256.58	2547.67
256.80	2637.78
257.02	2930.64
257.23	2838.48
257.45	2738.13
257.67	2717.65
257.88	2922.45
258.10	3129.30
258.32	2678.74
258.53	2836.44
258.75	3307.47
258.97	2811.86
259.18	2641.88
259.40	2609.11
259.62	3246.03
259.83	3190.74
260.05	2709.46
260.27	3485.64
260.48	3135.44
260.70	2881.49
260.92	2582.49
261.13	2701.27
261.35	3012.56
261.57	3071.95
261.78	2625.50
262.00	2613.21
262.22	3047.38
262.43	2826.20
262.65	2680.79
262.86	2654.17
263.08	3420.11
263.30	2951.12
263.51	2592.73
263.73	2570.20
263.95	3317.71
264.16	2836.44
264.38	2596.82
264.60	2596.82
264.81	2916.31
265.03	3082.19
265.25	3035.09
265.46	2586.58
265.68	3192.78
265.89	3049.43
266.11	2643.93
266.33	2658.26
266.54	3295.18
266.76	3110.86
266.98	2795.48
267.19	2818.00
267.41	3141.58
267.62	2998.23
267.84	2500.57
268.06	2803.67
268.27	2924.50
268.49	3149.78
268.70	2695.13
268.92	2709.46
269.14	2836.44
269.35	2783.19
269.57	2799.57
269.79	2680.79
270.00	2861.01
270.22	3231.69
270.43	2525.15
270.65	2500.57
270.87	3051.47
271.08	3065.81
271.30	2713.56
271.51	2775.00
271.73	3182.54
271.95	3194.83
272.16	2664.41
272.38	2754.52
272.59	2912.21
272.81	3018.71
273.02	2602.97
273.24	2752.47
273.46	3178.45
273.67	2871.25
273.89	2568.15
274.10	2660.31
274.32	3153.87
274.54	3012.56
274.75	2740.18
274.97	2787.29
275.18	3071.95
275.40	3045.33
275.61	2742.23
275.83	2803.67
276.05	2742.23
276.26	2906.07
276.48	2734.04
276.69	2840.53
276.91	2838.48
277.12	3178.45
277.34	2869.20
277.55	2926.55
277.77	3071.95
277.99	2854.87
278.20	2754.52
278.42	2688.98
278.63	2895.83
278.85	2848.72
279.06	2707.41
279.28	2904.02
279.49	3082.19
279.71	3121.10
279.93	2879.44
280.14	2813.91
280.36	2885.59
280.57	3172.30
280.79	2848.72
281.00	2686.94
281.22	2881.49
281.43	3137.49
281.65	2615.26
281.86	2668.50
282.08	3037.14
282.29	3317.71
282.51	2664.41
282.73	2635.74
282.94	2721.75
283.16	3123.15
283.37	2838.48
283.59	2820.05
283.80	3127.25
284.02	3008.47
284.23	2830.29
284.45	2873.30
284.66	2807.77
284.88	2820.05
285.09	2711.51
285.31	2893.78
285.52	3114.96
285.74	2684.89
285.95	2922.45
286.17	2803.67
286.38	3188.69
286.60	2881.49
286.81	2736.09
287.03	2822.10
287.24	2916.31
287.46	3065.81
287.67	2875.35
287.89	2963.41
288.10	2994.13
288.32	2944.98
288.53	2940.88
288.75	2789.33
288.96	3106.77
289.18	2910.16
289.39	2738.13
289.61	2811.86
289.82	3424.20
290.04	3336.14
290.25	2707.41
290.47	2811.86
290.68	2871.25
290.90	3174.35
291.11	2621.40
291.33	2914.26
291.54	2842.58
291.76	2916.31
291.97	2834.39
292.18	2836.44
292.40	2961.36
292.61	2901.97
292.83	3082.19
293.04	2854.87
293.26	3061.71
293.47	2922.45
293.69	2684.89
293.90	2715.61
294.12	3196.88
294.33	2969.55
294.55	2818.00
294.76	2942.93
294.97	3237.84
295.19	3409.87
295.40	2848.72
295.62	2928.60
295.83	3141.58
296.05	2854.87
296.26	2942.93
296.48	2770.90
296.69	2947.03
296.90	2981.84
297.12	2944.98
297.33	2979.79
297.55	2955.22
297.76	3059.67
297.98	2901.97
298.19	2934.74
298.41	2944.98
298.62	2844.63
298.83	2983.89
299.05	2936.79
299.26	2963.41
299.48	2840.53
299.69	2916.31
299.90	2848.72
300.12	2791.38
300.33	3092.43
300.55	2846.68
300.76	2901.97
300.98	2871.25
301.19	3102.67
301.40	2768.85
301.62	2795.48
301.83	3098.58
302.05	3063.76
302.26	2785.24
302.47	2858.96
302.69	2742.23
302.90	3041.23
303.12	2641.88
303.33	2865.11
303.54	3356.62
303.76	2901.97
303.97	2824.15
304.19	2953.17
304.40	2795.48
304.61	3024.85
304.83	2922.45
305.04	2877.40
305.26	3030.99
305.47	2869.20
305.68	2850.77
305.90	2691.03
306.11	3209.17
306.33	2955.22
306.54	2662.36
306.75	2822.10
306.97	2768.85
307.18	2873.30
307.39	2809.81
307.61	2815.96
307.82	2920.40
308.04	3098.58
308.25	2727.89
308.46	2922.45
308.68	3035.09
308.89	2967.51
309.10	2926.55
309.32	2854.87
309.53	2987.99
309.74	3061.71
309.96	2709.46
310.17	2938.84
310.39	2930.64
310.60	3057.62
310.81	2869.20
311.03	2650.07
311.24	3084.24
311.45	2973.65
311.67	3016.66
311.88	2904.02
312.09	2961.36
312.31	2916.31
312.52	2838.48
312.73	2791.38
312.95	2775.00
313.16	2865.11
313.37	3004.37
313.59	2994.13
313.80	3164.11
314.01	3346.38
314.23	2760.66
314.44	2715.61
314.65	2795.48
314.87	2803.67
315.08	2752.47
315.29	2703.32
315.51	2764.76
315.72	2707.41
315.93	2918.36
316.15	2846.68
316.36	2901.97
316.57	2963.41
316.79	2805.72
317.00	2707.41
317.21	3135.44
317.43	2811.86
317.64	2791.38
317.85	2738.13
318.07	2818.00
318.28	2963.41
318.49	2928.60
318.70	3065.81
318.92	3098.58
319.13	3020.75
319.34	2951.12
319.56	2850.77
319.77	3033.04
319.98	3172.30
320.20	3008.47
320.41	2887.64
320.62	3074.00
320.83	2754.52
321.05	2957.27
321.26	2793.43
321.47	2938.84
321.69	3155.92
321.90	2775.00
322.11	2729.94
322.32	3026.90
322.54	3311.57
322.75	2820.05
322.96	3610.57
323.18	2785.24
323.39	2725.85
323.60	2752.47
323.81	2865.11
324.03	2912.21
324.24	2973.65
324.45	2891.73
324.66	2744.28
324.88	3131.34
325.09	3180.50
325.30	2830.29
325.52	2740.18
325.73	3078.10
325.94	2904.02
326.15	2736.09
326.37	2664.41
326.58	3147.73
326.79	3198.93
327.00	2740.18
327.22	2729.94
327.43	2994.13
327.64	2777.05
327.85	2834.39
328.07	2910.16
328.28	3243.98
328.49	2922.45
328.70	2865.11
328.92	2785.24
329.13	2910.16
329.34	3102.67
329.55	3047.38
329.76	2936.79
329.98	2967.51
330.19	3246.03
330.40	2893.78
330.61	2807.77
330.83	3059.67
331.04	2818.00
331.25	2930.64
331.46	2811.86
331.68	2729.94
331.89	3172.30
332.10	2842.58
332.31	2715.61
332.52	2979.79
332.74	3071.95
332.95	2662.36
333.16	2742.23
333.37	3170.26
333.58	2949.08
333.80	2822.10
334.01	2600.92
334.22	3010.51
334.43	2844.63
334.64	2697.17
334.86	2783.19
335.07	2861.01
335.28	3260.37
335.49	2723.80
335.70	2910.16
335.92	3254.22
336.13	3438.54
336.34	2861.01
336.55	2789.33
336.76	3022.80
336.98	2668.50
337.19	2766.81
337.40	2944.98
337.61	3413.96
337.82	2897.88
338.04	2926.55
338.25	2676.70
338.46	2932.69
338.67	2951.12
338.88	2697.17
339.09	2815.96
339.31	2914.26
339.52	2818.00
339.73	2656.22
339.94	2877.40
340.15	3088.34
340.36	2942.93
340.58	2797.53
340.79	2666.46
341.00	3149.78
341.21	2754.52
341.42	2998.23
341.63	2832.34
341.85	3182.54
342.06	3026.90
342.27	2772.95
342.48	2887.64
342.69	2813.91
342.90	3020.75
343.12	3090.38
343.33	2709.46
343.54	3127.25
343.75	3200.98
343.96	2867.16
344.17	2670.55
344.38	2969.55
344.60	2846.68
344.81	2723.80
345.02	2826.20
345.23	3127.25
345.44	3348.43
345.65	2836.44
345.86	2861.01
346.07	2971.60
346.29	2899.92
346.50	2875.35
346.71	2863.06
346.92	3149.78
347.13	3381.20
347.34	2883.54
347.55	2736.09
347.76	3020.75
347.98	2682.84
348.19	2854.87
348.40	3053.52
348.61	2965.46
348.82	3205.07
349.03	2824.15
349.24	2748.37
349.45	3276.75
349.66	2648.02
349.88	2813.91
350.09	2750.42
350.30	3264.46
350.51	3192.78
350.72	2969.55
350.93	2789.33
351.14	2912.21
351.35	3071.95
351.56	2891.73
351.77	2844.63
351.99	3010.51
352.20	3223.50
352.41	2971.60
352.62	2605.02
352.83	2973.65
353.04	3018.71
353.25	2754.52
353.46	2844.63
353.67	3162.06
353.88	2731.99
354.09	2756.57
354.30	2795.48
354.52	3176.40
354.73	2975.70
354.94	2807.77
355.15	2858.96
355.36	3303.37
355.57	2983.89
355.78	2746.33
355.99	2756.57
356.20	2928.60
356.41	3162.06
356.62	2955.22
356.83	2824.15
357.04	3291.09
357.25	2684.89
357.46	2742.23
357.68	2645.98
357.89	2822.10
358.10	2893.78
358.31	2713.56
358.52	2834.39
358.73	2791.38
358.94	2818.00
359.15	2746.33
359.36	2848.72
359.57	2953.17
359.78	2922.45
359.99	2858.96
360.20	2738.13
360.41	2996.18
360.62	3106.77
360.83	2832.34
361.04	2838.48
361.25	3039.19
361.46	3352.52
361.67	2916.31
361.88	2875.35
362.09	3139.54
362.30	3026.90
362.51	2705.37
362.72	2867.16
362.93	3088.34
363.14	3033.04
363.35	2899.92
363.56	2713.56
363.78	3102.67
363.99	3250.13
364.20	2779.09
364.41	2811.86
364.62	3231.69
364.83	2967.51
365.04	2740.18
365.25	2895.83
365.46	3309.52
365.67	2822.10
365.88	2869.20
366.09	2748.37
366.30	2930.64
366.51	3039.19
366.72	2752.47
366.93	2754.52
367.14	3004.37
367.35	3145.68
367.56	2760.66
367.77	2951.12
367.98	2963.41
368.18	3033.04
368.39	2883.54
368.60	2850.77
368.81	3117.01
369.02	3057.62
369.23	2824.15
369.44	2678.74
369.65	2852.82
369.86	2979.79
370.07	2889.68
370.28	2688.98
370.49	3094.48
370.70	3045.33
370.91	2721.75
371.12	2592.73
371.33	3168.21
371.54	2889.68
371.75	2949.08
371.96	2574.30
372.17	2957.27
372.38	3026.90
372.59	2772.95
372.80	2750.42
373.01	2979.79
373.22	2992.08
373.43	2828.24
373.64	2721.75
373.85	3110.86
374.06	3289.04
374.26	2953.17
374.47	2940.88
374.68	3194.83
374.89	2934.74
375.10	2861.01
375.31	2910.16
375.52	3045.33
375.73	3035.09
375.94	2611.16
376.15	2920.40
376.36	2879.44
376.57	2858.96
376.78	2840.53
376.99	2881.49
377.20	3184.59
377.40	2818.00
377.61	3063.76
377.82	2738.13
378.03	3248.08
378.24	3114.96
378.45	2949.08
378.66	2891.73
378.87	2688.98
379.08	2731.99
379.29	2881.49
379.50	2959.31
379.71	3069.91
379.91	3045.33
380.12	2836.44
380.33	2854.87
380.54	3022.80
380.75	2961.36
380.96	2723.80
381.17	2899.92
381.38	3010.51
381.59	3000.27
381.80	2793.43
382.00	2955.22
382.21	3082.19
382.42	3313.61
382.63	3168.21
382.84	2922.45
383.05	3129.30
383.26	3250.13
383.47	2934.74
383.68	2781.14
383.88	3112.91
384.09	3000.27
384.30	3020.75
384.51	2916.31
384.72	2914.26
384.93	2838.48
385.14	2863.06
385.35	2959.31
385.55	2703.32
385.76	3219.41
385.97	2795.48
386.18	2625.50
386.39	2832.34
386.60	2865.11
386.81	2658.26
387.02	2680.79
387.22	2813.91
387.43	3049.43
387.64	2992.08
387.85	3053.52
388.06	3045.33
388.27	4048.83
388.48	7272.34
388.68	10790.75
388.89	13207.35
389.10	14473.00
389.31	13870.89
389.52	11204.44
389.73	9553.77
389.93	8755.07
390.14	8023.94
390.35	7286.67
390.56	6567.84
390.77	5502.89
390.98	4304.83
391.18	3702.73
391.39	3373.00
391.60	3006.42
391.81	3049.43
392.02	2830.29
392.23	3399.63
392.43	3028.95
392.64	2906.07
392.85	2912.21
393.06	3280.85
393.27	2983.89
393.47	2861.01
393.68	2908.12
393.89	2996.18
394.10	3188.69
394.31	2787.29
394.52	2826.20
394.72	2795.48
394.93	3227.60
395.14	2768.85
395.35	2975.70
395.56	2916.31
395.76	2990.03
395.97	2801.62
396.18	2916.31
396.39	2996.18
396.60	3502.03
396.80	3241.93
397.01	3139.54
397.22	3149.78
397.43	3172.30
397.64	2908.12
397.84	2885.59
398.05	3317.71
398.26	3059.67
398.47	2998.23
398.67	3008.47
398.88	2969.55
399.09	3108.82
399.30	2789.33
399.51	2910.16
399.71	2879.44
399.92	2901.97
400.13	2963.41
400.34	2811.86
400.54	3069.91
400.75	3258.32
400.96	3012.56
401.17	3127.25
401.37	3186.64
401.58	2926.55
401.79	2797.53
402.00	2854.87
402.21	3448.78
402.41	3100.62
402.62	3096.53
402.83	3264.46
403.04	3332.05
403.24	3696.58
403.45	2922.45
403.66	3135.44
403.87	3209.17
404.07	3307.47
404.28	3016.66
404.49	3047.38
404.70	3094.48
404.90	3139.54
405.11	2830.29
405.32	2936.79
405.52	2901.97
405.73	2885.59
405.94	2801.62
406.15	2852.82
406.35	3063.76
406.56	3084.24
406.77	2869.20
406.98	2818.00
407.18	2897.88
407.39	3192.78
407.60	2828.24
407.80	2959.31
408.01	2787.29
408.22	3106.77
408.43	2822.10
408.63	2875.35
408.84	3078.10
409.05	3123.15
409.25	2717.65
409.46	2848.72
409.67	2910.16
409.88	2938.84
410.08	2908.12
410.29	2881.49
410.50	3203.02
410.70	3086.29
410.91	2781.14
411.12	2904.02
411.32	3012.56
411.53	2844.63
411.74	2850.77
411.95	2932.69
412.15	3033.04
412.36	3121.10
412.57	2955.22
412.77	2983.89
412.98	2959.31
413.19	2951.12
413.39	2883.54
413.60	2852.82
413.81	3164.11
414.01	2777.05
414.22	2865.11
414.43	3022.80
414.63	2877.40
414.84	3207.12
415.05	2873.30
415.25	2781.14
415.46	3059.67
415.67	2873.30
415.87	2865.11
416.08	2807.77
416.29	2867.16
416.49	3176.40
416.70	2801.62
416.91	2871.25
417.11	2971.60
417.32	3184.59
417.53	2963.41
417.73	2934.74
417.94	2987.99
418.15	2957.27
418.35	2897.88
418.56	2934.74
418.77	3481.55
418.97	3000.27
419.18	2899.92
419.38	2529.24
419.59	2957.27
419.80	3217.36
420.00	2801.62
420.21	2875.35
420.42	3198.93
420.62	3108.82
420.83	2826.20
421.04	2797.53
421.24	2924.50
421.45	3106.77
421.65	2887.64
421.86	2840.53
422.07	3194.83
422.27	3119.06
422.48	2805.72
422.69	2740.18
422.89	2944.98
423.10	2930.64
423.30	2848.72
423.51	2932.69
423.72	3110.86
423.92	3035.09
424.13	2738.13
424.33	2897.88
424.54	3174.35
424.75	3049.43
424.95	3026.90
425.16	2779.09
425.36	2889.68
425.57	3121.10
425.78	3020.75
425.98	3014.61
426.19	2961.36
426.39	2801.62
426.60	2955.22
426.81	2940.88
427.01	2967.51
427.22	2852.82
427.42	2666.46
427.63	2754.52
427.83	3076.05
428.04	3286.99
428.25	2957.27
428.45	3010.51
428.66	3147.73
428.86	3012.56
429.07	2822.10
429.28	2867.16
429.48	2992.08
429.69	2885.59
429.89	2844.63
430.10	2731.99
430.30	3090.38
430.51	3160.02
430.71	2758.61
430.92	2807.77
431.13	2873.30
431.33	3026.90
431.54	2891.73
431.74	2998.23
431.95	3342.28
432.15	2748.37
432.36	2772.95
432.56	2938.84
432.77	3375.05
432.98	3256.27
433.18	2869.20
433.39	2750.42
433.59	2961.36
433.80	3282.89
434.00	3074.00
434.21	2854.87
434.41	2840.53
434.62	3430.35
434.82	2723.80
435.03	2744.28
435.23	3016.66
435.44	2709.46
435.64	2789.33
435.85	2908.12
436.06	3133.39
436.26	3192.78
436.47	2904.02
436.67	2803.67
436.88	2957.27
437.08	3157.97
437.29	2881.49
437.49	3022.80
437.70	3184.59
437.90	2871.25
438.11	3000.27
438.31	2975.70
438.52	3180.50
438.72	3155.92
438.93	3239.89
439.13	2887.64
439.34	3112.91
439.54	2904.02
439.75	2889.68
439.95	2893.78
440.16	2807.77
440.36	2992.08
440.57	2854.87
440.77	2987.99
440.98	2906.07
441.18	3043.28
441.39	2815.96
441.59	2715.61
441.80	3397.58
442.00	3008.47
442.21	2934.74
442.41	2738.13
442.62	3215.31
442.82	2910.16
443.02	2848.72
443.23	2848.72
443.43	2908.12
443.64	3213.26
443.84	2699.22
444.05	2926.55
444.25	3000.27
444.46	2901.97
444.66	2742.23
444.87	3051.47
445.07	2768.85
445.28	2920.40
445.48	3069.91
445.69	2942.93
445.89	3436.49
446.09	2951.12
446.30	3143.63
446.50	3258.32
446.71	4784.06
446.91	5816.23
447.12	6469.53
447.32	6932.37
447.53	6764.44
447.73	5779.37
447.93	4997.04
448.14	4741.05
448.34	4818.87
448.55	4100.03
448.75	4034.50
448.96	3839.94
449.16	3606.47
449.36	3442.64
449.57	3104.72
449.77	2846.68
449.98	2914.26
450.18	3022.80
450.39	2824.15
450.59	2975.70
450.79	3117.01
451.00	2914.26
451.20	3024.85
451.41	2805.72
451.61	3106.77
451.81	2969.55
452.02	2840.53
452.22	2871.25
452.43	2854.87
452.63	2873.30
452.84	2873.30
453.04	2676.70
453.24	3080.14
453.45	2918.36
453.65	2881.49
453.86	2949.08
454.06	3065.81
454.26	2873.30
454.47	2758.61
454.67	3039.19
454.87	3047.38
455.08	2893.78
455.28	2936.79
455.49	2947.03
455.69	2742.23
455.89	3311.57
456.10	2940.88
456.30	2813.91
456.51	3098.58
456.71	3033.04
456.91	2949.08
457.12	2797.53
457.32	3008.47
457.52	2883.54
457.73	2916.31
457.93	3033.04
458.14	2815.96
458.34	2705.37
458.54	2897.88
458.75	2748.37
458.95	3192.78
459.15	3076.05
459.36	2901.97
459.56	2879.44
459.76	3538.89
459.97	2990.03
460.17	2893.78
460.37	3037.14
460.58	2981.84
460.78	3137.49
460.99	2881.49
461.19	2879.44
461.39	2895.83
461.60	2873.30
461.80	2893.78
462.00	2734.04
462.21	2996.18
462.41	2813.91
462.61	2742.23
462.82	2709.46
463.02	3059.67
463.22	2959.31
463.43	2977.75
463.63	2772.95
463.83	3211.22
464.04	3037.14
464.24	2856.92
464.44	2770.90
464.64	3037.14
464.85	3160.02
465.05	2912.21
465.25	2791.38
465.46	2887.64
465.66	3141.58
465.86	2912.21
466.07	2838.48
466.27	2938.84
466.47	2756.57
466.68	2668.50
466.88	2965.46
467.08	3082.19
467.29	3129.30
467.49	2883.54
467.69	2926.55
467.89	3129.30
468.10	2926.55
468.30	2924.50
468.50	2983.89
468.71	3112.91
468.91	2746.33
469.11	3061.71
469.31	2932.69
469.52	2867.16
469.72	3282.89
469.92	3104.72
470.13	2856.92
470.33	3043.28
470.53	3000.27
470.73	3203.02
470.94	3485.64
471.14	3651.53
471.34	4116.42
471.54	3778.50
471.75	3502.03
471.95	3381.20
472.15	3397.58
472.36	3358.67
472.56	3252.17
472.76	3393.48
472.96	3332.05
473.17	3100.62
473.37	2987.99
473.57	2924.50
473.77	3114.96
473.98	2951.12
474.18	2736.09
474.38	3506.12
474.58	2930.64
474.79	2701.27
474.99	3028.95
475.19	3241.93
475.39	2850.77
475.60	2840.53
475.80	2838.48
476.00	3065.81
476.20	2922.45
476.41	2893.78
476.61	2926.55
476.81	3137.49
477.01	2893.78
477.21	3141.58
477.42	2977.75
477.62	2846.68
477.82	3082.19
478.02	2764.76
478.23	2852.82
478.43	2840.53
478.63	2901.97
478.83	2883.54
479.03	2899.92
479.24	3221.45
479.44	3338.19
479.64	2838.48
479.84	2697.17
480.04	2928.60
480.25	3147.73
480.45	2766.81
480.65	2811.86
480.85	3297.23
481.06	2867.16
481.26	2938.84
481.46	2912.21
481.66	3127.25
481.86	2850.77
482.06	2981.84
482.27	2926.55
482.47	2936.79
482.67	2947.03
482.87	2953.17
483.07	2938.84
483.28	2871.25
483.48	2863.06
483.68	2867.16
483.88	2787.29
484.08	2598.87
484.29	2815.96
484.49	2910.16
484.69	2613.21
484.89	3145.68
485.09	3223.50
485.29	2883.54
485.50	3002.32
485.70	2893.78
485.90	3231.69
486.10	2901.97
486.30	2856.92
486.50	3151.82
486.71	2981.84
486.91	2965.46
487.11	2965.46
487.31	2770.90
487.51	3100.62
487.71	2787.29
487.91	2809.81
488.12	2854.87
488.32	2545.63
488.52	2834.39
488.72	2658.26
488.92	2947.03
489.12	3149.78
489.32	3020.75
489.53	2891.73
489.73	2719.70
489.93	3368.91
490.13	2809.81
490.33	2680.79
490.53	3061.71
490.73	3289.04
490.94	2705.37
491.14	2947.03
491.34	3098.58
491.54	3149.78
491.74	3766.21
491.94	4196.29
492.14	4630.46
492.34	4622.27
492.54	4347.84
492.75	3813.32
492.95	3905.48
493.15	3768.26
493.35	3553.23
493.55	3385.29
493.75	3297.23
493.95	3413.96
494.15	3121.10
494.35	2942.93
494.56	2916.31
494.76	2942.93
494.96	2947.03
495.16	2805.72
495.36	2998.23
495.56	2967.51
495.76	2910.16
495.96	2869.20
496.16	2818.00
496.36	3315.66
496.56	2830.29
496.77	2924.50
496.97	2922.45
497.17	3162.06
497.37	2629.59
497.57	3000.27
497.77	3090.38
497.97	2756.57
498.17	2940.88
498.37	2842.58
498.57	3243.98
498.77	2848.72
498.97	2965.46
499.17	3190.74
499.38	2916.31
499.58	3155.92
499.78	3092.43
499.98	3004.37
500.18	2979.79
500.38	2873.30
500.58	3004.37
500.78	3405.77
500.98	5519.28
501.18	7270.29
501.38	8703.87
501.58	9717.61
501.78	9690.99
501.98	8064.90
502.18	6621.08
502.38	5750.70
502.58	5570.48
502.78	4951.99
502.98	4782.01
503.18	4585.40
503.38	4394.94
503.59	3778.50
503.79	3655.62
503.99	3323.85
504.19	3475.40
504.39	3424.20
504.59	3250.13
504.79	3270.61
504.99	3483.59
505.19	3239.89
505.39	3018.71
505.59	3246.03
505.79	3274.70
505.99	3180.50
506.19	2922.45
506.39	3143.63
506.59	2901.97
506.79	2918.36
506.99	3053.52
507.19	2852.82
507.39	2965.46
507.59	2760.66
507.79	2717.65
507.99	2807.77
508.19	2951.12
508.39	2961.36
508.59	2901.97
508.79	3018.71
508.99	3354.57
509.19	2891.73
509.39	2973.65
509.59	2736.09
509.79	2906.07
509.99	3043.28
510.19	2969.55
510.39	2953.17
510.59	2985.94
510.79	2867.16
510.99	2748.37
511.19	2795.48
511.39	3291.09
511.59	3221.45
511.79	2994.13
511.99	2846.68
512.19	3231.69
512.38	3053.52
512.58	2805.72
512.78	2824.15
512.98	3176.40
513.18	3182.54
513.38	2727.89
513.58	2899.92
513.78	2961.36
513.98	2953.17
514.18	2799.57
514.38	2815.96
514.58	3063.76
514.78	2877.40
514.98	2797.53
515.18	2930.64
515.38	2768.85
515.58	3289.04
515.78	2846.68
515.98	2840.53
516.18	3063.76
516.38	2893.78
516.57	2848.72
516.77	2803.67
516.97	3121.10
517.17	2926.55
517.37	2617.30
517.57	2842.58
517.77	3033.04
517.97	2879.44
518.17	2932.69
518.37	2762.71
518.57	2885.59
518.77	2979.79
518.97	2830.29
519.16	2957.27
519.36	3203.02
519.56	2914.26
519.76	2873.30
519.96	2918.36
520.16	3258.32
520.36	2775.00
520.56	3026.90
520.76	2807.77
520.96	2852.82
521.16	3178.45
521.35	3071.95
521.55	3047.38
521.75	3094.48
521.95	2895.83
522.15	2789.33
522.35	2783.19
522.55	2912.21
522.75	3125.20
522.95	2775.00
523.14	2756.57
523.34	3108.82
523.54	2856.92
523.74	3026.90
523.94	2926.55
524.14	2775.00
524.34	3096.53
524.54	3055.57
524.73	2885.59
524.93	3057.62
525.13	3030.99
525.33	2705.37
525.53	3071.95
525.73	3114.96
525.93	2979.79
526.13	2873.30
526.32	2852.82
526.52	3182.54
526.72	3139.54
526.92	2861.01
527.12	2777.05
527.32	2787.29
527.52	3047.38
527.71	2938.84
527.91	2918.36
528.11	2801.62
528.31	2936.79
528.51	2779.09
528.71	2885.59
528.90	3053.52
529.10	3170.26
529.30	2975.70
529.50	2551.77
529.70	3119.06
529.90	2879.44
530.09	2916.31
530.29	2742.23
530.49	2826.20
530.69	3442.64
530.89	3004.37
531.09	2910.16
531.28	2881.49
531.48	3233.74
531.68	2856.92
531.88	2932.69
532.08	3153.87
532.28	2879.44
532.47	2973.65
532.67	3008.47
532.87	3184.59
533.07	2891.73
533.27	2877.40
533.46	2922.45
533.66	2940.88
533.86	2922.45
534.06	2811.86
534.26	2811.86
534.45	2926.55
534.65	3092.43
534.85	2953.17
535.05	2861.01
535.25	3182.54
535.44	2717.65
535.64	2899.92
535.84	2805.72
536.04	2858.96
536.24	2977.75
536.43	2797.53
536.63	2887.64
536.83	3033.04
537.03	2897.88
537.22	2740.18
537.42	2688.98
537.62	3047.38
537.82	2852.82
538.02	2951.12
538.21	2977.75
538.41	3532.75
538.61	3145.68
538.81	2856.92
539.00	2951.12
539.20	2703.32
539.40	2947.03
539.60	2922.45
539.79	3030.99
539.99	3014.61
540.19	2791.38
540.39	2789.33
540.58	2901.97
540.78	3246.03
540.98	3043.28
541.18	3186.64
541.37	2873.30
541.57	2977.75
541.77	3059.67
541.97	2807.77
542.16	2709.46
542.36	2908.12
542.56	2951.12
542.76	3106.77
542.95	2883.54
543.15	3059.67
543.35	3207.12
543.54	2746.33
543.74	2799.57
543.94	3282.89
544.14	2906.07
544.33	2963.41
544.53	2881.49
544.73	2899.92
544.93	2940.88
545.12	2848.72
545.32	2865.11
545.52	2897.88
545.71	2805.72
545.91	2824.15
546.11	2777.05
546.30	2865.11
546.50	3002.32
546.70	2955.22
546.90	2895.83
547.09	2664.41
547.29	3000.27
547.49	3020.75
547.68	2820.05
547.88	2899.92
548.08	3149.78
548.27	3313.61
548.47	2834.39
548.67	2949.08
548.87	3069.91
549.06	2764.76
549.26	2813.91
549.46	3008.47
549.65	2865.11
549.85	2893.78
550.05	2920.40
550.24	2795.48
550.44	2985.94
550.64	2906.07
550.83	2965.46
551.03	3139.54
551.23	3217.36
551.42	2901.97
551.62	3014.61
551.82	2932.69
552.01	2940.88
552.21	3129.30
552.41	2928.60
552.60	3231.69
552.80	3016.66
553.00	2852.82
553.19	2879.44
553.39	3301.33
553.59	2803.67
553.78	2981.84
553.98	2955.22
554.17	2701.27
554.37	3047.38
554.57	2924.50
554.76	2656.22
554.96	2887.64
555.16	3018.71
555.35	2910.16
555.55	2965.46
555.75	2957.27
555.94	3149.78
556.14	2676.70
556.33	2959.31
556.53	2944.98
556.73	2897.88
556.92	2932.69
557.12	2813.91
557.32	3391.44
557.51	3129.30
557.71	2914.26
557.90	2996.18
558.10	3182.54
558.30	2951.12
558.49	2914.26
558.69	2844.63
558.88	3114.96
559.08	3117.01
559.28	2828.24
559.47	2910.16
559.67	3104.72
559.86	3250.13
560.06	2807.77
560.26	2883.54
560.45	3129.30
560.65	2957.27
560.84	3080.14
561.04	2770.90
561.24	3205.07
561.43	2828.24
561.63	3090.38
561.82	2906.07
562.02	3080.14
562.22	2879.44
562.41	2742.23
562.61	2822.10
562.80	2818.00
563.00	3317.71
563.19	2906.07
563.39	2932.69
563.59	3139.54
563.78	2861.01
563.98	2674.65
564.17	2744.28
564.37	2695.13
564.56	2899.92
564.76	2789.33
564.96	2998.23
565.15	3092.43
565.35	3315.66
565.54	2836.44
565.74	2869.20
565.93	3108.82
566.13	2990.03
566.32	2953.17
566.52	2930.64
566.71	2908.12
566.91	3139.54
567.11	2979.79
567.30	2748.37
567.50	3084.24
567.69	3028.95
567.89	2863.06
568.08	2746.33
568.28	3078.10
568.47	2834.39
568.67	2869.20
568.86	2809.81
569.06	3133.39
569.25	2901.97
569.45	2772.95
569.64	2824.15
569.84	2887.64
570.04	3045.33
570.23	2852.82
570.43	2912.21
570.62	3094.48
570.82	3325.90
571.01	2803.67
571.21	2807.77
571.40	2901.97
571.60	3030.99
571.79	2928.60
571.99	2901.97
572.18	2832.34
572.38	3057.62
572.57	2867.16
572.77	2955.22
572.96	3495.88
573.16	3022.80
573.35	2813.91
573.55	3024.85
573.74	3018.71
573.94	2891.73
574.13	2875.35
574.33	3022.80
574.52	3178.45
574.71	3016.66
574.91	2908.12
575.10	2758.61
575.30	2881.49
575.49	2768.85
575.69	2836.44
575.88	2818.00
576.08	2942.93
576.27	3147.73
576.47	2758.61
576.66	2975.70
576.86	3260.37
577.05	3000.27
577.25	2893.78
577.44	3096.53
577.64	2863.06
577.83	3143.63
578.02	2813.91
578.22	3057.62
578.41	3332.05
578.61	2985.94
578.80	2713.56
579.00	2944.98
579.19	3045.33
579.39	3047.38
579.58	2965.46
579.77	2904.02
579.97	3178.45
580.16	3223.50
580.36	3010.51
580.55	2906.07
580.75	3053.52
580.94	2877.40
581.13	3078.10
581.33	3094.48
581.52	2967.51
581.72	3289.04
581.91	3065.81
582.11	2926.55
582.30	3104.72
582.49	3088.34
582.69	3051.47
582.88	2953.17
583.08	3022.80
583.27	3119.06
583.47	2967.51
583.66	2863.06
583.85	2811.86
584.05	2932.69
584.24	2979.79
584.44	2920.40
584.63	3137.49
584.82	3211.22
585.02	3098.58
585.21	3004.37
585.41	3147.73
585.60	3016.66
585.79	3166.16
585.99	3180.50
586.18	3065.81
586.37	3895.24
586.57	5762.98
586.76	16555.78
586.96	34985.45
587.15	48028.96
587.34	56841.37
587.54	60527.72
587.73	54265.03
587.93	38401.46
588.12	29445.69
588.31	23948.95
588.51	21102.27
588.70	19416.79
588.89	16934.65
589.09	14470.95
589.28	12539.71
589.47	9891.69
589.67	7362.45
589.86	6002.60
590.06	4638.65
590.25	4042.69
590.44	3536.84
590.64	3225.55
590.83	3270.61
591.02	3266.51
591.22	2967.51
591.41	3008.47
591.60	3012.56
591.80	3370.96
591.99	2717.65
592.18	2899.92
592.38	3190.74
592.57	2895.83
592.76	2891.73
592.96	2920.40
593.15	2930.64
593.34	3170.26
593.54	2846.68
593.73	3051.47
593.92	3135.44
594.12	3125.20
594.31	2881.49
594.50	3016.66
594.70	3026.90
594.89	3430.35
595.08	2783.19
595.28	3020.75
595.47	3569.61
595.66	3106.77
595.86	2840.53
596.05	2781.14
596.24	2936.79
596.43	3379.15
596.63	2947.03
596.82	3002.32
597.01	3055.57
597.21	3344.33
597.40	2875.35
597.59	2881.49
597.79	2977.75
597.98	3149.78
598.17	2865.11
598.36	2904.02
598.56	3192.78
598.75	2957.27
598.94	2922.45
599.14	2928.60
599.33	2861.01
599.52	3127.25
599.71	2924.50
599.91	2930.64
600.10	2977.75
600.29	3030.99
600.48	2904.02
600.68	2955.22
600.87	3088.34
601.06	2861.01
601.26	2906.07
601.45	2977.75
601.64	2932.69
601.83	3221.45
602.03	2752.47
602.22	2729.94
602.41	3223.50
602.60	3352.52
602.80	3035.09
602.99	2975.70
603.18	2877.40
603.37	2947.03
603.57	2883.54
603.76	2904.02
603.95	3203.02
604.14	2977.75
604.34	2793.43
604.53	2861.01
604.72	3074.00
604.91	3135.44
605.10	2811.86
605.30	2758.61
605.49	3422.16
605.68	3028.95
605.87	2877.40
606.07	2811.86
606.26	3041.23
606.45	3047.38
606.64	2893.78
606.84	2789.33
607.03	2947.03
607.22	3166.16
607.41	2832.34
607.60	2897.88
607.80	3094.48
607.99	2985.94
608.18	2963.41
608.37	2887.64
608.56	2908.12
608.76	3196.88
608.95	3049.43
609.14	2828.24
609.33	3182.54
609.52	3286.99
609.72	2914.26
609.91	2930.64
610.10	3063.76
610.29	3180.50
610.48	2973.65
610.68	2932.69
610.87	2951.12
611.06	3090.38
611.25	2867.16
611.44	3071.95
611.63	3000.27
611.83	3205.07
612.02	2756.57
612.21	3024.85
612.40	2766.81
612.59	2752.47
612.79	2779.09
612.98	2899.92
613.17	3323.85
613.36	2979.79
613.55	2848.72
613.74	2875.35
613.93	2967.51
614.13	3057.62
614.32	2965.46
614.51	2944.98
614.70	3076.05
614.89	2926.55
615.08	2983.89
615.28	3282.89
615.47	2861.01
615.66	3117.01
615.85	3016.66
616.04	3024.85
616.23	2990.03
616.42	3026.90
616.62	2897.88
616.81	2912.21
617.00	2938.84
617.19	3043.28
617.38	2934.74
617.57	2940.88
617.76	3004.37
617.95	3139.54
618.15	2971.60
618.34	3096.53
618.53	2805.72
618.72	3110.86
618.91	3002.32
619.10	2965.46
619.29	2963.41
619.48	2944.98
619.68	2766.81
619.87	2803.67
620.06	2711.51
620.25	3094.48
620.44	2828.24
620.63	2844.63
620.82	3000.27
621.01	3010.51
621.20	2949.08
621.39	2916.31
621.59	3026.90
621.78	2944.98
621.97	2883.54
622.16	2949.08
622.35	3035.09
622.54	3092.43
622.73	2916.31
622.92	2707.41
623.11	3145.68
623.30	2934.74
623.49	2965.46
623.68	2715.61
623.88	3289.04
624.07	2852.82
624.26	2861.01
624.45	2861.01
624.64	2893.78
624.83	3069.91
625.02	2826.20
625.21	2830.29
625.40	3108.82
625.59	3252.17
625.78	2908.12
625.97	3022.80
626.16	3180.50
626.35	3129.30
626.54	2916.31
626.74	3037.14
626.93	2977.75
627.12	3012.56
627.31	2930.64
627.50	2938.84
627.69	3117.01
627.88	2832.34
628.07	2861.01
628.26	2662.36
628.45	2922.45
628.64	2768.85
628.83	2846.68
629.02	2766.81
629.21	3127.25
629.40	3098.58
629.59	2764.76
629.78	2787.29
629.97	2930.64
630.16	2922.45
630.35	2760.66
630.54	2932.69
630.73	2867.16
630.92	3016.66
631.11	2734.04
631.30	2916.31
631.49	3125.20
631.68	2957.27
631.87	2940.88
632.06	2768.85
632.25	3366.86
632.44	2928.60
632.63	2877.40
632.82	2822.10
633.01	2854.87
633.20	2965.46
633.39	2834.39
633.58	2652.12
633.77	3063.76
633.96	3110.86
634.15	3020.75
634.34	2955.22
634.53	3129.30
634.72	2967.51
634.91	2764.76
635.10	2881.49
635.29	3106.77
635.48	3061.71
635.67	2830.29
635.86	2680.79
636.05	3160.02
636.24	2897.88
636.43	2844.63
636.62	3057.62
636.81	2643.93
637.00	3004.37
637.19	2824.15
637.38	2951.12
637.57	2856.92
637.76	2965.46
637.95	3114.96
638.14	2875.35
638.33	3018.71
638.52	3049.43
638.71	2836.44
638.89	2725.85
639.08	3534.79
639.27	3102.67
639.46	3094.48
639.65	3317.71
639.84	3446.73
640.03	3432.40
640.22	3174.35
640.41	3229.65
640.60	3092.43
640.79	3086.29
640.98	3010.51
641.17	3098.58
641.36	3213.26
641.55	3121.10
641.74	2801.62
641.92	2797.53
642.11	2838.48
642.30	2973.65
642.49	2775.00
642.68	2861.01
642.87	3065.81
643.06	3080.14
643.25	2727.89
643.44	2729.94
643.63	3022.80
643.82	3164.11
644.00	2803.67
644.19	2856.92
644.38	2703.32
644.57	3084.24
644.76	2881.49
644.95	2873.30
645.14	2938.84
645.33	2910.16
645.52	2936.79
645.71	2691.03
645.89	2901.97
646.08	2979.79
646.27	2908.12
646.46	3026.90
646.65	2789.33
646.84	2959.31
647.03	2811.86
647.22	3008.47
647.40	3114.96
647.59	2910.16
647.78	2645.98
647.97	2811.86
648.16	2830.29
648.35	3188.69
648.54	3098.58
648.73	2834.39
648.91	3162.06
649.10	2920.40
649.29	2848.72
649.48	2846.68
649.67	3039.19
649.86	3000.27
650.05	2879.44
650.23	3067.86
650.42	2918.36
650.61	3207.12
650.80	3051.47
650.99	3141.58
651.18	3207.12
651.36	3102.67
651.55	2850.77
651.74	2942.93
651.93	2865.11
652.12	2881.49
652.31	2906.07
652.49	2828.24
652.68	2830.29
652.87	3268.56
653.06	2955.22
653.25	3157.97
653.44	2885.59
653.62	3207.12
653.81	2818.00
654.00	2846.68
654.19	3088.34
654.38	3504.07
654.56	2926.55
654.75	2777.05
654.94	3147.73
655.13	3010.51
655.32	2795.48
655.51	2928.60
655.69	2893.78
655.88	3213.26
656.07	2736.09
656.26	2947.03
656.45	2861.01
656.63	3026.90
656.82	2838.48
657.01	3114.96
657.20	2940.88
657.38	3174.35
657.57	2781.14
657.76	2729.94
657.95	3071.95
658.14	2930.64
658.32	2891.73
658.51	2744.28
658.70	3000.27
658.89	3014.61
659.08	2973.65
659.26	3063.76
659.45	2748.37
659.64	3037.14
659.83	2775.00
660.01	3237.84
660.20	3022.80
660.39	3186.64
660.58	2576.34
660.76	2938.84
660.95	2840.53
661.14	3080.14
661.33	2744.28
661.51	2854.87
661.70	2901.97
661.89	3049.43
662.08	2926.55
662.26	2764.76
662.45	2867.16
662.64	3370.96
662.83	3030.99
663.01	2701.27
663.20	2861.01
663.39	3178.45
663.58	2863.06
663.76	2838.48
663.95	3078.10
664.14	2848.72
664.32	2883.54
664.51	2815.96
664.70	2658.26
664.89	3018.71
665.07	2684.89
665.26	2973.65
665.45	2809.81
665.64	3039.19
665.82	2858.96
666.01	2961.36
666.20	2791.38
666.38	3155.92
666.57	3147.73
666.76	4769.72
666.95	10919.77
667.13	17514.23
667.32	21018.30
667.51	23973.52
667.69	24891.01
667.88	20889.28
668.07	15085.34
668.25	12994.36
668.44	11011.93
668.63	9586.54
668.81	8667.00
669.00	7303.06
669.19	6629.27
669.38	5879.72
669.56	5052.34
669.75	4405.18
669.94	3878.85
670.12	3454.92
670.31	3063.76
670.50	3071.95
670.68	3176.40
670.87	3045.33
671.06	2846.68
671.24	2996.18
671.43	3401.68
671.62	3030.99
671.80	2801.62
671.99	2983.89
672.18	3045.33
672.36	3102.67
672.55	2959.31
672.74	2893.78
672.92	2918.36
673.11	3143.63
673.29	2766.81
673.48	2975.70
673.67	2975.70
673.85	3172.30
674.04	2777.05
674.23	2926.55
674.41	3295.18
674.60	2750.42
674.79	2623.45
674.97	2744.28
675.16	3057.62
675.34	3127.25
675.53	2818.00
675.72	2985.94
675.90	3205.07
676.09	2887.64
676.28	2969.55
676.46	2643.93
676.65	3090.38
676.83	2791.38
677.02	2906.07
677.21	2932.69
677.39	2985.94
677.58	2832.34
677.77	2854.87
677.95	2789.33
678.14	2906.07
678.32	3000.27
678.51	2856.92
678.70	3135.44
678.88	2897.88
679.07	3026.90
679.25	2922.45
679.44	2811.86
679.63	2711.51
679.81	2992.08
680.00	3074.00
680.18	2928.60
680.37	3315.66
680.55	3018.71
680.74	2803.67
680.93	2664.41
681.11	3041.23
681.30	3078.10
681.48	2889.68
681.67	2912.21
681.85	2992.08
682.04	2809.81
682.23	3030.99
682.41	2938.84
682.60	2914.26
682.78	2985.94
682.97	2670.55
683.15	2846.68
683.34	2994.13
683.53	3264.46
683.71	2707.41
683.90	2926.55
684.08	3258.32
684.27	2967.51
684.45	2904.02
684.64	3078.10
684.82	3014.61
685.01	3082.19
685.19	2824.15
685.38	3100.62
685.57	3004.37
685.75	2895.83
685.94	2809.81
686.12	2758.61
686.31	2883.54
686.49	3246.03
686.68	2654.17
686.86	2996.18
687.05	2938.84
687.23	3237.84
687.42	2830.29
687.60	2688.98
687.79	3219.41
687.97	3246.03
688.16	3004.37
688.34	3096.53
688.53	2670.55
688.71	3188.69
688.90	3164.11
689.08	2838.48
689.27	2711.51
689.45	3078.10
689.64	2998.23
689.82	2977.75
690.01	3145.68
690.19	3014.61
690.38	2858.96
690.56	2981.84
690.75	2828.24
690.93	2961.36
691.12	2846.68
691.30	2854.87
691.49	2916.31
691.67	2908.12
691.86	3110.86
692.04	2828.24
692.23	2901.97
692.41	2971.60
692.60	3176.40
692.78	3012.56
692.97	2850.77
693.15	3033.04
693.34	3022.80
693.52	3033.04
693.71	2955.22
693.89	2889.68
694.08	2641.88
694.26	2924.50
694.44	3082.19
694.63	3110.86
694.81	2758.61
695.00	2832.34
695.18	3260.37
695.37	3430.35
695.55	2949.08
695.74	2799.57
695.92	2895.83
696.10	3162.06
696.29	2711.51
696.47	2877.40
696.66	2838.48
696.84	2826.20
697.03	2912.21
697.21	3157.97
697.40	4396.99
697.58	3149.78
697.76	2893.78
697.95	2877.40
698.13	2754.52
698.32	2914.26
698.50	2838.48
698.68	2979.79
698.87	3084.24
699.05	3243.98
699.24	2885.59
699.42	2711.51
699.61	2994.13
699.79	2975.70
699.97	2858.96
700.16	2775.00
700.34	2760.66
700.53	2969.55
700.71	3164.11
700.89	3024.85
701.08	2897.88
701.26	2920.40
701.45	3289.04
701.63	2789.33
701.81	2938.84
702.00	2797.53
702.18	2953.17
702.37	2818.00
702.55	3192.78
702.73	3045.33
702.92	2871.25
703.10	3188.69
703.28	3102.67
703.47	2734.04
703.65	3033.04
703.84	3071.95
704.02	2893.78
704.20	3262.41
704.39	2777.05
704.57	2863.06
704.75	3045.33
704.94	3045.33
705.12	2897.88
705.30	3436.49
705.49	6608.80
705.67	12660.54
705.86	17745.65
706.04	20328.14
706.22	22572.71
706.41	21923.51
706.59	16893.69
706.77	13111.10
706.96	11296.60
707.14	10295.14
707.32	8957.82
707.51	7671.69
707.69	6467.49
707.87	5478.32
708.06	4564.92
708.24	3942.34
708.42	3588.04
708.61	3764.17
708.79	2899.92
708.97	2971.60
709.16	3106.77
709.34	3008.47
709.52	2850.77
709.71	2846.68
709.89	3078.10
710.07	2754.52
710.26	2746.33
710.44	2842.58
710.62	3198.93
710.80	2959.31
710.99	2965.46
711.17	3035.09
711.35	2961.36
711.54	2899.92
711.72	2996.18
711.90	2891.73
712.09	3012.56
712.27	2852.82
712.45	3008.47
712.63	2772.95
712.82	3024.85
713.00	2959.31
713.18	2967.51
713.37	3057.62
713.55	3153.87
713.73	3045.33
713.91	2981.84
714.10	2844.63
714.28	2930.64
714.46	3020.75
714.65	2934.74
714.83	2934.74
715.01	2985.94
715.19	2895.83
715.38	2844.63
715.56	2912.21
715.74	2877.40
715.92	2854.87
716.11	3088.34
716.29	2658.26
716.47	2936.79
716.65	2936.79
716.84	2756.57
717.02	2887.64
717.20	2619.35
717.38	2912.21
717.57	3002.32
717.75	2889.68
717.93	2865.11
718.11	3151.82
718.30	2762.71
718.48	2885.59
718.66	3141.58
718.84	3141.58
719.03	2820.05
719.21	2742.23
719.39	3327.95
719.57	3110.86
719.75	2916.31
719.94	2779.09
720.12	2959.31
720.30	2992.08
720.48	2979.79
720.67	2787.29
720.85	2854.87
721.03	2934.74
721.21	2809.81
721.39	2926.55
721.58	3020.75
721.76	2969.55
721.94	2953.17
722.12	2936.79
722.30	3219.41
722.49	2883.54
722.67	2885.59
722.85	2924.50
723.03	2713.56
723.21	2828.24
723.40	2926.55
723.58	3024.85
723.76	3117.01
723.94	3108.82
724.12	2953.17
724.30	3084.24
724.49	3160.02
724.67	2881.49
724.85	2951.12
725.03	2729.94
725.21	3049.43
725.40	3295.18
725.58	2807.77
725.76	3102.67
725.94	2971.60
726.12	2791.38
726.30	2944.98
726.49	2861.01
726.67	2897.88
726.85	3094.48
727.03	3465.16
727.21	4351.93
727.39	5388.21
727.57	5855.14
727.76	6238.11
727.94	6213.54
728.12	5494.70
728.30	4749.24
728.48	4562.87
728.66	4061.12
728.84	4028.35
729.03	3471.31
729.21	3393.48
729.39	3241.93
729.57	3006.42
729.75	3084.24
729.93	2992.08
730.11	2861.01
730.30	2858.96
730.48	2979.79
730.66	3018.71
730.84	2936.79
731.02	2914.26
731.20	2865.11
731.38	2936.79
731.56	2760.66
731.74	2701.27
731.93	3024.85
732.11	2901.97
732.29	2815.96
732.47	3076.05
732.65	3080.14
732.83	3045.33
733.01	2955.22
733.19	2772.95
733.37	3086.29
733.56	2873.30
733.74	2777.05
733.92	3174.35
734.10	2910.16
734.28	3028.95
734.46	2723.80
734.64	2973.65
734.82	2951.12
735.00	2850.77
735.18	2934.74
735.36	3028.95
735.54	2953.17
735.73	2840.53
735.91	2951.12
736.09	3205.07
736.27	3012.56
736.45	3065.81
736.63	2631.64
736.81	2924.50
736.99	3166.16
737.17	3149.78
737.35	2840.53
737.53	3020.75
737.71	2875.35
737.89	3045.33
738.07	2811.86
738.25	2842.58
738.43	2738.13
738.61	2910.16
738.80	2783.19
738.98	2840.53
739.16	2887.64
739.34	2783.19
739.52	3117.01
739.70	2953.17
739.88	3057.62
740.06	3012.56
740.24	2693.08
740.42	3117.01
740.60	2688.98
740.78	2887.64
740.96	2688.98
741.14	2881.49
741.32	2961.36
741.50	2707.41
741.68	3039.19
741.86	3194.83
742.04	2828.24
742.22	2754.52
742.40	2932.69
742.58	3092.43
742.76	2836.44
742.94	3055.57
743.12	2631.64
743.30	3004.37
743.48	3035.09
743.66	2750.42
743.84	2889.68
744.02	2944.98
744.20	2936.79
744.38	2824.15
744.56	2807.77
744.74	3325.90
744.92	3047.38
745.10	3047.38
745.28	2928.60
745.46	3282.89
745.64	2983.89
745.82	2883.54
746.00	2904.02
746.18	2963.41
746.36	2891.73
746.54	2887.64
746.72	2873.30
746.90	2840.53
747.08	3252.17
747.26	2848.72
747.44	3098.58
747.62	3112.91
747.80	3012.56
747.98	2965.46
748.15	2848.72
748.33	3284.94
748.51	3026.90
748.69	2936.79
748.87	2785.24
749.05	2928.60
749.23	2912.21
749.41	2854.87
749.59	2824.15
749.77	3063.76
749.95	2930.64
750.13	2775.00
750.31	2983.89
750.49	3020.75
750.67	3168.21
750.85	3006.42
751.03	2934.74
751.20	3284.94
751.38	2983.89
751.56	2897.88
751.74	2818.00
751.92	2944.98
752.10	2858.96
752.28	3006.42
752.46	2754.52
752.64	2973.65
752.82	2904.02
753.00	2934.74
753.18	2828.24
753.35	2973.65
753.53	2881.49
753.71	2775.00
753.89	2992.08
754.07	2940.88
754.25	3186.64
754.43	2807.77
754.61	2709.46
754.79	3053.52
754.97	2947.03
755.14	3051.47
755.32	2779.09
755.50	2938.84
755.68	3043.28
755.86	2797.53
756.04	2705.37
756.22	2605.02
756.40	3098.58
756.57	3049.43
756.75	2856.92
756.93	3139.54
757.11	3215.31
757.29	2766.81
757.47	2779.09
757.65	2697.17
757.82	2643.93
758.00	2797.53
758.18	2789.33
758.36	2848.72
758.54	3217.36
758.72	2719.70
758.90	3002.32
759.07	3114.96
759.25	2858.96
759.43	2932.69
759.61	2658.26
759.79	4210.62
759.97	3172.30
760.15	2832.34
760.32	2869.20
760.50	2994.13
760.68	3299.28
760.86	2705.37
761.04	3086.29
761.22	3188.69
761.39	2979.79
761.57	3051.47
761.75	2856.92
761.93	3112.91
762.11	2969.55
762.28	2918.36
762.46	2764.76
762.64	3119.06
762.82	2723.80
763.00	2818.00
763.18	3045.33
763.35	2885.59
763.53	3076.05
763.71	2967.51
763.89	2873.30
764.07	2985.94
764.24	3000.27
764.42	2889.68
764.60	2807.77
764.78	3014.61
764.96	3141.58
765.13	3014.61
765.31	2779.09
765.49	3104.72
765.67	2770.90
765.84	2809.81
766.02	2766.81
766.20	2785.24
766.38	3190.74
766.56	2944.98
766.73	3059.67
766.91	2944.98
767.09	2959.31
767.27	2820.05
767.44	2746.33
767.62	3078.10
767.80	2977.75
767.98	2836.44
768.15	2813.91
768.33	3090.38
768.51	3162.06
768.69	2979.79
768.87	2871.25
769.04	2951.12
769.22	3567.56
769.40	2985.94
769.58	3049.43
769.75	3026.90
769.93	3196.88
770.11	2881.49
770.28	2754.52
770.46	3176.40
770.64	2975.70
770.82	2895.83
770.99	2881.49
771.17	3108.82
771.35	2861.01
771.53	2940.88
771.70	2963.41
771.88	3071.95
772.06	2947.03
772.23	2836.44
772.41	2893.78
772.59	2861.01
772.77	2838.48
772.94	2795.48
773.12	2963.41
773.30	2856.92
773.47	3016.66
773.65	2748.37
773.83	3035.09
774.01	2908.12
774.18	2594.78
774.36	2930.64
774.54	2742.23
774.71	2951.12
774.89	2777.05
775.07	2758.61
775.24	2811.86
775.42	2897.88
775.60	3330.00
775.78	2871.25
775.95	2711.51
776.13	2699.22
776.31	2670.55
776.48	2981.84
776.66	3133.39
776.84	2838.48
777.01	2811.86
777.19	2752.47
777.37	2842.58
777.54	3069.91
777.72	3262.41
777.90	2942.93
778.07	2846.68
778.25	3401.68
778.43	3166.16
778.60	2848.72
778.78	2961.36
778.96	3143.63
779.13	2787.29
779.31	2975.70
779.49	2883.54
779.66	3014.61
779.84	2944.98
780.01	2844.63
780.19	2764.76
780.37	3237.84
780.54	3090.38
780.72	2701.27
780.90	2842.58
781.07	2996.18
781.25	2910.16
781.43	3071.95
781.60	2887.64
781.78	3182.54
781.95	3004.37
782.13	2820.05
782.31	2789.33
782.48	2578.39
782.66	2967.51
782.83	3071.95
783.01	2965.46
783.19	3170.26
783.36	2938.84
783.54	2756.57
783.72	2951.12
783.89	2871.25
784.07	3012.56
784.24	2920.40
784.42	3018.71
784.60	3045.33
784.77	3074.00
784.95	2615.26
785.12	2775.00
785.30	2942.93
785.47	2830.29
785.65	2738.13
785.83	2901.97
786.00	2863.06
786.18	3004.37
786.35	2746.33
786.53	2787.29
786.71	3149.78
786.88	3006.42
787.06	2897.88
787.23	2861.01
787.41	2754.52
787.58	2963.41
787.76	2752.47
787.94	2906.07
788.11	2998.23
788.29	2729.94
788.46	2861.01
788.64	2662.36
788.81	2867.16
788.99	2820.05
789.16	2766.81
789.34	2828.24
789.52	2867.16
789.69	2891.73
789.87	2682.84
790.04	2904.02
790.22	3008.47
790.39	3289.04
790.57	2691.03
790.74	2785.24
790.92	3125.20
791.09	2783.19
791.27	2914.26
791.44	2967.51
791.62	2971.60
791.79	3074.00
791.97	2861.01
792.15	3213.26
792.32	3147.73
792.50	3117.01
792.67	3069.91
792.85	3125.20
793.02	2994.13
793.20	2883.54
793.37	2758.61
793.55	2873.30
793.72	2797.53
793.90	3018.71
794.07	2826.20
794.25	2754.52
794.42	2944.98
794.60	2920.40
794.77	2932.69
794.95	2963.41
795.12	3045.33
795.30	2963.41
795.47	2615.26
795.65	3231.69
795.82	3078.10
796.00	2881.49
796.17	2848.72
796.34	2756.57
796.52	3028.95
796.69	3151.82
796.87	2955.22
797.04	2926.55
797.22	3112.91
797.39	3059.67
797.57	2940.88
797.74	2873.30
797.92	2990.03
798.09	2815.96
798.27	3168.21
798.44	2858.96
798.62	2897.88
798.79	2994.13
798.96	2998.23
799.14	2914.26
799.31	3448.78
799.49	2932.69
799.66	2854.87
799.84	2879.44
800.01	2731.99
800.19	2998.23
800.36	2660.31
800.53	2871.25
800.71	3108.82
800.88	3266.51
801.06	2830.29
801.23	2781.14
801.41	2850.77
801.58	2854.87
801.75	2832.34
801.93	3004.37
802.10	3114.96
802.28	2930.64
802.45	2881.49
802.63	2920.40
802.80	3200.98
802.97	2881.49
803.15	2846.68
803.32	2863.06
803.50	2850.77
803.67	2813.91
803.84	2787.29
804.02	2944.98
804.19	2889.68
804.37	2592.73
804.54	2680.79
804.71	2758.61
804.89	3010.51
805.06	2838.48
805.24	2791.38
805.41	2721.75
805.58	2889.68
805.76	3364.81
805.93	2887.64
806.10	2969.55
806.28	3088.34
806.45	3018.71
806.63	3010.51
806.80	2930.64
806.97	3033.04
807.15	2983.89
807.32	2826.20
807.49	2885.59
807.67	2805.72
807.84	3024.85
808.01	2670.55
808.19	3057.62
808.36	3364.81
808.54	2920.40
808.71	2766.81
808.88	2856.92
809.06	3241.93
809.23	3276.75
809.40	2883.54
809.58	2963.41
809.75	2973.65
809.92	2840.53
810.10	3157.97
810.27	2818.00
810.44	3004.37
810.62	3108.82
810.79	2910.16
810.96	2844.63
811.14	2822.10
811.31	2973.65
811.48	2987.99
811.66	2891.73
811.83	3237.84
812.00	3104.72
812.18	2953.17
812.35	3180.50
812.52	2928.60
812.69	2936.79
812.87	2924.50
813.04	2838.48
813.21	2965.46
813.39	2828.24
813.56	2791.38
813.73	3049.43
813.91	2756.57
814.08	2955.22
814.25	2957.27
814.42	2693.08
814.60	2791.38
814.77	2983.89
814.94	2904.02
815.12	2924.50
815.29	3268.56
815.46	2906.07
815.63	2889.68
815.81	2805.72
815.98	2904.02
816.15	2875.35
816.33	2852.82
816.50	2824.15
816.67	3033.04
816.84	2924.50
817.02	2783.19
817.19	2789.33
817.36	3010.51
817.53	3030.99
817.71	2852.82
817.88	2901.97
818.05	3000.27
818.22	2815.96
818.40	3088.34
818.57	2826.20
818.74	3106.77
818.91	2951.12
819.09	2918.36
819.26	3051.47
819.43	2877.40
819.60	2856.92
819.78	3033.04
819.95	2967.51
820.12	2815.96
820.29	3221.45
820.47	3012.56
820.64	2828.24
820.81	2693.08
820.98	2842.58
821.15	2854.87
821.33	2971.60
821.50	2795.48
821.67	3129.30
821.84	2858.96
822.02	2877.40
822.19	3028.95
822.36	2879.44
822.53	2789.33
822.70	2756.57
822.88	2848.72
823.05	3160.02
823.22	2863.06
823.39	2961.36
823.56	2961.36
823.74	3260.37
823.91	2652.12
824.08	2754.52
824.25	2854.87
824.42	3246.03
824.60	2674.65
824.77	2983.89
824.94	2987.99
825.11	3057.62
825.28	2725.85
825.45	2981.84
825.63	2963.41
825.80	2772.95
825.97	2961.36
826.14	2916.31
826.31	2691.03
826.48	3108.82
826.66	2840.53
826.83	2932.69
827.00	2977.75
827.17	2899.92
827.34	2871.25
827.51	2772.95
827.69	2957.27
827.86	2695.13
828.03	2861.01
828.20	2830.29
828.37	2861.01
828.54	3014.61
828.71	2846.68
828.89	2985.94
829.06	3063.76
829.23	3225.55
829.40	2777.05
829.57	2832.34
829.74	3078.10
829.91	2910.16
830.09	2742.23
830.26	2932.69
830.43	3266.51
830.60	2940.88
830.77	2987.99
830.94	3086.29
831.11	3039.19
831.28	2973.65
831.46	3018.71
831.63	2756.57
831.80	3088.34
831.97	2830.29
832.14	2856.92
832.31	2885.59
832.48	3051.47
832.65	3258.32
832.82	2930.64
832.99	2906.07
833.17	2832.34
833.34	3172.30
833.51	2865.11
833.68	2611.16
833.85	3131.34
834.02	2772.95
834.19	2779.09
834.36	2836.44
834.53	2934.74
834.70	3133.39
834.87	2871.25
835.04	2752.47
835.22	2813.91
835.39	2985.94
835.56	2625.50
835.73	2738.13
835.90	3172.30
836.07	2820.05
836.24	2871.25
836.41	2703.32
836.58	2891.73
836.75	3178.45
836.92	2805.72
837.09	2680.79
837.26	3045.33
837.43	3018.71
837.60	2752.47
837.77	2674.65
837.94	3125.20
838.12	3248.08
838.29	2639.83
838.46	2631.64
838.63	2811.86
838.80	3276.75
838.97	2783.19
839.14	2738.13
839.31	2990.03
839.48	3049.43
839.65	2695.13
839.82	2818.00
839.99	3035.09
840.16	2965.46
840.33	2652.12
840.50	2793.43
840.67	2893.78
840.84	2582.49
841.01	2654.17
841.18	2721.75
841.35	2951.12
841.52	3045.33
841.69	2994.13
841.86	2756.57
842.03	2969.55
842.20	3088.34
842.37	2719.70
842.54	2824.15
842.71	2947.03
842.88	2660.31
843.05	2705.37
843.22	2754.52
843.39	3067.86
843.56	2922.45
843.73	2731.99
843.90	2772.95
844.07	3026.90
844.24	3055.57
844.41	2746.33
844.58	2715.61
844.75	2922.45
844.92	3039.19
845.09	2795.48
845.26	2758.61
845.43	3069.91
845.60	2942.93
845.77	2861.01
845.94	2850.77
846.10	3096.53
846.27	2766.81
846.44	2686.94
846.61	2578.39
846.78	3094.48
846.95	3151.82
847.12	2705.37
847.29	2820.05
847.46	2838.48
847.63	3049.43
847.80	2676.70
847.97	2854.87
848.14	3313.61
848.31	2906.07
848.48	2629.59
848.65	2736.09
848.82	2867.16
848.98	3475.40
849.15	2807.77
849.32	2854.87
849.49	3125.20
849.66	2959.31
849.83	2693.08
850.00	2592.73
850.17	3059.67
850.34	2875.35
850.51	2699.22
850.68	2791.38
850.85	3385.29
851.01	3059.67
851.18	2740.18
851.35	2805.72
851.52	3008.47
851.69	3248.08
851.86	2676.70
852.03	2754.52
852.20	3069.91
852.37	2924.50
852.53	2574.30
852.70	2674.65
852.87	2998.23
853.04	3067.86
853.21	2725.85
853.38	2985.94
853.55	3127.25
853.72	3284.94
853.89	2650.07
854.05	2678.74
854.22	2901.97
854.39	2871.25
854.56	2713.56
854.73	2895.83
854.90	2840.53
855.07	2906.07
855.23	2654.17
855.40	2676.70
855.57	2957.27
855.74	2508.76
855.91	2967.51
856.08	2609.11
856.25	2719.70
856.41	2840.53
856.58	2699.22
856.75	2758.61
856.92	2750.42
857.09	3078.10
857.26	2611.16
857.42	2824.15
857.59	3155.92
857.76	2904.02
857.93	2750.42
858.10	2805.72
858.27	2838.48
858.43	3037.14
858.60	2797.53
858.77	2533.34
858.94	2869.20
859.11	3155.92
859.27	2811.86
859.44	2699.22
859.61	3243.98
859.78	3008.47
859.95	2697.17
860.12	2652.12
860.28	3416.01
860.45	3327.95
860.62	2729.94
860.79	2791.38
860.95	2893.78
861.12	2875.35
861.29	2643.93
861.46	2805.72
861.63	3004.37
861.79	3002.32
861.96	2617.30
862.13	2715.61
862.30	3252.17
862.47	2828.24
862.63	2674.65
862.80	2783.19
862.97	3106.77
863.14	3074.00
863.30	2789.33
863.47	2654.17
863.64	3227.60
863.81	2893.78
863.97	2734.04
864.14	2652.12
864.31	2828.24
864.48	3010.51
864.65	2787.29
864.81	2904.02
864.98	3096.53
865.15	3084.24
865.32	2789.33
865.48	2801.62
865.65	3340.24
865.82	2856.92
865.98	2760.66
866.15	2844.63
866.32	3010.51
866.49	2908.12
866.65	2955.22
866.82	2832.34
866.99	2971.60
867.16	2854.87
867.32	2682.84
867.49	2668.50
867.66	2856.92
867.83	2807.77
867.99	2674.65
868.16	2744.28
868.33	2727.89
868.49	2967.51
868.66	2818.00
868.83	2820.05
868.99	2969.55
869.16	2942.93
869.33	2805.72
869.50	2850.77
869.66	2897.88
869.83	2873.30
870.00	2658.26
870.16	2801.62
870.33	2973.65
870.50	3076.05
870.66	2783.19
870.83	2715.61
871.00	2916.31
871.17	3123.15
871.33	2869.20
871.50	2736.09
871.67	2928.60
871.83	2871.25
872.00	2830.29
872.17	2822.10
872.33	3334.09
872.50	3164.11
872.67	2746.33
872.83	2721.75
873.00	2971.60
873.17	2973.65
873.33	2781.14
873.50	2811.86
873.67	2926.55
873.83	2807.77
874.00	2768.85
874.16	2877.40
874.33	3016.66
874.50	2777.05
874.66	2633.69
874.83	2848.72
875.00	3110.86
875.16	3125.20
875.33	2838.48
875.50	2574.30
875.66	2881.49
875.83	2938.84
875.99	2875.35
876.16	2844.63
876.33	2795.48
876.49	2895.83
876.66	2844.63
876.83	2801.62
876.99	2742.23
877.16	2908.12
877.32	2658.26
877.49	2760.66
877.66	3004.37
877.82	3268.56
877.99	2789.33
878.15	2932.69
878.32	3035.09
878.49	2981.84
878.65	2742.23
878.82	2947.03
878.98	2848.72
879.15	3061.71
879.32	2795.48
879.48	2924.50
879.65	2942.93
879.81	2875.35
879.98	2680.79
880.15	2797.53
880.31	3100.62
880.48	2813.91
880.64	2811.86
880.81	2838.48
880.97	3346.38
881.14	3196.88
881.31	2676.70
881.47	2865.11
881.64	2906.07
881.80	2699.22
881.97	2820.05
882.13	2854.87
882.30	2731.99
882.47	2818.00
882.63	2729.94
882.80	2598.87
882.96	2809.81
883.13	3227.60
883.29	2838.48
883.46	2752.47
883.62	3336.14
883.79	3018.71
883.95	2922.45
884.12	2742.23
884.29	3209.17
884.45	2924.50
884.62	2770.90
884.78	2691.03
884.95	3200.98
885.11	2820.05
885.28	2820.05
885.44	2768.85
885.61	3125.20
885.77	3149.78
885.94	2901.97
886.10	2852.82
886.27	2967.51
886.43	3231.69
886.60	2920.40
886.76	2750.42
886.93	2799.57
887.09	3045.33
887.26	2678.74
887.42	2828.24
887.59	3149.78
887.75	3385.29
887.92	2938.84
888.08	2779.09
888.25	3344.33
888.41	3145.68
888.58	2828.24
888.74	2648.02
888.91	2934.74
>>>>>End Processed Spectral Data<<<<<
