SpectraSuite Data File
++++++++++++++++++++++++++++++++++++
Date: Thu May 05 21:11:35 CEST 2016
User: root
Dark Spectrum Present: No
Reference Spectrum Present: No
Number of Sampled Component Spectra: 1
Spectrometers: USB4C02835
Integration Time (usec): 100000 (USB4C02835)
Spectra Averaged: 1 (USB4C02835)
Boxcar Smoothing: 0 (USB4C02835)
Correct for Electrical Dark: No (USB4C02835)
Strobe/Lamp Enabled: No (USB4C02835)
Correct for Detector Non-linearity: No (USB4C02835)
Correct for Stray Light: No (USB4C02835)
Number of Pixels in Processed Spectrum: 3648
>>>>>Begin Processed Spectral Data<<<<<
177.47	2183.13
177.69	2183.13
177.91	2183.13
178.13	2168.80
178.36	2121.70
178.58	2764.76
178.80	2912.21
179.02	2783.19
179.24	2777.05
179.46	2611.16
179.68	2695.13
179.90	2979.79
180.13	2938.84
180.35	2531.29
180.57	2572.25
180.79	3127.25
181.01	2977.75
181.23	2703.32
181.45	2854.87
181.67	3117.01
181.90	3084.24
182.12	2752.47
182.34	2574.30
182.56	3149.78
182.78	3076.05
183.00	2674.65
183.22	2682.84
183.44	2701.27
183.66	3493.83
183.89	2801.62
184.11	2723.80
184.33	3082.19
184.55	3096.53
184.77	2666.46
184.99	2756.57
185.21	2912.21
185.43	3459.02
185.65	2619.35
185.87	2613.21
186.10	3295.18
186.32	3309.52
186.54	2830.29
186.76	2809.81
186.98	3098.58
187.20	2947.03
187.42	2750.42
187.64	2742.23
187.86	3100.62
188.08	3164.11
188.30	2625.50
188.52	2787.29
188.75	3276.75
188.97	3127.25
189.19	2602.97
189.41	2719.70
189.63	3121.10
189.85	2861.01
190.07	2625.50
190.29	2516.95
190.51	3016.66
190.73	2738.13
190.95	2850.77
191.17	2707.41
191.39	2750.42
191.61	3020.75
191.84	2621.40
192.06	2787.29
192.28	2674.65
192.50	3602.38
192.72	2805.72
192.94	2684.89
193.16	3221.45
193.38	3035.09
193.60	2574.30
193.82	2799.57
194.04	3080.14
194.26	3043.28
194.48	2662.36
194.70	2627.54
194.92	2883.54
195.14	3063.76
195.36	2688.98
195.58	2813.91
195.80	2967.51
196.02	2969.55
196.24	2625.50
196.46	2803.67
196.69	2854.87
196.91	3461.07
197.13	2713.56
197.35	2725.85
197.57	3241.93
197.79	3043.28
198.01	2705.37
198.23	2664.41
198.45	3067.86
198.67	2803.67
198.89	2623.45
199.11	2736.09
199.33	2910.16
199.55	2588.63
199.77	2643.93
199.99	2793.43
200.21	2904.02
200.43	3067.86
200.65	2615.26
200.87	2584.54
201.09	2942.93
201.31	2916.31
201.53	2699.22
201.75	2768.85
201.97	2983.89
202.19	3000.27
202.41	2738.13
202.63	2807.77
202.85	3088.34
203.07	3096.53
203.29	2830.29
203.51	2592.73
203.73	2877.40
203.95	3409.87
204.17	2658.26
204.39	2818.00
204.61	3033.04
204.83	2889.68
205.05	2834.39
205.27	2744.28
205.49	3373.00
205.71	2985.94
205.93	2564.06
206.15	2674.65
206.37	2994.13
206.59	2895.83
206.81	2537.43
207.03	2590.68
207.25	2736.09
207.47	3098.58
207.69	2748.37
207.91	2926.55
208.13	3233.74
208.34	2881.49
208.56	2656.22
208.78	2707.41
209.00	2938.84
209.22	2928.60
209.44	2664.41
209.66	2709.46
209.88	3012.56
210.10	2889.68
210.32	2668.50
210.54	2815.96
210.76	3045.33
210.98	3112.91
211.20	2590.68
211.42	2721.75
211.64	3252.17
211.86	3020.75
212.08	2768.85
212.30	2668.50
212.52	2961.36
212.74	3067.86
212.96	2770.90
213.17	2838.48
213.39	3108.82
213.61	3258.32
213.83	2684.89
214.05	2574.30
214.27	3157.97
214.49	2832.34
214.71	2588.63
214.93	2867.16
215.15	3102.67
215.37	3153.87
215.59	2572.25
215.81	2775.00
216.03	3231.69
216.24	2977.75
216.46	2684.89
216.68	2746.33
216.90	3155.92
217.12	3203.02
217.34	2654.17
217.56	2877.40
217.78	3315.66
218.00	3026.90
218.22	2766.81
218.44	2801.62
218.66	3084.24
218.87	3336.14
219.09	2650.07
219.31	2695.13
219.53	3074.00
219.75	2908.12
219.97	2693.08
220.19	2699.22
220.41	2901.97
220.63	3266.51
220.85	2693.08
221.06	2654.17
221.28	3114.96
221.50	3117.01
221.72	2674.65
221.94	2621.40
222.16	3092.43
222.38	3139.54
222.60	2584.54
222.82	2785.24
223.03	3151.82
223.25	2861.01
223.47	2693.08
223.69	2930.64
223.91	3170.26
224.13	3051.47
224.35	2586.58
224.57	2809.81
224.78	3065.81
225.00	2861.01
225.22	2738.13
225.44	2676.70
225.66	3110.86
225.88	2922.45
226.10	2772.95
226.32	2711.51
226.53	3260.37
226.75	2906.07
226.97	2797.53
227.19	2717.65
227.41	2901.97
227.63	2899.92
227.85	2525.15
228.06	2742.23
228.28	3012.56
228.50	3117.01
228.72	2531.29
228.94	2684.89
229.16	2723.80
229.37	2783.19
229.59	2607.06
229.81	2893.78
230.03	2867.16
230.25	2748.37
230.47	2549.72
230.69	2645.98
230.90	3151.82
231.12	2848.72
231.34	2711.51
231.56	2762.71
231.78	2828.24
232.00	3006.42
232.21	2682.84
232.43	2701.27
232.65	2605.02
232.87	3082.19
233.09	2639.83
233.30	2691.03
233.52	3180.50
233.74	2844.63
233.96	2721.75
234.18	2797.53
234.40	2969.55
234.61	3502.03
234.83	2574.30
235.05	2701.27
235.27	3479.50
235.49	3272.65
235.70	2549.72
235.92	2721.75
236.14	3104.72
236.36	3352.52
236.58	2564.06
236.79	2721.75
237.01	2934.74
237.23	2969.55
237.45	2920.40
237.67	2674.65
237.88	3063.76
238.10	3319.76
238.32	2617.30
238.54	2572.25
238.76	2992.08
238.97	2809.81
239.19	2643.93
239.41	2756.57
239.63	3176.40
239.85	2844.63
240.06	2729.94
240.28	2641.88
240.50	3155.92
240.72	3018.71
240.93	2588.63
241.15	2775.00
241.37	2994.13
241.59	3274.70
241.81	2678.74
242.02	2775.00
242.24	3004.37
242.46	3086.29
242.68	2500.57
242.89	2670.55
243.11	3231.69
243.33	2977.75
243.55	2623.45
243.76	2660.31
243.98	2875.35
244.20	2992.08
244.42	2713.56
244.64	2699.22
244.85	2750.42
245.07	2834.39
245.29	2709.46
245.51	2762.71
245.72	3057.62
245.94	3182.54
246.16	2680.79
246.38	2641.88
246.59	2871.25
246.81	2873.30
247.03	2590.68
247.24	2572.25
247.46	2924.50
247.68	2969.55
247.90	2664.41
248.11	2697.17
248.33	3061.71
248.55	2934.74
248.77	2717.65
248.98	2727.89
249.20	3248.08
249.42	2957.27
249.64	2701.27
249.85	2652.12
250.07	2920.40
250.29	3147.73
250.50	2688.98
250.72	2523.10
250.94	3006.42
251.16	3350.48
251.37	2676.70
251.59	2744.28
251.81	3020.75
252.02	3266.51
252.24	2600.92
252.46	2734.04
252.68	2826.20
252.89	2830.29
253.11	2490.33
253.33	2791.38
253.54	3194.83
253.76	2824.15
253.98	2693.08
254.20	2668.50
254.41	2674.65
254.63	2936.79
254.85	2531.29
255.06	2805.72
255.28	3022.80
255.50	2920.40
255.71	2635.74
255.93	2535.39
256.15	3010.51
256.36	3088.34
256.58	2549.72
256.80	2670.55
257.02	2975.70
257.23	2944.98
257.45	2762.71
257.67	2660.31
257.88	2912.21
258.10	3102.67
258.32	2736.09
258.53	2684.89
258.75	3317.71
258.97	2813.91
259.18	2564.06
259.40	2607.06
259.62	3301.33
259.83	3266.51
260.05	2705.37
260.27	3393.48
260.48	3147.73
260.70	2815.96
260.92	2545.63
261.13	2686.94
261.35	3086.29
261.57	3059.67
261.78	2557.91
262.00	2652.12
262.22	3074.00
262.43	2861.01
262.65	2744.28
262.86	2723.80
263.08	3495.88
263.30	3047.38
263.51	2480.09
263.73	2582.49
263.95	3211.22
264.16	2840.53
264.38	2609.11
264.60	2635.74
264.81	2975.70
265.03	3149.78
265.25	2975.70
265.46	2639.83
265.68	3106.77
265.89	3063.76
266.11	2621.40
266.33	2691.03
266.54	3258.32
266.76	3096.53
266.98	2768.85
267.19	2875.35
267.41	3233.74
267.62	3004.37
267.84	2543.58
268.06	2850.77
268.27	3043.28
268.49	3176.40
268.70	2799.57
268.92	2713.56
269.14	2832.34
269.35	2715.61
269.57	2760.66
269.79	2838.48
270.00	2852.82
270.22	3291.09
270.43	2562.01
270.65	2596.82
270.87	3043.28
271.08	3151.82
271.30	2803.67
271.51	2740.18
271.73	3074.00
271.95	3291.09
272.16	2600.92
272.38	2752.47
272.59	2987.99
272.81	2975.70
273.02	2574.30
273.24	2766.81
273.46	3186.64
273.67	2820.05
273.89	2574.30
274.10	2682.84
274.32	3194.83
274.54	3057.62
274.75	2830.29
274.97	2799.57
275.18	3108.82
275.40	3157.97
275.61	2815.96
275.83	2772.95
276.05	2725.85
276.26	3020.75
276.48	2799.57
276.69	2770.90
276.91	2893.78
277.12	3233.74
277.34	2885.59
277.55	2832.34
277.77	2955.22
277.99	2967.51
278.20	2783.19
278.42	2645.98
278.63	2840.53
278.85	2832.34
279.06	2731.99
279.28	2883.54
279.49	3129.30
279.71	3147.73
279.93	2901.97
280.14	2772.95
280.36	2811.86
280.57	3098.58
280.79	2873.30
281.00	2699.22
281.22	2936.79
281.43	3239.89
281.65	2574.30
281.86	2775.00
282.08	3100.62
282.29	3358.67
282.51	2738.13
282.73	2697.17
282.94	2705.37
283.16	3123.15
283.37	2881.49
283.59	2807.77
283.80	3041.23
284.02	3020.75
284.23	2830.29
284.45	2783.19
284.66	2885.59
284.88	2840.53
285.09	2760.66
285.31	2912.21
285.52	2979.79
285.74	2691.03
285.95	3047.38
286.17	2826.20
286.38	3092.43
286.60	2869.20
286.81	2705.37
287.03	2746.33
287.24	2963.41
287.46	3069.91
287.67	2883.54
287.89	3016.66
288.10	2992.08
288.32	3039.19
288.53	2944.98
288.75	2852.82
288.96	3153.87
289.18	2883.54
289.39	2727.89
289.61	2832.34
289.82	3282.89
290.04	3383.24
290.25	2688.98
290.47	2879.44
290.68	2969.55
290.90	3188.69
291.11	2598.87
291.33	2879.44
291.54	2805.72
291.76	2924.50
291.97	2901.97
292.18	2918.36
292.40	2901.97
292.61	2889.68
292.83	3155.92
293.04	2838.48
293.26	3041.23
293.47	2920.40
293.69	2711.51
293.90	2752.47
294.12	3192.78
294.33	2908.12
294.55	2867.16
294.76	2973.65
294.97	3223.50
295.19	3348.43
295.40	2742.23
295.62	2832.34
295.83	3121.10
296.05	2891.73
296.26	3035.09
296.48	2832.34
296.69	2955.22
296.90	2981.84
297.12	2930.64
297.33	2992.08
297.55	3022.80
297.76	3125.20
297.98	2873.30
298.19	3008.47
298.41	2944.98
298.62	2793.43
298.83	3067.86
299.05	2901.97
299.26	2883.54
299.48	2795.48
299.69	2844.63
299.90	2820.05
300.12	2842.58
300.33	3133.39
300.55	2811.86
300.76	2936.79
300.98	2811.86
301.19	3104.72
301.40	2750.42
301.62	2797.53
301.83	3002.32
302.05	3016.66
302.26	2783.19
302.47	2840.53
302.69	2779.09
302.90	3074.00
303.12	2617.30
303.33	2858.96
303.54	3280.85
303.76	2922.45
303.97	2793.43
304.19	2990.03
304.40	2865.11
304.61	3041.23
304.83	2936.79
305.04	2893.78
305.26	3074.00
305.47	2856.92
305.68	2795.48
305.90	2701.27
306.11	3143.63
306.33	3004.37
306.54	2670.55
306.75	2746.33
306.97	2828.24
307.18	2844.63
307.39	2826.20
307.61	2869.20
307.82	2940.88
308.04	3076.05
308.25	2725.85
308.46	2891.73
308.68	2957.27
308.89	2922.45
309.10	2914.26
309.32	2815.96
309.53	3024.85
309.74	3082.19
309.96	2787.29
310.17	2965.46
310.39	2912.21
310.60	3047.38
310.81	2848.72
311.03	2695.13
311.24	3076.05
311.45	2924.50
311.67	2973.65
311.88	2916.31
312.09	2949.08
312.31	2928.60
312.52	2783.19
312.73	2787.29
312.95	2799.57
313.16	2875.35
313.37	2930.64
313.59	2938.84
313.80	3133.39
314.01	3227.60
314.23	2832.34
314.44	2709.46
314.65	2707.41
314.87	2795.48
315.08	2875.35
315.29	2805.72
315.51	2787.29
315.72	2813.91
315.93	2889.68
316.15	2873.30
316.36	2850.77
316.57	3018.71
316.79	2793.43
317.00	2727.89
317.21	3127.25
317.43	2766.81
317.64	2838.48
317.85	2676.70
318.07	2883.54
318.28	2879.44
318.49	2920.40
318.70	2990.03
318.92	3018.71
319.13	3035.09
319.34	2990.03
319.56	2842.58
319.77	3106.77
319.98	3110.86
320.20	2924.50
320.41	2994.13
320.62	3098.58
320.83	2838.48
321.05	3010.51
321.26	2858.96
321.47	2940.88
321.69	3151.82
321.90	2707.41
322.11	2770.90
322.32	2951.12
322.54	3194.83
322.75	2787.29
322.96	3518.41
323.18	2674.65
323.39	2662.36
323.60	2731.99
323.81	2971.60
324.03	2865.11
324.24	2969.55
324.45	2897.88
324.66	2791.38
324.88	3100.62
325.09	3149.78
325.30	2795.48
325.52	2838.48
325.73	3055.57
325.94	2877.40
326.15	2615.26
326.37	2682.84
326.58	3086.29
326.79	3215.31
327.00	2777.05
327.22	2828.24
327.43	2975.70
327.64	2834.39
327.85	2885.59
328.07	2850.77
328.28	3311.57
328.49	2875.35
328.70	2826.20
328.92	2811.86
329.13	2924.50
329.34	3112.91
329.55	3033.04
329.76	2904.02
329.98	2934.74
330.19	3182.54
330.40	2861.01
330.61	2930.64
330.83	3080.14
331.04	2844.63
331.25	2856.92
331.46	2838.48
331.68	2826.20
331.89	3229.65
332.10	2801.62
332.31	2666.46
332.52	2971.60
332.74	3198.93
332.95	2668.50
333.16	2748.37
333.37	3092.43
333.58	2861.01
333.80	2910.16
334.01	2598.87
334.22	2914.26
334.43	2916.31
334.64	2830.29
334.86	2750.42
335.07	2805.72
335.28	3239.89
335.49	2607.06
335.70	2887.64
335.92	3200.98
336.13	3373.00
336.34	2875.35
336.55	2873.30
336.76	3045.33
336.98	2713.56
337.19	2787.29
337.40	2969.55
337.61	3467.21
337.82	3024.85
338.04	2887.64
338.25	2672.60
338.46	2942.93
338.67	2992.08
338.88	2713.56
339.09	2705.37
339.31	2969.55
339.52	2803.67
339.73	2682.84
339.94	2926.55
340.15	3092.43
340.36	2940.88
340.58	2895.83
340.79	2789.33
341.00	3145.68
341.21	2826.20
341.42	2947.03
341.63	2832.34
341.85	3084.24
342.06	2947.03
342.27	2803.67
342.48	2965.46
342.69	2744.28
342.90	3049.43
343.12	3090.38
343.33	2643.93
343.54	3170.26
343.75	3198.93
343.96	2887.64
344.17	2703.32
344.38	2963.41
344.60	2834.39
344.81	2856.92
345.02	2779.09
345.23	3172.30
345.44	3381.20
345.65	2770.90
345.86	2813.91
346.07	3020.75
346.29	2928.60
346.50	2967.51
346.71	2875.35
346.92	3207.12
347.13	3413.96
347.34	2861.01
347.55	2678.74
347.76	2996.18
347.98	2711.51
348.19	2742.23
348.40	2983.89
348.61	2916.31
348.82	3254.22
349.03	2899.92
349.24	2719.70
349.45	3301.33
349.66	2582.49
349.88	2736.09
350.09	2764.76
350.30	3229.65
350.51	3141.58
350.72	2897.88
350.93	2758.61
351.14	2899.92
351.35	3139.54
351.56	2854.87
351.77	2811.86
351.99	3065.81
352.20	3203.02
352.41	2815.96
352.62	2566.10
352.83	2957.27
353.04	3037.14
353.25	2791.38
353.46	2811.86
353.67	3172.30
353.88	2656.22
354.09	2738.13
354.30	2815.96
354.52	3069.91
354.73	2942.93
354.94	2707.41
355.15	2793.43
355.36	3411.92
355.57	2893.78
355.78	2875.35
355.99	2811.86
356.20	2883.54
356.41	3203.02
356.62	2869.20
356.83	2783.19
357.04	3180.50
357.25	2691.03
357.46	2719.70
357.68	2541.53
357.89	2873.30
358.10	3006.42
358.31	2752.47
358.52	2813.91
358.73	2807.77
358.94	2844.63
359.15	2729.94
359.36	2889.68
359.57	2938.84
359.78	2953.17
359.99	3033.04
360.20	2723.80
360.41	2973.65
360.62	3110.86
360.83	2920.40
361.04	2822.10
361.25	2959.31
361.46	3203.02
361.67	2977.75
361.88	2873.30
362.09	3190.74
362.30	3004.37
362.51	2688.98
362.72	2885.59
362.93	3145.68
363.14	3074.00
363.35	2854.87
363.56	2684.89
363.78	3213.26
363.99	3196.88
364.20	2852.82
364.41	2897.88
364.62	3291.09
364.83	3002.32
365.04	2809.81
365.25	2871.25
365.46	3258.32
365.67	2942.93
365.88	2918.36
366.09	2756.57
366.30	2936.79
366.51	2998.23
366.72	2678.74
366.93	2775.00
367.14	3047.38
367.35	3262.41
367.56	2752.47
367.77	2930.64
367.98	3002.32
368.18	3037.14
368.39	2928.60
368.60	2707.41
368.81	3098.58
369.02	3037.14
369.23	2813.91
369.44	2621.40
369.65	2883.54
369.86	3133.39
370.07	2934.74
370.28	2707.41
370.49	3076.05
370.70	3014.61
370.91	2670.55
371.12	2607.06
371.33	3184.59
371.54	2871.25
371.75	2912.21
371.96	2568.15
372.17	3022.80
372.38	2842.58
372.59	2887.64
372.80	2777.05
373.01	2916.31
373.22	2955.22
373.43	2822.10
373.64	2650.07
373.85	3235.79
374.06	3239.89
374.26	2951.12
374.47	2912.21
374.68	3198.93
374.89	2977.75
375.10	2758.61
375.31	2920.40
375.52	3012.56
375.73	3030.99
375.94	2654.17
376.15	2930.64
376.36	2871.25
376.57	2832.34
376.78	2818.00
376.99	2885.59
377.20	3149.78
377.40	2947.03
377.61	3000.27
377.82	2721.75
378.03	3286.99
378.24	3067.86
378.45	2916.31
378.66	2908.12
378.87	2727.89
379.08	2705.37
379.29	2832.34
379.50	2916.31
379.71	3004.37
379.91	3059.67
380.12	2779.09
380.33	2881.49
380.54	3018.71
380.75	2981.84
380.96	2815.96
381.17	2865.11
381.38	2969.55
381.59	3000.27
381.80	2879.44
382.00	2994.13
382.21	2987.99
382.42	3278.80
382.63	3248.08
382.84	2942.93
383.05	3145.68
383.26	3248.08
383.47	2889.68
383.68	2840.53
383.88	3014.61
384.09	2985.94
384.30	3043.28
384.51	2922.45
384.72	2918.36
384.93	2758.61
385.14	2818.00
385.35	3110.86
385.55	2682.84
385.76	3194.83
385.97	2858.96
386.18	2736.09
386.39	2807.77
386.60	2906.07
386.81	2729.94
387.02	2676.70
387.22	2750.42
387.43	3098.58
387.64	2854.87
387.85	3000.27
388.06	3082.19
388.27	3964.87
388.48	7378.83
388.68	10979.16
388.89	13698.86
389.10	14538.53
389.31	14325.54
389.52	11229.01
389.73	9846.63
389.93	9027.45
390.14	8099.72
390.35	7499.66
390.56	6786.97
390.77	5603.24
390.98	4366.27
391.18	3696.58
391.39	3461.07
391.60	3020.75
391.81	3028.95
392.02	2818.00
392.23	3373.00
392.43	2965.46
392.64	2904.02
392.85	2852.82
393.06	3270.61
393.27	2961.36
393.47	2752.47
393.68	2852.82
393.89	2981.84
394.10	3272.65
394.31	2768.85
394.52	2668.50
394.72	2869.20
394.93	3252.17
395.14	2725.85
395.35	2914.26
395.56	2846.68
395.76	2977.75
395.97	2865.11
396.18	2936.79
396.39	2971.60
396.60	3585.99
396.80	3174.35
397.01	2983.89
397.22	3200.98
397.43	3151.82
397.64	2768.85
397.84	2848.72
398.05	3327.95
398.26	2996.18
398.47	2881.49
398.67	2977.75
398.88	2961.36
399.09	3096.53
399.30	2775.00
399.51	2920.40
399.71	2889.68
399.92	2973.65
400.13	2889.68
400.34	2809.81
400.54	2985.94
400.75	3321.81
400.96	2955.22
401.17	3086.29
401.37	3139.54
401.58	2918.36
401.79	2830.29
402.00	2936.79
402.21	3452.88
402.41	3188.69
402.62	3014.61
402.83	3241.93
403.04	3227.60
403.24	3672.01
403.45	2957.27
403.66	3071.95
403.87	3184.59
404.07	3241.93
404.28	3080.14
404.49	3090.38
404.70	3071.95
404.90	3041.23
405.11	2832.34
405.32	2940.88
405.52	2881.49
405.73	2910.16
405.94	2781.14
406.15	2865.11
406.35	3147.73
406.56	3141.58
406.77	2867.16
406.98	2815.96
407.18	2848.72
407.39	3293.13
407.60	2846.68
407.80	2936.79
408.01	2914.26
408.22	3037.14
408.43	2791.38
408.63	2944.98
408.84	3141.58
409.05	3151.82
409.25	2840.53
409.46	2871.25
409.67	2944.98
409.88	2918.36
410.08	2869.20
410.29	2809.81
410.50	3100.62
410.70	3069.91
410.91	2703.32
411.12	2906.07
411.32	2957.27
411.53	2856.92
411.74	2879.44
411.95	2897.88
412.15	3030.99
412.36	3106.77
412.57	2914.26
412.77	2981.84
412.98	2971.60
413.19	2906.07
413.39	2912.21
413.60	2901.97
413.81	3157.97
414.01	2840.53
414.22	2926.55
414.43	2979.79
414.63	2856.92
414.84	3192.78
415.05	2852.82
415.25	2643.93
415.46	3078.10
415.67	2891.73
415.87	2883.54
416.08	2848.72
416.29	2930.64
416.49	2971.60
416.70	2848.72
416.91	2875.35
417.11	2967.51
417.32	3207.12
417.53	2904.02
417.73	2971.60
417.94	2981.84
418.15	3057.62
418.35	2838.48
418.56	2779.09
418.77	3356.62
418.97	3000.27
419.18	2824.15
419.38	2545.63
419.59	2959.31
419.80	3180.50
420.00	2824.15
420.21	2858.96
420.42	3243.98
420.62	2998.23
420.83	2793.43
421.04	2871.25
421.24	2914.26
421.45	3129.30
421.65	2895.83
421.86	2852.82
422.07	3096.53
422.27	3047.38
422.48	2813.91
422.69	2592.73
422.89	2981.84
423.10	2840.53
423.30	2742.23
423.51	2887.64
423.72	3012.56
423.92	3100.62
424.13	2744.28
424.33	2901.97
424.54	3123.15
424.75	3125.20
424.95	3108.82
425.16	2789.33
425.36	2944.98
425.57	3127.25
425.78	2850.77
425.98	2949.08
426.19	2983.89
426.39	2863.06
426.60	2920.40
426.81	2979.79
427.01	3086.29
427.22	2895.83
427.42	2656.22
427.63	2742.23
427.83	3080.14
428.04	3305.42
428.25	2854.87
428.45	2920.40
428.66	3198.93
428.86	2975.70
429.07	2838.48
429.28	2801.62
429.48	3008.47
429.69	2877.40
429.89	2904.02
430.10	2738.13
430.30	3121.10
430.51	3127.25
430.71	2785.24
430.92	2893.78
431.13	2879.44
431.33	3022.80
431.54	2881.49
431.74	3012.56
431.95	3282.89
432.15	2750.42
432.36	2852.82
432.56	2877.40
432.77	3276.75
432.98	3323.85
433.18	2881.49
433.39	2766.81
433.59	2899.92
433.80	3327.95
434.00	3035.09
434.21	2830.29
434.41	2940.88
434.62	3395.53
434.82	2717.65
435.03	2830.29
435.23	2987.99
435.44	2723.80
435.64	2818.00
435.85	2908.12
436.06	3162.06
436.26	3108.82
436.47	2764.76
436.67	2809.81
436.88	2959.31
437.08	3182.54
437.29	2961.36
437.49	2914.26
437.70	3192.78
437.90	3024.85
438.11	3041.23
438.31	2965.46
438.52	3182.54
438.72	3196.88
438.93	3178.45
439.13	2996.18
439.34	3080.14
439.54	2973.65
439.75	2953.17
439.95	2910.16
440.16	2848.72
440.36	3002.32
440.57	2871.25
440.77	2832.34
440.98	3039.19
441.18	3067.86
441.39	2844.63
441.59	2764.76
441.80	3399.63
442.00	2887.64
442.21	2926.55
442.41	2746.33
442.62	3196.88
442.82	2922.45
443.02	2834.39
443.23	2897.88
443.43	2928.60
443.64	3166.16
443.84	2734.04
444.05	2930.64
444.25	2895.83
444.46	2936.79
444.66	2834.39
444.87	3053.52
445.07	2740.18
445.28	2938.84
445.48	3012.56
445.69	2912.21
445.89	3420.11
446.09	2969.55
446.30	3123.15
446.50	3205.07
446.71	4702.14
446.91	5793.70
447.12	6571.93
447.32	7032.72
447.53	6977.43
447.73	5859.24
447.93	4855.73
448.14	4816.82
448.34	4827.06
448.55	4102.08
448.75	3999.68
448.96	3885.00
449.16	3737.54
449.36	3454.92
449.57	3114.96
449.77	2883.54
449.98	2877.40
450.18	3076.05
450.39	2805.72
450.59	3000.27
450.79	2987.99
451.00	2871.25
451.20	3071.95
451.41	2789.33
451.61	3084.24
451.81	2990.03
452.02	2861.01
452.22	2854.87
452.43	2877.40
452.63	2811.86
452.84	2914.26
453.04	2818.00
453.24	2987.99
453.45	2957.27
453.65	2926.55
453.86	2861.01
454.06	3074.00
454.26	3006.42
454.47	2762.71
454.67	3035.09
454.87	3067.86
455.08	2994.13
455.28	2983.89
455.49	2961.36
455.69	2906.07
455.89	3397.58
456.10	2961.36
456.30	2818.00
456.51	3088.34
456.71	3051.47
456.91	2938.84
457.12	2834.39
457.32	2987.99
457.52	2775.00
457.73	3000.27
457.93	3084.24
458.14	2881.49
458.34	2703.32
458.54	2904.02
458.75	2828.24
458.95	3153.87
459.15	3002.32
459.36	2858.96
459.56	2891.73
459.76	3411.92
459.97	2959.31
460.17	2873.30
460.37	3094.48
460.58	3035.09
460.78	3108.82
460.99	2879.44
461.19	2752.47
461.39	2918.36
461.60	2949.08
461.80	2846.68
462.00	2723.80
462.21	2844.63
462.41	2852.82
462.61	2731.99
462.82	2742.23
463.02	3014.61
463.22	2987.99
463.43	2951.12
463.63	2779.09
463.83	3229.65
464.04	3082.19
464.24	2828.24
464.44	2803.67
464.64	3082.19
464.85	3143.63
465.05	2815.96
465.25	2758.61
465.46	2934.74
465.66	3117.01
465.86	2926.55
466.07	2850.77
466.27	3000.27
466.47	2736.09
466.68	2699.22
466.88	2990.03
467.08	3110.86
467.29	3200.98
467.49	2967.51
467.69	2926.55
467.89	3114.96
468.10	2893.78
468.30	3020.75
468.50	2951.12
468.71	3205.07
468.91	2805.72
469.11	3037.14
469.31	2918.36
469.52	2818.00
469.72	3264.46
469.92	3078.10
470.13	2873.30
470.33	3016.66
470.53	3039.19
470.73	3135.44
470.94	3459.02
471.14	3639.24
471.34	4122.56
471.54	3755.97
471.75	3575.75
471.95	3411.92
472.15	3309.52
472.36	3381.20
472.56	3229.65
472.76	3377.10
472.96	3330.00
473.17	2998.23
473.37	2914.26
473.57	2912.21
473.77	3028.95
473.98	2910.16
474.18	2750.42
474.38	3473.36
474.58	2858.96
474.79	2779.09
474.99	2969.55
475.19	3192.78
475.39	2861.01
475.60	2924.50
475.80	2871.25
476.00	3086.29
476.20	2953.17
476.41	2879.44
476.61	2969.55
476.81	3239.89
477.01	2887.64
477.21	3022.80
477.42	3022.80
477.62	2877.40
477.82	3090.38
478.02	2815.96
478.23	2934.74
478.43	2832.34
478.63	2961.36
478.83	2822.10
479.03	2861.01
479.24	3246.03
479.44	3362.76
479.64	2756.57
479.84	2676.70
480.04	2824.15
480.25	3106.77
480.45	2885.59
480.65	2772.95
480.85	3217.36
481.06	2918.36
481.26	2947.03
481.46	2869.20
481.66	3112.91
481.86	2775.00
482.06	2992.08
482.27	2918.36
482.47	2916.31
482.67	3024.85
482.87	2889.68
483.07	2940.88
483.28	2856.92
483.48	2754.52
483.68	2873.30
483.88	2760.66
484.08	2625.50
484.29	2738.13
484.49	2985.94
484.69	2695.13
484.89	3243.98
485.09	3098.58
485.29	2881.49
485.50	3022.80
485.70	2881.49
485.90	3256.27
486.10	3018.71
486.30	2830.29
486.50	3133.39
486.71	3114.96
486.91	2940.88
487.11	2922.45
487.31	2770.90
487.51	3080.14
487.71	2781.14
487.91	2725.85
488.12	2799.57
488.32	2609.11
488.52	2826.20
488.72	2588.63
488.92	3076.05
489.12	3194.83
489.32	3004.37
489.53	2899.92
489.73	2781.14
489.93	3250.13
490.13	2811.86
490.33	2713.56
490.53	3014.61
490.73	3176.40
490.94	2650.07
491.14	2996.18
491.34	3080.14
491.54	3057.62
491.74	3760.07
491.94	4251.58
492.14	4734.90
492.34	4665.27
492.54	4356.03
492.75	3792.84
492.95	3841.99
493.15	3710.92
493.35	3547.08
493.55	3467.21
493.75	3379.15
493.95	3493.83
494.15	3104.72
494.35	2916.31
494.56	3004.37
494.76	2801.62
494.96	2947.03
495.16	2895.83
495.36	2961.36
495.56	2967.51
495.76	2822.10
495.96	2828.24
496.16	2893.78
496.36	3258.32
496.56	2887.64
496.77	2912.21
496.97	3041.23
497.17	3200.98
497.37	2695.13
497.57	3000.27
497.77	3061.71
497.97	2719.70
498.17	2914.26
498.37	2838.48
498.57	3151.82
498.77	2869.20
498.97	3030.99
499.17	3112.91
499.38	2899.92
499.58	3051.47
499.78	2977.75
499.98	2965.46
500.18	2942.93
500.38	2775.00
500.58	3092.43
500.78	3416.01
500.98	5533.61
501.18	7440.27
501.38	8802.17
501.58	9822.06
501.78	9734.00
501.98	8058.76
502.18	6719.39
502.38	5754.79
502.58	5697.45
502.78	5054.39
502.98	4716.47
503.18	4569.02
503.38	4360.13
503.59	3772.36
503.79	3631.05
503.99	3426.25
504.19	3352.52
504.39	3442.64
504.59	3348.43
504.79	3295.18
504.99	3469.26
505.19	3246.03
505.39	3037.14
505.59	3166.16
505.79	3180.50
505.99	3170.26
506.19	2908.12
506.39	3157.97
506.59	2906.07
506.79	2934.74
506.99	3045.33
507.19	2822.10
507.39	3033.04
507.59	2750.42
507.79	2744.28
507.99	2869.20
508.19	3014.61
508.39	2877.40
508.59	2813.91
508.79	3055.57
508.99	3307.47
509.19	2889.68
509.39	2844.63
509.59	2736.09
509.79	2779.09
509.99	3024.85
510.19	2947.03
510.39	2928.60
510.59	3071.95
510.79	2944.98
510.99	2699.22
511.19	2824.15
511.39	3340.24
511.59	3147.73
511.79	2975.70
511.99	2836.44
512.19	3321.81
512.38	3002.32
512.58	2777.05
512.78	2797.53
512.98	3229.65
513.18	3209.17
513.38	2713.56
513.58	2918.36
513.78	2959.31
513.98	2924.50
514.18	2809.81
514.38	2861.01
514.58	2955.22
514.78	2865.11
514.98	2764.76
515.18	2815.96
515.38	2777.05
515.58	3354.57
515.78	2891.73
515.98	2867.16
516.18	3098.58
516.38	3037.14
516.57	2824.15
516.77	2840.53
516.97	3033.04
517.17	2820.05
517.37	2672.60
517.57	2895.83
517.77	3014.61
517.97	2889.68
518.17	2983.89
518.37	2746.33
518.57	2877.40
518.77	3002.32
518.97	2822.10
519.16	2828.24
519.36	3184.59
519.56	2883.54
519.76	2818.00
519.96	2863.06
520.16	3276.75
520.36	2807.77
520.56	3051.47
520.76	2777.05
520.96	2922.45
521.16	3106.77
521.35	3084.24
521.55	2914.26
521.75	3055.57
521.95	2897.88
522.15	2777.05
522.35	2738.13
522.55	2836.44
522.75	3162.06
522.95	2750.42
523.14	2686.94
523.34	3076.05
523.54	2881.49
523.74	2977.75
523.94	2926.55
524.14	2729.94
524.34	3129.30
524.54	3049.43
524.73	2858.96
524.93	3026.90
525.13	2987.99
525.33	2795.48
525.53	3076.05
525.73	3082.19
525.93	2994.13
526.13	2820.05
526.32	2779.09
526.52	3176.40
526.72	3198.93
526.92	2854.87
527.12	2764.76
527.32	2760.66
527.52	3063.76
527.71	2879.44
527.91	2865.11
528.11	2918.36
528.31	2930.64
528.51	2740.18
528.71	2934.74
528.90	2996.18
529.10	3151.82
529.30	2932.69
529.50	2598.87
529.70	3012.56
529.90	2930.64
530.09	2889.68
530.29	2650.07
530.49	2818.00
530.69	3465.16
530.89	3026.90
531.09	2934.74
531.28	2893.78
531.48	3221.45
531.68	2910.16
531.88	2918.36
532.08	3164.11
532.28	2973.65
532.47	2944.98
532.67	2971.60
532.87	3035.09
533.07	2770.90
533.27	2996.18
533.46	2942.93
533.66	2996.18
533.86	2936.79
534.06	2885.59
534.26	2869.20
534.45	2822.10
534.65	3074.00
534.85	2926.55
535.05	2858.96
535.25	3088.34
535.44	2758.61
535.64	2875.35
535.84	2904.02
536.04	2877.40
536.24	2891.73
536.43	2830.29
536.63	2826.20
536.83	2979.79
537.03	2910.16
537.22	2703.32
537.42	2666.46
537.62	2992.08
537.82	2820.05
538.02	3055.57
538.21	2971.60
538.41	3516.36
538.61	3098.58
538.81	2901.97
539.00	2942.93
539.20	2746.33
539.40	2985.94
539.60	2912.21
539.79	3028.95
539.99	2920.40
540.19	2846.68
540.39	2840.53
540.58	2906.07
540.78	3108.82
540.98	2992.08
541.18	3084.24
541.37	2854.87
541.57	2959.31
541.77	2992.08
541.97	2766.81
542.16	2678.74
542.36	2906.07
542.56	3180.50
542.76	3063.76
542.95	2899.92
543.15	3119.06
543.35	3166.16
543.54	2861.01
543.74	2766.81
543.94	3289.04
544.14	2879.44
544.33	3043.28
544.53	2869.20
544.73	2922.45
544.93	2912.21
545.12	2813.91
545.32	2854.87
545.52	2936.79
545.71	2789.33
545.91	2830.29
546.11	2811.86
546.30	2793.43
546.50	2920.40
546.70	2879.44
546.90	2865.11
547.09	2744.28
547.29	2944.98
547.49	2965.46
547.68	2824.15
547.88	2762.71
548.08	3108.82
548.27	3213.26
548.47	2861.01
548.67	2877.40
548.87	3078.10
549.06	2809.81
549.26	2828.24
549.46	3047.38
549.65	2887.64
549.85	2904.02
550.05	2904.02
550.24	2813.91
550.44	3051.47
550.64	2834.39
550.83	2848.72
551.03	3160.02
551.23	3114.96
551.42	2992.08
551.62	2836.44
551.82	2879.44
552.01	2967.51
552.21	3080.14
552.41	2949.08
552.60	3231.69
552.80	2901.97
553.00	2840.53
553.19	2916.31
553.39	3305.42
553.59	2803.67
553.78	2987.99
553.98	2871.25
554.17	2820.05
554.37	3074.00
554.57	2979.79
554.76	2713.56
554.96	2951.12
555.16	3014.61
555.35	2973.65
555.55	2959.31
555.75	3045.33
555.94	3049.43
556.14	2613.21
556.33	2914.26
556.53	3010.51
556.73	2967.51
556.92	2965.46
557.12	2836.44
557.32	3272.65
557.51	3188.69
557.71	2869.20
557.90	3045.33
558.10	3211.22
558.30	2938.84
558.49	2926.55
558.69	2885.59
558.88	3086.29
559.08	3004.37
559.28	2940.88
559.47	2885.59
559.67	3094.48
559.86	3327.95
560.06	2910.16
560.26	2877.40
560.45	3028.95
560.65	2947.03
560.84	3143.63
561.04	2809.81
561.24	3088.34
561.43	2785.24
561.63	3100.62
561.82	2928.60
562.02	3080.14
562.22	2871.25
562.41	2781.14
562.61	2793.43
562.80	2826.20
563.00	3430.35
563.19	2940.88
563.39	2871.25
563.59	3059.67
563.78	2830.29
563.98	2645.98
564.17	2752.47
564.37	2734.04
564.56	2877.40
564.76	2684.89
564.96	3059.67
565.15	3020.75
565.35	3454.92
565.54	2807.77
565.74	2873.30
565.93	3084.24
566.13	2947.03
566.32	2926.55
566.52	2875.35
566.71	2918.36
566.91	3162.06
567.11	2983.89
567.30	2754.52
567.50	3041.23
567.69	3018.71
567.89	2838.48
568.08	2760.66
568.28	2975.70
568.47	2809.81
568.67	2873.30
568.86	2846.68
569.06	3227.60
569.25	2861.01
569.45	2793.43
569.64	2861.01
569.84	2920.40
570.04	3123.15
570.23	2756.57
570.43	2961.36
570.62	3006.42
570.82	3180.50
571.01	2756.57
571.21	2832.34
571.40	2934.74
571.60	3082.19
571.79	2955.22
571.99	2947.03
572.18	2813.91
572.38	2973.65
572.57	2873.30
572.77	2914.26
572.96	3512.27
573.16	3098.58
573.35	2803.67
573.55	2973.65
573.74	3149.78
573.94	2955.22
574.13	2815.96
574.33	2963.41
574.52	3119.06
574.71	2983.89
574.91	2953.17
575.10	2731.99
575.30	2863.06
575.49	2840.53
575.69	2719.70
575.88	2811.86
576.08	2957.27
576.27	3233.74
576.47	2785.24
576.66	2961.36
576.86	3135.44
577.05	3135.44
577.25	2879.44
577.44	3098.58
577.64	2932.69
577.83	3127.25
578.02	2944.98
578.22	3028.95
578.41	3315.66
578.61	2875.35
578.80	2693.08
579.00	2899.92
579.19	2979.79
579.39	3061.71
579.58	2928.60
579.77	2850.77
579.97	3223.50
580.16	3137.49
580.36	2992.08
580.55	2920.40
580.75	3110.86
580.94	2967.51
581.13	2971.60
581.33	3114.96
581.52	2899.92
581.72	3352.52
581.91	3028.95
582.11	2818.00
582.30	3117.01
582.49	2985.94
582.69	3096.53
582.88	2994.13
583.08	3006.42
583.27	3215.31
583.47	2922.45
583.66	2834.39
583.85	2834.39
584.05	3010.51
584.24	2951.12
584.44	2910.16
584.63	3094.48
584.82	3229.65
585.02	3129.30
585.21	3033.04
585.41	3094.48
585.60	3055.57
585.79	3076.05
585.99	3082.19
586.18	3061.71
586.37	3942.34
586.57	5836.71
586.76	16699.14
586.96	35804.64
587.15	48987.41
587.34	57513.11
587.54	61584.47
587.73	55076.02
587.93	39126.44
588.12	29554.24
588.31	24331.92
588.51	21391.03
588.70	19820.24
588.89	17282.81
589.09	14808.86
589.28	12527.42
589.47	9987.94
589.67	7446.41
589.86	6000.55
590.06	4708.28
590.25	4108.23
590.44	3592.14
590.64	3221.45
590.83	3272.65
591.02	3160.02
591.22	2889.68
591.41	2949.08
591.60	2959.31
591.80	3469.26
591.99	2676.70
592.18	2815.96
592.38	3180.50
592.57	2936.79
592.76	2852.82
592.96	2965.46
593.15	3020.75
593.34	3217.36
593.54	2891.73
593.73	3008.47
593.92	3094.48
594.12	3041.23
594.31	2897.88
594.50	3055.57
594.70	3119.06
594.89	3514.31
595.08	2811.86
595.28	3000.27
595.47	3567.56
595.66	3112.91
595.86	2764.76
596.05	2758.61
596.24	2895.83
596.43	3270.61
596.63	2951.12
596.82	2992.08
597.01	3006.42
597.21	3330.00
597.40	2918.36
597.59	2901.97
597.79	2940.88
597.98	3076.05
598.17	2949.08
598.36	2990.03
598.56	3047.38
598.75	2926.55
598.94	2947.03
599.14	2981.84
599.33	2889.68
599.52	3141.58
599.71	2990.03
599.91	2940.88
600.10	3037.14
600.29	2959.31
600.48	2959.31
600.68	2883.54
600.87	3110.86
601.06	2899.92
601.26	3000.27
601.45	2944.98
601.64	2967.51
601.83	3237.84
602.03	2801.62
602.22	2680.79
602.41	3215.31
602.60	3508.17
602.80	2957.27
602.99	3010.51
603.18	2852.82
603.37	2987.99
603.57	2811.86
603.76	2856.92
603.95	3203.02
604.14	2951.12
604.34	2777.05
604.53	2815.96
604.72	3024.85
604.91	3018.71
605.10	2881.49
605.30	2758.61
605.49	3295.18
605.68	3084.24
605.87	2863.06
606.07	2811.86
606.26	3030.99
606.45	3074.00
606.64	2861.01
606.84	2752.47
607.03	2977.75
607.22	3088.34
607.41	2867.16
607.60	2832.34
607.80	3119.06
607.99	2936.79
608.18	2924.50
608.37	2920.40
608.56	2863.06
608.76	3246.03
608.95	3006.42
609.14	2883.54
609.33	3188.69
609.52	3243.98
609.72	2959.31
609.91	3041.23
610.10	2987.99
610.29	3278.80
610.48	3004.37
610.68	2969.55
610.87	2979.79
611.06	3057.62
611.25	2879.44
611.44	2983.89
611.63	2858.96
611.83	3254.22
612.02	2723.80
612.21	3065.81
612.40	2654.17
612.59	2834.39
612.79	2691.03
612.98	2901.97
613.17	3266.51
613.36	2971.60
613.55	3059.67
613.74	2781.14
613.93	3008.47
614.13	3088.34
614.32	2955.22
614.51	2871.25
614.70	2963.41
614.89	2889.68
615.08	2967.51
615.28	3282.89
615.47	2842.58
615.66	3209.17
615.85	2875.35
616.04	3024.85
616.23	3026.90
616.42	3008.47
616.62	2940.88
616.81	2897.88
617.00	3047.38
617.19	3082.19
617.38	2891.73
617.57	2990.03
617.76	3061.71
617.95	3149.78
618.15	3043.28
618.34	3039.19
618.53	2713.56
618.72	3203.02
618.91	3059.67
619.10	2994.13
619.29	2953.17
619.48	3045.33
619.68	2770.90
619.87	2772.95
620.06	2854.87
620.25	3084.24
620.44	2861.01
620.63	2801.62
620.82	3022.80
621.01	2936.79
621.20	2813.91
621.39	2934.74
621.59	2953.17
621.78	2959.31
621.97	2854.87
622.16	3008.47
622.35	3057.62
622.54	3063.76
622.73	2897.88
622.92	2619.35
623.11	3059.67
623.30	2910.16
623.49	2949.08
623.68	2711.51
623.88	3280.85
624.07	2879.44
624.26	2824.15
624.45	2852.82
624.64	2940.88
624.83	3078.10
625.02	2942.93
625.21	2877.40
625.40	3071.95
625.59	3250.13
625.78	2920.40
625.97	3006.42
626.16	3137.49
626.35	3084.24
626.54	2967.51
626.74	3033.04
626.93	2961.36
627.12	2959.31
627.31	2914.26
627.50	2959.31
627.69	3096.53
627.88	2717.65
628.07	2752.47
628.26	2629.59
628.45	2871.25
628.64	2846.68
628.83	2813.91
629.02	2723.80
629.21	3082.19
629.40	3026.90
629.59	2779.09
629.78	2869.20
629.97	2998.23
630.16	3028.95
630.35	2801.62
630.54	2934.74
630.73	2887.64
630.92	2940.88
631.11	2754.52
631.30	2983.89
631.49	3049.43
631.68	3002.32
631.87	2852.82
632.06	2783.19
632.25	3389.39
632.44	2971.60
632.63	2916.31
632.82	2891.73
633.01	2901.97
633.20	2979.79
633.39	2822.10
633.58	2731.99
633.77	2977.75
633.96	3076.05
634.15	2938.84
634.34	2940.88
634.53	3043.28
634.72	2873.30
634.91	2652.12
635.10	2873.30
635.29	3143.63
635.48	2934.74
635.67	2731.99
635.86	2682.84
636.05	3229.65
636.24	2975.70
636.43	2852.82
636.62	2846.68
636.81	2557.91
637.00	2953.17
637.19	2834.39
637.38	2871.25
637.57	2987.99
637.76	2908.12
637.95	3049.43
638.14	2836.44
638.33	3100.62
638.52	3041.23
638.71	2770.90
638.89	2779.09
639.08	3448.78
639.27	3203.02
639.46	3051.47
639.65	3274.70
639.84	3397.58
640.03	3547.08
640.22	3262.41
640.41	3223.50
640.60	3018.71
640.79	3104.72
640.98	3018.71
641.17	3039.19
641.36	3196.88
641.55	3082.19
641.74	2672.60
641.92	2764.76
642.11	2813.91
642.30	2908.12
642.49	2822.10
642.68	2887.64
642.87	3084.24
643.06	3061.71
643.25	2818.00
643.44	2791.38
643.63	2975.70
643.82	3061.71
644.00	2740.18
644.19	2916.31
644.38	2758.61
644.57	3041.23
644.76	2832.34
644.95	2987.99
645.14	3039.19
645.33	2938.84
645.52	2910.16
645.71	2707.41
645.89	2856.92
646.08	2957.27
646.27	2893.78
646.46	3082.19
646.65	2783.19
646.84	3043.28
647.03	2789.33
647.22	3000.27
647.40	3026.90
647.59	2963.41
647.78	2717.65
647.97	2734.04
648.16	2889.68
648.35	3172.30
648.54	3035.09
648.73	2869.20
648.91	3131.34
649.10	2998.23
649.29	2828.24
649.48	2830.29
649.67	3090.38
649.86	2967.51
650.05	2875.35
650.23	3082.19
650.42	2957.27
650.61	3276.75
650.80	3051.47
650.99	3051.47
651.18	3188.69
651.36	3160.02
651.55	2822.10
651.74	3004.37
651.93	2998.23
652.12	2965.46
652.31	2873.30
652.49	2967.51
652.68	2906.07
652.87	3207.12
653.06	2947.03
653.25	3192.78
653.44	2957.27
653.62	3354.57
653.81	2895.83
654.00	2850.77
654.19	3164.11
654.38	3422.16
654.56	2971.60
654.75	2838.48
654.94	3145.68
655.13	3006.42
655.32	2904.02
655.51	2975.70
655.69	2883.54
655.88	3127.25
656.07	2727.89
656.26	2904.02
656.45	2787.29
656.63	3051.47
656.82	2871.25
657.01	3100.62
657.20	2901.97
657.38	3160.02
657.57	2856.92
657.76	2676.70
657.95	2985.94
658.14	2744.28
658.32	2957.27
658.51	2752.47
658.70	3037.14
658.89	3102.67
659.08	2971.60
659.26	3098.58
659.45	2908.12
659.64	3125.20
659.83	2820.05
660.01	3209.17
660.20	3016.66
660.39	3162.06
660.58	2555.86
660.76	2996.18
660.95	2727.89
661.14	2963.41
661.33	2697.17
661.51	2893.78
661.70	2834.39
661.89	3018.71
662.08	2887.64
662.26	2674.65
662.45	2815.96
662.64	3356.62
662.83	2949.08
663.01	2705.37
663.20	2942.93
663.39	3270.61
663.58	2783.19
663.76	2770.90
663.95	3041.23
664.14	2789.33
664.32	2858.96
664.51	2826.20
664.70	2762.71
664.89	3037.14
665.07	2731.99
665.26	3041.23
665.45	2772.95
665.64	3061.71
665.82	2813.91
666.01	2990.03
666.20	2744.28
666.38	3174.35
666.57	3014.61
666.76	4820.92
666.95	10966.87
667.13	17846.00
667.32	21677.75
667.51	24424.08
667.69	25269.89
667.88	21288.64
668.07	15245.08
668.25	12996.41
668.44	11204.44
668.63	9740.14
668.81	8435.58
669.00	7450.51
669.19	6752.15
669.38	5996.45
669.56	5089.20
669.75	4452.28
669.94	4024.26
670.12	3434.44
670.31	3104.72
670.50	3076.05
670.68	3149.78
670.87	3141.58
671.06	2908.12
671.24	2920.40
671.43	3176.40
671.62	3030.99
671.80	2807.77
671.99	2961.36
672.18	2983.89
672.36	3051.47
672.55	3006.42
672.74	2901.97
672.92	2904.02
673.11	2975.70
673.29	2746.33
673.48	2953.17
673.67	2901.97
673.85	3155.92
674.04	2740.18
674.23	2891.73
674.41	3295.18
674.60	2754.52
674.79	2725.85
674.97	2797.53
675.16	3170.26
675.34	3192.78
675.53	2863.06
675.72	2936.79
675.90	3270.61
676.09	2852.82
676.28	2834.39
676.46	2688.98
676.65	3094.48
676.83	2805.72
677.02	2912.21
677.21	2832.34
677.39	3037.14
677.58	2797.53
677.77	2848.72
677.95	2775.00
678.14	2998.23
678.32	2891.73
678.51	2770.90
678.70	3229.65
678.88	2881.49
679.07	3016.66
679.25	2910.16
679.44	2842.58
679.63	2799.57
679.81	3063.76
680.00	3086.29
680.18	2965.46
680.37	3262.41
680.55	2949.08
680.74	2662.36
680.93	2611.16
681.11	3028.95
681.30	3010.51
681.48	2875.35
681.67	2863.06
681.85	2994.13
682.04	2865.11
682.23	2944.98
682.41	2971.60
682.60	2914.26
682.78	2924.50
682.97	2813.91
683.15	2863.06
683.34	2990.03
683.53	3264.46
683.71	2770.90
683.90	3016.66
684.08	3278.80
684.27	2936.79
684.45	2899.92
684.64	3057.62
684.82	2936.79
685.01	3035.09
685.19	2916.31
685.38	3108.82
685.57	2965.46
685.75	2830.29
685.94	2811.86
686.12	2744.28
686.31	2904.02
686.49	3332.05
686.68	2629.59
686.86	2926.55
687.05	2858.96
687.23	3266.51
687.42	2799.57
687.60	2768.85
687.79	3137.49
687.97	3282.89
688.16	2992.08
688.34	3061.71
688.53	2744.28
688.71	2971.60
688.90	3082.19
689.08	2930.64
689.27	2695.13
689.45	3098.58
689.64	2996.18
689.82	2944.98
690.01	3061.71
690.19	3022.80
690.38	2961.36
690.56	2979.79
690.75	2807.77
690.93	2824.15
691.12	2820.05
691.30	2918.36
691.49	2897.88
691.67	2953.17
691.86	3135.44
692.04	2856.92
692.23	2928.60
692.41	2918.36
692.60	3160.02
692.78	2967.51
692.97	3018.71
693.15	3057.62
693.34	3129.30
693.52	3039.19
693.71	2938.84
693.89	2906.07
694.08	2748.37
694.26	2928.60
694.44	3160.02
694.63	3055.57
694.81	2758.61
695.00	2879.44
695.18	3188.69
695.37	3465.16
695.55	2912.21
695.74	2893.78
695.92	2850.77
696.10	3155.92
696.29	2754.52
696.47	2910.16
696.66	2775.00
696.84	2842.58
697.03	2869.20
697.21	3104.72
697.40	4396.99
697.58	3151.82
697.76	2842.58
697.95	2811.86
698.13	2787.29
698.32	2869.20
698.50	2856.92
698.68	2914.26
698.87	3020.75
699.05	3237.84
699.24	2848.72
699.42	2676.70
699.61	3008.47
699.79	3092.43
699.97	2834.39
700.16	2695.13
700.34	2822.10
700.53	3006.42
700.71	3137.49
700.89	2969.55
701.08	2957.27
701.26	2971.60
701.45	3239.89
701.63	2916.31
701.81	2840.53
702.00	2906.07
702.18	2944.98
702.37	2770.90
702.55	3200.98
702.73	2967.51
702.92	2830.29
703.10	3147.73
703.28	3112.91
703.47	2713.56
703.65	3012.56
703.84	3000.27
704.02	2867.16
704.20	3272.65
704.39	2781.14
704.57	2809.81
704.75	3153.87
704.94	3086.29
705.12	2922.45
705.30	3436.49
705.49	6778.78
705.67	12988.22
705.86	18495.21
706.04	20907.71
706.22	23127.71
706.41	22523.56
706.59	17141.50
706.77	13145.91
706.96	11487.06
707.14	10522.46
707.32	9074.55
707.51	8030.09
707.69	6537.12
707.87	5427.12
708.06	4550.59
708.24	4026.31
708.42	3569.61
708.61	3784.65
708.79	2877.40
708.97	3100.62
709.16	3057.62
709.34	2924.50
709.52	2893.78
709.71	2914.26
709.89	3176.40
710.07	2873.30
710.26	2799.57
710.44	2942.93
710.62	3127.25
710.80	2959.31
710.99	2975.70
711.17	3067.86
711.35	2822.10
711.54	2836.44
711.72	3102.67
711.90	3014.61
712.09	3096.53
712.27	2861.01
712.45	2987.99
712.63	2828.24
712.82	3039.19
713.00	2940.88
713.18	2920.40
713.37	2992.08
713.55	3114.96
713.73	3076.05
713.91	2920.40
714.10	2879.44
714.28	2957.27
714.46	3035.09
714.65	2947.03
714.83	2904.02
715.01	2973.65
715.19	2926.55
715.38	2824.15
715.56	2916.31
715.74	2842.58
715.92	2770.90
716.11	3162.06
716.29	2600.92
716.47	3022.80
716.65	2947.03
716.84	2762.71
717.02	2920.40
717.20	2662.36
717.38	2807.77
717.57	3020.75
717.75	2883.54
717.93	2920.40
718.11	3035.09
718.30	2748.37
718.48	2891.73
718.66	3049.43
718.84	3250.13
719.03	2916.31
719.21	2852.82
719.39	3282.89
719.57	3049.43
719.75	2971.60
719.94	2826.20
720.12	2975.70
720.30	2944.98
720.48	2977.75
720.67	2797.53
720.85	2867.16
721.03	2920.40
721.21	2818.00
721.39	3051.47
721.58	3022.80
721.76	2914.26
721.94	2920.40
722.12	3004.37
722.30	3270.61
722.49	2904.02
722.67	2875.35
722.85	2922.45
723.03	2686.94
723.21	2787.29
723.40	2865.11
723.58	3010.51
723.76	3088.34
723.94	3147.73
724.12	2918.36
724.30	3059.67
724.49	3102.67
724.67	2895.83
724.85	3010.51
725.03	2707.41
725.21	3121.10
725.40	3092.43
725.58	2811.86
725.76	3041.23
725.94	3157.97
726.12	2822.10
726.30	2940.88
726.49	2852.82
726.67	2805.72
726.85	2998.23
727.03	3454.92
727.21	4356.03
727.39	5318.57
727.57	5992.36
727.76	6344.61
727.94	6438.81
728.12	5588.91
728.30	4755.38
728.48	4470.72
728.66	4229.06
728.84	3895.24
729.03	3532.75
729.21	3393.48
729.39	3174.35
729.57	2977.75
729.75	3018.71
729.93	2922.45
730.11	2807.77
730.30	2908.12
730.48	2936.79
730.66	2873.30
730.84	2959.31
731.02	2971.60
731.20	2912.21
731.38	2844.63
731.56	2682.84
731.74	2766.81
731.93	3026.90
732.11	2926.55
732.29	2801.62
732.47	3086.29
732.65	3008.47
732.83	3059.67
733.01	2918.36
733.19	2916.31
733.37	3028.95
733.56	2969.55
733.74	2770.90
733.92	3209.17
734.10	2977.75
734.28	3018.71
734.46	2641.88
734.64	2996.18
734.82	2934.74
735.00	2811.86
735.18	2766.81
735.36	2987.99
735.54	2947.03
735.73	2928.60
735.91	2930.64
736.09	3213.26
736.27	2977.75
736.45	2967.51
736.63	2668.50
736.81	2885.59
736.99	3176.40
737.17	3080.14
737.35	2813.91
737.53	2973.65
737.71	2932.69
737.89	3110.86
738.07	2807.77
738.25	2895.83
738.43	2705.37
738.61	2922.45
738.80	2740.18
738.98	2793.43
739.16	2936.79
739.34	2828.24
739.52	3117.01
739.70	2971.60
739.88	3133.39
740.06	3026.90
740.24	2549.72
740.42	3246.03
740.60	2766.81
740.78	2832.34
740.96	2652.12
741.14	2957.27
741.32	3016.66
741.50	2703.32
741.68	3139.54
741.86	3215.31
742.04	2826.20
742.22	2836.44
742.40	2838.48
742.58	3092.43
742.76	2844.63
742.94	3071.95
743.12	2703.32
743.30	2981.84
743.48	3026.90
743.66	2787.29
743.84	2891.73
744.02	2947.03
744.20	3008.47
744.38	2789.33
744.56	2828.24
744.74	3319.76
744.92	3045.33
745.10	3092.43
745.28	2967.51
745.46	3264.46
745.64	2836.44
745.82	2922.45
746.00	2877.40
746.18	3020.75
746.36	2775.00
746.54	2918.36
746.72	2899.92
746.90	2867.16
747.08	3147.73
747.26	2881.49
747.44	2998.23
747.62	3020.75
747.80	3004.37
747.98	2985.94
748.15	2891.73
748.33	3223.50
748.51	2963.41
748.69	3010.51
748.87	2787.29
749.05	2969.55
749.23	3002.32
749.41	2830.29
749.59	2805.72
749.77	3119.06
749.95	2944.98
750.13	2809.81
750.31	2969.55
750.49	2971.60
750.67	3215.31
750.85	3088.34
751.03	2891.73
751.20	3336.14
751.38	2916.31
751.56	2899.92
751.74	2885.59
751.92	2906.07
752.10	2772.95
752.28	3051.47
752.46	2865.11
752.64	2987.99
752.82	2953.17
753.00	2944.98
753.18	2781.14
753.35	2961.36
753.53	2996.18
753.71	2715.61
753.89	2940.88
754.07	3008.47
754.25	3162.06
754.43	2951.12
754.61	2789.33
754.79	3125.20
754.97	2949.08
755.14	3024.85
755.32	2793.43
755.50	2979.79
755.68	3030.99
755.86	2789.33
756.04	2891.73
756.22	2617.30
756.40	3080.14
756.57	3080.14
756.75	2830.29
756.93	3127.25
757.11	3102.67
757.29	2705.37
757.47	2801.62
757.65	2715.61
757.82	2572.25
758.00	2856.92
758.18	2807.77
758.36	2815.96
758.54	3256.27
758.72	2695.13
758.90	3047.38
759.07	3086.29
759.25	2834.39
759.43	2881.49
759.61	2791.38
759.79	4151.23
759.97	3151.82
760.15	2879.44
760.32	2852.82
760.50	2983.89
760.68	3352.52
760.86	2674.65
761.04	3071.95
761.22	3123.15
761.39	3008.47
761.57	2977.75
761.75	2877.40
761.93	3045.33
762.11	2949.08
762.28	2932.69
762.46	2818.00
762.64	3104.72
762.82	2785.24
763.00	2869.20
763.18	3039.19
763.35	2738.13
763.53	3045.33
763.71	2957.27
763.89	2850.77
764.07	3035.09
764.24	2985.94
764.42	2942.93
764.60	2969.55
764.78	3096.53
764.96	3131.34
765.13	3084.24
765.31	2754.52
765.49	3127.25
765.67	2756.57
765.84	2727.89
766.02	2744.28
766.20	2811.86
766.38	2961.36
766.56	2967.51
766.73	3071.95
766.91	3000.27
767.09	2881.49
767.27	2973.65
767.44	2805.72
767.62	2973.65
767.80	3049.43
767.98	2871.25
768.15	2850.77
768.33	3071.95
768.51	3112.91
768.69	2967.51
768.87	2918.36
769.04	2959.31
769.22	3403.72
769.40	3071.95
769.58	3069.91
769.75	3035.09
769.93	3125.20
770.11	2811.86
770.28	2840.53
770.46	3172.30
770.64	3076.05
770.82	2791.38
770.99	2805.72
771.17	3082.19
771.35	2844.63
771.53	2891.73
771.70	2818.00
771.88	2971.60
772.06	2985.94
772.23	2783.19
772.41	3030.99
772.59	3006.42
772.77	2801.62
772.94	2875.35
773.12	2871.25
773.30	2867.16
773.47	2983.89
773.65	2762.71
773.83	3051.47
774.01	3014.61
774.18	2656.22
774.36	2914.26
774.54	2684.89
774.71	3018.71
774.89	2731.99
775.07	2789.33
775.24	2797.53
775.42	2834.39
775.60	3270.61
775.78	2801.62
775.95	2672.60
776.13	2654.17
776.31	2680.79
776.48	2938.84
776.66	3080.14
776.84	2908.12
777.01	2844.63
777.19	2705.37
777.37	2783.19
777.54	3094.48
777.72	3278.80
777.90	2844.63
778.07	2783.19
778.25	3573.71
778.43	3170.26
778.60	2861.01
778.78	2959.31
778.96	3200.98
779.13	2764.76
779.31	2918.36
779.49	2975.70
779.66	2949.08
779.84	2926.55
780.01	2899.92
780.19	2721.75
780.37	3123.15
780.54	3028.95
780.72	2670.55
780.90	2883.54
781.07	2873.30
781.25	2852.82
781.43	2981.84
781.60	2818.00
781.78	3117.01
781.95	3055.57
782.13	2881.49
782.31	2906.07
782.48	2695.13
782.66	2979.79
782.83	3059.67
783.01	2920.40
783.19	3061.71
783.36	2879.44
783.54	2768.85
783.72	2893.78
783.89	2883.54
784.07	2969.55
784.24	3012.56
784.42	3037.14
784.60	2990.03
784.77	3006.42
784.95	2607.06
785.12	2772.95
785.30	3078.10
785.47	2893.78
785.65	2746.33
785.83	2869.20
786.00	2914.26
786.18	2942.93
786.35	2727.89
786.53	2729.94
786.71	3272.65
786.88	3096.53
787.06	2940.88
787.23	2893.78
787.41	2858.96
787.58	2912.21
787.76	2764.76
787.94	2926.55
788.11	2930.64
788.29	2770.90
788.46	2770.90
788.64	2707.41
788.81	2869.20
788.99	2863.06
789.16	2785.24
789.34	2897.88
789.52	2842.58
789.69	2938.84
789.87	2645.98
790.04	2936.79
790.22	2861.01
790.39	3276.75
790.57	2828.24
790.74	2803.67
790.92	3041.23
791.09	2695.13
791.27	2975.70
791.44	2918.36
791.62	3002.32
791.79	3106.77
791.97	2895.83
792.15	3291.09
792.32	3182.54
792.50	3110.86
792.67	3033.04
792.85	3100.62
793.02	2967.51
793.20	2938.84
793.37	2719.70
793.55	2746.33
793.72	2787.29
793.90	3125.20
794.07	2834.39
794.25	2836.44
794.42	2994.13
794.60	2953.17
794.77	2938.84
794.95	3018.71
795.12	3100.62
795.30	2949.08
795.47	2639.83
795.65	3155.92
795.82	3053.52
796.00	2820.05
796.17	2926.55
796.34	2772.95
796.52	3082.19
796.69	3151.82
796.87	2994.13
797.04	3026.90
797.22	3164.11
797.39	3020.75
797.57	3039.19
797.74	2934.74
797.92	2975.70
798.09	2846.68
798.27	3102.67
798.44	2889.68
798.62	2899.92
798.79	3020.75
798.96	2985.94
799.14	2940.88
799.31	3405.77
799.49	2992.08
799.66	2795.48
799.84	2998.23
800.01	2793.43
800.19	3061.71
800.36	2645.98
800.53	2877.40
800.71	3125.20
800.88	3280.85
801.06	2768.85
801.23	2861.01
801.41	2940.88
801.58	2803.67
801.75	2893.78
801.93	2928.60
802.10	3143.63
802.28	2920.40
802.45	2854.87
802.63	2924.50
802.80	3272.65
802.97	3012.56
803.15	2818.00
803.32	2795.48
803.50	2826.20
803.67	2858.96
803.84	2764.76
804.02	2940.88
804.19	2926.55
804.37	2658.26
804.54	2703.32
804.71	2787.29
804.89	2963.41
805.06	2707.41
805.24	2783.19
805.41	2760.66
805.58	2838.48
805.76	3444.68
805.93	2842.58
806.10	3049.43
806.28	3096.53
806.45	3043.28
806.63	2953.17
806.80	2869.20
806.97	3049.43
807.15	3030.99
807.32	2985.94
807.49	2873.30
807.67	2691.03
807.84	3028.95
808.01	2672.60
808.19	3022.80
808.36	3389.39
808.54	2863.06
808.71	2760.66
808.88	2871.25
809.06	3110.86
809.23	3141.58
809.40	2805.72
809.58	2848.72
809.75	3006.42
809.92	2787.29
810.10	3194.83
810.27	2875.35
810.44	3008.47
810.62	3155.92
810.79	2934.74
810.96	2791.38
811.14	2908.12
811.31	2996.18
811.48	2965.46
811.66	2928.60
811.83	3205.07
812.00	3131.34
812.18	2908.12
812.35	3254.22
812.52	2881.49
812.69	2936.79
812.87	2848.72
813.04	2836.44
813.21	2967.51
813.39	2807.77
813.56	2734.04
813.73	3076.05
813.91	2746.33
814.08	2983.89
814.25	2908.12
814.42	2625.50
814.60	2936.79
814.77	2977.75
814.94	2856.92
815.12	2953.17
815.29	3246.03
815.46	2838.48
815.63	2830.29
815.81	2883.54
815.98	2961.36
816.15	3012.56
816.33	2963.41
816.50	2820.05
816.67	2924.50
816.84	2877.40
817.02	2869.20
817.19	2820.05
817.36	3010.51
817.53	3049.43
817.71	2795.48
817.88	2918.36
818.05	2877.40
818.22	2934.74
818.40	3022.80
818.57	2850.77
818.74	3012.56
818.91	2942.93
819.09	3000.27
819.26	2975.70
819.43	2889.68
819.60	2826.20
819.78	3051.47
819.95	2983.89
820.12	2797.53
820.29	3323.85
820.47	3125.20
820.64	2809.81
820.81	2750.42
820.98	2889.68
821.15	2832.34
821.33	3024.85
821.50	2693.08
821.67	3084.24
821.84	2744.28
822.02	2885.59
822.19	3096.53
822.36	2940.88
822.53	2799.57
822.70	2713.56
822.88	2875.35
823.05	3205.07
823.22	2949.08
823.39	2963.41
823.56	3008.47
823.74	3291.09
823.91	2721.75
824.08	2799.57
824.25	2848.72
824.42	3373.00
824.60	2734.04
824.77	2930.64
824.94	2967.51
825.11	3098.58
825.28	2721.75
825.45	2975.70
825.63	3010.51
825.80	2842.58
825.97	2877.40
826.14	2893.78
826.31	2686.94
826.48	3092.43
826.66	2805.72
826.83	2897.88
827.00	2914.26
827.17	2852.82
827.34	2969.55
827.51	2772.95
827.69	2936.79
827.86	2811.86
828.03	2889.68
828.20	2936.79
828.37	2863.06
828.54	3026.90
828.71	2758.61
828.89	3049.43
829.06	3104.72
829.23	3233.74
829.40	2805.72
829.57	2736.09
829.74	3063.76
829.91	2856.92
830.09	2717.65
830.26	3008.47
830.43	3215.31
830.60	2916.31
830.77	2920.40
830.94	3033.04
831.11	3162.06
831.28	2879.44
831.46	3014.61
831.63	2879.44
831.80	3192.78
831.97	2856.92
832.14	2850.77
832.31	2928.60
832.48	3059.67
832.65	3200.98
832.82	2893.78
832.99	2951.12
833.17	2822.10
833.34	3207.12
833.51	2867.16
833.68	2607.06
833.85	3225.55
834.02	2901.97
834.19	2729.94
834.36	2842.58
834.53	3039.19
834.70	3018.71
834.87	2832.34
835.04	2713.56
835.22	2836.44
835.39	2887.64
835.56	2762.71
835.73	2701.27
835.90	3168.21
836.07	2779.09
836.24	2822.10
836.41	2592.73
836.58	2873.30
836.75	3008.47
836.92	2721.75
837.09	2721.75
837.26	3051.47
837.43	3016.66
837.60	2797.53
837.77	2695.13
837.94	3106.77
838.12	3250.13
838.29	2609.11
838.46	2580.44
838.63	2873.30
838.80	3330.00
838.97	2805.72
839.14	2721.75
839.31	3039.19
839.48	3094.48
839.65	2725.85
839.82	2877.40
839.99	2981.84
840.16	3035.09
840.33	2662.36
840.50	2670.55
840.67	2807.77
840.84	2586.58
841.01	2691.03
841.18	2715.61
841.35	2906.07
841.52	3057.62
841.69	3045.33
841.86	2699.22
842.03	2965.46
842.20	3078.10
842.37	2650.07
842.54	2779.09
842.71	2998.23
842.88	2762.71
843.05	2799.57
843.22	2709.46
843.39	3092.43
843.56	2863.06
843.73	2734.04
843.90	2772.95
844.07	2971.60
844.24	3098.58
844.41	2756.57
844.58	2758.61
844.75	2928.60
844.92	2955.22
845.09	2744.28
845.26	2803.67
845.43	3067.86
845.60	2893.78
845.77	2848.72
845.94	2797.53
846.10	3127.25
846.27	2693.08
846.44	2625.50
846.61	2629.59
846.78	3037.14
846.95	3108.82
847.12	2650.07
847.29	2766.81
847.46	2865.11
847.63	2992.08
847.80	2600.92
847.97	2805.72
848.14	3430.35
848.31	2912.21
848.48	2668.50
848.65	2844.63
848.82	2846.68
848.98	3487.69
849.15	2906.07
849.32	2865.11
849.49	3123.15
849.66	2914.26
849.83	2643.93
850.00	2643.93
850.17	3139.54
850.34	2918.36
850.51	2609.11
850.68	2762.71
850.85	3399.63
851.01	3002.32
851.18	2750.42
851.35	2762.71
851.52	3000.27
851.69	3180.50
851.86	2645.98
852.03	2670.55
852.20	3108.82
852.37	2959.31
852.53	2656.22
852.70	2717.65
852.87	2936.79
853.04	3094.48
853.21	2684.89
853.38	2922.45
853.55	3180.50
853.72	3110.86
853.89	2654.17
854.05	2699.22
854.22	2877.40
854.39	2848.72
854.56	2723.80
854.73	2918.36
854.90	2811.86
855.07	2975.70
855.23	2629.59
855.40	2721.75
855.57	2983.89
855.74	2641.88
855.91	2922.45
856.08	2613.21
856.25	2746.33
856.41	2899.92
856.58	2674.65
856.75	2742.23
856.92	2813.91
857.09	3172.30
857.26	2562.01
857.42	2799.57
857.59	3098.58
857.76	2791.38
857.93	2652.12
858.10	2797.53
858.27	2824.15
858.43	2992.08
858.60	2668.50
858.77	2605.02
858.94	2856.92
859.11	3119.06
859.27	2828.24
859.44	2650.07
859.61	3330.00
859.78	3018.71
859.95	2621.40
860.12	2658.26
860.28	3444.68
860.45	3344.33
860.62	2717.65
860.79	2738.13
860.95	2891.73
861.12	2832.34
861.29	2633.69
861.46	2719.70
861.63	3012.56
861.79	2983.89
861.96	2619.35
862.13	2738.13
862.30	3172.30
862.47	2867.16
862.63	2639.83
862.80	2801.62
862.97	3190.74
863.14	2983.89
863.30	2772.95
863.47	2631.64
863.64	3291.09
863.81	3026.90
863.97	2641.88
864.14	2719.70
864.31	2938.84
864.48	3006.42
864.65	2691.03
864.81	2871.25
864.98	3008.47
865.15	3174.35
865.32	2775.00
865.48	2873.30
865.65	3241.93
865.82	2885.59
865.98	2738.13
866.15	2789.33
866.32	2979.79
866.49	2822.10
866.65	2807.77
866.82	2758.61
866.99	2963.41
867.16	2889.68
867.32	2777.05
867.49	2686.94
867.66	2922.45
867.83	2953.17
867.99	2592.73
868.16	2731.99
868.33	2818.00
868.49	2932.69
868.66	2699.22
868.83	2871.25
868.99	2992.08
869.16	3033.04
869.33	2838.48
869.50	2815.96
869.66	2942.93
869.83	2924.50
870.00	2662.36
870.16	2904.02
870.33	2955.22
870.50	3100.62
870.66	2828.24
870.83	2791.38
871.00	2996.18
871.17	3026.90
871.33	2723.80
871.50	2691.03
871.67	2918.36
871.83	2852.82
872.00	2799.57
872.17	2775.00
872.33	3274.70
872.50	3141.58
872.67	2686.94
872.83	2770.90
873.00	3043.28
873.17	2959.31
873.33	2830.29
873.50	2840.53
873.67	2795.48
873.83	2811.86
874.00	2682.84
874.16	2867.16
874.33	2922.45
874.50	2731.99
874.66	2664.41
874.83	2781.14
875.00	3166.16
875.16	3162.06
875.33	2809.81
875.50	2498.52
875.66	2881.49
875.83	3024.85
875.99	2758.61
876.16	2777.05
876.33	2846.68
876.49	2908.12
876.66	2752.47
876.83	2799.57
876.99	2775.00
877.16	2944.98
877.32	2656.22
877.49	2772.95
877.66	3000.27
877.82	3260.37
877.99	2787.29
878.15	2942.93
878.32	2975.70
878.49	2942.93
878.65	2809.81
878.82	3020.75
878.98	2811.86
879.15	3104.72
879.32	2899.92
879.48	2908.12
879.65	2832.34
879.81	2949.08
879.98	2709.46
880.15	2856.92
880.31	3071.95
880.48	2766.81
880.64	2848.72
880.81	2826.20
880.97	3186.64
881.14	3192.78
881.31	2777.05
881.47	2975.70
881.64	2883.54
881.80	2742.23
881.97	2916.31
882.13	2781.14
882.30	2813.91
882.47	2889.68
882.63	2709.46
882.80	2695.13
882.96	2926.55
883.13	3139.54
883.29	2719.70
883.46	2750.42
883.62	3246.03
883.79	2930.64
883.95	2895.83
884.12	2787.29
884.29	3088.34
884.45	2953.17
884.62	2764.76
884.78	2654.17
884.95	3254.22
885.11	2801.62
885.28	2863.06
885.44	2787.29
885.61	3049.43
885.77	3192.78
885.94	2832.34
886.10	2803.67
886.27	2981.84
886.43	3276.75
886.60	2922.45
886.76	2719.70
886.93	2768.85
887.09	3104.72
887.26	2590.68
887.42	2815.96
887.59	3170.26
887.75	3416.01
887.92	2899.92
888.08	2856.92
888.25	3256.27
888.41	3129.30
888.58	2850.77
888.74	2725.85
888.91	2901.97
>>>>>End Processed Spectral Data<<<<<
