SpectraSuite Data File
++++++++++++++++++++++++++++++++++++
Date: Thu May 05 21:11:33 CEST 2016
User: root
Dark Spectrum Present: No
Reference Spectrum Present: No
Number of Sampled Component Spectra: 1
Spectrometers: USB4C02835
Integration Time (usec): 100000 (USB4C02835)
Spectra Averaged: 1 (USB4C02835)
Boxcar Smoothing: 0 (USB4C02835)
Correct for Electrical Dark: No (USB4C02835)
Strobe/Lamp Enabled: No (USB4C02835)
Correct for Detector Non-linearity: No (USB4C02835)
Correct for Stray Light: No (USB4C02835)
Number of Pixels in Processed Spectrum: 3648
>>>>>Begin Processed Spectral Data<<<<<
177.47	2140.13
177.69	2140.13
177.91	2140.13
178.13	2205.66
178.36	2162.66
178.58	2797.53
178.80	2906.07
179.02	2705.37
179.24	2850.77
179.46	2602.97
179.68	2744.28
179.90	2973.65
180.13	2992.08
180.35	2533.34
180.57	2697.17
180.79	3086.29
181.01	2924.50
181.23	2742.23
181.45	2852.82
181.67	3100.62
181.90	3135.44
182.12	2746.33
182.34	2568.15
182.56	3061.71
182.78	3035.09
183.00	2631.64
183.22	2729.94
183.44	2701.27
183.66	3442.64
183.89	2748.37
184.11	2686.94
184.33	3110.86
184.55	3174.35
184.77	2664.41
184.99	2682.84
185.21	2895.83
185.43	3522.51
185.65	2707.41
185.87	2582.49
186.10	3381.20
186.32	3393.48
186.54	2856.92
186.76	2787.29
186.98	3184.59
187.20	2926.55
187.42	2717.65
187.64	2705.37
187.86	3010.51
188.08	3133.39
188.30	2572.25
188.52	2635.74
188.75	3164.11
188.97	3188.69
189.19	2627.54
189.41	2617.30
189.63	3106.77
189.85	2895.83
190.07	2523.10
190.29	2516.95
190.51	3119.06
190.73	2709.46
190.95	2901.97
191.17	2731.99
191.39	2729.94
191.61	2996.18
191.84	2623.45
192.06	2699.22
192.28	2693.08
192.50	3540.94
192.72	2766.81
192.94	2787.29
193.16	3180.50
193.38	2977.75
193.60	2607.06
193.82	2766.81
194.04	3243.98
194.26	3010.51
194.48	2731.99
194.70	2633.69
194.92	2893.78
195.14	3026.90
195.36	2693.08
195.58	2721.75
195.80	2981.84
196.02	2848.72
196.24	2684.89
196.46	2795.48
196.69	2965.46
196.91	3440.59
197.13	2668.50
197.35	2717.65
197.57	3190.74
197.79	3012.56
198.01	2699.22
198.23	2721.75
198.45	3092.43
198.67	2799.57
198.89	2467.80
199.11	2742.23
199.33	2877.40
199.55	2631.64
199.77	2629.59
199.99	2822.10
200.21	3006.42
200.43	3045.33
200.65	2613.21
200.87	2574.30
201.09	3045.33
201.31	2977.75
201.53	2688.98
201.75	2746.33
201.97	2914.26
202.19	2912.21
202.41	2744.28
202.63	2891.73
202.85	3119.06
203.07	3028.95
203.29	2727.89
203.51	2615.26
203.73	2832.34
203.95	3465.16
204.17	2650.07
204.39	2801.62
204.61	3069.91
204.83	2899.92
205.05	2840.53
205.27	2676.70
205.49	3319.76
205.71	2922.45
205.93	2586.58
206.15	2584.54
206.37	2959.31
206.59	2951.12
206.81	2547.67
207.03	2602.97
207.25	2889.68
207.47	3094.48
207.69	2709.46
207.91	2936.79
208.13	3221.45
208.34	2852.82
208.56	2672.60
208.78	2707.41
209.00	2901.97
209.22	2883.54
209.44	2783.19
209.66	2658.26
209.88	3051.47
210.10	2920.40
210.32	2631.64
210.54	2840.53
210.76	2953.17
210.98	3188.69
211.20	2525.15
211.42	2756.57
211.64	3307.47
211.86	3114.96
212.08	2768.85
212.30	2707.41
212.52	2861.01
212.74	3053.52
212.96	2772.95
213.17	2731.99
213.39	3184.59
213.61	3270.61
213.83	2625.50
214.05	2502.62
214.27	3071.95
214.49	2752.47
214.71	2615.26
214.93	2820.05
215.15	3008.47
215.37	3166.16
215.59	2500.57
215.81	2742.23
216.03	3207.12
216.24	2942.93
216.46	2775.00
216.68	2770.90
216.90	3084.24
217.12	3190.74
217.34	2639.83
217.56	2858.96
217.78	3231.69
218.00	3135.44
218.22	2742.23
218.44	2777.05
218.66	2981.84
218.87	3342.28
219.09	2707.41
219.31	2645.98
219.53	3014.61
219.75	2904.02
219.97	2748.37
220.19	2684.89
220.41	2998.23
220.63	3301.33
220.85	2684.89
221.06	2719.70
221.28	3321.81
221.50	3053.52
221.72	2637.78
221.94	2656.22
222.16	2987.99
222.38	3153.87
222.60	2723.80
222.82	2715.61
223.03	3139.54
223.25	2703.32
223.47	2643.93
223.69	2869.20
223.91	3082.19
224.13	3024.85
224.35	2641.88
224.57	2770.90
224.78	3096.53
225.00	2826.20
225.22	2779.09
225.44	2586.58
225.66	3106.77
225.88	2922.45
226.10	2797.53
226.32	2691.03
226.53	3293.13
226.75	2891.73
226.97	2799.57
227.19	2676.70
227.41	2844.63
227.63	2922.45
227.85	2506.71
228.06	2682.84
228.28	3043.28
228.50	3135.44
228.72	2531.29
228.94	2631.64
229.16	2674.65
229.37	2844.63
229.59	2613.21
229.81	2899.92
230.03	3004.37
230.25	2781.14
230.47	2523.10
230.69	2701.27
230.90	3088.34
231.12	2893.78
231.34	2850.77
231.56	2813.91
231.78	2744.28
232.00	3022.80
232.21	2680.79
232.43	2736.09
232.65	2590.68
232.87	2996.18
233.09	2570.20
233.30	2617.30
233.52	3198.93
233.74	2920.40
233.96	2670.55
234.18	2895.83
234.40	3010.51
234.61	3364.81
234.83	2588.63
235.05	2641.88
235.27	3450.83
235.49	3207.12
235.70	2557.91
235.92	2721.75
236.14	3082.19
236.36	3405.77
236.58	2566.10
236.79	2846.68
237.01	2987.99
237.23	2891.73
237.45	2965.46
237.67	2664.41
237.88	3067.86
238.10	3379.15
238.32	2568.15
238.54	2629.59
238.76	2932.69
238.97	2846.68
239.19	2617.30
239.41	2822.10
239.63	3233.74
239.85	2836.44
240.06	2729.94
240.28	2672.60
240.50	3164.11
240.72	3000.27
240.93	2631.64
241.15	2742.23
241.37	2987.99
241.59	3221.45
241.81	2688.98
242.02	2699.22
242.24	3030.99
242.46	3045.33
242.68	2490.33
242.89	2566.10
243.11	3045.33
243.33	3078.10
243.55	2713.56
243.76	2695.13
243.98	2815.96
244.20	3018.71
244.42	2666.46
244.64	2629.59
244.85	2750.42
245.07	2746.33
245.29	2611.16
245.51	2703.32
245.72	3037.14
245.94	3157.97
246.16	2715.61
246.38	2719.70
246.59	2895.83
246.81	2824.15
247.03	2623.45
247.24	2572.25
247.46	2930.64
247.68	2944.98
247.90	2645.98
248.11	2680.79
248.33	3106.77
248.55	2998.23
248.77	2697.17
248.98	2678.74
249.20	3250.13
249.42	2987.99
249.64	2600.92
249.85	2701.27
250.07	2852.82
250.29	3074.00
250.50	2785.24
250.72	2586.58
250.94	3164.11
251.16	3401.68
251.37	2693.08
251.59	2834.39
251.81	3053.52
252.02	3327.95
252.24	2609.11
252.46	2822.10
252.68	2918.36
252.89	2854.87
253.11	2541.53
253.33	2799.57
253.54	3291.09
253.76	2717.65
253.98	2701.27
254.20	2664.41
254.41	2772.95
254.63	2930.64
254.85	2594.78
255.06	2723.80
255.28	3084.24
255.50	2922.45
255.71	2676.70
255.93	2533.34
256.15	2961.36
256.36	3016.66
256.58	2594.78
256.80	2680.79
257.02	2998.23
257.23	2940.88
257.45	2768.85
257.67	2820.05
257.88	2906.07
258.10	3024.85
258.32	2627.54
258.53	2754.52
258.75	3340.24
258.97	2889.68
259.18	2652.12
259.40	2615.26
259.62	3248.08
259.83	3241.93
260.05	2754.52
260.27	3407.82
260.48	3157.97
260.70	2805.72
260.92	2553.82
261.13	2686.94
261.35	3002.32
261.57	3094.48
261.78	2562.01
262.00	2639.83
262.22	3063.76
262.43	2766.81
262.65	2752.47
262.86	2715.61
263.08	3373.00
263.30	3041.23
263.51	2457.56
263.73	2611.16
263.95	3182.54
264.16	2807.77
264.38	2652.12
264.60	2654.17
264.81	3018.71
265.03	3190.74
265.25	2983.89
265.46	2613.21
265.68	3268.56
265.89	3102.67
266.11	2633.69
266.33	2705.37
266.54	3229.65
266.76	3051.47
266.98	2791.38
267.19	2811.86
267.41	3131.34
267.62	3010.51
267.84	2480.09
268.06	2818.00
268.27	3047.38
268.49	3137.49
268.70	2787.29
268.92	2641.88
269.14	2848.72
269.35	2764.76
269.57	2672.60
269.79	2725.85
270.00	2951.12
270.22	3254.22
270.43	2572.25
270.65	2576.34
270.87	3049.43
271.08	3057.62
271.30	2787.29
271.51	2701.27
271.73	3131.34
271.95	3225.55
272.16	2570.20
272.38	2768.85
272.59	2983.89
272.81	3098.58
273.02	2621.40
273.24	2762.71
273.46	3192.78
273.67	2889.68
273.89	2607.06
274.10	2658.26
274.32	3192.78
274.54	3061.71
274.75	2791.38
274.97	2762.71
275.18	3071.95
275.40	3033.04
275.61	2762.71
275.83	2813.91
276.05	2842.58
276.26	3018.71
276.48	2752.47
276.69	2756.57
276.91	2932.69
277.12	3147.73
277.34	2883.54
277.55	2883.54
277.77	3020.75
277.99	2926.55
278.20	2748.37
278.42	2703.32
278.63	2848.72
278.85	2797.53
279.06	2746.33
279.28	2852.82
279.49	3186.64
279.71	3114.96
279.93	2861.01
280.14	2820.05
280.36	2867.16
280.57	3180.50
280.79	2875.35
281.00	2693.08
281.22	2949.08
281.43	3260.37
281.65	2594.78
281.86	2807.77
282.08	3067.86
282.29	3354.57
282.51	2641.88
282.73	2674.65
282.94	2738.13
283.16	3043.28
283.37	2938.84
283.59	2871.25
283.80	3119.06
284.02	3016.66
284.23	2867.16
284.45	2824.15
284.66	2883.54
284.88	2834.39
285.09	2725.85
285.31	2869.20
285.52	3035.09
285.74	2680.79
285.95	2973.65
286.17	2856.92
286.38	3121.10
286.60	2832.34
286.81	2772.95
287.03	2770.90
287.24	2957.27
287.46	2992.08
287.67	2887.64
287.89	3065.81
288.10	2924.50
288.32	3012.56
288.53	2899.92
288.75	2897.88
288.96	3106.77
289.18	2854.87
289.39	2721.75
289.61	2875.35
289.82	3411.92
290.04	3305.42
290.25	2678.74
290.47	2848.72
290.68	2981.84
290.90	3157.97
291.11	2627.54
291.33	2895.83
291.54	2840.53
291.76	2893.78
291.97	2910.16
292.18	2846.68
292.40	2916.31
292.61	2901.97
292.83	3014.61
293.04	2815.96
293.26	3018.71
293.47	2910.16
293.69	2672.60
293.90	2668.50
294.12	3203.02
294.33	2926.55
294.55	2785.24
294.76	2918.36
294.97	3252.17
295.19	3395.53
295.40	2731.99
295.62	2830.29
295.83	3184.59
296.05	2828.24
296.26	3018.71
296.48	2783.19
296.69	2918.36
296.90	2953.17
297.12	2957.27
297.33	2977.75
297.55	2981.84
297.76	3086.29
297.98	2871.25
298.19	2899.92
298.41	2953.17
298.62	2795.48
298.83	3000.27
299.05	2861.01
299.26	2891.73
299.48	2801.62
299.69	2875.35
299.90	2707.41
300.12	2869.20
300.33	3139.54
300.55	2828.24
300.76	2770.90
300.98	2818.00
301.19	3078.10
301.40	2875.35
301.62	2742.23
301.83	3041.23
302.05	2994.13
302.26	2815.96
302.47	2869.20
302.69	2922.45
302.90	3041.23
303.12	2564.06
303.33	2904.02
303.54	3354.57
303.76	2912.21
303.97	2715.61
304.19	3014.61
304.40	2779.09
304.61	3100.62
304.83	3035.09
305.04	2869.20
305.26	3078.10
305.47	2828.24
305.68	2818.00
305.90	2660.31
306.11	3174.35
306.33	2944.98
306.54	2592.73
306.75	2672.60
306.97	2623.45
307.18	2828.24
307.39	2736.09
307.61	2881.49
307.82	2983.89
308.04	3090.38
308.25	2713.56
308.46	3014.61
308.68	2893.78
308.89	3030.99
309.10	2936.79
309.32	2899.92
309.53	3000.27
309.74	3084.24
309.96	2803.67
310.17	2994.13
310.39	2875.35
310.60	3125.20
310.81	2766.81
311.03	2668.50
311.24	3166.16
311.45	2961.36
311.67	2926.55
311.88	2863.06
312.09	2963.41
312.31	2895.83
312.52	2738.13
312.73	2818.00
312.95	2736.09
313.16	2856.92
313.37	2977.75
313.59	2914.26
313.80	3061.71
314.01	3323.85
314.23	2858.96
314.44	2731.99
314.65	2779.09
314.87	2815.96
315.08	2813.91
315.29	2813.91
315.51	2871.25
315.72	2775.00
315.93	2920.40
316.15	2846.68
316.36	2881.49
316.57	2979.79
316.79	2846.68
317.00	2721.75
317.21	3127.25
317.43	2875.35
317.64	2772.95
317.85	2760.66
318.07	2842.58
318.28	2985.94
318.49	2846.68
318.70	3051.47
318.92	2949.08
319.13	3028.95
319.34	2899.92
319.56	2826.20
319.77	3106.77
319.98	3114.96
320.20	3026.90
320.41	2932.69
320.62	3117.01
320.83	2787.29
321.05	3039.19
321.26	2904.02
321.47	3026.90
321.69	3170.26
321.90	2707.41
322.11	2703.32
322.32	2947.03
322.54	3211.22
322.75	2779.09
322.96	3504.07
323.18	2682.84
323.39	2639.83
323.60	2641.88
323.81	2965.46
324.03	2852.82
324.24	2953.17
324.45	2840.53
324.66	2803.67
324.88	3205.07
325.09	3217.36
325.30	2748.37
325.52	2654.17
325.73	3063.76
325.94	2873.30
326.15	2750.42
326.37	2738.13
326.58	3090.38
326.79	3280.85
327.00	2789.33
327.22	2766.81
327.43	2885.59
327.64	2756.57
327.85	2916.31
328.07	2738.13
328.28	3350.48
328.49	2869.20
328.70	2822.10
328.92	2844.63
329.13	2942.93
329.34	3018.71
329.55	3002.32
329.76	2928.60
329.98	2998.23
330.19	3198.93
330.40	2897.88
330.61	2867.16
330.83	3143.63
331.04	2850.77
331.25	2799.57
331.46	2736.09
331.68	2756.57
331.89	3164.11
332.10	2897.88
332.31	2680.79
332.52	2994.13
332.74	3192.78
332.95	2602.97
333.16	2809.81
333.37	3084.24
333.58	2924.50
333.80	2832.34
334.01	2598.87
334.22	3018.71
334.43	2828.24
334.64	2775.00
334.86	2699.22
335.07	2775.00
335.28	3246.03
335.49	2625.50
335.70	2844.63
335.92	3227.60
336.13	3401.68
336.34	2953.17
336.55	2822.10
336.76	3106.77
336.98	2711.51
337.19	2805.72
337.40	2930.64
337.61	3508.17
337.82	2940.88
338.04	2926.55
338.25	2691.03
338.46	2947.03
338.67	2977.75
338.88	2623.45
339.09	2715.61
339.31	2914.26
339.52	2775.00
339.73	2742.23
339.94	2856.92
340.15	3114.96
340.36	2883.54
340.58	2836.44
340.79	2783.19
341.00	3092.43
341.21	2789.33
341.42	3039.19
341.63	2779.09
341.85	3084.24
342.06	3002.32
342.27	2775.00
342.48	3006.42
342.69	2777.05
342.90	3067.86
343.12	3145.68
343.33	2723.80
343.54	3102.67
343.75	3291.09
343.96	2852.82
344.17	2762.71
344.38	2973.65
344.60	2787.29
344.81	2775.00
345.02	2822.10
345.23	3164.11
345.44	3473.36
345.65	2934.74
345.86	2850.77
346.07	3039.19
346.29	2889.68
346.50	2875.35
346.71	2879.44
346.92	3215.31
347.13	3334.09
347.34	2879.44
347.55	2715.61
347.76	3051.47
347.98	2779.09
348.19	2852.82
348.40	2901.97
348.61	2922.45
348.82	3289.04
349.03	2901.97
349.24	2789.33
349.45	3276.75
349.66	2625.50
349.88	2721.75
350.09	2736.09
350.30	3223.50
350.51	3170.26
350.72	2926.55
350.93	2768.85
351.14	2965.46
351.35	3030.99
351.56	2807.77
351.77	2858.96
351.99	3037.14
352.20	3295.18
352.41	2938.84
352.62	2699.22
352.83	3039.19
353.04	2947.03
353.25	2803.67
353.46	2865.11
353.67	3168.21
353.88	2641.88
354.09	2775.00
354.30	2818.00
354.52	3164.11
354.73	2885.59
354.94	2775.00
355.15	2875.35
355.36	3286.99
355.57	2918.36
355.78	2723.80
355.99	2740.18
356.20	2914.26
356.41	3215.31
356.62	2867.16
356.83	2818.00
357.04	3286.99
357.25	2688.98
357.46	2760.66
357.68	2566.10
357.89	2725.85
358.10	3018.71
358.31	2867.16
358.52	2813.91
358.73	2815.96
358.94	2662.36
359.15	2768.85
359.36	2881.49
359.57	3004.37
359.78	2979.79
359.99	2959.31
360.20	2688.98
360.41	3022.80
360.62	3071.95
360.83	2891.73
361.04	2856.92
361.25	3039.19
361.46	3233.74
361.67	2891.73
361.88	2885.59
362.09	3108.82
362.30	3074.00
362.51	2666.46
362.72	2893.78
362.93	3039.19
363.14	3096.53
363.35	2965.46
363.56	2656.22
363.78	3147.73
363.99	3102.67
364.20	2787.29
364.41	2893.78
364.62	3264.46
364.83	3045.33
365.04	2779.09
365.25	2805.72
365.46	3282.89
365.67	2822.10
365.88	2963.41
366.09	2803.67
366.30	2926.55
366.51	3053.52
366.72	2731.99
366.93	2762.71
367.14	2990.03
367.35	3166.16
367.56	2664.41
367.77	2949.08
367.98	3018.71
368.18	3033.04
368.39	2994.13
368.60	2764.76
368.81	3184.59
369.02	2963.41
369.23	2756.57
369.44	2590.68
369.65	2973.65
369.86	3065.81
370.07	2961.36
370.28	2695.13
370.49	3061.71
370.70	3084.24
370.91	2705.37
371.12	2656.22
371.33	3250.13
371.54	2858.96
371.75	3043.28
371.96	2492.38
372.17	3084.24
372.38	2922.45
372.59	2811.86
372.80	2762.71
373.01	3008.47
373.22	3012.56
373.43	2785.24
373.64	2592.73
373.85	3178.45
374.06	3180.50
374.26	2959.31
374.47	2996.18
374.68	3231.69
374.89	2983.89
375.10	2797.53
375.31	2942.93
375.52	2977.75
375.73	2942.93
375.94	2551.77
376.15	3049.43
376.36	2772.95
376.57	2904.02
376.78	2672.60
376.99	2881.49
377.20	3133.39
377.40	2992.08
377.61	3100.62
377.82	2760.66
378.03	3172.30
378.24	3137.49
378.45	2893.78
378.66	2912.21
378.87	2731.99
379.08	2750.42
379.29	2731.99
379.50	2920.40
379.71	3002.32
379.91	3041.23
380.12	2838.48
380.33	2994.13
380.54	2961.36
380.75	3022.80
380.96	2775.00
381.17	2830.29
381.38	2930.64
381.59	2967.51
381.80	2830.29
382.00	2965.46
382.21	2990.03
382.42	3235.79
382.63	3178.45
382.84	2936.79
383.05	3219.41
383.26	3192.78
383.47	2901.97
383.68	2783.19
383.88	3014.61
384.09	2934.74
384.30	3051.47
384.51	2918.36
384.72	2916.31
384.93	2807.77
385.14	2891.73
385.35	3033.04
385.55	2752.47
385.76	3203.02
385.97	2787.29
386.18	2656.22
386.39	2895.83
386.60	2858.96
386.81	2807.77
387.02	2688.98
387.22	2731.99
387.43	3133.39
387.64	2906.07
387.85	3057.62
388.06	3004.37
388.27	4042.69
388.48	7239.57
388.68	10755.93
388.89	13246.26
389.10	14511.91
389.31	13862.70
389.52	11108.18
389.73	9721.71
389.93	8884.09
390.14	8163.20
390.35	7356.30
390.56	6643.61
390.77	5517.23
390.98	4298.69
391.18	3647.43
391.39	3422.16
391.60	2940.88
391.81	2967.51
392.02	2873.30
392.23	3456.97
392.43	2994.13
392.64	2947.03
392.85	2953.17
393.06	3186.64
393.27	3006.42
393.47	2828.24
393.68	2934.74
393.89	2912.21
394.10	3223.50
394.31	2738.13
394.52	2762.71
394.72	2863.06
394.93	3276.75
395.14	2697.17
395.35	2942.93
395.56	2861.01
395.76	3024.85
395.97	2848.72
396.18	2932.69
396.39	3016.66
396.60	3563.47
396.80	3160.02
397.01	3026.90
397.22	3080.14
397.43	3231.69
397.64	2805.72
397.84	2879.44
398.05	3356.62
398.26	2967.51
398.47	2899.92
398.67	3074.00
398.88	3022.80
399.09	3090.38
399.30	2836.44
399.51	2918.36
399.71	2858.96
399.92	2938.84
400.13	2918.36
400.34	2891.73
400.54	2895.83
400.75	3301.33
400.96	3041.23
401.17	3125.20
401.37	3053.52
401.58	2981.84
401.79	2867.16
402.00	2928.60
402.21	3418.06
402.41	3112.91
402.62	3117.01
402.83	3119.06
403.04	3360.72
403.24	3641.29
403.45	2891.73
403.66	3190.74
403.87	3164.11
404.07	3307.47
404.28	3030.99
404.49	3086.29
404.70	3053.52
404.90	3131.34
405.11	2820.05
405.32	2899.92
405.52	2861.01
405.73	2840.53
405.94	2791.38
406.15	2940.88
406.35	3192.78
406.56	3164.11
406.77	2838.48
406.98	2885.59
407.18	2912.21
407.39	3190.74
407.60	2848.72
407.80	2979.79
408.01	2842.58
408.22	3037.14
408.43	2762.71
408.63	2910.16
408.84	3178.45
409.05	3129.30
409.25	2791.38
409.46	2885.59
409.67	2858.96
409.88	2965.46
410.08	2906.07
410.29	2813.91
410.50	3063.76
410.70	3082.19
410.91	2746.33
411.12	2879.44
411.32	2969.55
411.53	2791.38
411.74	2899.92
411.95	2961.36
412.15	3004.37
412.36	3114.96
412.57	2996.18
412.77	3092.43
412.98	2955.22
413.19	2940.88
413.39	2830.29
413.60	2824.15
413.81	3235.79
414.01	2848.72
414.22	2826.20
414.43	3006.42
414.63	2869.20
414.84	3211.22
415.05	2824.15
415.25	2648.02
415.46	3030.99
415.67	2936.79
415.87	2871.25
416.08	2822.10
416.29	2922.45
416.49	3071.95
416.70	2906.07
416.91	2824.15
417.11	2936.79
417.32	3190.74
417.53	2947.03
417.73	2961.36
417.94	2965.46
418.15	3018.71
418.35	2912.21
418.56	2836.44
418.77	3436.49
418.97	3063.76
419.18	2871.25
419.38	2562.01
419.59	2955.22
419.80	3190.74
420.00	2824.15
420.21	2906.07
420.42	3205.07
420.62	3049.43
420.83	2775.00
421.04	2856.92
421.24	2985.94
421.45	3166.16
421.65	2852.82
421.86	2822.10
422.07	3117.01
422.27	3016.66
422.48	2756.57
422.69	2723.80
422.89	2969.55
423.10	2934.74
423.30	2820.05
423.51	2895.83
423.72	3037.14
423.92	3186.64
424.13	2664.41
424.33	2930.64
424.54	3088.34
424.75	3051.47
424.95	3039.19
425.16	2885.59
425.36	2906.07
425.57	3209.17
425.78	3000.27
425.98	2904.02
426.19	3024.85
426.39	2836.44
426.60	2949.08
426.81	3000.27
427.01	3053.52
427.22	2869.20
427.42	2729.94
427.63	2699.22
427.83	3180.50
428.04	3323.85
428.25	2916.31
428.45	3018.71
428.66	3209.17
428.86	2908.12
429.07	2867.16
429.28	2869.20
429.48	3012.56
429.69	2906.07
429.89	2918.36
430.10	2797.53
430.30	3119.06
430.51	3076.05
430.71	2789.33
430.92	2863.06
431.13	2944.98
431.33	3080.14
431.54	2901.97
431.74	3106.77
431.95	3330.00
432.15	2805.72
432.36	2766.81
432.56	2893.78
432.77	3317.71
432.98	3370.96
433.18	2912.21
433.39	2820.05
433.59	2973.65
433.80	3399.63
434.00	2998.23
434.21	2828.24
434.41	2865.11
434.62	3379.15
434.82	2688.98
435.03	2693.08
435.23	2969.55
435.44	2731.99
435.64	2828.24
435.85	2852.82
436.06	3123.15
436.26	3160.02
436.47	2844.63
436.67	2709.46
436.88	3006.42
437.08	3198.93
437.29	3051.47
437.49	2947.03
437.70	3182.54
437.90	2934.74
438.11	3117.01
438.31	2961.36
438.52	3176.40
438.72	3147.73
438.93	3135.44
439.13	2910.16
439.34	3084.24
439.54	3000.27
439.75	2910.16
439.95	2922.45
440.16	2842.58
440.36	3022.80
440.57	2975.70
440.77	2754.52
440.98	2981.84
441.18	3086.29
441.39	2754.52
441.59	2791.38
441.80	3385.29
442.00	2969.55
442.21	2908.12
442.41	2660.31
442.62	3172.30
442.82	2869.20
443.02	2836.44
443.23	2856.92
443.43	2875.35
443.64	3221.45
443.84	2729.94
444.05	2901.97
444.25	3041.23
444.46	2963.41
444.66	2797.53
444.87	3080.14
445.07	2777.05
445.28	2940.88
445.48	3014.61
445.69	2959.31
445.89	3471.31
446.09	2953.17
446.30	3137.49
446.50	3239.89
446.71	4616.12
446.91	5699.50
447.12	6623.13
447.32	7073.68
447.53	6854.55
447.73	5785.51
447.93	5054.39
448.14	4749.24
448.34	4784.06
448.55	3948.48
448.75	4124.61
448.96	3825.61
449.16	3672.01
449.36	3573.71
449.57	3080.14
449.77	2926.55
449.98	3004.37
450.18	3166.16
450.39	2811.86
450.59	3078.10
450.79	3002.32
451.00	2826.20
451.20	3026.90
451.41	2793.43
451.61	3033.04
451.81	3000.27
452.02	2830.29
452.22	2881.49
452.43	2899.92
452.63	2826.20
452.84	2899.92
453.04	2699.22
453.24	3051.47
453.45	2809.81
453.65	2869.20
453.86	2854.87
454.06	3074.00
454.26	3000.27
454.47	2789.33
454.67	3084.24
454.87	3104.72
455.08	2922.45
455.28	3006.42
455.49	2967.51
455.69	2916.31
455.89	3342.28
456.10	2967.51
456.30	2785.24
456.51	3110.86
456.71	2916.31
456.91	2947.03
457.12	2838.48
457.32	3018.71
457.52	2738.13
457.73	3071.95
457.93	3014.61
458.14	2936.79
458.34	2705.37
458.54	2848.72
458.75	2809.81
458.95	3147.73
459.15	3010.51
459.36	2916.31
459.56	2858.96
459.76	3413.96
459.97	2987.99
460.17	2832.34
460.37	2969.55
460.58	2944.98
460.78	3110.86
460.99	2822.10
461.19	2750.42
461.39	2822.10
461.60	3002.32
461.80	2926.55
462.00	2762.71
462.21	3004.37
462.41	2777.05
462.61	2719.70
462.82	2779.09
463.02	3139.54
463.22	2987.99
463.43	2936.79
463.63	2768.85
463.83	3268.56
464.04	3010.51
464.24	2869.20
464.44	2725.85
464.64	3020.75
464.85	3059.67
465.05	2891.73
465.25	2828.24
465.46	2895.83
465.66	3074.00
465.86	2920.40
466.07	2891.73
466.27	2908.12
466.47	2688.98
466.68	2723.80
466.88	2987.99
467.08	3094.48
467.29	3065.81
467.49	2846.68
467.69	2973.65
467.89	2994.13
468.10	3026.90
468.30	2979.79
468.50	3041.23
468.71	3176.40
468.91	2867.16
469.11	3069.91
469.31	2904.02
469.52	2863.06
469.72	3297.23
469.92	3145.68
470.13	2811.86
470.33	3065.81
470.53	3051.47
470.73	3262.41
470.94	3540.94
471.14	3573.71
471.34	4153.28
471.54	3844.04
471.75	3585.99
471.95	3428.30
472.15	3291.09
472.36	3323.85
472.56	3305.42
472.76	3479.50
472.96	3266.51
473.17	3059.67
473.37	2973.65
473.57	2938.84
473.77	3174.35
473.98	2926.55
474.18	2764.76
474.38	3438.54
474.58	2856.92
474.79	2758.61
474.99	2936.79
475.19	3143.63
475.39	2760.66
475.60	2920.40
475.80	2873.30
476.00	3123.15
476.20	2969.55
476.41	2916.31
476.61	2865.11
476.81	3295.18
477.01	2906.07
477.21	3088.34
477.42	2977.75
477.62	2844.63
477.82	3137.49
478.02	2793.43
478.23	2820.05
478.43	2797.53
478.63	2971.60
478.83	2881.49
479.03	2852.82
479.24	3280.85
479.44	3356.62
479.64	2820.05
479.84	2701.27
480.04	2901.97
480.25	3084.24
480.45	2822.10
480.65	2822.10
480.85	3258.32
481.06	2877.40
481.26	2947.03
481.46	2889.68
481.66	2983.89
481.86	2883.54
482.06	3057.62
482.27	2811.86
482.47	2899.92
482.67	2998.23
482.87	2854.87
483.07	2887.64
483.28	2789.33
483.48	2787.29
483.68	2916.31
483.88	2781.14
484.08	2629.59
484.29	2813.91
484.49	2949.08
484.69	2721.75
484.89	3198.93
485.09	3172.30
485.29	2920.40
485.50	3000.27
485.70	2809.81
485.90	3223.50
486.10	2908.12
486.30	2871.25
486.50	3227.60
486.71	3110.86
486.91	2977.75
487.11	3010.51
487.31	2775.00
487.51	2987.99
487.71	2744.28
487.91	2748.37
488.12	2867.16
488.32	2568.15
488.52	2846.68
488.72	2582.49
488.92	3016.66
489.12	3211.22
489.32	3041.23
489.53	2875.35
489.73	2775.00
489.93	3243.98
490.13	2770.90
490.33	2709.46
490.53	3018.71
490.73	3215.31
490.94	2713.56
491.14	2959.31
491.34	3125.20
491.54	3096.53
491.74	3674.06
491.94	4196.29
492.14	4704.18
492.34	4700.09
492.54	4356.03
492.75	3876.80
492.95	3975.11
493.15	3700.68
493.35	3532.75
493.55	3479.50
493.75	3366.86
493.95	3522.51
494.15	3094.48
494.35	2901.97
494.56	2930.64
494.76	2844.63
494.96	2936.79
495.16	2867.16
495.36	3016.66
495.56	3059.67
495.76	2785.24
495.96	2801.62
496.16	2887.64
496.36	3438.54
496.56	2865.11
496.77	2932.69
496.97	2967.51
497.17	3123.15
497.37	2693.08
497.57	2867.16
497.77	2918.36
497.97	2842.58
498.17	2793.43
498.37	2766.81
498.57	3129.30
498.77	2897.88
498.97	3016.66
499.17	3119.06
499.38	2918.36
499.58	3069.91
499.78	3008.47
499.98	3002.32
500.18	2924.50
500.38	2869.20
500.58	3030.99
500.78	3426.25
500.98	5461.93
501.18	7210.90
501.38	8640.38
501.58	9516.91
501.78	9582.45
501.98	7880.58
502.18	6627.23
502.38	5717.93
502.58	5756.84
502.78	5081.01
502.98	4777.91
503.18	4720.57
503.38	4343.74
503.59	3743.69
503.79	3669.96
503.99	3459.02
504.19	3497.93
504.39	3467.21
504.59	3354.57
504.79	3170.26
504.99	3422.16
505.19	3114.96
505.39	3016.66
505.59	3286.99
505.79	3342.28
505.99	3092.43
506.19	2951.12
506.39	3037.14
506.59	2863.06
506.79	2994.13
506.99	3106.77
507.19	2803.67
507.39	3026.90
507.59	2875.35
507.79	2838.48
507.99	2850.77
508.19	3041.23
508.39	2985.94
508.59	2863.06
508.79	2996.18
508.99	3403.72
509.19	2875.35
509.39	2887.64
509.59	2795.48
509.79	2897.88
509.99	3080.14
510.19	2951.12
510.39	2990.03
510.59	2965.46
510.79	2910.16
510.99	2746.33
511.19	2775.00
511.39	3168.21
511.59	3190.74
511.79	3016.66
511.99	2881.49
512.19	3301.33
512.38	2975.70
512.58	2834.39
512.78	2725.85
512.98	3137.49
513.18	3295.18
513.38	2727.89
513.58	2906.07
513.78	2846.68
513.98	2906.07
514.18	2830.29
514.38	2877.40
514.58	2990.03
514.78	2834.39
514.98	2752.47
515.18	2871.25
515.38	2801.62
515.58	3307.47
515.78	2863.06
515.98	2795.48
516.18	3088.34
516.38	2987.99
516.57	2897.88
516.77	2854.87
516.97	3088.34
517.17	2904.02
517.37	2654.17
517.57	2914.26
517.77	3002.32
517.97	2912.21
518.17	2947.03
518.37	2719.70
518.57	2865.11
518.77	2975.70
518.97	2869.20
519.16	2924.50
519.36	3260.37
519.56	2863.06
519.76	2789.33
519.96	2889.68
520.16	3256.27
520.36	2938.84
520.56	2979.79
520.76	2826.20
520.96	2981.84
521.16	3147.73
521.35	2975.70
521.55	3006.42
521.75	2963.41
521.95	2963.41
522.15	2805.72
522.35	2660.31
522.55	2801.62
522.75	3117.01
522.95	2783.19
523.14	2791.38
523.34	3039.19
523.54	2885.59
523.74	2985.94
523.94	2879.44
524.14	2699.22
524.34	2967.51
524.54	3016.66
524.73	2877.40
524.93	3082.19
525.13	3039.19
525.33	2836.44
525.53	3030.99
525.73	3151.82
525.93	3014.61
526.13	2820.05
526.32	2828.24
526.52	3176.40
526.72	3135.44
526.92	2940.88
527.12	2824.15
527.32	2779.09
527.52	3002.32
527.71	2951.12
527.91	2836.44
528.11	2887.64
528.31	2920.40
528.51	2871.25
528.71	2981.84
528.90	3065.81
529.10	3164.11
529.30	2914.26
529.50	2609.11
529.70	3043.28
529.90	2873.30
530.09	2930.64
530.29	2725.85
530.49	2795.48
530.69	3495.88
530.89	2994.13
531.09	2959.31
531.28	2940.88
531.48	3121.10
531.68	2826.20
531.88	2934.74
532.08	3129.30
532.28	2912.21
532.47	2951.12
532.67	2992.08
532.87	2936.79
533.07	2836.44
533.27	2883.54
533.46	2924.50
533.66	3010.51
533.86	3030.99
534.06	2885.59
534.26	2873.30
534.45	2981.84
534.65	3166.16
534.85	2949.08
535.05	2772.95
535.25	3162.06
535.44	2740.18
535.64	2938.84
535.84	2887.64
536.04	2887.64
536.24	2899.92
536.43	2799.57
536.63	2861.01
536.83	2936.79
537.03	3008.47
537.22	2684.89
537.42	2725.85
537.62	3004.37
537.82	2836.44
538.02	3076.05
538.21	2987.99
538.41	3512.27
538.61	3063.76
538.81	2891.73
539.00	2979.79
539.20	2848.72
539.40	2918.36
539.60	2885.59
539.79	2998.23
539.99	2977.75
540.19	2932.69
540.39	2850.77
540.58	2936.79
540.78	3213.26
540.98	2944.98
541.18	3061.71
541.37	2979.79
541.57	3078.10
541.77	3071.95
541.97	2805.72
542.16	2688.98
542.36	2916.31
542.56	3184.59
542.76	3055.57
542.95	2942.93
543.15	3049.43
543.35	3143.63
543.54	2838.48
543.74	2762.71
543.94	3184.59
544.14	2852.82
544.33	2955.22
544.53	2883.54
544.73	2904.02
544.93	2858.96
545.12	2869.20
545.32	2842.58
545.52	2879.44
545.71	2738.13
545.91	2858.96
546.11	2793.43
546.30	2830.29
546.50	2897.88
546.70	2930.64
546.90	2922.45
547.09	2699.22
547.29	3000.27
547.49	2934.74
547.68	2875.35
547.88	2844.63
548.08	3162.06
548.27	3262.41
548.47	2797.53
548.67	2912.21
548.87	3102.67
549.06	2883.54
549.26	2752.47
549.46	2979.79
549.65	2869.20
549.85	2901.97
550.05	2871.25
550.24	2699.22
550.44	3026.90
550.64	2852.82
550.83	2867.16
551.03	3246.03
551.23	3174.35
551.42	2895.83
551.62	2914.26
551.82	2961.36
552.01	2961.36
552.21	3198.93
552.41	2885.59
552.60	3205.07
552.80	2963.41
553.00	2727.89
553.19	2832.34
553.39	3313.61
553.59	2789.33
553.78	2887.64
553.98	2867.16
554.17	2820.05
554.37	3026.90
554.57	2895.83
554.76	2711.51
554.96	2861.01
555.16	3018.71
555.35	2893.78
555.55	2985.94
555.75	3051.47
555.94	3016.66
556.14	2588.63
556.33	2924.50
556.53	3018.71
556.73	2987.99
556.92	2967.51
557.12	2895.83
557.32	3284.94
557.51	3194.83
557.71	2910.16
557.90	3018.71
558.10	3147.73
558.30	2904.02
558.49	2873.30
558.69	2887.64
558.88	3094.48
559.08	2994.13
559.28	2953.17
559.47	2936.79
559.67	3160.02
559.86	3262.41
560.06	2863.06
560.26	2834.39
560.45	3043.28
560.65	2906.07
560.84	3129.30
561.04	2729.94
561.24	3092.43
561.43	2766.81
561.63	3117.01
561.82	2987.99
562.02	3086.29
562.22	2820.05
562.41	2764.76
562.61	2799.57
562.80	2897.88
563.00	3350.48
563.19	2924.50
563.39	2928.60
563.59	3112.91
563.78	2746.33
563.98	2594.78
564.17	2795.48
564.37	2727.89
564.56	2934.74
564.76	2676.70
564.96	3022.80
565.15	2994.13
565.35	3442.64
565.54	2914.26
565.74	2932.69
565.93	3114.96
566.13	3045.33
566.32	2926.55
566.52	2912.21
566.71	3094.48
566.91	3172.30
567.11	2908.12
567.30	2803.67
567.50	3035.09
567.69	3071.95
567.89	2897.88
568.08	2744.28
568.28	3018.71
568.47	2748.37
568.67	2924.50
568.86	2820.05
569.06	3182.54
569.25	2871.25
569.45	2723.80
569.64	2914.26
569.84	2920.40
570.04	3074.00
570.23	2826.20
570.43	2863.06
570.62	3041.23
570.82	3313.61
571.01	2711.51
571.21	2766.81
571.40	2809.81
571.60	3123.15
571.79	2828.24
571.99	2834.39
572.18	2813.91
572.38	3024.85
572.57	2861.01
572.77	2930.64
572.96	3461.07
573.16	3037.14
573.35	2858.96
573.55	3059.67
573.74	3014.61
573.94	2959.31
574.13	2869.20
574.33	2973.65
574.52	3160.02
574.71	2914.26
574.91	2867.16
575.10	2748.37
575.30	2924.50
575.49	2789.33
575.69	2772.95
575.88	2865.11
576.08	3012.56
576.27	2983.89
576.47	2820.05
576.66	2975.70
576.86	3196.88
577.05	2979.79
577.25	2985.94
577.44	3094.48
577.64	2893.78
577.83	3176.40
578.02	2772.95
578.22	3033.04
578.41	3317.71
578.61	3008.47
578.80	2693.08
579.00	2897.88
579.19	2961.36
579.39	2994.13
579.58	3002.32
579.77	2897.88
579.97	3143.63
580.16	3133.39
580.36	2983.89
580.55	2963.41
580.75	3014.61
580.94	2985.94
581.13	3039.19
581.33	3112.91
581.52	3035.09
581.72	3315.66
581.91	2932.69
582.11	2861.01
582.30	3090.38
582.49	2949.08
582.69	3137.49
582.88	2924.50
583.08	2955.22
583.27	3241.93
583.47	3006.42
583.66	2822.10
583.85	2824.15
584.05	3028.95
584.24	2928.60
584.44	2967.51
584.63	3252.17
584.82	3121.10
585.02	3082.19
585.21	3065.81
585.41	3088.34
585.60	2944.98
585.79	3092.43
585.99	3147.73
586.18	2987.99
586.37	3991.49
586.57	5732.26
586.76	16420.61
586.96	35716.58
587.15	48323.87
587.34	56501.41
587.54	60593.25
587.73	54344.90
587.93	38587.83
588.12	29498.94
588.31	23897.75
588.51	21257.92
588.70	19586.77
588.89	17102.59
589.09	14774.05
589.28	12441.41
589.47	9713.52
589.67	7473.04
589.86	5836.71
590.06	4595.64
590.25	4005.83
590.44	3571.66
590.64	3270.61
590.83	3241.93
591.02	3221.45
591.22	2963.41
591.41	3026.90
591.60	3035.09
591.80	3364.81
591.99	2746.33
592.18	2914.26
592.38	3180.50
592.57	2918.36
592.76	2848.72
592.96	2883.54
593.15	2934.74
593.34	3248.08
593.54	2869.20
593.73	2971.60
593.92	3063.76
594.12	3127.25
594.31	2914.26
594.50	2959.31
594.70	3035.09
594.89	3557.32
595.08	2740.18
595.28	2922.45
595.47	3581.90
595.66	3151.82
595.86	2760.66
596.05	2813.91
596.24	2910.16
596.43	3289.04
596.63	2944.98
596.82	2973.65
597.01	2963.41
597.21	3289.04
597.40	2928.60
597.59	2908.12
597.79	2947.03
597.98	3117.01
598.17	2953.17
598.36	2869.20
598.56	3160.02
598.75	2912.21
598.94	2805.72
599.14	2914.26
599.33	2922.45
599.52	3149.78
599.71	2949.08
599.91	2830.29
600.10	3123.15
600.29	3041.23
600.48	2987.99
600.68	2951.12
600.87	3125.20
601.06	2930.64
601.26	2949.08
601.45	3043.28
601.64	3002.32
601.83	3200.98
602.03	2828.24
602.22	2779.09
602.41	3219.41
602.60	3317.71
602.80	3033.04
602.99	3018.71
603.18	2920.40
603.37	2965.46
603.57	2856.92
603.76	2867.16
603.95	3260.37
604.14	2953.17
604.34	2746.33
604.53	2779.09
604.72	3045.33
604.91	3090.38
605.10	2916.31
605.30	2729.94
605.49	3413.96
605.68	3135.44
605.87	2981.84
606.07	2764.76
606.26	3010.51
606.45	3045.33
606.64	2906.07
606.84	2809.81
607.03	2996.18
607.22	3102.67
607.41	2897.88
607.60	2815.96
607.80	3196.88
607.99	2973.65
608.18	2924.50
608.37	2811.86
608.56	2928.60
608.76	3137.49
608.95	3067.86
609.14	2885.59
609.33	3092.43
609.52	3153.87
609.72	2971.60
609.91	3012.56
610.10	3018.71
610.29	3266.51
610.48	2930.64
610.68	2959.31
610.87	2926.55
611.06	3117.01
611.25	2858.96
611.44	2994.13
611.63	2951.12
611.83	3153.87
612.02	2795.48
612.21	2914.26
612.40	2707.41
612.59	2762.71
612.79	2754.52
612.98	2877.40
613.17	3235.79
613.36	3012.56
613.55	2967.51
613.74	2883.54
613.93	2998.23
614.13	3049.43
614.32	2992.08
614.51	2959.31
614.70	2906.07
614.89	2897.88
615.08	2906.07
615.28	3346.38
615.47	2822.10
615.66	2979.79
615.85	2867.16
616.04	2928.60
616.23	2967.51
616.42	2983.89
616.62	2854.87
616.81	2856.92
617.00	3002.32
617.19	3006.42
617.38	2824.15
617.57	2942.93
617.76	3084.24
617.95	3139.54
618.15	2914.26
618.34	3096.53
618.53	2791.38
618.72	3080.14
618.91	3014.61
619.10	2951.12
619.29	2959.31
619.48	3000.27
619.68	2719.70
619.87	2838.48
620.06	2770.90
620.25	3057.62
620.44	2824.15
620.63	2897.88
620.82	2992.08
621.01	2961.36
621.20	2883.54
621.39	2932.69
621.59	2965.46
621.78	2979.79
621.97	2850.77
622.16	3008.47
622.35	3076.05
622.54	3145.68
622.73	2926.55
622.92	2602.97
623.11	3133.39
623.30	3033.04
623.49	2942.93
623.68	2766.81
623.88	3172.30
624.07	2772.95
624.26	2754.52
624.45	2834.39
624.64	2912.21
624.83	3055.57
625.02	2820.05
625.21	2920.40
625.40	3010.51
625.59	3178.45
625.78	2887.64
625.97	2973.65
626.16	3227.60
626.35	3145.68
626.54	2891.73
626.74	3082.19
626.93	2926.55
627.12	3010.51
627.31	2992.08
627.50	2844.63
627.69	3176.40
627.88	2813.91
628.07	2719.70
628.26	2697.17
628.45	2949.08
628.64	2834.39
628.83	2815.96
629.02	2711.51
629.21	3153.87
629.40	3028.95
629.59	2731.99
629.78	2805.72
629.97	2940.88
630.16	3010.51
630.35	2854.87
630.54	2985.94
630.73	2877.40
630.92	2924.50
631.11	2742.23
631.30	2916.31
631.49	3188.69
631.68	2979.79
631.87	2928.60
632.06	2754.52
632.25	3305.42
632.44	2957.27
632.63	2957.27
632.82	2869.20
633.01	2850.77
633.20	2951.12
633.39	2828.24
633.58	2643.93
633.77	3078.10
633.96	3133.39
634.15	2916.31
634.34	2942.93
634.53	3053.52
634.72	2879.44
634.91	2674.65
635.10	2893.78
635.29	3151.82
635.48	2967.51
635.67	2709.46
635.86	2650.07
636.05	3280.85
636.24	3078.10
636.43	2908.12
636.62	2914.26
636.81	2582.49
637.00	2951.12
637.19	2824.15
637.38	2863.06
637.57	2883.54
637.76	2953.17
637.95	3002.32
638.14	2846.68
638.33	2961.36
638.52	2961.36
638.71	2754.52
638.89	2734.04
639.08	3438.54
639.27	3129.30
639.46	3018.71
639.65	3317.71
639.84	3413.96
640.03	3502.03
640.22	3178.45
640.41	3243.98
640.60	3069.91
640.79	3147.73
640.98	2938.84
641.17	3033.04
641.36	3069.91
641.55	3102.67
641.74	2736.09
641.92	2744.28
642.11	2830.29
642.30	2875.35
642.49	2850.77
642.68	2787.29
642.87	3100.62
643.06	3074.00
643.25	2727.89
643.44	2707.41
643.63	2920.40
643.82	3246.03
644.00	2766.81
644.19	2899.92
644.38	2912.21
644.57	3117.01
644.76	2932.69
644.95	2885.59
645.14	3018.71
645.33	2889.68
645.52	2893.78
645.71	2707.41
645.89	2818.00
646.08	2920.40
646.27	2916.31
646.46	3055.57
646.65	2758.61
646.84	2973.65
647.03	2742.23
647.22	3049.43
647.40	3008.47
647.59	2850.77
647.78	2723.80
647.97	2775.00
648.16	2850.77
648.35	3188.69
648.54	3090.38
648.73	2809.81
648.91	3133.39
649.10	2981.84
649.29	2777.05
649.48	2840.53
649.67	3020.75
649.86	2944.98
650.05	2904.02
650.23	3049.43
650.42	2879.44
650.61	3221.45
650.80	3102.67
650.99	3112.91
651.18	3170.26
651.36	3162.06
651.55	2779.09
651.74	2947.03
651.93	3045.33
652.12	2873.30
652.31	2930.64
652.49	2904.02
652.68	2895.83
652.87	3301.33
653.06	2949.08
653.25	3129.30
653.44	3018.71
653.62	3373.00
653.81	2879.44
654.00	2901.97
654.19	3139.54
654.38	3461.07
654.56	2920.40
654.75	2797.53
654.94	3155.92
655.13	2994.13
655.32	2777.05
655.51	2951.12
655.69	2818.00
655.88	3131.34
656.07	2678.74
656.26	2901.97
656.45	2754.52
656.63	3008.47
656.82	2828.24
657.01	3127.25
657.20	2877.40
657.38	3239.89
657.57	2766.81
657.76	2770.90
657.95	3074.00
658.14	2846.68
658.32	2938.84
658.51	2779.09
658.70	2979.79
658.89	3037.14
659.08	2897.88
659.26	3014.61
659.45	2863.06
659.64	3053.52
659.83	2801.62
660.01	3268.56
660.20	3063.76
660.39	3233.74
660.58	2607.06
660.76	2924.50
660.95	2693.08
661.14	2947.03
661.33	2756.57
661.51	2805.72
661.70	2957.27
661.89	3045.33
662.08	2891.73
662.26	2736.09
662.45	2807.77
662.64	3323.85
662.83	2965.46
663.01	2688.98
663.20	2873.30
663.39	3256.27
663.58	2858.96
663.76	2760.66
663.95	3033.04
664.14	2824.15
664.32	2865.11
664.51	2754.52
664.70	2635.74
664.89	3067.86
665.07	2719.70
665.26	3035.09
665.45	2772.95
665.64	2998.23
665.82	2760.66
666.01	2953.17
666.20	2818.00
666.38	3094.48
666.57	3129.30
666.76	4706.23
666.95	11093.85
667.13	17596.15
667.32	21206.72
667.51	23950.99
667.69	24778.37
667.88	20909.76
668.07	15066.91
668.25	12916.54
668.44	11085.65
668.63	9901.93
668.81	8466.30
669.00	7352.21
669.19	6690.71
669.38	5861.29
669.56	5113.78
669.75	4353.98
669.94	3971.01
670.12	3377.10
670.31	3149.78
670.50	3108.82
670.68	3123.15
670.87	3139.54
671.06	2828.24
671.24	2918.36
671.43	3250.13
671.62	3014.61
671.80	2918.36
671.99	3028.95
672.18	3100.62
672.36	3123.15
672.55	3026.90
672.74	2918.36
672.92	2861.01
673.11	3104.72
673.29	2834.39
673.48	2983.89
673.67	2895.83
673.85	3100.62
674.04	2813.91
674.23	2983.89
674.41	3241.93
674.60	2815.96
674.79	2635.74
674.97	2674.65
675.16	2973.65
675.34	3188.69
675.53	2772.95
675.72	2944.98
675.90	3348.43
676.09	2877.40
676.28	2975.70
676.46	2738.13
676.65	3172.30
676.83	2750.42
677.02	2985.94
677.21	2953.17
677.39	3035.09
677.58	2879.44
677.77	2863.06
677.95	2754.52
678.14	2938.84
678.32	2885.59
678.51	2910.16
678.70	3229.65
678.88	2869.20
679.07	2971.60
679.25	2926.55
679.44	2918.36
679.63	2813.91
679.81	2996.18
680.00	3071.95
680.18	2916.31
680.37	3252.17
680.55	3000.27
680.74	2744.28
680.93	2674.65
681.11	3037.14
681.30	3016.66
681.48	2856.92
681.67	2889.68
681.85	2957.27
682.04	2838.48
682.23	2979.79
682.41	2934.74
682.60	2963.41
682.78	2951.12
682.97	2777.05
683.15	2899.92
683.34	3055.57
683.53	3217.36
683.71	2641.88
683.90	2996.18
684.08	3293.13
684.27	2904.02
684.45	2922.45
684.64	3022.80
684.82	3000.27
685.01	3129.30
685.19	2879.44
685.38	3104.72
685.57	2953.17
685.75	2850.77
685.94	2797.53
686.12	2795.48
686.31	2914.26
686.49	3336.14
686.68	2596.82
686.86	2897.88
687.05	2963.41
687.23	3258.32
687.42	2820.05
687.60	2648.02
687.79	3114.96
687.97	3110.86
688.16	2987.99
688.34	3002.32
688.53	2695.13
688.71	3061.71
688.90	3043.28
689.08	2846.68
689.27	2727.89
689.45	3155.92
689.64	3039.19
689.82	3002.32
690.01	3076.05
690.19	2975.70
690.38	2922.45
690.56	2983.89
690.75	2914.26
690.93	2852.82
691.12	2815.96
691.30	2877.40
691.49	2922.45
691.67	3035.09
691.86	3176.40
692.04	2863.06
692.23	2877.40
692.41	3018.71
692.60	3215.31
692.78	3102.67
692.97	3024.85
693.15	3080.14
693.34	3153.87
693.52	3092.43
693.71	2875.35
693.89	2904.02
694.08	2697.17
694.26	2951.12
694.44	3141.58
694.63	2992.08
694.81	2803.67
695.00	2789.33
695.18	3168.21
695.37	3395.53
695.55	2897.88
695.74	2891.73
695.92	2842.58
696.10	3248.08
696.29	2725.85
696.47	2865.11
696.66	2789.33
696.84	2813.91
697.03	2832.34
697.21	3127.25
697.40	4493.24
697.58	3207.12
697.76	2856.92
697.95	2809.81
698.13	2848.72
698.32	2906.07
698.50	2912.21
698.68	2881.49
698.87	3076.05
699.05	3211.22
699.24	2951.12
699.42	2758.61
699.61	2961.36
699.79	2996.18
699.97	2842.58
700.16	2742.23
700.34	2777.05
700.53	2959.31
700.71	3125.20
700.89	2967.51
701.08	2977.75
701.26	2979.79
701.45	3276.75
701.63	2813.91
701.81	2846.68
702.00	2908.12
702.18	2895.83
702.37	2856.92
702.55	3125.20
702.73	3016.66
702.92	2762.71
703.10	3215.31
703.28	3074.00
703.47	2813.91
703.65	3067.86
703.84	3047.38
704.02	2797.53
704.20	3309.52
704.39	2789.33
704.57	2820.05
704.75	3209.17
704.94	3080.14
705.12	2963.41
705.30	3330.00
705.49	6971.29
705.67	12760.89
705.86	18163.43
706.04	20657.86
706.22	22771.36
706.41	21923.51
706.59	17061.63
706.77	12918.59
706.96	11366.23
707.14	10334.05
707.32	8976.25
707.51	8021.89
707.69	6449.05
707.87	5353.39
708.06	4622.27
708.24	3889.09
708.42	3545.03
708.61	3780.55
708.79	2947.03
708.97	2965.46
709.16	3100.62
709.34	3002.32
709.52	2926.55
709.71	2873.30
709.89	3084.24
710.07	2830.29
710.26	2807.77
710.44	2871.25
710.62	3176.40
710.80	2936.79
710.99	2942.93
711.17	2973.65
711.35	2818.00
711.54	2922.45
711.72	3096.53
711.90	2940.88
712.09	3108.82
712.27	2879.44
712.45	2953.17
712.63	2897.88
712.82	2953.17
713.00	3014.61
713.18	2916.31
713.37	3024.85
713.55	3207.12
713.73	3010.51
713.91	2947.03
714.10	2809.81
714.28	2869.20
714.46	3069.91
714.65	2983.89
714.83	2912.21
715.01	3063.76
715.19	2973.65
715.38	2832.34
715.56	3059.67
715.74	2861.01
715.92	2922.45
716.11	3098.58
716.29	2602.97
716.47	3047.38
716.65	2973.65
716.84	2701.27
717.02	2928.60
717.20	2652.12
717.38	2832.34
717.57	2992.08
717.75	2924.50
717.93	2987.99
718.11	3010.51
718.30	2746.33
718.48	2934.74
718.66	3123.15
718.84	3176.40
719.03	2893.78
719.21	2723.80
719.39	3260.37
719.57	3053.52
719.75	2863.06
719.94	2779.09
720.12	2973.65
720.30	3014.61
720.48	2973.65
720.67	2838.48
720.85	2822.10
721.03	2961.36
721.21	2871.25
721.39	2928.60
721.58	3127.25
721.76	2992.08
721.94	2951.12
722.12	2969.55
722.30	3319.76
722.49	2891.73
722.67	2936.79
722.85	2959.31
723.03	2697.17
723.21	2881.49
723.40	2897.88
723.58	2990.03
723.76	3137.49
723.94	3270.61
724.12	2926.55
724.30	3102.67
724.49	3153.87
724.67	2846.68
724.85	3074.00
725.03	2623.45
725.21	3102.67
725.40	3166.16
725.58	2858.96
725.76	3074.00
725.94	3033.04
726.12	2803.67
726.30	2885.59
726.49	2822.10
726.67	2947.03
726.85	3176.40
727.03	3399.63
727.21	4433.85
727.39	5470.12
727.57	5871.53
727.76	6205.35
727.94	6356.90
728.12	5670.83
728.30	4761.53
728.48	4444.09
728.66	4175.81
728.84	3938.24
729.03	3448.78
729.21	3411.92
729.39	3196.88
729.57	3028.95
729.75	3061.71
729.93	2959.31
730.11	2813.91
730.30	2918.36
730.48	2910.16
730.66	2957.27
730.84	3014.61
731.02	2967.51
731.20	2871.25
731.38	2949.08
731.56	2785.24
731.74	2783.19
731.93	3028.95
732.11	2967.51
732.29	2856.92
732.47	3059.67
732.65	3028.95
732.83	3074.00
733.01	3000.27
733.19	2846.68
733.37	3035.09
733.56	2895.83
733.74	2809.81
733.92	3291.09
734.10	2912.21
734.28	3020.75
734.46	2717.65
734.64	2955.22
734.82	2930.64
735.00	2838.48
735.18	2803.67
735.36	2994.13
735.54	2934.74
735.73	2973.65
735.91	2938.84
736.09	3200.98
736.27	3008.47
736.45	2965.46
736.63	2637.78
736.81	2869.20
736.99	3198.93
737.17	3100.62
737.35	2809.81
737.53	3080.14
737.71	2977.75
737.89	3063.76
738.07	2799.57
738.25	2858.96
738.43	2688.98
738.61	2846.68
738.80	2734.04
738.98	2838.48
739.16	2895.83
739.34	2815.96
739.52	3112.91
739.70	2963.41
739.88	3082.19
740.06	3069.91
740.24	2668.50
740.42	3157.97
740.60	2672.60
740.78	2901.97
740.96	2688.98
741.14	2881.49
741.32	3039.19
741.50	2719.70
741.68	3127.25
741.86	3219.41
742.04	2805.72
742.22	2729.94
742.40	2824.15
742.58	3074.00
742.76	2877.40
742.94	3026.90
743.12	2639.83
743.30	3043.28
743.48	3061.71
743.66	2750.42
743.84	2928.60
744.02	2979.79
744.20	2934.74
744.38	2754.52
744.56	2779.09
744.74	3270.61
744.92	3047.38
745.10	3106.77
745.28	2924.50
745.46	3303.37
745.64	2951.12
745.82	3008.47
746.00	2897.88
746.18	3090.38
746.36	2789.33
746.54	2983.89
746.72	2840.53
746.90	2820.05
747.08	3200.98
747.26	2897.88
747.44	2922.45
747.62	3086.29
747.80	3037.14
747.98	2979.79
748.15	2813.91
748.33	3260.37
748.51	2979.79
748.69	2953.17
748.87	2719.70
749.05	2914.26
749.23	2914.26
749.41	2926.55
749.59	2813.91
749.77	3151.82
749.95	2852.82
750.13	2809.81
750.31	3018.71
750.49	3020.75
750.67	3145.68
750.85	3047.38
751.03	2914.26
751.20	3364.81
751.38	2983.89
751.56	2949.08
751.74	2957.27
751.92	2887.64
752.10	2752.47
752.28	2975.70
752.46	2815.96
752.64	2912.21
752.82	3016.66
753.00	3033.04
753.18	2742.23
753.35	2879.44
753.53	2924.50
753.71	2848.72
753.89	2963.41
754.07	3000.27
754.25	3084.24
754.43	2942.93
754.61	2775.00
754.79	3096.53
754.97	2924.50
755.14	3024.85
755.32	2779.09
755.50	2990.03
755.68	3053.52
755.86	2805.72
756.04	2840.53
756.22	2699.22
756.40	3133.39
756.57	3133.39
756.75	2766.81
756.93	3168.21
757.11	3153.87
757.29	2752.47
757.47	2807.77
757.65	2725.85
757.82	2609.11
758.00	2707.41
758.18	2813.91
758.36	2791.38
758.54	3278.80
758.72	2650.07
758.90	2996.18
759.07	2990.03
759.25	2791.38
759.43	2930.64
759.61	2707.41
759.79	4231.10
759.97	3174.35
760.15	2824.15
760.32	2869.20
760.50	3088.34
760.68	3295.18
760.86	2684.89
761.04	3014.61
761.22	3139.54
761.39	3092.43
761.57	3033.04
761.75	2838.48
761.93	3155.92
762.11	2963.41
762.28	2955.22
762.46	2785.24
762.64	3147.73
762.82	2643.93
763.00	2842.58
763.18	3057.62
763.35	2813.91
763.53	3065.81
763.71	2852.82
763.89	2916.31
764.07	3022.80
764.24	2957.27
764.42	3030.99
764.60	2867.16
764.78	3016.66
764.96	3192.78
765.13	3055.57
765.31	2779.09
765.49	3143.63
765.67	2809.81
765.84	2785.24
766.02	2762.71
766.20	2717.65
766.38	3057.62
766.56	3039.19
766.73	2951.12
766.91	2899.92
767.09	3024.85
767.27	2926.55
767.44	2787.29
767.62	3149.78
767.80	2981.84
767.98	2875.35
768.15	2836.44
768.33	3162.06
768.51	3137.49
768.69	2971.60
768.87	2815.96
769.04	2920.40
769.22	3401.68
769.40	3026.90
769.58	3045.33
769.75	3018.71
769.93	3151.82
770.11	2934.74
770.28	2754.52
770.46	3104.72
770.64	2975.70
770.82	2828.24
770.99	2795.48
771.17	3041.23
771.35	2873.30
771.53	2951.12
771.70	2932.69
771.88	3096.53
772.06	2944.98
772.23	2807.77
772.41	2967.51
772.59	2901.97
772.77	2799.57
772.94	2904.02
773.12	2895.83
773.30	2887.64
773.47	3047.38
773.65	2740.18
773.83	3012.56
774.01	2955.22
774.18	2701.27
774.36	2820.05
774.54	2703.32
774.71	3004.37
774.89	2695.13
775.07	2807.77
775.24	2920.40
775.42	2805.72
775.60	3299.28
775.78	2840.53
775.95	2668.50
776.13	2719.70
776.31	2729.94
776.48	2920.40
776.66	3051.47
776.84	2942.93
777.01	2785.24
777.19	2867.16
777.37	2809.81
777.54	3067.86
777.72	3289.04
777.90	2967.51
778.07	2811.86
778.25	3553.23
778.43	3114.96
778.60	2801.62
778.78	2928.60
778.96	3196.88
779.13	2752.47
779.31	2922.45
779.49	2893.78
779.66	2998.23
779.84	2887.64
780.01	2787.29
780.19	2748.37
780.37	3205.07
780.54	3082.19
780.72	2781.14
780.90	2885.59
781.07	2944.98
781.25	2912.21
781.43	3078.10
781.60	2881.49
781.78	3117.01
781.95	3049.43
782.13	2856.92
782.31	2858.96
782.48	2611.16
782.66	2936.79
782.83	3114.96
783.01	2963.41
783.19	3067.86
783.36	2953.17
783.54	2779.09
783.72	3008.47
783.89	2850.77
784.07	3006.42
784.24	2944.98
784.42	3045.33
784.60	2998.23
784.77	3049.43
784.95	2656.22
785.12	2901.97
785.30	2996.18
785.47	2832.34
785.65	2795.48
785.83	2899.92
786.00	2901.97
786.18	3018.71
786.35	2791.38
786.53	2750.42
786.71	3114.96
786.88	3114.96
787.06	2883.54
787.23	2822.10
787.41	2785.24
787.58	2914.26
787.76	2734.04
787.94	2928.60
788.11	3018.71
788.29	2848.72
788.46	2842.58
788.64	2645.98
788.81	2918.36
788.99	2877.40
789.16	2781.14
789.34	2842.58
789.52	2856.92
789.69	2918.36
789.87	2648.02
790.04	2856.92
790.22	2971.60
790.39	3272.65
790.57	2777.05
790.74	2768.85
790.92	3092.43
791.09	2715.61
791.27	2955.22
791.44	3014.61
791.62	2926.55
791.79	3096.53
791.97	2854.87
792.15	3186.64
792.32	3096.53
792.50	3108.82
792.67	3041.23
792.85	3133.39
793.02	2947.03
793.20	2861.01
793.37	2762.71
793.55	2836.44
793.72	2762.71
793.90	3045.33
794.07	2844.63
794.25	2811.86
794.42	3055.57
794.60	2914.26
794.77	2932.69
794.95	3008.47
795.12	3127.25
795.30	2910.16
795.47	2662.36
795.65	3135.44
795.82	3000.27
796.00	2809.81
796.17	2881.49
796.34	2770.90
796.52	3037.14
796.69	3084.24
796.87	2951.12
797.04	2934.74
797.22	3178.45
797.39	3053.52
797.57	2996.18
797.74	2928.60
797.92	2947.03
798.09	2844.63
798.27	3106.77
798.44	2820.05
798.62	2828.24
798.79	2998.23
798.96	3012.56
799.14	2856.92
799.31	3461.07
799.49	2930.64
799.66	2781.14
799.84	2918.36
800.01	2754.52
800.19	3035.09
800.36	2658.26
800.53	2949.08
800.71	3143.63
800.88	3262.41
801.06	2801.62
801.23	2795.48
801.41	2906.07
801.58	2871.25
801.75	2770.90
801.93	2934.74
802.10	3084.24
802.28	2901.97
802.45	2912.21
802.63	2994.13
802.80	3274.70
802.97	2944.98
803.15	2914.26
803.32	2791.38
803.50	2867.16
803.67	2869.20
803.84	2744.28
804.02	2850.77
804.19	2854.87
804.37	2609.11
804.54	2723.80
804.71	2793.43
804.89	2981.84
805.06	2748.37
805.24	2758.61
805.41	2820.05
805.58	2754.52
805.76	3422.16
805.93	2815.96
806.10	3012.56
806.28	3078.10
806.45	2981.84
806.63	2987.99
806.80	2971.60
806.97	2981.84
807.15	3057.62
807.32	2883.54
807.49	2908.12
807.67	2772.95
807.84	3129.30
808.01	2760.66
808.19	3010.51
808.36	3399.63
808.54	2897.88
808.71	2818.00
808.88	2904.02
809.06	3049.43
809.23	3233.74
809.40	2830.29
809.58	2940.88
809.75	2883.54
809.92	2750.42
810.10	3149.78
810.27	2818.00
810.44	3080.14
810.62	3164.11
810.79	2891.73
810.96	2881.49
811.14	2852.82
811.31	3102.67
811.48	3020.75
811.66	2936.79
811.83	3217.36
812.00	3041.23
812.18	2975.70
812.35	3180.50
812.52	2895.83
812.69	2863.06
812.87	2869.20
813.04	2787.29
813.21	2906.07
813.39	2842.58
813.56	2731.99
813.73	3100.62
813.91	2731.99
814.08	2947.03
814.25	2875.35
814.42	2742.23
814.60	2961.36
814.77	2947.03
814.94	2834.39
815.12	2918.36
815.29	3252.17
815.46	2867.16
815.63	2820.05
815.81	2871.25
815.98	2863.06
816.15	2985.94
816.33	2830.29
816.50	2772.95
816.67	2969.55
816.84	2936.79
817.02	2693.08
817.19	2865.11
817.36	3090.38
817.53	3059.67
817.71	2725.85
817.88	2953.17
818.05	2951.12
818.22	2994.13
818.40	3080.14
818.57	2805.72
818.74	3074.00
818.91	2901.97
819.09	3014.61
819.26	2904.02
819.43	2840.53
819.60	2840.53
819.78	3028.95
819.95	2981.84
820.12	2871.25
820.29	3203.02
820.47	3033.04
820.64	2838.48
820.81	2768.85
820.98	2801.62
821.15	2779.09
821.33	2934.74
821.50	2756.57
821.67	3020.75
821.84	2760.66
822.02	2949.08
822.19	3114.96
822.36	2836.44
822.53	2787.29
822.70	2744.28
822.88	2924.50
823.05	3268.56
823.22	2930.64
823.39	2938.84
823.56	2899.92
823.74	3223.50
823.91	2813.91
824.08	2705.37
824.25	2672.60
824.42	3305.42
824.60	2729.94
824.77	2914.26
824.94	2940.88
825.11	3055.57
825.28	2691.03
825.45	2924.50
825.63	2965.46
825.80	2865.11
825.97	2981.84
826.14	2897.88
826.31	2729.94
826.48	3117.01
826.66	2803.67
826.83	2762.71
827.00	2899.92
827.17	2844.63
827.34	2885.59
827.51	2729.94
827.69	2871.25
827.86	2748.37
828.03	2897.88
828.20	2854.87
828.37	2856.92
828.54	3084.24
828.71	2811.86
828.89	3014.61
829.06	3028.95
829.23	3280.85
829.40	2775.00
829.57	2797.53
829.74	3086.29
829.91	2809.81
830.09	2807.77
830.26	2953.17
830.43	3190.74
830.60	2953.17
830.77	2985.94
830.94	3049.43
831.11	3143.63
831.28	2951.12
831.46	2973.65
831.63	2770.90
831.80	3143.63
831.97	2799.57
832.14	2803.67
832.31	2869.20
832.48	3076.05
832.65	3117.01
832.82	2938.84
832.99	2951.12
833.17	2865.11
833.34	3266.51
833.51	2858.96
833.68	2617.30
833.85	3135.44
834.02	2801.62
834.19	2756.57
834.36	2828.24
834.53	3039.19
834.70	3147.73
834.87	2881.49
835.04	2668.50
835.22	2789.33
835.39	2908.12
835.56	2740.18
835.73	2713.56
835.90	3131.34
836.07	2836.44
836.24	2877.40
836.41	2701.27
836.58	2904.02
836.75	3078.10
836.92	2727.89
837.09	2688.98
837.26	3065.81
837.43	3018.71
837.60	2813.91
837.77	2746.33
837.94	3162.06
838.12	3172.30
838.29	2631.64
838.46	2648.02
838.63	2766.81
838.80	3213.26
838.97	2764.76
839.14	2697.17
839.31	3024.85
839.48	3074.00
839.65	2762.71
839.82	2854.87
839.99	3047.38
840.16	2963.41
840.33	2668.50
840.50	2738.13
840.67	2789.33
840.84	2566.10
841.01	2725.85
841.18	2676.70
841.35	2893.78
841.52	3026.90
841.69	3041.23
841.86	2738.13
842.03	2865.11
842.20	3094.48
842.37	2777.05
842.54	2752.47
842.71	3069.91
842.88	2734.04
843.05	2777.05
843.22	2717.65
843.39	3131.34
843.56	2928.60
843.73	2787.29
843.90	2813.91
844.07	3014.61
844.24	3149.78
844.41	2807.77
844.58	2736.09
844.75	3088.34
844.92	3049.43
845.09	2818.00
845.26	2754.52
845.43	3045.33
845.60	2830.29
845.77	2854.87
845.94	2893.78
846.10	3180.50
846.27	2777.05
846.44	2586.58
846.61	2664.41
846.78	3033.04
846.95	3006.42
847.12	2750.42
847.29	2725.85
847.46	2861.01
847.63	3086.29
847.80	2701.27
847.97	2830.29
848.14	3360.72
848.31	2938.84
848.48	2615.26
848.65	2717.65
848.82	2899.92
848.98	3430.35
849.15	2863.06
849.32	2861.01
849.49	3125.20
849.66	2934.74
849.83	2725.85
850.00	2705.37
850.17	3112.91
850.34	2893.78
850.51	2746.33
850.68	2768.85
850.85	3317.71
851.01	2992.08
851.18	2764.76
851.35	2723.80
851.52	3014.61
851.69	3129.30
851.86	2643.93
852.03	2652.12
852.20	3071.95
852.37	2920.40
852.53	2641.88
852.70	2695.13
852.87	3041.23
853.04	3080.14
853.21	2731.99
853.38	2949.08
853.55	3168.21
853.72	3184.59
853.89	2668.50
854.05	2598.87
854.22	2930.64
854.39	2906.07
854.56	2670.55
854.73	2881.49
854.90	2801.62
855.07	2947.03
855.23	2586.58
855.40	2650.07
855.57	2856.92
855.74	2617.30
855.91	2949.08
856.08	2617.30
856.25	2805.72
856.41	2936.79
856.58	2838.48
856.75	2815.96
856.92	2791.38
857.09	3207.12
857.26	2545.63
857.42	2813.91
857.59	3155.92
857.76	2899.92
857.93	2725.85
858.10	2801.62
858.27	2781.14
858.43	2938.84
858.60	2754.52
858.77	2572.25
858.94	2865.11
859.11	3166.16
859.27	2854.87
859.44	2672.60
859.61	3239.89
859.78	3108.82
859.95	2666.46
860.12	2676.70
860.28	3307.47
860.45	3299.28
860.62	2674.65
860.79	2838.48
860.95	3016.66
861.12	2871.25
861.29	2676.70
861.46	2715.61
861.63	2891.73
861.79	2992.08
861.96	2564.06
862.13	2793.43
862.30	3221.45
862.47	2856.92
862.63	2670.55
862.80	2699.22
862.97	3133.39
863.14	2969.55
863.30	2785.24
863.47	2666.46
863.64	3237.84
863.81	3004.37
863.97	2619.35
864.14	2775.00
864.31	2850.77
864.48	2967.51
864.65	2738.13
864.81	2832.34
864.98	3082.19
865.15	3215.31
865.32	2764.76
865.48	2834.39
865.65	3354.57
865.82	2883.54
865.98	2863.06
866.15	2721.75
866.32	3006.42
866.49	2901.97
866.65	2914.26
866.82	2775.00
866.99	2918.36
867.16	2869.20
867.32	2826.20
867.49	2701.27
867.66	2932.69
867.83	2838.48
867.99	2619.35
868.16	2768.85
868.33	2766.81
868.49	2906.07
868.66	2695.13
868.83	2883.54
868.99	2914.26
869.16	3008.47
869.33	2863.06
869.50	2834.39
869.66	2940.88
869.83	3016.66
870.00	2639.83
870.16	2828.24
870.33	2908.12
870.50	3127.25
870.66	2772.95
870.83	2777.05
871.00	2963.41
871.17	3157.97
871.33	2797.53
871.50	2740.18
871.67	2963.41
871.83	2844.63
872.00	2910.16
872.17	2736.09
872.33	3297.23
872.50	3207.12
872.67	2709.46
872.83	2783.19
873.00	3135.44
873.17	2957.27
873.33	2809.81
873.50	2777.05
873.67	2832.34
873.83	2842.58
874.00	2764.76
874.16	2901.97
874.33	2940.88
874.50	2758.61
874.66	2731.99
874.83	2805.72
875.00	3110.86
875.16	3106.77
875.33	2791.38
875.50	2506.71
875.66	2940.88
875.83	2971.60
875.99	2846.68
876.16	2813.91
876.33	2801.62
876.49	2820.05
876.66	2781.14
876.83	2770.90
876.99	2662.36
877.16	2906.07
877.32	2725.85
877.49	2815.96
877.66	3096.53
877.82	3239.89
877.99	2828.24
878.15	2951.12
878.32	2965.46
878.49	3051.47
878.65	2725.85
878.82	2996.18
878.98	2805.72
879.15	3135.44
879.32	2836.44
879.48	2912.21
879.65	3008.47
879.81	2852.82
879.98	2725.85
880.15	2830.29
880.31	3082.19
880.48	2844.63
880.64	2830.29
880.81	2828.24
880.97	3241.93
881.14	3147.73
881.31	2641.88
881.47	2885.59
881.64	2887.64
881.80	2799.57
881.97	2869.20
882.13	2760.66
882.30	2756.57
882.47	2871.25
882.63	2727.89
882.80	2707.41
882.96	2899.92
883.13	3205.07
883.29	2723.80
883.46	2795.48
883.62	3497.93
883.79	3008.47
883.95	2951.12
884.12	2701.27
884.29	3069.91
884.45	2910.16
884.62	2750.42
884.78	2691.03
884.95	3239.89
885.11	2742.23
885.28	2813.91
885.44	2742.23
885.61	3106.77
885.77	3141.58
885.94	2910.16
886.10	2830.29
886.27	3002.32
886.43	3299.28
886.60	2924.50
886.76	2756.57
886.93	2799.57
887.09	3028.95
887.26	2627.54
887.42	2818.00
887.59	3117.01
887.75	3413.96
887.92	2944.98
888.08	2846.68
888.25	3301.33
888.41	3131.34
888.58	2799.57
888.74	2680.79
888.91	2912.21
>>>>>End Processed Spectral Data<<<<<
