SpectraSuite Data File
++++++++++++++++++++++++++++++++++++
Date: Thu May 05 21:11:34 CEST 2016
User: root
Dark Spectrum Present: No
Reference Spectrum Present: No
Number of Sampled Component Spectra: 1
Spectrometers: USB4C02835
Integration Time (usec): 100000 (USB4C02835)
Spectra Averaged: 1 (USB4C02835)
Boxcar Smoothing: 0 (USB4C02835)
Correct for Electrical Dark: No (USB4C02835)
Strobe/Lamp Enabled: No (USB4C02835)
Correct for Detector Non-linearity: No (USB4C02835)
Correct for Stray Light: No (USB4C02835)
Number of Pixels in Processed Spectrum: 3648
>>>>>Begin Processed Spectral Data<<<<<
177.47	2199.52
177.69	2199.52
177.91	2199.52
178.13	2154.46
178.36	2217.95
178.58	2783.19
178.80	2957.27
179.02	2746.33
179.24	2901.97
179.46	2613.21
179.68	2738.13
179.90	2977.75
180.13	3076.05
180.35	2562.01
180.57	2592.73
180.79	3153.87
181.01	2953.17
181.23	2672.60
181.45	2785.24
181.67	3094.48
181.90	3182.54
182.12	2703.32
182.34	2582.49
182.56	3155.92
182.78	3082.19
183.00	2641.88
183.22	2721.75
183.44	2637.78
183.66	3495.88
183.89	2791.38
184.11	2721.75
184.33	3176.40
184.55	3139.54
184.77	2715.61
184.99	2713.56
185.21	2971.60
185.43	3426.25
185.65	2684.89
185.87	2617.30
186.10	3379.15
186.32	3385.29
186.54	2777.05
186.76	2818.00
186.98	3166.16
187.20	2959.31
187.42	2723.80
187.64	2660.31
187.86	3055.57
188.08	3147.73
188.30	2623.45
188.52	2746.33
188.75	3260.37
188.97	3194.83
189.19	2693.08
189.41	2656.22
189.63	3088.34
189.85	2979.79
190.07	2625.50
190.29	2635.74
190.51	2996.18
190.73	2799.57
190.95	2820.05
191.17	2754.52
191.39	2736.09
191.61	2963.41
191.84	2668.50
192.06	2703.32
192.28	2697.17
192.50	3510.22
192.72	2762.71
192.94	2764.76
193.16	3170.26
193.38	3018.71
193.60	2600.92
193.82	2731.99
194.04	3133.39
194.26	3059.67
194.48	2648.02
194.70	2648.02
194.92	2881.49
195.14	3129.30
195.36	2611.16
195.58	2770.90
195.80	2973.65
196.02	2973.65
196.24	2654.17
196.46	2725.85
196.69	2879.44
196.91	3395.53
197.13	2660.31
197.35	2768.85
197.57	3303.37
197.79	3065.81
198.01	2691.03
198.23	2752.47
198.45	3049.43
198.67	2861.01
198.89	2449.37
199.11	2811.86
199.33	2803.67
199.55	2611.16
199.77	2684.89
199.99	2830.29
200.21	2863.06
200.43	2977.75
200.65	2543.58
200.87	2486.23
201.09	3014.61
201.31	3000.27
201.53	2615.26
201.75	2715.61
201.97	3033.04
202.19	2975.70
202.41	2717.65
202.63	2856.92
202.85	3082.19
203.07	3008.47
203.29	2729.94
203.51	2543.58
203.73	2852.82
203.95	3465.16
204.17	2758.61
204.39	2781.14
204.61	2918.36
204.83	2914.26
205.05	2928.60
205.27	2729.94
205.49	3362.76
205.71	2990.03
205.93	2564.06
206.15	2629.59
206.37	3123.15
206.59	2910.16
206.81	2473.95
207.03	2611.16
207.25	2824.15
207.47	3049.43
207.69	2707.41
207.91	2932.69
208.13	3254.22
208.34	2901.97
208.56	2598.87
208.78	2740.18
209.00	2871.25
209.22	2926.55
209.44	2725.85
209.66	2664.41
209.88	2979.79
210.10	2877.40
210.32	2609.11
210.54	2775.00
210.76	2930.64
210.98	3110.86
211.20	2537.43
211.42	2750.42
211.64	3254.22
211.86	2985.94
212.08	2764.76
212.30	2699.22
212.52	2815.96
212.74	3065.81
212.96	2764.76
213.17	2793.43
213.39	3074.00
213.61	3303.37
213.83	2678.74
214.05	2543.58
214.27	3184.59
214.49	2770.90
214.71	2686.94
214.93	2826.20
215.15	3063.76
215.37	3153.87
215.59	2576.34
215.81	2705.37
216.03	3215.31
216.24	2985.94
216.46	2662.36
216.68	2717.65
216.90	3100.62
217.12	3184.59
217.34	2676.70
217.56	2791.38
217.78	3256.27
218.00	3082.19
218.22	2766.81
218.44	2752.47
218.66	3024.85
218.87	3360.72
219.09	2758.61
219.31	2699.22
219.53	2961.36
219.75	2846.68
219.97	2756.57
220.19	2713.56
220.41	2973.65
220.63	3254.22
220.85	2779.09
221.06	2707.41
221.28	3278.80
221.50	3082.19
221.72	2656.22
221.94	2602.97
222.16	2983.89
222.38	3160.02
222.60	2648.02
222.82	2738.13
223.03	3145.68
223.25	2783.19
223.47	2602.97
223.69	2877.40
223.91	3096.53
224.13	2992.08
224.35	2619.35
224.57	2828.24
224.78	3129.30
225.00	2795.48
225.22	2750.42
225.44	2592.73
225.66	3114.96
225.88	2869.20
226.10	2787.29
226.32	2719.70
226.53	3243.98
226.75	2887.64
226.97	2709.46
227.19	2725.85
227.41	2889.68
227.63	2861.01
227.85	2496.47
228.06	2682.84
228.28	3018.71
228.50	3207.12
228.72	2484.19
228.94	2609.11
229.16	2666.46
229.37	2756.57
229.59	2578.39
229.81	2873.30
230.03	2852.82
230.25	2869.20
230.47	2562.01
230.69	2648.02
230.90	3143.63
231.12	2889.68
231.34	2709.46
231.56	2693.08
231.78	2791.38
232.00	3022.80
232.21	2752.47
232.43	2676.70
232.65	2584.54
232.87	3057.62
233.09	2617.30
233.30	2729.94
233.52	3194.83
233.74	3000.27
233.96	2635.74
234.18	2820.05
234.40	2967.51
234.61	3350.48
234.83	2609.11
235.05	2656.22
235.27	3416.01
235.49	3254.22
235.70	2516.95
235.92	2723.80
236.14	3110.86
236.36	3502.03
236.58	2617.30
236.79	2746.33
237.01	2953.17
237.23	3000.27
237.45	2875.35
237.67	2775.00
237.88	3090.38
238.10	3336.14
238.32	2619.35
238.54	2635.74
238.76	2998.23
238.97	2832.34
239.19	2582.49
239.41	2797.53
239.63	3170.26
239.85	2955.22
240.06	2691.03
240.28	2660.31
240.50	3155.92
240.72	2928.60
240.93	2613.21
241.15	2807.77
241.37	2979.79
241.59	3225.55
241.81	2541.53
242.02	2775.00
242.24	3088.34
242.46	3119.06
242.68	2549.72
242.89	2629.59
243.11	3170.26
243.33	3024.85
243.55	2695.13
243.76	2674.65
243.98	2893.78
244.20	2985.94
244.42	2727.89
244.64	2623.45
244.85	2793.43
245.07	2789.33
245.29	2746.33
245.51	2723.80
245.72	3051.47
245.94	3254.22
246.16	2598.87
246.38	2772.95
246.59	2971.60
246.81	2852.82
247.03	2672.60
247.24	2598.87
247.46	2844.63
247.68	3002.32
247.90	2623.45
248.11	2668.50
248.33	3059.67
248.55	2971.60
248.77	2750.42
248.98	2811.86
249.20	3350.48
249.42	3000.27
249.64	2643.93
249.85	2656.22
250.07	2887.64
250.29	3133.39
250.50	2768.85
250.72	2707.41
250.94	3100.62
251.16	3280.85
251.37	2674.65
251.59	2758.61
251.81	3098.58
252.02	3198.93
252.24	2584.54
252.46	2815.96
252.68	2904.02
252.89	2871.25
253.11	2500.57
253.33	2879.44
253.54	3254.22
253.76	2756.57
253.98	2648.02
254.20	2666.46
254.41	2668.50
254.63	2932.69
254.85	2535.39
255.06	2684.89
255.28	3024.85
255.50	2914.26
255.71	2590.68
255.93	2533.34
256.15	2930.64
256.36	3119.06
256.58	2613.21
256.80	2596.82
257.02	2930.64
257.23	2906.07
257.45	2731.99
257.67	2885.59
257.88	2883.54
258.10	3069.91
258.32	2680.79
258.53	2678.74
258.75	3297.23
258.97	2899.92
259.18	2613.21
259.40	2627.54
259.62	3395.53
259.83	3233.74
260.05	2709.46
260.27	3502.03
260.48	3129.30
260.70	2789.33
260.92	2652.12
261.13	2697.17
261.35	3074.00
261.57	3024.85
261.78	2473.95
262.00	2648.02
262.22	3094.48
262.43	2781.14
262.65	2721.75
262.86	2760.66
263.08	3381.20
263.30	2979.79
263.51	2519.00
263.73	2623.45
263.95	3309.52
264.16	2842.58
264.38	2637.78
264.60	2666.46
264.81	2918.36
265.03	3098.58
265.25	2998.23
265.46	2609.11
265.68	3143.63
265.89	3043.28
266.11	2553.82
266.33	2707.41
266.54	3203.02
266.76	3104.72
266.98	2707.41
267.19	2869.20
267.41	3211.22
267.62	3006.42
267.84	2504.67
268.06	2754.52
268.27	3049.43
268.49	3074.00
268.70	2686.94
268.92	2682.84
269.14	2787.29
269.35	2797.53
269.57	2748.37
269.79	2824.15
270.00	2893.78
270.22	3252.17
270.43	2596.82
270.65	2584.54
270.87	3039.19
271.08	3092.43
271.30	2820.05
271.51	2697.17
271.73	3106.77
271.95	3157.97
272.16	2633.69
272.38	2768.85
272.59	2916.31
272.81	2979.79
273.02	2676.70
273.24	2768.85
273.46	3198.93
273.67	2824.15
273.89	2572.25
274.10	2631.64
274.32	3112.91
274.54	3053.52
274.75	2758.61
274.97	2723.80
275.18	3067.86
275.40	3010.51
275.61	2680.79
275.83	2815.96
276.05	2856.92
276.26	2975.70
276.48	2793.43
276.69	2750.42
276.91	2891.73
277.12	3286.99
277.34	2844.63
277.55	2889.68
277.77	2977.75
277.99	2908.12
278.20	2785.24
278.42	2731.99
278.63	2824.15
278.85	2906.07
279.06	2750.42
279.28	2867.16
279.49	3155.92
279.71	3055.57
279.93	2850.77
280.14	2830.29
280.36	2793.43
280.57	3084.24
280.79	2930.64
281.00	2639.83
281.22	2899.92
281.43	3184.59
281.65	2519.00
281.86	2688.98
282.08	3039.19
282.29	3289.04
282.51	2650.07
282.73	2623.45
282.94	2772.95
283.16	3063.76
283.37	2930.64
283.59	2883.54
283.80	3059.67
284.02	2957.27
284.23	2897.88
284.45	2750.42
284.66	2807.77
284.88	2912.21
285.09	2758.61
285.31	2944.98
285.52	2973.65
285.74	2697.17
285.95	3033.04
286.17	2863.06
286.38	3131.34
286.60	2912.21
286.81	2744.28
287.03	2727.89
287.24	2963.41
287.46	3090.38
287.67	2906.07
287.89	3028.95
288.10	3002.32
288.32	3008.47
288.53	2965.46
288.75	2885.59
288.96	3094.48
289.18	2928.60
289.39	2818.00
289.61	2848.72
289.82	3391.44
290.04	3420.11
290.25	2688.98
290.47	2826.20
290.68	2996.18
290.90	3125.20
291.11	2527.19
291.33	2889.68
291.54	2852.82
291.76	2865.11
291.97	2901.97
292.18	2856.92
292.40	3035.09
292.61	2897.88
292.83	3104.72
293.04	2793.43
293.26	3028.95
293.47	2942.93
293.69	2775.00
293.90	2758.61
294.12	3235.79
294.33	3055.57
294.55	2811.86
294.76	2928.60
294.97	3200.98
295.19	3358.67
295.40	2754.52
295.62	2840.53
295.83	3174.35
296.05	2850.77
296.26	3006.42
296.48	2832.34
296.69	2971.60
296.90	2881.49
297.12	2889.68
297.33	2955.22
297.55	2975.70
297.76	3098.58
297.98	2934.74
298.19	2983.89
298.41	2990.03
298.62	2856.92
298.83	2979.79
299.05	2895.83
299.26	2932.69
299.48	2906.07
299.69	2934.74
299.90	2705.37
300.12	2805.72
300.33	3164.11
300.55	2826.20
300.76	2807.77
300.98	2897.88
301.19	3139.54
301.40	2838.48
301.62	2781.14
301.83	3012.56
302.05	2969.55
302.26	2740.18
302.47	2867.16
302.69	2777.05
302.90	3055.57
303.12	2570.20
303.33	2863.06
303.54	3321.81
303.76	2785.24
303.97	2768.85
304.19	2971.60
304.40	2807.77
304.61	3012.56
304.83	2969.55
305.04	2887.64
305.26	3110.86
305.47	2957.27
305.68	2723.80
305.90	2658.26
306.11	3194.83
306.33	3020.75
306.54	2645.98
306.75	2799.57
306.97	2719.70
307.18	2820.05
307.39	2731.99
307.61	2883.54
307.82	2891.73
308.04	3145.68
308.25	2664.41
308.46	2897.88
308.68	3047.38
308.89	3055.57
309.10	2893.78
309.32	2932.69
309.53	3037.14
309.74	2961.36
309.96	2715.61
310.17	2912.21
310.39	2940.88
310.60	3090.38
310.81	2731.99
311.03	2742.23
311.24	3131.34
311.45	2975.70
311.67	3014.61
311.88	2822.10
312.09	2944.98
312.31	2944.98
312.52	2768.85
312.73	2760.66
312.95	2793.43
313.16	2848.72
313.37	2963.41
313.59	2918.36
313.80	3094.48
314.01	3160.02
314.23	2746.33
314.44	2723.80
314.65	2744.28
314.87	2887.64
315.08	2815.96
315.29	2795.48
315.51	2869.20
315.72	2725.85
315.93	2883.54
316.15	2955.22
316.36	2848.72
316.57	2975.70
316.79	2801.62
317.00	2746.33
317.21	3176.40
317.43	2787.29
317.64	2805.72
317.85	2719.70
318.07	2809.81
318.28	2912.21
318.49	2867.16
318.70	2975.70
318.92	2998.23
319.13	2951.12
319.34	2990.03
319.56	2842.58
319.77	2951.12
319.98	3067.86
320.20	3074.00
320.41	2975.70
320.62	2969.55
320.83	2813.91
321.05	3102.67
321.26	2854.87
321.47	2992.08
321.69	3215.31
321.90	2674.65
322.11	2824.15
322.32	3018.71
322.54	3196.88
322.75	2799.57
322.96	3534.79
323.18	2682.84
323.39	2674.65
323.60	2772.95
323.81	2928.60
324.03	2924.50
324.24	2916.31
324.45	2910.16
324.66	2666.46
324.88	3117.01
325.09	3188.69
325.30	2803.67
325.52	2754.52
325.73	3051.47
325.94	2861.01
326.15	2609.11
326.37	2617.30
326.58	3098.58
326.79	3291.09
327.00	2781.14
327.22	2772.95
327.43	2920.40
327.64	2803.67
327.85	2867.16
328.07	2858.96
328.28	3262.41
328.49	2928.60
328.70	2858.96
328.92	2805.72
329.13	2955.22
329.34	3041.23
329.55	2977.75
329.76	3010.51
329.98	2922.45
330.19	3174.35
330.40	2854.87
330.61	2930.64
330.83	3160.02
331.04	2899.92
331.25	2838.48
331.46	2901.97
331.68	2748.37
331.89	3196.88
332.10	2820.05
332.31	2674.65
332.52	2951.12
332.74	3121.10
332.95	2686.94
333.16	2768.85
333.37	3104.72
333.58	2838.48
333.80	2809.81
334.01	2584.54
334.22	2922.45
334.43	2813.91
334.64	2770.90
334.86	2652.12
335.07	2820.05
335.28	3182.54
335.49	2699.22
335.70	2867.16
335.92	3248.08
336.13	3377.10
336.34	2910.16
336.55	2824.15
336.76	3016.66
336.98	2619.35
337.19	2719.70
337.40	3026.90
337.61	3508.17
337.82	2881.49
338.04	2947.03
338.25	2672.60
338.46	3035.09
338.67	2942.93
338.88	2697.17
339.09	2760.66
339.31	2887.64
339.52	2797.53
339.73	2693.08
339.94	2838.48
340.15	3092.43
340.36	2811.86
340.58	2865.11
340.79	2738.13
341.00	3143.63
341.21	2770.90
341.42	3028.95
341.63	2832.34
341.85	3147.73
342.06	2994.13
342.27	2715.61
342.48	2957.27
342.69	2744.28
342.90	3100.62
343.12	3149.78
343.33	2650.07
343.54	3121.10
343.75	3196.88
343.96	2912.21
344.17	2813.91
344.38	2932.69
344.60	2832.34
344.81	2721.75
345.02	2815.96
345.23	3182.54
345.44	3399.63
345.65	2936.79
345.86	2883.54
346.07	3041.23
346.29	2883.54
346.50	2840.53
346.71	2936.79
346.92	3248.08
347.13	3383.24
347.34	2928.60
347.55	2723.80
347.76	3117.01
347.98	2695.13
348.19	2906.07
348.40	2979.79
348.61	2869.20
348.82	3295.18
349.03	2920.40
349.24	2707.41
349.45	3370.96
349.66	2656.22
349.88	2736.09
350.09	2678.74
350.30	3153.87
350.51	3147.73
350.72	2908.12
350.93	2787.29
351.14	2887.64
351.35	3063.76
351.56	2811.86
351.77	2852.82
351.99	3063.76
352.20	3215.31
352.41	2940.88
352.62	2592.73
352.83	2920.40
353.04	2963.41
353.25	2770.90
353.46	2885.59
353.67	3164.11
353.88	2631.64
354.09	2709.46
354.30	2932.69
354.52	3176.40
354.73	2992.08
354.94	2779.09
355.15	2832.34
355.36	3258.32
355.57	2895.83
355.78	2764.76
355.99	2785.24
356.20	2916.31
356.41	3160.02
356.62	2877.40
356.83	2867.16
357.04	3235.79
357.25	2772.95
357.46	2807.77
357.68	2605.02
357.89	2861.01
358.10	3020.75
358.31	2861.01
358.52	2873.30
358.73	2781.14
358.94	2754.52
359.15	2795.48
359.36	2828.24
359.57	3012.56
359.78	2871.25
359.99	2959.31
360.20	2760.66
360.41	2904.02
360.62	3020.75
360.83	2852.82
361.04	2883.54
361.25	3104.72
361.46	3280.85
361.67	2889.68
361.88	2877.40
362.09	3131.34
362.30	3022.80
362.51	2709.46
362.72	2787.29
362.93	3139.54
363.14	3082.19
363.35	2881.49
363.56	2717.65
363.78	3139.54
363.99	3123.15
364.20	2850.77
364.41	2904.02
364.62	3303.37
364.83	3061.71
365.04	2807.77
365.25	2801.62
365.46	3352.52
365.67	2879.44
365.88	2904.02
366.09	2727.89
366.30	2842.58
366.51	3004.37
366.72	2742.23
366.93	2760.66
367.14	3030.99
367.35	3239.89
367.56	2717.65
367.77	2889.68
367.98	2994.13
368.18	2951.12
368.39	2809.81
368.60	2832.34
368.81	3090.38
369.02	3082.19
369.23	2830.29
369.44	2623.45
369.65	2922.45
369.86	3117.01
370.07	2955.22
370.28	2744.28
370.49	3104.72
370.70	3033.04
370.91	2738.13
371.12	2682.84
371.33	3092.43
371.54	2879.44
371.75	2899.92
371.96	2598.87
372.17	3039.19
372.38	2916.31
372.59	2830.29
372.80	2727.89
373.01	2877.40
373.22	3004.37
373.43	2768.85
373.64	2723.80
373.85	3205.07
374.06	3243.98
374.26	3002.32
374.47	2908.12
374.68	3295.18
374.89	3041.23
375.10	2787.29
375.31	2895.83
375.52	3033.04
375.73	2953.17
375.94	2691.03
376.15	2998.23
376.36	2953.17
376.57	2908.12
376.78	2873.30
376.99	2830.29
377.20	3243.98
377.40	2928.60
377.61	3045.33
377.82	2668.50
378.03	3207.12
378.24	2953.17
378.45	2824.15
378.66	2832.34
378.87	2729.94
379.08	2750.42
379.29	2795.48
379.50	2985.94
379.71	2963.41
379.91	3100.62
380.12	2746.33
380.33	2844.63
380.54	2891.73
380.75	3004.37
380.96	2832.34
381.17	2863.06
381.38	2949.08
381.59	2967.51
381.80	2934.74
382.00	2955.22
382.21	3014.61
382.42	3356.62
382.63	3157.97
382.84	2914.26
383.05	3205.07
383.26	3229.65
383.47	2961.36
383.68	2789.33
383.88	3080.14
384.09	3008.47
384.30	3067.86
384.51	2861.01
384.72	2914.26
384.93	2703.32
385.14	2928.60
385.35	3074.00
385.55	2752.47
385.76	3198.93
385.97	2815.96
386.18	2697.17
386.39	2914.26
386.60	2969.55
386.81	2791.38
387.02	2672.60
387.22	2789.33
387.43	3014.61
387.64	2936.79
387.85	3104.72
388.06	3043.28
388.27	3960.77
388.48	7169.94
388.68	10995.54
388.89	13315.89
389.10	14556.96
389.31	14075.69
389.52	11251.54
389.73	9566.06
389.93	8927.10
390.14	8001.41
390.35	7329.68
390.56	6541.21
390.77	5676.97
390.98	4239.30
391.18	3667.91
391.39	3452.88
391.60	3071.95
391.81	3059.67
392.02	2863.06
392.23	3405.77
392.43	3035.09
392.64	2949.08
392.85	2910.16
393.06	3334.09
393.27	3028.95
393.47	2832.34
393.68	2762.71
393.89	2936.79
394.10	3262.41
394.31	2789.33
394.52	2783.19
394.72	2830.29
394.93	3266.51
395.14	2740.18
395.35	2940.88
395.56	2783.19
395.76	2977.75
395.97	2824.15
396.18	2990.03
396.39	2947.03
396.60	3665.86
396.80	3141.58
397.01	3053.52
397.22	3117.01
397.43	3162.06
397.64	2818.00
397.84	2971.60
398.05	3330.00
398.26	2926.55
398.47	2959.31
398.67	2936.79
398.88	3008.47
399.09	3090.38
399.30	2760.66
399.51	2897.88
399.71	2846.68
399.92	2996.18
400.13	2904.02
400.34	2856.92
400.54	3049.43
400.75	3315.66
400.96	2904.02
401.17	3155.92
401.37	3030.99
401.58	2951.12
401.79	2818.00
402.00	2979.79
402.21	3491.79
402.41	3127.25
402.62	3160.02
402.83	3184.59
403.04	3346.38
403.24	3678.15
403.45	2977.75
403.66	3141.58
403.87	3235.79
404.07	3241.93
404.28	3055.57
404.49	3094.48
404.70	3010.51
404.90	3057.62
405.11	2764.76
405.32	2891.73
405.52	2926.55
405.73	2861.01
405.94	2766.81
406.15	2875.35
406.35	3168.21
406.56	3190.74
406.77	2818.00
406.98	2820.05
407.18	2854.87
407.39	3307.47
407.60	2830.29
407.80	2916.31
408.01	2883.54
408.22	3053.52
408.43	2744.28
408.63	2901.97
408.84	3174.35
409.05	3143.63
409.25	2865.11
409.46	2838.48
409.67	2926.55
409.88	2914.26
410.08	2908.12
410.29	2848.72
410.50	3147.73
410.70	3018.71
410.91	2711.51
411.12	2871.25
411.32	3018.71
411.53	2873.30
411.74	2818.00
411.95	2940.88
412.15	3022.80
412.36	3110.86
412.57	2955.22
412.77	3022.80
412.98	2961.36
413.19	2977.75
413.39	2926.55
413.60	2848.72
413.81	3182.54
414.01	2879.44
414.22	2871.25
414.43	2977.75
414.63	2879.44
414.84	3207.12
415.05	2893.78
415.25	2748.37
415.46	3098.58
415.67	2889.68
415.87	2844.63
416.08	2799.57
416.29	2922.45
416.49	3049.43
416.70	2879.44
416.91	2842.58
417.11	2947.03
417.32	3133.39
417.53	2879.44
417.73	2977.75
417.94	2963.41
418.15	2998.23
418.35	2803.67
418.56	2867.16
418.77	3399.63
418.97	2996.18
419.18	2858.96
419.38	2598.87
419.59	2861.01
419.80	3213.26
420.00	2713.56
420.21	2863.06
420.42	3260.37
420.62	3028.95
420.83	2772.95
421.04	2854.87
421.24	2967.51
421.45	3092.43
421.65	2834.39
421.86	2836.44
422.07	3123.15
422.27	3074.00
422.48	2799.57
422.69	2686.94
422.89	2957.27
423.10	2906.07
423.30	2815.96
423.51	2949.08
423.72	3084.24
423.92	3039.19
424.13	2678.74
424.33	2916.31
424.54	3178.45
424.75	2985.94
424.95	3026.90
425.16	2764.76
425.36	2961.36
425.57	3213.26
425.78	2938.84
425.98	2906.07
426.19	2920.40
426.39	2856.92
426.60	2951.12
426.81	2985.94
427.01	2994.13
427.22	2871.25
427.42	2668.50
427.63	2824.15
427.83	3129.30
428.04	3315.66
428.25	2938.84
428.45	2940.88
428.66	3211.22
428.86	2916.31
429.07	2795.48
429.28	2828.24
429.48	2938.84
429.69	2846.68
429.89	2881.49
430.10	2764.76
430.30	3137.49
430.51	3143.63
430.71	2779.09
430.92	2908.12
431.13	2805.72
431.33	3053.52
431.54	2899.92
431.74	3082.19
431.95	3413.96
432.15	2803.67
432.36	2871.25
432.56	2998.23
432.77	3368.91
432.98	3289.04
433.18	2850.77
433.39	2764.76
433.59	2963.41
433.80	3422.16
434.00	2998.23
434.21	2912.21
434.41	2891.73
434.62	3377.10
434.82	2734.04
435.03	2729.94
435.23	3065.81
435.44	2746.33
435.64	2869.20
435.85	2918.36
436.06	3205.07
436.26	3170.26
436.47	2906.07
436.67	2779.09
436.88	2881.49
437.08	3166.16
437.29	2942.93
437.49	2983.89
437.70	3211.22
437.90	3030.99
438.11	3063.76
438.31	2951.12
438.52	3209.17
438.72	3168.21
438.93	3114.96
439.13	2914.26
439.34	3178.45
439.54	2887.64
439.75	2920.40
439.95	2912.21
440.16	2842.58
440.36	2985.94
440.57	2858.96
440.77	2877.40
440.98	2994.13
441.18	3084.24
441.39	2832.34
441.59	2705.37
441.80	3409.87
442.00	2985.94
442.21	2932.69
442.41	2678.74
442.62	3176.40
442.82	2861.01
443.02	2916.31
443.23	2920.40
443.43	2877.40
443.64	3164.11
443.84	2762.71
444.05	2936.79
444.25	2969.55
444.46	2832.34
444.66	2820.05
444.87	3002.32
445.07	2713.56
445.28	2932.69
445.48	3043.28
445.69	2926.55
445.89	3360.72
446.09	2955.22
446.30	3119.06
446.50	3207.12
446.71	4677.56
446.91	5648.30
447.12	6707.10
447.32	6967.19
447.53	6870.94
447.73	5765.03
447.93	5005.24
448.14	4765.62
448.34	4757.43
448.55	4048.83
448.75	4044.74
448.96	3760.07
449.16	3688.39
449.36	3571.66
449.57	3028.95
449.77	2897.88
449.98	2867.16
450.18	3084.24
450.39	2822.10
450.59	3059.67
450.79	2914.26
451.00	2852.82
451.20	3026.90
451.41	2824.15
451.61	3033.04
451.81	2953.17
452.02	2779.09
452.22	2967.51
452.43	2840.53
452.63	2865.11
452.84	2893.78
453.04	2834.39
453.24	2973.65
453.45	2858.96
453.65	2924.50
453.86	2936.79
454.06	3035.09
454.26	3016.66
454.47	2834.39
454.67	3061.71
454.87	3061.71
455.08	2951.12
455.28	2981.84
455.49	2942.93
455.69	2813.91
455.89	3315.66
456.10	2998.23
456.30	2809.81
456.51	3172.30
456.71	3065.81
456.91	2998.23
457.12	2844.63
457.32	3008.47
457.52	2762.71
457.73	3016.66
457.93	2959.31
458.14	2883.54
458.34	2721.75
458.54	2906.07
458.75	2813.91
458.95	3157.97
459.15	3059.67
459.36	2826.20
459.56	2858.96
459.76	3373.00
459.97	3022.80
460.17	2840.53
460.37	3059.67
460.58	3002.32
460.78	3123.15
460.99	2916.31
461.19	2844.63
461.39	2924.50
461.60	3014.61
461.80	2973.65
462.00	2736.09
462.21	3037.14
462.41	2836.44
462.61	2748.37
462.82	2578.39
463.02	3131.34
463.22	3014.61
463.43	2930.64
463.63	2811.86
463.83	3196.88
464.04	3135.44
464.24	2846.68
464.44	2762.71
464.64	2938.84
464.85	3131.34
465.05	2871.25
465.25	2775.00
465.46	2924.50
465.66	3123.15
465.86	2987.99
466.07	2877.40
466.27	2885.59
466.47	2754.52
466.68	2662.36
466.88	2973.65
467.08	3112.91
467.29	3108.82
467.49	2877.40
467.69	3012.56
467.89	3078.10
468.10	2901.97
468.30	2891.73
468.50	2940.88
468.71	3082.19
468.91	2754.52
469.11	3000.27
469.31	2797.53
469.52	2924.50
469.72	3231.69
469.92	3131.34
470.13	2832.34
470.33	3016.66
470.53	2944.98
470.73	3209.17
470.94	3606.47
471.14	3610.57
471.34	4050.88
471.54	3813.32
471.75	3590.09
471.95	3342.28
472.15	3413.96
472.36	3289.04
472.56	3231.69
472.76	3418.06
472.96	3362.76
473.17	3147.73
473.37	2957.27
473.57	2938.84
473.77	2985.94
473.98	3059.67
474.18	2686.94
474.38	3497.93
474.58	2912.21
474.79	2824.15
474.99	2967.51
475.19	3225.55
475.39	2822.10
475.60	2838.48
475.80	2809.81
476.00	2975.70
476.20	2899.92
476.41	2893.78
476.61	2969.55
476.81	3243.98
477.01	2879.44
477.21	3076.05
477.42	2961.36
477.62	2799.57
477.82	3117.01
478.02	2824.15
478.23	2885.59
478.43	2869.20
478.63	2953.17
478.83	2842.58
479.03	2877.40
479.24	3231.69
479.44	3389.39
479.64	2701.27
479.84	2631.64
480.04	2832.34
480.25	3184.59
480.45	2797.53
480.65	2748.37
480.85	3297.23
481.06	2813.91
481.26	2934.74
481.46	2830.29
481.66	3057.62
481.86	2838.48
482.06	3102.67
482.27	2752.47
482.47	2908.12
482.67	3102.67
482.87	2840.53
483.07	2906.07
483.28	2840.53
483.48	2731.99
483.68	2770.90
483.88	2734.04
484.08	2652.12
484.29	2813.91
484.49	2891.73
484.69	2648.02
484.89	3334.09
485.09	3221.45
485.29	2916.31
485.50	2944.98
485.70	2869.20
485.90	3225.55
486.10	2981.84
486.30	2797.53
486.50	3180.50
486.71	3000.27
486.91	2901.97
487.11	2934.74
487.31	2838.48
487.51	3010.51
487.71	2793.43
487.91	2777.05
488.12	2899.92
488.32	2607.06
488.52	2867.16
488.72	2576.34
488.92	3045.33
489.12	3196.88
489.32	2959.31
489.53	2863.06
489.73	2676.70
489.93	3266.51
490.13	2834.39
490.33	2738.13
490.53	3020.75
490.73	3200.98
490.94	2703.32
491.14	3010.51
491.34	3069.91
491.54	3160.02
491.74	3635.14
491.94	4124.61
492.14	4655.03
492.34	4704.18
492.54	4306.88
492.75	3786.69
492.95	3903.43
493.15	3635.14
493.35	3542.99
493.55	3395.53
493.75	3336.14
493.95	3436.49
494.15	3018.71
494.35	2897.88
494.56	2951.12
494.76	2861.01
494.96	2994.13
495.16	2783.19
495.36	2981.84
495.56	3010.51
495.76	2887.64
495.96	2881.49
496.16	2897.88
496.36	3264.46
496.56	2828.24
496.77	2936.79
496.97	2916.31
497.17	3250.13
497.37	2682.84
497.57	2973.65
497.77	3004.37
497.97	2768.85
498.17	2869.20
498.37	2836.44
498.57	3145.68
498.77	2951.12
498.97	2959.31
499.17	3149.78
499.38	2994.13
499.58	3147.73
499.78	3037.14
499.98	2998.23
500.18	2867.16
500.38	2818.00
500.58	3012.56
500.78	3448.78
500.98	5490.60
501.18	7268.24
501.38	8863.61
501.58	9693.04
501.78	9621.36
501.98	7974.79
502.18	6715.29
502.38	5824.42
502.58	5842.85
502.78	5021.62
502.98	4843.45
503.18	4550.59
503.38	4362.17
503.59	3698.63
503.79	3598.28
503.99	3461.07
504.19	3522.51
504.39	3487.69
504.59	3381.20
504.79	3291.09
504.99	3508.17
505.19	3157.97
505.39	3014.61
505.59	3215.31
505.79	3256.27
505.99	3102.67
506.19	2949.08
506.39	3131.34
506.59	2891.73
506.79	2951.12
506.99	3043.28
507.19	2858.96
507.39	3110.86
507.59	2791.38
507.79	2766.81
507.99	2795.48
508.19	3002.32
508.39	2977.75
508.59	2797.53
508.79	2975.70
508.99	3379.15
509.19	2893.78
509.39	2906.07
509.59	2738.13
509.79	2807.77
509.99	2977.75
510.19	3006.42
510.39	2944.98
510.59	2990.03
510.79	2873.30
510.99	2693.08
511.19	2834.39
511.39	3200.98
511.59	3151.82
511.79	3010.51
511.99	2871.25
512.19	3362.76
512.38	2992.08
512.58	2828.24
512.78	2811.86
512.98	3168.21
513.18	3246.03
513.38	2738.13
513.58	2947.03
513.78	3069.91
513.98	2930.64
514.18	2979.79
514.38	2875.35
514.58	3043.28
514.78	2842.58
514.98	2725.85
515.18	2895.83
515.38	2836.44
515.58	3289.04
515.78	2846.68
515.98	2891.73
516.18	3145.68
516.38	2901.97
516.57	2809.81
516.77	2791.38
516.97	3082.19
517.17	2861.01
517.37	2645.98
517.57	2957.27
517.77	2965.46
517.97	2934.74
518.17	2922.45
518.37	2779.09
518.57	2906.07
518.77	2967.51
518.97	2873.30
519.16	2936.79
519.36	3153.87
519.56	2830.29
519.76	2822.10
519.96	2938.84
520.16	3217.36
520.36	2731.99
520.56	3014.61
520.76	2815.96
520.96	2928.60
521.16	3200.98
521.35	3112.91
521.55	3024.85
521.75	2965.46
521.95	2951.12
522.15	2777.05
522.35	2641.88
522.55	2908.12
522.75	3088.34
522.95	2707.41
523.14	2707.41
523.34	3010.51
523.54	2850.77
523.74	3016.66
523.94	2891.73
524.14	2711.51
524.34	3092.43
524.54	3049.43
524.73	2852.82
524.93	3137.49
525.13	3037.14
525.33	2772.95
525.53	3084.24
525.73	3028.95
525.93	2977.75
526.13	2807.77
526.32	2801.62
526.52	3213.26
526.72	3153.87
526.92	2834.39
527.12	2795.48
527.32	2744.28
527.52	3078.10
527.71	2815.96
527.91	2871.25
528.11	2867.16
528.31	2883.54
528.51	2828.24
528.71	3004.37
528.90	3129.30
529.10	3196.88
529.30	2940.88
529.50	2590.68
529.70	2996.18
529.90	2875.35
530.09	2887.64
530.29	2789.33
530.49	2846.68
530.69	3456.97
530.89	2961.36
531.09	2887.64
531.28	2969.55
531.48	3139.54
531.68	2846.68
531.88	2914.26
532.08	3155.92
532.28	2977.75
532.47	3030.99
532.67	3002.32
532.87	3028.95
533.07	2826.20
533.27	2936.79
533.46	2873.30
533.66	2947.03
533.86	3004.37
534.06	2914.26
534.26	2869.20
534.45	2873.30
534.65	3112.91
534.85	2969.55
535.05	2746.33
535.25	3137.49
535.44	2662.36
535.64	2959.31
535.84	2867.16
536.04	2895.83
536.24	2910.16
536.43	2854.87
536.63	2852.82
536.83	3002.32
537.03	3020.75
537.22	2680.79
537.42	2588.63
537.62	3024.85
537.82	2914.26
538.02	2985.94
538.21	3039.19
538.41	3540.94
538.61	3045.33
538.81	2875.35
539.00	3047.38
539.20	2709.46
539.40	2918.36
539.60	2848.72
539.79	3045.33
539.99	2998.23
540.19	2828.24
540.39	2830.29
540.58	2885.59
540.78	3176.40
540.98	3033.04
541.18	3026.90
541.37	3018.71
541.57	2963.41
541.77	3065.81
541.97	2670.55
542.16	2662.36
542.36	2904.02
542.56	3139.54
542.76	2996.18
542.95	2912.21
543.15	3061.71
543.35	3098.58
543.54	2832.34
543.74	2809.81
543.94	3200.98
544.14	2908.12
544.33	2928.60
544.53	2852.82
544.73	2955.22
544.93	2818.00
545.12	2858.96
545.32	2787.29
545.52	2953.17
545.71	2725.85
545.91	2904.02
546.11	2777.05
546.30	2801.62
546.50	2942.93
546.70	2967.51
546.90	2861.01
547.09	2703.32
547.29	3057.62
547.49	2947.03
547.68	2848.72
547.88	2899.92
548.08	3129.30
548.27	3168.21
548.47	2830.29
548.67	2891.73
548.87	3092.43
549.06	2783.19
549.26	2887.64
549.46	3061.71
549.65	2901.97
549.85	2772.95
550.05	2922.45
550.24	2807.77
550.44	3065.81
550.64	2920.40
550.83	2897.88
551.03	3196.88
551.23	3139.54
551.42	2947.03
551.62	2875.35
551.82	3014.61
552.01	2957.27
552.21	3104.72
552.41	2951.12
552.60	3215.31
552.80	3035.09
553.00	2854.87
553.19	2906.07
553.39	3274.70
553.59	2777.05
553.78	2947.03
553.98	2848.72
554.17	2783.19
554.37	3065.81
554.57	2973.65
554.76	2766.81
554.96	2895.83
555.16	2994.13
555.35	2885.59
555.55	3006.42
555.75	3051.47
555.94	3123.15
556.14	2734.04
556.33	2869.20
556.53	2973.65
556.73	2951.12
556.92	2977.75
557.12	2883.54
557.32	3274.70
557.51	3223.50
557.71	2904.02
557.90	3141.58
558.10	3190.74
558.30	2949.08
558.49	2881.49
558.69	2828.24
558.88	3141.58
559.08	2977.75
559.28	2826.20
559.47	2949.08
559.67	3168.21
559.86	3350.48
560.06	2875.35
560.26	2793.43
560.45	3092.43
560.65	2918.36
560.84	3084.24
561.04	2740.18
561.24	3039.19
561.43	2781.14
561.63	3080.14
561.82	2930.64
562.02	3086.29
562.22	2869.20
562.41	2797.53
562.61	2838.48
562.80	2752.47
563.00	3424.20
563.19	2924.50
563.39	2963.41
563.59	3164.11
563.78	2793.43
563.98	2658.26
564.17	2779.09
564.37	2676.70
564.56	2977.75
564.76	2725.85
564.96	2947.03
565.15	3074.00
565.35	3352.52
565.54	2947.03
565.74	2895.83
565.93	3071.95
566.13	2951.12
566.32	2838.48
566.52	2879.44
566.71	2985.94
566.91	3223.50
567.11	3000.27
567.30	2828.24
567.50	3141.58
567.69	3030.99
567.89	2789.33
568.08	2738.13
568.28	2994.13
568.47	2852.82
568.67	2840.53
568.86	2809.81
569.06	3166.16
569.25	2975.70
569.45	2731.99
569.64	2928.60
569.84	2947.03
570.04	2998.23
570.23	2826.20
570.43	2883.54
570.62	3022.80
570.82	3248.08
571.01	2738.13
571.21	2863.06
571.40	2826.20
571.60	3076.05
571.79	2912.21
571.99	2797.53
572.18	2822.10
572.38	3080.14
572.57	2861.01
572.77	2930.64
572.96	3368.91
573.16	2983.89
573.35	2834.39
573.55	3045.33
573.74	3078.10
573.94	2916.31
574.13	2861.01
574.33	3092.43
574.52	3106.77
574.71	2869.20
574.91	2901.97
575.10	2711.51
575.30	2936.79
575.49	2838.48
575.69	2766.81
575.88	2883.54
576.08	2885.59
576.27	3155.92
576.47	2789.33
576.66	3043.28
576.86	3223.50
577.05	3026.90
577.25	2953.17
577.44	3071.95
577.64	2926.55
577.83	3170.26
578.02	2856.92
578.22	3026.90
578.41	3272.65
578.61	2904.02
578.80	2637.78
579.00	2934.74
579.19	2938.84
579.39	3035.09
579.58	2961.36
579.77	2959.31
579.97	3260.37
580.16	3170.26
580.36	3006.42
580.55	2963.41
580.75	3088.34
580.94	2957.27
581.13	2992.08
581.33	3098.58
581.52	2979.79
581.72	3286.99
581.91	2926.55
582.11	2838.48
582.30	3125.20
582.49	3033.04
582.69	3231.69
582.88	2947.03
583.08	3010.51
583.27	3139.54
583.47	2985.94
583.66	2881.49
583.85	2824.15
584.05	2904.02
584.24	2992.08
584.44	2930.64
584.63	3184.59
584.82	3254.22
585.02	3119.06
585.21	2992.08
585.41	3049.43
585.60	2959.31
585.79	3123.15
585.99	3215.31
586.18	3117.01
586.37	3807.17
586.57	5836.71
586.76	16666.37
586.96	35798.49
587.15	48882.97
587.34	57318.55
587.54	61189.21
587.73	54275.27
587.93	38907.31
588.12	29851.19
588.31	23891.60
588.51	21513.91
588.70	19680.98
588.89	17182.46
589.09	14665.50
589.28	12695.36
589.47	9969.51
589.67	7554.96
589.86	5826.47
590.06	4618.17
590.25	4118.47
590.44	3567.56
590.64	3366.86
590.83	3262.41
591.02	3241.93
591.22	2918.36
591.41	2916.31
591.60	3008.47
591.80	3311.57
591.99	2676.70
592.18	2844.63
592.38	3174.35
592.57	2914.26
592.76	2901.97
592.96	2969.55
593.15	2981.84
593.34	3176.40
593.54	2854.87
593.73	2944.98
593.92	3094.48
594.12	3123.15
594.31	2942.93
594.50	3051.47
594.70	3086.29
594.89	3502.03
595.08	2731.99
595.28	3004.37
595.47	3581.90
595.66	3176.40
595.86	2766.81
596.05	2818.00
596.24	2992.08
596.43	3276.75
596.63	2973.65
596.82	2985.94
597.01	3053.52
597.21	3278.80
597.40	2863.06
597.59	2867.16
597.79	2996.18
597.98	3067.86
598.17	2899.92
598.36	2961.36
598.56	3164.11
598.75	2928.60
598.94	2920.40
599.14	2836.44
599.33	2936.79
599.52	3030.99
599.71	2926.55
599.91	2940.88
600.10	3143.63
600.29	3045.33
600.48	2955.22
600.68	2949.08
600.87	2987.99
601.06	2977.75
601.26	2877.40
601.45	2920.40
601.64	2990.03
601.83	3246.03
602.03	2826.20
602.22	2789.33
602.41	3217.36
602.60	3428.30
602.80	2981.84
602.99	2979.79
603.18	2838.48
603.37	2949.08
603.57	2820.05
603.76	2969.55
603.95	3178.45
604.14	2893.78
604.34	2781.14
604.53	2871.25
604.72	2998.23
604.91	3155.92
605.10	2865.11
605.30	2709.46
605.49	3387.34
605.68	3121.10
605.87	2953.17
606.07	2793.43
606.26	3000.27
606.45	3055.57
606.64	2932.69
606.84	2748.37
607.03	3006.42
607.22	3174.35
607.41	2906.07
607.60	2770.90
607.80	3141.58
607.99	2942.93
608.18	2906.07
608.37	2897.88
608.56	2957.27
608.76	3180.50
608.95	2983.89
609.14	2912.21
609.33	3190.74
609.52	3268.56
609.72	2979.79
609.91	2887.64
610.10	3018.71
610.29	3219.41
610.48	2944.98
610.68	2947.03
610.87	2961.36
611.06	3125.20
611.25	2826.20
611.44	3045.33
611.63	2955.22
611.83	3114.96
612.02	2764.76
612.21	2926.55
612.40	2680.79
612.59	2875.35
612.79	2820.05
612.98	2904.02
613.17	3313.61
613.36	2979.79
613.55	3016.66
613.74	2899.92
613.93	2981.84
614.13	3086.29
614.32	3065.81
614.51	2910.16
614.70	2926.55
614.89	2938.84
615.08	2985.94
615.28	3299.28
615.47	2791.38
615.66	3071.95
615.85	2955.22
616.04	2901.97
616.23	2928.60
616.42	2934.74
616.62	2869.20
616.81	2865.11
617.00	2953.17
617.19	3090.38
617.38	2910.16
617.57	2918.36
617.76	3139.54
617.95	3090.38
618.15	3039.19
618.34	3119.06
618.53	2752.47
618.72	3157.97
618.91	2934.74
619.10	2924.50
619.29	3055.57
619.48	2979.79
619.68	2830.29
619.87	2891.73
620.06	2783.19
620.25	3117.01
620.44	2801.62
620.63	2813.91
620.82	2996.18
621.01	3030.99
621.20	2836.44
621.39	2889.68
621.59	3057.62
621.78	2914.26
621.97	2895.83
622.16	2971.60
622.35	3026.90
622.54	3094.48
622.73	2942.93
622.92	2650.07
623.11	3086.29
623.30	2955.22
623.49	2961.36
623.68	2662.36
623.88	3237.84
624.07	2842.58
624.26	2762.71
624.45	2895.83
624.64	2957.27
624.83	3108.82
625.02	2799.57
625.21	2924.50
625.40	3033.04
625.59	3237.84
625.78	2912.21
625.97	3035.09
626.16	3190.74
626.35	3104.72
626.54	2961.36
626.74	3018.71
626.93	2910.16
627.12	2926.55
627.31	3018.71
627.50	2856.92
627.69	3110.86
627.88	2877.40
628.07	2795.48
628.26	2738.13
628.45	2906.07
628.64	2869.20
628.83	2826.20
629.02	2744.28
629.21	3067.86
629.40	3047.38
629.59	2789.33
629.78	2813.91
629.97	2996.18
630.16	3024.85
630.35	2867.16
630.54	2867.16
630.73	2918.36
630.92	2992.08
631.11	2713.56
631.30	2856.92
631.49	3092.43
631.68	2879.44
631.87	2930.64
632.06	2727.89
632.25	3352.52
632.44	3018.71
632.63	2879.44
632.82	2858.96
633.01	2752.47
633.20	3035.09
633.39	2867.16
633.58	2705.37
633.77	3102.67
633.96	3059.67
634.15	2967.51
634.34	2959.31
634.53	2981.84
634.72	2893.78
634.91	2629.59
635.10	2910.16
635.29	3174.35
635.48	3020.75
635.67	2787.29
635.86	2680.79
636.05	3270.61
636.24	2973.65
636.43	2865.11
636.62	3043.28
636.81	2549.72
637.00	3006.42
637.19	2863.06
637.38	2799.57
637.57	2914.26
637.76	2944.98
637.95	3086.29
638.14	2795.48
638.33	3053.52
638.52	2996.18
638.71	2799.57
638.89	2699.22
639.08	3479.50
639.27	3200.98
639.46	3010.51
639.65	3186.64
639.84	3416.01
640.03	3622.86
640.22	3295.18
640.41	3280.85
640.60	2998.23
640.79	3196.88
640.98	2983.89
641.17	3067.86
641.36	3051.47
641.55	3151.82
641.74	2740.18
641.92	2803.67
642.11	2871.25
642.30	2910.16
642.49	2838.48
642.68	2885.59
642.87	3137.49
643.06	3069.91
643.25	2760.66
643.44	2738.13
643.63	2914.26
643.82	3166.16
644.00	2680.79
644.19	2897.88
644.38	2875.35
644.57	3139.54
644.76	2834.39
644.95	2856.92
645.14	3026.90
645.33	2926.55
645.52	2928.60
645.71	2684.89
645.89	2912.21
646.08	2963.41
646.27	2850.77
646.46	3119.06
646.65	2754.52
646.84	3065.81
647.03	2822.10
647.22	3041.23
647.40	2965.46
647.59	2899.92
647.78	2686.94
647.97	2807.77
648.16	2871.25
648.35	3211.22
648.54	3088.34
648.73	2861.01
648.91	3149.78
649.10	2944.98
649.29	2801.62
649.48	2838.48
649.67	3024.85
649.86	3059.67
650.05	2867.16
650.23	3080.14
650.42	2893.78
650.61	3209.17
650.80	3026.90
650.99	3112.91
651.18	3135.44
651.36	3188.69
651.55	2832.34
651.74	3037.14
651.93	2922.45
652.12	2949.08
652.31	2930.64
652.49	2942.93
652.68	2869.20
652.87	3200.98
653.06	2908.12
653.25	3078.10
653.44	3039.19
653.62	3229.65
653.81	2844.63
654.00	2885.59
654.19	3110.86
654.38	3434.44
654.56	2965.46
654.75	2807.77
654.94	3155.92
655.13	3016.66
655.32	2828.24
655.51	2938.84
655.69	2922.45
655.88	3080.14
656.07	2760.66
656.26	2916.31
656.45	2836.44
656.63	3039.19
656.82	2840.53
657.01	3055.57
657.20	2865.11
657.38	3221.45
657.57	2785.24
657.76	2668.50
657.95	3086.29
658.14	2969.55
658.32	3016.66
658.51	2764.76
658.70	3049.43
658.89	3055.57
659.08	2930.64
659.26	3057.62
659.45	2824.15
659.64	2994.13
659.83	2828.24
660.01	3137.49
660.20	3004.37
660.39	3266.51
660.58	2543.58
660.76	2938.84
660.95	2793.43
661.14	2951.12
661.33	2686.94
661.51	2805.72
661.70	2867.16
661.89	3000.27
662.08	2865.11
662.26	2723.80
662.45	2748.37
662.64	3264.46
662.83	2930.64
663.01	2705.37
663.20	2891.73
663.39	3233.74
663.58	2832.34
663.76	2775.00
663.95	3035.09
664.14	2815.96
664.32	2904.02
664.51	2811.86
664.70	2676.70
664.89	3102.67
665.07	2699.22
665.26	2969.55
665.45	2764.76
665.64	3108.82
665.82	2828.24
666.01	3000.27
666.20	2793.43
666.38	3123.15
666.57	3125.20
666.76	4763.58
666.95	11075.42
667.13	17770.22
667.32	21579.45
667.51	24094.35
667.69	25120.38
667.88	21341.88
668.07	15222.55
668.25	12943.16
668.44	11116.37
668.63	9734.00
668.81	8667.00
669.00	7303.06
669.19	6760.34
669.38	5822.38
669.56	5046.20
669.75	4349.89
669.94	3983.30
670.12	3442.64
670.31	3168.21
670.50	3100.62
670.68	3166.16
670.87	3090.38
671.06	2865.11
671.24	2893.78
671.43	3350.48
671.62	3108.82
671.80	2783.19
671.99	3028.95
672.18	3006.42
672.36	3074.00
672.55	2924.50
672.74	2910.16
672.92	2955.22
673.11	3151.82
673.29	2746.33
673.48	2928.60
673.67	2906.07
673.85	3182.54
674.04	2803.67
674.23	3020.75
674.41	3233.74
674.60	2785.24
674.79	2654.17
674.97	2703.32
675.16	3055.57
675.34	3164.11
675.53	2961.36
675.72	2953.17
675.90	3362.76
676.09	2904.02
676.28	2965.46
676.46	2631.64
676.65	3125.20
676.83	2811.86
677.02	2914.26
677.21	2971.60
677.39	3055.57
677.58	2904.02
677.77	2818.00
677.95	2670.55
678.14	2926.55
678.32	2873.30
678.51	2861.01
678.70	3133.39
678.88	2854.87
679.07	3000.27
679.25	2842.58
679.44	2887.64
679.63	2725.85
679.81	3047.38
680.00	3053.52
680.18	2863.06
680.37	3284.94
680.55	2981.84
680.74	2756.57
680.93	2656.22
681.11	3008.47
681.30	2965.46
681.48	2875.35
681.67	2863.06
681.85	3033.04
682.04	2828.24
682.23	3030.99
682.41	2955.22
682.60	2951.12
682.78	2908.12
682.97	2781.14
683.15	2987.99
683.34	2949.08
683.53	3223.50
683.71	2639.83
683.90	2965.46
684.08	3233.74
684.27	2992.08
684.45	2969.55
684.64	2996.18
684.82	3051.47
685.01	3141.58
685.19	2901.97
685.38	3121.10
685.57	3004.37
685.75	2865.11
685.94	2793.43
686.12	2770.90
686.31	2850.77
686.49	3223.50
686.68	2691.03
686.86	2957.27
687.05	2985.94
687.23	3192.78
687.42	2910.16
687.60	2768.85
687.79	3147.73
687.97	3284.94
688.16	2983.89
688.34	3071.95
688.53	2693.08
688.71	3035.09
688.90	3121.10
689.08	2926.55
689.27	2701.27
689.45	3074.00
689.64	3076.05
689.82	2867.16
690.01	3090.38
690.19	3090.38
690.38	2973.65
690.56	3043.28
690.75	2873.30
690.93	2807.77
691.12	2916.31
691.30	2869.20
691.49	2895.83
691.67	3008.47
691.86	3147.73
692.04	2805.72
692.23	2871.25
692.41	3030.99
692.60	3260.37
692.78	3022.80
692.97	2930.64
693.15	3125.20
693.34	3086.29
693.52	3123.15
693.71	2813.91
693.89	2848.72
694.08	2719.70
694.26	2963.41
694.44	3078.10
694.63	3045.33
694.81	2779.09
695.00	2850.77
695.18	3160.02
695.37	3407.82
695.55	2938.84
695.74	2979.79
695.92	2803.67
696.10	3291.09
696.29	2768.85
696.47	2850.77
696.66	2717.65
696.84	2795.48
697.03	2856.92
697.21	3063.76
697.40	4366.27
697.58	3215.31
697.76	2783.19
697.95	2842.58
698.13	2820.05
698.32	2883.54
698.50	2869.20
698.68	2908.12
698.87	3088.34
699.05	3196.88
699.24	2873.30
699.42	2744.28
699.61	2990.03
699.79	3006.42
699.97	2858.96
700.16	2701.27
700.34	2789.33
700.53	3002.32
700.71	3088.34
700.89	3018.71
701.08	2904.02
701.26	2889.68
701.45	3223.50
701.63	2832.34
701.81	2844.63
702.00	2863.06
702.18	3012.56
702.37	2789.33
702.55	3166.16
702.73	3065.81
702.92	2871.25
703.10	3178.45
703.28	3059.67
703.47	2858.96
703.65	3063.76
703.84	2908.12
704.02	2822.10
704.20	3215.31
704.39	2791.38
704.57	2873.30
704.75	3084.24
704.94	3094.48
705.12	3065.81
705.30	3389.39
705.49	6653.85
705.67	12996.41
705.86	18124.52
706.04	20334.28
706.22	22544.04
706.41	22271.66
706.59	17102.59
706.77	13029.18
706.96	11435.86
707.14	10237.80
707.32	8951.67
707.51	7896.97
707.69	6428.57
707.87	5455.79
708.06	4417.47
708.24	3930.05
708.42	3581.90
708.61	3766.21
708.79	2861.01
708.97	3030.99
709.16	3162.06
709.34	2934.74
709.52	2869.20
709.71	2934.74
709.89	3057.62
710.07	2779.09
710.26	2721.75
710.44	2891.73
710.62	3172.30
710.80	2975.70
710.99	3018.71
711.17	3022.80
711.35	2906.07
711.54	2910.16
711.72	3069.91
711.90	2901.97
712.09	3102.67
712.27	2813.91
712.45	3002.32
712.63	2889.68
712.82	2959.31
713.00	3002.32
713.18	2961.36
713.37	3026.90
713.55	3145.68
713.73	3100.62
713.91	3002.32
714.10	2854.87
714.28	2861.01
714.46	3125.20
714.65	3014.61
714.83	2830.29
715.01	2979.79
715.19	2936.79
715.38	2818.00
715.56	2983.89
715.74	2879.44
715.92	2801.62
716.11	3098.58
716.29	2662.36
716.47	2932.69
716.65	2887.64
716.84	2645.98
717.02	2891.73
717.20	2666.46
717.38	2852.82
717.57	2992.08
717.75	2904.02
717.93	2922.45
718.11	3127.25
718.30	2750.42
718.48	2877.40
718.66	3211.22
718.84	3135.44
719.03	2803.67
719.21	2699.22
719.39	3276.75
719.57	3117.01
719.75	2987.99
719.94	2861.01
720.12	2936.79
720.30	3035.09
720.48	2981.84
720.67	2822.10
720.85	2901.97
721.03	3006.42
721.21	2711.51
721.39	2959.31
721.58	3057.62
721.76	2985.94
721.94	2975.70
722.12	3004.37
722.30	3223.50
722.49	2942.93
722.67	2901.97
722.85	2858.96
723.03	2809.81
723.21	2883.54
723.40	2881.49
723.58	3119.06
723.76	3108.82
723.94	3188.69
724.12	2869.20
724.30	3067.86
724.49	3145.68
724.67	2869.20
724.85	2969.55
725.03	2811.86
725.21	3108.82
725.40	3084.24
725.58	2740.18
725.76	3051.47
725.94	3049.43
726.12	2846.68
726.30	2867.16
726.49	2863.06
726.67	2936.79
726.85	3049.43
727.03	3379.15
727.21	4429.76
727.39	5631.91
727.57	5750.70
727.76	6277.02
727.94	6363.04
728.12	5552.04
728.30	4609.98
728.48	4566.97
728.66	4128.70
728.84	3991.49
729.03	3549.13
729.21	3381.20
729.39	3182.54
729.57	3043.28
729.75	3090.38
729.93	2922.45
730.11	2842.58
730.30	2824.15
730.48	2904.02
730.66	3002.32
730.84	2904.02
731.02	2990.03
731.20	2918.36
731.38	2871.25
731.56	2764.76
731.74	2715.61
731.93	2996.18
732.11	2932.69
732.29	2863.06
732.47	3065.81
732.65	2981.84
732.83	3084.24
733.01	2983.89
733.19	2848.72
733.37	3057.62
733.56	2936.79
733.74	2770.90
733.92	3207.12
734.10	2924.50
734.28	2971.60
734.46	2650.07
734.64	2949.08
734.82	2922.45
735.00	2865.11
735.18	2793.43
735.36	2973.65
735.54	3043.28
735.73	2856.92
735.91	2912.21
736.09	3221.45
736.27	2879.44
736.45	2922.45
736.63	2656.22
736.81	2811.86
736.99	3133.39
737.17	3055.57
737.35	2709.46
737.53	3008.47
737.71	2955.22
737.89	3082.19
738.07	2801.62
738.25	2883.54
738.43	2715.61
738.61	2895.83
738.80	2775.00
738.98	2803.67
739.16	2897.88
739.34	2803.67
739.52	3092.43
739.70	2928.60
739.88	3098.58
740.06	2957.27
740.24	2562.01
740.42	3147.73
740.60	2684.89
740.78	2795.48
740.96	2549.72
741.14	2885.59
741.32	2953.17
741.50	2758.61
741.68	3172.30
741.86	3117.01
742.04	2865.11
742.22	2783.19
742.40	2883.54
742.58	3078.10
742.76	2717.65
742.94	3098.58
743.12	2682.84
743.30	3033.04
743.48	3030.99
743.66	2783.19
743.84	2899.92
744.02	2924.50
744.20	2895.83
744.38	2783.19
744.56	2830.29
744.74	3362.76
744.92	3090.38
745.10	3143.63
745.28	2981.84
745.46	3332.05
745.64	2983.89
745.82	3014.61
746.00	2922.45
746.18	3065.81
746.36	2781.14
746.54	2932.69
746.72	2926.55
746.90	2861.01
747.08	3143.63
747.26	2848.72
747.44	2979.79
747.62	3084.24
747.80	2990.03
747.98	2969.55
748.15	2830.29
748.33	3243.98
748.51	2996.18
748.69	2975.70
748.87	2813.91
749.05	2961.36
749.23	2901.97
749.41	2971.60
749.59	2944.98
749.77	3147.73
749.95	2830.29
750.13	2811.86
750.31	3026.90
750.49	2942.93
750.67	3084.24
750.85	3043.28
751.03	2844.63
751.20	3344.33
751.38	3035.09
751.56	2926.55
751.74	2861.01
751.92	2910.16
752.10	2803.67
752.28	3065.81
752.46	2840.53
752.64	3043.28
752.82	2942.93
753.00	2955.22
753.18	2795.48
753.35	2908.12
753.53	2908.12
753.71	2719.70
753.89	3006.42
754.07	2969.55
754.25	3157.97
754.43	3002.32
754.61	2799.57
754.79	3094.48
754.97	2838.48
755.14	3108.82
755.32	2840.53
755.50	3055.57
755.68	3000.27
755.86	2787.29
756.04	2744.28
756.22	2664.41
756.40	3108.82
756.57	3071.95
756.75	2885.59
756.93	3104.72
757.11	3092.43
757.29	2750.42
757.47	2750.42
757.65	2713.56
757.82	2731.99
758.00	2746.33
758.18	2820.05
758.36	2858.96
758.54	3207.12
758.72	2734.04
758.90	2985.94
759.07	3067.86
759.25	2842.58
759.43	2955.22
759.61	2721.75
759.79	4298.69
759.97	3098.58
760.15	2871.25
760.32	2852.82
760.50	2996.18
760.68	3342.28
760.86	2719.70
761.04	3090.38
761.22	3104.72
761.39	3030.99
761.57	2940.88
761.75	2973.65
761.93	3098.58
762.11	2832.34
762.28	2914.26
762.46	2779.09
762.64	3123.15
762.82	2785.24
763.00	2844.63
763.18	3176.40
763.35	2742.23
763.53	3092.43
763.71	2947.03
763.89	2889.68
764.07	2934.74
764.24	2926.55
764.42	2983.89
764.60	2844.63
764.78	3082.19
764.96	3078.10
765.13	3020.75
765.31	2842.58
765.49	3098.58
765.67	2813.91
765.84	2807.77
766.02	2777.05
766.20	2801.62
766.38	2998.23
766.56	3008.47
766.73	2996.18
766.91	2926.55
767.09	2955.22
767.27	2891.73
767.44	2791.38
767.62	3114.96
767.80	3010.51
767.98	2783.19
768.15	2924.50
768.33	3088.34
768.51	3082.19
768.69	2987.99
768.87	2861.01
769.04	2994.13
769.22	3504.07
769.40	3071.95
769.58	3020.75
769.75	3045.33
769.93	3196.88
770.11	2848.72
770.28	2779.09
770.46	3102.67
770.64	3045.33
770.82	2838.48
770.99	2897.88
771.17	3153.87
771.35	2961.36
771.53	2899.92
771.70	2795.48
771.88	3063.76
772.06	2951.12
772.23	2775.00
772.41	2973.65
772.59	2940.88
772.77	2873.30
772.94	2926.55
773.12	2947.03
773.30	2813.91
773.47	2998.23
773.65	2840.53
773.83	3016.66
774.01	2994.13
774.18	2705.37
774.36	2885.59
774.54	2695.13
774.71	3086.29
774.89	2691.03
775.07	2832.34
775.24	2783.19
775.42	2949.08
775.60	3246.03
775.78	2807.77
775.95	2682.84
776.13	2748.37
776.31	2688.98
776.48	2942.93
776.66	3061.71
776.84	2928.60
777.01	2832.34
777.19	2820.05
777.37	2854.87
777.54	3129.30
777.72	3311.57
777.90	2858.96
778.07	2826.20
778.25	3581.90
778.43	3106.77
778.60	2828.24
778.78	2895.83
778.96	3235.79
779.13	2828.24
779.31	2979.79
779.49	2877.40
779.66	3035.09
779.84	2885.59
780.01	2856.92
780.19	2721.75
780.37	3182.54
780.54	3090.38
780.72	2748.37
780.90	2875.35
781.07	2951.12
781.25	2889.68
781.43	3035.09
781.60	2789.33
781.78	3268.56
781.95	3049.43
782.13	2725.85
782.31	2871.25
782.48	2729.94
782.66	3028.95
782.83	3139.54
783.01	3002.32
783.19	3168.21
783.36	2938.84
783.54	2705.37
783.72	2994.13
783.89	2924.50
784.07	2992.08
784.24	2944.98
784.42	3098.58
784.60	3086.29
784.77	3026.90
784.95	2658.26
785.12	2830.29
785.30	3053.52
785.47	2803.67
785.65	2742.23
785.83	2901.97
786.00	2906.07
786.18	2918.36
786.35	2805.72
786.53	2760.66
786.71	3104.72
786.88	3053.52
787.06	2865.11
787.23	2910.16
787.41	2783.19
787.58	3010.51
787.76	2707.41
787.94	2871.25
788.11	3026.90
788.29	2666.46
788.46	2809.81
788.64	2713.56
788.81	2904.02
788.99	2832.34
789.16	2762.71
789.34	2824.15
789.52	2928.60
789.69	2908.12
789.87	2688.98
790.04	2809.81
790.22	2918.36
790.39	3274.70
790.57	2744.28
790.74	2793.43
790.92	3145.68
791.09	2822.10
791.27	2852.82
791.44	2967.51
791.62	2887.64
791.79	3069.91
791.97	2947.03
792.15	3205.07
792.32	3080.14
792.50	3112.91
792.67	3108.82
792.85	3123.15
793.02	2953.17
793.20	2936.79
793.37	2752.47
793.55	2772.95
793.72	2785.24
793.90	3084.24
794.07	2805.72
794.25	2742.23
794.42	3098.58
794.60	2920.40
794.77	2885.59
794.95	2975.70
795.12	3239.89
795.30	3002.32
795.47	2701.27
795.65	3196.88
795.82	3037.14
796.00	2869.20
796.17	2887.64
796.34	2846.68
796.52	2998.23
796.69	3096.53
796.87	2947.03
797.04	2951.12
797.22	3061.71
797.39	3067.86
797.57	2998.23
797.74	2848.72
797.92	3012.56
798.09	2912.21
798.27	3114.96
798.44	2840.53
798.62	2926.55
798.79	2987.99
798.96	3024.85
799.14	2856.92
799.31	3391.44
799.49	2959.31
799.66	2766.81
799.84	2820.05
800.01	2688.98
800.19	3061.71
800.36	2629.59
800.53	2877.40
800.71	3092.43
800.88	3235.79
801.06	2783.19
801.23	2768.85
801.41	2963.41
801.58	2920.40
801.75	2828.24
801.93	2914.26
802.10	3127.25
802.28	2955.22
802.45	2826.20
802.63	2930.64
802.80	3186.64
802.97	2881.49
803.15	2877.40
803.32	2858.96
803.50	2928.60
803.67	2807.77
803.84	2785.24
804.02	2928.60
804.19	2932.69
804.37	2576.34
804.54	2688.98
804.71	2729.94
804.89	2928.60
805.06	2824.15
805.24	2768.85
805.41	2658.26
805.58	2799.57
805.76	3383.24
805.93	2912.21
806.10	3028.95
806.28	3082.19
806.45	3035.09
806.63	2961.36
806.80	2949.08
806.97	2947.03
807.15	3030.99
807.32	2934.74
807.49	2863.06
807.67	2803.67
807.84	3065.81
808.01	2648.02
808.19	3035.09
808.36	3444.68
808.54	2852.82
808.71	2863.06
808.88	2793.43
809.06	3149.78
809.23	3180.50
809.40	2768.85
809.58	2854.87
809.75	2971.60
809.92	2795.48
810.10	3198.93
810.27	2867.16
810.44	3098.58
810.62	3121.10
810.79	2987.99
810.96	2854.87
811.14	2926.55
811.31	2996.18
811.48	2928.60
811.66	2924.50
811.83	3147.73
812.00	3041.23
812.18	2934.74
812.35	3153.87
812.52	2918.36
812.69	2926.55
812.87	2828.24
813.04	2822.10
813.21	2971.60
813.39	2871.25
813.56	2678.74
813.73	3100.62
813.91	2742.23
814.08	2949.08
814.25	2897.88
814.42	2686.94
814.60	2897.88
814.77	3026.90
814.94	2856.92
815.12	2938.84
815.29	3243.98
815.46	2885.59
815.63	2922.45
815.81	2840.53
815.98	2879.44
816.15	2973.65
816.33	2885.59
816.50	2918.36
816.67	3020.75
816.84	2934.74
817.02	2727.89
817.19	2871.25
817.36	3024.85
817.53	3088.34
817.71	2785.24
817.88	2947.03
818.05	2975.70
818.22	2926.55
818.40	3096.53
818.57	2873.30
818.74	3057.62
818.91	2947.03
819.09	2944.98
819.26	3049.43
819.43	2926.55
819.60	2832.34
819.78	2981.84
819.95	2959.31
820.12	2803.67
820.29	3256.27
820.47	3069.91
820.64	2803.67
820.81	2756.57
820.98	2805.72
821.15	2912.21
821.33	2951.12
821.50	2701.27
821.67	3039.19
821.84	2828.24
822.02	2963.41
822.19	3117.01
822.36	2861.01
822.53	2901.97
822.70	2750.42
822.88	2871.25
823.05	3297.23
823.22	2912.21
823.39	2924.50
823.56	2979.79
823.74	3221.45
823.91	2752.47
824.08	2713.56
824.25	2811.86
824.42	3254.22
824.60	2711.51
824.77	2967.51
824.94	2895.83
825.11	3076.05
825.28	2672.60
825.45	3012.56
825.63	2963.41
825.80	2758.61
825.97	2979.79
826.14	2934.74
826.31	2744.28
826.48	3100.62
826.66	2764.76
826.83	2826.20
827.00	2873.30
827.17	2838.48
827.34	2875.35
827.51	2834.39
827.69	2924.50
827.86	2738.13
828.03	2836.44
828.20	2891.73
828.37	2854.87
828.54	3030.99
828.71	2752.47
828.89	2887.64
829.06	3028.95
829.23	3178.45
829.40	2785.24
829.57	2826.20
829.74	3045.33
829.91	2899.92
830.09	2752.47
830.26	3022.80
830.43	3186.64
830.60	3006.42
830.77	2944.98
830.94	3033.04
831.11	3160.02
831.28	2869.20
831.46	3026.90
831.63	2772.95
831.80	3145.68
831.97	2854.87
832.14	2850.77
832.31	2840.53
832.48	3012.56
832.65	3149.78
832.82	2852.82
832.99	2879.44
833.17	2750.42
833.34	3143.63
833.51	2887.64
833.68	2598.87
833.85	3215.31
834.02	2838.48
834.19	2721.75
834.36	2842.58
834.53	3004.37
834.70	3151.82
834.87	2901.97
835.04	2668.50
835.22	2820.05
835.39	2934.74
835.56	2668.50
835.73	2729.94
835.90	3166.16
836.07	2801.62
836.24	2875.35
836.41	2727.89
836.58	2846.68
836.75	3065.81
836.92	2744.28
837.09	2682.84
837.26	3030.99
837.43	2959.31
837.60	2768.85
837.77	2748.37
837.94	3143.63
838.12	3198.93
838.29	2691.03
838.46	2639.83
838.63	2762.71
838.80	3192.78
838.97	2830.29
839.14	2662.36
839.31	2965.46
839.48	3082.19
839.65	2699.22
839.82	2836.44
839.99	2998.23
840.16	3004.37
840.33	2756.57
840.50	2797.53
840.67	2846.68
840.84	2600.92
841.01	2723.80
841.18	2787.29
841.35	2887.64
841.52	3108.82
841.69	3030.99
841.86	2781.14
842.03	3033.04
842.20	3127.25
842.37	2746.33
842.54	2734.04
842.71	2957.27
842.88	2785.24
843.05	2721.75
843.22	2813.91
843.39	3141.58
843.56	2928.60
843.73	2777.05
843.90	2746.33
844.07	2944.98
844.24	3211.22
844.41	2779.09
844.58	2729.94
844.75	2975.70
844.92	3061.71
845.09	2762.71
845.26	2740.18
845.43	3024.85
845.60	2908.12
845.77	2924.50
845.94	2856.92
846.10	3135.44
846.27	2756.57
846.44	2609.11
846.61	2609.11
846.78	3108.82
846.95	3129.30
847.12	2695.13
847.29	2695.13
847.46	2795.48
847.63	3010.51
847.80	2721.75
847.97	2772.95
848.14	3340.24
848.31	2836.44
848.48	2615.26
848.65	2803.67
848.82	2873.30
848.98	3299.28
849.15	2842.58
849.32	2826.20
849.49	3127.25
849.66	2930.64
849.83	2688.98
850.00	2695.13
850.17	3055.57
850.34	2944.98
850.51	2686.94
850.68	2721.75
850.85	3395.53
851.01	3071.95
851.18	2731.99
851.35	2738.13
851.52	3065.81
851.69	3141.58
851.86	2701.27
852.03	2779.09
852.20	3047.38
852.37	2979.79
852.53	2580.44
852.70	2697.17
852.87	2938.84
853.04	3135.44
853.21	2750.42
853.38	2951.12
853.55	3162.06
853.72	3184.59
853.89	2631.64
854.05	2658.26
854.22	2877.40
854.39	2916.31
854.56	2707.41
854.73	2897.88
854.90	2836.44
855.07	2936.79
855.23	2652.12
855.40	2699.22
855.57	2897.88
855.74	2711.51
855.91	3000.27
856.08	2662.36
856.25	2738.13
856.41	2789.33
856.58	2721.75
856.75	2762.71
856.92	2791.38
857.09	3117.01
857.26	2621.40
857.42	2836.44
857.59	3071.95
857.76	2955.22
857.93	2750.42
858.10	2807.77
858.27	2768.85
858.43	2975.70
858.60	2725.85
858.77	2617.30
858.94	2908.12
859.11	3090.38
859.27	2824.15
859.44	2637.78
859.61	3385.29
859.78	3100.62
859.95	2738.13
860.12	2684.89
860.28	3305.42
860.45	3327.95
860.62	2670.55
860.79	2822.10
860.95	2914.26
861.12	2869.20
861.29	2711.51
861.46	2742.23
861.63	2813.91
861.79	3033.04
861.96	2590.68
862.13	2684.89
862.30	3198.93
862.47	2877.40
862.63	2643.93
862.80	2748.37
862.97	3170.26
863.14	3020.75
863.30	2731.99
863.47	2695.13
863.64	3225.55
863.81	3041.23
863.97	2609.11
864.14	2861.01
864.31	2904.02
864.48	2973.65
864.65	2662.36
864.81	2863.06
864.98	3090.38
865.15	3114.96
865.32	2844.63
865.48	2799.57
865.65	3178.45
865.82	2871.25
865.98	2799.57
866.15	2799.57
866.32	2994.13
866.49	2963.41
866.65	2830.29
866.82	2709.46
866.99	2967.51
867.16	2861.01
867.32	2805.72
867.49	2660.31
867.66	3012.56
867.83	2854.87
867.99	2748.37
868.16	2762.71
868.33	2799.57
868.49	2987.99
868.66	2856.92
868.83	2775.00
868.99	3106.77
869.16	2977.75
869.33	2836.44
869.50	2797.53
869.66	3037.14
869.83	2969.55
870.00	2602.97
870.16	2863.06
870.33	2977.75
870.50	3067.86
870.66	2826.20
870.83	2748.37
871.00	2983.89
871.17	3129.30
871.33	2805.72
871.50	2699.22
871.67	2899.92
871.83	2891.73
872.00	2865.11
872.17	2742.23
872.33	3340.24
872.50	3114.96
872.67	2709.46
872.83	2731.99
873.00	2930.64
873.17	2938.84
873.33	2789.33
873.50	2752.47
873.67	2813.91
873.83	2863.06
874.00	2738.13
874.16	2877.40
874.33	2949.08
874.50	2723.80
874.66	2688.98
874.83	2838.48
875.00	3121.10
875.16	3143.63
875.33	2813.91
875.50	2531.29
875.66	2914.26
875.83	2938.84
875.99	2830.29
876.16	2832.34
876.33	2801.62
876.49	2861.01
876.66	2777.05
876.83	2744.28
876.99	2801.62
877.16	3033.04
877.32	2762.71
877.49	2807.77
877.66	3006.42
877.82	3205.07
877.99	2836.44
878.15	2947.03
878.32	3004.37
878.49	3014.61
878.65	2707.41
878.82	2953.17
878.98	2824.15
879.15	3153.87
879.32	2807.77
879.48	2910.16
879.65	2961.36
879.81	2877.40
879.98	2799.57
880.15	2738.13
880.31	3108.82
880.48	2754.52
880.64	2848.72
880.81	2901.97
880.97	3151.82
881.14	3180.50
881.31	2719.70
881.47	2975.70
881.64	3020.75
881.80	2676.70
881.97	2971.60
882.13	2791.38
882.30	2834.39
882.47	2840.53
882.63	2789.33
882.80	2721.75
882.96	2850.77
883.13	3129.30
883.29	2766.81
883.46	2787.29
883.62	3405.77
883.79	2940.88
883.95	2924.50
884.12	2674.65
884.29	3149.78
884.45	3047.38
884.62	2836.44
884.78	2676.70
884.95	3256.27
885.11	2764.76
885.28	2840.53
885.44	2713.56
885.61	3114.96
885.77	3248.08
885.94	2893.78
886.10	2797.53
886.27	3026.90
886.43	3291.09
886.60	2994.13
886.76	2779.09
886.93	2844.63
887.09	3053.52
887.26	2662.36
887.42	2807.77
887.59	3088.34
887.75	3389.39
887.92	2971.60
888.08	2885.59
888.25	3170.26
888.41	3145.68
888.58	2803.67
888.74	2623.45
888.91	2803.67
>>>>>End Processed Spectral Data<<<<<
