SpectraSuite Data File
++++++++++++++++++++++++++++++++++++
Date: Thu May 05 21:11:29 CEST 2016
User: root
Dark Spectrum Present: No
Reference Spectrum Present: No
Number of Sampled Component Spectra: 1
Spectrometers: USB4C02835
Integration Time (usec): 100000 (USB4C02835)
Spectra Averaged: 1 (USB4C02835)
Boxcar Smoothing: 0 (USB4C02835)
Correct for Electrical Dark: No (USB4C02835)
Strobe/Lamp Enabled: No (USB4C02835)
Correct for Detector Non-linearity: No (USB4C02835)
Correct for Stray Light: No (USB4C02835)
Number of Pixels in Processed Spectrum: 3648
>>>>>Begin Processed Spectral Data<<<<<
177.47	2119.65
177.69	2119.65
177.91	2119.65
178.13	2090.98
178.36	2140.13
178.58	2842.58
178.80	3016.66
179.02	2738.13
179.24	2807.77
179.46	2643.93
179.68	2639.83
179.90	3002.32
180.13	2987.99
180.35	2504.67
180.57	2619.35
180.79	3166.16
181.01	2891.73
181.23	2684.89
181.45	2793.43
181.67	3121.10
181.90	3065.81
182.12	2750.42
182.34	2609.11
182.56	3117.01
182.78	3018.71
183.00	2621.40
183.22	2713.56
183.44	2609.11
183.66	3483.59
183.89	2754.52
184.11	2660.31
184.33	3024.85
184.55	3186.64
184.77	2688.98
184.99	2736.09
185.21	2922.45
185.43	3446.73
185.65	2699.22
185.87	2656.22
186.10	3348.43
186.32	3327.95
186.54	2791.38
186.76	2803.67
186.98	3143.63
187.20	2865.11
187.42	2731.99
187.64	2670.55
187.86	3074.00
188.08	3180.50
188.30	2639.83
188.52	2754.52
188.75	3190.74
188.97	3190.74
189.19	2664.41
189.41	2678.74
189.63	3119.06
189.85	2928.60
190.07	2555.86
190.29	2584.54
190.51	3061.71
190.73	2727.89
190.95	2813.91
191.17	2699.22
191.39	2719.70
191.61	2899.92
191.84	2709.46
192.06	2877.40
192.28	2725.85
192.50	3565.51
192.72	2809.81
192.94	2820.05
193.16	3067.86
193.38	3094.48
193.60	2531.29
193.82	2852.82
194.04	3094.48
194.26	3096.53
194.48	2699.22
194.70	2621.40
194.92	2918.36
195.14	3102.67
195.36	2652.12
195.58	2744.28
195.80	2994.13
196.02	2914.26
196.24	2648.02
196.46	2705.37
196.69	2910.16
196.91	3430.35
197.13	2785.24
197.35	2729.94
197.57	3254.22
197.79	3157.97
198.01	2764.76
198.23	2701.27
198.45	3047.38
198.67	2793.43
198.89	2578.39
199.11	2799.57
199.33	2891.73
199.55	2637.78
199.77	2609.11
199.99	2824.15
200.21	3006.42
200.43	3033.04
200.65	2594.78
200.87	2570.20
201.09	2996.18
201.31	2926.55
201.53	2750.42
201.75	2688.98
201.97	2930.64
202.19	3051.47
202.41	2725.85
202.63	2848.72
202.85	3096.53
203.07	2983.89
203.29	2770.90
203.51	2645.98
203.73	2795.48
203.95	3426.25
204.17	2613.21
204.39	2854.87
204.61	2934.74
204.83	2901.97
205.05	2875.35
205.27	2729.94
205.49	3385.29
205.71	2959.31
205.93	2598.87
206.15	2600.92
206.37	2957.27
206.59	3049.43
206.81	2537.43
207.03	2650.07
207.25	2809.81
207.47	3092.43
207.69	2727.89
207.91	2928.60
208.13	3313.61
208.34	2858.96
208.56	2627.54
208.78	2607.06
209.00	2949.08
209.22	2871.25
209.44	2674.65
209.66	2633.69
209.88	2957.27
210.10	2877.40
210.32	2715.61
210.54	2791.38
210.76	2985.94
210.98	3114.96
211.20	2539.48
211.42	2861.01
211.64	3131.34
211.86	3153.87
212.08	2779.09
212.30	2695.13
212.52	2983.89
212.74	3102.67
212.96	2858.96
213.17	2809.81
213.39	3166.16
213.61	3311.57
213.83	2596.82
214.05	2547.67
214.27	3233.74
214.49	2731.99
214.71	2566.10
214.93	2772.95
215.15	3045.33
215.37	3112.91
215.59	2590.68
215.81	2707.41
216.03	3262.41
216.24	3026.90
216.46	2652.12
216.68	2719.70
216.90	3102.67
217.12	3246.03
217.34	2754.52
217.56	2820.05
217.78	3203.02
218.00	3067.86
218.22	2731.99
218.44	2824.15
218.66	3053.52
218.87	3332.05
219.09	2678.74
219.31	2719.70
219.53	3071.95
219.75	2967.51
219.97	2820.05
220.19	2648.02
220.41	2947.03
220.63	3342.28
220.85	2645.98
221.06	2688.98
221.28	3221.45
221.50	3022.80
221.72	2764.76
221.94	2559.96
222.16	2996.18
222.38	3114.96
222.60	2693.08
222.82	2764.76
223.03	3182.54
223.25	2848.72
223.47	2701.27
223.69	2832.34
223.91	3110.86
224.13	3047.38
224.35	2572.25
224.57	2852.82
224.78	3096.53
225.00	2881.49
225.22	2738.13
225.44	2652.12
225.66	3065.81
225.88	2869.20
226.10	2799.57
226.32	2727.89
226.53	3274.70
226.75	2865.11
226.97	2662.36
227.19	2807.77
227.41	2879.44
227.63	2912.21
227.85	2564.06
228.06	2721.75
228.28	3067.86
228.50	3090.38
228.72	2645.98
228.94	2693.08
229.16	2637.78
229.37	2748.37
229.59	2615.26
229.81	2961.36
230.03	2910.16
230.25	2758.61
230.47	2508.76
230.69	2670.55
230.90	3155.92
231.12	2836.44
231.34	2742.23
231.56	2824.15
231.78	2758.61
232.00	3020.75
232.21	2748.37
232.43	2686.94
232.65	2656.22
232.87	3076.05
233.09	2574.30
233.30	2652.12
233.52	3090.38
233.74	2887.64
233.96	2664.41
234.18	2807.77
234.40	2961.36
234.61	3422.16
234.83	2615.26
235.05	2654.17
235.27	3401.68
235.49	3143.63
235.70	2533.34
235.92	2787.29
236.14	3143.63
236.36	3436.49
236.58	2605.02
236.79	2789.33
237.01	2914.26
237.23	3024.85
237.45	2867.16
237.67	2695.13
237.88	2979.79
238.10	3336.14
238.32	2594.78
238.54	2600.92
238.76	2969.55
238.97	2832.34
239.19	2578.39
239.41	2707.41
239.63	3188.69
239.85	2947.03
240.06	2707.41
240.28	2717.65
240.50	3125.20
240.72	2963.41
240.93	2574.30
241.15	2779.09
241.37	2959.31
241.59	3137.49
241.81	2715.61
242.02	2746.33
242.24	3096.53
242.46	3114.96
242.68	2549.72
242.89	2658.26
243.11	3153.87
243.33	2955.22
243.55	2731.99
243.76	2701.27
243.98	2942.93
244.20	2983.89
244.42	2727.89
244.64	2662.36
244.85	2787.29
245.07	2852.82
245.29	2668.50
245.51	2764.76
245.72	3045.33
245.94	3213.26
246.16	2670.55
246.38	2736.09
246.59	2883.54
246.81	2846.68
247.03	2596.82
247.24	2582.49
247.46	2963.41
247.68	2944.98
247.90	2594.78
248.11	2727.89
248.33	3186.64
248.55	3028.95
248.77	2727.89
248.98	2787.29
249.20	3241.93
249.42	3012.56
249.64	2627.54
249.85	2574.30
250.07	2883.54
250.29	3121.10
250.50	2744.28
250.72	2576.34
250.94	3063.76
251.16	3264.46
251.37	2656.22
251.59	2758.61
251.81	3084.24
252.02	3278.80
252.24	2580.44
252.46	2883.54
252.68	2836.44
252.89	2852.82
253.11	2506.71
253.33	2789.33
253.54	3282.89
253.76	2770.90
253.98	2549.72
254.20	2668.50
254.41	2768.85
254.63	3014.61
254.85	2531.29
255.06	2803.67
255.28	3055.57
255.50	2965.46
255.71	2652.12
255.93	2508.76
256.15	2975.70
256.36	3080.14
256.58	2478.04
256.80	2664.41
257.02	2936.79
257.23	2990.03
257.45	2670.55
257.67	2779.09
257.88	2996.18
258.10	3092.43
258.32	2691.03
258.53	2783.19
258.75	3231.69
258.97	2836.44
259.18	2570.20
259.40	2639.83
259.62	3340.24
259.83	3254.22
260.05	2815.96
260.27	3467.21
260.48	3123.15
260.70	2863.06
260.92	2514.91
261.13	2727.89
261.35	3033.04
261.57	3078.10
261.78	2535.39
262.00	2621.40
262.22	3157.97
262.43	2856.92
262.65	2756.57
262.86	2746.33
263.08	3397.58
263.30	2973.65
263.51	2496.47
263.73	2672.60
263.95	3203.02
264.16	2936.79
264.38	2535.39
264.60	2629.59
264.81	2912.21
265.03	3155.92
265.25	2967.51
265.46	2572.25
265.68	3192.78
265.89	3127.25
266.11	2590.68
266.33	2678.74
266.54	3184.59
266.76	2996.18
266.98	2789.33
267.19	2836.44
267.41	3194.83
267.62	2969.55
267.84	2486.23
268.06	2783.19
268.27	3010.51
268.49	3098.58
268.70	2736.09
268.92	2711.51
269.14	2820.05
269.35	2777.05
269.57	2729.94
269.79	2748.37
270.00	2863.06
270.22	3278.80
270.43	2572.25
270.65	2523.10
270.87	3059.67
271.08	3098.58
271.30	2795.48
271.51	2682.84
271.73	3149.78
271.95	3250.13
272.16	2693.08
272.38	2815.96
272.59	2932.69
272.81	3094.48
273.02	2664.41
273.24	2734.04
273.46	3129.30
273.67	2832.34
273.89	2564.06
274.10	2654.17
274.32	3178.45
274.54	3069.91
274.75	2795.48
274.97	2815.96
275.18	3063.76
275.40	3006.42
275.61	2707.41
275.83	2822.10
276.05	2793.43
276.26	2967.51
276.48	2752.47
276.69	2846.68
276.91	2869.20
277.12	3256.27
277.34	2867.16
277.55	2899.92
277.77	2992.08
277.99	2895.83
278.20	2729.94
278.42	2668.50
278.63	2867.16
278.85	2846.68
279.06	2697.17
279.28	2842.58
279.49	3162.06
279.71	3143.63
279.93	2711.51
280.14	2877.40
280.36	2856.92
280.57	3172.30
280.79	2852.82
281.00	2703.32
281.22	2856.92
281.43	3149.78
281.65	2594.78
281.86	2772.95
282.08	3102.67
282.29	3321.81
282.51	2682.84
282.73	2691.03
282.94	2711.51
283.16	3157.97
283.37	2920.40
283.59	2811.86
283.80	3059.67
284.02	2992.08
284.23	2889.68
284.45	2801.62
284.66	2809.81
284.88	2865.11
285.09	2867.16
285.31	2889.68
285.52	3035.09
285.74	2703.32
285.95	2990.03
286.17	2805.72
286.38	3157.97
286.60	2887.64
286.81	2775.00
287.03	2797.53
287.24	3000.27
287.46	3061.71
287.67	2842.58
287.89	3026.90
288.10	2979.79
288.32	3045.33
288.53	2955.22
288.75	2863.06
288.96	3184.59
289.18	2836.44
289.39	2738.13
289.61	2873.30
289.82	3434.44
290.04	3293.13
290.25	2621.40
290.47	2906.07
290.68	2914.26
290.90	3114.96
291.11	2656.22
291.33	2938.84
291.54	2858.96
291.76	2899.92
291.97	2863.06
292.18	2910.16
292.40	2920.40
292.61	2926.55
292.83	3135.44
293.04	2811.86
293.26	2971.60
293.47	2967.51
293.69	2709.46
293.90	2756.57
294.12	3157.97
294.33	2979.79
294.55	2836.44
294.76	2947.03
294.97	3207.12
295.19	3358.67
295.40	2748.37
295.62	2840.53
295.83	3131.34
296.05	2916.31
296.26	2955.22
296.48	2801.62
296.69	2924.50
296.90	2930.64
297.12	2936.79
297.33	2885.59
297.55	2996.18
297.76	3094.48
297.98	2955.22
298.19	2891.73
298.41	3033.04
298.62	2768.85
298.83	3002.32
299.05	2840.53
299.26	2854.87
299.48	2863.06
299.69	2809.81
299.90	2791.38
300.12	2815.96
300.33	3100.62
300.55	2846.68
300.76	2781.14
300.98	2813.91
301.19	3057.62
301.40	2746.33
301.62	2766.81
301.83	3057.62
302.05	3014.61
302.26	2775.00
302.47	2871.25
302.69	2758.61
302.90	3057.62
303.12	2629.59
303.33	2922.45
303.54	3342.28
303.76	2901.97
303.97	2772.95
304.19	2998.23
304.40	2838.48
304.61	3026.90
304.83	2895.83
305.04	2836.44
305.26	3102.67
305.47	2875.35
305.68	2805.72
305.90	2738.13
306.11	3250.13
306.33	2924.50
306.54	2799.57
306.75	2770.90
306.97	2820.05
307.18	2770.90
307.39	2834.39
307.61	2947.03
307.82	2965.46
308.04	3106.77
308.25	2709.46
308.46	2938.84
308.68	3010.51
308.89	2971.60
309.10	2893.78
309.32	2742.23
309.53	2975.70
309.74	3092.43
309.96	2670.55
310.17	2846.68
310.39	2953.17
310.60	3098.58
310.81	2803.67
311.03	2734.04
311.24	3117.01
311.45	2985.94
311.67	3008.47
311.88	2893.78
312.09	2869.20
312.31	2938.84
312.52	2717.65
312.73	2777.05
312.95	2731.99
313.16	2867.16
313.37	3006.42
313.59	3002.32
313.80	3045.33
314.01	3223.50
314.23	2801.62
314.44	2721.75
314.65	2750.42
314.87	2850.77
315.08	2783.19
315.29	2836.44
315.51	2842.58
315.72	2697.17
315.93	2854.87
316.15	2840.53
316.36	2938.84
316.57	2987.99
316.79	2805.72
317.00	2750.42
317.21	3098.58
317.43	2924.50
317.64	2803.67
317.85	2721.75
318.07	2906.07
318.28	2820.05
318.49	2912.21
318.70	2992.08
318.92	3045.33
319.13	3022.80
319.34	2994.13
319.56	2783.19
319.77	3151.82
319.98	3006.42
320.20	3049.43
320.41	2961.36
320.62	3026.90
320.83	2762.71
321.05	2998.23
321.26	2867.16
321.47	3000.27
321.69	3174.35
321.90	2680.79
322.11	2754.52
322.32	3074.00
322.54	3215.31
322.75	2734.04
322.96	3493.83
323.18	2725.85
323.39	2697.17
323.60	2686.94
323.81	2877.40
324.03	2914.26
324.24	2928.60
324.45	2869.20
324.66	2727.89
324.88	3203.02
325.09	3196.88
325.30	2701.27
325.52	2789.33
325.73	2975.70
325.94	2838.48
326.15	2678.74
326.37	2734.04
326.58	3098.58
326.79	3254.22
327.00	2711.51
327.22	2822.10
327.43	2922.45
327.64	2813.91
327.85	2908.12
328.07	2922.45
328.28	3317.71
328.49	2863.06
328.70	2906.07
328.92	2777.05
329.13	2965.46
329.34	2977.75
329.55	2957.27
329.76	2953.17
329.98	2914.26
330.19	3270.61
330.40	2869.20
330.61	2942.93
330.83	3164.11
331.04	2807.77
331.25	2838.48
331.46	2803.67
331.68	2783.19
331.89	3182.54
332.10	2854.87
332.31	2688.98
332.52	2992.08
332.74	3166.16
332.95	2656.22
333.16	2797.53
333.37	3080.14
333.58	2916.31
333.80	2832.34
334.01	2596.82
334.22	3000.27
334.43	2842.58
334.64	2762.71
334.86	2791.38
335.07	2854.87
335.28	3252.17
335.49	2684.89
335.70	2838.48
335.92	3250.13
336.13	3373.00
336.34	2807.77
336.55	2715.61
336.76	3092.43
336.98	2717.65
337.19	2863.06
337.40	2906.07
337.61	3571.66
337.82	2920.40
338.04	2865.11
338.25	2662.36
338.46	2942.93
338.67	2889.68
338.88	2766.81
339.09	2707.41
339.31	2858.96
339.52	2813.91
339.73	2760.66
339.94	2772.95
340.15	3239.89
340.36	2916.31
340.58	2865.11
340.79	2713.56
341.00	3086.29
341.21	2856.92
341.42	2983.89
341.63	2754.52
341.85	3155.92
342.06	3039.19
342.27	2752.47
342.48	2918.36
342.69	2822.10
342.90	3112.91
343.12	3147.73
343.33	2688.98
343.54	3135.44
343.75	3196.88
343.96	2916.31
344.17	2707.41
344.38	2914.26
344.60	2830.29
344.81	2736.09
345.02	2834.39
345.23	3176.40
345.44	3499.98
345.65	2914.26
345.86	2881.49
346.07	3102.67
346.29	2856.92
346.50	2981.84
346.71	2852.82
346.92	3219.41
347.13	3373.00
347.34	2838.48
347.55	2760.66
347.76	3012.56
347.98	2746.33
348.19	2795.48
348.40	3057.62
348.61	2906.07
348.82	3184.59
349.03	2856.92
349.24	2688.98
349.45	3405.77
349.66	2648.02
349.88	2744.28
350.09	2803.67
350.30	3221.45
350.51	3192.78
350.72	2971.60
350.93	2742.23
351.14	2928.60
351.35	3078.10
351.56	2858.96
351.77	2861.01
351.99	3098.58
352.20	3223.50
352.41	2934.74
352.62	2533.34
352.83	3020.75
353.04	2998.23
353.25	2766.81
353.46	2863.06
353.67	3129.30
353.88	2611.16
354.09	2752.47
354.30	2887.64
354.52	3053.52
354.73	2990.03
354.94	2799.57
355.15	2850.77
355.36	3338.19
355.57	2930.64
355.78	2779.09
355.99	2785.24
356.20	2910.16
356.41	3254.22
356.62	2893.78
356.83	2789.33
357.04	3221.45
357.25	2754.52
357.46	2799.57
357.68	2670.55
357.89	2830.29
358.10	2979.79
358.31	2811.86
358.52	2777.05
358.73	2775.00
358.94	2805.72
359.15	2891.73
359.36	2807.77
359.57	2983.89
359.78	2944.98
359.99	2965.46
360.20	2721.75
360.41	2908.12
360.62	3151.82
360.83	2766.81
361.04	2801.62
361.25	3020.75
361.46	3254.22
361.67	2936.79
361.88	2770.90
362.09	3117.01
362.30	3012.56
362.51	2707.41
362.72	2775.00
362.93	3127.25
363.14	3035.09
363.35	2904.02
363.56	2705.37
363.78	3151.82
363.99	3076.05
364.20	2795.48
364.41	2852.82
364.62	3284.94
364.83	3090.38
365.04	2861.01
365.25	2842.58
365.46	3315.66
365.67	2828.24
365.88	2932.69
366.09	2785.24
366.30	2889.68
366.51	2990.03
366.72	2795.48
366.93	2688.98
367.14	3010.51
367.35	3258.32
367.56	2791.38
367.77	2922.45
367.98	2879.44
368.18	3127.25
368.39	2901.97
368.60	2772.95
368.81	3117.01
369.02	3047.38
369.23	2766.81
369.44	2666.46
369.65	2924.50
369.86	3047.38
370.07	2906.07
370.28	2779.09
370.49	3164.11
370.70	3041.23
370.91	2697.17
371.12	2592.73
371.33	3149.78
371.54	2848.72
371.75	2959.31
371.96	2551.77
372.17	2854.87
372.38	2910.16
372.59	2820.05
372.80	2779.09
373.01	2987.99
373.22	2977.75
373.43	2729.94
373.64	2701.27
373.85	3243.98
374.06	3262.41
374.26	3022.80
374.47	2975.70
374.68	3233.74
374.89	3037.14
375.10	2729.94
375.31	2916.31
375.52	3014.61
375.73	2953.17
375.94	2631.64
376.15	3022.80
376.36	2809.81
376.57	2938.84
376.78	2809.81
376.99	2873.30
377.20	3207.12
377.40	2975.70
377.61	3065.81
377.82	2742.23
378.03	3233.74
378.24	3108.82
378.45	2842.58
378.66	2940.88
378.87	2662.36
379.08	2828.24
379.29	2781.14
379.50	2996.18
379.71	2957.27
379.91	3069.91
380.12	2815.96
380.33	2858.96
380.54	2869.20
380.75	2930.64
380.96	2772.95
381.17	2881.49
381.38	2953.17
381.59	3043.28
381.80	2901.97
382.00	2934.74
382.21	3022.80
382.42	3264.46
382.63	3170.26
382.84	2899.92
383.05	3135.44
383.26	3276.75
383.47	2914.26
383.68	2758.61
383.88	3065.81
384.09	2983.89
384.30	3004.37
384.51	2879.44
384.72	2979.79
384.93	2727.89
385.14	2889.68
385.35	3026.90
385.55	2742.23
385.76	3117.01
385.97	2805.72
386.18	2691.03
386.39	2867.16
386.60	2918.36
386.81	2803.67
387.02	2762.71
387.22	2779.09
387.43	3026.90
387.64	2877.40
387.85	3057.62
388.06	3022.80
388.27	4028.35
388.48	7204.75
388.68	10843.99
388.89	13436.72
389.10	14458.66
389.31	13909.80
389.52	11186.01
389.73	9727.85
389.93	8849.27
390.14	8107.91
390.35	7231.38
390.56	6592.41
390.77	5533.61
390.98	4302.78
391.18	3684.30
391.39	3395.53
391.60	3016.66
391.81	3014.61
392.02	2848.72
392.23	3411.92
392.43	3035.09
392.64	2979.79
392.85	2910.16
393.06	3274.70
393.27	2955.22
393.47	2781.14
393.68	2858.96
393.89	2953.17
394.10	3268.56
394.31	2861.01
394.52	2766.81
394.72	2883.54
394.93	3278.80
395.14	2656.22
395.35	2910.16
395.56	2836.44
395.76	2918.36
395.97	2801.62
396.18	2899.92
396.39	2996.18
396.60	3567.56
396.80	3162.06
397.01	2981.84
397.22	3131.34
397.43	3174.35
397.64	2805.72
397.84	2901.97
398.05	3305.42
398.26	2969.55
398.47	2918.36
398.67	3067.86
398.88	2930.64
399.09	3094.48
399.30	2684.89
399.51	2889.68
399.71	2877.40
399.92	3035.09
400.13	2883.54
400.34	2887.64
400.54	2998.23
400.75	3176.40
400.96	2965.46
401.17	3125.20
401.37	3078.10
401.58	2967.51
401.79	2772.95
402.00	2985.94
402.21	3504.07
402.41	3119.06
402.62	3129.30
402.83	3147.73
403.04	3338.19
403.24	3637.19
403.45	2922.45
403.66	3104.72
403.87	3143.63
404.07	3385.29
404.28	3080.14
404.49	3117.01
404.70	3074.00
404.90	3049.43
405.11	2901.97
405.32	2916.31
405.52	2877.40
405.73	2824.15
405.94	2775.00
406.15	2830.29
406.35	3121.10
406.56	3117.01
406.77	2883.54
406.98	2856.92
407.18	2830.29
407.39	3227.60
407.60	2869.20
407.80	2942.93
408.01	2942.93
408.22	3026.90
408.43	2701.27
408.63	2918.36
408.84	3153.87
409.05	3147.73
409.25	2674.65
409.46	2795.48
409.67	2918.36
409.88	2846.68
410.08	2813.91
410.29	2793.43
410.50	3176.40
410.70	3074.00
410.91	2762.71
411.12	2873.30
411.32	2961.36
411.53	2811.86
411.74	2830.29
411.95	2947.03
412.15	2949.08
412.36	3143.63
412.57	2987.99
412.77	3000.27
412.98	2924.50
413.19	2881.49
413.39	2914.26
413.60	2893.78
413.81	3213.26
414.01	2772.95
414.22	2879.44
414.43	3008.47
414.63	2883.54
414.84	3139.54
415.05	2895.83
415.25	2631.64
415.46	3092.43
415.67	2871.25
415.87	2873.30
416.08	2789.33
416.29	2932.69
416.49	3117.01
416.70	2887.64
416.91	2791.38
417.11	2940.88
417.32	3100.62
417.53	2887.64
417.73	2930.64
417.94	3012.56
418.15	3057.62
418.35	2836.44
418.56	2908.12
418.77	3356.62
418.97	3006.42
419.18	2953.17
419.38	2555.86
419.59	2926.55
419.80	3205.07
420.00	2826.20
420.21	2854.87
420.42	3176.40
420.62	3057.62
420.83	2805.72
421.04	2815.96
421.24	2922.45
421.45	3127.25
421.65	2918.36
421.86	2832.34
422.07	3178.45
422.27	3096.53
422.48	2738.13
422.69	2656.22
422.89	2979.79
423.10	2885.59
423.30	2742.23
423.51	2854.87
423.72	3086.29
423.92	3096.53
424.13	2703.32
424.33	2867.16
424.54	3123.15
424.75	2924.50
424.95	3020.75
425.16	2811.86
425.36	2897.88
425.57	3102.67
425.78	3008.47
425.98	2983.89
426.19	2944.98
426.39	2832.34
426.60	2985.94
426.81	2983.89
427.01	3110.86
427.22	2869.20
427.42	2664.41
427.63	2713.56
427.83	3166.16
428.04	3254.22
428.25	2891.73
428.45	2953.17
428.66	3123.15
428.86	2957.27
429.07	2861.01
429.28	2824.15
429.48	2904.02
429.69	2895.83
429.89	2920.40
430.10	2756.57
430.30	3137.49
430.51	3223.50
430.71	2820.05
430.92	2846.68
431.13	2828.24
431.33	3114.96
431.54	2975.70
431.74	3090.38
431.95	3450.83
432.15	2875.35
432.36	2856.92
432.56	2875.35
432.77	3370.96
432.98	3330.00
433.18	2883.54
433.39	2670.55
433.59	2928.60
433.80	3284.94
434.00	2981.84
434.21	2926.55
434.41	2832.34
434.62	3438.54
434.82	2719.70
435.03	2721.75
435.23	3106.77
435.44	2764.76
435.64	2834.39
435.85	2856.92
436.06	3094.48
436.26	3065.81
436.47	2875.35
436.67	2809.81
436.88	2912.21
437.08	3205.07
437.29	2971.60
437.49	3008.47
437.70	3237.84
437.90	3018.71
438.11	3078.10
438.31	2947.03
438.52	3149.78
438.72	3147.73
438.93	3131.34
439.13	2897.88
439.34	3127.25
439.54	2936.79
439.75	2912.21
439.95	2891.73
440.16	2869.20
440.36	2932.69
440.57	2893.78
440.77	2844.63
440.98	2961.36
441.18	3092.43
441.39	2834.39
441.59	2803.67
441.80	3381.20
442.00	3033.04
442.21	2928.60
442.41	2699.22
442.62	3192.78
442.82	2897.88
443.02	2781.14
443.23	2893.78
443.43	2947.03
443.64	3182.54
443.84	2705.37
444.05	2951.12
444.25	3010.51
444.46	3000.27
444.66	2754.52
444.87	3067.86
445.07	2775.00
445.28	2953.17
445.48	3078.10
445.69	2938.84
445.89	3452.88
446.09	2944.98
446.30	3129.30
446.50	3147.73
446.71	4798.39
446.91	5769.13
447.12	6547.36
447.32	6973.33
447.53	6793.11
447.73	5670.83
447.93	5025.72
448.14	4767.67
448.34	4921.27
448.55	4163.52
448.75	4100.03
448.96	3827.65
449.16	3547.08
449.36	3583.95
449.57	3041.23
449.77	2953.17
449.98	2908.12
450.18	3123.15
450.39	2885.59
450.59	3067.86
450.79	3061.71
451.00	2897.88
451.20	3047.38
451.41	2768.85
451.61	3065.81
451.81	3028.95
452.02	2811.86
452.22	2875.35
452.43	2871.25
452.63	2848.72
452.84	2793.43
453.04	2826.20
453.24	3047.38
453.45	2961.36
453.65	2947.03
453.86	2918.36
454.06	3004.37
454.26	3055.57
454.47	2781.14
454.67	2992.08
454.87	3200.98
455.08	2996.18
455.28	2938.84
455.49	2992.08
455.69	2824.15
455.89	3381.20
456.10	3004.37
456.30	2871.25
456.51	3074.00
456.71	3010.51
456.91	2949.08
457.12	2789.33
457.32	3006.42
457.52	2826.20
457.73	3002.32
457.93	3071.95
458.14	2834.39
458.34	2731.99
458.54	2863.06
458.75	2813.91
458.95	3137.49
459.15	3086.29
459.36	2815.96
459.56	2897.88
459.76	3350.48
459.97	3020.75
460.17	2869.20
460.37	2930.64
460.58	2967.51
460.78	3076.05
460.99	2813.91
461.19	2752.47
461.39	2947.03
461.60	2969.55
461.80	2897.88
462.00	2734.04
462.21	2983.89
462.41	2856.92
462.61	2721.75
462.82	2625.50
463.02	3119.06
463.22	2959.31
463.43	2940.88
463.63	2834.39
463.83	3233.74
464.04	3049.43
464.24	2871.25
464.44	2744.28
464.64	2981.84
464.85	3069.91
465.05	2914.26
465.25	2828.24
465.46	2895.83
465.66	3151.82
465.86	2897.88
466.07	2871.25
466.27	2957.27
466.47	2805.72
466.68	2691.03
466.88	2965.46
467.08	3102.67
467.29	3215.31
467.49	2932.69
467.69	2973.65
467.89	3090.38
468.10	2942.93
468.30	2947.03
468.50	2949.08
468.71	3166.16
468.91	2836.44
469.11	3094.48
469.31	2906.07
469.52	2783.19
469.72	3278.80
469.92	3131.34
470.13	2854.87
470.33	2981.84
470.53	3008.47
470.73	3243.98
470.94	3604.42
471.14	3669.96
471.34	4149.18
471.54	3844.04
471.75	3622.86
471.95	3401.68
472.15	3295.18
472.36	3319.76
472.56	3268.56
472.76	3448.78
472.96	3291.09
473.17	3061.71
473.37	2990.03
473.57	2842.58
473.77	3166.16
473.98	2865.11
474.18	2772.95
474.38	3510.22
474.58	2918.36
474.79	2750.42
474.99	3035.09
475.19	3194.83
475.39	2854.87
475.60	2942.93
475.80	2836.44
476.00	3071.95
476.20	2951.12
476.41	2963.41
476.61	2891.73
476.81	3270.61
477.01	2850.77
477.21	3086.29
477.42	2961.36
477.62	2824.15
477.82	3172.30
478.02	2809.81
478.23	2842.58
478.43	2828.24
478.63	2967.51
478.83	2869.20
479.03	2885.59
479.24	3209.17
479.44	3383.24
479.64	2775.00
479.84	2654.17
480.04	2824.15
480.25	3184.59
480.45	2854.87
480.65	2756.57
480.85	3233.74
481.06	2883.54
481.26	3002.32
481.46	2887.64
481.66	3057.62
481.86	2789.33
482.06	2981.84
482.27	2865.11
482.47	2944.98
482.67	3092.43
482.87	2797.53
483.07	2863.06
483.28	2910.16
483.48	2832.34
483.68	2775.00
483.88	2770.90
484.08	2643.93
484.29	2844.63
484.49	2828.24
484.69	2766.81
484.89	3215.31
485.09	3088.34
485.29	2904.02
485.50	3033.04
485.70	2822.10
485.90	3114.96
486.10	2891.73
486.30	2916.31
486.50	3143.63
486.71	3102.67
486.91	2975.70
487.11	2983.89
487.31	2783.19
487.51	3133.39
487.71	2799.57
487.91	2758.61
488.12	2832.34
488.32	2555.86
488.52	2768.85
488.72	2576.34
488.92	2934.74
489.12	3172.30
489.32	2965.46
489.53	2815.96
489.73	2754.52
489.93	3250.13
490.13	2824.15
490.33	2785.24
490.53	2949.08
490.73	3131.34
490.94	2746.33
491.14	3024.85
491.34	3106.77
491.54	3184.59
491.74	3772.36
491.94	4149.18
492.14	4700.09
492.34	4726.71
492.54	4396.99
492.75	3817.41
492.95	3850.18
493.15	3721.16
493.35	3538.89
493.55	3434.44
493.75	3399.63
493.95	3471.31
494.15	3125.20
494.35	2889.68
494.56	2979.79
494.76	2836.44
494.96	2957.27
495.16	2789.33
495.36	2985.94
495.56	3059.67
495.76	2955.22
495.96	2811.86
496.16	2799.57
496.36	3250.13
496.56	2811.86
496.77	2908.12
496.97	2979.79
497.17	3211.22
497.37	2742.23
497.57	2979.79
497.77	2998.23
497.97	2885.59
498.17	2906.07
498.37	2783.19
498.57	3041.23
498.77	2885.59
498.97	3059.67
499.17	3106.77
499.38	3018.71
499.58	3047.38
499.78	2887.64
499.98	3061.71
500.18	2965.46
500.38	2824.15
500.58	3039.19
500.78	3330.00
500.98	5486.51
501.18	7270.29
501.38	8710.01
501.58	9621.36
501.78	9742.19
501.98	8054.66
502.18	6723.48
502.38	5717.93
502.58	5726.12
502.78	5046.20
502.98	4732.86
503.18	4519.87
503.38	4317.12
503.59	3739.59
503.79	3678.15
503.99	3377.10
504.19	3508.17
504.39	3444.68
504.59	3325.90
504.79	3291.09
504.99	3432.40
505.19	3172.30
505.39	3051.47
505.59	3286.99
505.79	3364.81
505.99	3176.40
506.19	2926.55
506.39	3057.62
506.59	2930.64
506.79	2934.74
506.99	3043.28
507.19	2873.30
507.39	3033.04
507.59	2756.57
507.79	2836.44
507.99	2799.57
508.19	3082.19
508.39	2985.94
508.59	2813.91
508.79	2990.03
508.99	3325.90
509.19	2879.44
509.39	2965.46
509.59	2828.24
509.79	2881.49
509.99	3057.62
510.19	3022.80
510.39	3059.67
510.59	3014.61
510.79	2822.10
510.99	2684.89
511.19	2885.59
511.39	3317.71
511.59	3160.02
511.79	3090.38
511.99	2801.62
512.19	3286.99
512.38	2998.23
512.58	2836.44
512.78	2764.76
512.98	3213.26
513.18	3262.41
513.38	2775.00
513.58	2926.55
513.78	2981.84
513.98	3008.47
514.18	2906.07
514.38	2926.55
514.58	3030.99
514.78	2877.40
514.98	2742.23
515.18	2918.36
515.38	2766.81
515.58	3293.13
515.78	2867.16
515.98	2840.53
516.18	3137.49
516.38	2977.75
516.57	2797.53
516.77	2846.68
516.97	3143.63
517.17	2893.78
517.37	2693.08
517.57	2895.83
517.77	2979.79
517.97	2895.83
518.17	2957.27
518.37	2813.91
518.57	2832.34
518.77	3020.75
518.97	2846.68
519.16	2840.53
519.36	3172.30
519.56	2836.44
519.76	2824.15
519.96	2838.48
520.16	3217.36
520.36	2887.64
520.56	3059.67
520.76	2781.14
520.96	2877.40
521.16	3051.47
521.35	3037.14
521.55	2965.46
521.75	2953.17
521.95	2877.40
522.15	2824.15
522.35	2766.81
522.55	2856.92
522.75	3045.33
522.95	2754.52
523.14	2680.79
523.34	3010.51
523.54	2901.97
523.74	2908.12
523.94	2879.44
524.14	2766.81
524.34	3041.23
524.54	3055.57
524.73	2842.58
524.93	3057.62
525.13	2934.74
525.33	2818.00
525.53	3020.75
525.73	3108.82
525.93	2971.60
526.13	2787.29
526.32	2836.44
526.52	3119.06
526.72	3166.16
526.92	2883.54
527.12	2748.37
527.32	2707.41
527.52	2975.70
527.71	2936.79
527.91	2918.36
528.11	2899.92
528.31	2916.31
528.51	2772.95
528.71	2961.36
528.90	3049.43
529.10	3110.86
529.30	2879.44
529.50	2609.11
529.70	3008.47
529.90	2973.65
530.09	2820.05
530.29	2678.74
530.49	2877.40
530.69	3518.41
530.89	2914.26
531.09	2928.60
531.28	2811.86
531.48	3127.25
531.68	2801.62
531.88	2893.78
532.08	3207.12
532.28	2865.11
532.47	2985.94
532.67	2944.98
532.87	3051.47
533.07	2820.05
533.27	2922.45
533.46	2926.55
533.66	3039.19
533.86	2957.27
534.06	2848.72
534.26	2908.12
534.45	2856.92
534.65	3110.86
534.85	2985.94
535.05	2813.91
535.25	3098.58
535.44	2719.70
535.64	2926.55
535.84	2885.59
536.04	2854.87
536.24	2914.26
536.43	2805.72
536.63	2832.34
536.83	2975.70
537.03	2893.78
537.22	2707.41
537.42	2635.74
537.62	2947.03
537.82	2926.55
538.02	2973.65
538.21	2940.88
538.41	3524.55
538.61	3168.21
538.81	2897.88
539.00	3049.43
539.20	2688.98
539.40	2856.92
539.60	2926.55
539.79	3045.33
539.99	2916.31
540.19	2850.77
540.39	2779.09
540.58	2912.21
540.78	3180.50
540.98	3010.51
541.18	3080.14
541.37	2965.46
541.57	3071.95
541.77	3037.14
541.97	2777.05
542.16	2783.19
542.36	2875.35
542.56	3131.34
542.76	3119.06
542.95	3010.51
543.15	3110.86
543.35	3125.20
543.54	2775.00
543.74	2838.48
543.94	3176.40
544.14	2934.74
544.33	3067.86
544.53	2748.37
544.73	2930.64
544.93	2877.40
545.12	2848.72
545.32	2895.83
545.52	3008.47
545.71	2844.63
545.91	2791.38
546.11	2764.76
546.30	2822.10
546.50	2971.60
546.70	2983.89
546.90	2822.10
547.09	2666.46
547.29	3020.75
547.49	3028.95
547.68	2799.57
547.88	2807.77
548.08	3092.43
548.27	3129.30
548.47	2844.63
548.67	2856.92
548.87	3037.14
549.06	2844.63
549.26	2766.81
549.46	3090.38
549.65	2824.15
549.85	2844.63
550.05	2947.03
550.24	2789.33
550.44	3030.99
550.64	2883.54
550.83	2922.45
551.03	3200.98
551.23	3194.83
551.42	2942.93
551.62	2869.20
551.82	2979.79
552.01	2936.79
552.21	3080.14
552.41	2914.26
552.60	3260.37
552.80	3057.62
553.00	2791.38
553.19	2850.77
553.39	3217.36
553.59	2736.09
553.78	2891.73
553.98	2846.68
554.17	2801.62
554.37	3061.71
554.57	2926.55
554.76	2756.57
554.96	2942.93
555.16	3071.95
555.35	2867.16
555.55	2967.51
555.75	3067.86
555.94	3074.00
556.14	2637.78
556.33	2877.40
556.53	3045.33
556.73	2936.79
556.92	2877.40
557.12	2889.68
557.32	3366.86
557.51	3274.70
557.71	2850.77
557.90	3125.20
558.10	3254.22
558.30	2963.41
558.49	2883.54
558.69	2848.72
558.88	2987.99
559.08	3000.27
559.28	2789.33
559.47	2856.92
559.67	3016.66
559.86	3274.70
560.06	2850.77
560.26	2852.82
560.45	3092.43
560.65	2987.99
560.84	3100.62
561.04	2807.77
561.24	3104.72
561.43	2781.14
561.63	3088.34
561.82	2975.70
562.02	3096.53
562.22	2887.64
562.41	2797.53
562.61	2768.85
562.80	2822.10
563.00	3497.93
563.19	2922.45
563.39	2932.69
563.59	3078.10
563.78	2824.15
563.98	2611.16
564.17	2844.63
564.37	2660.31
564.56	2963.41
564.76	2682.84
564.96	2990.03
565.15	3143.63
565.35	3442.64
565.54	2891.73
565.74	2955.22
565.93	3123.15
566.13	2959.31
566.32	2865.11
566.52	2891.73
566.71	2994.13
566.91	3180.50
567.11	2953.17
567.30	2758.61
567.50	3008.47
567.69	3024.85
567.89	2805.72
568.08	2711.51
568.28	2949.08
568.47	2791.38
568.67	2906.07
568.86	2811.86
569.06	3082.19
569.25	3016.66
569.45	2815.96
569.64	2885.59
569.84	2930.64
570.04	2969.55
570.23	2770.90
570.43	2828.24
570.62	3004.37
570.82	3303.37
571.01	2748.37
571.21	2686.94
571.40	2777.05
571.60	3192.78
571.79	2881.49
571.99	2891.73
572.18	2766.81
572.38	3006.42
572.57	2918.36
572.77	2977.75
572.96	3510.22
573.16	3043.28
573.35	2971.60
573.55	3008.47
573.74	3014.61
573.94	2887.64
574.13	2869.20
574.33	3051.47
574.52	3231.69
574.71	2947.03
574.91	2854.87
575.10	2686.94
575.30	3000.27
575.49	2832.34
575.69	2824.15
575.88	2838.48
576.08	2957.27
576.27	3129.30
576.47	2783.19
576.66	2971.60
576.86	3215.31
577.05	3008.47
577.25	2885.59
577.44	3131.34
577.64	2904.02
577.83	3170.26
578.02	2918.36
578.22	3106.77
578.41	3399.63
578.61	2910.16
578.80	2721.75
579.00	2926.55
579.19	3026.90
579.39	3051.47
579.58	3006.42
579.77	2908.12
579.97	3262.41
580.16	3135.44
580.36	3114.96
580.55	2985.94
580.75	3182.54
580.94	2912.21
581.13	3051.47
581.33	3018.71
581.52	3000.27
581.72	3297.23
581.91	3033.04
582.11	2824.15
582.30	3108.82
582.49	3049.43
582.69	3200.98
582.88	2914.26
583.08	3008.47
583.27	3160.02
583.47	2971.60
583.66	2752.47
583.85	2861.01
584.05	2906.07
584.24	2994.13
584.44	2904.02
584.63	3190.74
584.82	3223.50
585.02	3098.58
585.21	2983.89
585.41	3098.58
585.60	3018.71
585.79	3106.77
585.99	3114.96
586.18	3088.34
586.37	3762.12
586.57	5713.83
586.76	16672.51
586.96	35735.01
587.15	48780.57
587.34	56808.61
587.54	61160.54
587.73	54465.73
587.93	38518.20
588.12	29335.10
588.31	24123.02
588.51	21169.85
588.70	19554.01
588.89	17194.75
589.09	14681.89
589.28	12390.21
589.47	9910.12
589.67	7522.19
589.86	5963.68
590.06	4675.51
590.25	3997.64
590.44	3612.62
590.64	3280.85
590.83	3258.32
591.02	3243.98
591.22	2840.53
591.41	2897.88
591.60	2977.75
591.80	3510.22
591.99	2703.32
592.18	2875.35
592.38	3155.92
592.57	2949.08
592.76	2906.07
592.96	2969.55
593.15	2942.93
593.34	3295.18
593.54	2912.21
593.73	2975.70
593.92	3166.16
594.12	3088.34
594.31	2867.16
594.50	3055.57
594.70	3047.38
594.89	3467.21
595.08	2756.57
595.28	3043.28
595.47	3563.47
595.66	3131.34
595.86	2738.13
596.05	2914.26
596.24	2928.60
596.43	3327.95
596.63	2936.79
596.82	2936.79
597.01	3237.84
597.21	3295.18
597.40	2906.07
597.59	2893.78
597.79	2992.08
597.98	3067.86
598.17	2957.27
598.36	2901.97
598.56	3100.62
598.75	2867.16
598.94	2955.22
599.14	2858.96
599.33	2901.97
599.52	3080.14
599.71	2955.22
599.91	2828.24
600.10	3117.01
600.29	2973.65
600.48	2914.26
600.68	2944.98
600.87	3004.37
601.06	2910.16
601.26	2885.59
601.45	2953.17
601.64	2983.89
601.83	3190.74
602.03	2826.20
602.22	2762.71
602.41	3153.87
602.60	3286.99
602.80	2930.64
602.99	2977.75
603.18	2807.77
603.37	3080.14
603.57	2793.43
603.76	2887.64
603.95	3188.69
604.14	2844.63
604.34	2756.57
604.53	2856.92
604.72	3024.85
604.91	3145.68
605.10	2938.84
605.30	2750.42
605.49	3391.44
605.68	3096.53
605.87	2967.51
606.07	2815.96
606.26	3039.19
606.45	3078.10
606.64	2922.45
606.84	2799.57
607.03	2971.60
607.22	3284.94
607.41	2928.60
607.60	2846.68
607.80	3131.34
607.99	3051.47
608.18	2842.58
608.37	2928.60
608.56	2887.64
608.76	3076.05
608.95	2947.03
609.14	2799.57
609.33	3182.54
609.52	3221.45
609.72	2994.13
609.91	3014.61
610.10	3098.58
610.29	3243.98
610.48	2949.08
610.68	2914.26
610.87	2981.84
611.06	3149.78
611.25	2844.63
611.44	3051.47
611.63	2906.07
611.83	3176.40
612.02	2746.33
612.21	2998.23
612.40	2777.05
612.59	2766.81
612.79	2721.75
612.98	2863.06
613.17	3241.93
613.36	2992.08
613.55	2940.88
613.74	2877.40
613.93	2998.23
614.13	3071.95
614.32	3008.47
614.51	2942.93
614.70	3033.04
614.89	2883.54
615.08	2926.55
615.28	3293.13
615.47	2797.53
615.66	3045.33
615.85	2918.36
616.04	2953.17
616.23	3016.66
616.42	2928.60
616.62	2844.63
616.81	2895.83
617.00	3020.75
617.19	3114.96
617.38	2842.58
617.57	2963.41
617.76	3078.10
617.95	3080.14
618.15	2926.55
618.34	3090.38
618.53	2721.75
618.72	3135.44
618.91	2955.22
619.10	2901.97
619.29	2977.75
619.48	2957.27
619.68	2799.57
619.87	2809.81
620.06	2717.65
620.25	3071.95
620.44	2807.77
620.63	2840.53
620.82	2998.23
621.01	3000.27
621.20	2891.73
621.39	2979.79
621.59	3069.91
621.78	2922.45
621.97	2854.87
622.16	2918.36
622.35	2981.84
622.54	3155.92
622.73	2875.35
622.92	2678.74
623.11	3092.43
623.30	2998.23
623.49	2867.16
623.68	2791.38
623.88	3149.78
624.07	2820.05
624.26	2746.33
624.45	2830.29
624.64	2920.40
624.83	2994.13
625.02	2809.81
625.21	2891.73
625.40	3033.04
625.59	3264.46
625.78	2975.70
625.97	2940.88
626.16	3168.21
626.35	3184.59
626.54	2885.59
626.74	3145.68
626.93	2967.51
627.12	2953.17
627.31	2953.17
627.50	2895.83
627.69	3166.16
627.88	2918.36
628.07	2766.81
628.26	2713.56
628.45	2901.97
628.64	2846.68
628.83	2875.35
629.02	2822.10
629.21	3094.48
629.40	2975.70
629.59	2805.72
629.78	2760.66
629.97	3022.80
630.16	2963.41
630.35	2883.54
630.54	2885.59
630.73	2889.68
630.92	2924.50
631.11	2779.09
631.30	2899.92
631.49	3157.97
631.68	2910.16
631.87	2906.07
632.06	2844.63
632.25	3399.63
632.44	2977.75
632.63	2861.01
632.82	2861.01
633.01	2803.67
633.20	3018.71
633.39	2795.48
633.58	2695.13
633.77	3055.57
633.96	3002.32
634.15	2914.26
634.34	2979.79
634.53	2992.08
634.72	2899.92
634.91	2711.51
635.10	2865.11
635.29	3127.25
635.48	3078.10
635.67	2756.57
635.86	2775.00
636.05	3233.74
636.24	2893.78
636.43	2856.92
636.62	2875.35
636.81	2607.06
637.00	2901.97
637.19	2830.29
637.38	2820.05
637.57	2887.64
637.76	3014.61
637.95	3080.14
638.14	2824.15
638.33	3026.90
638.52	3043.28
638.71	2707.41
638.89	2799.57
639.08	3475.40
639.27	3114.96
639.46	3057.62
639.65	3348.43
639.84	3368.91
640.03	3581.90
640.22	3180.50
640.41	3284.94
640.60	2985.94
640.79	3157.97
640.98	2987.99
641.17	3108.82
641.36	3270.61
641.55	3137.49
641.74	2777.05
641.92	2813.91
642.11	2818.00
642.30	2953.17
642.49	2783.19
642.68	2828.24
642.87	3084.24
643.06	3006.42
643.25	2820.05
643.44	2756.57
643.63	3008.47
643.82	3225.55
644.00	2758.61
644.19	2940.88
644.38	2764.76
644.57	3033.04
644.76	2883.54
644.95	2869.20
645.14	3026.90
645.33	2985.94
645.52	2924.50
645.71	2652.12
645.89	2770.90
646.08	2953.17
646.27	2861.01
646.46	3078.10
646.65	2756.57
646.84	2951.12
647.03	2740.18
647.22	3063.76
647.40	3049.43
647.59	2967.51
647.78	2557.91
647.97	2865.11
648.16	2766.81
648.35	3160.02
648.54	3071.95
648.73	2832.34
648.91	3049.43
649.10	3022.80
649.29	2861.01
649.48	2844.63
649.67	3047.38
649.86	2996.18
650.05	2895.83
650.23	3028.95
650.42	2953.17
650.61	3223.50
650.80	3049.43
650.99	3213.26
651.18	3157.97
651.36	3198.93
651.55	2719.70
651.74	2936.79
651.93	2959.31
652.12	2955.22
652.31	2846.68
652.49	2856.92
652.68	2955.22
652.87	3229.65
653.06	2973.65
653.25	3098.58
653.44	3002.32
653.62	3198.93
653.81	2832.34
654.00	2887.64
654.19	3018.71
654.38	3373.00
654.56	3022.80
654.75	2805.72
654.94	3119.06
655.13	2963.41
655.32	2770.90
655.51	2906.07
655.69	2869.20
655.88	3069.91
656.07	2676.70
656.26	2947.03
656.45	2754.52
656.63	2938.84
656.82	2873.30
657.01	3063.76
657.20	2815.96
657.38	3262.41
657.57	2779.09
657.76	2648.02
657.95	3090.38
658.14	2928.60
658.32	2942.93
658.51	2721.75
658.70	3055.57
658.89	2953.17
659.08	2871.25
659.26	3098.58
659.45	2744.28
659.64	3061.71
659.83	2801.62
660.01	3364.81
660.20	2930.64
660.39	3254.22
660.58	2549.72
660.76	3006.42
660.95	2740.18
661.14	3016.66
661.33	2709.46
661.51	2873.30
661.70	2922.45
661.89	3086.29
662.08	2924.50
662.26	2664.41
662.45	2828.24
662.64	3340.24
662.83	2951.12
663.01	2680.79
663.20	2844.63
663.39	3231.69
663.58	2820.05
663.76	2783.19
663.95	3016.66
664.14	2764.76
664.32	2867.16
664.51	2770.90
664.70	2736.09
664.89	2961.36
665.07	2762.71
665.26	3016.66
665.45	2818.00
665.64	3004.37
665.82	2842.58
666.01	3016.66
666.20	2750.42
666.38	3074.00
666.57	3157.97
666.76	4730.81
666.95	10852.19
667.13	17772.27
667.32	21456.57
667.51	23862.93
667.69	25079.43
667.88	21079.74
668.07	15341.33
668.25	12861.24
668.44	11118.42
668.63	9795.43
668.81	8578.94
669.00	7438.22
669.19	6743.96
669.38	5844.90
669.56	5056.43
669.75	4554.68
669.94	3975.11
670.12	3356.62
670.31	3139.54
670.50	3162.06
670.68	3127.25
670.87	3053.52
671.06	2932.69
671.24	2957.27
671.43	3203.02
671.62	2992.08
671.80	2867.16
671.99	2979.79
672.18	2963.41
672.36	3114.96
672.55	2994.13
672.74	2910.16
672.92	2906.07
673.11	3131.34
673.29	2713.56
673.48	2959.31
673.67	2938.84
673.85	3157.97
674.04	2813.91
674.23	2934.74
674.41	3319.76
674.60	2766.81
674.79	2699.22
674.97	2748.37
675.16	3096.53
675.34	3125.20
675.53	2809.81
675.72	2990.03
675.90	3348.43
676.09	2934.74
676.28	2934.74
676.46	2760.66
676.65	3125.20
676.83	2863.06
677.02	2901.97
677.21	2901.97
677.39	3080.14
677.58	2775.00
677.77	2926.55
677.95	2758.61
678.14	2949.08
678.32	2951.12
678.51	2781.14
678.70	3151.82
678.88	2895.83
679.07	2983.89
679.25	2906.07
679.44	2879.44
679.63	2848.72
679.81	3076.05
680.00	3094.48
680.18	2904.02
680.37	3233.74
680.55	3030.99
680.74	2711.51
680.93	2615.26
681.11	3030.99
681.30	2926.55
681.48	2959.31
681.67	2838.48
681.85	2883.54
682.04	2828.24
682.23	3000.27
682.41	2983.89
682.60	2820.05
682.78	2981.84
682.97	2801.62
683.15	2854.87
683.34	3016.66
683.53	3272.65
683.71	2656.22
683.90	2967.51
684.08	3274.70
684.27	2887.64
684.45	2922.45
684.64	2912.21
684.82	3030.99
685.01	3127.25
685.19	2953.17
685.38	3108.82
685.57	2996.18
685.75	2893.78
685.94	2777.05
686.12	2789.33
686.31	2992.08
686.49	3299.28
686.68	2711.51
686.86	2901.97
687.05	2992.08
687.23	3258.32
687.42	2781.14
687.60	2623.45
687.79	3143.63
687.97	3200.98
688.16	2983.89
688.34	3043.28
688.53	2662.36
688.71	3024.85
688.90	3135.44
689.08	2846.68
689.27	2648.02
689.45	3135.44
689.64	3041.23
689.82	2951.12
690.01	3117.01
690.19	3074.00
690.38	2916.31
690.56	2983.89
690.75	2844.63
690.93	2955.22
691.12	2840.53
691.30	2879.44
691.49	2990.03
691.67	2987.99
691.86	3241.93
692.04	2844.63
692.23	2901.97
692.41	2934.74
692.60	3215.31
692.78	3065.81
692.97	2994.13
693.15	3024.85
693.34	3080.14
693.52	3053.52
693.71	2967.51
693.89	2895.83
694.08	2762.71
694.26	2938.84
694.44	3162.06
694.63	3028.95
694.81	2762.71
695.00	2889.68
695.18	3188.69
695.37	3381.20
695.55	3000.27
695.74	2838.48
695.92	2805.72
696.10	3295.18
696.29	2682.84
696.47	2846.68
696.66	2809.81
696.84	2834.39
697.03	2930.64
697.21	3200.98
697.40	4419.52
697.58	3147.73
697.76	2779.09
697.95	2809.81
698.13	2881.49
698.32	2914.26
698.50	2826.20
698.68	2936.79
698.87	3014.61
699.05	3311.57
699.24	2871.25
699.42	2768.85
699.61	3008.47
699.79	2990.03
699.97	2944.98
700.16	2725.85
700.34	2719.70
700.53	2936.79
700.71	3123.15
700.89	3006.42
701.08	2916.31
701.26	3018.71
701.45	3340.24
701.63	2824.15
701.81	2949.08
702.00	2830.29
702.18	2852.82
702.37	2850.77
702.55	3151.82
702.73	3147.73
702.92	2828.24
703.10	3164.11
703.28	3143.63
703.47	2875.35
703.65	2996.18
703.84	2969.55
704.02	2914.26
704.20	3272.65
704.39	2826.20
704.57	2877.40
704.75	3086.29
704.94	3045.33
705.12	2891.73
705.30	3456.97
705.49	6819.74
705.67	12881.72
705.86	17999.60
706.04	20639.43
706.22	22699.69
706.41	22171.31
706.59	16983.80
706.77	13276.98
706.96	11323.22
707.14	10375.01
707.32	8857.46
707.51	7903.11
707.69	6338.46
707.87	5259.18
708.06	4652.98
708.24	4007.87
708.42	3549.13
708.61	3694.54
708.79	2922.45
708.97	2910.16
709.16	3061.71
709.34	2987.99
709.52	2883.54
709.71	2967.51
709.89	3145.68
710.07	2820.05
710.26	2779.09
710.44	2865.11
710.62	3162.06
710.80	2914.26
710.99	2983.89
711.17	3061.71
711.35	2887.64
711.54	2854.87
711.72	2981.84
711.90	2944.98
712.09	2985.94
712.27	2811.86
712.45	2983.89
712.63	2867.16
712.82	3020.75
713.00	2953.17
713.18	3026.90
713.37	3030.99
713.55	3129.30
713.73	3049.43
713.91	2940.88
714.10	2844.63
714.28	3033.04
714.46	3084.24
714.65	3002.32
714.83	2908.12
715.01	2953.17
715.19	3028.95
715.38	2783.19
715.56	2932.69
715.74	2934.74
715.92	2805.72
716.11	3041.23
716.29	2643.93
716.47	2981.84
716.65	2967.51
716.84	2686.94
717.02	2893.78
717.20	2633.69
717.38	2893.78
717.57	2967.51
717.75	2920.40
717.93	2797.53
718.11	3080.14
718.30	2746.33
718.48	2932.69
718.66	3114.96
718.84	3235.79
719.03	2938.84
719.21	2697.17
719.39	3323.85
719.57	3071.95
719.75	2934.74
719.94	2740.18
720.12	2928.60
720.30	2992.08
720.48	2940.88
720.67	2889.68
720.85	2779.09
721.03	2893.78
721.21	2744.28
721.39	2822.10
721.58	3078.10
721.76	3012.56
721.94	2934.74
722.12	3006.42
722.30	3246.03
722.49	2889.68
722.67	2840.53
722.85	2940.88
723.03	2713.56
723.21	2883.54
723.40	2965.46
723.58	3045.33
723.76	3063.76
723.94	3186.64
724.12	2834.39
724.30	3135.44
724.49	3184.59
724.67	2811.86
724.85	2969.55
725.03	2682.84
725.21	3102.67
725.40	3143.63
725.58	2875.35
725.76	3082.19
725.94	3059.67
726.12	2791.38
726.30	2959.31
726.49	2801.62
726.67	2940.88
726.85	3088.34
727.03	3446.73
727.21	4337.60
727.39	5429.17
727.57	5756.84
727.76	6209.44
727.94	6340.51
728.12	5513.13
728.30	4675.51
728.48	4450.24
728.66	4106.18
728.84	3835.85
729.03	3452.88
729.21	3336.14
729.39	3153.87
729.57	3020.75
729.75	3043.28
729.93	2985.94
730.11	2775.00
730.30	2906.07
730.48	2979.79
730.66	3037.14
730.84	2936.79
731.02	2957.27
731.20	2971.60
731.38	2932.69
731.56	2725.85
731.74	2772.95
731.93	3053.52
732.11	2906.07
732.29	2906.07
732.47	3082.19
732.65	3026.90
732.83	3106.77
733.01	2920.40
733.19	2844.63
733.37	3084.24
733.56	2893.78
733.74	2820.05
733.92	3117.01
734.10	2895.83
734.28	3059.67
734.46	2656.22
734.64	2957.27
734.82	2944.98
735.00	2828.24
735.18	2836.44
735.36	3039.19
735.54	2996.18
735.73	2904.02
735.91	2965.46
736.09	3272.65
736.27	2967.51
736.45	2897.88
736.63	2627.54
736.81	2965.46
736.99	3123.15
737.17	3108.82
737.35	2877.40
737.53	3094.48
737.71	2951.12
737.89	3071.95
738.07	2854.87
738.25	2863.06
738.43	2688.98
738.61	2961.36
738.80	2830.29
738.98	2852.82
739.16	2885.59
739.34	2875.35
739.52	3182.54
739.70	2918.36
739.88	3080.14
740.06	2987.99
740.24	2602.97
740.42	3174.35
740.60	2693.08
740.78	2752.47
740.96	2611.16
741.14	2983.89
741.32	3014.61
741.50	2699.22
741.68	3135.44
741.86	3194.83
742.04	2834.39
742.22	2813.91
742.40	2861.01
742.58	3069.91
742.76	2832.34
742.94	3065.81
743.12	2697.17
743.30	3028.95
743.48	3033.04
743.66	2822.10
743.84	2932.69
744.02	2967.51
744.20	2998.23
744.38	2822.10
744.56	2846.68
744.74	3168.21
744.92	3117.01
745.10	2979.79
745.28	2953.17
745.46	3248.08
745.64	2969.55
745.82	2910.16
746.00	2854.87
746.18	3067.86
746.36	2781.14
746.54	2850.77
746.72	2820.05
746.90	2836.44
747.08	3194.83
747.26	2803.67
747.44	3008.47
747.62	3039.19
747.80	3082.19
747.98	2914.26
748.15	2844.63
748.33	3321.81
748.51	3010.51
748.69	2994.13
748.87	2791.38
749.05	2885.59
749.23	2901.97
749.41	2856.92
749.59	2775.00
749.77	3117.01
749.95	2850.77
750.13	2797.53
750.31	2961.36
750.49	3012.56
750.67	3243.98
750.85	3051.47
751.03	2904.02
751.20	3342.28
751.38	2910.16
751.56	2895.83
751.74	2873.30
751.92	2957.27
752.10	2756.57
752.28	3078.10
752.46	2820.05
752.64	2979.79
752.82	2942.93
753.00	2969.55
753.18	2881.49
753.35	2875.35
753.53	2924.50
753.71	2815.96
753.89	2920.40
754.07	3071.95
754.25	3131.34
754.43	2947.03
754.61	2787.29
754.79	3127.25
754.97	2852.82
755.14	3045.33
755.32	2777.05
755.50	3014.61
755.68	3024.85
755.86	2801.62
756.04	2914.26
756.22	2664.41
756.40	3071.95
756.57	3133.39
756.75	2758.61
756.93	3227.60
757.11	3127.25
757.29	2826.20
757.47	2818.00
757.65	2738.13
757.82	2695.13
758.00	2727.89
758.18	2889.68
758.36	2852.82
758.54	3254.22
758.72	2701.27
758.90	2934.74
759.07	3092.43
759.25	2795.48
759.43	2977.75
759.61	2727.89
759.79	4188.10
759.97	3106.77
760.15	2873.30
760.32	2889.68
760.50	3045.33
760.68	3258.32
760.86	2834.39
761.04	3090.38
761.22	3137.49
761.39	3057.62
761.57	2983.89
761.75	2842.58
761.93	3094.48
762.11	2924.50
762.28	3026.90
762.46	2779.09
762.64	3078.10
762.82	2723.80
763.00	2869.20
763.18	3055.57
763.35	2770.90
763.53	3170.26
763.71	2891.73
763.89	2828.24
764.07	3041.23
764.24	2967.51
764.42	3039.19
764.60	2908.12
764.78	3033.04
764.96	3188.69
765.13	3082.19
765.31	2764.76
765.49	3098.58
765.67	2852.82
765.84	2807.77
766.02	2797.53
766.20	2758.61
766.38	3057.62
766.56	3053.52
766.73	3010.51
766.91	2994.13
767.09	3035.09
767.27	2928.60
767.44	2723.80
767.62	3145.68
767.80	3006.42
767.98	2822.10
768.15	2848.72
768.33	3135.44
768.51	3078.10
768.69	2924.50
768.87	2879.44
769.04	3012.56
769.22	3405.77
769.40	2994.13
769.58	3047.38
769.75	3071.95
769.93	3248.08
770.11	2934.74
770.28	2813.91
770.46	3084.24
770.64	3065.81
770.82	2883.54
770.99	2754.52
771.17	3153.87
771.35	2895.83
771.53	2875.35
771.70	2861.01
771.88	3184.59
772.06	2949.08
772.23	2840.53
772.41	2895.83
772.59	2928.60
772.77	2813.91
772.94	2912.21
773.12	2959.31
773.30	3008.47
773.47	2928.60
773.65	2838.48
773.83	3090.38
774.01	3045.33
774.18	2686.94
774.36	2918.36
774.54	2674.65
774.71	3092.43
774.89	2723.80
775.07	2697.17
775.24	2842.58
775.42	2873.30
775.60	3254.22
775.78	2762.71
775.95	2656.22
776.13	2719.70
776.31	2678.74
776.48	2977.75
776.66	3065.81
776.84	2934.74
777.01	2869.20
777.19	2787.29
777.37	2775.00
777.54	3094.48
777.72	3231.69
777.90	2949.08
778.07	2836.44
778.25	3542.99
778.43	3168.21
778.60	2770.90
778.78	2889.68
778.96	3334.09
779.13	2744.28
779.31	3000.27
779.49	2944.98
779.66	2979.79
779.84	2979.79
780.01	2873.30
780.19	2811.86
780.37	3180.50
780.54	3100.62
780.72	2738.13
780.90	2803.67
781.07	2932.69
781.25	2822.10
781.43	3094.48
781.60	2822.10
781.78	3155.92
781.95	3022.80
782.13	2838.48
782.31	2842.58
782.48	2623.45
782.66	2944.98
782.83	3065.81
783.01	2969.55
783.19	3074.00
783.36	2869.20
783.54	2789.33
783.72	2971.60
783.89	2858.96
784.07	2959.31
784.24	2912.21
784.42	3051.47
784.60	2949.08
784.77	3092.43
784.95	2641.88
785.12	2826.20
785.30	3033.04
785.47	2820.05
785.65	2711.51
785.83	2910.16
786.00	2844.63
786.18	2967.51
786.35	2785.24
786.53	2772.95
786.71	3147.73
786.88	3047.38
787.06	2879.44
787.23	2895.83
787.41	2695.13
787.58	2910.16
787.76	2781.14
787.94	2893.78
788.11	3057.62
788.29	2799.57
788.46	2885.59
788.64	2648.02
788.81	2942.93
788.99	2795.48
789.16	2785.24
789.34	2877.40
789.52	2846.68
789.69	2879.44
789.87	2658.26
790.04	2820.05
790.22	2961.36
790.39	3325.90
790.57	2805.72
790.74	2787.29
790.92	3082.19
791.09	2752.47
791.27	2918.36
791.44	2934.74
791.62	2881.49
791.79	3082.19
791.97	2877.40
792.15	3270.61
792.32	3069.91
792.50	3086.29
792.67	3012.56
792.85	3086.29
793.02	3047.38
793.20	2844.63
793.37	2738.13
793.55	2783.19
793.72	2680.79
793.90	3086.29
794.07	2795.48
794.25	2754.52
794.42	3008.47
794.60	2932.69
794.77	2920.40
794.95	3008.47
795.12	3164.11
795.30	3012.56
795.47	2637.78
795.65	3198.93
795.82	3104.72
796.00	2826.20
796.17	2949.08
796.34	2746.33
796.52	2979.79
796.69	3143.63
796.87	2981.84
797.04	3033.04
797.22	3106.77
797.39	2957.27
797.57	3067.86
797.74	2916.31
797.92	2983.89
798.09	2858.96
798.27	3119.06
798.44	2772.95
798.62	2838.48
798.79	3071.95
798.96	2928.60
799.14	2895.83
799.31	3418.06
799.49	2936.79
799.66	2797.53
799.84	2838.48
800.01	2691.03
800.19	2957.27
800.36	2668.50
800.53	2867.16
800.71	3018.71
800.88	3286.99
801.06	2852.82
801.23	2799.57
801.41	2893.78
801.58	2824.15
801.75	2844.63
801.93	2910.16
802.10	3061.71
802.28	2944.98
802.45	2897.88
802.63	2910.16
802.80	3145.68
802.97	2879.44
803.15	2928.60
803.32	2858.96
803.50	2912.21
803.67	2912.21
803.84	2832.34
804.02	2908.12
804.19	2963.41
804.37	2514.91
804.54	2717.65
804.71	2824.15
804.89	2969.55
805.06	2795.48
805.24	2752.47
805.41	2652.12
805.58	2805.72
805.76	3448.78
805.93	2797.53
806.10	3002.32
806.28	3080.14
806.45	2977.75
806.63	2932.69
806.80	2938.84
806.97	3059.67
807.15	2967.51
807.32	2875.35
807.49	2813.91
807.67	2684.89
807.84	3051.47
808.01	2674.65
808.19	3149.78
808.36	3364.81
808.54	2811.86
808.71	2752.47
808.88	2783.19
809.06	3164.11
809.23	3266.51
809.40	2756.57
809.58	2828.24
809.75	2899.92
809.92	2764.76
810.10	3076.05
810.27	2920.40
810.44	2983.89
810.62	3065.81
810.79	2895.83
810.96	2830.29
811.14	2961.36
811.31	3055.57
811.48	2971.60
811.66	2865.11
811.83	3170.26
812.00	3018.71
812.18	2944.98
812.35	3157.97
812.52	2934.74
812.69	2846.68
812.87	2807.77
813.04	2826.20
813.21	2961.36
813.39	2811.86
813.56	2736.09
813.73	3184.59
813.91	2766.81
814.08	2975.70
814.25	2858.96
814.42	2754.52
814.60	2971.60
814.77	3016.66
814.94	2850.77
815.12	2936.79
815.29	3295.18
815.46	2832.34
815.63	2881.49
815.81	2916.31
815.98	2932.69
816.15	2990.03
816.33	2918.36
816.50	2858.96
816.67	2983.89
816.84	2926.55
817.02	2693.08
817.19	2875.35
817.36	3018.71
817.53	3071.95
817.71	2721.75
817.88	2863.06
818.05	2953.17
818.22	2928.60
818.40	3057.62
818.57	2869.20
818.74	2957.27
818.91	2906.07
819.09	3022.80
819.26	2996.18
819.43	2836.44
819.60	2873.30
819.78	2963.41
819.95	2910.16
820.12	2791.38
820.29	3184.59
820.47	3100.62
820.64	2815.96
820.81	2799.57
820.98	2809.81
821.15	2818.00
821.33	2893.78
821.50	2734.04
821.67	3141.58
821.84	2811.86
822.02	2908.12
822.19	3084.24
822.36	2957.27
822.53	2852.82
822.70	2670.55
822.88	2981.84
823.05	3248.08
823.22	2928.60
823.39	2928.60
823.56	3059.67
823.74	3219.41
823.91	2691.03
824.08	2703.32
824.25	2750.42
824.42	3260.37
824.60	2768.85
824.77	2926.55
824.94	2926.55
825.11	3110.86
825.28	2678.74
825.45	2977.75
825.63	3045.33
825.80	2764.76
825.97	2910.16
826.14	2949.08
826.31	2873.30
826.48	3059.67
826.66	2785.24
826.83	2854.87
827.00	2928.60
827.17	2789.33
827.34	2863.06
827.51	2793.43
827.69	2885.59
827.86	2643.93
828.03	2961.36
828.20	2973.65
828.37	2871.25
828.54	3063.76
828.71	2803.67
828.89	3008.47
829.06	2973.65
829.23	3192.78
829.40	2844.63
829.57	2764.76
829.74	3090.38
829.91	2875.35
830.09	2772.95
830.26	2973.65
830.43	3264.46
830.60	2967.51
830.77	3000.27
830.94	3024.85
831.11	3080.14
831.28	2863.06
831.46	3006.42
831.63	2873.30
831.80	3098.58
831.97	2856.92
832.14	2918.36
832.31	2910.16
832.48	2983.89
832.65	3143.63
832.82	2912.21
832.99	2963.41
833.17	2803.67
833.34	3182.54
833.51	2818.00
833.68	2738.13
833.85	3143.63
834.02	2850.77
834.19	2748.37
834.36	2762.71
834.53	2987.99
834.70	3110.86
834.87	2856.92
835.04	2672.60
835.22	2865.11
835.39	2895.83
835.56	2721.75
835.73	2818.00
835.90	3284.94
836.07	2809.81
836.24	2918.36
836.41	2691.03
836.58	2820.05
836.75	3153.87
836.92	2742.23
837.09	2668.50
837.26	3002.32
837.43	3057.62
837.60	2719.70
837.77	2795.48
837.94	3182.54
838.12	3110.86
838.29	2668.50
838.46	2676.70
838.63	2820.05
838.80	3260.37
838.97	2838.48
839.14	2756.57
839.31	3051.47
839.48	3067.86
839.65	2736.09
839.82	2801.62
839.99	3000.27
840.16	2977.75
840.33	2734.04
840.50	2787.29
840.67	2815.96
840.84	2469.85
841.01	2766.81
841.18	2744.28
841.35	2930.64
841.52	3035.09
841.69	3012.56
841.86	2801.62
842.03	2897.88
842.20	3155.92
842.37	2693.08
842.54	2783.19
842.71	2914.26
842.88	2742.23
843.05	2707.41
843.22	2746.33
843.39	3147.73
843.56	2770.90
843.73	2777.05
843.90	2820.05
844.07	2998.23
844.24	3088.34
844.41	2801.62
844.58	2781.14
844.75	2914.26
844.92	3196.88
845.09	2832.34
845.26	2772.95
845.43	3139.54
845.60	2858.96
845.77	2869.20
845.94	2953.17
846.10	3094.48
846.27	2738.13
846.44	2682.84
846.61	2654.17
846.78	3053.52
846.95	3117.01
847.12	2748.37
847.29	2746.33
847.46	2801.62
847.63	3065.81
847.80	2648.02
847.97	2772.95
848.14	3364.81
848.31	2934.74
848.48	2652.12
848.65	2797.53
848.82	2813.91
848.98	3409.87
849.15	2871.25
849.32	2887.64
849.49	3112.91
849.66	2963.41
849.83	2754.52
850.00	2682.84
850.17	3123.15
850.34	2944.98
850.51	2658.26
850.68	2762.71
850.85	3391.44
851.01	2992.08
851.18	2701.27
851.35	2703.32
851.52	3008.47
851.69	3221.45
851.86	2662.36
852.03	2658.26
852.20	3110.86
852.37	2891.73
852.53	2576.34
852.70	2709.46
852.87	2928.60
853.04	3049.43
853.21	2731.99
853.38	2990.03
853.55	3131.34
853.72	3121.10
853.89	2717.65
854.05	2707.41
854.22	2959.31
854.39	2879.44
854.56	2715.61
854.73	2877.40
854.90	2803.67
855.07	2879.44
855.23	2639.83
855.40	2688.98
855.57	2942.93
855.74	2701.27
855.91	2887.64
856.08	2617.30
856.25	2736.09
856.41	2828.24
856.58	2676.70
856.75	2750.42
856.92	2865.11
857.09	3078.10
857.26	2553.82
857.42	2807.77
857.59	3155.92
857.76	2904.02
857.93	2709.46
858.10	2799.57
858.27	2734.04
858.43	3045.33
858.60	2746.33
858.77	2596.82
858.94	2846.68
859.11	3182.54
859.27	2783.19
859.44	2625.50
859.61	3356.62
859.78	3074.00
859.95	2693.08
860.12	2678.74
860.28	3389.39
860.45	3194.83
860.62	2754.52
860.79	2856.92
860.95	2910.16
861.12	2740.18
861.29	2627.54
861.46	2701.27
861.63	2879.44
861.79	3041.23
861.96	2641.88
862.13	2684.89
862.30	3248.08
862.47	2899.92
862.63	2635.74
862.80	2846.68
862.97	3110.86
863.14	3000.27
863.30	2734.04
863.47	2688.98
863.64	3205.07
863.81	3002.32
863.97	2668.50
864.14	2826.20
864.31	2854.87
864.48	2912.21
864.65	2777.05
864.81	2899.92
864.98	3092.43
865.15	3065.81
865.32	2895.83
865.48	2928.60
865.65	3303.37
865.82	2842.58
865.98	2822.10
866.15	2772.95
866.32	3028.95
866.49	2877.40
866.65	2807.77
866.82	2676.70
866.99	2901.97
867.16	2920.40
867.32	2815.96
867.49	2654.17
867.66	2916.31
867.83	2883.54
867.99	2621.40
868.16	2791.38
868.33	2729.94
868.49	2975.70
868.66	2691.03
868.83	2861.01
868.99	2957.27
869.16	3035.09
869.33	2850.77
869.50	2820.05
869.66	2977.75
869.83	2904.02
870.00	2615.26
870.16	2801.62
870.33	2883.54
870.50	3051.47
870.66	2707.41
870.83	2820.05
871.00	3000.27
871.17	3016.66
871.33	2822.10
871.50	2615.26
871.67	2885.59
871.83	2873.30
872.00	2818.00
872.17	2789.33
872.33	3233.74
872.50	3188.69
872.67	2648.02
872.83	2740.18
873.00	3010.51
873.17	2912.21
873.33	2760.66
873.50	2758.61
873.67	2809.81
873.83	2914.26
874.00	2729.94
874.16	2953.17
874.33	3018.71
874.50	2695.13
874.66	2731.99
874.83	2871.25
875.00	3076.05
875.16	3117.01
875.33	2779.09
875.50	2578.39
875.66	2840.53
875.83	2961.36
875.99	2840.53
876.16	2740.18
876.33	2869.20
876.49	2877.40
876.66	2770.90
876.83	2797.53
876.99	2680.79
877.16	3045.33
877.32	2717.65
877.49	2787.29
877.66	3084.24
877.82	3178.45
877.99	2852.82
878.15	2979.79
878.32	3014.61
878.49	3004.37
878.65	2783.19
878.82	2983.89
878.98	2815.96
879.15	3069.91
879.32	2932.69
879.48	2944.98
879.65	2959.31
879.81	2895.83
879.98	2779.09
880.15	2863.06
880.31	2981.84
880.48	2770.90
880.64	2830.29
880.81	2906.07
880.97	3180.50
881.14	3178.45
881.31	2731.99
881.47	2936.79
881.64	2922.45
881.80	2705.37
881.97	2867.16
882.13	2752.47
882.30	2797.53
882.47	2861.01
882.63	2752.47
882.80	2678.74
882.96	2760.66
883.13	3284.94
883.29	2783.19
883.46	2740.18
883.62	3307.47
883.79	2973.65
883.95	2947.03
884.12	2713.56
884.29	3121.10
884.45	2912.21
884.62	2789.33
884.78	2705.37
884.95	3243.98
885.11	2768.85
885.28	2844.63
885.44	2697.17
885.61	3170.26
885.77	3162.06
885.94	2869.20
886.10	2746.33
886.27	3037.14
886.43	3321.81
886.60	2934.74
886.76	2695.13
886.93	2807.77
887.09	2942.93
887.26	2574.30
887.42	2795.48
887.59	3135.44
887.75	3284.94
887.92	2932.69
888.08	2834.39
888.25	3295.18
888.41	3121.10
888.58	2795.48
888.74	2676.70
888.91	2795.48
>>>>>End Processed Spectral Data<<<<<
