SpectraSuite Data File
++++++++++++++++++++++++++++++++++++
Date: Thu May 05 21:11:31 CEST 2016
User: root
Dark Spectrum Present: No
Reference Spectrum Present: No
Number of Sampled Component Spectra: 1
Spectrometers: USB4C02835
Integration Time (usec): 100000 (USB4C02835)
Spectra Averaged: 1 (USB4C02835)
Boxcar Smoothing: 0 (USB4C02835)
Correct for Electrical Dark: No (USB4C02835)
Strobe/Lamp Enabled: No (USB4C02835)
Correct for Detector Non-linearity: No (USB4C02835)
Correct for Stray Light: No (USB4C02835)
Number of Pixels in Processed Spectrum: 3648
>>>>>Begin Processed Spectral Data<<<<<
177.47	2099.17
177.69	2099.17
177.91	2099.17
178.13	2131.94
178.36	2121.70
178.58	2846.68
178.80	2883.54
179.02	2731.99
179.24	2770.90
179.46	2635.74
179.68	2617.30
179.90	2891.73
180.13	2992.08
180.35	2537.43
180.57	2617.30
180.79	3092.43
181.01	2985.94
181.23	2713.56
181.45	2803.67
181.67	3102.67
181.90	3157.97
182.12	2652.12
182.34	2516.95
182.56	3149.78
182.78	3106.77
183.00	2602.97
183.22	2746.33
183.44	2629.59
183.66	3459.02
183.89	2822.10
184.11	2672.60
184.33	3053.52
184.55	3203.02
184.77	2672.60
184.99	2727.89
185.21	2879.44
185.43	3368.91
185.65	2736.09
185.87	2656.22
186.10	3422.16
186.32	3407.82
186.54	2770.90
186.76	2783.19
186.98	3192.78
187.20	2969.55
187.42	2674.65
187.64	2637.78
187.86	3018.71
188.08	3117.01
188.30	2648.02
188.52	2715.61
188.75	3211.22
188.97	3162.06
189.19	2674.65
189.41	2607.06
189.63	3143.63
189.85	2871.25
190.07	2553.82
190.29	2613.21
190.51	3114.96
190.73	2721.75
190.95	2885.59
191.17	2625.50
191.39	2711.51
191.61	2893.78
191.84	2635.74
192.06	2781.14
192.28	2748.37
192.50	3459.02
192.72	2828.24
192.94	2772.95
193.16	3143.63
193.38	3125.20
193.60	2598.87
193.82	2811.86
194.04	3295.18
194.26	3002.32
194.48	2699.22
194.70	2674.65
194.92	2828.24
195.14	3129.30
195.36	2619.35
195.58	2742.23
195.80	3008.47
196.02	2828.24
196.24	2627.54
196.46	2699.22
196.69	2869.20
196.91	3430.35
197.13	2662.36
197.35	2803.67
197.57	3250.13
197.79	3098.58
198.01	2766.81
198.23	2775.00
198.45	3092.43
198.67	2826.20
198.89	2553.82
199.11	2820.05
199.33	2922.45
199.55	2652.12
199.77	2676.70
199.99	2822.10
200.21	2924.50
200.43	3051.47
200.65	2545.63
200.87	2592.73
201.09	3008.47
201.31	2969.55
201.53	2721.75
201.75	2785.24
201.97	2971.60
202.19	2873.30
202.41	2797.53
202.63	2807.77
202.85	3174.35
203.07	3033.04
203.29	2754.52
203.51	2553.82
203.73	2803.67
203.95	3485.64
204.17	2727.89
204.39	2813.91
204.61	2994.13
204.83	2893.78
205.05	2791.38
205.27	2754.52
205.49	3407.82
205.71	3028.95
205.93	2502.62
206.15	2533.34
206.37	3020.75
206.59	2942.93
206.81	2545.63
207.03	2619.35
207.25	2770.90
207.47	3076.05
207.69	2654.17
207.91	2934.74
208.13	3303.37
208.34	2904.02
208.56	2576.34
208.78	2729.94
209.00	2930.64
209.22	2824.15
209.44	2686.94
209.66	2684.89
209.88	2977.75
210.10	2957.27
210.32	2660.31
210.54	2738.13
210.76	2947.03
210.98	3145.68
211.20	2652.12
211.42	2783.19
211.64	3241.93
211.86	3086.29
212.08	2744.28
212.30	2785.24
212.52	3055.57
212.74	3039.19
212.96	2695.13
213.17	2746.33
213.39	3061.71
213.61	3284.94
213.83	2711.51
214.05	2512.86
214.27	3278.80
214.49	2856.92
214.71	2635.74
214.93	2858.96
215.15	2901.97
215.37	3248.08
215.59	2500.57
215.81	2797.53
216.03	3153.87
216.24	2996.18
216.46	2697.17
216.68	2693.08
216.90	3110.86
217.12	3108.82
217.34	2691.03
217.56	2836.44
217.78	3219.41
218.00	2998.23
218.22	2762.71
218.44	2779.09
218.66	3045.33
218.87	3319.76
219.09	2654.17
219.31	2729.94
219.53	3096.53
219.75	2805.72
219.97	2631.64
220.19	2734.04
220.41	2973.65
220.63	3358.67
220.85	2766.81
221.06	2717.65
221.28	3194.83
221.50	3096.53
221.72	2723.80
221.94	2672.60
222.16	3010.51
222.38	3121.10
222.60	2664.41
222.82	2705.37
223.03	3137.49
223.25	2828.24
223.47	2627.54
223.69	2904.02
223.91	3080.14
224.13	2959.31
224.35	2547.67
224.57	2871.25
224.78	3117.01
225.00	2854.87
225.22	2807.77
225.44	2674.65
225.66	3106.77
225.88	2920.40
226.10	2871.25
226.32	2656.22
226.53	3239.89
226.75	2920.40
226.97	2666.46
227.19	2658.26
227.41	2932.69
227.63	2951.12
227.85	2570.20
228.06	2723.80
228.28	3010.51
228.50	3112.91
228.72	2543.58
228.94	2678.74
229.16	2709.46
229.37	2852.82
229.59	2666.46
229.81	3006.42
230.03	2936.79
230.25	2813.91
230.47	2590.68
230.69	2719.70
230.90	3110.86
231.12	2828.24
231.34	2752.47
231.56	2781.14
231.78	2758.61
232.00	2953.17
232.21	2676.70
232.43	2781.14
232.65	2627.54
232.87	3127.25
233.09	2521.05
233.30	2590.68
233.52	3184.59
233.74	3047.38
233.96	2619.35
234.18	2830.29
234.40	2914.26
234.61	3377.10
234.83	2627.54
235.05	2625.50
235.27	3479.50
235.49	3157.97
235.70	2641.88
235.92	2715.61
236.14	3108.82
236.36	3426.25
236.58	2559.96
236.79	2752.47
237.01	3026.90
237.23	3051.47
237.45	2985.94
237.67	2697.17
237.88	3090.38
238.10	3321.81
238.32	2621.40
238.54	2631.64
238.76	2922.45
238.97	2879.44
239.19	2572.25
239.41	2729.94
239.63	3170.26
239.85	2918.36
240.06	2740.18
240.28	2691.03
240.50	3098.58
240.72	3004.37
240.93	2609.11
241.15	2731.99
241.37	3014.61
241.59	3254.22
241.81	2699.22
242.02	2828.24
242.24	3016.66
242.46	3127.25
242.68	2568.15
242.89	2664.41
243.11	3082.19
243.33	2990.03
243.55	2705.37
243.76	2729.94
243.98	2809.81
244.20	2963.41
244.42	2660.31
244.64	2725.85
244.85	2834.39
245.07	2863.06
245.29	2664.41
245.51	2729.94
245.72	3028.95
245.94	3139.54
246.16	2631.64
246.38	2715.61
246.59	2906.07
246.81	2840.53
247.03	2629.59
247.24	2543.58
247.46	2985.94
247.68	3090.38
247.90	2619.35
248.11	2674.65
248.33	3114.96
248.55	3004.37
248.77	2656.22
248.98	2772.95
249.20	3307.47
249.42	3071.95
249.64	2693.08
249.85	2658.26
250.07	2904.02
250.29	3084.24
250.50	2699.22
250.72	2588.63
250.94	2975.70
251.16	3334.09
251.37	2688.98
251.59	2809.81
251.81	3078.10
252.02	3225.55
252.24	2643.93
252.46	2752.47
252.68	2856.92
252.89	2906.07
253.11	2523.10
253.33	2824.15
253.54	3176.40
253.76	2828.24
253.98	2746.33
254.20	2617.30
254.41	2760.66
254.63	3022.80
254.85	2617.30
255.06	2756.57
255.28	3100.62
255.50	2914.26
255.71	2617.30
255.93	2541.53
256.15	2965.46
256.36	3108.82
256.58	2551.77
256.80	2715.61
257.02	2947.03
257.23	2971.60
257.45	2648.02
257.67	2789.33
257.88	2924.50
258.10	3096.53
258.32	2709.46
258.53	2795.48
258.75	3252.17
258.97	2899.92
259.18	2676.70
259.40	2594.78
259.62	3321.81
259.83	3258.32
260.05	2713.56
260.27	3491.79
260.48	3170.26
260.70	2828.24
260.92	2637.78
261.13	2701.27
261.35	2992.08
261.57	3033.04
261.78	2514.91
262.00	2715.61
262.22	3084.24
262.43	2818.00
262.65	2734.04
262.86	2723.80
263.08	3432.40
263.30	2959.31
263.51	2557.91
263.73	2643.93
263.95	3276.75
264.16	2840.53
264.38	2504.67
264.60	2686.94
264.81	3022.80
265.03	3166.16
265.25	3016.66
265.46	2629.59
265.68	3153.87
265.89	3035.09
266.11	2559.96
266.33	2615.26
266.54	3258.32
266.76	3076.05
266.98	2768.85
267.19	2865.11
267.41	3203.02
267.62	2942.93
267.84	2588.63
268.06	2779.09
268.27	3112.91
268.49	3172.30
268.70	2725.85
268.92	2656.22
269.14	2809.81
269.35	2789.33
269.57	2746.33
269.79	2838.48
270.00	2869.20
270.22	3297.23
270.43	2568.15
270.65	2602.97
270.87	3016.66
271.08	3184.59
271.30	2777.05
271.51	2701.27
271.73	2983.89
271.95	3227.60
272.16	2572.25
272.38	2818.00
272.59	2934.74
272.81	3153.87
273.02	2656.22
273.24	2662.36
273.46	3237.84
273.67	2783.19
273.89	2619.35
274.10	2682.84
274.32	3239.89
274.54	3010.51
274.75	2775.00
274.97	2742.23
275.18	3119.06
275.40	3123.15
275.61	2719.70
275.83	2924.50
276.05	2795.48
276.26	2969.55
276.48	2695.13
276.69	2795.48
276.91	2936.79
277.12	3225.55
277.34	2869.20
277.55	2998.23
277.77	2992.08
277.99	2908.12
278.20	2820.05
278.42	2684.89
278.63	2875.35
278.85	2781.14
279.06	2731.99
279.28	2789.33
279.49	3225.55
279.71	3137.49
279.93	2840.53
280.14	2897.88
280.36	2983.89
280.57	3215.31
280.79	2877.40
281.00	2727.89
281.22	2854.87
281.43	3178.45
281.65	2564.06
281.86	2779.09
282.08	3110.86
282.29	3358.67
282.51	2652.12
282.73	2652.12
282.94	2748.37
283.16	3213.26
283.37	2887.64
283.59	2830.29
283.80	3039.19
284.02	3035.09
284.23	2881.49
284.45	2840.53
284.66	2844.63
284.88	2858.96
285.09	2764.76
285.31	2832.34
285.52	2965.46
285.74	2697.17
285.95	3020.75
286.17	2820.05
286.38	3043.28
286.60	2795.48
286.81	2711.51
287.03	2672.60
287.24	2987.99
287.46	3002.32
287.67	2885.59
287.89	3024.85
288.10	3026.90
288.32	2963.41
288.53	3012.56
288.75	2832.34
288.96	3094.48
289.18	2869.20
289.39	2750.42
289.61	2777.05
289.82	3407.82
290.04	3280.85
290.25	2703.32
290.47	2846.68
290.68	2930.64
290.90	3090.38
291.11	2529.24
291.33	2887.64
291.54	2838.48
291.76	2856.92
291.97	2899.92
292.18	2959.31
292.40	2951.12
292.61	2805.72
292.83	3074.00
293.04	2828.24
293.26	3067.86
293.47	2912.21
293.69	2707.41
293.90	2795.48
294.12	3225.55
294.33	2981.84
294.55	2863.06
294.76	2938.84
294.97	3180.50
295.19	3303.37
295.40	2746.33
295.62	2848.72
295.83	3186.64
296.05	2779.09
296.26	3026.90
296.48	2783.19
296.69	2940.88
296.90	2965.46
297.12	2928.60
297.33	2983.89
297.55	2959.31
297.76	3084.24
297.98	2865.11
298.19	2881.49
298.41	3014.61
298.62	2838.48
298.83	2973.65
299.05	2830.29
299.26	2944.98
299.48	2877.40
299.69	2867.16
299.90	2861.01
300.12	2811.86
300.33	3123.15
300.55	2879.44
300.76	2873.30
300.98	2830.29
301.19	3106.77
301.40	2707.41
301.62	2797.53
301.83	3065.81
302.05	2924.50
302.26	2779.09
302.47	2848.72
302.69	2791.38
302.90	3059.67
303.12	2570.20
303.33	2879.44
303.54	3272.65
303.76	2944.98
303.97	2801.62
304.19	2973.65
304.40	2768.85
304.61	3057.62
304.83	2965.46
305.04	2928.60
305.26	3033.04
305.47	2881.49
305.68	2729.94
305.90	2672.60
306.11	3211.22
306.33	2904.02
306.54	2652.12
306.75	2725.85
306.97	2754.52
307.18	2807.77
307.39	2799.57
307.61	2856.92
307.82	2918.36
308.04	2977.75
308.25	2613.21
308.46	2928.60
308.68	2998.23
308.89	3028.95
309.10	2926.55
309.32	2918.36
309.53	2920.40
309.74	3067.86
309.96	2772.95
310.17	2926.55
310.39	2961.36
310.60	3059.67
310.81	2830.29
311.03	2715.61
311.24	3127.25
311.45	2977.75
311.67	2961.36
311.88	2895.83
312.09	2955.22
312.31	2856.92
312.52	2744.28
312.73	2822.10
312.95	2754.52
313.16	2881.49
313.37	3012.56
313.59	2926.55
313.80	3110.86
314.01	3239.89
314.23	2818.00
314.44	2729.94
314.65	2830.29
314.87	2818.00
315.08	2736.09
315.29	2811.86
315.51	2756.57
315.72	2731.99
315.93	2969.55
316.15	2811.86
316.36	2992.08
316.57	2981.84
316.79	2844.63
317.00	2744.28
317.21	3112.91
317.43	2791.38
317.64	2818.00
317.85	2701.27
318.07	2901.97
318.28	2867.16
318.49	2895.83
318.70	2983.89
318.92	3004.37
319.13	3102.67
319.34	2975.70
319.56	2809.81
319.77	3082.19
319.98	3074.00
320.20	2955.22
320.41	2912.21
320.62	3076.05
320.83	2811.86
321.05	2994.13
321.26	2901.97
321.47	3059.67
321.69	3129.30
321.90	2758.61
322.11	2713.56
322.32	3071.95
322.54	3207.12
322.75	2824.15
322.96	3563.47
323.18	2752.47
323.39	2607.06
323.60	2709.46
323.81	2920.40
324.03	2848.72
324.24	2977.75
324.45	2856.92
324.66	2766.81
324.88	3221.45
325.09	3221.45
325.30	2775.00
325.52	2799.57
325.73	2981.84
325.94	2820.05
326.15	2658.26
326.37	2668.50
326.58	3151.82
326.79	3289.04
327.00	2736.09
327.22	2815.96
327.43	2955.22
327.64	2762.71
327.85	2879.44
328.07	2838.48
328.28	3299.28
328.49	2928.60
328.70	2836.44
328.92	2768.85
329.13	2830.29
329.34	3102.67
329.55	2990.03
329.76	2912.21
329.98	2944.98
330.19	3182.54
330.40	2844.63
330.61	2836.44
330.83	3143.63
331.04	2873.30
331.25	2893.78
331.46	2842.58
331.68	2742.23
331.89	3139.54
332.10	2836.44
332.31	2648.02
332.52	3006.42
332.74	3276.75
332.95	2592.73
333.16	2863.06
333.37	3102.67
333.58	2926.55
333.80	2830.29
334.01	2580.44
334.22	3010.51
334.43	2805.72
334.64	2789.33
334.86	2684.89
335.07	2834.39
335.28	3182.54
335.49	2750.42
335.70	2895.83
335.92	3174.35
336.13	3366.86
336.34	2846.68
336.55	2844.63
336.76	3088.34
336.98	2602.97
337.19	2846.68
337.40	2973.65
337.61	3559.37
337.82	2926.55
338.04	2848.72
338.25	2641.88
338.46	2979.79
338.67	2957.27
338.88	2754.52
339.09	2656.22
339.31	2828.24
339.52	2770.90
339.73	2797.53
339.94	2863.06
340.15	3143.63
340.36	2877.40
340.58	2807.77
340.79	2658.26
341.00	3080.14
341.21	2848.72
341.42	3035.09
341.63	2799.57
341.85	3080.14
342.06	2965.46
342.27	2766.81
342.48	2897.88
342.69	2746.33
342.90	3041.23
343.12	3137.49
343.33	2725.85
343.54	3149.78
343.75	3190.74
343.96	2869.20
344.17	2705.37
344.38	3045.33
344.60	2852.82
344.81	2723.80
345.02	2760.66
345.23	3276.75
345.44	3430.35
345.65	2871.25
345.86	2840.53
346.07	3037.14
346.29	2887.64
346.50	2889.68
346.71	2904.02
346.92	3299.28
347.13	3354.57
347.34	2844.63
347.55	2660.31
347.76	3045.33
347.98	2756.57
348.19	2832.34
348.40	2908.12
348.61	2965.46
348.82	3229.65
349.03	2963.41
349.24	2727.89
349.45	3317.71
349.66	2691.03
349.88	2770.90
350.09	2705.37
350.30	3254.22
350.51	3196.88
350.72	3004.37
350.93	2854.87
351.14	2953.17
351.35	3096.53
351.56	2836.44
351.77	2840.53
351.99	2963.41
352.20	3211.22
352.41	2904.02
352.62	2609.11
352.83	3020.75
353.04	2838.48
353.25	2762.71
353.46	2783.19
353.67	3170.26
353.88	2609.11
354.09	2805.72
354.30	2838.48
354.52	3078.10
354.73	2996.18
354.94	2680.79
355.15	2840.53
355.36	3362.76
355.57	2904.02
355.78	2818.00
355.99	2775.00
356.20	2926.55
356.41	3205.07
356.62	2805.72
356.83	2846.68
357.04	3182.54
357.25	2738.13
357.46	2777.05
357.68	2715.61
357.89	2834.39
358.10	2977.75
358.31	2811.86
358.52	2906.07
358.73	2770.90
358.94	2813.91
359.15	2838.48
359.36	2869.20
359.57	2971.60
359.78	2977.75
359.99	3010.51
360.20	2723.80
360.41	3002.32
360.62	3043.28
360.83	2914.26
361.04	2813.91
361.25	3002.32
361.46	3162.06
361.67	2924.50
361.88	2877.40
362.09	3151.82
362.30	3041.23
362.51	2719.70
362.72	2854.87
362.93	3119.06
363.14	3012.56
363.35	2828.24
363.56	2740.18
363.78	3205.07
363.99	3149.78
364.20	2674.65
364.41	2901.97
364.62	3366.86
364.83	3094.48
365.04	2746.33
365.25	2883.54
365.46	3266.51
365.67	2789.33
365.88	2832.34
366.09	2770.90
366.30	2963.41
366.51	3100.62
366.72	2695.13
366.93	2797.53
367.14	2961.36
367.35	3151.82
367.56	2750.42
367.77	2936.79
367.98	2908.12
368.18	3098.58
368.39	2918.36
368.60	2688.98
368.81	3133.39
369.02	2967.51
369.23	2787.29
369.44	2658.26
369.65	2848.72
369.86	3078.10
370.07	2865.11
370.28	2791.38
370.49	3078.10
370.70	3053.52
370.91	2721.75
371.12	2631.64
371.33	3151.82
371.54	2891.73
371.75	2883.54
371.96	2576.34
372.17	3024.85
372.38	2961.36
372.59	2869.20
372.80	2668.50
373.01	2998.23
373.22	2987.99
373.43	2861.01
373.64	2625.50
373.85	3196.88
374.06	3250.13
374.26	2987.99
374.47	2856.92
374.68	3241.93
374.89	3090.38
375.10	2768.85
375.31	2873.30
375.52	3000.27
375.73	2990.03
375.94	2635.74
376.15	2942.93
376.36	2904.02
376.57	2875.35
376.78	2781.14
376.99	2820.05
377.20	3241.93
377.40	3022.80
377.61	3078.10
377.82	2750.42
378.03	3243.98
378.24	3084.24
378.45	2906.07
378.66	2852.82
378.87	2723.80
379.08	2676.70
379.29	2869.20
379.50	2957.27
379.71	2908.12
379.91	3094.48
380.12	2858.96
380.33	2934.74
380.54	3000.27
380.75	2992.08
380.96	2813.91
381.17	2820.05
381.38	2992.08
381.59	3053.52
381.80	2834.39
382.00	2977.75
382.21	2987.99
382.42	3321.81
382.63	3102.67
382.84	2949.08
383.05	3190.74
383.26	3205.07
383.47	2848.72
383.68	2754.52
383.88	3141.58
384.09	3080.14
384.30	3026.90
384.51	2912.21
384.72	2912.21
384.93	2762.71
385.14	2842.58
385.35	2957.27
385.55	2820.05
385.76	3182.54
385.97	2883.54
386.18	2713.56
386.39	2889.68
386.60	2967.51
386.81	2834.39
387.02	2672.60
387.22	2795.48
387.43	3055.57
387.64	2996.18
387.85	3082.19
388.06	3078.10
388.27	4030.40
388.48	7282.58
388.68	10770.27
388.89	13387.57
389.10	14272.29
389.31	13877.04
389.52	11093.85
389.73	9660.27
389.93	8812.41
390.14	8097.67
390.35	7378.83
390.56	6674.33
390.77	5687.21
390.98	4276.16
391.18	3663.82
391.39	3405.77
391.60	3000.27
391.81	3061.71
392.02	2832.34
392.23	3338.19
392.43	3074.00
392.64	2910.16
392.85	2908.12
393.06	3248.08
393.27	2983.89
393.47	2723.80
393.68	2893.78
393.89	2942.93
394.10	3227.60
394.31	2793.43
394.52	2885.59
394.72	2934.74
394.93	3207.12
395.14	2697.17
395.35	2871.25
395.56	2813.91
395.76	2953.17
395.97	2881.49
396.18	2961.36
396.39	2981.84
396.60	3510.22
396.80	3155.92
397.01	3067.86
397.22	3174.35
397.43	3196.88
397.64	2844.63
397.84	2879.44
398.05	3311.57
398.26	2992.08
398.47	2906.07
398.67	3016.66
398.88	2930.64
399.09	3104.72
399.30	2848.72
399.51	2867.16
399.71	2926.55
399.92	2971.60
400.13	2922.45
400.34	2951.12
400.54	3033.04
400.75	3221.45
400.96	2973.65
401.17	3121.10
401.37	3067.86
401.58	3002.32
401.79	2815.96
402.00	2985.94
402.21	3420.11
402.41	3170.26
402.62	3090.38
402.83	3286.99
403.04	3330.00
403.24	3618.76
403.45	2987.99
403.66	3190.74
403.87	3162.06
404.07	3268.56
404.28	3104.72
404.49	3100.62
404.70	3102.67
404.90	3143.63
405.11	2840.53
405.32	3018.71
405.52	2926.55
405.73	2893.78
405.94	2803.67
406.15	2844.63
406.35	3133.39
406.56	3094.48
406.77	2848.72
406.98	2777.05
407.18	2852.82
407.39	3305.42
407.60	2852.82
407.80	2944.98
408.01	2863.06
408.22	3053.52
408.43	2742.23
408.63	2963.41
408.84	3215.31
409.05	3180.50
409.25	2813.91
409.46	2768.85
409.67	2863.06
409.88	2805.72
410.08	2828.24
410.29	2815.96
410.50	3086.29
410.70	3110.86
410.91	2699.22
411.12	2938.84
411.32	2940.88
411.53	2734.04
411.74	2932.69
411.95	2942.93
412.15	3074.00
412.36	3112.91
412.57	3039.19
412.77	3043.28
412.98	2990.03
413.19	2918.36
413.39	2867.16
413.60	2861.01
413.81	3223.50
414.01	2824.15
414.22	2818.00
414.43	3030.99
414.63	2940.88
414.84	3125.20
415.05	2877.40
415.25	2717.65
415.46	3155.92
415.67	2889.68
415.87	2938.84
416.08	2897.88
416.29	2965.46
416.49	3080.14
416.70	2863.06
416.91	2764.76
417.11	2879.44
417.32	3135.44
417.53	2975.70
417.73	2947.03
417.94	2981.84
418.15	3074.00
418.35	2881.49
418.56	2899.92
418.77	3418.06
418.97	3018.71
419.18	2869.20
419.38	2570.20
419.59	2992.08
419.80	3188.69
420.00	2770.90
420.21	2797.53
420.42	3182.54
420.62	2996.18
420.83	2820.05
421.04	2820.05
421.24	2942.93
421.45	3155.92
421.65	2854.87
421.86	2869.20
422.07	3137.49
422.27	3045.33
422.48	2793.43
422.69	2736.09
422.89	2959.31
423.10	2916.31
423.30	2748.37
423.51	2885.59
423.72	3094.48
423.92	3076.05
424.13	2703.32
424.33	2904.02
424.54	3102.67
424.75	2992.08
424.95	3020.75
425.16	2809.81
425.36	2994.13
425.57	3145.68
425.78	2940.88
425.98	2975.70
426.19	2910.16
426.39	2850.77
426.60	2961.36
426.81	3014.61
427.01	3065.81
427.22	2811.86
427.42	2662.36
427.63	2775.00
427.83	3194.83
428.04	3303.37
428.25	2910.16
428.45	2983.89
428.66	3123.15
428.86	2916.31
429.07	2811.86
429.28	2787.29
429.48	3000.27
429.69	2865.11
429.89	2871.25
430.10	2744.28
430.30	3092.43
430.51	3258.32
430.71	2791.38
430.92	2918.36
431.13	2942.93
431.33	3127.25
431.54	2957.27
431.74	2990.03
431.95	3401.68
432.15	2879.44
432.36	2830.29
432.56	2830.29
432.77	3377.10
432.98	3399.63
433.18	2969.55
433.39	2781.14
433.59	2992.08
433.80	3319.76
434.00	3067.86
434.21	2936.79
434.41	2891.73
434.62	3334.09
434.82	2805.72
435.03	2770.90
435.23	3030.99
435.44	2652.12
435.64	2871.25
435.85	2926.55
436.06	3082.19
436.26	3207.12
436.47	2836.44
436.67	2748.37
436.88	2799.57
437.08	3227.60
437.29	3037.14
437.49	2920.40
437.70	3190.74
437.90	3041.23
438.11	3131.34
438.31	2914.26
438.52	3196.88
438.72	3172.30
438.93	3100.62
439.13	2936.79
439.34	3184.59
439.54	2985.94
439.75	2934.74
439.95	2955.22
440.16	2801.62
440.36	2936.79
440.57	2867.16
440.77	2842.58
440.98	2961.36
441.18	2975.70
441.39	2795.48
441.59	2746.33
441.80	3366.86
442.00	2920.40
442.21	3008.47
442.41	2658.26
442.62	3104.72
442.82	2983.89
443.02	2836.44
443.23	2836.44
443.43	2928.60
443.64	3233.74
443.84	2764.76
444.05	2918.36
444.25	3049.43
444.46	2914.26
444.66	2795.48
444.87	3110.86
445.07	2748.37
445.28	2930.64
445.48	3051.47
445.69	2869.20
445.89	3401.68
446.09	2908.12
446.30	3162.06
446.50	3252.17
446.71	4644.79
446.91	5769.13
447.12	6483.87
447.32	6926.23
447.53	6838.17
447.73	5728.17
447.93	4943.80
448.14	4706.23
448.34	4859.83
448.55	3946.44
448.75	4118.47
448.96	3841.99
449.16	3649.48
449.36	3528.65
449.57	3059.67
449.77	2914.26
449.98	2918.36
450.18	3071.95
450.39	2818.00
450.59	2969.55
450.79	2977.75
451.00	2895.83
451.20	2971.60
451.41	2811.86
451.61	3108.82
451.81	2936.79
452.02	2783.19
452.22	2863.06
452.43	2901.97
452.63	2918.36
452.84	2904.02
453.04	2791.38
453.24	3110.86
453.45	2840.53
453.65	2838.48
453.86	2932.69
454.06	3033.04
454.26	3028.95
454.47	2820.05
454.67	3002.32
454.87	3061.71
455.08	2930.64
455.28	3055.57
455.49	3024.85
455.69	2822.10
455.89	3334.09
456.10	2998.23
456.30	2848.72
456.51	3143.63
456.71	3088.34
456.91	2932.69
457.12	2858.96
457.32	3006.42
457.52	2779.09
457.73	2889.68
457.93	3033.04
458.14	2947.03
458.34	2701.27
458.54	2873.30
458.75	2818.00
458.95	3143.63
459.15	3112.91
459.36	2959.31
459.56	2889.68
459.76	3366.86
459.97	2983.89
460.17	2879.44
460.37	3010.51
460.58	2975.70
460.78	3108.82
460.99	2848.72
461.19	2838.48
461.39	2922.45
461.60	2969.55
461.80	2932.69
462.00	2725.85
462.21	3014.61
462.41	2883.54
462.61	2764.76
462.82	2727.89
463.02	3057.62
463.22	3002.32
463.43	2940.88
463.63	2828.24
463.83	3211.22
464.04	3082.19
464.24	2852.82
464.44	2766.81
464.64	2969.55
464.85	3055.57
465.05	2867.16
465.25	2770.90
465.46	2901.97
465.66	3119.06
465.86	3006.42
466.07	2840.53
466.27	2957.27
466.47	2766.81
466.68	2709.46
466.88	2963.41
467.08	3137.49
467.29	3149.78
467.49	2858.96
467.69	2926.55
467.89	3157.97
468.10	2930.64
468.30	2944.98
468.50	2959.31
468.71	3149.78
468.91	2830.29
469.11	3035.09
469.31	2887.64
469.52	2858.96
469.72	3215.31
469.92	3174.35
470.13	2834.39
470.33	2916.31
470.53	3014.61
470.73	3217.36
470.94	3528.65
471.14	3657.67
471.34	4063.17
471.54	3692.49
471.75	3514.31
471.95	3297.23
472.15	3366.86
472.36	3377.10
472.56	3121.10
472.76	3459.02
472.96	3291.09
473.17	3092.43
473.37	3008.47
473.57	2942.93
473.77	3194.83
473.98	2944.98
474.18	2699.22
474.38	3520.46
474.58	2910.16
474.79	2734.04
474.99	2934.74
475.19	3194.83
475.39	2879.44
475.60	2996.18
475.80	2787.29
476.00	3139.54
476.20	2908.12
476.41	2881.49
476.61	2932.69
476.81	3219.41
477.01	2852.82
477.21	3051.47
477.42	2947.03
477.62	2830.29
477.82	3196.88
478.02	2795.48
478.23	2838.48
478.43	2766.81
478.63	2951.12
478.83	2850.77
479.03	2867.16
479.24	3252.17
479.44	3360.72
479.64	2781.14
479.84	2629.59
480.04	2891.73
480.25	3137.49
480.45	2818.00
480.65	2820.05
480.85	3364.81
481.06	2910.16
481.26	2922.45
481.46	2818.00
481.66	3018.71
481.86	2834.39
482.06	3016.66
482.27	2914.26
482.47	2922.45
482.67	3112.91
482.87	2842.58
483.07	2955.22
483.28	2869.20
483.48	2750.42
483.68	2809.81
483.88	2762.71
484.08	2631.64
484.29	2803.67
484.49	2840.53
484.69	2686.94
484.89	3256.27
485.09	3080.14
485.29	2854.87
485.50	2906.07
485.70	2846.68
485.90	3196.88
486.10	2930.64
486.30	2836.44
486.50	3151.82
486.71	3035.09
486.91	2957.27
487.11	3004.37
487.31	2828.24
487.51	3051.47
487.71	2826.20
487.91	2750.42
488.12	2891.73
488.32	2541.53
488.52	2885.59
488.72	2578.39
488.92	3010.51
489.12	3133.39
489.32	2934.74
489.53	2799.57
489.73	2836.44
489.93	3301.33
490.13	2770.90
490.33	2729.94
490.53	3055.57
490.73	3076.05
490.94	2701.27
491.14	2936.79
491.34	3139.54
491.54	3084.24
491.74	3682.25
491.94	4278.21
492.14	4569.02
492.34	4671.42
492.54	4372.41
492.75	3735.50
492.95	3932.10
493.15	3669.96
493.35	3522.51
493.55	3436.49
493.75	3362.76
493.95	3565.51
494.15	3037.14
494.35	2922.45
494.56	2965.46
494.76	2955.22
494.96	2961.36
495.16	2787.29
495.36	3039.19
495.56	3006.42
495.76	2850.77
495.96	2809.81
496.16	2854.87
496.36	3323.85
496.56	2807.77
496.77	2916.31
496.97	2998.23
497.17	3239.89
497.37	2654.17
497.57	2912.21
497.77	3047.38
497.97	2742.23
498.17	2871.25
498.37	2768.85
498.57	3119.06
498.77	2924.50
498.97	2965.46
499.17	3135.44
499.38	2979.79
499.58	3096.53
499.78	3010.51
499.98	3074.00
500.18	2920.40
500.38	2807.77
500.58	3037.14
500.78	3399.63
500.98	5523.37
501.18	7196.56
501.38	8804.22
501.58	9871.21
501.78	9650.03
501.98	7997.32
502.18	6772.63
502.38	5906.34
502.58	5650.35
502.78	5068.72
502.98	4718.52
503.18	4624.31
503.38	4288.45
503.59	3766.21
503.79	3719.11
503.99	3393.48
504.19	3469.26
504.39	3510.22
504.59	3301.33
504.79	3250.13
504.99	3512.27
505.19	3182.54
505.39	2967.51
505.59	3143.63
505.79	3270.61
505.99	3147.73
506.19	2893.78
506.39	3127.25
506.59	2883.54
506.79	2934.74
506.99	3037.14
507.19	2756.57
507.39	3002.32
507.59	2762.71
507.79	2832.34
507.99	2815.96
508.19	3006.42
508.39	2842.58
508.59	2912.21
508.79	2957.27
508.99	3291.09
509.19	2891.73
509.39	2918.36
509.59	2736.09
509.79	2895.83
509.99	2985.94
510.19	3006.42
510.39	2973.65
510.59	3018.71
510.79	2863.06
510.99	2668.50
511.19	2901.97
511.39	3246.03
511.59	3145.68
511.79	2934.74
511.99	2846.68
512.19	3284.94
512.38	3086.29
512.58	2856.92
512.78	2848.72
512.98	3147.73
513.18	3227.60
513.38	2797.53
513.58	2955.22
513.78	2856.92
513.98	2990.03
514.18	2824.15
514.38	2850.77
514.58	3088.34
514.78	2848.72
514.98	2707.41
515.18	2856.92
515.38	2742.23
515.58	3272.65
515.78	2711.51
515.98	2867.16
516.18	3100.62
516.38	2971.60
516.57	2834.39
516.77	2879.44
516.97	3131.34
517.17	2871.25
517.37	2658.26
517.57	2906.07
517.77	2981.84
517.97	2897.88
518.17	2944.98
518.37	2701.27
518.57	2820.05
518.77	2932.69
518.97	2914.26
519.16	2897.88
519.36	3274.70
519.56	2912.21
519.76	2813.91
519.96	2871.25
520.16	3301.33
520.36	2854.87
520.56	2994.13
520.76	2797.53
520.96	2975.70
521.16	3092.43
521.35	3094.48
521.55	3035.09
521.75	3041.23
521.95	2871.25
522.15	2861.01
522.35	2668.50
522.55	2848.72
522.75	3100.62
522.95	2830.29
523.14	2721.75
523.34	3110.86
523.54	2912.21
523.74	2985.94
523.94	2944.98
524.14	2787.29
524.34	3002.32
524.54	3022.80
524.73	2850.77
524.93	3067.86
525.13	3086.29
525.33	2719.70
525.53	3184.59
525.73	3117.01
525.93	3053.52
526.13	2861.01
526.32	2820.05
526.52	3186.64
526.72	3114.96
526.92	2844.63
527.12	2770.90
527.32	2766.81
527.52	3071.95
527.71	2940.88
527.91	2901.97
528.11	2949.08
528.31	3006.42
528.51	2762.71
528.71	3039.19
528.90	3053.52
529.10	3196.88
529.30	2981.84
529.50	2607.06
529.70	2947.03
529.90	2975.70
530.09	2936.79
530.29	2762.71
530.49	2803.67
530.69	3377.10
530.89	2963.41
531.09	2942.93
531.28	2994.13
531.48	3250.13
531.68	2877.40
531.88	2879.44
532.08	3096.53
532.28	2920.40
532.47	2965.46
532.67	2961.36
532.87	3086.29
533.07	2854.87
533.27	2873.30
533.46	2930.64
533.66	3016.66
533.86	2965.46
534.06	2850.77
534.26	2912.21
534.45	2983.89
534.65	3108.82
534.85	2922.45
535.05	2887.64
535.25	3155.92
535.44	2670.55
535.64	3000.27
535.84	2828.24
536.04	2879.44
536.24	2875.35
536.43	2863.06
536.63	2813.91
536.83	3006.42
537.03	2934.74
537.22	2703.32
537.42	2711.51
537.62	3117.01
537.82	2975.70
538.02	3014.61
538.21	2969.55
538.41	3536.84
538.61	3082.19
538.81	2883.54
539.00	3022.80
539.20	2691.03
539.40	2932.69
539.60	2854.87
539.79	3035.09
539.99	2942.93
540.19	2836.44
540.39	2873.30
540.58	2944.98
540.78	3205.07
540.98	2987.99
541.18	3055.57
541.37	2963.41
541.57	3028.95
541.77	3024.85
541.97	2834.39
542.16	2758.61
542.36	2942.93
542.56	3231.69
542.76	3045.33
542.95	2990.03
543.15	3030.99
543.35	3088.34
543.54	2875.35
543.74	2791.38
543.94	3264.46
544.14	2879.44
544.33	2987.99
544.53	2877.40
544.73	2920.40
544.93	2865.11
545.12	2918.36
545.32	2807.77
545.52	2957.27
545.71	2734.04
545.91	2815.96
546.11	2736.09
546.30	2701.27
546.50	2924.50
546.70	2914.26
546.90	2918.36
547.09	2652.12
547.29	2985.94
547.49	3008.47
547.68	2795.48
547.88	2822.10
548.08	3086.29
548.27	3200.98
548.47	2848.72
548.67	2791.38
548.87	2947.03
549.06	2830.29
549.26	2828.24
549.46	2942.93
549.65	2852.82
549.85	2861.01
550.05	2846.68
550.24	2684.89
550.44	2957.27
550.64	2830.29
550.83	2869.20
551.03	3241.93
551.23	3233.74
551.42	2914.26
551.62	2906.07
551.82	2971.60
552.01	2912.21
552.21	2996.18
552.41	2787.29
552.60	3221.45
552.80	2928.60
553.00	2889.68
553.19	2887.64
553.39	3332.05
553.59	2770.90
553.78	3076.05
553.98	2766.81
554.17	2803.67
554.37	3045.33
554.57	2955.22
554.76	2654.17
554.96	2904.02
555.16	2949.08
555.35	2969.55
555.55	3006.42
555.75	3080.14
555.94	3162.06
556.14	2719.70
556.33	2813.91
556.53	3004.37
556.73	2953.17
556.92	2867.16
557.12	2791.38
557.32	3350.48
557.51	3239.89
557.71	2881.49
557.90	3049.43
558.10	3243.98
558.30	2885.59
558.49	2947.03
558.69	2865.11
558.88	3059.67
559.08	3010.51
559.28	2840.53
559.47	2824.15
559.67	3139.54
559.86	3286.99
560.06	2811.86
560.26	2885.59
560.45	2990.03
560.65	2957.27
560.84	3082.19
561.04	2697.17
561.24	3010.51
561.43	2826.20
561.63	3061.71
561.82	2934.74
562.02	3119.06
562.22	2869.20
562.41	2670.55
562.61	2803.67
562.80	2719.70
563.00	3387.34
563.19	2861.01
563.39	2965.46
563.59	3192.78
563.78	2791.38
563.98	2613.21
564.17	2852.82
564.37	2674.65
564.56	2938.84
564.76	2754.52
564.96	2969.55
565.15	3123.15
565.35	3338.19
565.54	2832.34
565.74	2906.07
565.93	3071.95
566.13	2953.17
566.32	2934.74
566.52	2957.27
566.71	2990.03
566.91	3141.58
567.11	3030.99
567.30	2779.09
567.50	3010.51
567.69	3037.14
567.89	2871.25
568.08	2742.23
568.28	3002.32
568.47	2805.72
568.67	2918.36
568.86	2877.40
569.06	3125.20
569.25	2895.83
569.45	2799.57
569.64	2883.54
569.84	2805.72
570.04	3022.80
570.23	2871.25
570.43	2861.01
570.62	2987.99
570.82	3364.81
571.01	2736.09
571.21	2754.52
571.40	2881.49
571.60	3143.63
571.79	2944.98
571.99	2871.25
572.18	2809.81
572.38	3043.28
572.57	2910.16
572.77	2910.16
572.96	3510.22
573.16	3102.67
573.35	2863.06
573.55	2992.08
573.74	3155.92
573.94	2934.74
574.13	2811.86
574.33	3018.71
574.52	3231.69
574.71	2944.98
574.91	2856.92
575.10	2729.94
575.30	2887.64
575.49	2858.96
575.69	2799.57
575.88	2885.59
576.08	2932.69
576.27	3213.26
576.47	2803.67
576.66	3067.86
576.86	3205.07
577.05	3123.15
577.25	2979.79
577.44	3127.25
577.64	2789.33
577.83	3147.73
578.02	2756.57
578.22	3006.42
578.41	3346.38
578.61	2975.70
578.80	2779.09
579.00	2904.02
579.19	2914.26
579.39	3065.81
579.58	2904.02
579.77	2887.64
579.97	3129.30
580.16	3176.40
580.36	3059.67
580.55	2951.12
580.75	3053.52
580.94	2963.41
581.13	3016.66
581.33	3137.49
581.52	2947.03
581.72	3413.96
581.91	3049.43
582.11	2834.39
582.30	3082.19
582.49	3049.43
582.69	3231.69
582.88	2891.73
583.08	2987.99
583.27	3139.54
583.47	2973.65
583.66	2836.44
583.85	2865.11
584.05	2944.98
584.24	2944.98
584.44	2981.84
584.63	3209.17
584.82	3207.12
585.02	3065.81
585.21	2947.03
585.41	3069.91
585.60	3071.95
585.79	3262.41
585.99	3145.68
586.18	3071.95
586.37	3848.13
586.57	5869.48
586.76	16836.35
586.96	35835.36
587.15	48606.49
587.34	56820.89
587.54	61238.36
587.73	54187.21
587.93	38673.84
588.12	29296.19
588.31	24069.78
588.51	21468.86
588.70	19642.07
588.89	17094.40
589.09	14745.38
589.28	12523.33
589.47	9930.60
589.67	7464.85
589.86	5947.30
590.06	4609.98
590.25	4036.55
590.44	3600.33
590.64	3276.75
590.83	3264.46
591.02	3297.23
591.22	2844.63
591.41	2904.02
591.60	2944.98
591.80	3469.26
591.99	2775.00
592.18	2959.31
592.38	3180.50
592.57	2887.64
592.76	2961.36
592.96	2938.84
593.15	2975.70
593.34	3102.67
593.54	2869.20
593.73	3026.90
593.92	3061.71
594.12	3065.81
594.31	2926.55
594.50	3057.62
594.70	3129.30
594.89	3385.29
595.08	2748.37
595.28	2961.36
595.47	3579.85
595.66	3143.63
595.86	2736.09
596.05	2854.87
596.24	2965.46
596.43	3340.24
596.63	2926.55
596.82	2985.94
597.01	3143.63
597.21	3270.61
597.40	2846.68
597.59	2858.96
597.79	2910.16
597.98	3088.34
598.17	2971.60
598.36	2906.07
598.56	3153.87
598.75	2869.20
598.94	2926.55
599.14	2924.50
599.33	2842.58
599.52	3127.25
599.71	3051.47
599.91	2920.40
600.10	3078.10
600.29	3033.04
600.48	2977.75
600.68	2959.31
600.87	3112.91
601.06	2932.69
601.26	2949.08
601.45	3053.52
601.64	2959.31
601.83	3260.37
602.03	2809.81
602.22	2725.85
602.41	3119.06
602.60	3399.63
602.80	2930.64
602.99	2975.70
603.18	2920.40
603.37	3022.80
603.57	2809.81
603.76	2906.07
603.95	3217.36
604.14	2881.49
604.34	2772.95
604.53	2846.68
604.72	3053.52
604.91	3108.82
605.10	2906.07
605.30	2740.18
605.49	3332.05
605.68	3117.01
605.87	2949.08
606.07	2836.44
606.26	3016.66
606.45	3076.05
606.64	2848.72
606.84	2734.04
607.03	2883.54
607.22	3151.82
607.41	2881.49
607.60	2846.68
607.80	3182.54
607.99	2965.46
608.18	2824.15
608.37	2865.11
608.56	2955.22
608.76	3166.16
608.95	3020.75
609.14	2834.39
609.33	3268.56
609.52	3327.95
609.72	2934.74
609.91	3004.37
610.10	2963.41
610.29	3147.73
610.48	2979.79
610.68	2949.08
610.87	2912.21
611.06	3180.50
611.25	2879.44
611.44	3071.95
611.63	2809.81
611.83	3108.82
612.02	2772.95
612.21	2932.69
612.40	2590.68
612.59	2760.66
612.79	2807.77
612.98	2994.13
613.17	3235.79
613.36	3020.75
613.55	2949.08
613.74	2803.67
613.93	2904.02
614.13	3047.38
614.32	3057.62
614.51	2828.24
614.70	3000.27
614.89	2930.64
615.08	3004.37
615.28	3264.46
615.47	2777.05
615.66	3069.91
615.85	2967.51
616.04	3004.37
616.23	2961.36
616.42	2942.93
616.62	2897.88
616.81	2893.78
617.00	2985.94
617.19	3104.72
617.38	2897.88
617.57	2912.21
617.76	3139.54
617.95	3071.95
618.15	3000.27
618.34	3143.63
618.53	2744.28
618.72	3102.67
618.91	2930.64
619.10	3024.85
619.29	2992.08
619.48	3018.71
619.68	2770.90
619.87	2836.44
620.06	2815.96
620.25	3053.52
620.44	2783.19
620.63	2762.71
620.82	3045.33
621.01	3012.56
621.20	2889.68
621.39	2928.60
621.59	3057.62
621.78	2955.22
621.97	2897.88
622.16	2992.08
622.35	3164.11
622.54	3137.49
622.73	3000.27
622.92	2680.79
623.11	3184.59
623.30	2838.48
623.49	2932.69
623.68	2801.62
623.88	3112.91
624.07	2887.64
624.26	2820.05
624.45	2885.59
624.64	2901.97
624.83	2977.75
625.02	2867.16
625.21	2938.84
625.40	3100.62
625.59	3186.64
625.78	2861.01
625.97	3002.32
626.16	3274.70
626.35	3153.87
626.54	2961.36
626.74	3082.19
626.93	2981.84
627.12	2924.50
627.31	2934.74
627.50	2967.51
627.69	3172.30
627.88	2904.02
628.07	2781.14
628.26	2686.94
628.45	2899.92
628.64	2854.87
628.83	2926.55
629.02	2740.18
629.21	3149.78
629.40	3110.86
629.59	2764.76
629.78	2785.24
629.97	2965.46
630.16	3014.61
630.35	2824.15
630.54	2873.30
630.73	2949.08
630.92	2920.40
631.11	2877.40
631.30	2873.30
631.49	3080.14
631.68	2916.31
631.87	2992.08
632.06	2668.50
632.25	3348.43
632.44	3010.51
632.63	2895.83
632.82	2877.40
633.01	2791.38
633.20	3018.71
633.39	2832.34
633.58	2668.50
633.77	3053.52
633.96	3131.34
634.15	2934.74
634.34	2987.99
634.53	3164.11
634.72	2955.22
634.91	2752.47
635.10	2895.83
635.29	3086.29
635.48	3010.51
635.67	2762.71
635.86	2674.65
636.05	3213.26
636.24	3020.75
636.43	2836.44
636.62	2932.69
636.81	2582.49
637.00	3045.33
637.19	2822.10
637.38	2848.72
637.57	2797.53
637.76	2934.74
637.95	3035.09
638.14	2879.44
638.33	3035.09
638.52	2934.74
638.71	2734.04
638.89	2723.80
639.08	3510.22
639.27	3117.01
639.46	3008.47
639.65	3358.67
639.84	3364.81
640.03	3514.31
640.22	3143.63
640.41	3231.69
640.60	3037.14
640.79	3170.26
640.98	2983.89
641.17	3082.19
641.36	3172.30
641.55	3151.82
641.74	2791.38
641.92	2791.38
642.11	2842.58
642.30	2987.99
642.49	2729.94
642.68	2818.00
642.87	3037.14
643.06	3080.14
643.25	2731.99
643.44	2770.90
643.63	2949.08
643.82	3180.50
644.00	2713.56
644.19	2881.49
644.38	2752.47
644.57	3047.38
644.76	2885.59
644.95	2906.07
645.14	3008.47
645.33	2983.89
645.52	2873.30
645.71	2684.89
645.89	2752.47
646.08	2992.08
646.27	2924.50
646.46	3082.19
646.65	2676.70
646.84	2942.93
647.03	2762.71
647.22	2996.18
647.40	3069.91
647.59	3006.42
647.78	2574.30
647.97	2803.67
648.16	2842.58
648.35	3164.11
648.54	3090.38
648.73	2854.87
648.91	3119.06
649.10	3047.38
649.29	2785.24
649.48	2789.33
649.67	3057.62
649.86	3008.47
650.05	2830.29
650.23	3071.95
650.42	2912.21
650.61	3151.82
650.80	3039.19
650.99	3162.06
651.18	3174.35
651.36	3211.22
651.55	2770.90
651.74	3051.47
651.93	2955.22
652.12	2912.21
652.31	2844.63
652.49	2961.36
652.68	2916.31
652.87	3196.88
653.06	2992.08
653.25	3117.01
653.44	2899.92
653.62	3258.32
653.81	2871.25
654.00	2828.24
654.19	3106.77
654.38	3368.91
654.56	2994.13
654.75	2828.24
654.94	3139.54
655.13	3030.99
655.32	2848.72
655.51	2973.65
655.69	2893.78
655.88	3143.63
656.07	2688.98
656.26	2934.74
656.45	2754.52
656.63	3020.75
656.82	2914.26
657.01	3098.58
657.20	2936.79
657.38	3211.22
657.57	2830.29
657.76	2660.31
657.95	3135.44
658.14	2865.11
658.32	2920.40
658.51	2772.95
658.70	3100.62
658.89	2965.46
659.08	2881.49
659.26	3065.81
659.45	2801.62
659.64	3074.00
659.83	2863.06
660.01	3301.33
660.20	3033.04
660.39	3276.75
660.58	2598.87
660.76	2889.68
660.95	2715.61
661.14	2953.17
661.33	2764.76
661.51	2818.00
661.70	2916.31
661.89	3049.43
662.08	2840.53
662.26	2727.89
662.45	2787.29
662.64	3315.66
662.83	2901.97
663.01	2787.29
663.20	2936.79
663.39	3276.75
663.58	2887.64
663.76	2906.07
663.95	3168.21
664.14	2783.19
664.32	2828.24
664.51	2766.81
664.70	2719.70
664.89	3074.00
665.07	2678.74
665.26	2949.08
665.45	2766.81
665.64	3043.28
665.82	2844.63
666.01	2967.51
666.20	2752.47
666.38	3153.87
666.57	3100.62
666.76	4833.21
666.95	11204.44
667.13	17604.34
667.32	21401.27
667.51	24061.58
667.69	24626.82
667.88	21153.47
668.07	15341.33
668.25	12629.82
668.44	11186.01
668.63	9748.33
668.81	8525.69
669.00	7487.37
669.19	6653.85
669.38	5883.81
669.56	5162.93
669.75	4417.47
669.94	3964.87
670.12	3342.28
670.31	3174.35
670.50	3174.35
670.68	3176.40
670.87	3035.09
671.06	2807.77
671.24	2914.26
671.43	3258.32
671.62	3061.71
671.80	2838.48
671.99	2953.17
672.18	3016.66
672.36	3157.97
672.55	2910.16
672.74	2889.68
672.92	2963.41
673.11	3180.50
673.29	2756.57
673.48	2971.60
673.67	3010.51
673.85	3170.26
674.04	2840.53
674.23	2940.88
674.41	3370.96
674.60	2805.72
674.79	2713.56
674.97	2703.32
675.16	3151.82
675.34	3168.21
675.53	2842.58
675.72	2924.50
675.90	3295.18
676.09	2936.79
676.28	2924.50
676.46	2736.09
676.65	3061.71
676.83	2861.01
677.02	2930.64
677.21	2922.45
677.39	3035.09
677.58	2838.48
677.77	2861.01
677.95	2682.84
678.14	2901.97
678.32	2893.78
678.51	2920.40
678.70	3143.63
678.88	2914.26
679.07	3063.76
679.25	2942.93
679.44	2904.02
679.63	2750.42
679.81	3082.19
680.00	3192.78
680.18	2992.08
680.37	3362.76
680.55	2971.60
680.74	2748.37
680.93	2670.55
681.11	3018.71
681.30	3037.14
681.48	2885.59
681.67	2875.35
681.85	2981.84
682.04	2815.96
682.23	3026.90
682.41	2936.79
682.60	2934.74
682.78	3012.56
682.97	2742.23
683.15	2914.26
683.34	2979.79
683.53	3186.64
683.71	2709.46
683.90	2918.36
684.08	3309.52
684.27	2879.44
684.45	2930.64
684.64	3080.14
684.82	2971.60
685.01	3117.01
685.19	2873.30
685.38	3147.73
685.57	2959.31
685.75	2803.67
685.94	2791.38
686.12	2744.28
686.31	2891.73
686.49	3250.13
686.68	2609.11
686.86	2953.17
687.05	2842.58
687.23	3112.91
687.42	2914.26
687.60	2699.22
687.79	3155.92
687.97	3284.94
688.16	3000.27
688.34	3051.47
688.53	2719.70
688.71	3035.09
688.90	3057.62
689.08	2922.45
689.27	2725.85
689.45	3145.68
689.64	3016.66
689.82	2942.93
690.01	3082.19
690.19	2983.89
690.38	2901.97
690.56	2940.88
690.75	2877.40
690.93	2967.51
691.12	2775.00
691.30	2940.88
691.49	2908.12
691.67	3043.28
691.86	3235.79
692.04	2887.64
692.23	2856.92
692.41	2996.18
692.60	3194.83
692.78	3051.47
692.97	2908.12
693.15	3141.58
693.34	3047.38
693.52	3020.75
693.71	2895.83
693.89	2891.73
694.08	2688.98
694.26	2887.64
694.44	3092.43
694.63	3131.34
694.81	2693.08
695.00	2828.24
695.18	3289.04
695.37	3403.72
695.55	2953.17
695.74	2926.55
695.92	2813.91
696.10	3182.54
696.29	2781.14
696.47	2809.81
696.66	2824.15
696.84	2807.77
697.03	2953.17
697.21	3104.72
697.40	4464.57
697.58	3162.06
697.76	2838.48
697.95	2887.64
698.13	2807.77
698.32	2922.45
698.50	2795.48
698.68	2922.45
698.87	2979.79
699.05	3280.85
699.24	2869.20
699.42	2795.48
699.61	3049.43
699.79	3035.09
699.97	2858.96
700.16	2781.14
700.34	2764.76
700.53	2914.26
700.71	3119.06
700.89	2971.60
701.08	2969.55
701.26	2959.31
701.45	3246.03
701.63	2861.01
701.81	2828.24
702.00	2818.00
702.18	2914.26
702.37	2844.63
702.55	3172.30
702.73	3096.53
702.92	2801.62
703.10	3170.26
703.28	3022.80
703.47	2699.22
703.65	3020.75
703.84	3028.95
704.02	2873.30
704.20	3284.94
704.39	2813.91
704.57	2836.44
704.75	3104.72
704.94	3108.82
705.12	2973.65
705.30	3407.82
705.49	6690.71
705.67	12894.01
705.86	17868.53
706.04	20192.97
706.22	22453.93
706.41	22292.14
706.59	16989.95
706.77	13309.75
706.96	11136.85
707.14	10348.39
707.32	9062.26
707.51	7827.34
707.69	6449.05
707.87	5500.84
708.06	4575.16
708.24	3936.20
708.42	3758.02
708.61	3706.82
708.79	2944.98
708.97	3033.04
709.16	3039.19
709.34	3016.66
709.52	2895.83
709.71	2916.31
709.89	3133.39
710.07	2869.20
710.26	2811.86
710.44	2885.59
710.62	3246.03
710.80	2975.70
710.99	2924.50
711.17	3057.62
711.35	2928.60
711.54	2938.84
711.72	3078.10
711.90	2906.07
712.09	3049.43
712.27	2781.14
712.45	3067.86
712.63	2789.33
712.82	3002.32
713.00	2973.65
713.18	3074.00
713.37	3076.05
713.55	3127.25
713.73	3108.82
713.91	2951.12
714.10	2805.72
714.28	2975.70
714.46	3067.86
714.65	2959.31
714.83	2895.83
715.01	2992.08
715.19	3002.32
715.38	2772.95
715.56	3033.04
715.74	2854.87
715.92	2762.71
716.11	3119.06
716.29	2668.50
716.47	2975.70
716.65	2971.60
716.84	2684.89
717.02	2959.31
717.20	2752.47
717.38	2840.53
717.57	2983.89
717.75	2930.64
717.93	2908.12
718.11	3182.54
718.30	2719.70
718.48	2883.54
718.66	3164.11
718.84	3219.41
719.03	2836.44
719.21	2777.05
719.39	3295.18
719.57	3088.34
719.75	2949.08
719.94	2828.24
720.12	2920.40
720.30	2967.51
720.48	2979.79
720.67	2830.29
720.85	2822.10
721.03	2924.50
721.21	2793.43
721.39	3041.23
721.58	3180.50
721.76	2949.08
721.94	2928.60
722.12	2949.08
722.30	3299.28
722.49	2858.96
722.67	2922.45
722.85	2951.12
723.03	2721.75
723.21	2877.40
723.40	2863.06
723.58	3059.67
723.76	3074.00
723.94	3243.98
724.12	2873.30
724.30	3047.38
724.49	3082.19
724.67	2926.55
724.85	3063.76
725.03	2760.66
725.21	3168.21
725.40	3170.26
725.58	2932.69
725.76	3123.15
725.94	2983.89
726.12	2838.48
726.30	2924.50
726.49	2799.57
726.67	2910.16
726.85	3155.92
727.03	3375.05
727.21	4310.97
727.39	5558.19
727.57	5820.33
727.76	6256.54
727.94	6348.70
728.12	5578.67
728.30	4638.65
728.48	4521.92
728.66	4169.66
728.84	3776.45
729.03	3493.83
729.21	3379.15
729.39	3231.69
729.57	3035.09
729.75	3082.19
729.93	2922.45
730.11	2801.62
730.30	2809.81
730.48	2881.49
730.66	3080.14
730.84	2994.13
731.02	3024.85
731.20	2938.84
731.38	2922.45
731.56	2772.95
731.74	2799.57
731.93	2955.22
732.11	2942.93
732.29	2861.01
732.47	3110.86
732.65	3057.62
732.83	3069.91
733.01	3055.57
733.19	2877.40
733.37	3090.38
733.56	2889.68
733.74	2787.29
733.92	3215.31
734.10	2834.39
734.28	2992.08
734.46	2676.70
734.64	2852.82
734.82	2930.64
735.00	2811.86
735.18	2795.48
735.36	3061.71
735.54	2918.36
735.73	2840.53
735.91	3059.67
736.09	3235.79
736.27	2985.94
736.45	2990.03
736.63	2619.35
736.81	2895.83
736.99	3200.98
737.17	3074.00
737.35	2775.00
737.53	2934.74
737.71	2953.17
737.89	3053.52
738.07	2799.57
738.25	2893.78
738.43	2662.36
738.61	2838.48
738.80	2688.98
738.98	2779.09
739.16	2861.01
739.34	2717.65
739.52	3129.30
739.70	2912.21
739.88	3022.80
740.06	2996.18
740.24	2680.79
740.42	3127.25
740.60	2781.14
740.78	2842.58
740.96	2674.65
741.14	2987.99
741.32	2963.41
741.50	2762.71
741.68	3143.63
741.86	3262.41
742.04	2815.96
742.22	2797.53
742.40	2779.09
742.58	3045.33
742.76	2912.21
742.94	2996.18
743.12	2699.22
743.30	2936.79
743.48	3030.99
743.66	2840.53
743.84	2936.79
744.02	3014.61
744.20	2895.83
744.38	2797.53
744.56	2832.34
744.74	3254.22
744.92	3057.62
745.10	3088.34
745.28	2932.69
745.46	3330.00
745.64	3033.04
745.82	2928.60
746.00	2840.53
746.18	3028.95
746.36	2887.64
746.54	3004.37
746.72	2801.62
746.90	2775.00
747.08	3145.68
747.26	2809.81
747.44	2994.13
747.62	2994.13
747.80	3008.47
747.98	2959.31
748.15	2836.44
748.33	3270.61
748.51	3055.57
748.69	2947.03
748.87	2766.81
749.05	2928.60
749.23	3008.47
749.41	2828.24
749.59	2899.92
749.77	3151.82
749.95	2938.84
750.13	2838.48
750.31	3033.04
750.49	2926.55
750.67	3059.67
750.85	3037.14
751.03	2899.92
751.20	3342.28
751.38	2973.65
751.56	2832.34
751.74	2844.63
751.92	2899.92
752.10	2879.44
752.28	3037.14
752.46	2854.87
752.64	2910.16
752.82	3008.47
753.00	3037.14
753.18	2738.13
753.35	2887.64
753.53	2912.21
753.71	2805.72
753.89	2910.16
754.07	2998.23
754.25	3205.07
754.43	2895.83
754.61	2746.33
754.79	3043.28
754.97	2918.36
755.14	3010.51
755.32	2734.04
755.50	2990.03
755.68	2901.97
755.86	2869.20
756.04	2836.44
756.22	2688.98
756.40	3100.62
756.57	3121.10
756.75	2867.16
756.93	3213.26
757.11	3188.69
757.29	2688.98
757.47	2754.52
757.65	2748.37
757.82	2656.22
758.00	2787.29
758.18	2840.53
758.36	2820.05
758.54	3239.89
758.72	2682.84
758.90	3016.66
759.07	3053.52
759.25	2822.10
759.43	2910.16
759.61	2760.66
759.79	4265.92
759.97	3178.45
760.15	2805.72
760.32	2854.87
760.50	3080.14
760.68	3243.98
760.86	2705.37
761.04	3168.21
761.22	3182.54
761.39	3028.95
761.57	3010.51
761.75	2826.20
761.93	2996.18
762.11	2893.78
762.28	2916.31
762.46	2779.09
762.64	3131.34
762.82	2750.42
763.00	2832.34
763.18	3012.56
763.35	2818.00
763.53	3174.35
763.71	2869.20
763.89	2869.20
764.07	2953.17
764.24	2961.36
764.42	3051.47
764.60	2877.40
764.78	3096.53
764.96	3110.86
765.13	3043.28
765.31	2795.48
765.49	3121.10
765.67	2885.59
765.84	2850.77
766.02	2789.33
766.20	2719.70
766.38	3033.04
766.56	2944.98
766.73	2963.41
766.91	3016.66
767.09	2985.94
767.27	2942.93
767.44	2770.90
767.62	3084.24
767.80	3012.56
767.98	2822.10
768.15	2877.40
768.33	3086.29
768.51	3082.19
768.69	2975.70
768.87	2828.24
769.04	2981.84
769.22	3436.49
769.40	3016.66
769.58	3026.90
769.75	3104.72
769.93	3213.26
770.11	2861.01
770.28	2709.46
770.46	3088.34
770.64	3082.19
770.82	2861.01
770.99	2805.72
771.17	3028.95
771.35	3039.19
771.53	2910.16
771.70	2807.77
771.88	3022.80
772.06	2959.31
772.23	2854.87
772.41	2934.74
772.59	2975.70
772.77	2850.77
772.94	2856.92
773.12	3014.61
773.30	2912.21
773.47	3059.67
773.65	2803.67
773.83	3065.81
774.01	2914.26
774.18	2631.64
774.36	2873.30
774.54	2799.57
774.71	3074.00
774.89	2758.61
775.07	2760.66
775.24	2824.15
775.42	2887.64
775.60	3284.94
775.78	2809.81
775.95	2701.27
776.13	2727.89
776.31	2715.61
776.48	3006.42
776.66	3061.71
776.84	2887.64
777.01	2811.86
777.19	2801.62
777.37	2770.90
777.54	3110.86
777.72	3286.99
777.90	2918.36
778.07	2965.46
778.25	3491.79
778.43	3108.82
778.60	2826.20
778.78	2942.93
778.96	3143.63
779.13	2793.43
779.31	3002.32
779.49	2969.55
779.66	3024.85
779.84	2895.83
780.01	2838.48
780.19	2797.53
780.37	3194.83
780.54	3123.15
780.72	2713.56
780.90	2858.96
781.07	2885.59
781.25	2873.30
781.43	3024.85
781.60	2809.81
781.78	3153.87
781.95	2990.03
782.13	2799.57
782.31	2801.62
782.48	2605.02
782.66	3010.51
782.83	3221.45
783.01	3024.85
783.19	3012.56
783.36	2994.13
783.54	2842.58
783.72	2942.93
783.89	2990.03
784.07	2981.84
784.24	2998.23
784.42	3063.76
784.60	3065.81
784.77	2985.94
784.95	2678.74
785.12	2799.57
785.30	3033.04
785.47	2889.68
785.65	2756.57
785.83	2944.98
786.00	2969.55
786.18	2951.12
786.35	2760.66
786.53	2801.62
786.71	3170.26
786.88	3002.32
787.06	2924.50
787.23	2883.54
787.41	2873.30
787.58	2961.36
787.76	2828.24
787.94	2922.45
788.11	2944.98
788.29	2777.05
788.46	2863.06
788.64	2738.13
788.81	2895.83
788.99	2807.77
789.16	2809.81
789.34	2955.22
789.52	2846.68
789.69	2871.25
789.87	2660.31
790.04	2856.92
790.22	2959.31
790.39	3321.81
790.57	2713.56
790.74	2785.24
790.92	3217.36
791.09	2695.13
791.27	2916.31
791.44	2961.36
791.62	2899.92
791.79	3086.29
791.97	2904.02
792.15	3254.22
792.32	3104.72
792.50	3155.92
792.67	3065.81
792.85	3190.74
793.02	2969.55
793.20	2887.64
793.37	2693.08
793.55	2865.11
793.72	2660.31
793.90	3155.92
794.07	2932.69
794.25	2738.13
794.42	2861.01
794.60	2979.79
794.77	2930.64
794.95	3002.32
795.12	3090.38
795.30	2881.49
795.47	2564.06
795.65	3266.51
795.82	3028.95
796.00	2824.15
796.17	2926.55
796.34	2781.14
796.52	3041.23
796.69	3178.45
796.87	3008.47
797.04	2918.36
797.22	3117.01
797.39	3002.32
797.57	3074.00
797.74	2983.89
797.92	2983.89
798.09	2875.35
798.27	3123.15
798.44	2875.35
798.62	2832.34
798.79	2987.99
798.96	2990.03
799.14	2893.78
799.31	3499.98
799.49	2944.98
799.66	2908.12
799.84	2924.50
800.01	2717.65
800.19	3069.91
800.36	2676.70
800.53	2863.06
800.71	3061.71
800.88	3274.70
801.06	2803.67
801.23	2875.35
801.41	2844.63
801.58	2807.77
801.75	2889.68
801.93	2863.06
802.10	3098.58
802.28	2916.31
802.45	2865.11
802.63	3059.67
802.80	3243.98
802.97	2838.48
803.15	2861.01
803.32	2781.14
803.50	2852.82
803.67	2830.29
803.84	2828.24
804.02	2942.93
804.19	2949.08
804.37	2617.30
804.54	2697.17
804.71	2813.91
804.89	2955.22
805.06	2844.63
805.24	2809.81
805.41	2684.89
805.58	2779.09
805.76	3340.24
805.93	2846.68
806.10	3022.80
806.28	3045.33
806.45	3065.81
806.63	2932.69
806.80	2899.92
806.97	3030.99
807.15	3014.61
807.32	2844.63
807.49	2848.72
807.67	2787.29
807.84	3024.85
808.01	2729.94
808.19	3098.58
808.36	3364.81
808.54	2815.96
808.71	2858.96
808.88	2838.48
809.06	3129.30
809.23	3260.37
809.40	2777.05
809.58	2871.25
809.75	2983.89
809.92	2801.62
810.10	3108.82
810.27	2789.33
810.44	3186.64
810.62	3180.50
810.79	2844.63
810.96	2820.05
811.14	2873.30
811.31	3051.47
811.48	2953.17
811.66	2904.02
811.83	3166.16
812.00	3010.51
812.18	2840.53
812.35	3164.11
812.52	2887.64
812.69	2889.68
812.87	2830.29
813.04	2775.00
813.21	2901.97
813.39	2871.25
813.56	2775.00
813.73	3030.99
813.91	2715.61
814.08	2977.75
814.25	2797.53
814.42	2717.65
814.60	2973.65
814.77	2912.21
814.94	2768.85
815.12	2996.18
815.29	3266.51
815.46	2764.76
815.63	2928.60
815.81	2832.34
815.98	2861.01
816.15	2971.60
816.33	2899.92
816.50	2838.48
816.67	2895.83
816.84	3041.23
817.02	2734.04
817.19	2893.78
817.36	3002.32
817.53	2994.13
817.71	2815.96
817.88	2942.93
818.05	2867.16
818.22	2904.02
818.40	3100.62
818.57	2768.85
818.74	3092.43
818.91	2951.12
819.09	2969.55
819.26	2994.13
819.43	2822.10
819.60	2932.69
819.78	2938.84
819.95	2912.21
820.12	2856.92
820.29	3276.75
820.47	3053.52
820.64	2811.86
820.81	2746.33
820.98	2809.81
821.15	2791.38
821.33	2963.41
821.50	2654.17
821.67	3055.57
821.84	2832.34
822.02	2899.92
822.19	3071.95
822.36	2869.20
822.53	2828.24
822.70	2734.04
822.88	2969.55
823.05	3254.22
823.22	2963.41
823.39	2949.08
823.56	2934.74
823.74	3289.04
823.91	2701.27
824.08	2813.91
824.25	2707.41
824.42	3252.17
824.60	2656.22
824.77	2969.55
824.94	2969.55
825.11	3127.25
825.28	2709.46
825.45	3020.75
825.63	3059.67
825.80	2811.86
825.97	2926.55
826.14	2973.65
826.31	2688.98
826.48	3043.28
826.66	2795.48
826.83	2846.68
827.00	2936.79
827.17	2934.74
827.34	2863.06
827.51	2824.15
827.69	2987.99
827.86	2731.99
828.03	2879.44
828.20	2930.64
828.37	2871.25
828.54	3069.91
828.71	2766.81
828.89	3018.71
829.06	2971.60
829.23	3254.22
829.40	2824.15
829.57	2789.33
829.74	3022.80
829.91	2908.12
830.09	2846.68
830.26	2994.13
830.43	3198.93
830.60	2934.74
830.77	2977.75
830.94	3121.10
831.11	3133.39
831.28	2891.73
831.46	2965.46
831.63	2818.00
831.80	3094.48
831.97	2879.44
832.14	2842.58
832.31	2879.44
832.48	3082.19
832.65	3092.43
832.82	2920.40
832.99	2891.73
833.17	2824.15
833.34	3166.16
833.51	2805.72
833.68	2654.17
833.85	3104.72
834.02	2824.15
834.19	2785.24
834.36	2875.35
834.53	3053.52
834.70	3147.73
834.87	2852.82
835.04	2717.65
835.22	2865.11
835.39	2975.70
835.56	2668.50
835.73	2760.66
835.90	3125.20
836.07	2770.90
836.24	2824.15
836.41	2734.04
836.58	2869.20
836.75	3127.25
836.92	2818.00
837.09	2680.79
837.26	3051.47
837.43	2977.75
837.60	2797.53
837.77	2734.04
837.94	3147.73
838.12	3215.31
838.29	2615.26
838.46	2654.17
838.63	2736.09
838.80	3260.37
838.97	2828.24
839.14	2662.36
839.31	2947.03
839.48	3059.67
839.65	2695.13
839.82	2834.39
839.99	3012.56
840.16	3008.47
840.33	2678.74
840.50	2777.05
840.67	2836.44
840.84	2580.44
841.01	2662.36
841.18	2691.03
841.35	2906.07
841.52	3035.09
841.69	3092.43
841.86	2797.53
842.03	3014.61
842.20	3139.54
842.37	2756.57
842.54	2832.34
842.71	2936.79
842.88	2752.47
843.05	2803.67
843.22	2725.85
843.39	3117.01
843.56	2883.54
843.73	2752.47
843.90	2869.20
844.07	2965.46
844.24	3063.76
844.41	2756.57
844.58	2807.77
844.75	2996.18
844.92	3043.28
845.09	2799.57
845.26	2731.99
845.43	3153.87
845.60	2836.44
845.77	2928.60
845.94	2723.80
846.10	3147.73
846.27	2734.04
846.44	2627.54
846.61	2684.89
846.78	3104.72
846.95	3061.71
847.12	2707.41
847.29	2772.95
847.46	2770.90
847.63	3076.05
847.80	2643.93
847.97	2740.18
848.14	3358.67
848.31	2893.78
848.48	2564.06
848.65	2744.28
848.82	2842.58
848.98	3389.39
849.15	2848.72
849.32	2838.48
849.49	3213.26
849.66	2897.88
849.83	2697.17
850.00	2623.45
850.17	3209.17
850.34	2936.79
850.51	2625.50
850.68	2752.47
850.85	3332.05
851.01	2944.98
851.18	2729.94
851.35	2772.95
851.52	3026.90
851.69	3194.83
851.86	2602.97
852.03	2699.22
852.20	3043.28
852.37	2889.68
852.53	2613.21
852.70	2713.56
852.87	2981.84
853.04	3041.23
853.21	2703.32
853.38	2963.41
853.55	3129.30
853.72	3039.19
853.89	2641.88
854.05	2736.09
854.22	2955.22
854.39	2899.92
854.56	2750.42
854.73	2873.30
854.90	2885.59
855.07	2922.45
855.23	2682.84
855.40	2672.60
855.57	2920.40
855.74	2697.17
855.91	2961.36
856.08	2559.96
856.25	2789.33
856.41	2863.06
856.58	2723.80
856.75	2734.04
856.92	2760.66
857.09	3170.26
857.26	2602.97
857.42	2756.57
857.59	3071.95
857.76	2949.08
857.93	2772.95
858.10	2832.34
858.27	2785.24
858.43	3051.47
858.60	2629.59
858.77	2586.58
858.94	2863.06
859.11	3127.25
859.27	2789.33
859.44	2717.65
859.61	3246.03
859.78	3082.19
859.95	2727.89
860.12	2648.02
860.28	3487.69
860.45	3264.46
860.62	2660.31
860.79	2871.25
860.95	2942.93
861.12	2957.27
861.29	2666.46
861.46	2748.37
861.63	2992.08
861.79	3035.09
861.96	2672.60
862.13	2701.27
862.30	3264.46
862.47	2846.68
862.63	2602.97
862.80	2734.04
862.97	3086.29
863.14	2947.03
863.30	2772.95
863.47	2658.26
863.64	3155.92
863.81	3078.10
863.97	2676.70
864.14	2895.83
864.31	2957.27
864.48	3053.52
864.65	2809.81
864.81	2803.67
864.98	3039.19
865.15	3102.67
865.32	2818.00
865.48	2861.01
865.65	3211.22
865.82	2883.54
865.98	2764.76
866.15	2873.30
866.32	2920.40
866.49	2934.74
866.65	2922.45
866.82	2697.17
866.99	2971.60
867.16	2893.78
867.32	2707.41
867.49	2656.22
867.66	2906.07
867.83	2826.20
867.99	2617.30
868.16	2701.27
868.33	2789.33
868.49	2963.41
868.66	2748.37
868.83	2787.29
868.99	2981.84
869.16	3024.85
869.33	2916.31
869.50	2813.91
869.66	2961.36
869.83	2926.55
870.00	2641.88
870.16	2875.35
870.33	2885.59
870.50	3078.10
870.66	2818.00
870.83	2766.81
871.00	2926.55
871.17	3086.29
871.33	2834.39
871.50	2748.37
871.67	2934.74
871.83	2938.84
872.00	2852.82
872.17	2760.66
872.33	3352.52
872.50	3108.82
872.67	2740.18
872.83	2709.46
873.00	3110.86
873.17	2932.69
873.33	2803.67
873.50	2775.00
873.67	2848.72
873.83	2838.48
874.00	2731.99
874.16	2942.93
874.33	3061.71
874.50	2705.37
874.66	2781.14
874.83	2785.24
875.00	3180.50
875.16	3129.30
875.33	2883.54
875.50	2541.53
875.66	2871.25
875.83	3078.10
875.99	2779.09
876.16	2762.71
876.33	2787.29
876.49	2979.79
876.66	2791.38
876.83	2750.42
876.99	2785.24
877.16	2918.36
877.32	2691.03
877.49	2736.09
877.66	3035.09
877.82	3256.27
877.99	2811.86
878.15	3010.51
878.32	2990.03
878.49	3172.30
878.65	2756.57
878.82	2971.60
878.98	2764.76
879.15	3063.76
879.32	2885.59
879.48	2883.54
879.65	2883.54
879.81	3000.27
879.98	2783.19
880.15	2754.52
880.31	3080.14
880.48	2818.00
880.64	2850.77
880.81	2942.93
880.97	3311.57
881.14	3209.17
881.31	2635.74
881.47	2852.82
881.64	2840.53
881.80	2731.99
881.97	2877.40
882.13	2746.33
882.30	2742.23
882.47	2856.92
882.63	2691.03
882.80	2648.02
882.96	2922.45
883.13	3241.93
883.29	2760.66
883.46	2727.89
883.62	3373.00
883.79	3020.75
883.95	2863.06
884.12	2719.70
884.29	3262.41
884.45	2930.64
884.62	2736.09
884.78	2686.94
884.95	3186.64
885.11	2811.86
885.28	2865.11
885.44	2721.75
885.61	3108.82
885.77	3231.69
885.94	2883.54
886.10	2766.81
886.27	2987.99
886.43	3155.92
886.60	2936.79
886.76	2770.90
886.93	2803.67
887.09	3043.28
887.26	2711.51
887.42	2752.47
887.59	3151.82
887.75	3332.05
887.92	2983.89
888.08	2895.83
888.25	3295.18
888.41	3162.06
888.58	2824.15
888.74	2719.70
888.91	2877.40
>>>>>End Processed Spectral Data<<<<<
