SpectraSuite Data File
++++++++++++++++++++++++++++++++++++
Date: Thu May 05 21:11:32 CEST 2016
User: root
Dark Spectrum Present: No
Reference Spectrum Present: No
Number of Sampled Component Spectra: 1
Spectrometers: USB4C02835
Integration Time (usec): 100000 (USB4C02835)
Spectra Averaged: 1 (USB4C02835)
Boxcar Smoothing: 0 (USB4C02835)
Correct for Electrical Dark: No (USB4C02835)
Strobe/Lamp Enabled: No (USB4C02835)
Correct for Detector Non-linearity: No (USB4C02835)
Correct for Stray Light: No (USB4C02835)
Number of Pixels in Processed Spectrum: 3648
>>>>>Begin Processed Spectral Data<<<<<
177.47	2123.74
177.69	2123.74
177.91	2123.74
178.13	2158.56
178.36	2136.03
178.58	2789.33
178.80	2983.89
179.02	2703.32
179.24	2754.52
179.46	2598.87
179.68	2635.74
179.90	2965.46
180.13	3049.43
180.35	2562.01
180.57	2588.63
180.79	3147.73
181.01	3016.66
181.23	2656.22
181.45	2756.57
181.67	3160.02
181.90	3137.49
182.12	2670.55
182.34	2504.67
182.56	3084.24
182.78	3014.61
183.00	2605.02
183.22	2691.03
183.44	2662.36
183.66	3506.12
183.89	2834.39
184.11	2703.32
184.33	3086.29
184.55	3172.30
184.77	2691.03
184.99	2783.19
185.21	2951.12
185.43	3411.92
185.65	2719.70
185.87	2650.07
186.10	3387.34
186.32	3444.68
186.54	2766.81
186.76	2844.63
186.98	3162.06
187.20	2942.93
187.42	2686.94
187.64	2672.60
187.86	3035.09
188.08	3129.30
188.30	2609.11
188.52	2674.65
188.75	3243.98
188.97	3174.35
189.19	2643.93
189.41	2686.94
189.63	3059.67
189.85	2996.18
190.07	2574.30
190.29	2602.97
190.51	3041.23
190.73	2809.81
190.95	2861.01
191.17	2676.70
191.39	2789.33
191.61	2963.41
191.84	2615.26
192.06	2770.90
192.28	2818.00
192.50	3663.82
192.72	2811.86
192.94	2719.70
193.16	3237.84
193.38	3076.05
193.60	2691.03
193.82	2899.92
194.04	3112.91
194.26	2938.84
194.48	2674.65
194.70	2709.46
194.92	2861.01
195.14	3094.48
195.36	2641.88
195.58	2756.57
195.80	3033.04
196.02	2908.12
196.24	2631.64
196.46	2746.33
196.69	2928.60
196.91	3442.64
197.13	2666.46
197.35	2709.46
197.57	3215.31
197.79	3086.29
198.01	2789.33
198.23	2721.75
198.45	3082.19
198.67	2725.85
198.89	2590.68
199.11	2783.19
199.33	2828.24
199.55	2613.21
199.77	2639.83
199.99	2815.96
200.21	2959.31
200.43	3127.25
200.65	2559.96
200.87	2514.91
201.09	2916.31
201.31	2963.41
201.53	2727.89
201.75	2713.56
201.97	3049.43
202.19	2973.65
202.41	2695.13
202.63	2707.41
202.85	3172.30
203.07	2967.51
203.29	2744.28
203.51	2551.77
203.73	2918.36
203.95	3499.98
204.17	2643.93
204.39	2772.95
204.61	3016.66
204.83	2842.58
205.05	2887.64
205.27	2740.18
205.49	3405.77
205.71	3033.04
205.93	2590.68
206.15	2607.06
206.37	2910.16
206.59	2992.08
206.81	2605.02
207.03	2631.64
207.25	2770.90
207.47	2985.94
207.69	2779.09
207.91	2865.11
208.13	3297.23
208.34	2895.83
208.56	2613.21
208.78	2678.74
209.00	2955.22
209.22	2873.30
209.44	2680.79
209.66	2699.22
209.88	3051.47
210.10	2916.31
210.32	2693.08
210.54	2789.33
210.76	2959.31
210.98	3141.58
211.20	2521.05
211.42	2713.56
211.64	3200.98
211.86	3074.00
212.08	2752.47
212.30	2680.79
212.52	2926.55
212.74	3076.05
212.96	2805.72
213.17	2826.20
213.39	3039.19
213.61	3213.26
213.83	2688.98
214.05	2582.49
214.27	3186.64
214.49	2809.81
214.71	2602.97
214.93	2824.15
215.15	3020.75
215.37	3055.57
215.59	2613.21
215.81	2768.85
216.03	3200.98
216.24	3000.27
216.46	2686.94
216.68	2723.80
216.90	3221.45
217.12	3157.97
217.34	2645.98
217.56	2750.42
217.78	3266.51
218.00	3080.14
218.22	2791.38
218.44	2797.53
218.66	2992.08
218.87	3450.83
219.09	2742.23
219.31	2715.61
219.53	3057.62
219.75	2842.58
219.97	2744.28
220.19	2721.75
220.41	3002.32
220.63	3350.48
220.85	2688.98
221.06	2674.65
221.28	3198.93
221.50	3176.40
221.72	2662.36
221.94	2572.25
222.16	3088.34
222.38	3024.85
222.60	2672.60
222.82	2783.19
223.03	3151.82
223.25	2779.09
223.47	2686.94
223.69	2953.17
223.91	3155.92
224.13	3074.00
224.35	2506.71
224.57	2934.74
224.78	3184.59
225.00	2850.77
225.22	2666.46
225.44	2680.79
225.66	3153.87
225.88	2926.55
226.10	2807.77
226.32	2680.79
226.53	3250.13
226.75	2889.68
226.97	2695.13
227.19	2697.17
227.41	2797.53
227.63	2863.06
227.85	2510.81
228.06	2666.46
228.28	2992.08
228.50	3186.64
228.72	2494.43
228.94	2695.13
229.16	2637.78
229.37	2842.58
229.59	2590.68
229.81	2803.67
230.03	2928.60
230.25	2721.75
230.47	2611.16
230.69	2656.22
230.90	3112.91
231.12	2897.88
231.34	2850.77
231.56	2789.33
231.78	2863.06
232.00	3020.75
232.21	2729.94
232.43	2727.89
232.65	2705.37
232.87	3051.47
233.09	2582.49
233.30	2576.34
233.52	3272.65
233.74	2969.55
233.96	2654.17
234.18	2832.34
234.40	2924.50
234.61	3346.38
234.83	2582.49
235.05	2627.54
235.27	3518.41
235.49	3149.78
235.70	2588.63
235.92	2775.00
236.14	3024.85
236.36	3368.91
236.58	2512.86
236.79	2742.23
237.01	2973.65
237.23	2910.16
237.45	2938.84
237.67	2721.75
237.88	3084.24
238.10	3260.37
238.32	2641.88
238.54	2660.31
238.76	2981.84
238.97	2801.62
239.19	2611.16
239.41	2797.53
239.63	3069.91
239.85	2906.07
240.06	2715.61
240.28	2617.30
240.50	3196.88
240.72	2987.99
240.93	2613.21
241.15	2834.39
241.37	3008.47
241.59	3209.17
241.81	2645.98
242.02	2762.71
242.24	2998.23
242.46	3137.49
242.68	2553.82
242.89	2670.55
243.11	3174.35
243.33	2994.13
243.55	2680.79
243.76	2713.56
243.98	2877.40
244.20	2990.03
244.42	2770.90
244.64	2711.51
244.85	2815.96
245.07	2883.54
245.29	2723.80
245.51	2746.33
245.72	3000.27
245.94	3100.62
246.16	2725.85
246.38	2760.66
246.59	2885.59
246.81	2908.12
247.03	2629.59
247.24	2592.73
247.46	2951.12
247.68	3020.75
247.90	2678.74
248.11	2715.61
248.33	3080.14
248.55	2940.88
248.77	2723.80
248.98	2768.85
249.20	3237.84
249.42	2987.99
249.64	2641.88
249.85	2656.22
250.07	2877.40
250.29	3131.34
250.50	2824.15
250.72	2623.45
250.94	3030.99
251.16	3506.12
251.37	2703.32
251.59	2744.28
251.81	3114.96
252.02	3272.65
252.24	2590.68
252.46	2779.09
252.68	2783.19
252.89	2838.48
253.11	2508.76
253.33	2756.57
253.54	3209.17
253.76	2863.06
253.98	2701.27
254.20	2691.03
254.41	2783.19
254.63	2901.97
254.85	2535.39
255.06	2738.13
255.28	3030.99
255.50	2846.68
255.71	2668.50
255.93	2557.91
256.15	2863.06
256.36	3092.43
256.58	2594.78
256.80	2609.11
257.02	2955.22
257.23	2979.79
257.45	2734.04
257.67	2842.58
257.88	2897.88
258.10	3018.71
258.32	2668.50
258.53	2803.67
258.75	3286.99
258.97	2854.87
259.18	2605.02
259.40	2697.17
259.62	3205.07
259.83	3237.84
260.05	2686.94
260.27	3409.87
260.48	3125.20
260.70	2760.66
260.92	2627.54
261.13	2682.84
261.35	3039.19
261.57	3047.38
261.78	2605.02
262.00	2609.11
262.22	3102.67
262.43	2803.67
262.65	2715.61
262.86	2676.70
263.08	3315.66
263.30	3024.85
263.51	2553.82
263.73	2701.27
263.95	3332.05
264.16	2848.72
264.38	2629.59
264.60	2672.60
264.81	3014.61
265.03	3149.78
265.25	3088.34
265.46	2697.17
265.68	3141.58
265.89	3153.87
266.11	2506.71
266.33	2670.55
266.54	3194.83
266.76	3045.33
266.98	2703.32
267.19	2942.93
267.41	3182.54
267.62	2887.64
267.84	2512.86
268.06	2797.53
268.27	2990.03
268.49	3094.48
268.70	2795.48
268.92	2633.69
269.14	2805.72
269.35	2768.85
269.57	2772.95
269.79	2807.77
270.00	2994.13
270.22	3297.23
270.43	2564.06
270.65	2535.39
270.87	3033.04
271.08	3094.48
271.30	2785.24
271.51	2666.46
271.73	3137.49
271.95	3168.21
272.16	2674.65
272.38	2760.66
272.59	2944.98
272.81	3127.25
273.02	2613.21
273.24	2680.79
273.46	3198.93
273.67	2820.05
273.89	2576.34
274.10	2746.33
274.32	3137.49
274.54	3049.43
274.75	2727.89
274.97	2731.99
275.18	3147.73
275.40	3014.61
275.61	2695.13
275.83	2840.53
276.05	2783.19
276.26	2959.31
276.48	2705.37
276.69	2815.96
276.91	2893.78
277.12	3172.30
277.34	2869.20
277.55	2918.36
277.77	2957.27
277.99	2944.98
278.20	2822.10
278.42	2672.60
278.63	2897.88
278.85	2758.61
279.06	2760.66
279.28	2873.30
279.49	3131.34
279.71	3088.34
279.93	2848.72
280.14	2871.25
280.36	2863.06
280.57	3129.30
280.79	2852.82
281.00	2717.65
281.22	2934.74
281.43	3180.50
281.65	2576.34
281.86	2705.37
282.08	3110.86
282.29	3340.24
282.51	2637.78
282.73	2674.65
282.94	2686.94
283.16	3110.86
283.37	2940.88
283.59	2838.48
283.80	3063.76
284.02	3084.24
284.23	2725.85
284.45	2795.48
284.66	2809.81
284.88	2861.01
285.09	2754.52
285.31	2910.16
285.52	3143.63
285.74	2697.17
285.95	2951.12
286.17	2842.58
286.38	3213.26
286.60	2885.59
286.81	2725.85
287.03	2809.81
287.24	2973.65
287.46	3065.81
287.67	2811.86
287.89	3002.32
288.10	2932.69
288.32	3018.71
288.53	3012.56
288.75	2844.63
288.96	3117.01
289.18	2879.44
289.39	2746.33
289.61	2832.34
289.82	3370.96
290.04	3307.47
290.25	2672.60
290.47	2867.16
290.68	2947.03
290.90	3131.34
291.11	2672.60
291.33	2942.93
291.54	2811.86
291.76	2852.82
291.97	2897.88
292.18	2912.21
292.40	2938.84
292.61	2957.27
292.83	3030.99
293.04	2871.25
293.26	2916.31
293.47	2990.03
293.69	2758.61
293.90	2707.41
294.12	3172.30
294.33	3033.04
294.55	2838.48
294.76	3000.27
294.97	3262.41
295.19	3405.77
295.40	2740.18
295.62	2910.16
295.83	3137.49
296.05	2762.71
296.26	2971.60
296.48	2783.19
296.69	2944.98
296.90	3012.56
297.12	2908.12
297.33	2928.60
297.55	2996.18
297.76	3125.20
297.98	2908.12
298.19	2963.41
298.41	2953.17
298.62	2908.12
298.83	2963.41
299.05	2924.50
299.26	2871.25
299.48	2770.90
299.69	2856.92
299.90	2830.29
300.12	2879.44
300.33	3082.19
300.55	2777.05
300.76	2789.33
300.98	2807.77
301.19	3053.52
301.40	2752.47
301.62	2658.26
301.83	3059.67
302.05	2963.41
302.26	2754.52
302.47	2944.98
302.69	2820.05
302.90	3076.05
303.12	2682.84
303.33	2879.44
303.54	3334.09
303.76	2887.64
303.97	2779.09
304.19	3012.56
304.40	2811.86
304.61	3094.48
304.83	2938.84
305.04	2901.97
305.26	3108.82
305.47	2848.72
305.68	2844.63
305.90	2678.74
306.11	3094.48
306.33	2924.50
306.54	2770.90
306.75	2764.76
306.97	2764.76
307.18	2766.81
307.39	2772.95
307.61	2863.06
307.82	2871.25
308.04	3049.43
308.25	2676.70
308.46	2844.63
308.68	3000.27
308.89	3000.27
309.10	2883.54
309.32	2867.16
309.53	3018.71
309.74	3098.58
309.96	2748.37
310.17	2926.55
310.39	2865.11
310.60	3065.81
310.81	2770.90
311.03	2744.28
311.24	3137.49
311.45	3006.42
311.67	3045.33
311.88	2895.83
312.09	2881.49
312.31	2932.69
312.52	2668.50
312.73	2740.18
312.95	2750.42
313.16	2938.84
313.37	2963.41
313.59	2914.26
313.80	3151.82
314.01	3280.85
314.23	2809.81
314.44	2676.70
314.65	2772.95
314.87	2832.34
315.08	2832.34
315.29	2824.15
315.51	2729.94
315.72	2693.08
315.93	2908.12
316.15	2832.34
316.36	2838.48
316.57	2928.60
316.79	2832.34
317.00	2707.41
317.21	2983.89
317.43	2863.06
317.64	2828.24
317.85	2750.42
318.07	2871.25
318.28	2934.74
318.49	2875.35
318.70	3049.43
318.92	3102.67
319.13	3026.90
319.34	2963.41
319.56	2779.09
319.77	3076.05
319.98	3030.99
320.20	2985.94
320.41	2932.69
320.62	2994.13
320.83	2775.00
321.05	2994.13
321.26	2811.86
321.47	2959.31
321.69	3225.55
321.90	2652.12
322.11	2707.41
322.32	3002.32
322.54	3313.61
322.75	2826.20
322.96	3481.55
323.18	2676.70
323.39	2674.65
323.60	2760.66
323.81	2889.68
324.03	2791.38
324.24	3012.56
324.45	2947.03
324.66	2803.67
324.88	3123.15
325.09	3157.97
325.30	2770.90
325.52	2715.61
325.73	3051.47
325.94	2820.05
326.15	2695.13
326.37	2619.35
326.58	3184.59
326.79	3200.98
327.00	2791.38
327.22	2777.05
327.43	2932.69
327.64	2746.33
327.85	2889.68
328.07	2877.40
328.28	3395.53
328.49	2885.59
328.70	2768.85
328.92	2828.24
329.13	2975.70
329.34	3090.38
329.55	2938.84
329.76	2971.60
329.98	2969.55
330.19	3182.54
330.40	2897.88
330.61	2897.88
330.83	3112.91
331.04	2828.24
331.25	2889.68
331.46	2858.96
331.68	2754.52
331.89	3178.45
332.10	2830.29
332.31	2734.04
332.52	3014.61
332.74	3164.11
332.95	2592.73
333.16	2688.98
333.37	3106.77
333.58	2906.07
333.80	2813.91
334.01	2658.26
334.22	2981.84
334.43	2818.00
334.64	2791.38
334.86	2691.03
335.07	2877.40
335.28	3272.65
335.49	2736.09
335.70	2863.06
335.92	3256.27
336.13	3336.14
336.34	2854.87
336.55	2865.11
336.76	3065.81
336.98	2592.73
337.19	2865.11
337.40	2916.31
337.61	3559.37
337.82	2807.77
338.04	2955.22
338.25	2680.79
338.46	2873.30
338.67	2926.55
338.88	2742.23
339.09	2711.51
339.31	2965.46
339.52	2777.05
339.73	2750.42
339.94	2750.42
340.15	3137.49
340.36	2910.16
340.58	2813.91
340.79	2723.80
341.00	3129.30
341.21	2785.24
341.42	3026.90
341.63	2783.19
341.85	3123.15
342.06	2973.65
342.27	2725.85
342.48	2987.99
342.69	2758.61
342.90	3114.96
343.12	3051.47
343.33	2856.92
343.54	3192.78
343.75	3207.12
343.96	2871.25
344.17	2729.94
344.38	3018.71
344.60	2856.92
344.81	2793.43
345.02	2770.90
345.23	3188.69
345.44	3387.34
345.65	2834.39
345.86	2906.07
346.07	3098.58
346.29	2850.77
346.50	2994.13
346.71	2897.88
346.92	3223.50
347.13	3418.06
347.34	2904.02
347.55	2631.64
347.76	3123.15
347.98	2762.71
348.19	2822.10
348.40	2906.07
348.61	2858.96
348.82	3239.89
349.03	2889.68
349.24	2731.99
349.45	3332.05
349.66	2709.46
349.88	2858.96
350.09	2762.71
350.30	3213.26
350.51	3176.40
350.72	2906.07
350.93	2779.09
351.14	2955.22
351.35	2994.13
351.56	2777.05
351.77	2865.11
351.99	3135.44
352.20	3256.27
352.41	2879.44
352.62	2701.27
352.83	2936.79
353.04	2963.41
353.25	2836.44
353.46	2822.10
353.67	3184.59
353.88	2676.70
354.09	2760.66
354.30	2875.35
354.52	3117.01
354.73	3028.95
354.94	2760.66
355.15	2873.30
355.36	3391.44
355.57	2947.03
355.78	2815.96
355.99	2830.29
356.20	2926.55
356.41	3155.92
356.62	2856.92
356.83	2836.44
357.04	3264.46
357.25	2754.52
357.46	2799.57
357.68	2727.89
357.89	2846.68
358.10	2967.51
358.31	2828.24
358.52	2832.34
358.73	2785.24
358.94	2838.48
359.15	2809.81
359.36	2828.24
359.57	2932.69
359.78	2861.01
359.99	3006.42
360.20	2764.76
360.41	3053.52
360.62	3080.14
360.83	2848.72
361.04	2820.05
361.25	3024.85
361.46	3237.84
361.67	2828.24
361.88	2850.77
362.09	3166.16
362.30	3010.51
362.51	2664.41
362.72	2901.97
362.93	3147.73
363.14	3139.54
363.35	2951.12
363.56	2695.13
363.78	3178.45
363.99	3168.21
364.20	2783.19
364.41	2836.44
364.62	3364.81
364.83	2963.41
365.04	2805.72
365.25	2830.29
365.46	3246.03
365.67	2828.24
365.88	2852.82
366.09	2723.80
366.30	2949.08
366.51	2994.13
366.72	2688.98
366.93	2754.52
367.14	3006.42
367.35	3274.70
367.56	2750.42
367.77	2877.40
367.98	3008.47
368.18	2987.99
368.39	2908.12
368.60	2731.99
368.81	3123.15
369.02	3020.75
369.23	2830.29
369.44	2658.26
369.65	2969.55
369.86	3057.62
370.07	2873.30
370.28	2731.99
370.49	2981.84
370.70	3051.47
370.91	2699.22
371.12	2619.35
371.33	3135.44
371.54	2828.24
371.75	2934.74
371.96	2547.67
372.17	3051.47
372.38	2963.41
372.59	2881.49
372.80	2813.91
373.01	2947.03
373.22	3094.48
373.43	2822.10
373.64	2754.52
373.85	3153.87
374.06	3252.17
374.26	2967.51
374.47	2875.35
374.68	3256.27
374.89	2994.13
375.10	2815.96
375.31	2840.53
375.52	2969.55
375.73	3010.51
375.94	2695.13
376.15	2920.40
376.36	2881.49
376.57	2873.30
376.78	2789.33
376.99	2887.64
377.20	3166.16
377.40	3008.47
377.61	3088.34
377.82	2789.33
378.03	3233.74
378.24	3082.19
378.45	2899.92
378.66	2928.60
378.87	2680.79
379.08	2797.53
379.29	2775.00
379.50	2977.75
379.71	2924.50
379.91	3141.58
380.12	2826.20
380.33	2951.12
380.54	2959.31
380.75	3020.75
380.96	2772.95
381.17	2826.20
381.38	2951.12
381.59	3049.43
381.80	2834.39
382.00	3033.04
382.21	3078.10
382.42	3299.28
382.63	3114.96
382.84	2975.70
383.05	3157.97
383.26	3180.50
383.47	2940.88
383.68	2836.44
383.88	3057.62
384.09	2969.55
384.30	3039.19
384.51	2928.60
384.72	2899.92
384.93	2844.63
385.14	2881.49
385.35	3090.38
385.55	2717.65
385.76	3188.69
385.97	2783.19
386.18	2658.26
386.39	2848.72
386.60	2871.25
386.81	2834.39
387.02	2717.65
387.22	2768.85
387.43	3102.67
387.64	2875.35
387.85	3057.62
388.06	2949.08
388.27	4054.98
388.48	7194.51
388.68	10870.62
388.89	13383.48
389.10	14597.92
389.31	13930.28
389.52	11341.65
389.73	9652.08
389.93	8832.89
390.14	8032.13
390.35	7270.29
390.56	6850.46
390.77	5453.74
390.98	4292.54
391.18	3692.49
391.39	3469.26
391.60	2957.27
391.81	3039.19
392.02	2967.51
392.23	3360.72
392.43	3082.19
392.64	2889.68
392.85	2869.20
393.06	3284.94
393.27	3012.56
393.47	2871.25
393.68	2926.55
393.89	2938.84
394.10	3200.98
394.31	2785.24
394.52	2834.39
394.72	2914.26
394.93	3133.39
395.14	2727.89
395.35	2953.17
395.56	2848.72
395.76	3047.38
395.97	2861.01
396.18	3078.10
396.39	2998.23
396.60	3637.19
396.80	3178.45
397.01	3030.99
397.22	3112.91
397.43	3135.44
397.64	2822.10
397.84	2940.88
398.05	3356.62
398.26	2865.11
398.47	2951.12
398.67	3012.56
398.88	3016.66
399.09	3088.34
399.30	2813.91
399.51	2899.92
399.71	2830.29
399.92	2973.65
400.13	2936.79
400.34	2842.58
400.54	3006.42
400.75	3270.61
400.96	2938.84
401.17	3119.06
401.37	3110.86
401.58	2885.59
401.79	2811.86
402.00	2965.46
402.21	3471.31
402.41	3069.91
402.62	3137.49
402.83	3160.02
403.04	3358.67
403.24	3682.25
403.45	2889.68
403.66	3207.12
403.87	3248.08
404.07	3344.33
404.28	3084.24
404.49	3135.44
404.70	2983.89
404.90	3135.44
405.11	2918.36
405.32	2881.49
405.52	2895.83
405.73	2869.20
405.94	2805.72
406.15	2875.35
406.35	3114.96
406.56	3139.54
406.77	2914.26
406.98	2818.00
407.18	2852.82
407.39	3307.47
407.60	2861.01
407.80	2922.45
408.01	2889.68
408.22	2992.08
408.43	2805.72
408.63	3008.47
408.84	3157.97
409.05	3139.54
409.25	2734.04
409.46	2781.14
409.67	2873.30
409.88	2906.07
410.08	2871.25
410.29	2770.90
410.50	3098.58
410.70	3020.75
410.91	2742.23
411.12	2957.27
411.32	3049.43
411.53	2791.38
411.74	2848.72
411.95	2936.79
412.15	2934.74
412.36	3098.58
412.57	3004.37
412.77	2990.03
412.98	2932.69
413.19	2953.17
413.39	2844.63
413.60	2904.02
413.81	3164.11
414.01	2787.29
414.22	2871.25
414.43	3010.51
414.63	2953.17
414.84	3131.34
415.05	2858.96
415.25	2668.50
415.46	3108.82
415.67	2914.26
415.87	2803.67
416.08	2852.82
416.29	2918.36
416.49	3082.19
416.70	2842.58
416.91	2805.72
417.11	3039.19
417.32	3129.30
417.53	3053.52
417.73	2912.21
417.94	2928.60
418.15	2990.03
418.35	2901.97
418.56	2787.29
418.77	3399.63
418.97	2969.55
419.18	2865.11
419.38	2582.49
419.59	2873.30
419.80	3209.17
420.00	2803.67
420.21	2865.11
420.42	3205.07
420.62	3028.95
420.83	2815.96
421.04	2848.72
421.24	3000.27
421.45	3090.38
421.65	2973.65
421.86	2850.77
422.07	3194.83
422.27	3067.86
422.48	2801.62
422.69	2645.98
422.89	2961.36
423.10	2895.83
423.30	2693.08
423.51	2953.17
423.72	3063.76
423.92	3096.53
424.13	2729.94
424.33	2940.88
424.54	3114.96
424.75	3045.33
424.95	3096.53
425.16	2762.71
425.36	2951.12
425.57	3198.93
425.78	2885.59
425.98	2940.88
426.19	2971.60
426.39	2932.69
426.60	2963.41
426.81	2987.99
427.01	3055.57
427.22	2828.24
427.42	2736.09
427.63	2867.16
427.83	3194.83
428.04	3284.94
428.25	2918.36
428.45	2932.69
428.66	3209.17
428.86	2938.84
429.07	2920.40
429.28	2930.64
429.48	2957.27
429.69	2879.44
429.89	2928.60
430.10	2752.47
430.30	3125.20
430.51	3182.54
430.71	2750.42
430.92	2887.64
431.13	2895.83
431.33	3024.85
431.54	2932.69
431.74	3039.19
431.95	3305.42
432.15	2879.44
432.36	2826.20
432.56	2889.68
432.77	3282.89
432.98	3311.57
433.18	2934.74
433.39	2754.52
433.59	2967.51
433.80	3311.57
434.00	3153.87
434.21	2875.35
434.41	2858.96
434.62	3479.50
434.82	2752.47
435.03	2858.96
435.23	3030.99
435.44	2742.23
435.64	2815.96
435.85	2918.36
436.06	3053.52
436.26	3168.21
436.47	2799.57
436.67	2809.81
436.88	2908.12
437.08	3180.50
437.29	2977.75
437.49	3033.04
437.70	3174.35
437.90	3002.32
438.11	3080.14
438.31	2979.79
438.52	3178.45
438.72	3117.01
438.93	3030.99
439.13	2938.84
439.34	3213.26
439.54	2848.72
439.75	2949.08
439.95	2901.97
440.16	2813.91
440.36	2975.70
440.57	2811.86
440.77	2834.39
440.98	2959.31
441.18	3065.81
441.39	2842.58
441.59	2840.53
441.80	3379.15
442.00	3008.47
442.21	2975.70
442.41	2635.74
442.62	3090.38
442.82	2930.64
443.02	2809.81
443.23	2889.68
443.43	2944.98
443.64	3182.54
443.84	2791.38
444.05	3010.51
444.25	3016.66
444.46	2930.64
444.66	2830.29
444.87	3008.47
445.07	2686.94
445.28	2977.75
445.48	3057.62
445.69	2844.63
445.89	3362.76
446.09	2963.41
446.30	3143.63
446.50	3215.31
446.71	4659.13
446.91	5711.78
447.12	6543.26
447.32	6907.80
447.53	6737.82
447.73	5695.40
447.93	5042.10
448.14	4763.58
448.34	4847.54
448.55	3989.44
448.75	4085.70
448.96	3897.28
449.16	3657.67
449.36	3559.37
449.57	2965.46
449.77	2914.26
449.98	2883.54
450.18	3067.86
450.39	2838.48
450.59	3008.47
450.79	2889.68
451.00	2871.25
451.20	2926.55
451.41	2838.48
451.61	3022.80
451.81	2957.27
452.02	2822.10
452.22	2863.06
452.43	2875.35
452.63	2805.72
452.84	2826.20
453.04	2805.72
453.24	2994.13
453.45	2854.87
453.65	2836.44
453.86	2875.35
454.06	3049.43
454.26	3022.80
454.47	2844.63
454.67	2977.75
454.87	3016.66
455.08	2961.36
455.28	2973.65
455.49	2893.78
455.69	2891.73
455.89	3286.99
456.10	2971.60
456.30	2815.96
456.51	3110.86
456.71	2998.23
456.91	2920.40
457.12	2889.68
457.32	3180.50
457.52	2832.34
457.73	3024.85
457.93	3000.27
458.14	2863.06
458.34	2674.65
458.54	2785.24
458.75	2848.72
458.95	3143.63
459.15	3078.10
459.36	2854.87
459.56	2793.43
459.76	3332.05
459.97	2975.70
460.17	2766.81
460.37	2944.98
460.58	2967.51
460.78	3131.34
460.99	2910.16
461.19	2863.06
461.39	2875.35
461.60	2922.45
461.80	3014.61
462.00	2662.36
462.21	2969.55
462.41	2887.64
462.61	2762.71
462.82	2693.08
463.02	3157.97
463.22	2990.03
463.43	2961.36
463.63	2836.44
463.83	3137.49
464.04	3024.85
464.24	2809.81
464.44	2779.09
464.64	2965.46
464.85	3160.02
465.05	2932.69
465.25	2779.09
465.46	2838.48
465.66	3041.23
465.86	2897.88
466.07	2899.92
466.27	2959.31
466.47	2764.76
466.68	2703.32
466.88	2985.94
467.08	3074.00
467.29	3184.59
467.49	2951.12
467.69	2932.69
467.89	3057.62
468.10	2899.92
468.30	2951.12
468.50	2938.84
468.71	3067.86
468.91	2748.37
469.11	3053.52
469.31	2912.21
469.52	2791.38
469.72	3178.45
469.92	3104.72
470.13	2789.33
470.33	2975.70
470.53	3092.43
470.73	3241.93
470.94	3397.58
471.14	3559.37
471.34	4085.70
471.54	3794.89
471.75	3520.46
471.95	3332.05
472.15	3334.09
472.36	3391.44
472.56	3250.13
472.76	3475.40
472.96	3266.51
473.17	3051.47
473.37	2994.13
473.57	2947.03
473.77	3123.15
473.98	2873.30
474.18	2772.95
474.38	3518.41
474.58	2967.51
474.79	2742.23
474.99	2957.27
475.19	3192.78
475.39	2889.68
475.60	2922.45
475.80	2865.11
476.00	3055.57
476.20	2973.65
476.41	2928.60
476.61	2957.27
476.81	3280.85
477.01	2836.44
477.21	3094.48
477.42	2951.12
477.62	2813.91
477.82	3106.77
478.02	2731.99
478.23	2897.88
478.43	2807.77
478.63	2979.79
478.83	2836.44
479.03	2879.44
479.24	3205.07
479.44	3323.85
479.64	2738.13
479.84	2682.84
480.04	2897.88
480.25	3157.97
480.45	2756.57
480.65	2793.43
480.85	3196.88
481.06	2926.55
481.26	2897.88
481.46	2873.30
481.66	3063.76
481.86	2768.85
482.06	2987.99
482.27	2873.30
482.47	2940.88
482.67	3100.62
482.87	2799.57
483.07	3002.32
483.28	2938.84
483.48	2844.63
483.68	2834.39
483.88	2713.56
484.08	2623.45
484.29	2799.57
484.49	2936.79
484.69	2705.37
484.89	3276.75
485.09	3229.65
485.29	2779.09
485.50	2973.65
485.70	2875.35
485.90	3215.31
486.10	2934.74
486.30	2885.59
486.50	3215.31
486.71	3053.52
486.91	2934.74
487.11	3006.42
487.31	2799.57
487.51	3035.09
487.71	2756.57
487.91	2781.14
488.12	2846.68
488.32	2682.84
488.52	2844.63
488.72	2602.97
488.92	3000.27
489.12	3205.07
489.32	2979.79
489.53	2881.49
489.73	2738.13
489.93	3348.43
490.13	2836.44
490.33	2738.13
490.53	3010.51
490.73	3250.13
490.94	2695.13
491.14	2867.16
491.34	3112.91
491.54	3074.00
491.74	3536.84
491.94	4095.94
492.14	4642.75
492.34	4616.12
492.54	4331.45
492.75	3825.61
492.95	3874.76
493.15	3737.54
493.35	3512.27
493.55	3467.21
493.75	3456.97
493.95	3524.55
494.15	3039.19
494.35	2981.84
494.56	2994.13
494.76	2834.39
494.96	2969.55
495.16	2766.81
495.36	3051.47
495.56	3010.51
495.76	2871.25
495.96	2828.24
496.16	2891.73
496.36	3307.47
496.56	2834.39
496.77	2932.69
496.97	3045.33
497.17	3219.41
497.37	2705.37
497.57	2994.13
497.77	3063.76
497.97	2789.33
498.17	2807.77
498.37	2828.24
498.57	3092.43
498.77	2928.60
498.97	3037.14
499.17	3225.55
499.38	2877.40
499.58	3086.29
499.78	3012.56
499.98	3053.52
500.18	2869.20
500.38	2906.07
500.58	3035.09
500.78	3434.44
500.98	5511.08
501.18	7319.44
501.38	8753.02
501.58	9600.88
501.78	9543.53
501.98	8030.09
502.18	6682.52
502.38	5754.79
502.58	5599.15
502.78	5062.58
502.98	4849.59
503.18	4571.07
503.38	4292.54
503.59	3733.45
503.79	3690.44
503.99	3391.44
504.19	3448.78
504.39	3471.31
504.59	3397.58
504.79	3291.09
504.99	3538.89
505.19	3229.65
505.39	2979.79
505.59	3227.60
505.79	3330.00
505.99	3174.35
506.19	2815.96
506.39	3084.24
506.59	2906.07
506.79	2883.54
506.99	3024.85
507.19	2838.48
507.39	3055.57
507.59	2803.67
507.79	2799.57
507.99	2803.67
508.19	3037.14
508.39	2965.46
508.59	2889.68
508.79	2955.22
508.99	3393.48
509.19	2877.40
509.39	2957.27
509.59	2820.05
509.79	2975.70
509.99	3082.19
510.19	2973.65
510.39	2926.55
510.59	3043.28
510.79	2885.59
510.99	2723.80
511.19	2795.48
511.39	3280.85
511.59	3160.02
511.79	2977.75
511.99	2869.20
512.19	3274.70
512.38	2990.03
512.58	2781.14
512.78	2791.38
512.98	3188.69
513.18	3221.45
513.38	2744.28
513.58	2938.84
513.78	2914.26
513.98	2922.45
514.18	2899.92
514.38	2824.15
514.58	3028.95
514.78	2893.78
514.98	2760.66
515.18	2846.68
515.38	2701.27
515.58	3291.09
515.78	2822.10
515.98	2906.07
516.18	3102.67
516.38	2953.17
516.57	2762.71
516.77	2791.38
516.97	3045.33
517.17	2912.21
517.37	2609.11
517.57	2916.31
517.77	2928.60
517.97	2840.53
518.17	2930.64
518.37	2758.61
518.57	2920.40
518.77	2979.79
518.97	2836.44
519.16	2932.69
519.36	3207.12
519.56	2922.45
519.76	2826.20
519.96	2852.82
520.16	3164.11
520.36	2887.64
520.56	3041.23
520.76	2760.66
520.96	2953.17
521.16	3188.69
521.35	3026.90
521.55	2987.99
521.75	2983.89
521.95	2936.79
522.15	2822.10
522.35	2734.04
522.55	2760.66
522.75	3090.38
522.95	2838.48
523.14	2766.81
523.34	3033.04
523.54	2940.88
523.74	2957.27
523.94	2920.40
524.14	2795.48
524.34	3002.32
524.54	3084.24
524.73	2912.21
524.93	3078.10
525.13	3041.23
525.33	2783.19
525.53	3053.52
525.73	3033.04
525.93	3022.80
526.13	2830.29
526.32	2818.00
526.52	3180.50
526.72	3088.34
526.92	2766.81
527.12	2764.76
527.32	2742.23
527.52	3010.51
527.71	2893.78
527.91	2805.72
528.11	2947.03
528.31	3024.85
528.51	2828.24
528.71	2944.98
528.90	3055.57
529.10	3205.07
529.30	2947.03
529.50	2650.07
529.70	3078.10
529.90	2957.27
530.09	2858.96
530.29	2736.09
530.49	2928.60
530.69	3420.11
530.89	2990.03
531.09	2985.94
531.28	2959.31
531.48	3188.69
531.68	2858.96
531.88	2865.11
532.08	3117.01
532.28	2904.02
532.47	3012.56
532.67	2973.65
532.87	3024.85
533.07	2818.00
533.27	2916.31
533.46	2944.98
533.66	3010.51
533.86	3004.37
534.06	2799.57
534.26	2836.44
534.45	2906.07
534.65	3162.06
534.85	2889.68
535.05	2820.05
535.25	3112.91
535.44	2740.18
535.64	2928.60
535.84	2899.92
536.04	2967.51
536.24	2916.31
536.43	2809.81
536.63	2803.67
536.83	2953.17
537.03	2975.70
537.22	2670.55
537.42	2658.26
537.62	3010.51
537.82	2836.44
538.02	3035.09
538.21	2930.64
538.41	3448.78
538.61	3074.00
538.81	2869.20
539.00	2994.13
539.20	2750.42
539.40	2926.55
539.60	2865.11
539.79	3053.52
539.99	2973.65
540.19	2818.00
540.39	2828.24
540.58	2930.64
540.78	3145.68
540.98	3041.23
541.18	3110.86
541.37	2947.03
541.57	3004.37
541.77	3004.37
541.97	2734.04
542.16	2715.61
542.36	2910.16
542.56	3219.41
542.76	3053.52
542.95	2971.60
543.15	3047.38
543.35	3104.72
543.54	2813.91
543.74	2772.95
543.94	3129.30
544.14	2963.41
544.33	3022.80
544.53	2846.68
544.73	2928.60
544.93	2885.59
545.12	2793.43
545.32	2873.30
545.52	2914.26
545.71	2768.85
545.91	2881.49
546.11	2795.48
546.30	2826.20
546.50	2985.94
546.70	2861.01
546.90	2742.23
547.09	2725.85
547.29	2912.21
547.49	3026.90
547.68	2875.35
547.88	2850.77
548.08	3119.06
548.27	3239.89
548.47	2863.06
548.67	2893.78
548.87	3100.62
549.06	2858.96
549.26	2844.63
549.46	3135.44
549.65	2899.92
549.85	2854.87
550.05	2904.02
550.24	2840.53
550.44	2977.75
550.64	2944.98
550.83	2879.44
551.03	3106.77
551.23	3178.45
551.42	2901.97
551.62	2967.51
551.82	2949.08
552.01	2983.89
552.21	3074.00
552.41	2838.48
552.60	3217.36
552.80	2951.12
553.00	2760.66
553.19	2901.97
553.39	3311.57
553.59	2832.34
553.78	3041.23
553.98	2871.25
554.17	2783.19
554.37	2987.99
554.57	2961.36
554.76	2707.41
554.96	2863.06
555.16	3067.86
555.35	2938.84
555.55	3008.47
555.75	3059.67
555.94	3098.58
556.14	2738.13
556.33	2924.50
556.53	3002.32
556.73	2906.07
556.92	2938.84
557.12	2895.83
557.32	3327.95
557.51	3145.68
557.71	2846.68
557.90	3049.43
558.10	3227.60
558.30	2953.17
558.49	2871.25
558.69	2887.64
558.88	2994.13
559.08	3020.75
559.28	2844.63
559.47	2848.72
559.67	3080.14
559.86	3264.46
560.06	2787.29
560.26	2779.09
560.45	3121.10
560.65	2942.93
560.84	3117.01
561.04	2772.95
561.24	3178.45
561.43	2740.18
561.63	3022.80
561.82	2920.40
562.02	3069.91
562.22	2873.30
562.41	2760.66
562.61	2713.56
562.80	2844.63
563.00	3366.86
563.19	2844.63
563.39	2965.46
563.59	3139.54
563.78	2881.49
563.98	2676.70
564.17	2775.00
564.37	2658.26
564.56	2920.40
564.76	2756.57
564.96	2947.03
565.15	3043.28
565.35	3491.79
565.54	2840.53
565.74	2910.16
565.93	3069.91
566.13	2971.60
566.32	2904.02
566.52	2893.78
566.71	2942.93
566.91	3127.25
567.11	2934.74
567.30	2813.91
567.50	3022.80
567.69	3090.38
567.89	2838.48
568.08	2684.89
568.28	3022.80
568.47	2748.37
568.67	2912.21
568.86	2826.20
569.06	3104.72
569.25	2940.88
569.45	2781.14
569.64	2856.92
569.84	2904.02
570.04	3067.86
570.23	2873.30
570.43	2848.72
570.62	2957.27
570.82	3276.75
571.01	2678.74
571.21	2801.62
571.40	2764.76
571.60	3104.72
571.79	2899.92
571.99	2883.54
572.18	2815.96
572.38	3069.91
572.57	2922.45
572.77	2881.49
572.96	3389.39
573.16	3030.99
573.35	2856.92
573.55	3037.14
573.74	3117.01
573.94	2912.21
574.13	2828.24
574.33	3061.71
574.52	3147.73
574.71	2981.84
574.91	2928.60
575.10	2777.05
575.30	2957.27
575.49	2766.81
575.69	2781.14
575.88	2779.09
576.08	2977.75
576.27	3102.67
576.47	2799.57
576.66	2934.74
576.86	3114.96
577.05	2975.70
577.25	2914.26
577.44	3127.25
577.64	2891.73
577.83	3108.82
578.02	2795.48
578.22	3074.00
578.41	3256.27
578.61	2873.30
578.80	2703.32
579.00	2836.44
579.19	2992.08
579.39	3108.82
579.58	2901.97
579.77	2949.08
579.97	3317.71
580.16	3145.68
580.36	2987.99
580.55	2904.02
580.75	3092.43
580.94	3033.04
581.13	3166.16
581.33	3133.39
581.52	2998.23
581.72	3368.91
581.91	2953.17
582.11	2856.92
582.30	3108.82
582.49	2983.89
582.69	3190.74
582.88	2932.69
583.08	2987.99
583.27	3209.17
583.47	2959.31
583.66	2811.86
583.85	2867.16
584.05	2881.49
584.24	3018.71
584.44	2901.97
584.63	3151.82
584.82	3180.50
585.02	3057.62
585.21	3049.43
585.41	3059.67
585.60	3035.09
585.79	3188.69
585.99	3155.92
586.18	3028.95
586.37	3794.89
586.57	5785.51
586.76	16441.09
586.96	35505.63
587.15	48366.88
587.34	56102.06
587.54	60945.50
587.73	54551.74
587.93	38757.81
588.12	29298.24
588.31	23715.48
588.51	21311.16
588.70	19427.03
588.89	16932.61
589.09	14653.22
589.28	12531.52
589.47	9766.76
589.67	7655.31
589.86	5955.49
590.06	4646.84
590.25	4116.42
590.44	3612.62
590.64	3219.41
590.83	3194.83
591.02	3246.03
591.22	2887.64
591.41	2990.03
591.60	3016.66
591.80	3448.78
591.99	2783.19
592.18	2879.44
592.38	3190.74
592.57	2906.07
592.76	2881.49
592.96	2969.55
593.15	2979.79
593.34	3233.74
593.54	2897.88
593.73	2953.17
593.92	2996.18
594.12	3059.67
594.31	2932.69
594.50	3069.91
594.70	2967.51
594.89	3483.59
595.08	2764.76
595.28	2959.31
595.47	3534.79
595.66	3239.89
595.86	2766.81
596.05	2836.44
596.24	2942.93
596.43	3311.57
596.63	2983.89
596.82	3018.71
597.01	3018.71
597.21	3317.71
597.40	2916.31
597.59	2992.08
597.79	2942.93
597.98	3119.06
598.17	2983.89
598.36	2949.08
598.56	3119.06
598.75	2832.34
598.94	2998.23
599.14	2854.87
599.33	2875.35
599.52	3061.71
599.71	3045.33
599.91	2906.07
600.10	3022.80
600.29	2949.08
600.48	2889.68
600.68	2967.51
600.87	3008.47
601.06	2912.21
601.26	2973.65
601.45	2949.08
601.64	2981.84
601.83	3274.70
602.03	2744.28
602.22	2772.95
602.41	3137.49
602.60	3477.45
602.80	2940.88
602.99	2992.08
603.18	2863.06
603.37	3061.71
603.57	2799.57
603.76	2897.88
603.95	3133.39
604.14	2887.64
604.34	2766.81
604.53	2867.16
604.72	3065.81
604.91	3123.15
605.10	2852.82
605.30	2715.61
605.49	3426.25
605.68	3172.30
605.87	2953.17
606.07	2914.26
606.26	3010.51
606.45	3024.85
606.64	2928.60
606.84	2795.48
607.03	2922.45
607.22	3117.01
607.41	2996.18
607.60	2893.78
607.80	3168.21
607.99	2924.50
608.18	2906.07
608.37	2893.78
608.56	2844.63
608.76	3198.93
608.95	3010.51
609.14	2815.96
609.33	3139.54
609.52	3209.17
609.72	2944.98
609.91	2967.51
610.10	3121.10
610.29	3319.76
610.48	2918.36
610.68	3053.52
610.87	3010.51
611.06	3071.95
611.25	2869.20
611.44	3037.14
611.63	2936.79
611.83	3229.65
612.02	2748.37
612.21	3012.56
612.40	2717.65
612.59	2826.20
612.79	2766.81
612.98	2936.79
613.17	3213.26
613.36	2992.08
613.55	3047.38
613.74	2803.67
613.93	3045.33
614.13	3053.52
614.32	3080.14
614.51	2955.22
614.70	2959.31
614.89	2895.83
615.08	2992.08
615.28	3317.71
615.47	2848.72
615.66	3121.10
615.85	2877.40
616.04	2998.23
616.23	3024.85
616.42	2869.20
616.62	2908.12
616.81	2863.06
617.00	3088.34
617.19	3069.91
617.38	2912.21
617.57	2963.41
617.76	3088.34
617.95	3121.10
618.15	3004.37
618.34	3164.11
618.53	2746.33
618.72	3145.68
618.91	3033.04
619.10	2951.12
619.29	2924.50
619.48	2967.51
619.68	2807.77
619.87	2791.38
620.06	2719.70
620.25	3147.73
620.44	2852.82
620.63	2846.68
620.82	3043.28
621.01	2994.13
621.20	2926.55
621.39	2916.31
621.59	3008.47
621.78	2959.31
621.97	2885.59
622.16	3022.80
622.35	3102.67
622.54	3108.82
622.73	2942.93
622.92	2684.89
623.11	3074.00
623.30	2996.18
623.49	2899.92
623.68	2756.57
623.88	3141.58
624.07	2955.22
624.26	2803.67
624.45	2877.40
624.64	2928.60
624.83	3035.09
625.02	2861.01
625.21	2877.40
625.40	3082.19
625.59	3219.41
625.78	2863.06
625.97	2977.75
626.16	3219.41
626.35	3198.93
626.54	2852.82
626.74	3039.19
626.93	2965.46
627.12	2969.55
627.31	2975.70
627.50	2965.46
627.69	3151.82
627.88	2858.96
628.07	2764.76
628.26	2627.54
628.45	2889.68
628.64	2820.05
628.83	2869.20
629.02	2609.11
629.21	3100.62
629.40	3086.29
629.59	2807.77
629.78	2754.52
629.97	2953.17
630.16	3010.51
630.35	2914.26
630.54	2891.73
630.73	2920.40
630.92	2856.92
631.11	2758.61
631.30	2869.20
631.49	3131.34
631.68	2936.79
631.87	2932.69
632.06	2731.99
632.25	3379.15
632.44	3016.66
632.63	2858.96
632.82	2852.82
633.01	2844.63
633.20	3022.80
633.39	2858.96
633.58	2701.27
633.77	3014.61
633.96	3065.81
634.15	3006.42
634.34	2930.64
634.53	3082.19
634.72	2867.16
634.91	2660.31
635.10	2881.49
635.29	3139.54
635.48	2967.51
635.67	2727.89
635.86	2670.55
636.05	3194.83
636.24	2961.36
636.43	2877.40
636.62	3022.80
636.81	2549.72
637.00	3039.19
637.19	2906.07
637.38	2895.83
637.57	2883.54
637.76	2942.93
637.95	3102.67
638.14	2877.40
638.33	3035.09
638.52	3041.23
638.71	2750.42
638.89	2660.31
639.08	3452.88
639.27	3188.69
639.46	3080.14
639.65	3370.96
639.84	3424.20
640.03	3526.60
640.22	3293.13
640.41	3268.56
640.60	2996.18
640.79	3196.88
640.98	3035.09
641.17	3098.58
641.36	3162.06
641.55	3110.86
641.74	2826.20
641.92	2824.15
642.11	2822.10
642.30	3026.90
642.49	2764.76
642.68	2832.34
642.87	3039.19
643.06	3133.39
643.25	2750.42
643.44	2783.19
643.63	2965.46
643.82	3190.74
644.00	2746.33
644.19	2901.97
644.38	2793.43
644.57	3098.58
644.76	2930.64
644.95	2949.08
645.14	2953.17
645.33	2899.92
645.52	2963.41
645.71	2662.36
645.89	2844.63
646.08	2963.41
646.27	2807.77
646.46	3125.20
646.65	2777.05
646.84	3004.37
647.03	2748.37
647.22	3012.56
647.40	3035.09
647.59	2959.31
647.78	2744.28
647.97	2822.10
648.16	2938.84
648.35	3168.21
648.54	3117.01
648.73	2881.49
648.91	3086.29
649.10	2981.84
649.29	2768.85
649.48	2850.77
649.67	3069.91
649.86	2977.75
650.05	2844.63
650.23	3119.06
650.42	2912.21
650.61	3155.92
650.80	3045.33
650.99	3162.06
651.18	3076.05
651.36	3213.26
651.55	2830.29
651.74	3059.67
651.93	2996.18
652.12	2951.12
652.31	2820.05
652.49	2928.60
652.68	2901.97
652.87	3192.78
653.06	2875.35
653.25	3155.92
653.44	2971.60
653.62	3289.04
653.81	2838.48
654.00	2912.21
654.19	3233.74
654.38	3489.74
654.56	2981.84
654.75	2811.86
654.94	3143.63
655.13	3014.61
655.32	2863.06
655.51	2977.75
655.69	2947.03
655.88	3016.66
656.07	2727.89
656.26	2934.74
656.45	2764.76
656.63	3092.43
656.82	2906.07
657.01	3051.47
657.20	2883.54
657.38	3229.65
657.57	2850.77
657.76	2691.03
657.95	3149.78
658.14	2942.93
658.32	2975.70
658.51	2684.89
658.70	3028.95
658.89	2965.46
659.08	2875.35
659.26	2975.70
659.45	2822.10
659.64	3074.00
659.83	2838.48
660.01	3239.89
660.20	3004.37
660.39	3211.22
660.58	2639.83
660.76	2951.12
660.95	2797.53
661.14	2977.75
661.33	2711.51
661.51	2934.74
661.70	2885.59
661.89	3123.15
662.08	2871.25
662.26	2686.94
662.45	2775.00
662.64	3397.58
662.83	2969.55
663.01	2713.56
663.20	2953.17
663.39	3203.02
663.58	2844.63
663.76	2846.68
663.95	3186.64
664.14	2801.62
664.32	2852.82
664.51	2738.13
664.70	2664.41
664.89	3065.81
665.07	2643.93
665.26	2983.89
665.45	2703.32
665.64	3104.72
665.82	2787.29
666.01	2987.99
666.20	2717.65
666.38	3135.44
666.57	3106.77
666.76	4612.03
666.95	11003.74
667.13	17534.71
667.32	21122.75
667.51	24039.06
667.69	24774.28
667.88	20809.41
668.07	15220.50
668.25	12793.66
668.44	11036.50
668.63	9602.93
668.81	8585.08
669.00	7473.04
669.19	6637.47
669.38	5984.16
669.56	4968.37
669.75	4476.86
669.94	4016.07
670.12	3385.29
670.31	3172.30
670.50	3141.58
670.68	3176.40
670.87	3020.75
671.06	2820.05
671.24	2924.50
671.43	3276.75
671.62	3084.24
671.80	2768.85
671.99	2926.55
672.18	2949.08
672.36	3117.01
672.55	2961.36
672.74	2957.27
672.92	2901.97
673.11	3123.15
673.29	2748.37
673.48	3014.61
673.67	2961.36
673.85	3168.21
674.04	2748.37
674.23	2893.78
674.41	3278.80
674.60	2838.48
674.79	2697.17
674.97	2729.94
675.16	3071.95
675.34	3213.26
675.53	2803.67
675.72	3037.14
675.90	3295.18
676.09	2852.82
676.28	2951.12
676.46	2703.32
676.65	3039.19
676.83	2789.33
677.02	2926.55
677.21	2981.84
677.39	3137.49
677.58	2856.92
677.77	2828.24
677.95	2787.29
678.14	2920.40
678.32	2938.84
678.51	2815.96
678.70	3186.64
678.88	2861.01
679.07	3018.71
679.25	2881.49
679.44	2899.92
679.63	2834.39
679.81	3004.37
680.00	3123.15
680.18	2971.60
680.37	3252.17
680.55	2983.89
680.74	2697.17
680.93	2703.32
681.11	2985.94
681.30	3016.66
681.48	2832.34
681.67	2848.72
681.85	2920.40
682.04	2854.87
682.23	2963.41
682.41	2949.08
682.60	2936.79
682.78	2951.12
682.97	2772.95
683.15	2809.81
683.34	2981.84
683.53	3262.41
683.71	2645.98
683.90	2953.17
684.08	3246.03
684.27	2963.41
684.45	2908.12
684.64	3049.43
684.82	3018.71
685.01	3092.43
685.19	2881.49
685.38	3141.58
685.57	2990.03
685.75	2820.05
685.94	2789.33
686.12	2703.32
686.31	2897.88
686.49	3200.98
686.68	2635.74
686.86	2983.89
687.05	2936.79
687.23	3215.31
687.42	2912.21
687.60	2703.32
687.79	3153.87
687.97	3239.89
688.16	3002.32
688.34	3033.04
688.53	2742.23
688.71	2990.03
688.90	3137.49
689.08	2947.03
689.27	2723.80
689.45	3067.86
689.64	3006.42
689.82	2969.55
690.01	3047.38
690.19	3123.15
690.38	2899.92
690.56	3033.04
690.75	2820.05
690.93	2842.58
691.12	2850.77
691.30	2944.98
691.49	2867.16
691.67	2977.75
691.86	3168.21
692.04	2938.84
692.23	2936.79
692.41	2975.70
692.60	3078.10
692.78	3028.95
692.97	2926.55
693.15	3196.88
693.34	3049.43
693.52	3059.67
693.71	2914.26
693.89	2889.68
694.08	2680.79
694.26	2928.60
694.44	3090.38
694.63	3071.95
694.81	2779.09
695.00	2832.34
695.18	3225.55
695.37	3383.24
695.55	2930.64
695.74	2904.02
695.92	2779.09
696.10	3172.30
696.29	2740.18
696.47	2887.64
696.66	2727.89
696.84	2811.86
697.03	2879.44
697.21	3094.48
697.40	4544.44
697.58	3284.94
697.76	2848.72
697.95	2850.77
698.13	2824.15
698.32	2944.98
698.50	2906.07
698.68	2889.68
698.87	3004.37
699.05	3311.57
699.24	2858.96
699.42	2691.03
699.61	3049.43
699.79	2998.23
699.97	2889.68
700.16	2797.53
700.34	2758.61
700.53	2994.13
700.71	3055.57
700.89	2899.92
701.08	2918.36
701.26	2957.27
701.45	3254.22
701.63	2779.09
701.81	2871.25
702.00	2836.44
702.18	2871.25
702.37	2854.87
702.55	3129.30
702.73	3047.38
702.92	2871.25
703.10	3127.25
703.28	3063.76
703.47	2795.48
703.65	3039.19
703.84	3000.27
704.02	2906.07
704.20	3264.46
704.39	2811.86
704.57	2836.44
704.75	3125.20
704.94	3090.38
705.12	2961.36
705.30	3416.01
705.49	6547.36
705.67	12785.47
705.86	17907.44
706.04	20432.58
706.22	22644.39
706.41	21726.90
706.59	16828.16
706.77	13193.01
706.96	11220.82
707.14	10293.09
707.32	8738.68
707.51	7761.80
707.69	6528.92
707.87	5449.64
708.06	4497.34
708.24	3995.59
708.42	3555.27
708.61	3696.58
708.79	2893.78
708.97	3039.19
709.16	3082.19
709.34	2973.65
709.52	2861.01
709.71	2846.68
709.89	3084.24
710.07	2777.05
710.26	2815.96
710.44	2877.40
710.62	3110.86
710.80	2928.60
710.99	3047.38
711.17	2920.40
711.35	2809.81
711.54	2918.36
711.72	3020.75
711.90	2934.74
712.09	2981.84
712.27	2875.35
712.45	3028.95
712.63	2807.77
712.82	3041.23
713.00	2955.22
713.18	3051.47
713.37	3057.62
713.55	3067.86
713.73	3078.10
713.91	3024.85
714.10	2926.55
714.28	3059.67
714.46	3026.90
714.65	2971.60
714.83	2912.21
715.01	3006.42
715.19	3047.38
715.38	2863.06
715.56	2990.03
715.74	2834.39
715.92	2910.16
716.11	3143.63
716.29	2615.26
716.47	2975.70
716.65	2975.70
716.84	2660.31
717.02	3033.04
717.20	2611.16
717.38	2899.92
717.57	3014.61
717.75	2897.88
717.93	2818.00
718.11	3100.62
718.30	2723.80
718.48	2994.13
718.66	3145.68
718.84	3198.93
719.03	2914.26
719.21	2744.28
719.39	3330.00
719.57	3059.67
719.75	2981.84
719.94	2840.53
720.12	2858.96
720.30	2994.13
720.48	2971.60
720.67	2875.35
720.85	2809.81
721.03	2895.83
721.21	2830.29
721.39	2979.79
721.58	3041.23
721.76	2928.60
721.94	2916.31
722.12	2981.84
722.30	3221.45
722.49	2955.22
722.67	2901.97
722.85	2912.21
723.03	2729.94
723.21	2897.88
723.40	2961.36
723.58	3063.76
723.76	3061.71
723.94	3336.14
724.12	2924.50
724.30	3061.71
724.49	3205.07
724.67	2775.00
724.85	2965.46
725.03	2756.57
725.21	3028.95
725.40	3166.16
725.58	2840.53
725.76	3043.28
725.94	3114.96
726.12	2803.67
726.30	2877.40
726.49	2924.50
726.67	2863.06
726.85	3067.86
727.03	3377.10
727.21	4423.61
727.39	5550.00
727.57	5789.61
727.76	6266.78
727.94	6164.39
728.12	5523.37
728.30	4761.53
728.48	4450.24
728.66	4108.23
728.84	3938.24
729.03	3430.35
729.21	3360.72
729.39	3203.02
729.57	3063.76
729.75	3114.96
729.93	2936.79
730.11	2744.28
730.30	2863.06
730.48	2895.83
730.66	2928.60
730.84	2981.84
731.02	2955.22
731.20	2885.59
731.38	2926.55
731.56	2754.52
731.74	2793.43
731.93	3078.10
732.11	2928.60
732.29	2867.16
732.47	3084.24
732.65	3049.43
732.83	3020.75
733.01	2985.94
733.19	2877.40
733.37	3053.52
733.56	2975.70
733.74	2869.20
733.92	3248.08
734.10	2906.07
734.28	3084.24
734.46	2617.30
734.64	2879.44
734.82	2885.59
735.00	2846.68
735.18	2818.00
735.36	3037.14
735.54	2998.23
735.73	2838.48
735.91	3004.37
736.09	3207.12
736.27	3037.14
736.45	2967.51
736.63	2590.68
736.81	2840.53
736.99	3010.51
737.17	3071.95
737.35	2809.81
737.53	3080.14
737.71	2947.03
737.89	3049.43
738.07	2799.57
738.25	2844.63
738.43	2768.85
738.61	2856.92
738.80	2705.37
738.98	2754.52
739.16	2848.72
739.34	2760.66
739.52	3104.72
739.70	2910.16
739.88	3084.24
740.06	2990.03
740.24	2617.30
740.42	3203.02
740.60	2746.33
740.78	2809.81
740.96	2672.60
741.14	2924.50
741.32	3039.19
741.50	2672.60
741.68	3157.97
741.86	3254.22
742.04	2820.05
742.22	2803.67
742.40	2879.44
742.58	3102.67
742.76	2940.88
742.94	3037.14
743.12	2736.09
743.30	3041.23
743.48	3039.19
743.66	2779.09
743.84	2910.16
744.02	2881.49
744.20	3012.56
744.38	2742.23
744.56	2766.81
744.74	3319.76
744.92	3053.52
745.10	3121.10
745.28	2996.18
745.46	3282.89
745.64	2979.79
745.82	2901.97
746.00	2869.20
746.18	3035.09
746.36	2797.53
746.54	2904.02
746.72	2879.44
746.90	2762.71
747.08	3188.69
747.26	2908.12
747.44	3018.71
747.62	3108.82
747.80	3092.43
747.98	2936.79
748.15	2830.29
748.33	3237.84
748.51	3028.95
748.69	2996.18
748.87	2787.29
749.05	2920.40
749.23	2924.50
749.41	2813.91
749.59	2873.30
749.77	3137.49
749.95	2914.26
750.13	2832.34
750.31	2936.79
750.49	3024.85
750.67	3121.10
750.85	2883.54
751.03	2875.35
751.20	3364.81
751.38	2992.08
751.56	2854.87
751.74	2811.86
751.92	2891.73
752.10	2844.63
752.28	2951.12
752.46	2766.81
752.64	2953.17
752.82	3047.38
753.00	3002.32
753.18	2852.82
753.35	2914.26
753.53	2947.03
753.71	2734.04
753.89	2951.12
754.07	3008.47
754.25	3141.58
754.43	2875.35
754.61	2811.86
754.79	3065.81
754.97	2940.88
755.14	3030.99
755.32	2719.70
755.50	3039.19
755.68	3006.42
755.86	2727.89
756.04	2799.57
756.22	2758.61
756.40	3145.68
756.57	3135.44
756.75	2797.53
756.93	3133.39
757.11	3170.26
757.29	2785.24
757.47	2738.13
757.65	2676.70
757.82	2596.82
758.00	2711.51
758.18	2807.77
758.36	2889.68
758.54	3104.72
758.72	2779.09
758.90	3012.56
759.07	3059.67
759.25	2754.52
759.43	2811.86
759.61	2740.18
759.79	4235.20
759.97	3127.25
760.15	2828.24
760.32	2869.20
760.50	3080.14
760.68	3260.37
760.86	2729.94
761.04	3026.90
761.22	3129.30
761.39	3039.19
761.57	2908.12
761.75	2826.20
761.93	3063.76
762.11	2983.89
762.28	2908.12
762.46	2811.86
762.64	3188.69
762.82	2805.72
763.00	2818.00
763.18	3086.29
763.35	2822.10
763.53	3055.57
763.71	2908.12
763.89	2826.20
764.07	3121.10
764.24	2981.84
764.42	3004.37
764.60	2869.20
764.78	3033.04
764.96	3164.11
765.13	3065.81
765.31	2803.67
765.49	3145.68
765.67	2848.72
765.84	2820.05
766.02	2779.09
766.20	2674.65
766.38	3008.47
766.56	2906.07
766.73	2942.93
766.91	2938.84
767.09	2975.70
767.27	2961.36
767.44	2754.52
767.62	3063.76
767.80	2994.13
767.98	2744.28
768.15	2889.68
768.33	3051.47
768.51	3057.62
768.69	2981.84
768.87	2822.10
769.04	2975.70
769.22	3405.77
769.40	2998.23
769.58	3069.91
769.75	3045.33
769.93	3188.69
770.11	2918.36
770.28	2736.09
770.46	3123.15
770.64	3071.95
770.82	2840.53
770.99	2842.58
771.17	3096.53
771.35	2891.73
771.53	2848.72
771.70	2848.72
771.88	3082.19
772.06	2990.03
772.23	2811.86
772.41	2949.08
772.59	3006.42
772.77	2840.53
772.94	2932.69
773.12	2867.16
773.30	2957.27
773.47	2998.23
773.65	2842.58
773.83	3084.24
774.01	2955.22
774.18	2639.83
774.36	2856.92
774.54	2826.20
774.71	3008.47
774.89	2762.71
775.07	2791.38
775.24	2842.58
775.42	2869.20
775.60	3270.61
775.78	2803.67
775.95	2654.17
776.13	2803.67
776.31	2721.75
776.48	2944.98
776.66	3102.67
776.84	2920.40
777.01	2852.82
777.19	2758.61
777.37	2791.38
777.54	3090.38
777.72	3313.61
777.90	2992.08
778.07	2834.39
778.25	3573.71
778.43	3160.02
778.60	2840.53
778.78	2861.01
778.96	3180.50
779.13	2711.51
779.31	2928.60
779.49	2922.45
779.66	2971.60
779.84	2930.64
780.01	2832.34
780.19	2813.91
780.37	3295.18
780.54	3086.29
780.72	2775.00
780.90	2832.34
781.07	2942.93
781.25	2805.72
781.43	3008.47
781.60	2910.16
781.78	3192.78
781.95	3074.00
782.13	2832.34
782.31	2803.67
782.48	2631.64
782.66	2987.99
782.83	3067.86
783.01	2994.13
783.19	3123.15
783.36	2969.55
783.54	2869.20
783.72	2961.36
783.89	2908.12
784.07	3035.09
784.24	2961.36
784.42	3028.95
784.60	2963.41
784.77	3026.90
784.95	2660.31
785.12	2805.72
785.30	3020.75
785.47	2820.05
785.65	2742.23
785.83	2869.20
786.00	2922.45
786.18	2936.79
786.35	2746.33
786.53	2848.72
786.71	3147.73
786.88	3090.38
787.06	2922.45
787.23	2871.25
787.41	2740.18
787.58	2977.75
787.76	2787.29
787.94	2877.40
788.11	3022.80
788.29	2783.19
788.46	2854.87
788.64	2684.89
788.81	2877.40
788.99	2838.48
789.16	2756.57
789.34	2904.02
789.52	2865.11
789.69	2944.98
789.87	2664.41
790.04	2807.77
790.22	2926.55
790.39	3297.23
790.57	2791.38
790.74	2852.82
790.92	3176.40
791.09	2686.94
791.27	2934.74
791.44	2971.60
791.62	2920.40
791.79	3106.77
791.97	2891.73
792.15	3203.02
792.32	3092.43
792.50	3129.30
792.67	3004.37
792.85	3123.15
793.02	3024.85
793.20	2947.03
793.37	2699.22
793.55	2811.86
793.72	2775.00
793.90	3137.49
794.07	2842.58
794.25	2797.53
794.42	2967.51
794.60	2940.88
794.77	2975.70
794.95	2979.79
795.12	3104.72
795.30	2906.07
795.47	2574.30
795.65	3237.84
795.82	3043.28
796.00	2801.62
796.17	2904.02
796.34	2824.15
796.52	3049.43
796.69	3149.78
796.87	2961.36
797.04	3024.85
797.22	3076.05
797.39	3065.81
797.57	3012.56
797.74	2998.23
797.92	2983.89
798.09	2828.24
798.27	3121.10
798.44	2824.15
798.62	2887.64
798.79	2971.60
798.96	2936.79
799.14	2930.64
799.31	3446.73
799.49	2891.73
799.66	2842.58
799.84	2957.27
800.01	2791.38
800.19	3033.04
800.36	2674.65
800.53	2863.06
800.71	3104.72
800.88	3205.07
801.06	2818.00
801.23	2856.92
801.41	2936.79
801.58	2926.55
801.75	2877.40
801.93	2967.51
802.10	3092.43
802.28	2977.75
802.45	2883.54
802.63	2979.79
802.80	3190.74
802.97	2877.40
803.15	2889.68
803.32	2836.44
803.50	2861.01
803.67	2856.92
803.84	2834.39
804.02	2918.36
804.19	2967.51
804.37	2600.92
804.54	2686.94
804.71	2766.81
804.89	3035.09
805.06	2889.68
805.24	2856.92
805.41	2738.13
805.58	2795.48
805.76	3332.05
805.93	2865.11
806.10	2998.23
806.28	3082.19
806.45	3057.62
806.63	2959.31
806.80	2879.44
806.97	3018.71
807.15	2971.60
807.32	2965.46
807.49	2914.26
807.67	2748.37
807.84	2998.23
808.01	2641.88
808.19	3002.32
808.36	3360.72
808.54	2846.68
808.71	2801.62
808.88	2797.53
809.06	3211.22
809.23	3262.41
809.40	2842.58
809.58	2897.88
809.75	3008.47
809.92	2799.57
810.10	3160.02
810.27	2762.71
810.44	2996.18
810.62	3090.38
810.79	2942.93
810.96	2828.24
811.14	2928.60
811.31	3063.76
811.48	2934.74
811.66	2963.41
811.83	3155.92
812.00	3086.29
812.18	3016.66
812.35	3227.60
812.52	2959.31
812.69	2875.35
812.87	2811.86
813.04	2779.09
813.21	2992.08
813.39	2881.49
813.56	2709.46
813.73	3090.38
813.91	2762.71
814.08	2947.03
814.25	2879.44
814.42	2691.03
814.60	2842.58
814.77	2981.84
814.94	2813.91
815.12	2887.64
815.29	3303.37
815.46	2801.62
815.63	2887.64
815.81	2813.91
815.98	2883.54
816.15	2893.78
816.33	2830.29
816.50	2897.88
816.67	2893.78
816.84	2836.44
817.02	2799.57
817.19	2889.68
817.36	3121.10
817.53	2987.99
817.71	2762.71
817.88	2959.31
818.05	3047.38
818.22	2899.92
818.40	3051.47
818.57	2844.63
818.74	3141.58
818.91	2912.21
819.09	2996.18
819.26	2977.75
819.43	2826.20
819.60	2869.20
819.78	3012.56
819.95	2940.88
820.12	2815.96
820.29	3133.39
820.47	3178.45
820.64	2811.86
820.81	2818.00
820.98	2793.43
821.15	2815.96
821.33	2975.70
821.50	2693.08
821.67	3078.10
821.84	2820.05
822.02	2850.77
822.19	3033.04
822.36	2828.24
822.53	2830.29
822.70	2717.65
822.88	2949.08
823.05	3192.78
823.22	3016.66
823.39	2891.73
823.56	2885.59
823.74	3262.41
823.91	2760.66
824.08	2703.32
824.25	2813.91
824.42	3227.60
824.60	2699.22
824.77	2938.84
824.94	2975.70
825.11	3053.52
825.28	2754.52
825.45	2985.94
825.63	3047.38
825.80	2791.38
825.97	2926.55
826.14	2846.68
826.31	2674.65
826.48	3014.61
826.66	2828.24
826.83	2854.87
827.00	2885.59
827.17	2830.29
827.34	2840.53
827.51	2807.77
827.69	2930.64
827.86	2768.85
828.03	2891.73
828.20	2885.59
828.37	2887.64
828.54	3026.90
828.71	2813.91
828.89	2942.93
829.06	2953.17
829.23	3227.60
829.40	2799.57
829.57	2813.91
829.74	3049.43
829.91	2871.25
830.09	2727.89
830.26	3002.32
830.43	3237.84
830.60	2918.36
830.77	2940.88
830.94	3117.01
831.11	3123.15
831.28	2994.13
831.46	3045.33
831.63	2852.82
831.80	3110.86
831.97	2844.63
832.14	2854.87
832.31	2871.25
832.48	3026.90
832.65	3172.30
832.82	2940.88
832.99	2936.79
833.17	2826.20
833.34	3231.69
833.51	2828.24
833.68	2602.97
833.85	3237.84
834.02	2822.10
834.19	2783.19
834.36	2844.63
834.53	2926.55
834.70	3098.58
834.87	2928.60
835.04	2643.93
835.22	2848.72
835.39	2885.59
835.56	2664.41
835.73	2756.57
835.90	3176.40
836.07	2836.44
836.24	2740.18
836.41	2615.26
836.58	2772.95
836.75	3108.82
836.92	2758.61
837.09	2654.17
837.26	3059.67
837.43	3092.43
837.60	2797.53
837.77	2709.46
837.94	3090.38
838.12	3196.88
838.29	2688.98
838.46	2615.26
838.63	2719.70
838.80	3174.35
838.97	2785.24
839.14	2750.42
839.31	3020.75
839.48	2944.98
839.65	2756.57
839.82	2758.61
839.99	3047.38
840.16	2983.89
840.33	2676.70
840.50	2770.90
840.67	2873.30
840.84	2582.49
841.01	2662.36
841.18	2666.46
841.35	2942.93
841.52	3039.19
841.69	3026.90
841.86	2824.15
842.03	2893.78
842.20	3084.24
842.37	2760.66
842.54	2707.41
842.71	3018.71
842.88	2721.75
843.05	2828.24
843.22	2785.24
843.39	3123.15
843.56	2895.83
843.73	2701.27
843.90	2848.72
844.07	2975.70
844.24	3133.39
844.41	2779.09
844.58	2805.72
844.75	3080.14
844.92	3100.62
845.09	2852.82
845.26	2766.81
845.43	3102.67
845.60	2910.16
845.77	2869.20
845.94	2795.48
846.10	3092.43
846.27	2701.27
846.44	2617.30
846.61	2660.31
846.78	3074.00
846.95	3063.76
847.12	2705.37
847.29	2748.37
847.46	2908.12
847.63	3102.67
847.80	2715.61
847.97	2686.94
848.14	3289.04
848.31	2979.79
848.48	2596.82
848.65	2699.22
848.82	2942.93
848.98	3383.24
849.15	2885.59
849.32	2772.95
849.49	3219.41
849.66	2936.79
849.83	2705.37
850.00	2617.30
850.17	3069.91
850.34	2891.73
850.51	2742.23
850.68	2809.81
850.85	3332.05
851.01	3065.81
851.18	2668.50
851.35	2721.75
851.52	3035.09
851.69	3198.93
851.86	2684.89
852.03	2803.67
852.20	3162.06
852.37	2961.36
852.53	2607.06
852.70	2621.40
852.87	2990.03
853.04	3147.73
853.21	2695.13
853.38	3033.04
853.55	3198.93
853.72	3241.93
853.89	2693.08
854.05	2715.61
854.22	2940.88
854.39	2940.88
854.56	2672.60
854.73	2906.07
854.90	2777.05
855.07	2959.31
855.23	2633.69
855.40	2637.78
855.57	2930.64
855.74	2631.64
855.91	2914.26
856.08	2590.68
856.25	2686.94
856.41	2883.54
856.58	2832.34
856.75	2770.90
856.92	2797.53
857.09	3147.73
857.26	2562.01
857.42	2785.24
857.59	3096.53
857.76	2885.59
857.93	2772.95
858.10	2846.68
858.27	2793.43
858.43	2953.17
858.60	2682.84
858.77	2570.20
858.94	2963.41
859.11	3139.54
859.27	2813.91
859.44	2641.88
859.61	3346.38
859.78	3160.02
859.95	2766.81
860.12	2717.65
860.28	3358.67
860.45	3327.95
860.62	2734.04
860.79	2789.33
860.95	2899.92
861.12	2908.12
861.29	2574.30
861.46	2658.26
861.63	2977.75
861.79	3028.95
861.96	2631.64
862.13	2721.75
862.30	3215.31
862.47	2981.84
862.63	2688.98
862.80	2738.13
862.97	3098.58
863.14	2947.03
863.30	2826.20
863.47	2688.98
863.64	3291.09
863.81	3108.82
863.97	2586.58
864.14	2697.17
864.31	2926.55
864.48	3039.19
864.65	2756.57
864.81	2858.96
864.98	3121.10
865.15	3098.58
865.32	2795.48
865.48	2803.67
865.65	3209.17
865.82	2854.87
865.98	2910.16
866.15	2770.90
866.32	2901.97
866.49	2924.50
866.65	2824.15
866.82	2777.05
866.99	2955.22
867.16	2922.45
867.32	2727.89
867.49	2697.17
867.66	2912.21
867.83	2959.31
867.99	2668.50
868.16	2729.94
868.33	2822.10
868.49	2906.07
868.66	2717.65
868.83	2811.86
868.99	2979.79
869.16	2987.99
869.33	2838.48
869.50	2836.44
869.66	3035.09
869.83	2932.69
870.00	2639.83
870.16	2850.77
870.33	2992.08
870.50	3084.24
870.66	2854.87
870.83	2799.57
871.00	2967.51
871.17	3067.86
871.33	2813.91
871.50	2752.47
871.67	2955.22
871.83	2840.53
872.00	2914.26
872.17	2713.56
872.33	3282.89
872.50	3149.78
872.67	2713.56
872.83	2811.86
873.00	2975.70
873.17	2908.12
873.33	2832.34
873.50	2740.18
873.67	2844.63
873.83	2813.91
874.00	2752.47
874.16	2863.06
874.33	3026.90
874.50	2756.57
874.66	2729.94
874.83	2781.14
875.00	3117.01
875.16	3200.98
875.33	2803.67
875.50	2519.00
875.66	2895.83
875.83	2934.74
875.99	2736.09
876.16	2801.62
876.33	2848.72
876.49	2963.41
876.66	2811.86
876.83	2764.76
876.99	2795.48
877.16	2861.01
877.32	2707.41
877.49	2725.85
877.66	3024.85
877.82	3170.26
877.99	2815.96
878.15	2983.89
878.32	2977.75
878.49	3049.43
878.65	2793.43
878.82	3053.52
878.98	2867.16
879.15	3143.63
879.32	2836.44
879.48	2856.92
879.65	2953.17
879.81	2928.60
879.98	2811.86
880.15	2830.29
880.31	3057.62
880.48	2854.87
880.64	2881.49
880.81	2807.77
880.97	3239.89
881.14	3059.67
881.31	2691.03
881.47	2873.30
881.64	2924.50
881.80	2703.32
881.97	2897.88
882.13	2717.65
882.30	2840.53
882.47	2858.96
882.63	2736.09
882.80	2711.51
882.96	2906.07
883.13	3192.78
883.29	2740.18
883.46	2762.71
883.62	3344.33
883.79	2922.45
883.95	2901.97
884.12	2688.98
884.29	3157.97
884.45	2998.23
884.62	2899.92
884.78	2688.98
884.95	3270.61
885.11	2881.49
885.28	2869.20
885.44	2762.71
885.61	3114.96
885.77	3186.64
885.94	2834.39
886.10	2772.95
886.27	3047.38
886.43	3289.04
886.60	3008.47
886.76	2697.17
886.93	2840.53
887.09	2981.84
887.26	2625.50
887.42	2848.72
887.59	3117.01
887.75	3409.87
887.92	2973.65
888.08	2865.11
888.25	3153.87
888.41	3168.21
888.58	2832.34
888.74	2645.98
888.91	2850.77
>>>>>End Processed Spectral Data<<<<<
