SpectraSuite Data File
++++++++++++++++++++++++++++++++++++
Date: Thu May 05 21:11:36 CEST 2016
User: root
Dark Spectrum Present: No
Reference Spectrum Present: No
Number of Sampled Component Spectra: 1
Spectrometers: USB4C02835
Integration Time (usec): 100000 (USB4C02835)
Spectra Averaged: 1 (USB4C02835)
Boxcar Smoothing: 0 (USB4C02835)
Correct for Electrical Dark: No (USB4C02835)
Strobe/Lamp Enabled: No (USB4C02835)
Correct for Detector Non-linearity: No (USB4C02835)
Correct for Stray Light: No (USB4C02835)
Number of Pixels in Processed Spectrum: 3648
>>>>>Begin Processed Spectral Data<<<<<
177.47	2160.61
177.69	2160.61
177.91	2160.61
178.13	2095.07
178.36	2166.75
178.58	2740.18
178.80	2938.84
179.02	2795.48
179.24	2811.86
179.46	2537.43
179.68	2695.13
179.90	3004.37
180.13	2996.18
180.35	2578.39
180.57	2682.84
180.79	3059.67
181.01	2994.13
181.23	2699.22
181.45	2838.48
181.67	3121.10
181.90	3139.54
182.12	2703.32
182.34	2531.29
182.56	3119.06
182.78	3145.68
183.00	2727.89
183.22	2701.27
183.44	2666.46
183.66	3450.83
183.89	2811.86
184.11	2727.89
184.33	3084.24
184.55	3186.64
184.77	2629.59
184.99	2717.65
185.21	2901.97
185.43	3379.15
185.65	2713.56
185.87	2652.12
186.10	3395.53
186.32	3413.96
186.54	2787.29
186.76	2738.13
186.98	3160.02
187.20	2893.78
187.42	2736.09
187.64	2723.80
187.86	3112.91
188.08	3143.63
188.30	2600.92
188.52	2699.22
188.75	3225.55
188.97	3223.50
189.19	2684.89
189.41	2748.37
189.63	3080.14
189.85	2897.88
190.07	2566.10
190.29	2531.29
190.51	3026.90
190.73	2742.23
190.95	2785.24
191.17	2705.37
191.39	2766.81
191.61	2971.60
191.84	2693.08
192.06	2760.66
192.28	2787.29
192.50	3608.52
192.72	2832.34
192.94	2818.00
193.16	3127.25
193.38	3049.43
193.60	2551.77
193.82	2807.77
194.04	3137.49
194.26	3143.63
194.48	2707.41
194.70	2717.65
194.92	2854.87
195.14	3112.91
195.36	2682.84
195.58	2707.41
195.80	2897.88
196.02	2840.53
196.24	2668.50
196.46	2848.72
196.69	2836.44
196.91	3405.77
197.13	2787.29
197.35	2783.19
197.57	3295.18
197.79	3098.58
198.01	2787.29
198.23	2717.65
198.45	3063.76
198.67	2777.05
198.89	2531.29
199.11	2736.09
199.33	2924.50
199.55	2645.98
199.77	2594.78
199.99	2805.72
200.21	2938.84
200.43	3018.71
200.65	2584.54
200.87	2527.19
201.09	2955.22
201.31	2877.40
201.53	2676.70
201.75	2791.38
201.97	2934.74
202.19	2963.41
202.41	2787.29
202.63	2852.82
202.85	3119.06
203.07	3008.47
203.29	2762.71
203.51	2617.30
203.73	2828.24
203.95	3485.64
204.17	2676.70
204.39	2770.90
204.61	2883.54
204.83	2985.94
205.05	2861.01
205.27	2664.41
205.49	3336.14
205.71	2932.69
205.93	2594.78
206.15	2648.02
206.37	2959.31
206.59	2879.44
206.81	2584.54
207.03	2582.49
207.25	2830.29
207.47	3053.52
207.69	2721.75
207.91	2932.69
208.13	3200.98
208.34	2863.06
208.56	2574.30
208.78	2729.94
209.00	2877.40
209.22	2904.02
209.44	2734.04
209.66	2666.46
209.88	2998.23
210.10	2899.92
210.32	2660.31
210.54	2842.58
210.76	2973.65
210.98	3180.50
211.20	2508.76
211.42	2719.70
211.64	3309.52
211.86	3110.86
212.08	2750.42
212.30	2752.47
212.52	2951.12
212.74	3121.10
212.96	2766.81
213.17	2711.51
213.39	3067.86
213.61	3243.98
213.83	2617.30
214.05	2500.57
214.27	3205.07
214.49	2813.91
214.71	2566.10
214.93	2779.09
215.15	2985.94
215.37	3129.30
215.59	2572.25
215.81	2822.10
216.03	3188.69
216.24	2985.94
216.46	2766.81
216.68	2766.81
216.90	3196.88
217.12	3225.55
217.34	2666.46
217.56	2754.52
217.78	3221.45
218.00	3096.53
218.22	2766.81
218.44	2820.05
218.66	3045.33
218.87	3411.92
219.09	2705.37
219.31	2746.33
219.53	3049.43
219.75	2934.74
219.97	2760.66
220.19	2713.56
220.41	2944.98
220.63	3350.48
220.85	2660.31
221.06	2734.04
221.28	3254.22
221.50	3026.90
221.72	2772.95
221.94	2602.97
222.16	3112.91
222.38	3102.67
222.60	2662.36
222.82	2717.65
223.03	3117.01
223.25	2807.77
223.47	2674.65
223.69	2820.05
223.91	3108.82
224.13	3035.09
224.35	2594.78
224.57	2838.48
224.78	3112.91
225.00	2840.53
225.22	2764.76
225.44	2633.69
225.66	3131.34
225.88	2897.88
226.10	2801.62
226.32	2736.09
226.53	3200.98
226.75	3024.85
226.97	2746.33
227.19	2648.02
227.41	2824.15
227.63	2955.22
227.85	2555.86
228.06	2699.22
228.28	2985.94
228.50	3207.12
228.72	2494.43
228.94	2705.37
229.16	2725.85
229.37	2785.24
229.59	2609.11
229.81	2967.51
230.03	2891.73
230.25	2791.38
230.47	2529.24
230.69	2564.06
230.90	3174.35
231.12	2842.58
231.34	2750.42
231.56	2731.99
231.78	2756.57
232.00	3004.37
232.21	2772.95
232.43	2721.75
232.65	2586.58
232.87	3033.04
233.09	2549.72
233.30	2584.54
233.52	3125.20
233.74	3049.43
233.96	2643.93
234.18	2889.68
234.40	2955.22
234.61	3377.10
234.83	2623.45
235.05	2615.26
235.27	3407.82
235.49	3186.64
235.70	2652.12
235.92	2734.04
236.14	3151.82
236.36	3461.07
236.58	2596.82
236.79	2846.68
237.01	2987.99
237.23	2983.89
237.45	2858.96
237.67	2734.04
237.88	3119.06
238.10	3385.29
238.32	2580.44
238.54	2645.98
238.76	2914.26
238.97	2842.58
239.19	2652.12
239.41	2736.09
239.63	3200.98
239.85	2897.88
240.06	2758.61
240.28	2643.93
240.50	3121.10
240.72	3067.86
240.93	2594.78
241.15	2861.01
241.37	3002.32
241.59	3121.10
241.81	2686.94
242.02	2752.47
242.24	2971.60
242.46	3135.44
242.68	2592.73
242.89	2682.84
243.11	3100.62
243.33	2932.69
243.55	2754.52
243.76	2678.74
243.98	2930.64
244.20	2893.78
244.42	2752.47
244.64	2750.42
244.85	2775.00
245.07	2770.90
245.29	2662.36
245.51	2684.89
245.72	3063.76
245.94	3188.69
246.16	2652.12
246.38	2697.17
246.59	2883.54
246.81	2996.18
247.03	2639.83
247.24	2615.26
247.46	2854.87
247.68	2983.89
247.90	2602.97
248.11	2719.70
248.33	3106.77
248.55	2985.94
248.77	2721.75
248.98	2844.63
249.20	3217.36
249.42	3067.86
249.64	2566.10
249.85	2602.97
250.07	2910.16
250.29	3182.54
250.50	2727.89
250.72	2713.56
250.94	3069.91
251.16	3385.29
251.37	2674.65
251.59	2727.89
251.81	3082.19
252.02	3260.37
252.24	2578.39
252.46	2822.10
252.68	2895.83
252.89	2881.49
253.11	2559.96
253.33	2803.67
253.54	3243.98
253.76	2815.96
253.98	2666.46
254.20	2666.46
254.41	2772.95
254.63	3045.33
254.85	2504.67
255.06	2840.53
255.28	3071.95
255.50	2889.68
255.71	2633.69
255.93	2602.97
256.15	2910.16
256.36	3043.28
256.58	2566.10
256.80	2682.84
257.02	2963.41
257.23	2936.79
257.45	2760.66
257.67	2750.42
257.88	2908.12
258.10	3041.23
258.32	2701.27
258.53	2738.13
258.75	3325.90
258.97	2879.44
259.18	2691.03
259.40	2639.83
259.62	3270.61
259.83	3235.79
260.05	2785.24
260.27	3446.73
260.48	3166.16
260.70	2840.53
260.92	2553.82
261.13	2707.41
261.35	2981.84
261.57	3059.67
261.78	2553.82
262.00	2686.94
262.22	3100.62
262.43	2869.20
262.65	2697.17
262.86	2670.55
263.08	3399.63
263.30	2953.17
263.51	2555.86
263.73	2568.15
263.95	3276.75
264.16	2758.61
264.38	2648.02
264.60	2658.26
264.81	2987.99
265.03	3104.72
265.25	3098.58
265.46	2662.36
265.68	3272.65
265.89	3098.58
266.11	2467.80
266.33	2650.07
266.54	3121.10
266.76	3006.42
266.98	2738.13
267.19	2852.82
267.41	3198.93
267.62	2975.70
267.84	2553.82
268.06	2811.86
268.27	3037.14
268.49	3190.74
268.70	2703.32
268.92	2738.13
269.14	2830.29
269.35	2738.13
269.57	2697.17
269.79	2770.90
270.00	2901.97
270.22	3270.61
270.43	2605.02
270.65	2484.19
270.87	3002.32
271.08	3102.67
271.30	2731.99
271.51	2682.84
271.73	3123.15
271.95	3280.85
272.16	2643.93
272.38	2848.72
272.59	2871.25
272.81	2994.13
273.02	2680.79
273.24	2727.89
273.46	3117.01
273.67	2756.57
273.89	2514.91
274.10	2633.69
274.32	3137.49
274.54	3037.14
274.75	2750.42
274.97	2836.44
275.18	3047.38
275.40	3043.28
275.61	2705.37
275.83	2826.20
276.05	2889.68
276.26	2969.55
276.48	2799.57
276.69	2842.58
276.91	2897.88
277.12	3221.45
277.34	2865.11
277.55	2920.40
277.77	3051.47
277.99	2928.60
278.20	2691.03
278.42	2672.60
278.63	2832.34
278.85	2869.20
279.06	2717.65
279.28	2934.74
279.49	3108.82
279.71	3090.38
279.93	2799.57
280.14	2789.33
280.36	2899.92
280.57	3180.50
280.79	2901.97
281.00	2746.33
281.22	2869.20
281.43	3098.58
281.65	2607.06
281.86	2674.65
282.08	3039.19
282.29	3284.94
282.51	2713.56
282.73	2643.93
282.94	2672.60
283.16	3155.92
283.37	2885.59
283.59	2846.68
283.80	3035.09
284.02	3043.28
284.23	2830.29
284.45	2742.23
284.66	2881.49
284.88	2842.58
285.09	2785.24
285.31	2811.86
285.52	3074.00
285.74	2674.65
285.95	2955.22
286.17	2844.63
286.38	3157.97
286.60	2951.12
286.81	2746.33
287.03	2783.19
287.24	3006.42
287.46	3065.81
287.67	2899.92
287.89	3010.51
288.10	2918.36
288.32	2932.69
288.53	2996.18
288.75	2867.16
288.96	3096.53
289.18	2805.72
289.39	2688.98
289.61	2863.06
289.82	3291.09
290.04	3338.19
290.25	2633.69
290.47	2844.63
290.68	2944.98
290.90	3180.50
291.11	2586.58
291.33	2971.60
291.54	2736.09
291.76	2887.64
291.97	2879.44
292.18	2910.16
292.40	2875.35
292.61	2801.62
292.83	3108.82
293.04	2791.38
293.26	3076.05
293.47	2920.40
293.69	2770.90
293.90	2758.61
294.12	3213.26
294.33	2949.08
294.55	2775.00
294.76	2975.70
294.97	3274.70
295.19	3327.95
295.40	2834.39
295.62	2854.87
295.83	3084.24
296.05	2852.82
296.26	3071.95
296.48	2766.81
296.69	3024.85
296.90	2955.22
297.12	2881.49
297.33	2969.55
297.55	3022.80
297.76	3153.87
297.98	2881.49
298.19	2877.40
298.41	2967.51
298.62	2926.55
298.83	3008.47
299.05	2914.26
299.26	2932.69
299.48	2783.19
299.69	2846.68
299.90	2854.87
300.12	2811.86
300.33	3135.44
300.55	2910.16
300.76	2832.34
300.98	2824.15
301.19	3061.71
301.40	2727.89
301.62	2719.70
301.83	3014.61
302.05	2985.94
302.26	2676.70
302.47	2844.63
302.69	2822.10
302.90	3033.04
303.12	2648.02
303.33	2889.68
303.54	3346.38
303.76	2932.69
303.97	2746.33
304.19	2965.46
304.40	2828.24
304.61	3045.33
304.83	2975.70
305.04	2895.83
305.26	3074.00
305.47	2981.84
305.68	2856.92
305.90	2791.38
306.11	3170.26
306.33	2981.84
306.54	2688.98
306.75	2713.56
306.97	2770.90
307.18	2799.57
307.39	2764.76
307.61	2822.10
307.82	2914.26
308.04	3141.58
308.25	2688.98
308.46	2924.50
308.68	3012.56
308.89	3018.71
309.10	2928.60
309.32	2762.71
309.53	2951.12
309.74	3104.72
309.96	2744.28
310.17	2883.54
310.39	2922.45
310.60	3074.00
310.81	2846.68
311.03	2750.42
311.24	3080.14
311.45	2955.22
311.67	3012.56
311.88	2912.21
312.09	2885.59
312.31	2922.45
312.52	2682.84
312.73	2811.86
312.95	2881.49
313.16	2834.39
313.37	3049.43
313.59	2916.31
313.80	3123.15
314.01	3205.07
314.23	2772.95
314.44	2756.57
314.65	2799.57
314.87	2813.91
315.08	2811.86
315.29	2811.86
315.51	2926.55
315.72	2777.05
315.93	2893.78
316.15	2887.64
316.36	2920.40
316.57	3016.66
316.79	2775.00
317.00	2801.62
317.21	3147.73
317.43	2852.82
317.64	2893.78
317.85	2756.57
318.07	2873.30
318.28	2906.07
318.49	2885.59
318.70	3010.51
318.92	3049.43
319.13	3061.71
319.34	2983.89
319.56	2877.40
319.77	3182.54
319.98	3065.81
320.20	3004.37
320.41	2942.93
320.62	3080.14
320.83	2787.29
321.05	3041.23
321.26	2826.20
321.47	2969.55
321.69	3243.98
321.90	2678.74
322.11	2787.29
322.32	3033.04
322.54	3280.85
322.75	2820.05
322.96	3530.70
323.18	2660.31
323.39	2766.81
323.60	2762.71
323.81	2904.02
324.03	2883.54
324.24	2979.79
324.45	2891.73
324.66	2777.05
324.88	3215.31
325.09	3196.88
325.30	2799.57
325.52	2734.04
325.73	3071.95
325.94	2828.24
326.15	2695.13
326.37	2605.02
326.58	3065.81
326.79	3198.93
327.00	2721.75
327.22	2729.94
327.43	2910.16
327.64	2858.96
327.85	2846.68
328.07	2770.90
328.28	3330.00
328.49	2883.54
328.70	2758.61
328.92	2840.53
329.13	3004.37
329.34	3043.28
329.55	2973.65
329.76	2918.36
329.98	3008.47
330.19	3164.11
330.40	2901.97
330.61	2838.48
330.83	3133.39
331.04	2830.29
331.25	2883.54
331.46	2879.44
331.68	2801.62
331.89	3188.69
332.10	2846.68
332.31	2674.65
332.52	2994.13
332.74	3186.64
332.95	2605.02
333.16	2772.95
333.37	3110.86
333.58	2922.45
333.80	2777.05
334.01	2594.78
334.22	3002.32
334.43	2869.20
334.64	2764.76
334.86	2613.21
335.07	2908.12
335.28	3174.35
335.49	2643.93
335.70	2793.43
335.92	3149.78
336.13	3401.68
336.34	2938.84
336.55	2854.87
336.76	3033.04
336.98	2607.06
337.19	2840.53
337.40	2918.36
337.61	3356.62
337.82	2887.64
338.04	2854.87
338.25	2668.50
338.46	2897.88
338.67	2901.97
338.88	2699.22
339.09	2693.08
339.31	2838.48
339.52	2772.95
339.73	2744.28
339.94	2824.15
340.15	3080.14
340.36	2887.64
340.58	2899.92
340.79	2674.65
341.00	3096.53
341.21	2789.33
341.42	2922.45
341.63	2740.18
341.85	3143.63
342.06	3082.19
342.27	2764.76
342.48	2951.12
342.69	2734.04
342.90	3037.14
343.12	3160.02
343.33	2695.13
343.54	3069.91
343.75	3241.93
343.96	2885.59
344.17	2740.18
344.38	2987.99
344.60	2893.78
344.81	2688.98
345.02	2805.72
345.23	3172.30
345.44	3422.16
345.65	2891.73
345.86	2912.21
346.07	3059.67
346.29	2910.16
346.50	2920.40
346.71	2867.16
346.92	3198.93
347.13	3295.18
347.34	2781.14
347.55	2742.23
347.76	3088.34
347.98	2672.60
348.19	2799.57
348.40	3016.66
348.61	2965.46
348.82	3215.31
349.03	2854.87
349.24	2758.61
349.45	3346.38
349.66	2688.98
349.88	2805.72
350.09	2727.89
350.30	3149.78
350.51	3123.15
350.72	2965.46
350.93	2811.86
351.14	2889.68
351.35	3055.57
351.56	2832.34
351.77	2815.96
351.99	3026.90
352.20	3164.11
352.41	2938.84
352.62	2641.88
352.83	2992.08
353.04	3045.33
353.25	2775.00
353.46	2910.16
353.67	3186.64
353.88	2656.22
354.09	2775.00
354.30	2887.64
354.52	3076.05
354.73	2987.99
354.94	2809.81
355.15	2852.82
355.36	3307.47
355.57	2891.73
355.78	2772.95
355.99	2709.46
356.20	2910.16
356.41	3225.55
356.62	2893.78
356.83	2807.77
357.04	3194.83
357.25	2762.71
357.46	2736.09
357.68	2621.40
357.89	2717.65
358.10	2961.36
358.31	2762.71
358.52	2826.20
358.73	2822.10
358.94	2762.71
359.15	2803.67
359.36	2832.34
359.57	2920.40
359.78	2985.94
359.99	3033.04
360.20	2652.12
360.41	2920.40
360.62	3098.58
360.83	2840.53
361.04	2840.53
361.25	2967.51
361.46	3258.32
361.67	2932.69
361.88	2854.87
362.09	3110.86
362.30	2987.99
362.51	2770.90
362.72	2854.87
362.93	3092.43
363.14	3074.00
363.35	2969.55
363.56	2691.03
363.78	3129.30
363.99	3141.58
364.20	2842.58
364.41	2899.92
364.62	3256.27
364.83	3033.04
365.04	2848.72
365.25	2811.86
365.46	3305.42
365.67	2836.44
365.88	2961.36
366.09	2822.10
366.30	2916.31
366.51	3020.75
366.72	2721.75
366.93	2736.09
367.14	3037.14
367.35	3198.93
367.56	2719.70
367.77	2951.12
367.98	2973.65
368.18	3028.95
368.39	3020.75
368.60	2682.84
368.81	3147.73
369.02	3069.91
369.23	2863.06
369.44	2695.13
369.65	2906.07
369.86	3088.34
370.07	2934.74
370.28	2742.23
370.49	3012.56
370.70	3090.38
370.91	2695.13
371.12	2666.46
371.33	3188.69
371.54	2830.29
371.75	2895.83
371.96	2551.77
372.17	2949.08
372.38	2904.02
372.59	2881.49
372.80	2723.80
373.01	3016.66
373.22	2983.89
373.43	2881.49
373.64	2721.75
373.85	3252.17
374.06	3270.61
374.26	2979.79
374.47	2871.25
374.68	3291.09
374.89	2992.08
375.10	2672.60
375.31	2928.60
375.52	3071.95
375.73	2996.18
375.94	2693.08
376.15	2910.16
376.36	2869.20
376.57	2811.86
376.78	2852.82
376.99	2912.21
377.20	3248.08
377.40	2871.25
377.61	3049.43
377.82	2748.37
378.03	3241.93
378.24	3141.58
378.45	2865.11
378.66	2879.44
378.87	2691.03
379.08	2703.32
379.29	2762.71
379.50	2928.60
379.71	2947.03
379.91	3098.58
380.12	2793.43
380.33	2865.11
380.54	2961.36
380.75	2965.46
380.96	2783.19
381.17	2936.79
381.38	2969.55
381.59	3000.27
381.80	2852.82
382.00	2979.79
382.21	2990.03
382.42	3344.33
382.63	3104.72
382.84	2951.12
383.05	3129.30
383.26	3155.92
383.47	2940.88
383.68	2789.33
383.88	3100.62
384.09	2992.08
384.30	3016.66
384.51	2893.78
384.72	2994.13
384.93	2789.33
385.14	2901.97
385.35	3037.14
385.55	2770.90
385.76	3157.97
385.97	2811.86
386.18	2717.65
386.39	2822.10
386.60	2899.92
386.81	2783.19
387.02	2680.79
387.22	2729.94
387.43	3102.67
387.64	2914.26
387.85	3049.43
388.06	3104.72
388.27	4018.11
388.48	7249.81
388.68	10702.68
388.89	13317.94
389.10	14397.22
389.31	13844.27
389.52	11210.58
389.73	9584.49
389.93	8787.83
390.14	8122.24
390.35	7346.06
390.56	6801.30
390.77	5492.65
390.98	4331.45
391.18	3629.00
391.39	3366.86
391.60	3065.81
391.81	3053.52
392.02	2869.20
392.23	3418.06
392.43	2983.89
392.64	2928.60
392.85	2910.16
393.06	3227.60
393.27	2938.84
393.47	2791.38
393.68	2881.49
393.89	2922.45
394.10	3235.79
394.31	2713.56
394.52	2793.43
394.72	2848.72
394.93	3180.50
395.14	2740.18
395.35	2836.44
395.56	2869.20
395.76	2922.45
395.97	2781.14
396.18	3004.37
396.39	2969.55
396.60	3487.69
396.80	3074.00
397.01	3069.91
397.22	3153.87
397.43	3139.54
397.64	2848.72
397.84	2895.83
398.05	3317.71
398.26	2928.60
398.47	2904.02
398.67	2981.84
398.88	2977.75
399.09	3166.16
399.30	2787.29
399.51	2940.88
399.71	2836.44
399.92	2959.31
400.13	2883.54
400.34	2861.01
400.54	2990.03
400.75	3266.51
400.96	2932.69
401.17	3188.69
401.37	2998.23
401.58	2969.55
401.79	2854.87
402.00	2944.98
402.21	3403.72
402.41	3131.34
402.62	3108.82
402.83	3164.11
403.04	3278.80
403.24	3643.34
403.45	2887.64
403.66	3123.15
403.87	3198.93
404.07	3291.09
404.28	3080.14
404.49	3127.25
404.70	3051.47
404.90	3055.57
405.11	2779.09
405.32	3018.71
405.52	2846.68
405.73	2922.45
405.94	2723.80
406.15	2885.59
406.35	3078.10
406.56	3125.20
406.77	2865.11
406.98	2930.64
407.18	2953.17
407.39	3221.45
407.60	2901.97
407.80	2879.44
408.01	2856.92
408.22	3074.00
408.43	2719.70
408.63	2916.31
408.84	3127.25
409.05	3098.58
409.25	2793.43
409.46	2834.39
409.67	2828.24
409.88	2820.05
410.08	2877.40
410.29	2856.92
410.50	3112.91
410.70	3008.47
410.91	2684.89
411.12	2953.17
411.32	3080.14
411.53	2842.58
411.74	2887.64
411.95	2971.60
412.15	3063.76
412.36	3057.62
412.57	2908.12
412.77	3033.04
412.98	3043.28
413.19	2967.51
413.39	2893.78
413.60	2877.40
413.81	3166.16
414.01	2818.00
414.22	2914.26
414.43	3008.47
414.63	2922.45
414.84	3190.74
415.05	2840.53
415.25	2715.61
415.46	3090.38
415.67	2906.07
415.87	2799.57
416.08	2844.63
416.29	2844.63
416.49	3067.86
416.70	2809.81
416.91	2858.96
417.11	2901.97
417.32	3149.78
417.53	3008.47
417.73	2910.16
417.94	2992.08
418.15	3104.72
418.35	2901.97
418.56	2875.35
418.77	3454.92
418.97	3047.38
419.18	2895.83
419.38	2619.35
419.59	2969.55
419.80	3272.65
420.00	2832.34
420.21	2830.29
420.42	3162.06
420.62	2969.55
420.83	2865.11
421.04	2801.62
421.24	2930.64
421.45	3088.34
421.65	2901.97
421.86	2836.44
422.07	3110.86
422.27	3106.77
422.48	2787.29
422.69	2686.94
422.89	2932.69
423.10	2932.69
423.30	2686.94
423.51	2848.72
423.72	3104.72
423.92	3157.97
424.13	2729.94
424.33	2912.21
424.54	3125.20
424.75	2981.84
424.95	3096.53
425.16	2762.71
425.36	3004.37
425.57	3127.25
425.78	2977.75
425.98	2949.08
426.19	2957.27
426.39	2803.67
426.60	2877.40
426.81	3055.57
427.01	3051.47
427.22	2785.24
427.42	2725.85
427.63	2840.53
427.83	3127.25
428.04	3293.13
428.25	2959.31
428.45	3026.90
428.66	3252.17
428.86	2922.45
429.07	2822.10
429.28	2889.68
429.48	2963.41
429.69	2842.58
429.89	2961.36
430.10	2865.11
430.30	3086.29
430.51	3213.26
430.71	2764.76
430.92	2844.63
431.13	2938.84
431.33	3065.81
431.54	2920.40
431.74	3035.09
431.95	3373.00
432.15	2725.85
432.36	2920.40
432.56	2848.72
432.77	3377.10
432.98	3303.37
433.18	2918.36
433.39	2818.00
433.59	2955.22
433.80	3385.29
434.00	3037.14
434.21	2830.29
434.41	2846.68
434.62	3405.77
434.82	2746.33
435.03	2740.18
435.23	3086.29
435.44	2742.23
435.64	2885.59
435.85	2838.48
436.06	3102.67
436.26	3147.73
436.47	2805.72
436.67	2772.95
436.88	2934.74
437.08	3157.97
437.29	2961.36
437.49	2953.17
437.70	3221.45
437.90	2996.18
438.11	3092.43
438.31	2963.41
438.52	3246.03
438.72	3229.65
438.93	3131.34
439.13	2887.64
439.34	3233.74
439.54	2871.25
439.75	2969.55
439.95	2914.26
440.16	2893.78
440.36	2885.59
440.57	2887.64
440.77	2781.14
440.98	2951.12
441.18	3008.47
441.39	2756.57
441.59	2686.94
441.80	3411.92
442.00	3002.32
442.21	2887.64
442.41	2652.12
442.62	3106.77
442.82	2926.55
443.02	2836.44
443.23	2844.63
443.43	2969.55
443.64	3239.89
443.84	2803.67
444.05	2881.49
444.25	3080.14
444.46	2836.44
444.66	2906.07
444.87	3071.95
445.07	2768.85
445.28	2957.27
445.48	3030.99
445.69	2987.99
445.89	3424.20
446.09	2996.18
446.30	3160.02
446.50	3188.69
446.71	4593.59
446.91	5705.64
447.12	6479.77
447.32	6989.72
447.53	6959.00
447.73	5685.16
447.93	4972.47
448.14	4679.61
448.34	4853.69
448.55	4067.27
448.75	4052.93
448.96	3819.46
449.16	3577.80
449.36	3547.08
449.57	3121.10
449.77	2926.55
449.98	2955.22
450.18	3151.82
450.39	2783.19
450.59	3002.32
450.79	2959.31
451.00	3000.27
451.20	2930.64
451.41	2869.20
451.61	3065.81
451.81	2867.16
452.02	2723.80
452.22	2871.25
452.43	2942.93
452.63	2856.92
452.84	2895.83
453.04	2820.05
453.24	3080.14
453.45	2850.77
453.65	2959.31
453.86	2885.59
454.06	3035.09
454.26	2992.08
454.47	2834.39
454.67	3028.95
454.87	3096.53
455.08	2965.46
455.28	2926.55
455.49	2996.18
455.69	2777.05
455.89	3358.67
456.10	2971.60
456.30	2768.85
456.51	3069.91
456.71	3067.86
456.91	2963.41
457.12	2914.26
457.32	3112.91
457.52	2768.85
457.73	3028.95
457.93	3080.14
458.14	2854.87
458.34	2729.94
458.54	2795.48
458.75	2838.48
458.95	3235.79
459.15	3135.44
459.36	2881.49
459.56	2840.53
459.76	3424.20
459.97	2996.18
460.17	2856.92
460.37	2916.31
460.58	3002.32
460.78	3100.62
460.99	2863.06
461.19	2779.09
461.39	2912.21
461.60	2987.99
461.80	2899.92
462.00	2736.09
462.21	2981.84
462.41	2793.43
462.61	2670.55
462.82	2684.89
463.02	3090.38
463.22	3016.66
463.43	2879.44
463.63	2783.19
463.83	3219.41
464.04	3051.47
464.24	2875.35
464.44	2781.14
464.64	3071.95
464.85	2992.08
465.05	2922.45
465.25	2824.15
465.46	2930.64
465.66	3057.62
465.86	3024.85
466.07	2803.67
466.27	2936.79
466.47	2799.57
466.68	2711.51
466.88	3020.75
467.08	3114.96
467.29	3131.34
467.49	2914.26
467.69	2879.44
467.89	3143.63
468.10	2975.70
468.30	2899.92
468.50	2955.22
468.71	3117.01
468.91	2766.81
469.11	3024.85
469.31	2914.26
469.52	2791.38
469.72	3237.84
469.92	3071.95
470.13	2787.29
470.33	3049.43
470.53	3049.43
470.73	3176.40
470.94	3522.51
471.14	3622.86
471.34	4104.13
471.54	3860.42
471.75	3530.70
471.95	3289.04
472.15	3231.69
472.36	3299.28
472.56	3258.32
472.76	3397.58
472.96	3299.28
473.17	3053.52
473.37	2965.46
473.57	2973.65
473.77	3055.57
473.98	2969.55
474.18	2789.33
474.38	3563.47
474.58	2869.20
474.79	2758.61
474.99	2992.08
475.19	3235.79
475.39	2867.16
475.60	2914.26
475.80	2760.66
476.00	2979.79
476.20	2920.40
476.41	2836.44
476.61	3006.42
476.81	3266.51
477.01	2799.57
477.21	2990.03
477.42	3028.95
477.62	2801.62
477.82	3082.19
478.02	2734.04
478.23	2944.98
478.43	2777.05
478.63	2949.08
478.83	2861.01
479.03	2873.30
479.24	3164.11
479.44	3317.71
479.64	2818.00
479.84	2652.12
480.04	2797.53
480.25	3155.92
480.45	2834.39
480.65	2795.48
480.85	3258.32
481.06	2916.31
481.26	3008.47
481.46	2865.11
481.66	3049.43
481.86	2834.39
482.06	3033.04
482.27	2891.73
482.47	2934.74
482.67	2998.23
482.87	2867.16
483.07	2947.03
483.28	2944.98
483.48	2895.83
483.68	2852.82
483.88	2738.13
484.08	2680.79
484.29	2797.53
484.49	2918.36
484.69	2699.22
484.89	3237.84
485.09	3139.54
485.29	2863.06
485.50	2951.12
485.70	2926.55
485.90	3170.26
486.10	2967.51
486.30	2838.48
486.50	3188.69
486.71	3026.90
486.91	2957.27
487.11	2961.36
487.31	2727.89
487.51	3065.81
487.71	2781.14
487.91	2807.77
488.12	2832.34
488.32	2648.02
488.52	2858.96
488.72	2596.82
488.92	2957.27
489.12	3207.12
489.32	3100.62
489.53	2920.40
489.73	2688.98
489.93	3205.07
490.13	2803.67
490.33	2715.61
490.53	2914.26
490.73	3227.60
490.94	2656.22
491.14	2924.50
491.34	3065.81
491.54	3110.86
491.74	3583.95
491.94	4229.06
492.14	4667.32
492.34	4626.36
492.54	4298.69
492.75	3778.50
492.95	3903.43
493.15	3639.24
493.35	3567.56
493.55	3416.01
493.75	3325.90
493.95	3540.94
494.15	3102.67
494.35	2977.75
494.56	2975.70
494.76	2936.79
494.96	2914.26
495.16	2729.94
495.36	2953.17
495.56	3026.90
495.76	2844.63
495.96	2885.59
496.16	2893.78
496.36	3352.52
496.56	2783.19
496.77	2912.21
496.97	2994.13
497.17	3258.32
497.37	2701.27
497.57	2979.79
497.77	3067.86
497.97	2846.68
498.17	2906.07
498.37	2836.44
498.57	3162.06
498.77	2959.31
498.97	3051.47
499.17	3217.36
499.38	2949.08
499.58	3018.71
499.78	3010.51
499.98	2971.60
500.18	2955.22
500.38	2865.11
500.58	3055.57
500.78	3407.82
500.98	5482.41
501.18	7286.67
501.38	8845.18
501.58	9600.88
501.78	9572.21
501.98	8001.41
502.18	6635.42
502.38	5810.09
502.58	5605.29
502.78	4962.23
502.98	4792.25
503.18	4528.06
503.38	4337.60
503.59	3680.20
503.79	3667.91
503.99	3348.43
504.19	3497.93
504.39	3497.93
504.59	3362.76
504.79	3221.45
504.99	3536.84
505.19	3182.54
505.39	2971.60
505.59	3209.17
505.79	3397.58
505.99	3078.10
506.19	2871.25
506.39	3051.47
506.59	2875.35
506.79	2910.16
506.99	3184.59
507.19	2832.34
507.39	3026.90
507.59	2781.14
507.79	2758.61
507.99	2879.44
508.19	2957.27
508.39	2942.93
508.59	2811.86
508.79	2996.18
508.99	3403.72
509.19	2897.88
509.39	2942.93
509.59	2797.53
509.79	2901.97
509.99	2992.08
510.19	2987.99
510.39	3024.85
510.59	3059.67
510.79	2820.05
510.99	2607.06
511.19	2807.77
511.39	3368.91
511.59	3125.20
511.79	3051.47
511.99	2811.86
512.19	3332.05
512.38	3047.38
512.58	2811.86
512.78	2856.92
512.98	3248.08
513.18	3231.69
513.38	2723.80
513.58	2889.68
513.78	2928.60
513.98	3039.19
514.18	2852.82
514.38	2795.48
514.58	3002.32
514.78	2852.82
514.98	2858.96
515.18	2893.78
515.38	2781.14
515.58	3276.75
515.78	2828.24
515.98	2809.81
516.18	3071.95
516.38	3084.24
516.57	2752.47
516.77	2803.67
516.97	3123.15
517.17	2887.64
517.37	2709.46
517.57	2871.25
517.77	2914.26
517.97	2861.01
518.17	2938.84
518.37	2748.37
518.57	2873.30
518.77	3008.47
518.97	2893.78
519.16	2930.64
519.36	3164.11
519.56	2863.06
519.76	2762.71
519.96	2904.02
520.16	3315.66
520.36	2824.15
520.56	3063.76
520.76	2815.96
520.96	2951.12
521.16	3248.08
521.35	3014.61
521.55	3004.37
521.75	2932.69
521.95	2906.07
522.15	2787.29
522.35	2748.37
522.55	2832.34
522.75	3069.91
522.95	2754.52
523.14	2701.27
523.34	3112.91
523.54	2908.12
523.74	2981.84
523.94	2861.01
524.14	2807.77
524.34	3033.04
524.54	3147.73
524.73	2781.14
524.93	3141.58
525.13	2998.23
525.33	2754.52
525.53	3045.33
525.73	3096.53
525.93	2971.60
526.13	2875.35
526.32	2822.10
526.52	3205.07
526.72	3074.00
526.92	2836.44
527.12	2834.39
527.32	2715.61
527.52	2981.84
527.71	2920.40
527.91	2815.96
528.11	2844.63
528.31	2947.03
528.51	2791.38
528.71	2957.27
528.90	3065.81
529.10	3071.95
529.30	2873.30
529.50	2588.63
529.70	3106.77
529.90	3045.33
530.09	2928.60
530.29	2658.26
530.49	2795.48
530.69	3450.83
530.89	3049.43
531.09	2938.84
531.28	2887.64
531.48	3262.41
531.68	2863.06
531.88	2922.45
532.08	3145.68
532.28	2912.21
532.47	2951.12
532.67	2953.17
532.87	3035.09
533.07	2885.59
533.27	2959.31
533.46	2910.16
533.66	2981.84
533.86	3014.61
534.06	2803.67
534.26	2885.59
534.45	2889.68
534.65	3110.86
534.85	2924.50
535.05	2785.24
535.25	3149.78
535.44	2723.80
535.64	2922.45
535.84	2805.72
536.04	2897.88
536.24	2865.11
536.43	2793.43
536.63	2807.77
536.83	2981.84
537.03	2914.26
537.22	2590.68
537.42	2664.41
537.62	3037.14
537.82	2899.92
538.02	3014.61
538.21	2979.79
538.41	3495.88
538.61	3084.24
538.81	2815.96
539.00	3006.42
539.20	2768.85
539.40	2918.36
539.60	2834.39
539.79	3100.62
539.99	2826.20
540.19	2813.91
540.39	2848.72
540.58	2840.53
540.78	3200.98
540.98	2932.69
541.18	3024.85
541.37	2873.30
541.57	2944.98
541.77	3018.71
541.97	2889.68
542.16	2641.88
542.36	2871.25
542.56	2875.35
542.76	3076.05
542.95	2987.99
543.15	3014.61
543.35	3051.47
543.54	2758.61
543.74	2779.09
543.94	3149.78
544.14	2951.12
544.33	3016.66
544.53	2830.29
544.73	2879.44
544.93	2844.63
545.12	2856.92
545.32	2863.06
545.52	2901.97
545.71	2820.05
545.91	2930.64
546.11	2861.01
546.30	2807.77
546.50	2877.40
546.70	2947.03
546.90	2846.68
547.09	2725.85
547.29	2949.08
547.49	3059.67
547.68	2869.20
547.88	2889.68
548.08	3022.80
548.27	3239.89
548.47	2797.53
548.67	2904.02
548.87	3086.29
549.06	2865.11
549.26	2846.68
549.46	2971.60
549.65	2936.79
549.85	2926.55
550.05	2897.88
550.24	2688.98
550.44	2969.55
550.64	2883.54
550.83	2967.51
551.03	3151.82
551.23	3123.15
551.42	2879.44
551.62	2887.64
551.82	3002.32
552.01	2973.65
552.21	3045.33
552.41	2891.73
552.60	3291.09
552.80	3039.19
553.00	2856.92
553.19	2832.34
553.39	3293.13
553.59	2754.52
553.78	3090.38
553.98	2846.68
554.17	2793.43
554.37	3024.85
554.57	2881.49
554.76	2731.99
554.96	2914.26
555.16	2942.93
555.35	2910.16
555.55	2949.08
555.75	3059.67
555.94	3082.19
556.14	2717.65
556.33	2899.92
556.53	2955.22
556.73	2924.50
556.92	2955.22
557.12	2863.06
557.32	3321.81
557.51	3139.54
557.71	2961.36
557.90	2998.23
558.10	3211.22
558.30	2998.23
558.49	2906.07
558.69	2869.20
558.88	3069.91
559.08	3065.81
559.28	2828.24
559.47	2879.44
559.67	3139.54
559.86	3309.52
560.06	2865.11
560.26	2856.92
560.45	3108.82
560.65	2942.93
560.84	3190.74
561.04	2832.34
561.24	3082.19
561.43	2791.38
561.63	3059.67
561.82	2975.70
562.02	3121.10
562.22	2818.00
562.41	2811.86
562.61	2822.10
562.80	2777.05
563.00	3411.92
563.19	2934.74
563.39	2920.40
563.59	3049.43
563.78	2766.81
563.98	2703.32
564.17	2844.63
564.37	2631.64
564.56	2904.02
564.76	2680.79
564.96	3004.37
565.15	3043.28
565.35	3358.67
565.54	2932.69
565.74	2904.02
565.93	3090.38
566.13	2981.84
566.32	2932.69
566.52	2977.75
566.71	2983.89
566.91	3180.50
567.11	2920.40
567.30	2803.67
567.50	3131.34
567.69	3057.62
567.89	2881.49
568.08	2760.66
568.28	2975.70
568.47	2775.00
568.67	2936.79
568.86	2799.57
569.06	3102.67
569.25	2901.97
569.45	2697.17
569.64	2840.53
569.84	2906.07
570.04	2947.03
570.23	2908.12
570.43	2840.53
570.62	2953.17
570.82	3192.78
571.01	2754.52
571.21	2811.86
571.40	2824.15
571.60	3203.02
571.79	2914.26
571.99	2858.96
572.18	2848.72
572.38	3090.38
572.57	2832.34
572.77	2961.36
572.96	3428.30
573.16	3006.42
573.35	2807.77
573.55	2977.75
573.74	3147.73
573.94	2942.93
574.13	2867.16
574.33	3055.57
574.52	3112.91
574.71	3022.80
574.91	2871.25
575.10	2699.22
575.30	2901.97
575.49	2783.19
575.69	2779.09
575.88	2799.57
576.08	3014.61
576.27	3157.97
576.47	2883.54
576.66	3016.66
576.86	3278.80
577.05	3078.10
577.25	2936.79
577.44	3026.90
577.64	2867.16
577.83	3151.82
578.02	2842.58
578.22	2957.27
578.41	3258.32
578.61	2959.31
578.80	2740.18
579.00	2883.54
579.19	3014.61
579.39	3043.28
579.58	2918.36
579.77	2942.93
579.97	3186.64
580.16	3213.26
580.36	3033.04
580.55	2953.17
580.75	3082.19
580.94	2973.65
581.13	3033.04
581.33	3061.71
581.52	2932.69
581.72	3364.81
581.91	2944.98
582.11	2844.63
582.30	3162.06
582.49	3024.85
582.69	3086.29
582.88	2914.26
583.08	3016.66
583.27	3225.55
583.47	2869.20
583.66	2838.48
583.85	2873.30
584.05	2959.31
584.24	2981.84
584.44	2938.84
584.63	3155.92
584.82	3260.37
585.02	3086.29
585.21	2987.99
585.41	3096.53
585.60	2975.70
585.79	3129.30
585.99	3188.69
586.18	3043.28
586.37	3919.81
586.57	5797.80
586.76	16699.14
586.96	35653.09
587.15	48278.82
587.34	56935.58
587.54	61146.20
587.73	54447.30
587.93	38935.98
588.12	29529.66
588.31	23948.95
588.51	21153.47
588.70	19506.90
588.89	17360.63
589.09	14374.69
589.28	12339.01
589.47	10071.91
589.67	7491.47
589.86	5984.16
590.06	4736.95
590.25	4114.37
590.44	3643.34
590.64	3276.75
590.83	3241.93
591.02	3223.50
591.22	2926.55
591.41	2973.65
591.60	3037.14
591.80	3532.75
591.99	2707.41
592.18	2895.83
592.38	3123.15
592.57	2926.55
592.76	2992.08
592.96	2916.31
593.15	2912.21
593.34	3147.73
593.54	2906.07
593.73	2979.79
593.92	3100.62
594.12	3045.33
594.31	2930.64
594.50	3047.38
594.70	3074.00
594.89	3411.92
595.08	2688.98
595.28	2996.18
595.47	3489.74
595.66	3194.83
595.86	2748.37
596.05	2707.41
596.24	2930.64
596.43	3254.22
596.63	3071.95
596.82	2983.89
597.01	3098.58
597.21	3311.57
597.40	2842.58
597.59	2949.08
597.79	2916.31
597.98	3086.29
598.17	2959.31
598.36	2959.31
598.56	3178.45
598.75	2867.16
598.94	2875.35
599.14	2924.50
599.33	2856.92
599.52	3190.74
599.71	2906.07
599.91	2854.87
600.10	3112.91
600.29	3008.47
600.48	2944.98
600.68	2977.75
600.87	3080.14
601.06	2887.64
601.26	2977.75
601.45	2985.94
601.64	2967.51
601.83	3280.85
602.03	2957.27
602.22	2768.85
602.41	3205.07
602.60	3356.62
602.80	2938.84
602.99	2955.22
603.18	2885.59
603.37	3030.99
603.57	2779.09
603.76	2881.49
603.95	3186.64
604.14	2885.59
604.34	2676.70
604.53	2856.92
604.72	3074.00
604.91	3162.06
605.10	2846.68
605.30	2746.33
605.49	3428.30
605.68	3125.20
605.87	2809.81
606.07	2674.65
606.26	3059.67
606.45	3033.04
606.64	2904.02
606.84	2772.95
607.03	3004.37
607.22	3188.69
607.41	2844.63
607.60	2768.85
607.80	3205.07
607.99	3035.09
608.18	2873.30
608.37	2908.12
608.56	2863.06
608.76	3196.88
608.95	2985.94
609.14	2879.44
609.33	3137.49
609.52	3293.13
609.72	2985.94
609.91	3004.37
610.10	2961.36
610.29	3186.64
610.48	2938.84
610.68	2906.07
610.87	2942.93
611.06	3035.09
611.25	2887.64
611.44	2957.27
611.63	2897.88
611.83	3174.35
612.02	2758.61
612.21	3016.66
612.40	2764.76
612.59	2707.41
612.79	2795.48
612.98	2891.73
613.17	3356.62
613.36	3039.19
613.55	2979.79
613.74	2877.40
613.93	3059.67
614.13	3067.86
614.32	2959.31
614.51	2936.79
614.70	2961.36
614.89	2920.40
615.08	3004.37
615.28	3330.00
615.47	2840.53
615.66	3043.28
615.85	2947.03
616.04	2969.55
616.23	2973.65
616.42	2963.41
616.62	2879.44
616.81	2926.55
617.00	3008.47
617.19	3076.05
617.38	2854.87
617.57	2922.45
617.76	3102.67
617.95	3108.82
618.15	2953.17
618.34	3102.67
618.53	2770.90
618.72	3184.59
618.91	3008.47
619.10	3026.90
619.29	2924.50
619.48	2924.50
619.68	2705.37
619.87	2777.05
620.06	2719.70
620.25	3110.86
620.44	2811.86
620.63	2793.43
620.82	2983.89
621.01	2918.36
621.20	2887.64
621.39	3016.66
621.59	2994.13
621.78	3018.71
621.97	2889.68
622.16	2992.08
622.35	3090.38
622.54	3127.25
622.73	2928.60
622.92	2621.40
623.11	3153.87
623.30	2934.74
623.49	3053.52
623.68	2754.52
623.88	3303.37
624.07	2805.72
624.26	2750.42
624.45	2848.72
624.64	2924.50
624.83	3057.62
625.02	2818.00
625.21	2934.74
625.40	3043.28
625.59	3223.50
625.78	2977.75
625.97	2971.60
626.16	3147.73
626.35	3114.96
626.54	2854.87
626.74	3041.23
626.93	2967.51
627.12	2967.51
627.31	2965.46
627.50	2818.00
627.69	3256.27
627.88	2840.53
628.07	2842.58
628.26	2678.74
628.45	2871.25
628.64	2830.29
628.83	2904.02
629.02	2699.22
629.21	3153.87
629.40	2994.13
629.59	2758.61
629.78	2809.81
629.97	3010.51
630.16	2949.08
630.35	2858.96
630.54	2904.02
630.73	2801.62
630.92	2873.30
631.11	2729.94
631.30	3014.61
631.49	3047.38
631.68	3006.42
631.87	2838.48
632.06	2770.90
632.25	3344.33
632.44	2992.08
632.63	2889.68
632.82	2850.77
633.01	2854.87
633.20	2918.36
633.39	2838.48
633.58	2727.89
633.77	3039.19
633.96	3096.53
634.15	3008.47
634.34	2850.77
634.53	3012.56
634.72	2797.53
634.91	2742.23
635.10	2850.77
635.29	3053.52
635.48	3016.66
635.67	2779.09
635.86	2725.85
636.05	3186.64
636.24	2928.60
636.43	2836.44
636.62	2920.40
636.81	2666.46
637.00	3104.72
637.19	2742.23
637.38	2856.92
637.57	2969.55
637.76	2893.78
637.95	3045.33
638.14	2805.72
638.33	3016.66
638.52	2961.36
638.71	2666.46
638.89	2703.32
639.08	3504.07
639.27	3123.15
639.46	3010.51
639.65	3416.01
639.84	3450.83
640.03	3551.18
640.22	3162.06
640.41	3246.03
640.60	3037.14
640.79	3160.02
640.98	2928.60
641.17	3033.04
641.36	3125.20
641.55	3108.82
641.74	2725.85
641.92	2832.34
642.11	2957.27
642.30	2922.45
642.49	2791.38
642.68	2877.40
642.87	3026.90
643.06	2979.79
643.25	2717.65
643.44	2772.95
643.63	3000.27
643.82	3176.40
644.00	2705.37
644.19	2893.78
644.38	2877.40
644.57	3172.30
644.76	2932.69
644.95	2918.36
645.14	2987.99
645.33	3022.80
645.52	2879.44
645.71	2672.60
645.89	2875.35
646.08	2981.84
646.27	2818.00
646.46	3069.91
646.65	2766.81
646.84	2916.31
647.03	2777.05
647.22	3049.43
647.40	2990.03
647.59	3008.47
647.78	2637.78
647.97	2770.90
648.16	2826.20
648.35	3192.78
648.54	3078.10
648.73	2883.54
648.91	3157.97
649.10	3002.32
649.29	2879.44
649.48	2770.90
649.67	3053.52
649.86	3055.57
650.05	2805.72
650.23	3067.86
650.42	2889.68
650.61	3186.64
650.80	3006.42
650.99	3157.97
651.18	3139.54
651.36	3198.93
651.55	2828.24
651.74	3024.85
651.93	2961.36
652.12	2930.64
652.31	2938.84
652.49	2922.45
652.68	2885.59
652.87	3205.07
653.06	2975.70
653.25	3090.38
653.44	2969.55
653.62	3192.78
653.81	2865.11
654.00	2873.30
654.19	3078.10
654.38	3438.54
654.56	2889.68
654.75	2820.05
654.94	3129.30
655.13	3000.27
655.32	2863.06
655.51	2840.53
655.69	2924.50
655.88	3043.28
656.07	2752.47
656.26	2938.84
656.45	2762.71
656.63	2981.84
656.82	2852.82
657.01	3151.82
657.20	2852.82
657.38	3190.74
657.57	2836.44
657.76	2729.94
657.95	3045.33
658.14	2844.63
658.32	2922.45
658.51	2723.80
658.70	3002.32
658.89	3012.56
659.08	2906.07
659.26	3155.92
659.45	2856.92
659.64	3026.90
659.83	2850.77
660.01	3172.30
660.20	3000.27
660.39	3268.56
660.58	2613.21
660.76	2912.21
660.95	2760.66
661.14	2975.70
661.33	2764.76
661.51	2818.00
661.70	2848.72
661.89	2987.99
662.08	2867.16
662.26	2623.45
662.45	2813.91
662.64	3336.14
662.83	2944.98
663.01	2688.98
663.20	2803.67
663.39	3260.37
663.58	2881.49
663.76	2818.00
663.95	3076.05
664.14	2813.91
664.32	2914.26
664.51	2736.09
664.70	2682.84
664.89	2957.27
665.07	2734.04
665.26	2996.18
665.45	2697.17
665.64	3106.77
665.82	2791.38
666.01	3033.04
666.20	2772.95
666.38	3180.50
666.57	3090.38
666.76	4796.34
666.95	11093.85
667.13	17475.32
667.32	21493.43
667.51	24118.93
667.69	25038.47
667.88	21094.08
668.07	15097.63
668.25	12871.48
668.44	11210.58
668.63	9557.87
668.81	8525.69
669.00	7417.74
669.19	6735.77
669.38	5795.75
669.56	5072.82
669.75	4384.70
669.94	3983.30
670.12	3401.68
670.31	3194.83
670.50	3084.24
670.68	3160.02
670.87	3117.01
671.06	2811.86
671.24	2979.79
671.43	3223.50
671.62	3067.86
671.80	2846.68
671.99	2973.65
672.18	3037.14
672.36	3082.19
672.55	3026.90
672.74	2926.55
672.92	2912.21
673.11	3102.67
673.29	2725.85
673.48	3041.23
673.67	2891.73
673.85	3157.97
674.04	2820.05
674.23	2936.79
674.41	3254.22
674.60	2879.44
674.79	2625.50
674.97	2715.61
675.16	3043.28
675.34	3135.44
675.53	2797.53
675.72	2928.60
675.90	3317.71
676.09	2934.74
676.28	2836.44
676.46	2629.59
676.65	3119.06
676.83	2861.01
677.02	2875.35
677.21	2895.83
677.39	2969.55
677.58	2910.16
677.77	2787.29
677.95	2756.57
678.14	2983.89
678.32	2852.82
678.51	2891.73
678.70	3198.93
678.88	2918.36
679.07	2963.41
679.25	2877.40
679.44	2852.82
679.63	2756.57
679.81	2996.18
680.00	3024.85
680.18	3039.19
680.37	3205.07
680.55	2979.79
680.74	2729.94
680.93	2625.50
681.11	3012.56
681.30	2949.08
681.48	2899.92
681.67	2869.20
681.85	3006.42
682.04	2844.63
682.23	3035.09
682.41	2973.65
682.60	2897.88
682.78	2928.60
682.97	2701.27
683.15	2955.22
683.34	2969.55
683.53	3264.46
683.71	2797.53
683.90	2918.36
684.08	3235.79
684.27	2871.25
684.45	2889.68
684.64	3008.47
684.82	3026.90
685.01	3033.04
685.19	2828.24
685.38	3200.98
685.57	2992.08
685.75	2844.63
685.94	2840.53
686.12	2789.33
686.31	2985.94
686.49	3164.11
686.68	2613.21
686.86	2973.65
687.05	2920.40
687.23	3325.90
687.42	2885.59
687.60	2756.57
687.79	3061.71
687.97	3178.45
688.16	2979.79
688.34	3078.10
688.53	2662.36
688.71	3088.34
688.90	3149.78
689.08	2934.74
689.27	2699.22
689.45	3168.21
689.64	3028.95
689.82	2914.26
690.01	3039.19
690.19	3049.43
690.38	2934.74
690.56	2957.27
690.75	2785.24
690.93	2838.48
691.12	2871.25
691.30	2895.83
691.49	2944.98
691.67	2961.36
691.86	3147.73
692.04	2922.45
692.23	2844.63
692.41	2940.88
692.60	3217.36
692.78	2987.99
692.97	2947.03
693.15	3018.71
693.34	3145.68
693.52	3082.19
693.71	2887.64
693.89	2906.07
694.08	2674.65
694.26	2983.89
694.44	3131.34
694.63	3094.48
694.81	2791.38
695.00	2842.58
695.18	3246.03
695.37	3401.68
695.55	2949.08
695.74	2906.07
695.92	2815.96
696.10	3229.65
696.29	2725.85
696.47	2822.10
696.66	2795.48
696.84	2822.10
697.03	2918.36
697.21	2994.13
697.40	4411.32
697.58	3162.06
697.76	2822.10
697.95	2795.48
698.13	2805.72
698.32	2918.36
698.50	2881.49
698.68	2854.87
698.87	3024.85
699.05	3176.40
699.24	2818.00
699.42	2826.20
699.61	2981.84
699.79	3022.80
699.97	2908.12
700.16	2717.65
700.34	2803.67
700.53	3047.38
700.71	3127.25
700.89	3043.28
701.08	2985.94
701.26	3043.28
701.45	3270.61
701.63	2830.29
701.81	2932.69
702.00	2824.15
702.18	2971.60
702.37	2815.96
702.55	3151.82
702.73	3090.38
702.92	2719.70
703.10	3121.10
703.28	3084.24
703.47	2854.87
703.65	3080.14
703.84	2961.36
704.02	2828.24
704.20	3219.41
704.39	2867.16
704.57	2865.11
704.75	3149.78
704.94	3082.19
705.12	2938.84
705.30	3475.40
705.49	6582.17
705.67	12894.01
705.86	18005.74
706.04	20524.74
706.22	22593.19
706.41	22210.22
706.59	16688.90
706.77	13059.90
706.96	11188.05
707.14	10420.06
707.32	8824.70
707.51	7870.34
707.69	6328.22
707.87	5459.88
708.06	4530.11
708.24	4030.40
708.42	3549.13
708.61	3717.06
708.79	3045.33
708.97	2996.18
709.16	3055.57
709.34	2967.51
709.52	2858.96
709.71	2899.92
709.89	3119.06
710.07	2795.48
710.26	2727.89
710.44	2944.98
710.62	3055.57
710.80	2932.69
710.99	2998.23
711.17	3022.80
711.35	2918.36
711.54	2885.59
711.72	3051.47
711.90	2893.78
712.09	2940.88
712.27	2834.39
712.45	2977.75
712.63	2889.68
712.82	3043.28
713.00	2969.55
713.18	3028.95
713.37	3059.67
713.55	3129.30
713.73	2992.08
713.91	2996.18
714.10	2926.55
714.28	3016.66
714.46	2977.75
714.65	2899.92
714.83	2928.60
715.01	2949.08
715.19	3016.66
715.38	2803.67
715.56	2914.26
715.74	2891.73
715.92	2801.62
716.11	3123.15
716.29	2695.13
716.47	2914.26
716.65	2967.51
716.84	2740.18
717.02	2891.73
717.20	2754.52
717.38	2828.24
717.57	2883.54
717.75	2910.16
717.93	2840.53
718.11	3080.14
718.30	2723.80
718.48	2906.07
718.66	3205.07
718.84	3145.68
719.03	2940.88
719.21	2707.41
719.39	3297.23
719.57	3086.29
719.75	3057.62
719.94	2748.37
720.12	2869.20
720.30	2979.79
720.48	2965.46
720.67	2840.53
720.85	2785.24
721.03	2887.64
721.21	2850.77
721.39	2908.12
721.58	3051.47
721.76	2940.88
721.94	2899.92
722.12	2953.17
722.30	3274.70
722.49	2879.44
722.67	2914.26
722.85	2940.88
723.03	2688.98
723.21	2942.93
723.40	2924.50
723.58	2971.60
723.76	3096.53
723.94	3203.02
724.12	2854.87
724.30	3164.11
724.49	3065.81
724.67	2836.44
724.85	2965.46
725.03	2742.23
725.21	3074.00
725.40	3176.40
725.58	2824.15
725.76	3055.57
725.94	3049.43
726.12	2783.19
726.30	2940.88
726.49	2865.11
726.67	2965.46
726.85	3026.90
727.03	3409.87
727.21	4382.65
727.39	5535.66
727.57	5851.05
727.76	6195.11
727.94	6379.42
728.12	5582.76
728.30	4644.79
728.48	4474.81
728.66	4126.66
728.84	3848.13
729.03	3532.75
729.21	3354.57
729.39	3164.11
729.57	3074.00
729.75	3024.85
729.93	2963.41
730.11	2783.19
730.30	2897.88
730.48	2998.23
730.66	3004.37
730.84	2955.22
731.02	3008.47
731.20	2914.26
731.38	2865.11
731.56	2746.33
731.74	2803.67
731.93	2985.94
732.11	2897.88
732.29	2846.68
732.47	3065.81
732.65	3061.71
732.83	3039.19
733.01	2963.41
733.19	2861.01
733.37	3061.71
733.56	2916.31
733.74	2768.85
733.92	3301.33
734.10	2818.00
734.28	3088.34
734.46	2639.83
734.64	2949.08
734.82	3071.95
735.00	2820.05
735.18	2846.68
735.36	3002.32
735.54	2944.98
735.73	2861.01
735.91	3030.99
736.09	3225.55
736.27	2973.65
736.45	2981.84
736.63	2695.13
736.81	2918.36
736.99	3139.54
737.17	3166.16
737.35	2877.40
737.53	2961.36
737.71	2936.79
737.89	3084.24
738.07	2744.28
738.25	2850.77
738.43	2742.23
738.61	2838.48
738.80	2748.37
738.98	2748.37
739.16	2873.30
739.34	2844.63
739.52	3182.54
739.70	2891.73
739.88	3074.00
740.06	2979.79
740.24	2666.46
740.42	3190.74
740.60	2744.28
740.78	2848.72
740.96	2633.69
741.14	2947.03
741.32	2983.89
741.50	2676.70
741.68	3094.48
741.86	3237.84
742.04	2850.77
742.22	2766.81
742.40	2858.96
742.58	3057.62
742.76	2762.71
742.94	3088.34
743.12	2682.84
743.30	2942.93
743.48	3123.15
743.66	2811.86
743.84	2813.91
744.02	2969.55
744.20	3051.47
744.38	2727.89
744.56	2744.28
744.74	3297.23
744.92	3004.37
745.10	3057.62
745.28	2910.16
745.46	3305.42
745.64	2887.64
745.82	2996.18
746.00	2824.15
746.18	3041.23
746.36	2844.63
746.54	2889.68
746.72	2924.50
746.90	2844.63
747.08	3182.54
747.26	2832.34
747.44	2942.93
747.62	3088.34
747.80	3006.42
747.98	2926.55
748.15	2818.00
748.33	3254.22
748.51	3020.75
748.69	2885.59
748.87	2729.94
749.05	2985.94
749.23	2924.50
749.41	2836.44
749.59	2854.87
749.77	3110.86
749.95	2873.30
750.13	2867.16
750.31	2971.60
750.49	2965.46
750.67	3143.63
750.85	3002.32
751.03	2828.24
751.20	3293.13
751.38	2955.22
751.56	2881.49
751.74	2863.06
751.92	2924.50
752.10	2826.20
752.28	3094.48
752.46	2785.24
752.64	2967.51
752.82	3008.47
753.00	2985.94
753.18	2803.67
753.35	2850.77
753.53	3047.38
753.71	2775.00
753.89	2904.02
754.07	2990.03
754.25	3160.02
754.43	2965.46
754.61	2746.33
754.79	3051.47
754.97	2912.21
755.14	3035.09
755.32	2707.41
755.50	2994.13
755.68	3037.14
755.86	2744.28
756.04	2822.10
756.22	2699.22
756.40	3145.68
756.57	3110.86
756.75	2801.62
756.93	3301.33
757.11	3215.31
757.29	2736.09
757.47	2789.33
757.65	2768.85
757.82	2658.26
758.00	2766.81
758.18	2760.66
758.36	2861.01
758.54	3264.46
758.72	2641.88
758.90	3069.91
759.07	3106.77
759.25	2869.20
759.43	2908.12
759.61	2752.47
759.79	4239.30
759.97	3127.25
760.15	2922.45
760.32	2850.77
760.50	3059.67
760.68	3219.41
760.86	2760.66
761.04	3063.76
761.22	3100.62
761.39	2973.65
761.57	2955.22
761.75	2897.88
761.93	3088.34
762.11	2875.35
762.28	2971.60
762.46	2842.58
762.64	3162.06
762.82	2789.33
763.00	2869.20
763.18	3051.47
763.35	2738.13
763.53	3010.51
763.71	2914.26
763.89	2811.86
764.07	3039.19
764.24	2947.03
764.42	2977.75
764.60	2846.68
764.78	3114.96
764.96	3094.48
765.13	2992.08
765.31	2779.09
765.49	3061.71
765.67	2838.48
765.84	2836.44
766.02	2752.47
766.20	2797.53
766.38	3108.82
766.56	2926.55
766.73	2951.12
766.91	3012.56
767.09	2977.75
767.27	2895.83
767.44	2744.28
767.62	3106.77
767.80	2947.03
767.98	2781.14
768.15	2863.06
768.33	3096.53
768.51	3110.86
768.69	3028.95
768.87	2971.60
769.04	3022.80
769.22	3401.68
769.40	3078.10
769.58	3076.05
769.75	3045.33
769.93	3078.10
770.11	2873.30
770.28	2818.00
770.46	3135.44
770.64	3133.39
770.82	2858.96
770.99	2826.20
771.17	3076.05
771.35	2908.12
771.53	2936.79
771.70	2820.05
771.88	3076.05
772.06	3037.14
772.23	2850.77
772.41	2983.89
772.59	2953.17
772.77	2854.87
772.94	2858.96
773.12	3004.37
773.30	2973.65
773.47	2975.70
773.65	2822.10
773.83	3022.80
774.01	3000.27
774.18	2680.79
774.36	2848.72
774.54	2766.81
774.71	3065.81
774.89	2795.48
775.07	2746.33
775.24	2766.81
775.42	2912.21
775.60	3237.84
775.78	2760.66
775.95	2693.08
776.13	2729.94
776.31	2674.65
776.48	3018.71
776.66	2994.13
776.84	3008.47
777.01	2811.86
777.19	2801.62
777.37	2856.92
777.54	3110.86
777.72	3256.27
777.90	2977.75
778.07	2703.32
778.25	3551.18
778.43	3094.48
778.60	2775.00
778.78	2928.60
778.96	3241.93
779.13	2768.85
779.31	2967.51
779.49	2834.39
779.66	3024.85
779.84	2918.36
780.01	2826.20
780.19	2729.94
780.37	3235.79
780.54	3082.19
780.72	2717.65
780.90	2854.87
781.07	2983.89
781.25	2865.11
781.43	3020.75
781.60	2858.96
781.78	3145.68
781.95	2955.22
782.13	2723.80
782.31	2893.78
782.48	2672.60
782.66	2889.68
782.83	3149.78
783.01	2934.74
783.19	3143.63
783.36	2938.84
783.54	2731.99
783.72	2934.74
783.89	2901.97
784.07	3063.76
784.24	2891.73
784.42	2992.08
784.60	3004.37
784.77	3065.81
784.95	2623.45
785.12	2832.34
785.30	3037.14
785.47	2813.91
785.65	2748.37
785.83	2912.21
786.00	2834.39
786.18	3076.05
786.35	2754.52
786.53	2803.67
786.71	3008.47
786.88	3086.29
787.06	2856.92
787.23	2961.36
787.41	2822.10
787.58	2922.45
787.76	2742.23
787.94	2842.58
788.11	3016.66
788.29	2752.47
788.46	2826.20
788.64	2701.27
788.81	2928.60
788.99	2820.05
789.16	2815.96
789.34	2887.64
789.52	2856.92
789.69	2854.87
789.87	2674.65
790.04	2852.82
790.22	2979.79
790.39	3266.51
790.57	2705.37
790.74	2740.18
790.92	3119.06
791.09	2785.24
791.27	2930.64
791.44	3008.47
791.62	2926.55
791.79	3123.15
791.97	2875.35
792.15	3254.22
792.32	3123.15
792.50	3125.20
792.67	3000.27
792.85	3061.71
793.02	3041.23
793.20	2916.31
793.37	2760.66
793.55	2852.82
793.72	2729.94
793.90	3088.34
794.07	2777.05
794.25	2779.09
794.42	3045.33
794.60	2887.64
794.77	2975.70
794.95	2953.17
795.12	3071.95
795.30	2973.65
795.47	2664.41
795.65	3194.83
795.82	2987.99
796.00	2820.05
796.17	2865.11
796.34	2818.00
796.52	3135.44
796.69	3086.29
796.87	3026.90
797.04	2936.79
797.22	3108.82
797.39	2928.60
797.57	3006.42
797.74	2947.03
797.92	2990.03
798.09	2807.77
798.27	3080.14
798.44	2906.07
798.62	2940.88
798.79	2942.93
798.96	2969.55
799.14	2858.96
799.31	3399.63
799.49	2920.40
799.66	2826.20
799.84	2924.50
800.01	2719.70
800.19	3051.47
800.36	2598.87
800.53	2904.02
800.71	3078.10
800.88	3174.35
801.06	2791.38
801.23	2766.81
801.41	2875.35
801.58	2789.33
801.75	2834.39
801.93	2906.07
802.10	3166.16
802.28	2897.88
802.45	2871.25
802.63	3018.71
802.80	3200.98
802.97	2944.98
803.15	2867.16
803.32	2856.92
803.50	2854.87
803.67	2887.64
803.84	2740.18
804.02	2953.17
804.19	2922.45
804.37	2613.21
804.54	2688.98
804.71	2787.29
804.89	2955.22
805.06	2820.05
805.24	2783.19
805.41	2723.80
805.58	2895.83
805.76	3401.68
805.93	2867.16
806.10	3028.95
806.28	3082.19
806.45	2998.23
806.63	2924.50
806.80	2924.50
806.97	3043.28
807.15	3037.14
807.32	2981.84
807.49	2887.64
807.67	2811.86
807.84	2981.84
808.01	2711.51
808.19	3016.66
808.36	3311.57
808.54	2942.93
808.71	2840.53
808.88	2828.24
809.06	3213.26
809.23	3248.08
809.40	2850.77
809.58	2877.40
809.75	3010.51
809.92	2731.99
810.10	3117.01
810.27	2869.20
810.44	3057.62
810.62	3082.19
810.79	2891.73
810.96	2789.33
811.14	2895.83
811.31	3127.25
811.48	3026.90
811.66	2844.63
811.83	3094.48
812.00	3024.85
812.18	2904.02
812.35	3180.50
812.52	2881.49
812.69	2861.01
812.87	2881.49
813.04	2809.81
813.21	2897.88
813.39	2844.63
813.56	2787.29
813.73	3008.47
813.91	2742.23
814.08	3020.75
814.25	2879.44
814.42	2699.22
814.60	2889.68
814.77	2983.89
814.94	2824.15
815.12	2938.84
815.29	3270.61
815.46	2775.00
815.63	2953.17
815.81	2813.91
815.98	2938.84
816.15	2934.74
816.33	2836.44
816.50	2856.92
816.67	3016.66
816.84	2990.03
817.02	2736.09
817.19	2891.73
817.36	3067.86
817.53	3057.62
817.71	2791.38
817.88	2899.92
818.05	3002.32
818.22	3018.71
818.40	3053.52
818.57	2779.09
818.74	3035.09
818.91	2918.36
819.09	2977.75
819.26	3010.51
819.43	2820.05
819.60	2930.64
819.78	2996.18
819.95	2940.88
820.12	2803.67
820.29	3274.70
820.47	3082.19
820.64	2822.10
820.81	2758.61
820.98	2813.91
821.15	2785.24
821.33	3008.47
821.50	2715.61
821.67	2967.51
821.84	2731.99
822.02	2949.08
822.19	3057.62
822.36	2947.03
822.53	2818.00
822.70	2748.37
822.88	2924.50
823.05	3248.08
823.22	2981.84
823.39	2904.02
823.56	3049.43
823.74	3325.90
823.91	2672.60
824.08	2789.33
824.25	2803.67
824.42	3203.02
824.60	2727.89
824.77	2936.79
824.94	2889.68
825.11	3035.09
825.28	2766.81
825.45	3006.42
825.63	2998.23
825.80	2807.77
825.97	3018.71
826.14	2852.82
826.31	2713.56
826.48	3133.39
826.66	2748.37
826.83	2758.61
827.00	2969.55
827.17	2822.10
827.34	2873.30
827.51	2789.33
827.69	3049.43
827.86	2701.27
828.03	2893.78
828.20	2891.73
828.37	2785.24
828.54	3020.75
828.71	2754.52
828.89	2969.55
829.06	3004.37
829.23	3233.74
829.40	2768.85
829.57	2893.78
829.74	3129.30
829.91	3002.32
830.09	2848.72
830.26	2940.88
830.43	3211.22
830.60	2869.20
830.77	2953.17
830.94	3092.43
831.11	3129.30
831.28	2887.64
831.46	3037.14
831.63	2861.01
831.80	3139.54
831.97	2867.16
832.14	2846.68
832.31	2869.20
832.48	3004.37
832.65	3168.21
832.82	2969.55
832.99	2914.26
833.17	2834.39
833.34	3176.40
833.51	2928.60
833.68	2617.30
833.85	3055.57
834.02	2842.58
834.19	2754.52
834.36	2768.85
834.53	2963.41
834.70	3108.82
834.87	2885.59
835.04	2672.60
835.22	2877.40
835.39	2861.01
835.56	2713.56
835.73	2729.94
835.90	3143.63
836.07	2770.90
836.24	2871.25
836.41	2721.75
836.58	2820.05
836.75	3172.30
836.92	2742.23
837.09	2705.37
837.26	3065.81
837.43	3094.48
837.60	2775.00
837.77	2701.27
837.94	3180.50
838.12	3155.92
838.29	2715.61
838.46	2600.92
838.63	2754.52
838.80	3280.85
838.97	2791.38
839.14	2719.70
839.31	3016.66
839.48	3104.72
839.65	2783.19
839.82	2828.24
839.99	2951.12
840.16	2959.31
840.33	2705.37
840.50	2740.18
840.67	2824.15
840.84	2549.72
841.01	2643.93
841.18	2635.74
841.35	2953.17
841.52	3069.91
841.69	3069.91
841.86	2805.72
842.03	2955.22
842.20	3137.49
842.37	2731.99
842.54	2858.96
842.71	2967.51
842.88	2736.09
843.05	2725.85
843.22	2723.80
843.39	3123.15
843.56	2846.68
843.73	2682.84
843.90	2781.14
844.07	2969.55
844.24	3049.43
844.41	2766.81
844.58	2701.27
844.75	2920.40
844.92	3074.00
845.09	2742.23
845.26	2742.23
845.43	3110.86
845.60	2895.83
845.77	2924.50
845.94	2787.29
846.10	3119.06
846.27	2742.23
846.44	2633.69
846.61	2602.97
846.78	3112.91
846.95	3088.34
847.12	2727.89
847.29	2752.47
847.46	2803.67
847.63	3119.06
847.80	2699.22
847.97	2799.57
848.14	3327.95
848.31	2938.84
848.48	2670.55
848.65	2783.19
848.82	2875.35
848.98	3397.58
849.15	2832.34
849.32	2885.59
849.49	3145.68
849.66	2936.79
849.83	2676.70
850.00	2658.26
850.17	3026.90
850.34	2916.31
850.51	2703.32
850.68	2779.09
850.85	3282.89
851.01	2934.74
851.18	2795.48
851.35	2770.90
851.52	3008.47
851.69	3282.89
851.86	2643.93
852.03	2738.13
852.20	3057.62
852.37	2951.12
852.53	2566.10
852.70	2670.55
852.87	2955.22
853.04	3090.38
853.21	2725.85
853.38	2959.31
853.55	3194.83
853.72	3110.86
853.89	2617.30
854.05	2760.66
854.22	2947.03
854.39	2881.49
854.56	2699.22
854.73	2818.00
854.90	2758.61
855.07	2971.60
855.23	2676.70
855.40	2736.09
855.57	2944.98
855.74	2648.02
855.91	2965.46
856.08	2531.29
856.25	2734.04
856.41	2881.49
856.58	2787.29
856.75	2834.39
856.92	2762.71
857.09	3127.25
857.26	2641.88
857.42	2805.72
857.59	3131.34
857.76	2934.74
857.93	2734.04
858.10	2813.91
858.27	2803.67
858.43	3096.53
858.60	2691.03
858.77	2629.59
858.94	2805.72
859.11	3145.68
859.27	2775.00
859.44	2719.70
859.61	3338.19
859.78	3051.47
859.95	2736.09
860.12	2627.54
860.28	3313.61
860.45	3311.57
860.62	2734.04
860.79	2813.91
860.95	2873.30
861.12	2836.44
861.29	2576.34
861.46	2705.37
861.63	2856.92
861.79	3020.75
861.96	2625.50
862.13	2621.40
862.30	3262.41
862.47	2838.48
862.63	2654.17
862.80	2705.37
862.97	3108.82
863.14	3084.24
863.30	2713.56
863.47	2719.70
863.64	3342.28
863.81	3059.67
863.97	2725.85
864.14	2762.71
864.31	2938.84
864.48	3006.42
864.65	2625.50
864.81	2828.24
864.98	3084.24
865.15	3108.82
865.32	2852.82
865.48	2762.71
865.65	3256.27
865.82	2846.68
865.98	2787.29
866.15	2813.91
866.32	2979.79
866.49	2889.68
866.65	2912.21
866.82	2754.52
866.99	2942.93
867.16	2793.43
867.32	2691.03
867.49	2654.17
867.66	2879.44
867.83	2914.26
867.99	2623.45
868.16	2734.04
868.33	2744.28
868.49	2928.60
868.66	2719.70
868.83	2813.91
868.99	3006.42
869.16	3035.09
869.33	2848.72
869.50	2787.29
869.66	3020.75
869.83	2928.60
870.00	2617.30
870.16	2881.49
870.33	2916.31
870.50	3133.39
870.66	2834.39
870.83	2822.10
871.00	2971.60
871.17	3041.23
871.33	2727.89
871.50	2729.94
871.67	2928.60
871.83	2998.23
872.00	2889.68
872.17	2715.61
872.33	3166.16
872.50	3221.45
872.67	2695.13
872.83	2711.51
873.00	3028.95
873.17	2963.41
873.33	2775.00
873.50	2832.34
873.67	2936.79
873.83	2822.10
874.00	2707.41
874.16	2836.44
874.33	2973.65
874.50	2805.72
874.66	2662.36
874.83	2791.38
875.00	3053.52
875.16	3065.81
875.33	2809.81
875.50	2613.21
875.66	2904.02
875.83	3016.66
875.99	2838.48
876.16	2764.76
876.33	2830.29
876.49	2947.03
876.66	2738.13
876.83	2844.63
876.99	2713.56
877.16	2971.60
877.32	2766.81
877.49	2848.72
877.66	3094.48
877.82	3289.04
877.99	2858.96
878.15	2996.18
878.32	2979.79
878.49	3024.85
878.65	2744.28
878.82	3026.90
878.98	2854.87
879.15	3084.24
879.32	2828.24
879.48	2897.88
879.65	2883.54
879.81	2967.51
879.98	2756.57
880.15	2775.00
880.31	3088.34
880.48	2779.09
880.64	2875.35
880.81	2865.11
880.97	3252.17
881.14	3184.59
881.31	2635.74
881.47	2936.79
881.64	2875.35
881.80	2746.33
881.97	2883.54
882.13	2820.05
882.30	2740.18
882.47	2889.68
882.63	2772.95
882.80	2676.70
882.96	2875.35
883.13	3172.30
883.29	2752.47
883.46	2705.37
883.62	3370.96
883.79	3026.90
883.95	2920.40
884.12	2705.37
884.29	3157.97
884.45	2998.23
884.62	2746.33
884.78	2748.37
884.95	3252.17
885.11	2809.81
885.28	2863.06
885.44	2795.48
885.61	3051.47
885.77	3219.41
885.94	2906.07
886.10	2727.89
886.27	3022.80
886.43	3231.69
886.60	2850.77
886.76	2795.48
886.93	2770.90
887.09	3041.23
887.26	2631.64
887.42	2785.24
887.59	3141.58
887.75	3385.29
887.92	2910.16
888.08	2877.40
888.25	3207.12
888.41	3039.19
888.58	2805.72
888.74	2639.83
888.91	2893.78
>>>>>End Processed Spectral Data<<<<<
