SpectraSuite Data File
++++++++++++++++++++++++++++++++++++
Date: Tue May 03 12:55:02 CEST 2016
User: root
Dark Spectrum Present: No
Reference Spectrum Present: No
Number of Sampled Component Spectra: 1
Spectrometers: USB4C02835
Integration Time (usec): 100000 (USB4C02835)
Spectra Averaged: 1 (USB4C02835)
Boxcar Smoothing: 0 (USB4C02835)
Correct for Electrical Dark: No (USB4C02835)
Strobe/Lamp Enabled: No (USB4C02835)
Correct for Detector Non-linearity: No (USB4C02835)
Correct for Stray Light: No (USB4C02835)
Number of Pixels in Processed Spectrum: 3648
>>>>>Begin Processed Spectral Data<<<<<
177.47	1345.52
177.69	1345.52
177.91	1345.52
178.13	1359.85
178.36	1322.99
178.58	1517.54
178.80	1529.83
179.02	1544.17
179.24	1495.02
179.46	1581.03
179.68	1533.93
179.90	1560.55
180.13	1578.98
180.35	1488.87
180.57	1460.20
180.79	1521.64
181.01	1578.98
181.23	1611.75
181.45	1644.52
181.67	1476.59
181.90	1564.65
182.12	1515.50
182.34	1501.16
182.56	1558.50
182.78	1566.70
183.00	1578.98
183.22	1583.08
183.44	1435.63
183.66	1619.94
183.89	1597.42
184.11	1507.30
184.33	1521.64
184.55	1654.76
184.77	1523.69
184.99	1529.83
185.21	1517.54
185.43	1583.08
185.65	1497.07
185.87	1533.93
186.10	1642.47
186.32	1640.42
186.54	1546.22
186.76	1552.36
186.98	1624.04
187.20	1552.36
187.42	1505.26
187.64	1527.78
187.86	1597.42
188.08	1523.69
188.30	1517.54
188.52	1478.63
188.75	1597.42
188.97	1581.03
189.19	1548.26
189.41	1509.35
189.63	1540.07
189.85	1509.35
190.07	1443.82
190.29	1462.25
190.51	1576.94
190.73	1484.78
190.95	1613.80
191.17	1499.11
191.39	1513.45
191.61	1499.11
191.84	1546.22
192.06	1501.16
192.28	1421.29
192.50	1748.97
192.72	1529.83
192.94	1593.32
193.16	1558.50
193.38	1488.87
193.60	1505.26
193.82	1445.87
194.04	1570.79
194.26	1552.36
194.48	1617.90
194.70	1476.59
194.92	1462.25
195.14	1517.54
195.36	1464.30
195.58	1556.46
195.80	1619.94
196.02	1499.11
196.24	1570.79
196.46	1525.74
196.69	1546.22
196.91	1632.23
197.13	1548.26
197.35	1435.63
197.57	1599.46
197.79	1574.89
198.01	1576.94
198.23	1542.12
198.45	1527.78
198.67	1443.82
198.89	1525.74
199.11	1552.36
199.33	1468.39
199.55	1470.44
199.77	1558.50
199.99	1560.55
200.21	1484.78
200.43	1556.46
200.65	1538.02
200.87	1452.01
201.09	1499.11
201.31	1501.16
201.53	1578.98
201.75	1564.65
201.97	1548.26
202.19	1535.98
202.41	1570.79
202.63	1595.37
202.85	1558.50
203.07	1511.40
203.29	1474.54
203.51	1460.20
203.73	1456.11
203.95	1644.52
204.17	1634.28
204.39	1495.02
204.61	1490.92
204.83	1554.41
205.05	1583.08
205.27	1583.08
205.49	1624.04
205.71	1478.63
205.93	1513.45
206.15	1546.22
206.37	1529.83
206.59	1523.69
206.81	1474.54
207.03	1521.64
207.25	1417.19
207.47	1550.31
207.69	1521.64
207.91	1576.94
208.13	1597.42
208.34	1480.68
208.56	1452.01
208.78	1554.41
209.00	1527.78
209.22	1492.97
209.44	1529.83
209.66	1568.74
209.88	1511.40
210.10	1550.31
210.32	1511.40
210.54	1542.12
210.76	1505.26
210.98	1556.46
211.20	1427.43
211.42	1558.50
211.64	1574.89
211.86	1581.03
212.08	1564.65
212.30	1554.41
212.52	1492.97
212.74	1581.03
212.96	1513.45
213.17	1591.27
213.39	1499.11
213.61	1630.18
213.83	1509.35
214.05	1486.83
214.27	1583.08
214.49	1515.50
214.71	1517.54
214.93	1531.88
215.15	1550.31
215.37	1503.21
215.59	1429.48
215.81	1480.68
216.03	1558.50
216.24	1511.40
216.46	1538.02
216.68	1533.93
216.90	1480.68
217.12	1497.07
217.34	1603.56
217.56	1581.03
217.78	1583.08
218.00	1578.98
218.22	1562.60
218.44	1519.59
218.66	1511.40
218.87	1554.41
219.09	1515.50
219.31	1611.75
219.53	1546.22
219.75	1527.78
219.97	1501.16
220.19	1527.78
220.41	1492.97
220.63	1585.13
220.85	1609.70
221.06	1472.49
221.28	1583.08
221.50	1572.84
221.72	1533.93
221.94	1511.40
222.16	1581.03
222.38	1535.98
222.60	1556.46
222.82	1535.98
223.03	1576.94
223.25	1554.41
223.47	1626.09
223.69	1648.61
223.91	1617.90
224.13	1593.32
224.35	1501.16
224.57	1544.17
224.78	1529.83
225.00	1552.36
225.22	1495.02
225.44	1523.69
225.66	1578.98
225.88	1460.20
226.10	1603.56
226.32	1558.50
226.53	1619.94
226.75	1486.83
226.97	1574.89
227.19	1564.65
227.41	1519.59
227.63	1466.35
227.85	1509.35
228.06	1490.92
228.28	1540.07
228.50	1525.74
228.72	1521.64
228.94	1499.11
229.16	1447.91
229.37	1576.94
229.59	1517.54
229.81	1589.22
230.03	1505.26
230.25	1490.92
230.47	1468.39
230.69	1462.25
230.90	1544.17
231.12	1562.60
231.34	1511.40
231.56	1613.80
231.78	1472.49
232.00	1583.08
232.21	1495.02
232.43	1464.30
232.65	1445.87
232.87	1564.65
233.09	1558.50
233.30	1531.88
233.52	1611.75
233.74	1529.83
233.96	1480.68
234.18	1560.55
234.40	1523.69
234.61	1628.14
234.83	1474.54
235.05	1466.35
235.27	1621.99
235.49	1644.52
235.70	1585.13
235.92	1630.18
236.14	1585.13
236.36	1728.49
236.58	1509.35
236.79	1621.99
237.01	1529.83
237.23	1517.54
237.45	1693.67
237.67	1501.16
237.88	1513.45
238.10	1634.28
238.32	1548.26
238.54	1521.64
238.76	1511.40
238.97	1564.65
239.19	1417.19
239.41	1644.52
239.63	1583.08
239.85	1529.83
240.06	1544.17
240.28	1560.55
240.50	1615.85
240.72	1517.54
240.93	1474.54
241.15	1560.55
241.37	1519.59
241.59	1595.37
241.81	1515.50
242.02	1519.59
242.24	1583.08
242.46	1556.46
242.68	1521.64
242.89	1533.93
243.11	1595.37
243.33	1484.78
243.55	1548.26
243.76	1609.70
243.98	1495.02
244.20	1544.17
244.42	1531.88
244.64	1601.51
244.85	1540.07
245.07	1558.50
245.29	1648.61
245.51	1501.16
245.72	1568.74
245.94	1613.80
246.16	1591.27
246.38	1540.07
246.59	1533.93
246.81	1517.54
247.03	1480.68
247.24	1470.44
247.46	1509.35
247.68	1583.08
247.90	1495.02
248.11	1542.12
248.33	1562.60
248.55	1452.01
248.77	1497.07
248.98	1538.02
249.20	1624.04
249.42	1519.59
249.64	1533.93
249.85	1492.97
250.07	1572.84
250.29	1525.74
250.50	1595.37
250.72	1509.35
250.94	1531.88
251.16	1589.22
251.37	1605.61
251.59	1478.63
251.81	1574.89
252.02	1560.55
252.24	1562.60
252.46	1562.60
252.68	1441.77
252.89	1474.54
253.11	1445.87
253.33	1615.85
253.54	1609.70
253.76	1570.79
253.98	1558.50
254.20	1515.50
254.41	1484.78
254.63	1490.92
254.85	1470.44
255.06	1548.26
255.28	1437.67
255.50	1515.50
255.71	1535.98
255.93	1486.83
256.15	1454.06
256.36	1517.54
256.58	1531.88
256.80	1550.31
257.02	1472.49
257.23	1482.73
257.45	1513.45
257.67	1531.88
257.88	1517.54
258.10	1529.83
258.32	1511.40
258.53	1529.83
258.75	1529.83
258.97	1480.68
259.18	1589.22
259.40	1511.40
259.62	1570.79
259.83	1593.32
260.05	1517.54
260.27	1757.16
260.48	1495.02
260.70	1505.26
260.92	1452.01
261.13	1517.54
261.35	1511.40
261.57	1587.18
261.78	1452.01
262.00	1488.87
262.22	1531.88
262.43	1501.16
262.65	1505.26
262.86	1533.93
263.08	1636.33
263.30	1513.45
263.51	1454.06
263.73	1542.12
263.95	1607.66
264.16	1527.78
264.38	1497.07
264.60	1583.08
264.81	1550.31
265.03	1587.18
265.25	1519.59
265.46	1519.59
265.68	1564.65
265.89	1533.93
266.11	1548.26
266.33	1576.94
266.54	1527.78
266.76	1562.60
266.98	1529.83
267.19	1542.12
267.41	1527.78
267.62	1542.12
267.84	1468.39
268.06	1574.89
268.27	1538.02
268.49	1554.41
268.70	1529.83
268.92	1562.60
269.14	1482.73
269.35	1503.21
269.57	1548.26
269.79	1546.22
270.00	1503.21
270.22	1611.75
270.43	1480.68
270.65	1478.63
270.87	1540.07
271.08	1624.04
271.30	1603.56
271.51	1546.22
271.73	1615.85
271.95	1589.22
272.16	1556.46
272.38	1574.89
272.59	1480.68
272.81	1568.74
273.02	1636.33
273.24	1523.69
273.46	1595.37
273.67	1490.92
273.89	1525.74
274.10	1519.59
274.32	1583.08
274.54	1550.31
274.75	1468.39
274.97	1519.59
275.18	1533.93
275.40	1558.50
275.61	1538.02
275.83	1554.41
276.05	1525.74
276.26	1572.84
276.48	1587.18
276.69	1517.54
276.91	1525.74
277.12	1667.05
277.34	1568.74
277.55	1519.59
277.77	1544.17
277.99	1443.82
278.20	1462.25
278.42	1456.11
278.63	1525.74
278.85	1456.11
279.06	1452.01
279.28	1595.37
279.49	1578.98
279.71	1591.27
279.93	1560.55
280.14	1568.74
280.36	1501.16
280.57	1603.56
280.79	1533.93
281.00	1497.07
281.22	1552.36
281.43	1540.07
281.65	1411.05
281.86	1443.82
282.08	1644.52
282.29	1624.04
282.51	1511.40
282.73	1492.97
282.94	1486.83
283.16	1558.50
283.37	1662.95
283.59	1519.59
283.80	1552.36
284.02	1578.98
284.23	1570.79
284.45	1513.45
284.66	1495.02
284.88	1533.93
285.09	1523.69
285.31	1531.88
285.52	1472.49
285.74	1527.78
285.95	1578.98
286.17	1513.45
286.38	1529.83
286.60	1505.26
286.81	1406.95
287.03	1531.88
287.24	1574.89
287.46	1535.98
287.67	1507.30
287.89	1570.79
288.10	1511.40
288.32	1574.89
288.53	1656.81
288.75	1474.54
288.96	1558.50
289.18	1529.83
289.39	1658.85
289.61	1605.61
289.82	1566.70
290.04	1689.57
290.25	1552.36
290.47	1437.67
290.68	1484.78
290.90	1667.05
291.11	1507.30
291.33	1601.51
291.54	1497.07
291.76	1523.69
291.97	1548.26
292.18	1574.89
292.40	1480.68
292.61	1515.50
292.83	1654.76
293.04	1546.22
293.26	1574.89
293.47	1568.74
293.69	1495.02
293.90	1628.14
294.12	1597.42
294.33	1535.98
294.55	1456.11
294.76	1540.07
294.97	1548.26
295.19	1609.70
295.40	1507.30
295.62	1552.36
295.83	1533.93
296.05	1505.26
296.26	1476.59
296.48	1464.30
296.69	1560.55
296.90	1521.64
297.12	1591.27
297.33	1599.46
297.55	1566.70
297.76	1556.46
297.98	1638.38
298.19	1546.22
298.41	1562.60
298.62	1452.01
298.83	1628.14
299.05	1501.16
299.26	1501.16
299.48	1548.26
299.69	1554.41
299.90	1538.02
300.12	1488.87
300.33	1587.18
300.55	1570.79
300.76	1505.26
300.98	1505.26
301.19	1552.36
301.40	1511.40
301.62	1474.54
301.83	1523.69
302.05	1480.68
302.26	1509.35
302.47	1533.93
302.69	1540.07
302.90	1552.36
303.12	1478.63
303.33	1576.94
303.54	1648.61
303.76	1492.97
303.97	1482.73
304.19	1568.74
304.40	1476.59
304.61	1566.70
304.83	1642.47
305.04	1544.17
305.26	1525.74
305.47	1548.26
305.68	1509.35
305.90	1517.54
306.11	1562.60
306.33	1507.30
306.54	1566.70
306.75	1484.78
306.97	1490.92
307.18	1468.39
307.39	1501.16
307.61	1535.98
307.82	1558.50
308.04	1533.93
308.25	1533.93
308.46	1554.41
308.68	1595.37
308.89	1566.70
309.10	1564.65
309.32	1556.46
309.53	1566.70
309.74	1525.74
309.96	1558.50
310.17	1607.66
310.39	1509.35
310.60	1626.09
310.81	1480.68
311.03	1564.65
311.24	1578.98
311.45	1550.31
311.67	1665.00
311.88	1562.60
312.09	1521.64
312.31	1570.79
312.52	1527.78
312.73	1533.93
312.95	1492.97
313.16	1550.31
313.37	1523.69
313.59	1550.31
313.80	1595.37
314.01	1634.28
314.23	1544.17
314.44	1527.78
314.65	1538.02
314.87	1437.67
315.08	1503.21
315.29	1495.02
315.51	1550.31
315.72	1540.07
315.93	1646.57
316.15	1531.88
316.36	1538.02
316.57	1511.40
316.79	1572.84
317.00	1513.45
317.21	1533.93
317.43	1415.15
317.64	1558.50
317.85	1535.98
318.07	1554.41
318.28	1675.24
318.49	1697.77
318.70	1794.02
318.92	1734.63
319.13	1759.21
319.34	1609.70
319.56	1611.75
319.77	1701.86
319.98	1710.05
320.20	1574.89
320.41	1548.26
320.62	1503.21
320.83	1474.54
321.05	1691.62
321.26	1511.40
321.47	1509.35
321.69	1556.46
321.90	1525.74
322.11	1486.83
322.32	1476.59
322.54	1605.61
322.75	1538.02
322.96	1634.28
323.18	1558.50
323.39	1441.77
323.60	1411.05
323.81	1550.31
324.03	1480.68
324.24	1497.07
324.45	1515.50
324.66	1511.40
324.88	1574.89
325.09	1578.98
325.30	1535.98
325.52	1525.74
325.73	1556.46
325.94	1488.87
326.15	1411.05
326.37	1507.30
326.58	1658.85
326.79	1607.66
327.00	1609.70
327.22	1552.36
327.43	1480.68
327.64	1495.02
327.85	1546.22
328.07	1593.32
328.28	1681.38
328.49	1519.59
328.70	1478.63
328.92	1566.70
329.13	1523.69
329.34	1585.13
329.55	1656.81
329.76	1558.50
329.98	1546.22
330.19	1529.83
330.40	1572.84
330.61	1552.36
330.83	1511.40
331.04	1558.50
331.25	1587.18
331.46	1585.13
331.68	1478.63
331.89	1578.98
332.10	1437.67
332.31	1492.97
332.52	1495.02
332.74	1484.78
332.95	1396.71
333.16	1484.78
333.37	1490.92
333.58	1513.45
333.80	1558.50
334.01	1470.44
334.22	1544.17
334.43	1478.63
334.64	1560.55
334.86	1482.73
335.07	1478.63
335.28	1611.75
335.49	1456.11
335.70	1550.31
335.92	1660.90
336.13	1646.57
336.34	1515.50
336.55	1525.74
336.76	1492.97
336.98	1497.07
337.19	1527.78
337.40	1619.94
337.61	1599.46
337.82	1499.11
338.04	1550.31
338.25	1452.01
338.46	1542.12
338.67	1535.98
338.88	1517.54
339.09	1478.63
339.31	1464.30
339.52	1482.73
339.73	1468.39
339.94	1484.78
340.15	1599.46
340.36	1548.26
340.58	1466.35
340.79	1503.21
341.00	1533.93
341.21	1538.02
341.42	1572.84
341.63	1570.79
341.85	1509.35
342.06	1525.74
342.27	1443.82
342.48	1587.18
342.69	1462.25
342.90	1531.88
343.12	1595.37
343.33	1464.30
343.54	1511.40
343.75	1597.42
343.96	1558.50
344.17	1454.06
344.38	1554.41
344.60	1507.30
344.81	1531.88
345.02	1562.60
345.23	1529.83
345.44	1685.48
345.65	1576.94
345.86	1503.21
346.07	1490.92
346.29	1509.35
346.50	1609.70
346.71	1542.12
346.92	1585.13
347.13	1632.23
347.34	1517.54
347.55	1511.40
347.76	1566.70
347.98	1495.02
348.19	1468.39
348.40	1570.79
348.61	1546.22
348.82	1531.88
349.03	1583.08
349.24	1519.59
349.45	1626.09
349.66	1495.02
349.88	1523.69
350.09	1583.08
350.30	1599.46
350.51	1546.22
350.72	1595.37
350.93	1501.16
351.14	1509.35
351.35	1576.94
351.56	1570.79
351.77	1503.21
351.99	1574.89
352.20	1521.64
352.41	1587.18
352.62	1490.92
352.83	1476.59
353.04	1535.98
353.25	1441.77
353.46	1583.08
353.67	1566.70
353.88	1478.63
354.09	1470.44
354.30	1566.70
354.52	1566.70
354.73	1527.78
354.94	1517.54
355.15	1601.51
355.36	1601.51
355.57	1503.21
355.78	1593.32
355.99	1454.06
356.20	1486.83
356.41	1613.80
356.62	1558.50
356.83	1587.18
357.04	1603.56
357.25	1454.06
357.46	1509.35
357.68	1497.07
357.89	1492.97
358.10	1540.07
358.31	1517.54
358.52	1550.31
358.73	1519.59
358.94	1513.45
359.15	1501.16
359.36	1638.38
359.57	1521.64
359.78	1509.35
359.99	1505.26
360.20	1550.31
360.41	1595.37
360.62	1562.60
360.83	1574.89
361.04	1517.54
361.25	1628.14
361.46	1562.60
361.67	1544.17
361.88	1519.59
362.09	1615.85
362.30	1554.41
362.51	1460.20
362.72	1472.49
362.93	1550.31
363.14	1570.79
363.35	1556.46
363.56	1535.98
363.78	1652.71
363.99	1607.66
364.20	1542.12
364.41	1574.89
364.62	1570.79
364.83	1603.56
365.04	1628.14
365.25	1544.17
365.46	1626.09
365.67	1542.12
365.88	1564.65
366.09	1443.82
366.30	1646.57
366.51	1552.36
366.72	1441.77
366.93	1548.26
367.14	1511.40
367.35	1624.04
367.56	1576.94
367.77	1597.42
367.98	1593.32
368.18	1558.50
368.39	1628.14
368.60	1443.82
368.81	1595.37
369.02	1564.65
369.23	1476.59
369.44	1509.35
369.65	1546.22
369.86	1648.61
370.07	1570.79
370.28	1521.64
370.49	1517.54
370.70	1533.93
370.91	1521.64
371.12	1468.39
371.33	1581.03
371.54	1607.66
371.75	1636.33
371.96	1474.54
372.17	1503.21
372.38	1497.07
372.59	1589.22
372.80	1456.11
373.01	1495.02
373.22	1511.40
373.43	1560.55
373.64	1464.30
373.85	1646.57
374.06	1527.78
374.26	1576.94
374.47	1619.94
374.68	1593.32
374.89	1484.78
375.10	1562.60
375.31	1533.93
375.52	1552.36
375.73	1505.26
375.94	1480.68
376.15	1566.70
376.36	1548.26
376.57	1445.87
376.78	1529.83
376.99	1552.36
377.20	1607.66
377.40	1568.74
377.61	1574.89
377.82	1470.44
378.03	1611.75
378.24	1525.74
378.45	1421.29
378.66	1562.60
378.87	1513.45
379.08	1505.26
379.29	1472.49
379.50	1624.04
379.71	1505.26
379.91	1558.50
380.12	1525.74
380.33	1574.89
380.54	1519.59
380.75	1490.92
380.96	1480.68
381.17	1552.36
381.38	1552.36
381.59	1648.61
381.80	1568.74
382.00	1726.44
382.21	1662.95
382.42	1658.85
382.63	1710.05
382.84	1628.14
383.05	1548.26
383.26	1640.42
383.47	1540.07
383.68	1599.46
383.88	1603.56
384.09	1533.93
384.30	1652.71
384.51	1593.32
384.72	1495.02
384.93	1478.63
385.14	1519.59
385.35	1589.22
385.55	1503.21
385.76	1607.66
385.97	1675.24
386.18	1513.45
386.39	1466.35
386.60	1591.27
386.81	1576.94
387.02	1503.21
387.22	1523.69
387.43	1624.04
387.64	1607.66
387.85	1845.22
388.06	3153.87
388.27	7262.10
388.48	10567.52
388.68	12416.83
388.89	13676.34
389.10	12881.72
389.31	9994.09
389.52	8929.14
389.73	7729.03
389.93	7219.09
390.14	6809.50
390.35	6145.95
390.56	5642.15
390.77	4782.01
390.98	3694.54
391.18	2746.33
391.39	2076.64
391.60	1789.92
391.81	1771.49
392.02	1499.11
392.23	1732.58
392.43	1591.27
392.64	1583.08
392.85	1578.98
393.06	1626.09
393.27	1568.74
393.47	1456.11
393.68	1617.90
393.89	1538.02
394.10	1619.94
394.31	1505.26
394.52	1564.65
394.72	1560.55
394.93	1546.22
395.14	1503.21
395.35	1515.50
395.56	1511.40
395.76	1587.18
395.97	1667.05
396.18	1722.34
396.39	1714.15
396.60	1972.19
396.80	1730.53
397.01	1753.06
397.22	1652.71
397.43	1712.10
397.64	1548.26
397.84	1673.19
398.05	1677.29
398.26	1624.04
398.47	1619.94
398.67	1570.79
398.88	1642.47
399.09	1546.22
399.30	1480.68
399.51	1566.70
399.71	1529.83
399.92	1642.47
400.13	1550.31
400.34	1542.12
400.54	1546.22
400.75	1648.61
400.96	1464.30
401.17	1593.32
401.37	1589.22
401.58	1509.35
401.79	1538.02
402.00	1755.11
402.21	1906.66
402.41	1902.56
402.62	1966.05
402.83	2004.96
403.04	1800.16
403.24	1861.60
403.45	1699.81
403.66	1742.82
403.87	1783.78
404.07	1810.40
404.28	1734.63
404.49	1662.95
404.70	1667.05
404.90	1644.52
405.11	1607.66
405.32	1568.74
405.52	1462.25
405.73	1495.02
405.94	1511.40
406.15	1495.02
406.35	1572.84
406.56	1517.54
406.77	1499.11
406.98	1538.02
407.18	1470.44
407.39	1628.14
407.60	1511.40
407.80	1544.17
408.01	1540.07
408.22	1570.79
408.43	1552.36
408.63	1531.88
408.84	1548.26
409.05	1636.33
409.25	1548.26
409.46	1552.36
409.67	1529.83
409.88	1490.92
410.08	1599.46
410.29	1546.22
410.50	1519.59
410.70	1593.32
410.91	1533.93
411.12	1556.46
411.32	1597.42
411.53	1538.02
411.74	1599.46
411.95	1638.38
412.15	1601.51
412.36	1685.48
412.57	1654.76
412.77	1685.48
412.98	1538.02
413.19	1568.74
413.39	1601.51
413.60	1605.61
413.81	1617.90
414.01	1523.69
414.22	1621.99
414.43	1562.60
414.63	1460.20
414.84	1574.89
415.05	1468.39
415.25	1492.97
415.46	1542.12
415.67	1449.96
415.87	1533.93
416.08	1478.63
416.29	1540.07
416.49	1640.42
416.70	1486.83
416.91	1562.60
417.11	1507.30
417.32	1581.03
417.53	1564.65
417.73	1509.35
417.94	1542.12
418.15	1562.60
418.35	1546.22
418.56	1535.98
418.77	1644.52
418.97	1521.64
419.18	1546.22
419.38	1488.87
419.59	1552.36
419.80	1552.36
420.00	1560.55
420.21	1488.87
420.42	1574.89
420.62	1570.79
420.83	1449.96
421.04	1425.39
421.24	1535.98
421.45	1556.46
421.65	1593.32
421.86	1497.07
422.07	1546.22
422.27	1511.40
422.48	1566.70
422.69	1464.30
422.89	1595.37
423.10	1523.69
423.30	1476.59
423.51	1529.83
423.72	1538.02
423.92	1556.46
424.13	1437.67
424.33	1540.07
424.54	1595.37
424.75	1437.67
424.95	1642.47
425.16	1599.46
425.36	1572.84
425.57	1656.81
425.78	1591.27
425.98	1581.03
426.19	1556.46
426.39	1476.59
426.60	1542.12
426.81	1662.95
427.01	1550.31
427.22	1492.97
427.42	1495.02
427.63	1591.27
427.83	1591.27
428.04	1642.47
428.25	1576.94
428.45	1621.99
428.66	1550.31
428.86	1578.98
429.07	1607.66
429.28	1507.30
429.48	1554.41
429.69	1527.78
429.89	1583.08
430.10	1411.05
430.30	1566.70
430.51	1574.89
430.71	1554.41
430.92	1578.98
431.13	1495.02
431.33	1478.63
431.54	1564.65
431.74	1669.09
431.95	1626.09
432.15	1499.11
432.36	1511.40
432.56	1632.23
432.77	1603.56
432.98	1595.37
433.18	1656.81
433.39	1550.31
433.59	1460.20
433.80	1648.61
434.00	1603.56
434.21	1554.41
434.41	1445.87
434.62	1665.00
434.82	1472.49
435.03	1482.73
435.23	1560.55
435.44	1472.49
435.64	1525.74
435.85	1556.46
436.06	1609.70
436.26	1568.74
436.47	1542.12
436.67	1509.35
436.88	1576.94
437.08	1591.27
437.29	1603.56
437.49	1511.40
437.70	1587.18
437.90	1495.02
438.11	1681.38
438.31	1581.03
438.52	1660.90
438.72	1738.73
438.93	1716.20
439.13	1640.42
439.34	1595.37
439.54	1533.93
439.75	1591.27
439.95	1595.37
440.16	1599.46
440.36	1636.33
440.57	1527.78
440.77	1677.29
440.98	1511.40
441.18	1603.56
441.39	1544.17
441.59	1552.36
441.80	1578.98
442.00	1527.78
442.21	1609.70
442.41	1490.92
442.62	1566.70
442.82	1591.27
443.02	1507.30
443.23	1578.98
443.43	1513.45
443.64	1531.88
443.84	1499.11
444.05	1589.22
444.25	1517.54
444.46	1497.07
444.66	1560.55
444.87	1632.23
445.07	1492.97
445.28	1533.93
445.48	1548.26
445.69	1531.88
445.89	1693.67
446.09	1615.85
446.30	2056.16
446.50	3119.06
446.71	4321.21
446.91	5263.28
447.12	5654.44
447.32	5560.24
447.53	4558.78
447.73	4153.28
447.93	3620.81
448.14	3448.78
448.34	3174.35
448.55	2848.72
448.75	2914.26
448.96	2734.04
449.16	2457.56
449.36	2256.86
449.57	1964.00
449.77	1773.54
449.98	1691.62
450.18	1671.14
450.39	1593.32
450.59	1562.60
450.79	1546.22
451.00	1511.40
451.20	1597.42
451.41	1566.70
451.61	1609.70
451.81	1564.65
452.02	1523.69
452.22	1488.87
452.43	1505.26
452.63	1570.79
452.84	1511.40
453.04	1552.36
453.24	1634.28
453.45	1495.02
453.65	1521.64
453.86	1554.41
454.06	1529.83
454.26	1529.83
454.47	1540.07
454.67	1576.94
454.87	1478.63
455.08	1574.89
455.28	1624.04
455.49	1523.69
455.69	1515.50
455.89	1525.74
456.10	1593.32
456.30	1617.90
456.51	1599.46
456.71	1507.30
456.91	1490.92
457.12	1495.02
457.32	1566.70
457.52	1437.67
457.73	1546.22
457.93	1587.18
458.14	1464.30
458.34	1511.40
458.54	1464.30
458.75	1558.50
458.95	1648.61
459.15	1525.74
459.36	1581.03
459.56	1615.85
459.76	1630.18
459.97	1519.59
460.17	1552.36
460.37	1658.85
460.58	1550.31
460.78	1626.09
460.99	1568.74
461.19	1566.70
461.39	1521.64
461.60	1495.02
461.80	1503.21
462.00	1505.26
462.21	1546.22
462.41	1535.98
462.61	1538.02
462.82	1501.16
463.02	1529.83
463.22	1497.07
463.43	1669.09
463.63	1511.40
463.83	1499.11
464.04	1505.26
464.24	1535.98
464.44	1509.35
464.64	1519.59
464.85	1583.08
465.05	1624.04
465.25	1544.17
465.46	1456.11
465.66	1542.12
465.86	1581.03
466.07	1597.42
466.27	1521.64
466.47	1501.16
466.68	1423.34
466.88	1607.66
467.08	1581.03
467.29	1634.28
467.49	1538.02
467.69	1552.36
467.89	1566.70
468.10	1535.98
468.30	1593.32
468.50	1665.00
468.71	1570.79
468.91	1482.73
469.11	1611.75
469.31	1525.74
469.52	1439.72
469.72	1576.94
469.92	1617.90
470.13	1595.37
470.33	1452.01
470.53	1699.81
470.73	2207.71
470.94	2267.10
471.14	2439.13
471.34	2566.10
471.54	2461.66
471.75	2160.61
471.95	2099.17
472.15	1972.19
472.36	1961.95
472.56	1834.98
472.76	1898.47
472.96	1892.32
473.17	1769.44
473.37	1802.21
473.57	1705.96
473.77	1710.05
473.98	1562.60
474.18	1566.70
474.38	1632.23
474.58	1517.54
474.79	1507.30
474.99	1607.66
475.19	1624.04
475.39	1509.35
475.60	1542.12
475.80	1517.54
476.00	1544.17
476.20	1476.59
476.41	1564.65
476.61	1540.07
476.81	1595.37
477.01	1452.01
477.21	1619.94
477.42	1558.50
477.62	1546.22
477.82	1548.26
478.02	1503.21
478.23	1552.36
478.43	1484.78
478.63	1550.31
478.83	1501.16
479.03	1558.50
479.24	1572.84
479.44	1609.70
479.64	1529.83
479.84	1462.25
480.04	1480.68
480.25	1585.13
480.45	1499.11
480.65	1507.30
480.85	1611.75
481.06	1574.89
481.26	1568.74
481.46	1544.17
481.66	1474.54
481.86	1468.39
482.06	1556.46
482.27	1529.83
482.47	1552.36
482.67	1509.35
482.87	1472.49
483.07	1628.14
483.28	1552.36
483.48	1390.57
483.68	1560.55
483.88	1538.02
484.08	1470.44
484.29	1533.93
484.49	1601.51
484.69	1517.54
484.89	1630.18
485.09	1570.79
485.29	1527.78
485.50	1558.50
485.70	1535.98
485.90	1609.70
486.10	1599.46
486.30	1568.74
486.50	1628.14
486.71	1566.70
486.91	1628.14
487.11	1521.64
487.31	1466.35
487.51	1572.84
487.71	1505.26
487.91	1527.78
488.12	1519.59
488.32	1462.25
488.52	1519.59
488.72	1409.00
488.92	1486.83
489.12	1509.35
489.32	1554.41
489.53	1581.03
489.73	1482.73
489.93	1642.47
490.13	1521.64
490.33	1439.72
490.53	1497.07
490.73	1478.63
490.94	1482.73
491.14	1599.46
491.34	1740.77
491.54	2201.57
491.74	2631.64
491.94	3139.54
492.14	3274.70
492.34	3301.33
492.54	2836.44
492.75	2500.57
492.95	2396.12
493.15	2222.05
493.35	2176.99
493.55	2109.41
493.75	2119.65
493.95	2125.79
494.15	1894.37
494.35	1818.60
494.56	1802.21
494.76	1751.01
494.96	1599.46
495.16	1525.74
495.36	1576.94
495.56	1566.70
495.76	1533.93
495.96	1609.70
496.16	1429.48
496.36	1591.27
496.56	1556.46
496.77	1466.35
496.97	1499.11
497.17	1583.08
497.37	1460.20
497.57	1591.27
497.77	1523.69
497.97	1501.16
498.17	1509.35
498.37	1490.92
498.57	1566.70
498.77	1531.88
498.97	1576.94
499.17	1552.36
499.38	1476.59
499.58	1605.61
499.78	1644.52
499.98	1523.69
500.18	1581.03
500.38	1564.65
500.58	1794.02
500.78	2652.12
500.98	5134.26
501.18	6596.51
501.38	8058.76
501.58	8525.69
501.78	7956.36
501.98	6006.69
502.18	5318.57
502.38	4573.11
502.58	4229.06
502.78	3938.24
502.98	3649.48
503.18	3647.43
503.38	3450.83
503.59	2994.13
503.79	2789.33
503.99	2455.51
504.19	2168.80
504.39	2179.04
504.59	2191.33
504.79	2103.26
504.99	1990.63
505.19	1800.16
505.39	1728.49
505.59	1761.25
505.79	1710.05
505.99	1708.01
506.19	1566.70
506.39	1695.72
506.59	1505.26
506.79	1572.84
506.99	1601.51
507.19	1617.90
507.39	1583.08
507.59	1548.26
507.79	1609.70
507.99	1431.53
508.19	1486.83
508.39	1540.07
508.59	1548.26
508.79	1603.56
508.99	1613.80
509.19	1503.21
509.39	1542.12
509.59	1544.17
509.79	1535.98
509.99	1550.31
510.19	1597.42
510.39	1533.93
510.59	1560.55
510.79	1478.63
510.99	1595.37
511.19	1488.87
511.39	1556.46
511.59	1562.60
511.79	1583.08
511.99	1572.84
512.19	1605.61
512.38	1585.13
512.58	1480.68
512.78	1572.84
512.98	1585.13
513.18	1548.26
513.38	1488.87
513.58	1644.52
513.78	1492.97
513.98	1521.64
514.18	1628.14
514.38	1521.64
514.58	1531.88
514.78	1482.73
514.98	1470.44
515.18	1552.36
515.38	1474.54
515.58	1695.72
515.78	1501.16
515.98	1488.87
516.18	1576.94
516.38	1570.79
516.57	1533.93
516.77	1488.87
516.97	1515.50
517.17	1546.22
517.37	1402.86
517.57	1593.32
517.77	1535.98
517.97	1574.89
518.17	1548.26
518.37	1482.73
518.57	1517.54
518.77	1511.40
518.97	1480.68
519.16	1533.93
519.36	1609.70
519.56	1527.78
519.76	1509.35
519.96	1511.40
520.16	1589.22
520.36	1474.54
520.56	1679.33
520.76	1540.07
520.96	1529.83
521.16	1581.03
521.35	1624.04
521.55	1583.08
521.75	1542.12
521.95	1505.26
522.15	1546.22
522.35	1501.16
522.55	1454.06
522.75	1613.80
522.95	1468.39
523.14	1462.25
523.34	1495.02
523.54	1523.69
523.74	1603.56
523.94	1476.59
524.14	1419.24
524.34	1527.78
524.54	1615.85
524.73	1550.31
524.93	1548.26
525.13	1480.68
525.33	1515.50
525.53	1640.42
525.73	1544.17
525.93	1462.25
526.13	1544.17
526.32	1554.41
526.52	1611.75
526.72	1585.13
526.92	1572.84
527.12	1480.68
527.32	1435.63
527.52	1544.17
527.71	1566.70
527.91	1529.83
528.11	1511.40
528.31	1523.69
528.51	1464.30
528.71	1603.56
528.90	1546.22
529.10	1638.38
529.30	1492.97
529.50	1507.30
529.70	1581.03
529.90	1566.70
530.09	1624.04
530.29	1511.40
530.49	1472.49
530.69	1576.94
530.89	1554.41
531.09	1640.42
531.28	1488.87
531.48	1617.90
531.68	1544.17
531.88	1572.84
532.08	1658.85
532.28	1443.82
532.47	1595.37
532.67	1609.70
532.87	1609.70
533.07	1540.07
533.27	1589.22
533.46	1564.65
533.66	1533.93
533.86	1544.17
534.06	1544.17
534.26	1519.59
534.45	1578.98
534.65	1591.27
534.85	1574.89
535.05	1570.79
535.25	1572.84
535.44	1492.97
535.64	1572.84
535.84	1501.16
536.04	1480.68
536.24	1568.74
536.43	1525.74
536.63	1535.98
536.83	1525.74
537.03	1462.25
537.22	1462.25
537.42	1449.96
537.62	1544.17
537.82	1544.17
538.02	1617.90
538.21	1587.18
538.41	1585.13
538.61	1517.54
538.81	1486.83
539.00	1634.28
539.20	1492.97
539.40	1589.22
539.60	1615.85
539.79	1517.54
539.99	1495.02
540.19	1501.16
540.39	1576.94
540.58	1470.44
540.78	1525.74
540.98	1538.02
541.18	1581.03
541.37	1505.26
541.57	1535.98
541.77	1562.60
541.97	1499.11
542.16	1449.96
542.36	1564.65
542.56	1609.70
542.76	1691.62
542.95	1570.79
543.15	1505.26
543.35	1538.02
543.54	1452.01
543.74	1460.20
543.94	1589.22
544.14	1574.89
544.33	1544.17
544.53	1570.79
544.73	1550.31
544.93	1576.94
545.12	1499.11
545.32	1595.37
545.52	1546.22
545.71	1521.64
545.91	1521.64
546.11	1521.64
546.30	1533.93
546.50	1535.98
546.70	1535.98
546.90	1439.72
547.09	1503.21
547.29	1538.02
547.49	1611.75
547.68	1480.68
547.88	1521.64
548.08	1665.00
548.27	1906.66
548.47	1499.11
548.67	1535.98
548.87	1552.36
549.06	1454.06
549.26	1554.41
549.46	1552.36
549.65	1478.63
549.85	1605.61
550.05	1540.07
550.24	1474.54
550.44	1566.70
550.64	1548.26
550.83	1535.98
551.03	1589.22
551.23	1572.84
551.42	1568.74
551.62	1497.07
551.82	1550.31
552.01	1519.59
552.21	1597.42
552.41	1578.98
552.60	1599.46
552.80	1515.50
553.00	1552.36
553.19	1574.89
553.39	1574.89
553.59	1542.12
553.78	1595.37
553.98	1535.98
554.17	1470.44
554.37	1558.50
554.57	1529.83
554.76	1519.59
554.96	1546.22
555.16	1578.98
555.35	1533.93
555.55	1574.89
555.75	1585.13
555.94	1556.46
556.14	1437.67
556.33	1566.70
556.53	1552.36
556.73	1505.26
556.92	1658.85
557.12	1605.61
557.32	1564.65
557.51	1636.33
557.71	1507.30
557.90	1560.55
558.10	1689.57
558.30	1546.22
558.49	1542.12
558.69	1525.74
558.88	1562.60
559.08	1488.87
559.28	1556.46
559.47	1558.50
559.67	1570.79
559.86	1576.94
560.06	1591.27
560.26	1507.30
560.45	1572.84
560.65	1538.02
560.84	1615.85
561.04	1509.35
561.24	1624.04
561.43	1546.22
561.63	1624.04
561.82	1587.18
562.02	1591.27
562.22	1505.26
562.41	1476.59
562.61	1443.82
562.80	1531.88
563.00	1681.38
563.19	1669.09
563.39	1552.36
563.59	1603.56
563.78	1505.26
563.98	1431.53
564.17	1574.89
564.37	1435.63
564.56	1574.89
564.76	1470.44
564.96	1656.81
565.15	1597.42
565.35	1589.22
565.54	1499.11
565.74	1628.14
565.93	1589.22
566.13	1581.03
566.32	1515.50
566.52	1540.07
566.71	1583.08
566.91	1605.61
567.11	1570.79
567.30	1605.61
567.50	1538.02
567.69	1574.89
567.89	1576.94
568.08	1533.93
568.28	1568.74
568.47	1478.63
568.67	1593.32
568.86	1558.50
569.06	1589.22
569.25	1624.04
569.45	1456.11
569.64	1464.30
569.84	1628.14
570.04	1576.94
570.23	1452.01
570.43	1488.87
570.62	1562.60
570.82	1665.00
571.01	1505.26
571.21	1546.22
571.40	1535.98
571.60	1601.51
571.79	1581.03
571.99	1621.99
572.18	1587.18
572.38	1546.22
572.57	1554.41
572.77	1562.60
572.96	1636.33
573.16	1593.32
573.35	1570.79
573.55	1554.41
573.74	1660.90
573.94	1525.74
574.13	1611.75
574.33	1613.80
574.52	1615.85
574.71	1546.22
574.91	1568.74
575.10	1558.50
575.30	1542.12
575.49	1566.70
575.69	1576.94
575.88	1570.79
576.08	1576.94
576.27	1718.25
576.47	1638.38
576.66	1669.09
576.86	1630.18
577.05	1617.90
577.25	1644.52
577.44	1695.72
577.64	1607.66
577.83	1730.53
578.02	1554.41
578.22	1650.66
578.41	1656.81
578.61	1574.89
578.80	1513.45
579.00	1533.93
579.19	1523.69
579.39	1574.89
579.58	1689.57
579.77	1624.04
579.97	1628.14
580.16	1595.37
580.36	1665.00
580.55	1710.05
580.75	1624.04
580.94	1566.70
581.13	1624.04
581.33	1691.62
581.52	1578.98
581.72	1626.09
581.91	1697.77
582.11	1658.85
582.30	1644.52
582.49	1572.84
582.69	1734.63
582.88	1603.56
583.08	1632.23
583.27	1619.94
583.47	1615.85
583.66	1601.51
583.85	1566.70
584.05	1603.56
584.24	1640.42
584.44	1658.85
584.63	1581.03
584.82	1673.19
585.02	1675.24
585.21	1826.79
585.41	1726.44
585.60	1726.44
585.79	1857.51
585.99	1775.59
586.18	1755.11
586.37	2084.83
586.57	3170.26
586.76	9369.46
586.96	27053.67
587.15	43251.05
587.34	54062.28
587.54	60839.01
587.73	59139.19
587.93	43369.83
588.12	32046.62
588.31	25634.42
588.51	22212.27
588.70	19746.51
588.89	18388.71
589.09	16903.93
589.28	15124.25
589.47	13129.53
589.67	10846.04
589.86	8910.71
590.06	6979.48
590.25	4947.89
590.44	3864.52
590.64	2994.13
590.83	2439.13
591.02	2052.06
591.22	1877.99
591.41	1789.92
591.60	1720.29
591.80	1775.59
591.99	1574.89
592.18	1640.42
592.38	1591.27
592.57	1599.46
592.76	1693.67
592.96	1634.28
593.15	1548.26
593.34	1689.57
593.54	1513.45
593.73	1587.18
593.92	1611.75
594.12	1656.81
594.31	1648.61
594.50	1675.24
594.70	1648.61
594.89	1652.71
595.08	1542.12
595.28	1550.31
595.47	1632.23
595.66	1568.74
595.86	1558.50
596.05	1581.03
596.24	1550.31
596.43	1726.44
596.63	1634.28
596.82	1581.03
597.01	1552.36
597.21	1650.66
597.40	1626.09
597.59	1662.95
597.79	1593.32
597.98	1585.13
598.17	1554.41
598.36	1538.02
598.56	1591.27
598.75	1560.55
598.94	1603.56
599.14	1599.46
599.33	1525.74
599.52	1632.23
599.71	1585.13
599.91	1581.03
600.10	1554.41
600.29	1482.73
600.48	1658.85
600.68	1566.70
600.87	1589.22
601.06	1480.68
601.26	1544.17
601.45	1601.51
601.64	1558.50
601.83	1603.56
602.03	1581.03
602.22	1533.93
602.41	1628.14
602.60	1665.00
602.80	1576.94
602.99	1521.64
603.18	1535.98
603.37	1613.80
603.57	1521.64
603.76	1632.23
603.95	1599.46
604.14	1558.50
604.34	1525.74
604.53	1558.50
604.72	1535.98
604.91	1591.27
605.10	1578.98
605.30	1515.50
605.49	1595.37
605.68	1574.89
605.87	1562.60
606.07	1466.35
606.26	1529.83
606.45	1560.55
606.64	1527.78
606.84	1546.22
607.03	1585.13
607.22	1634.28
607.41	1574.89
607.60	1540.07
607.80	1613.80
607.99	1638.38
608.18	1488.87
608.37	1515.50
608.56	1507.30
608.76	1683.43
608.95	1665.00
609.14	1601.51
609.33	1677.29
609.52	1630.18
609.72	1609.70
609.91	1611.75
610.10	1595.37
610.29	1619.94
610.48	1624.04
610.68	1634.28
610.87	1615.85
611.06	1632.23
611.25	1503.21
611.44	1626.09
611.63	1597.42
611.83	1554.41
612.02	1460.20
612.21	1585.13
612.40	1472.49
612.59	1552.36
612.79	1578.98
612.98	1591.27
613.17	1591.27
613.36	1521.64
613.55	1613.80
613.74	1665.00
613.93	1683.43
614.13	1775.59
614.32	1763.30
614.51	1685.48
614.70	1695.72
614.89	1642.47
615.08	1687.53
615.28	1900.52
615.47	1478.63
615.66	1642.47
615.85	1576.94
616.04	1693.67
616.23	1538.02
616.42	1617.90
616.62	1576.94
616.81	1593.32
617.00	1540.07
617.19	1619.94
617.38	1525.74
617.57	1574.89
617.76	1642.47
617.95	1591.27
618.15	1597.42
618.34	1634.28
618.53	1503.21
618.72	1605.61
618.91	1540.07
619.10	1632.23
619.29	1523.69
619.48	1595.37
619.68	1556.46
619.87	1546.22
620.06	1566.70
620.25	1581.03
620.44	1548.26
620.63	1501.16
620.82	1533.93
621.01	1599.46
621.20	1488.87
621.39	1538.02
621.59	1591.27
621.78	1519.59
621.97	1544.17
622.16	1613.80
622.35	1538.02
622.54	1552.36
622.73	1576.94
622.92	1488.87
623.11	1599.46
623.30	1535.98
623.49	1578.98
623.68	1474.54
623.88	1589.22
624.07	1624.04
624.26	1560.55
624.45	1556.46
624.64	1503.21
624.83	1593.32
625.02	1548.26
625.21	1527.78
625.40	1515.50
625.59	1615.85
625.78	1517.54
625.97	1585.13
626.16	1599.46
626.35	1617.90
626.54	1548.26
626.74	1699.81
626.93	1638.38
627.12	1583.08
627.31	1636.33
627.50	1556.46
627.69	1574.89
627.88	1525.74
628.07	1560.55
628.26	1509.35
628.45	1568.74
628.64	1423.34
628.83	1632.23
629.02	1513.45
629.21	1632.23
629.40	1527.78
629.59	1574.89
629.78	1542.12
629.97	1482.73
630.16	1568.74
630.35	1513.45
630.54	1554.41
630.73	1519.59
630.92	1527.78
631.11	1470.44
631.30	1544.17
631.49	1578.98
631.68	1560.55
631.87	1497.07
632.06	1492.97
632.25	1630.18
632.44	1568.74
632.63	1605.61
632.82	1595.37
633.01	1572.84
633.20	1636.33
633.39	1626.09
633.58	1593.32
633.77	1652.71
633.96	1615.85
634.15	1646.57
634.34	1597.42
634.53	1515.50
634.72	1587.18
634.91	1505.26
635.10	1578.98
635.29	1523.69
635.48	1576.94
635.67	1484.78
635.86	1468.39
636.05	1556.46
636.24	1626.09
636.43	1544.17
636.62	1550.31
636.81	1421.29
637.00	1542.12
637.19	1593.32
637.38	1517.54
637.57	1525.74
637.76	1640.42
637.95	1648.61
638.14	1578.98
638.33	1662.95
638.52	1583.08
638.71	1605.61
638.89	1574.89
639.08	1755.11
639.27	1667.05
639.46	1648.61
639.65	1863.65
639.84	2054.11
640.03	2121.70
640.22	2250.72
640.41	2213.85
640.60	2019.30
640.79	1845.22
640.98	1728.49
641.17	1798.12
641.36	1734.63
641.55	1748.97
641.74	1654.76
641.92	1703.91
642.11	1644.52
642.30	1597.42
642.49	1558.50
642.68	1527.78
642.87	1597.42
643.06	1560.55
643.25	1544.17
643.44	1587.18
643.63	1513.45
643.82	1621.99
644.00	1566.70
644.19	1538.02
644.38	1495.02
644.57	1566.70
644.76	1552.36
644.95	1509.35
645.14	1513.45
645.33	1548.26
645.52	1515.50
645.71	1495.02
645.89	1519.59
646.08	1556.46
646.27	1613.80
646.46	1634.28
646.65	1497.07
646.84	1527.78
647.03	1505.26
647.22	1576.94
647.40	1568.74
647.59	1552.36
647.78	1517.54
647.97	1511.40
648.16	1417.19
648.35	1572.84
648.54	1531.88
648.73	1562.60
648.91	1654.76
649.10	1558.50
649.29	1470.44
649.48	1558.50
649.67	1558.50
649.86	1544.17
650.05	1558.50
650.23	1624.04
650.42	1669.09
650.61	1781.73
650.80	1763.30
650.99	1740.77
651.18	1683.43
651.36	1652.71
651.55	1542.12
651.74	1597.42
651.93	1515.50
652.12	1511.40
652.31	1583.08
652.49	1495.02
652.68	1642.47
652.87	1576.94
653.06	1560.55
653.25	1665.00
653.44	1497.07
653.62	1554.41
653.81	1574.89
654.00	1533.93
654.19	1628.14
654.38	1599.46
654.56	1587.18
654.75	1497.07
654.94	1593.32
655.13	1591.27
655.32	1535.98
655.51	1605.61
655.69	1460.20
655.88	1550.31
656.07	1601.51
656.26	1570.79
656.45	1474.54
656.63	1505.26
656.82	1538.02
657.01	1585.13
657.20	1548.26
657.38	1609.70
657.57	1480.68
657.76	1505.26
657.95	1535.98
658.14	1490.92
658.32	1564.65
658.51	1384.43
658.70	1585.13
658.89	1560.55
659.08	1570.79
659.26	1671.14
659.45	1540.07
659.64	1599.46
659.83	1529.83
660.01	1691.62
660.20	1538.02
660.39	1701.86
660.58	1523.69
660.76	1558.50
660.95	1449.96
661.14	1538.02
661.33	1546.22
661.51	1509.35
661.70	1632.23
661.89	1591.27
662.08	1492.97
662.26	1501.16
662.45	1460.20
662.64	1644.52
662.83	1544.17
663.01	1585.13
663.20	1501.16
663.39	1542.12
663.58	1492.97
663.76	1513.45
663.95	1658.85
664.14	1542.12
664.32	1466.35
664.51	1511.40
664.70	1472.49
664.89	1490.92
665.07	1531.88
665.26	1595.37
665.45	1478.63
665.64	1552.36
665.82	1533.93
666.01	1630.18
666.20	1511.40
666.38	1558.50
666.57	1609.70
666.76	1822.69
666.95	2930.64
667.13	7436.17
667.32	15226.65
667.51	19988.18
667.69	23144.09
667.88	24807.05
668.07	21864.11
668.25	15529.75
668.44	12627.78
668.63	10155.88
668.81	8472.45
669.00	7655.31
669.19	7100.31
669.38	6260.64
669.56	5670.83
669.75	4798.39
669.94	4073.41
670.12	3360.72
670.31	2830.29
670.50	2445.27
670.68	2068.45
670.87	1920.99
671.06	1757.16
671.24	1767.40
671.43	1662.95
671.62	1734.63
671.80	1607.66
671.99	1656.81
672.18	1576.94
672.36	1642.47
672.55	1587.18
672.74	1638.38
672.92	1572.84
673.11	1599.46
673.29	1484.78
673.48	1576.94
673.67	1587.18
673.85	1667.05
674.04	1535.98
674.23	1566.70
674.41	1632.23
674.60	1495.02
674.79	1486.83
674.97	1511.40
675.16	1583.08
675.34	1632.23
675.53	1486.83
675.72	1583.08
675.90	1617.90
676.09	1558.50
676.28	1525.74
676.46	1431.53
676.65	1572.84
676.83	1482.73
677.02	1544.17
677.21	1562.60
677.39	1511.40
677.58	1550.31
677.77	1591.27
677.95	1476.59
678.14	1531.88
678.32	1552.36
678.51	1525.74
678.70	1636.33
678.88	1558.50
679.07	1550.31
679.25	1558.50
679.44	1525.74
679.63	1495.02
679.81	1492.97
680.00	1648.61
680.18	1578.98
680.37	1609.70
680.55	1515.50
680.74	1505.26
680.93	1482.73
681.11	1576.94
681.30	1568.74
681.48	1488.87
681.67	1583.08
681.85	1529.83
682.04	1525.74
682.23	1574.89
682.41	1570.79
682.60	1507.30
682.78	1495.02
682.97	1527.78
683.15	1550.31
683.34	1548.26
683.53	1589.22
683.71	1517.54
683.90	1683.43
684.08	1585.13
684.27	1564.65
684.45	1578.98
684.64	1525.74
684.82	1552.36
685.01	1595.37
685.19	1605.61
685.38	1607.66
685.57	1576.94
685.75	1490.92
685.94	1517.54
686.12	1521.64
686.31	1554.41
686.49	1656.81
686.68	1419.24
686.86	1527.78
687.05	1499.11
687.23	1613.80
687.42	1476.59
687.60	1431.53
687.79	1621.99
687.97	1566.70
688.16	1599.46
688.34	1636.33
688.53	1468.39
688.71	1542.12
688.90	1589.22
689.08	1503.21
689.27	1513.45
689.45	1576.94
689.64	1593.32
689.82	1552.36
690.01	1611.75
690.19	1544.17
690.38	1548.26
690.56	1603.56
690.75	1462.25
690.93	1550.31
691.12	1519.59
691.30	1626.09
691.49	1490.92
691.67	1546.22
691.86	1626.09
692.04	1540.07
692.23	1578.98
692.41	1568.74
692.60	1732.58
692.78	1644.52
692.97	1630.18
693.15	1701.86
693.34	1632.23
693.52	1632.23
693.71	1482.73
693.89	1589.22
694.08	1456.11
694.26	1605.61
694.44	1636.33
694.63	1607.66
694.81	1529.83
695.00	1527.78
695.18	1574.89
695.37	1589.22
695.55	1523.69
695.74	1525.74
695.92	1517.54
696.10	1611.75
696.29	1519.59
696.47	1535.98
696.66	1486.83
696.84	1509.35
697.03	1482.73
697.21	1583.08
697.40	2033.63
697.58	1628.14
697.76	1542.12
697.95	1484.78
698.13	1499.11
698.32	1501.16
698.50	1460.20
698.68	1552.36
698.87	1501.16
699.05	1568.74
699.24	1548.26
699.42	1445.87
699.61	1495.02
699.79	1572.84
699.97	1572.84
700.16	1454.06
700.34	1515.50
700.53	1587.18
700.71	1619.94
700.89	1642.47
701.08	1519.59
701.26	1478.63
701.45	1888.23
701.63	1507.30
701.81	1589.22
702.00	1523.69
702.18	1527.78
702.37	1548.26
702.55	1648.61
702.73	1789.92
702.92	1648.61
703.10	1847.27
703.28	1855.46
703.47	1695.72
703.65	1675.24
703.84	1732.58
704.02	1665.00
704.20	1677.29
704.39	1634.28
704.57	1658.85
704.75	1654.76
704.94	1615.85
705.12	1550.31
705.30	1607.66
705.49	1847.27
705.67	2768.85
705.86	7288.72
706.04	14462.76
706.22	18532.07
706.41	21366.46
706.59	22599.34
706.77	20512.46
706.96	14907.16
707.14	11859.79
707.32	9803.63
707.51	8693.63
707.69	7647.12
707.87	6659.99
708.06	5849.00
708.24	4794.29
708.42	3758.02
708.61	2957.27
708.79	2285.53
708.97	1998.82
709.16	1896.42
709.34	1718.25
709.52	1583.08
709.71	1626.09
709.89	1632.23
710.07	1552.36
710.26	1550.31
710.44	1552.36
710.62	1585.13
710.80	1501.16
710.99	1570.79
711.17	1597.42
711.35	1482.73
711.54	1535.98
711.72	1601.51
711.90	1576.94
712.09	1550.31
712.27	1476.59
712.45	1566.70
712.63	1562.60
712.82	1589.22
713.00	1527.78
713.18	1552.36
713.37	1558.50
713.55	1585.13
713.73	1585.13
713.91	1497.07
714.10	1513.45
714.28	1517.54
714.46	1554.41
714.65	1566.70
714.83	1615.85
715.01	1560.55
715.19	1581.03
715.38	1544.17
715.56	1531.88
715.74	1499.11
715.92	1554.41
716.11	1542.12
716.29	1509.35
716.47	1552.36
716.65	1529.83
716.84	1458.15
717.02	1671.14
717.20	1490.92
717.38	1505.26
717.57	1501.16
717.75	1535.98
717.93	1556.46
718.11	1501.16
718.30	1535.98
718.48	1572.84
718.66	1609.70
718.84	1556.46
719.03	1533.93
719.21	1505.26
719.39	1564.65
719.57	1609.70
719.75	1615.85
719.94	1490.92
720.12	1478.63
720.30	1538.02
720.48	1525.74
720.67	1509.35
720.85	1511.40
721.03	1617.90
721.21	1402.86
721.39	1503.21
721.58	1484.78
721.76	1511.40
721.94	1535.98
722.12	1585.13
722.30	1640.42
722.49	1470.44
722.67	1585.13
722.85	1589.22
723.03	1507.30
723.21	1519.59
723.40	1597.42
723.58	1585.13
723.76	1583.08
723.94	1529.83
724.12	1523.69
724.30	1710.05
724.49	1681.38
724.67	1503.21
724.85	1648.61
725.03	1546.22
725.21	1695.72
725.40	1595.37
725.58	1507.30
725.76	1609.70
725.94	1540.07
726.12	1488.87
726.30	1509.35
726.49	1497.07
726.67	1574.89
726.85	1595.37
727.03	1542.12
727.21	1703.91
727.39	2105.31
727.57	3192.78
727.76	4304.83
727.94	4767.67
728.12	5044.15
728.30	5081.01
728.48	4280.25
728.66	3502.03
728.84	3160.02
729.03	2924.50
729.21	2662.36
729.39	2297.82
729.57	2080.74
729.75	1820.64
729.93	1710.05
730.11	1683.43
730.30	1578.98
730.48	1517.54
730.66	1589.22
730.84	1636.33
731.02	1556.46
731.20	1525.74
731.38	1640.42
731.56	1437.67
731.74	1458.15
731.93	1513.45
732.11	1486.83
732.29	1535.98
732.47	1554.41
732.65	1605.61
732.83	1632.23
733.01	1595.37
733.19	1458.15
733.37	1507.30
733.56	1595.37
733.74	1531.88
733.92	1568.74
734.10	1572.84
734.28	1574.89
734.46	1449.96
734.64	1593.32
734.82	1490.92
735.00	1570.79
735.18	1468.39
735.36	1566.70
735.54	1599.46
735.73	1601.51
735.91	1519.59
736.09	1572.84
736.27	1546.22
736.45	1570.79
736.63	1452.01
736.81	1484.78
736.99	1574.89
737.17	1634.28
737.35	1511.40
737.53	1517.54
737.71	1501.16
737.89	1533.93
738.07	1460.20
738.25	1480.68
738.43	1443.82
738.61	1505.26
738.80	1441.77
738.98	1449.96
739.16	1490.92
739.34	1523.69
739.52	1648.61
739.70	1499.11
739.88	1517.54
740.06	1609.70
740.24	1474.54
740.42	1581.03
740.60	1505.26
740.78	1513.45
740.96	1447.91
741.14	1470.44
741.32	1523.69
741.50	1574.89
741.68	1615.85
741.86	1564.65
742.04	1466.35
742.22	1533.93
742.40	1499.11
742.58	1533.93
742.76	1517.54
742.94	1490.92
743.12	1478.63
743.30	1554.41
743.48	1603.56
743.66	1544.17
743.84	1587.18
744.02	1527.78
744.20	1550.31
744.38	1472.49
744.56	1552.36
744.74	1734.63
744.92	1552.36
745.10	1638.38
745.28	1529.83
745.46	1601.51
745.64	1513.45
745.82	1560.55
746.00	1544.17
746.18	1525.74
746.36	1468.39
746.54	1574.89
746.72	1535.98
746.90	1425.39
747.08	1621.99
747.26	1521.64
747.44	1572.84
747.62	1558.50
747.80	1591.27
747.98	1554.41
748.15	1472.49
748.33	1619.94
748.51	1525.74
748.69	1597.42
748.87	1503.21
749.05	1572.84
749.23	1587.18
749.41	1605.61
749.59	1527.78
749.77	1533.93
749.95	1542.12
750.13	1587.18
750.31	1556.46
750.49	1501.16
750.67	1568.74
750.85	1576.94
751.03	1560.55
751.20	1632.23
751.38	1601.51
751.56	1566.70
751.74	1562.60
751.92	1585.13
752.10	1460.20
752.28	1527.78
752.46	1550.31
752.64	1566.70
752.82	1542.12
753.00	1619.94
753.18	1548.26
753.35	1538.02
753.53	1554.41
753.71	1542.12
753.89	1568.74
754.07	1521.64
754.25	1595.37
754.43	1556.46
754.61	1525.74
754.79	1591.27
754.97	1576.94
755.14	1628.14
755.32	1548.26
755.50	1576.94
755.68	1583.08
755.86	1484.78
756.04	1452.01
756.22	1464.30
756.40	1503.21
756.57	1552.36
756.75	1509.35
756.93	1556.46
757.11	1630.18
757.29	1501.16
757.47	1521.64
757.65	1445.87
757.82	1505.26
758.00	1548.26
758.18	1505.26
758.36	1535.98
758.54	1662.95
758.72	1363.95
758.90	1570.79
759.07	1603.56
759.25	1511.40
759.43	1613.80
759.61	1484.78
759.79	1964.00
759.97	1667.05
760.15	1531.88
760.32	1544.17
760.50	1533.93
760.68	1669.09
760.86	1441.77
761.04	1554.41
761.22	1540.07
761.39	1509.35
761.57	1552.36
761.75	1470.44
761.93	1548.26
762.11	1554.41
762.28	1507.30
762.46	1492.97
762.64	1529.83
762.82	1490.92
763.00	1527.78
763.18	1556.46
763.35	1499.11
763.53	1615.85
763.71	1503.21
763.89	1531.88
764.07	1509.35
764.24	1548.26
764.42	1568.74
764.60	1507.30
764.78	1531.88
764.96	1593.32
765.13	1615.85
765.31	1517.54
765.49	1601.51
765.67	1472.49
765.84	1501.16
766.02	1454.06
766.20	1421.29
766.38	1601.51
766.56	1538.02
766.73	1515.50
766.91	1585.13
767.09	1556.46
767.27	1587.18
767.44	1505.26
767.62	1576.94
767.80	1613.80
767.98	1437.67
768.15	1513.45
768.33	1538.02
768.51	1589.22
768.69	1546.22
768.87	1568.74
769.04	1480.68
769.22	1593.32
769.40	1593.32
769.58	1642.47
769.75	1497.07
769.93	1601.51
770.11	1525.74
770.28	1478.63
770.46	1550.31
770.64	1550.31
770.82	1581.03
770.99	1552.36
771.17	1505.26
771.35	1535.98
771.53	1521.64
771.70	1607.66
771.88	1497.07
772.06	1583.08
772.23	1554.41
772.41	1501.16
772.59	1538.02
772.77	1533.93
772.94	1574.89
773.12	1562.60
773.30	1443.82
773.47	1574.89
773.65	1503.21
773.83	1603.56
774.01	1644.52
774.18	1486.83
774.36	1511.40
774.54	1449.96
774.71	1552.36
774.89	1495.02
775.07	1456.11
775.24	1425.39
775.42	1425.39
775.60	1603.56
775.78	1501.16
775.95	1454.06
776.13	1443.82
776.31	1419.24
776.48	1552.36
776.66	1701.86
776.84	1474.54
777.01	1505.26
777.19	1529.83
777.37	1511.40
777.54	1556.46
777.72	1658.85
777.90	1570.79
778.07	1515.50
778.25	1693.67
778.43	1609.70
778.60	1464.30
778.78	1523.69
778.96	1603.56
779.13	1466.35
779.31	1558.50
779.49	1566.70
779.66	1533.93
779.84	1468.39
780.01	1628.14
780.19	1519.59
780.37	1558.50
780.54	1611.75
780.72	1452.01
780.90	1533.93
781.07	1535.98
781.25	1470.44
781.43	1595.37
781.60	1464.30
781.78	1560.55
781.95	1525.74
782.13	1484.78
782.31	1517.54
782.48	1529.83
782.66	1486.83
782.83	1656.81
783.01	1607.66
783.19	1624.04
783.36	1538.02
783.54	1478.63
783.72	1558.50
783.89	1540.07
784.07	1480.68
784.24	1552.36
784.42	1568.74
784.60	1480.68
784.77	1513.45
784.95	1490.92
785.12	1503.21
785.30	1515.50
785.47	1540.07
785.65	1480.68
785.83	1529.83
786.00	1460.20
786.18	1525.74
786.35	1492.97
786.53	1495.02
786.71	1499.11
786.88	1611.75
787.06	1601.51
787.23	1511.40
787.41	1521.64
787.58	1587.18
787.76	1538.02
787.94	1576.94
788.11	1554.41
788.29	1495.02
788.46	1517.54
788.64	1484.78
788.81	1509.35
788.99	1503.21
789.16	1521.64
789.34	1533.93
789.52	1501.16
789.69	1511.40
789.87	1423.34
790.04	1634.28
790.22	1509.35
790.39	1712.10
790.57	1581.03
790.74	1513.45
790.92	1619.94
791.09	1404.91
791.27	1540.07
791.44	1560.55
791.62	1515.50
791.79	1558.50
791.97	1476.59
792.15	1681.38
792.32	1611.75
792.50	1554.41
792.67	1570.79
792.85	1630.18
793.02	1554.41
793.20	1529.83
793.37	1562.60
793.55	1601.51
793.72	1470.44
793.90	1611.75
794.07	1486.83
794.25	1507.30
794.42	1503.21
794.60	1505.26
794.77	1605.61
794.95	1585.13
795.12	1540.07
795.30	1478.63
795.47	1427.43
795.65	1658.85
795.82	1527.78
796.00	1513.45
796.17	1581.03
796.34	1452.01
796.52	1521.64
796.69	1540.07
796.87	1550.31
797.04	1560.55
797.22	1591.27
797.39	1511.40
797.57	1568.74
797.74	1630.18
797.92	1492.97
798.09	1486.83
798.27	1542.12
798.44	1574.89
798.62	1548.26
798.79	1525.74
798.96	1591.27
799.14	1521.64
799.31	1728.49
799.49	1495.02
799.66	1474.54
799.84	1572.84
800.01	1478.63
800.19	1513.45
800.36	1497.07
800.53	1550.31
800.71	1550.31
800.88	1617.90
801.06	1492.97
801.23	1482.73
801.41	1566.70
801.58	1525.74
801.75	1527.78
801.93	1609.70
802.10	1523.69
802.28	1533.93
802.45	1572.84
802.63	1570.79
802.80	1624.04
802.97	1531.88
803.15	1509.35
803.32	1492.97
803.50	1472.49
803.67	1443.82
803.84	1519.59
804.02	1548.26
804.19	1542.12
804.37	1490.92
804.54	1454.06
804.71	1409.00
804.89	1515.50
805.06	1523.69
805.24	1466.35
805.41	1499.11
805.58	1484.78
805.76	1607.66
805.93	1480.68
806.10	1581.03
806.28	1542.12
806.45	1513.45
806.63	1527.78
806.80	1556.46
806.97	1587.18
807.15	1495.02
807.32	1609.70
807.49	1550.31
807.67	1468.39
807.84	1550.31
808.01	1431.53
808.19	1593.32
808.36	1634.28
808.54	1404.91
808.71	1538.02
808.88	1480.68
809.06	1617.90
809.23	1607.66
809.40	1478.63
809.58	1595.37
809.75	1476.59
809.92	1468.39
810.10	1636.33
810.27	1540.07
810.44	1583.08
810.62	1535.98
810.79	1482.73
810.96	1429.48
811.14	1562.60
811.31	1540.07
811.48	1558.50
811.66	1562.60
811.83	1628.14
812.00	1558.50
812.18	1554.41
812.35	1662.95
812.52	1505.26
812.69	1454.06
812.87	1429.48
813.04	1523.69
813.21	1503.21
813.39	1568.74
813.56	1409.00
813.73	1564.65
813.91	1492.97
814.08	1552.36
814.25	1572.84
814.42	1538.02
814.60	1519.59
814.77	1597.42
814.94	1406.95
815.12	1488.87
815.29	1607.66
815.46	1505.26
815.63	1517.54
815.81	1548.26
815.98	1531.88
816.15	1505.26
816.33	1486.83
816.50	1499.11
816.67	1525.74
816.84	1468.39
817.02	1550.31
817.19	1560.55
817.36	1656.81
817.53	1566.70
817.71	1441.77
817.88	1607.66
818.05	1482.73
818.22	1515.50
818.40	1540.07
818.57	1505.26
818.74	1443.82
818.91	1486.83
819.09	1533.93
819.26	1560.55
819.43	1525.74
819.60	1562.60
819.78	1572.84
819.95	1621.99
820.12	1556.46
820.29	1515.50
820.47	1619.94
820.64	1462.25
820.81	1470.44
820.98	1527.78
821.15	1542.12
821.33	1574.89
821.50	1511.40
821.67	1505.26
821.84	1497.07
822.02	1554.41
822.19	1607.66
822.36	1462.25
822.53	1570.79
822.70	1480.68
822.88	1441.77
823.05	1558.50
823.22	1533.93
823.39	1478.63
823.56	1470.44
823.74	1609.70
823.91	1443.82
824.08	1460.20
824.25	1466.35
824.42	1578.98
824.60	1462.25
824.77	1482.73
824.94	1538.02
825.11	1531.88
825.28	1447.91
825.45	1529.83
825.63	1601.51
825.80	1523.69
825.97	1671.14
826.14	1554.41
826.31	1443.82
826.48	1611.75
826.66	1427.43
826.83	1513.45
827.00	1488.87
827.17	1488.87
827.34	1626.09
827.51	1531.88
827.69	1525.74
827.86	1480.68
828.03	1581.03
828.20	1492.97
828.37	1474.54
828.54	1527.78
828.71	1488.87
828.89	1574.89
829.06	1507.30
829.23	1529.83
829.40	1519.59
829.57	1515.50
829.74	1570.79
829.91	1472.49
830.09	1554.41
830.26	1544.17
830.43	1621.99
830.60	1439.72
830.77	1570.79
830.94	1546.22
831.11	1601.51
831.28	1529.83
831.46	1613.80
831.63	1423.34
831.80	1595.37
831.97	1499.11
832.14	1470.44
832.31	1548.26
832.48	1515.50
832.65	1607.66
832.82	1482.73
832.99	1628.14
833.17	1423.34
833.34	1525.74
833.51	1546.22
833.68	1421.29
833.85	1525.74
834.02	1501.16
834.19	1589.22
834.36	1484.78
834.53	1527.78
834.70	1597.42
834.87	1558.50
835.04	1554.41
835.22	1556.46
835.39	1540.07
835.56	1460.20
835.73	1566.70
835.90	1572.84
836.07	1517.54
836.24	1593.32
836.41	1505.26
836.58	1447.91
836.75	1578.98
836.92	1515.50
837.09	1525.74
837.26	1576.94
837.43	1581.03
837.60	1585.13
837.77	1531.88
837.94	1566.70
838.12	1624.04
838.29	1611.75
838.46	1558.50
838.63	1515.50
838.80	1574.89
838.97	1605.61
839.14	1505.26
839.31	1601.51
839.48	1542.12
839.65	1591.27
839.82	1527.78
839.99	1570.79
840.16	1556.46
840.33	1509.35
840.50	1589.22
840.67	1546.22
840.84	1466.35
841.01	1636.33
841.18	1497.07
841.35	1587.18
841.52	1550.31
841.69	1660.90
841.86	1535.98
842.03	1603.56
842.20	1513.45
842.37	1503.21
842.54	1517.54
842.71	1568.74
842.88	1574.89
843.05	1552.36
843.22	1468.39
843.39	1556.46
843.56	1544.17
843.73	1593.32
843.90	1523.69
844.07	1499.11
844.24	1576.94
844.41	1546.22
844.58	1574.89
844.75	1478.63
844.92	1593.32
845.09	1554.41
845.26	1480.68
845.43	1560.55
845.60	1447.91
845.77	1517.54
845.94	1525.74
846.10	1630.18
846.27	1509.35
846.44	1390.57
846.61	1550.31
846.78	1562.60
846.95	1544.17
847.12	1480.68
847.29	1558.50
847.46	1472.49
847.63	1585.13
847.80	1591.27
847.97	1490.92
848.14	1607.66
848.31	1468.39
848.48	1501.16
848.65	1527.78
848.82	1478.63
848.98	1648.61
849.15	1581.03
849.32	1583.08
849.49	1615.85
849.66	1509.35
849.83	1660.90
850.00	1511.40
850.17	1595.37
850.34	1558.50
850.51	1529.83
850.68	1560.55
850.85	1628.14
851.01	1560.55
851.18	1474.54
851.35	1462.25
851.52	1527.78
851.69	1560.55
851.86	1511.40
852.03	1501.16
852.20	1515.50
852.37	1482.73
852.53	1472.49
852.70	1558.50
852.87	1538.02
853.04	1550.31
853.21	1454.06
853.38	1605.61
853.55	1650.66
853.72	1544.17
853.89	1521.64
854.05	1495.02
854.22	1486.83
854.39	1525.74
854.56	1572.84
854.73	1607.66
854.90	1517.54
855.07	1540.07
855.23	1499.11
855.40	1452.01
855.57	1480.68
855.74	1511.40
855.91	1648.61
856.08	1490.92
856.25	1519.59
856.41	1486.83
856.58	1443.82
856.75	1495.02
856.92	1535.98
857.09	1607.66
857.26	1515.50
857.42	1544.17
857.59	1552.36
857.76	1478.63
857.93	1578.98
858.10	1550.31
858.27	1507.30
858.43	1511.40
858.60	1519.59
858.77	1382.38
858.94	1492.97
859.11	1546.22
859.27	1443.82
859.44	1564.65
859.61	1617.90
859.78	1525.74
859.95	1544.17
860.12	1525.74
860.28	1632.23
860.45	1626.09
860.62	1562.60
860.79	1601.51
860.95	1515.50
861.12	1556.46
861.29	1521.64
861.46	1495.02
861.63	1476.59
861.79	1503.21
861.96	1513.45
862.13	1505.26
862.30	1497.07
862.47	1499.11
862.63	1531.88
862.80	1480.68
862.97	1587.18
863.14	1490.92
863.30	1581.03
863.47	1521.64
863.64	1562.60
863.81	1617.90
863.97	1476.59
864.14	1578.98
864.31	1474.54
864.48	1603.56
864.65	1540.07
864.81	1554.41
864.98	1574.89
865.15	1613.80
865.32	1548.26
865.48	1593.32
865.65	1576.94
865.82	1519.59
865.98	1560.55
866.15	1636.33
866.32	1503.21
866.49	1527.78
866.65	1593.32
866.82	1538.02
866.99	1505.26
867.16	1550.31
867.32	1380.33
867.49	1585.13
867.66	1548.26
867.83	1542.12
867.99	1488.87
868.16	1538.02
868.33	1394.67
868.49	1554.41
868.66	1546.22
868.83	1566.70
868.99	1595.37
869.16	1519.59
869.33	1648.61
869.50	1574.89
869.66	1468.39
869.83	1490.92
870.00	1406.95
870.16	1550.31
870.33	1519.59
870.50	1538.02
870.66	1556.46
870.83	1689.57
871.00	1542.12
871.17	1552.36
871.33	1540.07
871.50	1488.87
871.67	1538.02
871.83	1466.35
872.00	1607.66
872.17	1482.73
872.33	1621.99
872.50	1624.04
872.67	1529.83
872.83	1501.16
873.00	1513.45
873.17	1511.40
873.33	1562.60
873.50	1587.18
873.67	1556.46
873.83	1505.26
874.00	1558.50
874.16	1560.55
874.33	1552.36
874.50	1468.39
874.66	1531.88
874.83	1472.49
875.00	1646.57
875.16	1560.55
875.33	1570.79
875.50	1361.90
875.66	1507.30
875.83	1550.31
875.99	1613.80
876.16	1437.67
876.33	1480.68
876.49	1492.97
876.66	1509.35
876.83	1495.02
876.99	1419.24
877.16	1490.92
877.32	1558.50
877.49	1538.02
877.66	1574.89
877.82	1621.99
877.99	1525.74
878.15	1535.98
878.32	1587.18
878.49	1626.09
878.65	1521.64
878.82	1638.38
878.98	1544.17
879.15	1572.84
879.32	1486.83
879.48	1550.31
879.65	1499.11
879.81	1525.74
879.98	1525.74
880.15	1480.68
880.31	1560.55
880.48	1515.50
880.64	1572.84
880.81	1574.89
880.97	1607.66
881.14	1570.79
881.31	1540.07
881.47	1601.51
881.64	1540.07
881.80	1435.63
881.97	1585.13
882.13	1607.66
882.30	1476.59
882.47	1445.87
882.63	1519.59
882.80	1466.35
882.96	1482.73
883.13	1550.31
883.29	1568.74
883.46	1578.98
883.62	1578.98
883.79	1544.17
883.95	1531.88
884.12	1546.22
884.29	1519.59
884.45	1464.30
884.62	1624.04
884.78	1542.12
884.95	1593.32
885.11	1460.20
885.28	1613.80
885.44	1509.35
885.61	1626.09
885.77	1681.38
885.94	1601.51
886.10	1566.70
886.27	1513.45
886.43	1595.37
886.60	1548.26
886.76	1554.41
886.93	1445.87
887.09	1552.36
887.26	1488.87
887.42	1603.56
887.59	1527.78
887.75	1609.70
887.92	1581.03
888.08	1509.35
888.25	1673.19
888.41	1558.50
888.58	1599.46
888.74	1417.19
888.91	1480.68
>>>>>End Processed Spectral Data<<<<<
