SpectraSuite Data File
++++++++++++++++++++++++++++++++++++
Date: Tue May 03 12:55:06 CEST 2016
User: root
Dark Spectrum Present: No
Reference Spectrum Present: No
Number of Sampled Component Spectra: 1
Spectrometers: USB4C02835
Integration Time (usec): 100000 (USB4C02835)
Spectra Averaged: 1 (USB4C02835)
Boxcar Smoothing: 0 (USB4C02835)
Correct for Electrical Dark: No (USB4C02835)
Strobe/Lamp Enabled: No (USB4C02835)
Correct for Detector Non-linearity: No (USB4C02835)
Correct for Stray Light: No (USB4C02835)
Number of Pixels in Processed Spectrum: 3648
>>>>>Begin Processed Spectral Data<<<<<
177.47	1380.33
177.69	1380.33
177.91	1380.33
178.13	1312.75
178.36	1370.09
178.58	1535.98
178.80	1544.17
179.02	1488.87
179.24	1476.59
179.46	1513.45
179.68	1660.90
179.90	1513.45
180.13	1578.98
180.35	1476.59
180.57	1492.97
180.79	1531.88
181.01	1492.97
181.23	1552.36
181.45	1546.22
181.67	1576.94
181.90	1554.41
182.12	1468.39
182.34	1415.15
182.56	1568.74
182.78	1521.64
183.00	1484.78
183.22	1566.70
183.44	1503.21
183.66	1574.89
183.89	1611.75
184.11	1482.73
184.33	1558.50
184.55	1550.31
184.77	1570.79
184.99	1605.61
185.21	1458.15
185.43	1636.33
185.65	1558.50
185.87	1509.35
186.10	1660.90
186.32	1601.51
186.54	1564.65
186.76	1499.11
186.98	1458.15
187.20	1505.26
187.42	1538.02
187.64	1591.27
187.86	1542.12
188.08	1558.50
188.30	1513.45
188.52	1544.17
188.75	1527.78
188.97	1576.94
189.19	1521.64
189.41	1511.40
189.63	1566.70
189.85	1499.11
190.07	1525.74
190.29	1521.64
190.51	1609.70
190.73	1466.35
190.95	1597.42
191.17	1535.98
191.39	1501.16
191.61	1472.49
191.84	1468.39
192.06	1576.94
192.28	1441.77
192.50	1671.14
192.72	1566.70
192.94	1521.64
193.16	1609.70
193.38	1521.64
193.60	1464.30
193.82	1523.69
194.04	1548.26
194.26	1644.52
194.48	1462.25
194.70	1429.48
194.92	1593.32
195.14	1495.02
195.36	1499.11
195.58	1486.83
195.80	1556.46
196.02	1513.45
196.24	1560.55
196.46	1544.17
196.69	1511.40
196.91	1652.71
197.13	1574.89
197.35	1501.16
197.57	1611.75
197.79	1495.02
198.01	1538.02
198.23	1560.55
198.45	1538.02
198.67	1495.02
198.89	1499.11
199.11	1550.31
199.33	1480.68
199.55	1419.24
199.77	1517.54
199.99	1585.13
200.21	1486.83
200.43	1550.31
200.65	1433.58
200.87	1490.92
201.09	1570.79
201.31	1589.22
201.53	1550.31
201.75	1540.07
201.97	1605.61
202.19	1503.21
202.41	1513.45
202.63	1558.50
202.85	1597.42
203.07	1527.78
203.29	1542.12
203.51	1458.15
203.73	1480.68
203.95	1669.09
204.17	1560.55
204.39	1523.69
204.61	1552.36
204.83	1501.16
205.05	1548.26
205.27	1566.70
205.49	1699.81
205.71	1507.30
205.93	1488.87
206.15	1521.64
206.37	1511.40
206.59	1521.64
206.81	1470.44
207.03	1495.02
207.25	1464.30
207.47	1605.61
207.69	1566.70
207.91	1503.21
208.13	1583.08
208.34	1472.49
208.56	1495.02
208.78	1513.45
209.00	1505.26
209.22	1488.87
209.44	1562.60
209.66	1538.02
209.88	1439.72
210.10	1478.63
210.32	1511.40
210.54	1611.75
210.76	1503.21
210.98	1589.22
211.20	1482.73
211.42	1574.89
211.64	1527.78
211.86	1556.46
212.08	1578.98
212.30	1640.42
212.52	1540.07
212.74	1566.70
212.96	1564.65
213.17	1681.38
213.39	1538.02
213.61	1585.13
213.83	1572.84
214.05	1490.92
214.27	1548.26
214.49	1488.87
214.71	1484.78
214.93	1621.99
215.15	1533.93
215.37	1542.12
215.59	1462.25
215.81	1591.27
216.03	1562.60
216.24	1540.07
216.46	1531.88
216.68	1636.33
216.90	1501.16
217.12	1642.47
217.34	1576.94
217.56	1488.87
217.78	1652.71
218.00	1535.98
218.22	1484.78
218.44	1583.08
218.66	1525.74
218.87	1550.31
219.09	1538.02
219.31	1593.32
219.53	1634.28
219.75	1535.98
219.97	1525.74
220.19	1550.31
220.41	1497.07
220.63	1658.85
220.85	1495.02
221.06	1535.98
221.28	1624.04
221.50	1581.03
221.72	1521.64
221.94	1583.08
222.16	1497.07
222.38	1521.64
222.60	1617.90
222.82	1599.46
223.03	1560.55
223.25	1540.07
223.47	1621.99
223.69	1710.05
223.91	1527.78
224.13	1554.41
224.35	1445.87
224.57	1593.32
224.78	1529.83
225.00	1492.97
225.22	1525.74
225.44	1566.70
225.66	1550.31
225.88	1550.31
226.10	1572.84
226.32	1554.41
226.53	1566.70
226.75	1523.69
226.97	1554.41
227.19	1591.27
227.41	1458.15
227.63	1583.08
227.85	1462.25
228.06	1548.26
228.28	1640.42
228.50	1624.04
228.72	1542.12
228.94	1466.35
229.16	1439.72
229.37	1513.45
229.59	1476.59
229.81	1568.74
230.03	1468.39
230.25	1462.25
230.47	1456.11
230.69	1447.91
230.90	1535.98
231.12	1464.30
231.34	1574.89
231.56	1527.78
231.78	1435.63
232.00	1488.87
232.21	1570.79
232.43	1501.16
232.65	1380.33
232.87	1597.42
233.09	1576.94
233.30	1535.98
233.52	1632.23
233.74	1570.79
233.96	1443.82
234.18	1542.12
234.40	1562.60
234.61	1658.85
234.83	1484.78
235.05	1589.22
235.27	1632.23
235.49	1562.60
235.70	1564.65
235.92	1562.60
236.14	1472.49
236.36	1634.28
236.58	1562.60
236.79	1621.99
237.01	1560.55
237.23	1554.41
237.45	1570.79
237.67	1546.22
237.88	1574.89
238.10	1593.32
238.32	1441.77
238.54	1568.74
238.76	1519.59
238.97	1490.92
239.19	1511.40
239.41	1550.31
239.63	1550.31
239.85	1607.66
240.06	1492.97
240.28	1533.93
240.50	1593.32
240.72	1441.77
240.93	1462.25
241.15	1546.22
241.37	1468.39
241.59	1533.93
241.81	1574.89
242.02	1523.69
242.24	1550.31
242.46	1558.50
242.68	1497.07
242.89	1583.08
243.11	1538.02
243.33	1523.69
243.55	1521.64
243.76	1495.02
243.98	1482.73
244.20	1570.79
244.42	1544.17
244.64	1626.09
244.85	1484.78
245.07	1519.59
245.29	1562.60
245.51	1472.49
245.72	1535.98
245.94	1605.61
246.16	1585.13
246.38	1578.98
246.59	1552.36
246.81	1527.78
247.03	1560.55
247.24	1462.25
247.46	1519.59
247.68	1574.89
247.90	1490.92
248.11	1574.89
248.33	1564.65
248.55	1624.04
248.77	1564.65
248.98	1572.84
249.20	1634.28
249.42	1597.42
249.64	1542.12
249.85	1589.22
250.07	1480.68
250.29	1607.66
250.50	1552.36
250.72	1570.79
250.94	1505.26
251.16	1689.57
251.37	1605.61
251.59	1574.89
251.81	1540.07
252.02	1533.93
252.24	1583.08
252.46	1550.31
252.68	1490.92
252.89	1587.18
253.11	1449.96
253.33	1605.61
253.54	1525.74
253.76	1460.20
253.98	1492.97
254.20	1581.03
254.41	1486.83
254.63	1511.40
254.85	1501.16
255.06	1546.22
255.28	1550.31
255.50	1544.17
255.71	1513.45
255.93	1431.53
256.15	1517.54
256.36	1640.42
256.58	1583.08
256.80	1574.89
257.02	1497.07
257.23	1540.07
257.45	1591.27
257.67	1531.88
257.88	1525.74
258.10	1574.89
258.32	1527.78
258.53	1509.35
258.75	1589.22
258.97	1531.88
259.18	1558.50
259.40	1521.64
259.62	1562.60
259.83	1558.50
260.05	1621.99
260.27	1701.86
260.48	1517.54
260.70	1472.49
260.92	1548.26
261.13	1480.68
261.35	1576.94
261.57	1525.74
261.78	1552.36
262.00	1556.46
262.22	1529.83
262.43	1513.45
262.65	1583.08
262.86	1599.46
263.08	1613.80
263.30	1523.69
263.51	1490.92
263.73	1544.17
263.95	1619.94
264.16	1406.95
264.38	1480.68
264.60	1535.98
264.81	1503.21
265.03	1599.46
265.25	1564.65
265.46	1466.35
265.68	1605.61
265.89	1521.64
266.11	1447.91
266.33	1593.32
266.54	1583.08
266.76	1552.36
266.98	1523.69
267.19	1650.66
267.41	1540.07
267.62	1495.02
267.84	1447.91
268.06	1542.12
268.27	1581.03
268.49	1601.51
268.70	1560.55
268.92	1581.03
269.14	1492.97
269.35	1509.35
269.57	1566.70
269.79	1609.70
270.00	1490.92
270.22	1619.94
270.43	1458.15
270.65	1404.91
270.87	1562.60
271.08	1509.35
271.30	1525.74
271.51	1540.07
271.73	1572.84
271.95	1603.56
272.16	1558.50
272.38	1427.43
272.59	1499.11
272.81	1574.89
273.02	1517.54
273.24	1519.59
273.46	1581.03
273.67	1495.02
273.89	1499.11
274.10	1458.15
274.32	1558.50
274.54	1589.22
274.75	1587.18
274.97	1517.54
275.18	1605.61
275.40	1566.70
275.61	1505.26
275.83	1556.46
276.05	1419.24
276.26	1517.54
276.48	1546.22
276.69	1462.25
276.91	1497.07
277.12	1644.52
277.34	1570.79
277.55	1615.85
277.77	1515.50
277.99	1484.78
278.20	1486.83
278.42	1527.78
278.63	1505.26
278.85	1476.59
279.06	1519.59
279.28	1542.12
279.49	1599.46
279.71	1515.50
279.93	1492.97
280.14	1583.08
280.36	1456.11
280.57	1560.55
280.79	1550.31
281.00	1523.69
281.22	1488.87
281.43	1533.93
281.65	1378.28
281.86	1574.89
282.08	1527.78
282.29	1601.51
282.51	1482.73
282.73	1540.07
282.94	1501.16
283.16	1499.11
283.37	1665.00
283.59	1525.74
283.80	1562.60
284.02	1529.83
284.23	1566.70
284.45	1517.54
284.66	1531.88
284.88	1486.83
285.09	1630.18
285.31	1650.66
285.52	1599.46
285.74	1435.63
285.95	1591.27
286.17	1509.35
286.38	1503.21
286.60	1486.83
286.81	1499.11
287.03	1441.77
287.24	1525.74
287.46	1521.64
287.67	1533.93
287.89	1669.09
288.10	1478.63
288.32	1632.23
288.53	1650.66
288.75	1542.12
288.96	1591.27
289.18	1554.41
289.39	1562.60
289.61	1552.36
289.82	1591.27
290.04	1619.94
290.25	1484.78
290.47	1484.78
290.68	1509.35
290.90	1615.85
291.11	1466.35
291.33	1597.42
291.54	1533.93
291.76	1585.13
291.97	1533.93
292.18	1509.35
292.40	1507.30
292.61	1513.45
292.83	1613.80
293.04	1507.30
293.26	1595.37
293.47	1548.26
293.69	1564.65
293.90	1480.68
294.12	1486.83
294.33	1509.35
294.55	1505.26
294.76	1572.84
294.97	1538.02
295.19	1607.66
295.40	1548.26
295.62	1564.65
295.83	1593.32
296.05	1509.35
296.26	1597.42
296.48	1466.35
296.69	1525.74
296.90	1472.49
297.12	1542.12
297.33	1652.71
297.55	1529.83
297.76	1527.78
297.98	1548.26
298.19	1556.46
298.41	1570.79
298.62	1566.70
298.83	1585.13
299.05	1542.12
299.26	1548.26
299.48	1413.10
299.69	1484.78
299.90	1488.87
300.12	1472.49
300.33	1593.32
300.55	1484.78
300.76	1605.61
300.98	1497.07
301.19	1603.56
301.40	1472.49
301.62	1578.98
301.83	1517.54
302.05	1552.36
302.26	1544.17
302.47	1535.98
302.69	1581.03
302.90	1581.03
303.12	1433.58
303.33	1597.42
303.54	1669.09
303.76	1492.97
303.97	1515.50
304.19	1615.85
304.40	1562.60
304.61	1611.75
304.83	1558.50
305.04	1542.12
305.26	1589.22
305.47	1515.50
305.68	1519.59
305.90	1484.78
306.11	1576.94
306.33	1529.83
306.54	1558.50
306.75	1531.88
306.97	1441.77
307.18	1490.92
307.39	1501.16
307.61	1517.54
307.82	1527.78
308.04	1548.26
308.25	1490.92
308.46	1517.54
308.68	1538.02
308.89	1552.36
309.10	1546.22
309.32	1521.64
309.53	1507.30
309.74	1490.92
309.96	1550.31
310.17	1521.64
310.39	1505.26
310.60	1529.83
310.81	1581.03
311.03	1480.68
311.24	1511.40
311.45	1497.07
311.67	1640.42
311.88	1523.69
312.09	1533.93
312.31	1474.54
312.52	1525.74
312.73	1566.70
312.95	1409.00
313.16	1474.54
313.37	1542.12
313.59	1529.83
313.80	1529.83
314.01	1634.28
314.23	1507.30
314.44	1476.59
314.65	1486.83
314.87	1497.07
315.08	1595.37
315.29	1572.84
315.51	1472.49
315.72	1470.44
315.93	1574.89
316.15	1554.41
316.36	1478.63
316.57	1564.65
316.79	1570.79
317.00	1517.54
317.21	1449.96
317.43	1511.40
317.64	1540.07
317.85	1472.49
318.07	1556.46
318.28	1654.76
318.49	1683.43
318.70	1828.84
318.92	1705.96
319.13	1677.29
319.34	1773.54
319.56	1624.04
319.77	1697.77
319.98	1640.42
320.20	1634.28
320.41	1644.52
320.62	1570.79
320.83	1486.83
321.05	1599.46
321.26	1609.70
321.47	1540.07
321.69	1587.18
321.90	1484.78
322.11	1576.94
322.32	1521.64
322.54	1732.58
322.75	1533.93
322.96	1636.33
323.18	1480.68
323.39	1425.39
323.60	1454.06
323.81	1585.13
324.03	1480.68
324.24	1544.17
324.45	1482.73
324.66	1478.63
324.88	1578.98
325.09	1607.66
325.30	1519.59
325.52	1515.50
325.73	1523.69
325.94	1515.50
326.15	1486.83
326.37	1558.50
326.58	1552.36
326.79	1507.30
327.00	1499.11
327.22	1517.54
327.43	1531.88
327.64	1521.64
327.85	1619.94
328.07	1540.07
328.28	1642.47
328.49	1515.50
328.70	1581.03
328.92	1531.88
329.13	1509.35
329.34	1533.93
329.55	1615.85
329.76	1681.38
329.98	1552.36
330.19	1607.66
330.40	1480.68
330.61	1558.50
330.83	1531.88
331.04	1492.97
331.25	1544.17
331.46	1519.59
331.68	1423.34
331.89	1560.55
332.10	1581.03
332.31	1517.54
332.52	1511.40
332.74	1583.08
332.95	1429.48
333.16	1542.12
333.37	1593.32
333.58	1460.20
333.80	1523.69
334.01	1433.58
334.22	1527.78
334.43	1509.35
334.64	1556.46
334.86	1525.74
335.07	1492.97
335.28	1519.59
335.49	1523.69
335.70	1603.56
335.92	1621.99
336.13	1562.60
336.34	1574.89
336.55	1511.40
336.76	1542.12
336.98	1449.96
337.19	1484.78
337.40	1617.90
337.61	1671.14
337.82	1437.67
338.04	1624.04
338.25	1484.78
338.46	1535.98
338.67	1492.97
338.88	1462.25
339.09	1458.15
339.31	1501.16
339.52	1482.73
339.73	1488.87
339.94	1480.68
340.15	1599.46
340.36	1513.45
340.58	1470.44
340.79	1445.87
341.00	1535.98
341.21	1527.78
341.42	1585.13
341.63	1505.26
341.85	1583.08
342.06	1509.35
342.27	1527.78
342.48	1519.59
342.69	1521.64
342.90	1509.35
343.12	1576.94
343.33	1591.27
343.54	1572.84
343.75	1581.03
343.96	1521.64
344.17	1466.35
344.38	1513.45
344.60	1427.43
344.81	1521.64
345.02	1521.64
345.23	1517.54
345.44	1609.70
345.65	1531.88
345.86	1484.78
346.07	1574.89
346.29	1454.06
346.50	1552.36
346.71	1634.28
346.92	1542.12
347.13	1544.17
347.34	1576.94
347.55	1560.55
347.76	1515.50
347.98	1419.24
348.19	1511.40
348.40	1599.46
348.61	1558.50
348.82	1560.55
349.03	1605.61
349.24	1488.87
349.45	1617.90
349.66	1460.20
349.88	1513.45
350.09	1488.87
350.30	1574.89
350.51	1621.99
350.72	1593.32
350.93	1517.54
351.14	1482.73
351.35	1435.63
351.56	1523.69
351.77	1558.50
351.99	1570.79
352.20	1583.08
352.41	1624.04
352.62	1513.45
352.83	1474.54
353.04	1572.84
353.25	1476.59
353.46	1509.35
353.67	1589.22
353.88	1490.92
354.09	1583.08
354.30	1591.27
354.52	1501.16
354.73	1515.50
354.94	1486.83
355.15	1576.94
355.36	1662.95
355.57	1497.07
355.78	1538.02
355.99	1521.64
356.20	1593.32
356.41	1560.55
356.62	1578.98
356.83	1525.74
357.04	1660.90
357.25	1396.71
357.46	1505.26
357.68	1511.40
357.89	1486.83
358.10	1517.54
358.31	1538.02
358.52	1515.50
358.73	1490.92
358.94	1511.40
359.15	1495.02
359.36	1572.84
359.57	1486.83
359.78	1511.40
359.99	1464.30
360.20	1566.70
360.41	1517.54
360.62	1607.66
360.83	1527.78
361.04	1521.64
361.25	1550.31
361.46	1578.98
361.67	1578.98
361.88	1581.03
362.09	1558.50
362.30	1533.93
362.51	1546.22
362.72	1601.51
362.93	1521.64
363.14	1470.44
363.35	1499.11
363.56	1568.74
363.78	1578.98
363.99	1527.78
364.20	1511.40
364.41	1535.98
364.62	1591.27
364.83	1570.79
365.04	1578.98
365.25	1568.74
365.46	1638.38
365.67	1476.59
365.88	1550.31
366.09	1566.70
366.30	1492.97
366.51	1462.25
366.72	1468.39
366.93	1597.42
367.14	1529.83
367.35	1632.23
367.56	1523.69
367.77	1675.24
367.98	1576.94
368.18	1480.68
368.39	1574.89
368.60	1454.06
368.81	1624.04
369.02	1552.36
369.23	1505.26
369.44	1570.79
369.65	1544.17
369.86	1562.60
370.07	1546.22
370.28	1607.66
370.49	1538.02
370.70	1599.46
370.91	1560.55
371.12	1566.70
371.33	1630.18
371.54	1525.74
371.75	1648.61
371.96	1390.57
372.17	1466.35
372.38	1560.55
372.59	1517.54
372.80	1513.45
373.01	1566.70
373.22	1564.65
373.43	1533.93
373.64	1505.26
373.85	1570.79
374.06	1646.57
374.26	1640.42
374.47	1495.02
374.68	1609.70
374.89	1490.92
375.10	1525.74
375.31	1621.99
375.52	1558.50
375.73	1503.21
375.94	1548.26
376.15	1605.61
376.36	1505.26
376.57	1505.26
376.78	1593.32
376.99	1515.50
377.20	1619.94
377.40	1535.98
377.61	1615.85
377.82	1490.92
378.03	1615.85
378.24	1517.54
378.45	1535.98
378.66	1544.17
378.87	1507.30
379.08	1447.91
379.29	1474.54
379.50	1568.74
379.71	1523.69
379.91	1583.08
380.12	1556.46
380.33	1495.02
380.54	1601.51
380.75	1454.06
380.96	1527.78
381.17	1572.84
381.38	1540.07
381.59	1613.80
381.80	1624.04
382.00	1656.81
382.21	1544.17
382.42	1716.20
382.63	1652.71
382.84	1486.83
383.05	1509.35
383.26	1662.95
383.47	1560.55
383.68	1548.26
383.88	1570.79
384.09	1552.36
384.30	1609.70
384.51	1574.89
384.72	1517.54
384.93	1464.30
385.14	1533.93
385.35	1517.54
385.55	1482.73
385.76	1613.80
385.97	1572.84
386.18	1480.68
386.39	1447.91
386.60	1558.50
386.81	1497.07
387.02	1554.41
387.22	1464.30
387.43	1648.61
387.64	1624.04
387.85	1861.60
388.06	3104.72
388.27	7139.22
388.48	10647.39
388.68	12226.37
388.89	13840.17
389.10	12695.36
389.31	10026.86
389.52	8791.93
389.73	7942.02
389.93	7153.55
390.14	6832.02
390.35	6231.97
390.56	5595.05
390.77	4661.18
390.98	3622.86
391.18	2828.24
391.39	2205.66
391.60	1773.54
391.81	1716.20
392.02	1611.75
392.23	1660.90
392.43	1519.59
392.64	1583.08
392.85	1595.37
393.06	1570.79
393.27	1511.40
393.47	1529.83
393.68	1548.26
393.89	1517.54
394.10	1650.66
394.31	1507.30
394.52	1501.16
394.72	1466.35
394.93	1564.65
395.14	1443.82
395.35	1560.55
395.56	1564.65
395.76	1660.90
395.97	1734.63
396.18	1787.88
396.39	1761.25
396.60	1875.94
396.80	1783.78
397.01	1681.38
397.22	1679.33
397.43	1617.90
397.64	1552.36
397.84	1624.04
398.05	1722.34
398.26	1597.42
398.47	1660.90
398.67	1560.55
398.88	1507.30
399.09	1560.55
399.30	1605.61
399.51	1544.17
399.71	1505.26
399.92	1486.83
400.13	1540.07
400.34	1593.32
400.54	1511.40
400.75	1654.76
400.96	1589.22
401.17	1611.75
401.37	1585.13
401.58	1495.02
401.79	1609.70
402.00	1751.01
402.21	1959.91
402.41	1961.95
402.62	1959.91
402.83	1945.57
403.04	1765.35
403.24	1972.19
403.45	1783.78
403.66	1771.49
403.87	1705.96
404.07	1832.93
404.28	1710.05
404.49	1753.06
404.70	1628.14
404.90	1566.70
405.11	1597.42
405.32	1535.98
405.52	1544.17
405.73	1460.20
405.94	1480.68
406.15	1540.07
406.35	1542.12
406.56	1570.79
406.77	1544.17
406.98	1517.54
407.18	1515.50
407.39	1646.57
407.60	1550.31
407.80	1525.74
408.01	1540.07
408.22	1552.36
408.43	1497.07
408.63	1505.26
408.84	1546.22
409.05	1605.61
409.25	1509.35
409.46	1523.69
409.67	1548.26
409.88	1486.83
410.08	1544.17
410.29	1480.68
410.50	1632.23
410.70	1568.74
410.91	1462.25
411.12	1540.07
411.32	1578.98
411.53	1593.32
411.74	1716.20
411.95	1654.76
412.15	1609.70
412.36	1613.80
412.57	1611.75
412.77	1599.46
412.98	1583.08
413.19	1587.18
413.39	1607.66
413.60	1578.98
413.81	1585.13
414.01	1562.60
414.22	1560.55
414.43	1587.18
414.63	1507.30
414.84	1593.32
415.05	1642.47
415.25	1488.87
415.46	1562.60
415.67	1437.67
415.87	1558.50
416.08	1529.83
416.29	1507.30
416.49	1495.02
416.70	1548.26
416.91	1544.17
417.11	1486.83
417.32	1546.22
417.53	1560.55
417.73	1568.74
417.94	1540.07
418.15	1542.12
418.35	1519.59
418.56	1542.12
418.77	1544.17
418.97	1517.54
419.18	1574.89
419.38	1525.74
419.59	1550.31
419.80	1597.42
420.00	1497.07
420.21	1523.69
420.42	1611.75
420.62	1568.74
420.83	1488.87
421.04	1609.70
421.24	1531.88
421.45	1544.17
421.65	1574.89
421.86	1542.12
422.07	1550.31
422.27	1517.54
422.48	1572.84
422.69	1499.11
422.89	1488.87
423.10	1560.55
423.30	1456.11
423.51	1523.69
423.72	1550.31
423.92	1583.08
424.13	1472.49
424.33	1560.55
424.54	1570.79
424.75	1542.12
424.95	1648.61
425.16	1492.97
425.36	1525.74
425.57	1542.12
425.78	1544.17
425.98	1624.04
426.19	1560.55
426.39	1495.02
426.60	1499.11
426.81	1669.09
427.01	1556.46
427.22	1490.92
427.42	1427.43
427.63	1558.50
427.83	1626.09
428.04	1626.09
428.25	1558.50
428.45	1542.12
428.66	1513.45
428.86	1533.93
429.07	1556.46
429.28	1566.70
429.48	1488.87
429.69	1470.44
429.89	1533.93
430.10	1499.11
430.30	1527.78
430.51	1572.84
430.71	1474.54
430.92	1568.74
431.13	1495.02
431.33	1601.51
431.54	1552.36
431.74	1583.08
431.95	1615.85
432.15	1425.39
432.36	1470.44
432.56	1585.13
432.77	1599.46
432.98	1691.62
433.18	1540.07
433.39	1558.50
433.59	1540.07
433.80	1671.14
434.00	1718.25
434.21	1525.74
434.41	1499.11
434.62	1611.75
434.82	1480.68
435.03	1570.79
435.23	1585.13
435.44	1437.67
435.64	1497.07
435.85	1624.04
436.06	1570.79
436.26	1550.31
436.47	1568.74
436.67	1478.63
436.88	1550.31
437.08	1576.94
437.29	1589.22
437.49	1529.83
437.70	1646.57
437.90	1521.64
438.11	1638.38
438.31	1615.85
438.52	1693.67
438.72	1732.58
438.93	1742.82
439.13	1658.85
439.34	1648.61
439.54	1603.56
439.75	1740.77
439.95	1550.31
440.16	1601.51
440.36	1546.22
440.57	1556.46
440.77	1576.94
440.98	1554.41
441.18	1581.03
441.39	1488.87
441.59	1525.74
441.80	1619.94
442.00	1572.84
442.21	1593.32
442.41	1507.30
442.62	1550.31
442.82	1505.26
443.02	1517.54
443.23	1564.65
443.43	1560.55
443.64	1675.24
443.84	1509.35
444.05	1650.66
444.25	1490.92
444.46	1540.07
444.66	1482.73
444.87	1595.37
445.07	1468.39
445.28	1529.83
445.48	1593.32
445.69	1665.00
445.89	1601.51
446.09	1710.05
446.30	2082.78
446.50	3045.33
446.71	4401.08
446.91	5232.56
447.12	5736.36
447.32	5470.12
447.53	4687.80
447.73	4057.03
447.93	3606.47
448.14	3362.76
448.34	3176.40
448.55	2871.25
448.75	2873.30
448.96	2772.95
449.16	2529.24
449.36	2295.77
449.57	2070.50
449.77	1775.59
449.98	1654.76
450.18	1628.14
450.39	1615.85
450.59	1615.85
450.79	1540.07
451.00	1525.74
451.20	1583.08
451.41	1601.51
451.61	1546.22
451.81	1576.94
452.02	1472.49
452.22	1527.78
452.43	1538.02
452.63	1566.70
452.84	1513.45
453.04	1523.69
453.24	1619.94
453.45	1552.36
453.65	1523.69
453.86	1554.41
454.06	1517.54
454.26	1601.51
454.47	1515.50
454.67	1589.22
454.87	1613.80
455.08	1523.69
455.28	1583.08
455.49	1544.17
455.69	1460.20
455.89	1656.81
456.10	1609.70
456.30	1529.83
456.51	1546.22
456.71	1544.17
456.91	1523.69
457.12	1593.32
457.32	1566.70
457.52	1456.11
457.73	1505.26
457.93	1603.56
458.14	1425.39
458.34	1492.97
458.54	1529.83
458.75	1509.35
458.95	1550.31
459.15	1476.59
459.36	1556.46
459.56	1564.65
459.76	1642.47
459.97	1519.59
460.17	1515.50
460.37	1535.98
460.58	1505.26
460.78	1503.21
460.99	1525.74
461.19	1484.78
461.39	1515.50
461.60	1554.41
461.80	1517.54
462.00	1521.64
462.21	1509.35
462.41	1495.02
462.61	1478.63
462.82	1447.91
463.02	1533.93
463.22	1585.13
463.43	1593.32
463.63	1535.98
463.83	1542.12
464.04	1533.93
464.24	1531.88
464.44	1513.45
464.64	1531.88
464.85	1560.55
465.05	1605.61
465.25	1527.78
465.46	1538.02
465.66	1556.46
465.86	1595.37
466.07	1535.98
466.27	1583.08
466.47	1554.41
466.68	1525.74
466.88	1626.09
467.08	1544.17
467.29	1540.07
467.49	1578.98
467.69	1624.04
467.89	1538.02
468.10	1527.78
468.30	1527.78
468.50	1652.71
468.71	1531.88
468.91	1497.07
469.11	1636.33
469.31	1576.94
469.52	1515.50
469.72	1624.04
469.92	1634.28
470.13	1568.74
470.33	1572.84
470.53	1730.53
470.73	2056.16
470.94	2363.36
471.14	2494.43
471.34	2674.65
471.54	2392.03
471.75	2203.61
471.95	2101.22
472.15	1961.95
472.36	1994.72
472.56	1912.80
472.76	1855.46
472.96	1865.70
473.17	1787.88
473.37	1773.54
473.57	1669.09
473.77	1595.37
473.98	1548.26
474.18	1488.87
474.38	1730.53
474.58	1589.22
474.79	1495.02
474.99	1585.13
475.19	1552.36
475.39	1462.25
475.60	1583.08
475.80	1558.50
476.00	1519.59
476.20	1472.49
476.41	1589.22
476.61	1632.23
476.81	1554.41
477.01	1533.93
477.21	1617.90
477.42	1595.37
477.62	1521.64
477.82	1589.22
478.02	1540.07
478.23	1501.16
478.43	1570.79
478.63	1478.63
478.83	1609.70
479.03	1511.40
479.24	1669.09
479.44	1630.18
479.64	1509.35
479.84	1478.63
480.04	1452.01
480.25	1529.83
480.45	1540.07
480.65	1472.49
480.85	1613.80
481.06	1548.26
481.26	1556.46
481.46	1542.12
481.66	1621.99
481.86	1423.34
482.06	1597.42
482.27	1535.98
482.47	1517.54
482.67	1509.35
482.87	1548.26
483.07	1564.65
483.28	1466.35
483.48	1521.64
483.68	1630.18
483.88	1486.83
484.08	1490.92
484.29	1388.52
484.49	1560.55
484.69	1492.97
484.89	1632.23
485.09	1656.81
485.29	1513.45
485.50	1544.17
485.70	1576.94
485.90	1667.05
486.10	1523.69
486.30	1607.66
486.50	1593.32
486.71	1632.23
486.91	1624.04
487.11	1630.18
487.31	1482.73
487.51	1626.09
487.71	1478.63
487.91	1460.20
488.12	1517.54
488.32	1509.35
488.52	1511.40
488.72	1499.11
488.92	1560.55
489.12	1595.37
489.32	1652.71
489.53	1585.13
489.73	1468.39
489.93	1607.66
490.13	1521.64
490.33	1452.01
490.53	1564.65
490.73	1665.00
490.94	1519.59
491.14	1628.14
491.34	1642.47
491.54	2070.50
491.74	2686.94
491.94	3153.87
492.14	3450.83
492.34	3301.33
492.54	2701.27
492.75	2533.34
492.95	2375.64
493.15	2240.48
493.35	2254.81
493.55	2136.03
493.75	1947.62
493.95	2031.58
494.15	1990.63
494.35	1820.64
494.56	1740.77
494.76	1597.42
494.96	1681.38
495.16	1621.99
495.36	1529.83
495.56	1578.98
495.76	1597.42
495.96	1544.17
496.16	1384.43
496.36	1564.65
496.56	1576.94
496.77	1466.35
496.97	1515.50
497.17	1593.32
497.37	1480.68
497.57	1552.36
497.77	1585.13
497.97	1505.26
498.17	1523.69
498.37	1578.98
498.57	1566.70
498.77	1495.02
498.97	1611.75
499.17	1667.05
499.38	1521.64
499.58	1638.38
499.78	1568.74
499.98	1654.76
500.18	1519.59
500.38	1521.64
500.58	1773.54
500.78	2658.26
500.98	5124.02
501.18	6770.58
501.38	8193.92
501.58	8662.91
501.78	7888.78
501.98	5992.36
502.18	5261.23
502.38	4622.27
502.58	4161.47
502.78	3925.96
502.98	3688.39
503.18	3706.82
503.38	3356.62
503.59	3051.47
503.79	2832.34
503.99	2473.95
504.19	2258.91
504.39	2205.66
504.59	2097.12
504.79	1951.71
504.99	1933.28
505.19	1771.49
505.39	1763.30
505.59	1691.62
505.79	1802.21
505.99	1683.43
506.19	1671.14
506.39	1632.23
506.59	1607.66
506.79	1531.88
506.99	1632.23
507.19	1572.84
507.39	1581.03
507.59	1525.74
507.79	1519.59
507.99	1503.21
508.19	1538.02
508.39	1599.46
508.59	1501.16
508.79	1681.38
508.99	1673.19
509.19	1503.21
509.39	1646.57
509.59	1535.98
509.79	1517.54
509.99	1550.31
510.19	1621.99
510.39	1554.41
510.59	1564.65
510.79	1452.01
510.99	1476.59
511.19	1533.93
511.39	1609.70
511.59	1671.14
511.79	1587.18
511.99	1517.54
512.19	1599.46
512.38	1585.13
512.58	1460.20
512.78	1535.98
512.98	1503.21
513.18	1636.33
513.38	1462.25
513.58	1644.52
513.78	1542.12
513.98	1490.92
514.18	1626.09
514.38	1439.72
514.58	1449.96
514.78	1523.69
514.98	1519.59
515.18	1509.35
515.38	1529.83
515.58	1648.61
515.78	1470.44
515.98	1615.85
516.18	1599.46
516.38	1548.26
516.57	1515.50
516.77	1525.74
516.97	1581.03
517.17	1472.49
517.37	1462.25
517.57	1511.40
517.77	1531.88
517.97	1531.88
518.17	1560.55
518.37	1474.54
518.57	1513.45
518.77	1574.89
518.97	1517.54
519.16	1552.36
519.36	1671.14
519.56	1462.25
519.76	1572.84
519.96	1589.22
520.16	1591.27
520.36	1503.21
520.56	1626.09
520.76	1447.91
520.96	1540.07
521.16	1472.49
521.35	1576.94
521.55	1605.61
521.75	1544.17
521.95	1560.55
522.15	1519.59
522.35	1433.58
522.55	1581.03
522.75	1607.66
522.95	1523.69
523.14	1511.40
523.34	1531.88
523.54	1464.30
523.74	1587.18
523.94	1609.70
524.14	1449.96
524.34	1558.50
524.54	1570.79
524.73	1505.26
524.93	1640.42
525.13	1566.70
525.33	1478.63
525.53	1648.61
525.73	1449.96
525.93	1593.32
526.13	1492.97
526.32	1497.07
526.52	1548.26
526.72	1538.02
526.92	1611.75
527.12	1570.79
527.32	1527.78
527.52	1556.46
527.71	1566.70
527.91	1517.54
528.11	1519.59
528.31	1568.74
528.51	1509.35
528.71	1615.85
528.90	1552.36
529.10	1603.56
529.30	1564.65
529.50	1482.73
529.70	1525.74
529.90	1572.84
530.09	1525.74
530.29	1574.89
530.49	1378.28
530.69	1662.95
530.89	1513.45
531.09	1507.30
531.28	1454.06
531.48	1574.89
531.68	1560.55
531.88	1593.32
532.08	1587.18
532.28	1486.83
532.47	1552.36
532.67	1626.09
532.87	1552.36
533.07	1538.02
533.27	1656.81
533.46	1564.65
533.66	1581.03
533.86	1550.31
534.06	1646.57
534.26	1581.03
534.45	1540.07
534.65	1587.18
534.85	1613.80
535.05	1464.30
535.25	1581.03
535.44	1507.30
535.64	1490.92
535.84	1521.64
536.04	1574.89
536.24	1558.50
536.43	1484.78
536.63	1558.50
536.83	1558.50
537.03	1488.87
537.22	1478.63
537.42	1513.45
537.62	1540.07
537.82	1527.78
538.02	1605.61
538.21	1574.89
538.41	1656.81
538.61	1576.94
538.81	1578.98
539.00	1619.94
539.20	1515.50
539.40	1583.08
539.60	1570.79
539.79	1593.32
539.99	1519.59
540.19	1523.69
540.39	1583.08
540.58	1501.16
540.78	1628.14
540.98	1609.70
541.18	1636.33
541.37	1564.65
541.57	1544.17
541.77	1562.60
541.97	1456.11
542.16	1513.45
542.36	1474.54
542.56	1632.23
542.76	1642.47
542.95	1593.32
543.15	1556.46
543.35	1568.74
543.54	1529.83
543.74	1488.87
543.94	1654.76
544.14	1527.78
544.33	1595.37
544.53	1538.02
544.73	1562.60
544.93	1535.98
545.12	1544.17
545.32	1591.27
545.52	1503.21
545.71	1480.68
545.91	1578.98
546.11	1517.54
546.30	1517.54
546.50	1615.85
546.70	1562.60
546.90	1583.08
547.09	1445.87
547.29	1574.89
547.49	1535.98
547.68	1566.70
547.88	1511.40
548.08	1581.03
548.27	1931.23
548.47	1441.77
548.67	1509.35
548.87	1538.02
549.06	1533.93
549.26	1576.94
549.46	1521.64
549.65	1576.94
549.85	1568.74
550.05	1589.22
550.24	1550.31
550.44	1501.16
550.64	1466.35
550.83	1554.41
551.03	1587.18
551.23	1613.80
551.42	1595.37
551.62	1527.78
551.82	1531.88
552.01	1509.35
552.21	1562.60
552.41	1556.46
552.60	1652.71
552.80	1503.21
553.00	1527.78
553.19	1538.02
553.39	1640.42
553.59	1488.87
553.78	1578.98
553.98	1515.50
554.17	1505.26
554.37	1548.26
554.57	1538.02
554.76	1488.87
554.96	1572.84
555.16	1560.55
555.35	1562.60
555.55	1564.65
555.75	1581.03
555.94	1550.31
556.14	1435.63
556.33	1542.12
556.53	1568.74
556.73	1611.75
556.92	1599.46
557.12	1624.04
557.32	1669.09
557.51	1617.90
557.71	1671.14
557.90	1640.42
558.10	1634.28
558.30	1497.07
558.49	1570.79
558.69	1482.73
558.88	1615.85
559.08	1583.08
559.28	1599.46
559.47	1538.02
559.67	1556.46
559.86	1617.90
560.06	1572.84
560.26	1535.98
560.45	1544.17
560.65	1581.03
560.84	1615.85
561.04	1542.12
561.24	1488.87
561.43	1509.35
561.63	1687.53
561.82	1603.56
562.02	1572.84
562.22	1443.82
562.41	1581.03
562.61	1478.63
562.80	1517.54
563.00	1634.28
563.19	1548.26
563.39	1595.37
563.59	1638.38
563.78	1540.07
563.98	1513.45
564.17	1529.83
564.37	1427.43
564.56	1562.60
564.76	1642.47
564.96	1572.84
565.15	1495.02
565.35	1609.70
565.54	1568.74
565.74	1619.94
565.93	1562.60
566.13	1533.93
566.32	1525.74
566.52	1597.42
566.71	1585.13
566.91	1644.52
567.11	1484.78
567.30	1554.41
567.50	1497.07
567.69	1535.98
567.89	1490.92
568.08	1554.41
568.28	1519.59
568.47	1558.50
568.67	1589.22
568.86	1523.69
569.06	1585.13
569.25	1566.70
569.45	1456.11
569.64	1558.50
569.84	1499.11
570.04	1583.08
570.23	1564.65
570.43	1556.46
570.62	1501.16
570.82	1591.27
571.01	1449.96
571.21	1583.08
571.40	1501.16
571.60	1566.70
571.79	1619.94
571.99	1531.88
572.18	1464.30
572.38	1519.59
572.57	1497.07
572.77	1517.54
572.96	1669.09
573.16	1554.41
573.35	1460.20
573.55	1603.56
573.74	1566.70
573.94	1509.35
574.13	1560.55
574.33	1624.04
574.52	1519.59
574.71	1507.30
574.91	1529.83
575.10	1527.78
575.30	1554.41
575.49	1527.78
575.69	1531.88
575.88	1593.32
576.08	1554.41
576.27	1640.42
576.47	1671.14
576.66	1662.95
576.86	1665.00
577.05	1691.62
577.25	1619.94
577.44	1665.00
577.64	1554.41
577.83	1552.36
578.02	1525.74
578.22	1687.53
578.41	1648.61
578.61	1621.99
578.80	1470.44
579.00	1527.78
579.19	1619.94
579.39	1550.31
579.58	1644.52
579.77	1619.94
579.97	1624.04
580.16	1619.94
580.36	1642.47
580.55	1638.38
580.75	1650.66
580.94	1585.13
581.13	1662.95
581.33	1675.24
581.52	1656.81
581.72	1687.53
581.91	1701.86
582.11	1544.17
582.30	1640.42
582.49	1603.56
582.69	1617.90
582.88	1701.86
583.08	1576.94
583.27	1581.03
583.47	1560.55
583.66	1601.51
583.85	1587.18
584.05	1560.55
584.24	1617.90
584.44	1658.85
584.63	1695.72
584.82	1650.66
585.02	1746.92
585.21	1779.68
585.41	1738.73
585.60	1775.59
585.79	1841.12
585.99	1808.36
586.18	1794.02
586.37	2121.70
586.57	3227.60
586.76	9500.53
586.96	27307.62
587.15	43683.17
587.34	53988.55
587.54	61381.72
587.73	59188.34
587.93	43545.96
588.12	32136.73
588.31	25751.16
588.51	21943.99
588.70	19658.45
588.89	18386.66
589.09	17004.28
589.28	15191.83
589.47	13363.00
589.67	11366.23
589.86	8834.94
590.06	6793.11
590.25	5007.28
590.44	3827.65
590.64	2899.92
590.83	2344.92
591.02	2078.69
591.22	1794.02
591.41	1861.60
591.60	1697.77
591.80	1705.96
591.99	1628.14
592.18	1675.24
592.38	1572.84
592.57	1570.79
592.76	1544.17
592.96	1568.74
593.15	1568.74
593.34	1621.99
593.54	1538.02
593.73	1587.18
593.92	1650.66
594.12	1585.13
594.31	1630.18
594.50	1638.38
594.70	1632.23
594.89	1613.80
595.08	1523.69
595.28	1642.47
595.47	1697.77
595.66	1550.31
595.86	1535.98
596.05	1568.74
596.24	1597.42
596.43	1679.33
596.63	1603.56
596.82	1589.22
597.01	1513.45
597.21	1558.50
597.40	1689.57
597.59	1626.09
597.79	1605.61
597.98	1638.38
598.17	1611.75
598.36	1589.22
598.56	1607.66
598.75	1589.22
598.94	1605.61
599.14	1626.09
599.33	1470.44
599.52	1576.94
599.71	1552.36
599.91	1601.51
600.10	1581.03
600.29	1513.45
600.48	1632.23
600.68	1544.17
600.87	1511.40
601.06	1482.73
601.26	1523.69
601.45	1566.70
601.64	1587.18
601.83	1601.51
602.03	1507.30
602.22	1576.94
602.41	1595.37
602.60	1621.99
602.80	1574.89
602.99	1550.31
603.18	1523.69
603.37	1527.78
603.57	1570.79
603.76	1648.61
603.95	1558.50
604.14	1566.70
604.34	1490.92
604.53	1552.36
604.72	1544.17
604.91	1601.51
605.10	1542.12
605.30	1525.74
605.49	1656.81
605.68	1544.17
605.87	1585.13
606.07	1538.02
606.26	1480.68
606.45	1581.03
606.64	1558.50
606.84	1515.50
607.03	1511.40
607.22	1624.04
607.41	1630.18
607.60	1570.79
607.80	1548.26
607.99	1517.54
608.18	1535.98
608.37	1480.68
608.56	1621.99
608.76	1548.26
608.95	1638.38
609.14	1679.33
609.33	1570.79
609.52	1683.43
609.72	1650.66
609.91	1632.23
610.10	1581.03
610.29	1642.47
610.48	1626.09
610.68	1576.94
610.87	1636.33
611.06	1644.52
611.25	1576.94
611.44	1607.66
611.63	1507.30
611.83	1626.09
612.02	1464.30
612.21	1546.22
612.40	1466.35
612.59	1499.11
612.79	1515.50
612.98	1535.98
613.17	1619.94
613.36	1556.46
613.55	1691.62
613.74	1669.09
613.93	1732.58
614.13	1726.44
614.32	1701.86
614.51	1779.68
614.70	1640.42
614.89	1593.32
615.08	1650.66
615.28	1943.52
615.47	1562.60
615.66	1644.52
615.85	1619.94
616.04	1767.40
616.23	1615.85
616.42	1607.66
616.62	1656.81
616.81	1572.84
617.00	1542.12
617.19	1640.42
617.38	1542.12
617.57	1525.74
617.76	1648.61
617.95	1558.50
618.15	1621.99
618.34	1757.16
618.53	1480.68
618.72	1566.70
618.91	1593.32
619.10	1656.81
619.29	1568.74
619.48	1531.88
619.68	1495.02
619.87	1550.31
620.06	1513.45
620.25	1576.94
620.44	1509.35
620.63	1495.02
620.82	1568.74
621.01	1578.98
621.20	1548.26
621.39	1599.46
621.59	1568.74
621.78	1445.87
621.97	1564.65
622.16	1644.52
622.35	1546.22
622.54	1572.84
622.73	1630.18
622.92	1480.68
623.11	1513.45
623.30	1525.74
623.49	1546.22
623.68	1583.08
623.88	1628.14
624.07	1576.94
624.26	1525.74
624.45	1542.12
624.64	1499.11
624.83	1495.02
625.02	1550.31
625.21	1574.89
625.40	1552.36
625.59	1511.40
625.78	1531.88
625.97	1673.19
626.16	1667.05
626.35	1677.29
626.54	1578.98
626.74	1685.48
626.93	1525.74
627.12	1542.12
627.31	1628.14
627.50	1535.98
627.69	1621.99
627.88	1564.65
628.07	1497.07
628.26	1486.83
628.45	1550.31
628.64	1546.22
628.83	1550.31
629.02	1503.21
629.21	1615.85
629.40	1556.46
629.59	1515.50
629.78	1558.50
629.97	1531.88
630.16	1554.41
630.35	1562.60
630.54	1542.12
630.73	1548.26
630.92	1550.31
631.11	1470.44
631.30	1572.84
631.49	1564.65
631.68	1554.41
631.87	1564.65
632.06	1544.17
632.25	1736.68
632.44	1562.60
632.63	1517.54
632.82	1587.18
633.01	1642.47
633.20	1736.68
633.39	1595.37
633.58	1548.26
633.77	1675.24
633.96	1644.52
634.15	1605.61
634.34	1650.66
634.53	1583.08
634.72	1509.35
634.91	1474.54
635.10	1492.97
635.29	1595.37
635.48	1552.36
635.67	1542.12
635.86	1470.44
636.05	1615.85
636.24	1626.09
636.43	1583.08
636.62	1597.42
636.81	1445.87
637.00	1568.74
637.19	1558.50
637.38	1548.26
637.57	1548.26
637.76	1665.00
637.95	1689.57
638.14	1628.14
638.33	1732.58
638.52	1742.82
638.71	1581.03
638.89	1544.17
639.08	1703.91
639.27	1609.70
639.46	1677.29
639.65	1869.80
639.84	2011.11
640.03	2084.83
640.22	2176.99
640.41	2193.37
640.60	1941.47
640.79	1861.60
640.98	1746.92
641.17	1724.39
641.36	1746.92
641.55	1652.71
641.74	1675.24
641.92	1617.90
642.11	1576.94
642.30	1566.70
642.49	1509.35
642.68	1513.45
642.87	1587.18
643.06	1593.32
643.25	1525.74
643.44	1476.59
643.63	1480.68
643.82	1564.65
644.00	1478.63
644.19	1509.35
644.38	1529.83
644.57	1525.74
644.76	1589.22
644.95	1529.83
645.14	1501.16
645.33	1527.78
645.52	1556.46
645.71	1513.45
645.89	1519.59
646.08	1554.41
646.27	1538.02
646.46	1626.09
646.65	1519.59
646.84	1542.12
647.03	1513.45
647.22	1615.85
647.40	1503.21
647.59	1529.83
647.78	1474.54
647.97	1495.02
648.16	1538.02
648.35	1621.99
648.54	1615.85
648.73	1525.74
648.91	1675.24
649.10	1591.27
649.29	1556.46
649.48	1548.26
649.67	1550.31
649.86	1499.11
650.05	1597.42
650.23	1720.29
650.42	1609.70
650.61	1773.54
650.80	1849.32
650.99	1697.77
651.18	1689.57
651.36	1609.70
651.55	1562.60
651.74	1619.94
651.93	1558.50
652.12	1595.37
652.31	1652.71
652.49	1591.27
652.68	1574.89
652.87	1576.94
653.06	1513.45
653.25	1710.05
653.44	1499.11
653.62	1605.61
653.81	1607.66
654.00	1488.87
654.19	1626.09
654.38	1611.75
654.56	1574.89
654.75	1513.45
654.94	1591.27
655.13	1570.79
655.32	1570.79
655.51	1523.69
655.69	1562.60
655.88	1552.36
656.07	1447.91
656.26	1550.31
656.45	1480.68
656.63	1558.50
656.82	1576.94
657.01	1535.98
657.20	1587.18
657.38	1619.94
657.57	1521.64
657.76	1435.63
657.95	1615.85
658.14	1527.78
658.32	1540.07
658.51	1513.45
658.70	1540.07
658.89	1576.94
659.08	1566.70
659.26	1546.22
659.45	1599.46
659.64	1597.42
659.83	1552.36
660.01	1828.84
660.20	1576.94
660.39	1638.38
660.58	1505.26
660.76	1568.74
660.95	1519.59
661.14	1533.93
661.33	1570.79
661.51	1548.26
661.70	1478.63
661.89	1611.75
662.08	1538.02
662.26	1433.58
662.45	1449.96
662.64	1644.52
662.83	1599.46
663.01	1458.15
663.20	1441.77
663.39	1615.85
663.58	1538.02
663.76	1472.49
663.95	1533.93
664.14	1511.40
664.32	1540.07
664.51	1527.78
664.70	1445.87
664.89	1490.92
665.07	1552.36
665.26	1685.48
665.45	1505.26
665.64	1568.74
665.82	1624.04
666.01	1587.18
666.20	1562.60
666.38	1665.00
666.57	1656.81
666.76	1740.77
666.95	2961.36
667.13	7589.77
667.32	15429.40
667.51	20010.70
667.69	23453.34
667.88	25118.34
668.07	22218.41
668.25	15826.70
668.44	12369.73
668.63	10088.29
668.81	8650.62
669.00	7663.50
669.19	7208.85
669.38	6342.56
669.56	5601.19
669.75	4796.34
669.94	4091.84
670.12	3395.53
670.31	2793.43
670.50	2412.51
670.68	2093.02
670.87	1773.54
671.06	1849.32
671.24	1771.49
671.43	1736.68
671.62	1679.33
671.80	1595.37
671.99	1597.42
672.18	1642.47
672.36	1609.70
672.55	1490.92
672.74	1531.88
672.92	1542.12
673.11	1490.92
673.29	1497.07
673.48	1630.18
673.67	1456.11
673.85	1585.13
674.04	1542.12
674.23	1535.98
674.41	1681.38
674.60	1476.59
674.79	1462.25
674.97	1581.03
675.16	1583.08
675.34	1525.74
675.53	1548.26
675.72	1521.64
675.90	1581.03
676.09	1511.40
676.28	1626.09
676.46	1503.21
676.65	1585.13
676.83	1454.06
677.02	1517.54
677.21	1513.45
677.39	1538.02
677.58	1470.44
677.77	1513.45
677.95	1583.08
678.14	1490.92
678.32	1523.69
678.51	1527.78
678.70	1548.26
678.88	1564.65
679.07	1552.36
679.25	1587.18
679.44	1468.39
679.63	1511.40
679.81	1513.45
680.00	1599.46
680.18	1566.70
680.37	1572.84
680.55	1511.40
680.74	1501.16
680.93	1388.52
681.11	1492.97
681.30	1558.50
681.48	1544.17
681.67	1501.16
681.85	1538.02
682.04	1556.46
682.23	1546.22
682.41	1542.12
682.60	1548.26
682.78	1464.30
682.97	1513.45
683.15	1617.90
683.34	1556.46
683.53	1568.74
683.71	1460.20
683.90	1560.55
684.08	1538.02
684.27	1548.26
684.45	1458.15
684.64	1568.74
684.82	1478.63
685.01	1562.60
685.19	1533.93
685.38	1626.09
685.57	1531.88
685.75	1488.87
685.94	1595.37
686.12	1587.18
686.31	1542.12
686.49	1679.33
686.68	1419.24
686.86	1521.64
687.05	1552.36
687.23	1558.50
687.42	1452.01
687.60	1439.72
687.79	1529.83
687.97	1603.56
688.16	1613.80
688.34	1607.66
688.53	1435.63
688.71	1511.40
688.90	1535.98
689.08	1478.63
689.27	1398.76
689.45	1566.70
689.64	1587.18
689.82	1554.41
690.01	1523.69
690.19	1540.07
690.38	1519.59
690.56	1619.94
690.75	1544.17
690.93	1529.83
691.12	1468.39
691.30	1490.92
691.49	1505.26
691.67	1574.89
691.86	1675.24
692.04	1472.49
692.23	1542.12
692.41	1591.27
692.60	1712.10
692.78	1675.24
692.97	1585.13
693.15	1648.61
693.34	1736.68
693.52	1554.41
693.71	1583.08
693.89	1556.46
694.08	1452.01
694.26	1570.79
694.44	1542.12
694.63	1621.99
694.81	1507.30
695.00	1570.79
695.18	1562.60
695.37	1718.25
695.55	1501.16
695.74	1617.90
695.92	1505.26
696.10	1628.14
696.29	1406.95
696.47	1443.82
696.66	1505.26
696.84	1527.78
697.03	1480.68
697.21	1658.85
697.40	2082.78
697.58	1591.27
697.76	1488.87
697.95	1538.02
698.13	1560.55
698.32	1531.88
698.50	1548.26
698.68	1478.63
698.87	1542.12
699.05	1683.43
699.24	1523.69
699.42	1538.02
699.61	1617.90
699.79	1552.36
699.97	1538.02
700.16	1472.49
700.34	1443.82
700.53	1525.74
700.71	1613.80
700.89	1552.36
701.08	1546.22
701.26	1658.85
701.45	1830.88
701.63	1505.26
701.81	1572.84
702.00	1552.36
702.18	1523.69
702.37	1511.40
702.55	1675.24
702.73	1687.53
702.92	1693.67
703.10	1781.73
703.28	1798.12
703.47	1753.06
703.65	1787.88
703.84	1697.77
704.02	1591.27
704.20	1724.39
704.39	1595.37
704.57	1601.51
704.75	1652.71
704.94	1650.66
705.12	1603.56
705.30	1597.42
705.49	1861.60
705.67	2752.47
705.86	7331.73
706.04	14386.98
706.22	18579.17
706.41	21329.59
706.59	22945.44
706.77	20823.75
706.96	14806.81
707.14	11722.57
707.32	9865.07
707.51	8691.58
707.69	7589.77
707.87	6717.34
708.06	5844.90
708.24	4749.24
708.42	3702.73
708.61	2963.41
708.79	2179.04
708.97	1933.28
709.16	1834.98
709.34	1740.77
709.52	1677.29
709.71	1705.96
709.89	1593.32
710.07	1513.45
710.26	1486.83
710.44	1572.84
710.62	1630.18
710.80	1681.38
710.99	1585.13
711.17	1638.38
711.35	1513.45
711.54	1560.55
711.72	1581.03
711.90	1609.70
712.09	1511.40
712.27	1513.45
712.45	1621.99
712.63	1548.26
712.82	1544.17
713.00	1503.21
713.18	1585.13
713.37	1527.78
713.55	1521.64
713.73	1611.75
713.91	1589.22
714.10	1558.50
714.28	1556.46
714.46	1615.85
714.65	1558.50
714.83	1634.28
715.01	1499.11
715.19	1540.07
715.38	1513.45
715.56	1525.74
715.74	1552.36
715.92	1501.16
716.11	1667.05
716.29	1511.40
716.47	1583.08
716.65	1619.94
716.84	1495.02
717.02	1552.36
717.20	1462.25
717.38	1527.78
717.57	1519.59
717.75	1538.02
717.93	1525.74
718.11	1632.23
718.30	1472.49
718.48	1583.08
718.66	1558.50
718.84	1507.30
719.03	1554.41
719.21	1527.78
719.39	1593.32
719.57	1583.08
719.75	1613.80
719.94	1523.69
720.12	1478.63
720.30	1576.94
720.48	1570.79
720.67	1482.73
720.85	1490.92
721.03	1476.59
721.21	1525.74
721.39	1658.85
721.58	1583.08
721.76	1574.89
721.94	1544.17
722.12	1460.20
722.30	1624.04
722.49	1540.07
722.67	1595.37
722.85	1535.98
723.03	1509.35
723.21	1490.92
723.40	1597.42
723.58	1619.94
723.76	1535.98
723.94	1560.55
724.12	1634.28
724.30	1726.44
724.49	1603.56
724.67	1656.81
724.85	1638.38
725.03	1456.11
725.21	1517.54
725.40	1591.27
725.58	1558.50
725.76	1576.94
725.94	1535.98
726.12	1505.26
726.30	1480.68
726.49	1507.30
726.67	1597.42
726.85	1519.59
727.03	1609.70
727.21	1714.15
727.39	2041.82
727.57	3260.37
727.76	4249.54
727.94	4808.63
728.12	4986.80
728.30	5103.54
728.48	4274.11
728.66	3422.16
728.84	3172.30
729.03	2899.92
729.21	2652.12
729.39	2293.72
729.57	2058.21
729.75	1841.12
729.93	1771.49
730.11	1595.37
730.30	1529.83
730.48	1558.50
730.66	1636.33
730.84	1581.03
731.02	1529.83
731.20	1515.50
731.38	1574.89
731.56	1513.45
731.74	1490.92
731.93	1587.18
732.11	1544.17
732.29	1538.02
732.47	1550.31
732.65	1454.06
732.83	1611.75
733.01	1568.74
733.19	1441.77
733.37	1492.97
733.56	1574.89
733.74	1531.88
733.92	1542.12
734.10	1517.54
734.28	1542.12
734.46	1550.31
734.64	1574.89
734.82	1501.16
735.00	1576.94
735.18	1509.35
735.36	1505.26
735.54	1531.88
735.73	1576.94
735.91	1546.22
736.09	1525.74
736.27	1511.40
736.45	1499.11
736.63	1429.48
736.81	1529.83
736.99	1607.66
737.17	1636.33
737.35	1556.46
737.53	1501.16
737.71	1425.39
737.89	1566.70
738.07	1484.78
738.25	1468.39
738.43	1441.77
738.61	1515.50
738.80	1449.96
738.98	1499.11
739.16	1533.93
739.34	1552.36
739.52	1591.27
739.70	1505.26
739.88	1515.50
740.06	1648.61
740.24	1470.44
740.42	1562.60
740.60	1515.50
740.78	1392.62
740.96	1527.78
741.14	1595.37
741.32	1574.89
741.50	1492.97
741.68	1636.33
741.86	1544.17
742.04	1517.54
742.22	1525.74
742.40	1550.31
742.58	1542.12
742.76	1474.54
742.94	1538.02
743.12	1546.22
743.30	1503.21
743.48	1550.31
743.66	1490.92
743.84	1560.55
744.02	1507.30
744.20	1619.94
744.38	1501.16
744.56	1505.26
744.74	1542.12
744.92	1544.17
745.10	1560.55
745.28	1566.70
745.46	1681.38
745.64	1523.69
745.82	1597.42
746.00	1517.54
746.18	1597.42
746.36	1429.48
746.54	1544.17
746.72	1509.35
746.90	1576.94
747.08	1611.75
747.26	1560.55
747.44	1546.22
747.62	1538.02
747.80	1619.94
747.98	1587.18
748.15	1419.24
748.33	1658.85
748.51	1474.54
748.69	1626.09
748.87	1556.46
749.05	1546.22
749.23	1558.50
749.41	1576.94
749.59	1488.87
749.77	1642.47
749.95	1533.93
750.13	1570.79
750.31	1552.36
750.49	1456.11
750.67	1626.09
750.85	1566.70
751.03	1513.45
751.20	1654.76
751.38	1570.79
751.56	1531.88
751.74	1546.22
751.92	1435.63
752.10	1464.30
752.28	1617.90
752.46	1517.54
752.64	1529.83
752.82	1566.70
753.00	1617.90
753.18	1548.26
753.35	1552.36
753.53	1556.46
753.71	1544.17
753.89	1591.27
754.07	1597.42
754.25	1599.46
754.43	1533.93
754.61	1503.21
754.79	1548.26
754.97	1554.41
755.14	1607.66
755.32	1490.92
755.50	1581.03
755.68	1525.74
755.86	1449.96
756.04	1441.77
756.22	1554.41
756.40	1583.08
756.57	1613.80
756.75	1548.26
756.93	1640.42
757.11	1619.94
757.29	1470.44
757.47	1484.78
757.65	1433.58
757.82	1406.95
758.00	1566.70
758.18	1478.63
758.36	1464.30
758.54	1576.94
758.72	1570.79
758.90	1642.47
759.07	1552.36
759.25	1490.92
759.43	1634.28
759.61	1560.55
759.79	1949.67
759.97	1578.98
760.15	1495.02
760.32	1509.35
760.50	1486.83
760.68	1632.23
760.86	1482.73
761.04	1650.66
761.22	1572.84
761.39	1533.93
761.57	1525.74
761.75	1578.98
761.93	1560.55
762.11	1591.27
762.28	1499.11
762.46	1558.50
762.64	1490.92
762.82	1480.68
763.00	1556.46
763.18	1644.52
763.35	1562.60
763.53	1527.78
763.71	1525.74
763.89	1578.98
764.07	1486.83
764.24	1566.70
764.42	1578.98
764.60	1531.88
764.78	1546.22
764.96	1546.22
765.13	1574.89
765.31	1517.54
765.49	1634.28
765.67	1515.50
765.84	1517.54
766.02	1519.59
766.20	1521.64
766.38	1554.41
766.56	1605.61
766.73	1525.74
766.91	1566.70
767.09	1521.64
767.27	1564.65
767.44	1429.48
767.62	1603.56
767.80	1523.69
767.98	1591.27
768.15	1505.26
768.33	1628.14
768.51	1484.78
768.69	1488.87
768.87	1544.17
769.04	1529.83
769.22	1611.75
769.40	1570.79
769.58	1740.77
769.75	1634.28
769.93	1595.37
770.11	1492.97
770.28	1558.50
770.46	1626.09
770.64	1607.66
770.82	1566.70
770.99	1533.93
771.17	1527.78
771.35	1488.87
771.53	1523.69
771.70	1554.41
771.88	1552.36
772.06	1515.50
772.23	1593.32
772.41	1482.73
772.59	1515.50
772.77	1456.11
772.94	1548.26
773.12	1638.38
773.30	1535.98
773.47	1476.59
773.65	1517.54
773.83	1595.37
774.01	1597.42
774.18	1523.69
774.36	1523.69
774.54	1560.55
774.71	1460.20
774.89	1482.73
775.07	1505.26
775.24	1556.46
775.42	1480.68
775.60	1560.55
775.78	1499.11
775.95	1490.92
776.13	1458.15
776.31	1454.06
776.48	1552.36
776.66	1669.09
776.84	1581.03
777.01	1503.21
777.19	1519.59
777.37	1486.83
777.54	1570.79
777.72	1607.66
777.90	1503.21
778.07	1501.16
778.25	1578.98
778.43	1560.55
778.60	1490.92
778.78	1554.41
778.96	1546.22
779.13	1552.36
779.31	1574.89
779.49	1570.79
779.66	1607.66
779.84	1492.97
780.01	1486.83
780.19	1513.45
780.37	1595.37
780.54	1501.16
780.72	1466.35
780.90	1519.59
781.07	1531.88
781.25	1495.02
781.43	1574.89
781.60	1581.03
781.78	1572.84
781.95	1533.93
782.13	1505.26
782.31	1470.44
782.48	1441.77
782.66	1452.01
782.83	1611.75
783.01	1519.59
783.19	1591.27
783.36	1492.97
783.54	1474.54
783.72	1630.18
783.89	1488.87
784.07	1605.61
784.24	1544.17
784.42	1562.60
784.60	1505.26
784.77	1552.36
784.95	1435.63
785.12	1503.21
785.30	1474.54
785.47	1513.45
785.65	1458.15
785.83	1558.50
786.00	1478.63
786.18	1523.69
786.35	1523.69
786.53	1484.78
786.71	1581.03
786.88	1550.31
787.06	1517.54
787.23	1529.83
787.41	1513.45
787.58	1513.45
787.76	1511.40
787.94	1495.02
788.11	1560.55
788.29	1468.39
788.46	1503.21
788.64	1427.43
788.81	1546.22
788.99	1492.97
789.16	1554.41
789.34	1509.35
789.52	1478.63
789.69	1533.93
789.87	1482.73
790.04	1501.16
790.22	1462.25
790.39	1681.38
790.57	1523.69
790.74	1488.87
790.92	1587.18
791.09	1460.20
791.27	1488.87
791.44	1646.57
791.62	1529.83
791.79	1578.98
791.97	1578.98
792.15	1656.81
792.32	1591.27
792.50	1558.50
792.67	1630.18
792.85	1613.80
793.02	1533.93
793.20	1554.41
793.37	1531.88
793.55	1533.93
793.72	1492.97
793.90	1511.40
794.07	1585.13
794.25	1488.87
794.42	1513.45
794.60	1535.98
794.77	1564.65
794.95	1527.78
795.12	1648.61
795.30	1540.07
795.47	1427.43
795.65	1730.53
795.82	1566.70
796.00	1486.83
796.17	1576.94
796.34	1542.12
796.52	1509.35
796.69	1540.07
796.87	1478.63
797.04	1509.35
797.22	1560.55
797.39	1568.74
797.57	1538.02
797.74	1552.36
797.92	1488.87
798.09	1517.54
798.27	1568.74
798.44	1562.60
798.62	1617.90
798.79	1497.07
798.96	1529.83
799.14	1495.02
799.31	1638.38
799.49	1570.79
799.66	1542.12
799.84	1599.46
800.01	1462.25
800.19	1578.98
800.36	1429.48
800.53	1544.17
800.71	1560.55
800.88	1568.74
801.06	1523.69
801.23	1503.21
801.41	1552.36
801.58	1466.35
801.75	1511.40
801.93	1574.89
802.10	1544.17
802.28	1527.78
802.45	1505.26
802.63	1515.50
802.80	1560.55
802.97	1454.06
803.15	1533.93
803.32	1560.55
803.50	1499.11
803.67	1388.52
803.84	1472.49
804.02	1529.83
804.19	1488.87
804.37	1423.34
804.54	1517.54
804.71	1462.25
804.89	1509.35
805.06	1542.12
805.24	1486.83
805.41	1433.58
805.58	1513.45
805.76	1607.66
805.93	1527.78
806.10	1640.42
806.28	1538.02
806.45	1544.17
806.63	1558.50
806.80	1468.39
806.97	1607.66
807.15	1558.50
807.32	1484.78
807.49	1509.35
807.67	1572.84
807.84	1576.94
808.01	1546.22
808.19	1656.81
808.36	1613.80
808.54	1495.02
808.71	1466.35
808.88	1533.93
809.06	1669.09
809.23	1583.08
809.40	1421.29
809.58	1568.74
809.75	1492.97
809.92	1501.16
810.10	1636.33
810.27	1533.93
810.44	1533.93
810.62	1501.16
810.79	1492.97
810.96	1452.01
811.14	1484.78
811.31	1535.98
811.48	1560.55
811.66	1533.93
811.83	1499.11
812.00	1558.50
812.18	1572.84
812.35	1644.52
812.52	1490.92
812.69	1587.18
812.87	1570.79
813.04	1495.02
813.21	1492.97
813.39	1458.15
813.56	1429.48
813.73	1599.46
813.91	1497.07
814.08	1587.18
814.25	1472.49
814.42	1501.16
814.60	1435.63
814.77	1464.30
814.94	1574.89
815.12	1591.27
815.29	1583.08
815.46	1523.69
815.63	1548.26
815.81	1529.83
815.98	1558.50
816.15	1591.27
816.33	1601.51
816.50	1525.74
816.67	1581.03
816.84	1519.59
817.02	1525.74
817.19	1576.94
817.36	1517.54
817.53	1544.17
817.71	1560.55
817.88	1576.94
818.05	1466.35
818.22	1527.78
818.40	1648.61
818.57	1525.74
818.74	1581.03
818.91	1535.98
819.09	1488.87
819.26	1611.75
819.43	1509.35
819.60	1497.07
819.78	1529.83
819.95	1589.22
820.12	1458.15
820.29	1615.85
820.47	1581.03
820.64	1466.35
820.81	1462.25
820.98	1517.54
821.15	1540.07
821.33	1581.03
821.50	1421.29
821.67	1517.54
821.84	1468.39
822.02	1564.65
822.19	1576.94
822.36	1542.12
822.53	1486.83
822.70	1476.59
822.88	1538.02
823.05	1570.79
823.22	1560.55
823.39	1599.46
823.56	1544.17
823.74	1609.70
823.91	1507.30
824.08	1509.35
824.25	1546.22
824.42	1652.71
824.60	1495.02
824.77	1533.93
824.94	1566.70
825.11	1550.31
825.28	1441.77
825.45	1560.55
825.63	1527.78
825.80	1443.82
825.97	1497.07
826.14	1540.07
826.31	1488.87
826.48	1521.64
826.66	1443.82
826.83	1527.78
827.00	1529.83
827.17	1544.17
827.34	1484.78
827.51	1488.87
827.69	1558.50
827.86	1527.78
828.03	1529.83
828.20	1546.22
828.37	1515.50
828.54	1525.74
828.71	1468.39
828.89	1546.22
829.06	1562.60
829.23	1644.52
829.40	1544.17
829.57	1531.88
829.74	1519.59
829.91	1550.31
830.09	1449.96
830.26	1558.50
830.43	1529.83
830.60	1505.26
830.77	1548.26
830.94	1570.79
831.11	1632.23
831.28	1568.74
831.46	1634.28
831.63	1529.83
831.80	1572.84
831.97	1478.63
832.14	1538.02
832.31	1589.22
832.48	1548.26
832.65	1535.98
832.82	1452.01
832.99	1564.65
833.17	1443.82
833.34	1628.14
833.51	1540.07
833.68	1452.01
833.85	1613.80
834.02	1513.45
834.19	1470.44
834.36	1538.02
834.53	1562.60
834.70	1525.74
834.87	1562.60
835.04	1603.56
835.22	1484.78
835.39	1554.41
835.56	1447.91
835.73	1554.41
835.90	1574.89
836.07	1509.35
836.24	1568.74
836.41	1466.35
836.58	1466.35
836.75	1581.03
836.92	1632.23
837.09	1478.63
837.26	1499.11
837.43	1544.17
837.60	1525.74
837.77	1495.02
837.94	1533.93
838.12	1638.38
838.29	1503.21
838.46	1449.96
838.63	1527.78
838.80	1601.51
838.97	1562.60
839.14	1624.04
839.31	1544.17
839.48	1617.90
839.65	1576.94
839.82	1583.08
839.99	1523.69
840.16	1511.40
840.33	1458.15
840.50	1550.31
840.67	1435.63
840.84	1435.63
841.01	1495.02
841.18	1556.46
841.35	1554.41
841.52	1613.80
841.69	1673.19
841.86	1572.84
842.03	1535.98
842.20	1550.31
842.37	1511.40
842.54	1542.12
842.71	1568.74
842.88	1472.49
843.05	1638.38
843.22	1503.21
843.39	1613.80
843.56	1566.70
843.73	1529.83
843.90	1511.40
844.07	1538.02
844.24	1511.40
844.41	1546.22
844.58	1521.64
844.75	1544.17
844.92	1615.85
845.09	1511.40
845.26	1503.21
845.43	1583.08
845.60	1566.70
845.77	1540.07
845.94	1535.98
846.10	1521.64
846.27	1462.25
846.44	1521.64
846.61	1533.93
846.78	1527.78
846.95	1589.22
847.12	1480.68
847.29	1519.59
847.46	1503.21
847.63	1568.74
847.80	1503.21
847.97	1413.10
848.14	1617.90
848.31	1513.45
848.48	1441.77
848.65	1609.70
848.82	1570.79
848.98	1587.18
849.15	1531.88
849.32	1599.46
849.49	1552.36
849.66	1540.07
849.83	1546.22
850.00	1447.91
850.17	1564.65
850.34	1572.84
850.51	1499.11
850.68	1464.30
850.85	1632.23
851.01	1525.74
851.18	1544.17
851.35	1474.54
851.52	1566.70
851.69	1675.24
851.86	1490.92
852.03	1480.68
852.20	1521.64
852.37	1468.39
852.53	1495.02
852.70	1482.73
852.87	1634.28
853.04	1619.94
853.21	1523.69
853.38	1636.33
853.55	1654.76
853.72	1560.55
853.89	1535.98
854.05	1431.53
854.22	1507.30
854.39	1517.54
854.56	1484.78
854.73	1640.42
854.90	1466.35
855.07	1509.35
855.23	1464.30
855.40	1480.68
855.57	1552.36
855.74	1505.26
855.91	1677.29
856.08	1531.88
856.25	1558.50
856.41	1525.74
856.58	1484.78
856.75	1544.17
856.92	1456.11
857.09	1576.94
857.26	1488.87
857.42	1503.21
857.59	1603.56
857.76	1507.30
857.93	1523.69
858.10	1578.98
858.27	1439.72
858.43	1574.89
858.60	1497.07
858.77	1456.11
858.94	1562.60
859.11	1523.69
859.27	1513.45
859.44	1550.31
859.61	1677.29
859.78	1535.98
859.95	1527.78
860.12	1521.64
860.28	1517.54
860.45	1595.37
860.62	1533.93
860.79	1570.79
860.95	1574.89
861.12	1449.96
861.29	1556.46
861.46	1538.02
861.63	1560.55
861.79	1484.78
861.96	1495.02
862.13	1517.54
862.30	1585.13
862.47	1472.49
862.63	1456.11
862.80	1488.87
862.97	1564.65
863.14	1583.08
863.30	1531.88
863.47	1587.18
863.64	1660.90
863.81	1566.70
863.97	1466.35
864.14	1544.17
864.31	1562.60
864.48	1517.54
864.65	1490.92
864.81	1570.79
864.98	1544.17
865.15	1560.55
865.32	1632.23
865.48	1556.46
865.65	1621.99
865.82	1544.17
865.98	1587.18
866.15	1560.55
866.32	1499.11
866.49	1591.27
866.65	1593.32
866.82	1484.78
866.99	1480.68
867.16	1556.46
867.32	1474.54
867.49	1517.54
867.66	1540.07
867.83	1568.74
867.99	1495.02
868.16	1558.50
868.33	1476.59
868.49	1486.83
868.66	1501.16
868.83	1533.93
868.99	1527.78
869.16	1519.59
869.33	1572.84
869.50	1583.08
869.66	1601.51
869.83	1507.30
870.00	1478.63
870.16	1578.98
870.33	1550.31
870.50	1574.89
870.66	1574.89
870.83	1656.81
871.00	1525.74
871.17	1472.49
871.33	1617.90
871.50	1513.45
871.67	1499.11
871.83	1480.68
872.00	1665.00
872.17	1531.88
872.33	1601.51
872.50	1527.78
872.67	1470.44
872.83	1550.31
873.00	1570.79
873.17	1519.59
873.33	1583.08
873.50	1587.18
873.67	1546.22
873.83	1564.65
874.00	1458.15
874.16	1595.37
874.33	1478.63
874.50	1521.64
874.66	1511.40
874.83	1509.35
875.00	1556.46
875.16	1544.17
875.33	1574.89
875.50	1480.68
875.66	1535.98
875.83	1525.74
875.99	1591.27
876.16	1593.32
876.33	1523.69
876.49	1535.98
876.66	1511.40
876.83	1501.16
876.99	1406.95
877.16	1513.45
877.32	1472.49
877.49	1460.20
877.66	1597.42
877.82	1560.55
877.99	1548.26
878.15	1560.55
878.32	1540.07
878.49	1468.39
878.65	1568.74
878.82	1609.70
878.98	1497.07
879.15	1560.55
879.32	1581.03
879.48	1497.07
879.65	1535.98
879.81	1542.12
879.98	1517.54
880.15	1484.78
880.31	1544.17
880.48	1554.41
880.64	1626.09
880.81	1533.93
880.97	1603.56
881.14	1566.70
881.31	1490.92
881.47	1632.23
881.64	1560.55
881.80	1476.59
881.97	1558.50
882.13	1642.47
882.30	1495.02
882.47	1497.07
882.63	1447.91
882.80	1529.83
882.96	1495.02
883.13	1593.32
883.29	1566.70
883.46	1525.74
883.62	1605.61
883.79	1509.35
883.95	1552.36
884.12	1495.02
884.29	1538.02
884.45	1519.59
884.62	1529.83
884.78	1462.25
884.95	1603.56
885.11	1474.54
885.28	1492.97
885.44	1495.02
885.61	1644.52
885.77	1511.40
885.94	1517.54
886.10	1486.83
886.27	1601.51
886.43	1560.55
886.60	1617.90
886.76	1439.72
886.93	1482.73
887.09	1556.46
887.26	1501.16
887.42	1519.59
887.59	1490.92
887.75	1699.81
887.92	1636.33
888.08	1558.50
888.25	1601.51
888.41	1468.39
888.58	1495.02
888.74	1460.20
888.91	1517.54
>>>>>End Processed Spectral Data<<<<<
