SpectraSuite Data File
++++++++++++++++++++++++++++++++++++
Date: Tue May 03 12:55:03 CEST 2016
User: root
Dark Spectrum Present: No
Reference Spectrum Present: No
Number of Sampled Component Spectra: 1
Spectrometers: USB4C02835
Integration Time (usec): 100000 (USB4C02835)
Spectra Averaged: 1 (USB4C02835)
Boxcar Smoothing: 0 (USB4C02835)
Correct for Electrical Dark: No (USB4C02835)
Strobe/Lamp Enabled: No (USB4C02835)
Correct for Detector Non-linearity: No (USB4C02835)
Correct for Stray Light: No (USB4C02835)
Number of Pixels in Processed Spectrum: 3648
>>>>>Begin Processed Spectral Data<<<<<
177.47	1390.57
177.69	1390.57
177.91	1390.57
178.13	1351.66
178.36	1304.56
178.58	1464.30
178.80	1546.22
179.02	1456.11
179.24	1484.78
179.46	1560.55
179.68	1632.23
179.90	1552.36
180.13	1472.49
180.35	1509.35
180.57	1558.50
180.79	1591.27
181.01	1501.16
181.23	1581.03
181.45	1626.09
181.67	1595.37
181.90	1535.98
182.12	1529.83
182.34	1464.30
182.56	1480.68
182.78	1599.46
183.00	1535.98
183.22	1538.02
183.44	1511.40
183.66	1607.66
183.89	1617.90
184.11	1490.92
184.33	1525.74
184.55	1599.46
184.77	1548.26
184.99	1560.55
185.21	1468.39
185.43	1669.09
185.65	1513.45
185.87	1540.07
186.10	1626.09
186.32	1648.61
186.54	1552.36
186.76	1544.17
186.98	1685.48
187.20	1492.97
187.42	1443.82
187.64	1533.93
187.86	1566.70
188.08	1583.08
188.30	1544.17
188.52	1540.07
188.75	1597.42
188.97	1495.02
189.19	1488.87
189.41	1533.93
189.63	1538.02
189.85	1515.50
190.07	1486.83
190.29	1533.93
190.51	1597.42
190.73	1466.35
190.95	1613.80
191.17	1449.96
191.39	1394.67
191.61	1599.46
191.84	1486.83
192.06	1503.21
192.28	1511.40
192.50	1640.42
192.72	1550.31
192.94	1540.07
193.16	1624.04
193.38	1630.18
193.60	1511.40
193.82	1474.54
194.04	1454.06
194.26	1619.94
194.48	1568.74
194.70	1519.59
194.92	1513.45
195.14	1513.45
195.36	1554.41
195.58	1587.18
195.80	1499.11
196.02	1527.78
196.24	1517.54
196.46	1525.74
196.69	1509.35
196.91	1712.10
197.13	1519.59
197.35	1519.59
197.57	1632.23
197.79	1552.36
198.01	1521.64
198.23	1570.79
198.45	1574.89
198.67	1482.73
198.89	1513.45
199.11	1515.50
199.33	1546.22
199.55	1439.72
199.77	1535.98
199.99	1558.50
200.21	1501.16
200.43	1556.46
200.65	1443.82
200.87	1488.87
201.09	1495.02
201.31	1468.39
201.53	1554.41
201.75	1558.50
201.97	1492.97
202.19	1513.45
202.41	1556.46
202.63	1587.18
202.85	1492.97
203.07	1531.88
203.29	1535.98
203.51	1511.40
203.73	1486.83
203.95	1624.04
204.17	1511.40
204.39	1478.63
204.61	1560.55
204.83	1572.84
205.05	1499.11
205.27	1556.46
205.49	1626.09
205.71	1533.93
205.93	1515.50
206.15	1458.15
206.37	1560.55
206.59	1554.41
206.81	1507.30
207.03	1437.67
207.25	1515.50
207.47	1570.79
207.69	1474.54
207.91	1591.27
208.13	1660.90
208.34	1527.78
208.56	1550.31
208.78	1574.89
209.00	1511.40
209.22	1576.94
209.44	1505.26
209.66	1476.59
209.88	1513.45
210.10	1482.73
210.32	1499.11
210.54	1589.22
210.76	1501.16
210.98	1609.70
211.20	1425.39
211.42	1615.85
211.64	1531.88
211.86	1552.36
212.08	1521.64
212.30	1628.14
212.52	1521.64
212.74	1564.65
212.96	1540.07
213.17	1587.18
213.39	1581.03
213.61	1634.28
213.83	1677.29
214.05	1497.07
214.27	1576.94
214.49	1499.11
214.71	1501.16
214.93	1492.97
215.15	1484.78
215.37	1507.30
215.59	1478.63
215.81	1546.22
216.03	1591.27
216.24	1556.46
216.46	1499.11
216.68	1574.89
216.90	1572.84
217.12	1650.66
217.34	1529.83
217.56	1560.55
217.78	1527.78
218.00	1538.02
218.22	1552.36
218.44	1558.50
218.66	1624.04
218.87	1593.32
219.09	1540.07
219.31	1587.18
219.53	1533.93
219.75	1533.93
219.97	1556.46
220.19	1576.94
220.41	1429.48
220.63	1581.03
220.85	1574.89
221.06	1468.39
221.28	1544.17
221.50	1599.46
221.72	1546.22
221.94	1513.45
222.16	1546.22
222.38	1589.22
222.60	1513.45
222.82	1558.50
223.03	1685.48
223.25	1476.59
223.47	1564.65
223.69	1642.47
223.91	1605.61
224.13	1495.02
224.35	1550.31
224.57	1611.75
224.78	1535.98
225.00	1511.40
225.22	1572.84
225.44	1597.42
225.66	1552.36
225.88	1546.22
226.10	1599.46
226.32	1527.78
226.53	1609.70
226.75	1503.21
226.97	1540.07
227.19	1544.17
227.41	1538.02
227.63	1468.39
227.85	1499.11
228.06	1550.31
228.28	1581.03
228.50	1609.70
228.72	1441.77
228.94	1509.35
229.16	1505.26
229.37	1460.20
229.59	1538.02
229.81	1519.59
230.03	1556.46
230.25	1413.10
230.47	1503.21
230.69	1492.97
230.90	1535.98
231.12	1484.78
231.34	1628.14
231.56	1572.84
231.78	1456.11
232.00	1560.55
232.21	1525.74
232.43	1505.26
232.65	1402.86
232.87	1540.07
233.09	1468.39
233.30	1515.50
233.52	1538.02
233.74	1542.12
233.96	1546.22
234.18	1691.62
234.40	1488.87
234.61	1599.46
234.83	1509.35
235.05	1550.31
235.27	1564.65
235.49	1552.36
235.70	1607.66
235.92	1615.85
236.14	1587.18
236.36	1658.85
236.58	1396.71
236.79	1527.78
237.01	1501.16
237.23	1558.50
237.45	1642.47
237.67	1533.93
237.88	1529.83
238.10	1570.79
238.32	1503.21
238.54	1564.65
238.76	1501.16
238.97	1484.78
239.19	1472.49
239.41	1535.98
239.63	1609.70
239.85	1558.50
240.06	1554.41
240.28	1523.69
240.50	1570.79
240.72	1583.08
240.93	1533.93
241.15	1587.18
241.37	1492.97
241.59	1640.42
241.81	1531.88
242.02	1488.87
242.24	1593.32
242.46	1562.60
242.68	1425.39
242.89	1609.70
243.11	1525.74
243.33	1501.16
243.55	1544.17
243.76	1558.50
243.98	1509.35
244.20	1572.84
244.42	1527.78
244.64	1495.02
244.85	1492.97
245.07	1517.54
245.29	1566.70
245.51	1478.63
245.72	1486.83
245.94	1554.41
246.16	1570.79
246.38	1581.03
246.59	1495.02
246.81	1525.74
247.03	1558.50
247.24	1495.02
247.46	1443.82
247.68	1495.02
247.90	1560.55
248.11	1619.94
248.33	1630.18
248.55	1499.11
248.77	1505.26
248.98	1595.37
249.20	1581.03
249.42	1558.50
249.64	1615.85
249.85	1564.65
250.07	1488.87
250.29	1572.84
250.50	1624.04
250.72	1505.26
250.94	1550.31
251.16	1636.33
251.37	1587.18
251.59	1484.78
251.81	1509.35
252.02	1556.46
252.24	1552.36
252.46	1624.04
252.68	1521.64
252.89	1484.78
253.11	1513.45
253.33	1607.66
253.54	1574.89
253.76	1484.78
253.98	1585.13
254.20	1574.89
254.41	1513.45
254.63	1484.78
254.85	1495.02
255.06	1556.46
255.28	1523.69
255.50	1535.98
255.71	1609.70
255.93	1482.73
256.15	1452.01
256.36	1572.84
256.58	1464.30
256.80	1531.88
257.02	1437.67
257.23	1542.12
257.45	1572.84
257.67	1617.90
257.88	1509.35
258.10	1531.88
258.32	1564.65
258.53	1576.94
258.75	1556.46
258.97	1456.11
259.18	1574.89
259.40	1587.18
259.62	1607.66
259.83	1644.52
260.05	1603.56
260.27	1722.34
260.48	1519.59
260.70	1538.02
260.92	1544.17
261.13	1554.41
261.35	1503.21
261.57	1513.45
261.78	1464.30
262.00	1540.07
262.22	1597.42
262.43	1492.97
262.65	1497.07
262.86	1554.41
263.08	1609.70
263.30	1550.31
263.51	1503.21
263.73	1466.35
263.95	1556.46
264.16	1521.64
264.38	1560.55
264.60	1521.64
264.81	1585.13
265.03	1587.18
265.25	1533.93
265.46	1402.86
265.68	1533.93
265.89	1525.74
266.11	1458.15
266.33	1572.84
266.54	1597.42
266.76	1546.22
266.98	1574.89
267.19	1570.79
267.41	1527.78
267.62	1564.65
267.84	1501.16
268.06	1605.61
268.27	1503.21
268.49	1564.65
268.70	1628.14
268.92	1535.98
269.14	1486.83
269.35	1513.45
269.57	1535.98
269.79	1542.12
270.00	1542.12
270.22	1560.55
270.43	1560.55
270.65	1492.97
270.87	1538.02
271.08	1503.21
271.30	1566.70
271.51	1613.80
271.73	1517.54
271.95	1544.17
272.16	1552.36
272.38	1531.88
272.59	1566.70
272.81	1603.56
273.02	1570.79
273.24	1527.78
273.46	1540.07
273.67	1488.87
273.89	1468.39
274.10	1484.78
274.32	1511.40
274.54	1544.17
274.75	1599.46
274.97	1540.07
275.18	1595.37
275.40	1605.61
275.61	1540.07
275.83	1472.49
276.05	1552.36
276.26	1519.59
276.48	1585.13
276.69	1492.97
276.91	1482.73
277.12	1609.70
277.34	1656.81
277.55	1533.93
277.77	1484.78
277.99	1523.69
278.20	1570.79
278.42	1427.43
278.63	1495.02
278.85	1456.11
279.06	1488.87
279.28	1626.09
279.49	1585.13
279.71	1609.70
279.93	1550.31
280.14	1474.54
280.36	1505.26
280.57	1564.65
280.79	1609.70
281.00	1452.01
281.22	1460.20
281.43	1562.60
281.65	1404.91
281.86	1525.74
282.08	1558.50
282.29	1636.33
282.51	1568.74
282.73	1490.92
282.94	1535.98
283.16	1558.50
283.37	1529.83
283.59	1490.92
283.80	1597.42
284.02	1484.78
284.23	1587.18
284.45	1583.08
284.66	1499.11
284.88	1484.78
285.09	1595.37
285.31	1585.13
285.52	1554.41
285.74	1419.24
285.95	1521.64
286.17	1542.12
286.38	1587.18
286.60	1507.30
286.81	1517.54
287.03	1515.50
287.24	1486.83
287.46	1513.45
287.67	1519.59
287.89	1613.80
288.10	1454.06
288.32	1540.07
288.53	1646.57
288.75	1564.65
288.96	1519.59
289.18	1515.50
289.39	1542.12
289.61	1609.70
289.82	1607.66
290.04	1701.86
290.25	1478.63
290.47	1480.68
290.68	1490.92
290.90	1544.17
291.11	1482.73
291.33	1554.41
291.54	1521.64
291.76	1540.07
291.97	1558.50
292.18	1531.88
292.40	1484.78
292.61	1484.78
292.83	1593.32
293.04	1607.66
293.26	1568.74
293.47	1587.18
293.69	1460.20
293.90	1626.09
294.12	1611.75
294.33	1548.26
294.55	1503.21
294.76	1525.74
294.97	1576.94
295.19	1624.04
295.40	1519.59
295.62	1511.40
295.83	1533.93
296.05	1441.77
296.26	1538.02
296.48	1482.73
296.69	1507.30
296.90	1492.97
297.12	1562.60
297.33	1558.50
297.55	1486.83
297.76	1511.40
297.98	1556.46
298.19	1548.26
298.41	1513.45
298.62	1521.64
298.83	1583.08
299.05	1538.02
299.26	1470.44
299.48	1509.35
299.69	1587.18
299.90	1566.70
300.12	1472.49
300.33	1550.31
300.55	1591.27
300.76	1529.83
300.98	1525.74
301.19	1617.90
301.40	1533.93
301.62	1527.78
301.83	1570.79
302.05	1505.26
302.26	1583.08
302.47	1619.94
302.69	1505.26
302.90	1574.89
303.12	1406.95
303.33	1517.54
303.54	1617.90
303.76	1513.45
303.97	1599.46
304.19	1527.78
304.40	1509.35
304.61	1585.13
304.83	1593.32
305.04	1583.08
305.26	1548.26
305.47	1550.31
305.68	1554.41
305.90	1517.54
306.11	1533.93
306.33	1501.16
306.54	1468.39
306.75	1542.12
306.97	1460.20
307.18	1476.59
307.39	1523.69
307.61	1613.80
307.82	1560.55
308.04	1533.93
308.25	1529.83
308.46	1529.83
308.68	1540.07
308.89	1480.68
309.10	1544.17
309.32	1589.22
309.53	1572.84
309.74	1503.21
309.96	1566.70
310.17	1540.07
310.39	1533.93
310.60	1564.65
310.81	1574.89
311.03	1409.00
311.24	1595.37
311.45	1583.08
311.67	1667.05
311.88	1538.02
312.09	1470.44
312.31	1497.07
312.52	1548.26
312.73	1462.25
312.95	1540.07
313.16	1533.93
313.37	1595.37
313.59	1548.26
313.80	1601.51
314.01	1566.70
314.23	1460.20
314.44	1538.02
314.65	1486.83
314.87	1476.59
315.08	1615.85
315.29	1486.83
315.51	1556.46
315.72	1538.02
315.93	1546.22
316.15	1603.56
316.36	1515.50
316.57	1523.69
316.79	1568.74
317.00	1488.87
317.21	1581.03
317.43	1544.17
317.64	1535.98
317.85	1591.27
318.07	1468.39
318.28	1630.18
318.49	1646.57
318.70	1789.92
318.92	1740.77
319.13	1677.29
319.34	1677.29
319.56	1581.03
319.77	1605.61
319.98	1634.28
320.20	1624.04
320.41	1591.27
320.62	1542.12
320.83	1468.39
321.05	1632.23
321.26	1572.84
321.47	1540.07
321.69	1554.41
321.90	1404.91
322.11	1564.65
322.32	1521.64
322.54	1652.71
322.75	1564.65
322.96	1701.86
323.18	1531.88
323.39	1445.87
323.60	1478.63
323.81	1548.26
324.03	1527.78
324.24	1585.13
324.45	1558.50
324.66	1454.06
324.88	1546.22
325.09	1626.09
325.30	1521.64
325.52	1581.03
325.73	1558.50
325.94	1497.07
326.15	1454.06
326.37	1488.87
326.58	1617.90
326.79	1611.75
327.00	1476.59
327.22	1482.73
327.43	1533.93
327.64	1593.32
327.85	1558.50
328.07	1505.26
328.28	1587.18
328.49	1505.26
328.70	1533.93
328.92	1519.59
329.13	1583.08
329.34	1601.51
329.55	1585.13
329.76	1531.88
329.98	1492.97
330.19	1587.18
330.40	1527.78
330.61	1535.98
330.83	1523.69
331.04	1490.92
331.25	1531.88
331.46	1490.92
331.68	1466.35
331.89	1544.17
332.10	1464.30
332.31	1447.91
332.52	1513.45
332.74	1599.46
332.95	1501.16
333.16	1538.02
333.37	1505.26
333.58	1558.50
333.80	1572.84
334.01	1488.87
334.22	1615.85
334.43	1515.50
334.64	1566.70
334.86	1495.02
335.07	1429.48
335.28	1652.71
335.49	1425.39
335.70	1568.74
335.92	1589.22
336.13	1628.14
336.34	1509.35
336.55	1488.87
336.76	1495.02
336.98	1464.30
337.19	1521.64
337.40	1576.94
337.61	1679.33
337.82	1576.94
338.04	1566.70
338.25	1544.17
338.46	1538.02
338.67	1593.32
338.88	1515.50
339.09	1484.78
339.31	1538.02
339.52	1441.77
339.73	1529.83
339.94	1556.46
340.15	1562.60
340.36	1470.44
340.58	1531.88
340.79	1511.40
341.00	1519.59
341.21	1546.22
341.42	1671.14
341.63	1527.78
341.85	1652.71
342.06	1454.06
342.27	1476.59
342.48	1562.60
342.69	1501.16
342.90	1525.74
343.12	1460.20
343.33	1597.42
343.54	1548.26
343.75	1603.56
343.96	1548.26
344.17	1550.31
344.38	1503.21
344.60	1472.49
344.81	1447.91
345.02	1570.79
345.23	1583.08
345.44	1632.23
345.65	1624.04
345.86	1552.36
346.07	1609.70
346.29	1515.50
346.50	1495.02
346.71	1558.50
346.92	1572.84
347.13	1587.18
347.34	1521.64
347.55	1601.51
347.76	1601.51
347.98	1454.06
348.19	1470.44
348.40	1630.18
348.61	1570.79
348.82	1599.46
349.03	1535.98
349.24	1566.70
349.45	1650.66
349.66	1517.54
349.88	1538.02
350.09	1509.35
350.30	1515.50
350.51	1576.94
350.72	1509.35
350.93	1533.93
351.14	1488.87
351.35	1578.98
351.56	1533.93
351.77	1468.39
351.99	1572.84
352.20	1619.94
352.41	1615.85
352.62	1503.21
352.83	1574.89
353.04	1576.94
353.25	1509.35
353.46	1538.02
353.67	1535.98
353.88	1509.35
354.09	1581.03
354.30	1499.11
354.52	1558.50
354.73	1511.40
354.94	1521.64
355.15	1519.59
355.36	1638.38
355.57	1572.84
355.78	1484.78
355.99	1466.35
356.20	1486.83
356.41	1568.74
356.62	1554.41
356.83	1515.50
357.04	1679.33
357.25	1449.96
357.46	1523.69
357.68	1466.35
357.89	1583.08
358.10	1591.27
358.31	1544.17
358.52	1576.94
358.73	1476.59
358.94	1421.29
359.15	1478.63
359.36	1568.74
359.57	1511.40
359.78	1480.68
359.99	1591.27
360.20	1546.22
360.41	1509.35
360.62	1654.76
360.83	1562.60
361.04	1521.64
361.25	1578.98
361.46	1595.37
361.67	1607.66
361.88	1576.94
362.09	1511.40
362.30	1572.84
362.51	1482.73
362.72	1540.07
362.93	1552.36
363.14	1527.78
363.35	1535.98
363.56	1449.96
363.78	1595.37
363.99	1617.90
364.20	1511.40
364.41	1521.64
364.62	1617.90
364.83	1609.70
365.04	1550.31
365.25	1515.50
365.46	1558.50
365.67	1538.02
365.88	1572.84
366.09	1515.50
366.30	1501.16
366.51	1533.93
366.72	1515.50
366.93	1525.74
367.14	1564.65
367.35	1552.36
367.56	1558.50
367.77	1640.42
367.98	1468.39
368.18	1533.93
368.39	1576.94
368.60	1437.67
368.81	1542.12
369.02	1570.79
369.23	1562.60
369.44	1525.74
369.65	1456.11
369.86	1554.41
370.07	1554.41
370.28	1519.59
370.49	1626.09
370.70	1495.02
370.91	1472.49
371.12	1486.83
371.33	1513.45
371.54	1460.20
371.75	1599.46
371.96	1462.25
372.17	1525.74
372.38	1527.78
372.59	1540.07
372.80	1501.16
373.01	1501.16
373.22	1521.64
373.43	1525.74
373.64	1519.59
373.85	1613.80
374.06	1593.32
374.26	1587.18
374.47	1562.60
374.68	1671.14
374.89	1566.70
375.10	1521.64
375.31	1568.74
375.52	1556.46
375.73	1521.64
375.94	1546.22
376.15	1630.18
376.36	1552.36
376.57	1480.68
376.78	1521.64
376.99	1613.80
377.20	1542.12
377.40	1484.78
377.61	1695.72
377.82	1441.77
378.03	1570.79
378.24	1531.88
378.45	1484.78
378.66	1576.94
378.87	1456.11
379.08	1511.40
379.29	1599.46
379.50	1673.19
379.71	1439.72
379.91	1474.54
380.12	1531.88
380.33	1603.56
380.54	1558.50
380.75	1511.40
380.96	1564.65
381.17	1605.61
381.38	1546.22
381.59	1648.61
381.80	1568.74
382.00	1628.14
382.21	1626.09
382.42	1558.50
382.63	1705.96
382.84	1638.38
383.05	1591.27
383.26	1587.18
383.47	1587.18
383.68	1638.38
383.88	1589.22
384.09	1585.13
384.30	1605.61
384.51	1533.93
384.72	1576.94
384.93	1441.77
385.14	1495.02
385.35	1548.26
385.55	1550.31
385.76	1640.42
385.97	1529.83
386.18	1558.50
386.39	1503.21
386.60	1488.87
386.81	1572.84
387.02	1497.07
387.22	1523.69
387.43	1693.67
387.64	1662.95
387.85	1841.12
388.06	3100.62
388.27	7282.58
388.48	10534.75
388.68	12533.57
388.89	13784.88
389.10	12848.96
389.31	10147.69
389.52	8904.57
389.73	7796.62
389.93	7231.38
390.14	6635.42
390.35	6188.96
390.56	5566.38
390.77	4517.82
390.98	3751.88
391.18	2797.53
391.39	2232.29
391.60	1857.51
391.81	1740.77
392.02	1525.74
392.23	1726.44
392.43	1542.12
392.64	1644.52
392.85	1523.69
393.06	1613.80
393.27	1519.59
393.47	1611.75
393.68	1583.08
393.89	1509.35
394.10	1562.60
394.31	1540.07
394.52	1548.26
394.72	1499.11
394.93	1605.61
395.14	1515.50
395.35	1550.31
395.56	1490.92
395.76	1599.46
395.97	1697.77
396.18	1722.34
396.39	1763.30
396.60	1888.23
396.80	1681.38
397.01	1683.43
397.22	1656.81
397.43	1660.90
397.64	1556.46
397.84	1654.76
398.05	1705.96
398.26	1587.18
398.47	1607.66
398.67	1566.70
398.88	1611.75
399.09	1583.08
399.30	1490.92
399.51	1517.54
399.71	1544.17
399.92	1626.09
400.13	1513.45
400.34	1484.78
400.54	1538.02
400.75	1669.09
400.96	1538.02
401.17	1648.61
401.37	1501.16
401.58	1476.59
401.79	1607.66
402.00	1755.11
402.21	1923.04
402.41	1966.05
402.62	1869.80
402.83	1884.13
403.04	1871.84
403.24	1837.03
403.45	1703.91
403.66	1724.39
403.87	1751.01
404.07	1765.35
404.28	1714.15
404.49	1697.77
404.70	1589.22
404.90	1652.71
405.11	1673.19
405.32	1585.13
405.52	1599.46
405.73	1452.01
405.94	1492.97
406.15	1501.16
406.35	1597.42
406.56	1583.08
406.77	1566.70
406.98	1615.85
407.18	1515.50
407.39	1560.55
407.60	1562.60
407.80	1660.90
408.01	1468.39
408.22	1603.56
408.43	1490.92
408.63	1527.78
408.84	1587.18
409.05	1628.14
409.25	1552.36
409.46	1521.64
409.67	1466.35
409.88	1562.60
410.08	1492.97
410.29	1470.44
410.50	1525.74
410.70	1591.27
410.91	1521.64
411.12	1583.08
411.32	1558.50
411.53	1497.07
411.74	1656.81
411.95	1595.37
412.15	1603.56
412.36	1689.57
412.57	1624.04
412.77	1546.22
412.98	1495.02
413.19	1589.22
413.39	1560.55
413.60	1546.22
413.81	1652.71
414.01	1544.17
414.22	1605.61
414.43	1562.60
414.63	1540.07
414.84	1560.55
415.05	1595.37
415.25	1503.21
415.46	1562.60
415.67	1497.07
415.87	1583.08
416.08	1527.78
416.29	1527.78
416.49	1599.46
416.70	1546.22
416.91	1423.34
417.11	1562.60
417.32	1652.71
417.53	1562.60
417.73	1591.27
417.94	1390.57
418.15	1556.46
418.35	1538.02
418.56	1593.32
418.77	1603.56
418.97	1513.45
419.18	1505.26
419.38	1380.33
419.59	1445.87
419.80	1560.55
420.00	1497.07
420.21	1595.37
420.42	1589.22
420.62	1544.17
420.83	1535.98
421.04	1476.59
421.24	1558.50
421.45	1558.50
421.65	1585.13
421.86	1527.78
422.07	1587.18
422.27	1505.26
422.48	1523.69
422.69	1527.78
422.89	1585.13
423.10	1552.36
423.30	1511.40
423.51	1538.02
423.72	1449.96
423.92	1540.07
424.13	1476.59
424.33	1490.92
424.54	1574.89
424.75	1521.64
424.95	1531.88
425.16	1542.12
425.36	1480.68
425.57	1589.22
425.78	1595.37
425.98	1599.46
426.19	1607.66
426.39	1492.97
426.60	1615.85
426.81	1576.94
427.01	1574.89
427.22	1456.11
427.42	1523.69
427.63	1533.93
427.83	1531.88
428.04	1609.70
428.25	1566.70
428.45	1558.50
428.66	1597.42
428.86	1587.18
429.07	1568.74
429.28	1603.56
429.48	1535.98
429.69	1468.39
429.89	1509.35
430.10	1478.63
430.30	1581.03
430.51	1583.08
430.71	1538.02
430.92	1568.74
431.13	1515.50
431.33	1556.46
431.54	1658.85
431.74	1607.66
431.95	1601.51
432.15	1495.02
432.36	1546.22
432.56	1556.46
432.77	1628.14
432.98	1576.94
433.18	1521.64
433.39	1515.50
433.59	1527.78
433.80	1642.47
434.00	1679.33
434.21	1488.87
434.41	1417.19
434.62	1603.56
434.82	1503.21
435.03	1443.82
435.23	1607.66
435.44	1495.02
435.64	1562.60
435.85	1576.94
436.06	1552.36
436.26	1531.88
436.47	1490.92
436.67	1490.92
436.88	1533.93
437.08	1515.50
437.29	1603.56
437.49	1562.60
437.70	1583.08
437.90	1552.36
438.11	1628.14
438.31	1636.33
438.52	1703.91
438.72	1708.01
438.93	1740.77
439.13	1656.81
439.34	1679.33
439.54	1628.14
439.75	1595.37
439.95	1646.57
440.16	1542.12
440.36	1591.27
440.57	1570.79
440.77	1578.98
440.98	1578.98
441.18	1615.85
441.39	1554.41
441.59	1519.59
441.80	1693.67
442.00	1542.12
442.21	1535.98
442.41	1462.25
442.62	1568.74
442.82	1476.59
443.02	1538.02
443.23	1628.14
443.43	1556.46
443.64	1675.24
443.84	1552.36
444.05	1583.08
444.25	1585.13
444.46	1538.02
444.66	1509.35
444.87	1675.24
445.07	1507.30
445.28	1554.41
445.48	1634.28
445.69	1554.41
445.89	1757.16
446.09	1546.22
446.30	2080.74
446.50	3139.54
446.71	4630.46
446.91	5210.03
447.12	5709.74
447.32	5554.09
447.53	4669.37
447.73	4089.79
447.93	3655.62
448.14	3231.69
448.34	3260.37
448.55	3030.99
448.75	2901.97
448.96	2713.56
449.16	2531.29
449.36	2295.77
449.57	2009.06
449.77	1794.02
449.98	1628.14
450.18	1599.46
450.39	1665.00
450.59	1601.51
450.79	1558.50
451.00	1568.74
451.20	1503.21
451.41	1617.90
451.61	1574.89
451.81	1519.59
452.02	1499.11
452.22	1558.50
452.43	1511.40
452.63	1519.59
452.84	1554.41
453.04	1492.97
453.24	1517.54
453.45	1566.70
453.65	1497.07
453.86	1581.03
454.06	1564.65
454.26	1509.35
454.47	1564.65
454.67	1628.14
454.87	1566.70
455.08	1538.02
455.28	1646.57
455.49	1578.98
455.69	1454.06
455.89	1671.14
456.10	1609.70
456.30	1511.40
456.51	1626.09
456.71	1531.88
456.91	1538.02
457.12	1521.64
457.32	1548.26
457.52	1521.64
457.73	1527.78
457.93	1583.08
458.14	1566.70
458.34	1454.06
458.54	1591.27
458.75	1538.02
458.95	1574.89
459.15	1591.27
459.36	1574.89
459.56	1509.35
459.76	1644.52
459.97	1546.22
460.17	1505.26
460.37	1599.46
460.58	1533.93
460.78	1593.32
460.99	1585.13
461.19	1521.64
461.39	1521.64
461.60	1583.08
461.80	1607.66
462.00	1546.22
462.21	1603.56
462.41	1482.73
462.61	1472.49
462.82	1513.45
463.02	1646.57
463.22	1490.92
463.43	1617.90
463.63	1593.32
463.83	1621.99
464.04	1576.94
464.24	1542.12
464.44	1460.20
464.64	1558.50
464.85	1572.84
465.05	1609.70
465.25	1503.21
465.46	1474.54
465.66	1566.70
465.86	1576.94
466.07	1566.70
466.27	1519.59
466.47	1388.52
466.68	1488.87
466.88	1628.14
467.08	1607.66
467.29	1568.74
467.49	1589.22
467.69	1585.13
467.89	1515.50
468.10	1472.49
468.30	1540.07
468.50	1572.84
468.71	1562.60
468.91	1411.05
469.11	1589.22
469.31	1583.08
469.52	1533.93
469.72	1624.04
469.92	1656.81
470.13	1568.74
470.33	1609.70
470.53	1740.77
470.73	2082.78
470.94	2379.74
471.14	2361.31
471.34	2602.97
471.54	2480.09
471.75	2133.98
471.95	2064.35
472.15	1984.48
472.36	2007.01
472.56	1888.23
472.76	1910.75
472.96	1808.36
473.17	1806.31
473.37	1738.73
473.57	1628.14
473.77	1669.09
473.98	1652.71
474.18	1556.46
474.38	1710.05
474.58	1540.07
474.79	1558.50
474.99	1503.21
475.19	1550.31
475.39	1513.45
475.60	1591.27
475.80	1621.99
476.00	1533.93
476.20	1456.11
476.41	1564.65
476.61	1538.02
476.81	1619.94
477.01	1570.79
477.21	1583.08
477.42	1583.08
477.62	1560.55
477.82	1558.50
478.02	1482.73
478.23	1472.49
478.43	1505.26
478.63	1501.16
478.83	1574.89
479.03	1507.30
479.24	1538.02
479.44	1628.14
479.64	1529.83
479.84	1456.11
480.04	1482.73
480.25	1644.52
480.45	1505.26
480.65	1558.50
480.85	1615.85
481.06	1546.22
481.26	1544.17
481.46	1560.55
481.66	1540.07
481.86	1466.35
482.06	1640.42
482.27	1515.50
482.47	1456.11
482.67	1562.60
482.87	1501.16
483.07	1542.12
483.28	1495.02
483.48	1460.20
483.68	1560.55
483.88	1476.59
484.08	1437.67
484.29	1503.21
484.49	1574.89
484.69	1548.26
484.89	1585.13
485.09	1578.98
485.29	1558.50
485.50	1634.28
485.70	1533.93
485.90	1597.42
486.10	1624.04
486.30	1572.84
486.50	1595.37
486.71	1464.30
486.91	1601.51
487.11	1669.09
487.31	1531.88
487.51	1452.01
487.71	1556.46
487.91	1583.08
488.12	1456.11
488.32	1468.39
488.52	1617.90
488.72	1482.73
488.92	1558.50
489.12	1566.70
489.32	1611.75
489.53	1669.09
489.73	1480.68
489.93	1601.51
490.13	1556.46
490.33	1505.26
490.53	1503.21
490.73	1564.65
490.94	1470.44
491.14	1525.74
491.34	1677.29
491.54	2168.80
491.74	2693.08
491.94	3051.47
492.14	3266.51
492.34	3145.68
492.54	2791.38
492.75	2490.33
492.95	2420.70
493.15	2160.61
493.35	2191.33
493.55	2095.07
493.75	1925.09
493.95	1912.80
494.15	1949.67
494.35	1828.84
494.56	1763.30
494.76	1621.99
494.96	1638.38
495.16	1621.99
495.36	1630.18
495.56	1527.78
495.76	1521.64
495.96	1492.97
496.16	1564.65
496.36	1660.90
496.56	1464.30
496.77	1544.17
496.97	1544.17
497.17	1538.02
497.37	1456.11
497.57	1597.42
497.77	1523.69
497.97	1529.83
498.17	1550.31
498.37	1538.02
498.57	1562.60
498.77	1517.54
498.97	1587.18
499.17	1650.66
499.38	1548.26
499.58	1597.42
499.78	1656.81
499.98	1636.33
500.18	1603.56
500.38	1521.64
500.58	1791.97
500.78	2627.54
500.98	5091.25
501.18	6737.82
501.38	8214.40
501.58	8839.03
501.78	7876.49
501.98	6068.13
502.18	5328.81
502.38	4679.61
502.58	4157.38
502.78	3776.45
502.98	3626.95
503.18	3581.90
503.38	3317.71
503.59	3018.71
503.79	2688.98
503.99	2484.19
504.19	2289.63
504.39	2150.37
504.59	2129.89
504.79	2017.25
504.99	1920.99
505.19	1798.12
505.39	1695.72
505.59	1816.55
505.79	1734.63
505.99	1689.57
506.19	1611.75
506.39	1703.91
506.59	1554.41
506.79	1613.80
506.99	1642.47
507.19	1585.13
507.39	1615.85
507.59	1527.78
507.79	1550.31
507.99	1503.21
508.19	1607.66
508.39	1535.98
508.59	1535.98
508.79	1601.51
508.99	1636.33
509.19	1538.02
509.39	1585.13
509.59	1511.40
509.79	1513.45
509.99	1550.31
510.19	1578.98
510.39	1554.41
510.59	1535.98
510.79	1533.93
510.99	1509.35
511.19	1558.50
511.39	1550.31
511.59	1701.86
511.79	1613.80
511.99	1578.98
512.19	1650.66
512.38	1574.89
512.58	1484.78
512.78	1482.73
512.98	1578.98
513.18	1652.71
513.38	1478.63
513.58	1636.33
513.78	1511.40
513.98	1484.78
514.18	1560.55
514.38	1540.07
514.58	1544.17
514.78	1437.67
514.98	1505.26
515.18	1531.88
515.38	1515.50
515.58	1683.43
515.78	1456.11
515.98	1535.98
516.18	1568.74
516.38	1517.54
516.57	1464.30
516.77	1544.17
516.97	1601.51
517.17	1486.83
517.37	1464.30
517.57	1558.50
517.77	1527.78
517.97	1513.45
518.17	1646.57
518.37	1503.21
518.57	1470.44
518.77	1542.12
518.97	1538.02
519.16	1542.12
519.36	1597.42
519.56	1521.64
519.76	1519.59
519.96	1550.31
520.16	1644.52
520.36	1529.83
520.56	1632.23
520.76	1556.46
520.96	1540.07
521.16	1656.81
521.35	1560.55
521.55	1546.22
521.75	1583.08
521.95	1533.93
522.15	1538.02
522.35	1501.16
522.55	1552.36
522.75	1583.08
522.95	1449.96
523.14	1490.92
523.34	1566.70
523.54	1513.45
523.74	1578.98
523.94	1581.03
524.14	1382.38
524.34	1595.37
524.54	1673.19
524.73	1499.11
524.93	1570.79
525.13	1576.94
525.33	1419.24
525.53	1740.77
525.73	1552.36
525.93	1550.31
526.13	1513.45
526.32	1468.39
526.52	1619.94
526.72	1564.65
526.92	1517.54
527.12	1564.65
527.32	1488.87
527.52	1497.07
527.71	1531.88
527.91	1572.84
528.11	1542.12
528.31	1585.13
528.51	1445.87
528.71	1501.16
528.90	1509.35
529.10	1624.04
529.30	1648.61
529.50	1503.21
529.70	1515.50
529.90	1529.83
530.09	1597.42
530.29	1519.59
530.49	1472.49
530.69	1568.74
530.89	1540.07
531.09	1499.11
531.28	1587.18
531.48	1597.42
531.68	1533.93
531.88	1533.93
532.08	1611.75
532.28	1548.26
532.47	1591.27
532.67	1587.18
532.87	1683.43
533.07	1464.30
533.27	1621.99
533.46	1658.85
533.66	1515.50
533.86	1593.32
534.06	1552.36
534.26	1546.22
534.45	1562.60
534.65	1681.38
534.85	1548.26
535.05	1574.89
535.25	1601.51
535.44	1490.92
535.64	1552.36
535.84	1609.70
536.04	1509.35
536.24	1568.74
536.43	1540.07
536.63	1548.26
536.83	1601.51
537.03	1585.13
537.22	1437.67
537.42	1488.87
537.62	1523.69
537.82	1544.17
538.02	1638.38
538.21	1650.66
538.41	1673.19
538.61	1472.49
538.81	1603.56
539.00	1583.08
539.20	1472.49
539.40	1443.82
539.60	1648.61
539.79	1540.07
539.99	1511.40
540.19	1531.88
540.39	1535.98
540.58	1574.89
540.78	1507.30
540.98	1519.59
541.18	1576.94
541.37	1632.23
541.57	1460.20
541.77	1556.46
541.97	1492.97
542.16	1443.82
542.36	1435.63
542.56	1630.18
542.76	1624.04
542.95	1511.40
543.15	1599.46
543.35	1495.02
543.54	1515.50
543.74	1452.01
543.94	1538.02
544.14	1523.69
544.33	1583.08
544.53	1538.02
544.73	1488.87
544.93	1478.63
545.12	1540.07
545.32	1581.03
545.52	1538.02
545.71	1523.69
545.91	1515.50
546.11	1556.46
546.30	1503.21
546.50	1531.88
546.70	1538.02
546.90	1511.40
547.09	1486.83
547.29	1468.39
547.49	1558.50
547.68	1476.59
547.88	1529.83
548.08	1535.98
548.27	1890.28
548.47	1546.22
548.67	1527.78
548.87	1566.70
549.06	1488.87
549.26	1503.21
549.46	1578.98
549.65	1513.45
549.85	1593.32
550.05	1529.83
550.24	1458.15
550.44	1564.65
550.64	1550.31
550.83	1546.22
551.03	1529.83
551.23	1554.41
551.42	1585.13
551.62	1511.40
551.82	1599.46
552.01	1546.22
552.21	1552.36
552.41	1595.37
552.60	1513.45
552.80	1560.55
553.00	1583.08
553.19	1495.02
553.39	1644.52
553.59	1435.63
553.78	1564.65
553.98	1574.89
554.17	1417.19
554.37	1542.12
554.57	1550.31
554.76	1492.97
554.96	1533.93
555.16	1572.84
555.35	1597.42
555.55	1591.27
555.75	1511.40
555.94	1583.08
556.14	1511.40
556.33	1585.13
556.53	1497.07
556.73	1581.03
556.92	1597.42
557.12	1544.17
557.32	1636.33
557.51	1624.04
557.71	1535.98
557.90	1589.22
558.10	1601.51
558.30	1435.63
558.49	1597.42
558.69	1597.42
558.88	1621.99
559.08	1525.74
559.28	1495.02
559.47	1542.12
559.67	1585.13
559.86	1621.99
560.06	1546.22
560.26	1507.30
560.45	1562.60
560.65	1574.89
560.84	1615.85
561.04	1476.59
561.24	1638.38
561.43	1470.44
561.63	1671.14
561.82	1599.46
562.02	1572.84
562.22	1542.12
562.41	1544.17
562.61	1509.35
562.80	1503.21
563.00	1712.10
563.19	1599.46
563.39	1546.22
563.59	1521.64
563.78	1511.40
563.98	1406.95
564.17	1439.72
564.37	1480.68
564.56	1591.27
564.76	1517.54
564.96	1564.65
565.15	1581.03
565.35	1626.09
565.54	1523.69
565.74	1527.78
565.93	1609.70
566.13	1521.64
566.32	1531.88
566.52	1621.99
566.71	1554.41
566.91	1583.08
567.11	1560.55
567.30	1468.39
567.50	1531.88
567.69	1589.22
567.89	1513.45
568.08	1574.89
568.28	1654.76
568.47	1521.64
568.67	1624.04
568.86	1609.70
569.06	1595.37
569.25	1470.44
569.45	1484.78
569.64	1523.69
569.84	1607.66
570.04	1527.78
570.23	1570.79
570.43	1568.74
570.62	1574.89
570.82	1624.04
571.01	1540.07
571.21	1484.78
571.40	1499.11
571.60	1564.65
571.79	1613.80
571.99	1554.41
572.18	1519.59
572.38	1581.03
572.57	1585.13
572.77	1574.89
572.96	1628.14
573.16	1558.50
573.35	1540.07
573.55	1521.64
573.74	1609.70
573.94	1566.70
574.13	1538.02
574.33	1609.70
574.52	1632.23
574.71	1552.36
574.91	1654.76
575.10	1542.12
575.30	1488.87
575.49	1509.35
575.69	1527.78
575.88	1538.02
576.08	1523.69
576.27	1630.18
576.47	1583.08
576.66	1671.14
576.86	1638.38
577.05	1619.94
577.25	1662.95
577.44	1636.33
577.64	1525.74
577.83	1593.32
578.02	1548.26
578.22	1619.94
578.41	1673.19
578.61	1591.27
578.80	1554.41
579.00	1595.37
579.19	1578.98
579.39	1585.13
579.58	1533.93
579.77	1554.41
579.97	1638.38
580.16	1638.38
580.36	1607.66
580.55	1669.09
580.75	1542.12
580.94	1685.48
581.13	1662.95
581.33	1722.34
581.52	1599.46
581.72	1775.59
581.91	1714.15
582.11	1646.57
582.30	1607.66
582.49	1544.17
582.69	1550.31
582.88	1615.85
583.08	1568.74
583.27	1617.90
583.47	1566.70
583.66	1533.93
583.85	1597.42
584.05	1595.37
584.24	1691.62
584.44	1673.19
584.63	1679.33
584.82	1710.05
585.02	1660.90
585.21	1802.21
585.41	1746.92
585.60	1695.72
585.79	1851.36
585.99	1857.51
586.18	1851.36
586.37	2045.92
586.57	3139.54
586.76	9697.13
586.96	27223.65
587.15	43580.78
587.34	54699.20
587.54	61066.33
587.73	59556.98
587.93	43378.03
588.12	32374.29
588.31	25847.41
588.51	21728.95
588.70	19812.05
588.89	18267.88
589.09	17010.43
589.28	15302.42
589.47	13231.93
589.67	11186.01
589.86	9000.82
590.06	6752.15
590.25	5046.20
590.44	3770.31
590.64	2961.36
590.83	2314.20
591.02	2011.11
591.22	1814.50
591.41	1812.45
591.60	1712.10
591.80	1773.54
591.99	1583.08
592.18	1640.42
592.38	1658.85
592.57	1581.03
592.76	1558.50
592.96	1607.66
593.15	1585.13
593.34	1648.61
593.54	1484.78
593.73	1632.23
593.92	1656.81
594.12	1609.70
594.31	1624.04
594.50	1726.44
594.70	1677.29
594.89	1648.61
595.08	1605.61
595.28	1511.40
595.47	1712.10
595.66	1624.04
595.86	1495.02
596.05	1578.98
596.24	1538.02
596.43	1642.47
596.63	1669.09
596.82	1583.08
597.01	1640.42
597.21	1652.71
597.40	1583.08
597.59	1578.98
597.79	1564.65
597.98	1601.51
598.17	1630.18
598.36	1626.09
598.56	1601.51
598.75	1583.08
598.94	1542.12
599.14	1619.94
599.33	1486.83
599.52	1634.28
599.71	1468.39
599.91	1591.27
600.10	1581.03
600.29	1572.84
600.48	1566.70
600.68	1562.60
600.87	1550.31
601.06	1624.04
601.26	1570.79
601.45	1540.07
601.64	1585.13
601.83	1570.79
602.03	1480.68
602.22	1503.21
602.41	1540.07
602.60	1681.38
602.80	1531.88
602.99	1652.71
603.18	1591.27
603.37	1583.08
603.57	1628.14
603.76	1597.42
603.95	1605.61
604.14	1585.13
604.34	1564.65
604.53	1574.89
604.72	1474.54
604.91	1621.99
605.10	1613.80
605.30	1480.68
605.49	1675.24
605.68	1675.24
605.87	1599.46
606.07	1474.54
606.26	1603.56
606.45	1540.07
606.64	1585.13
606.84	1599.46
607.03	1574.89
607.22	1660.90
607.41	1535.98
607.60	1562.60
607.80	1560.55
607.99	1550.31
608.18	1638.38
608.37	1589.22
608.56	1562.60
608.76	1624.04
608.95	1671.14
609.14	1660.90
609.33	1640.42
609.52	1703.91
609.72	1683.43
609.91	1683.43
610.10	1572.84
610.29	1671.14
610.48	1566.70
610.68	1589.22
610.87	1562.60
611.06	1544.17
611.25	1544.17
611.44	1609.70
611.63	1591.27
611.83	1591.27
612.02	1497.07
612.21	1652.71
612.40	1417.19
612.59	1482.73
612.79	1521.64
612.98	1482.73
613.17	1599.46
613.36	1525.74
613.55	1642.47
613.74	1619.94
613.93	1687.53
614.13	1722.34
614.32	1716.20
614.51	1734.63
614.70	1677.29
614.89	1605.61
615.08	1654.76
615.28	1929.19
615.47	1572.84
615.66	1583.08
615.85	1576.94
616.04	1593.32
616.23	1615.85
616.42	1632.23
616.62	1560.55
616.81	1675.24
617.00	1583.08
617.19	1554.41
617.38	1585.13
617.57	1529.83
617.76	1576.94
617.95	1619.94
618.15	1603.56
618.34	1650.66
618.53	1509.35
618.72	1531.88
618.91	1634.28
619.10	1605.61
619.29	1585.13
619.48	1538.02
619.68	1501.16
619.87	1540.07
620.06	1509.35
620.25	1585.13
620.44	1533.93
620.63	1531.88
620.82	1572.84
621.01	1624.04
621.20	1570.79
621.39	1583.08
621.59	1548.26
621.78	1558.50
621.97	1544.17
622.16	1550.31
622.35	1556.46
622.54	1626.09
622.73	1548.26
622.92	1429.48
623.11	1560.55
623.30	1552.36
623.49	1611.75
623.68	1542.12
623.88	1650.66
624.07	1570.79
624.26	1550.31
624.45	1568.74
624.64	1499.11
624.83	1535.98
625.02	1544.17
625.21	1476.59
625.40	1568.74
625.59	1556.46
625.78	1585.13
625.97	1544.17
626.16	1615.85
626.35	1630.18
626.54	1654.76
626.74	1544.17
626.93	1609.70
627.12	1564.65
627.31	1609.70
627.50	1505.26
627.69	1619.94
627.88	1538.02
628.07	1615.85
628.26	1533.93
628.45	1554.41
628.64	1517.54
628.83	1470.44
629.02	1511.40
629.21	1599.46
629.40	1570.79
629.59	1558.50
629.78	1546.22
629.97	1501.16
630.16	1527.78
630.35	1531.88
630.54	1525.74
630.73	1556.46
630.92	1583.08
631.11	1558.50
631.30	1517.54
631.49	1544.17
631.68	1509.35
631.87	1613.80
632.06	1544.17
632.25	1642.47
632.44	1581.03
632.63	1533.93
632.82	1501.16
633.01	1548.26
633.20	1644.52
633.39	1734.63
633.58	1640.42
633.77	1558.50
633.96	1544.17
634.15	1574.89
634.34	1552.36
634.53	1583.08
634.72	1546.22
634.91	1544.17
635.10	1587.18
635.29	1585.13
635.48	1578.98
635.67	1511.40
635.86	1509.35
636.05	1671.14
636.24	1601.51
636.43	1599.46
636.62	1566.70
636.81	1411.05
637.00	1546.22
637.19	1505.26
637.38	1599.46
637.57	1535.98
637.76	1554.41
637.95	1710.05
638.14	1626.09
638.33	1671.14
638.52	1646.57
638.71	1587.18
638.89	1591.27
639.08	1597.42
639.27	1632.23
639.46	1689.57
639.65	1945.57
639.84	2029.54
640.03	2093.02
640.22	2238.43
640.41	2152.42
640.60	1984.48
640.79	1914.85
640.98	1732.58
641.17	1796.07
641.36	1755.11
641.55	1718.25
641.74	1679.33
641.92	1681.38
642.11	1628.14
642.30	1632.23
642.49	1546.22
642.68	1574.89
642.87	1568.74
643.06	1525.74
643.25	1538.02
643.44	1554.41
643.63	1578.98
643.82	1632.23
644.00	1507.30
644.19	1646.57
644.38	1507.30
644.57	1611.75
644.76	1544.17
644.95	1503.21
645.14	1538.02
645.33	1533.93
645.52	1437.67
645.71	1523.69
645.89	1501.16
646.08	1542.12
646.27	1546.22
646.46	1626.09
646.65	1402.86
646.84	1517.54
647.03	1470.44
647.22	1542.12
647.40	1538.02
647.59	1556.46
647.78	1523.69
647.97	1452.01
648.16	1548.26
648.35	1648.61
648.54	1587.18
648.73	1468.39
648.91	1640.42
649.10	1572.84
649.29	1513.45
649.48	1581.03
649.67	1587.18
649.86	1542.12
650.05	1619.94
650.23	1662.95
650.42	1640.42
650.61	1757.16
650.80	1744.87
650.99	1732.58
651.18	1679.33
651.36	1652.71
651.55	1583.08
651.74	1636.33
651.93	1472.49
652.12	1525.74
652.31	1538.02
652.49	1595.37
652.68	1562.60
652.87	1615.85
653.06	1589.22
653.25	1624.04
653.44	1488.87
653.62	1605.61
653.81	1511.40
654.00	1595.37
654.19	1613.80
654.38	1650.66
654.56	1519.59
654.75	1560.55
654.94	1542.12
655.13	1535.98
655.32	1595.37
655.51	1591.27
655.69	1521.64
655.88	1570.79
656.07	1550.31
656.26	1640.42
656.45	1478.63
656.63	1507.30
656.82	1499.11
657.01	1593.32
657.20	1562.60
657.38	1626.09
657.57	1546.22
657.76	1415.15
657.95	1578.98
658.14	1517.54
658.32	1578.98
658.51	1540.07
658.70	1552.36
658.89	1585.13
659.08	1560.55
659.26	1601.51
659.45	1593.32
659.64	1685.48
659.83	1624.04
660.01	1714.15
660.20	1603.56
660.39	1662.95
660.58	1556.46
660.76	1613.80
660.95	1515.50
661.14	1583.08
661.33	1560.55
661.51	1552.36
661.70	1535.98
661.89	1546.22
662.08	1540.07
662.26	1521.64
662.45	1552.36
662.64	1636.33
662.83	1529.83
663.01	1486.83
663.20	1513.45
663.39	1589.22
663.58	1495.02
663.76	1509.35
663.95	1533.93
664.14	1509.35
664.32	1554.41
664.51	1443.82
664.70	1482.73
664.89	1540.07
665.07	1482.73
665.26	1535.98
665.45	1511.40
665.64	1544.17
665.82	1503.21
666.01	1597.42
666.20	1488.87
666.38	1675.24
666.57	1640.42
666.76	1806.31
666.95	2861.01
667.13	7628.68
667.32	15623.95
667.51	20051.66
667.69	23527.06
667.88	25161.34
668.07	21941.94
668.25	15351.57
668.44	12494.66
668.63	10055.53
668.81	8679.29
669.00	7630.73
669.19	7094.16
669.38	6340.51
669.56	5570.48
669.75	4888.50
669.94	4140.99
670.12	3434.44
670.31	2854.87
670.50	2582.49
670.68	2123.74
670.87	1869.80
671.06	1712.10
671.24	1779.68
671.43	1644.52
671.62	1738.73
671.80	1669.09
671.99	1636.33
672.18	1581.03
672.36	1724.39
672.55	1617.90
672.74	1585.13
672.92	1558.50
673.11	1613.80
673.29	1538.02
673.48	1583.08
673.67	1540.07
673.85	1562.60
674.04	1570.79
674.23	1628.14
674.41	1638.38
674.60	1548.26
674.79	1472.49
674.97	1562.60
675.16	1576.94
675.34	1589.22
675.53	1554.41
675.72	1578.98
675.90	1583.08
676.09	1533.93
676.28	1521.64
676.46	1533.93
676.65	1576.94
676.83	1507.30
677.02	1521.64
677.21	1482.73
677.39	1529.83
677.58	1484.78
677.77	1525.74
677.95	1546.22
678.14	1523.69
678.32	1574.89
678.51	1419.24
678.70	1587.18
678.88	1570.79
679.07	1550.31
679.25	1533.93
679.44	1486.83
679.63	1474.54
679.81	1560.55
680.00	1548.26
680.18	1509.35
680.37	1621.99
680.55	1531.88
680.74	1515.50
680.93	1445.87
681.11	1566.70
681.30	1525.74
681.48	1564.65
681.67	1544.17
681.85	1585.13
682.04	1499.11
682.23	1535.98
682.41	1587.18
682.60	1538.02
682.78	1546.22
682.97	1533.93
683.15	1490.92
683.34	1540.07
683.53	1609.70
683.71	1462.25
683.90	1626.09
684.08	1572.84
684.27	1488.87
684.45	1546.22
684.64	1519.59
684.82	1501.16
685.01	1511.40
685.19	1538.02
685.38	1619.94
685.57	1521.64
685.75	1560.55
685.94	1499.11
686.12	1583.08
686.31	1521.64
686.49	1589.22
686.68	1400.81
686.86	1552.36
687.05	1478.63
687.23	1572.84
687.42	1521.64
687.60	1476.59
687.79	1603.56
687.97	1632.23
688.16	1581.03
688.34	1562.60
688.53	1468.39
688.71	1503.21
688.90	1570.79
689.08	1540.07
689.27	1492.97
689.45	1574.89
689.64	1570.79
689.82	1544.17
690.01	1515.50
690.19	1523.69
690.38	1572.84
690.56	1599.46
690.75	1525.74
690.93	1517.54
691.12	1490.92
691.30	1558.50
691.49	1521.64
691.67	1574.89
691.86	1671.14
692.04	1507.30
692.23	1517.54
692.41	1595.37
692.60	1763.30
692.78	1665.00
692.97	1628.14
693.15	1595.37
693.34	1613.80
693.52	1648.61
693.71	1564.65
693.89	1558.50
694.08	1535.98
694.26	1538.02
694.44	1574.89
694.63	1619.94
694.81	1538.02
695.00	1552.36
695.18	1611.75
695.37	1607.66
695.55	1523.69
695.74	1591.27
695.92	1503.21
696.10	1605.61
696.29	1517.54
696.47	1572.84
696.66	1480.68
696.84	1572.84
697.03	1546.22
697.21	1619.94
697.40	2009.06
697.58	1576.94
697.76	1486.83
697.95	1509.35
698.13	1488.87
698.32	1509.35
698.50	1538.02
698.68	1503.21
698.87	1560.55
699.05	1632.23
699.24	1626.09
699.42	1449.96
699.61	1517.54
699.79	1576.94
699.97	1525.74
700.16	1460.20
700.34	1531.88
700.53	1572.84
700.71	1566.70
700.89	1529.83
701.08	1591.27
701.26	1564.65
701.45	1851.36
701.63	1542.12
701.81	1546.22
702.00	1533.93
702.18	1560.55
702.37	1497.07
702.55	1634.28
702.73	1724.39
702.92	1724.39
703.10	1832.93
703.28	1802.21
703.47	1732.58
703.65	1683.43
703.84	1771.49
704.02	1636.33
704.20	1726.44
704.39	1673.19
704.57	1552.36
704.75	1658.85
704.94	1697.77
705.12	1615.85
705.30	1599.46
705.49	1728.49
705.67	2783.19
705.86	7423.89
706.04	14608.16
706.22	18415.34
706.41	21382.84
706.59	22849.19
706.77	20850.37
706.96	14800.67
707.14	11620.17
707.32	9537.39
707.51	8683.39
707.69	7643.02
707.87	6743.96
708.06	5869.48
708.24	4765.62
708.42	3651.53
708.61	2983.89
708.79	2332.64
708.97	1994.72
709.16	1931.23
709.34	1755.11
709.52	1628.14
709.71	1576.94
709.89	1636.33
710.07	1581.03
710.26	1529.83
710.44	1540.07
710.62	1677.29
710.80	1509.35
710.99	1562.60
711.17	1583.08
711.35	1621.99
711.54	1478.63
711.72	1644.52
711.90	1583.08
712.09	1583.08
712.27	1513.45
712.45	1605.61
712.63	1583.08
712.82	1566.70
713.00	1507.30
713.18	1535.98
713.37	1560.55
713.55	1576.94
713.73	1585.13
713.91	1599.46
714.10	1519.59
714.28	1476.59
714.46	1570.79
714.65	1558.50
714.83	1505.26
715.01	1517.54
715.19	1478.63
715.38	1505.26
715.56	1503.21
715.74	1509.35
715.92	1505.26
716.11	1626.09
716.29	1380.33
716.47	1523.69
716.65	1525.74
716.84	1509.35
717.02	1564.65
717.20	1472.49
717.38	1495.02
717.57	1568.74
717.75	1589.22
717.93	1503.21
718.11	1542.12
718.30	1447.91
718.48	1611.75
718.66	1495.02
718.84	1677.29
719.03	1566.70
719.21	1538.02
719.39	1667.05
719.57	1617.90
719.75	1521.64
719.94	1554.41
720.12	1535.98
720.30	1638.38
720.48	1544.17
720.67	1495.02
720.85	1472.49
721.03	1490.92
721.21	1464.30
721.39	1607.66
721.58	1581.03
721.76	1587.18
721.94	1562.60
722.12	1505.26
722.30	1572.84
722.49	1581.03
722.67	1601.51
722.85	1552.36
723.03	1546.22
723.21	1576.94
723.40	1535.98
723.58	1646.57
723.76	1521.64
723.94	1628.14
724.12	1591.27
724.30	1619.94
724.49	1695.72
724.67	1597.42
724.85	1689.57
725.03	1558.50
725.21	1624.04
725.40	1617.90
725.58	1519.59
725.76	1642.47
725.94	1525.74
726.12	1509.35
726.30	1525.74
726.49	1578.98
726.67	1527.78
726.85	1452.01
727.03	1521.64
727.21	1712.10
727.39	2099.17
727.57	3231.69
727.76	4272.06
727.94	4798.39
728.12	5095.35
728.30	5207.98
728.48	4511.68
728.66	3526.60
728.84	3270.61
729.03	2899.92
729.21	2719.70
729.39	2324.44
729.57	2027.49
729.75	1787.88
729.93	1804.26
730.11	1673.19
730.30	1619.94
730.48	1562.60
730.66	1621.99
730.84	1607.66
731.02	1540.07
731.20	1519.59
731.38	1570.79
731.56	1452.01
731.74	1417.19
731.93	1501.16
732.11	1615.85
732.29	1478.63
732.47	1593.32
732.65	1538.02
732.83	1613.80
733.01	1617.90
733.19	1488.87
733.37	1482.73
733.56	1591.27
733.74	1484.78
733.92	1693.67
734.10	1441.77
734.28	1470.44
734.46	1437.67
734.64	1503.21
734.82	1421.29
735.00	1552.36
735.18	1562.60
735.36	1525.74
735.54	1470.44
735.73	1495.02
735.91	1583.08
736.09	1484.78
736.27	1495.02
736.45	1628.14
736.63	1505.26
736.81	1570.79
736.99	1581.03
737.17	1630.18
737.35	1538.02
737.53	1535.98
737.71	1492.97
737.89	1517.54
738.07	1478.63
738.25	1484.78
738.43	1413.10
738.61	1499.11
738.80	1501.16
738.98	1495.02
739.16	1542.12
739.34	1521.64
739.52	1560.55
739.70	1527.78
739.88	1587.18
740.06	1550.31
740.24	1435.63
740.42	1599.46
740.60	1476.59
740.78	1495.02
740.96	1458.15
741.14	1552.36
741.32	1535.98
741.50	1511.40
741.68	1632.23
741.86	1558.50
742.04	1486.83
742.22	1462.25
742.40	1548.26
742.58	1478.63
742.76	1517.54
742.94	1658.85
743.12	1454.06
743.30	1509.35
743.48	1511.40
743.66	1550.31
743.84	1585.13
744.02	1507.30
744.20	1511.40
744.38	1476.59
744.56	1505.26
744.74	1673.19
744.92	1568.74
745.10	1583.08
745.28	1591.27
745.46	1624.04
745.64	1503.21
745.82	1581.03
746.00	1564.65
746.18	1558.50
746.36	1447.91
746.54	1595.37
746.72	1554.41
746.90	1517.54
747.08	1648.61
747.26	1560.55
747.44	1533.93
747.62	1519.59
747.80	1581.03
747.98	1601.51
748.15	1587.18
748.33	1613.80
748.51	1581.03
748.69	1636.33
748.87	1476.59
749.05	1523.69
749.23	1513.45
749.41	1544.17
749.59	1550.31
749.77	1611.75
749.95	1456.11
750.13	1488.87
750.31	1531.88
750.49	1507.30
750.67	1581.03
750.85	1609.70
751.03	1503.21
751.20	1626.09
751.38	1511.40
751.56	1519.59
751.74	1533.93
751.92	1472.49
752.10	1452.01
752.28	1621.99
752.46	1515.50
752.64	1505.26
752.82	1554.41
753.00	1613.80
753.18	1488.87
753.35	1591.27
753.53	1554.41
753.71	1548.26
753.89	1517.54
754.07	1589.22
754.25	1632.23
754.43	1519.59
754.61	1535.98
754.79	1544.17
754.97	1511.40
755.14	1544.17
755.32	1445.87
755.50	1550.31
755.68	1589.22
755.86	1589.22
756.04	1535.98
756.22	1513.45
756.40	1558.50
756.57	1562.60
756.75	1576.94
756.93	1574.89
757.11	1583.08
757.29	1505.26
757.47	1521.64
757.65	1505.26
757.82	1484.78
758.00	1509.35
758.18	1574.89
758.36	1480.68
758.54	1591.27
758.72	1437.67
758.90	1591.27
759.07	1535.98
759.25	1529.83
759.43	1558.50
759.61	1447.91
759.79	1855.46
759.97	1544.17
760.15	1535.98
760.32	1470.44
760.50	1542.12
760.68	1574.89
760.86	1478.63
761.04	1636.33
761.22	1560.55
761.39	1417.19
761.57	1558.50
761.75	1560.55
761.93	1484.78
762.11	1486.83
762.28	1552.36
762.46	1501.16
762.64	1570.79
762.82	1519.59
763.00	1517.54
763.18	1574.89
763.35	1456.11
763.53	1554.41
763.71	1482.73
763.89	1499.11
764.07	1576.94
764.24	1572.84
764.42	1521.64
764.60	1556.46
764.78	1570.79
764.96	1517.54
765.13	1550.31
765.31	1574.89
765.49	1570.79
765.67	1478.63
765.84	1470.44
766.02	1503.21
766.20	1492.97
766.38	1556.46
766.56	1540.07
766.73	1572.84
766.91	1544.17
767.09	1423.34
767.27	1603.56
767.44	1488.87
767.62	1603.56
767.80	1505.26
767.98	1501.16
768.15	1560.55
768.33	1648.61
768.51	1570.79
768.69	1554.41
768.87	1484.78
769.04	1499.11
769.22	1671.14
769.40	1619.94
769.58	1630.18
769.75	1570.79
769.93	1574.89
770.11	1564.65
770.28	1544.17
770.46	1564.65
770.64	1621.99
770.82	1597.42
770.99	1544.17
771.17	1507.30
771.35	1568.74
771.53	1558.50
771.70	1533.93
771.88	1509.35
772.06	1503.21
772.23	1548.26
772.41	1558.50
772.59	1533.93
772.77	1431.53
772.94	1488.87
773.12	1519.59
773.30	1517.54
773.47	1593.32
773.65	1466.35
773.83	1560.55
774.01	1476.59
774.18	1492.97
774.36	1570.79
774.54	1460.20
774.71	1593.32
774.89	1427.43
775.07	1443.82
775.24	1486.83
775.42	1476.59
775.60	1593.32
775.78	1505.26
775.95	1454.06
776.13	1427.43
776.31	1454.06
776.48	1511.40
776.66	1535.98
776.84	1439.72
777.01	1431.53
777.19	1523.69
777.37	1415.15
777.54	1578.98
777.72	1656.81
777.90	1615.85
778.07	1517.54
778.25	1751.01
778.43	1587.18
778.60	1499.11
778.78	1499.11
778.96	1652.71
779.13	1419.24
779.31	1548.26
779.49	1511.40
779.66	1556.46
779.84	1533.93
780.01	1505.26
780.19	1507.30
780.37	1570.79
780.54	1556.46
780.72	1507.30
780.90	1544.17
781.07	1554.41
781.25	1484.78
781.43	1595.37
781.60	1523.69
781.78	1570.79
781.95	1492.97
782.13	1419.24
782.31	1533.93
782.48	1507.30
782.66	1517.54
782.83	1630.18
783.01	1550.31
783.19	1513.45
783.36	1443.82
783.54	1464.30
783.72	1538.02
783.89	1566.70
784.07	1585.13
784.24	1542.12
784.42	1568.74
784.60	1564.65
784.77	1554.41
784.95	1390.57
785.12	1497.07
785.30	1542.12
785.47	1495.02
785.65	1454.06
785.83	1462.25
786.00	1458.15
786.18	1548.26
786.35	1517.54
786.53	1452.01
786.71	1574.89
786.88	1548.26
787.06	1566.70
787.23	1519.59
787.41	1472.49
787.58	1535.98
787.76	1578.98
787.94	1564.65
788.11	1531.88
788.29	1517.54
788.46	1521.64
788.64	1478.63
788.81	1492.97
788.99	1533.93
789.16	1562.60
789.34	1480.68
789.52	1519.59
789.69	1421.29
789.87	1437.67
790.04	1470.44
790.22	1529.83
790.39	1574.89
790.57	1454.06
790.74	1517.54
790.92	1568.74
791.09	1433.58
791.27	1570.79
791.44	1585.13
791.62	1521.64
791.79	1538.02
791.97	1513.45
792.15	1609.70
792.32	1581.03
792.50	1558.50
792.67	1560.55
792.85	1609.70
793.02	1589.22
793.20	1538.02
793.37	1482.73
793.55	1552.36
793.72	1456.11
793.90	1587.18
794.07	1495.02
794.25	1495.02
794.42	1480.68
794.60	1503.21
794.77	1558.50
794.95	1570.79
795.12	1615.85
795.30	1601.51
795.47	1572.84
795.65	1699.81
795.82	1578.98
796.00	1558.50
796.17	1499.11
796.34	1533.93
796.52	1521.64
796.69	1517.54
796.87	1552.36
797.04	1562.60
797.22	1574.89
797.39	1470.44
797.57	1585.13
797.74	1558.50
797.92	1525.74
798.09	1570.79
798.27	1546.22
798.44	1542.12
798.62	1540.07
798.79	1540.07
798.96	1441.77
799.14	1497.07
799.31	1634.28
799.49	1507.30
799.66	1495.02
799.84	1499.11
800.01	1421.29
800.19	1576.94
800.36	1484.78
800.53	1558.50
800.71	1576.94
800.88	1566.70
801.06	1470.44
801.23	1519.59
801.41	1544.17
801.58	1443.82
801.75	1578.98
801.93	1509.35
802.10	1550.31
802.28	1560.55
802.45	1552.36
802.63	1632.23
802.80	1638.38
802.97	1533.93
803.15	1503.21
803.32	1564.65
803.50	1486.83
803.67	1462.25
803.84	1535.98
804.02	1488.87
804.19	1527.78
804.37	1374.19
804.54	1538.02
804.71	1484.78
804.89	1544.17
805.06	1501.16
805.24	1464.30
805.41	1560.55
805.58	1503.21
805.76	1671.14
805.93	1486.83
806.10	1550.31
806.28	1480.68
806.45	1552.36
806.63	1593.32
806.80	1542.12
806.97	1519.59
807.15	1560.55
807.32	1566.70
807.49	1484.78
807.67	1464.30
807.84	1492.97
808.01	1574.89
808.19	1640.42
808.36	1619.94
808.54	1576.94
808.71	1480.68
808.88	1544.17
809.06	1662.95
809.23	1595.37
809.40	1458.15
809.58	1572.84
809.75	1513.45
809.92	1558.50
810.10	1683.43
810.27	1499.11
810.44	1560.55
810.62	1560.55
810.79	1581.03
810.96	1509.35
811.14	1492.97
811.31	1550.31
811.48	1583.08
811.66	1548.26
811.83	1611.75
812.00	1540.07
812.18	1525.74
812.35	1621.99
812.52	1468.39
812.69	1492.97
812.87	1546.22
813.04	1542.12
813.21	1626.09
813.39	1474.54
813.56	1476.59
813.73	1570.79
813.91	1548.26
814.08	1546.22
814.25	1517.54
814.42	1505.26
814.60	1492.97
814.77	1576.94
814.94	1542.12
815.12	1456.11
815.29	1576.94
815.46	1488.87
815.63	1562.60
815.81	1488.87
815.98	1523.69
816.15	1601.51
816.33	1548.26
816.50	1591.27
816.67	1425.39
816.84	1642.47
817.02	1497.07
817.19	1574.89
817.36	1519.59
817.53	1540.07
817.71	1490.92
817.88	1605.61
818.05	1501.16
818.22	1449.96
818.40	1581.03
818.57	1443.82
818.74	1521.64
818.91	1484.78
819.09	1597.42
819.26	1523.69
819.43	1507.30
819.60	1431.53
819.78	1525.74
819.95	1640.42
820.12	1480.68
820.29	1617.90
820.47	1595.37
820.64	1513.45
820.81	1468.39
820.98	1538.02
821.15	1433.58
821.33	1583.08
821.50	1449.96
821.67	1574.89
821.84	1613.80
822.02	1546.22
822.19	1636.33
822.36	1533.93
822.53	1535.98
822.70	1445.87
822.88	1486.83
823.05	1638.38
823.22	1550.31
823.39	1554.41
823.56	1546.22
823.74	1499.11
823.91	1445.87
824.08	1576.94
824.25	1431.53
824.42	1609.70
824.60	1525.74
824.77	1533.93
824.94	1466.35
825.11	1519.59
825.28	1406.95
825.45	1562.60
825.63	1624.04
825.80	1417.19
825.97	1533.93
826.14	1538.02
826.31	1452.01
826.48	1576.94
826.66	1558.50
826.83	1484.78
827.00	1566.70
827.17	1490.92
827.34	1501.16
827.51	1386.47
827.69	1503.21
827.86	1462.25
828.03	1595.37
828.20	1572.84
828.37	1470.44
828.54	1609.70
828.71	1511.40
828.89	1570.79
829.06	1558.50
829.23	1617.90
829.40	1556.46
829.57	1468.39
829.74	1525.74
829.91	1478.63
830.09	1511.40
830.26	1597.42
830.43	1587.18
830.60	1554.41
830.77	1513.45
830.94	1632.23
831.11	1507.30
831.28	1503.21
831.46	1550.31
831.63	1488.87
831.80	1501.16
831.97	1538.02
832.14	1535.98
832.31	1583.08
832.48	1568.74
832.65	1617.90
832.82	1566.70
832.99	1525.74
833.17	1509.35
833.34	1689.57
833.51	1492.97
833.68	1482.73
833.85	1572.84
834.02	1503.21
834.19	1458.15
834.36	1400.81
834.53	1548.26
834.70	1527.78
834.87	1529.83
835.04	1476.59
835.22	1527.78
835.39	1497.07
835.56	1476.59
835.73	1556.46
835.90	1546.22
836.07	1525.74
836.24	1599.46
836.41	1445.87
836.58	1447.91
836.75	1566.70
836.92	1617.90
837.09	1585.13
837.26	1624.04
837.43	1601.51
837.60	1505.26
837.77	1517.54
837.94	1626.09
838.12	1609.70
838.29	1560.55
838.46	1480.68
838.63	1478.63
838.80	1652.71
838.97	1560.55
839.14	1552.36
839.31	1546.22
839.48	1589.22
839.65	1558.50
839.82	1550.31
839.99	1490.92
840.16	1552.36
840.33	1492.97
840.50	1576.94
840.67	1472.49
840.84	1468.39
841.01	1499.11
841.18	1566.70
841.35	1525.74
841.52	1599.46
841.69	1576.94
841.86	1535.98
842.03	1535.98
842.20	1552.36
842.37	1529.83
842.54	1548.26
842.71	1507.30
842.88	1511.40
843.05	1523.69
843.22	1507.30
843.39	1632.23
843.56	1497.07
843.73	1507.30
843.90	1615.85
844.07	1533.93
844.24	1570.79
844.41	1556.46
844.58	1488.87
844.75	1572.84
844.92	1599.46
845.09	1509.35
845.26	1529.83
845.43	1517.54
845.60	1458.15
845.77	1556.46
845.94	1517.54
846.10	1521.64
846.27	1490.92
846.44	1449.96
846.61	1476.59
846.78	1538.02
846.95	1572.84
847.12	1490.92
847.29	1599.46
847.46	1468.39
847.63	1556.46
847.80	1523.69
847.97	1484.78
848.14	1550.31
848.31	1476.59
848.48	1511.40
848.65	1591.27
848.82	1576.94
848.98	1679.33
849.15	1591.27
849.32	1560.55
849.49	1570.79
849.66	1488.87
849.83	1517.54
850.00	1501.16
850.17	1562.60
850.34	1548.26
850.51	1492.97
850.68	1503.21
850.85	1654.76
851.01	1550.31
851.18	1529.83
851.35	1462.25
851.52	1574.89
851.69	1611.75
851.86	1505.26
852.03	1482.73
852.20	1628.14
852.37	1560.55
852.53	1413.10
852.70	1554.41
852.87	1589.22
853.04	1626.09
853.21	1509.35
853.38	1564.65
853.55	1554.41
853.72	1640.42
853.89	1558.50
854.05	1468.39
854.22	1511.40
854.39	1431.53
854.56	1568.74
854.73	1611.75
854.90	1511.40
855.07	1550.31
855.23	1525.74
855.40	1519.59
855.57	1552.36
855.74	1429.48
855.91	1718.25
856.08	1486.83
856.25	1466.35
856.41	1488.87
856.58	1517.54
856.75	1529.83
856.92	1497.07
857.09	1583.08
857.26	1454.06
857.42	1550.31
857.59	1599.46
857.76	1572.84
857.93	1574.89
858.10	1538.02
858.27	1544.17
858.43	1542.12
858.60	1538.02
858.77	1480.68
858.94	1564.65
859.11	1587.18
859.27	1587.18
859.44	1527.78
859.61	1581.03
859.78	1566.70
859.95	1558.50
860.12	1503.21
860.28	1646.57
860.45	1558.50
860.62	1445.87
860.79	1499.11
860.95	1540.07
861.12	1484.78
861.29	1521.64
861.46	1505.26
861.63	1591.27
861.79	1488.87
861.96	1478.63
862.13	1402.86
862.30	1542.12
862.47	1480.68
862.63	1492.97
862.80	1576.94
862.97	1591.27
863.14	1533.93
863.30	1542.12
863.47	1458.15
863.64	1556.46
863.81	1531.88
863.97	1492.97
864.14	1583.08
864.31	1521.64
864.48	1495.02
864.65	1495.02
864.81	1542.12
864.98	1495.02
865.15	1540.07
865.32	1581.03
865.48	1634.28
865.65	1484.78
865.82	1490.92
865.98	1533.93
866.15	1556.46
866.32	1523.69
866.49	1492.97
866.65	1587.18
866.82	1478.63
866.99	1484.78
867.16	1550.31
867.32	1460.20
867.49	1499.11
867.66	1478.63
867.83	1542.12
867.99	1443.82
868.16	1452.01
868.33	1509.35
868.49	1560.55
868.66	1507.30
868.83	1560.55
868.99	1533.93
869.16	1499.11
869.33	1609.70
869.50	1636.33
869.66	1527.78
869.83	1540.07
870.00	1437.67
870.16	1556.46
870.33	1507.30
870.50	1566.70
870.66	1546.22
870.83	1605.61
871.00	1538.02
871.17	1513.45
871.33	1480.68
871.50	1503.21
871.67	1560.55
871.83	1495.02
872.00	1634.28
872.17	1535.98
872.33	1525.74
872.50	1642.47
872.67	1540.07
872.83	1517.54
873.00	1570.79
873.17	1542.12
873.33	1589.22
873.50	1482.73
873.67	1507.30
873.83	1452.01
874.00	1527.78
874.16	1619.94
874.33	1538.02
874.50	1564.65
874.66	1574.89
874.83	1578.98
875.00	1546.22
875.16	1601.51
875.33	1554.41
875.50	1437.67
875.66	1521.64
875.83	1509.35
875.99	1587.18
876.16	1574.89
876.33	1460.20
876.49	1470.44
876.66	1562.60
876.83	1470.44
876.99	1404.91
877.16	1484.78
877.32	1617.90
877.49	1527.78
877.66	1540.07
877.82	1560.55
877.99	1552.36
878.15	1581.03
878.32	1564.65
878.49	1609.70
878.65	1507.30
878.82	1544.17
878.98	1449.96
879.15	1546.22
879.32	1523.69
879.48	1562.60
879.65	1533.93
879.81	1519.59
879.98	1556.46
880.15	1521.64
880.31	1595.37
880.48	1454.06
880.64	1533.93
880.81	1593.32
880.97	1638.38
881.14	1562.60
881.31	1484.78
881.47	1632.23
881.64	1517.54
881.80	1525.74
881.97	1525.74
882.13	1581.03
882.30	1490.92
882.47	1511.40
882.63	1527.78
882.80	1476.59
882.96	1462.25
883.13	1521.64
883.29	1540.07
883.46	1531.88
883.62	1607.66
883.79	1492.97
883.95	1566.70
884.12	1466.35
884.29	1589.22
884.45	1540.07
884.62	1619.94
884.78	1411.05
884.95	1560.55
885.11	1535.98
885.28	1611.75
885.44	1521.64
885.61	1576.94
885.77	1617.90
885.94	1597.42
886.10	1531.88
886.27	1560.55
886.43	1654.76
886.60	1624.04
886.76	1462.25
886.93	1501.16
887.09	1550.31
887.26	1513.45
887.42	1531.88
887.59	1566.70
887.75	1685.48
887.92	1566.70
888.08	1636.33
888.25	1648.61
888.41	1572.84
888.58	1574.89
888.74	1560.55
888.91	1574.89
>>>>>End Processed Spectral Data<<<<<
