SpectraSuite Data File
++++++++++++++++++++++++++++++++++++
Date: Tue May 03 12:55:05 CEST 2016
User: root
Dark Spectrum Present: No
Reference Spectrum Present: No
Number of Sampled Component Spectra: 1
Spectrometers: USB4C02835
Integration Time (usec): 100000 (USB4C02835)
Spectra Averaged: 1 (USB4C02835)
Boxcar Smoothing: 0 (USB4C02835)
Correct for Electrical Dark: No (USB4C02835)
Strobe/Lamp Enabled: No (USB4C02835)
Correct for Detector Non-linearity: No (USB4C02835)
Correct for Stray Light: No (USB4C02835)
Number of Pixels in Processed Spectrum: 3648
>>>>>Begin Processed Spectral Data<<<<<
177.47	1329.13
177.69	1329.13
177.91	1329.13
178.13	1376.24
178.36	1380.33
178.58	1503.21
178.80	1593.32
179.02	1429.48
179.24	1535.98
179.46	1613.80
179.68	1564.65
179.90	1484.78
180.13	1517.54
180.35	1552.36
180.57	1552.36
180.79	1531.88
181.01	1538.02
181.23	1667.05
181.45	1671.14
181.67	1538.02
181.90	1564.65
182.12	1538.02
182.34	1517.54
182.56	1593.32
182.78	1574.89
183.00	1495.02
183.22	1544.17
183.44	1538.02
183.66	1642.47
183.89	1599.46
184.11	1556.46
184.33	1525.74
184.55	1599.46
184.77	1521.64
184.99	1527.78
185.21	1468.39
185.43	1716.20
185.65	1476.59
185.87	1525.74
186.10	1583.08
186.32	1648.61
186.54	1593.32
186.76	1535.98
186.98	1525.74
187.20	1495.02
187.42	1454.06
187.64	1548.26
187.86	1550.31
188.08	1492.97
188.30	1589.22
188.52	1564.65
188.75	1591.27
188.97	1509.35
189.19	1464.30
189.41	1578.98
189.63	1484.78
189.85	1509.35
190.07	1492.97
190.29	1423.34
190.51	1576.94
190.73	1492.97
190.95	1581.03
191.17	1591.27
191.39	1519.59
191.61	1533.93
191.84	1482.73
192.06	1519.59
192.28	1468.39
192.50	1673.19
192.72	1542.12
192.94	1535.98
193.16	1583.08
193.38	1533.93
193.60	1501.16
193.82	1558.50
194.04	1609.70
194.26	1546.22
194.48	1509.35
194.70	1460.20
194.92	1519.59
195.14	1656.81
195.36	1513.45
195.58	1576.94
195.80	1484.78
196.02	1454.06
196.24	1589.22
196.46	1542.12
196.69	1492.97
196.91	1583.08
197.13	1515.50
197.35	1521.64
197.57	1640.42
197.79	1523.69
198.01	1558.50
198.23	1607.66
198.45	1576.94
198.67	1507.30
198.89	1511.40
199.11	1535.98
199.33	1521.64
199.55	1427.43
199.77	1531.88
199.99	1535.98
200.21	1466.35
200.43	1558.50
200.65	1525.74
200.87	1501.16
201.09	1540.07
201.31	1490.92
201.53	1619.94
201.75	1542.12
201.97	1581.03
202.19	1523.69
202.41	1542.12
202.63	1609.70
202.85	1517.54
203.07	1519.59
203.29	1519.59
203.51	1515.50
203.73	1476.59
203.95	1697.77
204.17	1501.16
204.39	1593.32
204.61	1533.93
204.83	1566.70
205.05	1626.09
205.27	1611.75
205.49	1558.50
205.71	1454.06
205.93	1456.11
206.15	1501.16
206.37	1544.17
206.59	1470.44
206.81	1456.11
207.03	1507.30
207.25	1394.67
207.47	1599.46
207.69	1507.30
207.91	1540.07
208.13	1564.65
208.34	1443.82
208.56	1452.01
208.78	1505.26
209.00	1521.64
209.22	1419.24
209.44	1509.35
209.66	1509.35
209.88	1521.64
210.10	1472.49
210.32	1472.49
210.54	1654.76
210.76	1490.92
210.98	1558.50
211.20	1482.73
211.42	1525.74
211.64	1546.22
211.86	1503.21
212.08	1517.54
212.30	1581.03
212.52	1499.11
212.74	1492.97
212.96	1587.18
213.17	1546.22
213.39	1464.30
213.61	1581.03
213.83	1599.46
214.05	1517.54
214.27	1511.40
214.49	1456.11
214.71	1486.83
214.93	1540.07
215.15	1495.02
215.37	1568.74
215.59	1495.02
215.81	1556.46
216.03	1564.65
216.24	1521.64
216.46	1574.89
216.68	1591.27
216.90	1570.79
217.12	1599.46
217.34	1597.42
217.56	1445.87
217.78	1591.27
218.00	1554.41
218.22	1462.25
218.44	1527.78
218.66	1533.93
218.87	1566.70
219.09	1519.59
219.31	1529.83
219.53	1501.16
219.75	1525.74
219.97	1570.79
220.19	1513.45
220.41	1521.64
220.63	1650.66
220.85	1527.78
221.06	1478.63
221.28	1570.79
221.50	1550.31
221.72	1454.06
221.94	1535.98
222.16	1497.07
222.38	1599.46
222.60	1591.27
222.82	1531.88
223.03	1529.83
223.25	1490.92
223.47	1574.89
223.69	1677.29
223.91	1548.26
224.13	1558.50
224.35	1630.18
224.57	1605.61
224.78	1445.87
225.00	1501.16
225.22	1538.02
225.44	1533.93
225.66	1554.41
225.88	1521.64
226.10	1583.08
226.32	1535.98
226.53	1529.83
226.75	1507.30
226.97	1566.70
227.19	1509.35
227.41	1468.39
227.63	1523.69
227.85	1523.69
228.06	1525.74
228.28	1521.64
228.50	1550.31
228.72	1429.48
228.94	1546.22
229.16	1495.02
229.37	1484.78
229.59	1503.21
229.81	1568.74
230.03	1521.64
230.25	1497.07
230.47	1548.26
230.69	1484.78
230.90	1585.13
231.12	1423.34
231.34	1507.30
231.56	1607.66
231.78	1554.41
232.00	1570.79
232.21	1564.65
232.43	1482.73
232.65	1449.96
232.87	1554.41
233.09	1515.50
233.30	1535.98
233.52	1527.78
233.74	1527.78
233.96	1538.02
234.18	1499.11
234.40	1564.65
234.61	1619.94
234.83	1499.11
235.05	1470.44
235.27	1669.09
235.49	1585.13
235.70	1621.99
235.92	1576.94
236.14	1523.69
236.36	1609.70
236.58	1435.63
236.79	1628.14
237.01	1523.69
237.23	1505.26
237.45	1640.42
237.67	1544.17
237.88	1507.30
238.10	1589.22
238.32	1515.50
238.54	1492.97
238.76	1497.07
238.97	1517.54
239.19	1505.26
239.41	1648.61
239.63	1544.17
239.85	1540.07
240.06	1505.26
240.28	1566.70
240.50	1593.32
240.72	1605.61
240.93	1495.02
241.15	1603.56
241.37	1613.80
241.59	1550.31
241.81	1630.18
242.02	1531.88
242.24	1535.98
242.46	1607.66
242.68	1533.93
242.89	1605.61
243.11	1509.35
243.33	1509.35
243.55	1470.44
243.76	1531.88
243.98	1476.59
244.20	1501.16
244.42	1488.87
244.64	1560.55
244.85	1474.54
245.07	1515.50
245.29	1603.56
245.51	1540.07
245.72	1589.22
245.94	1572.84
246.16	1578.98
246.38	1570.79
246.59	1480.68
246.81	1466.35
247.03	1599.46
247.24	1535.98
247.46	1478.63
247.68	1554.41
247.90	1460.20
248.11	1486.83
248.33	1605.61
248.55	1505.26
248.77	1515.50
248.98	1613.80
249.20	1544.17
249.42	1513.45
249.64	1552.36
249.85	1560.55
250.07	1535.98
250.29	1578.98
250.50	1576.94
250.72	1441.77
250.94	1517.54
251.16	1603.56
251.37	1638.38
251.59	1501.16
251.81	1531.88
252.02	1607.66
252.24	1492.97
252.46	1527.78
252.68	1478.63
252.89	1535.98
253.11	1476.59
253.33	1542.12
253.54	1521.64
253.76	1480.68
253.98	1523.69
254.20	1554.41
254.41	1447.91
254.63	1591.27
254.85	1499.11
255.06	1554.41
255.28	1564.65
255.50	1519.59
255.71	1527.78
255.93	1497.07
256.15	1554.41
256.36	1533.93
256.58	1523.69
256.80	1634.28
257.02	1486.83
257.23	1484.78
257.45	1589.22
257.67	1589.22
257.88	1486.83
258.10	1558.50
258.32	1497.07
258.53	1558.50
258.75	1705.96
258.97	1480.68
259.18	1542.12
259.40	1538.02
259.62	1578.98
259.83	1574.89
260.05	1533.93
260.27	1701.86
260.48	1542.12
260.70	1484.78
260.92	1535.98
261.13	1519.59
261.35	1562.60
261.57	1570.79
261.78	1456.11
262.00	1509.35
262.22	1529.83
262.43	1478.63
262.65	1574.89
262.86	1535.98
263.08	1732.58
263.30	1544.17
263.51	1466.35
263.73	1443.82
263.95	1638.38
264.16	1507.30
264.38	1576.94
264.60	1513.45
264.81	1560.55
265.03	1538.02
265.25	1621.99
265.46	1572.84
265.68	1533.93
265.89	1558.50
266.11	1478.63
266.33	1564.65
266.54	1535.98
266.76	1505.26
266.98	1488.87
267.19	1488.87
267.41	1605.61
267.62	1531.88
267.84	1472.49
268.06	1550.31
268.27	1578.98
268.49	1628.14
268.70	1570.79
268.92	1568.74
269.14	1486.83
269.35	1439.72
269.57	1486.83
269.79	1599.46
270.00	1441.77
270.22	1681.38
270.43	1513.45
270.65	1417.19
270.87	1529.83
271.08	1529.83
271.30	1562.60
271.51	1595.37
271.73	1572.84
271.95	1619.94
272.16	1531.88
272.38	1542.12
272.59	1495.02
272.81	1550.31
273.02	1499.11
273.24	1550.31
273.46	1648.61
273.67	1509.35
273.89	1574.89
274.10	1509.35
274.32	1570.79
274.54	1517.54
274.75	1570.79
274.97	1505.26
275.18	1548.26
275.40	1521.64
275.61	1484.78
275.83	1544.17
276.05	1470.44
276.26	1492.97
276.48	1568.74
276.69	1517.54
276.91	1591.27
277.12	1650.66
277.34	1499.11
277.55	1576.94
277.77	1538.02
277.99	1484.78
278.20	1433.58
278.42	1558.50
278.63	1548.26
278.85	1509.35
279.06	1409.00
279.28	1538.02
279.49	1542.12
279.71	1587.18
279.93	1478.63
280.14	1523.69
280.36	1421.29
280.57	1636.33
280.79	1595.37
281.00	1513.45
281.22	1566.70
281.43	1648.61
281.65	1396.71
281.86	1470.44
282.08	1566.70
282.29	1585.13
282.51	1501.16
282.73	1529.83
282.94	1482.73
283.16	1671.14
283.37	1644.52
283.59	1525.74
283.80	1570.79
284.02	1617.90
284.23	1505.26
284.45	1462.25
284.66	1462.25
284.88	1478.63
285.09	1529.83
285.31	1554.41
285.52	1540.07
285.74	1482.73
285.95	1583.08
286.17	1558.50
286.38	1529.83
286.60	1460.20
286.81	1548.26
287.03	1540.07
287.24	1495.02
287.46	1667.05
287.67	1556.46
287.89	1599.46
288.10	1540.07
288.32	1568.74
288.53	1617.90
288.75	1517.54
288.96	1568.74
289.18	1447.91
289.39	1513.45
289.61	1570.79
289.82	1595.37
290.04	1497.07
290.25	1429.48
290.47	1509.35
290.68	1529.83
290.90	1511.40
291.11	1495.02
291.33	1624.04
291.54	1583.08
291.76	1501.16
291.97	1572.84
292.18	1556.46
292.40	1542.12
292.61	1513.45
292.83	1640.42
293.04	1570.79
293.26	1538.02
293.47	1566.70
293.69	1490.92
293.90	1566.70
294.12	1652.71
294.33	1599.46
294.55	1509.35
294.76	1599.46
294.97	1636.33
295.19	1644.52
295.40	1482.73
295.62	1576.94
295.83	1587.18
296.05	1458.15
296.26	1613.80
296.48	1533.93
296.69	1527.78
296.90	1568.74
297.12	1603.56
297.33	1673.19
297.55	1529.83
297.76	1591.27
297.98	1558.50
298.19	1501.16
298.41	1458.15
298.62	1529.83
298.83	1656.81
299.05	1558.50
299.26	1529.83
299.48	1488.87
299.69	1576.94
299.90	1484.78
300.12	1458.15
300.33	1593.32
300.55	1517.54
300.76	1617.90
300.98	1482.73
301.19	1642.47
301.40	1570.79
301.62	1517.54
301.83	1570.79
302.05	1517.54
302.26	1515.50
302.47	1505.26
302.69	1550.31
302.90	1474.54
303.12	1474.54
303.33	1558.50
303.54	1638.38
303.76	1470.44
303.97	1599.46
304.19	1656.81
304.40	1486.83
304.61	1591.27
304.83	1628.14
305.04	1531.88
305.26	1591.27
305.47	1523.69
305.68	1511.40
305.90	1507.30
306.11	1556.46
306.33	1492.97
306.54	1515.50
306.75	1427.43
306.97	1490.92
307.18	1484.78
307.39	1421.29
307.61	1581.03
307.82	1525.74
308.04	1566.70
308.25	1488.87
308.46	1566.70
308.68	1527.78
308.89	1501.16
309.10	1626.09
309.32	1511.40
309.53	1521.64
309.74	1540.07
309.96	1570.79
310.17	1632.23
310.39	1581.03
310.60	1595.37
310.81	1609.70
311.03	1505.26
311.24	1454.06
311.45	1558.50
311.67	1583.08
311.88	1562.60
312.09	1533.93
312.31	1501.16
312.52	1511.40
312.73	1574.89
312.95	1497.07
313.16	1499.11
313.37	1560.55
313.59	1572.84
313.80	1552.36
314.01	1599.46
314.23	1558.50
314.44	1480.68
314.65	1470.44
314.87	1456.11
315.08	1527.78
315.29	1497.07
315.51	1464.30
315.72	1419.24
315.93	1640.42
316.15	1665.00
316.36	1492.97
316.57	1519.59
316.79	1495.02
317.00	1492.97
317.21	1617.90
317.43	1486.83
317.64	1511.40
317.85	1478.63
318.07	1511.40
318.28	1650.66
318.49	1710.05
318.70	1763.30
318.92	1732.58
319.13	1656.81
319.34	1624.04
319.56	1675.24
319.77	1644.52
319.98	1656.81
320.20	1636.33
320.41	1628.14
320.62	1495.02
320.83	1472.49
321.05	1632.23
321.26	1640.42
321.47	1519.59
321.69	1583.08
321.90	1456.11
322.11	1501.16
322.32	1576.94
322.54	1576.94
322.75	1509.35
322.96	1589.22
323.18	1513.45
323.39	1509.35
323.60	1572.84
323.81	1568.74
324.03	1566.70
324.24	1593.32
324.45	1574.89
324.66	1484.78
324.88	1658.85
325.09	1540.07
325.30	1581.03
325.52	1554.41
325.73	1486.83
325.94	1476.59
326.15	1513.45
326.37	1503.21
326.58	1570.79
326.79	1566.70
327.00	1542.12
327.22	1566.70
327.43	1525.74
327.64	1527.78
327.85	1544.17
328.07	1468.39
328.28	1621.99
328.49	1503.21
328.70	1560.55
328.92	1521.64
329.13	1468.39
329.34	1574.89
329.55	1587.18
329.76	1572.84
329.98	1492.97
330.19	1574.89
330.40	1673.19
330.61	1447.91
330.83	1601.51
331.04	1587.18
331.25	1511.40
331.46	1560.55
331.68	1480.68
331.89	1566.70
332.10	1509.35
332.31	1456.11
332.52	1564.65
332.74	1578.98
332.95	1456.11
333.16	1581.03
333.37	1581.03
333.58	1486.83
333.80	1566.70
334.01	1484.78
334.22	1529.83
334.43	1488.87
334.64	1505.26
334.86	1492.97
335.07	1501.16
335.28	1611.75
335.49	1472.49
335.70	1517.54
335.92	1445.87
336.13	1603.56
336.34	1642.47
336.55	1605.61
336.76	1523.69
336.98	1454.06
337.19	1546.22
337.40	1566.70
337.61	1675.24
337.82	1505.26
338.04	1601.51
338.25	1378.28
338.46	1517.54
338.67	1509.35
338.88	1515.50
339.09	1535.98
339.31	1443.82
339.52	1492.97
339.73	1501.16
339.94	1476.59
340.15	1560.55
340.36	1497.07
340.58	1607.66
340.79	1503.21
341.00	1560.55
341.21	1488.87
341.42	1617.90
341.63	1538.02
341.85	1540.07
342.06	1546.22
342.27	1480.68
342.48	1591.27
342.69	1449.96
342.90	1556.46
343.12	1595.37
343.33	1452.01
343.54	1513.45
343.75	1615.85
343.96	1484.78
344.17	1476.59
344.38	1615.85
344.60	1462.25
344.81	1462.25
345.02	1548.26
345.23	1624.04
345.44	1611.75
345.65	1603.56
345.86	1564.65
346.07	1443.82
346.29	1499.11
346.50	1538.02
346.71	1583.08
346.92	1591.27
347.13	1619.94
347.34	1521.64
347.55	1587.18
347.76	1554.41
347.98	1421.29
348.19	1507.30
348.40	1558.50
348.61	1462.25
348.82	1593.32
349.03	1578.98
349.24	1554.41
349.45	1570.79
349.66	1542.12
349.88	1501.16
350.09	1482.73
350.30	1621.99
350.51	1538.02
350.72	1452.01
350.93	1542.12
351.14	1468.39
351.35	1544.17
351.56	1492.97
351.77	1550.31
351.99	1626.09
352.20	1640.42
352.41	1609.70
352.62	1372.14
352.83	1507.30
353.04	1544.17
353.25	1521.64
353.46	1533.93
353.67	1581.03
353.88	1462.25
354.09	1521.64
354.30	1470.44
354.52	1533.93
354.73	1521.64
354.94	1568.74
355.15	1478.63
355.36	1562.60
355.57	1437.67
355.78	1562.60
355.99	1531.88
356.20	1523.69
356.41	1632.23
356.62	1527.78
356.83	1533.93
357.04	1583.08
357.25	1495.02
357.46	1497.07
357.68	1482.73
357.89	1519.59
358.10	1480.68
358.31	1509.35
358.52	1515.50
358.73	1482.73
358.94	1476.59
359.15	1542.12
359.36	1597.42
359.57	1515.50
359.78	1478.63
359.99	1486.83
360.20	1495.02
360.41	1490.92
360.62	1576.94
360.83	1554.41
361.04	1538.02
361.25	1529.83
361.46	1591.27
361.67	1597.42
361.88	1533.93
362.09	1484.78
362.30	1562.60
362.51	1501.16
362.72	1517.54
362.93	1589.22
363.14	1519.59
363.35	1607.66
363.56	1466.35
363.78	1654.76
363.99	1593.32
364.20	1517.54
364.41	1495.02
364.62	1542.12
364.83	1550.31
365.04	1478.63
365.25	1482.73
365.46	1617.90
365.67	1503.21
365.88	1558.50
366.09	1462.25
366.30	1529.83
366.51	1525.74
366.72	1540.07
366.93	1468.39
367.14	1503.21
367.35	1519.59
367.56	1533.93
367.77	1621.99
367.98	1550.31
368.18	1566.70
368.39	1554.41
368.60	1558.50
368.81	1523.69
369.02	1538.02
369.23	1550.31
369.44	1497.07
369.65	1564.65
369.86	1552.36
370.07	1601.51
370.28	1474.54
370.49	1552.36
370.70	1581.03
370.91	1482.73
371.12	1554.41
371.33	1574.89
371.54	1478.63
371.75	1638.38
371.96	1443.82
372.17	1581.03
372.38	1525.74
372.59	1540.07
372.80	1490.92
373.01	1552.36
373.22	1533.93
373.43	1585.13
373.64	1462.25
373.85	1585.13
374.06	1566.70
374.26	1689.57
374.47	1581.03
374.68	1624.04
374.89	1581.03
375.10	1490.92
375.31	1591.27
375.52	1538.02
375.73	1564.65
375.94	1456.11
376.15	1615.85
376.36	1540.07
376.57	1550.31
376.78	1562.60
376.99	1521.64
377.20	1587.18
377.40	1576.94
377.61	1654.76
377.82	1542.12
378.03	1595.37
378.24	1548.26
378.45	1566.70
378.66	1515.50
378.87	1470.44
379.08	1472.49
379.29	1437.67
379.50	1558.50
379.71	1480.68
379.91	1540.07
380.12	1482.73
380.33	1548.26
380.54	1548.26
380.75	1583.08
380.96	1535.98
381.17	1646.57
381.38	1550.31
381.59	1566.70
381.80	1636.33
382.00	1712.10
382.21	1507.30
382.42	1591.27
382.63	1689.57
382.84	1585.13
383.05	1626.09
383.26	1667.05
383.47	1519.59
383.68	1638.38
383.88	1589.22
384.09	1519.59
384.30	1636.33
384.51	1574.89
384.72	1552.36
384.93	1495.02
385.14	1554.41
385.35	1646.57
385.55	1429.48
385.76	1552.36
385.97	1578.98
386.18	1562.60
386.39	1540.07
386.60	1593.32
386.81	1578.98
387.02	1540.07
387.22	1521.64
387.43	1652.71
387.64	1691.62
387.85	1914.85
388.06	3164.11
388.27	7270.29
388.48	10717.02
388.68	12646.21
388.89	14006.06
389.10	12758.85
389.31	10245.99
389.52	8968.06
389.73	7745.42
389.93	7165.84
390.14	6891.41
390.35	6113.19
390.56	5586.86
390.77	4718.52
390.98	3585.99
391.18	2777.05
391.39	2131.94
391.60	1812.45
391.81	1673.19
392.02	1601.51
392.23	1611.75
392.43	1583.08
392.64	1613.80
392.85	1591.27
393.06	1583.08
393.27	1548.26
393.47	1521.64
393.68	1523.69
393.89	1495.02
394.10	1593.32
394.31	1468.39
394.52	1519.59
394.72	1583.08
394.93	1665.00
395.14	1509.35
395.35	1593.32
395.56	1482.73
395.76	1578.98
395.97	1662.95
396.18	1806.31
396.39	1787.88
396.60	1888.23
396.80	1818.60
397.01	1605.61
397.22	1734.63
397.43	1628.14
397.64	1554.41
397.84	1665.00
398.05	1740.77
398.26	1497.07
398.47	1683.43
398.67	1527.78
398.88	1650.66
399.09	1560.55
399.30	1513.45
399.51	1615.85
399.71	1497.07
399.92	1507.30
400.13	1529.83
400.34	1509.35
400.54	1515.50
400.75	1574.89
400.96	1546.22
401.17	1550.31
401.37	1556.46
401.58	1466.35
401.79	1611.75
402.00	1818.60
402.21	1904.61
402.41	1867.75
402.62	1904.61
402.83	1970.15
403.04	1806.31
403.24	1916.90
403.45	1695.72
403.66	1804.26
403.87	1751.01
404.07	1738.73
404.28	1744.87
404.49	1710.05
404.70	1662.95
404.90	1591.27
405.11	1597.42
405.32	1509.35
405.52	1562.60
405.73	1523.69
405.94	1460.20
406.15	1535.98
406.35	1558.50
406.56	1613.80
406.77	1644.52
406.98	1552.36
407.18	1538.02
407.39	1605.61
407.60	1552.36
407.80	1615.85
408.01	1507.30
408.22	1581.03
408.43	1456.11
408.63	1578.98
408.84	1554.41
409.05	1591.27
409.25	1544.17
409.46	1495.02
409.67	1519.59
409.88	1568.74
410.08	1546.22
410.29	1572.84
410.50	1585.13
410.70	1556.46
410.91	1517.54
411.12	1533.93
411.32	1523.69
411.53	1538.02
411.74	1644.52
411.95	1650.66
412.15	1652.71
412.36	1609.70
412.57	1542.12
412.77	1624.04
412.98	1603.56
413.19	1558.50
413.39	1517.54
413.60	1632.23
413.81	1687.53
414.01	1517.54
414.22	1546.22
414.43	1601.51
414.63	1540.07
414.84	1538.02
415.05	1421.29
415.25	1519.59
415.46	1556.46
415.67	1552.36
415.87	1581.03
416.08	1599.46
416.29	1585.13
416.49	1552.36
416.70	1531.88
416.91	1437.67
417.11	1533.93
417.32	1529.83
417.53	1538.02
417.73	1593.32
417.94	1566.70
418.15	1509.35
418.35	1558.50
418.56	1533.93
418.77	1642.47
418.97	1578.98
419.18	1509.35
419.38	1372.14
419.59	1538.02
419.80	1609.70
420.00	1474.54
420.21	1613.80
420.42	1583.08
420.62	1578.98
420.83	1535.98
421.04	1550.31
421.24	1519.59
421.45	1581.03
421.65	1595.37
421.86	1507.30
422.07	1535.98
422.27	1564.65
422.48	1556.46
422.69	1533.93
422.89	1517.54
423.10	1599.46
423.30	1478.63
423.51	1550.31
423.72	1550.31
423.92	1533.93
424.13	1535.98
424.33	1527.78
424.54	1558.50
424.75	1572.84
424.95	1621.99
425.16	1552.36
425.36	1554.41
425.57	1644.52
425.78	1593.32
425.98	1570.79
426.19	1431.53
426.39	1488.87
426.60	1556.46
426.81	1607.66
427.01	1525.74
427.22	1513.45
427.42	1488.87
427.63	1501.16
427.83	1574.89
428.04	1578.98
428.25	1638.38
428.45	1583.08
428.66	1513.45
428.86	1454.06
429.07	1484.78
429.28	1587.18
429.48	1589.22
429.69	1445.87
429.89	1578.98
430.10	1531.88
430.30	1552.36
430.51	1589.22
430.71	1538.02
430.92	1476.59
431.13	1503.21
431.33	1507.30
431.54	1572.84
431.74	1617.90
431.95	1634.28
432.15	1468.39
432.36	1538.02
432.56	1587.18
432.77	1652.71
432.98	1560.55
433.18	1546.22
433.39	1503.21
433.59	1517.54
433.80	1607.66
434.00	1601.51
434.21	1517.54
434.41	1513.45
434.62	1634.28
434.82	1490.92
435.03	1552.36
435.23	1544.17
435.44	1466.35
435.64	1507.30
435.85	1548.26
436.06	1585.13
436.26	1531.88
436.47	1578.98
436.67	1449.96
436.88	1544.17
437.08	1677.29
437.29	1595.37
437.49	1591.27
437.70	1595.37
437.90	1576.94
438.11	1726.44
438.31	1640.42
438.52	1740.77
438.72	1656.81
438.93	1753.06
439.13	1660.90
439.34	1644.52
439.54	1576.94
439.75	1576.94
439.95	1578.98
440.16	1576.94
440.36	1568.74
440.57	1597.42
440.77	1572.84
440.98	1578.98
441.18	1619.94
441.39	1495.02
441.59	1529.83
441.80	1546.22
442.00	1609.70
442.21	1617.90
442.41	1464.30
442.62	1640.42
442.82	1544.17
443.02	1583.08
443.23	1617.90
443.43	1529.83
443.64	1685.48
443.84	1525.74
444.05	1648.61
444.25	1556.46
444.46	1560.55
444.66	1593.32
444.87	1613.80
445.07	1509.35
445.28	1533.93
445.48	1626.09
445.69	1615.85
445.89	1658.85
446.09	1626.09
446.30	2058.21
446.50	3164.11
446.71	4560.83
446.91	5285.81
447.12	5785.51
447.32	5521.32
447.53	4667.32
447.73	4028.35
447.93	3704.78
448.14	3461.07
448.34	3246.03
448.55	2893.78
448.75	2908.12
448.96	2682.84
449.16	2488.28
449.36	2217.95
449.57	1986.53
449.77	1699.81
449.98	1613.80
450.18	1689.57
450.39	1640.42
450.59	1562.60
450.79	1501.16
451.00	1521.64
451.20	1517.54
451.41	1468.39
451.61	1650.66
451.81	1591.27
452.02	1476.59
452.22	1558.50
452.43	1519.59
452.63	1523.69
452.84	1564.65
453.04	1452.01
453.24	1550.31
453.45	1533.93
453.65	1531.88
453.86	1517.54
454.06	1597.42
454.26	1527.78
454.47	1595.37
454.67	1632.23
454.87	1523.69
455.08	1538.02
455.28	1642.47
455.49	1578.98
455.69	1581.03
455.89	1636.33
456.10	1576.94
456.30	1503.21
456.51	1589.22
456.71	1548.26
456.91	1587.18
457.12	1611.75
457.32	1499.11
457.52	1503.21
457.73	1574.89
457.93	1595.37
458.14	1542.12
458.34	1421.29
458.54	1515.50
458.75	1505.26
458.95	1587.18
459.15	1591.27
459.36	1505.26
459.56	1529.83
459.76	1585.13
459.97	1486.83
460.17	1499.11
460.37	1562.60
460.58	1505.26
460.78	1572.84
460.99	1497.07
461.19	1601.51
461.39	1533.93
461.60	1517.54
461.80	1525.74
462.00	1445.87
462.21	1628.14
462.41	1509.35
462.61	1509.35
462.82	1509.35
463.02	1558.50
463.22	1499.11
463.43	1597.42
463.63	1552.36
463.83	1527.78
464.04	1560.55
464.24	1462.25
464.44	1478.63
464.64	1615.85
464.85	1525.74
465.05	1523.69
465.25	1564.65
465.46	1505.26
465.66	1548.26
465.86	1654.76
466.07	1607.66
466.27	1443.82
466.47	1488.87
466.68	1458.15
466.88	1630.18
467.08	1542.12
467.29	1548.26
467.49	1624.04
467.69	1554.41
467.89	1562.60
468.10	1570.79
468.30	1564.65
468.50	1665.00
468.71	1546.22
468.91	1556.46
469.11	1624.04
469.31	1558.50
469.52	1538.02
469.72	1611.75
469.92	1615.85
470.13	1546.22
470.33	1517.54
470.53	1730.53
470.73	2101.22
470.94	2371.55
471.14	2428.89
471.34	2615.26
471.54	2371.55
471.75	2213.85
471.95	2113.50
472.15	2023.39
472.36	1982.43
472.56	1880.04
472.76	1875.94
472.96	1863.65
473.17	1859.56
473.37	1724.39
473.57	1638.38
473.77	1570.79
473.98	1578.98
474.18	1535.98
474.38	1673.19
474.58	1597.42
474.79	1490.92
474.99	1566.70
475.19	1558.50
475.39	1519.59
475.60	1488.87
475.80	1550.31
476.00	1531.88
476.20	1535.98
476.41	1581.03
476.61	1675.24
476.81	1626.09
477.01	1497.07
477.21	1679.33
477.42	1640.42
477.62	1501.16
477.82	1568.74
478.02	1591.27
478.23	1552.36
478.43	1515.50
478.63	1535.98
478.83	1507.30
479.03	1521.64
479.24	1640.42
479.44	1601.51
479.64	1540.07
479.84	1497.07
480.04	1460.20
480.25	1607.66
480.45	1554.41
480.65	1484.78
480.85	1544.17
481.06	1558.50
481.26	1542.12
481.46	1609.70
481.66	1619.94
481.86	1544.17
482.06	1591.27
482.27	1462.25
482.47	1431.53
482.67	1511.40
482.87	1519.59
483.07	1603.56
483.28	1554.41
483.48	1499.11
483.68	1525.74
483.88	1490.92
484.08	1458.15
484.29	1495.02
484.49	1574.89
484.69	1484.78
484.89	1665.00
485.09	1621.99
485.29	1558.50
485.50	1542.12
485.70	1562.60
485.90	1685.48
486.10	1550.31
486.30	1576.94
486.50	1570.79
486.71	1574.89
486.91	1517.54
487.11	1550.31
487.31	1556.46
487.51	1593.32
487.71	1540.07
487.91	1558.50
488.12	1472.49
488.32	1480.68
488.52	1501.16
488.72	1437.67
488.92	1525.74
489.12	1607.66
489.32	1587.18
489.53	1593.32
489.73	1406.95
489.93	1675.24
490.13	1515.50
490.33	1484.78
490.53	1560.55
490.73	1636.33
490.94	1605.61
491.14	1601.51
491.34	1755.11
491.54	2131.94
491.74	2813.91
491.94	3045.33
492.14	3315.66
492.34	3280.85
492.54	2766.81
492.75	2453.47
492.95	2363.36
493.15	2242.53
493.35	2146.27
493.55	2093.02
493.75	2058.21
493.95	2131.94
494.15	1906.66
494.35	1779.68
494.56	1789.92
494.76	1697.77
494.96	1628.14
495.16	1601.51
495.36	1538.02
495.56	1566.70
495.76	1517.54
495.96	1535.98
496.16	1554.41
496.36	1638.38
496.56	1525.74
496.77	1544.17
496.97	1492.97
497.17	1576.94
497.37	1540.07
497.57	1554.41
497.77	1501.16
497.97	1517.54
498.17	1585.13
498.37	1583.08
498.57	1517.54
498.77	1513.45
498.97	1587.18
499.17	1728.49
499.38	1585.13
499.58	1574.89
499.78	1601.51
499.98	1597.42
500.18	1464.30
500.38	1558.50
500.58	1873.89
500.78	2551.77
500.98	5027.76
501.18	6651.80
501.38	8089.48
501.58	8628.09
501.78	7923.59
501.98	6164.39
502.18	5349.29
502.38	4575.16
502.58	4315.07
502.78	3952.58
502.98	3803.08
503.18	3489.74
503.38	3360.72
503.59	2985.94
503.79	2813.91
503.99	2529.24
504.19	2326.49
504.39	2121.70
504.59	2056.16
504.79	2002.91
504.99	1898.47
505.19	1822.69
505.39	1718.25
505.59	1728.49
505.79	1746.92
505.99	1677.29
506.19	1613.80
506.39	1695.72
506.59	1638.38
506.79	1617.90
506.99	1585.13
507.19	1574.89
507.39	1548.26
507.59	1474.54
507.79	1464.30
507.99	1462.25
508.19	1566.70
508.39	1554.41
508.59	1509.35
508.79	1675.24
508.99	1626.09
509.19	1558.50
509.39	1587.18
509.59	1511.40
509.79	1513.45
509.99	1552.36
510.19	1601.51
510.39	1605.61
510.59	1554.41
510.79	1511.40
510.99	1538.02
511.19	1605.61
511.39	1644.52
511.59	1593.32
511.79	1660.90
511.99	1511.40
512.19	1566.70
512.38	1538.02
512.58	1511.40
512.78	1476.59
512.98	1583.08
513.18	1624.04
513.38	1523.69
513.58	1646.57
513.78	1554.41
513.98	1572.84
514.18	1566.70
514.38	1546.22
514.58	1538.02
514.78	1556.46
514.98	1513.45
515.18	1521.64
515.38	1482.73
515.58	1615.85
515.78	1499.11
515.98	1556.46
516.18	1484.78
516.38	1587.18
516.57	1482.73
516.77	1478.63
516.97	1564.65
517.17	1527.78
517.37	1464.30
517.57	1619.94
517.77	1527.78
517.97	1570.79
518.17	1587.18
518.37	1503.21
518.57	1495.02
518.77	1552.36
518.97	1558.50
519.16	1581.03
519.36	1480.68
519.56	1556.46
519.76	1531.88
519.96	1558.50
520.16	1607.66
520.36	1503.21
520.56	1613.80
520.76	1544.17
520.96	1486.83
521.16	1585.13
521.35	1609.70
521.55	1595.37
521.75	1509.35
521.95	1509.35
522.15	1552.36
522.35	1452.01
522.55	1472.49
522.75	1595.37
522.95	1578.98
523.14	1558.50
523.34	1509.35
523.54	1548.26
523.74	1513.45
523.94	1619.94
524.14	1533.93
524.34	1601.51
524.54	1607.66
524.73	1564.65
524.93	1654.76
525.13	1560.55
525.33	1472.49
525.53	1615.85
525.73	1495.02
525.93	1566.70
526.13	1515.50
526.32	1568.74
526.52	1671.14
526.72	1562.60
526.92	1556.46
527.12	1527.78
527.32	1478.63
527.52	1529.83
527.71	1548.26
527.91	1550.31
528.11	1492.97
528.31	1581.03
528.51	1476.59
528.71	1568.74
528.90	1583.08
529.10	1660.90
529.30	1615.85
529.50	1464.30
529.70	1542.12
529.90	1495.02
530.09	1556.46
530.29	1515.50
530.49	1560.55
530.69	1654.76
530.89	1529.83
531.09	1517.54
531.28	1562.60
531.48	1593.32
531.68	1533.93
531.88	1583.08
532.08	1599.46
532.28	1464.30
532.47	1501.16
532.67	1591.27
532.87	1599.46
533.07	1523.69
533.27	1570.79
533.46	1533.93
533.66	1599.46
533.86	1544.17
534.06	1552.36
534.26	1566.70
534.45	1533.93
534.65	1531.88
534.85	1554.41
535.05	1505.26
535.25	1495.02
535.44	1427.43
535.64	1609.70
535.84	1525.74
536.04	1554.41
536.24	1517.54
536.43	1552.36
536.63	1593.32
536.83	1511.40
537.03	1574.89
537.22	1511.40
537.42	1445.87
537.62	1511.40
537.82	1533.93
538.02	1617.90
538.21	1595.37
538.41	1646.57
538.61	1615.85
538.81	1521.64
539.00	1558.50
539.20	1439.72
539.40	1544.17
539.60	1615.85
539.79	1556.46
539.99	1628.14
540.19	1462.25
540.39	1587.18
540.58	1509.35
540.78	1609.70
540.98	1513.45
541.18	1626.09
541.37	1621.99
541.57	1585.13
541.77	1599.46
541.97	1558.50
542.16	1497.07
542.36	1603.56
542.56	1607.66
542.76	1687.53
542.95	1540.07
543.15	1581.03
543.35	1583.08
543.54	1468.39
543.74	1427.43
543.94	1574.89
544.14	1460.20
544.33	1472.49
544.53	1566.70
544.73	1542.12
544.93	1550.31
545.12	1544.17
545.32	1556.46
545.52	1468.39
545.71	1492.97
545.91	1513.45
546.11	1495.02
546.30	1484.78
546.50	1517.54
546.70	1521.64
546.90	1517.54
547.09	1495.02
547.29	1591.27
547.49	1554.41
547.68	1585.13
547.88	1505.26
548.08	1611.75
548.27	1980.39
548.47	1564.65
548.67	1523.69
548.87	1492.97
549.06	1538.02
549.26	1589.22
549.46	1544.17
549.65	1505.26
549.85	1535.98
550.05	1552.36
550.24	1515.50
550.44	1519.59
550.64	1546.22
550.83	1540.07
551.03	1585.13
551.23	1583.08
551.42	1595.37
551.62	1591.27
551.82	1544.17
552.01	1542.12
552.21	1492.97
552.41	1576.94
552.60	1585.13
552.80	1552.36
553.00	1570.79
553.19	1542.12
553.39	1546.22
553.59	1433.58
553.78	1544.17
553.98	1507.30
554.17	1501.16
554.37	1546.22
554.57	1624.04
554.76	1472.49
554.96	1495.02
555.16	1490.92
555.35	1564.65
555.55	1597.42
555.75	1591.27
555.94	1642.47
556.14	1501.16
556.33	1560.55
556.53	1552.36
556.73	1558.50
556.92	1511.40
557.12	1597.42
557.32	1644.52
557.51	1652.71
557.71	1521.64
557.90	1613.80
558.10	1581.03
558.30	1591.27
558.49	1507.30
558.69	1497.07
558.88	1636.33
559.08	1488.87
559.28	1548.26
559.47	1562.60
559.67	1576.94
559.86	1669.09
560.06	1554.41
560.26	1574.89
560.45	1482.73
560.65	1425.39
560.84	1548.26
561.04	1441.77
561.24	1556.46
561.43	1472.49
561.63	1515.50
561.82	1609.70
562.02	1617.90
562.22	1544.17
562.41	1603.56
562.61	1519.59
562.80	1505.26
563.00	1683.43
563.19	1554.41
563.39	1540.07
563.59	1566.70
563.78	1540.07
563.98	1503.21
564.17	1503.21
564.37	1466.35
564.56	1642.47
564.76	1527.78
564.96	1601.51
565.15	1552.36
565.35	1554.41
565.54	1525.74
565.74	1484.78
565.93	1570.79
566.13	1560.55
566.32	1511.40
566.52	1599.46
566.71	1476.59
566.91	1560.55
567.11	1519.59
567.30	1533.93
567.50	1599.46
567.69	1578.98
567.89	1470.44
568.08	1511.40
568.28	1578.98
568.47	1501.16
568.67	1597.42
568.86	1550.31
569.06	1617.90
569.25	1568.74
569.45	1503.21
569.64	1470.44
569.84	1505.26
570.04	1517.54
570.23	1566.70
570.43	1460.20
570.62	1542.12
570.82	1562.60
571.01	1583.08
571.21	1595.37
571.40	1484.78
571.60	1486.83
571.79	1542.12
571.99	1576.94
572.18	1517.54
572.38	1540.07
572.57	1531.88
572.77	1617.90
572.96	1705.96
573.16	1572.84
573.35	1497.07
573.55	1626.09
573.74	1556.46
573.94	1462.25
574.13	1560.55
574.33	1617.90
574.52	1581.03
574.71	1621.99
574.91	1636.33
575.10	1468.39
575.30	1544.17
575.49	1554.41
575.69	1476.59
575.88	1568.74
576.08	1607.66
576.27	1740.77
576.47	1593.32
576.66	1751.01
576.86	1683.43
577.05	1603.56
577.25	1626.09
577.44	1703.91
577.64	1538.02
577.83	1615.85
578.02	1558.50
578.22	1615.85
578.41	1650.66
578.61	1581.03
578.80	1589.22
579.00	1585.13
579.19	1509.35
579.39	1570.79
579.58	1624.04
579.77	1603.56
579.97	1626.09
580.16	1550.31
580.36	1603.56
580.55	1667.05
580.75	1675.24
580.94	1619.94
581.13	1742.82
581.33	1683.43
581.52	1671.14
581.72	1718.25
581.91	1746.92
582.11	1568.74
582.30	1599.46
582.49	1654.76
582.69	1591.27
582.88	1585.13
583.08	1568.74
583.27	1611.75
583.47	1597.42
583.66	1568.74
583.85	1564.65
584.05	1597.42
584.24	1550.31
584.44	1599.46
584.63	1654.76
584.82	1701.86
585.02	1744.87
585.21	1708.01
585.41	1759.21
585.60	1755.11
585.79	1857.51
585.99	1865.70
586.18	1773.54
586.37	2033.63
586.57	3071.95
586.76	9543.53
586.96	27565.66
587.15	43973.98
587.34	54742.20
587.54	61262.94
587.73	59872.37
587.93	43638.12
588.12	32075.29
588.31	25685.62
588.51	22183.60
588.70	19707.60
588.89	18607.84
589.09	17035.00
589.28	15159.06
589.47	13307.70
589.67	11202.39
589.86	9037.69
590.06	6748.06
590.25	4997.04
590.44	3880.90
590.64	2899.92
590.83	2301.92
591.02	2037.73
591.22	1904.61
591.41	1859.56
591.60	1783.78
591.80	1855.46
591.99	1583.08
592.18	1624.04
592.38	1710.05
592.57	1632.23
592.76	1619.94
592.96	1568.74
593.15	1619.94
593.34	1597.42
593.54	1626.09
593.73	1654.76
593.92	1568.74
594.12	1589.22
594.31	1650.66
594.50	1628.14
594.70	1669.09
594.89	1658.85
595.08	1525.74
595.28	1642.47
595.47	1660.90
595.66	1632.23
595.86	1515.50
596.05	1548.26
596.24	1636.33
596.43	1691.62
596.63	1685.48
596.82	1568.74
597.01	1566.70
597.21	1611.75
597.40	1667.05
597.59	1605.61
597.79	1568.74
597.98	1591.27
598.17	1484.78
598.36	1595.37
598.56	1640.42
598.75	1533.93
598.94	1589.22
599.14	1554.41
599.33	1531.88
599.52	1619.94
599.71	1587.18
599.91	1574.89
600.10	1613.80
600.29	1591.27
600.48	1535.98
600.68	1576.94
600.87	1593.32
601.06	1562.60
601.26	1576.94
601.45	1517.54
601.64	1480.68
601.83	1652.71
602.03	1513.45
602.22	1546.22
602.41	1558.50
602.60	1669.09
602.80	1593.32
602.99	1548.26
603.18	1484.78
603.37	1570.79
603.57	1527.78
603.76	1656.81
603.95	1603.56
604.14	1554.41
604.34	1566.70
604.53	1550.31
604.72	1617.90
604.91	1605.61
605.10	1562.60
605.30	1492.97
605.49	1550.31
605.68	1535.98
605.87	1574.89
606.07	1581.03
606.26	1505.26
606.45	1570.79
606.64	1560.55
606.84	1554.41
607.03	1562.60
607.22	1642.47
607.41	1578.98
607.60	1538.02
607.80	1587.18
607.99	1583.08
608.18	1583.08
608.37	1535.98
608.56	1548.26
608.76	1574.89
608.95	1665.00
609.14	1591.27
609.33	1603.56
609.52	1697.77
609.72	1685.48
609.91	1619.94
610.10	1484.78
610.29	1673.19
610.48	1677.29
610.68	1626.09
610.87	1525.74
611.06	1560.55
611.25	1558.50
611.44	1632.23
611.63	1470.44
611.83	1675.24
612.02	1495.02
612.21	1710.05
612.40	1550.31
612.59	1531.88
612.79	1433.58
612.98	1546.22
613.17	1613.80
613.36	1495.02
613.55	1632.23
613.74	1603.56
613.93	1675.24
614.13	1763.30
614.32	1855.46
614.51	1791.97
614.70	1628.14
614.89	1615.85
615.08	1695.72
615.28	1810.40
615.47	1558.50
615.66	1621.99
615.85	1636.33
616.04	1730.53
616.23	1646.57
616.42	1609.70
616.62	1701.86
616.81	1679.33
617.00	1542.12
617.19	1535.98
617.38	1517.54
617.57	1593.32
617.76	1562.60
617.95	1691.62
618.15	1529.83
618.34	1607.66
618.53	1466.35
618.72	1560.55
618.91	1675.24
619.10	1601.51
619.29	1572.84
619.48	1624.04
619.68	1552.36
619.87	1591.27
620.06	1474.54
620.25	1521.64
620.44	1468.39
620.63	1499.11
620.82	1560.55
621.01	1591.27
621.20	1656.81
621.39	1511.40
621.59	1593.32
621.78	1497.07
621.97	1626.09
622.16	1554.41
622.35	1525.74
622.54	1603.56
622.73	1550.31
622.92	1521.64
623.11	1607.66
623.30	1576.94
623.49	1576.94
623.68	1542.12
623.88	1535.98
624.07	1638.38
624.26	1558.50
624.45	1599.46
624.64	1535.98
624.83	1576.94
625.02	1511.40
625.21	1535.98
625.40	1574.89
625.59	1540.07
625.78	1570.79
625.97	1662.95
626.16	1646.57
626.35	1638.38
626.54	1615.85
626.74	1714.15
626.93	1572.84
627.12	1605.61
627.31	1546.22
627.50	1574.89
627.69	1585.13
627.88	1558.50
628.07	1499.11
628.26	1538.02
628.45	1615.85
628.64	1550.31
628.83	1595.37
629.02	1488.87
629.21	1607.66
629.40	1568.74
629.59	1501.16
629.78	1568.74
629.97	1521.64
630.16	1646.57
630.35	1521.64
630.54	1585.13
630.73	1576.94
630.92	1546.22
631.11	1478.63
631.30	1564.65
631.49	1628.14
631.68	1503.21
631.87	1595.37
632.06	1495.02
632.25	1624.04
632.44	1517.54
632.63	1576.94
632.82	1613.80
633.01	1568.74
633.20	1691.62
633.39	1570.79
633.58	1578.98
633.77	1603.56
633.96	1667.05
634.15	1550.31
634.34	1615.85
634.53	1617.90
634.72	1560.55
634.91	1566.70
635.10	1576.94
635.29	1585.13
635.48	1613.80
635.67	1591.27
635.86	1476.59
636.05	1621.99
636.24	1533.93
636.43	1556.46
636.62	1513.45
636.81	1521.64
637.00	1519.59
637.19	1644.52
637.38	1574.89
637.57	1492.97
637.76	1583.08
637.95	1644.52
638.14	1621.99
638.33	1699.81
638.52	1646.57
638.71	1632.23
638.89	1552.36
639.08	1695.72
639.27	1662.95
639.46	1669.09
639.65	2013.15
639.84	2009.06
640.03	2056.16
640.22	2189.28
640.41	2281.44
640.60	1980.39
640.79	1880.04
640.98	1759.21
641.17	1691.62
641.36	1667.05
641.55	1732.58
641.74	1630.18
641.92	1677.29
642.11	1583.08
642.30	1578.98
642.49	1546.22
642.68	1552.36
642.87	1542.12
643.06	1560.55
643.25	1507.30
643.44	1529.83
643.63	1523.69
643.82	1566.70
644.00	1542.12
644.19	1497.07
644.38	1406.95
644.57	1550.31
644.76	1589.22
644.95	1552.36
645.14	1589.22
645.33	1527.78
645.52	1478.63
645.71	1517.54
645.89	1531.88
646.08	1572.84
646.27	1595.37
646.46	1558.50
646.65	1445.87
646.84	1574.89
647.03	1533.93
647.22	1611.75
647.40	1531.88
647.59	1468.39
647.78	1492.97
647.97	1525.74
648.16	1466.35
648.35	1644.52
648.54	1626.09
648.73	1540.07
648.91	1495.02
649.10	1601.51
649.29	1484.78
649.48	1546.22
649.67	1529.83
649.86	1521.64
650.05	1613.80
650.23	1677.29
650.42	1693.67
650.61	1740.77
650.80	1710.05
650.99	1808.36
651.18	1710.05
651.36	1617.90
651.55	1630.18
651.74	1681.38
651.93	1533.93
652.12	1585.13
652.31	1566.70
652.49	1591.27
652.68	1492.97
652.87	1673.19
653.06	1648.61
653.25	1640.42
653.44	1515.50
653.62	1685.48
653.81	1572.84
654.00	1558.50
654.19	1697.77
654.38	1681.38
654.56	1540.07
654.75	1509.35
654.94	1535.98
655.13	1587.18
655.32	1554.41
655.51	1583.08
655.69	1568.74
655.88	1517.54
656.07	1552.36
656.26	1593.32
656.45	1462.25
656.63	1540.07
656.82	1495.02
657.01	1560.55
657.20	1550.31
657.38	1507.30
657.57	1562.60
657.76	1525.74
657.95	1533.93
658.14	1576.94
658.32	1566.70
658.51	1464.30
658.70	1578.98
658.89	1544.17
659.08	1572.84
659.26	1603.56
659.45	1486.83
659.64	1535.98
659.83	1533.93
660.01	1695.72
660.20	1599.46
660.39	1656.81
660.58	1501.16
660.76	1542.12
660.95	1525.74
661.14	1595.37
661.33	1507.30
661.51	1486.83
661.70	1501.16
661.89	1591.27
662.08	1572.84
662.26	1476.59
662.45	1525.74
662.64	1626.09
662.83	1538.02
663.01	1499.11
663.20	1562.60
663.39	1568.74
663.58	1486.83
663.76	1605.61
663.95	1581.03
664.14	1499.11
664.32	1503.21
664.51	1527.78
664.70	1503.21
664.89	1583.08
665.07	1564.65
665.26	1628.14
665.45	1544.17
665.64	1574.89
665.82	1562.60
666.01	1552.36
666.20	1552.36
666.38	1720.29
666.57	1613.80
666.76	1830.88
666.95	2934.74
667.13	7538.57
667.32	15591.19
667.51	20119.24
667.69	23672.47
667.88	25306.75
668.07	22367.91
668.25	15759.12
668.44	12584.77
668.63	10057.57
668.81	8621.95
669.00	7749.51
669.19	7143.32
669.38	6410.14
669.56	5619.63
669.75	4851.64
669.94	4065.22
670.12	3461.07
670.31	2803.67
670.50	2533.34
670.68	2103.26
670.87	1941.47
671.06	1843.17
671.24	1738.73
671.43	1665.00
671.62	1708.01
671.80	1521.64
671.99	1712.10
672.18	1574.89
672.36	1630.18
672.55	1615.85
672.74	1605.61
672.92	1560.55
673.11	1603.56
673.29	1568.74
673.48	1578.98
673.67	1513.45
673.85	1587.18
674.04	1570.79
674.23	1478.63
674.41	1511.40
674.60	1484.78
674.79	1409.00
674.97	1456.11
675.16	1599.46
675.34	1626.09
675.53	1548.26
675.72	1495.02
675.90	1564.65
676.09	1560.55
676.28	1527.78
676.46	1482.73
676.65	1644.52
676.83	1523.69
677.02	1617.90
677.21	1572.84
677.39	1468.39
677.58	1527.78
677.77	1462.25
677.95	1443.82
678.14	1484.78
678.32	1503.21
678.51	1433.58
678.70	1611.75
678.88	1515.50
679.07	1521.64
679.25	1546.22
679.44	1507.30
679.63	1427.43
679.81	1560.55
680.00	1617.90
680.18	1499.11
680.37	1632.23
680.55	1464.30
680.74	1484.78
680.93	1558.50
681.11	1544.17
681.30	1591.27
681.48	1591.27
681.67	1533.93
681.85	1560.55
682.04	1499.11
682.23	1632.23
682.41	1632.23
682.60	1521.64
682.78	1576.94
682.97	1503.21
683.15	1535.98
683.34	1568.74
683.53	1644.52
683.71	1531.88
683.90	1591.27
684.08	1566.70
684.27	1462.25
684.45	1591.27
684.64	1574.89
684.82	1513.45
685.01	1538.02
685.19	1568.74
685.38	1656.81
685.57	1472.49
685.75	1554.41
685.94	1503.21
686.12	1513.45
686.31	1548.26
686.49	1679.33
686.68	1458.15
686.86	1621.99
687.05	1593.32
687.23	1662.95
687.42	1511.40
687.60	1452.01
687.79	1550.31
687.97	1585.13
688.16	1607.66
688.34	1587.18
688.53	1507.30
688.71	1538.02
688.90	1554.41
689.08	1554.41
689.27	1497.07
689.45	1601.51
689.64	1533.93
689.82	1527.78
690.01	1638.38
690.19	1505.26
690.38	1492.97
690.56	1607.66
690.75	1480.68
690.93	1570.79
691.12	1499.11
691.30	1560.55
691.49	1472.49
691.67	1488.87
691.86	1638.38
692.04	1499.11
692.23	1566.70
692.41	1648.61
692.60	1638.38
692.78	1601.51
692.97	1574.89
693.15	1615.85
693.34	1699.81
693.52	1609.70
693.71	1576.94
693.89	1466.35
694.08	1503.21
694.26	1587.18
694.44	1613.80
694.63	1576.94
694.81	1449.96
695.00	1505.26
695.18	1617.90
695.37	1652.71
695.55	1615.85
695.74	1562.60
695.92	1540.07
696.10	1581.03
696.29	1409.00
696.47	1488.87
696.66	1492.97
696.84	1478.63
697.03	1474.54
697.21	1671.14
697.40	1943.52
697.58	1574.89
697.76	1490.92
697.95	1515.50
698.13	1517.54
698.32	1529.83
698.50	1570.79
698.68	1603.56
698.87	1540.07
699.05	1607.66
699.24	1576.94
699.42	1544.17
699.61	1464.30
699.79	1558.50
699.97	1497.07
700.16	1550.31
700.34	1546.22
700.53	1570.79
700.71	1517.54
700.89	1593.32
701.08	1443.82
701.26	1599.46
701.45	1884.13
701.63	1521.64
701.81	1519.59
702.00	1474.54
702.18	1523.69
702.37	1474.54
702.55	1681.38
702.73	1710.05
702.92	1660.90
703.10	1753.06
703.28	1800.16
703.47	1609.70
703.65	1779.68
703.84	1822.69
704.02	1732.58
704.20	1730.53
704.39	1607.66
704.57	1587.18
704.75	1601.51
704.94	1595.37
705.12	1634.28
705.30	1744.87
705.49	1763.30
705.67	2738.13
705.86	7362.45
706.04	14341.93
706.22	18831.07
706.41	21778.10
706.59	23111.33
706.77	21186.24
706.96	15019.80
707.14	11997.00
707.32	9879.40
707.51	8568.70
707.69	7647.12
707.87	6801.30
708.06	5863.33
708.24	4673.46
708.42	3704.78
708.61	2949.08
708.79	2297.82
708.97	1992.67
709.16	1738.73
709.34	1730.53
709.52	1658.85
709.71	1667.05
709.89	1619.94
710.07	1480.68
710.26	1533.93
710.44	1558.50
710.62	1589.22
710.80	1589.22
710.99	1501.16
711.17	1546.22
711.35	1505.26
711.54	1538.02
711.72	1615.85
711.90	1593.32
712.09	1454.06
712.27	1546.22
712.45	1636.33
712.63	1615.85
712.82	1562.60
713.00	1564.65
713.18	1515.50
713.37	1550.31
713.55	1552.36
713.73	1568.74
713.91	1605.61
714.10	1533.93
714.28	1474.54
714.46	1511.40
714.65	1525.74
714.83	1562.60
715.01	1525.74
715.19	1488.87
715.38	1523.69
715.56	1533.93
715.74	1576.94
715.92	1527.78
716.11	1587.18
716.29	1435.63
716.47	1578.98
716.65	1550.31
716.84	1509.35
717.02	1552.36
717.20	1474.54
717.38	1585.13
717.57	1636.33
717.75	1472.49
717.93	1531.88
718.11	1658.85
718.30	1548.26
718.48	1560.55
718.66	1535.98
718.84	1673.19
719.03	1503.21
719.21	1501.16
719.39	1695.72
719.57	1609.70
719.75	1634.28
719.94	1544.17
720.12	1599.46
720.30	1585.13
720.48	1529.83
720.67	1488.87
720.85	1474.54
721.03	1523.69
721.21	1466.35
721.39	1570.79
721.58	1531.88
721.76	1505.26
721.94	1589.22
722.12	1492.97
722.30	1562.60
722.49	1613.80
722.67	1542.12
722.85	1492.97
723.03	1490.92
723.21	1501.16
723.40	1560.55
723.58	1578.98
723.76	1560.55
723.94	1654.76
724.12	1593.32
724.30	1615.85
724.49	1689.57
724.67	1556.46
724.85	1685.48
725.03	1574.89
725.21	1542.12
725.40	1646.57
725.58	1452.01
725.76	1630.18
725.94	1533.93
726.12	1497.07
726.30	1525.74
726.49	1560.55
726.67	1585.13
726.85	1525.74
727.03	1630.18
727.21	1683.43
727.39	2117.60
727.57	3395.53
727.76	4333.50
727.94	4779.96
728.12	5070.77
728.30	5197.74
728.48	4315.07
728.66	3592.14
728.84	3284.94
729.03	2871.25
729.21	2656.22
729.39	2310.11
729.57	2107.36
729.75	1918.95
729.93	1765.35
730.11	1648.61
730.30	1619.94
730.48	1644.52
730.66	1607.66
730.84	1650.66
731.02	1482.73
731.20	1497.07
731.38	1628.14
731.56	1488.87
731.74	1488.87
731.93	1642.47
732.11	1474.54
732.29	1517.54
732.47	1556.46
732.65	1538.02
732.83	1683.43
733.01	1552.36
733.19	1550.31
733.37	1591.27
733.56	1517.54
733.74	1546.22
733.92	1658.85
734.10	1458.15
734.28	1607.66
734.46	1505.26
734.64	1495.02
734.82	1503.21
735.00	1447.91
735.18	1452.01
735.36	1581.03
735.54	1470.44
735.73	1578.98
735.91	1538.02
736.09	1531.88
736.27	1621.99
736.45	1507.30
736.63	1480.68
736.81	1509.35
736.99	1634.28
737.17	1540.07
737.35	1458.15
737.53	1650.66
737.71	1548.26
737.89	1589.22
738.07	1490.92
738.25	1462.25
738.43	1527.78
738.61	1495.02
738.80	1421.29
738.98	1499.11
739.16	1515.50
739.34	1452.01
739.52	1581.03
739.70	1419.24
739.88	1644.52
740.06	1544.17
740.24	1497.07
740.42	1595.37
740.60	1527.78
740.78	1495.02
740.96	1474.54
741.14	1445.87
741.32	1517.54
741.50	1511.40
741.68	1558.50
741.86	1581.03
742.04	1488.87
742.22	1435.63
742.40	1587.18
742.58	1562.60
742.76	1550.31
742.94	1538.02
743.12	1515.50
743.30	1495.02
743.48	1495.02
743.66	1519.59
743.84	1507.30
744.02	1599.46
744.20	1554.41
744.38	1499.11
744.56	1501.16
744.74	1591.27
744.92	1517.54
745.10	1609.70
745.28	1581.03
745.46	1505.26
745.64	1538.02
745.82	1488.87
746.00	1540.07
746.18	1570.79
746.36	1501.16
746.54	1546.22
746.72	1595.37
746.90	1560.55
747.08	1578.98
747.26	1538.02
747.44	1591.27
747.62	1552.36
747.80	1542.12
747.98	1523.69
748.15	1556.46
748.33	1515.50
748.51	1581.03
748.69	1591.27
748.87	1562.60
749.05	1509.35
749.23	1400.81
749.41	1589.22
749.59	1566.70
749.77	1576.94
749.95	1505.26
750.13	1558.50
750.31	1542.12
750.49	1511.40
750.67	1558.50
750.85	1626.09
751.03	1632.23
751.20	1574.89
751.38	1550.31
751.56	1511.40
751.74	1501.16
751.92	1521.64
752.10	1521.64
752.28	1660.90
752.46	1527.78
752.64	1560.55
752.82	1560.55
753.00	1560.55
753.18	1478.63
753.35	1533.93
753.53	1509.35
753.71	1542.12
753.89	1617.90
754.07	1529.83
754.25	1589.22
754.43	1546.22
754.61	1531.88
754.79	1552.36
754.97	1562.60
755.14	1597.42
755.32	1472.49
755.50	1546.22
755.68	1480.68
755.86	1470.44
756.04	1409.00
756.22	1535.98
756.40	1558.50
756.57	1621.99
756.75	1533.93
756.93	1576.94
757.11	1599.46
757.29	1423.34
757.47	1476.59
757.65	1570.79
757.82	1427.43
758.00	1482.73
758.18	1501.16
758.36	1468.39
758.54	1697.77
758.72	1478.63
758.90	1564.65
759.07	1501.16
759.25	1521.64
759.43	1509.35
759.61	1460.20
759.79	1845.22
759.97	1570.79
760.15	1583.08
760.32	1503.21
760.50	1581.03
760.68	1658.85
760.86	1544.17
761.04	1572.84
761.22	1546.22
761.39	1509.35
761.57	1570.79
761.75	1540.07
761.93	1492.97
762.11	1552.36
762.28	1603.56
762.46	1492.97
762.64	1578.98
762.82	1456.11
763.00	1550.31
763.18	1605.61
763.35	1460.20
763.53	1523.69
763.71	1513.45
763.89	1609.70
764.07	1562.60
764.24	1591.27
764.42	1578.98
764.60	1535.98
764.78	1578.98
764.96	1570.79
765.13	1632.23
765.31	1445.87
765.49	1540.07
765.67	1415.15
765.84	1554.41
766.02	1511.40
766.20	1454.06
766.38	1548.26
766.56	1505.26
766.73	1564.65
766.91	1574.89
767.09	1544.17
767.27	1599.46
767.44	1466.35
767.62	1624.04
767.80	1495.02
767.98	1462.25
768.15	1515.50
768.33	1583.08
768.51	1615.85
768.69	1552.36
768.87	1613.80
769.04	1615.85
769.22	1662.95
769.40	1566.70
769.58	1724.39
769.75	1468.39
769.93	1650.66
770.11	1499.11
770.28	1525.74
770.46	1560.55
770.64	1538.02
770.82	1513.45
770.99	1482.73
771.17	1533.93
771.35	1550.31
771.53	1466.35
771.70	1519.59
771.88	1492.97
772.06	1607.66
772.23	1449.96
772.41	1488.87
772.59	1527.78
772.77	1449.96
772.94	1617.90
773.12	1515.50
773.30	1511.40
773.47	1550.31
773.65	1464.30
773.83	1560.55
774.01	1513.45
774.18	1554.41
774.36	1581.03
774.54	1521.64
774.71	1576.94
774.89	1460.20
775.07	1484.78
775.24	1544.17
775.42	1531.88
775.60	1621.99
775.78	1509.35
775.95	1452.01
776.13	1478.63
776.31	1423.34
776.48	1490.92
776.66	1587.18
776.84	1556.46
777.01	1492.97
777.19	1503.21
777.37	1574.89
777.54	1529.83
777.72	1517.54
777.90	1517.54
778.07	1439.72
778.25	1685.48
778.43	1632.23
778.60	1519.59
778.78	1566.70
778.96	1570.79
779.13	1445.87
779.31	1558.50
779.49	1570.79
779.66	1490.92
779.84	1445.87
780.01	1474.54
780.19	1540.07
780.37	1593.32
780.54	1523.69
780.72	1484.78
780.90	1525.74
781.07	1427.43
781.25	1488.87
781.43	1611.75
781.60	1476.59
781.78	1607.66
781.95	1603.56
782.13	1454.06
782.31	1554.41
782.48	1409.00
782.66	1560.55
782.83	1593.32
783.01	1558.50
783.19	1546.22
783.36	1566.70
783.54	1503.21
783.72	1615.85
783.89	1497.07
784.07	1490.92
784.24	1570.79
784.42	1611.75
784.60	1617.90
784.77	1589.22
784.95	1437.67
785.12	1591.27
785.30	1552.36
785.47	1542.12
785.65	1525.74
785.83	1505.26
786.00	1476.59
786.18	1546.22
786.35	1507.30
786.53	1509.35
786.71	1552.36
786.88	1572.84
787.06	1523.69
787.23	1540.07
787.41	1599.46
787.58	1556.46
787.76	1486.83
787.94	1503.21
788.11	1499.11
788.29	1546.22
788.46	1499.11
788.64	1454.06
788.81	1435.63
788.99	1464.30
789.16	1454.06
789.34	1511.40
789.52	1499.11
789.69	1562.60
789.87	1441.77
790.04	1501.16
790.22	1540.07
790.39	1576.94
790.57	1495.02
790.74	1517.54
790.92	1572.84
791.09	1501.16
791.27	1552.36
791.44	1484.78
791.62	1566.70
791.79	1593.32
791.97	1556.46
792.15	1701.86
792.32	1605.61
792.50	1591.27
792.67	1671.14
792.85	1568.74
793.02	1507.30
793.20	1527.78
793.37	1495.02
793.55	1556.46
793.72	1507.30
793.90	1540.07
794.07	1542.12
794.25	1533.93
794.42	1558.50
794.60	1468.39
794.77	1550.31
794.95	1554.41
795.12	1492.97
795.30	1497.07
795.47	1441.77
795.65	1599.46
795.82	1533.93
796.00	1474.54
796.17	1525.74
796.34	1507.30
796.52	1470.44
796.69	1533.93
796.87	1570.79
797.04	1560.55
797.22	1486.83
797.39	1570.79
797.57	1607.66
797.74	1538.02
797.92	1554.41
798.09	1482.73
798.27	1540.07
798.44	1492.97
798.62	1531.88
798.79	1572.84
798.96	1517.54
799.14	1566.70
799.31	1667.05
799.49	1497.07
799.66	1425.39
799.84	1511.40
800.01	1441.77
800.19	1519.59
800.36	1406.95
800.53	1525.74
800.71	1595.37
800.88	1583.08
801.06	1501.16
801.23	1542.12
801.41	1515.50
801.58	1566.70
801.75	1544.17
801.93	1529.83
802.10	1599.46
802.28	1462.25
802.45	1566.70
802.63	1513.45
802.80	1495.02
802.97	1523.69
803.15	1497.07
803.32	1574.89
803.50	1562.60
803.67	1501.16
803.84	1527.78
804.02	1562.60
804.19	1554.41
804.37	1404.91
804.54	1476.59
804.71	1490.92
804.89	1562.60
805.06	1441.77
805.24	1509.35
805.41	1515.50
805.58	1519.59
805.76	1585.13
805.93	1492.97
806.10	1636.33
806.28	1669.09
806.45	1519.59
806.63	1568.74
806.80	1531.88
806.97	1490.92
807.15	1515.50
807.32	1615.85
807.49	1525.74
807.67	1398.76
807.84	1564.65
808.01	1419.24
808.19	1603.56
808.36	1603.56
808.54	1556.46
808.71	1464.30
808.88	1519.59
809.06	1558.50
809.23	1611.75
809.40	1593.32
809.58	1593.32
809.75	1564.65
809.92	1538.02
810.10	1624.04
810.27	1550.31
810.44	1558.50
810.62	1535.98
810.79	1533.93
810.96	1466.35
811.14	1542.12
811.31	1484.78
811.48	1533.93
811.66	1413.10
811.83	1529.83
812.00	1603.56
812.18	1538.02
812.35	1611.75
812.52	1574.89
812.69	1531.88
812.87	1558.50
813.04	1497.07
813.21	1533.93
813.39	1458.15
813.56	1482.73
813.73	1581.03
813.91	1478.63
814.08	1558.50
814.25	1548.26
814.42	1511.40
814.60	1533.93
814.77	1550.31
814.94	1513.45
815.12	1542.12
815.29	1576.94
815.46	1523.69
815.63	1583.08
815.81	1513.45
815.98	1572.84
816.15	1486.83
816.33	1470.44
816.50	1490.92
816.67	1452.01
816.84	1509.35
817.02	1452.01
817.19	1560.55
817.36	1564.65
817.53	1560.55
817.71	1523.69
817.88	1585.13
818.05	1478.63
818.22	1535.98
818.40	1581.03
818.57	1538.02
818.74	1538.02
818.91	1484.78
819.09	1544.17
819.26	1583.08
819.43	1468.39
819.60	1521.64
819.78	1529.83
819.95	1554.41
820.12	1523.69
820.29	1554.41
820.47	1595.37
820.64	1452.01
820.81	1501.16
820.98	1464.30
821.15	1468.39
821.33	1544.17
821.50	1392.62
821.67	1470.44
821.84	1509.35
822.02	1531.88
822.19	1640.42
822.36	1492.97
822.53	1480.68
822.70	1435.63
822.88	1570.79
823.05	1595.37
823.22	1472.49
823.39	1527.78
823.56	1470.44
823.74	1611.75
823.91	1542.12
824.08	1552.36
824.25	1515.50
824.42	1558.50
824.60	1456.11
824.77	1597.42
824.94	1544.17
825.11	1581.03
825.28	1505.26
825.45	1542.12
825.63	1511.40
825.80	1460.20
825.97	1558.50
826.14	1540.07
826.31	1484.78
826.48	1505.26
826.66	1464.30
826.83	1468.39
827.00	1495.02
827.17	1505.26
827.34	1495.02
827.51	1560.55
827.69	1488.87
827.86	1402.86
828.03	1513.45
828.20	1558.50
828.37	1472.49
828.54	1439.72
828.71	1546.22
828.89	1615.85
829.06	1482.73
829.23	1583.08
829.40	1535.98
829.57	1509.35
829.74	1568.74
829.91	1482.73
830.09	1568.74
830.26	1581.03
830.43	1589.22
830.60	1492.97
830.77	1605.61
830.94	1544.17
831.11	1605.61
831.28	1558.50
831.46	1521.64
831.63	1458.15
831.80	1587.18
831.97	1474.54
832.14	1509.35
832.31	1533.93
832.48	1568.74
832.65	1562.60
832.82	1601.51
832.99	1525.74
833.17	1427.43
833.34	1544.17
833.51	1437.67
833.68	1458.15
833.85	1535.98
834.02	1556.46
834.19	1554.41
834.36	1495.02
834.53	1527.78
834.70	1552.36
834.87	1574.89
835.04	1576.94
835.22	1511.40
835.39	1470.44
835.56	1544.17
835.73	1435.63
835.90	1558.50
836.07	1499.11
836.24	1550.31
836.41	1411.05
836.58	1521.64
836.75	1542.12
836.92	1572.84
837.09	1548.26
837.26	1523.69
837.43	1497.07
837.60	1581.03
837.77	1495.02
837.94	1540.07
838.12	1542.12
838.29	1533.93
838.46	1449.96
838.63	1523.69
838.80	1578.98
838.97	1611.75
839.14	1572.84
839.31	1515.50
839.48	1509.35
839.65	1550.31
839.82	1519.59
839.99	1501.16
840.16	1562.60
840.33	1458.15
840.50	1531.88
840.67	1540.07
840.84	1474.54
841.01	1611.75
841.18	1492.97
841.35	1568.74
841.52	1583.08
841.69	1562.60
841.86	1519.59
842.03	1544.17
842.20	1523.69
842.37	1570.79
842.54	1531.88
842.71	1523.69
842.88	1464.30
843.05	1601.51
843.22	1554.41
843.39	1544.17
843.56	1523.69
843.73	1513.45
843.90	1507.30
844.07	1519.59
844.24	1492.97
844.41	1613.80
844.58	1497.07
844.75	1501.16
844.92	1495.02
845.09	1568.74
845.26	1462.25
845.43	1607.66
845.60	1486.83
845.77	1626.09
845.94	1535.98
846.10	1556.46
846.27	1462.25
846.44	1501.16
846.61	1531.88
846.78	1509.35
846.95	1497.07
847.12	1560.55
847.29	1556.46
847.46	1486.83
847.63	1556.46
847.80	1486.83
847.97	1550.31
848.14	1583.08
848.31	1492.97
848.48	1378.28
848.65	1591.27
848.82	1480.68
848.98	1671.14
849.15	1585.13
849.32	1621.99
849.49	1531.88
849.66	1566.70
849.83	1568.74
850.00	1427.43
850.17	1472.49
850.34	1411.05
850.51	1529.83
850.68	1523.69
850.85	1687.53
851.01	1513.45
851.18	1570.79
851.35	1507.30
851.52	1521.64
851.69	1601.51
851.86	1441.77
852.03	1468.39
852.20	1574.89
852.37	1570.79
852.53	1445.87
852.70	1529.83
852.87	1525.74
853.04	1607.66
853.21	1519.59
853.38	1570.79
853.55	1632.23
853.72	1583.08
853.89	1511.40
854.05	1615.85
854.22	1458.15
854.39	1497.07
854.56	1525.74
854.73	1583.08
854.90	1435.63
855.07	1519.59
855.23	1542.12
855.40	1519.59
855.57	1495.02
855.74	1476.59
855.91	1611.75
856.08	1394.67
856.25	1460.20
856.41	1540.07
856.58	1441.77
856.75	1542.12
856.92	1472.49
857.09	1468.39
857.26	1445.87
857.42	1529.83
857.59	1626.09
857.76	1548.26
857.93	1527.78
858.10	1429.48
858.27	1419.24
858.43	1583.08
858.60	1468.39
858.77	1454.06
858.94	1497.07
859.11	1525.74
859.27	1507.30
859.44	1593.32
859.61	1705.96
859.78	1583.08
859.95	1574.89
860.12	1411.05
860.28	1554.41
860.45	1656.81
860.62	1548.26
860.79	1517.54
860.95	1488.87
861.12	1535.98
861.29	1519.59
861.46	1523.69
861.63	1486.83
861.79	1519.59
861.96	1482.73
862.13	1554.41
862.30	1632.23
862.47	1515.50
862.63	1458.15
862.80	1554.41
862.97	1546.22
863.14	1562.60
863.30	1554.41
863.47	1560.55
863.64	1681.38
863.81	1505.26
863.97	1507.30
864.14	1531.88
864.31	1509.35
864.48	1488.87
864.65	1535.98
864.81	1558.50
864.98	1464.30
865.15	1566.70
865.32	1624.04
865.48	1570.79
865.65	1574.89
865.82	1458.15
865.98	1523.69
866.15	1527.78
866.32	1550.31
866.49	1511.40
866.65	1628.14
866.82	1466.35
866.99	1521.64
867.16	1495.02
867.32	1525.74
867.49	1540.07
867.66	1439.72
867.83	1578.98
867.99	1456.11
868.16	1501.16
868.33	1449.96
868.49	1527.78
868.66	1482.73
868.83	1550.31
868.99	1591.27
869.16	1437.67
869.33	1585.13
869.50	1583.08
869.66	1560.55
869.83	1538.02
870.00	1478.63
870.16	1583.08
870.33	1591.27
870.50	1576.94
870.66	1576.94
870.83	1603.56
871.00	1499.11
871.17	1560.55
871.33	1488.87
871.50	1552.36
871.67	1497.07
871.83	1529.83
872.00	1525.74
872.17	1480.68
872.33	1576.94
872.50	1540.07
872.67	1566.70
872.83	1609.70
873.00	1505.26
873.17	1478.63
873.33	1568.74
873.50	1562.60
873.67	1435.63
873.83	1499.11
874.00	1568.74
874.16	1611.75
874.33	1550.31
874.50	1497.07
874.66	1529.83
874.83	1525.74
875.00	1560.55
875.16	1546.22
875.33	1517.54
875.50	1431.53
875.66	1478.63
875.83	1460.20
875.99	1593.32
876.16	1589.22
876.33	1593.32
876.49	1505.26
876.66	1605.61
876.83	1454.06
876.99	1460.20
877.16	1546.22
877.32	1517.54
877.49	1456.11
877.66	1525.74
877.82	1597.42
877.99	1593.32
878.15	1652.71
878.32	1556.46
878.49	1511.40
878.65	1499.11
878.82	1632.23
878.98	1460.20
879.15	1621.99
879.32	1562.60
879.48	1564.65
879.65	1521.64
879.81	1535.98
879.98	1486.83
880.15	1544.17
880.31	1558.50
880.48	1554.41
880.64	1595.37
880.81	1576.94
880.97	1642.47
881.14	1593.32
881.31	1533.93
881.47	1665.00
881.64	1505.26
881.80	1523.69
881.97	1619.94
882.13	1568.74
882.30	1472.49
882.47	1476.59
882.63	1515.50
882.80	1535.98
882.96	1462.25
883.13	1669.09
883.29	1492.97
883.46	1470.44
883.62	1570.79
883.79	1535.98
883.95	1527.78
884.12	1525.74
884.29	1591.27
884.45	1568.74
884.62	1574.89
884.78	1540.07
884.95	1597.42
885.11	1501.16
885.28	1509.35
885.44	1501.16
885.61	1454.06
885.77	1583.08
885.94	1513.45
886.10	1529.83
886.27	1535.98
886.43	1671.14
886.60	1544.17
886.76	1572.84
886.93	1488.87
887.09	1513.45
887.26	1460.20
887.42	1486.83
887.59	1495.02
887.75	1609.70
887.92	1626.09
888.08	1560.55
888.25	1568.74
888.41	1542.12
888.58	1519.59
888.74	1509.35
888.91	1535.98
>>>>>End Processed Spectral Data<<<<<
