SpectraSuite Data File
++++++++++++++++++++++++++++++++++++
Date: Tue May 03 12:55:08 CEST 2016
User: root
Dark Spectrum Present: No
Reference Spectrum Present: No
Number of Sampled Component Spectra: 1
Spectrometers: USB4C02835
Integration Time (usec): 100000 (USB4C02835)
Spectra Averaged: 1 (USB4C02835)
Boxcar Smoothing: 0 (USB4C02835)
Correct for Electrical Dark: No (USB4C02835)
Strobe/Lamp Enabled: No (USB4C02835)
Correct for Detector Non-linearity: No (USB4C02835)
Correct for Stray Light: No (USB4C02835)
Number of Pixels in Processed Spectrum: 3648
>>>>>Begin Processed Spectral Data<<<<<
177.47	1359.85
177.69	1359.85
177.91	1359.85
178.13	1282.03
178.36	1345.52
178.58	1515.50
178.80	1566.70
179.02	1468.39
179.24	1509.35
179.46	1533.93
179.68	1558.50
179.90	1515.50
180.13	1603.56
180.35	1499.11
180.57	1527.78
180.79	1507.30
181.01	1529.83
181.23	1554.41
181.45	1535.98
181.67	1521.64
181.90	1572.84
182.12	1533.93
182.34	1431.53
182.56	1396.71
182.78	1531.88
183.00	1521.64
183.22	1529.83
183.44	1449.96
183.66	1578.98
183.89	1613.80
184.11	1544.17
184.33	1460.20
184.55	1564.65
184.77	1566.70
184.99	1654.76
185.21	1542.12
185.43	1597.42
185.65	1581.03
185.87	1585.13
186.10	1646.57
186.32	1634.28
186.54	1595.37
186.76	1568.74
186.98	1535.98
187.20	1505.26
187.42	1550.31
187.64	1572.84
187.86	1480.68
188.08	1497.07
188.30	1576.94
188.52	1495.02
188.75	1585.13
188.97	1576.94
189.19	1503.21
189.41	1558.50
189.63	1572.84
189.85	1556.46
190.07	1538.02
190.29	1601.51
190.51	1560.55
190.73	1478.63
190.95	1572.84
191.17	1531.88
191.39	1460.20
191.61	1454.06
191.84	1517.54
192.06	1587.18
192.28	1460.20
192.50	1630.18
192.72	1556.46
192.94	1533.93
193.16	1605.61
193.38	1583.08
193.60	1492.97
193.82	1578.98
194.04	1558.50
194.26	1525.74
194.48	1527.78
194.70	1495.02
194.92	1587.18
195.14	1607.66
195.36	1525.74
195.58	1568.74
195.80	1505.26
196.02	1482.73
196.24	1529.83
196.46	1583.08
196.69	1464.30
196.91	1636.33
197.13	1570.79
197.35	1533.93
197.57	1574.89
197.79	1607.66
198.01	1523.69
198.23	1587.18
198.45	1576.94
198.67	1564.65
198.89	1578.98
199.11	1495.02
199.33	1443.82
199.55	1513.45
199.77	1509.35
199.99	1601.51
200.21	1439.72
200.43	1501.16
200.65	1488.87
200.87	1468.39
201.09	1562.60
201.31	1535.98
201.53	1527.78
201.75	1517.54
201.97	1507.30
202.19	1507.30
202.41	1630.18
202.63	1632.23
202.85	1511.40
203.07	1566.70
203.29	1472.49
203.51	1517.54
203.73	1499.11
203.95	1671.14
204.17	1554.41
204.39	1529.83
204.61	1605.61
204.83	1525.74
205.05	1644.52
205.27	1595.37
205.49	1634.28
205.71	1490.92
205.93	1417.19
206.15	1529.83
206.37	1486.83
206.59	1484.78
206.81	1546.22
207.03	1466.35
207.25	1366.00
207.47	1560.55
207.69	1535.98
207.91	1638.38
208.13	1568.74
208.34	1552.36
208.56	1456.11
208.78	1560.55
209.00	1509.35
209.22	1542.12
209.44	1525.74
209.66	1443.82
209.88	1497.07
210.10	1566.70
210.32	1470.44
210.54	1665.00
210.76	1552.36
210.98	1525.74
211.20	1462.25
211.42	1560.55
211.64	1591.27
211.86	1570.79
212.08	1533.93
212.30	1560.55
212.52	1550.31
212.74	1505.26
212.96	1576.94
213.17	1650.66
213.39	1550.31
213.61	1595.37
213.83	1525.74
214.05	1466.35
214.27	1585.13
214.49	1517.54
214.71	1492.97
214.93	1648.61
215.15	1478.63
215.37	1552.36
215.59	1513.45
215.81	1595.37
216.03	1576.94
216.24	1562.60
216.46	1554.41
216.68	1529.83
216.90	1560.55
217.12	1665.00
217.34	1591.27
217.56	1501.16
217.78	1578.98
218.00	1509.35
218.22	1511.40
218.44	1581.03
218.66	1552.36
218.87	1581.03
219.09	1511.40
219.31	1599.46
219.53	1609.70
219.75	1521.64
219.97	1499.11
220.19	1521.64
220.41	1603.56
220.63	1626.09
220.85	1603.56
221.06	1568.74
221.28	1548.26
221.50	1517.54
221.72	1562.60
221.94	1615.85
222.16	1503.21
222.38	1554.41
222.60	1562.60
222.82	1478.63
223.03	1550.31
223.25	1474.54
223.47	1609.70
223.69	1671.14
223.91	1546.22
224.13	1550.31
224.35	1554.41
224.57	1542.12
224.78	1523.69
225.00	1380.33
225.22	1492.97
225.44	1552.36
225.66	1556.46
225.88	1519.59
226.10	1595.37
226.32	1554.41
226.53	1603.56
226.75	1468.39
226.97	1525.74
227.19	1533.93
227.41	1478.63
227.63	1464.30
227.85	1501.16
228.06	1505.26
228.28	1533.93
228.50	1515.50
228.72	1542.12
228.94	1478.63
229.16	1480.68
229.37	1474.54
229.59	1476.59
229.81	1607.66
230.03	1517.54
230.25	1449.96
230.47	1478.63
230.69	1472.49
230.90	1550.31
231.12	1529.83
231.34	1548.26
231.56	1525.74
231.78	1511.40
232.00	1515.50
232.21	1560.55
232.43	1525.74
232.65	1470.44
232.87	1492.97
233.09	1535.98
233.30	1523.69
233.52	1607.66
233.74	1511.40
233.96	1497.07
234.18	1550.31
234.40	1497.07
234.61	1642.47
234.83	1546.22
235.05	1433.58
235.27	1640.42
235.49	1611.75
235.70	1613.80
235.92	1595.37
236.14	1593.32
236.36	1667.05
236.58	1482.73
236.79	1583.08
237.01	1589.22
237.23	1552.36
237.45	1626.09
237.67	1488.87
237.88	1644.52
238.10	1648.61
238.32	1497.07
238.54	1533.93
238.76	1488.87
238.97	1517.54
239.19	1497.07
239.41	1505.26
239.63	1544.17
239.85	1486.83
240.06	1554.41
240.28	1515.50
240.50	1556.46
240.72	1609.70
240.93	1574.89
241.15	1613.80
241.37	1560.55
241.59	1624.04
241.81	1546.22
242.02	1492.97
242.24	1621.99
242.46	1564.65
242.68	1507.30
242.89	1593.32
243.11	1593.32
243.33	1503.21
243.55	1544.17
243.76	1585.13
243.98	1509.35
244.20	1472.49
244.42	1538.02
244.64	1589.22
244.85	1519.59
245.07	1472.49
245.29	1560.55
245.51	1542.12
245.72	1517.54
245.94	1538.02
246.16	1562.60
246.38	1558.50
246.59	1542.12
246.81	1533.93
247.03	1480.68
247.24	1437.67
247.46	1509.35
247.68	1531.88
247.90	1462.25
248.11	1523.69
248.33	1503.21
248.55	1615.85
248.77	1499.11
248.98	1527.78
249.20	1632.23
249.42	1554.41
249.64	1542.12
249.85	1437.67
250.07	1513.45
250.29	1527.78
250.50	1626.09
250.72	1404.91
250.94	1509.35
251.16	1624.04
251.37	1607.66
251.59	1468.39
251.81	1474.54
252.02	1564.65
252.24	1558.50
252.46	1607.66
252.68	1480.68
252.89	1525.74
253.11	1470.44
253.33	1601.51
253.54	1581.03
253.76	1439.72
253.98	1529.83
254.20	1505.26
254.41	1490.92
254.63	1570.79
254.85	1486.83
255.06	1529.83
255.28	1556.46
255.50	1525.74
255.71	1519.59
255.93	1490.92
256.15	1527.78
256.36	1452.01
256.58	1488.87
256.80	1492.97
257.02	1540.07
257.23	1495.02
257.45	1515.50
257.67	1546.22
257.88	1519.59
258.10	1503.21
258.32	1609.70
258.53	1515.50
258.75	1638.38
258.97	1566.70
259.18	1642.47
259.40	1540.07
259.62	1619.94
259.83	1562.60
260.05	1550.31
260.27	1726.44
260.48	1570.79
260.70	1544.17
260.92	1552.36
261.13	1556.46
261.35	1486.83
261.57	1587.18
261.78	1501.16
262.00	1478.63
262.22	1562.60
262.43	1370.09
262.65	1525.74
262.86	1601.51
263.08	1572.84
263.30	1583.08
263.51	1564.65
263.73	1544.17
263.95	1585.13
264.16	1523.69
264.38	1527.78
264.60	1529.83
264.81	1554.41
265.03	1585.13
265.25	1572.84
265.46	1542.12
265.68	1617.90
265.89	1490.92
266.11	1353.71
266.33	1566.70
266.54	1591.27
266.76	1517.54
266.98	1611.75
267.19	1497.07
267.41	1527.78
267.62	1548.26
267.84	1501.16
268.06	1466.35
268.27	1642.47
268.49	1546.22
268.70	1509.35
268.92	1560.55
269.14	1503.21
269.35	1533.93
269.57	1505.26
269.79	1558.50
270.00	1495.02
270.22	1540.07
270.43	1519.59
270.65	1495.02
270.87	1509.35
271.08	1521.64
271.30	1540.07
271.51	1562.60
271.73	1576.94
271.95	1576.94
272.16	1595.37
272.38	1533.93
272.59	1583.08
272.81	1558.50
273.02	1574.89
273.24	1570.79
273.46	1533.93
273.67	1525.74
273.89	1544.17
274.10	1452.01
274.32	1505.26
274.54	1540.07
274.75	1509.35
274.97	1488.87
275.18	1572.84
275.40	1507.30
275.61	1447.91
275.83	1578.98
276.05	1482.73
276.26	1546.22
276.48	1552.36
276.69	1509.35
276.91	1421.29
277.12	1599.46
277.34	1585.13
277.55	1562.60
277.77	1464.30
277.99	1574.89
278.20	1501.16
278.42	1474.54
278.63	1492.97
278.85	1472.49
279.06	1550.31
279.28	1554.41
279.49	1511.40
279.71	1609.70
279.93	1599.46
280.14	1566.70
280.36	1527.78
280.57	1597.42
280.79	1615.85
281.00	1499.11
281.22	1531.88
281.43	1546.22
281.65	1409.00
281.86	1490.92
282.08	1599.46
282.29	1581.03
282.51	1509.35
282.73	1478.63
282.94	1480.68
283.16	1585.13
283.37	1656.81
283.59	1495.02
283.80	1486.83
284.02	1478.63
284.23	1578.98
284.45	1591.27
284.66	1482.73
284.88	1480.68
285.09	1677.29
285.31	1574.89
285.52	1595.37
285.74	1368.04
285.95	1507.30
286.17	1452.01
286.38	1646.57
286.60	1480.68
286.81	1511.40
287.03	1515.50
287.24	1478.63
287.46	1576.94
287.67	1497.07
287.89	1634.28
288.10	1564.65
288.32	1589.22
288.53	1572.84
288.75	1527.78
288.96	1595.37
289.18	1521.64
289.39	1548.26
289.61	1617.90
289.82	1607.66
290.04	1574.89
290.25	1462.25
290.47	1540.07
290.68	1519.59
290.90	1544.17
291.11	1476.59
291.33	1591.27
291.54	1523.69
291.76	1521.64
291.97	1556.46
292.18	1601.51
292.40	1531.88
292.61	1484.78
292.83	1724.39
293.04	1554.41
293.26	1521.64
293.47	1566.70
293.69	1521.64
293.90	1474.54
294.12	1583.08
294.33	1542.12
294.55	1511.40
294.76	1525.74
294.97	1585.13
295.19	1734.63
295.40	1519.59
295.62	1505.26
295.83	1560.55
296.05	1468.39
296.26	1566.70
296.48	1492.97
296.69	1529.83
296.90	1495.02
297.12	1599.46
297.33	1564.65
297.55	1529.83
297.76	1519.59
297.98	1574.89
298.19	1521.64
298.41	1521.64
298.62	1511.40
298.83	1589.22
299.05	1523.69
299.26	1517.54
299.48	1505.26
299.69	1513.45
299.90	1554.41
300.12	1478.63
300.33	1576.94
300.55	1546.22
300.76	1599.46
300.98	1462.25
301.19	1583.08
301.40	1552.36
301.62	1519.59
301.83	1548.26
302.05	1558.50
302.26	1535.98
302.47	1492.97
302.69	1525.74
302.90	1525.74
303.12	1474.54
303.33	1521.64
303.54	1513.45
303.76	1486.83
303.97	1497.07
304.19	1621.99
304.40	1552.36
304.61	1587.18
304.83	1595.37
305.04	1636.33
305.26	1591.27
305.47	1548.26
305.68	1495.02
305.90	1431.53
306.11	1566.70
306.33	1587.18
306.54	1509.35
306.75	1529.83
306.97	1478.63
307.18	1558.50
307.39	1529.83
307.61	1583.08
307.82	1542.12
308.04	1601.51
308.25	1499.11
308.46	1636.33
308.68	1576.94
308.89	1492.97
309.10	1632.23
309.32	1556.46
309.53	1449.96
309.74	1472.49
309.96	1562.60
310.17	1574.89
310.39	1468.39
310.60	1538.02
310.81	1599.46
311.03	1525.74
311.24	1587.18
311.45	1562.60
311.67	1576.94
311.88	1576.94
312.09	1439.72
312.31	1515.50
312.52	1562.60
312.73	1495.02
312.95	1482.73
313.16	1550.31
313.37	1591.27
313.59	1642.47
313.80	1542.12
314.01	1574.89
314.23	1470.44
314.44	1531.88
314.65	1556.46
314.87	1499.11
315.08	1607.66
315.29	1503.21
315.51	1499.11
315.72	1470.44
315.93	1587.18
316.15	1572.84
316.36	1484.78
316.57	1495.02
316.79	1560.55
317.00	1497.07
317.21	1601.51
317.43	1521.64
317.64	1523.69
317.85	1544.17
318.07	1585.13
318.28	1601.51
318.49	1718.25
318.70	1822.69
318.92	1636.33
319.13	1822.69
319.34	1671.14
319.56	1662.95
319.77	1662.95
319.98	1636.33
320.20	1652.71
320.41	1648.61
320.62	1591.27
320.83	1505.26
321.05	1621.99
321.26	1486.83
321.47	1560.55
321.69	1583.08
321.90	1447.91
322.11	1515.50
322.32	1591.27
322.54	1634.28
322.75	1581.03
322.96	1601.51
323.18	1529.83
323.39	1456.11
323.60	1517.54
323.81	1619.94
324.03	1513.45
324.24	1501.16
324.45	1509.35
324.66	1558.50
324.88	1560.55
325.09	1624.04
325.30	1488.87
325.52	1515.50
325.73	1554.41
325.94	1523.69
326.15	1458.15
326.37	1554.41
326.58	1538.02
326.79	1550.31
327.00	1507.30
327.22	1525.74
327.43	1468.39
327.64	1460.20
327.85	1550.31
328.07	1513.45
328.28	1601.51
328.49	1581.03
328.70	1519.59
328.92	1589.22
329.13	1562.60
329.34	1619.94
329.55	1644.52
329.76	1624.04
329.98	1583.08
330.19	1548.26
330.40	1609.70
330.61	1558.50
330.83	1585.13
331.04	1460.20
331.25	1517.54
331.46	1538.02
331.68	1454.06
331.89	1648.61
332.10	1505.26
332.31	1474.54
332.52	1603.56
332.74	1550.31
332.95	1449.96
333.16	1574.89
333.37	1617.90
333.58	1462.25
333.80	1511.40
334.01	1464.30
334.22	1538.02
334.43	1605.61
334.64	1495.02
334.86	1495.02
335.07	1525.74
335.28	1538.02
335.49	1497.07
335.70	1576.94
335.92	1603.56
336.13	1632.23
336.34	1566.70
336.55	1517.54
336.76	1595.37
336.98	1456.11
337.19	1572.84
337.40	1638.38
337.61	1683.43
337.82	1560.55
338.04	1525.74
338.25	1505.26
338.46	1484.78
338.67	1517.54
338.88	1462.25
339.09	1490.92
339.31	1531.88
339.52	1517.54
339.73	1505.26
339.94	1503.21
340.15	1505.26
340.36	1517.54
340.58	1497.07
340.79	1556.46
341.00	1529.83
341.21	1548.26
341.42	1548.26
341.63	1464.30
341.85	1589.22
342.06	1585.13
342.27	1462.25
342.48	1556.46
342.69	1509.35
342.90	1556.46
343.12	1542.12
343.33	1540.07
343.54	1544.17
343.75	1533.93
343.96	1605.61
344.17	1466.35
344.38	1583.08
344.60	1523.69
344.81	1523.69
345.02	1464.30
345.23	1550.31
345.44	1636.33
345.65	1527.78
345.86	1607.66
346.07	1583.08
346.29	1552.36
346.50	1533.93
346.71	1581.03
346.92	1552.36
347.13	1621.99
347.34	1544.17
347.55	1513.45
347.76	1552.36
347.98	1509.35
348.19	1513.45
348.40	1585.13
348.61	1464.30
348.82	1552.36
349.03	1488.87
349.24	1540.07
349.45	1634.28
349.66	1474.54
349.88	1517.54
350.09	1492.97
350.30	1642.47
350.51	1630.18
350.72	1503.21
350.93	1470.44
351.14	1521.64
351.35	1531.88
351.56	1542.12
351.77	1562.60
351.99	1595.37
352.20	1652.71
352.41	1578.98
352.62	1484.78
352.83	1501.16
353.04	1484.78
353.25	1556.46
353.46	1615.85
353.67	1591.27
353.88	1460.20
354.09	1570.79
354.30	1529.83
354.52	1597.42
354.73	1558.50
354.94	1484.78
355.15	1540.07
355.36	1599.46
355.57	1558.50
355.78	1572.84
355.99	1490.92
356.20	1501.16
356.41	1550.31
356.62	1552.36
356.83	1576.94
357.04	1570.79
357.25	1462.25
357.46	1501.16
357.68	1531.88
357.89	1529.83
358.10	1585.13
358.31	1587.18
358.52	1507.30
358.73	1521.64
358.94	1480.68
359.15	1458.15
359.36	1607.66
359.57	1595.37
359.78	1558.50
359.99	1599.46
360.20	1478.63
360.41	1552.36
360.62	1519.59
360.83	1558.50
361.04	1578.98
361.25	1525.74
361.46	1621.99
361.67	1562.60
361.88	1562.60
362.09	1529.83
362.30	1476.59
362.51	1554.41
362.72	1566.70
362.93	1529.83
363.14	1560.55
363.35	1527.78
363.56	1486.83
363.78	1519.59
363.99	1581.03
364.20	1501.16
364.41	1509.35
364.62	1656.81
364.83	1564.65
365.04	1523.69
365.25	1544.17
365.46	1658.85
365.67	1488.87
365.88	1574.89
366.09	1570.79
366.30	1503.21
366.51	1515.50
366.72	1527.78
366.93	1535.98
367.14	1533.93
367.35	1533.93
367.56	1488.87
367.77	1546.22
367.98	1564.65
368.18	1566.70
368.39	1638.38
368.60	1421.29
368.81	1615.85
369.02	1509.35
369.23	1546.22
369.44	1488.87
369.65	1548.26
369.86	1568.74
370.07	1556.46
370.28	1466.35
370.49	1556.46
370.70	1552.36
370.91	1443.82
371.12	1472.49
371.33	1581.03
371.54	1535.98
371.75	1599.46
371.96	1402.86
372.17	1492.97
372.38	1556.46
372.59	1587.18
372.80	1562.60
373.01	1542.12
373.22	1505.26
373.43	1521.64
373.64	1519.59
373.85	1576.94
374.06	1550.31
374.26	1558.50
374.47	1554.41
374.68	1648.61
374.89	1519.59
375.10	1462.25
375.31	1517.54
375.52	1560.55
375.73	1581.03
375.94	1497.07
376.15	1624.04
376.36	1556.46
376.57	1462.25
376.78	1554.41
376.99	1560.55
377.20	1609.70
377.40	1521.64
377.61	1570.79
377.82	1519.59
378.03	1574.89
378.24	1525.74
378.45	1540.07
378.66	1486.83
378.87	1527.78
379.08	1447.91
379.29	1523.69
379.50	1599.46
379.71	1531.88
379.91	1599.46
380.12	1505.26
380.33	1554.41
380.54	1607.66
380.75	1511.40
380.96	1542.12
381.17	1548.26
381.38	1601.51
381.59	1632.23
381.80	1570.79
382.00	1685.48
382.21	1562.60
382.42	1646.57
382.63	1603.56
382.84	1568.74
383.05	1601.51
383.26	1576.94
383.47	1544.17
383.68	1587.18
383.88	1615.85
384.09	1509.35
384.30	1699.81
384.51	1607.66
384.72	1517.54
384.93	1495.02
385.14	1523.69
385.35	1611.75
385.55	1482.73
385.76	1683.43
385.97	1513.45
386.18	1540.07
386.39	1544.17
386.60	1542.12
386.81	1564.65
387.02	1511.40
387.22	1558.50
387.43	1566.70
387.64	1621.99
387.85	1841.12
388.06	3153.87
388.27	7235.47
388.48	10557.28
388.68	12541.76
388.89	13995.82
389.10	12844.86
389.31	10186.60
389.52	8998.77
389.73	7878.54
389.93	7436.17
390.14	6795.16
390.35	6344.61
390.56	5590.95
390.77	4669.37
390.98	3569.61
391.18	2867.16
391.39	2273.25
391.60	1732.58
391.81	1689.57
392.02	1574.89
392.23	1724.39
392.43	1548.26
392.64	1615.85
392.85	1484.78
393.06	1662.95
393.27	1484.78
393.47	1478.63
393.68	1609.70
393.89	1554.41
394.10	1628.14
394.31	1554.41
394.52	1556.46
394.72	1488.87
394.93	1492.97
395.14	1497.07
395.35	1544.17
395.56	1546.22
395.76	1605.61
395.97	1751.01
396.18	1695.72
396.39	1781.73
396.60	1896.42
396.80	1734.63
397.01	1654.76
397.22	1646.57
397.43	1615.85
397.64	1640.42
397.84	1734.63
398.05	1726.44
398.26	1581.03
398.47	1665.00
398.67	1605.61
398.88	1591.27
399.09	1599.46
399.30	1570.79
399.51	1572.84
399.71	1495.02
399.92	1501.16
400.13	1521.64
400.34	1576.94
400.54	1581.03
400.75	1597.42
400.96	1519.59
401.17	1611.75
401.37	1474.54
401.58	1548.26
401.79	1570.79
402.00	1804.26
402.21	1984.48
402.41	1937.38
402.62	1937.38
402.83	1978.34
403.04	1933.28
403.24	1898.47
403.45	1697.77
403.66	1783.78
403.87	1748.97
404.07	1800.16
404.28	1804.26
404.49	1701.86
404.70	1636.33
404.90	1630.18
405.11	1644.52
405.32	1628.14
405.52	1548.26
405.73	1497.07
405.94	1462.25
406.15	1560.55
406.35	1531.88
406.56	1538.02
406.77	1550.31
406.98	1601.51
407.18	1542.12
407.39	1609.70
407.60	1542.12
407.80	1570.79
408.01	1554.41
408.22	1636.33
408.43	1538.02
408.63	1560.55
408.84	1562.60
409.05	1591.27
409.25	1523.69
409.46	1515.50
409.67	1478.63
409.88	1542.12
410.08	1611.75
410.29	1515.50
410.50	1499.11
410.70	1548.26
410.91	1507.30
411.12	1488.87
411.32	1599.46
411.53	1611.75
411.74	1492.97
411.95	1585.13
412.15	1621.99
412.36	1693.67
412.57	1566.70
412.77	1562.60
412.98	1570.79
413.19	1538.02
413.39	1492.97
413.60	1640.42
413.81	1638.38
414.01	1495.02
414.22	1665.00
414.43	1538.02
414.63	1480.68
414.84	1574.89
415.05	1570.79
415.25	1492.97
415.46	1544.17
415.67	1480.68
415.87	1570.79
416.08	1495.02
416.29	1538.02
416.49	1609.70
416.70	1597.42
416.91	1511.40
417.11	1595.37
417.32	1568.74
417.53	1560.55
417.73	1667.05
417.94	1574.89
418.15	1540.07
418.35	1548.26
418.56	1533.93
418.77	1708.01
418.97	1611.75
419.18	1480.68
419.38	1445.87
419.59	1476.59
419.80	1597.42
420.00	1488.87
420.21	1552.36
420.42	1583.08
420.62	1566.70
420.83	1527.78
421.04	1462.25
421.24	1476.59
421.45	1484.78
421.65	1595.37
421.86	1648.61
422.07	1564.65
422.27	1554.41
422.48	1472.49
422.69	1513.45
422.89	1499.11
423.10	1529.83
423.30	1486.83
423.51	1525.74
423.72	1562.60
423.92	1521.64
424.13	1476.59
424.33	1550.31
424.54	1495.02
424.75	1546.22
424.95	1587.18
425.16	1507.30
425.36	1501.16
425.57	1583.08
425.78	1535.98
425.98	1673.19
426.19	1474.54
426.39	1540.07
426.60	1538.02
426.81	1660.90
427.01	1615.85
427.22	1503.21
427.42	1507.30
427.63	1499.11
427.83	1495.02
428.04	1632.23
428.25	1650.66
428.45	1607.66
428.66	1548.26
428.86	1505.26
429.07	1484.78
429.28	1601.51
429.48	1581.03
429.69	1509.35
429.89	1597.42
430.10	1402.86
430.30	1595.37
430.51	1599.46
430.71	1458.15
430.92	1542.12
431.13	1642.47
431.33	1566.70
431.54	1587.18
431.74	1624.04
431.95	1671.14
432.15	1482.73
432.36	1566.70
432.56	1548.26
432.77	1656.81
432.98	1581.03
433.18	1583.08
433.39	1505.26
433.59	1486.83
433.80	1656.81
434.00	1744.87
434.21	1521.64
434.41	1460.20
434.62	1615.85
434.82	1525.74
435.03	1478.63
435.23	1511.40
435.44	1476.59
435.64	1484.78
435.85	1533.93
436.06	1599.46
436.26	1576.94
436.47	1480.68
436.67	1486.83
436.88	1591.27
437.08	1619.94
437.29	1648.61
437.49	1525.74
437.70	1603.56
437.90	1581.03
438.11	1740.77
438.31	1603.56
438.52	1656.81
438.72	1697.77
438.93	1755.11
439.13	1605.61
439.34	1613.80
439.54	1593.32
439.75	1681.38
439.95	1642.47
440.16	1548.26
440.36	1593.32
440.57	1560.55
440.77	1558.50
440.98	1599.46
441.18	1613.80
441.39	1429.48
441.59	1544.17
441.80	1656.81
442.00	1576.94
442.21	1497.07
442.41	1458.15
442.62	1581.03
442.82	1554.41
443.02	1585.13
443.23	1499.11
443.43	1513.45
443.64	1660.90
443.84	1476.59
444.05	1630.18
444.25	1587.18
444.46	1554.41
444.66	1540.07
444.87	1656.81
445.07	1486.83
445.28	1511.40
445.48	1601.51
445.69	1572.84
445.89	1673.19
446.09	1587.18
446.30	2037.73
446.50	3278.80
446.71	4437.95
446.91	5375.92
447.12	5830.57
447.32	5595.05
447.53	4657.08
447.73	4022.21
447.93	3622.86
448.14	3321.81
448.34	3254.22
448.55	2969.55
448.75	2895.83
448.96	2799.57
449.16	2494.43
449.36	2226.14
449.57	1964.00
449.77	1834.98
449.98	1632.23
450.18	1552.36
450.39	1607.66
450.59	1642.47
450.79	1523.69
451.00	1523.69
451.20	1519.59
451.41	1488.87
451.61	1570.79
451.81	1587.18
452.02	1460.20
452.22	1484.78
452.43	1558.50
452.63	1495.02
452.84	1570.79
453.04	1456.11
453.24	1486.83
453.45	1521.64
453.65	1564.65
453.86	1601.51
454.06	1550.31
454.26	1556.46
454.47	1531.88
454.67	1605.61
454.87	1540.07
455.08	1468.39
455.28	1542.12
455.49	1503.21
455.69	1517.54
455.89	1607.66
456.10	1609.70
456.30	1515.50
456.51	1548.26
456.71	1566.70
456.91	1564.65
457.12	1628.14
457.32	1542.12
457.52	1509.35
457.73	1538.02
457.93	1550.31
458.14	1458.15
458.34	1486.83
458.54	1521.64
458.75	1490.92
458.95	1583.08
459.15	1505.26
459.36	1583.08
459.56	1591.27
459.76	1597.42
459.97	1505.26
460.17	1511.40
460.37	1564.65
460.58	1544.17
460.78	1611.75
460.99	1576.94
461.19	1546.22
461.39	1554.41
461.60	1456.11
461.80	1568.74
462.00	1503.21
462.21	1581.03
462.41	1550.31
462.61	1527.78
462.82	1441.77
463.02	1544.17
463.22	1558.50
463.43	1581.03
463.63	1484.78
463.83	1632.23
464.04	1550.31
464.24	1527.78
464.44	1449.96
464.64	1505.26
464.85	1673.19
465.05	1566.70
465.25	1501.16
465.46	1472.49
465.66	1513.45
465.86	1560.55
466.07	1503.21
466.27	1533.93
466.47	1392.62
466.68	1484.78
466.88	1650.66
467.08	1581.03
467.29	1624.04
467.49	1583.08
467.69	1583.08
467.89	1581.03
468.10	1533.93
468.30	1554.41
468.50	1521.64
468.71	1574.89
468.91	1550.31
469.11	1611.75
469.31	1529.83
469.52	1540.07
469.72	1591.27
469.92	1650.66
470.13	1558.50
470.33	1634.28
470.53	1652.71
470.73	2107.36
470.94	2310.11
471.14	2437.08
471.34	2650.07
471.54	2449.37
471.75	2123.74
471.95	2045.92
472.15	2015.20
472.36	1949.67
472.56	1929.19
472.76	2007.01
472.96	1808.36
473.17	1841.12
473.37	1798.12
473.57	1697.77
473.77	1656.81
473.98	1585.13
474.18	1439.72
474.38	1765.35
474.58	1556.46
474.79	1533.93
474.99	1591.27
475.19	1587.18
475.39	1449.96
475.60	1535.98
475.80	1544.17
476.00	1562.60
476.20	1476.59
476.41	1570.79
476.61	1554.41
476.81	1544.17
477.01	1484.78
477.21	1744.87
477.42	1585.13
477.62	1488.87
477.82	1552.36
478.02	1490.92
478.23	1550.31
478.43	1525.74
478.63	1535.98
478.83	1544.17
479.03	1626.09
479.24	1611.75
479.44	1593.32
479.64	1507.30
479.84	1505.26
480.04	1574.89
480.25	1574.89
480.45	1556.46
480.65	1478.63
480.85	1632.23
481.06	1464.30
481.26	1535.98
481.46	1574.89
481.66	1521.64
481.86	1542.12
482.06	1589.22
482.27	1558.50
482.47	1550.31
482.67	1564.65
482.87	1505.26
483.07	1591.27
483.28	1531.88
483.48	1495.02
483.68	1497.07
483.88	1503.21
484.08	1529.83
484.29	1409.00
484.49	1560.55
484.69	1472.49
484.89	1542.12
485.09	1533.93
485.29	1630.18
485.50	1542.12
485.70	1566.70
485.90	1607.66
486.10	1652.71
486.30	1642.47
486.50	1578.98
486.71	1562.60
486.91	1665.00
487.11	1572.84
487.31	1509.35
487.51	1585.13
487.71	1490.92
487.91	1505.26
488.12	1466.35
488.32	1466.35
488.52	1525.74
488.72	1419.24
488.92	1540.07
489.12	1544.17
489.32	1609.70
489.53	1585.13
489.73	1472.49
489.93	1581.03
490.13	1542.12
490.33	1486.83
490.53	1544.17
490.73	1560.55
490.94	1419.24
491.14	1556.46
491.34	1671.14
491.54	2156.51
491.74	2721.75
491.94	3094.48
492.14	3262.41
492.34	3233.74
492.54	2856.92
492.75	2482.14
492.95	2336.73
493.15	2205.66
493.35	2258.91
493.55	2121.70
493.75	2023.39
493.95	2068.45
494.15	1884.13
494.35	1759.21
494.56	1761.25
494.76	1677.29
494.96	1681.38
495.16	1599.46
495.36	1535.98
495.56	1589.22
495.76	1587.18
495.96	1605.61
496.16	1523.69
496.36	1621.99
496.56	1564.65
496.77	1566.70
496.97	1550.31
497.17	1601.51
497.37	1495.02
497.57	1595.37
497.77	1599.46
497.97	1519.59
498.17	1576.94
498.37	1546.22
498.57	1562.60
498.77	1603.56
498.97	1662.95
499.17	1656.81
499.38	1558.50
499.58	1652.71
499.78	1609.70
499.98	1624.04
500.18	1476.59
500.38	1531.88
500.58	1794.02
500.78	2607.06
500.98	5044.15
501.18	6725.53
501.38	8306.56
501.58	8685.44
501.78	7952.26
501.98	6119.33
502.18	5414.83
502.38	4669.37
502.58	4093.89
502.78	3854.28
502.98	3723.21
503.18	3545.03
503.38	3346.38
503.59	3094.48
503.79	2836.44
503.99	2508.76
504.19	2279.39
504.39	2095.07
504.59	2060.26
504.79	2025.44
504.99	1923.04
505.19	1802.21
505.39	1744.87
505.59	1785.83
505.79	1689.57
505.99	1691.62
506.19	1656.81
506.39	1697.77
506.59	1669.09
506.79	1638.38
506.99	1636.33
507.19	1607.66
507.39	1550.31
507.59	1533.93
507.79	1458.15
507.99	1538.02
508.19	1505.26
508.39	1583.08
508.59	1550.31
508.79	1615.85
508.99	1638.38
509.19	1548.26
509.39	1615.85
509.59	1509.35
509.79	1611.75
509.99	1626.09
510.19	1572.84
510.39	1611.75
510.59	1564.65
510.79	1492.97
510.99	1519.59
511.19	1634.28
511.39	1599.46
511.59	1583.08
511.79	1636.33
511.99	1542.12
512.19	1560.55
512.38	1507.30
512.58	1495.02
512.78	1658.85
512.98	1593.32
513.18	1533.93
513.38	1507.30
513.58	1593.32
513.78	1533.93
513.98	1511.40
514.18	1499.11
514.38	1511.40
514.58	1495.02
514.78	1525.74
514.98	1499.11
515.18	1464.30
515.38	1472.49
515.58	1626.09
515.78	1472.49
515.98	1484.78
516.18	1544.17
516.38	1552.36
516.57	1402.86
516.77	1515.50
516.97	1525.74
517.17	1533.93
517.37	1517.54
517.57	1574.89
517.77	1630.18
517.97	1497.07
518.17	1587.18
518.37	1511.40
518.57	1515.50
518.77	1546.22
518.97	1517.54
519.16	1552.36
519.36	1570.79
519.56	1558.50
519.76	1538.02
519.96	1527.78
520.16	1679.33
520.36	1560.55
520.56	1570.79
520.76	1538.02
520.96	1585.13
521.16	1615.85
521.35	1595.37
521.55	1652.71
521.75	1535.98
521.95	1484.78
522.15	1585.13
522.35	1470.44
522.55	1492.97
522.75	1527.78
522.95	1589.22
523.14	1460.20
523.34	1535.98
523.54	1550.31
523.74	1601.51
523.94	1552.36
524.14	1476.59
524.34	1591.27
524.54	1574.89
524.73	1523.69
524.93	1572.84
525.13	1583.08
525.33	1413.10
525.53	1617.90
525.73	1505.26
525.93	1578.98
526.13	1433.58
526.32	1540.07
526.52	1607.66
526.72	1568.74
526.92	1566.70
527.12	1484.78
527.32	1499.11
527.52	1578.98
527.71	1644.52
527.91	1591.27
528.11	1523.69
528.31	1568.74
528.51	1501.16
528.71	1599.46
528.90	1533.93
529.10	1597.42
529.30	1615.85
529.50	1406.95
529.70	1542.12
529.90	1603.56
530.09	1562.60
530.29	1435.63
530.49	1478.63
530.69	1685.48
530.89	1538.02
531.09	1597.42
531.28	1544.17
531.48	1533.93
531.68	1566.70
531.88	1544.17
532.08	1542.12
532.28	1527.78
532.47	1533.93
532.67	1587.18
532.87	1546.22
533.07	1548.26
533.27	1552.36
533.46	1517.54
533.66	1665.00
533.86	1644.52
534.06	1630.18
534.26	1564.65
534.45	1566.70
534.65	1558.50
534.85	1570.79
535.05	1538.02
535.25	1585.13
535.44	1497.07
535.64	1621.99
535.84	1556.46
536.04	1492.97
536.24	1511.40
536.43	1521.64
536.63	1595.37
536.83	1552.36
537.03	1501.16
537.22	1490.92
537.42	1464.30
537.62	1515.50
537.82	1554.41
538.02	1546.22
538.21	1558.50
538.41	1636.33
538.61	1554.41
538.81	1566.70
539.00	1624.04
539.20	1443.82
539.40	1538.02
539.60	1564.65
539.79	1542.12
539.99	1552.36
540.19	1531.88
540.39	1509.35
540.58	1562.60
540.78	1497.07
540.98	1570.79
541.18	1564.65
541.37	1576.94
541.57	1550.31
541.77	1599.46
541.97	1486.83
542.16	1423.34
542.36	1527.78
542.56	1542.12
542.76	1662.95
542.95	1546.22
543.15	1562.60
543.35	1542.12
543.54	1480.68
543.74	1615.85
543.94	1564.65
544.14	1529.83
544.33	1511.40
544.53	1550.31
544.73	1492.97
544.93	1533.93
545.12	1603.56
545.32	1515.50
545.52	1574.89
545.71	1480.68
545.91	1546.22
546.11	1548.26
546.30	1558.50
546.50	1527.78
546.70	1550.31
546.90	1533.93
547.09	1425.39
547.29	1556.46
547.49	1607.66
547.68	1513.45
547.88	1456.11
548.08	1544.17
548.27	1916.90
548.47	1544.17
548.67	1445.87
548.87	1529.83
549.06	1505.26
549.26	1486.83
549.46	1523.69
549.65	1472.49
549.85	1546.22
550.05	1554.41
550.24	1478.63
550.44	1529.83
550.64	1531.88
550.83	1515.50
551.03	1574.89
551.23	1621.99
551.42	1492.97
551.62	1480.68
551.82	1519.59
552.01	1529.83
552.21	1624.04
552.41	1523.69
552.60	1578.98
552.80	1572.84
553.00	1490.92
553.19	1540.07
553.39	1652.71
553.59	1533.93
553.78	1554.41
553.98	1628.14
554.17	1443.82
554.37	1515.50
554.57	1564.65
554.76	1572.84
554.96	1523.69
555.16	1546.22
555.35	1562.60
555.55	1556.46
555.75	1566.70
555.94	1624.04
556.14	1497.07
556.33	1566.70
556.53	1527.78
556.73	1515.50
556.92	1591.27
557.12	1628.14
557.32	1619.94
557.51	1615.85
557.71	1591.27
557.90	1558.50
558.10	1583.08
558.30	1529.83
558.49	1583.08
558.69	1525.74
558.88	1550.31
559.08	1468.39
559.28	1503.21
559.47	1593.32
559.67	1550.31
559.86	1658.85
560.06	1560.55
560.26	1488.87
560.45	1478.63
560.65	1540.07
560.84	1593.32
561.04	1533.93
561.24	1605.61
561.43	1513.45
561.63	1574.89
561.82	1507.30
562.02	1527.78
562.22	1497.07
562.41	1454.06
562.61	1525.74
562.80	1462.25
563.00	1597.42
563.19	1593.32
563.39	1585.13
563.59	1548.26
563.78	1544.17
563.98	1400.81
564.17	1550.31
564.37	1482.73
564.56	1486.83
564.76	1482.73
564.96	1656.81
565.15	1591.27
565.35	1619.94
565.54	1550.31
565.74	1619.94
565.93	1535.98
566.13	1615.85
566.32	1542.12
566.52	1587.18
566.71	1581.03
566.91	1554.41
567.11	1523.69
567.30	1550.31
567.50	1587.18
567.69	1515.50
567.89	1656.81
568.08	1458.15
568.28	1525.74
568.47	1472.49
568.67	1519.59
568.86	1540.07
569.06	1490.92
569.25	1576.94
569.45	1513.45
569.64	1515.50
569.84	1548.26
570.04	1552.36
570.23	1550.31
570.43	1615.85
570.62	1550.31
570.82	1665.00
571.01	1474.54
571.21	1529.83
571.40	1568.74
571.60	1550.31
571.79	1531.88
571.99	1595.37
572.18	1531.88
572.38	1544.17
572.57	1431.53
572.77	1542.12
572.96	1613.80
573.16	1576.94
573.35	1480.68
573.55	1587.18
573.74	1533.93
573.94	1550.31
574.13	1535.98
574.33	1656.81
574.52	1693.67
574.71	1529.83
574.91	1585.13
575.10	1589.22
575.30	1509.35
575.49	1499.11
575.69	1484.78
575.88	1519.59
576.08	1570.79
576.27	1669.09
576.47	1662.95
576.66	1669.09
576.86	1701.86
577.05	1636.33
577.25	1677.29
577.44	1667.05
577.64	1630.18
577.83	1595.37
578.02	1554.41
578.22	1619.94
578.41	1662.95
578.61	1642.47
578.80	1488.87
579.00	1607.66
579.19	1589.22
579.39	1628.14
579.58	1599.46
579.77	1544.17
579.97	1632.23
580.16	1628.14
580.36	1632.23
580.55	1673.19
580.75	1593.32
580.94	1583.08
581.13	1652.71
581.33	1597.42
581.52	1609.70
581.72	1724.39
581.91	1660.90
582.11	1662.95
582.30	1644.52
582.49	1658.85
582.69	1732.58
582.88	1607.66
583.08	1617.90
583.27	1533.93
583.47	1646.57
583.66	1570.79
583.85	1511.40
584.05	1587.18
584.24	1593.32
584.44	1648.61
584.63	1691.62
584.82	1699.81
585.02	1697.77
585.21	1720.29
585.41	1671.14
585.60	1742.82
585.79	1820.64
585.99	1798.12
586.18	1806.31
586.37	1976.29
586.57	3184.59
586.76	9568.11
586.96	27670.11
587.15	43631.97
587.34	54316.23
587.54	61643.86
587.73	59616.37
587.93	43926.88
588.12	32079.38
588.31	25871.99
588.51	21900.98
588.70	19715.80
588.89	18384.62
589.09	17012.48
589.28	15310.61
589.47	13473.59
589.67	11112.28
589.86	8906.62
590.06	6821.78
590.25	4892.60
590.44	3819.46
590.64	2836.44
590.83	2295.77
591.02	2156.51
591.22	1824.74
591.41	1818.60
591.60	1724.39
591.80	1736.68
591.99	1562.60
592.18	1578.98
592.38	1617.90
592.57	1626.09
592.76	1574.89
592.96	1605.61
593.15	1515.50
593.34	1646.57
593.54	1554.41
593.73	1507.30
593.92	1566.70
594.12	1546.22
594.31	1611.75
594.50	1683.43
594.70	1685.48
594.89	1685.48
595.08	1570.79
595.28	1665.00
595.47	1722.34
595.66	1572.84
595.86	1501.16
596.05	1619.94
596.24	1558.50
596.43	1675.24
596.63	1591.27
596.82	1626.09
597.01	1589.22
597.21	1654.76
597.40	1671.14
597.59	1621.99
597.79	1615.85
597.98	1626.09
598.17	1611.75
598.36	1550.31
598.56	1591.27
598.75	1581.03
598.94	1626.09
599.14	1501.16
599.33	1505.26
599.52	1589.22
599.71	1591.27
599.91	1642.47
600.10	1578.98
600.29	1589.22
600.48	1585.13
600.68	1535.98
600.87	1574.89
601.06	1509.35
601.26	1556.46
601.45	1601.51
601.64	1583.08
601.83	1558.50
602.03	1558.50
602.22	1474.54
602.41	1624.04
602.60	1673.19
602.80	1679.33
602.99	1613.80
603.18	1544.17
603.37	1572.84
603.57	1566.70
603.76	1525.74
603.95	1552.36
604.14	1486.83
604.34	1564.65
604.53	1630.18
604.72	1492.97
604.91	1538.02
605.10	1540.07
605.30	1456.11
605.49	1648.61
605.68	1531.88
605.87	1570.79
606.07	1527.78
606.26	1609.70
606.45	1558.50
606.64	1597.42
606.84	1621.99
607.03	1542.12
607.22	1556.46
607.41	1495.02
607.60	1503.21
607.80	1626.09
607.99	1544.17
608.18	1558.50
608.37	1615.85
608.56	1533.93
608.76	1642.47
608.95	1642.47
609.14	1611.75
609.33	1619.94
609.52	1697.77
609.72	1646.57
609.91	1615.85
610.10	1562.60
610.29	1599.46
610.48	1593.32
610.68	1642.47
610.87	1490.92
611.06	1523.69
611.25	1603.56
611.44	1574.89
611.63	1441.77
611.83	1632.23
612.02	1468.39
612.21	1617.90
612.40	1484.78
612.59	1517.54
612.79	1531.88
612.98	1525.74
613.17	1558.50
613.36	1521.64
613.55	1669.09
613.74	1640.42
613.93	1677.29
614.13	1814.50
614.32	1757.16
614.51	1800.16
614.70	1697.77
614.89	1708.01
615.08	1695.72
615.28	1886.18
615.47	1517.54
615.66	1595.37
615.85	1613.80
616.04	1658.85
616.23	1615.85
616.42	1488.87
616.62	1574.89
616.81	1554.41
617.00	1501.16
617.19	1556.46
617.38	1517.54
617.57	1468.39
617.76	1578.98
617.95	1593.32
618.15	1574.89
618.34	1566.70
618.53	1447.91
618.72	1667.05
618.91	1548.26
619.10	1611.75
619.29	1517.54
619.48	1558.50
619.68	1470.44
619.87	1566.70
620.06	1560.55
620.25	1533.93
620.44	1552.36
620.63	1597.42
620.82	1503.21
621.01	1568.74
621.20	1499.11
621.39	1507.30
621.59	1624.04
621.78	1533.93
621.97	1548.26
622.16	1583.08
622.35	1556.46
622.54	1546.22
622.73	1681.38
622.92	1460.20
623.11	1581.03
623.30	1529.83
623.49	1566.70
623.68	1568.74
623.88	1628.14
624.07	1576.94
624.26	1523.69
624.45	1519.59
624.64	1503.21
624.83	1476.59
625.02	1525.74
625.21	1624.04
625.40	1492.97
625.59	1538.02
625.78	1597.42
625.97	1648.61
626.16	1626.09
626.35	1677.29
626.54	1609.70
626.74	1736.68
626.93	1554.41
627.12	1513.45
627.31	1665.00
627.50	1540.07
627.69	1501.16
627.88	1468.39
628.07	1466.35
628.26	1513.45
628.45	1566.70
628.64	1468.39
628.83	1542.12
629.02	1454.06
629.21	1630.18
629.40	1388.52
629.59	1542.12
629.78	1568.74
629.97	1570.79
630.16	1619.94
630.35	1513.45
630.54	1564.65
630.73	1517.54
630.92	1507.30
631.11	1599.46
631.30	1570.79
631.49	1630.18
631.68	1554.41
631.87	1628.14
632.06	1497.07
632.25	1624.04
632.44	1486.83
632.63	1595.37
632.82	1603.56
633.01	1538.02
633.20	1583.08
633.39	1648.61
633.58	1638.38
633.77	1581.03
633.96	1671.14
634.15	1640.42
634.34	1609.70
634.53	1617.90
634.72	1574.89
634.91	1585.13
635.10	1599.46
635.29	1607.66
635.48	1560.55
635.67	1460.20
635.86	1572.84
636.05	1617.90
636.24	1574.89
636.43	1474.54
636.62	1583.08
636.81	1427.43
637.00	1558.50
637.19	1601.51
637.38	1605.61
637.57	1560.55
637.76	1540.07
637.95	1599.46
638.14	1566.70
638.33	1621.99
638.52	1652.71
638.71	1540.07
638.89	1585.13
639.08	1724.39
639.27	1624.04
639.46	1695.72
639.65	1953.76
639.84	2086.88
640.03	2193.37
640.22	2158.56
640.41	2256.86
640.60	1937.38
640.79	1880.04
640.98	1701.86
641.17	1781.73
641.36	1753.06
641.55	1722.34
641.74	1683.43
641.92	1611.75
642.11	1621.99
642.30	1492.97
642.49	1595.37
642.68	1617.90
642.87	1589.22
643.06	1609.70
643.25	1572.84
643.44	1441.77
643.63	1454.06
643.82	1509.35
644.00	1560.55
644.19	1546.22
644.38	1490.92
644.57	1515.50
644.76	1482.73
644.95	1544.17
645.14	1572.84
645.33	1552.36
645.52	1570.79
645.71	1603.56
645.89	1517.54
646.08	1566.70
646.27	1554.41
646.46	1578.98
646.65	1564.65
646.84	1501.16
647.03	1447.91
647.22	1550.31
647.40	1572.84
647.59	1456.11
647.78	1476.59
647.97	1445.87
648.16	1488.87
648.35	1605.61
648.54	1576.94
648.73	1509.35
648.91	1585.13
649.10	1511.40
649.29	1529.83
649.48	1505.26
649.67	1476.59
649.86	1558.50
650.05	1601.51
650.23	1679.33
650.42	1677.29
650.61	1759.21
650.80	1703.91
650.99	1791.97
651.18	1599.46
651.36	1609.70
651.55	1560.55
651.74	1644.52
651.93	1517.54
652.12	1593.32
652.31	1574.89
652.49	1568.74
652.68	1574.89
652.87	1671.14
653.06	1601.51
653.25	1697.77
653.44	1513.45
653.62	1595.37
653.81	1517.54
654.00	1501.16
654.19	1544.17
654.38	1705.96
654.56	1593.32
654.75	1619.94
654.94	1546.22
655.13	1568.74
655.32	1558.50
655.51	1562.60
655.69	1501.16
655.88	1589.22
656.07	1488.87
656.26	1595.37
656.45	1511.40
656.63	1495.02
656.82	1546.22
657.01	1556.46
657.20	1533.93
657.38	1562.60
657.57	1509.35
657.76	1439.72
657.95	1566.70
658.14	1523.69
658.32	1505.26
658.51	1535.98
658.70	1556.46
658.89	1468.39
659.08	1581.03
659.26	1648.61
659.45	1540.07
659.64	1605.61
659.83	1621.99
660.01	1742.82
660.20	1517.54
660.39	1642.47
660.58	1558.50
660.76	1646.57
660.95	1435.63
661.14	1626.09
661.33	1550.31
661.51	1570.79
661.70	1499.11
661.89	1538.02
662.08	1519.59
662.26	1480.68
662.45	1552.36
662.64	1595.37
662.83	1572.84
663.01	1480.68
663.20	1460.20
663.39	1544.17
663.58	1527.78
663.76	1517.54
663.95	1509.35
664.14	1533.93
664.32	1533.93
664.51	1585.13
664.70	1443.82
664.89	1568.74
665.07	1517.54
665.26	1630.18
665.45	1492.97
665.64	1585.13
665.82	1538.02
666.01	1560.55
666.20	1505.26
666.38	1667.05
666.57	1621.99
666.76	1789.92
666.95	2955.22
667.13	7501.71
667.32	15191.83
667.51	19943.12
667.69	23490.20
667.88	25296.51
668.07	22435.50
668.25	15658.77
668.44	12472.13
668.63	10049.38
668.81	8687.48
669.00	7821.19
669.19	7102.36
669.38	6397.85
669.56	5828.52
669.75	4939.70
669.94	4184.00
670.12	3520.46
670.31	2871.25
670.50	2500.57
670.68	2154.46
670.87	1877.99
671.06	1722.34
671.24	1755.11
671.43	1671.14
671.62	1654.76
671.80	1587.18
671.99	1693.67
672.18	1654.76
672.36	1624.04
672.55	1603.56
672.74	1544.17
672.92	1529.83
673.11	1529.83
673.29	1505.26
673.48	1630.18
673.67	1533.93
673.85	1562.60
674.04	1550.31
674.23	1515.50
674.41	1554.41
674.60	1517.54
674.79	1470.44
674.97	1495.02
675.16	1576.94
675.34	1587.18
675.53	1503.21
675.72	1583.08
675.90	1607.66
676.09	1572.84
676.28	1517.54
676.46	1396.71
676.65	1533.93
676.83	1527.78
677.02	1542.12
677.21	1533.93
677.39	1593.32
677.58	1425.39
677.77	1566.70
677.95	1503.21
678.14	1515.50
678.32	1519.59
678.51	1544.17
678.70	1644.52
678.88	1431.53
679.07	1533.93
679.25	1533.93
679.44	1499.11
679.63	1503.21
679.81	1585.13
680.00	1654.76
680.18	1572.84
680.37	1611.75
680.55	1585.13
680.74	1486.83
680.93	1427.43
681.11	1515.50
681.30	1558.50
681.48	1570.79
681.67	1556.46
681.85	1576.94
682.04	1497.07
682.23	1583.08
682.41	1525.74
682.60	1601.51
682.78	1564.65
682.97	1507.30
683.15	1490.92
683.34	1581.03
683.53	1519.59
683.71	1466.35
683.90	1609.70
684.08	1617.90
684.27	1433.58
684.45	1478.63
684.64	1587.18
684.82	1525.74
685.01	1527.78
685.19	1595.37
685.38	1689.57
685.57	1544.17
685.75	1521.64
685.94	1531.88
686.12	1443.82
686.31	1525.74
686.49	1624.04
686.68	1484.78
686.86	1554.41
687.05	1566.70
687.23	1628.14
687.42	1482.73
687.60	1511.40
687.79	1556.46
687.97	1597.42
688.16	1556.46
688.34	1599.46
688.53	1523.69
688.71	1542.12
688.90	1472.49
689.08	1587.18
689.27	1417.19
689.45	1576.94
689.64	1558.50
689.82	1552.36
690.01	1531.88
690.19	1480.68
690.38	1619.94
690.56	1587.18
690.75	1515.50
690.93	1486.83
691.12	1447.91
691.30	1527.78
691.49	1548.26
691.67	1513.45
691.86	1636.33
692.04	1505.26
692.23	1486.83
692.41	1562.60
692.60	1648.61
692.78	1652.71
692.97	1673.19
693.15	1619.94
693.34	1681.38
693.52	1621.99
693.71	1546.22
693.89	1609.70
694.08	1490.92
694.26	1542.12
694.44	1544.17
694.63	1558.50
694.81	1484.78
695.00	1607.66
695.18	1535.98
695.37	1683.43
695.55	1597.42
695.74	1548.26
695.92	1542.12
696.10	1603.56
696.29	1480.68
696.47	1521.64
696.66	1533.93
696.84	1484.78
697.03	1531.88
697.21	1548.26
697.40	2013.15
697.58	1617.90
697.76	1501.16
697.95	1546.22
698.13	1474.54
698.32	1476.59
698.50	1581.03
698.68	1535.98
698.87	1525.74
699.05	1615.85
699.24	1578.98
699.42	1464.30
699.61	1476.59
699.79	1572.84
699.97	1456.11
700.16	1527.78
700.34	1443.82
700.53	1609.70
700.71	1685.48
700.89	1560.55
701.08	1544.17
701.26	1519.59
701.45	1826.79
701.63	1533.93
701.81	1492.97
702.00	1560.55
702.18	1507.30
702.37	1505.26
702.55	1585.13
702.73	1703.91
702.92	1728.49
703.10	1798.12
703.28	1736.68
703.47	1660.90
703.65	1808.36
703.84	1755.11
704.02	1626.09
704.20	1669.09
704.39	1652.71
704.57	1636.33
704.75	1642.47
704.94	1605.61
705.12	1617.90
705.30	1679.33
705.49	1828.84
705.67	2891.73
705.86	7292.82
706.04	14483.24
706.22	18642.66
706.41	21606.07
706.59	22865.57
706.77	21169.85
706.96	14757.66
707.14	11861.84
707.32	9781.10
707.51	8671.10
707.69	7581.58
707.87	6715.29
708.06	5805.99
708.24	4837.30
708.42	3696.58
708.61	3006.42
708.79	2418.65
708.97	1929.19
709.16	1867.75
709.34	1798.12
709.52	1613.80
709.71	1603.56
709.89	1599.46
710.07	1562.60
710.26	1531.88
710.44	1566.70
710.62	1636.33
710.80	1564.65
710.99	1564.65
711.17	1538.02
711.35	1525.74
711.54	1517.54
711.72	1619.94
711.90	1568.74
712.09	1570.79
712.27	1540.07
712.45	1523.69
712.63	1544.17
712.82	1595.37
713.00	1533.93
713.18	1550.31
713.37	1480.68
713.55	1499.11
713.73	1566.70
713.91	1533.93
714.10	1560.55
714.28	1495.02
714.46	1533.93
714.65	1615.85
714.83	1527.78
715.01	1540.07
715.19	1556.46
715.38	1581.03
715.56	1513.45
715.74	1591.27
715.92	1503.21
716.11	1519.59
716.29	1445.87
716.47	1505.26
716.65	1486.83
716.84	1484.78
717.02	1615.85
717.20	1472.49
717.38	1492.97
717.57	1591.27
717.75	1626.09
717.93	1505.26
718.11	1583.08
718.30	1474.54
718.48	1578.98
718.66	1513.45
718.84	1576.94
719.03	1394.67
719.21	1466.35
719.39	1527.78
719.57	1535.98
719.75	1632.23
719.94	1488.87
720.12	1511.40
720.30	1613.80
720.48	1624.04
720.67	1509.35
720.85	1478.63
721.03	1501.16
721.21	1554.41
721.39	1609.70
721.58	1564.65
721.76	1574.89
721.94	1554.41
722.12	1527.78
722.30	1642.47
722.49	1560.55
722.67	1517.54
722.85	1529.83
723.03	1402.86
723.21	1501.16
723.40	1562.60
723.58	1669.09
723.76	1501.16
723.94	1644.52
724.12	1603.56
724.30	1695.72
724.49	1624.04
724.67	1556.46
724.85	1632.23
725.03	1501.16
725.21	1576.94
725.40	1646.57
725.58	1570.79
725.76	1540.07
725.94	1599.46
726.12	1449.96
726.30	1505.26
726.49	1531.88
726.67	1513.45
726.85	1538.02
727.03	1591.27
727.21	1777.64
727.39	2103.26
727.57	3264.46
727.76	4353.98
727.94	4921.27
728.12	5013.43
728.30	5212.08
728.48	4433.85
728.66	3536.84
728.84	3184.59
729.03	2848.72
729.21	2699.22
729.39	2336.73
729.57	2037.73
729.75	1843.17
729.93	1773.54
730.11	1636.33
730.30	1589.22
730.48	1617.90
730.66	1656.81
730.84	1624.04
731.02	1605.61
731.20	1542.12
731.38	1570.79
731.56	1486.83
731.74	1490.92
731.93	1607.66
732.11	1435.63
732.29	1527.78
732.47	1648.61
732.65	1511.40
732.83	1552.36
733.01	1548.26
733.19	1527.78
733.37	1570.79
733.56	1544.17
733.74	1462.25
733.92	1605.61
734.10	1443.82
734.28	1538.02
734.46	1470.44
734.64	1515.50
734.82	1544.17
735.00	1413.10
735.18	1499.11
735.36	1533.93
735.54	1517.54
735.73	1554.41
735.91	1576.94
736.09	1574.89
736.27	1550.31
736.45	1521.64
736.63	1490.92
736.81	1490.92
736.99	1548.26
737.17	1556.46
737.35	1478.63
737.53	1538.02
737.71	1540.07
737.89	1576.94
738.07	1427.43
738.25	1558.50
738.43	1501.16
738.61	1495.02
738.80	1497.07
738.98	1441.77
739.16	1490.92
739.34	1470.44
739.52	1595.37
739.70	1538.02
739.88	1626.09
740.06	1626.09
740.24	1490.92
740.42	1646.57
740.60	1507.30
740.78	1509.35
740.96	1445.87
741.14	1452.01
741.32	1527.78
741.50	1490.92
741.68	1699.81
741.86	1564.65
742.04	1454.06
742.22	1445.87
742.40	1517.54
742.58	1525.74
742.76	1484.78
742.94	1597.42
743.12	1445.87
743.30	1585.13
743.48	1585.13
743.66	1497.07
743.84	1535.98
744.02	1525.74
744.20	1611.75
744.38	1544.17
744.56	1546.22
744.74	1656.81
744.92	1521.64
745.10	1646.57
745.28	1533.93
745.46	1615.85
745.64	1570.79
745.82	1591.27
746.00	1540.07
746.18	1527.78
746.36	1476.59
746.54	1552.36
746.72	1587.18
746.90	1570.79
747.08	1531.88
747.26	1503.21
747.44	1576.94
747.62	1626.09
747.80	1495.02
747.98	1550.31
748.15	1538.02
748.33	1542.12
748.51	1513.45
748.69	1589.22
748.87	1470.44
749.05	1499.11
749.23	1503.21
749.41	1626.09
749.59	1548.26
749.77	1593.32
749.95	1513.45
750.13	1466.35
750.31	1564.65
750.49	1519.59
750.67	1593.32
750.85	1593.32
751.03	1572.84
751.20	1599.46
751.38	1628.14
751.56	1488.87
751.74	1470.44
751.92	1515.50
752.10	1486.83
752.28	1570.79
752.46	1456.11
752.64	1509.35
752.82	1570.79
753.00	1603.56
753.18	1525.74
753.35	1509.35
753.53	1550.31
753.71	1505.26
753.89	1531.88
754.07	1468.39
754.25	1634.28
754.43	1599.46
754.61	1433.58
754.79	1570.79
754.97	1544.17
755.14	1607.66
755.32	1540.07
755.50	1484.78
755.68	1558.50
755.86	1425.39
756.04	1527.78
756.22	1509.35
756.40	1562.60
756.57	1583.08
756.75	1529.83
756.93	1638.38
757.11	1554.41
757.29	1531.88
757.47	1464.30
757.65	1490.92
757.82	1464.30
758.00	1445.87
758.18	1501.16
758.36	1468.39
758.54	1523.69
758.72	1419.24
758.90	1619.94
759.07	1621.99
759.25	1581.03
759.43	1519.59
759.61	1513.45
759.79	1982.43
759.97	1478.63
760.15	1535.98
760.32	1517.54
760.50	1439.72
760.68	1595.37
760.86	1449.96
761.04	1572.84
761.22	1605.61
761.39	1591.27
761.57	1548.26
761.75	1560.55
761.93	1599.46
762.11	1544.17
762.28	1519.59
762.46	1525.74
762.64	1548.26
762.82	1556.46
763.00	1517.54
763.18	1513.45
763.35	1544.17
763.53	1527.78
763.71	1492.97
763.89	1546.22
764.07	1550.31
764.24	1435.63
764.42	1599.46
764.60	1462.25
764.78	1585.13
764.96	1589.22
765.13	1558.50
765.31	1513.45
765.49	1501.16
765.67	1566.70
765.84	1497.07
766.02	1509.35
766.20	1486.83
766.38	1591.27
766.56	1519.59
766.73	1630.18
766.91	1533.93
767.09	1540.07
767.27	1531.88
767.44	1482.73
767.62	1603.56
767.80	1527.78
767.98	1480.68
768.15	1478.63
768.33	1576.94
768.51	1595.37
768.69	1570.79
768.87	1564.65
769.04	1490.92
769.22	1689.57
769.40	1605.61
769.58	1677.29
769.75	1529.83
769.93	1621.99
770.11	1621.99
770.28	1511.40
770.46	1591.27
770.64	1535.98
770.82	1503.21
770.99	1589.22
771.17	1574.89
771.35	1540.07
771.53	1535.98
771.70	1523.69
771.88	1531.88
772.06	1521.64
772.23	1597.42
772.41	1615.85
772.59	1531.88
772.77	1509.35
772.94	1542.12
773.12	1492.97
773.30	1452.01
773.47	1521.64
773.65	1497.07
773.83	1595.37
774.01	1497.07
774.18	1470.44
774.36	1552.36
774.54	1492.97
774.71	1544.17
774.89	1435.63
775.07	1472.49
775.24	1525.74
775.42	1523.69
775.60	1587.18
775.78	1484.78
775.95	1429.48
776.13	1456.11
776.31	1398.76
776.48	1576.94
776.66	1572.84
776.84	1583.08
777.01	1468.39
777.19	1499.11
777.37	1542.12
777.54	1597.42
777.72	1595.37
777.90	1576.94
778.07	1478.63
778.25	1685.48
778.43	1665.00
778.60	1439.72
778.78	1601.51
778.96	1591.27
779.13	1480.68
779.31	1568.74
779.49	1511.40
779.66	1564.65
779.84	1550.31
780.01	1503.21
780.19	1505.26
780.37	1525.74
780.54	1572.84
780.72	1470.44
780.90	1505.26
781.07	1525.74
781.25	1468.39
781.43	1603.56
781.60	1505.26
781.78	1607.66
781.95	1517.54
782.13	1529.83
782.31	1486.83
782.48	1466.35
782.66	1546.22
782.83	1611.75
783.01	1603.56
783.19	1615.85
783.36	1527.78
783.54	1462.25
783.72	1576.94
783.89	1591.27
784.07	1568.74
784.24	1562.60
784.42	1566.70
784.60	1515.50
784.77	1544.17
784.95	1411.05
785.12	1499.11
785.30	1554.41
785.47	1480.68
785.65	1503.21
785.83	1507.30
786.00	1454.06
786.18	1509.35
786.35	1454.06
786.53	1486.83
786.71	1521.64
786.88	1478.63
787.06	1613.80
787.23	1587.18
787.41	1490.92
787.58	1527.78
787.76	1570.79
787.94	1540.07
788.11	1521.64
788.29	1497.07
788.46	1490.92
788.64	1402.86
788.81	1458.15
788.99	1515.50
789.16	1482.73
789.34	1480.68
789.52	1544.17
789.69	1548.26
789.87	1456.11
790.04	1517.54
790.22	1478.63
790.39	1599.46
790.57	1562.60
790.74	1495.02
790.92	1548.26
791.09	1509.35
791.27	1525.74
791.44	1517.54
791.62	1501.16
791.79	1484.78
791.97	1521.64
792.15	1646.57
792.32	1576.94
792.50	1568.74
792.67	1535.98
792.85	1603.56
793.02	1564.65
793.20	1454.06
793.37	1495.02
793.55	1525.74
793.72	1511.40
793.90	1533.93
794.07	1513.45
794.25	1560.55
794.42	1544.17
794.60	1546.22
794.77	1501.16
794.95	1540.07
795.12	1613.80
795.30	1521.64
795.47	1492.97
795.65	1640.42
795.82	1513.45
796.00	1497.07
796.17	1548.26
796.34	1452.01
796.52	1468.39
796.69	1576.94
796.87	1642.47
797.04	1525.74
797.22	1572.84
797.39	1511.40
797.57	1578.98
797.74	1607.66
797.92	1550.31
798.09	1470.44
798.27	1458.15
798.44	1533.93
798.62	1464.30
798.79	1611.75
798.96	1509.35
799.14	1533.93
799.31	1679.33
799.49	1597.42
799.66	1476.59
799.84	1437.67
800.01	1443.82
800.19	1554.41
800.36	1482.73
800.53	1546.22
800.71	1476.59
800.88	1570.79
801.06	1468.39
801.23	1482.73
801.41	1558.50
801.58	1511.40
801.75	1419.24
801.93	1540.07
802.10	1605.61
802.28	1515.50
802.45	1484.78
802.63	1626.09
802.80	1642.47
802.97	1552.36
803.15	1478.63
803.32	1509.35
803.50	1503.21
803.67	1542.12
803.84	1400.81
804.02	1546.22
804.19	1538.02
804.37	1447.91
804.54	1552.36
804.71	1474.54
804.89	1564.65
805.06	1470.44
805.24	1538.02
805.41	1488.87
805.58	1495.02
805.76	1601.51
805.93	1585.13
806.10	1628.14
806.28	1560.55
806.45	1548.26
806.63	1505.26
806.80	1482.73
806.97	1562.60
807.15	1550.31
807.32	1519.59
807.49	1546.22
807.67	1447.91
807.84	1556.46
808.01	1507.30
808.19	1665.00
808.36	1691.62
808.54	1497.07
808.71	1542.12
808.88	1523.69
809.06	1599.46
809.23	1564.65
809.40	1492.97
809.58	1611.75
809.75	1523.69
809.92	1460.20
810.10	1650.66
810.27	1511.40
810.44	1640.42
810.62	1619.94
810.79	1591.27
810.96	1523.69
811.14	1576.94
811.31	1572.84
811.48	1495.02
811.66	1505.26
811.83	1605.61
812.00	1470.44
812.18	1552.36
812.35	1583.08
812.52	1529.83
812.69	1562.60
812.87	1509.35
813.04	1452.01
813.21	1480.68
813.39	1558.50
813.56	1501.16
813.73	1550.31
813.91	1417.19
814.08	1542.12
814.25	1513.45
814.42	1478.63
814.60	1497.07
814.77	1587.18
814.94	1568.74
815.12	1519.59
815.29	1525.74
815.46	1486.83
815.63	1673.19
815.81	1533.93
815.98	1509.35
816.15	1492.97
816.33	1521.64
816.50	1527.78
816.67	1542.12
816.84	1564.65
817.02	1521.64
817.19	1511.40
817.36	1540.07
817.53	1515.50
817.71	1589.22
817.88	1544.17
818.05	1544.17
818.22	1546.22
818.40	1609.70
818.57	1472.49
818.74	1497.07
818.91	1533.93
819.09	1527.78
819.26	1587.18
819.43	1402.86
819.60	1478.63
819.78	1535.98
819.95	1585.13
820.12	1517.54
820.29	1611.75
820.47	1560.55
820.64	1437.67
820.81	1519.59
820.98	1497.07
821.15	1552.36
821.33	1585.13
821.50	1452.01
821.67	1535.98
821.84	1542.12
822.02	1601.51
822.19	1476.59
822.36	1492.97
822.53	1492.97
822.70	1419.24
822.88	1570.79
823.05	1591.27
823.22	1558.50
823.39	1581.03
823.56	1476.59
823.74	1638.38
823.91	1431.53
824.08	1435.63
824.25	1492.97
824.42	1611.75
824.60	1443.82
824.77	1583.08
824.94	1572.84
825.11	1566.70
825.28	1460.20
825.45	1527.78
825.63	1531.88
825.80	1509.35
825.97	1517.54
826.14	1468.39
826.31	1484.78
826.48	1509.35
826.66	1437.67
826.83	1460.20
827.00	1527.78
827.17	1509.35
827.34	1568.74
827.51	1546.22
827.69	1482.73
827.86	1437.67
828.03	1497.07
828.20	1593.32
828.37	1456.11
828.54	1503.21
828.71	1535.98
828.89	1617.90
829.06	1499.11
829.23	1603.56
829.40	1556.46
829.57	1572.84
829.74	1673.19
829.91	1505.26
830.09	1499.11
830.26	1570.79
830.43	1574.89
830.60	1495.02
830.77	1583.08
830.94	1492.97
831.11	1574.89
831.28	1511.40
831.46	1525.74
831.63	1402.86
831.80	1521.64
831.97	1501.16
832.14	1482.73
832.31	1611.75
832.48	1519.59
832.65	1583.08
832.82	1482.73
832.99	1576.94
833.17	1458.15
833.34	1535.98
833.51	1601.51
833.68	1476.59
833.85	1607.66
834.02	1482.73
834.19	1546.22
834.36	1460.20
834.53	1544.17
834.70	1599.46
834.87	1593.32
835.04	1497.07
835.22	1488.87
835.39	1535.98
835.56	1445.87
835.73	1495.02
835.90	1656.81
836.07	1509.35
836.24	1572.84
836.41	1445.87
836.58	1529.83
836.75	1558.50
836.92	1589.22
837.09	1521.64
837.26	1566.70
837.43	1568.74
837.60	1585.13
837.77	1525.74
837.94	1554.41
838.12	1597.42
838.29	1611.75
838.46	1521.64
838.63	1501.16
838.80	1540.07
838.97	1628.14
839.14	1570.79
839.31	1535.98
839.48	1556.46
839.65	1499.11
839.82	1642.47
839.99	1658.85
840.16	1568.74
840.33	1574.89
840.50	1581.03
840.67	1447.91
840.84	1431.53
841.01	1538.02
841.18	1515.50
841.35	1464.30
841.52	1583.08
841.69	1626.09
841.86	1599.46
842.03	1482.73
842.20	1519.59
842.37	1517.54
842.54	1554.41
842.71	1564.65
842.88	1400.81
843.05	1482.73
843.22	1546.22
843.39	1568.74
843.56	1556.46
843.73	1552.36
843.90	1533.93
844.07	1548.26
844.24	1507.30
844.41	1611.75
844.58	1525.74
844.75	1578.98
844.92	1581.03
845.09	1441.77
845.26	1497.07
845.43	1550.31
845.60	1566.70
845.77	1566.70
845.94	1490.92
846.10	1578.98
846.27	1468.39
846.44	1501.16
846.61	1482.73
846.78	1564.65
846.95	1480.68
847.12	1540.07
847.29	1480.68
847.46	1417.19
847.63	1562.60
847.80	1509.35
847.97	1525.74
848.14	1628.14
848.31	1527.78
848.48	1486.83
848.65	1603.56
848.82	1456.11
848.98	1650.66
849.15	1599.46
849.32	1615.85
849.49	1525.74
849.66	1591.27
849.83	1550.31
850.00	1490.92
850.17	1538.02
850.34	1560.55
850.51	1517.54
850.68	1468.39
850.85	1589.22
851.01	1546.22
851.18	1554.41
851.35	1523.69
851.52	1517.54
851.69	1517.54
851.86	1439.72
852.03	1495.02
852.20	1570.79
852.37	1554.41
852.53	1525.74
852.70	1558.50
852.87	1546.22
853.04	1552.36
853.21	1513.45
853.38	1613.80
853.55	1619.94
853.72	1570.79
853.89	1519.59
854.05	1519.59
854.22	1437.67
854.39	1511.40
854.56	1585.13
854.73	1570.79
854.90	1488.87
855.07	1505.26
855.23	1458.15
855.40	1560.55
855.57	1523.69
855.74	1435.63
855.91	1640.42
856.08	1423.34
856.25	1554.41
856.41	1476.59
856.58	1542.12
856.75	1535.98
856.92	1480.68
857.09	1615.85
857.26	1490.92
857.42	1431.53
857.59	1431.53
857.76	1558.50
857.93	1552.36
858.10	1544.17
858.27	1515.50
858.43	1597.42
858.60	1484.78
858.77	1507.30
858.94	1470.44
859.11	1648.61
859.27	1525.74
859.44	1535.98
859.61	1697.77
859.78	1583.08
859.95	1415.15
860.12	1474.54
860.28	1587.18
860.45	1648.61
860.62	1515.50
860.79	1607.66
860.95	1492.97
861.12	1462.25
861.29	1517.54
861.46	1437.67
861.63	1523.69
861.79	1529.83
861.96	1458.15
862.13	1445.87
862.30	1632.23
862.47	1566.70
862.63	1495.02
862.80	1626.09
862.97	1554.41
863.14	1513.45
863.30	1533.93
863.47	1540.07
863.64	1656.81
863.81	1574.89
863.97	1511.40
864.14	1497.07
864.31	1482.73
864.48	1535.98
864.65	1531.88
864.81	1585.13
864.98	1535.98
865.15	1624.04
865.32	1560.55
865.48	1570.79
865.65	1591.27
865.82	1574.89
865.98	1550.31
866.15	1667.05
866.32	1531.88
866.49	1480.68
866.65	1564.65
866.82	1484.78
866.99	1511.40
867.16	1542.12
867.32	1454.06
867.49	1538.02
867.66	1527.78
867.83	1507.30
867.99	1492.97
868.16	1488.87
868.33	1449.96
868.49	1499.11
868.66	1556.46
868.83	1601.51
868.99	1533.93
869.16	1531.88
869.33	1624.04
869.50	1525.74
869.66	1499.11
869.83	1484.78
870.00	1562.60
870.16	1609.70
870.33	1556.46
870.50	1591.27
870.66	1517.54
870.83	1652.71
871.00	1566.70
871.17	1556.46
871.33	1538.02
871.50	1484.78
871.67	1503.21
871.83	1454.06
872.00	1634.28
872.17	1507.30
872.33	1554.41
872.50	1497.07
872.67	1513.45
872.83	1488.87
873.00	1464.30
873.17	1509.35
873.33	1482.73
873.50	1605.61
873.67	1535.98
873.83	1497.07
874.00	1509.35
874.16	1599.46
874.33	1548.26
874.50	1505.26
874.66	1513.45
874.83	1564.65
875.00	1540.07
875.16	1546.22
875.33	1546.22
875.50	1441.77
875.66	1511.40
875.83	1523.69
875.99	1529.83
876.16	1533.93
876.33	1464.30
876.49	1552.36
876.66	1478.63
876.83	1523.69
876.99	1484.78
877.16	1499.11
877.32	1558.50
877.49	1562.60
877.66	1538.02
877.82	1519.59
877.99	1509.35
878.15	1607.66
878.32	1621.99
878.49	1617.90
878.65	1503.21
878.82	1599.46
878.98	1511.40
879.15	1535.98
879.32	1521.64
879.48	1544.17
879.65	1527.78
879.81	1462.25
879.98	1449.96
880.15	1544.17
880.31	1529.83
880.48	1505.26
880.64	1599.46
880.81	1615.85
880.97	1533.93
881.14	1583.08
881.31	1509.35
881.47	1630.18
881.64	1490.92
881.80	1445.87
881.97	1572.84
882.13	1574.89
882.30	1540.07
882.47	1492.97
882.63	1531.88
882.80	1529.83
882.96	1617.90
883.13	1646.57
883.29	1533.93
883.46	1583.08
883.62	1626.09
883.79	1511.40
883.95	1585.13
884.12	1519.59
884.29	1535.98
884.45	1550.31
884.62	1589.22
884.78	1441.77
884.95	1626.09
885.11	1525.74
885.28	1486.83
885.44	1548.26
885.61	1466.35
885.77	1546.22
885.94	1591.27
886.10	1523.69
886.27	1525.74
886.43	1589.22
886.60	1570.79
886.76	1476.59
886.93	1396.71
887.09	1538.02
887.26	1435.63
887.42	1585.13
887.59	1652.71
887.75	1624.04
887.92	1570.79
888.08	1630.18
888.25	1636.33
888.41	1597.42
888.58	1550.31
888.74	1488.87
888.91	1505.26
>>>>>End Processed Spectral Data<<<<<
