SpectraSuite Data File
++++++++++++++++++++++++++++++++++++
Date: Tue May 03 12:55:04 CEST 2016
User: root
Dark Spectrum Present: No
Reference Spectrum Present: No
Number of Sampled Component Spectra: 1
Spectrometers: USB4C02835
Integration Time (usec): 100000 (USB4C02835)
Spectra Averaged: 1 (USB4C02835)
Boxcar Smoothing: 0 (USB4C02835)
Correct for Electrical Dark: No (USB4C02835)
Strobe/Lamp Enabled: No (USB4C02835)
Correct for Detector Non-linearity: No (USB4C02835)
Correct for Stray Light: No (USB4C02835)
Number of Pixels in Processed Spectrum: 3648
>>>>>Begin Processed Spectral Data<<<<<
177.47	1347.56
177.69	1347.56
177.91	1347.56
178.13	1380.33
178.36	1267.69
178.58	1466.35
178.80	1548.26
179.02	1470.44
179.24	1562.60
179.46	1523.69
179.68	1601.51
179.90	1521.64
180.13	1519.59
180.35	1527.78
180.57	1513.45
180.79	1570.79
181.01	1511.40
181.23	1648.61
181.45	1572.84
181.67	1484.78
181.90	1558.50
182.12	1572.84
182.34	1501.16
182.56	1513.45
182.78	1519.59
183.00	1505.26
183.22	1517.54
183.44	1427.43
183.66	1640.42
183.89	1554.41
184.11	1519.59
184.33	1566.70
184.55	1607.66
184.77	1675.24
184.99	1535.98
185.21	1607.66
185.43	1667.05
185.65	1560.55
185.87	1513.45
186.10	1581.03
186.32	1662.95
186.54	1556.46
186.76	1628.14
186.98	1671.14
187.20	1529.83
187.42	1540.07
187.64	1542.12
187.86	1523.69
188.08	1595.37
188.30	1519.59
188.52	1517.54
188.75	1638.38
188.97	1581.03
189.19	1482.73
189.41	1484.78
189.63	1566.70
189.85	1443.82
190.07	1411.05
190.29	1503.21
190.51	1519.59
190.73	1478.63
190.95	1624.04
191.17	1550.31
191.39	1421.29
191.61	1550.31
191.84	1505.26
192.06	1484.78
192.28	1476.59
192.50	1648.61
192.72	1550.31
192.94	1497.07
193.16	1640.42
193.38	1542.12
193.60	1458.15
193.82	1556.46
194.04	1591.27
194.26	1478.63
194.48	1552.36
194.70	1503.21
194.92	1533.93
195.14	1507.30
195.36	1464.30
195.58	1576.94
195.80	1497.07
196.02	1515.50
196.24	1499.11
196.46	1552.36
196.69	1495.02
196.91	1644.52
197.13	1468.39
197.35	1492.97
197.57	1556.46
197.79	1538.02
198.01	1492.97
198.23	1564.65
198.45	1495.02
198.67	1470.44
198.89	1513.45
199.11	1540.07
199.33	1482.73
199.55	1417.19
199.77	1550.31
199.99	1619.94
200.21	1499.11
200.43	1503.21
200.65	1447.91
200.87	1415.15
201.09	1499.11
201.31	1581.03
201.53	1542.12
201.75	1535.98
201.97	1466.35
202.19	1480.68
202.41	1535.98
202.63	1601.51
202.85	1589.22
203.07	1517.54
203.29	1540.07
203.51	1406.95
203.73	1470.44
203.95	1640.42
204.17	1560.55
204.39	1552.36
204.61	1517.54
204.83	1578.98
205.05	1544.17
205.27	1542.12
205.49	1587.18
205.71	1525.74
205.93	1486.83
206.15	1521.64
206.37	1509.35
206.59	1474.54
206.81	1480.68
207.03	1550.31
207.25	1439.72
207.47	1556.46
207.69	1562.60
207.91	1660.90
208.13	1523.69
208.34	1587.18
208.56	1454.06
208.78	1578.98
209.00	1423.34
209.22	1466.35
209.44	1523.69
209.66	1472.49
209.88	1566.70
210.10	1544.17
210.32	1525.74
210.54	1587.18
210.76	1511.40
210.98	1529.83
211.20	1472.49
211.42	1583.08
211.64	1562.60
211.86	1538.02
212.08	1478.63
212.30	1605.61
212.52	1458.15
212.74	1593.32
212.96	1505.26
213.17	1601.51
213.39	1521.64
213.61	1568.74
213.83	1599.46
214.05	1454.06
214.27	1679.33
214.49	1513.45
214.71	1482.73
214.93	1589.22
215.15	1435.63
215.37	1570.79
215.59	1464.30
215.81	1572.84
216.03	1578.98
216.24	1503.21
216.46	1462.25
216.68	1544.17
216.90	1603.56
217.12	1654.76
217.34	1552.36
217.56	1585.13
217.78	1656.81
218.00	1595.37
218.22	1519.59
218.44	1529.83
218.66	1583.08
218.87	1624.04
219.09	1486.83
219.31	1511.40
219.53	1509.35
219.75	1517.54
219.97	1523.69
220.19	1542.12
220.41	1533.93
220.63	1619.94
220.85	1570.79
221.06	1505.26
221.28	1560.55
221.50	1621.99
221.72	1572.84
221.94	1503.21
222.16	1495.02
222.38	1468.39
222.60	1570.79
222.82	1509.35
223.03	1484.78
223.25	1437.67
223.47	1576.94
223.69	1652.71
223.91	1556.46
224.13	1560.55
224.35	1490.92
224.57	1619.94
224.78	1521.64
225.00	1523.69
225.22	1564.65
225.44	1558.50
225.66	1550.31
225.88	1521.64
226.10	1511.40
226.32	1572.84
226.53	1566.70
226.75	1529.83
226.97	1527.78
227.19	1495.02
227.41	1589.22
227.63	1562.60
227.85	1462.25
228.06	1587.18
228.28	1572.84
228.50	1513.45
228.72	1505.26
228.94	1462.25
229.16	1454.06
229.37	1492.97
229.59	1501.16
229.81	1648.61
230.03	1503.21
230.25	1486.83
230.47	1552.36
230.69	1413.10
230.90	1572.84
231.12	1505.26
231.34	1525.74
231.56	1607.66
231.78	1488.87
232.00	1527.78
232.21	1550.31
232.43	1525.74
232.65	1437.67
232.87	1554.41
233.09	1427.43
233.30	1521.64
233.52	1542.12
233.74	1499.11
233.96	1503.21
234.18	1556.46
234.40	1517.54
234.61	1716.20
234.83	1523.69
235.05	1452.01
235.27	1640.42
235.49	1513.45
235.70	1546.22
235.92	1554.41
236.14	1550.31
236.36	1648.61
236.58	1490.92
236.79	1505.26
237.01	1505.26
237.23	1572.84
237.45	1673.19
237.67	1474.54
237.88	1578.98
238.10	1650.66
238.32	1490.92
238.54	1570.79
238.76	1503.21
238.97	1558.50
239.19	1521.64
239.41	1572.84
239.63	1511.40
239.85	1460.20
240.06	1523.69
240.28	1460.20
240.50	1576.94
240.72	1492.97
240.93	1554.41
241.15	1552.36
241.37	1515.50
241.59	1615.85
241.81	1615.85
242.02	1525.74
242.24	1591.27
242.46	1501.16
242.68	1497.07
242.89	1548.26
243.11	1644.52
243.33	1492.97
243.55	1546.22
243.76	1550.31
243.98	1544.17
244.20	1503.21
244.42	1538.02
244.64	1527.78
244.85	1472.49
245.07	1495.02
245.29	1566.70
245.51	1574.89
245.72	1540.07
245.94	1566.70
246.16	1531.88
246.38	1501.16
246.59	1607.66
246.81	1462.25
247.03	1538.02
247.24	1552.36
247.46	1437.67
247.68	1527.78
247.90	1538.02
248.11	1509.35
248.33	1595.37
248.55	1562.60
248.77	1613.80
248.98	1630.18
249.20	1566.70
249.42	1447.91
249.64	1519.59
249.85	1548.26
250.07	1538.02
250.29	1517.54
250.50	1562.60
250.72	1466.35
250.94	1544.17
251.16	1671.14
251.37	1597.42
251.59	1562.60
251.81	1558.50
252.02	1566.70
252.24	1585.13
252.46	1550.31
252.68	1560.55
252.89	1505.26
253.11	1443.82
253.33	1591.27
253.54	1611.75
253.76	1535.98
253.98	1521.64
254.20	1521.64
254.41	1478.63
254.63	1544.17
254.85	1497.07
255.06	1525.74
255.28	1581.03
255.50	1533.93
255.71	1558.50
255.93	1484.78
256.15	1531.88
256.36	1511.40
256.58	1544.17
256.80	1585.13
257.02	1548.26
257.23	1587.18
257.45	1474.54
257.67	1513.45
257.88	1560.55
258.10	1533.93
258.32	1533.93
258.53	1566.70
258.75	1650.66
258.97	1499.11
259.18	1495.02
259.40	1509.35
259.62	1558.50
259.83	1589.22
260.05	1591.27
260.27	1662.95
260.48	1542.12
260.70	1390.57
260.92	1595.37
261.13	1482.73
261.35	1501.16
261.57	1617.90
261.78	1478.63
262.00	1501.16
262.22	1527.78
262.43	1478.63
262.65	1609.70
262.86	1601.51
263.08	1585.13
263.30	1587.18
263.51	1431.53
263.73	1484.78
263.95	1619.94
264.16	1513.45
264.38	1538.02
264.60	1542.12
264.81	1585.13
265.03	1607.66
265.25	1515.50
265.46	1591.27
265.68	1599.46
265.89	1513.45
266.11	1452.01
266.33	1597.42
266.54	1513.45
266.76	1650.66
266.98	1517.54
267.19	1619.94
267.41	1497.07
267.62	1509.35
267.84	1544.17
268.06	1554.41
268.27	1492.97
268.49	1507.30
268.70	1595.37
268.92	1554.41
269.14	1503.21
269.35	1458.15
269.57	1535.98
269.79	1566.70
270.00	1478.63
270.22	1578.98
270.43	1497.07
270.65	1472.49
270.87	1552.36
271.08	1544.17
271.30	1607.66
271.51	1572.84
271.73	1540.07
271.95	1560.55
272.16	1562.60
272.38	1527.78
272.59	1460.20
272.81	1595.37
273.02	1546.22
273.24	1492.97
273.46	1507.30
273.67	1568.74
273.89	1497.07
274.10	1507.30
274.32	1574.89
274.54	1544.17
274.75	1578.98
274.97	1568.74
275.18	1589.22
275.40	1550.31
275.61	1517.54
275.83	1626.09
276.05	1400.81
276.26	1476.59
276.48	1529.83
276.69	1509.35
276.91	1460.20
277.12	1640.42
277.34	1595.37
277.55	1593.32
277.77	1533.93
277.99	1525.74
278.20	1544.17
278.42	1427.43
278.63	1429.48
278.85	1538.02
279.06	1433.58
279.28	1546.22
279.49	1578.98
279.71	1511.40
279.93	1462.25
280.14	1511.40
280.36	1597.42
280.57	1540.07
280.79	1613.80
281.00	1468.39
281.22	1544.17
281.43	1626.09
281.65	1482.73
281.86	1478.63
282.08	1611.75
282.29	1683.43
282.51	1535.98
282.73	1439.72
282.94	1452.01
283.16	1591.27
283.37	1566.70
283.59	1527.78
283.80	1570.79
284.02	1613.80
284.23	1599.46
284.45	1486.83
284.66	1447.91
284.88	1511.40
285.09	1595.37
285.31	1566.70
285.52	1515.50
285.74	1523.69
285.95	1509.35
286.17	1583.08
286.38	1646.57
286.60	1519.59
286.81	1540.07
287.03	1572.84
287.24	1523.69
287.46	1574.89
287.67	1497.07
287.89	1587.18
288.10	1505.26
288.32	1505.26
288.53	1589.22
288.75	1583.08
288.96	1531.88
289.18	1488.87
289.39	1562.60
289.61	1546.22
289.82	1570.79
290.04	1535.98
290.25	1550.31
290.47	1531.88
290.68	1533.93
290.90	1542.12
291.11	1464.30
291.33	1593.32
291.54	1501.16
291.76	1581.03
291.97	1548.26
292.18	1599.46
292.40	1562.60
292.61	1488.87
292.83	1665.00
293.04	1527.78
293.26	1533.93
293.47	1529.83
293.69	1486.83
293.90	1529.83
294.12	1613.80
294.33	1552.36
294.55	1503.21
294.76	1581.03
294.97	1617.90
295.19	1607.66
295.40	1529.83
295.62	1599.46
295.83	1544.17
296.05	1464.30
296.26	1597.42
296.48	1456.11
296.69	1562.60
296.90	1486.83
297.12	1544.17
297.33	1519.59
297.55	1517.54
297.76	1480.68
297.98	1578.98
298.19	1517.54
298.41	1540.07
298.62	1529.83
298.83	1568.74
299.05	1515.50
299.26	1538.02
299.48	1476.59
299.69	1542.12
299.90	1509.35
300.12	1449.96
300.33	1650.66
300.55	1421.29
300.76	1646.57
300.98	1466.35
301.19	1591.27
301.40	1501.16
301.62	1535.98
301.83	1556.46
302.05	1513.45
302.26	1583.08
302.47	1462.25
302.69	1503.21
302.90	1574.89
303.12	1511.40
303.33	1585.13
303.54	1560.55
303.76	1574.89
303.97	1529.83
304.19	1640.42
304.40	1480.68
304.61	1611.75
304.83	1617.90
305.04	1576.94
305.26	1523.69
305.47	1529.83
305.68	1515.50
305.90	1433.58
306.11	1621.99
306.33	1497.07
306.54	1523.69
306.75	1554.41
306.97	1503.21
307.18	1488.87
307.39	1449.96
307.61	1554.41
307.82	1519.59
308.04	1535.98
308.25	1488.87
308.46	1597.42
308.68	1413.10
308.89	1499.11
309.10	1654.76
309.32	1550.31
309.53	1548.26
309.74	1568.74
309.96	1597.42
310.17	1507.30
310.39	1529.83
310.60	1658.85
310.81	1486.83
311.03	1462.25
311.24	1478.63
311.45	1533.93
311.67	1652.71
311.88	1609.70
312.09	1488.87
312.31	1495.02
312.52	1476.59
312.73	1523.69
312.95	1466.35
313.16	1492.97
313.37	1587.18
313.59	1525.74
313.80	1576.94
314.01	1576.94
314.23	1509.35
314.44	1499.11
314.65	1452.01
314.87	1560.55
315.08	1527.78
315.29	1595.37
315.51	1429.48
315.72	1443.82
315.93	1558.50
316.15	1613.80
316.36	1480.68
316.57	1576.94
316.79	1583.08
317.00	1458.15
317.21	1581.03
317.43	1527.78
317.64	1501.16
317.85	1482.73
318.07	1535.98
318.28	1599.46
318.49	1775.59
318.70	1783.78
318.92	1695.72
319.13	1808.36
319.34	1705.96
319.56	1687.53
319.77	1685.48
319.98	1646.57
320.20	1640.42
320.41	1527.78
320.62	1578.98
320.83	1509.35
321.05	1679.33
321.26	1529.83
321.47	1576.94
321.69	1511.40
321.90	1433.58
322.11	1529.83
322.32	1517.54
322.54	1562.60
322.75	1523.69
322.96	1650.66
323.18	1570.79
323.39	1398.76
323.60	1521.64
323.81	1570.79
324.03	1568.74
324.24	1468.39
324.45	1513.45
324.66	1515.50
324.88	1576.94
325.09	1652.71
325.30	1513.45
325.52	1589.22
325.73	1695.72
325.94	1509.35
326.15	1396.71
326.37	1482.73
326.58	1527.78
326.79	1548.26
327.00	1427.43
327.22	1452.01
327.43	1554.41
327.64	1376.24
327.85	1554.41
328.07	1454.06
328.28	1650.66
328.49	1439.72
328.70	1470.44
328.92	1513.45
329.13	1521.64
329.34	1538.02
329.55	1486.83
329.76	1533.93
329.98	1548.26
330.19	1619.94
330.40	1585.13
330.61	1583.08
330.83	1542.12
331.04	1511.40
331.25	1572.84
331.46	1548.26
331.68	1427.43
331.89	1581.03
332.10	1587.18
332.31	1482.73
332.52	1544.17
332.74	1560.55
332.95	1456.11
333.16	1505.26
333.37	1634.28
333.58	1542.12
333.80	1556.46
334.01	1462.25
334.22	1529.83
334.43	1458.15
334.64	1447.91
334.86	1507.30
335.07	1515.50
335.28	1605.61
335.49	1509.35
335.70	1601.51
335.92	1558.50
336.13	1656.81
336.34	1585.13
336.55	1533.93
336.76	1585.13
336.98	1464.30
337.19	1640.42
337.40	1576.94
337.61	1640.42
337.82	1478.63
338.04	1605.61
338.25	1476.59
338.46	1560.55
338.67	1525.74
338.88	1472.49
339.09	1529.83
339.31	1576.94
339.52	1503.21
339.73	1478.63
339.94	1587.18
340.15	1546.22
340.36	1503.21
340.58	1558.50
340.79	1513.45
341.00	1548.26
341.21	1513.45
341.42	1576.94
341.63	1581.03
341.85	1597.42
342.06	1515.50
342.27	1542.12
342.48	1519.59
342.69	1476.59
342.90	1556.46
343.12	1495.02
343.33	1513.45
343.54	1566.70
343.75	1568.74
343.96	1562.60
344.17	1550.31
344.38	1564.65
344.60	1476.59
344.81	1482.73
345.02	1589.22
345.23	1533.93
345.44	1681.38
345.65	1576.94
345.86	1515.50
346.07	1544.17
346.29	1503.21
346.50	1628.14
346.71	1656.81
346.92	1540.07
347.13	1630.18
347.34	1478.63
347.55	1578.98
347.76	1554.41
347.98	1511.40
348.19	1583.08
348.40	1574.89
348.61	1525.74
348.82	1634.28
349.03	1578.98
349.24	1503.21
349.45	1597.42
349.66	1544.17
349.88	1525.74
350.09	1476.59
350.30	1574.89
350.51	1490.92
350.72	1574.89
350.93	1531.88
351.14	1470.44
351.35	1564.65
351.56	1558.50
351.77	1458.15
351.99	1478.63
352.20	1648.61
352.41	1603.56
352.62	1394.67
352.83	1583.08
353.04	1478.63
353.25	1556.46
353.46	1535.98
353.67	1542.12
353.88	1419.24
354.09	1568.74
354.30	1533.93
354.52	1574.89
354.73	1554.41
354.94	1495.02
355.15	1538.02
355.36	1583.08
355.57	1478.63
355.78	1591.27
355.99	1484.78
356.20	1503.21
356.41	1581.03
356.62	1601.51
356.83	1527.78
357.04	1515.50
357.25	1470.44
357.46	1490.92
357.68	1511.40
357.89	1499.11
358.10	1503.21
358.31	1525.74
358.52	1517.54
358.73	1531.88
358.94	1521.64
359.15	1503.21
359.36	1619.94
359.57	1626.09
359.78	1531.88
359.99	1595.37
360.20	1474.54
360.41	1548.26
360.62	1611.75
360.83	1488.87
361.04	1603.56
361.25	1527.78
361.46	1626.09
361.67	1595.37
361.88	1568.74
362.09	1593.32
362.30	1634.28
362.51	1505.26
362.72	1535.98
362.93	1617.90
363.14	1478.63
363.35	1538.02
363.56	1540.07
363.78	1638.38
363.99	1560.55
364.20	1470.44
364.41	1542.12
364.62	1609.70
364.83	1550.31
365.04	1570.79
365.25	1546.22
365.46	1617.90
365.67	1452.01
365.88	1564.65
366.09	1552.36
366.30	1646.57
366.51	1521.64
366.72	1478.63
366.93	1495.02
367.14	1515.50
367.35	1544.17
367.56	1503.21
367.77	1601.51
367.98	1519.59
368.18	1597.42
368.39	1546.22
368.60	1452.01
368.81	1570.79
369.02	1525.74
369.23	1523.69
369.44	1439.72
369.65	1535.98
369.86	1507.30
370.07	1593.32
370.28	1509.35
370.49	1535.98
370.70	1593.32
370.91	1484.78
371.12	1386.47
371.33	1531.88
371.54	1558.50
371.75	1634.28
371.96	1449.96
372.17	1574.89
372.38	1456.11
372.59	1599.46
372.80	1495.02
373.01	1515.50
373.22	1554.41
373.43	1495.02
373.64	1558.50
373.85	1587.18
374.06	1646.57
374.26	1587.18
374.47	1527.78
374.68	1564.65
374.89	1552.36
375.10	1517.54
375.31	1578.98
375.52	1521.64
375.73	1554.41
375.94	1515.50
376.15	1675.24
376.36	1499.11
376.57	1581.03
376.78	1515.50
376.99	1527.78
377.20	1611.75
377.40	1517.54
377.61	1585.13
377.82	1525.74
378.03	1574.89
378.24	1564.65
378.45	1511.40
378.66	1599.46
378.87	1535.98
379.08	1509.35
379.29	1603.56
379.50	1587.18
379.71	1484.78
379.91	1535.98
380.12	1476.59
380.33	1550.31
380.54	1503.21
380.75	1552.36
380.96	1556.46
381.17	1667.05
381.38	1558.50
381.59	1617.90
381.80	1611.75
382.00	1648.61
382.21	1531.88
382.42	1697.77
382.63	1673.19
382.84	1591.27
383.05	1609.70
383.26	1576.94
383.47	1544.17
383.68	1578.98
383.88	1562.60
384.09	1468.39
384.30	1587.18
384.51	1540.07
384.72	1533.93
384.93	1548.26
385.14	1554.41
385.35	1507.30
385.55	1501.16
385.76	1626.09
385.97	1574.89
386.18	1507.30
386.39	1546.22
386.60	1560.55
386.81	1587.18
387.02	1585.13
387.22	1554.41
387.43	1632.23
387.64	1646.57
387.85	1849.32
388.06	3205.07
388.27	7358.35
388.48	10561.37
388.68	12212.04
388.89	14067.50
389.10	13047.61
389.31	10096.49
389.52	8787.83
389.73	7757.71
389.93	7339.92
390.14	6860.70
390.35	6188.96
390.56	5613.48
390.77	4732.86
390.98	3612.62
391.18	2861.01
391.39	2176.99
391.60	1830.88
391.81	1665.00
392.02	1523.69
392.23	1720.29
392.43	1654.76
392.64	1617.90
392.85	1490.92
393.06	1554.41
393.27	1533.93
393.47	1511.40
393.68	1566.70
393.89	1554.41
394.10	1578.98
394.31	1507.30
394.52	1486.83
394.72	1548.26
394.93	1583.08
395.14	1490.92
395.35	1568.74
395.56	1456.11
395.76	1589.22
395.97	1714.15
396.18	1769.44
396.39	1722.34
396.60	1894.37
396.80	1742.82
397.01	1636.33
397.22	1728.49
397.43	1695.72
397.64	1617.90
397.84	1689.57
398.05	1734.63
398.26	1630.18
398.47	1632.23
398.67	1640.42
398.88	1521.64
399.09	1595.37
399.30	1507.30
399.51	1609.70
399.71	1576.94
399.92	1527.78
400.13	1646.57
400.34	1566.70
400.54	1529.83
400.75	1632.23
400.96	1535.98
401.17	1652.71
401.37	1589.22
401.58	1527.78
401.79	1605.61
402.00	1781.73
402.21	1957.86
402.41	1933.28
402.62	2017.25
402.83	1955.81
403.04	1806.31
403.24	1959.91
403.45	1771.49
403.66	1726.44
403.87	1681.38
404.07	1765.35
404.28	1714.15
404.49	1753.06
404.70	1542.12
404.90	1654.76
405.11	1613.80
405.32	1656.81
405.52	1486.83
405.73	1505.26
405.94	1505.26
406.15	1564.65
406.35	1540.07
406.56	1593.32
406.77	1548.26
406.98	1566.70
407.18	1478.63
407.39	1599.46
407.60	1546.22
407.80	1538.02
408.01	1533.93
408.22	1533.93
408.43	1576.94
408.63	1583.08
408.84	1624.04
409.05	1550.31
409.25	1523.69
409.46	1544.17
409.67	1398.76
409.88	1492.97
410.08	1597.42
410.29	1521.64
410.50	1542.12
410.70	1568.74
410.91	1515.50
411.12	1552.36
411.32	1548.26
411.53	1490.92
411.74	1587.18
411.95	1681.38
412.15	1599.46
412.36	1638.38
412.57	1527.78
412.77	1642.47
412.98	1585.13
413.19	1503.21
413.39	1523.69
413.60	1568.74
413.81	1574.89
414.01	1593.32
414.22	1593.32
414.43	1609.70
414.63	1544.17
414.84	1517.54
415.05	1529.83
415.25	1480.68
415.46	1564.65
415.67	1511.40
415.87	1658.85
416.08	1595.37
416.29	1462.25
416.49	1581.03
416.70	1513.45
416.91	1533.93
417.11	1492.97
417.32	1638.38
417.53	1648.61
417.73	1535.98
417.94	1521.64
418.15	1562.60
418.35	1589.22
418.56	1538.02
418.77	1703.91
418.97	1562.60
419.18	1517.54
419.38	1466.35
419.59	1474.54
419.80	1562.60
420.00	1574.89
420.21	1484.78
420.42	1578.98
420.62	1615.85
420.83	1466.35
421.04	1462.25
421.24	1521.64
421.45	1515.50
421.65	1560.55
421.86	1587.18
422.07	1613.80
422.27	1585.13
422.48	1533.93
422.69	1517.54
422.89	1570.79
423.10	1548.26
423.30	1499.11
423.51	1535.98
423.72	1570.79
423.92	1560.55
424.13	1515.50
424.33	1548.26
424.54	1603.56
424.75	1509.35
424.95	1615.85
425.16	1566.70
425.36	1486.83
425.57	1570.79
425.78	1503.21
425.98	1599.46
426.19	1521.64
426.39	1505.26
426.60	1558.50
426.81	1599.46
427.01	1576.94
427.22	1484.78
427.42	1480.68
427.63	1554.41
427.83	1556.46
428.04	1560.55
428.25	1626.09
428.45	1619.94
428.66	1609.70
428.86	1550.31
429.07	1611.75
429.28	1599.46
429.48	1495.02
429.69	1593.32
429.89	1517.54
430.10	1552.36
430.30	1611.75
430.51	1581.03
430.71	1431.53
430.92	1480.68
431.13	1544.17
431.33	1599.46
431.54	1544.17
431.74	1658.85
431.95	1593.32
432.15	1509.35
432.36	1593.32
432.56	1525.74
432.77	1662.95
432.98	1566.70
433.18	1552.36
433.39	1525.74
433.59	1501.16
433.80	1621.99
434.00	1665.00
434.21	1497.07
434.41	1509.35
434.62	1589.22
434.82	1525.74
435.03	1480.68
435.23	1505.26
435.44	1452.01
435.64	1558.50
435.85	1638.38
436.06	1581.03
436.26	1548.26
436.47	1564.65
436.67	1540.07
436.88	1548.26
437.08	1681.38
437.29	1621.99
437.49	1554.41
437.70	1650.66
437.90	1685.48
438.11	1583.08
438.31	1626.09
438.52	1669.09
438.72	1761.25
438.93	1740.77
439.13	1585.13
439.34	1628.14
439.54	1589.22
439.75	1585.13
439.95	1585.13
440.16	1578.98
440.36	1603.56
440.57	1576.94
440.77	1564.65
440.98	1572.84
441.18	1638.38
441.39	1474.54
441.59	1396.71
441.80	1636.33
442.00	1636.33
442.21	1593.32
442.41	1538.02
442.62	1601.51
442.82	1581.03
443.02	1550.31
443.23	1576.94
443.43	1583.08
443.64	1642.47
443.84	1560.55
444.05	1679.33
444.25	1472.49
444.46	1550.31
444.66	1564.65
444.87	1548.26
445.07	1421.29
445.28	1540.07
445.48	1558.50
445.69	1603.56
445.89	1650.66
446.09	1560.55
446.30	1966.05
446.50	3262.41
446.71	4491.20
446.91	5273.52
447.12	5715.88
447.32	5515.18
447.53	4612.03
447.73	4001.73
447.93	3719.11
448.14	3358.67
448.34	3243.98
448.55	2985.94
448.75	2869.20
448.96	2723.80
449.16	2459.61
449.36	2277.34
449.57	2033.63
449.77	1718.25
449.98	1626.09
450.18	1671.14
450.39	1585.13
450.59	1574.89
450.79	1566.70
451.00	1517.54
451.20	1570.79
451.41	1560.55
451.61	1613.80
451.81	1558.50
452.02	1525.74
452.22	1566.70
452.43	1499.11
452.63	1501.16
452.84	1578.98
453.04	1546.22
453.24	1482.73
453.45	1519.59
453.65	1560.55
453.86	1484.78
454.06	1560.55
454.26	1533.93
454.47	1523.69
454.67	1607.66
454.87	1544.17
455.08	1497.07
455.28	1624.04
455.49	1558.50
455.69	1458.15
455.89	1662.95
456.10	1583.08
456.30	1501.16
456.51	1488.87
456.71	1556.46
456.91	1538.02
457.12	1533.93
457.32	1566.70
457.52	1533.93
457.73	1501.16
457.93	1552.36
458.14	1617.90
458.34	1460.20
458.54	1476.59
458.75	1492.97
458.95	1564.65
459.15	1566.70
459.36	1568.74
459.56	1640.42
459.76	1611.75
459.97	1576.94
460.17	1517.54
460.37	1574.89
460.58	1505.26
460.78	1535.98
460.99	1517.54
461.19	1478.63
461.39	1601.51
461.60	1583.08
461.80	1568.74
462.00	1558.50
462.21	1458.15
462.41	1476.59
462.61	1492.97
462.82	1509.35
463.02	1591.27
463.22	1484.78
463.43	1550.31
463.63	1552.36
463.83	1648.61
464.04	1599.46
464.24	1554.41
464.44	1472.49
464.64	1490.92
464.85	1632.23
465.05	1628.14
465.25	1568.74
465.46	1558.50
465.66	1558.50
465.86	1538.02
466.07	1523.69
466.27	1480.68
466.47	1513.45
466.68	1476.59
466.88	1609.70
467.08	1540.07
467.29	1566.70
467.49	1624.04
467.69	1601.51
467.89	1552.36
468.10	1464.30
468.30	1533.93
468.50	1599.46
468.71	1574.89
468.91	1454.06
469.11	1589.22
469.31	1488.87
469.52	1521.64
469.72	1595.37
469.92	1615.85
470.13	1581.03
470.33	1603.56
470.53	1681.38
470.73	2047.97
470.94	2375.64
471.14	2428.89
471.34	2656.22
471.54	2443.23
471.75	2133.98
471.95	2068.45
472.15	2033.63
472.36	2078.69
472.56	1947.62
472.76	1890.28
472.96	1877.99
473.17	1816.55
473.37	1767.40
473.57	1679.33
473.77	1683.43
473.98	1542.12
474.18	1576.94
474.38	1689.57
474.58	1515.50
474.79	1550.31
474.99	1568.74
475.19	1617.90
475.39	1490.92
475.60	1619.94
475.80	1550.31
476.00	1540.07
476.20	1511.40
476.41	1529.83
476.61	1617.90
476.81	1609.70
477.01	1437.67
477.21	1624.04
477.42	1533.93
477.62	1535.98
477.82	1665.00
478.02	1497.07
478.23	1578.98
478.43	1482.73
478.63	1507.30
478.83	1634.28
479.03	1581.03
479.24	1593.32
479.44	1632.23
479.64	1529.83
479.84	1503.21
480.04	1460.20
480.25	1601.51
480.45	1558.50
480.65	1482.73
480.85	1624.04
481.06	1589.22
481.26	1642.47
481.46	1527.78
481.66	1578.98
481.86	1484.78
482.06	1572.84
482.27	1556.46
482.47	1570.79
482.67	1570.79
482.87	1488.87
483.07	1556.46
483.28	1507.30
483.48	1447.91
483.68	1517.54
483.88	1509.35
484.08	1507.30
484.29	1509.35
484.49	1443.82
484.69	1445.87
484.89	1574.89
485.09	1593.32
485.29	1591.27
485.50	1603.56
485.70	1492.97
485.90	1609.70
486.10	1585.13
486.30	1527.78
486.50	1609.70
486.71	1511.40
486.91	1533.93
487.11	1607.66
487.31	1476.59
487.51	1554.41
487.71	1490.92
487.91	1511.40
488.12	1529.83
488.32	1368.04
488.52	1517.54
488.72	1464.30
488.92	1564.65
489.12	1568.74
489.32	1570.79
489.53	1566.70
489.73	1478.63
489.93	1621.99
490.13	1484.78
490.33	1435.63
490.53	1540.07
490.73	1658.85
490.94	1474.54
491.14	1591.27
491.34	1720.29
491.54	2152.42
491.74	2688.98
491.94	3108.82
492.14	3217.36
492.34	3198.93
492.54	2799.57
492.75	2504.67
492.95	2349.02
493.15	2242.53
493.35	2185.18
493.55	2154.46
493.75	2033.63
493.95	2047.97
494.15	1869.80
494.35	1865.70
494.56	1718.25
494.76	1628.14
494.96	1697.77
495.16	1546.22
495.36	1564.65
495.56	1509.35
495.76	1546.22
495.96	1593.32
496.16	1497.07
496.36	1574.89
496.56	1574.89
496.77	1562.60
496.97	1597.42
497.17	1570.79
497.37	1511.40
497.57	1525.74
497.77	1468.39
497.97	1488.87
498.17	1566.70
498.37	1523.69
498.57	1607.66
498.77	1501.16
498.97	1603.56
499.17	1609.70
499.38	1542.12
499.58	1591.27
499.78	1650.66
499.98	1626.09
500.18	1552.36
500.38	1597.42
500.58	1775.59
500.78	2793.43
500.98	5152.69
501.18	6653.85
501.38	8105.86
501.58	8783.74
501.78	8146.82
501.98	6188.96
502.18	5156.79
502.38	4601.79
502.58	4206.53
502.78	3809.22
502.98	3616.71
503.18	3588.04
503.38	3461.07
503.59	3002.32
503.79	2805.72
503.99	2512.86
504.19	2287.58
504.39	2209.76
504.59	2027.49
504.79	2090.98
504.99	1947.62
505.19	1779.68
505.39	1689.57
505.59	1777.64
505.79	1660.90
505.99	1660.90
506.19	1595.37
506.39	1613.80
506.59	1624.04
506.79	1628.14
506.99	1615.85
507.19	1554.41
507.39	1554.41
507.59	1462.25
507.79	1531.88
507.99	1566.70
508.19	1576.94
508.39	1478.63
508.59	1509.35
508.79	1578.98
508.99	1621.99
509.19	1400.81
509.39	1550.31
509.59	1482.73
509.79	1511.40
509.99	1601.51
510.19	1585.13
510.39	1603.56
510.59	1570.79
510.79	1529.83
510.99	1531.88
511.19	1550.31
511.39	1607.66
511.59	1554.41
511.79	1646.57
511.99	1507.30
512.19	1548.26
512.38	1578.98
512.58	1425.39
512.78	1552.36
512.98	1603.56
513.18	1570.79
513.38	1468.39
513.58	1562.60
513.78	1490.92
513.98	1519.59
514.18	1478.63
514.38	1570.79
514.58	1507.30
514.78	1566.70
514.98	1492.97
515.18	1478.63
515.38	1490.92
515.58	1607.66
515.78	1576.94
515.98	1527.78
516.18	1550.31
516.38	1456.11
516.57	1454.06
516.77	1515.50
516.97	1560.55
517.17	1523.69
517.37	1454.06
517.57	1632.23
517.77	1503.21
517.97	1490.92
518.17	1562.60
518.37	1501.16
518.57	1488.87
518.77	1505.26
518.97	1533.93
519.16	1574.89
519.36	1589.22
519.56	1458.15
519.76	1535.98
519.96	1548.26
520.16	1556.46
520.36	1505.26
520.56	1585.13
520.76	1562.60
520.96	1566.70
521.16	1642.47
521.35	1552.36
521.55	1578.98
521.75	1568.74
521.95	1572.84
522.15	1523.69
522.35	1452.01
522.55	1531.88
522.75	1499.11
522.95	1570.79
523.14	1574.89
523.34	1554.41
523.54	1517.54
523.74	1583.08
523.94	1544.17
524.14	1478.63
524.34	1621.99
524.54	1654.76
524.73	1511.40
524.93	1546.22
525.13	1495.02
525.33	1611.75
525.53	1656.81
525.73	1505.26
525.93	1509.35
526.13	1517.54
526.32	1527.78
526.52	1556.46
526.72	1535.98
526.92	1527.78
527.12	1564.65
527.32	1476.59
527.52	1583.08
527.71	1492.97
527.91	1587.18
528.11	1478.63
528.31	1576.94
528.51	1525.74
528.71	1550.31
528.90	1542.12
529.10	1574.89
529.30	1607.66
529.50	1415.15
529.70	1529.83
529.90	1484.78
530.09	1560.55
530.29	1472.49
530.49	1492.97
530.69	1654.76
530.89	1568.74
531.09	1554.41
531.28	1503.21
531.48	1613.80
531.68	1513.45
531.88	1505.26
532.08	1595.37
532.28	1503.21
532.47	1607.66
532.67	1617.90
532.87	1554.41
533.07	1501.16
533.27	1626.09
533.46	1581.03
533.66	1525.74
533.86	1587.18
534.06	1574.89
534.26	1568.74
534.45	1572.84
534.65	1656.81
534.85	1578.98
535.05	1482.73
535.25	1605.61
535.44	1480.68
535.64	1607.66
535.84	1495.02
536.04	1515.50
536.24	1501.16
536.43	1476.59
536.63	1566.70
536.83	1554.41
537.03	1562.60
537.22	1480.68
537.42	1404.91
537.62	1462.25
537.82	1527.78
538.02	1599.46
538.21	1634.28
538.41	1662.95
538.61	1566.70
538.81	1589.22
539.00	1593.32
539.20	1464.30
539.40	1490.92
539.60	1556.46
539.79	1550.31
539.99	1591.27
540.19	1454.06
540.39	1497.07
540.58	1591.27
540.78	1636.33
540.98	1617.90
541.18	1542.12
541.37	1587.18
541.57	1544.17
541.77	1607.66
541.97	1527.78
542.16	1435.63
542.36	1523.69
542.56	1552.36
542.76	1601.51
542.95	1572.84
543.15	1589.22
543.35	1540.07
543.54	1437.67
543.74	1587.18
543.94	1562.60
544.14	1460.20
544.33	1476.59
544.53	1456.11
544.73	1480.68
544.93	1525.74
545.12	1552.36
545.32	1632.23
545.52	1540.07
545.71	1515.50
545.91	1519.59
546.11	1595.37
546.30	1507.30
546.50	1505.26
546.70	1490.92
546.90	1533.93
547.09	1437.67
547.29	1546.22
547.49	1572.84
547.68	1597.42
547.88	1503.21
548.08	1572.84
548.27	1898.47
548.47	1574.89
548.67	1523.69
548.87	1550.31
549.06	1538.02
549.26	1597.42
549.46	1476.59
549.65	1468.39
549.85	1576.94
550.05	1527.78
550.24	1437.67
550.44	1624.04
550.64	1535.98
550.83	1583.08
551.03	1560.55
551.23	1535.98
551.42	1587.18
551.62	1624.04
551.82	1560.55
552.01	1548.26
552.21	1599.46
552.41	1558.50
552.60	1509.35
552.80	1478.63
553.00	1593.32
553.19	1540.07
553.39	1570.79
553.59	1476.59
553.78	1619.94
553.98	1509.35
554.17	1523.69
554.37	1556.46
554.57	1607.66
554.76	1556.46
554.96	1413.10
555.16	1578.98
555.35	1544.17
555.55	1560.55
555.75	1572.84
555.94	1593.32
556.14	1447.91
556.33	1556.46
556.53	1621.99
556.73	1527.78
556.92	1583.08
557.12	1558.50
557.32	1619.94
557.51	1587.18
557.71	1585.13
557.90	1632.23
558.10	1583.08
558.30	1578.98
558.49	1568.74
558.69	1548.26
558.88	1558.50
559.08	1574.89
559.28	1589.22
559.47	1560.55
559.67	1527.78
559.86	1585.13
560.06	1513.45
560.26	1574.89
560.45	1552.36
560.65	1568.74
560.84	1562.60
561.04	1484.78
561.24	1490.92
561.43	1550.31
561.63	1638.38
561.82	1519.59
562.02	1550.31
562.22	1495.02
562.41	1447.91
562.61	1550.31
562.80	1404.91
563.00	1646.57
563.19	1568.74
563.39	1609.70
563.59	1589.22
563.78	1570.79
563.98	1449.96
564.17	1505.26
564.37	1439.72
564.56	1560.55
564.76	1492.97
564.96	1630.18
565.15	1611.75
565.35	1626.09
565.54	1503.21
565.74	1650.66
565.93	1460.20
566.13	1574.89
566.32	1572.84
566.52	1568.74
566.71	1595.37
566.91	1525.74
567.11	1544.17
567.30	1535.98
567.50	1636.33
567.69	1617.90
567.89	1603.56
568.08	1509.35
568.28	1572.84
568.47	1548.26
568.67	1484.78
568.86	1486.83
569.06	1576.94
569.25	1550.31
569.45	1548.26
569.64	1538.02
569.84	1503.21
570.04	1562.60
570.23	1583.08
570.43	1574.89
570.62	1560.55
570.82	1599.46
571.01	1509.35
571.21	1476.59
571.40	1497.07
571.60	1554.41
571.79	1642.47
571.99	1581.03
572.18	1478.63
572.38	1585.13
572.57	1509.35
572.77	1533.93
572.96	1722.34
573.16	1599.46
573.35	1609.70
573.55	1601.51
573.74	1490.92
573.94	1503.21
574.13	1509.35
574.33	1542.12
574.52	1583.08
574.71	1589.22
574.91	1599.46
575.10	1566.70
575.30	1538.02
575.49	1558.50
575.69	1560.55
575.88	1568.74
576.08	1638.38
576.27	1654.76
576.47	1585.13
576.66	1755.11
576.86	1636.33
577.05	1595.37
577.25	1691.62
577.44	1683.43
577.64	1519.59
577.83	1552.36
578.02	1591.27
578.22	1642.47
578.41	1710.05
578.61	1535.98
578.80	1538.02
579.00	1570.79
579.19	1519.59
579.39	1560.55
579.58	1587.18
579.77	1665.00
579.97	1642.47
580.16	1703.91
580.36	1603.56
580.55	1654.76
580.75	1632.23
580.94	1638.38
581.13	1710.05
581.33	1722.34
581.52	1634.28
581.72	1732.58
581.91	1617.90
582.11	1576.94
582.30	1658.85
582.49	1593.32
582.69	1671.14
582.88	1630.18
583.08	1683.43
583.27	1632.23
583.47	1581.03
583.66	1554.41
583.85	1574.89
584.05	1603.56
584.24	1589.22
584.44	1626.09
584.63	1689.57
584.82	1722.34
585.02	1738.73
585.21	1736.68
585.41	1763.30
585.60	1703.91
585.79	1837.03
585.99	1851.36
586.18	1775.59
586.37	1984.48
586.57	3172.30
586.76	9230.20
586.96	27465.31
587.15	43949.41
587.34	54539.46
587.54	61815.89
587.73	59382.90
587.93	43810.15
588.12	32226.84
588.31	25820.79
588.51	22275.76
588.70	19979.98
588.89	18237.16
589.09	16983.80
589.28	15163.16
589.47	13158.20
589.67	11114.33
589.86	9021.30
590.06	6776.73
590.25	5150.64
590.44	3807.17
590.64	2801.62
590.83	2412.51
591.02	2146.27
591.22	1845.22
591.41	1738.73
591.60	1660.90
591.80	1826.79
591.99	1687.53
592.18	1689.57
592.38	1656.81
592.57	1570.79
592.76	1521.64
592.96	1572.84
593.15	1587.18
593.34	1583.08
593.54	1558.50
593.73	1601.51
593.92	1597.42
594.12	1681.38
594.31	1648.61
594.50	1646.57
594.70	1722.34
594.89	1718.25
595.08	1464.30
595.28	1535.98
595.47	1730.53
595.66	1601.51
595.86	1470.44
596.05	1591.27
596.24	1576.94
596.43	1626.09
596.63	1638.38
596.82	1619.94
597.01	1587.18
597.21	1681.38
597.40	1626.09
597.59	1546.22
597.79	1511.40
597.98	1667.05
598.17	1611.75
598.36	1546.22
598.56	1669.09
598.75	1495.02
598.94	1564.65
599.14	1560.55
599.33	1562.60
599.52	1593.32
599.71	1634.28
599.91	1566.70
600.10	1646.57
600.29	1613.80
600.48	1550.31
600.68	1607.66
600.87	1478.63
601.06	1519.59
601.26	1527.78
601.45	1599.46
601.64	1556.46
601.83	1607.66
602.03	1509.35
602.22	1552.36
602.41	1578.98
602.60	1638.38
602.80	1597.42
602.99	1570.79
603.18	1533.93
603.37	1554.41
603.57	1568.74
603.76	1601.51
603.95	1607.66
604.14	1605.61
604.34	1558.50
604.53	1535.98
604.72	1560.55
604.91	1509.35
605.10	1560.55
605.30	1437.67
605.49	1624.04
605.68	1581.03
605.87	1656.81
606.07	1488.87
606.26	1507.30
606.45	1599.46
606.64	1615.85
606.84	1546.22
607.03	1521.64
607.22	1626.09
607.41	1531.88
607.60	1591.27
607.80	1558.50
607.99	1587.18
608.18	1501.16
608.37	1507.30
608.56	1535.98
608.76	1550.31
608.95	1665.00
609.14	1634.28
609.33	1597.42
609.52	1677.29
609.72	1624.04
609.91	1724.39
610.10	1630.18
610.29	1679.33
610.48	1601.51
610.68	1615.85
610.87	1556.46
611.06	1617.90
611.25	1583.08
611.44	1624.04
611.63	1595.37
611.83	1564.65
612.02	1462.25
612.21	1605.61
612.40	1464.30
612.59	1511.40
612.79	1550.31
612.98	1570.79
613.17	1581.03
613.36	1589.22
613.55	1712.10
613.74	1632.23
613.93	1652.71
614.13	1761.25
614.32	1718.25
614.51	1703.91
614.70	1636.33
614.89	1587.18
615.08	1681.38
615.28	1841.12
615.47	1587.18
615.66	1675.24
615.85	1572.84
616.04	1652.71
616.23	1548.26
616.42	1621.99
616.62	1613.80
616.81	1705.96
617.00	1558.50
617.19	1558.50
617.38	1593.32
617.57	1595.37
617.76	1628.14
617.95	1603.56
618.15	1603.56
618.34	1615.85
618.53	1535.98
618.72	1538.02
618.91	1574.89
619.10	1656.81
619.29	1558.50
619.48	1445.87
619.68	1527.78
619.87	1544.17
620.06	1540.07
620.25	1574.89
620.44	1574.89
620.63	1535.98
620.82	1617.90
621.01	1554.41
621.20	1583.08
621.39	1564.65
621.59	1572.84
621.78	1597.42
621.97	1570.79
622.16	1550.31
622.35	1671.14
622.54	1556.46
622.73	1568.74
622.92	1480.68
623.11	1568.74
623.30	1529.83
623.49	1509.35
623.68	1556.46
623.88	1599.46
624.07	1609.70
624.26	1533.93
624.45	1511.40
624.64	1601.51
624.83	1609.70
625.02	1501.16
625.21	1566.70
625.40	1511.40
625.59	1607.66
625.78	1570.79
625.97	1548.26
626.16	1578.98
626.35	1570.79
626.54	1646.57
626.74	1611.75
626.93	1570.79
627.12	1562.60
627.31	1638.38
627.50	1587.18
627.69	1619.94
627.88	1499.11
628.07	1527.78
628.26	1484.78
628.45	1546.22
628.64	1511.40
628.83	1581.03
629.02	1533.93
629.21	1583.08
629.40	1548.26
629.59	1566.70
629.78	1599.46
629.97	1503.21
630.16	1529.83
630.35	1505.26
630.54	1601.51
630.73	1544.17
630.92	1560.55
631.11	1492.97
631.30	1540.07
631.49	1611.75
631.68	1509.35
631.87	1574.89
632.06	1556.46
632.25	1751.01
632.44	1595.37
632.63	1509.35
632.82	1601.51
633.01	1583.08
633.20	1671.14
633.39	1634.28
633.58	1585.13
633.77	1615.85
633.96	1542.12
634.15	1630.18
634.34	1665.00
634.53	1665.00
634.72	1574.89
634.91	1499.11
635.10	1613.80
635.29	1611.75
635.48	1552.36
635.67	1507.30
635.86	1490.92
636.05	1538.02
636.24	1497.07
636.43	1570.79
636.62	1538.02
636.81	1488.87
637.00	1495.02
637.19	1523.69
637.38	1556.46
637.57	1554.41
637.76	1607.66
637.95	1605.61
638.14	1669.09
638.33	1603.56
638.52	1583.08
638.71	1564.65
638.89	1552.36
639.08	1656.81
639.27	1626.09
639.46	1634.28
639.65	1867.75
639.84	2037.73
640.03	2074.59
640.22	2228.19
640.41	2222.05
640.60	1920.99
640.79	1906.66
640.98	1814.50
641.17	1755.11
641.36	1734.63
641.55	1767.40
641.74	1632.23
641.92	1558.50
642.11	1638.38
642.30	1599.46
642.49	1574.89
642.68	1570.79
642.87	1607.66
643.06	1578.98
643.25	1550.31
643.44	1540.07
643.63	1476.59
643.82	1650.66
644.00	1542.12
644.19	1552.36
644.38	1486.83
644.57	1527.78
644.76	1562.60
644.95	1521.64
645.14	1527.78
645.33	1478.63
645.52	1535.98
645.71	1445.87
645.89	1519.59
646.08	1511.40
646.27	1460.20
646.46	1632.23
646.65	1509.35
646.84	1490.92
647.03	1613.80
647.22	1591.27
647.40	1640.42
647.59	1486.83
647.78	1492.97
647.97	1531.88
648.16	1454.06
648.35	1615.85
648.54	1652.71
648.73	1525.74
648.91	1544.17
649.10	1609.70
649.29	1560.55
649.48	1556.46
649.67	1529.83
649.86	1585.13
650.05	1552.36
650.23	1734.63
650.42	1630.18
650.61	1740.77
650.80	1652.71
650.99	1849.32
651.18	1605.61
651.36	1720.29
651.55	1568.74
651.74	1617.90
651.93	1613.80
652.12	1591.27
652.31	1519.59
652.49	1601.51
652.68	1554.41
652.87	1644.52
653.06	1624.04
653.25	1740.77
653.44	1599.46
653.62	1626.09
653.81	1585.13
654.00	1601.51
654.19	1535.98
654.38	1648.61
654.56	1619.94
654.75	1548.26
654.94	1605.61
655.13	1495.02
655.32	1435.63
655.51	1595.37
655.69	1542.12
655.88	1525.74
656.07	1521.64
656.26	1507.30
656.45	1531.88
656.63	1525.74
656.82	1574.89
657.01	1568.74
657.20	1503.21
657.38	1613.80
657.57	1538.02
657.76	1466.35
657.95	1669.09
658.14	1492.97
658.32	1507.30
658.51	1505.26
658.70	1503.21
658.89	1490.92
659.08	1505.26
659.26	1615.85
659.45	1529.83
659.64	1611.75
659.83	1638.38
660.01	1753.06
660.20	1624.04
660.39	1675.24
660.58	1470.44
660.76	1605.61
660.95	1525.74
661.14	1538.02
661.33	1599.46
661.51	1550.31
661.70	1497.07
661.89	1617.90
662.08	1554.41
662.26	1515.50
662.45	1523.69
662.64	1640.42
662.83	1628.14
663.01	1542.12
663.20	1523.69
663.39	1490.92
663.58	1523.69
663.76	1572.84
663.95	1589.22
664.14	1552.36
664.32	1529.83
664.51	1527.78
664.70	1468.39
664.89	1525.74
665.07	1443.82
665.26	1554.41
665.45	1443.82
665.64	1648.61
665.82	1560.55
666.01	1609.70
666.20	1533.93
666.38	1642.47
666.57	1648.61
666.76	1755.11
666.95	2924.50
667.13	7399.31
667.32	15300.37
667.51	19928.78
667.69	23512.73
667.88	25458.30
668.07	22030.00
668.25	15759.12
668.44	12552.00
668.63	9994.09
668.81	8718.20
669.00	7706.51
669.19	7182.23
669.38	6279.07
669.56	5578.67
669.75	4886.45
669.94	4206.53
670.12	3456.97
670.31	2840.53
670.50	2402.27
670.68	2039.78
670.87	1871.84
671.06	1779.68
671.24	1697.77
671.43	1705.96
671.62	1585.13
671.80	1599.46
671.99	1630.18
672.18	1597.42
672.36	1626.09
672.55	1583.08
672.74	1650.66
672.92	1540.07
673.11	1570.79
673.29	1525.74
673.48	1656.81
673.67	1531.88
673.85	1554.41
674.04	1509.35
674.23	1552.36
674.41	1607.66
674.60	1435.63
674.79	1452.01
674.97	1572.84
675.16	1599.46
675.34	1648.61
675.53	1540.07
675.72	1568.74
675.90	1685.48
676.09	1554.41
676.28	1564.65
676.46	1558.50
676.65	1525.74
676.83	1456.11
677.02	1529.83
677.21	1513.45
677.39	1583.08
677.58	1540.07
677.77	1585.13
677.95	1546.22
678.14	1499.11
678.32	1587.18
678.51	1546.22
678.70	1624.04
678.88	1515.50
679.07	1542.12
679.25	1552.36
679.44	1546.22
679.63	1554.41
679.81	1497.07
680.00	1589.22
680.18	1611.75
680.37	1556.46
680.55	1583.08
680.74	1499.11
680.93	1443.82
681.11	1572.84
681.30	1497.07
681.48	1538.02
681.67	1517.54
681.85	1583.08
682.04	1466.35
682.23	1585.13
682.41	1558.50
682.60	1458.15
682.78	1554.41
682.97	1519.59
683.15	1492.97
683.34	1488.87
683.53	1535.98
683.71	1478.63
683.90	1581.03
684.08	1605.61
684.27	1490.92
684.45	1488.87
684.64	1593.32
684.82	1476.59
685.01	1599.46
685.19	1531.88
685.38	1632.23
685.57	1576.94
685.75	1454.06
685.94	1562.60
686.12	1540.07
686.31	1560.55
686.49	1626.09
686.68	1509.35
686.86	1624.04
687.05	1472.49
687.23	1640.42
687.42	1540.07
687.60	1433.58
687.79	1576.94
687.97	1595.37
688.16	1617.90
688.34	1652.71
688.53	1468.39
688.71	1540.07
688.90	1619.94
689.08	1523.69
689.27	1501.16
689.45	1550.31
689.64	1607.66
689.82	1597.42
690.01	1560.55
690.19	1572.84
690.38	1548.26
690.56	1587.18
690.75	1509.35
690.93	1472.49
691.12	1535.98
691.30	1517.54
691.49	1497.07
691.67	1513.45
691.86	1621.99
692.04	1597.42
692.23	1505.26
692.41	1568.74
692.60	1714.15
692.78	1716.20
692.97	1560.55
693.15	1669.09
693.34	1591.27
693.52	1638.38
693.71	1570.79
693.89	1556.46
694.08	1583.08
694.26	1578.98
694.44	1538.02
694.63	1497.07
694.81	1529.83
695.00	1492.97
695.18	1611.75
695.37	1693.67
695.55	1605.61
695.74	1513.45
695.92	1464.30
696.10	1568.74
696.29	1535.98
696.47	1517.54
696.66	1447.91
696.84	1454.06
697.03	1527.78
697.21	1611.75
697.40	2033.63
697.58	1570.79
697.76	1488.87
697.95	1538.02
698.13	1482.73
698.32	1478.63
698.50	1576.94
698.68	1544.17
698.87	1509.35
699.05	1568.74
699.24	1560.55
699.42	1533.93
699.61	1544.17
699.79	1578.98
699.97	1564.65
700.16	1447.91
700.34	1474.54
700.53	1587.18
700.71	1552.36
700.89	1505.26
701.08	1486.83
701.26	1497.07
701.45	1845.22
701.63	1511.40
701.81	1617.90
702.00	1578.98
702.18	1578.98
702.37	1525.74
702.55	1658.85
702.73	1771.49
702.92	1677.29
703.10	1853.41
703.28	1873.89
703.47	1757.16
703.65	1746.92
703.84	1683.43
704.02	1640.42
704.20	1748.97
704.39	1626.09
704.57	1673.19
704.75	1720.29
704.94	1712.10
705.12	1593.32
705.30	1613.80
705.49	1810.40
705.67	2895.83
705.86	7325.58
706.04	14290.73
706.22	18700.00
706.41	21345.98
706.59	22884.00
706.77	20997.82
706.96	14595.87
707.14	11827.02
707.32	9807.72
707.51	8683.39
707.69	7516.05
707.87	6825.88
708.06	5717.93
708.24	4827.06
708.42	3772.36
708.61	3006.42
708.79	2252.77
708.97	2013.15
709.16	1888.23
709.34	1765.35
709.52	1695.72
709.71	1642.47
709.89	1720.29
710.07	1468.39
710.26	1538.02
710.44	1556.46
710.62	1595.37
710.80	1490.92
710.99	1593.32
711.17	1538.02
711.35	1505.26
711.54	1568.74
711.72	1568.74
711.90	1505.26
712.09	1578.98
712.27	1544.17
712.45	1624.04
712.63	1550.31
712.82	1548.26
713.00	1548.26
713.18	1558.50
713.37	1572.84
713.55	1523.69
713.73	1542.12
713.91	1587.18
714.10	1527.78
714.28	1495.02
714.46	1570.79
714.65	1529.83
714.83	1497.07
715.01	1531.88
715.19	1509.35
715.38	1533.93
715.56	1515.50
715.74	1535.98
715.92	1462.25
716.11	1613.80
716.29	1439.72
716.47	1517.54
716.65	1566.70
716.84	1525.74
717.02	1615.85
717.20	1425.39
717.38	1488.87
717.57	1630.18
717.75	1583.08
717.93	1570.79
718.11	1523.69
718.30	1495.02
718.48	1576.94
718.66	1578.98
718.84	1595.37
719.03	1535.98
719.21	1546.22
719.39	1535.98
719.57	1576.94
719.75	1568.74
719.94	1501.16
720.12	1527.78
720.30	1578.98
720.48	1603.56
720.67	1482.73
720.85	1505.26
721.03	1425.39
721.21	1462.25
721.39	1626.09
721.58	1601.51
721.76	1640.42
721.94	1587.18
722.12	1550.31
722.30	1624.04
722.49	1581.03
722.67	1597.42
722.85	1583.08
723.03	1490.92
723.21	1581.03
723.40	1583.08
723.58	1585.13
723.76	1578.98
723.94	1566.70
724.12	1640.42
724.30	1671.14
724.49	1613.80
724.67	1560.55
724.85	1689.57
725.03	1550.31
725.21	1615.85
725.40	1611.75
725.58	1589.22
725.76	1566.70
725.94	1591.27
726.12	1462.25
726.30	1515.50
726.49	1542.12
726.67	1521.64
726.85	1585.13
727.03	1566.70
727.21	1740.77
727.39	2166.75
727.57	3209.17
727.76	4300.73
727.94	4818.87
728.12	5242.80
728.30	5144.50
728.48	4351.93
728.66	3549.13
728.84	3178.45
729.03	2820.05
729.21	2691.03
729.39	2260.96
729.57	2056.16
729.75	1800.16
729.93	1861.60
730.11	1652.71
730.30	1540.07
730.48	1576.94
730.66	1693.67
730.84	1570.79
731.02	1456.11
731.20	1550.31
731.38	1533.93
731.56	1495.02
731.74	1546.22
731.93	1560.55
732.11	1449.96
732.29	1648.61
732.47	1527.78
732.65	1525.74
732.83	1599.46
733.01	1521.64
733.19	1515.50
733.37	1517.54
733.56	1505.26
733.74	1517.54
733.92	1609.70
734.10	1486.83
734.28	1519.59
734.46	1492.97
734.64	1636.33
734.82	1488.87
735.00	1538.02
735.18	1501.16
735.36	1523.69
735.54	1570.79
735.73	1576.94
735.91	1570.79
736.09	1593.32
736.27	1613.80
736.45	1587.18
736.63	1562.60
736.81	1505.26
736.99	1599.46
737.17	1613.80
737.35	1576.94
737.53	1470.44
737.71	1587.18
737.89	1583.08
738.07	1521.64
738.25	1515.50
738.43	1497.07
738.61	1454.06
738.80	1437.67
738.98	1468.39
739.16	1521.64
739.34	1474.54
739.52	1626.09
739.70	1511.40
739.88	1564.65
740.06	1585.13
740.24	1511.40
740.42	1624.04
740.60	1570.79
740.78	1519.59
740.96	1437.67
741.14	1482.73
741.32	1472.49
741.50	1431.53
741.68	1677.29
741.86	1546.22
742.04	1519.59
742.22	1492.97
742.40	1511.40
742.58	1515.50
742.76	1478.63
742.94	1570.79
743.12	1460.20
743.30	1507.30
743.48	1581.03
743.66	1505.26
743.84	1546.22
744.02	1550.31
744.20	1519.59
744.38	1474.54
744.56	1499.11
744.74	1570.79
744.92	1617.90
745.10	1660.90
745.28	1619.94
745.46	1605.61
745.64	1519.59
745.82	1538.02
746.00	1554.41
746.18	1527.78
746.36	1566.70
746.54	1540.07
746.72	1550.31
746.90	1533.93
747.08	1562.60
747.26	1507.30
747.44	1605.61
747.62	1495.02
747.80	1560.55
747.98	1578.98
748.15	1501.16
748.33	1513.45
748.51	1527.78
748.69	1583.08
748.87	1568.74
749.05	1621.99
749.23	1644.52
749.41	1570.79
749.59	1574.89
749.77	1609.70
749.95	1554.41
750.13	1511.40
750.31	1581.03
750.49	1544.17
750.67	1595.37
750.85	1605.61
751.03	1533.93
751.20	1683.43
751.38	1544.17
751.56	1501.16
751.74	1462.25
751.92	1517.54
752.10	1437.67
752.28	1517.54
752.46	1501.16
752.64	1546.22
752.82	1587.18
753.00	1533.93
753.18	1488.87
753.35	1509.35
753.53	1501.16
753.71	1615.85
753.89	1533.93
754.07	1529.83
754.25	1634.28
754.43	1611.75
754.61	1538.02
754.79	1550.31
754.97	1540.07
755.14	1568.74
755.32	1531.88
755.50	1523.69
755.68	1544.17
755.86	1544.17
756.04	1462.25
756.22	1472.49
756.40	1581.03
756.57	1669.09
756.75	1482.73
756.93	1585.13
757.11	1591.27
757.29	1433.58
757.47	1507.30
757.65	1490.92
757.82	1458.15
758.00	1447.91
758.18	1503.21
758.36	1439.72
758.54	1585.13
758.72	1492.97
758.90	1572.84
759.07	1488.87
759.25	1492.97
759.43	1558.50
759.61	1443.82
759.79	1925.09
759.97	1552.36
760.15	1587.18
760.32	1478.63
760.50	1482.73
760.68	1630.18
760.86	1542.12
761.04	1566.70
761.22	1540.07
761.39	1482.73
761.57	1533.93
761.75	1466.35
761.93	1591.27
762.11	1525.74
762.28	1519.59
762.46	1490.92
762.64	1552.36
762.82	1431.53
763.00	1470.44
763.18	1535.98
763.35	1527.78
763.53	1587.18
763.71	1542.12
763.89	1556.46
764.07	1540.07
764.24	1570.79
764.42	1527.78
764.60	1484.78
764.78	1513.45
764.96	1550.31
765.13	1605.61
765.31	1484.78
765.49	1578.98
765.67	1550.31
765.84	1566.70
766.02	1525.74
766.20	1441.77
766.38	1517.54
766.56	1603.56
766.73	1576.94
766.91	1558.50
767.09	1492.97
767.27	1599.46
767.44	1505.26
767.62	1589.22
767.80	1570.79
767.98	1486.83
768.15	1527.78
768.33	1544.17
768.51	1552.36
768.69	1490.92
768.87	1517.54
769.04	1542.12
769.22	1632.23
769.40	1613.80
769.58	1564.65
769.75	1562.60
769.93	1548.26
770.11	1529.83
770.28	1544.17
770.46	1519.59
770.64	1581.03
770.82	1492.97
770.99	1468.39
771.17	1535.98
771.35	1488.87
771.53	1452.01
771.70	1517.54
771.88	1562.60
772.06	1513.45
772.23	1540.07
772.41	1587.18
772.59	1490.92
772.77	1517.54
772.94	1501.16
773.12	1562.60
773.30	1535.98
773.47	1544.17
773.65	1503.21
773.83	1511.40
774.01	1550.31
774.18	1419.24
774.36	1544.17
774.54	1476.59
774.71	1517.54
774.89	1474.54
775.07	1531.88
775.24	1515.50
775.42	1501.16
775.60	1593.32
775.78	1468.39
775.95	1452.01
776.13	1415.15
776.31	1445.87
776.48	1558.50
776.66	1531.88
776.84	1503.21
777.01	1521.64
777.19	1495.02
777.37	1550.31
777.54	1546.22
777.72	1636.33
777.90	1566.70
778.07	1558.50
778.25	1656.81
778.43	1503.21
778.60	1482.73
778.78	1503.21
778.96	1599.46
779.13	1468.39
779.31	1540.07
779.49	1570.79
779.66	1474.54
779.84	1474.54
780.01	1589.22
780.19	1525.74
780.37	1535.98
780.54	1554.41
780.72	1554.41
780.90	1519.59
781.07	1576.94
781.25	1476.59
781.43	1550.31
781.60	1533.93
781.78	1585.13
781.95	1570.79
782.13	1480.68
782.31	1490.92
782.48	1439.72
782.66	1521.64
782.83	1624.04
783.01	1574.89
783.19	1619.94
783.36	1533.93
783.54	1540.07
783.72	1628.14
783.89	1472.49
784.07	1492.97
784.24	1544.17
784.42	1585.13
784.60	1546.22
784.77	1574.89
784.95	1482.73
785.12	1501.16
785.30	1609.70
785.47	1525.74
785.65	1505.26
785.83	1425.39
786.00	1458.15
786.18	1585.13
786.35	1503.21
786.53	1566.70
786.71	1581.03
786.88	1531.88
787.06	1544.17
787.23	1566.70
787.41	1507.30
787.58	1509.35
787.76	1470.44
787.94	1603.56
788.11	1492.97
788.29	1466.35
788.46	1552.36
788.64	1478.63
788.81	1482.73
788.99	1583.08
789.16	1505.26
789.34	1544.17
789.52	1517.54
789.69	1460.20
789.87	1443.82
790.04	1587.18
790.22	1556.46
790.39	1562.60
790.57	1548.26
790.74	1488.87
790.92	1568.74
791.09	1372.14
791.27	1527.78
791.44	1519.59
791.62	1576.94
791.79	1601.51
791.97	1611.75
792.15	1679.33
792.32	1572.84
792.50	1566.70
792.67	1662.95
792.85	1540.07
793.02	1527.78
793.20	1460.20
793.37	1456.11
793.55	1572.84
793.72	1441.77
793.90	1611.75
794.07	1456.11
794.25	1517.54
794.42	1529.83
794.60	1525.74
794.77	1583.08
794.95	1609.70
795.12	1601.51
795.30	1507.30
795.47	1468.39
795.65	1644.52
795.82	1607.66
796.00	1509.35
796.17	1570.79
796.34	1468.39
796.52	1525.74
796.69	1589.22
796.87	1578.98
797.04	1501.16
797.22	1560.55
797.39	1495.02
797.57	1546.22
797.74	1560.55
797.92	1523.69
798.09	1517.54
798.27	1552.36
798.44	1548.26
798.62	1499.11
798.79	1542.12
798.96	1570.79
799.14	1482.73
799.31	1632.23
799.49	1521.64
799.66	1501.16
799.84	1519.59
800.01	1452.01
800.19	1558.50
800.36	1466.35
800.53	1568.74
800.71	1587.18
800.88	1691.62
801.06	1478.63
801.23	1497.07
801.41	1476.59
801.58	1478.63
801.75	1581.03
801.93	1576.94
802.10	1535.98
802.28	1578.98
802.45	1525.74
802.63	1533.93
802.80	1523.69
802.97	1560.55
803.15	1466.35
803.32	1607.66
803.50	1501.16
803.67	1513.45
803.84	1521.64
804.02	1546.22
804.19	1439.72
804.37	1429.48
804.54	1515.50
804.71	1605.61
804.89	1605.61
805.06	1535.98
805.24	1511.40
805.41	1533.93
805.58	1474.54
805.76	1654.76
805.93	1511.40
806.10	1591.27
806.28	1542.12
806.45	1429.48
806.63	1509.35
806.80	1523.69
806.97	1472.49
807.15	1521.64
807.32	1480.68
807.49	1488.87
807.67	1454.06
807.84	1458.15
808.01	1437.67
808.19	1578.98
808.36	1693.67
808.54	1454.06
808.71	1458.15
808.88	1619.94
809.06	1619.94
809.23	1525.74
809.40	1517.54
809.58	1615.85
809.75	1501.16
809.92	1535.98
810.10	1642.47
810.27	1464.30
810.44	1599.46
810.62	1558.50
810.79	1519.59
810.96	1501.16
811.14	1517.54
811.31	1449.96
811.48	1525.74
811.66	1562.60
811.83	1589.22
812.00	1550.31
812.18	1497.07
812.35	1570.79
812.52	1560.55
812.69	1542.12
812.87	1546.22
813.04	1495.02
813.21	1548.26
813.39	1521.64
813.56	1501.16
813.73	1607.66
813.91	1470.44
814.08	1480.68
814.25	1570.79
814.42	1423.34
814.60	1511.40
814.77	1544.17
814.94	1538.02
815.12	1511.40
815.29	1560.55
815.46	1499.11
815.63	1495.02
815.81	1521.64
815.98	1509.35
816.15	1521.64
816.33	1605.61
816.50	1578.98
816.67	1538.02
816.84	1503.21
817.02	1466.35
817.19	1619.94
817.36	1527.78
817.53	1630.18
817.71	1540.07
817.88	1548.26
818.05	1464.30
818.22	1433.58
818.40	1624.04
818.57	1490.92
818.74	1515.50
818.91	1488.87
819.09	1564.65
819.26	1505.26
819.43	1490.92
819.60	1490.92
819.78	1552.36
819.95	1591.27
820.12	1525.74
820.29	1593.32
820.47	1564.65
820.64	1523.69
820.81	1544.17
820.98	1466.35
821.15	1466.35
821.33	1566.70
821.50	1501.16
821.67	1540.07
821.84	1490.92
822.02	1533.93
822.19	1591.27
822.36	1556.46
822.53	1495.02
822.70	1490.92
822.88	1492.97
823.05	1583.08
823.22	1544.17
823.39	1648.61
823.56	1544.17
823.74	1523.69
823.91	1513.45
824.08	1429.48
824.25	1435.63
824.42	1630.18
824.60	1544.17
824.77	1466.35
824.94	1468.39
825.11	1576.94
825.28	1474.54
825.45	1525.74
825.63	1578.98
825.80	1556.46
825.97	1556.46
826.14	1533.93
826.31	1452.01
826.48	1597.42
826.66	1445.87
826.83	1560.55
827.00	1523.69
827.17	1517.54
827.34	1521.64
827.51	1550.31
827.69	1605.61
827.86	1404.91
828.03	1509.35
828.20	1548.26
828.37	1515.50
828.54	1583.08
828.71	1482.73
828.89	1562.60
829.06	1497.07
829.23	1566.70
829.40	1443.82
829.57	1531.88
829.74	1546.22
829.91	1511.40
830.09	1501.16
830.26	1550.31
830.43	1578.98
830.60	1513.45
830.77	1583.08
830.94	1595.37
831.11	1593.32
831.28	1499.11
831.46	1554.41
831.63	1507.30
831.80	1562.60
831.97	1439.72
832.14	1511.40
832.31	1556.46
832.48	1595.37
832.65	1550.31
832.82	1632.23
832.99	1540.07
833.17	1533.93
833.34	1556.46
833.51	1560.55
833.68	1509.35
833.85	1492.97
834.02	1437.67
834.19	1535.98
834.36	1499.11
834.53	1540.07
834.70	1585.13
834.87	1617.90
835.04	1546.22
835.22	1470.44
835.39	1509.35
835.56	1542.12
835.73	1492.97
835.90	1601.51
836.07	1390.57
836.24	1603.56
836.41	1429.48
836.58	1419.24
836.75	1601.51
836.92	1562.60
837.09	1531.88
837.26	1583.08
837.43	1570.79
837.60	1538.02
837.77	1521.64
837.94	1546.22
838.12	1599.46
838.29	1581.03
838.46	1460.20
838.63	1507.30
838.80	1529.83
838.97	1617.90
839.14	1548.26
839.31	1490.92
839.48	1521.64
839.65	1540.07
839.82	1581.03
839.99	1538.02
840.16	1583.08
840.33	1468.39
840.50	1535.98
840.67	1490.92
840.84	1421.29
841.01	1611.75
841.18	1490.92
841.35	1462.25
841.52	1605.61
841.69	1628.14
841.86	1478.63
842.03	1462.25
842.20	1603.56
842.37	1525.74
842.54	1560.55
842.71	1468.39
842.88	1523.69
843.05	1593.32
843.22	1509.35
843.39	1630.18
843.56	1527.78
843.73	1527.78
843.90	1570.79
844.07	1484.78
844.24	1621.99
844.41	1628.14
844.58	1499.11
844.75	1466.35
844.92	1546.22
845.09	1480.68
845.26	1517.54
845.43	1546.22
845.60	1558.50
845.77	1566.70
845.94	1570.79
846.10	1599.46
846.27	1488.87
846.44	1449.96
846.61	1431.53
846.78	1544.17
846.95	1568.74
847.12	1492.97
847.29	1445.87
847.46	1507.30
847.63	1548.26
847.80	1470.44
847.97	1533.93
848.14	1591.27
848.31	1488.87
848.48	1398.76
848.65	1556.46
848.82	1523.69
848.98	1599.46
849.15	1542.12
849.32	1585.13
849.49	1572.84
849.66	1505.26
849.83	1626.09
850.00	1441.77
850.17	1525.74
850.34	1546.22
850.51	1501.16
850.68	1488.87
850.85	1632.23
851.01	1587.18
851.18	1589.22
851.35	1474.54
851.52	1562.60
851.69	1595.37
851.86	1505.26
852.03	1538.02
852.20	1533.93
852.37	1476.59
852.53	1419.24
852.70	1570.79
852.87	1542.12
853.04	1511.40
853.21	1501.16
853.38	1560.55
853.55	1548.26
853.72	1646.57
853.89	1509.35
854.05	1542.12
854.22	1503.21
854.39	1513.45
854.56	1490.92
854.73	1495.02
854.90	1509.35
855.07	1488.87
855.23	1501.16
855.40	1492.97
855.57	1533.93
855.74	1406.95
855.91	1652.71
856.08	1421.29
856.25	1503.21
856.41	1458.15
856.58	1550.31
856.75	1576.94
856.92	1462.25
857.09	1583.08
857.26	1415.15
857.42	1583.08
857.59	1564.65
857.76	1519.59
857.93	1546.22
858.10	1554.41
858.27	1462.25
858.43	1533.93
858.60	1497.07
858.77	1456.11
858.94	1492.97
859.11	1568.74
859.27	1564.65
859.44	1486.83
859.61	1597.42
859.78	1617.90
859.95	1527.78
860.12	1515.50
860.28	1669.09
860.45	1640.42
860.62	1540.07
860.79	1550.31
860.95	1486.83
861.12	1439.72
861.29	1570.79
861.46	1492.97
861.63	1525.74
861.79	1554.41
861.96	1452.01
862.13	1503.21
862.30	1490.92
862.47	1591.27
862.63	1517.54
862.80	1591.27
862.97	1562.60
863.14	1615.85
863.30	1509.35
863.47	1382.38
863.64	1538.02
863.81	1572.84
863.97	1529.83
864.14	1468.39
864.31	1509.35
864.48	1576.94
864.65	1562.60
864.81	1578.98
864.98	1525.74
865.15	1554.41
865.32	1599.46
865.48	1578.98
865.65	1533.93
865.82	1560.55
865.98	1556.46
866.15	1507.30
866.32	1505.26
866.49	1546.22
866.65	1624.04
866.82	1441.77
866.99	1509.35
867.16	1572.84
867.32	1560.55
867.49	1437.67
867.66	1503.21
867.83	1472.49
867.99	1482.73
868.16	1482.73
868.33	1423.34
868.49	1544.17
868.66	1546.22
868.83	1513.45
868.99	1509.35
869.16	1542.12
869.33	1587.18
869.50	1595.37
869.66	1544.17
869.83	1478.63
870.00	1490.92
870.16	1513.45
870.33	1523.69
870.50	1564.65
870.66	1527.78
870.83	1710.05
871.00	1490.92
871.17	1581.03
871.33	1578.98
871.50	1527.78
871.67	1484.78
871.83	1509.35
872.00	1574.89
872.17	1513.45
872.33	1636.33
872.50	1529.83
872.67	1597.42
872.83	1492.97
873.00	1609.70
873.17	1611.75
873.33	1560.55
873.50	1550.31
873.67	1509.35
873.83	1460.20
874.00	1574.89
874.16	1574.89
874.33	1538.02
874.50	1513.45
874.66	1558.50
874.83	1566.70
875.00	1595.37
875.16	1617.90
875.33	1585.13
875.50	1509.35
875.66	1488.87
875.83	1527.78
875.99	1632.23
876.16	1519.59
876.33	1513.45
876.49	1607.66
876.66	1519.59
876.83	1513.45
876.99	1449.96
877.16	1521.64
877.32	1566.70
877.49	1495.02
877.66	1540.07
877.82	1542.12
877.99	1531.88
878.15	1611.75
878.32	1566.70
878.49	1497.07
878.65	1533.93
878.82	1595.37
878.98	1484.78
879.15	1591.27
879.32	1540.07
879.48	1583.08
879.65	1566.70
879.81	1484.78
879.98	1503.21
880.15	1519.59
880.31	1576.94
880.48	1495.02
880.64	1527.78
880.81	1646.57
880.97	1634.28
881.14	1525.74
881.31	1468.39
881.47	1583.08
881.64	1490.92
881.80	1542.12
881.97	1513.45
882.13	1585.13
882.30	1583.08
882.47	1519.59
882.63	1509.35
882.80	1499.11
882.96	1554.41
883.13	1560.55
883.29	1523.69
883.46	1599.46
883.62	1624.04
883.79	1527.78
883.95	1552.36
884.12	1552.36
884.29	1574.89
884.45	1490.92
884.62	1556.46
884.78	1538.02
884.95	1517.54
885.11	1515.50
885.28	1628.14
885.44	1492.97
885.61	1548.26
885.77	1644.52
885.94	1517.54
886.10	1515.50
886.27	1531.88
886.43	1529.83
886.60	1581.03
886.76	1497.07
886.93	1460.20
887.09	1542.12
887.26	1460.20
887.42	1480.68
887.59	1638.38
887.75	1587.18
887.92	1679.33
888.08	1556.46
888.25	1613.80
888.41	1593.32
888.58	1458.15
888.74	1472.49
888.91	1513.45
>>>>>End Processed Spectral Data<<<<<
