SpectraSuite Data File
++++++++++++++++++++++++++++++++++++
Date: Tue May 03 12:55:07 CEST 2016
User: root
Dark Spectrum Present: No
Reference Spectrum Present: No
Number of Sampled Component Spectra: 1
Spectrometers: USB4C02835
Integration Time (usec): 100000 (USB4C02835)
Spectra Averaged: 1 (USB4C02835)
Boxcar Smoothing: 0 (USB4C02835)
Correct for Electrical Dark: No (USB4C02835)
Strobe/Lamp Enabled: No (USB4C02835)
Correct for Detector Non-linearity: No (USB4C02835)
Correct for Stray Light: No (USB4C02835)
Number of Pixels in Processed Spectrum: 3648
>>>>>Begin Processed Spectral Data<<<<<
177.47	1351.66
177.69	1351.66
177.91	1351.66
178.13	1349.61
178.36	1359.85
178.58	1546.22
178.80	1558.50
179.02	1458.15
179.24	1523.69
179.46	1523.69
179.68	1591.27
179.90	1458.15
180.13	1589.22
180.35	1486.83
180.57	1558.50
180.79	1585.13
181.01	1515.50
181.23	1540.07
181.45	1599.46
181.67	1578.98
181.90	1507.30
182.12	1439.72
182.34	1517.54
182.56	1605.61
182.78	1544.17
183.00	1611.75
183.22	1535.98
183.44	1423.34
183.66	1624.04
183.89	1576.94
184.11	1591.27
184.33	1535.98
184.55	1599.46
184.77	1642.47
184.99	1521.64
185.21	1488.87
185.43	1648.61
185.65	1566.70
185.87	1568.74
186.10	1576.94
186.32	1597.42
186.54	1599.46
186.76	1568.74
186.98	1638.38
187.20	1509.35
187.42	1533.93
187.64	1542.12
187.86	1507.30
188.08	1566.70
188.30	1523.69
188.52	1478.63
188.75	1634.28
188.97	1591.27
189.19	1486.83
189.41	1499.11
189.63	1482.73
189.85	1454.06
190.07	1515.50
190.29	1470.44
190.51	1525.74
190.73	1509.35
190.95	1560.55
191.17	1484.78
191.39	1484.78
191.61	1476.59
191.84	1593.32
192.06	1564.65
192.28	1540.07
192.50	1632.23
192.72	1585.13
192.94	1503.21
193.16	1576.94
193.38	1466.35
193.60	1554.41
193.82	1558.50
194.04	1587.18
194.26	1495.02
194.48	1613.80
194.70	1447.91
194.92	1501.16
195.14	1560.55
195.36	1484.78
195.58	1558.50
195.80	1488.87
196.02	1497.07
196.24	1427.43
196.46	1538.02
196.69	1515.50
196.91	1638.38
197.13	1499.11
197.35	1550.31
197.57	1556.46
197.79	1570.79
198.01	1576.94
198.23	1621.99
198.45	1542.12
198.67	1431.53
198.89	1552.36
199.11	1464.30
199.33	1511.40
199.55	1409.00
199.77	1533.93
199.99	1552.36
200.21	1486.83
200.43	1560.55
200.65	1505.26
200.87	1396.71
201.09	1558.50
201.31	1495.02
201.53	1540.07
201.75	1587.18
201.97	1513.45
202.19	1566.70
202.41	1540.07
202.63	1687.53
202.85	1531.88
203.07	1572.84
203.29	1486.83
203.51	1466.35
203.73	1509.35
203.95	1716.20
204.17	1615.85
204.39	1519.59
204.61	1503.21
204.83	1505.26
205.05	1529.83
205.27	1603.56
205.49	1560.55
205.71	1517.54
205.93	1445.87
206.15	1449.96
206.37	1576.94
206.59	1529.83
206.81	1562.60
207.03	1501.16
207.25	1417.19
207.47	1591.27
207.69	1443.82
207.91	1636.33
208.13	1562.60
208.34	1474.54
208.56	1521.64
208.78	1613.80
209.00	1474.54
209.22	1437.67
209.44	1525.74
209.66	1495.02
209.88	1474.54
210.10	1535.98
210.32	1542.12
210.54	1607.66
210.76	1515.50
210.98	1599.46
211.20	1480.68
211.42	1599.46
211.64	1624.04
211.86	1591.27
212.08	1572.84
212.30	1587.18
212.52	1507.30
212.74	1482.73
212.96	1558.50
213.17	1519.59
213.39	1585.13
213.61	1611.75
213.83	1535.98
214.05	1503.21
214.27	1581.03
214.49	1466.35
214.71	1517.54
214.93	1607.66
215.15	1458.15
215.37	1630.18
215.59	1462.25
215.81	1554.41
216.03	1554.41
216.24	1511.40
216.46	1521.64
216.68	1499.11
216.90	1628.14
217.12	1583.08
217.34	1581.03
217.56	1546.22
217.78	1540.07
218.00	1478.63
218.22	1531.88
218.44	1626.09
218.66	1517.54
218.87	1591.27
219.09	1562.60
219.31	1576.94
219.53	1488.87
219.75	1515.50
219.97	1558.50
220.19	1566.70
220.41	1474.54
220.63	1546.22
220.85	1558.50
221.06	1521.64
221.28	1548.26
221.50	1535.98
221.72	1605.61
221.94	1548.26
222.16	1574.89
222.38	1527.78
222.60	1548.26
222.82	1464.30
223.03	1621.99
223.25	1462.25
223.47	1581.03
223.69	1562.60
223.91	1570.79
224.13	1550.31
224.35	1472.49
224.57	1564.65
224.78	1544.17
225.00	1501.16
225.22	1490.92
225.44	1554.41
225.66	1503.21
225.88	1550.31
226.10	1589.22
226.32	1538.02
226.53	1603.56
226.75	1505.26
226.97	1542.12
227.19	1476.59
227.41	1538.02
227.63	1452.01
227.85	1462.25
228.06	1501.16
228.28	1597.42
228.50	1585.13
228.72	1558.50
228.94	1511.40
229.16	1515.50
229.37	1470.44
229.59	1501.16
229.81	1609.70
230.03	1531.88
230.25	1462.25
230.47	1478.63
230.69	1488.87
230.90	1560.55
231.12	1546.22
231.34	1568.74
231.56	1609.70
231.78	1468.39
232.00	1550.31
232.21	1552.36
232.43	1599.46
232.65	1437.67
232.87	1570.79
233.09	1513.45
233.30	1462.25
233.52	1523.69
233.74	1574.89
233.96	1505.26
234.18	1548.26
234.40	1538.02
234.61	1581.03
234.83	1441.77
235.05	1507.30
235.27	1603.56
235.49	1568.74
235.70	1542.12
235.92	1554.41
236.14	1560.55
236.36	1581.03
236.58	1515.50
236.79	1523.69
237.01	1556.46
237.23	1486.83
237.45	1636.33
237.67	1427.43
237.88	1521.64
238.10	1634.28
238.32	1466.35
238.54	1456.11
238.76	1533.93
238.97	1517.54
239.19	1556.46
239.41	1613.80
239.63	1619.94
239.85	1566.70
240.06	1535.98
240.28	1533.93
240.50	1533.93
240.72	1497.07
240.93	1560.55
241.15	1531.88
241.37	1601.51
241.59	1609.70
241.81	1560.55
242.02	1538.02
242.24	1468.39
242.46	1587.18
242.68	1466.35
242.89	1554.41
243.11	1605.61
243.33	1509.35
243.55	1490.92
243.76	1576.94
243.98	1484.78
244.20	1519.59
244.42	1509.35
244.64	1560.55
244.85	1441.77
245.07	1535.98
245.29	1568.74
245.51	1544.17
245.72	1495.02
245.94	1548.26
246.16	1503.21
246.38	1576.94
246.59	1492.97
246.81	1591.27
247.03	1484.78
247.24	1460.20
247.46	1482.73
247.68	1628.14
247.90	1556.46
248.11	1538.02
248.33	1619.94
248.55	1511.40
248.77	1509.35
248.98	1593.32
249.20	1542.12
249.42	1544.17
249.64	1513.45
249.85	1499.11
250.07	1482.73
250.29	1546.22
250.50	1574.89
250.72	1462.25
250.94	1564.65
251.16	1665.00
251.37	1587.18
251.59	1501.16
251.81	1591.27
252.02	1638.38
252.24	1509.35
252.46	1640.42
252.68	1535.98
252.89	1578.98
253.11	1495.02
253.33	1673.19
253.54	1617.90
253.76	1423.34
253.98	1558.50
254.20	1560.55
254.41	1447.91
254.63	1527.78
254.85	1521.64
255.06	1572.84
255.28	1607.66
255.50	1445.87
255.71	1472.49
255.93	1429.48
256.15	1443.82
256.36	1552.36
256.58	1544.17
256.80	1558.50
257.02	1511.40
257.23	1501.16
257.45	1525.74
257.67	1603.56
257.88	1515.50
258.10	1533.93
258.32	1501.16
258.53	1425.39
258.75	1636.33
258.97	1501.16
259.18	1501.16
259.40	1556.46
259.62	1603.56
259.83	1562.60
260.05	1619.94
260.27	1746.92
260.48	1482.73
260.70	1435.63
260.92	1478.63
261.13	1601.51
261.35	1501.16
261.57	1527.78
261.78	1449.96
262.00	1505.26
262.22	1574.89
262.43	1538.02
262.65	1480.68
262.86	1517.54
263.08	1660.90
263.30	1603.56
263.51	1476.59
263.73	1460.20
263.95	1605.61
264.16	1460.20
264.38	1581.03
264.60	1585.13
264.81	1517.54
265.03	1636.33
265.25	1630.18
265.46	1554.41
265.68	1626.09
265.89	1554.41
266.11	1521.64
266.33	1601.51
266.54	1556.46
266.76	1507.30
266.98	1599.46
267.19	1548.26
267.41	1462.25
267.62	1535.98
267.84	1449.96
268.06	1535.98
268.27	1488.87
268.49	1556.46
268.70	1556.46
268.92	1550.31
269.14	1509.35
269.35	1464.30
269.57	1492.97
269.79	1581.03
270.00	1572.84
270.22	1607.66
270.43	1529.83
270.65	1492.97
270.87	1517.54
271.08	1574.89
271.30	1644.52
271.51	1642.47
271.73	1568.74
271.95	1636.33
272.16	1578.98
272.38	1568.74
272.59	1550.31
272.81	1585.13
273.02	1515.50
273.24	1578.98
273.46	1495.02
273.67	1519.59
273.89	1460.20
274.10	1570.79
274.32	1589.22
274.54	1511.40
274.75	1542.12
274.97	1470.44
275.18	1628.14
275.40	1554.41
275.61	1484.78
275.83	1525.74
276.05	1470.44
276.26	1523.69
276.48	1603.56
276.69	1601.51
276.91	1454.06
277.12	1599.46
277.34	1513.45
277.55	1546.22
277.77	1490.92
277.99	1521.64
278.20	1513.45
278.42	1501.16
278.63	1519.59
278.85	1499.11
279.06	1435.63
279.28	1576.94
279.49	1544.17
279.71	1562.60
279.93	1595.37
280.14	1499.11
280.36	1488.87
280.57	1591.27
280.79	1554.41
281.00	1515.50
281.22	1488.87
281.43	1550.31
281.65	1404.91
281.86	1583.08
282.08	1570.79
282.29	1658.85
282.51	1443.82
282.73	1509.35
282.94	1527.78
283.16	1583.08
283.37	1595.37
283.59	1492.97
283.80	1476.59
284.02	1576.94
284.23	1482.73
284.45	1480.68
284.66	1533.93
284.88	1460.20
285.09	1636.33
285.31	1601.51
285.52	1564.65
285.74	1472.49
285.95	1570.79
286.17	1538.02
286.38	1597.42
286.60	1503.21
286.81	1529.83
287.03	1486.83
287.24	1492.97
287.46	1554.41
287.67	1611.75
287.89	1607.66
288.10	1589.22
288.32	1525.74
288.53	1630.18
288.75	1523.69
288.96	1542.12
289.18	1535.98
289.39	1501.16
289.61	1550.31
289.82	1607.66
290.04	1595.37
290.25	1499.11
290.47	1523.69
290.68	1423.34
290.90	1656.81
291.11	1484.78
291.33	1572.84
291.54	1443.82
291.76	1527.78
291.97	1503.21
292.18	1556.46
292.40	1603.56
292.61	1509.35
292.83	1640.42
293.04	1521.64
293.26	1552.36
293.47	1581.03
293.69	1490.92
293.90	1482.73
294.12	1648.61
294.33	1576.94
294.55	1564.65
294.76	1638.38
294.97	1529.83
295.19	1583.08
295.40	1521.64
295.62	1527.78
295.83	1480.68
296.05	1478.63
296.26	1490.92
296.48	1546.22
296.69	1503.21
296.90	1472.49
297.12	1591.27
297.33	1568.74
297.55	1546.22
297.76	1538.02
297.98	1578.98
298.19	1464.30
298.41	1583.08
298.62	1462.25
298.83	1542.12
299.05	1525.74
299.26	1484.78
299.48	1507.30
299.69	1593.32
299.90	1525.74
300.12	1538.02
300.33	1601.51
300.55	1529.83
300.76	1591.27
300.98	1546.22
301.19	1499.11
301.40	1521.64
301.62	1515.50
301.83	1531.88
302.05	1519.59
302.26	1548.26
302.47	1523.69
302.69	1521.64
302.90	1527.78
303.12	1390.57
303.33	1581.03
303.54	1646.57
303.76	1505.26
303.97	1554.41
304.19	1665.00
304.40	1484.78
304.61	1589.22
304.83	1626.09
305.04	1578.98
305.26	1501.16
305.47	1476.59
305.68	1554.41
305.90	1474.54
306.11	1572.84
306.33	1507.30
306.54	1542.12
306.75	1523.69
306.97	1509.35
307.18	1511.40
307.39	1466.35
307.61	1617.90
307.82	1513.45
308.04	1634.28
308.25	1523.69
308.46	1501.16
308.68	1548.26
308.89	1527.78
309.10	1566.70
309.32	1566.70
309.53	1556.46
309.74	1574.89
309.96	1564.65
310.17	1636.33
310.39	1525.74
310.60	1533.93
310.81	1509.35
311.03	1499.11
311.24	1595.37
311.45	1513.45
311.67	1644.52
311.88	1533.93
312.09	1464.30
312.31	1542.12
312.52	1574.89
312.73	1499.11
312.95	1558.50
313.16	1443.82
313.37	1595.37
313.59	1617.90
313.80	1495.02
314.01	1621.99
314.23	1595.37
314.44	1529.83
314.65	1472.49
314.87	1480.68
315.08	1558.50
315.29	1490.92
315.51	1468.39
315.72	1511.40
315.93	1619.94
316.15	1632.23
316.36	1538.02
316.57	1558.50
316.79	1533.93
317.00	1607.66
317.21	1521.64
317.43	1519.59
317.64	1560.55
317.85	1478.63
318.07	1499.11
318.28	1564.65
318.49	1695.72
318.70	1724.39
318.92	1705.96
319.13	1634.28
319.34	1738.73
319.56	1615.85
319.77	1574.89
319.98	1656.81
320.20	1556.46
320.41	1611.75
320.62	1595.37
320.83	1583.08
321.05	1626.09
321.26	1550.31
321.47	1562.60
321.69	1531.88
321.90	1474.54
322.11	1492.97
322.32	1542.12
322.54	1624.04
322.75	1519.59
322.96	1583.08
323.18	1511.40
323.39	1449.96
323.60	1611.75
323.81	1574.89
324.03	1572.84
324.24	1509.35
324.45	1568.74
324.66	1527.78
324.88	1634.28
325.09	1581.03
325.30	1486.83
325.52	1566.70
325.73	1576.94
325.94	1505.26
326.15	1429.48
326.37	1497.07
326.58	1558.50
326.79	1613.80
327.00	1511.40
327.22	1497.07
327.43	1525.74
327.64	1431.53
327.85	1611.75
328.07	1566.70
328.28	1521.64
328.49	1513.45
328.70	1538.02
328.92	1538.02
329.13	1499.11
329.34	1591.27
329.55	1499.11
329.76	1562.60
329.98	1484.78
330.19	1609.70
330.40	1558.50
330.61	1605.61
330.83	1513.45
331.04	1568.74
331.25	1492.97
331.46	1503.21
331.68	1433.58
331.89	1578.98
332.10	1472.49
332.31	1435.63
332.52	1533.93
332.74	1554.41
332.95	1499.11
333.16	1552.36
333.37	1529.83
333.58	1587.18
333.80	1589.22
334.01	1486.83
334.22	1523.69
334.43	1495.02
334.64	1499.11
334.86	1431.53
335.07	1488.87
335.28	1595.37
335.49	1513.45
335.70	1572.84
335.92	1591.27
336.13	1693.67
336.34	1538.02
336.55	1511.40
336.76	1521.64
336.98	1492.97
337.19	1523.69
337.40	1589.22
337.61	1595.37
337.82	1527.78
338.04	1572.84
338.25	1486.83
338.46	1550.31
338.67	1495.02
338.88	1445.87
339.09	1542.12
339.31	1490.92
339.52	1509.35
339.73	1484.78
339.94	1527.78
340.15	1595.37
340.36	1550.31
340.58	1423.34
340.79	1566.70
341.00	1601.51
341.21	1374.19
341.42	1587.18
341.63	1585.13
341.85	1533.93
342.06	1476.59
342.27	1513.45
342.48	1519.59
342.69	1404.91
342.90	1519.59
343.12	1578.98
343.33	1513.45
343.54	1572.84
343.75	1572.84
343.96	1585.13
344.17	1437.67
344.38	1566.70
344.60	1531.88
344.81	1423.34
345.02	1535.98
345.23	1466.35
345.44	1615.85
345.65	1617.90
345.86	1581.03
346.07	1550.31
346.29	1501.16
346.50	1501.16
346.71	1615.85
346.92	1574.89
347.13	1634.28
347.34	1572.84
347.55	1482.73
347.76	1519.59
347.98	1478.63
348.19	1495.02
348.40	1636.33
348.61	1505.26
348.82	1607.66
349.03	1589.22
349.24	1572.84
349.45	1632.23
349.66	1466.35
349.88	1507.30
350.09	1525.74
350.30	1615.85
350.51	1613.80
350.72	1570.79
350.93	1517.54
351.14	1505.26
351.35	1599.46
351.56	1591.27
351.77	1585.13
351.99	1574.89
352.20	1576.94
352.41	1576.94
352.62	1497.07
352.83	1576.94
353.04	1460.20
353.25	1519.59
353.46	1570.79
353.67	1556.46
353.88	1394.67
354.09	1574.89
354.30	1583.08
354.52	1505.26
354.73	1538.02
354.94	1511.40
355.15	1552.36
355.36	1636.33
355.57	1505.26
355.78	1568.74
355.99	1540.07
356.20	1540.07
356.41	1509.35
356.62	1550.31
356.83	1511.40
357.04	1585.13
357.25	1501.16
357.46	1562.60
357.68	1447.91
357.89	1490.92
358.10	1470.44
358.31	1656.81
358.52	1437.67
358.73	1460.20
358.94	1456.11
359.15	1560.55
359.36	1556.46
359.57	1511.40
359.78	1509.35
359.99	1566.70
360.20	1474.54
360.41	1597.42
360.62	1587.18
360.83	1621.99
361.04	1552.36
361.25	1490.92
361.46	1619.94
361.67	1613.80
361.88	1591.27
362.09	1576.94
362.30	1562.60
362.51	1550.31
362.72	1505.26
362.93	1560.55
363.14	1503.21
363.35	1576.94
363.56	1443.82
363.78	1566.70
363.99	1552.36
364.20	1462.25
364.41	1544.17
364.62	1574.89
364.83	1560.55
365.04	1558.50
365.25	1566.70
365.46	1671.14
365.67	1513.45
365.88	1542.12
366.09	1521.64
366.30	1505.26
366.51	1624.04
366.72	1527.78
366.93	1511.40
367.14	1460.20
367.35	1583.08
367.56	1517.54
367.77	1546.22
367.98	1486.83
368.18	1535.98
368.39	1556.46
368.60	1470.44
368.81	1558.50
369.02	1400.81
369.23	1576.94
369.44	1476.59
369.65	1519.59
369.86	1552.36
370.07	1568.74
370.28	1554.41
370.49	1583.08
370.70	1576.94
370.91	1501.16
371.12	1517.54
371.33	1591.27
371.54	1474.54
371.75	1626.09
371.96	1402.86
372.17	1552.36
372.38	1572.84
372.59	1519.59
372.80	1492.97
373.01	1544.17
373.22	1525.74
373.43	1583.08
373.64	1501.16
373.85	1591.27
374.06	1607.66
374.26	1601.51
374.47	1593.32
374.68	1624.04
374.89	1478.63
375.10	1486.83
375.31	1538.02
375.52	1513.45
375.73	1519.59
375.94	1521.64
376.15	1650.66
376.36	1427.43
376.57	1443.82
376.78	1542.12
376.99	1533.93
377.20	1605.61
377.40	1546.22
377.61	1591.27
377.82	1554.41
378.03	1675.24
378.24	1621.99
378.45	1503.21
378.66	1509.35
378.87	1525.74
379.08	1460.20
379.29	1482.73
379.50	1562.60
379.71	1527.78
379.91	1527.78
380.12	1556.46
380.33	1585.13
380.54	1585.13
380.75	1495.02
380.96	1556.46
381.17	1531.88
381.38	1595.37
381.59	1660.90
381.80	1599.46
382.00	1691.62
382.21	1552.36
382.42	1675.24
382.63	1712.10
382.84	1585.13
383.05	1538.02
383.26	1599.46
383.47	1632.23
383.68	1607.66
383.88	1566.70
384.09	1574.89
384.30	1595.37
384.51	1589.22
384.72	1597.42
384.93	1456.11
385.14	1554.41
385.35	1560.55
385.55	1460.20
385.76	1540.07
385.97	1507.30
386.18	1505.26
386.39	1513.45
386.60	1560.55
386.81	1560.55
387.02	1558.50
387.22	1445.87
387.43	1691.62
387.64	1636.33
387.85	1806.31
388.06	3147.73
388.27	7364.50
388.48	10757.98
388.68	12275.52
388.89	13891.37
389.10	12719.93
389.31	10002.28
389.52	8701.82
389.73	7747.47
389.93	7210.90
390.14	6698.91
390.35	6307.74
390.56	5443.50
390.77	4591.55
390.98	3651.53
391.18	2877.40
391.39	2074.59
391.60	1837.03
391.81	1669.09
392.02	1554.41
392.23	1705.96
392.43	1578.98
392.64	1667.05
392.85	1632.23
393.06	1617.90
393.27	1558.50
393.47	1511.40
393.68	1568.74
393.89	1556.46
394.10	1574.89
394.31	1554.41
394.52	1480.68
394.72	1509.35
394.93	1636.33
395.14	1499.11
395.35	1587.18
395.56	1542.12
395.76	1624.04
395.97	1751.01
396.18	1695.72
396.39	1839.08
396.60	1929.19
396.80	1701.86
397.01	1654.76
397.22	1712.10
397.43	1681.38
397.64	1619.94
397.84	1554.41
398.05	1681.38
398.26	1583.08
398.47	1548.26
398.67	1646.57
398.88	1607.66
399.09	1544.17
399.30	1538.02
399.51	1511.40
399.71	1437.67
399.92	1452.01
400.13	1597.42
400.34	1552.36
400.54	1495.02
400.75	1599.46
400.96	1525.74
401.17	1617.90
401.37	1574.89
401.58	1554.41
401.79	1572.84
402.00	1837.03
402.21	1894.37
402.41	1918.95
402.62	1939.43
402.83	1904.61
403.04	1877.99
403.24	1957.86
403.45	1689.57
403.66	1767.40
403.87	1697.77
404.07	1683.43
404.28	1699.81
404.49	1697.77
404.70	1615.85
404.90	1673.19
405.11	1558.50
405.32	1581.03
405.52	1507.30
405.73	1507.30
405.94	1476.59
406.15	1552.36
406.35	1562.60
406.56	1542.12
406.77	1501.16
406.98	1574.89
407.18	1462.25
407.39	1683.43
407.60	1525.74
407.80	1601.51
408.01	1611.75
408.22	1509.35
408.43	1439.72
408.63	1566.70
408.84	1542.12
409.05	1597.42
409.25	1527.78
409.46	1486.83
409.67	1466.35
409.88	1558.50
410.08	1538.02
410.29	1495.02
410.50	1609.70
410.70	1583.08
410.91	1517.54
411.12	1523.69
411.32	1593.32
411.53	1540.07
411.74	1595.37
411.95	1591.27
412.15	1570.79
412.36	1658.85
412.57	1546.22
412.77	1597.42
412.98	1560.55
413.19	1497.07
413.39	1597.42
413.60	1578.98
413.81	1671.14
414.01	1591.27
414.22	1556.46
414.43	1605.61
414.63	1603.56
414.84	1665.00
415.05	1568.74
415.25	1456.11
415.46	1593.32
415.67	1527.78
415.87	1611.75
416.08	1599.46
416.29	1527.78
416.49	1621.99
416.70	1574.89
416.91	1525.74
417.11	1488.87
417.32	1538.02
417.53	1509.35
417.73	1568.74
417.94	1509.35
418.15	1578.98
418.35	1525.74
418.56	1488.87
418.77	1634.28
418.97	1626.09
419.18	1535.98
419.38	1447.91
419.59	1513.45
419.80	1638.38
420.00	1531.88
420.21	1503.21
420.42	1615.85
420.62	1589.22
420.83	1435.63
421.04	1503.21
421.24	1593.32
421.45	1570.79
421.65	1581.03
421.86	1583.08
422.07	1570.79
422.27	1587.18
422.48	1517.54
422.69	1533.93
422.89	1495.02
423.10	1519.59
423.30	1435.63
423.51	1589.22
423.72	1566.70
423.92	1535.98
424.13	1445.87
424.33	1570.79
424.54	1544.17
424.75	1525.74
424.95	1644.52
425.16	1601.51
425.36	1548.26
425.57	1574.89
425.78	1562.60
425.98	1619.94
426.19	1542.12
426.39	1449.96
426.60	1544.17
426.81	1574.89
427.01	1495.02
427.22	1517.54
427.42	1544.17
427.63	1435.63
427.83	1570.79
428.04	1576.94
428.25	1595.37
428.45	1499.11
428.66	1548.26
428.86	1540.07
429.07	1505.26
429.28	1513.45
429.48	1529.83
429.69	1486.83
429.89	1499.11
430.10	1474.54
430.30	1591.27
430.51	1626.09
430.71	1527.78
430.92	1464.30
431.13	1533.93
431.33	1587.18
431.54	1552.36
431.74	1611.75
431.95	1576.94
432.15	1476.59
432.36	1525.74
432.56	1531.88
432.77	1656.81
432.98	1617.90
433.18	1519.59
433.39	1507.30
433.59	1507.30
433.80	1624.04
434.00	1593.32
434.21	1597.42
434.41	1531.88
434.62	1673.19
434.82	1578.98
435.03	1564.65
435.23	1488.87
435.44	1492.97
435.64	1617.90
435.85	1562.60
436.06	1589.22
436.26	1605.61
436.47	1529.83
436.67	1478.63
436.88	1531.88
437.08	1521.64
437.29	1607.66
437.49	1589.22
437.70	1613.80
437.90	1607.66
438.11	1677.29
438.31	1646.57
438.52	1642.47
438.72	1703.91
438.93	1736.68
439.13	1724.39
439.34	1648.61
439.54	1595.37
439.75	1626.09
439.95	1658.85
440.16	1552.36
440.36	1605.61
440.57	1550.31
440.77	1632.23
440.98	1597.42
441.18	1566.70
441.39	1535.98
441.59	1527.78
441.80	1591.27
442.00	1505.26
442.21	1570.79
442.41	1421.29
442.62	1599.46
442.82	1525.74
443.02	1544.17
443.23	1533.93
443.43	1566.70
443.64	1562.60
443.84	1447.91
444.05	1509.35
444.25	1636.33
444.46	1513.45
444.66	1544.17
444.87	1589.22
445.07	1499.11
445.28	1609.70
445.48	1599.46
445.69	1538.02
445.89	1691.62
446.09	1624.04
446.30	2045.92
446.50	3172.30
446.71	4411.32
446.91	5289.90
447.12	5689.26
447.32	5541.80
447.53	4650.94
447.73	4018.11
447.93	3731.40
448.14	3332.05
448.34	3256.27
448.55	2850.77
448.75	2947.03
448.96	2684.89
449.16	2492.38
449.36	2338.78
449.57	1996.77
449.77	1798.12
449.98	1621.99
450.18	1644.52
450.39	1581.03
450.59	1570.79
450.79	1542.12
451.00	1515.50
451.20	1574.89
451.41	1546.22
451.61	1568.74
451.81	1505.26
452.02	1617.90
452.22	1509.35
452.43	1548.26
452.63	1464.30
452.84	1511.40
453.04	1525.74
453.24	1513.45
453.45	1535.98
453.65	1486.83
453.86	1570.79
454.06	1570.79
454.26	1521.64
454.47	1507.30
454.67	1576.94
454.87	1589.22
455.08	1517.54
455.28	1648.61
455.49	1607.66
455.69	1435.63
455.89	1669.09
456.10	1593.32
456.30	1507.30
456.51	1521.64
456.71	1509.35
456.91	1578.98
457.12	1578.98
457.32	1617.90
457.52	1464.30
457.73	1621.99
457.93	1568.74
458.14	1603.56
458.34	1456.11
458.54	1564.65
458.75	1535.98
458.95	1630.18
459.15	1605.61
459.36	1626.09
459.56	1466.35
459.76	1628.14
459.97	1546.22
460.17	1585.13
460.37	1476.59
460.58	1460.20
460.78	1578.98
460.99	1484.78
461.19	1515.50
461.39	1562.60
461.60	1540.07
461.80	1660.90
462.00	1531.88
462.21	1562.60
462.41	1540.07
462.61	1538.02
462.82	1495.02
463.02	1548.26
463.22	1548.26
463.43	1605.61
463.63	1599.46
463.83	1597.42
464.04	1554.41
464.24	1538.02
464.44	1525.74
464.64	1628.14
464.85	1562.60
465.05	1583.08
465.25	1538.02
465.46	1519.59
465.66	1589.22
465.86	1589.22
466.07	1544.17
466.27	1523.69
466.47	1519.59
466.68	1470.44
466.88	1701.86
467.08	1523.69
467.29	1568.74
467.49	1607.66
467.69	1552.36
467.89	1535.98
468.10	1515.50
468.30	1519.59
468.50	1615.85
468.71	1568.74
468.91	1429.48
469.11	1599.46
469.31	1501.16
469.52	1523.69
469.72	1558.50
469.92	1636.33
470.13	1632.23
470.33	1568.74
470.53	1722.34
470.73	2074.59
470.94	2330.59
471.14	2473.95
471.34	2674.65
471.54	2465.75
471.75	2209.76
471.95	2033.63
472.15	1968.10
472.36	1966.05
472.56	1984.48
472.76	1869.80
472.96	1828.84
473.17	1834.98
473.37	1757.16
473.57	1595.37
473.77	1650.66
473.98	1595.37
474.18	1546.22
474.38	1677.29
474.58	1482.73
474.79	1511.40
474.99	1656.81
475.19	1558.50
475.39	1415.15
475.60	1517.54
475.80	1533.93
476.00	1544.17
476.20	1492.97
476.41	1533.93
476.61	1552.36
476.81	1632.23
477.01	1546.22
477.21	1591.27
477.42	1570.79
477.62	1558.50
477.82	1540.07
478.02	1560.55
478.23	1480.68
478.43	1472.49
478.63	1548.26
478.83	1564.65
479.03	1521.64
479.24	1675.24
479.44	1642.47
479.64	1433.58
479.84	1398.76
480.04	1503.21
480.25	1533.93
480.45	1535.98
480.65	1542.12
480.85	1619.94
481.06	1576.94
481.26	1462.25
481.46	1585.13
481.66	1583.08
481.86	1562.60
482.06	1554.41
482.27	1599.46
482.47	1486.83
482.67	1554.41
482.87	1517.54
483.07	1597.42
483.28	1572.84
483.48	1472.49
483.68	1509.35
483.88	1509.35
484.08	1472.49
484.29	1492.97
484.49	1529.83
484.69	1482.73
484.89	1587.18
485.09	1566.70
485.29	1574.89
485.50	1560.55
485.70	1505.26
485.90	1611.75
486.10	1523.69
486.30	1517.54
486.50	1605.61
486.71	1583.08
486.91	1562.60
487.11	1531.88
487.31	1564.65
487.51	1576.94
487.71	1505.26
487.91	1511.40
488.12	1456.11
488.32	1427.43
488.52	1492.97
488.72	1492.97
488.92	1527.78
489.12	1560.55
489.32	1576.94
489.53	1648.61
489.73	1478.63
489.93	1671.14
490.13	1503.21
490.33	1413.10
490.53	1550.31
490.73	1642.47
490.94	1560.55
491.14	1578.98
491.34	1671.14
491.54	2166.75
491.74	2568.15
491.94	3063.76
492.14	3360.72
492.34	3141.58
492.54	2850.77
492.75	2467.80
492.95	2402.27
493.15	2209.76
493.35	2240.48
493.55	2070.50
493.75	2041.82
493.95	2037.73
494.15	1877.99
494.35	1767.40
494.56	1744.87
494.76	1689.57
494.96	1583.08
495.16	1675.24
495.36	1605.61
495.56	1521.64
495.76	1501.16
495.96	1560.55
496.16	1617.90
496.36	1589.22
496.56	1525.74
496.77	1628.14
496.97	1515.50
497.17	1564.65
497.37	1507.30
497.57	1544.17
497.77	1533.93
497.97	1556.46
498.17	1632.23
498.37	1501.16
498.57	1556.46
498.77	1548.26
498.97	1603.56
499.17	1611.75
499.38	1521.64
499.58	1667.05
499.78	1499.11
499.98	1566.70
500.18	1523.69
500.38	1497.07
500.58	1841.12
500.78	2713.56
500.98	5048.24
501.18	6789.02
501.38	8220.55
501.58	8693.63
501.78	7823.24
501.98	6111.14
502.18	5345.20
502.38	4575.16
502.58	4286.40
502.78	3854.28
502.98	3721.16
503.18	3717.06
503.38	3239.89
503.59	2973.65
503.79	2805.72
503.99	2478.04
504.19	2263.01
504.39	2131.94
504.59	2133.98
504.79	2025.44
504.99	1943.52
505.19	1740.77
505.39	1763.30
505.59	1714.15
505.79	1701.86
505.99	1677.29
506.19	1619.94
506.39	1699.81
506.59	1591.27
506.79	1562.60
506.99	1665.00
507.19	1642.47
507.39	1556.46
507.59	1480.68
507.79	1540.07
507.99	1566.70
508.19	1564.65
508.39	1574.89
508.59	1476.59
508.79	1667.05
508.99	1556.46
509.19	1439.72
509.39	1570.79
509.59	1476.59
509.79	1382.38
509.99	1554.41
510.19	1484.78
510.39	1605.61
510.59	1570.79
510.79	1499.11
510.99	1454.06
511.19	1558.50
511.39	1495.02
511.59	1652.71
511.79	1568.74
511.99	1527.78
512.19	1640.42
512.38	1595.37
512.58	1568.74
512.78	1511.40
512.98	1562.60
513.18	1599.46
513.38	1486.83
513.58	1628.14
513.78	1452.01
513.98	1509.35
514.18	1501.16
514.38	1548.26
514.58	1599.46
514.78	1472.49
514.98	1433.58
515.18	1533.93
515.38	1519.59
515.58	1644.52
515.78	1548.26
515.98	1540.07
516.18	1544.17
516.38	1560.55
516.57	1480.68
516.77	1542.12
516.97	1552.36
517.17	1460.20
517.37	1511.40
517.57	1552.36
517.77	1515.50
517.97	1503.21
518.17	1538.02
518.37	1540.07
518.57	1460.20
518.77	1507.30
518.97	1566.70
519.16	1628.14
519.36	1583.08
519.56	1474.54
519.76	1544.17
519.96	1533.93
520.16	1574.89
520.36	1501.16
520.56	1630.18
520.76	1497.07
520.96	1472.49
521.16	1583.08
521.35	1595.37
521.55	1605.61
521.75	1568.74
521.95	1525.74
522.15	1560.55
522.35	1468.39
522.55	1443.82
522.75	1634.28
522.95	1542.12
523.14	1509.35
523.34	1535.98
523.54	1458.15
523.74	1617.90
523.94	1589.22
524.14	1462.25
524.34	1529.83
524.54	1605.61
524.73	1468.39
524.93	1581.03
525.13	1495.02
525.33	1490.92
525.53	1697.77
525.73	1562.60
525.93	1570.79
526.13	1486.83
526.32	1525.74
526.52	1603.56
526.72	1540.07
526.92	1564.65
527.12	1578.98
527.32	1499.11
527.52	1546.22
527.71	1556.46
527.91	1548.26
528.11	1466.35
528.31	1484.78
528.51	1550.31
528.71	1550.31
528.90	1613.80
529.10	1615.85
529.30	1583.08
529.50	1431.53
529.70	1546.22
529.90	1517.54
530.09	1540.07
530.29	1468.39
530.49	1519.59
530.69	1695.72
530.89	1488.87
531.09	1544.17
531.28	1495.02
531.48	1593.32
531.68	1595.37
531.88	1521.64
532.08	1527.78
532.28	1497.07
532.47	1488.87
532.67	1544.17
532.87	1523.69
533.07	1464.30
533.27	1669.09
533.46	1619.94
533.66	1544.17
533.86	1566.70
534.06	1646.57
534.26	1509.35
534.45	1585.13
534.65	1533.93
534.85	1538.02
535.05	1529.83
535.25	1574.89
535.44	1519.59
535.64	1531.88
535.84	1497.07
536.04	1581.03
536.24	1513.45
536.43	1513.45
536.63	1535.98
536.83	1519.59
537.03	1552.36
537.22	1515.50
537.42	1525.74
537.62	1630.18
537.82	1505.26
538.02	1552.36
538.21	1603.56
538.41	1712.10
538.61	1544.17
538.81	1613.80
539.00	1638.38
539.20	1501.16
539.40	1503.21
539.60	1517.54
539.79	1601.51
539.99	1505.26
540.19	1470.44
540.39	1472.49
540.58	1542.12
540.78	1617.90
540.98	1523.69
541.18	1519.59
541.37	1556.46
541.57	1552.36
541.77	1601.51
541.97	1484.78
542.16	1458.15
542.36	1441.77
542.56	1611.75
542.76	1519.59
542.95	1556.46
543.15	1535.98
543.35	1650.66
543.54	1525.74
543.74	1529.83
543.94	1544.17
544.14	1548.26
544.33	1509.35
544.53	1529.83
544.73	1486.83
544.93	1480.68
545.12	1552.36
545.32	1546.22
545.52	1525.74
545.71	1505.26
545.91	1570.79
546.11	1583.08
546.30	1472.49
546.50	1527.78
546.70	1595.37
546.90	1574.89
547.09	1495.02
547.29	1546.22
547.49	1568.74
547.68	1542.12
547.88	1501.16
548.08	1538.02
548.27	1935.33
548.47	1535.98
548.67	1501.16
548.87	1617.90
549.06	1476.59
549.26	1538.02
549.46	1531.88
549.65	1607.66
549.85	1533.93
550.05	1667.05
550.24	1517.54
550.44	1531.88
550.64	1583.08
550.83	1515.50
551.03	1669.09
551.23	1607.66
551.42	1546.22
551.62	1505.26
551.82	1615.85
552.01	1486.83
552.21	1552.36
552.41	1576.94
552.60	1613.80
552.80	1533.93
553.00	1503.21
553.19	1642.47
553.39	1550.31
553.59	1519.59
553.78	1488.87
553.98	1501.16
554.17	1460.20
554.37	1527.78
554.57	1552.36
554.76	1482.73
554.96	1558.50
555.16	1521.64
555.35	1581.03
555.55	1544.17
555.75	1509.35
555.94	1601.51
556.14	1452.01
556.33	1585.13
556.53	1480.68
556.73	1562.60
556.92	1558.50
557.12	1624.04
557.32	1677.29
557.51	1570.79
557.71	1574.89
557.90	1636.33
558.10	1593.32
558.30	1564.65
558.49	1533.93
558.69	1540.07
558.88	1554.41
559.08	1548.26
559.28	1490.92
559.47	1554.41
559.67	1599.46
559.86	1708.01
560.06	1497.07
560.26	1476.59
560.45	1538.02
560.65	1542.12
560.84	1597.42
561.04	1513.45
561.24	1548.26
561.43	1433.58
561.63	1556.46
561.82	1599.46
562.02	1542.12
562.22	1529.83
562.41	1466.35
562.61	1509.35
562.80	1570.79
563.00	1615.85
563.19	1535.98
563.39	1564.65
563.59	1566.70
563.78	1456.11
563.98	1470.44
564.17	1492.97
564.37	1478.63
564.56	1538.02
564.76	1533.93
564.96	1550.31
565.15	1560.55
565.35	1654.76
565.54	1570.79
565.74	1574.89
565.93	1605.61
566.13	1519.59
566.32	1572.84
566.52	1544.17
566.71	1550.31
566.91	1587.18
567.11	1548.26
567.30	1544.17
567.50	1578.98
567.69	1619.94
567.89	1556.46
568.08	1497.07
568.28	1529.83
568.47	1462.25
568.67	1583.08
568.86	1544.17
569.06	1660.90
569.25	1509.35
569.45	1611.75
569.64	1542.12
569.84	1480.68
570.04	1513.45
570.23	1511.40
570.43	1525.74
570.62	1611.75
570.82	1511.40
571.01	1507.30
571.21	1505.26
571.40	1599.46
571.60	1642.47
571.79	1587.18
571.99	1554.41
572.18	1519.59
572.38	1542.12
572.57	1566.70
572.77	1554.41
572.96	1730.53
573.16	1497.07
573.35	1495.02
573.55	1710.05
573.74	1521.64
573.94	1495.02
574.13	1533.93
574.33	1607.66
574.52	1634.28
574.71	1613.80
574.91	1658.85
575.10	1515.50
575.30	1560.55
575.49	1480.68
575.69	1533.93
575.88	1576.94
576.08	1578.98
576.27	1613.80
576.47	1648.61
576.66	1640.42
576.86	1634.28
577.05	1628.14
577.25	1660.90
577.44	1636.33
577.64	1583.08
577.83	1638.38
578.02	1667.05
578.22	1619.94
578.41	1621.99
578.61	1476.59
578.80	1554.41
579.00	1605.61
579.19	1472.49
579.39	1548.26
579.58	1650.66
579.77	1554.41
579.97	1626.09
580.16	1671.14
580.36	1660.90
580.55	1621.99
580.75	1581.03
580.94	1484.78
581.13	1673.19
581.33	1742.82
581.52	1603.56
581.72	1712.10
581.91	1705.96
582.11	1665.00
582.30	1626.09
582.49	1656.81
582.69	1673.19
582.88	1599.46
583.08	1574.89
583.27	1613.80
583.47	1601.51
583.66	1546.22
583.85	1599.46
584.05	1624.04
584.24	1624.04
584.44	1589.22
584.63	1652.71
584.82	1662.95
585.02	1742.82
585.21	1691.62
585.41	1714.15
585.60	1757.16
585.79	1816.55
585.99	1740.77
586.18	1740.77
586.37	2054.11
586.57	3108.82
586.76	9404.27
586.96	27532.89
587.15	44023.14
587.34	54248.64
587.54	61035.61
587.73	59186.30
587.93	43558.25
588.12	32540.18
588.31	25679.48
588.51	22191.79
588.70	19775.19
588.89	18423.53
589.09	16678.66
589.28	15161.11
589.47	13201.21
589.67	11276.12
589.86	8834.94
590.06	6690.71
590.25	5140.40
590.44	3753.93
590.64	2983.89
590.83	2344.92
591.02	2176.99
591.22	1816.55
591.41	1828.84
591.60	1609.70
591.80	1847.27
591.99	1576.94
592.18	1595.37
592.38	1677.29
592.57	1581.03
592.76	1607.66
592.96	1595.37
593.15	1591.27
593.34	1681.38
593.54	1572.84
593.73	1632.23
593.92	1626.09
594.12	1593.32
594.31	1603.56
594.50	1675.24
594.70	1593.32
594.89	1734.63
595.08	1411.05
595.28	1671.14
595.47	1738.73
595.66	1593.32
595.86	1593.32
596.05	1583.08
596.24	1501.16
596.43	1695.72
596.63	1685.48
596.82	1572.84
597.01	1568.74
597.21	1626.09
597.40	1695.72
597.59	1650.66
597.79	1583.08
597.98	1574.89
598.17	1585.13
598.36	1564.65
598.56	1599.46
598.75	1540.07
598.94	1648.61
599.14	1533.93
599.33	1558.50
599.52	1617.90
599.71	1583.08
599.91	1607.66
600.10	1486.83
600.29	1556.46
600.48	1599.46
600.68	1589.22
600.87	1568.74
601.06	1517.54
601.26	1669.09
601.45	1566.70
601.64	1595.37
601.83	1644.52
602.03	1478.63
602.22	1503.21
602.41	1525.74
602.60	1679.33
602.80	1583.08
602.99	1644.52
603.18	1638.38
603.37	1615.85
603.57	1486.83
603.76	1570.79
603.95	1564.65
604.14	1492.97
604.34	1497.07
604.53	1574.89
604.72	1589.22
604.91	1544.17
605.10	1574.89
605.30	1476.59
605.49	1583.08
605.68	1587.18
605.87	1574.89
606.07	1462.25
606.26	1640.42
606.45	1542.12
606.64	1591.27
606.84	1578.98
607.03	1570.79
607.22	1574.89
607.41	1578.98
607.60	1601.51
607.80	1662.95
607.99	1556.46
608.18	1529.83
608.37	1640.42
608.56	1515.50
608.76	1527.78
608.95	1673.19
609.14	1621.99
609.33	1656.81
609.52	1683.43
609.72	1595.37
609.91	1701.86
610.10	1548.26
610.29	1673.19
610.48	1626.09
610.68	1609.70
610.87	1503.21
611.06	1554.41
611.25	1611.75
611.44	1617.90
611.63	1501.16
611.83	1578.98
612.02	1470.44
612.21	1531.88
612.40	1454.06
612.59	1468.39
612.79	1495.02
612.98	1523.69
613.17	1527.78
613.36	1499.11
613.55	1687.53
613.74	1607.66
613.93	1693.67
614.13	1714.15
614.32	1755.11
614.51	1748.97
614.70	1665.00
614.89	1624.04
615.08	1621.99
615.28	1945.57
615.47	1589.22
615.66	1679.33
615.85	1581.03
616.04	1652.71
616.23	1628.14
616.42	1644.52
616.62	1568.74
616.81	1570.79
617.00	1572.84
617.19	1597.42
617.38	1566.70
617.57	1626.09
617.76	1601.51
617.95	1564.65
618.15	1552.36
618.34	1640.42
618.53	1478.63
618.72	1599.46
618.91	1611.75
619.10	1601.51
619.29	1495.02
619.48	1556.46
619.68	1511.40
619.87	1509.35
620.06	1501.16
620.25	1574.89
620.44	1576.94
620.63	1507.30
620.82	1568.74
621.01	1564.65
621.20	1560.55
621.39	1550.31
621.59	1601.51
621.78	1566.70
621.97	1552.36
622.16	1609.70
622.35	1538.02
622.54	1587.18
622.73	1552.36
622.92	1460.20
623.11	1519.59
623.30	1515.50
623.49	1578.98
623.68	1470.44
623.88	1564.65
624.07	1550.31
624.26	1572.84
624.45	1501.16
624.64	1578.98
624.83	1538.02
625.02	1517.54
625.21	1492.97
625.40	1540.07
625.59	1609.70
625.78	1517.54
625.97	1556.46
626.16	1576.94
626.35	1632.23
626.54	1558.50
626.74	1736.68
626.93	1685.48
627.12	1593.32
627.31	1570.79
627.50	1568.74
627.69	1607.66
627.88	1507.30
628.07	1515.50
628.26	1531.88
628.45	1572.84
628.64	1452.01
628.83	1503.21
629.02	1525.74
629.21	1535.98
629.40	1585.13
629.59	1540.07
629.78	1550.31
629.97	1486.83
630.16	1583.08
630.35	1542.12
630.54	1511.40
630.73	1558.50
630.92	1566.70
631.11	1525.74
631.30	1642.47
631.49	1581.03
631.68	1466.35
631.87	1585.13
632.06	1523.69
632.25	1607.66
632.44	1576.94
632.63	1605.61
632.82	1560.55
633.01	1613.80
633.20	1603.56
633.39	1677.29
633.58	1581.03
633.77	1574.89
633.96	1615.85
634.15	1568.74
634.34	1644.52
634.53	1591.27
634.72	1495.02
634.91	1484.78
635.10	1568.74
635.29	1531.88
635.48	1486.83
635.67	1492.97
635.86	1460.20
636.05	1572.84
636.24	1576.94
636.43	1546.22
636.62	1626.09
636.81	1443.82
637.00	1511.40
637.19	1576.94
637.38	1548.26
637.57	1628.14
637.76	1552.36
637.95	1730.53
638.14	1628.14
638.33	1644.52
638.52	1701.86
638.71	1574.89
638.89	1576.94
639.08	1718.25
639.27	1640.42
639.46	1761.25
639.65	1931.23
639.84	2086.88
640.03	2093.02
640.22	2176.99
640.41	2150.37
640.60	1990.63
640.79	1816.55
640.98	1781.73
641.17	1794.02
641.36	1722.34
641.55	1740.77
641.74	1683.43
641.92	1648.61
642.11	1624.04
642.30	1626.09
642.49	1578.98
642.68	1581.03
642.87	1583.08
643.06	1648.61
643.25	1511.40
643.44	1476.59
643.63	1632.23
643.82	1554.41
644.00	1476.59
644.19	1535.98
644.38	1470.44
644.57	1613.80
644.76	1531.88
644.95	1544.17
645.14	1488.87
645.33	1501.16
645.52	1521.64
645.71	1501.16
645.89	1474.54
646.08	1515.50
646.27	1456.11
646.46	1708.01
646.65	1523.69
646.84	1589.22
647.03	1456.11
647.22	1546.22
647.40	1572.84
647.59	1560.55
647.78	1437.67
647.97	1468.39
648.16	1552.36
648.35	1585.13
648.54	1554.41
648.73	1572.84
648.91	1552.36
649.10	1480.68
649.29	1490.92
649.48	1542.12
649.67	1595.37
649.86	1527.78
650.05	1550.31
650.23	1687.53
650.42	1710.05
650.61	1736.68
650.80	1794.02
650.99	1705.96
651.18	1716.20
651.36	1585.13
651.55	1572.84
651.74	1679.33
651.93	1597.42
652.12	1548.26
652.31	1527.78
652.49	1495.02
652.68	1513.45
652.87	1609.70
653.06	1630.18
653.25	1705.96
653.44	1578.98
653.62	1554.41
653.81	1554.41
654.00	1544.17
654.19	1578.98
654.38	1677.29
654.56	1540.07
654.75	1505.26
654.94	1654.76
655.13	1533.93
655.32	1570.79
655.51	1595.37
655.69	1443.82
655.88	1513.45
656.07	1509.35
656.26	1515.50
656.45	1583.08
656.63	1560.55
656.82	1558.50
657.01	1548.26
657.20	1552.36
657.38	1626.09
657.57	1535.98
657.76	1556.46
657.95	1562.60
658.14	1523.69
658.32	1568.74
658.51	1527.78
658.70	1486.83
658.89	1574.89
659.08	1513.45
659.26	1665.00
659.45	1638.38
659.64	1650.66
659.83	1581.03
660.01	1720.29
660.20	1630.18
660.39	1609.70
660.58	1550.31
660.76	1599.46
660.95	1396.71
661.14	1558.50
661.33	1544.17
661.51	1556.46
661.70	1517.54
661.89	1566.70
662.08	1617.90
662.26	1521.64
662.45	1540.07
662.64	1568.74
662.83	1540.07
663.01	1585.13
663.20	1546.22
663.39	1519.59
663.58	1484.78
663.76	1535.98
663.95	1486.83
664.14	1587.18
664.32	1476.59
664.51	1544.17
664.70	1480.68
664.89	1525.74
665.07	1515.50
665.26	1593.32
665.45	1501.16
665.64	1617.90
665.82	1531.88
666.01	1640.42
666.20	1564.65
666.38	1615.85
666.57	1683.43
666.76	1830.88
666.95	2826.20
667.13	7491.47
667.32	15314.71
667.51	19709.65
667.69	23606.94
667.88	25060.99
668.07	22068.91
668.25	15679.25
668.44	12496.71
668.63	10033.00
668.81	8662.91
669.00	7554.96
669.19	7042.96
669.38	6326.18
669.56	5547.95
669.75	4978.61
669.94	4153.28
670.12	3354.57
670.31	2742.23
670.50	2443.23
670.68	2199.52
670.87	1898.47
671.06	1767.40
671.24	1710.05
671.43	1667.05
671.62	1665.00
671.80	1646.57
671.99	1691.62
672.18	1564.65
672.36	1613.80
672.55	1587.18
672.74	1570.79
672.92	1605.61
673.11	1587.18
673.29	1578.98
673.48	1517.54
673.67	1529.83
673.85	1587.18
674.04	1499.11
674.23	1636.33
674.41	1560.55
674.60	1501.16
674.79	1447.91
674.97	1542.12
675.16	1583.08
675.34	1538.02
675.53	1556.46
675.72	1542.12
675.90	1583.08
676.09	1523.69
676.28	1509.35
676.46	1445.87
676.65	1552.36
676.83	1544.17
677.02	1599.46
677.21	1642.47
677.39	1542.12
677.58	1562.60
677.77	1525.74
677.95	1587.18
678.14	1488.87
678.32	1544.17
678.51	1486.83
678.70	1609.70
678.88	1550.31
679.07	1527.78
679.25	1445.87
679.44	1521.64
679.63	1538.02
679.81	1472.49
680.00	1607.66
680.18	1488.87
680.37	1572.84
680.55	1476.59
680.74	1413.10
680.93	1535.98
681.11	1503.21
681.30	1540.07
681.48	1605.61
681.67	1519.59
681.85	1544.17
682.04	1550.31
682.23	1554.41
682.41	1550.31
682.60	1529.83
682.78	1482.73
682.97	1472.49
683.15	1566.70
683.34	1540.07
683.53	1665.00
683.71	1513.45
683.90	1630.18
684.08	1601.51
684.27	1542.12
684.45	1527.78
684.64	1583.08
684.82	1533.93
685.01	1564.65
685.19	1533.93
685.38	1648.61
685.57	1482.73
685.75	1435.63
685.94	1568.74
686.12	1470.44
686.31	1535.98
686.49	1525.74
686.68	1507.30
686.86	1587.18
687.05	1474.54
687.23	1597.42
687.42	1527.78
687.60	1456.11
687.79	1566.70
687.97	1562.60
688.16	1630.18
688.34	1652.71
688.53	1533.93
688.71	1533.93
688.90	1601.51
689.08	1501.16
689.27	1439.72
689.45	1560.55
689.64	1554.41
689.82	1605.61
690.01	1499.11
690.19	1603.56
690.38	1529.83
690.56	1552.36
690.75	1525.74
690.93	1576.94
691.12	1509.35
691.30	1619.94
691.49	1605.61
691.67	1525.74
691.86	1591.27
692.04	1523.69
692.23	1542.12
692.41	1599.46
692.60	1722.34
692.78	1693.67
692.97	1628.14
693.15	1642.47
693.34	1771.49
693.52	1589.22
693.71	1560.55
693.89	1497.07
694.08	1492.97
694.26	1630.18
694.44	1615.85
694.63	1556.46
694.81	1568.74
695.00	1568.74
695.18	1558.50
695.37	1640.42
695.55	1511.40
695.74	1597.42
695.92	1492.97
696.10	1595.37
696.29	1521.64
696.47	1523.69
696.66	1476.59
696.84	1497.07
697.03	1546.22
697.21	1624.04
697.40	2047.97
697.58	1581.03
697.76	1513.45
697.95	1503.21
698.13	1519.59
698.32	1492.97
698.50	1511.40
698.68	1583.08
698.87	1546.22
699.05	1609.70
699.24	1544.17
699.42	1505.26
699.61	1462.25
699.79	1531.88
699.97	1527.78
700.16	1521.64
700.34	1472.49
700.53	1533.93
700.71	1642.47
700.89	1640.42
701.08	1548.26
701.26	1519.59
701.45	1890.28
701.63	1544.17
701.81	1546.22
702.00	1445.87
702.18	1495.02
702.37	1587.18
702.55	1689.57
702.73	1691.62
702.92	1671.14
703.10	1765.35
703.28	1841.12
703.47	1728.49
703.65	1755.11
703.84	1687.53
704.02	1619.94
704.20	1683.43
704.39	1581.03
704.57	1671.14
704.75	1718.25
704.94	1726.44
705.12	1630.18
705.30	1708.01
705.49	1804.26
705.67	2805.72
705.86	7214.99
706.04	14270.25
706.22	18464.49
706.41	21227.20
706.59	22671.01
706.77	20745.92
706.96	14540.58
707.14	11667.28
707.32	9555.82
707.51	8556.41
707.69	7524.24
707.87	6834.07
708.06	5834.66
708.24	4757.43
708.42	3700.68
708.61	2975.70
708.79	2308.06
708.97	2029.54
709.16	1798.12
709.34	1714.15
709.52	1677.29
709.71	1589.22
709.89	1636.33
710.07	1488.87
710.26	1519.59
710.44	1601.51
710.62	1609.70
710.80	1603.56
710.99	1544.17
711.17	1581.03
711.35	1529.83
711.54	1517.54
711.72	1570.79
711.90	1591.27
712.09	1570.79
712.27	1529.83
712.45	1617.90
712.63	1454.06
712.82	1531.88
713.00	1560.55
713.18	1525.74
713.37	1593.32
713.55	1576.94
713.73	1556.46
713.91	1587.18
714.10	1480.68
714.28	1486.83
714.46	1605.61
714.65	1523.69
714.83	1560.55
715.01	1535.98
715.19	1548.26
715.38	1468.39
715.56	1466.35
715.74	1509.35
715.92	1484.78
716.11	1615.85
716.29	1484.78
716.47	1535.98
716.65	1525.74
716.84	1435.63
717.02	1607.66
717.20	1501.16
717.38	1568.74
717.57	1566.70
717.75	1540.07
717.93	1531.88
718.11	1507.30
718.30	1484.78
718.48	1615.85
718.66	1673.19
718.84	1597.42
719.03	1542.12
719.21	1476.59
719.39	1652.71
719.57	1570.79
719.75	1636.33
719.94	1505.26
720.12	1501.16
720.30	1519.59
720.48	1621.99
720.67	1462.25
720.85	1501.16
721.03	1476.59
721.21	1550.31
721.39	1585.13
721.58	1558.50
721.76	1517.54
721.94	1554.41
722.12	1583.08
722.30	1552.36
722.49	1632.23
722.67	1538.02
722.85	1517.54
723.03	1433.58
723.21	1538.02
723.40	1540.07
723.58	1548.26
723.76	1583.08
723.94	1599.46
724.12	1671.14
724.30	1597.42
724.49	1644.52
724.67	1570.79
724.85	1716.20
725.03	1515.50
725.21	1599.46
725.40	1650.66
725.58	1531.88
725.76	1505.26
725.94	1552.36
726.12	1538.02
726.30	1585.13
726.49	1501.16
726.67	1574.89
726.85	1568.74
727.03	1574.89
727.21	1650.66
727.39	2142.18
727.57	3250.13
727.76	4302.78
727.94	4790.20
728.12	5193.65
728.30	5111.73
728.48	4317.12
728.66	3508.17
728.84	3110.86
729.03	2805.72
729.21	2699.22
729.39	2373.60
729.57	2113.50
729.75	1953.76
729.93	1814.50
730.11	1619.94
730.30	1581.03
730.48	1544.17
730.66	1640.42
730.84	1581.03
731.02	1589.22
731.20	1507.30
731.38	1591.27
731.56	1478.63
731.74	1535.98
731.93	1624.04
732.11	1503.21
732.29	1548.26
732.47	1531.88
732.65	1507.30
732.83	1585.13
733.01	1525.74
733.19	1535.98
733.37	1570.79
733.56	1570.79
733.74	1550.31
733.92	1611.75
734.10	1456.11
734.28	1546.22
734.46	1427.43
734.64	1550.31
734.82	1558.50
735.00	1531.88
735.18	1535.98
735.36	1513.45
735.54	1488.87
735.73	1521.64
735.91	1576.94
736.09	1517.54
736.27	1515.50
736.45	1538.02
736.63	1404.91
736.81	1523.69
736.99	1578.98
737.17	1605.61
737.35	1443.82
737.53	1562.60
737.71	1540.07
737.89	1574.89
738.07	1466.35
738.25	1546.22
738.43	1566.70
738.61	1560.55
738.80	1460.20
738.98	1531.88
739.16	1486.83
739.34	1480.68
739.52	1576.94
739.70	1564.65
739.88	1609.70
740.06	1619.94
740.24	1435.63
740.42	1525.74
740.60	1443.82
740.78	1550.31
740.96	1511.40
741.14	1566.70
741.32	1439.72
741.50	1525.74
741.68	1599.46
741.86	1642.47
742.04	1474.54
742.22	1505.26
742.40	1525.74
742.58	1599.46
742.76	1499.11
742.94	1544.17
743.12	1492.97
743.30	1558.50
743.48	1574.89
743.66	1445.87
743.84	1540.07
744.02	1515.50
744.20	1523.69
744.38	1474.54
744.56	1509.35
744.74	1603.56
744.92	1613.80
745.10	1599.46
745.28	1628.14
745.46	1525.74
745.64	1519.59
745.82	1636.33
746.00	1517.54
746.18	1527.78
746.36	1566.70
746.54	1593.32
746.72	1626.09
746.90	1490.92
747.08	1658.85
747.26	1495.02
747.44	1529.83
747.62	1595.37
747.80	1558.50
747.98	1542.12
748.15	1515.50
748.33	1712.10
748.51	1505.26
748.69	1603.56
748.87	1607.66
749.05	1583.08
749.23	1572.84
749.41	1486.83
749.59	1484.78
749.77	1585.13
749.95	1589.22
750.13	1544.17
750.31	1544.17
750.49	1523.69
750.67	1597.42
750.85	1591.27
751.03	1632.23
751.20	1574.89
751.38	1533.93
751.56	1525.74
751.74	1427.43
751.92	1583.08
752.10	1515.50
752.28	1564.65
752.46	1531.88
752.64	1509.35
752.82	1624.04
753.00	1570.79
753.18	1613.80
753.35	1574.89
753.53	1562.60
753.71	1544.17
753.89	1589.22
754.07	1538.02
754.25	1556.46
754.43	1535.98
754.61	1462.25
754.79	1556.46
754.97	1468.39
755.14	1642.47
755.32	1503.21
755.50	1454.06
755.68	1505.26
755.86	1509.35
756.04	1492.97
756.22	1439.72
756.40	1568.74
756.57	1599.46
756.75	1517.54
756.93	1591.27
757.11	1540.07
757.29	1517.54
757.47	1583.08
757.65	1462.25
757.82	1421.29
758.00	1472.49
758.18	1517.54
758.36	1546.22
758.54	1593.32
758.72	1427.43
758.90	1548.26
759.07	1464.30
759.25	1476.59
759.43	1617.90
759.61	1501.16
759.79	1851.36
759.97	1497.07
760.15	1535.98
760.32	1507.30
760.50	1495.02
760.68	1562.60
760.86	1443.82
761.04	1601.51
761.22	1581.03
761.39	1535.98
761.57	1470.44
761.75	1544.17
761.93	1578.98
762.11	1529.83
762.28	1462.25
762.46	1552.36
762.64	1570.79
762.82	1478.63
763.00	1533.93
763.18	1615.85
763.35	1583.08
763.53	1521.64
763.71	1501.16
763.89	1533.93
764.07	1601.51
764.24	1560.55
764.42	1595.37
764.60	1521.64
764.78	1488.87
764.96	1607.66
765.13	1519.59
765.31	1568.74
765.49	1619.94
765.67	1472.49
765.84	1513.45
766.02	1568.74
766.20	1509.35
766.38	1521.64
766.56	1591.27
766.73	1540.07
766.91	1535.98
767.09	1521.64
767.27	1460.20
767.44	1542.12
767.62	1511.40
767.80	1538.02
767.98	1499.11
768.15	1488.87
768.33	1540.07
768.51	1568.74
768.69	1503.21
768.87	1554.41
769.04	1613.80
769.22	1617.90
769.40	1634.28
769.58	1568.74
769.75	1591.27
769.93	1566.70
770.11	1548.26
770.28	1533.93
770.46	1552.36
770.64	1544.17
770.82	1546.22
770.99	1495.02
771.17	1593.32
771.35	1503.21
771.53	1509.35
771.70	1511.40
771.88	1642.47
772.06	1603.56
772.23	1529.83
772.41	1591.27
772.59	1581.03
772.77	1490.92
772.94	1581.03
773.12	1566.70
773.30	1538.02
773.47	1564.65
773.65	1486.83
773.83	1578.98
774.01	1548.26
774.18	1538.02
774.36	1515.50
774.54	1562.60
774.71	1585.13
774.89	1447.91
775.07	1515.50
775.24	1564.65
775.42	1497.07
775.60	1558.50
775.78	1484.78
775.95	1456.11
776.13	1476.59
776.31	1372.14
776.48	1533.93
776.66	1630.18
776.84	1550.31
777.01	1546.22
777.19	1531.88
777.37	1521.64
777.54	1535.98
777.72	1568.74
777.90	1535.98
778.07	1499.11
778.25	1601.51
778.43	1617.90
778.60	1486.83
778.78	1445.87
778.96	1474.54
779.13	1454.06
779.31	1505.26
779.49	1535.98
779.66	1492.97
779.84	1497.07
780.01	1566.70
780.19	1456.11
780.37	1570.79
780.54	1542.12
780.72	1501.16
780.90	1603.56
781.07	1474.54
781.25	1466.35
781.43	1656.81
781.60	1558.50
781.78	1613.80
781.95	1550.31
782.13	1550.31
782.31	1548.26
782.48	1464.30
782.66	1617.90
782.83	1595.37
783.01	1587.18
783.19	1609.70
783.36	1560.55
783.54	1523.69
783.72	1515.50
783.89	1521.64
784.07	1540.07
784.24	1517.54
784.42	1648.61
784.60	1566.70
784.77	1550.31
784.95	1519.59
785.12	1478.63
785.30	1548.26
785.47	1470.44
785.65	1443.82
785.83	1538.02
786.00	1511.40
786.18	1574.89
786.35	1443.82
786.53	1484.78
786.71	1548.26
786.88	1546.22
787.06	1566.70
787.23	1568.74
787.41	1482.73
787.58	1533.93
787.76	1452.01
787.94	1550.31
788.11	1533.93
788.29	1495.02
788.46	1529.83
788.64	1495.02
788.81	1527.78
788.99	1462.25
789.16	1548.26
789.34	1495.02
789.52	1462.25
789.69	1576.94
789.87	1472.49
790.04	1511.40
790.22	1564.65
790.39	1605.61
790.57	1433.58
790.74	1413.10
790.92	1607.66
791.09	1495.02
791.27	1511.40
791.44	1433.58
791.62	1519.59
791.79	1615.85
791.97	1484.78
792.15	1695.72
792.32	1490.92
792.50	1621.99
792.67	1603.56
792.85	1597.42
793.02	1589.22
793.20	1529.83
793.37	1497.07
793.55	1572.84
793.72	1466.35
793.90	1564.65
794.07	1548.26
794.25	1548.26
794.42	1505.26
794.60	1550.31
794.77	1558.50
794.95	1572.84
795.12	1542.12
795.30	1601.51
795.47	1472.49
795.65	1648.61
795.82	1615.85
796.00	1501.16
796.17	1449.96
796.34	1576.94
796.52	1513.45
796.69	1519.59
796.87	1568.74
797.04	1429.48
797.22	1597.42
797.39	1542.12
797.57	1517.54
797.74	1517.54
797.92	1507.30
798.09	1419.24
798.27	1603.56
798.44	1544.17
798.62	1521.64
798.79	1488.87
798.96	1562.60
799.14	1589.22
799.31	1540.07
799.49	1495.02
799.66	1480.68
799.84	1517.54
800.01	1511.40
800.19	1533.93
800.36	1462.25
800.53	1523.69
800.71	1527.78
800.88	1615.85
801.06	1509.35
801.23	1513.45
801.41	1462.25
801.58	1474.54
801.75	1499.11
801.93	1560.55
802.10	1542.12
802.28	1529.83
802.45	1513.45
802.63	1554.41
802.80	1535.98
802.97	1486.83
803.15	1497.07
803.32	1480.68
803.50	1411.05
803.67	1558.50
803.84	1531.88
804.02	1581.03
804.19	1574.89
804.37	1431.53
804.54	1531.88
804.71	1566.70
804.89	1593.32
805.06	1531.88
805.24	1398.76
805.41	1462.25
805.58	1511.40
805.76	1617.90
805.93	1535.98
806.10	1533.93
806.28	1531.88
806.45	1505.26
806.63	1540.07
806.80	1601.51
806.97	1550.31
807.15	1486.83
807.32	1419.24
807.49	1480.68
807.67	1458.15
807.84	1578.98
808.01	1454.06
808.19	1566.70
808.36	1599.46
808.54	1533.93
808.71	1472.49
808.88	1597.42
809.06	1630.18
809.23	1558.50
809.40	1495.02
809.58	1628.14
809.75	1419.24
809.92	1452.01
810.10	1691.62
810.27	1585.13
810.44	1521.64
810.62	1564.65
810.79	1542.12
810.96	1509.35
811.14	1544.17
811.31	1474.54
811.48	1619.94
811.66	1482.73
811.83	1566.70
812.00	1525.74
812.18	1644.52
812.35	1626.09
812.52	1570.79
812.69	1540.07
812.87	1497.07
813.04	1558.50
813.21	1562.60
813.39	1474.54
813.56	1468.39
813.73	1511.40
813.91	1515.50
814.08	1550.31
814.25	1552.36
814.42	1437.67
814.60	1548.26
814.77	1544.17
814.94	1523.69
815.12	1556.46
815.29	1601.51
815.46	1525.74
815.63	1660.90
815.81	1542.12
815.98	1501.16
816.15	1452.01
816.33	1507.30
816.50	1587.18
816.67	1576.94
816.84	1474.54
817.02	1482.73
817.19	1523.69
817.36	1556.46
817.53	1490.92
817.71	1406.95
817.88	1535.98
818.05	1488.87
818.22	1519.59
818.40	1607.66
818.57	1538.02
818.74	1478.63
818.91	1540.07
819.09	1501.16
819.26	1624.04
819.43	1585.13
819.60	1484.78
819.78	1585.13
819.95	1562.60
820.12	1495.02
820.29	1605.61
820.47	1556.46
820.64	1462.25
820.81	1484.78
820.98	1468.39
821.15	1515.50
821.33	1574.89
821.50	1495.02
821.67	1497.07
821.84	1576.94
822.02	1517.54
822.19	1525.74
822.36	1490.92
822.53	1527.78
822.70	1452.01
822.88	1499.11
823.05	1576.94
823.22	1515.50
823.39	1538.02
823.56	1552.36
823.74	1554.41
823.91	1497.07
824.08	1509.35
824.25	1470.44
824.42	1544.17
824.60	1429.48
824.77	1497.07
824.94	1540.07
825.11	1552.36
825.28	1445.87
825.45	1509.35
825.63	1523.69
825.80	1423.34
825.97	1484.78
826.14	1511.40
826.31	1454.06
826.48	1554.41
826.66	1542.12
826.83	1472.49
827.00	1454.06
827.17	1501.16
827.34	1486.83
827.51	1527.78
827.69	1480.68
827.86	1472.49
828.03	1464.30
828.20	1468.39
828.37	1392.62
828.54	1585.13
828.71	1486.83
828.89	1607.66
829.06	1603.56
829.23	1568.74
829.40	1452.01
829.57	1454.06
829.74	1519.59
829.91	1484.78
830.09	1533.93
830.26	1550.31
830.43	1570.79
830.60	1538.02
830.77	1593.32
830.94	1578.98
831.11	1544.17
831.28	1517.54
831.46	1636.33
831.63	1525.74
831.80	1562.60
831.97	1589.22
832.14	1447.91
832.31	1583.08
832.48	1525.74
832.65	1603.56
832.82	1529.83
832.99	1564.65
833.17	1525.74
833.34	1507.30
833.51	1474.54
833.68	1452.01
833.85	1511.40
834.02	1427.43
834.19	1515.50
834.36	1492.97
834.53	1628.14
834.70	1609.70
834.87	1566.70
835.04	1593.32
835.22	1484.78
835.39	1533.93
835.56	1476.59
835.73	1480.68
835.90	1497.07
836.07	1538.02
836.24	1533.93
836.41	1554.41
836.58	1505.26
836.75	1540.07
836.92	1533.93
837.09	1583.08
837.26	1630.18
837.43	1538.02
837.60	1572.84
837.77	1482.73
837.94	1546.22
838.12	1507.30
838.29	1527.78
838.46	1482.73
838.63	1460.20
838.80	1611.75
838.97	1521.64
839.14	1529.83
839.31	1525.74
839.48	1589.22
839.65	1488.87
839.82	1619.94
839.99	1515.50
840.16	1568.74
840.33	1490.92
840.50	1576.94
840.67	1437.67
840.84	1509.35
841.01	1546.22
841.18	1562.60
841.35	1435.63
841.52	1548.26
841.69	1619.94
841.86	1558.50
842.03	1556.46
842.20	1562.60
842.37	1488.87
842.54	1538.02
842.71	1527.78
842.88	1533.93
843.05	1585.13
843.22	1513.45
843.39	1574.89
843.56	1558.50
843.73	1574.89
843.90	1544.17
844.07	1499.11
844.24	1505.26
844.41	1554.41
844.58	1519.59
844.75	1482.73
844.92	1589.22
845.09	1544.17
845.26	1521.64
845.43	1531.88
845.60	1517.54
845.77	1609.70
845.94	1576.94
846.10	1499.11
846.27	1503.21
846.44	1437.67
846.61	1525.74
846.78	1523.69
846.95	1568.74
847.12	1435.63
847.29	1470.44
847.46	1492.97
847.63	1585.13
847.80	1511.40
847.97	1486.83
848.14	1615.85
848.31	1535.98
848.48	1488.87
848.65	1517.54
848.82	1447.91
848.98	1609.70
849.15	1558.50
849.32	1660.90
849.49	1529.83
849.66	1576.94
849.83	1587.18
850.00	1497.07
850.17	1591.27
850.34	1552.36
850.51	1445.87
850.68	1454.06
850.85	1611.75
851.01	1558.50
851.18	1568.74
851.35	1472.49
851.52	1525.74
851.69	1505.26
851.86	1542.12
852.03	1552.36
852.20	1591.27
852.37	1538.02
852.53	1486.83
852.70	1468.39
852.87	1476.59
853.04	1554.41
853.21	1550.31
853.38	1585.13
853.55	1519.59
853.72	1607.66
853.89	1544.17
854.05	1460.20
854.22	1466.35
854.39	1503.21
854.56	1523.69
854.73	1617.90
854.90	1533.93
855.07	1468.39
855.23	1484.78
855.40	1495.02
855.57	1507.30
855.74	1519.59
855.91	1701.86
856.08	1439.72
856.25	1458.15
856.41	1556.46
856.58	1470.44
856.75	1550.31
856.92	1488.87
857.09	1550.31
857.26	1509.35
857.42	1542.12
857.59	1521.64
857.76	1574.89
857.93	1562.60
858.10	1521.64
858.27	1521.64
858.43	1525.74
858.60	1458.15
858.77	1495.02
858.94	1505.26
859.11	1554.41
859.27	1509.35
859.44	1519.59
859.61	1656.81
859.78	1583.08
859.95	1492.97
860.12	1495.02
860.28	1593.32
860.45	1628.14
860.62	1484.78
860.79	1601.51
860.95	1482.73
861.12	1525.74
861.29	1452.01
861.46	1501.16
861.63	1519.59
861.79	1550.31
861.96	1529.83
862.13	1511.40
862.30	1564.65
862.47	1501.16
862.63	1449.96
862.80	1552.36
862.97	1533.93
863.14	1560.55
863.30	1556.46
863.47	1509.35
863.64	1599.46
863.81	1515.50
863.97	1540.07
864.14	1525.74
864.31	1474.54
864.48	1517.54
864.65	1523.69
864.81	1591.27
864.98	1570.79
865.15	1593.32
865.32	1548.26
865.48	1576.94
865.65	1599.46
865.82	1492.97
865.98	1609.70
866.15	1591.27
866.32	1609.70
866.49	1544.17
866.65	1517.54
866.82	1562.60
866.99	1529.83
867.16	1501.16
867.32	1476.59
867.49	1445.87
867.66	1488.87
867.83	1472.49
867.99	1476.59
868.16	1492.97
868.33	1497.07
868.49	1454.06
868.66	1501.16
868.83	1538.02
868.99	1538.02
869.16	1527.78
869.33	1578.98
869.50	1497.07
869.66	1611.75
869.83	1552.36
870.00	1423.34
870.16	1568.74
870.33	1589.22
870.50	1609.70
870.66	1492.97
870.83	1626.09
871.00	1546.22
871.17	1597.42
871.33	1568.74
871.50	1525.74
871.67	1499.11
871.83	1468.39
872.00	1615.85
872.17	1568.74
872.33	1556.46
872.50	1562.60
872.67	1527.78
872.83	1519.59
873.00	1503.21
873.17	1486.83
873.33	1593.32
873.50	1550.31
873.67	1413.10
873.83	1490.92
874.00	1529.83
874.16	1550.31
874.33	1583.08
874.50	1501.16
874.66	1472.49
874.83	1468.39
875.00	1646.57
875.16	1587.18
875.33	1656.81
875.50	1515.50
875.66	1501.16
875.83	1591.27
875.99	1566.70
876.16	1435.63
876.33	1497.07
876.49	1505.26
876.66	1560.55
876.83	1556.46
876.99	1423.34
877.16	1562.60
877.32	1554.41
877.49	1574.89
877.66	1576.94
877.82	1615.85
877.99	1611.75
878.15	1533.93
878.32	1546.22
878.49	1501.16
878.65	1472.49
878.82	1628.14
878.98	1542.12
879.15	1591.27
879.32	1501.16
879.48	1523.69
879.65	1542.12
879.81	1484.78
879.98	1509.35
880.15	1511.40
880.31	1570.79
880.48	1621.99
880.64	1521.64
880.81	1570.79
880.97	1525.74
881.14	1585.13
881.31	1406.95
881.47	1615.85
881.64	1454.06
881.80	1492.97
881.97	1523.69
882.13	1558.50
882.30	1486.83
882.47	1476.59
882.63	1497.07
882.80	1505.26
882.96	1540.07
883.13	1599.46
883.29	1468.39
883.46	1517.54
883.62	1601.51
883.79	1548.26
883.95	1636.33
884.12	1511.40
884.29	1558.50
884.45	1601.51
884.62	1607.66
884.78	1507.30
884.95	1515.50
885.11	1527.78
885.28	1581.03
885.44	1511.40
885.61	1548.26
885.77	1585.13
885.94	1507.30
886.10	1484.78
886.27	1546.22
886.43	1609.70
886.60	1673.19
886.76	1533.93
886.93	1558.50
887.09	1585.13
887.26	1484.78
887.42	1550.31
887.59	1574.89
887.75	1671.14
887.92	1607.66
888.08	1509.35
888.25	1591.27
888.41	1574.89
888.58	1521.64
888.74	1552.36
888.91	1499.11
>>>>>End Processed Spectral Data<<<<<
