SpectraSuite Data File
++++++++++++++++++++++++++++++++++++
Date: Tue May 03 12:55:10 CEST 2016
User: root
Dark Spectrum Present: No
Reference Spectrum Present: No
Number of Sampled Component Spectra: 1
Spectrometers: USB4C02835
Integration Time (usec): 100000 (USB4C02835)
Spectra Averaged: 1 (USB4C02835)
Boxcar Smoothing: 0 (USB4C02835)
Correct for Electrical Dark: No (USB4C02835)
Strobe/Lamp Enabled: No (USB4C02835)
Correct for Detector Non-linearity: No (USB4C02835)
Correct for Stray Light: No (USB4C02835)
Number of Pixels in Processed Spectrum: 3648
>>>>>Begin Processed Spectral Data<<<<<
177.47	1411.05
177.69	1411.05
177.91	1411.05
178.13	1353.71
178.36	1269.74
178.58	1452.01
178.80	1626.09
179.02	1513.45
179.24	1486.83
179.46	1486.83
179.68	1691.62
179.90	1562.60
180.13	1576.94
180.35	1581.03
180.57	1484.78
180.79	1605.61
181.01	1458.15
181.23	1603.56
181.45	1550.31
181.67	1492.97
181.90	1574.89
182.12	1443.82
182.34	1404.91
182.56	1568.74
182.78	1501.16
183.00	1599.46
183.22	1521.64
183.44	1470.44
183.66	1681.38
183.89	1628.14
184.11	1521.64
184.33	1662.95
184.55	1517.54
184.77	1552.36
184.99	1578.98
185.21	1484.78
185.43	1548.26
185.65	1488.87
185.87	1578.98
186.10	1656.81
186.32	1689.57
186.54	1507.30
186.76	1564.65
186.98	1560.55
187.20	1507.30
187.42	1527.78
187.64	1482.73
187.86	1511.40
188.08	1501.16
188.30	1597.42
188.52	1521.64
188.75	1568.74
188.97	1568.74
189.19	1533.93
189.41	1554.41
189.63	1566.70
189.85	1458.15
190.07	1495.02
190.29	1443.82
190.51	1507.30
190.73	1527.78
190.95	1554.41
191.17	1554.41
191.39	1458.15
191.61	1458.15
191.84	1572.84
192.06	1517.54
192.28	1519.59
192.50	1677.29
192.72	1554.41
192.94	1486.83
193.16	1609.70
193.38	1542.12
193.60	1499.11
193.82	1599.46
194.04	1550.31
194.26	1566.70
194.48	1589.22
194.70	1523.69
194.92	1527.78
195.14	1529.83
195.36	1435.63
195.58	1611.75
195.80	1527.78
196.02	1533.93
196.24	1538.02
196.46	1558.50
196.69	1546.22
196.91	1687.53
197.13	1503.21
197.35	1484.78
197.57	1621.99
197.79	1501.16
198.01	1603.56
198.23	1544.17
198.45	1509.35
198.67	1503.21
198.89	1523.69
199.11	1609.70
199.33	1509.35
199.55	1490.92
199.77	1529.83
199.99	1609.70
200.21	1574.89
200.43	1636.33
200.65	1419.24
200.87	1433.58
201.09	1527.78
201.31	1601.51
201.53	1605.61
201.75	1546.22
201.97	1566.70
202.19	1521.64
202.41	1509.35
202.63	1619.94
202.85	1570.79
203.07	1505.26
203.29	1462.25
203.51	1527.78
203.73	1452.01
203.95	1658.85
204.17	1599.46
204.39	1533.93
204.61	1574.89
204.83	1544.17
205.05	1501.16
205.27	1617.90
205.49	1724.39
205.71	1574.89
205.93	1484.78
206.15	1533.93
206.37	1439.72
206.59	1550.31
206.81	1515.50
207.03	1441.77
207.25	1466.35
207.47	1488.87
207.69	1570.79
207.91	1615.85
208.13	1589.22
208.34	1523.69
208.56	1523.69
208.78	1470.44
209.00	1417.19
209.22	1452.01
209.44	1486.83
209.66	1523.69
209.88	1529.83
210.10	1486.83
210.32	1535.98
210.54	1515.50
210.76	1513.45
210.98	1593.32
211.20	1427.43
211.42	1546.22
211.64	1558.50
211.86	1574.89
212.08	1640.42
212.30	1527.78
212.52	1511.40
212.74	1535.98
212.96	1535.98
213.17	1527.78
213.39	1632.23
213.61	1525.74
213.83	1519.59
214.05	1513.45
214.27	1576.94
214.49	1531.88
214.71	1429.48
214.93	1583.08
215.15	1566.70
215.37	1533.93
215.59	1513.45
215.81	1511.40
216.03	1558.50
216.24	1589.22
216.46	1495.02
216.68	1501.16
216.90	1505.26
217.12	1527.78
217.34	1462.25
217.56	1601.51
217.78	1636.33
218.00	1548.26
218.22	1503.21
218.44	1542.12
218.66	1568.74
218.87	1636.33
219.09	1523.69
219.31	1648.61
219.53	1515.50
219.75	1499.11
219.97	1558.50
220.19	1535.98
220.41	1478.63
220.63	1603.56
220.85	1550.31
221.06	1548.26
221.28	1595.37
221.50	1558.50
221.72	1517.54
221.94	1544.17
222.16	1566.70
222.38	1552.36
222.60	1576.94
222.82	1488.87
223.03	1533.93
223.25	1538.02
223.47	1591.27
223.69	1632.23
223.91	1597.42
224.13	1544.17
224.35	1533.93
224.57	1593.32
224.78	1519.59
225.00	1484.78
225.22	1519.59
225.44	1601.51
225.66	1574.89
225.88	1482.73
226.10	1566.70
226.32	1607.66
226.53	1568.74
226.75	1562.60
226.97	1587.18
227.19	1560.55
227.41	1497.07
227.63	1558.50
227.85	1382.38
228.06	1593.32
228.28	1437.67
228.50	1589.22
228.72	1509.35
228.94	1548.26
229.16	1449.96
229.37	1458.15
229.59	1484.78
229.81	1589.22
230.03	1484.78
230.25	1470.44
230.47	1513.45
230.69	1509.35
230.90	1597.42
231.12	1581.03
231.34	1515.50
231.56	1574.89
231.78	1552.36
232.00	1542.12
232.21	1521.64
232.43	1501.16
232.65	1458.15
232.87	1492.97
233.09	1460.20
233.30	1517.54
233.52	1568.74
233.74	1542.12
233.96	1499.11
234.18	1482.73
234.40	1560.55
234.61	1566.70
234.83	1521.64
235.05	1503.21
235.27	1644.52
235.49	1581.03
235.70	1552.36
235.92	1644.52
236.14	1544.17
236.36	1712.10
236.58	1503.21
236.79	1486.83
237.01	1519.59
237.23	1570.79
237.45	1626.09
237.67	1509.35
237.88	1558.50
238.10	1531.88
238.32	1499.11
238.54	1484.78
238.76	1484.78
238.97	1480.68
239.19	1554.41
239.41	1527.78
239.63	1560.55
239.85	1503.21
240.06	1507.30
240.28	1558.50
240.50	1556.46
240.72	1433.58
240.93	1503.21
241.15	1603.56
241.37	1538.02
241.59	1628.14
241.81	1591.27
242.02	1626.09
242.24	1511.40
242.46	1562.60
242.68	1560.55
242.89	1574.89
243.11	1554.41
243.33	1478.63
243.55	1572.84
243.76	1538.02
243.98	1544.17
244.20	1513.45
244.42	1519.59
244.64	1593.32
244.85	1531.88
245.07	1533.93
245.29	1570.79
245.51	1560.55
245.72	1462.25
245.94	1681.38
246.16	1533.93
246.38	1564.65
246.59	1523.69
246.81	1474.54
247.03	1521.64
247.24	1443.82
247.46	1513.45
247.68	1554.41
247.90	1589.22
248.11	1511.40
248.33	1603.56
248.55	1468.39
248.77	1591.27
248.98	1593.32
249.20	1603.56
249.42	1591.27
249.64	1550.31
249.85	1548.26
250.07	1456.11
250.29	1585.13
250.50	1601.51
250.72	1431.53
250.94	1503.21
251.16	1583.08
251.37	1542.12
251.59	1548.26
251.81	1605.61
252.02	1546.22
252.24	1519.59
252.46	1609.70
252.68	1607.66
252.89	1525.74
253.11	1519.59
253.33	1578.98
253.54	1665.00
253.76	1568.74
253.98	1570.79
254.20	1554.41
254.41	1468.39
254.63	1488.87
254.85	1523.69
255.06	1630.18
255.28	1634.28
255.50	1470.44
255.71	1490.92
255.93	1492.97
256.15	1394.67
256.36	1531.88
256.58	1488.87
256.80	1548.26
257.02	1523.69
257.23	1525.74
257.45	1497.07
257.67	1572.84
257.88	1466.35
258.10	1626.09
258.32	1574.89
258.53	1492.97
258.75	1591.27
258.97	1503.21
259.18	1554.41
259.40	1538.02
259.62	1611.75
259.83	1605.61
260.05	1550.31
260.27	1732.58
260.48	1570.79
260.70	1478.63
260.92	1576.94
261.13	1607.66
261.35	1495.02
261.57	1558.50
261.78	1560.55
262.00	1548.26
262.22	1531.88
262.43	1486.83
262.65	1519.59
262.86	1490.92
263.08	1591.27
263.30	1519.59
263.51	1484.78
263.73	1476.59
263.95	1652.71
264.16	1535.98
264.38	1570.79
264.60	1540.07
264.81	1497.07
265.03	1525.74
265.25	1556.46
265.46	1542.12
265.68	1542.12
265.89	1550.31
266.11	1454.06
266.33	1634.28
266.54	1495.02
266.76	1574.89
266.98	1605.61
267.19	1544.17
267.41	1556.46
267.62	1452.01
267.84	1466.35
268.06	1634.28
268.27	1595.37
268.49	1503.21
268.70	1533.93
268.92	1488.87
269.14	1456.11
269.35	1456.11
269.57	1558.50
269.79	1578.98
270.00	1427.43
270.22	1626.09
270.43	1544.17
270.65	1472.49
270.87	1601.51
271.08	1609.70
271.30	1591.27
271.51	1533.93
271.73	1507.30
271.95	1562.60
272.16	1576.94
272.38	1529.83
272.59	1464.30
272.81	1566.70
273.02	1447.91
273.24	1519.59
273.46	1560.55
273.67	1445.87
273.89	1507.30
274.10	1521.64
274.32	1548.26
274.54	1556.46
274.75	1558.50
274.97	1447.91
275.18	1529.83
275.40	1515.50
275.61	1554.41
275.83	1593.32
276.05	1454.06
276.26	1509.35
276.48	1595.37
276.69	1429.48
276.91	1474.54
277.12	1525.74
277.34	1548.26
277.55	1619.94
277.77	1546.22
277.99	1550.31
278.20	1474.54
278.42	1486.83
278.63	1517.54
278.85	1476.59
279.06	1470.44
279.28	1566.70
279.49	1515.50
279.71	1558.50
279.93	1550.31
280.14	1509.35
280.36	1519.59
280.57	1665.00
280.79	1552.36
281.00	1527.78
281.22	1468.39
281.43	1613.80
281.65	1445.87
281.86	1519.59
282.08	1605.61
282.29	1560.55
282.51	1492.97
282.73	1521.64
282.94	1447.91
283.16	1490.92
283.37	1558.50
283.59	1484.78
283.80	1574.89
284.02	1533.93
284.23	1558.50
284.45	1503.21
284.66	1492.97
284.88	1533.93
285.09	1566.70
285.31	1568.74
285.52	1535.98
285.74	1523.69
285.95	1556.46
286.17	1529.83
286.38	1587.18
286.60	1476.59
286.81	1515.50
287.03	1517.54
287.24	1492.97
287.46	1521.64
287.67	1501.16
287.89	1638.38
288.10	1538.02
288.32	1626.09
288.53	1617.90
288.75	1478.63
288.96	1540.07
289.18	1464.30
289.39	1535.98
289.61	1560.55
289.82	1630.18
290.04	1626.09
290.25	1501.16
290.47	1507.30
290.68	1531.88
290.90	1517.54
291.11	1499.11
291.33	1527.78
291.54	1447.91
291.76	1484.78
291.97	1507.30
292.18	1564.65
292.40	1519.59
292.61	1511.40
292.83	1628.14
293.04	1583.08
293.26	1552.36
293.47	1574.89
293.69	1476.59
293.90	1521.64
294.12	1603.56
294.33	1568.74
294.55	1535.98
294.76	1605.61
294.97	1599.46
295.19	1640.42
295.40	1529.83
295.62	1589.22
295.83	1535.98
296.05	1472.49
296.26	1515.50
296.48	1542.12
296.69	1621.99
296.90	1480.68
297.12	1587.18
297.33	1576.94
297.55	1515.50
297.76	1581.03
297.98	1552.36
298.19	1576.94
298.41	1525.74
298.62	1552.36
298.83	1525.74
299.05	1546.22
299.26	1566.70
299.48	1478.63
299.69	1538.02
299.90	1552.36
300.12	1521.64
300.33	1525.74
300.55	1538.02
300.76	1626.09
300.98	1501.16
301.19	1499.11
301.40	1490.92
301.62	1511.40
301.83	1554.41
302.05	1513.45
302.26	1525.74
302.47	1497.07
302.69	1497.07
302.90	1505.26
303.12	1406.95
303.33	1550.31
303.54	1624.04
303.76	1492.97
303.97	1572.84
304.19	1568.74
304.40	1478.63
304.61	1492.97
304.83	1595.37
305.04	1566.70
305.26	1624.04
305.47	1564.65
305.68	1515.50
305.90	1492.97
306.11	1570.79
306.33	1519.59
306.54	1525.74
306.75	1495.02
306.97	1538.02
307.18	1525.74
307.39	1509.35
307.61	1554.41
307.82	1564.65
308.04	1640.42
308.25	1531.88
308.46	1521.64
308.68	1554.41
308.89	1581.03
309.10	1611.75
309.32	1576.94
309.53	1554.41
309.74	1535.98
309.96	1529.83
310.17	1521.64
310.39	1566.70
310.60	1566.70
310.81	1574.89
311.03	1478.63
311.24	1517.54
311.45	1462.25
311.67	1628.14
311.88	1531.88
312.09	1560.55
312.31	1495.02
312.52	1554.41
312.73	1458.15
312.95	1505.26
313.16	1482.73
313.37	1552.36
313.59	1546.22
313.80	1578.98
314.01	1587.18
314.23	1507.30
314.44	1490.92
314.65	1531.88
314.87	1531.88
315.08	1517.54
315.29	1486.83
315.51	1552.36
315.72	1456.11
315.93	1548.26
316.15	1570.79
316.36	1458.15
316.57	1550.31
316.79	1531.88
317.00	1480.68
317.21	1574.89
317.43	1490.92
317.64	1548.26
317.85	1554.41
318.07	1513.45
318.28	1654.76
318.49	1683.43
318.70	1755.11
318.92	1746.92
319.13	1607.66
319.34	1718.25
319.56	1660.90
319.77	1753.06
319.98	1634.28
320.20	1665.00
320.41	1572.84
320.62	1572.84
320.83	1464.30
321.05	1646.57
321.26	1529.83
321.47	1542.12
321.69	1523.69
321.90	1513.45
322.11	1497.07
322.32	1525.74
322.54	1585.13
322.75	1501.16
322.96	1550.31
323.18	1468.39
323.39	1480.68
323.60	1515.50
323.81	1517.54
324.03	1560.55
324.24	1486.83
324.45	1529.83
324.66	1517.54
324.88	1595.37
325.09	1564.65
325.30	1527.78
325.52	1515.50
325.73	1529.83
325.94	1470.44
326.15	1466.35
326.37	1484.78
326.58	1589.22
326.79	1562.60
327.00	1511.40
327.22	1519.59
327.43	1540.07
327.64	1476.59
327.85	1611.75
328.07	1560.55
328.28	1581.03
328.49	1458.15
328.70	1509.35
328.92	1560.55
329.13	1474.54
329.34	1576.94
329.55	1593.32
329.76	1646.57
329.98	1556.46
330.19	1607.66
330.40	1656.81
330.61	1523.69
330.83	1570.79
331.04	1492.97
331.25	1513.45
331.46	1519.59
331.68	1501.16
331.89	1611.75
332.10	1560.55
332.31	1488.87
332.52	1501.16
332.74	1601.51
332.95	1490.92
333.16	1564.65
333.37	1593.32
333.58	1464.30
333.80	1572.84
334.01	1433.58
334.22	1533.93
334.43	1490.92
334.64	1527.78
334.86	1413.10
335.07	1495.02
335.28	1505.26
335.49	1478.63
335.70	1595.37
335.92	1538.02
336.13	1615.85
336.34	1581.03
336.55	1519.59
336.76	1589.22
336.98	1427.43
337.19	1562.60
337.40	1605.61
337.61	1671.14
337.82	1529.83
338.04	1628.14
338.25	1474.54
338.46	1486.83
338.67	1515.50
338.88	1482.73
339.09	1486.83
339.31	1558.50
339.52	1511.40
339.73	1447.91
339.94	1486.83
340.15	1585.13
340.36	1503.21
340.58	1501.16
340.79	1540.07
341.00	1615.85
341.21	1460.20
341.42	1669.09
341.63	1619.94
341.85	1548.26
342.06	1542.12
342.27	1458.15
342.48	1574.89
342.69	1417.19
342.90	1535.98
343.12	1587.18
343.33	1525.74
343.54	1628.14
343.75	1591.27
343.96	1492.97
344.17	1433.58
344.38	1589.22
344.60	1439.72
344.81	1449.96
345.02	1581.03
345.23	1486.83
345.44	1630.18
345.65	1542.12
345.86	1632.23
346.07	1613.80
346.29	1564.65
346.50	1589.22
346.71	1603.56
346.92	1574.89
347.13	1658.85
347.34	1552.36
347.55	1505.26
347.76	1568.74
347.98	1472.49
348.19	1523.69
348.40	1527.78
348.61	1486.83
348.82	1628.14
349.03	1519.59
349.24	1482.73
349.45	1640.42
349.66	1566.70
349.88	1511.40
350.09	1443.82
350.30	1566.70
350.51	1523.69
350.72	1521.64
350.93	1542.12
351.14	1478.63
351.35	1538.02
351.56	1632.23
351.77	1587.18
351.99	1548.26
352.20	1605.61
352.41	1570.79
352.62	1503.21
352.83	1486.83
353.04	1562.60
353.25	1517.54
353.46	1683.43
353.67	1595.37
353.88	1527.78
354.09	1560.55
354.30	1560.55
354.52	1572.84
354.73	1535.98
354.94	1544.17
355.15	1505.26
355.36	1488.87
355.57	1564.65
355.78	1509.35
355.99	1513.45
356.20	1488.87
356.41	1589.22
356.62	1589.22
356.83	1529.83
357.04	1552.36
357.25	1505.26
357.46	1531.88
357.68	1501.16
357.89	1511.40
358.10	1535.98
358.31	1519.59
358.52	1527.78
358.73	1492.97
358.94	1570.79
359.15	1583.08
359.36	1542.12
359.57	1513.45
359.78	1531.88
359.99	1601.51
360.20	1507.30
360.41	1509.35
360.62	1492.97
360.83	1617.90
361.04	1535.98
361.25	1568.74
361.46	1603.56
361.67	1572.84
361.88	1638.38
362.09	1570.79
362.30	1511.40
362.51	1570.79
362.72	1611.75
362.93	1601.51
363.14	1544.17
363.35	1621.99
363.56	1503.21
363.78	1556.46
363.99	1570.79
364.20	1458.15
364.41	1562.60
364.62	1568.74
364.83	1492.97
365.04	1595.37
365.25	1599.46
365.46	1652.71
365.67	1486.83
365.88	1492.97
366.09	1511.40
366.30	1501.16
366.51	1535.98
366.72	1544.17
366.93	1515.50
367.14	1495.02
367.35	1525.74
367.56	1482.73
367.77	1677.29
367.98	1560.55
368.18	1560.55
368.39	1662.95
368.60	1535.98
368.81	1501.16
369.02	1525.74
369.23	1529.83
369.44	1441.77
369.65	1505.26
369.86	1562.60
370.07	1507.30
370.28	1462.25
370.49	1693.67
370.70	1683.43
370.91	1515.50
371.12	1497.07
371.33	1574.89
371.54	1505.26
371.75	1681.38
371.96	1523.69
372.17	1441.77
372.38	1531.88
372.59	1538.02
372.80	1538.02
373.01	1525.74
373.22	1527.78
373.43	1578.98
373.64	1419.24
373.85	1570.79
374.06	1619.94
374.26	1519.59
374.47	1578.98
374.68	1607.66
374.89	1581.03
375.10	1542.12
375.31	1626.09
375.52	1552.36
375.73	1535.98
375.94	1474.54
376.15	1587.18
376.36	1490.92
376.57	1472.49
376.78	1552.36
376.99	1468.39
377.20	1595.37
377.40	1456.11
377.61	1591.27
377.82	1550.31
378.03	1621.99
378.24	1572.84
378.45	1550.31
378.66	1542.12
378.87	1476.59
379.08	1484.78
379.29	1558.50
379.50	1578.98
379.71	1554.41
379.91	1562.60
380.12	1566.70
380.33	1540.07
380.54	1538.02
380.75	1568.74
380.96	1560.55
381.17	1538.02
381.38	1538.02
381.59	1587.18
381.80	1574.89
382.00	1705.96
382.21	1593.32
382.42	1669.09
382.63	1632.23
382.84	1603.56
383.05	1511.40
383.26	1628.14
383.47	1564.65
383.68	1574.89
383.88	1542.12
384.09	1589.22
384.30	1535.98
384.51	1568.74
384.72	1460.20
384.93	1509.35
385.14	1513.45
385.35	1587.18
385.55	1591.27
385.76	1652.71
385.97	1550.31
386.18	1452.01
386.39	1505.26
386.60	1513.45
386.81	1527.78
387.02	1501.16
387.22	1521.64
387.43	1673.19
387.64	1658.85
387.85	1845.22
388.06	3065.81
388.27	7276.43
388.48	10518.37
388.68	12506.95
388.89	14004.01
389.10	12879.68
389.31	10100.58
389.52	8912.76
389.73	7874.44
389.93	7378.83
390.14	6879.13
390.35	6246.30
390.56	5621.67
390.77	4624.31
390.98	3616.71
391.18	2813.91
391.39	2189.28
391.60	1794.02
391.81	1658.85
392.02	1634.28
392.23	1656.81
392.43	1568.74
392.64	1630.18
392.85	1540.07
393.06	1589.22
393.27	1531.88
393.47	1527.78
393.68	1550.31
393.89	1511.40
394.10	1601.51
394.31	1511.40
394.52	1501.16
394.72	1535.98
394.93	1626.09
395.14	1462.25
395.35	1591.27
395.56	1595.37
395.76	1660.90
395.97	1632.23
396.18	1665.00
396.39	1812.45
396.60	1908.71
396.80	1794.02
397.01	1687.53
397.22	1699.81
397.43	1568.74
397.64	1538.02
397.84	1581.03
398.05	1738.73
398.26	1554.41
398.47	1603.56
398.67	1554.41
398.88	1568.74
399.09	1621.99
399.30	1605.61
399.51	1574.89
399.71	1517.54
399.92	1591.27
400.13	1554.41
400.34	1583.08
400.54	1509.35
400.75	1605.61
400.96	1593.32
401.17	1568.74
401.37	1572.84
401.58	1484.78
401.79	1562.60
402.00	1839.08
402.21	1914.85
402.41	1869.80
402.62	1943.52
402.83	1863.65
403.04	1890.28
403.24	1886.18
403.45	1697.77
403.66	1716.20
403.87	1822.69
404.07	1748.97
404.28	1740.77
404.49	1751.01
404.70	1615.85
404.90	1591.27
405.11	1574.89
405.32	1619.94
405.52	1488.87
405.73	1454.06
405.94	1449.96
406.15	1525.74
406.35	1619.94
406.56	1562.60
406.77	1611.75
406.98	1634.28
407.18	1499.11
407.39	1599.46
407.60	1527.78
407.80	1595.37
408.01	1507.30
408.22	1515.50
408.43	1546.22
408.63	1601.51
408.84	1542.12
409.05	1507.30
409.25	1411.05
409.46	1542.12
409.67	1499.11
409.88	1478.63
410.08	1540.07
410.29	1484.78
410.50	1578.98
410.70	1558.50
410.91	1525.74
411.12	1566.70
411.32	1578.98
411.53	1521.64
411.74	1646.57
411.95	1660.90
412.15	1611.75
412.36	1644.52
412.57	1566.70
412.77	1658.85
412.98	1509.35
413.19	1601.51
413.39	1578.98
413.60	1599.46
413.81	1583.08
414.01	1572.84
414.22	1595.37
414.43	1595.37
414.63	1564.65
414.84	1570.79
415.05	1497.07
415.25	1417.19
415.46	1632.23
415.67	1488.87
415.87	1533.93
416.08	1581.03
416.29	1574.89
416.49	1634.28
416.70	1495.02
416.91	1519.59
417.11	1566.70
417.32	1527.78
417.53	1556.46
417.73	1544.17
417.94	1546.22
418.15	1581.03
418.35	1576.94
418.56	1540.07
418.77	1654.76
418.97	1452.01
419.18	1495.02
419.38	1513.45
419.59	1574.89
419.80	1597.42
420.00	1550.31
420.21	1550.31
420.42	1578.98
420.62	1624.04
420.83	1495.02
421.04	1533.93
421.24	1542.12
421.45	1583.08
421.65	1503.21
421.86	1552.36
422.07	1595.37
422.27	1495.02
422.48	1499.11
422.69	1478.63
422.89	1544.17
423.10	1490.92
423.30	1501.16
423.51	1558.50
423.72	1519.59
423.92	1560.55
424.13	1470.44
424.33	1521.64
424.54	1529.83
424.75	1566.70
424.95	1705.96
425.16	1540.07
425.36	1527.78
425.57	1572.84
425.78	1525.74
425.98	1589.22
426.19	1562.60
426.39	1431.53
426.60	1490.92
426.81	1660.90
427.01	1509.35
427.22	1515.50
427.42	1472.49
427.63	1499.11
427.83	1568.74
428.04	1603.56
428.25	1527.78
428.45	1634.28
428.66	1566.70
428.86	1490.92
429.07	1556.46
429.28	1554.41
429.48	1552.36
429.69	1556.46
429.89	1511.40
430.10	1544.17
430.30	1583.08
430.51	1583.08
430.71	1452.01
430.92	1544.17
431.13	1542.12
431.33	1517.54
431.54	1636.33
431.74	1679.33
431.95	1662.95
432.15	1519.59
432.36	1568.74
432.56	1527.78
432.77	1611.75
432.98	1572.84
433.18	1589.22
433.39	1521.64
433.59	1533.93
433.80	1640.42
434.00	1652.71
434.21	1591.27
434.41	1468.39
434.62	1665.00
434.82	1581.03
435.03	1535.98
435.23	1570.79
435.44	1445.87
435.64	1499.11
435.85	1538.02
436.06	1527.78
436.26	1572.84
436.47	1562.60
436.67	1527.78
436.88	1593.32
437.08	1503.21
437.29	1546.22
437.49	1492.97
437.70	1597.42
437.90	1615.85
438.11	1720.29
438.31	1703.91
438.52	1656.81
438.72	1722.34
438.93	1771.49
439.13	1615.85
439.34	1683.43
439.54	1552.36
439.75	1568.74
439.95	1679.33
440.16	1544.17
440.36	1583.08
440.57	1638.38
440.77	1533.93
440.98	1529.83
441.18	1560.55
441.39	1609.70
441.59	1486.83
441.80	1628.14
442.00	1535.98
442.21	1650.66
442.41	1488.87
442.62	1562.60
442.82	1515.50
443.02	1605.61
443.23	1574.89
443.43	1472.49
443.64	1656.81
443.84	1513.45
444.05	1601.51
444.25	1550.31
444.46	1476.59
444.66	1558.50
444.87	1613.80
445.07	1452.01
445.28	1566.70
445.48	1624.04
445.69	1619.94
445.89	1693.67
446.09	1636.33
446.30	1968.10
446.50	3127.25
446.71	4433.85
446.91	5410.73
447.12	5777.32
447.32	5468.08
447.53	4638.65
447.73	3987.40
447.93	3747.78
448.14	3422.16
448.34	3172.30
448.55	2959.31
448.75	2922.45
448.96	2791.38
449.16	2432.99
449.36	2267.10
449.57	2054.11
449.77	1834.98
449.98	1712.10
450.18	1587.18
450.39	1591.27
450.59	1587.18
450.79	1542.12
451.00	1468.39
451.20	1548.26
451.41	1568.74
451.61	1601.51
451.81	1558.50
452.02	1511.40
452.22	1550.31
452.43	1509.35
452.63	1533.93
452.84	1562.60
453.04	1587.18
453.24	1503.21
453.45	1513.45
453.65	1503.21
453.86	1513.45
454.06	1636.33
454.26	1517.54
454.47	1490.92
454.67	1517.54
454.87	1566.70
455.08	1634.28
455.28	1656.81
455.49	1546.22
455.69	1499.11
455.89	1689.57
456.10	1613.80
456.30	1525.74
456.51	1578.98
456.71	1542.12
456.91	1576.94
457.12	1581.03
457.32	1560.55
457.52	1460.20
457.73	1548.26
457.93	1527.78
458.14	1464.30
458.34	1538.02
458.54	1501.16
458.75	1521.64
458.95	1566.70
459.15	1597.42
459.36	1607.66
459.56	1615.85
459.76	1566.70
459.97	1611.75
460.17	1527.78
460.37	1687.53
460.58	1550.31
460.78	1568.74
460.99	1419.24
461.19	1566.70
461.39	1527.78
461.60	1531.88
461.80	1599.46
462.00	1437.67
462.21	1560.55
462.41	1488.87
462.61	1488.87
462.82	1525.74
463.02	1585.13
463.22	1468.39
463.43	1636.33
463.63	1519.59
463.83	1585.13
464.04	1648.61
464.24	1497.07
464.44	1503.21
464.64	1603.56
464.85	1603.56
465.05	1558.50
465.25	1556.46
465.46	1595.37
465.66	1589.22
465.86	1538.02
466.07	1533.93
466.27	1503.21
466.47	1542.12
466.68	1511.40
466.88	1615.85
467.08	1484.78
467.29	1576.94
467.49	1558.50
467.69	1574.89
467.89	1599.46
468.10	1509.35
468.30	1552.36
468.50	1626.09
468.71	1593.32
468.91	1501.16
469.11	1601.51
469.31	1611.75
469.52	1486.83
469.72	1609.70
469.92	1585.13
470.13	1540.07
470.33	1560.55
470.53	1681.38
470.73	2058.21
470.94	2353.12
471.14	2455.51
471.34	2686.94
471.54	2463.71
471.75	2295.77
471.95	1980.39
472.15	2045.92
472.36	2039.78
472.56	1923.04
472.76	1929.19
472.96	1841.12
473.17	1822.69
473.37	1796.07
473.57	1683.43
473.77	1638.38
473.98	1615.85
474.18	1540.07
474.38	1701.86
474.58	1544.17
474.79	1464.30
474.99	1595.37
475.19	1552.36
475.39	1462.25
475.60	1544.17
475.80	1538.02
476.00	1581.03
476.20	1599.46
476.41	1542.12
476.61	1648.61
476.81	1495.02
477.01	1490.92
477.21	1613.80
477.42	1523.69
477.62	1607.66
477.82	1585.13
478.02	1542.12
478.23	1517.54
478.43	1521.64
478.63	1527.78
478.83	1544.17
479.03	1564.65
479.24	1617.90
479.44	1624.04
479.64	1468.39
479.84	1476.59
480.04	1456.11
480.25	1548.26
480.45	1619.94
480.65	1593.32
480.85	1558.50
481.06	1458.15
481.26	1589.22
481.46	1521.64
481.66	1562.60
481.86	1538.02
482.06	1656.81
482.27	1513.45
482.47	1538.02
482.67	1595.37
482.87	1515.50
483.07	1589.22
483.28	1499.11
483.48	1533.93
483.68	1511.40
483.88	1576.94
484.08	1527.78
484.29	1533.93
484.49	1523.69
484.69	1468.39
484.89	1540.07
485.09	1529.83
485.29	1587.18
485.50	1621.99
485.70	1486.83
485.90	1587.18
486.10	1558.50
486.30	1593.32
486.50	1581.03
486.71	1566.70
486.91	1550.31
487.11	1574.89
487.31	1470.44
487.51	1507.30
487.71	1415.15
487.91	1484.78
488.12	1572.84
488.32	1419.24
488.52	1511.40
488.72	1431.53
488.92	1595.37
489.12	1562.60
489.32	1630.18
489.53	1540.07
489.73	1531.88
489.93	1630.18
490.13	1519.59
490.33	1476.59
490.53	1578.98
490.73	1566.70
490.94	1486.83
491.14	1558.50
491.34	1685.48
491.54	2123.74
491.74	2688.98
491.94	3143.63
492.14	3305.42
492.34	3188.69
492.54	2801.62
492.75	2574.30
492.95	2408.41
493.15	2234.33
493.35	2148.32
493.55	2084.83
493.75	2062.30
493.95	2060.26
494.15	1961.95
494.35	1871.84
494.56	1800.16
494.76	1665.00
494.96	1652.71
495.16	1667.05
495.36	1519.59
495.56	1560.55
495.76	1558.50
495.96	1581.03
496.16	1492.97
496.36	1599.46
496.56	1517.54
496.77	1603.56
496.97	1540.07
497.17	1556.46
497.37	1505.26
497.57	1605.61
497.77	1505.26
497.97	1460.20
498.17	1597.42
498.37	1550.31
498.57	1636.33
498.77	1605.61
498.97	1613.80
499.17	1599.46
499.38	1519.59
499.58	1566.70
499.78	1552.36
499.98	1550.31
500.18	1550.31
500.38	1495.02
500.58	1785.83
500.78	2562.01
500.98	5175.22
501.18	6868.89
501.38	8224.64
501.58	8783.74
501.78	8050.57
501.98	6098.85
502.18	5316.53
502.38	4640.70
502.58	4212.67
502.78	3817.41
502.98	3702.73
503.18	3624.90
503.38	3438.54
503.59	2992.08
503.79	2828.24
503.99	2482.14
504.19	2265.05
504.39	2074.59
504.59	2117.60
504.79	2017.25
504.99	1929.19
505.19	1779.68
505.39	1679.33
505.59	1740.77
505.79	1699.81
505.99	1675.24
506.19	1677.29
506.39	1703.91
506.59	1566.70
506.79	1634.28
506.99	1595.37
507.19	1583.08
507.39	1636.33
507.59	1556.46
507.79	1513.45
507.99	1570.79
508.19	1542.12
508.39	1529.83
508.59	1497.07
508.79	1699.81
508.99	1632.23
509.19	1599.46
509.39	1568.74
509.59	1480.68
509.79	1521.64
509.99	1478.63
510.19	1499.11
510.39	1589.22
510.59	1521.64
510.79	1564.65
510.99	1519.59
511.19	1556.46
511.39	1576.94
511.59	1650.66
511.79	1646.57
511.99	1560.55
512.19	1652.71
512.38	1521.64
512.58	1550.31
512.78	1507.30
512.98	1624.04
513.18	1599.46
513.38	1478.63
513.58	1601.51
513.78	1529.83
513.98	1560.55
514.18	1546.22
514.38	1564.65
514.58	1597.42
514.78	1544.17
514.98	1501.16
515.18	1497.07
515.38	1521.64
515.58	1685.48
515.78	1529.83
515.98	1544.17
516.18	1570.79
516.38	1546.22
516.57	1478.63
516.77	1499.11
516.97	1615.85
517.17	1519.59
517.37	1495.02
517.57	1591.27
517.77	1523.69
517.97	1535.98
518.17	1542.12
518.37	1511.40
518.57	1513.45
518.77	1587.18
518.97	1517.54
519.16	1615.85
519.36	1619.94
519.56	1607.66
519.76	1499.11
519.96	1548.26
520.16	1603.56
520.36	1503.21
520.56	1660.90
520.76	1505.26
520.96	1576.94
521.16	1591.27
521.35	1550.31
521.55	1677.29
521.75	1513.45
521.95	1527.78
522.15	1572.84
522.35	1527.78
522.55	1533.93
522.75	1658.85
522.95	1568.74
523.14	1562.60
523.34	1574.89
523.54	1460.20
523.74	1560.55
523.94	1560.55
524.14	1507.30
524.34	1566.70
524.54	1517.54
524.73	1466.35
524.93	1544.17
525.13	1511.40
525.33	1501.16
525.53	1587.18
525.73	1572.84
525.93	1585.13
526.13	1538.02
526.32	1503.21
526.52	1595.37
526.72	1503.21
526.92	1578.98
527.12	1509.35
527.32	1460.20
527.52	1603.56
527.71	1548.26
527.91	1576.94
528.11	1560.55
528.31	1554.41
528.51	1517.54
528.71	1542.12
528.90	1562.60
529.10	1630.18
529.30	1564.65
529.50	1421.29
529.70	1546.22
529.90	1578.98
530.09	1501.16
530.29	1413.10
530.49	1492.97
530.69	1601.51
530.89	1513.45
531.09	1652.71
531.28	1515.50
531.48	1662.95
531.68	1570.79
531.88	1613.80
532.08	1521.64
532.28	1570.79
532.47	1601.51
532.67	1603.56
532.87	1634.28
533.07	1509.35
533.27	1558.50
533.46	1492.97
533.66	1548.26
533.86	1488.87
534.06	1546.22
534.26	1562.60
534.45	1535.98
534.65	1624.04
534.85	1581.03
535.05	1538.02
535.25	1593.32
535.44	1495.02
535.64	1609.70
535.84	1626.09
536.04	1556.46
536.24	1540.07
536.43	1523.69
536.63	1552.36
536.83	1503.21
537.03	1495.02
537.22	1386.47
537.42	1525.74
537.62	1621.99
537.82	1531.88
538.02	1607.66
538.21	1673.19
538.41	1656.81
538.61	1611.75
538.81	1513.45
539.00	1669.09
539.20	1611.75
539.40	1546.22
539.60	1593.32
539.79	1535.98
539.99	1525.74
540.19	1464.30
540.39	1535.98
540.58	1521.64
540.78	1619.94
540.98	1511.40
541.18	1617.90
541.37	1544.17
541.57	1538.02
541.77	1525.74
541.97	1488.87
542.16	1509.35
542.36	1484.78
542.56	1538.02
542.76	1572.84
542.95	1554.41
543.15	1538.02
543.35	1568.74
543.54	1445.87
543.74	1550.31
543.94	1648.61
544.14	1478.63
544.33	1597.42
544.53	1587.18
544.73	1562.60
544.93	1433.58
545.12	1497.07
545.32	1533.93
545.52	1564.65
545.71	1452.01
545.91	1492.97
546.11	1566.70
546.30	1429.48
546.50	1560.55
546.70	1562.60
546.90	1595.37
547.09	1429.48
547.29	1570.79
547.49	1523.69
547.68	1562.60
547.88	1523.69
548.08	1552.36
548.27	1961.95
548.47	1546.22
548.67	1402.86
548.87	1583.08
549.06	1505.26
549.26	1546.22
549.46	1562.60
549.65	1495.02
549.85	1562.60
550.05	1587.18
550.24	1441.77
550.44	1595.37
550.64	1595.37
550.83	1523.69
551.03	1595.37
551.23	1558.50
551.42	1542.12
551.62	1554.41
551.82	1581.03
552.01	1560.55
552.21	1474.54
552.41	1499.11
552.60	1576.94
552.80	1554.41
553.00	1513.45
553.19	1591.27
553.39	1564.65
553.59	1470.44
553.78	1484.78
553.98	1593.32
554.17	1521.64
554.37	1497.07
554.57	1497.07
554.76	1501.16
554.96	1544.17
555.16	1568.74
555.35	1484.78
555.55	1517.54
555.75	1603.56
555.94	1574.89
556.14	1523.69
556.33	1597.42
556.53	1574.89
556.73	1597.42
556.92	1615.85
557.12	1615.85
557.32	1621.99
557.51	1654.76
557.71	1533.93
557.90	1533.93
558.10	1564.65
558.30	1578.98
558.49	1499.11
558.69	1499.11
558.88	1501.16
559.08	1542.12
559.28	1503.21
559.47	1566.70
559.67	1619.94
559.86	1601.51
560.06	1529.83
560.26	1572.84
560.45	1578.98
560.65	1533.93
560.84	1593.32
561.04	1497.07
561.24	1566.70
561.43	1509.35
561.63	1538.02
561.82	1605.61
562.02	1492.97
562.22	1533.93
562.41	1519.59
562.61	1546.22
562.80	1521.64
563.00	1642.47
563.19	1581.03
563.39	1558.50
563.59	1578.98
563.78	1484.78
563.98	1460.20
564.17	1546.22
564.37	1490.92
564.56	1562.60
564.76	1449.96
564.96	1595.37
565.15	1597.42
565.35	1546.22
565.54	1523.69
565.74	1626.09
565.93	1525.74
566.13	1525.74
566.32	1597.42
566.52	1581.03
566.71	1574.89
566.91	1558.50
567.11	1587.18
567.30	1531.88
567.50	1548.26
567.69	1566.70
567.89	1519.59
568.08	1525.74
568.28	1597.42
568.47	1466.35
568.67	1511.40
568.86	1554.41
569.06	1558.50
569.25	1552.36
569.45	1505.26
569.64	1560.55
569.84	1556.46
570.04	1611.75
570.23	1497.07
570.43	1495.02
570.62	1509.35
570.82	1611.75
571.01	1542.12
571.21	1564.65
571.40	1478.63
571.60	1591.27
571.79	1538.02
571.99	1587.18
572.18	1548.26
572.38	1544.17
572.57	1583.08
572.77	1562.60
572.96	1628.14
573.16	1587.18
573.35	1486.83
573.55	1669.09
573.74	1515.50
573.94	1550.31
574.13	1525.74
574.33	1552.36
574.52	1544.17
574.71	1552.36
574.91	1542.12
575.10	1509.35
575.30	1593.32
575.49	1456.11
575.69	1548.26
575.88	1609.70
576.08	1564.65
576.27	1619.94
576.47	1624.04
576.66	1742.82
576.86	1689.57
577.05	1628.14
577.25	1621.99
577.44	1697.77
577.64	1574.89
577.83	1617.90
578.02	1589.22
578.22	1640.42
578.41	1669.09
578.61	1591.27
578.80	1503.21
579.00	1628.14
579.19	1531.88
579.39	1587.18
579.58	1609.70
579.77	1675.24
579.97	1583.08
580.16	1650.66
580.36	1642.47
580.55	1615.85
580.75	1548.26
580.94	1564.65
581.13	1648.61
581.33	1667.05
581.52	1603.56
581.72	1615.85
581.91	1667.05
582.11	1519.59
582.30	1574.89
582.49	1548.26
582.69	1681.38
582.88	1656.81
583.08	1593.32
583.27	1550.31
583.47	1642.47
583.66	1523.69
583.85	1587.18
584.05	1613.80
584.24	1646.57
584.44	1656.81
584.63	1597.42
584.82	1681.38
585.02	1740.77
585.21	1691.62
585.41	1744.87
585.60	1773.54
585.79	1757.16
585.99	1763.30
586.18	1789.92
586.37	2054.11
586.57	3213.26
586.76	9555.82
586.96	27575.90
587.15	44072.29
587.34	54824.12
587.54	61699.15
587.73	59737.20
587.93	43353.45
588.12	32267.80
588.31	25804.41
588.51	22185.65
588.70	19965.65
588.89	18630.37
589.09	16961.28
589.28	15355.67
589.47	13330.23
589.67	11130.71
589.86	9156.47
590.06	6920.09
590.25	5011.38
590.44	3815.37
590.64	2828.24
590.83	2353.12
591.02	2060.26
591.22	1916.90
591.41	1687.53
591.60	1691.62
591.80	1798.12
591.99	1572.84
592.18	1581.03
592.38	1615.85
592.57	1544.17
592.76	1593.32
592.96	1589.22
593.15	1601.51
593.34	1638.38
593.54	1499.11
593.73	1583.08
593.92	1497.07
594.12	1640.42
594.31	1683.43
594.50	1759.21
594.70	1642.47
594.89	1787.88
595.08	1531.88
595.28	1632.23
595.47	1669.09
595.66	1681.38
595.86	1589.22
596.05	1564.65
596.24	1556.46
596.43	1705.96
596.63	1634.28
596.82	1640.42
597.01	1615.85
597.21	1660.90
597.40	1601.51
597.59	1626.09
597.79	1587.18
597.98	1632.23
598.17	1585.13
598.36	1599.46
598.56	1552.36
598.75	1568.74
598.94	1621.99
599.14	1609.70
599.33	1511.40
599.52	1613.80
599.71	1626.09
599.91	1597.42
600.10	1605.61
600.29	1630.18
600.48	1591.27
600.68	1538.02
600.87	1527.78
601.06	1533.93
601.26	1607.66
601.45	1560.55
601.64	1611.75
601.83	1568.74
602.03	1472.49
602.22	1548.26
602.41	1648.61
602.60	1591.27
602.80	1578.98
602.99	1609.70
603.18	1501.16
603.37	1527.78
603.57	1583.08
603.76	1521.64
603.95	1656.81
604.14	1513.45
604.34	1452.01
604.53	1632.23
604.72	1585.13
604.91	1642.47
605.10	1585.13
605.30	1576.94
605.49	1722.34
605.68	1574.89
605.87	1632.23
606.07	1525.74
606.26	1576.94
606.45	1556.46
606.64	1542.12
606.84	1619.94
607.03	1593.32
607.22	1576.94
607.41	1615.85
607.60	1525.74
607.80	1578.98
607.99	1593.32
608.18	1578.98
608.37	1503.21
608.56	1546.22
608.76	1607.66
608.95	1671.14
609.14	1632.23
609.33	1705.96
609.52	1673.19
609.72	1669.09
609.91	1685.48
610.10	1601.51
610.29	1603.56
610.48	1599.46
610.68	1630.18
610.87	1566.70
611.06	1572.84
611.25	1652.71
611.44	1605.61
611.63	1535.98
611.83	1533.93
612.02	1540.07
612.21	1660.90
612.40	1497.07
612.59	1527.78
612.79	1454.06
612.98	1646.57
613.17	1595.37
613.36	1495.02
613.55	1640.42
613.74	1503.21
613.93	1675.24
614.13	1740.77
614.32	1730.53
614.51	1798.12
614.70	1677.29
614.89	1650.66
615.08	1624.04
615.28	1875.94
615.47	1513.45
615.66	1601.51
615.85	1595.37
616.04	1675.24
616.23	1644.52
616.42	1695.72
616.62	1599.46
616.81	1574.89
617.00	1548.26
617.19	1552.36
617.38	1517.54
617.57	1544.17
617.76	1593.32
617.95	1611.75
618.15	1581.03
618.34	1646.57
618.53	1521.64
618.72	1632.23
618.91	1597.42
619.10	1615.85
619.29	1558.50
619.48	1581.03
619.68	1542.12
619.87	1497.07
620.06	1476.59
620.25	1533.93
620.44	1556.46
620.63	1556.46
620.82	1515.50
621.01	1624.04
621.20	1495.02
621.39	1585.13
621.59	1677.29
621.78	1560.55
621.97	1603.56
622.16	1585.13
622.35	1501.16
622.54	1654.76
622.73	1605.61
622.92	1466.35
623.11	1583.08
623.30	1591.27
623.49	1585.13
623.68	1495.02
623.88	1552.36
624.07	1566.70
624.26	1558.50
624.45	1523.69
624.64	1591.27
624.83	1603.56
625.02	1546.22
625.21	1542.12
625.40	1533.93
625.59	1634.28
625.78	1554.41
625.97	1632.23
626.16	1701.86
626.35	1601.51
626.54	1660.90
626.74	1693.67
626.93	1593.32
627.12	1533.93
627.31	1527.78
627.50	1587.18
627.69	1615.85
627.88	1542.12
628.07	1562.60
628.26	1548.26
628.45	1468.39
628.64	1507.30
628.83	1560.55
629.02	1495.02
629.21	1599.46
629.40	1550.31
629.59	1460.20
629.78	1597.42
629.97	1540.07
630.16	1556.46
630.35	1568.74
630.54	1546.22
630.73	1572.84
630.92	1529.83
631.11	1452.01
631.30	1511.40
631.49	1615.85
631.68	1507.30
631.87	1679.33
632.06	1511.40
632.25	1662.95
632.44	1531.88
632.63	1542.12
632.82	1568.74
633.01	1685.48
633.20	1648.61
633.39	1665.00
633.58	1609.70
633.77	1624.04
633.96	1619.94
634.15	1624.04
634.34	1669.09
634.53	1603.56
634.72	1556.46
634.91	1535.98
635.10	1593.32
635.29	1546.22
635.48	1566.70
635.67	1552.36
635.86	1521.64
636.05	1599.46
636.24	1538.02
636.43	1540.07
636.62	1578.98
636.81	1419.24
637.00	1574.89
637.19	1558.50
637.38	1589.22
637.57	1454.06
637.76	1609.70
637.95	1705.96
638.14	1617.90
638.33	1650.66
638.52	1640.42
638.71	1517.54
638.89	1562.60
639.08	1621.99
639.27	1603.56
639.46	1613.80
639.65	1925.09
639.84	1968.10
640.03	2226.14
640.22	2158.56
640.41	2271.20
640.60	1847.27
640.79	1873.89
640.98	1861.60
641.17	1734.63
641.36	1689.57
641.55	1650.66
641.74	1646.57
641.92	1654.76
642.11	1566.70
642.30	1570.79
642.49	1533.93
642.68	1531.88
642.87	1607.66
643.06	1578.98
643.25	1529.83
643.44	1542.12
643.63	1492.97
643.82	1578.98
644.00	1507.30
644.19	1546.22
644.38	1517.54
644.57	1519.59
644.76	1587.18
644.95	1546.22
645.14	1509.35
645.33	1558.50
645.52	1490.92
645.71	1480.68
645.89	1501.16
646.08	1495.02
646.27	1480.68
646.46	1585.13
646.65	1443.82
646.84	1556.46
647.03	1546.22
647.22	1566.70
647.40	1572.84
647.59	1470.44
647.78	1540.07
647.97	1478.63
648.16	1497.07
648.35	1589.22
648.54	1601.51
648.73	1535.98
648.91	1597.42
649.10	1650.66
649.29	1562.60
649.48	1558.50
649.67	1542.12
649.86	1517.54
650.05	1591.27
650.23	1726.44
650.42	1624.04
650.61	1701.86
650.80	1679.33
650.99	1773.54
651.18	1640.42
651.36	1683.43
651.55	1597.42
651.74	1574.89
651.93	1595.37
652.12	1521.64
652.31	1581.03
652.49	1583.08
652.68	1566.70
652.87	1669.09
653.06	1593.32
653.25	1722.34
653.44	1540.07
653.62	1605.61
653.81	1486.83
654.00	1662.95
654.19	1587.18
654.38	1652.71
654.56	1562.60
654.75	1533.93
654.94	1583.08
655.13	1501.16
655.32	1499.11
655.51	1517.54
655.69	1523.69
655.88	1564.65
656.07	1531.88
656.26	1640.42
656.45	1417.19
656.63	1599.46
656.82	1527.78
657.01	1535.98
657.20	1488.87
657.38	1587.18
657.57	1544.17
657.76	1544.17
657.95	1503.21
658.14	1542.12
658.32	1492.97
658.51	1486.83
658.70	1482.73
658.89	1540.07
659.08	1599.46
659.26	1677.29
659.45	1546.22
659.64	1576.94
659.83	1607.66
660.01	1832.93
660.20	1658.85
660.39	1685.48
660.58	1472.49
660.76	1558.50
660.95	1480.68
661.14	1576.94
661.33	1478.63
661.51	1466.35
661.70	1591.27
661.89	1615.85
662.08	1454.06
662.26	1495.02
662.45	1517.54
662.64	1591.27
662.83	1593.32
663.01	1478.63
663.20	1486.83
663.39	1642.47
663.58	1574.89
663.76	1535.98
663.95	1589.22
664.14	1619.94
664.32	1574.89
664.51	1550.31
664.70	1472.49
664.89	1597.42
665.07	1492.97
665.26	1578.98
665.45	1517.54
665.64	1650.66
665.82	1548.26
666.01	1550.31
666.20	1550.31
666.38	1693.67
666.57	1634.28
666.76	1882.08
666.95	2928.60
667.13	7593.87
667.32	15701.78
667.51	20369.10
667.69	23522.97
667.88	25296.51
668.07	22439.59
668.25	15564.56
668.44	12560.19
668.63	10227.56
668.81	8624.00
669.00	7507.85
669.19	7104.40
669.38	6459.29
669.56	5656.49
669.75	4911.03
669.94	4204.48
670.12	3383.24
670.31	2861.01
670.50	2504.67
670.68	2117.60
670.87	1943.52
671.06	1800.16
671.24	1755.11
671.43	1675.24
671.62	1624.04
671.80	1587.18
671.99	1665.00
672.18	1632.23
672.36	1601.51
672.55	1568.74
672.74	1587.18
672.92	1503.21
673.11	1542.12
673.29	1529.83
673.48	1552.36
673.67	1576.94
673.85	1650.66
674.04	1501.16
674.23	1585.13
674.41	1630.18
674.60	1478.63
674.79	1486.83
674.97	1521.64
675.16	1603.56
675.34	1609.70
675.53	1458.15
675.72	1572.84
675.90	1681.38
676.09	1525.74
676.28	1544.17
676.46	1488.87
676.65	1511.40
676.83	1470.44
677.02	1531.88
677.21	1556.46
677.39	1546.22
677.58	1509.35
677.77	1552.36
677.95	1462.25
678.14	1546.22
678.32	1542.12
678.51	1441.77
678.70	1626.09
678.88	1558.50
679.07	1521.64
679.25	1511.40
679.44	1492.97
679.63	1519.59
679.81	1570.79
680.00	1560.55
680.18	1679.33
680.37	1587.18
680.55	1517.54
680.74	1480.68
680.93	1519.59
681.11	1611.75
681.30	1478.63
681.48	1564.65
681.67	1572.84
681.85	1599.46
682.04	1525.74
682.23	1535.98
682.41	1550.31
682.60	1583.08
682.78	1542.12
682.97	1517.54
683.15	1519.59
683.34	1626.09
683.53	1589.22
683.71	1538.02
683.90	1638.38
684.08	1624.04
684.27	1492.97
684.45	1529.83
684.64	1527.78
684.82	1431.53
685.01	1540.07
685.19	1505.26
685.38	1658.85
685.57	1490.92
685.75	1540.07
685.94	1564.65
686.12	1445.87
686.31	1452.01
686.49	1558.50
686.68	1476.59
686.86	1566.70
687.05	1533.93
687.23	1542.12
687.42	1519.59
687.60	1433.58
687.79	1482.73
687.97	1628.14
688.16	1591.27
688.34	1595.37
688.53	1474.54
688.71	1585.13
688.90	1601.51
689.08	1523.69
689.27	1495.02
689.45	1589.22
689.64	1566.70
689.82	1550.31
690.01	1544.17
690.19	1527.78
690.38	1550.31
690.56	1531.88
690.75	1562.60
690.93	1531.88
691.12	1480.68
691.30	1531.88
691.49	1519.59
691.67	1546.22
691.86	1613.80
692.04	1478.63
692.23	1576.94
692.41	1574.89
692.60	1650.66
692.78	1613.80
692.97	1599.46
693.15	1658.85
693.34	1609.70
693.52	1609.70
693.71	1509.35
693.89	1558.50
694.08	1505.26
694.26	1583.08
694.44	1603.56
694.63	1626.09
694.81	1509.35
695.00	1593.32
695.18	1652.71
695.37	1636.33
695.55	1548.26
695.74	1478.63
695.92	1492.97
696.10	1554.41
696.29	1492.97
696.47	1505.26
696.66	1499.11
696.84	1523.69
697.03	1503.21
697.21	1642.47
697.40	2033.63
697.58	1611.75
697.76	1529.83
697.95	1429.48
698.13	1517.54
698.32	1517.54
698.50	1515.50
698.68	1535.98
698.87	1562.60
699.05	1558.50
699.24	1546.22
699.42	1501.16
699.61	1517.54
699.79	1499.11
699.97	1505.26
700.16	1499.11
700.34	1488.87
700.53	1472.49
700.71	1628.14
700.89	1527.78
701.08	1533.93
701.26	1578.98
701.45	1904.61
701.63	1472.49
701.81	1585.13
702.00	1452.01
702.18	1624.04
702.37	1628.14
702.55	1611.75
702.73	1679.33
702.92	1687.53
703.10	1736.68
703.28	1806.31
703.47	1722.34
703.65	1728.49
703.84	1722.34
704.02	1583.08
704.20	1675.24
704.39	1607.66
704.57	1583.08
704.75	1642.47
704.94	1628.14
705.12	1681.38
705.30	1640.42
705.49	1810.40
705.67	2867.16
705.86	7495.57
706.04	14743.33
706.22	18681.57
706.41	21305.02
706.59	22918.82
706.77	21069.50
706.96	14823.20
707.14	11894.60
707.32	9854.83
707.51	8669.05
707.69	7538.57
707.87	6752.15
708.06	5930.92
708.24	4745.14
708.42	3594.19
708.61	2932.69
708.79	2381.79
708.97	1939.43
709.16	1810.40
709.34	1738.73
709.52	1660.90
709.71	1587.18
709.89	1593.32
710.07	1538.02
710.26	1527.78
710.44	1607.66
710.62	1572.84
710.80	1513.45
710.99	1607.66
711.17	1544.17
711.35	1531.88
711.54	1521.64
711.72	1609.70
711.90	1662.95
712.09	1560.55
712.27	1505.26
712.45	1581.03
712.63	1456.11
712.82	1519.59
713.00	1527.78
713.18	1585.13
713.37	1632.23
713.55	1564.65
713.73	1593.32
713.91	1542.12
714.10	1525.74
714.28	1439.72
714.46	1540.07
714.65	1558.50
714.83	1619.94
715.01	1521.64
715.19	1540.07
715.38	1435.63
715.56	1593.32
715.74	1519.59
715.92	1488.87
716.11	1595.37
716.29	1390.57
716.47	1497.07
716.65	1554.41
716.84	1517.54
717.02	1615.85
717.20	1488.87
717.38	1503.21
717.57	1523.69
717.75	1630.18
717.93	1562.60
718.11	1552.36
718.30	1437.67
718.48	1609.70
718.66	1566.70
718.84	1511.40
719.03	1583.08
719.21	1458.15
719.39	1691.62
719.57	1564.65
719.75	1626.09
719.94	1533.93
720.12	1550.31
720.30	1556.46
720.48	1593.32
720.67	1462.25
720.85	1507.30
721.03	1527.78
721.21	1564.65
721.39	1585.13
721.58	1558.50
721.76	1519.59
721.94	1605.61
722.12	1605.61
722.30	1632.23
722.49	1546.22
722.67	1527.78
722.85	1476.59
723.03	1480.68
723.21	1568.74
723.40	1576.94
723.58	1570.79
723.76	1597.42
723.94	1599.46
724.12	1589.22
724.30	1628.14
724.49	1603.56
724.67	1505.26
724.85	1693.67
725.03	1542.12
725.21	1576.94
725.40	1576.94
725.58	1529.83
725.76	1628.14
725.94	1630.18
726.12	1517.54
726.30	1482.73
726.49	1519.59
726.67	1542.12
726.85	1533.93
727.03	1583.08
727.21	1851.36
727.39	2113.50
727.57	3338.19
727.76	4302.78
727.94	4714.42
728.12	5064.63
728.30	5040.05
728.48	4409.28
728.66	3522.51
728.84	3254.22
729.03	2908.12
729.21	2652.12
729.39	2213.85
729.57	2154.46
729.75	1804.26
729.93	1839.08
730.11	1699.81
730.30	1519.59
730.48	1609.70
730.66	1611.75
730.84	1632.23
731.02	1445.87
731.20	1607.66
731.38	1521.64
731.56	1519.59
731.74	1490.92
731.93	1568.74
732.11	1574.89
732.29	1599.46
732.47	1513.45
732.65	1466.35
732.83	1544.17
733.01	1576.94
733.19	1509.35
733.37	1572.84
733.56	1531.88
733.74	1515.50
733.92	1615.85
734.10	1470.44
734.28	1626.09
734.46	1357.80
734.64	1527.78
734.82	1509.35
735.00	1456.11
735.18	1511.40
735.36	1533.93
735.54	1501.16
735.73	1574.89
735.91	1533.93
736.09	1587.18
736.27	1445.87
736.45	1599.46
736.63	1462.25
736.81	1513.45
736.99	1505.26
737.17	1581.03
737.35	1544.17
737.53	1556.46
737.71	1509.35
737.89	1574.89
738.07	1560.55
738.25	1544.17
738.43	1400.81
738.61	1535.98
738.80	1495.02
738.98	1431.53
739.16	1488.87
739.34	1501.16
739.52	1585.13
739.70	1519.59
739.88	1640.42
740.06	1574.89
740.24	1417.19
740.42	1591.27
740.60	1519.59
740.78	1542.12
740.96	1542.12
741.14	1511.40
741.32	1507.30
741.50	1562.60
741.68	1632.23
741.86	1632.23
742.04	1564.65
742.22	1462.25
742.40	1517.54
742.58	1509.35
742.76	1486.83
742.94	1646.57
743.12	1482.73
743.30	1509.35
743.48	1533.93
743.66	1484.78
743.84	1558.50
744.02	1615.85
744.20	1542.12
744.38	1552.36
744.56	1482.73
744.74	1589.22
744.92	1552.36
745.10	1564.65
745.28	1490.92
745.46	1601.51
745.64	1583.08
745.82	1599.46
746.00	1538.02
746.18	1525.74
746.36	1525.74
746.54	1492.97
746.72	1583.08
746.90	1476.59
747.08	1542.12
747.26	1564.65
747.44	1570.79
747.62	1595.37
747.80	1525.74
747.98	1593.32
748.15	1501.16
748.33	1544.17
748.51	1533.93
748.69	1519.59
748.87	1558.50
749.05	1533.93
749.23	1515.50
749.41	1484.78
749.59	1542.12
749.77	1548.26
749.95	1566.70
750.13	1511.40
750.31	1591.27
750.49	1538.02
750.67	1517.54
750.85	1566.70
751.03	1576.94
751.20	1660.90
751.38	1624.04
751.56	1574.89
751.74	1503.21
751.92	1552.36
752.10	1535.98
752.28	1593.32
752.46	1452.01
752.64	1492.97
752.82	1458.15
753.00	1527.78
753.18	1581.03
753.35	1531.88
753.53	1525.74
753.71	1544.17
753.89	1542.12
754.07	1552.36
754.25	1624.04
754.43	1630.18
754.61	1417.19
754.79	1589.22
754.97	1521.64
755.14	1538.02
755.32	1538.02
755.50	1492.97
755.68	1548.26
755.86	1562.60
756.04	1495.02
756.22	1427.43
756.40	1597.42
756.57	1665.00
756.75	1482.73
756.93	1572.84
757.11	1566.70
757.29	1472.49
757.47	1492.97
757.65	1505.26
757.82	1378.28
758.00	1531.88
758.18	1525.74
758.36	1472.49
758.54	1574.89
758.72	1515.50
758.90	1601.51
759.07	1474.54
759.25	1462.25
759.43	1603.56
759.61	1464.30
759.79	1986.53
759.97	1554.41
760.15	1464.30
760.32	1540.07
760.50	1562.60
760.68	1665.00
760.86	1478.63
761.04	1570.79
761.22	1650.66
761.39	1509.35
761.57	1601.51
761.75	1542.12
761.93	1576.94
762.11	1517.54
762.28	1587.18
762.46	1525.74
762.64	1546.22
762.82	1495.02
763.00	1429.48
763.18	1626.09
763.35	1443.82
763.53	1488.87
763.71	1566.70
763.89	1519.59
764.07	1585.13
764.24	1538.02
764.42	1521.64
764.60	1486.83
764.78	1593.32
764.96	1609.70
765.13	1525.74
765.31	1564.65
765.49	1511.40
765.67	1468.39
765.84	1628.14
766.02	1486.83
766.20	1454.06
766.38	1619.94
766.56	1583.08
766.73	1581.03
766.91	1454.06
767.09	1515.50
767.27	1574.89
767.44	1456.11
767.62	1468.39
767.80	1589.22
767.98	1574.89
768.15	1609.70
768.33	1589.22
768.51	1566.70
768.69	1597.42
768.87	1568.74
769.04	1570.79
769.22	1558.50
769.40	1572.84
769.58	1677.29
769.75	1544.17
769.93	1642.47
770.11	1558.50
770.28	1488.87
770.46	1558.50
770.64	1607.66
770.82	1472.49
770.99	1476.59
771.17	1523.69
771.35	1484.78
771.53	1546.22
771.70	1572.84
771.88	1548.26
772.06	1495.02
772.23	1624.04
772.41	1542.12
772.59	1495.02
772.77	1560.55
772.94	1562.60
773.12	1615.85
773.30	1513.45
773.47	1523.69
773.65	1509.35
773.83	1517.54
774.01	1578.98
774.18	1447.91
774.36	1490.92
774.54	1503.21
774.71	1478.63
774.89	1472.49
775.07	1480.68
775.24	1517.54
775.42	1425.39
775.60	1597.42
775.78	1519.59
775.95	1505.26
776.13	1501.16
776.31	1484.78
776.48	1443.82
776.66	1554.41
776.84	1599.46
777.01	1492.97
777.19	1544.17
777.37	1531.88
777.54	1587.18
777.72	1607.66
777.90	1544.17
778.07	1529.83
778.25	1636.33
778.43	1603.56
778.60	1466.35
778.78	1640.42
778.96	1599.46
779.13	1495.02
779.31	1542.12
779.49	1570.79
779.66	1542.12
779.84	1556.46
780.01	1474.54
780.19	1449.96
780.37	1605.61
780.54	1533.93
780.72	1513.45
780.90	1470.44
781.07	1474.54
781.25	1556.46
781.43	1566.70
781.60	1544.17
781.78	1609.70
781.95	1511.40
782.13	1490.92
782.31	1540.07
782.48	1501.16
782.66	1519.59
782.83	1648.61
783.01	1544.17
783.19	1529.83
783.36	1566.70
783.54	1486.83
783.72	1542.12
783.89	1529.83
784.07	1574.89
784.24	1603.56
784.42	1525.74
784.60	1576.94
784.77	1554.41
784.95	1480.68
785.12	1521.64
785.30	1538.02
785.47	1542.12
785.65	1464.30
785.83	1556.46
786.00	1511.40
786.18	1503.21
786.35	1562.60
786.53	1558.50
786.71	1599.46
786.88	1599.46
787.06	1482.73
787.23	1464.30
787.41	1515.50
787.58	1503.21
787.76	1458.15
787.94	1480.68
788.11	1572.84
788.29	1419.24
788.46	1535.98
788.64	1495.02
788.81	1515.50
788.99	1466.35
789.16	1492.97
789.34	1566.70
789.52	1544.17
789.69	1452.01
789.87	1445.87
790.04	1468.39
790.22	1550.31
790.39	1624.04
790.57	1531.88
790.74	1607.66
790.92	1562.60
791.09	1445.87
791.27	1566.70
791.44	1617.90
791.62	1560.55
791.79	1630.18
791.97	1533.93
792.15	1726.44
792.32	1568.74
792.50	1605.61
792.67	1605.61
792.85	1626.09
793.02	1558.50
793.20	1462.25
793.37	1402.86
793.55	1513.45
793.72	1509.35
793.90	1560.55
794.07	1517.54
794.25	1521.64
794.42	1566.70
794.60	1562.60
794.77	1515.50
794.95	1626.09
795.12	1542.12
795.30	1546.22
795.47	1503.21
795.65	1662.95
795.82	1597.42
796.00	1478.63
796.17	1452.01
796.34	1505.26
796.52	1583.08
796.69	1527.78
796.87	1476.59
797.04	1593.32
797.22	1578.98
797.39	1550.31
797.57	1556.46
797.74	1476.59
797.92	1527.78
798.09	1583.08
798.27	1572.84
798.44	1492.97
798.62	1533.93
798.79	1554.41
798.96	1529.83
799.14	1538.02
799.31	1624.04
799.49	1523.69
799.66	1542.12
799.84	1589.22
800.01	1562.60
800.19	1611.75
800.36	1460.20
800.53	1540.07
800.71	1595.37
800.88	1601.51
801.06	1497.07
801.23	1501.16
801.41	1515.50
801.58	1529.83
801.75	1507.30
801.93	1550.31
802.10	1521.64
802.28	1513.45
802.45	1484.78
802.63	1486.83
802.80	1576.94
802.97	1488.87
803.15	1583.08
803.32	1570.79
803.50	1464.30
803.67	1527.78
803.84	1462.25
804.02	1585.13
804.19	1435.63
804.37	1454.06
804.54	1452.01
804.71	1533.93
804.89	1548.26
805.06	1550.31
805.24	1523.69
805.41	1445.87
805.58	1474.54
805.76	1587.18
805.93	1568.74
806.10	1597.42
806.28	1511.40
806.45	1550.31
806.63	1495.02
806.80	1566.70
806.97	1495.02
807.15	1476.59
807.32	1572.84
807.49	1542.12
807.67	1525.74
807.84	1574.89
808.01	1509.35
808.19	1638.38
808.36	1662.95
808.54	1519.59
808.71	1535.98
808.88	1562.60
809.06	1595.37
809.23	1550.31
809.40	1503.21
809.58	1656.81
809.75	1548.26
809.92	1435.63
810.10	1667.05
810.27	1480.68
810.44	1615.85
810.62	1517.54
810.79	1574.89
810.96	1460.20
811.14	1564.65
811.31	1617.90
811.48	1585.13
811.66	1546.22
811.83	1583.08
812.00	1517.54
812.18	1574.89
812.35	1607.66
812.52	1515.50
812.69	1497.07
812.87	1540.07
813.04	1464.30
813.21	1556.46
813.39	1576.94
813.56	1525.74
813.73	1583.08
813.91	1388.52
814.08	1466.35
814.25	1458.15
814.42	1480.68
814.60	1562.60
814.77	1521.64
814.94	1501.16
815.12	1503.21
815.29	1601.51
815.46	1546.22
815.63	1550.31
815.81	1583.08
815.98	1517.54
816.15	1466.35
816.33	1492.97
816.50	1507.30
816.67	1585.13
816.84	1421.29
817.02	1419.24
817.19	1544.17
817.36	1492.97
817.53	1527.78
817.71	1509.35
817.88	1570.79
818.05	1511.40
818.22	1449.96
818.40	1568.74
818.57	1562.60
818.74	1550.31
818.91	1429.48
819.09	1527.78
819.26	1613.80
819.43	1519.59
819.60	1501.16
819.78	1505.26
819.95	1613.80
820.12	1540.07
820.29	1546.22
820.47	1601.51
820.64	1511.40
820.81	1452.01
820.98	1505.26
821.15	1486.83
821.33	1564.65
821.50	1552.36
821.67	1605.61
821.84	1527.78
822.02	1581.03
822.19	1550.31
822.36	1499.11
822.53	1488.87
822.70	1507.30
822.88	1505.26
823.05	1572.84
823.22	1462.25
823.39	1626.09
823.56	1531.88
823.74	1593.32
823.91	1454.06
824.08	1548.26
824.25	1470.44
824.42	1558.50
824.60	1419.24
824.77	1509.35
824.94	1513.45
825.11	1564.65
825.28	1456.11
825.45	1607.66
825.63	1525.74
825.80	1550.31
825.97	1482.73
826.14	1533.93
826.31	1564.65
826.48	1531.88
826.66	1488.87
826.83	1554.41
827.00	1578.98
827.17	1527.78
827.34	1566.70
827.51	1550.31
827.69	1525.74
827.86	1540.07
828.03	1595.37
828.20	1564.65
828.37	1490.92
828.54	1495.02
828.71	1452.01
828.89	1576.94
829.06	1583.08
829.23	1636.33
829.40	1499.11
829.57	1486.83
829.74	1527.78
829.91	1574.89
830.09	1490.92
830.26	1533.93
830.43	1589.22
830.60	1509.35
830.77	1570.79
830.94	1533.93
831.11	1499.11
831.28	1517.54
831.46	1642.47
831.63	1501.16
831.80	1562.60
831.97	1523.69
832.14	1492.97
832.31	1548.26
832.48	1535.98
832.65	1593.32
832.82	1570.79
832.99	1568.74
833.17	1509.35
833.34	1589.22
833.51	1538.02
833.68	1499.11
833.85	1523.69
834.02	1505.26
834.19	1452.01
834.36	1513.45
834.53	1597.42
834.70	1574.89
834.87	1685.48
835.04	1497.07
835.22	1490.92
835.39	1486.83
835.56	1513.45
835.73	1484.78
835.90	1552.36
836.07	1484.78
836.24	1503.21
836.41	1380.33
836.58	1497.07
836.75	1613.80
836.92	1564.65
837.09	1523.69
837.26	1583.08
837.43	1474.54
837.60	1511.40
837.77	1511.40
837.94	1523.69
838.12	1560.55
838.29	1566.70
838.46	1452.01
838.63	1542.12
838.80	1576.94
838.97	1589.22
839.14	1505.26
839.31	1488.87
839.48	1640.42
839.65	1566.70
839.82	1564.65
839.99	1572.84
840.16	1470.44
840.33	1505.26
840.50	1509.35
840.67	1517.54
840.84	1470.44
841.01	1587.18
841.18	1583.08
841.35	1478.63
841.52	1542.12
841.69	1572.84
841.86	1583.08
842.03	1548.26
842.20	1636.33
842.37	1499.11
842.54	1515.50
842.71	1550.31
842.88	1411.05
843.05	1527.78
843.22	1548.26
843.39	1572.84
843.56	1578.98
843.73	1501.16
843.90	1519.59
844.07	1540.07
844.24	1566.70
844.41	1562.60
844.58	1533.93
844.75	1490.92
844.92	1525.74
845.09	1490.92
845.26	1452.01
845.43	1542.12
845.60	1458.15
845.77	1607.66
845.94	1503.21
846.10	1519.59
846.27	1513.45
846.44	1486.83
846.61	1544.17
846.78	1552.36
846.95	1599.46
847.12	1556.46
847.29	1558.50
847.46	1535.98
847.63	1470.44
847.80	1521.64
847.97	1497.07
848.14	1640.42
848.31	1490.92
848.48	1501.16
848.65	1525.74
848.82	1564.65
848.98	1595.37
849.15	1535.98
849.32	1550.31
849.49	1585.13
849.66	1558.50
849.83	1601.51
850.00	1497.07
850.17	1488.87
850.34	1574.89
850.51	1562.60
850.68	1472.49
850.85	1617.90
851.01	1548.26
851.18	1544.17
851.35	1495.02
851.52	1513.45
851.69	1568.74
851.86	1533.93
852.03	1417.19
852.20	1628.14
852.37	1499.11
852.53	1462.25
852.70	1568.74
852.87	1568.74
853.04	1550.31
853.21	1529.83
853.38	1558.50
853.55	1597.42
853.72	1642.47
853.89	1454.06
854.05	1540.07
854.22	1566.70
854.39	1558.50
854.56	1589.22
854.73	1601.51
854.90	1449.96
855.07	1576.94
855.23	1533.93
855.40	1513.45
855.57	1535.98
855.74	1478.63
855.91	1708.01
856.08	1503.21
856.25	1423.34
856.41	1523.69
856.58	1458.15
856.75	1488.87
856.92	1449.96
857.09	1632.23
857.26	1515.50
857.42	1568.74
857.59	1533.93
857.76	1470.44
857.93	1511.40
858.10	1615.85
858.27	1527.78
858.43	1599.46
858.60	1472.49
858.77	1544.17
858.94	1552.36
859.11	1533.93
859.27	1501.16
859.44	1472.49
859.61	1613.80
859.78	1540.07
859.95	1509.35
860.12	1503.21
860.28	1636.33
860.45	1632.23
860.62	1554.41
860.79	1527.78
860.95	1554.41
861.12	1507.30
861.29	1507.30
861.46	1531.88
861.63	1535.98
861.79	1589.22
861.96	1519.59
862.13	1535.98
862.30	1591.27
862.47	1503.21
862.63	1531.88
862.80	1644.52
862.97	1566.70
863.14	1548.26
863.30	1550.31
863.47	1513.45
863.64	1525.74
863.81	1533.93
863.97	1437.67
864.14	1583.08
864.31	1509.35
864.48	1484.78
864.65	1511.40
864.81	1656.81
864.98	1546.22
865.15	1581.03
865.32	1595.37
865.48	1599.46
865.65	1642.47
865.82	1511.40
865.98	1578.98
866.15	1558.50
866.32	1531.88
866.49	1560.55
866.65	1566.70
866.82	1478.63
866.99	1521.64
867.16	1511.40
867.32	1523.69
867.49	1538.02
867.66	1472.49
867.83	1495.02
867.99	1525.74
868.16	1531.88
868.33	1480.68
868.49	1501.16
868.66	1548.26
868.83	1544.17
868.99	1515.50
869.16	1513.45
869.33	1572.84
869.50	1632.23
869.66	1560.55
869.83	1472.49
870.00	1511.40
870.16	1529.83
870.33	1468.39
870.50	1581.03
870.66	1521.64
870.83	1593.32
871.00	1589.22
871.17	1525.74
871.33	1601.51
871.50	1544.17
871.67	1574.89
871.83	1460.20
872.00	1578.98
872.17	1525.74
872.33	1636.33
872.50	1554.41
872.67	1548.26
872.83	1542.12
873.00	1513.45
873.17	1462.25
873.33	1515.50
873.50	1538.02
873.67	1456.11
873.83	1470.44
874.00	1519.59
874.16	1562.60
874.33	1531.88
874.50	1480.68
874.66	1529.83
874.83	1550.31
875.00	1605.61
875.16	1566.70
875.33	1599.46
875.50	1476.59
875.66	1480.68
875.83	1478.63
875.99	1521.64
876.16	1517.54
876.33	1476.59
876.49	1515.50
876.66	1556.46
876.83	1533.93
876.99	1472.49
877.16	1552.36
877.32	1460.20
877.49	1558.50
877.66	1597.42
877.82	1560.55
877.99	1550.31
878.15	1585.13
878.32	1529.83
878.49	1535.98
878.65	1531.88
878.82	1570.79
878.98	1538.02
879.15	1570.79
879.32	1581.03
879.48	1544.17
879.65	1503.21
879.81	1460.20
879.98	1501.16
880.15	1492.97
880.31	1609.70
880.48	1486.83
880.64	1554.41
880.81	1566.70
880.97	1513.45
881.14	1601.51
881.31	1417.19
881.47	1658.85
881.64	1458.15
881.80	1529.83
881.97	1521.64
882.13	1535.98
882.30	1486.83
882.47	1511.40
882.63	1544.17
882.80	1552.36
882.96	1509.35
883.13	1568.74
883.29	1492.97
883.46	1570.79
883.62	1660.90
883.79	1560.55
883.95	1591.27
884.12	1564.65
884.29	1544.17
884.45	1611.75
884.62	1544.17
884.78	1560.55
884.95	1617.90
885.11	1431.53
885.28	1593.32
885.44	1535.98
885.61	1599.46
885.77	1574.89
885.94	1591.27
886.10	1566.70
886.27	1490.92
886.43	1550.31
886.60	1632.23
886.76	1562.60
886.93	1531.88
887.09	1556.46
887.26	1521.64
887.42	1523.69
887.59	1615.85
887.75	1556.46
887.92	1595.37
888.08	1611.75
888.25	1599.46
888.41	1601.51
888.58	1529.83
888.74	1513.45
888.91	1519.59
>>>>>End Processed Spectral Data<<<<<
