SpectraSuite Data File
++++++++++++++++++++++++++++++++++++
Date: Tue May 03 12:55:11 CEST 2016
User: root
Dark Spectrum Present: No
Reference Spectrum Present: No
Number of Sampled Component Spectra: 1
Spectrometers: USB4C02835
Integration Time (usec): 100000 (USB4C02835)
Spectra Averaged: 1 (USB4C02835)
Boxcar Smoothing: 0 (USB4C02835)
Correct for Electrical Dark: No (USB4C02835)
Strobe/Lamp Enabled: No (USB4C02835)
Correct for Detector Non-linearity: No (USB4C02835)
Correct for Stray Light: No (USB4C02835)
Number of Pixels in Processed Spectrum: 3648
>>>>>Begin Processed Spectral Data<<<<<
177.47	1337.32
177.69	1337.32
177.91	1337.32
178.13	1390.57
178.36	1339.37
178.58	1462.25
178.80	1578.98
179.02	1425.39
179.24	1484.78
179.46	1591.27
179.68	1544.17
179.90	1523.69
180.13	1468.39
180.35	1556.46
180.57	1490.92
180.79	1527.78
181.01	1523.69
181.23	1564.65
181.45	1587.18
181.67	1464.30
181.90	1538.02
182.12	1462.25
182.34	1513.45
182.56	1593.32
182.78	1517.54
183.00	1552.36
183.22	1568.74
183.44	1515.50
183.66	1603.56
183.89	1632.23
184.11	1560.55
184.33	1533.93
184.55	1556.46
184.77	1564.65
184.99	1611.75
185.21	1558.50
185.43	1642.47
185.65	1495.02
185.87	1509.35
186.10	1626.09
186.32	1605.61
186.54	1570.79
186.76	1513.45
186.98	1568.74
187.20	1513.45
187.42	1509.35
187.64	1562.60
187.86	1495.02
188.08	1589.22
188.30	1513.45
188.52	1480.68
188.75	1562.60
188.97	1683.43
189.19	1445.87
189.41	1519.59
189.63	1560.55
189.85	1472.49
190.07	1474.54
190.29	1449.96
190.51	1621.99
190.73	1523.69
190.95	1570.79
191.17	1513.45
191.39	1409.00
191.61	1482.73
191.84	1472.49
192.06	1554.41
192.28	1460.20
192.50	1615.85
192.72	1597.42
192.94	1566.70
193.16	1564.65
193.38	1511.40
193.60	1492.97
193.82	1519.59
194.04	1599.46
194.26	1552.36
194.48	1531.88
194.70	1499.11
194.92	1519.59
195.14	1548.26
195.36	1546.22
195.58	1572.84
195.80	1484.78
196.02	1492.97
196.24	1548.26
196.46	1525.74
196.69	1505.26
196.91	1665.00
197.13	1527.78
197.35	1482.73
197.57	1609.70
197.79	1478.63
198.01	1603.56
198.23	1476.59
198.45	1585.13
198.67	1480.68
198.89	1550.31
199.11	1515.50
199.33	1535.98
199.55	1523.69
199.77	1556.46
199.99	1615.85
200.21	1454.06
200.43	1615.85
200.65	1519.59
200.87	1380.33
201.09	1570.79
201.31	1591.27
201.53	1513.45
201.75	1490.92
201.97	1572.84
202.19	1433.58
202.41	1568.74
202.63	1681.38
202.85	1517.54
203.07	1585.13
203.29	1581.03
203.51	1443.82
203.73	1482.73
203.95	1699.81
204.17	1527.78
204.39	1556.46
204.61	1540.07
204.83	1548.26
205.05	1517.54
205.27	1521.64
205.49	1601.51
205.71	1482.73
205.93	1488.87
206.15	1507.30
206.37	1513.45
206.59	1554.41
206.81	1529.83
207.03	1546.22
207.25	1466.35
207.47	1523.69
207.69	1564.65
207.91	1626.09
208.13	1566.70
208.34	1509.35
208.56	1492.97
208.78	1595.37
209.00	1497.07
209.22	1517.54
209.44	1509.35
209.66	1517.54
209.88	1443.82
210.10	1574.89
210.32	1533.93
210.54	1708.01
210.76	1521.64
210.98	1548.26
211.20	1435.63
211.42	1515.50
211.64	1525.74
211.86	1554.41
212.08	1490.92
212.30	1511.40
212.52	1523.69
212.74	1578.98
212.96	1570.79
213.17	1535.98
213.39	1540.07
213.61	1595.37
213.83	1708.01
214.05	1492.97
214.27	1558.50
214.49	1468.39
214.71	1466.35
214.93	1538.02
215.15	1583.08
215.37	1527.78
215.59	1435.63
215.81	1560.55
216.03	1615.85
216.24	1544.17
216.46	1574.89
216.68	1574.89
216.90	1548.26
217.12	1601.51
217.34	1497.07
217.56	1570.79
217.78	1574.89
218.00	1540.07
218.22	1533.93
218.44	1525.74
218.66	1583.08
218.87	1669.09
219.09	1574.89
219.31	1576.94
219.53	1554.41
219.75	1492.97
219.97	1470.44
220.19	1542.12
220.41	1566.70
220.63	1595.37
220.85	1611.75
221.06	1527.78
221.28	1568.74
221.50	1495.02
221.72	1585.13
221.94	1560.55
222.16	1523.69
222.38	1533.93
222.60	1550.31
222.82	1480.68
223.03	1535.98
223.25	1492.97
223.47	1509.35
223.69	1585.13
223.91	1632.23
224.13	1519.59
224.35	1542.12
224.57	1609.70
224.78	1566.70
225.00	1464.30
225.22	1482.73
225.44	1535.98
225.66	1527.78
225.88	1503.21
226.10	1640.42
226.32	1601.51
226.53	1581.03
226.75	1525.74
226.97	1574.89
227.19	1546.22
227.41	1490.92
227.63	1585.13
227.85	1517.54
228.06	1583.08
228.28	1501.16
228.50	1542.12
228.72	1581.03
228.94	1482.73
229.16	1515.50
229.37	1460.20
229.59	1542.12
229.81	1667.05
230.03	1568.74
230.25	1464.30
230.47	1492.97
230.69	1499.11
230.90	1570.79
231.12	1509.35
231.34	1570.79
231.56	1642.47
231.78	1460.20
232.00	1560.55
232.21	1513.45
232.43	1503.21
232.65	1443.82
232.87	1521.64
233.09	1544.17
233.30	1544.17
233.52	1642.47
233.74	1480.68
233.96	1581.03
234.18	1429.48
234.40	1525.74
234.61	1591.27
234.83	1443.82
235.05	1486.83
235.27	1650.66
235.49	1599.46
235.70	1540.07
235.92	1617.90
236.14	1564.65
236.36	1626.09
236.58	1476.59
236.79	1632.23
237.01	1566.70
237.23	1443.82
237.45	1576.94
237.67	1456.11
237.88	1558.50
238.10	1634.28
238.32	1521.64
238.54	1495.02
238.76	1538.02
238.97	1484.78
239.19	1480.68
239.41	1540.07
239.63	1521.64
239.85	1449.96
240.06	1544.17
240.28	1517.54
240.50	1583.08
240.72	1568.74
240.93	1587.18
241.15	1587.18
241.37	1480.68
241.59	1591.27
241.81	1538.02
242.02	1521.64
242.24	1517.54
242.46	1517.54
242.68	1529.83
242.89	1501.16
243.11	1611.75
243.33	1542.12
243.55	1519.59
243.76	1544.17
243.98	1449.96
244.20	1503.21
244.42	1585.13
244.64	1599.46
244.85	1447.91
245.07	1458.15
245.29	1607.66
245.51	1540.07
245.72	1523.69
245.94	1511.40
246.16	1550.31
246.38	1552.36
246.59	1484.78
246.81	1503.21
247.03	1560.55
247.24	1531.88
247.46	1458.15
247.68	1548.26
247.90	1527.78
248.11	1566.70
248.33	1560.55
248.55	1511.40
248.77	1546.22
248.98	1570.79
249.20	1636.33
249.42	1568.74
249.64	1527.78
249.85	1507.30
250.07	1531.88
250.29	1527.78
250.50	1417.19
250.72	1398.76
250.94	1570.79
251.16	1648.61
251.37	1603.56
251.59	1521.64
251.81	1576.94
252.02	1501.16
252.24	1464.30
252.46	1599.46
252.68	1527.78
252.89	1437.67
253.11	1535.98
253.33	1693.67
253.54	1597.42
253.76	1490.92
253.98	1544.17
254.20	1499.11
254.41	1501.16
254.63	1484.78
254.85	1562.60
255.06	1503.21
255.28	1572.84
255.50	1593.32
255.71	1566.70
255.93	1560.55
256.15	1527.78
256.36	1581.03
256.58	1472.49
256.80	1574.89
257.02	1482.73
257.23	1464.30
257.45	1488.87
257.67	1597.42
257.88	1472.49
258.10	1558.50
258.32	1525.74
258.53	1490.92
258.75	1607.66
258.97	1456.11
259.18	1548.26
259.40	1499.11
259.62	1591.27
259.83	1558.50
260.05	1587.18
260.27	1714.15
260.48	1544.17
260.70	1466.35
260.92	1507.30
261.13	1562.60
261.35	1492.97
261.57	1576.94
261.78	1472.49
262.00	1566.70
262.22	1529.83
262.43	1521.64
262.65	1519.59
262.86	1542.12
263.08	1628.14
263.30	1560.55
263.51	1456.11
263.73	1454.06
263.95	1603.56
264.16	1503.21
264.38	1566.70
264.60	1581.03
264.81	1511.40
265.03	1566.70
265.25	1601.51
265.46	1509.35
265.68	1595.37
265.89	1519.59
266.11	1525.74
266.33	1570.79
266.54	1607.66
266.76	1570.79
266.98	1538.02
267.19	1560.55
267.41	1538.02
267.62	1587.18
267.84	1476.59
268.06	1605.61
268.27	1589.22
268.49	1546.22
268.70	1548.26
268.92	1523.69
269.14	1480.68
269.35	1478.63
269.57	1540.07
269.79	1529.83
270.00	1578.98
270.22	1603.56
270.43	1470.44
270.65	1482.73
270.87	1460.20
271.08	1538.02
271.30	1640.42
271.51	1495.02
271.73	1570.79
271.95	1615.85
272.16	1574.89
272.38	1540.07
272.59	1484.78
272.81	1607.66
273.02	1538.02
273.24	1525.74
273.46	1603.56
273.67	1550.31
273.89	1468.39
274.10	1499.11
274.32	1593.32
274.54	1503.21
274.75	1572.84
274.97	1533.93
275.18	1517.54
275.40	1542.12
275.61	1589.22
275.83	1523.69
276.05	1562.60
276.26	1523.69
276.48	1611.75
276.69	1488.87
276.91	1464.30
277.12	1576.94
277.34	1585.13
277.55	1574.89
277.77	1578.98
277.99	1595.37
278.20	1527.78
278.42	1548.26
278.63	1519.59
278.85	1433.58
279.06	1472.49
279.28	1566.70
279.49	1527.78
279.71	1552.36
279.93	1548.26
280.14	1578.98
280.36	1431.53
280.57	1572.84
280.79	1621.99
281.00	1544.17
281.22	1456.11
281.43	1544.17
281.65	1468.39
281.86	1495.02
282.08	1486.83
282.29	1595.37
282.51	1533.93
282.73	1511.40
282.94	1409.00
283.16	1581.03
283.37	1585.13
283.59	1531.88
283.80	1449.96
284.02	1521.64
284.23	1570.79
284.45	1499.11
284.66	1542.12
284.88	1501.16
285.09	1544.17
285.31	1578.98
285.52	1570.79
285.74	1433.58
285.95	1566.70
286.17	1535.98
286.38	1585.13
286.60	1566.70
286.81	1480.68
287.03	1468.39
287.24	1581.03
287.46	1521.64
287.67	1560.55
287.89	1665.00
288.10	1513.45
288.32	1572.84
288.53	1570.79
288.75	1587.18
288.96	1632.23
289.18	1484.78
289.39	1566.70
289.61	1550.31
289.82	1705.96
290.04	1560.55
290.25	1370.09
290.47	1599.46
290.68	1462.25
290.90	1578.98
291.11	1429.48
291.33	1607.66
291.54	1472.49
291.76	1527.78
291.97	1456.11
292.18	1578.98
292.40	1525.74
292.61	1474.54
292.83	1636.33
293.04	1562.60
293.26	1529.83
293.47	1521.64
293.69	1501.16
293.90	1517.54
294.12	1617.90
294.33	1519.59
294.55	1540.07
294.76	1558.50
294.97	1589.22
295.19	1603.56
295.40	1468.39
295.62	1546.22
295.83	1591.27
296.05	1527.78
296.26	1583.08
296.48	1578.98
296.69	1554.41
296.90	1593.32
297.12	1480.68
297.33	1552.36
297.55	1462.25
297.76	1525.74
297.98	1585.13
298.19	1501.16
298.41	1607.66
298.62	1517.54
298.83	1574.89
299.05	1570.79
299.26	1497.07
299.48	1523.69
299.69	1583.08
299.90	1513.45
300.12	1490.92
300.33	1587.18
300.55	1621.99
300.76	1619.94
300.98	1495.02
301.19	1642.47
301.40	1488.87
301.62	1478.63
301.83	1482.73
302.05	1570.79
302.26	1441.77
302.47	1529.83
302.69	1570.79
302.90	1574.89
303.12	1435.63
303.33	1681.38
303.54	1650.66
303.76	1492.97
303.97	1599.46
304.19	1628.14
304.40	1554.41
304.61	1480.68
304.83	1646.57
305.04	1607.66
305.26	1515.50
305.47	1495.02
305.68	1568.74
305.90	1447.91
306.11	1583.08
306.33	1445.87
306.54	1542.12
306.75	1603.56
306.97	1478.63
307.18	1458.15
307.39	1560.55
307.61	1595.37
307.82	1484.78
308.04	1570.79
308.25	1445.87
308.46	1554.41
308.68	1540.07
308.89	1449.96
309.10	1609.70
309.32	1527.78
309.53	1511.40
309.74	1550.31
309.96	1562.60
310.17	1595.37
310.39	1552.36
310.60	1550.31
310.81	1583.08
311.03	1464.30
311.24	1550.31
311.45	1574.89
311.67	1605.61
311.88	1544.17
312.09	1529.83
312.31	1513.45
312.52	1509.35
312.73	1437.67
312.95	1452.01
313.16	1544.17
313.37	1662.95
313.59	1576.94
313.80	1621.99
314.01	1656.81
314.23	1492.97
314.44	1527.78
314.65	1439.72
314.87	1443.82
315.08	1464.30
315.29	1478.63
315.51	1466.35
315.72	1525.74
315.93	1683.43
316.15	1626.09
316.36	1482.73
316.57	1462.25
316.79	1564.65
317.00	1603.56
317.21	1529.83
317.43	1497.07
317.64	1560.55
317.85	1490.92
318.07	1611.75
318.28	1695.72
318.49	1734.63
318.70	1765.35
318.92	1841.12
319.13	1703.91
319.34	1691.62
319.56	1624.04
319.77	1626.09
319.98	1587.18
320.20	1578.98
320.41	1599.46
320.62	1589.22
320.83	1439.72
321.05	1644.52
321.26	1595.37
321.47	1507.30
321.69	1572.84
321.90	1472.49
322.11	1542.12
322.32	1544.17
322.54	1482.73
322.75	1507.30
322.96	1568.74
323.18	1470.44
323.39	1419.24
323.60	1523.69
323.81	1583.08
324.03	1429.48
324.24	1525.74
324.45	1581.03
324.66	1486.83
324.88	1609.70
325.09	1591.27
325.30	1564.65
325.52	1583.08
325.73	1558.50
325.94	1484.78
326.15	1439.72
326.37	1533.93
326.58	1568.74
326.79	1542.12
327.00	1462.25
327.22	1558.50
327.43	1433.58
327.64	1445.87
327.85	1597.42
328.07	1597.42
328.28	1607.66
328.49	1476.59
328.70	1490.92
328.92	1542.12
329.13	1505.26
329.34	1540.07
329.55	1597.42
329.76	1603.56
329.98	1550.31
330.19	1630.18
330.40	1501.16
330.61	1554.41
330.83	1542.12
331.04	1497.07
331.25	1562.60
331.46	1558.50
331.68	1511.40
331.89	1568.74
332.10	1507.30
332.31	1544.17
332.52	1499.11
332.74	1535.98
332.95	1423.34
333.16	1501.16
333.37	1511.40
333.58	1499.11
333.80	1554.41
334.01	1404.91
334.22	1486.83
334.43	1501.16
334.64	1415.15
334.86	1421.29
335.07	1484.78
335.28	1550.31
335.49	1456.11
335.70	1560.55
335.92	1632.23
336.13	1728.49
336.34	1665.00
336.55	1525.74
336.76	1599.46
336.98	1544.17
337.19	1533.93
337.40	1566.70
337.61	1654.76
337.82	1533.93
338.04	1597.42
338.25	1452.01
338.46	1583.08
338.67	1511.40
338.88	1497.07
339.09	1509.35
339.31	1578.98
339.52	1525.74
339.73	1427.43
339.94	1511.40
340.15	1624.04
340.36	1550.31
340.58	1542.12
340.79	1429.48
341.00	1538.02
341.21	1488.87
341.42	1660.90
341.63	1572.84
341.85	1587.18
342.06	1535.98
342.27	1505.26
342.48	1665.00
342.69	1523.69
342.90	1511.40
343.12	1572.84
343.33	1603.56
343.54	1603.56
343.75	1613.80
343.96	1595.37
344.17	1443.82
344.38	1552.36
344.60	1495.02
344.81	1513.45
345.02	1441.77
345.23	1519.59
345.44	1646.57
345.65	1486.83
345.86	1529.83
346.07	1667.05
346.29	1503.21
346.50	1617.90
346.71	1626.09
346.92	1621.99
347.13	1613.80
347.34	1576.94
347.55	1533.93
347.76	1501.16
347.98	1517.54
348.19	1507.30
348.40	1644.52
348.61	1456.11
348.82	1574.89
349.03	1585.13
349.24	1470.44
349.45	1517.54
349.66	1357.80
349.88	1517.54
350.09	1540.07
350.30	1568.74
350.51	1542.12
350.72	1576.94
350.93	1552.36
351.14	1531.88
351.35	1564.65
351.56	1492.97
351.77	1480.68
351.99	1570.79
352.20	1607.66
352.41	1525.74
352.62	1521.64
352.83	1495.02
353.04	1546.22
353.25	1482.73
353.46	1529.83
353.67	1611.75
353.88	1470.44
354.09	1548.26
354.30	1626.09
354.52	1538.02
354.73	1607.66
354.94	1492.97
355.15	1484.78
355.36	1525.74
355.57	1554.41
355.78	1578.98
355.99	1523.69
356.20	1517.54
356.41	1546.22
356.62	1523.69
356.83	1517.54
357.04	1638.38
357.25	1527.78
357.46	1540.07
357.68	1478.63
357.89	1486.83
358.10	1550.31
358.31	1513.45
358.52	1476.59
358.73	1429.48
358.94	1490.92
359.15	1480.68
359.36	1519.59
359.57	1519.59
359.78	1515.50
359.99	1591.27
360.20	1437.67
360.41	1460.20
360.62	1603.56
360.83	1550.31
361.04	1581.03
361.25	1519.59
361.46	1538.02
361.67	1513.45
361.88	1548.26
362.09	1556.46
362.30	1601.51
362.51	1470.44
362.72	1519.59
362.93	1548.26
363.14	1558.50
363.35	1562.60
363.56	1476.59
363.78	1671.14
363.99	1574.89
364.20	1509.35
364.41	1533.93
364.62	1642.47
364.83	1482.73
365.04	1554.41
365.25	1542.12
365.46	1585.13
365.67	1495.02
365.88	1538.02
366.09	1509.35
366.30	1546.22
366.51	1515.50
366.72	1513.45
366.93	1540.07
367.14	1525.74
367.35	1591.27
367.56	1482.73
367.77	1595.37
367.98	1468.39
368.18	1519.59
368.39	1540.07
368.60	1513.45
368.81	1505.26
369.02	1648.61
369.23	1568.74
369.44	1476.59
369.65	1515.50
369.86	1599.46
370.07	1583.08
370.28	1601.51
370.49	1615.85
370.70	1513.45
370.91	1495.02
371.12	1501.16
371.33	1609.70
371.54	1501.16
371.75	1634.28
371.96	1488.87
372.17	1517.54
372.38	1603.56
372.59	1646.57
372.80	1507.30
373.01	1527.78
373.22	1542.12
373.43	1497.07
373.64	1484.78
373.85	1669.09
374.06	1564.65
374.26	1525.74
374.47	1570.79
374.68	1550.31
374.89	1513.45
375.10	1570.79
375.31	1558.50
375.52	1525.74
375.73	1544.17
375.94	1523.69
376.15	1636.33
376.36	1542.12
376.57	1585.13
376.78	1366.00
376.99	1441.77
377.20	1589.22
377.40	1497.07
377.61	1601.51
377.82	1466.35
378.03	1628.14
378.24	1538.02
378.45	1538.02
378.66	1587.18
378.87	1421.29
379.08	1431.53
379.29	1472.49
379.50	1611.75
379.71	1576.94
379.91	1501.16
380.12	1527.78
380.33	1568.74
380.54	1509.35
380.75	1501.16
380.96	1576.94
381.17	1574.89
381.38	1583.08
381.59	1595.37
381.80	1558.50
382.00	1667.05
382.21	1609.70
382.42	1669.09
382.63	1726.44
382.84	1609.70
383.05	1652.71
383.26	1638.38
383.47	1636.33
383.68	1619.94
383.88	1597.42
384.09	1517.54
384.30	1646.57
384.51	1568.74
384.72	1441.77
384.93	1468.39
385.14	1581.03
385.35	1593.32
385.55	1501.16
385.76	1640.42
385.97	1486.83
386.18	1497.07
386.39	1529.83
386.60	1583.08
386.81	1542.12
387.02	1447.91
387.22	1556.46
387.43	1665.00
387.64	1681.38
387.85	1832.93
388.06	3286.99
388.27	7202.71
388.48	10655.58
388.68	12431.17
388.89	13979.43
389.10	12875.58
389.31	10217.32
389.52	8818.55
389.73	7769.99
389.93	7208.85
390.14	6690.71
390.35	6377.37
390.56	5535.66
390.77	4665.27
390.98	3762.12
391.18	2787.29
391.39	2160.61
391.60	1781.73
391.81	1775.59
392.02	1597.42
392.23	1712.10
392.43	1591.27
392.64	1624.04
392.85	1574.89
393.06	1636.33
393.27	1574.89
393.47	1476.59
393.68	1560.55
393.89	1529.83
394.10	1613.80
394.31	1507.30
394.52	1576.94
394.72	1505.26
394.93	1703.91
395.14	1578.98
395.35	1683.43
395.56	1533.93
395.76	1531.88
395.97	1769.44
396.18	1787.88
396.39	1736.68
396.60	1984.48
396.80	1755.11
397.01	1673.19
397.22	1640.42
397.43	1660.90
397.64	1587.18
397.84	1603.56
398.05	1742.82
398.26	1611.75
398.47	1615.85
398.67	1587.18
398.88	1640.42
399.09	1566.70
399.30	1503.21
399.51	1568.74
399.71	1548.26
399.92	1531.88
400.13	1603.56
400.34	1476.59
400.54	1562.60
400.75	1572.84
400.96	1662.95
401.17	1597.42
401.37	1501.16
401.58	1585.13
401.79	1605.61
402.00	1769.44
402.21	1910.75
402.41	1861.60
402.62	2064.35
402.83	1949.67
403.04	1783.78
403.24	1892.32
403.45	1746.92
403.66	1746.92
403.87	1701.86
404.07	1730.53
404.28	1791.97
404.49	1726.44
404.70	1605.61
404.90	1578.98
405.11	1601.51
405.32	1574.89
405.52	1533.93
405.73	1517.54
405.94	1505.26
406.15	1535.98
406.35	1497.07
406.56	1509.35
406.77	1533.93
406.98	1599.46
407.18	1505.26
407.39	1572.84
407.60	1484.78
407.80	1542.12
408.01	1552.36
408.22	1509.35
408.43	1544.17
408.63	1544.17
408.84	1601.51
409.05	1574.89
409.25	1509.35
409.46	1570.79
409.67	1597.42
409.88	1486.83
410.08	1587.18
410.29	1542.12
410.50	1556.46
410.70	1640.42
410.91	1443.82
411.12	1593.32
411.32	1609.70
411.53	1572.84
411.74	1650.66
411.95	1619.94
412.15	1624.04
412.36	1576.94
412.57	1583.08
412.77	1626.09
412.98	1521.64
413.19	1525.74
413.39	1546.22
413.60	1531.88
413.81	1632.23
414.01	1456.11
414.22	1597.42
414.43	1601.51
414.63	1570.79
414.84	1472.49
415.05	1527.78
415.25	1468.39
415.46	1560.55
415.67	1521.64
415.87	1552.36
416.08	1597.42
416.29	1554.41
416.49	1591.27
416.70	1478.63
416.91	1542.12
417.11	1593.32
417.32	1611.75
417.53	1599.46
417.73	1572.84
417.94	1546.22
418.15	1578.98
418.35	1538.02
418.56	1523.69
418.77	1662.95
418.97	1525.74
419.18	1492.97
419.38	1482.73
419.59	1544.17
419.80	1630.18
420.00	1531.88
420.21	1583.08
420.42	1660.90
420.62	1591.27
420.83	1558.50
421.04	1595.37
421.24	1507.30
421.45	1593.32
421.65	1613.80
421.86	1529.83
422.07	1531.88
422.27	1531.88
422.48	1624.04
422.69	1519.59
422.89	1505.26
423.10	1497.07
423.30	1482.73
423.51	1531.88
423.72	1585.13
423.92	1529.83
424.13	1468.39
424.33	1527.78
424.54	1564.65
424.75	1513.45
424.95	1619.94
425.16	1550.31
425.36	1511.40
425.57	1609.70
425.78	1589.22
425.98	1607.66
426.19	1542.12
426.39	1507.30
426.60	1578.98
426.81	1554.41
427.01	1538.02
427.22	1572.84
427.42	1495.02
427.63	1531.88
427.83	1529.83
428.04	1558.50
428.25	1652.71
428.45	1585.13
428.66	1511.40
428.86	1587.18
429.07	1466.35
429.28	1560.55
429.48	1468.39
429.69	1583.08
429.89	1568.74
430.10	1558.50
430.30	1572.84
430.51	1560.55
430.71	1525.74
430.92	1529.83
431.13	1476.59
431.33	1619.94
431.54	1609.70
431.74	1613.80
431.95	1566.70
432.15	1527.78
432.36	1558.50
432.56	1611.75
432.77	1646.57
432.98	1660.90
433.18	1636.33
433.39	1615.85
433.59	1503.21
433.80	1589.22
434.00	1665.00
434.21	1593.32
434.41	1492.97
434.62	1718.25
434.82	1488.87
435.03	1447.91
435.23	1488.87
435.44	1460.20
435.64	1538.02
435.85	1535.98
436.06	1578.98
436.26	1597.42
436.47	1578.98
436.67	1591.27
436.88	1552.36
437.08	1535.98
437.29	1585.13
437.49	1515.50
437.70	1607.66
437.90	1566.70
438.11	1691.62
438.31	1624.04
438.52	1648.61
438.72	1724.39
438.93	1652.71
439.13	1601.51
439.34	1662.95
439.54	1503.21
439.75	1716.20
439.95	1626.09
440.16	1583.08
440.36	1619.94
440.57	1607.66
440.77	1576.94
440.98	1574.89
441.18	1497.07
441.39	1576.94
441.59	1449.96
441.80	1734.63
442.00	1525.74
442.21	1576.94
442.41	1511.40
442.62	1630.18
442.82	1538.02
443.02	1560.55
443.23	1679.33
443.43	1402.86
443.64	1560.55
443.84	1576.94
444.05	1660.90
444.25	1542.12
444.46	1601.51
444.66	1482.73
444.87	1687.53
445.07	1492.97
445.28	1468.39
445.48	1591.27
445.69	1572.84
445.89	1671.14
446.09	1646.57
446.30	2105.31
446.50	3180.50
446.71	4446.14
446.91	5312.43
447.12	5799.85
447.32	5527.47
447.53	4573.11
447.73	4065.22
447.93	3596.23
448.14	3428.30
448.34	3153.87
448.55	2881.49
448.75	2893.78
448.96	2693.08
449.16	2510.81
449.36	2260.96
449.57	1920.99
449.77	1851.36
449.98	1722.34
450.18	1677.29
450.39	1624.04
450.59	1652.71
450.79	1570.79
451.00	1529.83
451.20	1542.12
451.41	1550.31
451.61	1644.52
451.81	1576.94
452.02	1544.17
452.22	1527.78
452.43	1552.36
452.63	1548.26
452.84	1472.49
453.04	1511.40
453.24	1558.50
453.45	1486.83
453.65	1554.41
453.86	1615.85
454.06	1597.42
454.26	1503.21
454.47	1576.94
454.67	1654.76
454.87	1525.74
455.08	1497.07
455.28	1720.29
455.49	1476.59
455.69	1470.44
455.89	1634.28
456.10	1632.23
456.30	1527.78
456.51	1533.93
456.71	1568.74
456.91	1548.26
457.12	1490.92
457.32	1527.78
457.52	1519.59
457.73	1628.14
457.93	1624.04
458.14	1544.17
458.34	1447.91
458.54	1560.55
458.75	1456.11
458.95	1574.89
459.15	1546.22
459.36	1607.66
459.56	1640.42
459.76	1634.28
459.97	1503.21
460.17	1523.69
460.37	1605.61
460.58	1566.70
460.78	1595.37
460.99	1515.50
461.19	1531.88
461.39	1560.55
461.60	1527.78
461.80	1535.98
462.00	1472.49
462.21	1619.94
462.41	1482.73
462.61	1472.49
462.82	1464.30
463.02	1593.32
463.22	1576.94
463.43	1533.93
463.63	1488.87
463.83	1486.83
464.04	1564.65
464.24	1558.50
464.44	1443.82
464.64	1527.78
464.85	1599.46
465.05	1605.61
465.25	1578.98
465.46	1519.59
465.66	1562.60
465.86	1574.89
466.07	1589.22
466.27	1595.37
466.47	1488.87
466.68	1470.44
466.88	1566.70
467.08	1574.89
467.29	1607.66
467.49	1576.94
467.69	1605.61
467.89	1626.09
468.10	1535.98
468.30	1572.84
468.50	1689.57
468.71	1480.68
468.91	1476.59
469.11	1646.57
469.31	1548.26
469.52	1538.02
469.72	1667.05
469.92	1533.93
470.13	1626.09
470.33	1566.70
470.53	1732.58
470.73	2189.28
470.94	2324.44
471.14	2410.46
471.34	2750.42
471.54	2418.65
471.75	2185.18
471.95	2029.54
472.15	1994.72
472.36	2013.15
472.56	1959.91
472.76	1984.48
472.96	1822.69
473.17	1765.35
473.37	1767.40
473.57	1607.66
473.77	1589.22
473.98	1624.04
474.18	1468.39
474.38	1771.49
474.58	1523.69
474.79	1546.22
474.99	1572.84
475.19	1595.37
475.39	1572.84
475.60	1564.65
475.80	1562.60
476.00	1540.07
476.20	1538.02
476.41	1578.98
476.61	1628.14
476.81	1564.65
477.01	1492.97
477.21	1593.32
477.42	1599.46
477.62	1468.39
477.82	1675.24
478.02	1482.73
478.23	1585.13
478.43	1429.48
478.63	1490.92
478.83	1529.83
479.03	1460.20
479.24	1554.41
479.44	1599.46
479.64	1566.70
479.84	1492.97
480.04	1558.50
480.25	1585.13
480.45	1480.68
480.65	1560.55
480.85	1599.46
481.06	1482.73
481.26	1656.81
481.46	1570.79
481.66	1615.85
481.86	1525.74
482.06	1626.09
482.27	1515.50
482.47	1511.40
482.67	1556.46
482.87	1535.98
483.07	1542.12
483.28	1492.97
483.48	1607.66
483.68	1576.94
483.88	1456.11
484.08	1527.78
484.29	1566.70
484.49	1578.98
484.69	1497.07
484.89	1519.59
485.09	1581.03
485.29	1581.03
485.50	1517.54
485.70	1509.35
485.90	1544.17
486.10	1605.61
486.30	1552.36
486.50	1599.46
486.71	1564.65
486.91	1544.17
487.11	1576.94
487.31	1460.20
487.51	1554.41
487.71	1517.54
487.91	1550.31
488.12	1501.16
488.32	1449.96
488.52	1458.15
488.72	1488.87
488.92	1560.55
489.12	1605.61
489.32	1619.94
489.53	1527.78
489.73	1495.02
489.93	1613.80
490.13	1464.30
490.33	1460.20
490.53	1603.56
490.73	1636.33
490.94	1503.21
491.14	1597.42
491.34	1640.42
491.54	2166.75
491.74	2652.12
491.94	3106.77
492.14	3266.51
492.34	3278.80
492.54	2731.99
492.75	2639.83
492.95	2297.82
493.15	2213.85
493.35	2195.42
493.55	1927.14
493.75	2095.07
493.95	2021.35
494.15	1918.95
494.35	1832.93
494.56	1775.59
494.76	1624.04
494.96	1703.91
495.16	1538.02
495.36	1492.97
495.56	1503.21
495.76	1488.87
495.96	1511.40
496.16	1542.12
496.36	1595.37
496.56	1554.41
496.77	1611.75
496.97	1490.92
497.17	1632.23
497.37	1507.30
497.57	1636.33
497.77	1538.02
497.97	1460.20
498.17	1576.94
498.37	1540.07
498.57	1587.18
498.77	1535.98
498.97	1648.61
499.17	1652.71
499.38	1572.84
499.58	1585.13
499.78	1574.89
499.98	1642.47
500.18	1587.18
500.38	1560.55
500.58	1748.97
500.78	2723.80
500.98	5179.31
501.18	6696.86
501.38	8185.73
501.58	8771.45
501.78	8044.42
501.98	6092.71
502.18	5341.10
502.38	4638.65
502.58	4251.58
502.78	3962.82
502.98	3739.59
503.18	3672.01
503.38	3299.28
503.59	3074.00
503.79	2785.24
503.99	2564.06
504.19	2328.54
504.39	2148.32
504.59	2074.59
504.79	1996.77
504.99	1986.53
505.19	1830.88
505.39	1728.49
505.59	1830.88
505.79	1761.25
505.99	1665.00
506.19	1597.42
506.39	1714.15
506.59	1599.46
506.79	1581.03
506.99	1619.94
507.19	1619.94
507.39	1619.94
507.59	1581.03
507.79	1583.08
507.99	1521.64
508.19	1542.12
508.39	1515.50
508.59	1509.35
508.79	1626.09
508.99	1609.70
509.19	1509.35
509.39	1570.79
509.59	1495.02
509.79	1523.69
509.99	1564.65
510.19	1533.93
510.39	1587.18
510.59	1560.55
510.79	1511.40
510.99	1531.88
511.19	1509.35
511.39	1619.94
511.59	1570.79
511.79	1626.09
511.99	1568.74
512.19	1566.70
512.38	1603.56
512.58	1488.87
512.78	1546.22
512.98	1587.18
513.18	1601.51
513.38	1454.06
513.58	1499.11
513.78	1529.83
513.98	1509.35
514.18	1540.07
514.38	1619.94
514.58	1613.80
514.78	1585.13
514.98	1583.08
515.18	1587.18
515.38	1472.49
515.58	1550.31
515.78	1566.70
515.98	1521.64
516.18	1529.83
516.38	1521.64
516.57	1484.78
516.77	1558.50
516.97	1538.02
517.17	1540.07
517.37	1437.67
517.57	1556.46
517.77	1464.30
517.97	1499.11
518.17	1538.02
518.37	1497.07
518.57	1550.31
518.77	1542.12
518.97	1497.07
519.16	1478.63
519.36	1611.75
519.56	1525.74
519.76	1550.31
519.96	1562.60
520.16	1593.32
520.36	1515.50
520.56	1576.94
520.76	1552.36
520.96	1503.21
521.16	1652.71
521.35	1562.60
521.55	1617.90
521.75	1546.22
521.95	1550.31
522.15	1630.18
522.35	1421.29
522.55	1464.30
522.75	1525.74
522.95	1492.97
523.14	1576.94
523.34	1466.35
523.54	1423.34
523.74	1552.36
523.94	1591.27
524.14	1509.35
524.34	1570.79
524.54	1570.79
524.73	1470.44
524.93	1552.36
525.13	1488.87
525.33	1509.35
525.53	1593.32
525.73	1587.18
525.93	1603.56
526.13	1578.98
526.32	1533.93
526.52	1484.78
526.72	1585.13
526.92	1597.42
527.12	1574.89
527.32	1400.81
527.52	1525.74
527.71	1529.83
527.91	1452.01
528.11	1431.53
528.31	1562.60
528.51	1452.01
528.71	1535.98
528.90	1523.69
529.10	1578.98
529.30	1533.93
529.50	1521.64
529.70	1533.93
529.90	1538.02
530.09	1568.74
530.29	1474.54
530.49	1568.74
530.69	1613.80
530.89	1517.54
531.09	1599.46
531.28	1529.83
531.48	1669.09
531.68	1570.79
531.88	1662.95
532.08	1554.41
532.28	1509.35
532.47	1538.02
532.67	1607.66
532.87	1638.38
533.07	1572.84
533.27	1630.18
533.46	1587.18
533.66	1617.90
533.86	1570.79
534.06	1560.55
534.26	1638.38
534.45	1540.07
534.65	1576.94
534.85	1552.36
535.05	1581.03
535.25	1560.55
535.44	1513.45
535.64	1628.14
535.84	1560.55
536.04	1533.93
536.24	1576.94
536.43	1521.64
536.63	1558.50
536.83	1552.36
537.03	1589.22
537.22	1462.25
537.42	1501.16
537.62	1497.07
537.82	1509.35
538.02	1609.70
538.21	1585.13
538.41	1638.38
538.61	1591.27
538.81	1550.31
539.00	1634.28
539.20	1476.59
539.40	1521.64
539.60	1540.07
539.79	1626.09
539.99	1535.98
540.19	1525.74
540.39	1617.90
540.58	1572.84
540.78	1607.66
540.98	1527.78
541.18	1646.57
541.37	1540.07
541.57	1458.15
541.77	1538.02
541.97	1572.84
542.16	1478.63
542.36	1540.07
542.56	1576.94
542.76	1607.66
542.95	1523.69
543.15	1527.78
543.35	1525.74
543.54	1501.16
543.74	1495.02
543.94	1568.74
544.14	1460.20
544.33	1581.03
544.53	1503.21
544.73	1492.97
544.93	1427.43
545.12	1556.46
545.32	1548.26
545.52	1632.23
545.71	1441.77
545.91	1576.94
546.11	1523.69
546.30	1474.54
546.50	1476.59
546.70	1552.36
546.90	1560.55
547.09	1452.01
547.29	1556.46
547.49	1519.59
547.68	1525.74
547.88	1540.07
548.08	1556.46
548.27	1961.95
548.47	1574.89
548.67	1535.98
548.87	1554.41
549.06	1513.45
549.26	1550.31
549.46	1558.50
549.65	1472.49
549.85	1513.45
550.05	1505.26
550.24	1507.30
550.44	1597.42
550.64	1495.02
550.83	1591.27
551.03	1615.85
551.23	1638.38
551.42	1566.70
551.62	1488.87
551.82	1576.94
552.01	1550.31
552.21	1617.90
552.41	1558.50
552.60	1636.33
552.80	1558.50
553.00	1484.78
553.19	1585.13
553.39	1621.99
553.59	1574.89
553.78	1554.41
553.98	1501.16
554.17	1486.83
554.37	1576.94
554.57	1515.50
554.76	1544.17
554.96	1585.13
555.16	1548.26
555.35	1540.07
555.55	1535.98
555.75	1548.26
555.94	1578.98
556.14	1484.78
556.33	1642.47
556.53	1558.50
556.73	1587.18
556.92	1574.89
557.12	1601.51
557.32	1626.09
557.51	1570.79
557.71	1546.22
557.90	1648.61
558.10	1562.60
558.30	1505.26
558.49	1566.70
558.69	1550.31
558.88	1679.33
559.08	1492.97
559.28	1511.40
559.47	1462.25
559.67	1624.04
559.86	1634.28
560.06	1599.46
560.26	1583.08
560.45	1568.74
560.65	1560.55
560.84	1568.74
561.04	1456.11
561.24	1587.18
561.43	1527.78
561.63	1619.94
561.82	1505.26
562.02	1636.33
562.22	1460.20
562.41	1490.92
562.61	1531.88
562.80	1492.97
563.00	1679.33
563.19	1525.74
563.39	1591.27
563.59	1523.69
563.78	1552.36
563.98	1423.34
564.17	1497.07
564.37	1460.20
564.56	1503.21
564.76	1435.63
564.96	1546.22
565.15	1583.08
565.35	1595.37
565.54	1581.03
565.74	1533.93
565.93	1538.02
566.13	1574.89
566.32	1591.27
566.52	1593.32
566.71	1515.50
566.91	1497.07
567.11	1636.33
567.30	1464.30
567.50	1525.74
567.69	1568.74
567.89	1486.83
568.08	1452.01
568.28	1490.92
568.47	1476.59
568.67	1613.80
568.86	1499.11
569.06	1611.75
569.25	1523.69
569.45	1587.18
569.64	1509.35
569.84	1544.17
570.04	1601.51
570.23	1452.01
570.43	1495.02
570.62	1578.98
570.82	1642.47
571.01	1570.79
571.21	1578.98
571.40	1474.54
571.60	1640.42
571.79	1535.98
571.99	1517.54
572.18	1542.12
572.38	1599.46
572.57	1562.60
572.77	1503.21
572.96	1642.47
573.16	1515.50
573.35	1525.74
573.55	1603.56
573.74	1630.18
573.94	1497.07
574.13	1605.61
574.33	1677.29
574.52	1521.64
574.71	1570.79
574.91	1538.02
575.10	1468.39
575.30	1538.02
575.49	1505.26
575.69	1556.46
575.88	1603.56
576.08	1624.04
576.27	1621.99
576.47	1691.62
576.66	1703.91
576.86	1640.42
577.05	1708.01
577.25	1587.18
577.44	1687.53
577.64	1583.08
577.83	1599.46
578.02	1540.07
578.22	1595.37
578.41	1585.13
578.61	1490.92
578.80	1509.35
579.00	1519.59
579.19	1587.18
579.39	1644.52
579.58	1607.66
579.77	1562.60
579.97	1673.19
580.16	1589.22
580.36	1677.29
580.55	1619.94
580.75	1542.12
580.94	1601.51
581.13	1630.18
581.33	1671.14
581.52	1542.12
581.72	1671.14
581.91	1658.85
582.11	1585.13
582.30	1630.18
582.49	1564.65
582.69	1671.14
582.88	1671.14
583.08	1576.94
583.27	1601.51
583.47	1597.42
583.66	1593.32
583.85	1576.94
584.05	1595.37
584.24	1648.61
584.44	1601.51
584.63	1615.85
584.82	1673.19
585.02	1708.01
585.21	1673.19
585.41	1794.02
585.60	1777.64
585.79	1757.16
585.99	1779.68
586.18	1806.31
586.37	2109.41
586.57	3196.88
586.76	9486.19
586.96	27477.60
587.15	43875.68
587.34	54164.68
587.54	61148.25
587.73	59317.37
587.93	43679.08
588.12	32038.42
588.31	25738.87
588.51	22050.48
588.70	19705.56
588.89	18247.40
589.09	16858.88
589.28	15376.15
589.47	13004.60
589.67	11378.51
589.86	8927.10
590.06	6827.93
590.25	5083.06
590.44	3874.76
590.64	2959.31
590.83	2289.63
591.02	2037.73
591.22	1843.17
591.41	1765.35
591.60	1695.72
591.80	1847.27
591.99	1624.04
592.18	1609.70
592.38	1658.85
592.57	1581.03
592.76	1574.89
592.96	1603.56
593.15	1648.61
593.34	1636.33
593.54	1607.66
593.73	1642.47
593.92	1644.52
594.12	1662.95
594.31	1554.41
594.50	1701.86
594.70	1703.91
594.89	1726.44
595.08	1560.55
595.28	1632.23
595.47	1691.62
595.66	1597.42
595.86	1554.41
596.05	1593.32
596.24	1511.40
596.43	1642.47
596.63	1609.70
596.82	1544.17
597.01	1574.89
597.21	1738.73
597.40	1570.79
597.59	1593.32
597.79	1548.26
597.98	1583.08
598.17	1587.18
598.36	1544.17
598.56	1605.61
598.75	1533.93
598.94	1585.13
599.14	1544.17
599.33	1548.26
599.52	1654.76
599.71	1599.46
599.91	1583.08
600.10	1638.38
600.29	1628.14
600.48	1558.50
600.68	1533.93
600.87	1632.23
601.06	1517.54
601.26	1521.64
601.45	1564.65
601.64	1499.11
601.83	1585.13
602.03	1552.36
602.22	1468.39
602.41	1642.47
602.60	1609.70
602.80	1662.95
602.99	1585.13
603.18	1538.02
603.37	1624.04
603.57	1552.36
603.76	1566.70
603.95	1583.08
604.14	1488.87
604.34	1576.94
604.53	1503.21
604.72	1515.50
604.91	1585.13
605.10	1613.80
605.30	1533.93
605.49	1558.50
605.68	1564.65
605.87	1566.70
606.07	1597.42
606.26	1525.74
606.45	1519.59
606.64	1630.18
606.84	1587.18
607.03	1583.08
607.22	1621.99
607.41	1568.74
607.60	1611.75
607.80	1630.18
607.99	1503.21
608.18	1490.92
608.37	1525.74
608.56	1533.93
608.76	1562.60
608.95	1591.27
609.14	1624.04
609.33	1665.00
609.52	1624.04
609.72	1665.00
609.91	1619.94
610.10	1605.61
610.29	1720.29
610.48	1593.32
610.68	1566.70
610.87	1531.88
611.06	1619.94
611.25	1521.64
611.44	1613.80
611.63	1527.78
611.83	1615.85
612.02	1509.35
612.21	1636.33
612.40	1464.30
612.59	1452.01
612.79	1626.09
612.98	1480.68
613.17	1656.81
613.36	1550.31
613.55	1646.57
613.74	1660.90
613.93	1748.97
614.13	1724.39
614.32	1734.63
614.51	1734.63
614.70	1701.86
614.89	1613.80
615.08	1603.56
615.28	1859.56
615.47	1611.75
615.66	1535.98
615.85	1576.94
616.04	1720.29
616.23	1560.55
616.42	1632.23
616.62	1554.41
616.81	1634.28
617.00	1605.61
617.19	1589.22
617.38	1523.69
617.57	1540.07
617.76	1552.36
617.95	1593.32
618.15	1587.18
618.34	1576.94
618.53	1511.40
618.72	1660.90
618.91	1630.18
619.10	1675.24
619.29	1576.94
619.48	1570.79
619.68	1576.94
619.87	1552.36
620.06	1558.50
620.25	1603.56
620.44	1554.41
620.63	1484.78
620.82	1529.83
621.01	1587.18
621.20	1556.46
621.39	1533.93
621.59	1601.51
621.78	1517.54
621.97	1583.08
622.16	1675.24
622.35	1550.31
622.54	1607.66
622.73	1642.47
622.92	1511.40
623.11	1554.41
623.30	1548.26
623.49	1603.56
623.68	1521.64
623.88	1597.42
624.07	1632.23
624.26	1503.21
624.45	1517.54
624.64	1517.54
624.83	1480.68
625.02	1470.44
625.21	1548.26
625.40	1505.26
625.59	1603.56
625.78	1552.36
625.97	1619.94
626.16	1566.70
626.35	1662.95
626.54	1615.85
626.74	1744.87
626.93	1609.70
627.12	1593.32
627.31	1513.45
627.50	1613.80
627.69	1578.98
627.88	1503.21
628.07	1554.41
628.26	1624.04
628.45	1581.03
628.64	1495.02
628.83	1443.82
629.02	1552.36
629.21	1636.33
629.40	1525.74
629.59	1546.22
629.78	1544.17
629.97	1558.50
630.16	1564.65
630.35	1613.80
630.54	1599.46
630.73	1576.94
630.92	1607.66
631.11	1513.45
631.30	1558.50
631.49	1626.09
631.68	1525.74
631.87	1583.08
632.06	1517.54
632.25	1603.56
632.44	1564.65
632.63	1636.33
632.82	1533.93
633.01	1521.64
633.20	1675.24
633.39	1669.09
633.58	1615.85
633.77	1570.79
633.96	1650.66
634.15	1517.54
634.34	1638.38
634.53	1576.94
634.72	1542.12
634.91	1443.82
635.10	1544.17
635.29	1621.99
635.48	1601.51
635.67	1546.22
635.86	1499.11
636.05	1593.32
636.24	1515.50
636.43	1513.45
636.62	1583.08
636.81	1507.30
637.00	1515.50
637.19	1542.12
637.38	1603.56
637.57	1560.55
637.76	1591.27
637.95	1675.24
638.14	1624.04
638.33	1675.24
638.52	1656.81
638.71	1574.89
638.89	1574.89
639.08	1656.81
639.27	1658.85
639.46	1630.18
639.65	1886.18
639.84	2025.44
640.03	2160.61
640.22	2224.09
640.41	2281.44
640.60	1984.48
640.79	1914.85
640.98	1716.20
641.17	1800.16
641.36	1806.31
641.55	1673.19
641.74	1646.57
641.92	1683.43
642.11	1621.99
642.30	1691.62
642.49	1591.27
642.68	1564.65
642.87	1619.94
643.06	1535.98
643.25	1509.35
643.44	1519.59
643.63	1509.35
643.82	1632.23
644.00	1542.12
644.19	1546.22
644.38	1538.02
644.57	1630.18
644.76	1591.27
644.95	1630.18
645.14	1511.40
645.33	1501.16
645.52	1527.78
645.71	1454.06
645.89	1501.16
646.08	1576.94
646.27	1476.59
646.46	1630.18
646.65	1425.39
646.84	1503.21
647.03	1501.16
647.22	1597.42
647.40	1560.55
647.59	1548.26
647.78	1552.36
647.97	1558.50
648.16	1572.84
648.35	1642.47
648.54	1679.33
648.73	1544.17
648.91	1527.78
649.10	1511.40
649.29	1527.78
649.48	1644.52
649.67	1570.79
649.86	1480.68
650.05	1632.23
650.23	1675.24
650.42	1701.86
650.61	1748.97
650.80	1728.49
650.99	1769.44
651.18	1630.18
651.36	1703.91
651.55	1560.55
651.74	1632.23
651.93	1527.78
652.12	1550.31
652.31	1611.75
652.49	1560.55
652.68	1509.35
652.87	1650.66
653.06	1570.79
653.25	1660.90
653.44	1593.32
653.62	1570.79
653.81	1470.44
654.00	1583.08
654.19	1572.84
654.38	1640.42
654.56	1599.46
654.75	1474.54
654.94	1583.08
655.13	1581.03
655.32	1558.50
655.51	1605.61
655.69	1556.46
655.88	1525.74
656.07	1564.65
656.26	1519.59
656.45	1484.78
656.63	1546.22
656.82	1521.64
657.01	1556.46
657.20	1607.66
657.38	1550.31
657.57	1581.03
657.76	1484.78
657.95	1572.84
658.14	1513.45
658.32	1505.26
658.51	1583.08
658.70	1507.30
658.89	1570.79
659.08	1587.18
659.26	1574.89
659.45	1554.41
659.64	1669.09
659.83	1658.85
660.01	1718.25
660.20	1609.70
660.39	1619.94
660.58	1452.01
660.76	1626.09
660.95	1554.41
661.14	1640.42
661.33	1576.94
661.51	1517.54
661.70	1624.04
661.89	1599.46
662.08	1568.74
662.26	1533.93
662.45	1472.49
662.64	1621.99
662.83	1724.39
663.01	1431.53
663.20	1523.69
663.39	1603.56
663.58	1402.86
663.76	1529.83
663.95	1624.04
664.14	1570.79
664.32	1566.70
664.51	1470.44
664.70	1533.93
664.89	1556.46
665.07	1488.87
665.26	1611.75
665.45	1507.30
665.64	1611.75
665.82	1501.16
666.01	1562.60
666.20	1490.92
666.38	1566.70
666.57	1556.46
666.76	1826.79
666.95	2885.59
667.13	7516.05
667.32	15619.86
667.51	19867.34
667.69	23494.30
667.88	25360.00
668.07	22191.79
668.25	15626.00
668.44	12406.59
668.63	10041.19
668.81	8554.37
669.00	7761.80
669.19	7022.48
669.38	6365.09
669.56	5593.00
669.75	4765.62
669.94	4026.31
670.12	3434.44
670.31	2887.64
670.50	2445.27
670.68	2107.36
670.87	1843.17
671.06	1789.92
671.24	1665.00
671.43	1710.05
671.62	1656.81
671.80	1677.29
671.99	1656.81
672.18	1572.84
672.36	1642.47
672.55	1636.33
672.74	1542.12
672.92	1566.70
673.11	1662.95
673.29	1562.60
673.48	1658.85
673.67	1593.32
673.85	1554.41
674.04	1486.83
674.23	1501.16
674.41	1628.14
674.60	1482.73
674.79	1458.15
674.97	1495.02
675.16	1546.22
675.34	1525.74
675.53	1478.63
675.72	1587.18
675.90	1554.41
676.09	1515.50
676.28	1499.11
676.46	1511.40
676.65	1601.51
676.83	1546.22
677.02	1509.35
677.21	1548.26
677.39	1492.97
677.58	1443.82
677.77	1464.30
677.95	1474.54
678.14	1415.15
678.32	1540.07
678.51	1519.59
678.70	1648.61
678.88	1480.68
679.07	1648.61
679.25	1581.03
679.44	1525.74
679.63	1507.30
679.81	1521.64
680.00	1628.14
680.18	1587.18
680.37	1595.37
680.55	1542.12
680.74	1509.35
680.93	1464.30
681.11	1585.13
681.30	1513.45
681.48	1619.94
681.67	1542.12
681.85	1552.36
682.04	1449.96
682.23	1568.74
682.41	1619.94
682.60	1427.43
682.78	1554.41
682.97	1550.31
683.15	1576.94
683.34	1515.50
683.53	1583.08
683.71	1523.69
683.90	1621.99
684.08	1578.98
684.27	1531.88
684.45	1603.56
684.64	1480.68
684.82	1490.92
685.01	1525.74
685.19	1578.98
685.38	1634.28
685.57	1521.64
685.75	1570.79
685.94	1505.26
686.12	1437.67
686.31	1540.07
686.49	1648.61
686.68	1515.50
686.86	1509.35
687.05	1454.06
687.23	1583.08
687.42	1478.63
687.60	1495.02
687.79	1540.07
687.97	1626.09
688.16	1673.19
688.34	1554.41
688.53	1460.20
688.71	1548.26
688.90	1560.55
689.08	1550.31
689.27	1404.91
689.45	1601.51
689.64	1585.13
689.82	1576.94
690.01	1550.31
690.19	1552.36
690.38	1472.49
690.56	1542.12
690.75	1456.11
690.93	1503.21
691.12	1492.97
691.30	1509.35
691.49	1499.11
691.67	1488.87
691.86	1617.90
692.04	1548.26
692.23	1519.59
692.41	1642.47
692.60	1767.40
692.78	1617.90
692.97	1644.52
693.15	1619.94
693.34	1660.90
693.52	1644.52
693.71	1560.55
693.89	1509.35
694.08	1507.30
694.26	1621.99
694.44	1603.56
694.63	1564.65
694.81	1460.20
695.00	1509.35
695.18	1617.90
695.37	1652.71
695.55	1560.55
695.74	1583.08
695.92	1517.54
696.10	1595.37
696.29	1406.95
696.47	1562.60
696.66	1462.25
696.84	1542.12
697.03	1527.78
697.21	1646.57
697.40	2013.15
697.58	1550.31
697.76	1501.16
697.95	1495.02
698.13	1482.73
698.32	1550.31
698.50	1599.46
698.68	1513.45
698.87	1578.98
699.05	1605.61
699.24	1572.84
699.42	1513.45
699.61	1474.54
699.79	1542.12
699.97	1552.36
700.16	1495.02
700.34	1511.40
700.53	1556.46
700.71	1603.56
700.89	1593.32
701.08	1470.44
701.26	1533.93
701.45	1894.37
701.63	1597.42
701.81	1595.37
702.00	1564.65
702.18	1650.66
702.37	1476.59
702.55	1585.13
702.73	1628.14
702.92	1710.05
703.10	1800.16
703.28	1767.40
703.47	1736.68
703.65	1753.06
703.84	1775.59
704.02	1673.19
704.20	1728.49
704.39	1546.22
704.57	1593.32
704.75	1624.04
704.94	1646.57
705.12	1640.42
705.30	1634.28
705.49	1814.50
705.67	2844.63
705.86	7225.23
706.04	14386.98
706.22	18550.50
706.41	21524.15
706.59	22750.88
706.77	20895.43
706.96	14583.59
707.14	11663.18
707.32	9795.43
707.51	8515.45
707.69	7462.80
707.87	6743.96
708.06	5732.26
708.24	4794.29
708.42	3639.24
708.61	2953.17
708.79	2308.06
708.97	2066.40
709.16	1855.46
709.34	1849.32
709.52	1603.56
709.71	1626.09
709.89	1693.67
710.07	1533.93
710.26	1589.22
710.44	1568.74
710.62	1605.61
710.80	1607.66
710.99	1595.37
711.17	1583.08
711.35	1484.78
711.54	1529.83
711.72	1560.55
711.90	1621.99
712.09	1523.69
712.27	1531.88
712.45	1593.32
712.63	1470.44
712.82	1568.74
713.00	1595.37
713.18	1667.05
713.37	1560.55
713.55	1560.55
713.73	1523.69
713.91	1603.56
714.10	1546.22
714.28	1523.69
714.46	1525.74
714.65	1548.26
714.83	1601.51
715.01	1593.32
715.19	1474.54
715.38	1460.20
715.56	1576.94
715.74	1507.30
715.92	1505.26
716.11	1554.41
716.29	1492.97
716.47	1540.07
716.65	1519.59
716.84	1452.01
717.02	1578.98
717.20	1470.44
717.38	1527.78
717.57	1624.04
717.75	1550.31
717.93	1546.22
718.11	1589.22
718.30	1488.87
718.48	1515.50
718.66	1652.71
718.84	1632.23
719.03	1581.03
719.21	1513.45
719.39	1650.66
719.57	1611.75
719.75	1599.46
719.94	1515.50
720.12	1564.65
720.30	1591.27
720.48	1656.81
720.67	1488.87
720.85	1433.58
721.03	1515.50
721.21	1447.91
721.39	1634.28
721.58	1597.42
721.76	1540.07
721.94	1601.51
722.12	1529.83
722.30	1585.13
722.49	1533.93
722.67	1538.02
722.85	1558.50
723.03	1456.11
723.21	1568.74
723.40	1564.65
723.58	1587.18
723.76	1570.79
723.94	1583.08
724.12	1634.28
724.30	1669.09
724.49	1691.62
724.67	1505.26
724.85	1708.01
725.03	1593.32
725.21	1593.32
725.40	1609.70
725.58	1550.31
725.76	1599.46
725.94	1556.46
726.12	1511.40
726.30	1474.54
726.49	1439.72
726.67	1587.18
726.85	1585.13
727.03	1607.66
727.21	1748.97
727.39	2080.74
727.57	3194.83
727.76	4165.57
727.94	4786.10
728.12	5142.45
728.30	5066.67
728.48	4255.68
728.66	3538.89
728.84	3168.21
729.03	2871.25
729.21	2607.06
729.39	2439.13
729.57	1996.77
729.75	1880.04
729.93	1753.06
730.11	1689.57
730.30	1568.74
730.48	1472.49
730.66	1630.18
730.84	1642.47
731.02	1613.80
731.20	1544.17
731.38	1624.04
731.56	1466.35
731.74	1488.87
731.93	1525.74
732.11	1533.93
732.29	1517.54
732.47	1566.70
732.65	1568.74
732.83	1660.90
733.01	1578.98
733.19	1509.35
733.37	1544.17
733.56	1566.70
733.74	1572.84
733.92	1554.41
734.10	1513.45
734.28	1597.42
734.46	1435.63
734.64	1544.17
734.82	1548.26
735.00	1531.88
735.18	1525.74
735.36	1533.93
735.54	1517.54
735.73	1599.46
735.91	1564.65
736.09	1613.80
736.27	1572.84
736.45	1509.35
736.63	1449.96
736.81	1509.35
736.99	1566.70
737.17	1601.51
737.35	1472.49
737.53	1464.30
737.71	1572.84
737.89	1570.79
738.07	1542.12
738.25	1525.74
738.43	1501.16
738.61	1427.43
738.80	1499.11
738.98	1515.50
739.16	1429.48
739.34	1478.63
739.52	1665.00
739.70	1558.50
739.88	1554.41
740.06	1556.46
740.24	1431.53
740.42	1630.18
740.60	1439.72
740.78	1474.54
740.96	1525.74
741.14	1470.44
741.32	1544.17
741.50	1470.44
741.68	1624.04
741.86	1613.80
742.04	1492.97
742.22	1492.97
742.40	1540.07
742.58	1593.32
742.76	1599.46
742.94	1515.50
743.12	1435.63
743.30	1478.63
743.48	1609.70
743.66	1560.55
743.84	1585.13
744.02	1576.94
744.20	1617.90
744.38	1519.59
744.56	1452.01
744.74	1636.33
744.92	1562.60
745.10	1624.04
745.28	1552.36
745.46	1613.80
745.64	1468.39
745.82	1535.98
746.00	1581.03
746.18	1607.66
746.36	1533.93
746.54	1552.36
746.72	1589.22
746.90	1505.26
747.08	1560.55
747.26	1548.26
747.44	1599.46
747.62	1578.98
747.80	1527.78
747.98	1550.31
748.15	1542.12
748.33	1654.76
748.51	1499.11
748.69	1644.52
748.87	1511.40
749.05	1535.98
749.23	1562.60
749.41	1540.07
749.59	1591.27
749.77	1595.37
749.95	1499.11
750.13	1492.97
750.31	1576.94
750.49	1554.41
750.67	1574.89
750.85	1578.98
751.03	1484.78
751.20	1593.32
751.38	1525.74
751.56	1509.35
751.74	1552.36
751.92	1574.89
752.10	1427.43
752.28	1548.26
752.46	1548.26
752.64	1492.97
752.82	1513.45
753.00	1587.18
753.18	1574.89
753.35	1544.17
753.53	1525.74
753.71	1572.84
753.89	1511.40
754.07	1458.15
754.25	1587.18
754.43	1560.55
754.61	1503.21
754.79	1593.32
754.97	1558.50
755.14	1644.52
755.32	1495.02
755.50	1607.66
755.68	1556.46
755.86	1484.78
756.04	1535.98
756.22	1404.91
756.40	1488.87
756.57	1662.95
756.75	1505.26
756.93	1564.65
757.11	1558.50
757.29	1566.70
757.47	1474.54
757.65	1499.11
757.82	1452.01
758.00	1445.87
758.18	1521.64
758.36	1558.50
758.54	1574.89
758.72	1447.91
758.90	1570.79
759.07	1597.42
759.25	1521.64
759.43	1578.98
759.61	1468.39
759.79	1896.42
759.97	1660.90
760.15	1488.87
760.32	1501.16
760.50	1587.18
760.68	1605.61
760.86	1509.35
761.04	1589.22
761.22	1544.17
761.39	1531.88
761.57	1540.07
761.75	1466.35
761.93	1603.56
762.11	1505.26
762.28	1529.83
762.46	1476.59
762.64	1505.26
762.82	1456.11
763.00	1509.35
763.18	1527.78
763.35	1507.30
763.53	1617.90
763.71	1503.21
763.89	1535.98
764.07	1558.50
764.24	1576.94
764.42	1546.22
764.60	1523.69
764.78	1585.13
764.96	1533.93
765.13	1656.81
765.31	1548.26
765.49	1472.49
765.67	1503.21
765.84	1464.30
766.02	1445.87
766.20	1521.64
766.38	1533.93
766.56	1562.60
766.73	1535.98
766.91	1578.98
767.09	1490.92
767.27	1578.98
767.44	1546.22
767.62	1529.83
767.80	1583.08
767.98	1447.91
768.15	1531.88
768.33	1566.70
768.51	1566.70
768.69	1533.93
768.87	1558.50
769.04	1460.20
769.22	1544.17
769.40	1490.92
769.58	1660.90
769.75	1548.26
769.93	1542.12
770.11	1521.64
770.28	1507.30
770.46	1566.70
770.64	1556.46
770.82	1495.02
770.99	1552.36
771.17	1544.17
771.35	1533.93
771.53	1529.83
771.70	1542.12
771.88	1558.50
772.06	1525.74
772.23	1611.75
772.41	1574.89
772.59	1517.54
772.77	1464.30
772.94	1558.50
773.12	1628.14
773.30	1546.22
773.47	1589.22
773.65	1476.59
773.83	1538.02
774.01	1519.59
774.18	1396.71
774.36	1443.82
774.54	1452.01
774.71	1591.27
774.89	1550.31
775.07	1554.41
775.24	1558.50
775.42	1558.50
775.60	1634.28
775.78	1533.93
775.95	1464.30
776.13	1380.33
776.31	1464.30
776.48	1484.78
776.66	1615.85
776.84	1484.78
777.01	1523.69
777.19	1554.41
777.37	1560.55
777.54	1480.68
777.72	1646.57
777.90	1503.21
778.07	1517.54
778.25	1677.29
778.43	1593.32
778.60	1495.02
778.78	1611.75
778.96	1589.22
779.13	1509.35
779.31	1562.60
779.49	1566.70
779.66	1533.93
779.84	1591.27
780.01	1515.50
780.19	1511.40
780.37	1560.55
780.54	1566.70
780.72	1503.21
780.90	1476.59
781.07	1538.02
781.25	1495.02
781.43	1581.03
781.60	1562.60
781.78	1599.46
781.95	1560.55
782.13	1523.69
782.31	1445.87
782.48	1396.71
782.66	1531.88
782.83	1562.60
783.01	1531.88
783.19	1605.61
783.36	1497.07
783.54	1468.39
783.72	1613.80
783.89	1560.55
784.07	1544.17
784.24	1593.32
784.42	1632.23
784.60	1495.02
784.77	1542.12
784.95	1415.15
785.12	1488.87
785.30	1517.54
785.47	1470.44
785.65	1458.15
785.83	1521.64
786.00	1558.50
786.18	1513.45
786.35	1550.31
786.53	1462.25
786.71	1619.94
786.88	1519.59
787.06	1566.70
787.23	1464.30
787.41	1488.87
787.58	1566.70
787.76	1591.27
787.94	1638.38
788.11	1644.52
788.29	1415.15
788.46	1509.35
788.64	1527.78
788.81	1554.41
788.99	1470.44
789.16	1521.64
789.34	1572.84
789.52	1521.64
789.69	1521.64
789.87	1468.39
790.04	1542.12
790.22	1492.97
790.39	1628.14
790.57	1488.87
790.74	1566.70
790.92	1589.22
791.09	1441.77
791.27	1570.79
791.44	1654.76
791.62	1474.54
791.79	1517.54
791.97	1583.08
792.15	1736.68
792.32	1574.89
792.50	1583.08
792.67	1646.57
792.85	1511.40
793.02	1560.55
793.20	1542.12
793.37	1460.20
793.55	1554.41
793.72	1525.74
793.90	1576.94
794.07	1497.07
794.25	1495.02
794.42	1560.55
794.60	1517.54
794.77	1568.74
794.95	1552.36
795.12	1570.79
795.30	1511.40
795.47	1404.91
795.65	1658.85
795.82	1517.54
796.00	1488.87
796.17	1523.69
796.34	1454.06
796.52	1583.08
796.69	1583.08
796.87	1556.46
797.04	1554.41
797.22	1564.65
797.39	1544.17
797.57	1531.88
797.74	1542.12
797.92	1525.74
798.09	1437.67
798.27	1515.50
798.44	1525.74
798.62	1533.93
798.79	1511.40
798.96	1587.18
799.14	1562.60
799.31	1648.61
799.49	1486.83
799.66	1544.17
799.84	1636.33
800.01	1492.97
800.19	1574.89
800.36	1460.20
800.53	1611.75
800.71	1574.89
800.88	1574.89
801.06	1437.67
801.23	1550.31
801.41	1486.83
801.58	1523.69
801.75	1492.97
801.93	1533.93
802.10	1560.55
802.28	1505.26
802.45	1480.68
802.63	1591.27
802.80	1558.50
802.97	1564.65
803.15	1486.83
803.32	1525.74
803.50	1460.20
803.67	1542.12
803.84	1490.92
804.02	1552.36
804.19	1503.21
804.37	1474.54
804.54	1449.96
804.71	1568.74
804.89	1478.63
805.06	1495.02
805.24	1505.26
805.41	1429.48
805.58	1474.54
805.76	1683.43
805.93	1527.78
806.10	1568.74
806.28	1570.79
806.45	1581.03
806.63	1562.60
806.80	1542.12
806.97	1562.60
807.15	1613.80
807.32	1501.16
807.49	1474.54
807.67	1464.30
807.84	1564.65
808.01	1486.83
808.19	1599.46
808.36	1591.27
808.54	1538.02
808.71	1554.41
808.88	1581.03
809.06	1564.65
809.23	1589.22
809.40	1462.25
809.58	1605.61
809.75	1544.17
809.92	1478.63
810.10	1599.46
810.27	1550.31
810.44	1507.30
810.62	1576.94
810.79	1554.41
810.96	1474.54
811.14	1499.11
811.31	1535.98
811.48	1552.36
811.66	1507.30
811.83	1529.83
812.00	1605.61
812.18	1515.50
812.35	1650.66
812.52	1527.78
812.69	1507.30
812.87	1558.50
813.04	1521.64
813.21	1542.12
813.39	1462.25
813.56	1574.89
813.73	1597.42
813.91	1540.07
814.08	1566.70
814.25	1548.26
814.42	1480.68
814.60	1423.34
814.77	1525.74
814.94	1535.98
815.12	1544.17
815.29	1642.47
815.46	1460.20
815.63	1546.22
815.81	1525.74
815.98	1546.22
816.15	1523.69
816.33	1466.35
816.50	1486.83
816.67	1521.64
816.84	1513.45
817.02	1484.78
817.19	1458.15
817.36	1542.12
817.53	1521.64
817.71	1505.26
817.88	1527.78
818.05	1574.89
818.22	1570.79
818.40	1607.66
818.57	1517.54
818.74	1603.56
818.91	1593.32
819.09	1654.76
819.26	1544.17
819.43	1531.88
819.60	1591.27
819.78	1568.74
819.95	1621.99
820.12	1501.16
820.29	1601.51
820.47	1581.03
820.64	1538.02
820.81	1490.92
820.98	1492.97
821.15	1456.11
821.33	1542.12
821.50	1525.74
821.67	1554.41
821.84	1568.74
822.02	1591.27
822.19	1632.23
822.36	1542.12
822.53	1511.40
822.70	1519.59
822.88	1486.83
823.05	1552.36
823.22	1603.56
823.39	1540.07
823.56	1521.64
823.74	1624.04
823.91	1490.92
824.08	1548.26
824.25	1503.21
824.42	1556.46
824.60	1562.60
824.77	1507.30
824.94	1521.64
825.11	1523.69
825.28	1462.25
825.45	1538.02
825.63	1472.49
825.80	1509.35
825.97	1597.42
826.14	1550.31
826.31	1529.83
826.48	1591.27
826.66	1574.89
826.83	1488.87
827.00	1492.97
827.17	1458.15
827.34	1511.40
827.51	1513.45
827.69	1574.89
827.86	1460.20
828.03	1468.39
828.20	1560.55
828.37	1576.94
828.54	1558.50
828.71	1411.05
828.89	1638.38
829.06	1470.44
829.23	1519.59
829.40	1542.12
829.57	1527.78
829.74	1499.11
829.91	1538.02
830.09	1472.49
830.26	1558.50
830.43	1732.58
830.60	1509.35
830.77	1482.73
830.94	1550.31
831.11	1544.17
831.28	1513.45
831.46	1646.57
831.63	1503.21
831.80	1591.27
831.97	1492.97
832.14	1527.78
832.31	1624.04
832.48	1605.61
832.65	1597.42
832.82	1525.74
832.99	1525.74
833.17	1615.85
833.34	1578.98
833.51	1574.89
833.68	1484.78
833.85	1544.17
834.02	1449.96
834.19	1472.49
834.36	1535.98
834.53	1507.30
834.70	1609.70
834.87	1589.22
835.04	1488.87
835.22	1533.93
835.39	1464.30
835.56	1492.97
835.73	1542.12
835.90	1486.83
836.07	1497.07
836.24	1593.32
836.41	1390.57
836.58	1468.39
836.75	1533.93
836.92	1624.04
837.09	1568.74
837.26	1597.42
837.43	1568.74
837.60	1583.08
837.77	1513.45
837.94	1656.81
838.12	1568.74
838.29	1628.14
838.46	1474.54
838.63	1505.26
838.80	1599.46
838.97	1595.37
839.14	1515.50
839.31	1542.12
839.48	1452.01
839.65	1466.35
839.82	1632.23
839.99	1550.31
840.16	1599.46
840.33	1495.02
840.50	1527.78
840.67	1466.35
840.84	1411.05
841.01	1548.26
841.18	1472.49
841.35	1497.07
841.52	1576.94
841.69	1646.57
841.86	1535.98
842.03	1636.33
842.20	1599.46
842.37	1531.88
842.54	1529.83
842.71	1615.85
842.88	1466.35
843.05	1583.08
843.22	1533.93
843.39	1509.35
843.56	1535.98
843.73	1507.30
843.90	1505.26
844.07	1507.30
844.24	1603.56
844.41	1509.35
844.58	1527.78
844.75	1570.79
844.92	1548.26
845.09	1478.63
845.26	1411.05
845.43	1556.46
845.60	1472.49
845.77	1576.94
845.94	1542.12
846.10	1531.88
846.27	1505.26
846.44	1482.73
846.61	1478.63
846.78	1556.46
846.95	1583.08
847.12	1441.77
847.29	1581.03
847.46	1488.87
847.63	1617.90
847.80	1472.49
847.97	1540.07
848.14	1605.61
848.31	1597.42
848.48	1492.97
848.65	1488.87
848.82	1509.35
848.98	1632.23
849.15	1544.17
849.32	1591.27
849.49	1587.18
849.66	1566.70
849.83	1576.94
850.00	1566.70
850.17	1525.74
850.34	1466.35
850.51	1501.16
850.68	1542.12
850.85	1648.61
851.01	1566.70
851.18	1597.42
851.35	1538.02
851.52	1617.90
851.69	1628.14
851.86	1597.42
852.03	1511.40
852.20	1513.45
852.37	1572.84
852.53	1574.89
852.70	1554.41
852.87	1605.61
853.04	1492.97
853.21	1613.80
853.38	1624.04
853.55	1628.14
853.72	1621.99
853.89	1521.64
854.05	1484.78
854.22	1497.07
854.39	1495.02
854.56	1525.74
854.73	1556.46
854.90	1507.30
855.07	1568.74
855.23	1482.73
855.40	1468.39
855.57	1464.30
855.74	1429.48
855.91	1691.62
856.08	1460.20
856.25	1415.15
856.41	1488.87
856.58	1546.22
856.75	1529.83
856.92	1492.97
857.09	1564.65
857.26	1554.41
857.42	1552.36
857.59	1552.36
857.76	1550.31
857.93	1443.82
858.10	1454.06
858.27	1439.72
858.43	1583.08
858.60	1495.02
858.77	1476.59
858.94	1464.30
859.11	1503.21
859.27	1501.16
859.44	1544.17
859.61	1513.45
859.78	1519.59
859.95	1550.31
860.12	1476.59
860.28	1546.22
860.45	1562.60
860.62	1478.63
860.79	1521.64
860.95	1529.83
861.12	1460.20
861.29	1511.40
861.46	1460.20
861.63	1529.83
861.79	1576.94
861.96	1484.78
862.13	1480.68
862.30	1566.70
862.47	1417.19
862.63	1554.41
862.80	1591.27
862.97	1525.74
863.14	1619.94
863.30	1595.37
863.47	1531.88
863.64	1615.85
863.81	1601.51
863.97	1576.94
864.14	1521.64
864.31	1581.03
864.48	1501.16
864.65	1484.78
864.81	1599.46
864.98	1552.36
865.15	1533.93
865.32	1484.78
865.48	1648.61
865.65	1599.46
865.82	1466.35
865.98	1552.36
866.15	1597.42
866.32	1593.32
866.49	1472.49
866.65	1560.55
866.82	1597.42
866.99	1535.98
867.16	1564.65
867.32	1513.45
867.49	1525.74
867.66	1474.54
867.83	1542.12
867.99	1552.36
868.16	1540.07
868.33	1574.89
868.49	1505.26
868.66	1533.93
868.83	1585.13
868.99	1452.01
869.16	1495.02
869.33	1572.84
869.50	1611.75
869.66	1501.16
869.83	1433.58
870.00	1497.07
870.16	1587.18
870.33	1562.60
870.50	1552.36
870.66	1546.22
870.83	1617.90
871.00	1511.40
871.17	1591.27
871.33	1535.98
871.50	1511.40
871.67	1552.36
871.83	1503.21
872.00	1662.95
872.17	1535.98
872.33	1593.32
872.50	1548.26
872.67	1531.88
872.83	1452.01
873.00	1581.03
873.17	1486.83
873.33	1578.98
873.50	1556.46
873.67	1523.69
873.83	1509.35
874.00	1480.68
874.16	1621.99
874.33	1578.98
874.50	1531.88
874.66	1562.60
874.83	1527.78
875.00	1552.36
875.16	1562.60
875.33	1644.52
875.50	1497.07
875.66	1564.65
875.83	1497.07
875.99	1570.79
876.16	1585.13
876.33	1538.02
876.49	1519.59
876.66	1578.98
876.83	1497.07
876.99	1499.11
877.16	1595.37
877.32	1505.26
877.49	1538.02
877.66	1574.89
877.82	1589.22
877.99	1517.54
878.15	1509.35
878.32	1527.78
878.49	1550.31
878.65	1525.74
878.82	1568.74
878.98	1495.02
879.15	1552.36
879.32	1572.84
879.48	1531.88
879.65	1499.11
879.81	1421.29
879.98	1572.84
880.15	1546.22
880.31	1472.49
880.48	1482.73
880.64	1593.32
880.81	1533.93
880.97	1552.36
881.14	1562.60
881.31	1464.30
881.47	1632.23
881.64	1531.88
881.80	1486.83
881.97	1521.64
882.13	1593.32
882.30	1533.93
882.47	1495.02
882.63	1533.93
882.80	1511.40
882.96	1468.39
883.13	1542.12
883.29	1542.12
883.46	1538.02
883.62	1593.32
883.79	1488.87
883.95	1601.51
884.12	1566.70
884.29	1538.02
884.45	1513.45
884.62	1603.56
884.78	1468.39
884.95	1626.09
885.11	1392.62
885.28	1552.36
885.44	1476.59
885.61	1511.40
885.77	1658.85
885.94	1566.70
886.10	1447.91
886.27	1587.18
886.43	1607.66
886.60	1538.02
886.76	1595.37
886.93	1490.92
887.09	1564.65
887.26	1511.40
887.42	1548.26
887.59	1572.84
887.75	1589.22
887.92	1550.31
888.08	1523.69
888.25	1581.03
888.41	1556.46
888.58	1501.16
888.74	1538.02
888.91	1474.54
>>>>>End Processed Spectral Data<<<<<
