SpectraSuite Data File
++++++++++++++++++++++++++++++++++++
Date: Tue May 03 12:55:09 CEST 2016
User: root
Dark Spectrum Present: No
Reference Spectrum Present: No
Number of Sampled Component Spectra: 1
Spectrometers: USB4C02835
Integration Time (usec): 100000 (USB4C02835)
Spectra Averaged: 1 (USB4C02835)
Boxcar Smoothing: 0 (USB4C02835)
Correct for Electrical Dark: No (USB4C02835)
Strobe/Lamp Enabled: No (USB4C02835)
Correct for Detector Non-linearity: No (USB4C02835)
Correct for Stray Light: No (USB4C02835)
Number of Pixels in Processed Spectrum: 3648
>>>>>Begin Processed Spectral Data<<<<<
177.47	1370.09
177.69	1370.09
177.91	1370.09
178.13	1378.28
178.36	1304.56
178.58	1560.55
178.80	1501.16
179.02	1427.43
179.24	1486.83
179.46	1527.78
179.68	1560.55
179.90	1533.93
180.13	1560.55
180.35	1499.11
180.57	1542.12
180.79	1568.74
181.01	1554.41
181.23	1568.74
181.45	1617.90
181.67	1542.12
181.90	1519.59
182.12	1472.49
182.34	1443.82
182.56	1521.64
182.78	1507.30
183.00	1552.36
183.22	1497.07
183.44	1472.49
183.66	1642.47
183.89	1638.38
184.11	1593.32
184.33	1595.37
184.55	1499.11
184.77	1546.22
184.99	1578.98
185.21	1486.83
185.43	1601.51
185.65	1505.26
185.87	1533.93
186.10	1628.14
186.32	1632.23
186.54	1630.18
186.76	1523.69
186.98	1574.89
187.20	1519.59
187.42	1535.98
187.64	1529.83
187.86	1595.37
188.08	1492.97
188.30	1503.21
188.52	1538.02
188.75	1603.56
188.97	1593.32
189.19	1460.20
189.41	1583.08
189.63	1552.36
189.85	1505.26
190.07	1523.69
190.29	1439.72
190.51	1527.78
190.73	1486.83
190.95	1550.31
191.17	1523.69
191.39	1449.96
191.61	1486.83
191.84	1505.26
192.06	1529.83
192.28	1449.96
192.50	1716.20
192.72	1462.25
192.94	1568.74
193.16	1613.80
193.38	1503.21
193.60	1525.74
193.82	1490.92
194.04	1560.55
194.26	1554.41
194.48	1535.98
194.70	1492.97
194.92	1527.78
195.14	1538.02
195.36	1456.11
195.58	1517.54
195.80	1583.08
196.02	1501.16
196.24	1482.73
196.46	1593.32
196.69	1558.50
196.91	1689.57
197.13	1439.72
197.35	1546.22
197.57	1609.70
197.79	1570.79
198.01	1654.76
198.23	1488.87
198.45	1509.35
198.67	1527.78
198.89	1517.54
199.11	1578.98
199.33	1544.17
199.55	1415.15
199.77	1599.46
199.99	1581.03
200.21	1581.03
200.43	1523.69
200.65	1480.68
200.87	1525.74
201.09	1505.26
201.31	1552.36
201.53	1595.37
201.75	1527.78
201.97	1492.97
202.19	1548.26
202.41	1572.84
202.63	1679.33
202.85	1511.40
203.07	1470.44
203.29	1566.70
203.51	1538.02
203.73	1423.34
203.95	1634.28
204.17	1550.31
204.39	1540.07
204.61	1564.65
204.83	1583.08
205.05	1546.22
205.27	1540.07
205.49	1552.36
205.71	1513.45
205.93	1476.59
206.15	1513.45
206.37	1607.66
206.59	1523.69
206.81	1470.44
207.03	1435.63
207.25	1497.07
207.47	1544.17
207.69	1535.98
207.91	1628.14
208.13	1595.37
208.34	1574.89
208.56	1476.59
208.78	1529.83
209.00	1556.46
209.22	1533.93
209.44	1548.26
209.66	1509.35
209.88	1597.42
210.10	1476.59
210.32	1538.02
210.54	1581.03
210.76	1519.59
210.98	1533.93
211.20	1492.97
211.42	1576.94
211.64	1585.13
211.86	1492.97
212.08	1548.26
212.30	1568.74
212.52	1578.98
212.74	1611.75
212.96	1570.79
213.17	1626.09
213.39	1558.50
213.61	1564.65
213.83	1550.31
214.05	1515.50
214.27	1564.65
214.49	1523.69
214.71	1452.01
214.93	1630.18
215.15	1501.16
215.37	1556.46
215.59	1525.74
215.81	1574.89
216.03	1552.36
216.24	1605.61
216.46	1517.54
216.68	1558.50
216.90	1597.42
217.12	1540.07
217.34	1531.88
217.56	1488.87
217.78	1595.37
218.00	1572.84
218.22	1540.07
218.44	1533.93
218.66	1535.98
218.87	1644.52
219.09	1517.54
219.31	1544.17
219.53	1552.36
219.75	1468.39
219.97	1507.30
220.19	1523.69
220.41	1589.22
220.63	1531.88
220.85	1589.22
221.06	1538.02
221.28	1583.08
221.50	1546.22
221.72	1507.30
221.94	1535.98
222.16	1538.02
222.38	1509.35
222.60	1546.22
222.82	1544.17
223.03	1591.27
223.25	1531.88
223.47	1507.30
223.69	1691.62
223.91	1527.78
224.13	1525.74
224.35	1550.31
224.57	1538.02
224.78	1558.50
225.00	1527.78
225.22	1490.92
225.44	1525.74
225.66	1535.98
225.88	1544.17
226.10	1638.38
226.32	1533.93
226.53	1628.14
226.75	1507.30
226.97	1497.07
227.19	1515.50
227.41	1535.98
227.63	1482.73
227.85	1521.64
228.06	1538.02
228.28	1593.32
228.50	1609.70
228.72	1535.98
228.94	1527.78
229.16	1492.97
229.37	1429.48
229.59	1466.35
229.81	1578.98
230.03	1470.44
230.25	1513.45
230.47	1556.46
230.69	1566.70
230.90	1527.78
231.12	1503.21
231.34	1546.22
231.56	1703.91
231.78	1484.78
232.00	1499.11
232.21	1589.22
232.43	1505.26
232.65	1439.72
232.87	1507.30
233.09	1460.20
233.30	1484.78
233.52	1538.02
233.74	1519.59
233.96	1503.21
234.18	1550.31
234.40	1558.50
234.61	1689.57
234.83	1529.83
235.05	1533.93
235.27	1662.95
235.49	1591.27
235.70	1535.98
235.92	1603.56
236.14	1552.36
236.36	1644.52
236.58	1511.40
236.79	1503.21
237.01	1544.17
237.23	1546.22
237.45	1591.27
237.67	1507.30
237.88	1503.21
238.10	1533.93
238.32	1411.05
238.54	1472.49
238.76	1515.50
238.97	1525.74
239.19	1525.74
239.41	1626.09
239.63	1626.09
239.85	1562.60
240.06	1535.98
240.28	1519.59
240.50	1490.92
240.72	1507.30
240.93	1525.74
241.15	1662.95
241.37	1540.07
241.59	1603.56
241.81	1599.46
242.02	1558.50
242.24	1566.70
242.46	1505.26
242.68	1507.30
242.89	1515.50
243.11	1503.21
243.33	1499.11
243.55	1501.16
243.76	1583.08
243.98	1503.21
244.20	1554.41
244.42	1568.74
244.64	1566.70
244.85	1427.43
245.07	1546.22
245.29	1587.18
245.51	1540.07
245.72	1466.35
245.94	1587.18
246.16	1535.98
246.38	1714.15
246.59	1517.54
246.81	1533.93
247.03	1558.50
247.24	1474.54
247.46	1464.30
247.68	1521.64
247.90	1542.12
248.11	1468.39
248.33	1521.64
248.55	1550.31
248.77	1509.35
248.98	1581.03
249.20	1589.22
249.42	1484.78
249.64	1519.59
249.85	1560.55
250.07	1443.82
250.29	1552.36
250.50	1572.84
250.72	1466.35
250.94	1497.07
251.16	1654.76
251.37	1669.09
251.59	1566.70
251.81	1548.26
252.02	1566.70
252.24	1480.68
252.46	1611.75
252.68	1468.39
252.89	1558.50
253.11	1495.02
253.33	1632.23
253.54	1574.89
253.76	1525.74
253.98	1501.16
254.20	1554.41
254.41	1542.12
254.63	1558.50
254.85	1492.97
255.06	1533.93
255.28	1525.74
255.50	1478.63
255.71	1495.02
255.93	1552.36
256.15	1566.70
256.36	1548.26
256.58	1554.41
256.80	1527.78
257.02	1593.32
257.23	1495.02
257.45	1621.99
257.67	1597.42
257.88	1578.98
258.10	1480.68
258.32	1593.32
258.53	1511.40
258.75	1669.09
258.97	1531.88
259.18	1617.90
259.40	1589.22
259.62	1574.89
259.83	1601.51
260.05	1513.45
260.27	1742.82
260.48	1609.70
260.70	1476.59
260.92	1540.07
261.13	1605.61
261.35	1542.12
261.57	1533.93
261.78	1470.44
262.00	1492.97
262.22	1587.18
262.43	1556.46
262.65	1617.90
262.86	1517.54
263.08	1621.99
263.30	1533.93
263.51	1437.67
263.73	1456.11
263.95	1562.60
264.16	1544.17
264.38	1497.07
264.60	1552.36
264.81	1574.89
265.03	1660.90
265.25	1523.69
265.46	1533.93
265.68	1523.69
265.89	1529.83
266.11	1445.87
266.33	1574.89
266.54	1548.26
266.76	1589.22
266.98	1636.33
267.19	1611.75
267.41	1601.51
267.62	1564.65
267.84	1521.64
268.06	1554.41
268.27	1591.27
268.49	1556.46
268.70	1542.12
268.92	1613.80
269.14	1458.15
269.35	1486.83
269.57	1505.26
269.79	1568.74
270.00	1454.06
270.22	1615.85
270.43	1572.84
270.65	1460.20
270.87	1531.88
271.08	1583.08
271.30	1566.70
271.51	1513.45
271.73	1540.07
271.95	1525.74
272.16	1558.50
272.38	1568.74
272.59	1515.50
272.81	1628.14
273.02	1578.98
273.24	1568.74
273.46	1613.80
273.67	1519.59
273.89	1538.02
274.10	1525.74
274.32	1605.61
274.54	1515.50
274.75	1550.31
274.97	1521.64
275.18	1581.03
275.40	1560.55
275.61	1497.07
275.83	1624.04
276.05	1484.78
276.26	1595.37
276.48	1568.74
276.69	1509.35
276.91	1497.07
277.12	1617.90
277.34	1617.90
277.55	1556.46
277.77	1546.22
277.99	1540.07
278.20	1499.11
278.42	1470.44
278.63	1492.97
278.85	1546.22
279.06	1501.16
279.28	1531.88
279.49	1540.07
279.71	1527.78
279.93	1558.50
280.14	1501.16
280.36	1499.11
280.57	1609.70
280.79	1650.66
281.00	1505.26
281.22	1527.78
281.43	1546.22
281.65	1400.81
281.86	1509.35
282.08	1583.08
282.29	1599.46
282.51	1439.72
282.73	1488.87
282.94	1503.21
283.16	1462.25
283.37	1636.33
283.59	1560.55
283.80	1576.94
284.02	1484.78
284.23	1521.64
284.45	1558.50
284.66	1529.83
284.88	1525.74
285.09	1556.46
285.31	1568.74
285.52	1525.74
285.74	1488.87
285.95	1542.12
286.17	1566.70
286.38	1601.51
286.60	1531.88
286.81	1460.20
287.03	1495.02
287.24	1546.22
287.46	1566.70
287.67	1542.12
287.89	1617.90
288.10	1570.79
288.32	1488.87
288.53	1673.19
288.75	1558.50
288.96	1558.50
289.18	1495.02
289.39	1433.58
289.61	1552.36
289.82	1560.55
290.04	1552.36
290.25	1476.59
290.47	1521.64
290.68	1570.79
290.90	1560.55
291.11	1492.97
291.33	1552.36
291.54	1527.78
291.76	1386.47
291.97	1542.12
292.18	1558.50
292.40	1507.30
292.61	1529.83
292.83	1611.75
293.04	1607.66
293.26	1492.97
293.47	1535.98
293.69	1497.07
293.90	1560.55
294.12	1554.41
294.33	1521.64
294.55	1566.70
294.76	1628.14
294.97	1609.70
295.19	1636.33
295.40	1527.78
295.62	1583.08
295.83	1624.04
296.05	1542.12
296.26	1497.07
296.48	1501.16
296.69	1501.16
296.90	1535.98
297.12	1527.78
297.33	1601.51
297.55	1544.17
297.76	1552.36
297.98	1572.84
298.19	1509.35
298.41	1517.54
298.62	1501.16
298.83	1558.50
299.05	1583.08
299.26	1443.82
299.48	1517.54
299.69	1583.08
299.90	1456.11
300.12	1482.73
300.33	1613.80
300.55	1568.74
300.76	1542.12
300.98	1468.39
301.19	1624.04
301.40	1566.70
301.62	1527.78
301.83	1554.41
302.05	1566.70
302.26	1585.13
302.47	1540.07
302.69	1587.18
302.90	1511.40
303.12	1419.24
303.33	1550.31
303.54	1583.08
303.76	1531.88
303.97	1546.22
304.19	1646.57
304.40	1466.35
304.61	1566.70
304.83	1601.51
305.04	1570.79
305.26	1531.88
305.47	1533.93
305.68	1572.84
305.90	1527.78
306.11	1570.79
306.33	1521.64
306.54	1468.39
306.75	1515.50
306.97	1511.40
307.18	1531.88
307.39	1517.54
307.61	1581.03
307.82	1472.49
308.04	1562.60
308.25	1503.21
308.46	1583.08
308.68	1515.50
308.89	1591.27
309.10	1570.79
309.32	1544.17
309.53	1505.26
309.74	1558.50
309.96	1439.72
310.17	1542.12
310.39	1488.87
310.60	1529.83
310.81	1542.12
311.03	1517.54
311.24	1593.32
311.45	1544.17
311.67	1619.94
311.88	1542.12
312.09	1474.54
312.31	1517.54
312.52	1486.83
312.73	1554.41
312.95	1527.78
313.16	1538.02
313.37	1583.08
313.59	1560.55
313.80	1519.59
314.01	1628.14
314.23	1490.92
314.44	1495.02
314.65	1521.64
314.87	1542.12
315.08	1525.74
315.29	1535.98
315.51	1447.91
315.72	1445.87
315.93	1568.74
316.15	1599.46
316.36	1488.87
316.57	1550.31
316.79	1609.70
317.00	1523.69
317.21	1591.27
317.43	1593.32
317.64	1517.54
317.85	1458.15
318.07	1595.37
318.28	1595.37
318.49	1703.91
318.70	1769.44
318.92	1705.96
319.13	1665.00
319.34	1691.62
319.56	1615.85
319.77	1652.71
319.98	1613.80
320.20	1648.61
320.41	1576.94
320.62	1619.94
320.83	1540.07
321.05	1689.57
321.26	1574.89
321.47	1527.78
321.69	1533.93
321.90	1462.25
322.11	1472.49
322.32	1486.83
322.54	1599.46
322.75	1460.20
322.96	1611.75
323.18	1533.93
323.39	1460.20
323.60	1443.82
323.81	1632.23
324.03	1593.32
324.24	1595.37
324.45	1572.84
324.66	1462.25
324.88	1617.90
325.09	1597.42
325.30	1466.35
325.52	1525.74
325.73	1525.74
325.94	1566.70
326.15	1492.97
326.37	1503.21
326.58	1589.22
326.79	1615.85
327.00	1562.60
327.22	1566.70
327.43	1521.64
327.64	1495.02
327.85	1589.22
328.07	1583.08
328.28	1591.27
328.49	1462.25
328.70	1540.07
328.92	1583.08
329.13	1490.92
329.34	1581.03
329.55	1552.36
329.76	1523.69
329.98	1599.46
330.19	1607.66
330.40	1449.96
330.61	1525.74
330.83	1548.26
331.04	1568.74
331.25	1535.98
331.46	1472.49
331.68	1460.20
331.89	1576.94
332.10	1542.12
332.31	1468.39
332.52	1488.87
332.74	1556.46
332.95	1499.11
333.16	1581.03
333.37	1509.35
333.58	1495.02
333.80	1607.66
334.01	1462.25
334.22	1503.21
334.43	1478.63
334.64	1507.30
334.86	1544.17
335.07	1460.20
335.28	1568.74
335.49	1458.15
335.70	1501.16
335.92	1570.79
336.13	1757.16
336.34	1578.98
336.55	1558.50
336.76	1591.27
336.98	1460.20
337.19	1525.74
337.40	1550.31
337.61	1652.71
337.82	1519.59
338.04	1591.27
338.25	1470.44
338.46	1595.37
338.67	1527.78
338.88	1548.26
339.09	1482.73
339.31	1562.60
339.52	1533.93
339.73	1472.49
339.94	1554.41
340.15	1605.61
340.36	1509.35
340.58	1484.78
340.79	1501.16
341.00	1593.32
341.21	1470.44
341.42	1599.46
341.63	1540.07
341.85	1538.02
342.06	1597.42
342.27	1464.30
342.48	1531.88
342.69	1437.67
342.90	1576.94
343.12	1570.79
343.33	1472.49
343.54	1560.55
343.75	1591.27
343.96	1464.30
344.17	1533.93
344.38	1501.16
344.60	1484.78
344.81	1472.49
345.02	1464.30
345.23	1574.89
345.44	1673.19
345.65	1583.08
345.86	1560.55
346.07	1529.83
346.29	1535.98
346.50	1509.35
346.71	1574.89
346.92	1626.09
347.13	1619.94
347.34	1443.82
347.55	1517.54
347.76	1525.74
347.98	1511.40
348.19	1574.89
348.40	1566.70
348.61	1447.91
348.82	1572.84
349.03	1482.73
349.24	1501.16
349.45	1609.70
349.66	1490.92
349.88	1548.26
350.09	1566.70
350.30	1597.42
350.51	1535.98
350.72	1576.94
350.93	1533.93
351.14	1542.12
351.35	1585.13
351.56	1560.55
351.77	1492.97
351.99	1576.94
352.20	1636.33
352.41	1566.70
352.62	1509.35
352.83	1523.69
353.04	1570.79
353.25	1466.35
353.46	1578.98
353.67	1550.31
353.88	1435.63
354.09	1548.26
354.30	1558.50
354.52	1621.99
354.73	1589.22
354.94	1486.83
355.15	1495.02
355.36	1593.32
355.57	1572.84
355.78	1583.08
355.99	1509.35
356.20	1513.45
356.41	1544.17
356.62	1540.07
356.83	1511.40
357.04	1548.26
357.25	1513.45
357.46	1456.11
357.68	1419.24
357.89	1542.12
358.10	1511.40
358.31	1490.92
358.52	1495.02
358.73	1517.54
358.94	1478.63
359.15	1558.50
359.36	1570.79
359.57	1484.78
359.78	1497.07
359.99	1552.36
360.20	1501.16
360.41	1542.12
360.62	1576.94
360.83	1591.27
361.04	1517.54
361.25	1529.83
361.46	1576.94
361.67	1581.03
361.88	1554.41
362.09	1601.51
362.30	1566.70
362.51	1513.45
362.72	1621.99
362.93	1609.70
363.14	1603.56
363.35	1478.63
363.56	1523.69
363.78	1630.18
363.99	1574.89
364.20	1490.92
364.41	1507.30
364.62	1656.81
364.83	1533.93
365.04	1585.13
365.25	1488.87
365.46	1615.85
365.67	1540.07
365.88	1546.22
366.09	1531.88
366.30	1546.22
366.51	1538.02
366.72	1550.31
366.93	1519.59
367.14	1578.98
367.35	1626.09
367.56	1613.80
367.77	1574.89
367.98	1544.17
368.18	1523.69
368.39	1566.70
368.60	1497.07
368.81	1595.37
369.02	1497.07
369.23	1540.07
369.44	1429.48
369.65	1443.82
369.86	1492.97
370.07	1566.70
370.28	1499.11
370.49	1599.46
370.70	1519.59
370.91	1466.35
371.12	1415.15
371.33	1540.07
371.54	1546.22
371.75	1560.55
371.96	1454.06
372.17	1611.75
372.38	1583.08
372.59	1617.90
372.80	1513.45
373.01	1578.98
373.22	1525.74
373.43	1525.74
373.64	1556.46
373.85	1589.22
374.06	1550.31
374.26	1572.84
374.47	1576.94
374.68	1595.37
374.89	1560.55
375.10	1499.11
375.31	1525.74
375.52	1523.69
375.73	1568.74
375.94	1474.54
376.15	1642.47
376.36	1456.11
376.57	1495.02
376.78	1507.30
376.99	1585.13
377.20	1552.36
377.40	1544.17
377.61	1611.75
377.82	1515.50
378.03	1566.70
378.24	1581.03
378.45	1574.89
378.66	1515.50
378.87	1419.24
379.08	1470.44
379.29	1583.08
379.50	1613.80
379.71	1562.60
379.91	1501.16
380.12	1511.40
380.33	1515.50
380.54	1533.93
380.75	1554.41
380.96	1468.39
381.17	1560.55
381.38	1546.22
381.59	1593.32
381.80	1576.94
382.00	1689.57
382.21	1591.27
382.42	1621.99
382.63	1660.90
382.84	1566.70
383.05	1515.50
383.26	1644.52
383.47	1615.85
383.68	1636.33
383.88	1585.13
384.09	1597.42
384.30	1626.09
384.51	1511.40
384.72	1443.82
384.93	1511.40
385.14	1560.55
385.35	1603.56
385.55	1484.78
385.76	1560.55
385.97	1529.83
386.18	1533.93
386.39	1515.50
386.60	1554.41
386.81	1593.32
387.02	1552.36
387.22	1595.37
387.43	1652.71
387.64	1648.61
387.85	1914.85
388.06	3227.60
388.27	7231.38
388.48	10544.99
388.68	12234.57
388.89	14077.74
389.10	12779.32
389.31	10194.79
389.52	8896.38
389.73	8030.09
389.93	7169.94
390.14	6596.51
390.35	6127.52
390.56	5625.77
390.77	4485.05
390.98	3557.32
391.18	2789.33
391.39	2244.57
391.60	1759.21
391.81	1716.20
392.02	1601.51
392.23	1671.14
392.43	1550.31
392.64	1642.47
392.85	1585.13
393.06	1585.13
393.27	1564.65
393.47	1583.08
393.68	1544.17
393.89	1456.11
394.10	1558.50
394.31	1523.69
394.52	1470.44
394.72	1564.65
394.93	1621.99
395.14	1540.07
395.35	1554.41
395.56	1574.89
395.76	1576.94
395.97	1714.15
396.18	1683.43
396.39	1720.29
396.60	1873.89
396.80	1765.35
397.01	1687.53
397.22	1630.18
397.43	1624.04
397.64	1552.36
397.84	1613.80
398.05	1693.67
398.26	1656.81
398.47	1619.94
398.67	1636.33
398.88	1677.29
399.09	1607.66
399.30	1523.69
399.51	1587.18
399.71	1435.63
399.92	1531.88
400.13	1542.12
400.34	1611.75
400.54	1542.12
400.75	1648.61
400.96	1636.33
401.17	1568.74
401.37	1605.61
401.58	1521.64
401.79	1628.14
402.00	1789.92
402.21	1894.37
402.41	2002.91
402.62	1972.19
402.83	1931.23
403.04	1812.45
403.24	1839.08
403.45	1724.39
403.66	1816.55
403.87	1775.59
404.07	1734.63
404.28	1714.15
404.49	1736.68
404.70	1669.09
404.90	1603.56
405.11	1525.74
405.32	1615.85
405.52	1529.83
405.73	1546.22
405.94	1486.83
406.15	1603.56
406.35	1585.13
406.56	1501.16
406.77	1492.97
406.98	1464.30
407.18	1546.22
407.39	1560.55
407.60	1513.45
407.80	1558.50
408.01	1517.54
408.22	1585.13
408.43	1519.59
408.63	1574.89
408.84	1517.54
409.05	1552.36
409.25	1466.35
409.46	1548.26
409.67	1585.13
409.88	1538.02
410.08	1533.93
410.29	1492.97
410.50	1585.13
410.70	1583.08
410.91	1556.46
411.12	1603.56
411.32	1480.68
411.53	1589.22
411.74	1656.81
411.95	1710.05
412.15	1562.60
412.36	1621.99
412.57	1611.75
412.77	1660.90
412.98	1499.11
413.19	1570.79
413.39	1499.11
413.60	1509.35
413.81	1644.52
414.01	1517.54
414.22	1513.45
414.43	1640.42
414.63	1548.26
414.84	1585.13
415.05	1511.40
415.25	1540.07
415.46	1564.65
415.67	1544.17
415.87	1589.22
416.08	1531.88
416.29	1472.49
416.49	1540.07
416.70	1492.97
416.91	1515.50
417.11	1562.60
417.32	1607.66
417.53	1632.23
417.73	1556.46
417.94	1468.39
418.15	1540.07
418.35	1529.83
418.56	1484.78
418.77	1587.18
418.97	1468.39
419.18	1599.46
419.38	1431.53
419.59	1499.11
419.80	1632.23
420.00	1468.39
420.21	1570.79
420.42	1544.17
420.62	1628.14
420.83	1525.74
421.04	1519.59
421.24	1492.97
421.45	1613.80
421.65	1538.02
421.86	1521.64
422.07	1550.31
422.27	1587.18
422.48	1599.46
422.69	1511.40
422.89	1474.54
423.10	1601.51
423.30	1472.49
423.51	1581.03
423.72	1544.17
423.92	1574.89
424.13	1468.39
424.33	1540.07
424.54	1630.18
424.75	1476.59
424.95	1589.22
425.16	1624.04
425.36	1538.02
425.57	1564.65
425.78	1529.83
425.98	1513.45
426.19	1581.03
426.39	1560.55
426.60	1638.38
426.81	1605.61
427.01	1484.78
427.22	1544.17
427.42	1456.11
427.63	1523.69
427.83	1638.38
428.04	1574.89
428.25	1607.66
428.45	1632.23
428.66	1585.13
428.86	1519.59
429.07	1495.02
429.28	1513.45
429.48	1513.45
429.69	1552.36
429.89	1548.26
430.10	1503.21
430.30	1488.87
430.51	1583.08
430.71	1476.59
430.92	1583.08
431.13	1476.59
431.33	1560.55
431.54	1601.51
431.74	1648.61
431.95	1638.38
432.15	1507.30
432.36	1538.02
432.56	1566.70
432.77	1654.76
432.98	1558.50
433.18	1503.21
433.39	1552.36
433.59	1538.02
433.80	1646.57
434.00	1712.10
434.21	1585.13
434.41	1460.20
434.62	1685.48
434.82	1492.97
435.03	1564.65
435.23	1562.60
435.44	1519.59
435.64	1566.70
435.85	1482.73
436.06	1574.89
436.26	1634.28
436.47	1497.07
436.67	1511.40
436.88	1527.78
437.08	1552.36
437.29	1595.37
437.49	1554.41
437.70	1562.60
437.90	1558.50
438.11	1605.61
438.31	1607.66
438.52	1685.48
438.72	1679.33
438.93	1724.39
439.13	1617.90
439.34	1720.29
439.54	1558.50
439.75	1621.99
439.95	1583.08
440.16	1540.07
440.36	1634.28
440.57	1556.46
440.77	1556.46
440.98	1492.97
441.18	1556.46
441.39	1548.26
441.59	1458.15
441.80	1642.47
442.00	1531.88
442.21	1585.13
442.41	1529.83
442.62	1578.98
442.82	1464.30
443.02	1495.02
443.23	1527.78
443.43	1550.31
443.64	1652.71
443.84	1505.26
444.05	1650.66
444.25	1619.94
444.46	1525.74
444.66	1605.61
444.87	1617.90
445.07	1509.35
445.28	1578.98
445.48	1607.66
445.69	1646.57
445.89	1716.20
446.09	1626.09
446.30	2009.06
446.50	3080.14
446.71	4456.38
446.91	5132.21
447.12	5679.02
447.32	5552.04
447.53	4650.94
447.73	3907.52
447.93	3614.66
448.14	3485.64
448.34	3219.41
448.55	2994.13
448.75	2901.97
448.96	2756.57
449.16	2435.03
449.36	2336.73
449.57	1974.24
449.77	1824.74
449.98	1730.53
450.18	1669.09
450.39	1599.46
450.59	1638.38
450.79	1472.49
451.00	1529.83
451.20	1525.74
451.41	1546.22
451.61	1583.08
451.81	1597.42
452.02	1531.88
452.22	1452.01
452.43	1511.40
452.63	1505.26
452.84	1511.40
453.04	1507.30
453.24	1589.22
453.45	1525.74
453.65	1488.87
453.86	1570.79
454.06	1523.69
454.26	1572.84
454.47	1546.22
454.67	1619.94
454.87	1533.93
455.08	1495.02
455.28	1607.66
455.49	1542.12
455.69	1445.87
455.89	1628.14
456.10	1589.22
456.30	1529.83
456.51	1638.38
456.71	1576.94
456.91	1581.03
457.12	1556.46
457.32	1527.78
457.52	1495.02
457.73	1558.50
457.93	1593.32
458.14	1511.40
458.34	1484.78
458.54	1447.91
458.75	1486.83
458.95	1611.75
459.15	1554.41
459.36	1486.83
459.56	1562.60
459.76	1703.91
459.97	1542.12
460.17	1568.74
460.37	1583.08
460.58	1568.74
460.78	1564.65
460.99	1572.84
461.19	1427.43
461.39	1472.49
461.60	1468.39
461.80	1560.55
462.00	1454.06
462.21	1525.74
462.41	1480.68
462.61	1527.78
462.82	1409.00
463.02	1662.95
463.22	1544.17
463.43	1581.03
463.63	1591.27
463.83	1603.56
464.04	1581.03
464.24	1507.30
464.44	1509.35
464.64	1560.55
464.85	1546.22
465.05	1597.42
465.25	1552.36
465.46	1460.20
465.66	1540.07
465.86	1570.79
466.07	1478.63
466.27	1505.26
466.47	1495.02
466.68	1540.07
466.88	1624.04
467.08	1533.93
467.29	1564.65
467.49	1529.83
467.69	1550.31
467.89	1540.07
468.10	1501.16
468.30	1599.46
468.50	1621.99
468.71	1583.08
468.91	1531.88
469.11	1611.75
469.31	1497.07
469.52	1495.02
469.72	1628.14
469.92	1603.56
470.13	1585.13
470.33	1554.41
470.53	1728.49
470.73	2072.54
470.94	2385.88
471.14	2496.47
471.34	2688.98
471.54	2385.88
471.75	2187.23
471.95	2033.63
472.15	1992.67
472.36	1937.38
472.56	1994.72
472.76	1865.70
472.96	1845.22
473.17	1861.60
473.37	1841.12
473.57	1693.67
473.77	1705.96
473.98	1587.18
474.18	1540.07
474.38	1611.75
474.58	1544.17
474.79	1552.36
474.99	1634.28
475.19	1632.23
475.39	1525.74
475.60	1527.78
475.80	1511.40
476.00	1632.23
476.20	1531.88
476.41	1523.69
476.61	1576.94
476.81	1556.46
477.01	1523.69
477.21	1595.37
477.42	1587.18
477.62	1497.07
477.82	1578.98
478.02	1552.36
478.23	1533.93
478.43	1548.26
478.63	1583.08
478.83	1626.09
479.03	1542.12
479.24	1609.70
479.44	1675.24
479.64	1472.49
479.84	1419.24
480.04	1460.20
480.25	1583.08
480.45	1456.11
480.65	1517.54
480.85	1603.56
481.06	1538.02
481.26	1546.22
481.46	1585.13
481.66	1548.26
481.86	1492.97
482.06	1589.22
482.27	1593.32
482.47	1531.88
482.67	1566.70
482.87	1535.98
483.07	1613.80
483.28	1478.63
483.48	1492.97
483.68	1621.99
483.88	1511.40
484.08	1519.59
484.29	1507.30
484.49	1511.40
484.69	1548.26
484.89	1621.99
485.09	1621.99
485.29	1638.38
485.50	1560.55
485.70	1550.31
485.90	1667.05
486.10	1591.27
486.30	1529.83
486.50	1691.62
486.71	1566.70
486.91	1533.93
487.11	1576.94
487.31	1421.29
487.51	1540.07
487.71	1476.59
487.91	1427.43
488.12	1474.54
488.32	1486.83
488.52	1509.35
488.72	1511.40
488.92	1525.74
489.12	1581.03
489.32	1591.27
489.53	1552.36
489.73	1495.02
489.93	1603.56
490.13	1505.26
490.33	1533.93
490.53	1599.46
490.73	1658.85
490.94	1476.59
491.14	1615.85
491.34	1751.01
491.54	2117.60
491.74	2650.07
491.94	3035.09
492.14	3327.95
492.34	3250.13
492.54	2826.20
492.75	2475.99
492.95	2332.64
493.15	2246.62
493.35	2148.32
493.55	2133.98
493.75	2021.35
493.95	1935.33
494.15	1892.32
494.35	1810.40
494.56	1726.44
494.76	1581.03
494.96	1656.81
495.16	1638.38
495.36	1509.35
495.56	1609.70
495.76	1550.31
495.96	1509.35
496.16	1441.77
496.36	1675.24
496.56	1509.35
496.77	1507.30
496.97	1601.51
497.17	1525.74
497.37	1517.54
497.57	1492.97
497.77	1521.64
497.97	1517.54
498.17	1568.74
498.37	1550.31
498.57	1542.12
498.77	1558.50
498.97	1548.26
499.17	1675.24
499.38	1550.31
499.58	1650.66
499.78	1566.70
499.98	1650.66
500.18	1556.46
500.38	1617.90
500.58	1814.50
500.78	2699.22
500.98	5119.92
501.18	6862.74
501.38	8267.65
501.58	8783.74
501.78	7960.45
501.98	6154.15
502.18	5412.78
502.38	4700.09
502.58	4218.82
502.78	3821.51
502.98	3844.04
503.18	3612.62
503.38	3475.40
503.59	2949.08
503.79	2760.66
503.99	2619.35
504.19	2385.88
504.39	2197.47
504.59	2090.98
504.79	2021.35
504.99	1943.52
505.19	1777.64
505.39	1693.67
505.59	1767.40
505.79	1724.39
505.99	1669.09
506.19	1648.61
506.39	1656.81
506.59	1548.26
506.79	1638.38
506.99	1683.43
507.19	1505.26
507.39	1570.79
507.59	1574.89
507.79	1540.07
507.99	1562.60
508.19	1564.65
508.39	1492.97
508.59	1505.26
508.79	1714.15
508.99	1609.70
509.19	1519.59
509.39	1535.98
509.59	1513.45
509.79	1589.22
509.99	1535.98
510.19	1587.18
510.39	1660.90
510.59	1521.64
510.79	1464.30
510.99	1492.97
511.19	1564.65
511.39	1568.74
511.59	1519.59
511.79	1615.85
511.99	1525.74
512.19	1621.99
512.38	1523.69
512.58	1492.97
512.78	1589.22
512.98	1560.55
513.18	1589.22
513.38	1501.16
513.58	1538.02
513.78	1531.88
513.98	1519.59
514.18	1540.07
514.38	1574.89
514.58	1529.83
514.78	1480.68
514.98	1542.12
515.18	1482.73
515.38	1515.50
515.58	1658.85
515.78	1525.74
515.98	1568.74
516.18	1581.03
516.38	1470.44
516.57	1562.60
516.77	1519.59
516.97	1570.79
517.17	1566.70
517.37	1445.87
517.57	1611.75
517.77	1503.21
517.97	1490.92
518.17	1492.97
518.37	1478.63
518.57	1533.93
518.77	1632.23
518.97	1437.67
519.16	1644.52
519.36	1597.42
519.56	1525.74
519.76	1501.16
519.96	1656.81
520.16	1658.85
520.36	1503.21
520.56	1589.22
520.76	1474.54
520.96	1583.08
521.16	1605.61
521.35	1603.56
521.55	1626.09
521.75	1564.65
521.95	1501.16
522.15	1544.17
522.35	1437.67
522.55	1546.22
522.75	1679.33
522.95	1642.47
523.14	1458.15
523.34	1509.35
523.54	1544.17
523.74	1632.23
523.94	1556.46
524.14	1511.40
524.34	1544.17
524.54	1574.89
524.73	1517.54
524.93	1560.55
525.13	1552.36
525.33	1396.71
525.53	1695.72
525.73	1562.60
525.93	1527.78
526.13	1560.55
526.32	1525.74
526.52	1564.65
526.72	1589.22
526.92	1544.17
527.12	1540.07
527.32	1519.59
527.52	1578.98
527.71	1497.07
527.91	1505.26
528.11	1499.11
528.31	1540.07
528.51	1535.98
528.71	1558.50
528.90	1552.36
529.10	1648.61
529.30	1658.85
529.50	1476.59
529.70	1585.13
529.90	1521.64
530.09	1572.84
530.29	1550.31
530.49	1511.40
530.69	1642.47
530.89	1550.31
531.09	1560.55
531.28	1585.13
531.48	1595.37
531.68	1554.41
531.88	1548.26
532.08	1593.32
532.28	1503.21
532.47	1570.79
532.67	1519.59
532.87	1574.89
533.07	1552.36
533.27	1552.36
533.46	1535.98
533.66	1572.84
533.86	1558.50
534.06	1587.18
534.26	1615.85
534.45	1476.59
534.65	1568.74
534.85	1542.12
535.05	1558.50
535.25	1554.41
535.44	1529.83
535.64	1597.42
535.84	1544.17
536.04	1513.45
536.24	1548.26
536.43	1564.65
536.63	1527.78
536.83	1533.93
537.03	1527.78
537.22	1445.87
537.42	1515.50
537.62	1542.12
537.82	1511.40
538.02	1585.13
538.21	1585.13
538.41	1652.71
538.61	1574.89
538.81	1503.21
539.00	1531.88
539.20	1503.21
539.40	1593.32
539.60	1595.37
539.79	1642.47
539.99	1535.98
540.19	1497.07
540.39	1517.54
540.58	1452.01
540.78	1513.45
540.98	1542.12
541.18	1605.61
541.37	1652.71
541.57	1499.11
541.77	1509.35
541.97	1499.11
542.16	1484.78
542.36	1531.88
542.56	1621.99
542.76	1615.85
542.95	1587.18
543.15	1538.02
543.35	1660.90
543.54	1519.59
543.74	1535.98
543.94	1572.84
544.14	1535.98
544.33	1538.02
544.53	1533.93
544.73	1503.21
544.93	1488.87
545.12	1499.11
545.32	1517.54
545.52	1593.32
545.71	1484.78
545.91	1462.25
546.11	1581.03
546.30	1550.31
546.50	1574.89
546.70	1574.89
546.90	1464.30
547.09	1458.15
547.29	1542.12
547.49	1523.69
547.68	1495.02
547.88	1454.06
548.08	1499.11
548.27	1845.22
548.47	1482.73
548.67	1533.93
548.87	1548.26
549.06	1486.83
549.26	1517.54
549.46	1591.27
549.65	1523.69
549.85	1591.27
550.05	1601.51
550.24	1411.05
550.44	1538.02
550.64	1470.44
550.83	1587.18
551.03	1531.88
551.23	1589.22
551.42	1628.14
551.62	1462.25
551.82	1519.59
552.01	1564.65
552.21	1554.41
552.41	1546.22
552.60	1546.22
552.80	1546.22
553.00	1515.50
553.19	1501.16
553.39	1576.94
553.59	1478.63
553.78	1511.40
553.98	1513.45
554.17	1484.78
554.37	1527.78
554.57	1558.50
554.76	1535.98
554.96	1495.02
555.16	1501.16
555.35	1503.21
555.55	1624.04
555.75	1535.98
555.94	1581.03
556.14	1515.50
556.33	1525.74
556.53	1511.40
556.73	1544.17
556.92	1552.36
557.12	1665.00
557.32	1634.28
557.51	1634.28
557.71	1583.08
557.90	1667.05
558.10	1636.33
558.30	1533.93
558.49	1464.30
558.69	1527.78
558.88	1589.22
559.08	1533.93
559.28	1443.82
559.47	1460.20
559.67	1619.94
559.86	1574.89
560.06	1589.22
560.26	1470.44
560.45	1548.26
560.65	1492.97
560.84	1568.74
561.04	1501.16
561.24	1634.28
561.43	1499.11
561.63	1546.22
561.82	1564.65
562.02	1636.33
562.22	1429.48
562.41	1527.78
562.61	1525.74
562.80	1593.32
563.00	1665.00
563.19	1495.02
563.39	1585.13
563.59	1486.83
563.78	1472.49
563.98	1523.69
564.17	1513.45
564.37	1452.01
564.56	1533.93
564.76	1515.50
564.96	1697.77
565.15	1527.78
565.35	1695.72
565.54	1544.17
565.74	1566.70
565.93	1619.94
566.13	1566.70
566.32	1609.70
566.52	1556.46
566.71	1482.73
566.91	1585.13
567.11	1548.26
567.30	1540.07
567.50	1525.74
567.69	1558.50
567.89	1492.97
568.08	1513.45
568.28	1564.65
568.47	1550.31
568.67	1562.60
568.86	1517.54
569.06	1648.61
569.25	1495.02
569.45	1495.02
569.64	1585.13
569.84	1505.26
570.04	1617.90
570.23	1513.45
570.43	1578.98
570.62	1597.42
570.82	1597.42
571.01	1515.50
571.21	1507.30
571.40	1495.02
571.60	1554.41
571.79	1595.37
571.99	1591.27
572.18	1523.69
572.38	1583.08
572.57	1535.98
572.77	1574.89
572.96	1757.16
573.16	1556.46
573.35	1488.87
573.55	1642.47
573.74	1609.70
573.94	1482.73
574.13	1511.40
574.33	1601.51
574.52	1660.90
574.71	1583.08
574.91	1574.89
575.10	1492.97
575.30	1509.35
575.49	1509.35
575.69	1462.25
575.88	1581.03
576.08	1562.60
576.27	1681.38
576.47	1636.33
576.66	1677.29
576.86	1624.04
577.05	1669.09
577.25	1599.46
577.44	1630.18
577.64	1548.26
577.83	1607.66
578.02	1546.22
578.22	1585.13
578.41	1660.90
578.61	1562.60
578.80	1495.02
579.00	1581.03
579.19	1595.37
579.39	1558.50
579.58	1675.24
579.77	1540.07
579.97	1662.95
580.16	1673.19
580.36	1574.89
580.55	1665.00
580.75	1656.81
580.94	1667.05
581.13	1658.85
581.33	1640.42
581.52	1636.33
581.72	1681.38
581.91	1675.24
582.11	1593.32
582.30	1621.99
582.49	1656.81
582.69	1628.14
582.88	1603.56
583.08	1603.56
583.27	1636.33
583.47	1581.03
583.66	1560.55
583.85	1683.43
584.05	1525.74
584.24	1626.09
584.44	1642.47
584.63	1638.38
584.82	1740.77
585.02	1718.25
585.21	1757.16
585.41	1755.11
585.60	1740.77
585.79	1753.06
585.99	1800.16
586.18	1736.68
586.37	2101.22
586.57	3166.16
586.76	9357.17
586.96	27246.18
587.15	43355.50
587.34	54260.93
587.54	61293.66
587.73	59579.51
587.93	43597.16
588.12	32366.10
588.31	25855.61
588.51	22253.23
588.70	20149.96
588.89	18484.97
589.09	16877.31
589.28	15075.10
589.47	13268.79
589.67	11136.85
589.86	8986.49
590.06	6674.33
590.25	5083.06
590.44	3887.04
590.64	2897.88
590.83	2324.44
591.02	2000.87
591.22	1931.23
591.41	1751.01
591.60	1636.33
591.80	1761.25
591.99	1566.70
592.18	1669.09
592.38	1675.24
592.57	1544.17
592.76	1619.94
592.96	1652.71
593.15	1560.55
593.34	1617.90
593.54	1632.23
593.73	1591.27
593.92	1615.85
594.12	1597.42
594.31	1705.96
594.50	1724.39
594.70	1679.33
594.89	1708.01
595.08	1578.98
595.28	1624.04
595.47	1662.95
595.66	1605.61
595.86	1574.89
596.05	1630.18
596.24	1611.75
596.43	1656.81
596.63	1624.04
596.82	1572.84
597.01	1499.11
597.21	1656.81
597.40	1624.04
597.59	1644.52
597.79	1593.32
597.98	1607.66
598.17	1550.31
598.36	1544.17
598.56	1669.09
598.75	1593.32
598.94	1566.70
599.14	1566.70
599.33	1523.69
599.52	1583.08
599.71	1558.50
599.91	1617.90
600.10	1542.12
600.29	1597.42
600.48	1587.18
600.68	1517.54
600.87	1521.64
601.06	1591.27
601.26	1517.54
601.45	1544.17
601.64	1550.31
601.83	1572.84
602.03	1523.69
602.22	1519.59
602.41	1535.98
602.60	1667.05
602.80	1574.89
602.99	1562.60
603.18	1505.26
603.37	1581.03
603.57	1568.74
603.76	1566.70
603.95	1527.78
604.14	1546.22
604.34	1505.26
604.53	1560.55
604.72	1523.69
604.91	1619.94
605.10	1626.09
605.30	1486.83
605.49	1667.05
605.68	1470.44
605.87	1546.22
606.07	1519.59
606.26	1556.46
606.45	1452.01
606.64	1507.30
606.84	1529.83
607.03	1640.42
607.22	1609.70
607.41	1591.27
607.60	1556.46
607.80	1562.60
607.99	1562.60
608.18	1621.99
608.37	1527.78
608.56	1503.21
608.76	1574.89
608.95	1683.43
609.14	1550.31
609.33	1701.86
609.52	1662.95
609.72	1703.91
609.91	1642.47
610.10	1529.83
610.29	1544.17
610.48	1552.36
610.68	1562.60
610.87	1587.18
611.06	1558.50
611.25	1603.56
611.44	1581.03
611.63	1546.22
611.83	1615.85
612.02	1513.45
612.21	1624.04
612.40	1560.55
612.59	1542.12
612.79	1476.59
612.98	1566.70
613.17	1660.90
613.36	1626.09
613.55	1634.28
613.74	1648.61
613.93	1740.77
614.13	1748.97
614.32	1728.49
614.51	1753.06
614.70	1724.39
614.89	1607.66
615.08	1589.22
615.28	1914.85
615.47	1441.77
615.66	1642.47
615.85	1652.71
616.04	1699.81
616.23	1611.75
616.42	1607.66
616.62	1546.22
616.81	1615.85
617.00	1607.66
617.19	1605.61
617.38	1572.84
617.57	1634.28
617.76	1542.12
617.95	1648.61
618.15	1656.81
618.34	1611.75
618.53	1542.12
618.72	1564.65
618.91	1591.27
619.10	1673.19
619.29	1488.87
619.48	1570.79
619.68	1515.50
619.87	1497.07
620.06	1474.54
620.25	1601.51
620.44	1587.18
620.63	1495.02
620.82	1484.78
621.01	1593.32
621.20	1576.94
621.39	1601.51
621.59	1605.61
621.78	1535.98
621.97	1597.42
622.16	1593.32
622.35	1529.83
622.54	1581.03
622.73	1583.08
622.92	1509.35
623.11	1613.80
623.30	1484.78
623.49	1531.88
623.68	1458.15
623.88	1589.22
624.07	1599.46
624.26	1548.26
624.45	1583.08
624.64	1452.01
624.83	1535.98
625.02	1468.39
625.21	1531.88
625.40	1497.07
625.59	1669.09
625.78	1570.79
625.97	1626.09
626.16	1638.38
626.35	1638.38
626.54	1583.08
626.74	1648.61
626.93	1607.66
627.12	1527.78
627.31	1687.53
627.50	1525.74
627.69	1599.46
627.88	1611.75
628.07	1495.02
628.26	1540.07
628.45	1476.59
628.64	1601.51
628.83	1550.31
629.02	1509.35
629.21	1587.18
629.40	1480.68
629.59	1529.83
629.78	1548.26
629.97	1597.42
630.16	1550.31
630.35	1583.08
630.54	1544.17
630.73	1554.41
630.92	1574.89
631.11	1550.31
631.30	1499.11
631.49	1533.93
631.68	1511.40
631.87	1585.13
632.06	1538.02
632.25	1685.48
632.44	1591.27
632.63	1601.51
632.82	1560.55
633.01	1568.74
633.20	1681.38
633.39	1615.85
633.58	1560.55
633.77	1660.90
633.96	1595.37
634.15	1597.42
634.34	1611.75
634.53	1634.28
634.72	1566.70
634.91	1578.98
635.10	1562.60
635.29	1556.46
635.48	1589.22
635.67	1478.63
635.86	1492.97
636.05	1628.14
636.24	1568.74
636.43	1562.60
636.62	1513.45
636.81	1476.59
637.00	1550.31
637.19	1611.75
637.38	1542.12
637.57	1531.88
637.76	1576.94
637.95	1609.70
638.14	1576.94
638.33	1646.57
638.52	1644.52
638.71	1507.30
638.89	1591.27
639.08	1748.97
639.27	1587.18
639.46	1753.06
639.65	1877.99
639.84	2072.54
640.03	2168.80
640.22	2287.58
640.41	2275.29
640.60	1923.04
640.79	1841.12
640.98	1775.59
641.17	1708.01
641.36	1675.24
641.55	1738.73
641.74	1589.22
641.92	1660.90
642.11	1591.27
642.30	1585.13
642.49	1583.08
642.68	1662.95
642.87	1574.89
643.06	1634.28
643.25	1544.17
643.44	1468.39
643.63	1548.26
643.82	1525.74
644.00	1495.02
644.19	1550.31
644.38	1503.21
644.57	1525.74
644.76	1611.75
644.95	1478.63
645.14	1472.49
645.33	1470.44
645.52	1531.88
645.71	1509.35
645.89	1521.64
646.08	1513.45
646.27	1589.22
646.46	1705.96
646.65	1495.02
646.84	1566.70
647.03	1488.87
647.22	1570.79
647.40	1566.70
647.59	1540.07
647.78	1566.70
647.97	1511.40
648.16	1462.25
648.35	1562.60
648.54	1593.32
648.73	1578.98
648.91	1529.83
649.10	1554.41
649.29	1470.44
649.48	1456.11
649.67	1544.17
649.86	1564.65
650.05	1628.14
650.23	1640.42
650.42	1578.98
650.61	1691.62
650.80	1722.34
650.99	1771.49
651.18	1646.57
651.36	1714.15
651.55	1597.42
651.74	1650.66
651.93	1581.03
652.12	1570.79
652.31	1597.42
652.49	1597.42
652.68	1595.37
652.87	1495.02
653.06	1585.13
653.25	1628.14
653.44	1552.36
653.62	1566.70
653.81	1595.37
654.00	1525.74
654.19	1650.66
654.38	1601.51
654.56	1609.70
654.75	1497.07
654.94	1538.02
655.13	1560.55
655.32	1542.12
655.51	1533.93
655.69	1529.83
655.88	1587.18
656.07	1490.92
656.26	1566.70
656.45	1476.59
656.63	1546.22
656.82	1554.41
657.01	1570.79
657.20	1486.83
657.38	1652.71
657.57	1558.50
657.76	1529.83
657.95	1548.26
658.14	1449.96
658.32	1515.50
658.51	1509.35
658.70	1574.89
658.89	1548.26
659.08	1548.26
659.26	1703.91
659.45	1554.41
659.64	1603.56
659.83	1538.02
660.01	1771.49
660.20	1587.18
660.39	1779.68
660.58	1499.11
660.76	1632.23
660.95	1505.26
661.14	1560.55
661.33	1497.07
661.51	1566.70
661.70	1517.54
661.89	1499.11
662.08	1566.70
662.26	1525.74
662.45	1542.12
662.64	1648.61
662.83	1546.22
663.01	1521.64
663.20	1511.40
663.39	1611.75
663.58	1546.22
663.76	1578.98
663.95	1519.59
664.14	1550.31
664.32	1482.73
664.51	1462.25
664.70	1460.20
664.89	1619.94
665.07	1527.78
665.26	1558.50
665.45	1476.59
665.64	1587.18
665.82	1603.56
666.01	1560.55
666.20	1511.40
666.38	1628.14
666.57	1615.85
666.76	1794.02
666.95	2893.78
667.13	7495.57
667.32	15386.39
667.51	20145.87
667.69	23500.44
667.88	25132.67
668.07	22130.35
668.25	15576.85
668.44	12525.38
668.63	9928.55
668.81	8750.97
669.00	7743.37
669.19	7151.51
669.38	6301.60
669.56	5783.46
669.75	4726.71
669.94	4161.47
670.12	3454.92
670.31	2813.91
670.50	2430.94
670.68	2154.46
670.87	1918.95
671.06	1734.63
671.24	1738.73
671.43	1765.35
671.62	1675.24
671.80	1597.42
671.99	1615.85
672.18	1562.60
672.36	1699.81
672.55	1591.27
672.74	1554.41
672.92	1576.94
673.11	1601.51
673.29	1564.65
673.48	1583.08
673.67	1503.21
673.85	1626.09
674.04	1638.38
674.23	1544.17
674.41	1671.14
674.60	1560.55
674.79	1435.63
674.97	1642.47
675.16	1558.50
675.34	1638.38
675.53	1603.56
675.72	1507.30
675.90	1607.66
676.09	1538.02
676.28	1562.60
676.46	1503.21
676.65	1554.41
676.83	1509.35
677.02	1531.88
677.21	1560.55
677.39	1595.37
677.58	1488.87
677.77	1587.18
677.95	1552.36
678.14	1533.93
678.32	1566.70
678.51	1558.50
678.70	1626.09
678.88	1546.22
679.07	1546.22
679.25	1515.50
679.44	1484.78
679.63	1550.31
679.81	1525.74
680.00	1593.32
680.18	1535.98
680.37	1628.14
680.55	1562.60
680.74	1454.06
680.93	1476.59
681.11	1527.78
681.30	1478.63
681.48	1531.88
681.67	1531.88
681.85	1558.50
682.04	1478.63
682.23	1607.66
682.41	1492.97
682.60	1531.88
682.78	1523.69
682.97	1556.46
683.15	1519.59
683.34	1507.30
683.53	1509.35
683.71	1468.39
683.90	1540.07
684.08	1648.61
684.27	1511.40
684.45	1593.32
684.64	1646.57
684.82	1533.93
685.01	1599.46
685.19	1507.30
685.38	1601.51
685.57	1560.55
685.75	1490.92
685.94	1427.43
686.12	1523.69
686.31	1359.85
686.49	1665.00
686.68	1462.25
686.86	1546.22
687.05	1593.32
687.23	1574.89
687.42	1417.19
687.60	1445.87
687.79	1552.36
687.97	1593.32
688.16	1595.37
688.34	1581.03
688.53	1533.93
688.71	1527.78
688.90	1566.70
689.08	1568.74
689.27	1486.83
689.45	1527.78
689.64	1572.84
689.82	1591.27
690.01	1642.47
690.19	1529.83
690.38	1441.77
690.56	1585.13
690.75	1478.63
690.93	1566.70
691.12	1499.11
691.30	1607.66
691.49	1521.64
691.67	1601.51
691.86	1576.94
692.04	1564.65
692.23	1613.80
692.41	1640.42
692.60	1716.20
692.78	1640.42
692.97	1558.50
693.15	1572.84
693.34	1660.90
693.52	1671.14
693.71	1593.32
693.89	1511.40
694.08	1515.50
694.26	1558.50
694.44	1593.32
694.63	1648.61
694.81	1505.26
695.00	1515.50
695.18	1607.66
695.37	1650.66
695.55	1560.55
695.74	1507.30
695.92	1474.54
696.10	1556.46
696.29	1568.74
696.47	1544.17
696.66	1476.59
696.84	1517.54
697.03	1527.78
697.21	1648.61
697.40	2035.68
697.58	1591.27
697.76	1552.36
697.95	1374.19
698.13	1492.97
698.32	1554.41
698.50	1552.36
698.68	1583.08
698.87	1591.27
699.05	1673.19
699.24	1517.54
699.42	1443.82
699.61	1576.94
699.79	1513.45
699.97	1552.36
700.16	1478.63
700.34	1523.69
700.53	1607.66
700.71	1568.74
700.89	1556.46
701.08	1554.41
701.26	1556.46
701.45	1898.47
701.63	1550.31
701.81	1529.83
702.00	1587.18
702.18	1578.98
702.37	1568.74
702.55	1585.13
702.73	1757.16
702.92	1671.14
703.10	1832.93
703.28	1779.68
703.47	1675.24
703.65	1724.39
703.84	1744.87
704.02	1572.84
704.20	1648.61
704.39	1607.66
704.57	1665.00
704.75	1630.18
704.94	1628.14
705.12	1564.65
705.30	1607.66
705.49	1867.75
705.67	2772.95
705.86	7262.10
706.04	14415.65
706.22	18480.87
706.41	21388.99
706.59	22951.59
706.77	20780.74
706.96	14823.20
707.14	11470.67
707.32	9961.32
707.51	8673.15
707.69	7614.35
707.87	6514.59
708.06	5863.33
708.24	4734.90
708.42	3680.20
708.61	3039.19
708.79	2176.99
708.97	2080.74
709.16	1873.89
709.34	1755.11
709.52	1560.55
709.71	1640.42
709.89	1628.14
710.07	1626.09
710.26	1609.70
710.44	1572.84
710.62	1576.94
710.80	1574.89
710.99	1611.75
711.17	1609.70
711.35	1480.68
711.54	1560.55
711.72	1708.01
711.90	1601.51
712.09	1560.55
712.27	1507.30
712.45	1583.08
712.63	1501.16
712.82	1492.97
713.00	1554.41
713.18	1576.94
713.37	1538.02
713.55	1564.65
713.73	1505.26
713.91	1585.13
714.10	1507.30
714.28	1548.26
714.46	1499.11
714.65	1529.83
714.83	1535.98
715.01	1544.17
715.19	1486.83
715.38	1550.31
715.56	1515.50
715.74	1538.02
715.92	1533.93
716.11	1617.90
716.29	1435.63
716.47	1540.07
716.65	1507.30
716.84	1486.83
717.02	1568.74
717.20	1484.78
717.38	1466.35
717.57	1552.36
717.75	1515.50
717.93	1607.66
718.11	1587.18
718.30	1458.15
718.48	1554.41
718.66	1613.80
718.84	1601.51
719.03	1568.74
719.21	1501.16
719.39	1640.42
719.57	1560.55
719.75	1675.24
719.94	1560.55
720.12	1505.26
720.30	1562.60
720.48	1619.94
720.67	1615.85
720.85	1421.29
721.03	1525.74
721.21	1501.16
721.39	1607.66
721.58	1507.30
721.76	1472.49
721.94	1599.46
722.12	1562.60
722.30	1615.85
722.49	1548.26
722.67	1503.21
722.85	1544.17
723.03	1517.54
723.21	1490.92
723.40	1538.02
723.58	1576.94
723.76	1490.92
723.94	1560.55
724.12	1603.56
724.30	1628.14
724.49	1564.65
724.67	1562.60
724.85	1693.67
725.03	1595.37
725.21	1638.38
725.40	1679.33
725.58	1558.50
725.76	1615.85
725.94	1556.46
726.12	1480.68
726.30	1558.50
726.49	1593.32
726.67	1470.44
726.85	1583.08
727.03	1650.66
727.21	1691.62
727.39	2162.66
727.57	3196.88
727.76	4229.06
727.94	4816.82
728.12	5140.40
728.30	5121.97
728.48	4214.72
728.66	3461.07
728.84	3243.98
729.03	2893.78
729.21	2623.45
729.39	2250.72
729.57	2039.78
729.75	1791.97
729.93	1855.46
730.11	1634.28
730.30	1607.66
730.48	1550.31
730.66	1642.47
730.84	1599.46
731.02	1568.74
731.20	1599.46
731.38	1585.13
731.56	1529.83
731.74	1523.69
731.93	1601.51
732.11	1566.70
732.29	1527.78
732.47	1550.31
732.65	1554.41
732.83	1529.83
733.01	1521.64
733.19	1480.68
733.37	1558.50
733.56	1560.55
733.74	1533.93
733.92	1615.85
734.10	1544.17
734.28	1601.51
734.46	1445.87
734.64	1550.31
734.82	1566.70
735.00	1476.59
735.18	1599.46
735.36	1597.42
735.54	1546.22
735.73	1501.16
735.91	1542.12
736.09	1619.94
736.27	1533.93
736.45	1581.03
736.63	1433.58
736.81	1560.55
736.99	1587.18
737.17	1560.55
737.35	1460.20
737.53	1587.18
737.71	1525.74
737.89	1576.94
738.07	1468.39
738.25	1533.93
738.43	1431.53
738.61	1501.16
738.80	1535.98
738.98	1468.39
739.16	1503.21
739.34	1554.41
739.52	1634.28
739.70	1626.09
739.88	1527.78
740.06	1503.21
740.24	1476.59
740.42	1558.50
740.60	1501.16
740.78	1492.97
740.96	1439.72
741.14	1538.02
741.32	1527.78
741.50	1495.02
741.68	1599.46
741.86	1550.31
742.04	1533.93
742.22	1482.73
742.40	1611.75
742.58	1519.59
742.76	1529.83
742.94	1562.60
743.12	1474.54
743.30	1525.74
743.48	1548.26
743.66	1546.22
743.84	1576.94
744.02	1523.69
744.20	1521.64
744.38	1499.11
744.56	1529.83
744.74	1540.07
744.92	1544.17
745.10	1611.75
745.28	1480.68
745.46	1617.90
745.64	1535.98
745.82	1501.16
746.00	1544.17
746.18	1570.79
746.36	1499.11
746.54	1509.35
746.72	1554.41
746.90	1515.50
747.08	1585.13
747.26	1550.31
747.44	1609.70
747.62	1568.74
747.80	1542.12
747.98	1595.37
748.15	1605.61
748.33	1568.74
748.51	1558.50
748.69	1576.94
748.87	1531.88
749.05	1632.23
749.23	1581.03
749.41	1531.88
749.59	1535.98
749.77	1538.02
749.95	1501.16
750.13	1585.13
750.31	1574.89
750.49	1513.45
750.67	1501.16
750.85	1613.80
751.03	1583.08
751.20	1593.32
751.38	1550.31
751.56	1476.59
751.74	1595.37
751.92	1492.97
752.10	1470.44
752.28	1544.17
752.46	1529.83
752.64	1589.22
752.82	1511.40
753.00	1562.60
753.18	1593.32
753.35	1552.36
753.53	1560.55
753.71	1617.90
753.89	1460.20
754.07	1560.55
754.25	1486.83
754.43	1540.07
754.61	1511.40
754.79	1535.98
754.97	1558.50
755.14	1595.37
755.32	1441.77
755.50	1529.83
755.68	1550.31
755.86	1523.69
756.04	1431.53
756.22	1505.26
756.40	1464.30
756.57	1574.89
756.75	1497.07
756.93	1599.46
757.11	1552.36
757.29	1544.17
757.47	1525.74
757.65	1404.91
757.82	1445.87
758.00	1456.11
758.18	1550.31
758.36	1497.07
758.54	1648.61
758.72	1466.35
758.90	1624.04
759.07	1554.41
759.25	1482.73
759.43	1529.83
759.61	1544.17
759.79	1912.80
759.97	1499.11
760.15	1519.59
760.32	1505.26
760.50	1484.78
760.68	1597.42
760.86	1517.54
761.04	1581.03
761.22	1552.36
761.39	1574.89
761.57	1527.78
761.75	1523.69
761.93	1535.98
762.11	1497.07
762.28	1568.74
762.46	1540.07
762.64	1624.04
762.82	1466.35
763.00	1449.96
763.18	1619.94
763.35	1499.11
763.53	1503.21
763.71	1619.94
763.89	1535.98
764.07	1585.13
764.24	1566.70
764.42	1566.70
764.60	1511.40
764.78	1470.44
764.96	1542.12
765.13	1576.94
765.31	1535.98
765.49	1617.90
765.67	1542.12
765.84	1503.21
766.02	1462.25
766.20	1482.73
766.38	1488.87
766.56	1591.27
766.73	1525.74
766.91	1546.22
767.09	1570.79
767.27	1523.69
767.44	1509.35
767.62	1562.60
767.80	1562.60
767.98	1511.40
768.15	1468.39
768.33	1525.74
768.51	1531.88
768.69	1566.70
768.87	1552.36
769.04	1476.59
769.22	1546.22
769.40	1558.50
769.58	1718.25
769.75	1585.13
769.93	1617.90
770.11	1603.56
770.28	1544.17
770.46	1632.23
770.64	1540.07
770.82	1509.35
770.99	1552.36
771.17	1564.65
771.35	1550.31
771.53	1503.21
771.70	1560.55
771.88	1646.57
772.06	1542.12
772.23	1527.78
772.41	1552.36
772.59	1538.02
772.77	1505.26
772.94	1505.26
773.12	1558.50
773.30	1521.64
773.47	1585.13
773.65	1535.98
773.83	1585.13
774.01	1540.07
774.18	1490.92
774.36	1538.02
774.54	1495.02
774.71	1542.12
774.89	1505.26
775.07	1435.63
775.24	1480.68
775.42	1474.54
775.60	1597.42
775.78	1542.12
775.95	1470.44
776.13	1503.21
776.31	1476.59
776.48	1564.65
776.66	1669.09
776.84	1515.50
777.01	1546.22
777.19	1519.59
777.37	1527.78
777.54	1578.98
777.72	1724.39
777.90	1509.35
778.07	1499.11
778.25	1685.48
778.43	1607.66
778.60	1497.07
778.78	1621.99
778.96	1597.42
779.13	1495.02
779.31	1611.75
779.49	1544.17
779.66	1581.03
779.84	1632.23
780.01	1589.22
780.19	1550.31
780.37	1644.52
780.54	1611.75
780.72	1511.40
780.90	1581.03
781.07	1470.44
781.25	1437.67
781.43	1550.31
781.60	1525.74
781.78	1548.26
781.95	1476.59
782.13	1548.26
782.31	1523.69
782.48	1398.76
782.66	1587.18
782.83	1593.32
783.01	1499.11
783.19	1599.46
783.36	1564.65
783.54	1464.30
783.72	1546.22
783.89	1568.74
784.07	1501.16
784.24	1529.83
784.42	1617.90
784.60	1544.17
784.77	1521.64
784.95	1439.72
785.12	1550.31
785.30	1591.27
785.47	1462.25
785.65	1499.11
785.83	1439.72
786.00	1566.70
786.18	1570.79
786.35	1490.92
786.53	1468.39
786.71	1556.46
786.88	1472.49
787.06	1486.83
787.23	1533.93
787.41	1521.64
787.58	1550.31
787.76	1521.64
787.94	1533.93
788.11	1576.94
788.29	1517.54
788.46	1497.07
788.64	1398.76
788.81	1490.92
788.99	1495.02
789.16	1507.30
789.34	1562.60
789.52	1505.26
789.69	1488.87
789.87	1421.29
790.04	1517.54
790.22	1542.12
790.39	1601.51
790.57	1460.20
790.74	1495.02
790.92	1617.90
791.09	1501.16
791.27	1513.45
791.44	1560.55
791.62	1447.91
791.79	1640.42
791.97	1562.60
792.15	1714.15
792.32	1652.71
792.50	1615.85
792.67	1617.90
792.85	1529.83
793.02	1490.92
793.20	1460.20
793.37	1550.31
793.55	1505.26
793.72	1503.21
793.90	1490.92
794.07	1484.78
794.25	1466.35
794.42	1529.83
794.60	1527.78
794.77	1501.16
794.95	1615.85
795.12	1601.51
795.30	1560.55
795.47	1542.12
795.65	1691.62
795.82	1443.82
796.00	1511.40
796.17	1480.68
796.34	1480.68
796.52	1568.74
796.69	1609.70
796.87	1683.43
797.04	1591.27
797.22	1556.46
797.39	1554.41
797.57	1505.26
797.74	1523.69
797.92	1458.15
798.09	1613.80
798.27	1509.35
798.44	1521.64
798.62	1540.07
798.79	1566.70
798.96	1519.59
799.14	1601.51
799.31	1564.65
799.49	1478.63
799.66	1525.74
799.84	1572.84
800.01	1486.83
800.19	1560.55
800.36	1509.35
800.53	1503.21
800.71	1511.40
800.88	1595.37
801.06	1544.17
801.23	1517.54
801.41	1562.60
801.58	1486.83
801.75	1501.16
801.93	1564.65
802.10	1482.73
802.28	1525.74
802.45	1468.39
802.63	1533.93
802.80	1599.46
802.97	1497.07
803.15	1583.08
803.32	1517.54
803.50	1542.12
803.67	1556.46
803.84	1443.82
804.02	1578.98
804.19	1472.49
804.37	1495.02
804.54	1492.97
804.71	1593.32
804.89	1533.93
805.06	1495.02
805.24	1525.74
805.41	1540.07
805.58	1515.50
805.76	1597.42
805.93	1505.26
806.10	1523.69
806.28	1542.12
806.45	1595.37
806.63	1560.55
806.80	1615.85
806.97	1595.37
807.15	1492.97
807.32	1568.74
807.49	1503.21
807.67	1492.97
807.84	1609.70
808.01	1476.59
808.19	1652.71
808.36	1591.27
808.54	1495.02
808.71	1513.45
808.88	1542.12
809.06	1542.12
809.23	1591.27
809.40	1523.69
809.58	1562.60
809.75	1550.31
809.92	1441.77
810.10	1576.94
810.27	1626.09
810.44	1513.45
810.62	1556.46
810.79	1550.31
810.96	1527.78
811.14	1562.60
811.31	1495.02
811.48	1566.70
811.66	1517.54
811.83	1527.78
812.00	1538.02
812.18	1613.80
812.35	1560.55
812.52	1503.21
812.69	1609.70
812.87	1499.11
813.04	1505.26
813.21	1503.21
813.39	1562.60
813.56	1517.54
813.73	1511.40
813.91	1402.86
814.08	1589.22
814.25	1505.26
814.42	1492.97
814.60	1472.49
814.77	1581.03
814.94	1540.07
815.12	1562.60
815.29	1581.03
815.46	1533.93
815.63	1533.93
815.81	1519.59
815.98	1558.50
816.15	1513.45
816.33	1497.07
816.50	1558.50
816.67	1593.32
816.84	1525.74
817.02	1501.16
817.19	1519.59
817.36	1499.11
817.53	1558.50
817.71	1433.58
817.88	1601.51
818.05	1595.37
818.22	1476.59
818.40	1619.94
818.57	1472.49
818.74	1499.11
818.91	1488.87
819.09	1542.12
819.26	1525.74
819.43	1476.59
819.60	1523.69
819.78	1576.94
819.95	1599.46
820.12	1472.49
820.29	1597.42
820.47	1572.84
820.64	1560.55
820.81	1478.63
820.98	1476.59
821.15	1511.40
821.33	1638.38
821.50	1466.35
821.67	1525.74
821.84	1435.63
822.02	1468.39
822.19	1615.85
822.36	1529.83
822.53	1542.12
822.70	1544.17
822.88	1460.20
823.05	1576.94
823.22	1576.94
823.39	1511.40
823.56	1540.07
823.74	1628.14
823.91	1456.11
824.08	1527.78
824.25	1515.50
824.42	1593.32
824.60	1535.98
824.77	1544.17
824.94	1548.26
825.11	1501.16
825.28	1466.35
825.45	1527.78
825.63	1490.92
825.80	1462.25
825.97	1611.75
826.14	1589.22
826.31	1400.81
826.48	1552.36
826.66	1458.15
826.83	1507.30
827.00	1523.69
827.17	1476.59
827.34	1411.05
827.51	1484.78
827.69	1554.41
827.86	1464.30
828.03	1484.78
828.20	1456.11
828.37	1484.78
828.54	1476.59
828.71	1570.79
828.89	1566.70
829.06	1501.16
829.23	1644.52
829.40	1466.35
829.57	1523.69
829.74	1501.16
829.91	1476.59
830.09	1538.02
830.26	1499.11
830.43	1615.85
830.60	1527.78
830.77	1521.64
830.94	1615.85
831.11	1589.22
831.28	1511.40
831.46	1576.94
831.63	1429.48
831.80	1652.71
831.97	1558.50
832.14	1503.21
832.31	1525.74
832.48	1562.60
832.65	1556.46
832.82	1576.94
832.99	1546.22
833.17	1556.46
833.34	1619.94
833.51	1572.84
833.68	1513.45
833.85	1665.00
834.02	1435.63
834.19	1499.11
834.36	1406.95
834.53	1566.70
834.70	1611.75
834.87	1572.84
835.04	1527.78
835.22	1458.15
835.39	1482.73
835.56	1507.30
835.73	1488.87
835.90	1511.40
836.07	1501.16
836.24	1495.02
836.41	1519.59
836.58	1517.54
836.75	1533.93
836.92	1574.89
837.09	1503.21
837.26	1581.03
837.43	1615.85
837.60	1609.70
837.77	1521.64
837.94	1540.07
838.12	1591.27
838.29	1656.81
838.46	1505.26
838.63	1517.54
838.80	1560.55
838.97	1617.90
839.14	1562.60
839.31	1519.59
839.48	1585.13
839.65	1540.07
839.82	1538.02
839.99	1527.78
840.16	1550.31
840.33	1507.30
840.50	1511.40
840.67	1492.97
840.84	1476.59
841.01	1570.79
841.18	1495.02
841.35	1503.21
841.52	1531.88
841.69	1566.70
841.86	1509.35
842.03	1566.70
842.20	1585.13
842.37	1509.35
842.54	1550.31
842.71	1503.21
842.88	1488.87
843.05	1617.90
843.22	1525.74
843.39	1607.66
843.56	1507.30
843.73	1525.74
843.90	1529.83
844.07	1589.22
844.24	1624.04
844.41	1529.83
844.58	1533.93
844.75	1562.60
844.92	1576.94
845.09	1515.50
845.26	1492.97
845.43	1615.85
845.60	1511.40
845.77	1554.41
845.94	1480.68
846.10	1597.42
846.27	1462.25
846.44	1527.78
846.61	1527.78
846.78	1617.90
846.95	1574.89
847.12	1490.92
847.29	1544.17
847.46	1425.39
847.63	1568.74
847.80	1511.40
847.97	1560.55
848.14	1570.79
848.31	1464.30
848.48	1529.83
848.65	1585.13
848.82	1540.07
848.98	1685.48
849.15	1544.17
849.32	1601.51
849.49	1581.03
849.66	1466.35
849.83	1542.12
850.00	1515.50
850.17	1591.27
850.34	1482.73
850.51	1556.46
850.68	1480.68
850.85	1609.70
851.01	1554.41
851.18	1587.18
851.35	1499.11
851.52	1556.46
851.69	1611.75
851.86	1474.54
852.03	1540.07
852.20	1574.89
852.37	1560.55
852.53	1443.82
852.70	1550.31
852.87	1486.83
853.04	1630.18
853.21	1527.78
853.38	1533.93
853.55	1605.61
853.72	1572.84
853.89	1441.77
854.05	1542.12
854.22	1603.56
854.39	1574.89
854.56	1568.74
854.73	1515.50
854.90	1562.60
855.07	1509.35
855.23	1548.26
855.40	1503.21
855.57	1531.88
855.74	1437.67
855.91	1708.01
856.08	1495.02
856.25	1425.39
856.41	1525.74
856.58	1527.78
856.75	1546.22
856.92	1478.63
857.09	1591.27
857.26	1488.87
857.42	1521.64
857.59	1548.26
857.76	1515.50
857.93	1564.65
858.10	1529.83
858.27	1509.35
858.43	1521.64
858.60	1484.78
858.77	1441.77
858.94	1527.78
859.11	1621.99
859.27	1550.31
859.44	1548.26
859.61	1673.19
859.78	1521.64
859.95	1511.40
860.12	1484.78
860.28	1587.18
860.45	1681.38
860.62	1472.49
860.79	1499.11
860.95	1550.31
861.12	1462.25
861.29	1562.60
861.46	1470.44
861.63	1527.78
861.79	1527.78
861.96	1503.21
862.13	1542.12
862.30	1550.31
862.47	1464.30
862.63	1490.92
862.80	1652.71
862.97	1574.89
863.14	1552.36
863.30	1599.46
863.47	1527.78
863.64	1568.74
863.81	1609.70
863.97	1531.88
864.14	1587.18
864.31	1495.02
864.48	1517.54
864.65	1574.89
864.81	1501.16
864.98	1505.26
865.15	1564.65
865.32	1523.69
865.48	1640.42
865.65	1597.42
865.82	1499.11
865.98	1562.60
866.15	1634.28
866.32	1435.63
866.49	1492.97
866.65	1603.56
866.82	1521.64
866.99	1517.54
867.16	1495.02
867.32	1517.54
867.49	1435.63
867.66	1519.59
867.83	1507.30
867.99	1492.97
868.16	1435.63
868.33	1437.67
868.49	1527.78
868.66	1497.07
868.83	1636.33
868.99	1499.11
869.16	1613.80
869.33	1513.45
869.50	1564.65
869.66	1562.60
869.83	1566.70
870.00	1556.46
870.16	1554.41
870.33	1458.15
870.50	1546.22
870.66	1521.64
870.83	1658.85
871.00	1529.83
871.17	1538.02
871.33	1515.50
871.50	1533.93
871.67	1605.61
871.83	1507.30
872.00	1558.50
872.17	1525.74
872.33	1546.22
872.50	1529.83
872.67	1484.78
872.83	1492.97
873.00	1470.44
873.17	1560.55
873.33	1595.37
873.50	1566.70
873.67	1544.17
873.83	1538.02
874.00	1531.88
874.16	1599.46
874.33	1542.12
874.50	1535.98
874.66	1540.07
874.83	1517.54
875.00	1550.31
875.16	1574.89
875.33	1595.37
875.50	1476.59
875.66	1492.97
875.83	1484.78
875.99	1578.98
876.16	1597.42
876.33	1466.35
876.49	1546.22
876.66	1503.21
876.83	1509.35
876.99	1482.73
877.16	1533.93
877.32	1476.59
877.49	1499.11
877.66	1519.59
877.82	1554.41
877.99	1515.50
878.15	1554.41
878.32	1521.64
878.49	1607.66
878.65	1603.56
878.82	1597.42
878.98	1488.87
879.15	1546.22
879.32	1624.04
879.48	1519.59
879.65	1525.74
879.81	1464.30
879.98	1519.59
880.15	1466.35
880.31	1566.70
880.48	1517.54
880.64	1568.74
880.81	1517.54
880.97	1531.88
881.14	1501.16
881.31	1484.78
881.47	1558.50
881.64	1624.04
881.80	1542.12
881.97	1570.79
882.13	1591.27
882.30	1460.20
882.47	1505.26
882.63	1509.35
882.80	1542.12
882.96	1462.25
883.13	1671.14
883.29	1486.83
883.46	1470.44
883.62	1615.85
883.79	1517.54
883.95	1535.98
884.12	1533.93
884.29	1523.69
884.45	1544.17
884.62	1558.50
884.78	1533.93
884.95	1615.85
885.11	1519.59
885.28	1607.66
885.44	1429.48
885.61	1544.17
885.77	1566.70
885.94	1597.42
886.10	1544.17
886.27	1521.64
886.43	1587.18
886.60	1535.98
886.76	1507.30
886.93	1521.64
887.09	1531.88
887.26	1425.39
887.42	1568.74
887.59	1523.69
887.75	1621.99
887.92	1519.59
888.08	1621.99
888.25	1646.57
888.41	1550.31
888.58	1464.30
888.74	1566.70
888.91	1484.78
>>>>>End Processed Spectral Data<<<<<
