SpectraSuite Data File
++++++++++++++++++++++++++++++++++++
Date: Tue May 03 12:55:13 CEST 2016
User: root
Dark Spectrum Present: No
Reference Spectrum Present: No
Number of Sampled Component Spectra: 1
Spectrometers: USB4C02835
Integration Time (usec): 100000 (USB4C02835)
Spectra Averaged: 1 (USB4C02835)
Boxcar Smoothing: 0 (USB4C02835)
Correct for Electrical Dark: No (USB4C02835)
Strobe/Lamp Enabled: No (USB4C02835)
Correct for Detector Non-linearity: No (USB4C02835)
Correct for Stray Light: No (USB4C02835)
Number of Pixels in Processed Spectrum: 3648
>>>>>Begin Processed Spectral Data<<<<<
177.47	1359.85
177.69	1359.85
177.91	1359.85
178.13	1384.43
178.36	1394.67
178.58	1503.21
178.80	1523.69
179.02	1486.83
179.24	1566.70
179.46	1583.08
179.68	1583.08
179.90	1540.07
180.13	1525.74
180.35	1550.31
180.57	1546.22
180.79	1560.55
181.01	1525.74
181.23	1636.33
181.45	1617.90
181.67	1597.42
181.90	1611.75
182.12	1591.27
182.34	1497.07
182.56	1624.04
182.78	1564.65
183.00	1597.42
183.22	1495.02
183.44	1449.96
183.66	1681.38
183.89	1617.90
184.11	1492.97
184.33	1519.59
184.55	1626.09
184.77	1560.55
184.99	1581.03
185.21	1468.39
185.43	1638.38
185.65	1509.35
185.87	1509.35
186.10	1667.05
186.32	1593.32
186.54	1595.37
186.76	1511.40
186.98	1562.60
187.20	1560.55
187.42	1497.07
187.64	1503.21
187.86	1578.98
188.08	1570.79
188.30	1540.07
188.52	1437.67
188.75	1570.79
188.97	1550.31
189.19	1501.16
189.41	1546.22
189.63	1607.66
189.85	1554.41
190.07	1507.30
190.29	1542.12
190.51	1617.90
190.73	1490.92
190.95	1544.17
191.17	1552.36
191.39	1456.11
191.61	1603.56
191.84	1535.98
192.06	1550.31
192.28	1517.54
192.50	1650.66
192.72	1587.18
192.94	1583.08
193.16	1525.74
193.38	1533.93
193.60	1429.48
193.82	1419.24
194.04	1568.74
194.26	1595.37
194.48	1476.59
194.70	1572.84
194.92	1511.40
195.14	1626.09
195.36	1540.07
195.58	1542.12
195.80	1519.59
196.02	1515.50
196.24	1546.22
196.46	1564.65
196.69	1511.40
196.91	1640.42
197.13	1472.49
197.35	1425.39
197.57	1591.27
197.79	1538.02
198.01	1546.22
198.23	1560.55
198.45	1576.94
198.67	1570.79
198.89	1589.22
199.11	1570.79
199.33	1474.54
199.55	1466.35
199.77	1548.26
199.99	1554.41
200.21	1476.59
200.43	1562.60
200.65	1513.45
200.87	1433.58
201.09	1552.36
201.31	1495.02
201.53	1583.08
201.75	1525.74
201.97	1533.93
202.19	1533.93
202.41	1585.13
202.63	1656.81
202.85	1570.79
203.07	1525.74
203.29	1533.93
203.51	1552.36
203.73	1415.15
203.95	1572.84
204.17	1576.94
204.39	1513.45
204.61	1546.22
204.83	1517.54
205.05	1533.93
205.27	1595.37
205.49	1638.38
205.71	1523.69
205.93	1464.30
206.15	1519.59
206.37	1562.60
206.59	1501.16
206.81	1507.30
207.03	1474.54
207.25	1499.11
207.47	1548.26
207.69	1517.54
207.91	1509.35
208.13	1560.55
208.34	1535.98
208.56	1513.45
208.78	1550.31
209.00	1507.30
209.22	1427.43
209.44	1578.98
209.66	1495.02
209.88	1519.59
210.10	1585.13
210.32	1505.26
210.54	1603.56
210.76	1550.31
210.98	1492.97
211.20	1509.35
211.42	1505.26
211.64	1546.22
211.86	1611.75
212.08	1509.35
212.30	1507.30
212.52	1513.45
212.74	1515.50
212.96	1601.51
213.17	1615.85
213.39	1470.44
213.61	1552.36
213.83	1611.75
214.05	1460.20
214.27	1568.74
214.49	1542.12
214.71	1460.20
214.93	1681.38
215.15	1546.22
215.37	1517.54
215.59	1523.69
215.81	1497.07
216.03	1544.17
216.24	1499.11
216.46	1531.88
216.68	1533.93
216.90	1507.30
217.12	1548.26
217.34	1656.81
217.56	1574.89
217.78	1574.89
218.00	1615.85
218.22	1527.78
218.44	1456.11
218.66	1519.59
218.87	1638.38
219.09	1550.31
219.31	1572.84
219.53	1542.12
219.75	1464.30
219.97	1476.59
220.19	1593.32
220.41	1523.69
220.63	1533.93
220.85	1595.37
221.06	1495.02
221.28	1574.89
221.50	1531.88
221.72	1517.54
221.94	1515.50
222.16	1527.78
222.38	1576.94
222.60	1527.78
222.82	1505.26
223.03	1568.74
223.25	1452.01
223.47	1646.57
223.69	1591.27
223.91	1564.65
224.13	1501.16
224.35	1470.44
224.57	1601.51
224.78	1562.60
225.00	1544.17
225.22	1474.54
225.44	1529.83
225.66	1535.98
225.88	1443.82
226.10	1619.94
226.32	1552.36
226.53	1550.31
226.75	1574.89
226.97	1581.03
227.19	1527.78
227.41	1527.78
227.63	1525.74
227.85	1558.50
228.06	1576.94
228.28	1564.65
228.50	1599.46
228.72	1431.53
228.94	1544.17
229.16	1427.43
229.37	1464.30
229.59	1501.16
229.81	1621.99
230.03	1507.30
230.25	1490.92
230.47	1548.26
230.69	1511.40
230.90	1619.94
231.12	1527.78
231.34	1548.26
231.56	1595.37
231.78	1480.68
232.00	1488.87
232.21	1482.73
232.43	1449.96
232.65	1519.59
232.87	1552.36
233.09	1490.92
233.30	1492.97
233.52	1708.01
233.74	1529.83
233.96	1523.69
234.18	1511.40
234.40	1513.45
234.61	1599.46
234.83	1525.74
235.05	1480.68
235.27	1636.33
235.49	1576.94
235.70	1519.59
235.92	1558.50
236.14	1576.94
236.36	1685.48
236.58	1480.68
236.79	1662.95
237.01	1607.66
237.23	1456.11
237.45	1628.14
237.67	1517.54
237.88	1562.60
238.10	1607.66
238.32	1495.02
238.54	1546.22
238.76	1562.60
238.97	1490.92
239.19	1515.50
239.41	1572.84
239.63	1578.98
239.85	1519.59
240.06	1540.07
240.28	1566.70
240.50	1540.07
240.72	1538.02
240.93	1568.74
241.15	1578.98
241.37	1474.54
241.59	1576.94
241.81	1591.27
242.02	1519.59
242.24	1462.25
242.46	1585.13
242.68	1568.74
242.89	1603.56
243.11	1533.93
243.33	1501.16
243.55	1603.56
243.76	1648.61
243.98	1550.31
244.20	1591.27
244.42	1495.02
244.64	1597.42
244.85	1507.30
245.07	1531.88
245.29	1632.23
245.51	1488.87
245.72	1521.64
245.94	1632.23
246.16	1552.36
246.38	1511.40
246.59	1505.26
246.81	1544.17
247.03	1533.93
247.24	1470.44
247.46	1519.59
247.68	1550.31
247.90	1509.35
248.11	1501.16
248.33	1511.40
248.55	1474.54
248.77	1558.50
248.98	1599.46
249.20	1544.17
249.42	1499.11
249.64	1482.73
249.85	1527.78
250.07	1519.59
250.29	1581.03
250.50	1574.89
250.72	1476.59
250.94	1548.26
251.16	1667.05
251.37	1566.70
251.59	1523.69
251.81	1593.32
252.02	1533.93
252.24	1415.15
252.46	1593.32
252.68	1523.69
252.89	1492.97
253.11	1482.73
253.33	1599.46
253.54	1619.94
253.76	1429.48
253.98	1527.78
254.20	1529.83
254.41	1507.30
254.63	1572.84
254.85	1554.41
255.06	1560.55
255.28	1482.73
255.50	1486.83
255.71	1484.78
255.93	1542.12
256.15	1562.60
256.36	1515.50
256.58	1550.31
256.80	1593.32
257.02	1486.83
257.23	1415.15
257.45	1574.89
257.67	1570.79
257.88	1515.50
258.10	1544.17
258.32	1583.08
258.53	1501.16
258.75	1595.37
258.97	1464.30
259.18	1591.27
259.40	1591.27
259.62	1611.75
259.83	1628.14
260.05	1558.50
260.27	1767.40
260.48	1628.14
260.70	1415.15
260.92	1589.22
261.13	1521.64
261.35	1490.92
261.57	1607.66
261.78	1443.82
262.00	1480.68
262.22	1611.75
262.43	1511.40
262.65	1499.11
262.86	1538.02
263.08	1626.09
263.30	1544.17
263.51	1527.78
263.73	1548.26
263.95	1636.33
264.16	1499.11
264.38	1505.26
264.60	1593.32
264.81	1564.65
265.03	1503.21
265.25	1562.60
265.46	1542.12
265.68	1585.13
265.89	1568.74
266.11	1478.63
266.33	1572.84
266.54	1552.36
266.76	1619.94
266.98	1525.74
267.19	1583.08
267.41	1527.78
267.62	1525.74
267.84	1603.56
268.06	1544.17
268.27	1550.31
268.49	1624.04
268.70	1572.84
268.92	1511.40
269.14	1552.36
269.35	1466.35
269.57	1548.26
269.79	1552.36
270.00	1458.15
270.22	1613.80
270.43	1556.46
270.65	1413.10
270.87	1523.69
271.08	1578.98
271.30	1564.65
271.51	1576.94
271.73	1499.11
271.95	1658.85
272.16	1519.59
272.38	1476.59
272.59	1474.54
272.81	1484.78
273.02	1574.89
273.24	1619.94
273.46	1554.41
273.67	1423.34
273.89	1558.50
274.10	1548.26
274.32	1556.46
274.54	1517.54
274.75	1552.36
274.97	1533.93
275.18	1578.98
275.40	1546.22
275.61	1568.74
275.83	1495.02
276.05	1421.29
276.26	1486.83
276.48	1521.64
276.69	1505.26
276.91	1497.07
277.12	1583.08
277.34	1546.22
277.55	1513.45
277.77	1517.54
277.99	1490.92
278.20	1562.60
278.42	1472.49
278.63	1511.40
278.85	1552.36
279.06	1503.21
279.28	1542.12
279.49	1587.18
279.71	1607.66
279.93	1501.16
280.14	1542.12
280.36	1499.11
280.57	1630.18
280.79	1587.18
281.00	1517.54
281.22	1515.50
281.43	1595.37
281.65	1429.48
281.86	1447.91
282.08	1513.45
282.29	1634.28
282.51	1445.87
282.73	1517.54
282.94	1423.34
283.16	1583.08
283.37	1697.77
283.59	1509.35
283.80	1550.31
284.02	1548.26
284.23	1540.07
284.45	1509.35
284.66	1495.02
284.88	1560.55
285.09	1558.50
285.31	1587.18
285.52	1554.41
285.74	1462.25
285.95	1556.46
286.17	1542.12
286.38	1490.92
286.60	1558.50
286.81	1509.35
287.03	1552.36
287.24	1509.35
287.46	1484.78
287.67	1525.74
287.89	1671.14
288.10	1585.13
288.32	1554.41
288.53	1572.84
288.75	1513.45
288.96	1556.46
289.18	1568.74
289.39	1550.31
289.61	1587.18
289.82	1560.55
290.04	1621.99
290.25	1554.41
290.47	1527.78
290.68	1480.68
290.90	1632.23
291.11	1521.64
291.33	1619.94
291.54	1462.25
291.76	1511.40
291.97	1535.98
292.18	1560.55
292.40	1544.17
292.61	1511.40
292.83	1587.18
293.04	1587.18
293.26	1507.30
293.47	1490.92
293.69	1509.35
293.90	1632.23
294.12	1538.02
294.33	1531.88
294.55	1564.65
294.76	1552.36
294.97	1597.42
295.19	1558.50
295.40	1484.78
295.62	1511.40
295.83	1525.74
296.05	1454.06
296.26	1540.07
296.48	1509.35
296.69	1476.59
296.90	1615.85
297.12	1572.84
297.33	1540.07
297.55	1499.11
297.76	1581.03
297.98	1605.61
298.19	1552.36
298.41	1538.02
298.62	1433.58
298.83	1593.32
299.05	1538.02
299.26	1433.58
299.48	1503.21
299.69	1576.94
299.90	1587.18
300.12	1505.26
300.33	1587.18
300.55	1464.30
300.76	1523.69
300.98	1495.02
301.19	1558.50
301.40	1523.69
301.62	1519.59
301.83	1482.73
302.05	1583.08
302.26	1538.02
302.47	1540.07
302.69	1435.63
302.90	1585.13
303.12	1515.50
303.33	1591.27
303.54	1658.85
303.76	1560.55
303.97	1495.02
304.19	1591.27
304.40	1466.35
304.61	1570.79
304.83	1632.23
305.04	1691.62
305.26	1540.07
305.47	1525.74
305.68	1470.44
305.90	1476.59
306.11	1529.83
306.33	1546.22
306.54	1550.31
306.75	1501.16
306.97	1425.39
307.18	1578.98
307.39	1501.16
307.61	1572.84
307.82	1484.78
308.04	1495.02
308.25	1572.84
308.46	1642.47
308.68	1593.32
308.89	1511.40
309.10	1533.93
309.32	1492.97
309.53	1501.16
309.74	1535.98
309.96	1523.69
310.17	1605.61
310.39	1535.98
310.60	1607.66
310.81	1509.35
311.03	1486.83
311.24	1581.03
311.45	1501.16
311.67	1628.14
311.88	1533.93
312.09	1519.59
312.31	1495.02
312.52	1517.54
312.73	1497.07
312.95	1531.88
313.16	1484.78
313.37	1617.90
313.59	1454.06
313.80	1529.83
314.01	1624.04
314.23	1499.11
314.44	1546.22
314.65	1484.78
314.87	1472.49
315.08	1447.91
315.29	1474.54
315.51	1480.68
315.72	1447.91
315.93	1583.08
316.15	1605.61
316.36	1509.35
316.57	1542.12
316.79	1562.60
317.00	1464.30
317.21	1554.41
317.43	1484.78
317.64	1499.11
317.85	1499.11
318.07	1525.74
318.28	1619.94
318.49	1646.57
318.70	1800.16
318.92	1658.85
319.13	1728.49
319.34	1705.96
319.56	1644.52
319.77	1699.81
319.98	1632.23
320.20	1583.08
320.41	1624.04
320.62	1576.94
320.83	1499.11
321.05	1642.47
321.26	1621.99
321.47	1578.98
321.69	1632.23
321.90	1480.68
322.11	1464.30
322.32	1515.50
322.54	1574.89
322.75	1593.32
322.96	1603.56
323.18	1439.72
323.39	1488.87
323.60	1515.50
323.81	1503.21
324.03	1511.40
324.24	1558.50
324.45	1468.39
324.66	1505.26
324.88	1558.50
325.09	1603.56
325.30	1527.78
325.52	1550.31
325.73	1480.68
325.94	1476.59
326.15	1449.96
326.37	1538.02
326.58	1607.66
326.79	1603.56
327.00	1437.67
327.22	1527.78
327.43	1456.11
327.64	1550.31
327.85	1570.79
328.07	1591.27
328.28	1611.75
328.49	1540.07
328.70	1564.65
328.92	1452.01
329.13	1548.26
329.34	1521.64
329.55	1611.75
329.76	1533.93
329.98	1587.18
330.19	1523.69
330.40	1542.12
330.61	1560.55
330.83	1511.40
331.04	1474.54
331.25	1490.92
331.46	1527.78
331.68	1521.64
331.89	1607.66
332.10	1535.98
332.31	1460.20
332.52	1495.02
332.74	1544.17
332.95	1490.92
333.16	1554.41
333.37	1669.09
333.58	1558.50
333.80	1572.84
334.01	1452.01
334.22	1554.41
334.43	1499.11
334.64	1486.83
334.86	1527.78
335.07	1470.44
335.28	1593.32
335.49	1505.26
335.70	1544.17
335.92	1599.46
336.13	1599.46
336.34	1519.59
336.55	1550.31
336.76	1558.50
336.98	1437.67
337.19	1505.26
337.40	1671.14
337.61	1679.33
337.82	1568.74
338.04	1624.04
338.25	1472.49
338.46	1523.69
338.67	1550.31
338.88	1472.49
339.09	1499.11
339.31	1531.88
339.52	1574.89
339.73	1488.87
339.94	1482.73
340.15	1595.37
340.36	1497.07
340.58	1513.45
340.79	1476.59
341.00	1566.70
341.21	1550.31
341.42	1603.56
341.63	1597.42
341.85	1568.74
342.06	1505.26
342.27	1497.07
342.48	1560.55
342.69	1503.21
342.90	1566.70
343.12	1550.31
343.33	1554.41
343.54	1513.45
343.75	1515.50
343.96	1486.83
344.17	1460.20
344.38	1554.41
344.60	1466.35
344.81	1456.11
345.02	1556.46
345.23	1617.90
345.44	1572.84
345.65	1605.61
345.86	1585.13
346.07	1556.46
346.29	1546.22
346.50	1513.45
346.71	1540.07
346.92	1523.69
347.13	1583.08
347.34	1628.14
347.55	1468.39
347.76	1634.28
347.98	1464.30
348.19	1509.35
348.40	1556.46
348.61	1513.45
348.82	1615.85
349.03	1544.17
349.24	1529.83
349.45	1613.80
349.66	1458.15
349.88	1509.35
350.09	1482.73
350.30	1554.41
350.51	1685.48
350.72	1548.26
350.93	1554.41
351.14	1540.07
351.35	1585.13
351.56	1617.90
351.77	1550.31
351.99	1570.79
352.20	1605.61
352.41	1619.94
352.62	1533.93
352.83	1560.55
353.04	1525.74
353.25	1531.88
353.46	1523.69
353.67	1595.37
353.88	1460.20
354.09	1476.59
354.30	1597.42
354.52	1505.26
354.73	1576.94
354.94	1458.15
355.15	1509.35
355.36	1556.46
355.57	1546.22
355.78	1581.03
355.99	1490.92
356.20	1505.26
356.41	1605.61
356.62	1593.32
356.83	1544.17
357.04	1566.70
357.25	1421.29
357.46	1517.54
357.68	1501.16
357.89	1480.68
358.10	1570.79
358.31	1566.70
358.52	1560.55
358.73	1513.45
358.94	1548.26
359.15	1525.74
359.36	1560.55
359.57	1513.45
359.78	1447.91
359.99	1540.07
360.20	1533.93
360.41	1564.65
360.62	1591.27
360.83	1511.40
361.04	1538.02
361.25	1554.41
361.46	1578.98
361.67	1572.84
361.88	1562.60
362.09	1626.09
362.30	1546.22
362.51	1544.17
362.72	1574.89
362.93	1603.56
363.14	1583.08
363.35	1538.02
363.56	1480.68
363.78	1484.78
363.99	1583.08
364.20	1460.20
364.41	1601.51
364.62	1624.04
364.83	1529.83
365.04	1513.45
365.25	1484.78
365.46	1665.00
365.67	1474.54
365.88	1632.23
366.09	1564.65
366.30	1452.01
366.51	1583.08
366.72	1554.41
366.93	1497.07
367.14	1505.26
367.35	1576.94
367.56	1531.88
367.77	1550.31
367.98	1601.51
368.18	1566.70
368.39	1560.55
368.60	1441.77
368.81	1576.94
369.02	1576.94
369.23	1454.06
369.44	1499.11
369.65	1523.69
369.86	1566.70
370.07	1550.31
370.28	1472.49
370.49	1595.37
370.70	1601.51
370.91	1454.06
371.12	1443.82
371.33	1564.65
371.54	1527.78
371.75	1621.99
371.96	1435.63
372.17	1474.54
372.38	1505.26
372.59	1613.80
372.80	1574.89
373.01	1540.07
373.22	1509.35
373.43	1550.31
373.64	1423.34
373.85	1587.18
374.06	1587.18
374.26	1576.94
374.47	1542.12
374.68	1595.37
374.89	1554.41
375.10	1533.93
375.31	1535.98
375.52	1538.02
375.73	1566.70
375.94	1538.02
376.15	1568.74
376.36	1492.97
376.57	1462.25
376.78	1497.07
376.99	1605.61
377.20	1603.56
377.40	1548.26
377.61	1609.70
377.82	1472.49
378.03	1581.03
378.24	1497.07
378.45	1505.26
378.66	1538.02
378.87	1431.53
379.08	1535.98
379.29	1554.41
379.50	1634.28
379.71	1452.01
379.91	1576.94
380.12	1482.73
380.33	1570.79
380.54	1492.97
380.75	1515.50
380.96	1576.94
381.17	1581.03
381.38	1646.57
381.59	1581.03
381.80	1638.38
382.00	1691.62
382.21	1673.19
382.42	1669.09
382.63	1665.00
382.84	1566.70
383.05	1568.74
383.26	1607.66
383.47	1529.83
383.68	1656.81
383.88	1601.51
384.09	1568.74
384.30	1630.18
384.51	1558.50
384.72	1542.12
384.93	1519.59
385.14	1581.03
385.35	1570.79
385.55	1464.30
385.76	1615.85
385.97	1593.32
386.18	1409.00
386.39	1523.69
386.60	1568.74
386.81	1585.13
387.02	1470.44
387.22	1499.11
387.43	1519.59
387.64	1605.61
387.85	1818.60
388.06	3145.68
388.27	7180.18
388.48	10674.01
388.68	12592.96
388.89	14067.50
389.10	12767.04
389.31	10174.31
389.52	8882.04
389.73	7839.62
389.93	7194.51
390.14	6705.05
390.35	6320.03
390.56	5631.91
390.77	4630.46
390.98	3502.03
391.18	2666.46
391.39	2166.75
391.60	1716.20
391.81	1744.87
392.02	1501.16
392.23	1652.71
392.43	1599.46
392.64	1619.94
392.85	1540.07
393.06	1562.60
393.27	1570.79
393.47	1474.54
393.68	1515.50
393.89	1544.17
394.10	1607.66
394.31	1572.84
394.52	1521.64
394.72	1511.40
394.93	1546.22
395.14	1523.69
395.35	1515.50
395.56	1540.07
395.76	1556.46
395.97	1646.57
396.18	1697.77
396.39	1791.97
396.60	1841.12
396.80	1753.06
397.01	1740.77
397.22	1730.53
397.43	1662.95
397.64	1562.60
397.84	1636.33
398.05	1646.57
398.26	1615.85
398.47	1583.08
398.67	1636.33
398.88	1511.40
399.09	1556.46
399.30	1482.73
399.51	1521.64
399.71	1552.36
399.92	1562.60
400.13	1517.54
400.34	1503.21
400.54	1611.75
400.75	1576.94
400.96	1585.13
401.17	1613.80
401.37	1601.51
401.58	1509.35
401.79	1566.70
402.00	1902.56
402.21	1900.52
402.41	1959.91
402.62	1939.43
402.83	1923.04
403.04	1849.32
403.24	1884.13
403.45	1677.29
403.66	1834.98
403.87	1730.53
404.07	1746.92
404.28	1710.05
404.49	1605.61
404.70	1642.47
404.90	1564.65
405.11	1581.03
405.32	1578.98
405.52	1558.50
405.73	1552.36
405.94	1515.50
406.15	1503.21
406.35	1523.69
406.56	1540.07
406.77	1523.69
406.98	1550.31
407.18	1585.13
407.39	1585.13
407.60	1546.22
407.80	1552.36
408.01	1572.84
408.22	1523.69
408.43	1527.78
408.63	1476.59
408.84	1568.74
409.05	1552.36
409.25	1544.17
409.46	1521.64
409.67	1427.43
409.88	1519.59
410.08	1497.07
410.29	1515.50
410.50	1605.61
410.70	1511.40
410.91	1507.30
411.12	1509.35
411.32	1540.07
411.53	1527.78
411.74	1552.36
411.95	1716.20
412.15	1599.46
412.36	1621.99
412.57	1636.33
412.77	1632.23
412.98	1538.02
413.19	1552.36
413.39	1525.74
413.60	1648.61
413.81	1634.28
414.01	1535.98
414.22	1566.70
414.43	1621.99
414.63	1540.07
414.84	1597.42
415.05	1609.70
415.25	1460.20
415.46	1599.46
415.67	1546.22
415.87	1644.52
416.08	1583.08
416.29	1431.53
416.49	1544.17
416.70	1456.11
416.91	1529.83
417.11	1525.74
417.32	1556.46
417.53	1581.03
417.73	1554.41
417.94	1509.35
418.15	1521.64
418.35	1564.65
418.56	1578.98
418.77	1626.09
418.97	1585.13
419.18	1554.41
419.38	1447.91
419.59	1578.98
419.80	1546.22
420.00	1513.45
420.21	1550.31
420.42	1568.74
420.62	1523.69
420.83	1499.11
421.04	1527.78
421.24	1507.30
421.45	1517.54
421.65	1546.22
421.86	1501.16
422.07	1501.16
422.27	1540.07
422.48	1568.74
422.69	1542.12
422.89	1560.55
423.10	1544.17
423.30	1472.49
423.51	1507.30
423.72	1562.60
423.92	1587.18
424.13	1486.83
424.33	1495.02
424.54	1570.79
424.75	1519.59
424.95	1677.29
425.16	1599.46
425.36	1513.45
425.57	1484.78
425.78	1558.50
425.98	1603.56
426.19	1538.02
426.39	1533.93
426.60	1546.22
426.81	1564.65
427.01	1560.55
427.22	1499.11
427.42	1439.72
427.63	1495.02
427.83	1568.74
428.04	1607.66
428.25	1611.75
428.45	1585.13
428.66	1525.74
428.86	1527.78
429.07	1538.02
429.28	1550.31
429.48	1544.17
429.69	1513.45
429.89	1572.84
430.10	1525.74
430.30	1558.50
430.51	1544.17
430.71	1535.98
430.92	1583.08
431.13	1548.26
431.33	1609.70
431.54	1531.88
431.74	1646.57
431.95	1628.14
432.15	1456.11
432.36	1603.56
432.56	1542.12
432.77	1638.38
432.98	1583.08
433.18	1621.99
433.39	1503.21
433.59	1501.16
433.80	1656.81
434.00	1658.85
434.21	1525.74
434.41	1470.44
434.62	1611.75
434.82	1482.73
435.03	1578.98
435.23	1644.52
435.44	1505.26
435.64	1542.12
435.85	1501.16
436.06	1576.94
436.26	1587.18
436.47	1523.69
436.67	1529.83
436.88	1523.69
437.08	1621.99
437.29	1578.98
437.49	1517.54
437.70	1603.56
437.90	1603.56
438.11	1652.71
438.31	1624.04
438.52	1728.49
438.72	1705.96
438.93	1742.82
439.13	1609.70
439.34	1560.55
439.54	1617.90
439.75	1603.56
439.95	1578.98
440.16	1568.74
440.36	1636.33
440.57	1505.26
440.77	1564.65
440.98	1570.79
441.18	1527.78
441.39	1581.03
441.59	1495.02
441.80	1589.22
442.00	1552.36
442.21	1591.27
442.41	1398.76
442.62	1542.12
442.82	1470.44
443.02	1587.18
443.23	1503.21
443.43	1488.87
443.64	1642.47
443.84	1544.17
444.05	1642.47
444.25	1548.26
444.46	1478.63
444.66	1535.98
444.87	1632.23
445.07	1476.59
445.28	1550.31
445.48	1585.13
445.69	1570.79
445.89	1624.04
446.09	1671.14
446.30	2017.25
446.50	3106.77
446.71	4523.96
446.91	5259.18
447.12	5801.90
447.32	5607.34
447.53	4454.33
447.73	4181.95
447.93	3704.78
448.14	3297.23
448.34	3188.69
448.55	2940.88
448.75	2914.26
448.96	2731.99
449.16	2457.56
449.36	2238.43
449.57	1976.29
449.77	1800.16
449.98	1665.00
450.18	1685.48
450.39	1574.89
450.59	1609.70
450.79	1523.69
451.00	1476.59
451.20	1593.32
451.41	1581.03
451.61	1566.70
451.81	1601.51
452.02	1515.50
452.22	1515.50
452.43	1449.96
452.63	1560.55
452.84	1488.87
453.04	1542.12
453.24	1519.59
453.45	1507.30
453.65	1509.35
453.86	1558.50
454.06	1503.21
454.26	1521.64
454.47	1482.73
454.67	1533.93
454.87	1538.02
455.08	1587.18
455.28	1630.18
455.49	1576.94
455.69	1568.74
455.89	1701.86
456.10	1556.46
456.30	1517.54
456.51	1568.74
456.71	1507.30
456.91	1497.07
457.12	1552.36
457.32	1535.98
457.52	1439.72
457.73	1568.74
457.93	1544.17
458.14	1503.21
458.34	1478.63
458.54	1517.54
458.75	1515.50
458.95	1613.80
459.15	1564.65
459.36	1460.20
459.56	1603.56
459.76	1619.94
459.97	1499.11
460.17	1523.69
460.37	1570.79
460.58	1570.79
460.78	1587.18
460.99	1474.54
461.19	1570.79
461.39	1472.49
461.60	1562.60
461.80	1556.46
462.00	1552.36
462.21	1476.59
462.41	1484.78
462.61	1540.07
462.82	1427.43
463.02	1568.74
463.22	1572.84
463.43	1570.79
463.63	1589.22
463.83	1558.50
464.04	1546.22
464.24	1589.22
464.44	1466.35
464.64	1517.54
464.85	1527.78
465.05	1605.61
465.25	1570.79
465.46	1499.11
465.66	1560.55
465.86	1570.79
466.07	1550.31
466.27	1544.17
466.47	1497.07
466.68	1492.97
466.88	1648.61
467.08	1638.38
467.29	1574.89
467.49	1587.18
467.69	1619.94
467.89	1507.30
468.10	1474.54
468.30	1523.69
468.50	1591.27
468.71	1538.02
468.91	1515.50
469.11	1630.18
469.31	1611.75
469.52	1542.12
469.72	1611.75
469.92	1644.52
470.13	1505.26
470.33	1583.08
470.53	1740.77
470.73	2027.49
470.94	2373.60
471.14	2504.67
471.34	2652.12
471.54	2414.56
471.75	2140.13
471.95	2045.92
472.15	1976.29
472.36	2017.25
472.56	1957.86
472.76	1908.71
472.96	1828.84
473.17	1863.65
473.37	1800.16
473.57	1593.32
473.77	1701.86
473.98	1546.22
474.18	1562.60
474.38	1689.57
474.58	1515.50
474.79	1513.45
474.99	1554.41
475.19	1691.62
475.39	1415.15
475.60	1572.84
475.80	1501.16
476.00	1564.65
476.20	1521.64
476.41	1576.94
476.61	1673.19
476.81	1607.66
477.01	1464.30
477.21	1630.18
477.42	1603.56
477.62	1490.92
477.82	1552.36
478.02	1566.70
478.23	1482.73
478.43	1552.36
478.63	1492.97
478.83	1542.12
479.03	1523.69
479.24	1607.66
479.44	1542.12
479.64	1439.72
479.84	1490.92
480.04	1562.60
480.25	1544.17
480.45	1548.26
480.65	1488.87
480.85	1578.98
481.06	1542.12
481.26	1542.12
481.46	1466.35
481.66	1558.50
481.86	1449.96
482.06	1609.70
482.27	1523.69
482.47	1527.78
482.67	1601.51
482.87	1497.07
483.07	1634.28
483.28	1505.26
483.48	1468.39
483.68	1607.66
483.88	1486.83
484.08	1523.69
484.29	1509.35
484.49	1585.13
484.69	1509.35
484.89	1640.42
485.09	1615.85
485.29	1556.46
485.50	1574.89
485.70	1531.88
485.90	1542.12
486.10	1533.93
486.30	1581.03
486.50	1609.70
486.71	1560.55
486.91	1554.41
487.11	1581.03
487.31	1546.22
487.51	1564.65
487.71	1472.49
487.91	1431.53
488.12	1480.68
488.32	1437.67
488.52	1505.26
488.72	1394.67
488.92	1525.74
489.12	1611.75
489.32	1632.23
489.53	1566.70
489.73	1486.83
489.93	1609.70
490.13	1540.07
490.33	1505.26
490.53	1570.79
490.73	1607.66
490.94	1433.58
491.14	1574.89
491.34	1724.39
491.54	2152.42
491.74	2758.61
491.94	3123.15
492.14	3321.81
492.34	3203.02
492.54	2928.60
492.75	2568.15
492.95	2349.02
493.15	2197.47
493.35	2156.51
493.55	2148.32
493.75	2050.02
493.95	2095.07
494.15	1949.67
494.35	1742.82
494.56	1679.33
494.76	1703.91
494.96	1697.77
495.16	1662.95
495.36	1546.22
495.56	1505.26
495.76	1605.61
495.96	1525.74
496.16	1515.50
496.36	1636.33
496.56	1468.39
496.77	1603.56
496.97	1546.22
497.17	1578.98
497.37	1515.50
497.57	1601.51
497.77	1593.32
497.97	1531.88
498.17	1542.12
498.37	1644.52
498.57	1556.46
498.77	1538.02
498.97	1638.38
499.17	1632.23
499.38	1531.88
499.58	1570.79
499.78	1583.08
499.98	1658.85
500.18	1486.83
500.38	1554.41
500.58	1740.77
500.78	2602.97
500.98	5095.35
501.18	6741.91
501.38	8214.40
501.58	8906.62
501.78	7874.44
501.98	6006.69
502.18	5367.73
502.38	4736.95
502.58	4304.83
502.78	3610.57
502.98	3760.07
503.18	3532.75
503.38	3461.07
503.59	3147.73
503.79	2768.85
503.99	2496.47
504.19	2344.92
504.39	2185.18
504.59	2105.31
504.79	1964.00
504.99	1980.39
505.19	1820.64
505.39	1716.20
505.59	1855.46
505.79	1798.12
505.99	1699.81
506.19	1556.46
506.39	1681.38
506.59	1585.13
506.79	1589.22
506.99	1609.70
507.19	1650.66
507.39	1599.46
507.59	1503.21
507.79	1478.63
507.99	1517.54
508.19	1570.79
508.39	1535.98
508.59	1511.40
508.79	1638.38
508.99	1671.14
509.19	1542.12
509.39	1601.51
509.59	1595.37
509.79	1456.11
509.99	1554.41
510.19	1499.11
510.39	1615.85
510.59	1527.78
510.79	1439.72
510.99	1492.97
511.19	1419.24
511.39	1630.18
511.59	1558.50
511.79	1607.66
511.99	1523.69
512.19	1626.09
512.38	1603.56
512.58	1462.25
512.78	1572.84
512.98	1556.46
513.18	1583.08
513.38	1447.91
513.58	1599.46
513.78	1531.88
513.98	1576.94
514.18	1538.02
514.38	1558.50
514.58	1533.93
514.78	1515.50
514.98	1535.98
515.18	1533.93
515.38	1527.78
515.58	1667.05
515.78	1474.54
515.98	1558.50
516.18	1591.27
516.38	1554.41
516.57	1578.98
516.77	1492.97
516.97	1624.04
517.17	1462.25
517.37	1460.20
517.57	1578.98
517.77	1527.78
517.97	1507.30
518.17	1597.42
518.37	1447.91
518.57	1556.46
518.77	1568.74
518.97	1554.41
519.16	1529.83
519.36	1644.52
519.56	1572.84
519.76	1548.26
519.96	1583.08
520.16	1597.42
520.36	1437.67
520.56	1607.66
520.76	1476.59
520.96	1515.50
521.16	1599.46
521.35	1583.08
521.55	1714.15
521.75	1482.73
521.95	1449.96
522.15	1535.98
522.35	1509.35
522.55	1566.70
522.75	1490.92
522.95	1531.88
523.14	1525.74
523.34	1525.74
523.54	1525.74
523.74	1607.66
523.94	1515.50
524.14	1509.35
524.34	1519.59
524.54	1685.48
524.73	1587.18
524.93	1556.46
525.13	1525.74
525.33	1517.54
525.53	1630.18
525.73	1521.64
525.93	1505.26
526.13	1542.12
526.32	1468.39
526.52	1638.38
526.72	1523.69
526.92	1552.36
527.12	1509.35
527.32	1492.97
527.52	1554.41
527.71	1609.70
527.91	1597.42
528.11	1546.22
528.31	1562.60
528.51	1454.06
528.71	1593.32
528.90	1564.65
529.10	1660.90
529.30	1562.60
529.50	1466.35
529.70	1613.80
529.90	1552.36
530.09	1572.84
530.29	1542.12
530.49	1462.25
530.69	1615.85
530.89	1589.22
531.09	1566.70
531.28	1497.07
531.48	1544.17
531.68	1576.94
531.88	1607.66
532.08	1595.37
532.28	1566.70
532.47	1572.84
532.67	1621.99
532.87	1607.66
533.07	1484.78
533.27	1646.57
533.46	1570.79
533.66	1554.41
533.86	1583.08
534.06	1517.54
534.26	1554.41
534.45	1558.50
534.65	1638.38
534.85	1599.46
535.05	1505.26
535.25	1578.98
535.44	1495.02
535.64	1546.22
535.84	1486.83
536.04	1501.16
536.24	1472.49
536.43	1464.30
536.63	1521.64
536.83	1538.02
537.03	1587.18
537.22	1458.15
537.42	1484.78
537.62	1554.41
537.82	1521.64
538.02	1591.27
538.21	1628.14
538.41	1718.25
538.61	1642.47
538.81	1515.50
539.00	1497.07
539.20	1411.05
539.40	1484.78
539.60	1552.36
539.79	1542.12
539.99	1593.32
540.19	1472.49
540.39	1578.98
540.58	1605.61
540.78	1533.93
540.98	1576.94
541.18	1566.70
541.37	1552.36
541.57	1585.13
541.77	1515.50
541.97	1492.97
542.16	1517.54
542.36	1503.21
542.56	1624.04
542.76	1581.03
542.95	1564.65
543.15	1632.23
543.35	1556.46
543.54	1533.93
543.74	1501.16
543.94	1609.70
544.14	1535.98
544.33	1568.74
544.53	1597.42
544.73	1509.35
544.93	1558.50
545.12	1548.26
545.32	1542.12
545.52	1574.89
545.71	1460.20
545.91	1611.75
546.11	1556.46
546.30	1529.83
546.50	1544.17
546.70	1574.89
546.90	1581.03
547.09	1562.60
547.29	1634.28
547.49	1507.30
547.68	1533.93
547.88	1511.40
548.08	1538.02
548.27	1898.47
548.47	1474.54
548.67	1464.30
548.87	1595.37
549.06	1542.12
549.26	1570.79
549.46	1488.87
549.65	1595.37
549.85	1630.18
550.05	1550.31
550.24	1441.77
550.44	1550.31
550.64	1540.07
550.83	1511.40
551.03	1583.08
551.23	1542.12
551.42	1517.54
551.62	1568.74
551.82	1540.07
552.01	1507.30
552.21	1560.55
552.41	1566.70
552.60	1640.42
552.80	1552.36
553.00	1515.50
553.19	1587.18
553.39	1613.80
553.59	1478.63
553.78	1644.52
553.98	1550.31
554.17	1441.77
554.37	1519.59
554.57	1517.54
554.76	1566.70
554.96	1591.27
555.16	1552.36
555.35	1515.50
555.55	1529.83
555.75	1527.78
555.94	1505.26
556.14	1437.67
556.33	1542.12
556.53	1495.02
556.73	1581.03
556.92	1572.84
557.12	1628.14
557.32	1630.18
557.51	1607.66
557.71	1615.85
557.90	1636.33
558.10	1597.42
558.30	1490.92
558.49	1546.22
558.69	1574.89
558.88	1603.56
559.08	1519.59
559.28	1570.79
559.47	1552.36
559.67	1540.07
559.86	1597.42
560.06	1558.50
560.26	1564.65
560.45	1538.02
560.65	1513.45
560.84	1636.33
561.04	1523.69
561.24	1492.97
561.43	1572.84
561.63	1517.54
561.82	1533.93
562.02	1609.70
562.22	1556.46
562.41	1472.49
562.61	1538.02
562.80	1490.92
563.00	1597.42
563.19	1552.36
563.39	1570.79
563.59	1538.02
563.78	1595.37
563.98	1497.07
564.17	1527.78
564.37	1497.07
564.56	1515.50
564.76	1427.43
564.96	1609.70
565.15	1505.26
565.35	1617.90
565.54	1503.21
565.74	1550.31
565.93	1529.83
566.13	1546.22
566.32	1591.27
566.52	1615.85
566.71	1552.36
566.91	1513.45
567.11	1523.69
567.30	1548.26
567.50	1546.22
567.69	1533.93
567.89	1605.61
568.08	1591.27
568.28	1570.79
568.47	1533.93
568.67	1544.17
568.86	1550.31
569.06	1613.80
569.25	1490.92
569.45	1542.12
569.64	1513.45
569.84	1560.55
570.04	1552.36
570.23	1470.44
570.43	1507.30
570.62	1572.84
570.82	1683.43
571.01	1519.59
571.21	1527.78
571.40	1542.12
571.60	1628.14
571.79	1535.98
571.99	1548.26
572.18	1495.02
572.38	1578.98
572.57	1443.82
572.77	1550.31
572.96	1665.00
573.16	1632.23
573.35	1521.64
573.55	1603.56
573.74	1550.31
573.94	1544.17
574.13	1564.65
574.33	1644.52
574.52	1646.57
574.71	1609.70
574.91	1599.46
575.10	1509.35
575.30	1550.31
575.49	1538.02
575.69	1548.26
575.88	1601.51
576.08	1478.63
576.27	1644.52
576.47	1591.27
576.66	1724.39
576.86	1673.19
577.05	1621.99
577.25	1669.09
577.44	1699.81
577.64	1480.68
577.83	1599.46
578.02	1609.70
578.22	1648.61
578.41	1503.21
578.61	1521.64
578.80	1484.78
579.00	1574.89
579.19	1544.17
579.39	1542.12
579.58	1601.51
579.77	1568.74
579.97	1644.52
580.16	1699.81
580.36	1716.20
580.55	1724.39
580.75	1566.70
580.94	1650.66
581.13	1646.57
581.33	1697.77
581.52	1546.22
581.72	1681.38
581.91	1759.21
582.11	1671.14
582.30	1613.80
582.49	1646.57
582.69	1708.01
582.88	1595.37
583.08	1607.66
583.27	1613.80
583.47	1609.70
583.66	1564.65
583.85	1533.93
584.05	1576.94
584.24	1570.79
584.44	1558.50
584.63	1687.53
584.82	1714.15
585.02	1757.16
585.21	1705.96
585.41	1773.54
585.60	1748.97
585.79	1708.01
585.99	1763.30
586.18	1789.92
586.37	2037.73
586.57	3125.20
586.76	9504.62
586.96	27199.07
587.15	43568.49
587.34	54609.09
587.54	61592.66
587.73	59880.56
587.93	43599.21
588.12	32413.20
588.31	25667.19
588.51	22462.12
588.70	20045.52
588.89	18192.11
589.09	17252.09
589.28	15290.13
589.47	13432.63
589.67	11179.86
589.86	8857.46
590.06	6819.74
590.25	5140.40
590.44	3919.81
590.64	2916.31
590.83	2353.12
591.02	2101.22
591.22	1837.03
591.41	1783.78
591.60	1638.38
591.80	1787.88
591.99	1587.18
592.18	1581.03
592.38	1613.80
592.57	1535.98
592.76	1525.74
592.96	1619.94
593.15	1583.08
593.34	1591.27
593.54	1523.69
593.73	1644.52
593.92	1615.85
594.12	1613.80
594.31	1585.13
594.50	1660.90
594.70	1683.43
594.89	1716.20
595.08	1531.88
595.28	1693.67
595.47	1718.25
595.66	1554.41
595.86	1535.98
596.05	1587.18
596.24	1523.69
596.43	1638.38
596.63	1613.80
596.82	1574.89
597.01	1646.57
597.21	1626.09
597.40	1564.65
597.59	1531.88
597.79	1554.41
597.98	1656.81
598.17	1601.51
598.36	1576.94
598.56	1624.04
598.75	1550.31
598.94	1578.98
599.14	1576.94
599.33	1587.18
599.52	1591.27
599.71	1615.85
599.91	1691.62
600.10	1560.55
600.29	1505.26
600.48	1636.33
600.68	1583.08
600.87	1566.70
601.06	1492.97
601.26	1572.84
601.45	1607.66
601.64	1509.35
601.83	1669.09
602.03	1599.46
602.22	1529.83
602.41	1599.46
602.60	1710.05
602.80	1583.08
602.99	1597.42
603.18	1599.46
603.37	1558.50
603.57	1527.78
603.76	1556.46
603.95	1624.04
604.14	1556.46
604.34	1519.59
604.53	1558.50
604.72	1587.18
604.91	1628.14
605.10	1550.31
605.30	1447.91
605.49	1679.33
605.68	1560.55
605.87	1593.32
606.07	1531.88
606.26	1449.96
606.45	1546.22
606.64	1501.16
606.84	1558.50
607.03	1581.03
607.22	1615.85
607.41	1607.66
607.60	1525.74
607.80	1613.80
607.99	1556.46
608.18	1595.37
608.37	1509.35
608.56	1507.30
608.76	1566.70
608.95	1650.66
609.14	1660.90
609.33	1677.29
609.52	1650.66
609.72	1617.90
609.91	1660.90
610.10	1607.66
610.29	1646.57
610.48	1648.61
610.68	1511.40
610.87	1556.46
611.06	1554.41
611.25	1595.37
611.44	1599.46
611.63	1490.92
611.83	1626.09
612.02	1472.49
612.21	1605.61
612.40	1503.21
612.59	1542.12
612.79	1431.53
612.98	1585.13
613.17	1621.99
613.36	1570.79
613.55	1687.53
613.74	1624.04
613.93	1654.76
614.13	1789.92
614.32	1716.20
614.51	1757.16
614.70	1654.76
614.89	1601.51
615.08	1538.02
615.28	1910.75
615.47	1546.22
615.66	1638.38
615.85	1638.38
616.04	1603.56
616.23	1607.66
616.42	1615.85
616.62	1673.19
616.81	1642.47
617.00	1570.79
617.19	1591.27
617.38	1556.46
617.57	1560.55
617.76	1640.42
617.95	1560.55
618.15	1540.07
618.34	1601.51
618.53	1531.88
618.72	1638.38
618.91	1570.79
619.10	1685.48
619.29	1578.98
619.48	1517.54
619.68	1521.64
619.87	1542.12
620.06	1540.07
620.25	1544.17
620.44	1548.26
620.63	1546.22
620.82	1490.92
621.01	1607.66
621.20	1544.17
621.39	1517.54
621.59	1591.27
621.78	1550.31
621.97	1542.12
622.16	1611.75
622.35	1599.46
622.54	1591.27
622.73	1574.89
622.92	1474.54
623.11	1648.61
623.30	1531.88
623.49	1589.22
623.68	1519.59
623.88	1568.74
624.07	1566.70
624.26	1556.46
624.45	1531.88
624.64	1529.83
624.83	1550.31
625.02	1507.30
625.21	1511.40
625.40	1546.22
625.59	1603.56
625.78	1511.40
625.97	1576.94
626.16	1585.13
626.35	1660.90
626.54	1615.85
626.74	1708.01
626.93	1597.42
627.12	1554.41
627.31	1603.56
627.50	1607.66
627.69	1587.18
627.88	1519.59
628.07	1507.30
628.26	1480.68
628.45	1497.07
628.64	1507.30
628.83	1458.15
629.02	1544.17
629.21	1529.83
629.40	1578.98
629.59	1476.59
629.78	1568.74
629.97	1538.02
630.16	1535.98
630.35	1540.07
630.54	1638.38
630.73	1566.70
630.92	1509.35
631.11	1595.37
631.30	1566.70
631.49	1548.26
631.68	1566.70
631.87	1550.31
632.06	1488.87
632.25	1617.90
632.44	1544.17
632.63	1568.74
632.82	1542.12
633.01	1621.99
633.20	1658.85
633.39	1599.46
633.58	1624.04
633.77	1724.39
633.96	1605.61
634.15	1603.56
634.34	1648.61
634.53	1660.90
634.72	1607.66
634.91	1540.07
635.10	1644.52
635.29	1607.66
635.48	1525.74
635.67	1499.11
635.86	1525.74
636.05	1576.94
636.24	1566.70
636.43	1495.02
636.62	1544.17
636.81	1527.78
637.00	1574.89
637.19	1540.07
637.38	1556.46
637.57	1484.78
637.76	1556.46
637.95	1693.67
638.14	1677.29
638.33	1587.18
638.52	1665.00
638.71	1527.78
638.89	1605.61
639.08	1677.29
639.27	1646.57
639.46	1638.38
639.65	1953.76
639.84	2039.78
640.03	2179.04
640.22	2240.48
640.41	2242.53
640.60	2002.91
640.79	1904.61
640.98	1718.25
641.17	1734.63
641.36	1683.43
641.55	1720.29
641.74	1615.85
641.92	1652.71
642.11	1550.31
642.30	1650.66
642.49	1558.50
642.68	1562.60
642.87	1507.30
643.06	1601.51
643.25	1515.50
643.44	1566.70
643.63	1550.31
643.82	1581.03
644.00	1535.98
644.19	1566.70
644.38	1474.54
644.57	1550.31
644.76	1509.35
644.95	1488.87
645.14	1540.07
645.33	1574.89
645.52	1513.45
645.71	1468.39
645.89	1509.35
646.08	1535.98
646.27	1439.72
646.46	1615.85
646.65	1441.77
646.84	1452.01
647.03	1466.35
647.22	1576.94
647.40	1552.36
647.59	1538.02
647.78	1474.54
647.97	1550.31
648.16	1435.63
648.35	1626.09
648.54	1480.68
648.73	1535.98
648.91	1533.93
649.10	1484.78
649.29	1513.45
649.48	1492.97
649.67	1517.54
649.86	1581.03
650.05	1624.04
650.23	1669.09
650.42	1634.28
650.61	1755.11
650.80	1716.20
650.99	1810.40
651.18	1624.04
651.36	1648.61
651.55	1578.98
651.74	1564.65
651.93	1566.70
652.12	1507.30
652.31	1626.09
652.49	1621.99
652.68	1609.70
652.87	1619.94
653.06	1505.26
653.25	1656.81
653.44	1523.69
653.62	1597.42
653.81	1540.07
654.00	1583.08
654.19	1544.17
654.38	1681.38
654.56	1568.74
654.75	1499.11
654.94	1578.98
655.13	1626.09
655.32	1529.83
655.51	1611.75
655.69	1542.12
655.88	1597.42
656.07	1529.83
656.26	1521.64
656.45	1482.73
656.63	1507.30
656.82	1542.12
657.01	1644.52
657.20	1486.83
657.38	1570.79
657.57	1456.11
657.76	1460.20
657.95	1578.98
658.14	1488.87
658.32	1538.02
658.51	1554.41
658.70	1562.60
658.89	1576.94
659.08	1566.70
659.26	1615.85
659.45	1589.22
659.64	1626.09
659.83	1560.55
660.01	1718.25
660.20	1665.00
660.39	1667.05
660.58	1437.67
660.76	1636.33
660.95	1476.59
661.14	1566.70
661.33	1509.35
661.51	1591.27
661.70	1521.64
661.89	1533.93
662.08	1562.60
662.26	1495.02
662.45	1531.88
662.64	1665.00
662.83	1662.95
663.01	1515.50
663.20	1482.73
663.39	1554.41
663.58	1585.13
663.76	1501.16
663.95	1564.65
664.14	1527.78
664.32	1578.98
664.51	1511.40
664.70	1470.44
664.89	1540.07
665.07	1449.96
665.26	1642.47
665.45	1587.18
665.64	1597.42
665.82	1488.87
666.01	1607.66
666.20	1538.02
666.38	1693.67
666.57	1638.38
666.76	1789.92
666.95	2949.08
667.13	7575.44
667.32	15650.58
667.51	19818.19
667.69	23443.10
667.88	25220.74
668.07	22236.84
668.25	15419.16
668.44	12506.95
668.63	9971.56
668.81	8677.24
669.00	7761.80
669.19	6989.72
669.38	6344.61
669.56	5519.28
669.75	4839.35
669.94	4126.66
670.12	3397.58
670.31	2734.04
670.50	2439.13
670.68	2138.08
670.87	1968.10
671.06	1753.06
671.24	1761.25
671.43	1742.82
671.62	1703.91
671.80	1667.05
671.99	1558.50
672.18	1562.60
672.36	1558.50
672.55	1615.85
672.74	1576.94
672.92	1554.41
673.11	1624.04
673.29	1570.79
673.48	1560.55
673.67	1492.97
673.85	1585.13
674.04	1597.42
674.23	1546.22
674.41	1658.85
674.60	1517.54
674.79	1417.19
674.97	1552.36
675.16	1546.22
675.34	1593.32
675.53	1523.69
675.72	1535.98
675.90	1587.18
676.09	1509.35
676.28	1554.41
676.46	1540.07
676.65	1556.46
676.83	1519.59
677.02	1538.02
677.21	1585.13
677.39	1558.50
677.58	1533.93
677.77	1443.82
677.95	1497.07
678.14	1527.78
678.32	1558.50
678.51	1544.17
678.70	1615.85
678.88	1529.83
679.07	1578.98
679.25	1513.45
679.44	1562.60
679.63	1513.45
679.81	1589.22
680.00	1476.59
680.18	1558.50
680.37	1574.89
680.55	1523.69
680.74	1505.26
680.93	1396.71
681.11	1509.35
681.30	1525.74
681.48	1525.74
681.67	1511.40
681.85	1552.36
682.04	1525.74
682.23	1542.12
682.41	1515.50
682.60	1411.05
682.78	1529.83
682.97	1558.50
683.15	1529.83
683.34	1562.60
683.53	1626.09
683.71	1486.83
683.90	1599.46
684.08	1535.98
684.27	1535.98
684.45	1568.74
684.64	1542.12
684.82	1509.35
685.01	1568.74
685.19	1570.79
685.38	1615.85
685.57	1617.90
685.75	1578.98
685.94	1566.70
686.12	1456.11
686.31	1509.35
686.49	1597.42
686.68	1462.25
686.86	1538.02
687.05	1535.98
687.23	1607.66
687.42	1492.97
687.60	1511.40
687.79	1507.30
687.97	1660.90
688.16	1535.98
688.34	1593.32
688.53	1511.40
688.71	1523.69
688.90	1667.05
689.08	1476.59
689.27	1452.01
689.45	1619.94
689.64	1531.88
689.82	1619.94
690.01	1546.22
690.19	1490.92
690.38	1482.73
690.56	1583.08
690.75	1497.07
690.93	1443.82
691.12	1632.23
691.30	1570.79
691.49	1509.35
691.67	1458.15
691.86	1703.91
692.04	1523.69
692.23	1540.07
692.41	1578.98
692.60	1638.38
692.78	1697.77
692.97	1564.65
693.15	1636.33
693.34	1658.85
693.52	1552.36
693.71	1525.74
693.89	1521.64
694.08	1558.50
694.26	1617.90
694.44	1560.55
694.63	1630.18
694.81	1570.79
695.00	1480.68
695.18	1574.89
695.37	1621.99
695.55	1540.07
695.74	1531.88
695.92	1511.40
696.10	1621.99
696.29	1486.83
696.47	1548.26
696.66	1470.44
696.84	1503.21
697.03	1572.84
697.21	1562.60
697.40	2027.49
697.58	1527.78
697.76	1607.66
697.95	1517.54
698.13	1515.50
698.32	1546.22
698.50	1472.49
698.68	1558.50
698.87	1574.89
699.05	1566.70
699.24	1648.61
699.42	1501.16
699.61	1566.70
699.79	1574.89
699.97	1589.22
700.16	1495.02
700.34	1511.40
700.53	1560.55
700.71	1591.27
700.89	1546.22
701.08	1617.90
701.26	1523.69
701.45	1914.85
701.63	1558.50
701.81	1540.07
702.00	1632.23
702.18	1626.09
702.37	1458.15
702.55	1611.75
702.73	1722.34
702.92	1650.66
703.10	1822.69
703.28	1843.17
703.47	1662.95
703.65	1648.61
703.84	1654.76
704.02	1716.20
704.20	1701.86
704.39	1562.60
704.57	1648.61
704.75	1587.18
704.94	1642.47
705.12	1665.00
705.30	1603.56
705.49	1892.32
705.67	2805.72
705.86	7313.30
706.04	14442.28
706.22	18720.48
706.41	21139.13
706.59	23090.85
706.77	20975.30
706.96	14608.16
707.14	11857.74
707.32	9799.53
707.51	8789.88
707.69	7624.59
707.87	6674.33
708.06	5760.94
708.24	4745.14
708.42	3686.34
708.61	3022.80
708.79	2283.49
708.97	1986.53
709.16	1890.28
709.34	1787.88
709.52	1628.14
709.71	1535.98
709.89	1587.18
710.07	1566.70
710.26	1462.25
710.44	1531.88
710.62	1607.66
710.80	1484.78
710.99	1533.93
711.17	1609.70
711.35	1583.08
711.54	1538.02
711.72	1570.79
711.90	1562.60
712.09	1621.99
712.27	1570.79
712.45	1587.18
712.63	1472.49
712.82	1529.83
713.00	1552.36
713.18	1570.79
713.37	1619.94
713.55	1564.65
713.73	1525.74
713.91	1509.35
714.10	1540.07
714.28	1490.92
714.46	1589.22
714.65	1615.85
714.83	1533.93
715.01	1624.04
715.19	1591.27
715.38	1560.55
715.56	1583.08
715.74	1542.12
715.92	1552.36
716.11	1503.21
716.29	1443.82
716.47	1503.21
716.65	1480.68
716.84	1495.02
717.02	1509.35
717.20	1511.40
717.38	1501.16
717.57	1460.20
717.75	1560.55
717.93	1488.87
718.11	1497.07
718.30	1499.11
718.48	1636.33
718.66	1546.22
718.84	1540.07
719.03	1464.30
719.21	1486.83
719.39	1621.99
719.57	1564.65
719.75	1556.46
719.94	1456.11
720.12	1478.63
720.30	1560.55
720.48	1611.75
720.67	1550.31
720.85	1558.50
721.03	1505.26
721.21	1527.78
721.39	1570.79
721.58	1497.07
721.76	1578.98
721.94	1505.26
722.12	1482.73
722.30	1546.22
722.49	1515.50
722.67	1525.74
722.85	1648.61
723.03	1482.73
723.21	1429.48
723.40	1560.55
723.58	1599.46
723.76	1552.36
723.94	1675.24
724.12	1656.81
724.30	1611.75
724.49	1679.33
724.67	1624.04
724.85	1648.61
725.03	1515.50
725.21	1607.66
725.40	1638.38
725.58	1511.40
725.76	1683.43
725.94	1521.64
726.12	1484.78
726.30	1593.32
726.49	1525.74
726.67	1517.54
726.85	1566.70
727.03	1605.61
727.21	1767.40
727.39	2119.65
727.57	3313.61
727.76	4321.21
727.94	4753.34
728.12	5097.39
728.30	5189.55
728.48	4384.70
728.66	3608.52
728.84	3207.12
729.03	2951.12
729.21	2625.50
729.39	2365.40
729.57	2045.92
729.75	1880.04
729.93	1736.68
730.11	1656.81
730.30	1523.69
730.48	1640.42
730.66	1624.04
730.84	1634.28
731.02	1570.79
731.20	1466.35
731.38	1554.41
731.56	1509.35
731.74	1511.40
731.93	1583.08
732.11	1558.50
732.29	1599.46
732.47	1591.27
732.65	1566.70
732.83	1650.66
733.01	1576.94
733.19	1482.73
733.37	1585.13
733.56	1566.70
733.74	1533.93
733.92	1548.26
734.10	1419.24
734.28	1499.11
734.46	1505.26
734.64	1523.69
734.82	1544.17
735.00	1525.74
735.18	1431.53
735.36	1531.88
735.54	1538.02
735.73	1568.74
735.91	1495.02
736.09	1640.42
736.27	1521.64
736.45	1591.27
736.63	1552.36
736.81	1509.35
736.99	1605.61
737.17	1572.84
737.35	1495.02
737.53	1554.41
737.71	1445.87
737.89	1687.53
738.07	1495.02
738.25	1480.68
738.43	1490.92
738.61	1597.42
738.80	1529.83
738.98	1503.21
739.16	1507.30
739.34	1515.50
739.52	1630.18
739.70	1415.15
739.88	1542.12
740.06	1609.70
740.24	1431.53
740.42	1570.79
740.60	1501.16
740.78	1564.65
740.96	1497.07
741.14	1533.93
741.32	1486.83
741.50	1468.39
741.68	1566.70
741.86	1554.41
742.04	1521.64
742.22	1400.81
742.40	1615.85
742.58	1660.90
742.76	1497.07
742.94	1624.04
743.12	1462.25
743.30	1554.41
743.48	1529.83
743.66	1480.68
743.84	1640.42
744.02	1556.46
744.20	1562.60
744.38	1540.07
744.56	1478.63
744.74	1548.26
744.92	1540.07
745.10	1533.93
745.28	1576.94
745.46	1597.42
745.64	1509.35
745.82	1669.09
746.00	1554.41
746.18	1535.98
746.36	1591.27
746.54	1495.02
746.72	1509.35
746.90	1511.40
747.08	1529.83
747.26	1495.02
747.44	1484.78
747.62	1540.07
747.80	1544.17
747.98	1507.30
748.15	1484.78
748.33	1574.89
748.51	1550.31
748.69	1589.22
748.87	1503.21
749.05	1583.08
749.23	1519.59
749.41	1560.55
749.59	1558.50
749.77	1583.08
749.95	1495.02
750.13	1538.02
750.31	1513.45
750.49	1609.70
750.67	1609.70
750.85	1613.80
751.03	1613.80
751.20	1675.24
751.38	1525.74
751.56	1474.54
751.74	1546.22
751.92	1597.42
752.10	1468.39
752.28	1617.90
752.46	1511.40
752.64	1513.45
752.82	1589.22
753.00	1556.46
753.18	1484.78
753.35	1484.78
753.53	1558.50
753.71	1499.11
753.89	1560.55
754.07	1556.46
754.25	1628.14
754.43	1519.59
754.61	1484.78
754.79	1605.61
754.97	1576.94
755.14	1525.74
755.32	1527.78
755.50	1535.98
755.68	1646.57
755.86	1546.22
756.04	1531.88
756.22	1544.17
756.40	1609.70
756.57	1654.76
756.75	1454.06
756.93	1587.18
757.11	1566.70
757.29	1497.07
757.47	1447.91
757.65	1540.07
757.82	1470.44
758.00	1591.27
758.18	1468.39
758.36	1443.82
758.54	1638.38
758.72	1431.53
758.90	1558.50
759.07	1529.83
759.25	1507.30
759.43	1550.31
759.61	1474.54
759.79	1945.57
759.97	1599.46
760.15	1546.22
760.32	1505.26
760.50	1535.98
760.68	1624.04
760.86	1486.83
761.04	1591.27
761.22	1554.41
761.39	1525.74
761.57	1554.41
761.75	1587.18
761.93	1542.12
762.11	1574.89
762.28	1542.12
762.46	1566.70
762.64	1669.09
762.82	1480.68
763.00	1609.70
763.18	1601.51
763.35	1478.63
763.53	1626.09
763.71	1517.54
763.89	1492.97
764.07	1542.12
764.24	1554.41
764.42	1515.50
764.60	1562.60
764.78	1501.16
764.96	1615.85
765.13	1509.35
765.31	1499.11
765.49	1505.26
765.67	1480.68
765.84	1552.36
766.02	1505.26
766.20	1431.53
766.38	1499.11
766.56	1505.26
766.73	1470.44
766.91	1544.17
767.09	1472.49
767.27	1484.78
767.44	1460.20
767.62	1568.74
767.80	1509.35
767.98	1525.74
768.15	1519.59
768.33	1609.70
768.51	1617.90
768.69	1617.90
768.87	1566.70
769.04	1521.64
769.22	1652.71
769.40	1585.13
769.58	1634.28
769.75	1513.45
769.93	1601.51
770.11	1544.17
770.28	1503.21
770.46	1476.59
770.64	1587.18
770.82	1533.93
770.99	1456.11
771.17	1474.54
771.35	1478.63
771.53	1574.89
771.70	1458.15
771.88	1452.01
772.06	1509.35
772.23	1499.11
772.41	1558.50
772.59	1507.30
772.77	1531.88
772.94	1499.11
773.12	1546.22
773.30	1527.78
773.47	1509.35
773.65	1552.36
773.83	1568.74
774.01	1560.55
774.18	1503.21
774.36	1476.59
774.54	1445.87
774.71	1562.60
774.89	1486.83
775.07	1437.67
775.24	1621.99
775.42	1531.88
775.60	1626.09
775.78	1484.78
775.95	1484.78
776.13	1439.72
776.31	1449.96
776.48	1589.22
776.66	1554.41
776.84	1531.88
777.01	1499.11
777.19	1552.36
777.37	1511.40
777.54	1570.79
777.72	1552.36
777.90	1585.13
778.07	1511.40
778.25	1681.38
778.43	1587.18
778.60	1517.54
778.78	1544.17
778.96	1554.41
779.13	1544.17
779.31	1607.66
779.49	1550.31
779.66	1546.22
779.84	1423.34
780.01	1492.97
780.19	1533.93
780.37	1595.37
780.54	1556.46
780.72	1478.63
780.90	1486.83
781.07	1527.78
781.25	1488.87
781.43	1646.57
781.60	1484.78
781.78	1542.12
781.95	1492.97
782.13	1452.01
782.31	1484.78
782.48	1495.02
782.66	1472.49
782.83	1615.85
783.01	1495.02
783.19	1609.70
783.36	1550.31
783.54	1468.39
783.72	1607.66
783.89	1535.98
784.07	1505.26
784.24	1507.30
784.42	1552.36
784.60	1585.13
784.77	1519.59
784.95	1447.91
785.12	1509.35
785.30	1533.93
785.47	1513.45
785.65	1482.73
785.83	1591.27
786.00	1540.07
786.18	1501.16
786.35	1454.06
786.53	1441.77
786.71	1564.65
786.88	1527.78
787.06	1519.59
787.23	1497.07
787.41	1415.15
787.58	1570.79
787.76	1490.92
787.94	1505.26
788.11	1509.35
788.29	1490.92
788.46	1425.39
788.64	1474.54
788.81	1492.97
788.99	1529.83
789.16	1474.54
789.34	1533.93
789.52	1460.20
789.69	1593.32
789.87	1419.24
790.04	1472.49
790.22	1511.40
790.39	1628.14
790.57	1480.68
790.74	1488.87
790.92	1538.02
791.09	1443.82
791.27	1503.21
791.44	1593.32
791.62	1486.83
791.79	1542.12
791.97	1505.26
792.15	1658.85
792.32	1599.46
792.50	1568.74
792.67	1603.56
792.85	1595.37
793.02	1466.35
793.20	1554.41
793.37	1476.59
793.55	1533.93
793.72	1409.00
793.90	1503.21
794.07	1509.35
794.25	1519.59
794.42	1523.69
794.60	1554.41
794.77	1527.78
794.95	1558.50
795.12	1550.31
795.30	1515.50
795.47	1476.59
795.65	1626.09
795.82	1556.46
796.00	1472.49
796.17	1595.37
796.34	1486.83
796.52	1525.74
796.69	1587.18
796.87	1566.70
797.04	1566.70
797.22	1564.65
797.39	1581.03
797.57	1566.70
797.74	1542.12
797.92	1552.36
798.09	1499.11
798.27	1576.94
798.44	1576.94
798.62	1480.68
798.79	1597.42
798.96	1568.74
799.14	1529.83
799.31	1677.29
799.49	1556.46
799.66	1490.92
799.84	1501.16
800.01	1439.72
800.19	1548.26
800.36	1429.48
800.53	1556.46
800.71	1507.30
800.88	1529.83
801.06	1478.63
801.23	1546.22
801.41	1535.98
801.58	1474.54
801.75	1535.98
801.93	1509.35
802.10	1527.78
802.28	1505.26
802.45	1497.07
802.63	1515.50
802.80	1662.95
802.97	1535.98
803.15	1531.88
803.32	1492.97
803.50	1466.35
803.67	1535.98
803.84	1466.35
804.02	1546.22
804.19	1513.45
804.37	1492.97
804.54	1468.39
804.71	1527.78
804.89	1523.69
805.06	1511.40
805.24	1480.68
805.41	1554.41
805.58	1488.87
805.76	1636.33
805.93	1488.87
806.10	1603.56
806.28	1509.35
806.45	1574.89
806.63	1538.02
806.80	1542.12
806.97	1511.40
807.15	1480.68
807.32	1566.70
807.49	1437.67
807.67	1488.87
807.84	1501.16
808.01	1437.67
808.19	1591.27
808.36	1665.00
808.54	1599.46
808.71	1445.87
808.88	1544.17
809.06	1605.61
809.23	1617.90
809.40	1488.87
809.58	1626.09
809.75	1533.93
809.92	1445.87
810.10	1636.33
810.27	1538.02
810.44	1568.74
810.62	1583.08
810.79	1564.65
810.96	1507.30
811.14	1519.59
811.31	1605.61
811.48	1538.02
811.66	1560.55
811.83	1589.22
812.00	1587.18
812.18	1585.13
812.35	1648.61
812.52	1497.07
812.69	1556.46
812.87	1517.54
813.04	1466.35
813.21	1531.88
813.39	1538.02
813.56	1445.87
813.73	1495.02
813.91	1419.24
814.08	1572.84
814.25	1564.65
814.42	1476.59
814.60	1540.07
814.77	1603.56
814.94	1558.50
815.12	1548.26
815.29	1638.38
815.46	1525.74
815.63	1562.60
815.81	1527.78
815.98	1495.02
816.15	1521.64
816.33	1445.87
816.50	1421.29
816.67	1501.16
816.84	1538.02
817.02	1525.74
817.19	1533.93
817.36	1570.79
817.53	1560.55
817.71	1488.87
817.88	1632.23
818.05	1517.54
818.22	1531.88
818.40	1511.40
818.57	1564.65
818.74	1601.51
818.91	1499.11
819.09	1515.50
819.26	1495.02
819.43	1468.39
819.60	1507.30
819.78	1550.31
819.95	1611.75
820.12	1449.96
820.29	1531.88
820.47	1581.03
820.64	1521.64
820.81	1492.97
820.98	1490.92
821.15	1583.08
821.33	1525.74
821.50	1464.30
821.67	1619.94
821.84	1591.27
822.02	1601.51
822.19	1578.98
822.36	1511.40
822.53	1531.88
822.70	1513.45
822.88	1474.54
823.05	1552.36
823.22	1521.64
823.39	1480.68
823.56	1603.56
823.74	1542.12
823.91	1472.49
824.08	1482.73
824.25	1597.42
824.42	1681.38
824.60	1523.69
824.77	1548.26
824.94	1621.99
825.11	1523.69
825.28	1480.68
825.45	1576.94
825.63	1527.78
825.80	1527.78
825.97	1519.59
826.14	1601.51
826.31	1490.92
826.48	1587.18
826.66	1482.73
826.83	1509.35
827.00	1613.80
827.17	1507.30
827.34	1538.02
827.51	1468.39
827.69	1501.16
827.86	1478.63
828.03	1550.31
828.20	1484.78
828.37	1480.68
828.54	1517.54
828.71	1560.55
828.89	1607.66
829.06	1562.60
829.23	1531.88
829.40	1540.07
829.57	1454.06
829.74	1552.36
829.91	1505.26
830.09	1501.16
830.26	1533.93
830.43	1529.83
830.60	1470.44
830.77	1552.36
830.94	1521.64
831.11	1531.88
831.28	1585.13
831.46	1558.50
831.63	1472.49
831.80	1495.02
831.97	1509.35
832.14	1574.89
832.31	1538.02
832.48	1538.02
832.65	1644.52
832.82	1591.27
832.99	1525.74
833.17	1472.49
833.34	1546.22
833.51	1511.40
833.68	1521.64
833.85	1599.46
834.02	1535.98
834.19	1529.83
834.36	1511.40
834.53	1495.02
834.70	1558.50
834.87	1560.55
835.04	1476.59
835.22	1564.65
835.39	1533.93
835.56	1443.82
835.73	1533.93
835.90	1538.02
836.07	1476.59
836.24	1533.93
836.41	1497.07
836.58	1460.20
836.75	1570.79
836.92	1552.36
837.09	1437.67
837.26	1574.89
837.43	1583.08
837.60	1574.89
837.77	1445.87
837.94	1570.79
838.12	1640.42
838.29	1558.50
838.46	1501.16
838.63	1449.96
838.80	1597.42
838.97	1529.83
839.14	1505.26
839.31	1466.35
839.48	1603.56
839.65	1513.45
839.82	1535.98
839.99	1515.50
840.16	1550.31
840.33	1490.92
840.50	1562.60
840.67	1478.63
840.84	1431.53
841.01	1599.46
841.18	1527.78
841.35	1515.50
841.52	1533.93
841.69	1624.04
841.86	1470.44
842.03	1525.74
842.20	1671.14
842.37	1478.63
842.54	1499.11
842.71	1570.79
842.88	1515.50
843.05	1554.41
843.22	1495.02
843.39	1624.04
843.56	1550.31
843.73	1456.11
843.90	1576.94
844.07	1585.13
844.24	1572.84
844.41	1531.88
844.58	1578.98
844.75	1538.02
844.92	1517.54
845.09	1499.11
845.26	1525.74
845.43	1538.02
845.60	1462.25
845.77	1509.35
845.94	1558.50
846.10	1550.31
846.27	1439.72
846.44	1492.97
846.61	1509.35
846.78	1501.16
846.95	1509.35
847.12	1470.44
847.29	1513.45
847.46	1583.08
847.63	1550.31
847.80	1540.07
847.97	1574.89
848.14	1609.70
848.31	1556.46
848.48	1566.70
848.65	1591.27
848.82	1533.93
848.98	1640.42
849.15	1605.61
849.32	1630.18
849.49	1621.99
849.66	1587.18
849.83	1581.03
850.00	1535.98
850.17	1548.26
850.34	1593.32
850.51	1544.17
850.68	1466.35
850.85	1585.13
851.01	1515.50
851.18	1542.12
851.35	1482.73
851.52	1505.26
851.69	1665.00
851.86	1443.82
852.03	1458.15
852.20	1548.26
852.37	1574.89
852.53	1570.79
852.70	1427.43
852.87	1503.21
853.04	1517.54
853.21	1509.35
853.38	1603.56
853.55	1546.22
853.72	1540.07
853.89	1484.78
854.05	1519.59
854.22	1484.78
854.39	1558.50
854.56	1544.17
854.73	1607.66
854.90	1445.87
855.07	1535.98
855.23	1433.58
855.40	1556.46
855.57	1478.63
855.74	1486.83
855.91	1689.57
856.08	1447.91
856.25	1441.77
856.41	1517.54
856.58	1562.60
856.75	1564.65
856.92	1529.83
857.09	1558.50
857.26	1458.15
857.42	1517.54
857.59	1597.42
857.76	1507.30
857.93	1611.75
858.10	1495.02
858.27	1509.35
858.43	1515.50
858.60	1515.50
858.77	1400.81
858.94	1527.78
859.11	1546.22
859.27	1574.89
859.44	1517.54
859.61	1677.29
859.78	1607.66
859.95	1535.98
860.12	1411.05
860.28	1550.31
860.45	1591.27
860.62	1550.31
860.79	1503.21
860.95	1464.30
861.12	1429.48
861.29	1435.63
861.46	1552.36
861.63	1503.21
861.79	1611.75
861.96	1492.97
862.13	1454.06
862.30	1544.17
862.47	1517.54
862.63	1515.50
862.80	1593.32
862.97	1578.98
863.14	1523.69
863.30	1595.37
863.47	1468.39
863.64	1607.66
863.81	1546.22
863.97	1515.50
864.14	1521.64
864.31	1439.72
864.48	1570.79
864.65	1601.51
864.81	1542.12
864.98	1562.60
865.15	1501.16
865.32	1619.94
865.48	1576.94
865.65	1691.62
865.82	1476.59
865.98	1630.18
866.15	1591.27
866.32	1525.74
866.49	1513.45
866.65	1597.42
866.82	1488.87
866.99	1523.69
867.16	1507.30
867.32	1517.54
867.49	1568.74
867.66	1533.93
867.83	1519.59
867.99	1445.87
868.16	1470.44
868.33	1521.64
868.49	1550.31
868.66	1501.16
868.83	1624.04
868.99	1556.46
869.16	1466.35
869.33	1581.03
869.50	1607.66
869.66	1538.02
869.83	1517.54
870.00	1449.96
870.16	1482.73
870.33	1591.27
870.50	1562.60
870.66	1525.74
870.83	1587.18
871.00	1533.93
871.17	1591.27
871.33	1589.22
871.50	1505.26
871.67	1521.64
871.83	1474.54
872.00	1593.32
872.17	1554.41
872.33	1615.85
872.50	1554.41
872.67	1472.49
872.83	1544.17
873.00	1513.45
873.17	1476.59
873.33	1558.50
873.50	1538.02
873.67	1464.30
873.83	1492.97
874.00	1515.50
874.16	1556.46
874.33	1517.54
874.50	1503.21
874.66	1538.02
874.83	1560.55
875.00	1581.03
875.16	1595.37
875.33	1589.22
875.50	1427.43
875.66	1509.35
875.83	1521.64
875.99	1574.89
876.16	1495.02
876.33	1544.17
876.49	1497.07
876.66	1576.94
876.83	1566.70
876.99	1466.35
877.16	1509.35
877.32	1482.73
877.49	1533.93
877.66	1562.60
877.82	1576.94
877.99	1527.78
878.15	1503.21
878.32	1503.21
878.49	1497.07
878.65	1503.21
878.82	1634.28
878.98	1560.55
879.15	1507.30
879.32	1552.36
879.48	1605.61
879.65	1521.64
879.81	1470.44
879.98	1560.55
880.15	1462.25
880.31	1578.98
880.48	1503.21
880.64	1564.65
880.81	1519.59
880.97	1624.04
881.14	1568.74
881.31	1468.39
881.47	1681.38
881.64	1509.35
881.80	1478.63
881.97	1548.26
882.13	1558.50
882.30	1423.34
882.47	1476.59
882.63	1462.25
882.80	1495.02
882.96	1560.55
883.13	1589.22
883.29	1470.44
883.46	1568.74
883.62	1529.83
883.79	1535.98
883.95	1595.37
884.12	1513.45
884.29	1554.41
884.45	1503.21
884.62	1521.64
884.78	1495.02
884.95	1609.70
885.11	1447.91
885.28	1597.42
885.44	1470.44
885.61	1564.65
885.77	1595.37
885.94	1521.64
886.10	1527.78
886.27	1497.07
886.43	1593.32
886.60	1658.85
886.76	1513.45
886.93	1437.67
887.09	1527.78
887.26	1480.68
887.42	1507.30
887.59	1499.11
887.75	1685.48
887.92	1572.84
888.08	1611.75
888.25	1638.38
888.41	1617.90
888.58	1492.97
888.74	1527.78
888.91	1501.16
>>>>>End Processed Spectral Data<<<<<
