SpectraSuite Data File
++++++++++++++++++++++++++++++++++++
Date: Tue May 03 12:55:19 CEST 2016
User: root
Dark Spectrum Present: No
Reference Spectrum Present: No
Number of Sampled Component Spectra: 1
Spectrometers: USB4C02835
Integration Time (usec): 100000 (USB4C02835)
Spectra Averaged: 1 (USB4C02835)
Boxcar Smoothing: 0 (USB4C02835)
Correct for Electrical Dark: No (USB4C02835)
Strobe/Lamp Enabled: No (USB4C02835)
Correct for Detector Non-linearity: No (USB4C02835)
Correct for Stray Light: No (USB4C02835)
Number of Pixels in Processed Spectrum: 3648
>>>>>Begin Processed Spectral Data<<<<<
177.47	1384.43
177.69	1384.43
177.91	1384.43
178.13	1259.50
178.36	1290.22
178.58	1507.30
178.80	1533.93
179.02	1466.35
179.24	1519.59
179.46	1529.83
179.68	1544.17
179.90	1499.11
180.13	1511.40
180.35	1529.83
180.57	1527.78
180.79	1591.27
181.01	1554.41
181.23	1619.94
181.45	1566.70
181.67	1617.90
181.90	1558.50
182.12	1554.41
182.34	1417.19
182.56	1578.98
182.78	1478.63
183.00	1474.54
183.22	1550.31
183.44	1462.25
183.66	1734.63
183.89	1595.37
184.11	1513.45
184.33	1533.93
184.55	1564.65
184.77	1591.27
184.99	1599.46
185.21	1501.16
185.43	1540.07
185.65	1538.02
185.87	1540.07
186.10	1710.05
186.32	1677.29
186.54	1613.80
186.76	1550.31
186.98	1605.61
187.20	1501.16
187.42	1476.59
187.64	1492.97
187.86	1443.82
188.08	1638.38
188.30	1607.66
188.52	1552.36
188.75	1570.79
188.97	1648.61
189.19	1556.46
189.41	1535.98
189.63	1517.54
189.85	1429.48
190.07	1439.72
190.29	1499.11
190.51	1509.35
190.73	1419.24
190.95	1581.03
191.17	1538.02
191.39	1452.01
191.61	1503.21
191.84	1566.70
192.06	1499.11
192.28	1505.26
192.50	1658.85
192.72	1554.41
192.94	1468.39
193.16	1617.90
193.38	1492.97
193.60	1505.26
193.82	1548.26
194.04	1478.63
194.26	1476.59
194.48	1535.98
194.70	1576.94
194.92	1497.07
195.14	1552.36
195.36	1433.58
195.58	1603.56
195.80	1511.40
196.02	1574.89
196.24	1531.88
196.46	1513.45
196.69	1466.35
196.91	1634.28
197.13	1509.35
197.35	1462.25
197.57	1624.04
197.79	1568.74
198.01	1597.42
198.23	1540.07
198.45	1566.70
198.67	1497.07
198.89	1558.50
199.11	1609.70
199.33	1523.69
199.55	1468.39
199.77	1552.36
199.99	1540.07
200.21	1529.83
200.43	1501.16
200.65	1523.69
200.87	1441.77
201.09	1531.88
201.31	1550.31
201.53	1501.16
201.75	1566.70
201.97	1501.16
202.19	1570.79
202.41	1574.89
202.63	1677.29
202.85	1529.83
203.07	1542.12
203.29	1564.65
203.51	1533.93
203.73	1562.60
203.95	1695.72
204.17	1507.30
204.39	1550.31
204.61	1503.21
204.83	1554.41
205.05	1572.84
205.27	1636.33
205.49	1613.80
205.71	1544.17
205.93	1544.17
206.15	1544.17
206.37	1525.74
206.59	1576.94
206.81	1503.21
207.03	1466.35
207.25	1556.46
207.47	1603.56
207.69	1576.94
207.91	1599.46
208.13	1605.61
208.34	1570.79
208.56	1535.98
208.78	1535.98
209.00	1527.78
209.22	1480.68
209.44	1527.78
209.66	1550.31
209.88	1535.98
210.10	1488.87
210.32	1533.93
210.54	1611.75
210.76	1546.22
210.98	1589.22
211.20	1406.95
211.42	1591.27
211.64	1632.23
211.86	1484.78
212.08	1581.03
212.30	1578.98
212.52	1484.78
212.74	1490.92
212.96	1568.74
213.17	1660.90
213.39	1562.60
213.61	1570.79
213.83	1540.07
214.05	1552.36
214.27	1511.40
214.49	1454.06
214.71	1505.26
214.93	1560.55
215.15	1529.83
215.37	1558.50
215.59	1492.97
215.81	1533.93
216.03	1515.50
216.24	1552.36
216.46	1527.78
216.68	1488.87
216.90	1613.80
217.12	1550.31
217.34	1529.83
217.56	1595.37
217.78	1566.70
218.00	1601.51
218.22	1558.50
218.44	1527.78
218.66	1548.26
218.87	1632.23
219.09	1488.87
219.31	1621.99
219.53	1597.42
219.75	1515.50
219.97	1478.63
220.19	1525.74
220.41	1540.07
220.63	1621.99
220.85	1593.32
221.06	1478.63
221.28	1576.94
221.50	1574.89
221.72	1562.60
221.94	1558.50
222.16	1540.07
222.38	1611.75
222.60	1495.02
222.82	1488.87
223.03	1519.59
223.25	1521.64
223.47	1601.51
223.69	1646.57
223.91	1562.60
224.13	1476.59
224.35	1509.35
224.57	1628.14
224.78	1550.31
225.00	1488.87
225.22	1548.26
225.44	1492.97
225.66	1566.70
225.88	1511.40
226.10	1546.22
226.32	1591.27
226.53	1546.22
226.75	1478.63
226.97	1587.18
227.19	1478.63
227.41	1507.30
227.63	1517.54
227.85	1486.83
228.06	1558.50
228.28	1552.36
228.50	1574.89
228.72	1540.07
228.94	1482.73
229.16	1505.26
229.37	1478.63
229.59	1460.20
229.81	1538.02
230.03	1517.54
230.25	1509.35
230.47	1558.50
230.69	1490.92
230.90	1529.83
231.12	1488.87
231.34	1517.54
231.56	1529.83
231.78	1505.26
232.00	1535.98
232.21	1538.02
232.43	1511.40
232.65	1402.86
232.87	1519.59
233.09	1535.98
233.30	1476.59
233.52	1552.36
233.74	1564.65
233.96	1589.22
234.18	1542.12
234.40	1437.67
234.61	1632.23
234.83	1437.67
235.05	1476.59
235.27	1689.57
235.49	1601.51
235.70	1540.07
235.92	1511.40
236.14	1568.74
236.36	1570.79
236.58	1464.30
236.79	1554.41
237.01	1574.89
237.23	1538.02
237.45	1638.38
237.67	1505.26
237.88	1540.07
238.10	1675.24
238.32	1568.74
238.54	1521.64
238.76	1529.83
238.97	1476.59
239.19	1488.87
239.41	1589.22
239.63	1601.51
239.85	1529.83
240.06	1431.53
240.28	1497.07
240.50	1626.09
240.72	1511.40
240.93	1564.65
241.15	1697.77
241.37	1546.22
241.59	1562.60
241.81	1505.26
242.02	1486.83
242.24	1605.61
242.46	1497.07
242.68	1527.78
242.89	1474.54
243.11	1628.14
243.33	1552.36
243.55	1521.64
243.76	1568.74
243.98	1488.87
244.20	1529.83
244.42	1599.46
244.64	1538.02
244.85	1499.11
245.07	1501.16
245.29	1529.83
245.51	1556.46
245.72	1538.02
245.94	1574.89
246.16	1550.31
246.38	1472.49
246.59	1511.40
246.81	1484.78
247.03	1572.84
247.24	1542.12
247.46	1486.83
247.68	1525.74
247.90	1574.89
248.11	1540.07
248.33	1587.18
248.55	1535.98
248.77	1554.41
248.98	1634.28
249.20	1583.08
249.42	1474.54
249.64	1605.61
249.85	1501.16
250.07	1517.54
250.29	1546.22
250.50	1607.66
250.72	1447.91
250.94	1558.50
251.16	1681.38
251.37	1564.65
251.59	1585.13
251.81	1486.83
252.02	1632.23
252.24	1538.02
252.46	1581.03
252.68	1558.50
252.89	1460.20
253.11	1470.44
253.33	1607.66
253.54	1570.79
253.76	1501.16
253.98	1460.20
254.20	1515.50
254.41	1505.26
254.63	1523.69
254.85	1443.82
255.06	1548.26
255.28	1574.89
255.50	1497.07
255.71	1550.31
255.93	1472.49
256.15	1486.83
256.36	1562.60
256.58	1597.42
256.80	1501.16
257.02	1515.50
257.23	1490.92
257.45	1552.36
257.67	1570.79
257.88	1583.08
258.10	1568.74
258.32	1554.41
258.53	1583.08
258.75	1613.80
258.97	1499.11
259.18	1587.18
259.40	1595.37
259.62	1548.26
259.83	1548.26
260.05	1564.65
260.27	1796.07
260.48	1519.59
260.70	1466.35
260.92	1505.26
261.13	1519.59
261.35	1560.55
261.57	1621.99
261.78	1464.30
262.00	1562.60
262.22	1585.13
262.43	1464.30
262.65	1433.58
262.86	1507.30
263.08	1601.51
263.30	1585.13
263.51	1505.26
263.73	1558.50
263.95	1624.04
264.16	1519.59
264.38	1513.45
264.60	1531.88
264.81	1490.92
265.03	1609.70
265.25	1556.46
265.46	1628.14
265.68	1570.79
265.89	1554.41
266.11	1425.39
266.33	1558.50
266.54	1576.94
266.76	1558.50
266.98	1628.14
267.19	1677.29
267.41	1585.13
267.62	1578.98
267.84	1511.40
268.06	1542.12
268.27	1527.78
268.49	1613.80
268.70	1638.38
268.92	1550.31
269.14	1521.64
269.35	1509.35
269.57	1533.93
269.79	1583.08
270.00	1503.21
270.22	1654.76
270.43	1548.26
270.65	1439.72
270.87	1564.65
271.08	1560.55
271.30	1488.87
271.51	1562.60
271.73	1595.37
271.95	1601.51
272.16	1490.92
272.38	1513.45
272.59	1501.16
272.81	1558.50
273.02	1568.74
273.24	1568.74
273.46	1574.89
273.67	1525.74
273.89	1464.30
274.10	1492.97
274.32	1576.94
274.54	1525.74
274.75	1538.02
274.97	1535.98
275.18	1572.84
275.40	1538.02
275.61	1560.55
275.83	1601.51
276.05	1454.06
276.26	1474.54
276.48	1613.80
276.69	1513.45
276.91	1531.88
277.12	1589.22
277.34	1441.77
277.55	1585.13
277.77	1585.13
277.99	1538.02
278.20	1505.26
278.42	1501.16
278.63	1437.67
278.85	1458.15
279.06	1460.20
279.28	1574.89
279.49	1566.70
279.71	1611.75
279.93	1488.87
280.14	1552.36
280.36	1527.78
280.57	1591.27
280.79	1583.08
281.00	1509.35
281.22	1433.58
281.43	1578.98
281.65	1497.07
281.86	1546.22
282.08	1550.31
282.29	1626.09
282.51	1544.17
282.73	1503.21
282.94	1542.12
283.16	1595.37
283.37	1660.90
283.59	1562.60
283.80	1564.65
284.02	1566.70
284.23	1566.70
284.45	1560.55
284.66	1484.78
284.88	1568.74
285.09	1581.03
285.31	1517.54
285.52	1507.30
285.74	1511.40
285.95	1621.99
286.17	1523.69
286.38	1507.30
286.60	1544.17
286.81	1562.60
287.03	1519.59
287.24	1525.74
287.46	1550.31
287.67	1552.36
287.89	1550.31
288.10	1568.74
288.32	1566.70
288.53	1615.85
288.75	1531.88
288.96	1564.65
289.18	1564.65
289.39	1495.02
289.61	1507.30
289.82	1595.37
290.04	1578.98
290.25	1464.30
290.47	1472.49
290.68	1464.30
290.90	1570.79
291.11	1476.59
291.33	1587.18
291.54	1431.53
291.76	1486.83
291.97	1454.06
292.18	1603.56
292.40	1429.48
292.61	1527.78
292.83	1591.27
293.04	1546.22
293.26	1511.40
293.47	1550.31
293.69	1445.87
293.90	1540.07
294.12	1617.90
294.33	1460.20
294.55	1464.30
294.76	1650.66
294.97	1660.90
295.19	1677.29
295.40	1452.01
295.62	1544.17
295.83	1601.51
296.05	1546.22
296.26	1609.70
296.48	1454.06
296.69	1630.18
296.90	1490.92
297.12	1550.31
297.33	1615.85
297.55	1519.59
297.76	1585.13
297.98	1564.65
298.19	1486.83
298.41	1511.40
298.62	1468.39
298.83	1552.36
299.05	1576.94
299.26	1482.73
299.48	1476.59
299.69	1624.04
299.90	1554.41
300.12	1472.49
300.33	1521.64
300.55	1617.90
300.76	1511.40
300.98	1578.98
301.19	1585.13
301.40	1523.69
301.62	1515.50
301.83	1628.14
302.05	1550.31
302.26	1474.54
302.47	1613.80
302.69	1533.93
302.90	1587.18
303.12	1447.91
303.33	1507.30
303.54	1658.85
303.76	1558.50
303.97	1558.50
304.19	1619.94
304.40	1542.12
304.61	1507.30
304.83	1597.42
305.04	1556.46
305.26	1574.89
305.47	1519.59
305.68	1546.22
305.90	1458.15
306.11	1560.55
306.33	1540.07
306.54	1511.40
306.75	1505.26
306.97	1478.63
307.18	1495.02
307.39	1480.68
307.61	1599.46
307.82	1460.20
308.04	1523.69
308.25	1515.50
308.46	1556.46
308.68	1515.50
308.89	1548.26
309.10	1624.04
309.32	1476.59
309.53	1540.07
309.74	1581.03
309.96	1562.60
310.17	1570.79
310.39	1472.49
310.60	1525.74
310.81	1562.60
311.03	1490.92
311.24	1535.98
311.45	1515.50
311.67	1683.43
311.88	1519.59
312.09	1499.11
312.31	1538.02
312.52	1449.96
312.73	1546.22
312.95	1437.67
313.16	1525.74
313.37	1578.98
313.59	1513.45
313.80	1548.26
314.01	1656.81
314.23	1546.22
314.44	1531.88
314.65	1419.24
314.87	1531.88
315.08	1492.97
315.29	1429.48
315.51	1456.11
315.72	1476.59
315.93	1607.66
316.15	1583.08
316.36	1445.87
316.57	1535.98
316.79	1533.93
317.00	1476.59
317.21	1564.65
317.43	1562.60
317.64	1605.61
317.85	1519.59
318.07	1587.18
318.28	1617.90
318.49	1730.53
318.70	1822.69
318.92	1712.10
319.13	1693.67
319.34	1726.44
319.56	1650.66
319.77	1673.19
319.98	1646.57
320.20	1564.65
320.41	1619.94
320.62	1564.65
320.83	1515.50
321.05	1636.33
321.26	1552.36
321.47	1599.46
321.69	1626.09
321.90	1456.11
322.11	1462.25
322.32	1574.89
322.54	1503.21
322.75	1513.45
322.96	1570.79
323.18	1400.81
323.39	1511.40
323.60	1501.16
323.81	1626.09
324.03	1505.26
324.24	1544.17
324.45	1521.64
324.66	1533.93
324.88	1550.31
325.09	1603.56
325.30	1585.13
325.52	1525.74
325.73	1556.46
325.94	1454.06
326.15	1513.45
326.37	1542.12
326.58	1587.18
326.79	1515.50
327.00	1517.54
327.22	1525.74
327.43	1570.79
327.64	1544.17
327.85	1517.54
328.07	1517.54
328.28	1572.84
328.49	1523.69
328.70	1529.83
328.92	1544.17
329.13	1513.45
329.34	1533.93
329.55	1521.64
329.76	1609.70
329.98	1558.50
330.19	1593.32
330.40	1554.41
330.61	1511.40
330.83	1621.99
331.04	1476.59
331.25	1535.98
331.46	1554.41
331.68	1490.92
331.89	1617.90
332.10	1495.02
332.31	1443.82
332.52	1517.54
332.74	1601.51
332.95	1544.17
333.16	1531.88
333.37	1546.22
333.58	1574.89
333.80	1529.83
334.01	1478.63
334.22	1478.63
334.43	1464.30
334.64	1554.41
334.86	1435.63
335.07	1454.06
335.28	1587.18
335.49	1548.26
335.70	1476.59
335.92	1558.50
336.13	1683.43
336.34	1548.26
336.55	1527.78
336.76	1533.93
336.98	1462.25
337.19	1556.46
337.40	1578.98
337.61	1595.37
337.82	1593.32
338.04	1591.27
338.25	1470.44
338.46	1452.01
338.67	1474.54
338.88	1427.43
339.09	1538.02
339.31	1542.12
339.52	1513.45
339.73	1542.12
339.94	1542.12
340.15	1554.41
340.36	1527.78
340.58	1531.88
340.79	1492.97
341.00	1548.26
341.21	1525.74
341.42	1585.13
341.63	1544.17
341.85	1656.81
342.06	1636.33
342.27	1542.12
342.48	1597.42
342.69	1492.97
342.90	1576.94
343.12	1515.50
343.33	1503.21
343.54	1574.89
343.75	1544.17
343.96	1507.30
344.17	1470.44
344.38	1517.54
344.60	1523.69
344.81	1558.50
345.02	1509.35
345.23	1630.18
345.44	1714.15
345.65	1656.81
345.86	1583.08
346.07	1533.93
346.29	1445.87
346.50	1529.83
346.71	1587.18
346.92	1626.09
347.13	1732.58
347.34	1568.74
347.55	1523.69
347.76	1552.36
347.98	1470.44
348.19	1507.30
348.40	1601.51
348.61	1540.07
348.82	1601.51
349.03	1550.31
349.24	1507.30
349.45	1652.71
349.66	1515.50
349.88	1562.60
350.09	1566.70
350.30	1599.46
350.51	1593.32
350.72	1556.46
350.93	1538.02
351.14	1501.16
351.35	1556.46
351.56	1560.55
351.77	1550.31
351.99	1564.65
352.20	1576.94
352.41	1587.18
352.62	1476.59
352.83	1482.73
353.04	1478.63
353.25	1511.40
353.46	1603.56
353.67	1544.17
353.88	1486.83
354.09	1519.59
354.30	1503.21
354.52	1527.78
354.73	1617.90
354.94	1470.44
355.15	1535.98
355.36	1599.46
355.57	1558.50
355.78	1572.84
355.99	1529.83
356.20	1488.87
356.41	1556.46
356.62	1505.26
356.83	1585.13
357.04	1615.85
357.25	1404.91
357.46	1529.83
357.68	1419.24
357.89	1488.87
358.10	1540.07
358.31	1572.84
358.52	1511.40
358.73	1501.16
358.94	1456.11
359.15	1552.36
359.36	1546.22
359.57	1513.45
359.78	1476.59
359.99	1583.08
360.20	1523.69
360.41	1482.73
360.62	1652.71
360.83	1517.54
361.04	1566.70
361.25	1619.94
361.46	1646.57
361.67	1570.79
361.88	1587.18
362.09	1599.46
362.30	1576.94
362.51	1552.36
362.72	1589.22
362.93	1576.94
363.14	1546.22
363.35	1566.70
363.56	1482.73
363.78	1525.74
363.99	1617.90
364.20	1535.98
364.41	1554.41
364.62	1660.90
364.83	1601.51
365.04	1564.65
365.25	1525.74
365.46	1595.37
365.67	1472.49
365.88	1466.35
366.09	1445.87
366.30	1513.45
366.51	1509.35
366.72	1452.01
366.93	1581.03
367.14	1581.03
367.35	1552.36
367.56	1523.69
367.77	1587.18
367.98	1531.88
368.18	1578.98
368.39	1621.99
368.60	1486.83
368.81	1548.26
369.02	1507.30
369.23	1527.78
369.44	1480.68
369.65	1505.26
369.86	1593.32
370.07	1626.09
370.28	1482.73
370.49	1613.80
370.70	1585.13
370.91	1431.53
371.12	1505.26
371.33	1589.22
371.54	1439.72
371.75	1671.14
371.96	1423.34
372.17	1574.89
372.38	1587.18
372.59	1550.31
372.80	1570.79
373.01	1601.51
373.22	1509.35
373.43	1550.31
373.64	1421.29
373.85	1656.81
374.06	1607.66
374.26	1505.26
374.47	1513.45
374.68	1656.81
374.89	1497.07
375.10	1509.35
375.31	1585.13
375.52	1468.39
375.73	1585.13
375.94	1492.97
376.15	1615.85
376.36	1566.70
376.57	1456.11
376.78	1542.12
376.99	1535.98
377.20	1593.32
377.40	1544.17
377.61	1570.79
377.82	1486.83
378.03	1656.81
378.24	1591.27
378.45	1568.74
378.66	1570.79
378.87	1501.16
379.08	1521.64
379.29	1488.87
379.50	1550.31
379.71	1525.74
379.91	1619.94
380.12	1476.59
380.33	1566.70
380.54	1523.69
380.75	1527.78
380.96	1581.03
381.17	1564.65
381.38	1605.61
381.59	1609.70
381.80	1574.89
382.00	1642.47
382.21	1591.27
382.42	1667.05
382.63	1708.01
382.84	1560.55
383.05	1613.80
383.26	1599.46
383.47	1550.31
383.68	1609.70
383.88	1540.07
384.09	1554.41
384.30	1619.94
384.51	1558.50
384.72	1478.63
384.93	1449.96
385.14	1546.22
385.35	1599.46
385.55	1513.45
385.76	1617.90
385.97	1535.98
386.18	1488.87
386.39	1511.40
386.60	1525.74
386.81	1542.12
387.02	1540.07
387.22	1615.85
387.43	1560.55
387.64	1665.00
387.85	1877.99
388.06	3137.49
388.27	7288.72
388.48	10588.00
388.68	12500.80
388.89	13647.66
389.10	12699.45
389.31	10131.30
389.52	8765.31
389.73	7731.08
389.93	7190.42
390.14	6770.58
390.35	6141.86
390.56	5437.36
390.77	4589.50
390.98	3684.30
391.18	2881.49
391.39	2133.98
391.60	1800.16
391.81	1703.91
392.02	1652.71
392.23	1689.57
392.43	1574.89
392.64	1605.61
392.85	1486.83
393.06	1597.42
393.27	1611.75
393.47	1517.54
393.68	1583.08
393.89	1513.45
394.10	1607.66
394.31	1517.54
394.52	1458.15
394.72	1554.41
394.93	1617.90
395.14	1486.83
395.35	1523.69
395.56	1529.83
395.76	1591.27
395.97	1621.99
396.18	1779.68
396.39	1822.69
396.60	1959.91
396.80	1826.79
397.01	1697.77
397.22	1621.99
397.43	1671.14
397.64	1529.83
397.84	1617.90
398.05	1691.62
398.26	1556.46
398.47	1660.90
398.67	1632.23
398.88	1556.46
399.09	1576.94
399.30	1535.98
399.51	1570.79
399.71	1527.78
399.92	1523.69
400.13	1535.98
400.34	1542.12
400.54	1544.17
400.75	1621.99
400.96	1529.83
401.17	1748.97
401.37	1564.65
401.58	1558.50
401.79	1609.70
402.00	1775.59
402.21	1886.18
402.41	1908.71
402.62	2017.25
402.83	1976.29
403.04	1906.66
403.24	1927.14
403.45	1683.43
403.66	1685.48
403.87	1712.10
404.07	1679.33
404.28	1736.68
404.49	1740.77
404.70	1638.38
404.90	1578.98
405.11	1650.66
405.32	1624.04
405.52	1497.07
405.73	1550.31
405.94	1441.77
406.15	1538.02
406.35	1527.78
406.56	1525.74
406.77	1558.50
406.98	1574.89
407.18	1509.35
407.39	1603.56
407.60	1538.02
407.80	1576.94
408.01	1519.59
408.22	1587.18
408.43	1509.35
408.63	1560.55
408.84	1599.46
409.05	1560.55
409.25	1509.35
409.46	1509.35
409.67	1480.68
409.88	1517.54
410.08	1628.14
410.29	1535.98
410.50	1519.59
410.70	1619.94
410.91	1490.92
411.12	1591.27
411.32	1548.26
411.53	1560.55
411.74	1634.28
411.95	1673.19
412.15	1654.76
412.36	1644.52
412.57	1570.79
412.77	1556.46
412.98	1525.74
413.19	1548.26
413.39	1552.36
413.60	1619.94
413.81	1576.94
414.01	1560.55
414.22	1595.37
414.43	1665.00
414.63	1495.02
414.84	1603.56
415.05	1533.93
415.25	1497.07
415.46	1556.46
415.67	1495.02
415.87	1464.30
416.08	1578.98
416.29	1538.02
416.49	1591.27
416.70	1492.97
416.91	1476.59
417.11	1533.93
417.32	1576.94
417.53	1523.69
417.73	1488.87
417.94	1495.02
418.15	1574.89
418.35	1484.78
418.56	1503.21
418.77	1640.42
418.97	1570.79
419.18	1542.12
419.38	1425.39
419.59	1615.85
419.80	1587.18
420.00	1497.07
420.21	1550.31
420.42	1613.80
420.62	1585.13
420.83	1486.83
421.04	1499.11
421.24	1509.35
421.45	1550.31
421.65	1511.40
421.86	1581.03
422.07	1540.07
422.27	1478.63
422.48	1535.98
422.69	1507.30
422.89	1562.60
423.10	1615.85
423.30	1513.45
423.51	1462.25
423.72	1544.17
423.92	1560.55
424.13	1509.35
424.33	1517.54
424.54	1527.78
424.75	1566.70
424.95	1591.27
425.16	1515.50
425.36	1538.02
425.57	1621.99
425.78	1538.02
425.98	1634.28
426.19	1521.64
426.39	1474.54
426.60	1576.94
426.81	1673.19
427.01	1617.90
427.22	1523.69
427.42	1439.72
427.63	1497.07
427.83	1626.09
428.04	1550.31
428.25	1566.70
428.45	1605.61
428.66	1621.99
428.86	1552.36
429.07	1497.07
429.28	1552.36
429.48	1593.32
429.69	1527.78
429.89	1585.13
430.10	1482.73
430.30	1562.60
430.51	1609.70
430.71	1495.02
430.92	1492.97
431.13	1490.92
431.33	1568.74
431.54	1572.84
431.74	1544.17
431.95	1548.26
432.15	1476.59
432.36	1480.68
432.56	1601.51
432.77	1636.33
432.98	1568.74
433.18	1480.68
433.39	1566.70
433.59	1488.87
433.80	1605.61
434.00	1613.80
434.21	1533.93
434.41	1535.98
434.62	1624.04
434.82	1462.25
435.03	1595.37
435.23	1581.03
435.44	1402.86
435.64	1513.45
435.85	1597.42
436.06	1535.98
436.26	1599.46
436.47	1578.98
436.67	1566.70
436.88	1578.98
437.08	1593.32
437.29	1595.37
437.49	1560.55
437.70	1535.98
437.90	1611.75
438.11	1660.90
438.31	1593.32
438.52	1734.63
438.72	1728.49
438.93	1697.77
439.13	1669.09
439.34	1611.75
439.54	1597.42
439.75	1632.23
439.95	1599.46
440.16	1509.35
440.36	1617.90
440.57	1593.32
440.77	1605.61
440.98	1544.17
441.18	1497.07
441.39	1501.16
441.59	1406.95
441.80	1621.99
442.00	1468.39
442.21	1619.94
442.41	1484.78
442.62	1576.94
442.82	1566.70
443.02	1517.54
443.23	1603.56
443.43	1652.71
443.64	1652.71
443.84	1513.45
444.05	1554.41
444.25	1566.70
444.46	1492.97
444.66	1574.89
444.87	1660.90
445.07	1560.55
445.28	1552.36
445.48	1603.56
445.69	1554.41
445.89	1714.15
446.09	1621.99
446.30	1968.10
446.50	3145.68
446.71	4503.48
446.91	5265.33
447.12	5801.90
447.32	5552.04
447.53	4548.54
447.73	4046.79
447.93	3643.34
448.14	3418.06
448.34	3178.45
448.55	2904.02
448.75	2949.08
448.96	2820.05
449.16	2545.63
449.36	2258.91
449.57	1927.14
449.77	1875.94
449.98	1578.98
450.18	1685.48
450.39	1642.47
450.59	1593.32
450.79	1456.11
451.00	1503.21
451.20	1599.46
451.41	1472.49
451.61	1603.56
451.81	1460.20
452.02	1511.40
452.22	1581.03
452.43	1501.16
452.63	1492.97
452.84	1570.79
453.04	1517.54
453.24	1540.07
453.45	1470.44
453.65	1550.31
453.86	1544.17
454.06	1574.89
454.26	1535.98
454.47	1578.98
454.67	1650.66
454.87	1548.26
455.08	1574.89
455.28	1632.23
455.49	1550.31
455.69	1478.63
455.89	1621.99
456.10	1615.85
456.30	1578.98
456.51	1570.79
456.71	1527.78
456.91	1566.70
457.12	1544.17
457.32	1544.17
457.52	1517.54
457.73	1603.56
457.93	1628.14
458.14	1535.98
458.34	1468.39
458.54	1449.96
458.75	1488.87
458.95	1638.38
459.15	1517.54
459.36	1546.22
459.56	1585.13
459.76	1619.94
459.97	1552.36
460.17	1552.36
460.37	1566.70
460.58	1554.41
460.78	1568.74
460.99	1523.69
461.19	1484.78
461.39	1478.63
461.60	1449.96
461.80	1595.37
462.00	1501.16
462.21	1548.26
462.41	1548.26
462.61	1572.84
462.82	1478.63
463.02	1642.47
463.22	1574.89
463.43	1589.22
463.63	1597.42
463.83	1638.38
464.04	1621.99
464.24	1499.11
464.44	1535.98
464.64	1535.98
464.85	1552.36
465.05	1576.94
465.25	1581.03
465.46	1603.56
465.66	1619.94
465.86	1583.08
466.07	1439.72
466.27	1499.11
466.47	1437.67
466.68	1458.15
466.88	1564.65
467.08	1576.94
467.29	1552.36
467.49	1591.27
467.69	1626.09
467.89	1591.27
468.10	1568.74
468.30	1595.37
468.50	1634.28
468.71	1589.22
468.91	1542.12
469.11	1619.94
469.31	1519.59
469.52	1464.30
469.72	1603.56
469.92	1630.18
470.13	1449.96
470.33	1492.97
470.53	1751.01
470.73	2072.54
470.94	2299.87
471.14	2455.51
471.34	2602.97
471.54	2435.03
471.75	2246.62
471.95	2103.26
472.15	2064.35
472.36	2000.87
472.56	1957.86
472.76	1886.18
472.96	1927.14
473.17	1783.78
473.37	1808.36
473.57	1687.53
473.77	1685.48
473.98	1552.36
474.18	1503.21
474.38	1654.76
474.58	1531.88
474.79	1480.68
474.99	1509.35
475.19	1603.56
475.39	1447.91
475.60	1525.74
475.80	1544.17
476.00	1445.87
476.20	1552.36
476.41	1521.64
476.61	1658.85
476.81	1535.98
477.01	1468.39
477.21	1611.75
477.42	1634.28
477.62	1492.97
477.82	1550.31
478.02	1503.21
478.23	1511.40
478.43	1552.36
478.63	1488.87
478.83	1531.88
479.03	1503.21
479.24	1611.75
479.44	1646.57
479.64	1521.64
479.84	1583.08
480.04	1484.78
480.25	1574.89
480.45	1556.46
480.65	1507.30
480.85	1636.33
481.06	1527.78
481.26	1546.22
481.46	1593.32
481.66	1529.83
481.86	1456.11
482.06	1583.08
482.27	1480.68
482.47	1552.36
482.67	1587.18
482.87	1529.83
483.07	1546.22
483.28	1525.74
483.48	1484.78
483.68	1501.16
483.88	1478.63
484.08	1523.69
484.29	1497.07
484.49	1501.16
484.69	1529.83
484.89	1640.42
485.09	1527.78
485.29	1533.93
485.50	1538.02
485.70	1535.98
485.90	1576.94
486.10	1554.41
486.30	1566.70
486.50	1593.32
486.71	1568.74
486.91	1578.98
487.11	1654.76
487.31	1480.68
487.51	1540.07
487.71	1525.74
487.91	1499.11
488.12	1456.11
488.32	1525.74
488.52	1509.35
488.72	1511.40
488.92	1486.83
489.12	1607.66
489.32	1578.98
489.53	1591.27
489.73	1497.07
489.93	1505.26
490.13	1517.54
490.33	1462.25
490.53	1572.84
490.73	1697.77
490.94	1542.12
491.14	1578.98
491.34	1685.48
491.54	2123.74
491.74	2607.06
491.94	3100.62
492.14	3280.85
492.34	3246.03
492.54	2742.23
492.75	2447.32
492.95	2332.64
493.15	2271.20
493.35	2191.33
493.55	2101.22
493.75	2058.21
493.95	2084.83
494.15	1943.52
494.35	1798.12
494.56	1675.24
494.76	1693.67
494.96	1535.98
495.16	1640.42
495.36	1474.54
495.56	1572.84
495.76	1626.09
495.96	1517.54
496.16	1492.97
496.36	1527.78
496.56	1519.59
496.77	1560.55
496.97	1533.93
497.17	1544.17
497.37	1562.60
497.57	1619.94
497.77	1538.02
497.97	1529.83
498.17	1587.18
498.37	1488.87
498.57	1521.64
498.77	1513.45
498.97	1558.50
499.17	1632.23
499.38	1578.98
499.58	1611.75
499.78	1607.66
499.98	1540.07
500.18	1581.03
500.38	1505.26
500.58	1775.59
500.78	2691.03
500.98	5025.72
501.18	6698.91
501.38	8071.04
501.58	8615.80
501.78	8056.71
501.98	6088.61
502.18	5326.77
502.38	4665.27
502.58	4296.64
502.78	3755.97
502.98	3815.37
503.18	3633.10
503.38	3291.09
503.59	3071.95
503.79	2785.24
503.99	2512.86
504.19	2238.43
504.39	2197.47
504.59	2066.40
504.79	2068.45
504.99	2002.91
505.19	1816.55
505.39	1781.73
505.59	1808.36
505.79	1683.43
505.99	1656.81
506.19	1601.51
506.39	1683.43
506.59	1574.89
506.79	1640.42
506.99	1644.52
507.19	1542.12
507.39	1556.46
507.59	1550.31
507.79	1581.03
507.99	1587.18
508.19	1495.02
508.39	1515.50
508.59	1542.12
508.79	1673.19
508.99	1667.05
509.19	1544.17
509.39	1550.31
509.59	1458.15
509.79	1521.64
509.99	1488.87
510.19	1554.41
510.39	1574.89
510.59	1603.56
510.79	1529.83
510.99	1462.25
511.19	1468.39
511.39	1605.61
511.59	1615.85
511.79	1595.37
511.99	1648.61
512.19	1621.99
512.38	1613.80
512.58	1542.12
512.78	1550.31
512.98	1619.94
513.18	1607.66
513.38	1505.26
513.58	1564.65
513.78	1499.11
513.98	1531.88
514.18	1546.22
514.38	1574.89
514.58	1572.84
514.78	1531.88
514.98	1558.50
515.18	1544.17
515.38	1427.43
515.58	1615.85
515.78	1464.30
515.98	1521.64
516.18	1515.50
516.38	1507.30
516.57	1495.02
516.77	1501.16
516.97	1548.26
517.17	1523.69
517.37	1490.92
517.57	1550.31
517.77	1523.69
517.97	1495.02
518.17	1525.74
518.37	1517.54
518.57	1519.59
518.77	1456.11
518.97	1572.84
519.16	1673.19
519.36	1589.22
519.56	1525.74
519.76	1585.13
519.96	1587.18
520.16	1564.65
520.36	1521.64
520.56	1554.41
520.76	1460.20
520.96	1468.39
521.16	1497.07
521.35	1533.93
521.55	1624.04
521.75	1558.50
521.95	1540.07
522.15	1546.22
522.35	1560.55
522.55	1462.25
522.75	1587.18
522.95	1495.02
523.14	1529.83
523.34	1538.02
523.54	1542.12
523.74	1603.56
523.94	1597.42
524.14	1478.63
524.34	1497.07
524.54	1587.18
524.73	1527.78
524.93	1597.42
525.13	1478.63
525.33	1505.26
525.53	1628.14
525.73	1540.07
525.93	1513.45
526.13	1488.87
526.32	1566.70
526.52	1595.37
526.72	1566.70
526.92	1531.88
527.12	1589.22
527.32	1427.43
527.52	1581.03
527.71	1529.83
527.91	1595.37
528.11	1452.01
528.31	1509.35
528.51	1435.63
528.71	1478.63
528.90	1509.35
529.10	1576.94
529.30	1564.65
529.50	1449.96
529.70	1552.36
529.90	1521.64
530.09	1495.02
530.29	1429.48
530.49	1435.63
530.69	1689.57
530.89	1519.59
531.09	1538.02
531.28	1558.50
531.48	1658.85
531.68	1578.98
531.88	1542.12
532.08	1544.17
532.28	1574.89
532.47	1636.33
532.67	1667.05
532.87	1538.02
533.07	1542.12
533.27	1593.32
533.46	1589.22
533.66	1501.16
533.86	1605.61
534.06	1673.19
534.26	1562.60
534.45	1527.78
534.65	1603.56
534.85	1576.94
535.05	1535.98
535.25	1550.31
535.44	1505.26
535.64	1583.08
535.84	1548.26
536.04	1523.69
536.24	1529.83
536.43	1462.25
536.63	1642.47
536.83	1480.68
537.03	1523.69
537.22	1488.87
537.42	1568.74
537.62	1523.69
537.82	1533.93
538.02	1562.60
538.21	1619.94
538.41	1646.57
538.61	1556.46
538.81	1499.11
539.00	1595.37
539.20	1449.96
539.40	1570.79
539.60	1499.11
539.79	1597.42
539.99	1470.44
540.19	1509.35
540.39	1538.02
540.58	1527.78
540.78	1562.60
540.98	1554.41
541.18	1492.97
541.37	1601.51
541.57	1456.11
541.77	1538.02
541.97	1501.16
542.16	1396.71
542.36	1482.73
542.56	1550.31
542.76	1617.90
542.95	1572.84
543.15	1560.55
543.35	1550.31
543.54	1544.17
543.74	1501.16
543.94	1587.18
544.14	1497.07
544.33	1538.02
544.53	1589.22
544.73	1497.07
544.93	1554.41
545.12	1546.22
545.32	1533.93
545.52	1470.44
545.71	1517.54
545.91	1503.21
546.11	1509.35
546.30	1482.73
546.50	1484.78
546.70	1521.64
546.90	1599.46
547.09	1445.87
547.29	1568.74
547.49	1628.14
547.68	1548.26
547.88	1482.73
548.08	1609.70
548.27	1929.19
548.47	1527.78
548.67	1540.07
548.87	1538.02
549.06	1505.26
549.26	1574.89
549.46	1527.78
549.65	1546.22
549.85	1501.16
550.05	1548.26
550.24	1505.26
550.44	1576.94
550.64	1472.49
550.83	1558.50
551.03	1601.51
551.23	1611.75
551.42	1550.31
551.62	1525.74
551.82	1492.97
552.01	1499.11
552.21	1578.98
552.41	1499.11
552.60	1693.67
552.80	1542.12
553.00	1497.07
553.19	1460.20
553.39	1599.46
553.59	1548.26
553.78	1581.03
553.98	1470.44
554.17	1591.27
554.37	1591.27
554.57	1669.09
554.76	1505.26
554.96	1456.11
555.16	1517.54
555.35	1542.12
555.55	1495.02
555.75	1605.61
555.94	1572.84
556.14	1515.50
556.33	1597.42
556.53	1615.85
556.73	1570.79
556.92	1558.50
557.12	1578.98
557.32	1626.09
557.51	1613.80
557.71	1607.66
557.90	1533.93
558.10	1585.13
558.30	1495.02
558.49	1492.97
558.69	1535.98
558.88	1550.31
559.08	1484.78
559.28	1488.87
559.47	1554.41
559.67	1562.60
559.86	1632.23
560.06	1517.54
560.26	1538.02
560.45	1552.36
560.65	1486.83
560.84	1595.37
561.04	1544.17
561.24	1558.50
561.43	1523.69
561.63	1609.70
561.82	1538.02
562.02	1574.89
562.22	1509.35
562.41	1511.40
562.61	1507.30
562.80	1527.78
563.00	1693.67
563.19	1578.98
563.39	1599.46
563.59	1605.61
563.78	1533.93
563.98	1505.26
564.17	1521.64
564.37	1497.07
564.56	1566.70
564.76	1460.20
564.96	1581.03
565.15	1554.41
565.35	1687.53
565.54	1482.73
565.74	1535.98
565.93	1527.78
566.13	1581.03
566.32	1572.84
566.52	1560.55
566.71	1517.54
566.91	1544.17
567.11	1552.36
567.30	1449.96
567.50	1566.70
567.69	1572.84
567.89	1499.11
568.08	1562.60
568.28	1538.02
568.47	1560.55
568.67	1589.22
568.86	1515.50
569.06	1589.22
569.25	1509.35
569.45	1564.65
569.64	1568.74
569.84	1562.60
570.04	1538.02
570.23	1560.55
570.43	1599.46
570.62	1626.09
570.82	1605.61
571.01	1527.78
571.21	1603.56
571.40	1486.83
571.60	1669.09
571.79	1652.71
571.99	1605.61
572.18	1484.78
572.38	1523.69
572.57	1538.02
572.77	1499.11
572.96	1591.27
573.16	1531.88
573.35	1581.03
573.55	1583.08
573.74	1554.41
573.94	1533.93
574.13	1507.30
574.33	1601.51
574.52	1607.66
574.71	1542.12
574.91	1566.70
575.10	1486.83
575.30	1595.37
575.49	1556.46
575.69	1552.36
575.88	1560.55
576.08	1638.38
576.27	1626.09
576.47	1636.33
576.66	1689.57
576.86	1595.37
577.05	1576.94
577.25	1636.33
577.44	1617.90
577.64	1566.70
577.83	1591.27
578.02	1552.36
578.22	1591.27
578.41	1730.53
578.61	1513.45
578.80	1456.11
579.00	1550.31
579.19	1482.73
579.39	1609.70
579.58	1591.27
579.77	1589.22
579.97	1603.56
580.16	1650.66
580.36	1695.72
580.55	1634.28
580.75	1669.09
580.94	1552.36
581.13	1665.00
581.33	1705.96
581.52	1558.50
581.72	1681.38
581.91	1675.24
582.11	1640.42
582.30	1654.76
582.49	1527.78
582.69	1658.85
582.88	1595.37
583.08	1595.37
583.27	1613.80
583.47	1595.37
583.66	1538.02
583.85	1542.12
584.05	1576.94
584.24	1611.75
584.44	1597.42
584.63	1759.21
584.82	1683.43
585.02	1730.53
585.21	1683.43
585.41	1675.24
585.60	1714.15
585.79	1814.50
585.99	1816.55
586.18	1812.45
586.37	2111.46
586.57	3188.69
586.76	9586.54
586.96	27434.59
587.15	43359.59
587.34	54156.49
587.54	61504.60
587.73	59370.61
587.93	43275.63
588.12	32034.33
588.31	26029.68
588.51	21894.83
588.70	19508.95
588.89	18472.68
589.09	16885.50
589.28	15220.50
589.47	13238.07
589.67	10985.30
589.86	8793.98
590.06	6619.04
590.25	5103.54
590.44	3874.76
590.64	2861.01
590.83	2369.50
591.02	2031.58
591.22	1853.41
591.41	1781.73
591.60	1812.45
591.80	1740.77
591.99	1652.71
592.18	1566.70
592.38	1576.94
592.57	1576.94
592.76	1603.56
592.96	1658.85
593.15	1613.80
593.34	1587.18
593.54	1535.98
593.73	1673.19
593.92	1597.42
594.12	1587.18
594.31	1581.03
594.50	1656.81
594.70	1665.00
594.89	1556.46
595.08	1619.94
595.28	1599.46
595.47	1712.10
595.66	1642.47
595.86	1529.83
596.05	1605.61
596.24	1507.30
596.43	1679.33
596.63	1671.14
596.82	1646.57
597.01	1626.09
597.21	1646.57
597.40	1583.08
597.59	1570.79
597.79	1531.88
597.98	1578.98
598.17	1578.98
598.36	1714.15
598.56	1515.50
598.75	1566.70
598.94	1591.27
599.14	1578.98
599.33	1507.30
599.52	1675.24
599.71	1578.98
599.91	1611.75
600.10	1624.04
600.29	1544.17
600.48	1556.46
600.68	1603.56
600.87	1509.35
601.06	1460.20
601.26	1570.79
601.45	1636.33
601.64	1484.78
601.83	1556.46
602.03	1576.94
602.22	1513.45
602.41	1591.27
602.60	1667.05
602.80	1615.85
602.99	1552.36
603.18	1540.07
603.37	1656.81
603.57	1605.61
603.76	1499.11
603.95	1527.78
604.14	1548.26
604.34	1458.15
604.53	1523.69
604.72	1624.04
604.91	1558.50
605.10	1589.22
605.30	1454.06
605.49	1656.81
605.68	1607.66
605.87	1624.04
606.07	1544.17
606.26	1581.03
606.45	1550.31
606.64	1523.69
606.84	1650.66
607.03	1662.95
607.22	1634.28
607.41	1615.85
607.60	1591.27
607.80	1548.26
607.99	1593.32
608.18	1593.32
608.37	1560.55
608.56	1488.87
608.76	1603.56
608.95	1675.24
609.14	1669.09
609.33	1671.14
609.52	1576.94
609.72	1671.14
609.91	1681.38
610.10	1603.56
610.29	1617.90
610.48	1660.90
610.68	1593.32
610.87	1564.65
611.06	1630.18
611.25	1587.18
611.44	1585.13
611.63	1544.17
611.83	1708.01
612.02	1492.97
612.21	1607.66
612.40	1505.26
612.59	1503.21
612.79	1492.97
612.98	1525.74
613.17	1562.60
613.36	1480.68
613.55	1636.33
613.74	1570.79
613.93	1775.59
614.13	1744.87
614.32	1748.97
614.51	1804.26
614.70	1665.00
614.89	1595.37
615.08	1669.09
615.28	1937.38
615.47	1542.12
615.66	1533.93
615.85	1609.70
616.04	1630.18
616.23	1632.23
616.42	1558.50
616.62	1597.42
616.81	1599.46
617.00	1531.88
617.19	1576.94
617.38	1482.73
617.57	1501.16
617.76	1673.19
617.95	1589.22
618.15	1546.22
618.34	1667.05
618.53	1482.73
618.72	1624.04
618.91	1611.75
619.10	1626.09
619.29	1599.46
619.48	1601.51
619.68	1507.30
619.87	1542.12
620.06	1480.68
620.25	1597.42
620.44	1486.83
620.63	1572.84
620.82	1628.14
621.01	1572.84
621.20	1605.61
621.39	1638.38
621.59	1566.70
621.78	1556.46
621.97	1570.79
622.16	1546.22
622.35	1595.37
622.54	1540.07
622.73	1601.51
622.92	1542.12
623.11	1626.09
623.30	1542.12
623.49	1490.92
623.68	1566.70
623.88	1513.45
624.07	1501.16
624.26	1556.46
624.45	1548.26
624.64	1552.36
624.83	1552.36
625.02	1529.83
625.21	1574.89
625.40	1564.65
625.59	1562.60
625.78	1560.55
625.97	1642.47
626.16	1677.29
626.35	1658.85
626.54	1570.79
626.74	1714.15
626.93	1570.79
627.12	1589.22
627.31	1648.61
627.50	1583.08
627.69	1558.50
627.88	1529.83
628.07	1546.22
628.26	1501.16
628.45	1538.02
628.64	1509.35
628.83	1613.80
629.02	1531.88
629.21	1535.98
629.40	1533.93
629.59	1548.26
629.78	1495.02
629.97	1525.74
630.16	1566.70
630.35	1486.83
630.54	1531.88
630.73	1492.97
630.92	1566.70
631.11	1550.31
631.30	1519.59
631.49	1591.27
631.68	1548.26
631.87	1546.22
632.06	1501.16
632.25	1665.00
632.44	1550.31
632.63	1552.36
632.82	1552.36
633.01	1617.90
633.20	1558.50
633.39	1617.90
633.58	1564.65
633.77	1677.29
633.96	1632.23
634.15	1533.93
634.34	1652.71
634.53	1640.42
634.72	1535.98
634.91	1488.87
635.10	1621.99
635.29	1624.04
635.48	1511.40
635.67	1550.31
635.86	1503.21
636.05	1593.32
636.24	1468.39
636.43	1546.22
636.62	1542.12
636.81	1437.67
637.00	1568.74
637.19	1589.22
637.38	1560.55
637.57	1501.16
637.76	1552.36
637.95	1689.57
638.14	1611.75
638.33	1621.99
638.52	1640.42
638.71	1566.70
638.89	1591.27
639.08	1675.24
639.27	1699.81
639.46	1593.32
639.65	1961.95
639.84	2007.01
640.03	2070.50
640.22	2119.65
640.41	2279.39
640.60	1914.85
640.79	1808.36
640.98	1744.87
641.17	1732.58
641.36	1742.82
641.55	1703.91
641.74	1626.09
641.92	1562.60
642.11	1613.80
642.30	1656.81
642.49	1513.45
642.68	1566.70
642.87	1523.69
643.06	1626.09
643.25	1497.07
643.44	1492.97
643.63	1593.32
643.82	1597.42
644.00	1507.30
644.19	1591.27
644.38	1488.87
644.57	1517.54
644.76	1550.31
644.95	1546.22
645.14	1556.46
645.33	1484.78
645.52	1517.54
645.71	1497.07
645.89	1464.30
646.08	1535.98
646.27	1525.74
646.46	1585.13
646.65	1492.97
646.84	1529.83
647.03	1466.35
647.22	1615.85
647.40	1619.94
647.59	1531.88
647.78	1445.87
647.97	1550.31
648.16	1548.26
648.35	1609.70
648.54	1650.66
648.73	1587.18
648.91	1617.90
649.10	1468.39
649.29	1560.55
649.48	1525.74
649.67	1572.84
649.86	1587.18
650.05	1603.56
650.23	1697.77
650.42	1722.34
650.61	1730.53
650.80	1775.59
650.99	1767.40
651.18	1667.05
651.36	1617.90
651.55	1599.46
651.74	1558.50
651.93	1589.22
652.12	1624.04
652.31	1544.17
652.49	1556.46
652.68	1576.94
652.87	1611.75
653.06	1521.64
653.25	1736.68
653.44	1570.79
653.62	1591.27
653.81	1609.70
654.00	1583.08
654.19	1572.84
654.38	1689.57
654.56	1589.22
654.75	1591.27
654.94	1587.18
655.13	1501.16
655.32	1599.46
655.51	1605.61
655.69	1564.65
655.88	1538.02
656.07	1497.07
656.26	1527.78
656.45	1476.59
656.63	1552.36
656.82	1570.79
657.01	1589.22
657.20	1550.31
657.38	1585.13
657.57	1497.07
657.76	1464.30
657.95	1615.85
658.14	1488.87
658.32	1552.36
658.51	1443.82
658.70	1566.70
658.89	1517.54
659.08	1576.94
659.26	1656.81
659.45	1515.50
659.64	1609.70
659.83	1560.55
660.01	1748.97
660.20	1574.89
660.39	1650.66
660.58	1550.31
660.76	1632.23
660.95	1431.53
661.14	1601.51
661.33	1548.26
661.51	1470.44
661.70	1503.21
661.89	1497.07
662.08	1505.26
662.26	1503.21
662.45	1564.65
662.64	1609.70
662.83	1558.50
663.01	1501.16
663.20	1517.54
663.39	1669.09
663.58	1533.93
663.76	1585.13
663.95	1570.79
664.14	1484.78
664.32	1605.61
664.51	1542.12
664.70	1472.49
664.89	1576.94
665.07	1507.30
665.26	1644.52
665.45	1497.07
665.64	1525.74
665.82	1572.84
666.01	1560.55
666.20	1531.88
666.38	1703.91
666.57	1636.33
666.76	1830.88
666.95	2885.59
667.13	7581.58
667.32	15253.27
667.51	19873.49
667.69	23555.74
667.88	25083.52
668.07	22167.21
668.25	15564.56
668.44	12576.58
668.63	9989.99
668.81	8441.73
669.00	7589.77
669.19	7026.58
669.38	6301.60
669.56	5554.09
669.75	4675.51
669.94	4077.51
670.12	3395.53
670.31	2818.00
670.50	2439.13
670.68	2146.27
670.87	1861.60
671.06	1800.16
671.24	1669.09
671.43	1705.96
671.62	1718.25
671.80	1671.14
671.99	1650.66
672.18	1660.90
672.36	1609.70
672.55	1572.84
672.74	1574.89
672.92	1576.94
673.11	1585.13
673.29	1474.54
673.48	1705.96
673.67	1583.08
673.85	1603.56
674.04	1552.36
674.23	1583.08
674.41	1615.85
674.60	1521.64
674.79	1443.82
674.97	1619.94
675.16	1546.22
675.34	1556.46
675.53	1517.54
675.72	1568.74
675.90	1611.75
676.09	1525.74
676.28	1546.22
676.46	1519.59
676.65	1572.84
676.83	1488.87
677.02	1472.49
677.21	1527.78
677.39	1527.78
677.58	1552.36
677.77	1505.26
677.95	1533.93
678.14	1519.59
678.32	1513.45
678.51	1540.07
678.70	1603.56
678.88	1497.07
679.07	1566.70
679.25	1552.36
679.44	1611.75
679.63	1460.20
679.81	1576.94
680.00	1646.57
680.18	1546.22
680.37	1572.84
680.55	1550.31
680.74	1499.11
680.93	1423.34
681.11	1556.46
681.30	1576.94
681.48	1550.31
681.67	1486.83
681.85	1581.03
682.04	1476.59
682.23	1611.75
682.41	1529.83
682.60	1460.20
682.78	1550.31
682.97	1523.69
683.15	1568.74
683.34	1535.98
683.53	1714.15
683.71	1468.39
683.90	1585.13
684.08	1562.60
684.27	1576.94
684.45	1568.74
684.64	1636.33
684.82	1507.30
685.01	1499.11
685.19	1486.83
685.38	1587.18
685.57	1538.02
685.75	1439.72
685.94	1525.74
686.12	1523.69
686.31	1505.26
686.49	1558.50
686.68	1443.82
686.86	1568.74
687.05	1480.68
687.23	1585.13
687.42	1566.70
687.60	1484.78
687.79	1552.36
687.97	1617.90
688.16	1540.07
688.34	1634.28
688.53	1421.29
688.71	1619.94
688.90	1595.37
689.08	1501.16
689.27	1478.63
689.45	1585.13
689.64	1525.74
689.82	1566.70
690.01	1566.70
690.19	1564.65
690.38	1578.98
690.56	1558.50
690.75	1478.63
690.93	1517.54
691.12	1533.93
691.30	1513.45
691.49	1474.54
691.67	1507.30
691.86	1615.85
692.04	1478.63
692.23	1558.50
692.41	1632.23
692.60	1716.20
692.78	1613.80
692.97	1554.41
693.15	1667.05
693.34	1667.05
693.52	1646.57
693.71	1515.50
693.89	1558.50
694.08	1519.59
694.26	1593.32
694.44	1538.02
694.63	1519.59
694.81	1540.07
695.00	1535.98
695.18	1609.70
695.37	1644.52
695.55	1578.98
695.74	1535.98
695.92	1552.36
696.10	1599.46
696.29	1542.12
696.47	1550.31
696.66	1445.87
696.84	1566.70
697.03	1558.50
697.21	1632.23
697.40	2105.31
697.58	1648.61
697.76	1533.93
697.95	1517.54
698.13	1423.34
698.32	1525.74
698.50	1554.41
698.68	1615.85
698.87	1523.69
699.05	1615.85
699.24	1540.07
699.42	1445.87
699.61	1558.50
699.79	1525.74
699.97	1515.50
700.16	1497.07
700.34	1495.02
700.53	1599.46
700.71	1630.18
700.89	1683.43
701.08	1562.60
701.26	1605.61
701.45	1875.94
701.63	1529.83
701.81	1507.30
702.00	1535.98
702.18	1521.64
702.37	1509.35
702.55	1632.23
702.73	1798.12
702.92	1755.11
703.10	1839.08
703.28	1761.25
703.47	1744.87
703.65	1820.64
703.84	1738.73
704.02	1679.33
704.20	1722.34
704.39	1628.14
704.57	1599.46
704.75	1656.81
704.94	1693.67
705.12	1613.80
705.30	1703.91
705.49	1820.64
705.67	2869.20
705.86	7313.30
706.04	14509.86
706.22	18818.78
706.41	21540.54
706.59	22808.23
706.77	20704.96
706.96	14634.78
707.14	11859.79
707.32	9725.80
707.51	8683.39
707.69	7530.38
707.87	6688.67
708.06	5773.22
708.24	4782.01
708.42	3672.01
708.61	2965.46
708.79	2306.01
708.97	1996.77
709.16	1869.80
709.34	1816.55
709.52	1617.90
709.71	1574.89
709.89	1605.61
710.07	1546.22
710.26	1486.83
710.44	1638.38
710.62	1556.46
710.80	1574.89
710.99	1585.13
711.17	1519.59
711.35	1521.64
711.54	1554.41
711.72	1585.13
711.90	1542.12
712.09	1628.14
712.27	1560.55
712.45	1603.56
712.63	1507.30
712.82	1566.70
713.00	1560.55
713.18	1564.65
713.37	1605.61
713.55	1527.78
713.73	1505.26
713.91	1597.42
714.10	1513.45
714.28	1556.46
714.46	1486.83
714.65	1558.50
714.83	1519.59
715.01	1562.60
715.19	1507.30
715.38	1507.30
715.56	1560.55
715.74	1509.35
715.92	1546.22
716.11	1574.89
716.29	1511.40
716.47	1501.16
716.65	1509.35
716.84	1466.35
717.02	1667.05
717.20	1523.69
717.38	1513.45
717.57	1540.07
717.75	1490.92
717.93	1517.54
718.11	1529.83
718.30	1535.98
718.48	1599.46
718.66	1583.08
718.84	1558.50
719.03	1546.22
719.21	1478.63
719.39	1652.71
719.57	1595.37
719.75	1591.27
719.94	1525.74
720.12	1482.73
720.30	1544.17
720.48	1513.45
720.67	1484.78
720.85	1589.22
721.03	1501.16
721.21	1548.26
721.39	1568.74
721.58	1533.93
721.76	1521.64
721.94	1572.84
722.12	1501.16
722.30	1578.98
722.49	1503.21
722.67	1538.02
722.85	1533.93
723.03	1447.91
723.21	1552.36
723.40	1517.54
723.58	1650.66
723.76	1636.33
723.94	1574.89
724.12	1660.90
724.30	1724.39
724.49	1597.42
724.67	1658.85
724.85	1648.61
725.03	1554.41
725.21	1570.79
725.40	1562.60
725.58	1527.78
725.76	1568.74
725.94	1578.98
726.12	1460.20
726.30	1564.65
726.49	1562.60
726.67	1495.02
726.85	1519.59
727.03	1562.60
727.21	1722.34
727.39	2166.75
727.57	3178.45
727.76	4315.07
727.94	4788.15
728.12	5136.31
728.30	5064.63
728.48	4292.54
728.66	3387.34
728.84	3239.89
729.03	2877.40
729.21	2619.35
729.39	2326.49
729.57	1984.48
729.75	1894.37
729.93	1775.59
730.11	1695.72
730.30	1593.32
730.48	1570.79
730.66	1591.27
730.84	1589.22
731.02	1578.98
731.20	1497.07
731.38	1581.03
731.56	1517.54
731.74	1476.59
731.93	1492.97
732.11	1515.50
732.29	1546.22
732.47	1562.60
732.65	1538.02
732.83	1634.28
733.01	1529.83
733.19	1482.73
733.37	1505.26
733.56	1525.74
733.74	1488.87
733.92	1589.22
734.10	1404.91
734.28	1509.35
734.46	1529.83
734.64	1454.06
734.82	1574.89
735.00	1535.98
735.18	1503.21
735.36	1574.89
735.54	1550.31
735.73	1587.18
735.91	1505.26
736.09	1589.22
736.27	1486.83
736.45	1554.41
736.63	1456.11
736.81	1531.88
736.99	1593.32
737.17	1638.38
737.35	1527.78
737.53	1519.59
737.71	1478.63
737.89	1617.90
738.07	1478.63
738.25	1503.21
738.43	1462.25
738.61	1578.98
738.80	1480.68
738.98	1439.72
739.16	1542.12
739.34	1546.22
739.52	1599.46
739.70	1593.32
739.88	1650.66
740.06	1597.42
740.24	1435.63
740.42	1667.05
740.60	1476.59
740.78	1423.34
740.96	1392.62
741.14	1441.77
741.32	1507.30
741.50	1454.06
741.68	1589.22
741.86	1574.89
742.04	1550.31
742.22	1476.59
742.40	1482.73
742.58	1609.70
742.76	1484.78
742.94	1601.51
743.12	1478.63
743.30	1511.40
743.48	1576.94
743.66	1519.59
743.84	1581.03
744.02	1505.26
744.20	1619.94
744.38	1474.54
744.56	1529.83
744.74	1615.85
744.92	1499.11
745.10	1525.74
745.28	1630.18
745.46	1525.74
745.64	1591.27
745.82	1554.41
746.00	1492.97
746.18	1550.31
746.36	1527.78
746.54	1576.94
746.72	1488.87
746.90	1521.64
747.08	1599.46
747.26	1538.02
747.44	1533.93
747.62	1613.80
747.80	1507.30
747.98	1638.38
748.15	1558.50
748.33	1642.47
748.51	1550.31
748.69	1671.14
748.87	1525.74
749.05	1503.21
749.23	1560.55
749.41	1562.60
749.59	1538.02
749.77	1611.75
749.95	1546.22
750.13	1460.20
750.31	1468.39
750.49	1533.93
750.67	1523.69
750.85	1638.38
751.03	1570.79
751.20	1634.28
751.38	1554.41
751.56	1531.88
751.74	1554.41
751.92	1458.15
752.10	1501.16
752.28	1566.70
752.46	1560.55
752.64	1603.56
752.82	1507.30
753.00	1636.33
753.18	1525.74
753.35	1478.63
753.53	1497.07
753.71	1519.59
753.89	1529.83
754.07	1585.13
754.25	1576.94
754.43	1519.59
754.61	1462.25
754.79	1589.22
754.97	1515.50
755.14	1548.26
755.32	1509.35
755.50	1558.50
755.68	1482.73
755.86	1546.22
756.04	1560.55
756.22	1452.01
756.40	1566.70
756.57	1556.46
756.75	1591.27
756.93	1576.94
757.11	1632.23
757.29	1550.31
757.47	1472.49
757.65	1460.20
757.82	1441.77
758.00	1521.64
758.18	1529.83
758.36	1509.35
758.54	1583.08
758.72	1433.58
758.90	1578.98
759.07	1576.94
759.25	1427.43
759.43	1499.11
759.61	1468.39
759.79	1908.71
759.97	1507.30
760.15	1546.22
760.32	1480.68
760.50	1611.75
760.68	1691.62
760.86	1470.44
761.04	1673.19
761.22	1556.46
761.39	1495.02
761.57	1554.41
761.75	1533.93
761.93	1568.74
762.11	1562.60
762.28	1544.17
762.46	1492.97
762.64	1607.66
762.82	1419.24
763.00	1521.64
763.18	1560.55
763.35	1456.11
763.53	1558.50
763.71	1566.70
763.89	1521.64
764.07	1546.22
764.24	1503.21
764.42	1488.87
764.60	1476.59
764.78	1533.93
764.96	1611.75
765.13	1609.70
765.31	1519.59
765.49	1540.07
765.67	1490.92
765.84	1488.87
766.02	1511.40
766.20	1460.20
766.38	1535.98
766.56	1566.70
766.73	1605.61
766.91	1495.02
767.09	1517.54
767.27	1535.98
767.44	1495.02
767.62	1511.40
767.80	1566.70
767.98	1521.64
768.15	1542.12
768.33	1619.94
768.51	1574.89
768.69	1615.85
768.87	1544.17
769.04	1542.12
769.22	1564.65
769.40	1591.27
769.58	1611.75
769.75	1562.60
769.93	1591.27
770.11	1515.50
770.28	1470.44
770.46	1650.66
770.64	1538.02
770.82	1507.30
770.99	1488.87
771.17	1542.12
771.35	1601.51
771.53	1495.02
771.70	1523.69
771.88	1519.59
772.06	1505.26
772.23	1464.30
772.41	1538.02
772.59	1492.97
772.77	1515.50
772.94	1540.07
773.12	1562.60
773.30	1521.64
773.47	1570.79
773.65	1488.87
773.83	1642.47
774.01	1511.40
774.18	1527.78
774.36	1599.46
774.54	1427.43
774.71	1572.84
774.89	1472.49
775.07	1527.78
775.24	1595.37
775.42	1482.73
775.60	1669.09
775.78	1519.59
775.95	1421.29
776.13	1523.69
776.31	1462.25
776.48	1548.26
776.66	1519.59
776.84	1578.98
777.01	1525.74
777.19	1480.68
777.37	1562.60
777.54	1619.94
777.72	1552.36
777.90	1570.79
778.07	1488.87
778.25	1613.80
778.43	1495.02
778.60	1554.41
778.78	1542.12
778.96	1574.89
779.13	1554.41
779.31	1533.93
779.49	1501.16
779.66	1540.07
779.84	1538.02
780.01	1505.26
780.19	1495.02
780.37	1599.46
780.54	1552.36
780.72	1554.41
780.90	1499.11
781.07	1548.26
781.25	1513.45
781.43	1556.46
781.60	1550.31
781.78	1552.36
781.95	1515.50
782.13	1501.16
782.31	1472.49
782.48	1495.02
782.66	1521.64
782.83	1626.09
783.01	1519.59
783.19	1585.13
783.36	1513.45
783.54	1542.12
783.72	1679.33
783.89	1523.69
784.07	1525.74
784.24	1548.26
784.42	1603.56
784.60	1527.78
784.77	1540.07
784.95	1533.93
785.12	1497.07
785.30	1587.18
785.47	1509.35
785.65	1538.02
785.83	1574.89
786.00	1525.74
786.18	1595.37
786.35	1574.89
786.53	1517.54
786.71	1652.71
786.88	1531.88
787.06	1542.12
787.23	1538.02
787.41	1470.44
787.58	1472.49
787.76	1396.71
787.94	1568.74
788.11	1525.74
788.29	1509.35
788.46	1443.82
788.64	1507.30
788.81	1472.49
788.99	1527.78
789.16	1554.41
789.34	1501.16
789.52	1540.07
789.69	1513.45
789.87	1466.35
790.04	1523.69
790.22	1533.93
790.39	1570.79
790.57	1527.78
790.74	1439.72
790.92	1542.12
791.09	1406.95
791.27	1554.41
791.44	1617.90
791.62	1501.16
791.79	1552.36
791.97	1546.22
792.15	1669.09
792.32	1509.35
792.50	1583.08
792.67	1601.51
792.85	1642.47
793.02	1554.41
793.20	1492.97
793.37	1347.56
793.55	1501.16
793.72	1486.83
793.90	1593.32
794.07	1484.78
794.25	1544.17
794.42	1492.97
794.60	1527.78
794.77	1619.94
794.95	1640.42
795.12	1564.65
795.30	1531.88
795.47	1490.92
795.65	1648.61
795.82	1529.83
796.00	1505.26
796.17	1490.92
796.34	1552.36
796.52	1492.97
796.69	1583.08
796.87	1519.59
797.04	1585.13
797.22	1585.13
797.39	1646.57
797.57	1523.69
797.74	1566.70
797.92	1499.11
798.09	1482.73
798.27	1599.46
798.44	1458.15
798.62	1527.78
798.79	1589.22
798.96	1650.66
799.14	1470.44
799.31	1615.85
799.49	1497.07
799.66	1480.68
799.84	1480.68
800.01	1433.58
800.19	1619.94
800.36	1527.78
800.53	1568.74
800.71	1509.35
800.88	1605.61
801.06	1566.70
801.23	1476.59
801.41	1533.93
801.58	1544.17
801.75	1576.94
801.93	1609.70
802.10	1589.22
802.28	1503.21
802.45	1576.94
802.63	1554.41
802.80	1548.26
802.97	1515.50
803.15	1634.28
803.32	1535.98
803.50	1523.69
803.67	1540.07
803.84	1427.43
804.02	1570.79
804.19	1544.17
804.37	1509.35
804.54	1505.26
804.71	1535.98
804.89	1501.16
805.06	1482.73
805.24	1443.82
805.41	1501.16
805.58	1378.28
805.76	1615.85
805.93	1466.35
806.10	1595.37
806.28	1531.88
806.45	1492.97
806.63	1574.89
806.80	1531.88
806.97	1601.51
807.15	1550.31
807.32	1595.37
807.49	1611.75
807.67	1443.82
807.84	1587.18
808.01	1515.50
808.19	1638.38
808.36	1646.57
808.54	1507.30
808.71	1486.83
808.88	1507.30
809.06	1490.92
809.23	1626.09
809.40	1511.40
809.58	1533.93
809.75	1517.54
809.92	1519.59
810.10	1585.13
810.27	1497.07
810.44	1556.46
810.62	1531.88
810.79	1568.74
810.96	1544.17
811.14	1585.13
811.31	1540.07
811.48	1513.45
811.66	1482.73
811.83	1558.50
812.00	1562.60
812.18	1585.13
812.35	1624.04
812.52	1576.94
812.69	1515.50
812.87	1531.88
813.04	1538.02
813.21	1566.70
813.39	1486.83
813.56	1472.49
813.73	1621.99
813.91	1488.87
814.08	1566.70
814.25	1484.78
814.42	1435.63
814.60	1507.30
814.77	1578.98
814.94	1484.78
815.12	1527.78
815.29	1548.26
815.46	1578.98
815.63	1601.51
815.81	1513.45
815.98	1535.98
816.15	1519.59
816.33	1538.02
816.50	1542.12
816.67	1533.93
816.84	1523.69
817.02	1454.06
817.19	1460.20
817.36	1552.36
817.53	1501.16
817.71	1452.01
817.88	1624.04
818.05	1509.35
818.22	1515.50
818.40	1630.18
818.57	1517.54
818.74	1544.17
818.91	1507.30
819.09	1599.46
819.26	1624.04
819.43	1550.31
819.60	1464.30
819.78	1556.46
819.95	1613.80
820.12	1513.45
820.29	1558.50
820.47	1570.79
820.64	1511.40
820.81	1429.48
820.98	1540.07
821.15	1501.16
821.33	1572.84
821.50	1505.26
821.67	1546.22
821.84	1443.82
822.02	1527.78
822.19	1660.90
822.36	1509.35
822.53	1535.98
822.70	1472.49
822.88	1531.88
823.05	1486.83
823.22	1554.41
823.39	1581.03
823.56	1503.21
823.74	1583.08
823.91	1517.54
824.08	1447.91
824.25	1503.21
824.42	1595.37
824.60	1490.92
824.77	1560.55
824.94	1492.97
825.11	1535.98
825.28	1474.54
825.45	1568.74
825.63	1554.41
825.80	1511.40
825.97	1558.50
826.14	1505.26
826.31	1505.26
826.48	1531.88
826.66	1492.97
826.83	1585.13
827.00	1554.41
827.17	1472.49
827.34	1552.36
827.51	1497.07
827.69	1503.21
827.86	1435.63
828.03	1566.70
828.20	1556.46
828.37	1505.26
828.54	1470.44
828.71	1466.35
828.89	1654.76
829.06	1505.26
829.23	1540.07
829.40	1447.91
829.57	1560.55
829.74	1615.85
829.91	1589.22
830.09	1478.63
830.26	1591.27
830.43	1570.79
830.60	1476.59
830.77	1585.13
830.94	1544.17
831.11	1613.80
831.28	1601.51
831.46	1529.83
831.63	1519.59
831.80	1574.89
831.97	1546.22
832.14	1427.43
832.31	1603.56
832.48	1464.30
832.65	1544.17
832.82	1509.35
832.99	1599.46
833.17	1558.50
833.34	1574.89
833.51	1591.27
833.68	1435.63
833.85	1558.50
834.02	1495.02
834.19	1499.11
834.36	1499.11
834.53	1591.27
834.70	1568.74
834.87	1560.55
835.04	1445.87
835.22	1519.59
835.39	1499.11
835.56	1472.49
835.73	1480.68
835.90	1503.21
836.07	1443.82
836.24	1478.63
836.41	1583.08
836.58	1503.21
836.75	1636.33
836.92	1626.09
837.09	1531.88
837.26	1523.69
837.43	1513.45
837.60	1589.22
837.77	1501.16
837.94	1523.69
838.12	1617.90
838.29	1560.55
838.46	1427.43
838.63	1495.02
838.80	1517.54
838.97	1542.12
839.14	1462.25
839.31	1556.46
839.48	1542.12
839.65	1540.07
839.82	1540.07
839.99	1550.31
840.16	1527.78
840.33	1472.49
840.50	1583.08
840.67	1486.83
840.84	1503.21
841.01	1495.02
841.18	1519.59
841.35	1497.07
841.52	1574.89
841.69	1593.32
841.86	1519.59
842.03	1501.16
842.20	1513.45
842.37	1519.59
842.54	1615.85
842.71	1552.36
842.88	1538.02
843.05	1544.17
843.22	1535.98
843.39	1509.35
843.56	1509.35
843.73	1511.40
843.90	1570.79
844.07	1581.03
844.24	1601.51
844.41	1540.07
844.58	1533.93
844.75	1613.80
844.92	1572.84
845.09	1449.96
845.26	1511.40
845.43	1589.22
845.60	1480.68
845.77	1492.97
845.94	1527.78
846.10	1572.84
846.27	1460.20
846.44	1497.07
846.61	1460.20
846.78	1456.11
846.95	1501.16
847.12	1431.53
847.29	1495.02
847.46	1509.35
847.63	1601.51
847.80	1474.54
847.97	1558.50
848.14	1572.84
848.31	1568.74
848.48	1472.49
848.65	1581.03
848.82	1431.53
848.98	1601.51
849.15	1548.26
849.32	1544.17
849.49	1566.70
849.66	1517.54
849.83	1517.54
850.00	1452.01
850.17	1644.52
850.34	1501.16
850.51	1482.73
850.68	1564.65
850.85	1667.05
851.01	1538.02
851.18	1513.45
851.35	1533.93
851.52	1538.02
851.69	1574.89
851.86	1478.63
852.03	1560.55
852.20	1564.65
852.37	1462.25
852.53	1454.06
852.70	1482.73
852.87	1542.12
853.04	1630.18
853.21	1556.46
853.38	1558.50
853.55	1609.70
853.72	1605.61
853.89	1429.48
854.05	1484.78
854.22	1454.06
854.39	1527.78
854.56	1544.17
854.73	1581.03
854.90	1427.43
855.07	1503.21
855.23	1482.73
855.40	1460.20
855.57	1447.91
855.74	1578.98
855.91	1599.46
856.08	1490.92
856.25	1437.67
856.41	1556.46
856.58	1505.26
856.75	1648.61
856.92	1523.69
857.09	1654.76
857.26	1445.87
857.42	1505.26
857.59	1533.93
857.76	1517.54
857.93	1533.93
858.10	1566.70
858.27	1550.31
858.43	1558.50
858.60	1443.82
858.77	1417.19
858.94	1492.97
859.11	1593.32
859.27	1558.50
859.44	1558.50
859.61	1574.89
859.78	1560.55
859.95	1476.59
860.12	1550.31
860.28	1613.80
860.45	1689.57
860.62	1505.26
860.79	1574.89
860.95	1546.22
861.12	1476.59
861.29	1460.20
861.46	1505.26
861.63	1511.40
861.79	1562.60
861.96	1554.41
862.13	1488.87
862.30	1589.22
862.47	1564.65
862.63	1519.59
862.80	1578.98
862.97	1589.22
863.14	1568.74
863.30	1564.65
863.47	1497.07
863.64	1515.50
863.81	1499.11
863.97	1542.12
864.14	1576.94
864.31	1490.92
864.48	1476.59
864.65	1615.85
864.81	1570.79
864.98	1554.41
865.15	1523.69
865.32	1589.22
865.48	1542.12
865.65	1566.70
865.82	1529.83
865.98	1591.27
866.15	1595.37
866.32	1554.41
866.49	1492.97
866.65	1628.14
866.82	1480.68
866.99	1591.27
867.16	1558.50
867.32	1492.97
867.49	1490.92
867.66	1578.98
867.83	1570.79
867.99	1443.82
868.16	1533.93
868.33	1460.20
868.49	1544.17
868.66	1499.11
868.83	1550.31
868.99	1529.83
869.16	1599.46
869.33	1595.37
869.50	1486.83
869.66	1531.88
869.83	1568.74
870.00	1437.67
870.16	1501.16
870.33	1548.26
870.50	1585.13
870.66	1552.36
870.83	1621.99
871.00	1480.68
871.17	1576.94
871.33	1597.42
871.50	1515.50
871.67	1544.17
871.83	1488.87
872.00	1665.00
872.17	1535.98
872.33	1683.43
872.50	1538.02
872.67	1486.83
872.83	1527.78
873.00	1484.78
873.17	1472.49
873.33	1587.18
873.50	1554.41
873.67	1507.30
873.83	1482.73
874.00	1509.35
874.16	1654.76
874.33	1511.40
874.50	1572.84
874.66	1574.89
874.83	1497.07
875.00	1642.47
875.16	1570.79
875.33	1550.31
875.50	1382.38
875.66	1513.45
875.83	1581.03
875.99	1538.02
876.16	1468.39
876.33	1544.17
876.49	1560.55
876.66	1552.36
876.83	1597.42
876.99	1452.01
877.16	1538.02
877.32	1521.64
877.49	1542.12
877.66	1605.61
877.82	1486.83
877.99	1570.79
878.15	1652.71
878.32	1562.60
878.49	1578.98
878.65	1574.89
878.82	1554.41
878.98	1501.16
879.15	1533.93
879.32	1540.07
879.48	1486.83
879.65	1527.78
879.81	1554.41
879.98	1515.50
880.15	1484.78
880.31	1587.18
880.48	1531.88
880.64	1538.02
880.81	1583.08
880.97	1710.05
881.14	1613.80
881.31	1546.22
881.47	1642.47
881.64	1495.02
881.80	1435.63
881.97	1509.35
882.13	1556.46
882.30	1488.87
882.47	1513.45
882.63	1490.92
882.80	1529.83
882.96	1452.01
883.13	1646.57
883.29	1525.74
883.46	1540.07
883.62	1656.81
883.79	1585.13
883.95	1634.28
884.12	1562.60
884.29	1550.31
884.45	1458.15
884.62	1576.94
884.78	1466.35
884.95	1605.61
885.11	1574.89
885.28	1621.99
885.44	1480.68
885.61	1546.22
885.77	1601.51
885.94	1570.79
886.10	1490.92
886.27	1605.61
886.43	1583.08
886.60	1630.18
886.76	1564.65
886.93	1439.72
887.09	1560.55
887.26	1476.59
887.42	1501.16
887.59	1572.84
887.75	1568.74
887.92	1591.27
888.08	1609.70
888.25	1603.56
888.41	1638.38
888.58	1548.26
888.74	1556.46
888.91	1550.31
>>>>>End Processed Spectral Data<<<<<
