SpectraSuite Data File
++++++++++++++++++++++++++++++++++++
Date: Tue May 03 12:55:16 CEST 2016
User: root
Dark Spectrum Present: No
Reference Spectrum Present: No
Number of Sampled Component Spectra: 1
Spectrometers: USB4C02835
Integration Time (usec): 100000 (USB4C02835)
Spectra Averaged: 1 (USB4C02835)
Boxcar Smoothing: 0 (USB4C02835)
Correct for Electrical Dark: No (USB4C02835)
Strobe/Lamp Enabled: No (USB4C02835)
Correct for Detector Non-linearity: No (USB4C02835)
Correct for Stray Light: No (USB4C02835)
Number of Pixels in Processed Spectrum: 3648
>>>>>Begin Processed Spectral Data<<<<<
177.47	1349.61
177.69	1349.61
177.91	1349.61
178.13	1329.13
178.36	1327.08
178.58	1454.06
178.80	1572.84
179.02	1546.22
179.24	1527.78
179.46	1482.73
179.68	1531.88
179.90	1540.07
180.13	1542.12
180.35	1540.07
180.57	1542.12
180.79	1581.03
181.01	1564.65
181.23	1642.47
181.45	1499.11
181.67	1550.31
181.90	1558.50
182.12	1458.15
182.34	1513.45
182.56	1585.13
182.78	1513.45
183.00	1611.75
183.22	1560.55
183.44	1425.39
183.66	1566.70
183.89	1531.88
184.11	1521.64
184.33	1597.42
184.55	1660.90
184.77	1546.22
184.99	1495.02
185.21	1433.58
185.43	1636.33
185.65	1523.69
185.87	1570.79
186.10	1658.85
186.32	1648.61
186.54	1521.64
186.76	1509.35
186.98	1583.08
187.20	1517.54
187.42	1505.26
187.64	1470.44
187.86	1538.02
188.08	1601.51
188.30	1511.40
188.52	1544.17
188.75	1642.47
188.97	1576.94
189.19	1511.40
189.41	1529.83
189.63	1484.78
189.85	1497.07
190.07	1464.30
190.29	1538.02
190.51	1548.26
190.73	1529.83
190.95	1548.26
191.17	1490.92
191.39	1443.82
191.61	1495.02
191.84	1560.55
192.06	1497.07
192.28	1409.00
192.50	1673.19
192.72	1605.61
192.94	1544.17
193.16	1554.41
193.38	1558.50
193.60	1437.67
193.82	1519.59
194.04	1552.36
194.26	1593.32
194.48	1542.12
194.70	1591.27
194.92	1495.02
195.14	1583.08
195.36	1552.36
195.58	1615.85
195.80	1482.73
196.02	1509.35
196.24	1521.64
196.46	1552.36
196.69	1531.88
196.91	1648.61
197.13	1423.34
197.35	1464.30
197.57	1626.09
197.79	1601.51
198.01	1603.56
198.23	1478.63
198.45	1562.60
198.67	1427.43
198.89	1593.32
199.11	1507.30
199.33	1503.21
199.55	1417.19
199.77	1470.44
199.99	1605.61
200.21	1439.72
200.43	1495.02
200.65	1488.87
200.87	1437.67
201.09	1505.26
201.31	1525.74
201.53	1533.93
201.75	1572.84
201.97	1591.27
202.19	1533.93
202.41	1581.03
202.63	1619.94
202.85	1650.66
203.07	1583.08
203.29	1486.83
203.51	1525.74
203.73	1470.44
203.95	1705.96
204.17	1576.94
204.39	1552.36
204.61	1578.98
204.83	1472.49
205.05	1605.61
205.27	1621.99
205.49	1632.23
205.71	1552.36
205.93	1490.92
206.15	1503.21
206.37	1480.68
206.59	1546.22
206.81	1527.78
207.03	1443.82
207.25	1546.22
207.47	1538.02
207.69	1523.69
207.91	1603.56
208.13	1578.98
208.34	1517.54
208.56	1499.11
208.78	1544.17
209.00	1554.41
209.22	1429.48
209.44	1497.07
209.66	1449.96
209.88	1574.89
210.10	1503.21
210.32	1509.35
210.54	1599.46
210.76	1533.93
210.98	1578.98
211.20	1470.44
211.42	1538.02
211.64	1585.13
211.86	1560.55
212.08	1624.04
212.30	1578.98
212.52	1523.69
212.74	1578.98
212.96	1501.16
213.17	1544.17
213.39	1480.68
213.61	1581.03
213.83	1603.56
214.05	1454.06
214.27	1540.07
214.49	1476.59
214.71	1542.12
214.93	1585.13
215.15	1490.92
215.37	1517.54
215.59	1462.25
215.81	1599.46
216.03	1564.65
216.24	1554.41
216.46	1515.50
216.68	1562.60
216.90	1566.70
217.12	1576.94
217.34	1560.55
217.56	1597.42
217.78	1499.11
218.00	1478.63
218.22	1603.56
218.44	1501.16
218.66	1560.55
218.87	1605.61
219.09	1472.49
219.31	1599.46
219.53	1572.84
219.75	1499.11
219.97	1529.83
220.19	1601.51
220.41	1523.69
220.63	1626.09
220.85	1601.51
221.06	1447.91
221.28	1562.60
221.50	1562.60
221.72	1607.66
221.94	1480.68
222.16	1544.17
222.38	1515.50
222.60	1566.70
222.82	1540.07
223.03	1531.88
223.25	1472.49
223.47	1615.85
223.69	1599.46
223.91	1497.07
224.13	1501.16
224.35	1556.46
224.57	1615.85
224.78	1540.07
225.00	1517.54
225.22	1466.35
225.44	1587.18
225.66	1581.03
225.88	1548.26
226.10	1644.52
226.32	1599.46
226.53	1552.36
226.75	1490.92
226.97	1566.70
227.19	1517.54
227.41	1521.64
227.63	1495.02
227.85	1462.25
228.06	1570.79
228.28	1550.31
228.50	1578.98
228.72	1478.63
228.94	1527.78
229.16	1433.58
229.37	1535.98
229.59	1480.68
229.81	1546.22
230.03	1533.93
230.25	1519.59
230.47	1527.78
230.69	1404.91
230.90	1605.61
231.12	1556.46
231.34	1560.55
231.56	1609.70
231.78	1470.44
232.00	1560.55
232.21	1562.60
232.43	1581.03
232.65	1437.67
232.87	1519.59
233.09	1490.92
233.30	1499.11
233.52	1523.69
233.74	1505.26
233.96	1585.13
234.18	1566.70
234.40	1578.98
234.61	1607.66
234.83	1495.02
235.05	1535.98
235.27	1566.70
235.49	1617.90
235.70	1523.69
235.92	1607.66
236.14	1495.02
236.36	1597.42
236.58	1492.97
236.79	1523.69
237.01	1472.49
237.23	1572.84
237.45	1656.81
237.67	1535.98
237.88	1546.22
238.10	1517.54
238.32	1495.02
238.54	1542.12
238.76	1570.79
238.97	1517.54
239.19	1525.74
239.41	1632.23
239.63	1497.07
239.85	1517.54
240.06	1492.97
240.28	1529.83
240.50	1535.98
240.72	1562.60
240.93	1505.26
241.15	1591.27
241.37	1480.68
241.59	1566.70
241.81	1490.92
242.02	1488.87
242.24	1542.12
242.46	1568.74
242.68	1517.54
242.89	1568.74
243.11	1572.84
243.33	1527.78
243.55	1507.30
243.76	1558.50
243.98	1474.54
244.20	1583.08
244.42	1554.41
244.64	1568.74
244.85	1419.24
245.07	1501.16
245.29	1546.22
245.51	1499.11
245.72	1611.75
245.94	1538.02
246.16	1589.22
246.38	1595.37
246.59	1505.26
246.81	1581.03
247.03	1445.87
247.24	1474.54
247.46	1474.54
247.68	1558.50
247.90	1581.03
248.11	1546.22
248.33	1570.79
248.55	1558.50
248.77	1544.17
248.98	1613.80
249.20	1560.55
249.42	1538.02
249.64	1583.08
249.85	1523.69
250.07	1523.69
250.29	1589.22
250.50	1589.22
250.72	1521.64
250.94	1533.93
251.16	1607.66
251.37	1621.99
251.59	1562.60
251.81	1593.32
252.02	1566.70
252.24	1501.16
252.46	1554.41
252.68	1550.31
252.89	1490.92
253.11	1478.63
253.33	1665.00
253.54	1540.07
253.76	1443.82
253.98	1535.98
254.20	1437.67
254.41	1359.85
254.63	1517.54
254.85	1464.30
255.06	1503.21
255.28	1595.37
255.50	1503.21
255.71	1556.46
255.93	1484.78
256.15	1546.22
256.36	1513.45
256.58	1533.93
256.80	1603.56
257.02	1599.46
257.23	1511.40
257.45	1568.74
257.67	1542.12
257.88	1513.45
258.10	1503.21
258.32	1525.74
258.53	1515.50
258.75	1589.22
258.97	1478.63
259.18	1538.02
259.40	1611.75
259.62	1538.02
259.83	1630.18
260.05	1681.38
260.27	1751.01
260.48	1527.78
260.70	1495.02
260.92	1542.12
261.13	1656.81
261.35	1533.93
261.57	1585.13
261.78	1421.29
262.00	1445.87
262.22	1515.50
262.43	1554.41
262.65	1513.45
262.86	1570.79
263.08	1615.85
263.30	1574.89
263.51	1443.82
263.73	1538.02
263.95	1671.14
264.16	1484.78
264.38	1513.45
264.60	1568.74
264.81	1576.94
265.03	1476.59
265.25	1599.46
265.46	1597.42
265.68	1603.56
265.89	1525.74
266.11	1464.30
266.33	1521.64
266.54	1574.89
266.76	1585.13
266.98	1538.02
267.19	1558.50
267.41	1535.98
267.62	1503.21
267.84	1507.30
268.06	1568.74
268.27	1447.91
268.49	1626.09
268.70	1624.04
268.92	1538.02
269.14	1456.11
269.35	1533.93
269.57	1562.60
269.79	1540.07
270.00	1517.54
270.22	1638.38
270.43	1474.54
270.65	1431.53
270.87	1570.79
271.08	1583.08
271.30	1585.13
271.51	1538.02
271.73	1585.13
271.95	1558.50
272.16	1548.26
272.38	1636.33
272.59	1523.69
272.81	1531.88
273.02	1540.07
273.24	1562.60
273.46	1585.13
273.67	1413.10
273.89	1443.82
274.10	1517.54
274.32	1578.98
274.54	1472.49
274.75	1542.12
274.97	1470.44
275.18	1517.54
275.40	1574.89
275.61	1495.02
275.83	1556.46
276.05	1439.72
276.26	1478.63
276.48	1538.02
276.69	1548.26
276.91	1437.67
277.12	1525.74
277.34	1548.26
277.55	1626.09
277.77	1535.98
277.99	1492.97
278.20	1409.00
278.42	1462.25
278.63	1456.11
278.85	1527.78
279.06	1482.73
279.28	1507.30
279.49	1603.56
279.71	1597.42
279.93	1617.90
280.14	1462.25
280.36	1533.93
280.57	1578.98
280.79	1576.94
281.00	1521.64
281.22	1548.26
281.43	1583.08
281.65	1458.15
281.86	1503.21
282.08	1613.80
282.29	1570.79
282.51	1439.72
282.73	1533.93
282.94	1511.40
283.16	1538.02
283.37	1597.42
283.59	1456.11
283.80	1519.59
284.02	1574.89
284.23	1621.99
284.45	1511.40
284.66	1523.69
284.88	1499.11
285.09	1587.18
285.31	1519.59
285.52	1503.21
285.74	1472.49
285.95	1652.71
286.17	1572.84
286.38	1583.08
286.60	1441.77
286.81	1546.22
287.03	1519.59
287.24	1480.68
287.46	1570.79
287.67	1578.98
287.89	1630.18
288.10	1488.87
288.32	1568.74
288.53	1593.32
288.75	1576.94
288.96	1558.50
289.18	1474.54
289.39	1603.56
289.61	1619.94
289.82	1687.53
290.04	1611.75
290.25	1499.11
290.47	1521.64
290.68	1574.89
290.90	1548.26
291.11	1462.25
291.33	1568.74
291.54	1495.02
291.76	1515.50
291.97	1615.85
292.18	1589.22
292.40	1478.63
292.61	1441.77
292.83	1609.70
293.04	1546.22
293.26	1585.13
293.47	1589.22
293.69	1568.74
293.90	1574.89
294.12	1593.32
294.33	1527.78
294.55	1503.21
294.76	1568.74
294.97	1525.74
295.19	1603.56
295.40	1583.08
295.62	1538.02
295.83	1630.18
296.05	1566.70
296.26	1646.57
296.48	1443.82
296.69	1535.98
296.90	1478.63
297.12	1615.85
297.33	1597.42
297.55	1576.94
297.76	1544.17
297.98	1607.66
298.19	1542.12
298.41	1533.93
298.62	1492.97
298.83	1654.76
299.05	1542.12
299.26	1540.07
299.48	1486.83
299.69	1560.55
299.90	1572.84
300.12	1558.50
300.33	1630.18
300.55	1560.55
300.76	1607.66
300.98	1533.93
301.19	1624.04
301.40	1431.53
301.62	1525.74
301.83	1492.97
302.05	1544.17
302.26	1472.49
302.47	1624.04
302.69	1533.93
302.90	1558.50
303.12	1427.43
303.33	1533.93
303.54	1607.66
303.76	1554.41
303.97	1560.55
304.19	1578.98
304.40	1523.69
304.61	1550.31
304.83	1630.18
305.04	1581.03
305.26	1492.97
305.47	1495.02
305.68	1546.22
305.90	1480.68
306.11	1568.74
306.33	1585.13
306.54	1464.30
306.75	1462.25
306.97	1429.48
307.18	1419.24
307.39	1509.35
307.61	1554.41
307.82	1464.30
308.04	1486.83
308.25	1423.34
308.46	1529.83
308.68	1501.16
308.89	1509.35
309.10	1587.18
309.32	1583.08
309.53	1476.59
309.74	1531.88
309.96	1548.26
310.17	1533.93
310.39	1511.40
310.60	1499.11
310.81	1585.13
311.03	1488.87
311.24	1628.14
311.45	1568.74
311.67	1646.57
311.88	1531.88
312.09	1576.94
312.31	1484.78
312.52	1460.20
312.73	1570.79
312.95	1521.64
313.16	1513.45
313.37	1570.79
313.59	1652.71
313.80	1488.87
314.01	1619.94
314.23	1540.07
314.44	1542.12
314.65	1529.83
314.87	1523.69
315.08	1509.35
315.29	1556.46
315.51	1499.11
315.72	1476.59
315.93	1611.75
316.15	1597.42
316.36	1540.07
316.57	1509.35
316.79	1501.16
317.00	1542.12
317.21	1513.45
317.43	1583.08
317.64	1525.74
317.85	1445.87
318.07	1556.46
318.28	1697.77
318.49	1734.63
318.70	1763.30
318.92	1699.81
319.13	1669.09
319.34	1703.91
319.56	1714.15
319.77	1613.80
319.98	1603.56
320.20	1667.05
320.41	1568.74
320.62	1560.55
320.83	1552.36
321.05	1683.43
321.26	1527.78
321.47	1560.55
321.69	1560.55
321.90	1466.35
322.11	1525.74
322.32	1593.32
322.54	1562.60
322.75	1497.07
322.96	1603.56
323.18	1480.68
323.39	1421.29
323.60	1517.54
323.81	1595.37
324.03	1554.41
324.24	1531.88
324.45	1591.27
324.66	1468.39
324.88	1560.55
325.09	1570.79
325.30	1437.67
325.52	1581.03
325.73	1535.98
325.94	1427.43
326.15	1431.53
326.37	1550.31
326.58	1509.35
326.79	1642.47
327.00	1449.96
327.22	1515.50
327.43	1507.30
327.64	1466.35
327.85	1492.97
328.07	1511.40
328.28	1570.79
328.49	1478.63
328.70	1468.39
328.92	1583.08
329.13	1511.40
329.34	1552.36
329.55	1605.61
329.76	1554.41
329.98	1552.36
330.19	1572.84
330.40	1578.98
330.61	1581.03
330.83	1595.37
331.04	1460.20
331.25	1581.03
331.46	1495.02
331.68	1472.49
331.89	1634.28
332.10	1490.92
332.31	1464.30
332.52	1562.60
332.74	1632.23
332.95	1472.49
333.16	1517.54
333.37	1566.70
333.58	1550.31
333.80	1607.66
334.01	1492.97
334.22	1527.78
334.43	1480.68
334.64	1572.84
334.86	1445.87
335.07	1519.59
335.28	1603.56
335.49	1439.72
335.70	1605.61
335.92	1658.85
336.13	1607.66
336.34	1562.60
336.55	1562.60
336.76	1542.12
336.98	1472.49
337.19	1503.21
337.40	1658.85
337.61	1628.14
337.82	1548.26
338.04	1517.54
338.25	1527.78
338.46	1474.54
338.67	1568.74
338.88	1478.63
339.09	1495.02
339.31	1474.54
339.52	1454.06
339.73	1540.07
339.94	1484.78
340.15	1568.74
340.36	1462.25
340.58	1554.41
340.79	1454.06
341.00	1583.08
341.21	1452.01
341.42	1556.46
341.63	1525.74
341.85	1591.27
342.06	1548.26
342.27	1556.46
342.48	1640.42
342.69	1429.48
342.90	1554.41
343.12	1525.74
343.33	1558.50
343.54	1527.78
343.75	1572.84
343.96	1533.93
344.17	1490.92
344.38	1576.94
344.60	1497.07
344.81	1497.07
345.02	1601.51
345.23	1535.98
345.44	1636.33
345.65	1642.47
345.86	1570.79
346.07	1527.78
346.29	1540.07
346.50	1509.35
346.71	1556.46
346.92	1570.79
347.13	1667.05
347.34	1529.83
347.55	1454.06
347.76	1495.02
347.98	1435.63
348.19	1607.66
348.40	1607.66
348.61	1533.93
348.82	1576.94
349.03	1605.61
349.24	1452.01
349.45	1593.32
349.66	1513.45
349.88	1519.59
350.09	1497.07
350.30	1585.13
350.51	1548.26
350.72	1568.74
350.93	1501.16
351.14	1464.30
351.35	1525.74
351.56	1454.06
351.77	1542.12
351.99	1609.70
352.20	1615.85
352.41	1638.38
352.62	1460.20
352.83	1552.36
353.04	1554.41
353.25	1570.79
353.46	1679.33
353.67	1558.50
353.88	1452.01
354.09	1626.09
354.30	1503.21
354.52	1552.36
354.73	1583.08
354.94	1509.35
355.15	1546.22
355.36	1540.07
355.57	1554.41
355.78	1548.26
355.99	1488.87
356.20	1511.40
356.41	1601.51
356.62	1607.66
356.83	1517.54
357.04	1603.56
357.25	1415.15
357.46	1466.35
357.68	1437.67
357.89	1527.78
358.10	1486.83
358.31	1447.91
358.52	1576.94
358.73	1505.26
358.94	1495.02
359.15	1529.83
359.36	1511.40
359.57	1490.92
359.78	1560.55
359.99	1605.61
360.20	1552.36
360.41	1503.21
360.62	1564.65
360.83	1638.38
361.04	1554.41
361.25	1511.40
361.46	1683.43
361.67	1497.07
361.88	1578.98
362.09	1568.74
362.30	1556.46
362.51	1546.22
362.72	1564.65
362.93	1564.65
363.14	1556.46
363.35	1535.98
363.56	1456.11
363.78	1613.80
363.99	1601.51
364.20	1466.35
364.41	1589.22
364.62	1583.08
364.83	1597.42
365.04	1589.22
365.25	1470.44
365.46	1624.04
365.67	1517.54
365.88	1550.31
366.09	1593.32
366.30	1486.83
366.51	1529.83
366.72	1488.87
366.93	1595.37
367.14	1538.02
367.35	1642.47
367.56	1574.89
367.77	1611.75
367.98	1525.74
368.18	1531.88
368.39	1568.74
368.60	1492.97
368.81	1671.14
369.02	1474.54
369.23	1591.27
369.44	1476.59
369.65	1460.20
369.86	1574.89
370.07	1546.22
370.28	1509.35
370.49	1562.60
370.70	1544.17
370.91	1472.49
371.12	1468.39
371.33	1599.46
371.54	1538.02
371.75	1589.22
371.96	1437.67
372.17	1523.69
372.38	1476.59
372.59	1595.37
372.80	1560.55
373.01	1505.26
373.22	1605.61
373.43	1519.59
373.64	1476.59
373.85	1599.46
374.06	1583.08
374.26	1548.26
374.47	1544.17
374.68	1609.70
374.89	1626.09
375.10	1452.01
375.31	1576.94
375.52	1507.30
375.73	1505.26
375.94	1474.54
376.15	1609.70
376.36	1552.36
376.57	1511.40
376.78	1601.51
376.99	1482.73
377.20	1556.46
377.40	1492.97
377.61	1568.74
377.82	1478.63
378.03	1593.32
378.24	1578.98
378.45	1593.32
378.66	1558.50
378.87	1415.15
379.08	1445.87
379.29	1538.02
379.50	1619.94
379.71	1490.92
379.91	1568.74
380.12	1538.02
380.33	1566.70
380.54	1554.41
380.75	1505.26
380.96	1509.35
381.17	1615.85
381.38	1558.50
381.59	1521.64
381.80	1544.17
382.00	1724.39
382.21	1593.32
382.42	1685.48
382.63	1744.87
382.84	1624.04
383.05	1628.14
383.26	1632.23
383.47	1566.70
383.68	1589.22
383.88	1581.03
384.09	1531.88
384.30	1669.09
384.51	1544.17
384.72	1492.97
384.93	1501.16
385.14	1552.36
385.35	1609.70
385.55	1396.71
385.76	1658.85
385.97	1589.22
386.18	1593.32
386.39	1460.20
386.60	1621.99
386.81	1570.79
387.02	1515.50
387.22	1529.83
387.43	1566.70
387.64	1730.53
387.85	1824.74
388.06	3135.44
388.27	7309.20
388.48	10626.91
388.68	12808.00
388.89	14135.08
389.10	13100.86
389.31	10141.54
389.52	9121.65
389.73	7694.22
389.93	7307.15
390.14	6893.46
390.35	6195.11
390.56	5732.26
390.77	4562.87
390.98	3680.20
391.18	2791.38
391.39	2240.48
391.60	1806.31
391.81	1683.43
392.02	1544.17
392.23	1703.91
392.43	1591.27
392.64	1662.95
392.85	1544.17
393.06	1628.14
393.27	1583.08
393.47	1413.10
393.68	1585.13
393.89	1519.59
394.10	1599.46
394.31	1509.35
394.52	1533.93
394.72	1572.84
394.93	1583.08
395.14	1495.02
395.35	1562.60
395.56	1578.98
395.76	1677.29
395.97	1687.53
396.18	1755.11
396.39	1746.92
396.60	1935.33
396.80	1734.63
397.01	1730.53
397.22	1634.28
397.43	1685.48
397.64	1611.75
397.84	1626.09
398.05	1710.05
398.26	1603.56
398.47	1605.61
398.67	1703.91
398.88	1501.16
399.09	1546.22
399.30	1558.50
399.51	1626.09
399.71	1478.63
399.92	1570.79
400.13	1544.17
400.34	1509.35
400.54	1509.35
400.75	1611.75
400.96	1607.66
401.17	1667.05
401.37	1589.22
401.58	1513.45
401.79	1642.47
402.00	1757.16
402.21	1959.91
402.41	1910.75
402.62	1931.23
402.83	2004.96
403.04	1802.21
403.24	1834.98
403.45	1777.64
403.66	1703.91
403.87	1761.25
404.07	1687.53
404.28	1687.53
404.49	1761.25
404.70	1624.04
404.90	1564.65
405.11	1578.98
405.32	1570.79
405.52	1554.41
405.73	1505.26
405.94	1486.83
406.15	1554.41
406.35	1591.27
406.56	1619.94
406.77	1615.85
406.98	1558.50
407.18	1478.63
407.39	1591.27
407.60	1468.39
407.80	1574.89
408.01	1562.60
408.22	1591.27
408.43	1538.02
408.63	1540.07
408.84	1576.94
409.05	1542.12
409.25	1552.36
409.46	1437.67
409.67	1546.22
409.88	1492.97
410.08	1544.17
410.29	1525.74
410.50	1566.70
410.70	1558.50
410.91	1515.50
411.12	1527.78
411.32	1495.02
411.53	1558.50
411.74	1581.03
411.95	1585.13
412.15	1662.95
412.36	1581.03
412.57	1617.90
412.77	1656.81
412.98	1564.65
413.19	1572.84
413.39	1609.70
413.60	1611.75
413.81	1589.22
414.01	1589.22
414.22	1605.61
414.43	1615.85
414.63	1478.63
414.84	1656.81
415.05	1554.41
415.25	1495.02
415.46	1548.26
415.67	1552.36
415.87	1439.72
416.08	1564.65
416.29	1462.25
416.49	1513.45
416.70	1548.26
416.91	1546.22
417.11	1527.78
417.32	1525.74
417.53	1499.11
417.73	1617.90
417.94	1558.50
418.15	1525.74
418.35	1595.37
418.56	1570.79
418.77	1681.38
418.97	1509.35
419.18	1583.08
419.38	1456.11
419.59	1552.36
419.80	1611.75
420.00	1578.98
420.21	1488.87
420.42	1611.75
420.62	1531.88
420.83	1517.54
421.04	1490.92
421.24	1511.40
421.45	1560.55
421.65	1529.83
421.86	1478.63
422.07	1533.93
422.27	1628.14
422.48	1581.03
422.69	1460.20
422.89	1542.12
423.10	1499.11
423.30	1515.50
423.51	1499.11
423.72	1615.85
423.92	1558.50
424.13	1470.44
424.33	1572.84
424.54	1572.84
424.75	1554.41
424.95	1710.05
425.16	1482.73
425.36	1570.79
425.57	1556.46
425.78	1572.84
425.98	1699.81
426.19	1558.50
426.39	1499.11
426.60	1587.18
426.81	1644.52
427.01	1521.64
427.22	1507.30
427.42	1474.54
427.63	1535.98
427.83	1531.88
428.04	1632.23
428.25	1531.88
428.45	1566.70
428.66	1597.42
428.86	1464.30
429.07	1535.98
429.28	1550.31
429.48	1540.07
429.69	1441.77
429.89	1556.46
430.10	1550.31
430.30	1609.70
430.51	1558.50
430.71	1488.87
430.92	1486.83
431.13	1576.94
431.33	1599.46
431.54	1540.07
431.74	1642.47
431.95	1595.37
432.15	1492.97
432.36	1554.41
432.56	1587.18
432.77	1605.61
432.98	1572.84
433.18	1562.60
433.39	1583.08
433.59	1599.46
433.80	1599.46
434.00	1667.05
434.21	1535.98
434.41	1472.49
434.62	1652.71
434.82	1460.20
435.03	1552.36
435.23	1523.69
435.44	1452.01
435.64	1570.79
435.85	1607.66
436.06	1531.88
436.26	1535.98
436.47	1554.41
436.67	1523.69
436.88	1531.88
437.08	1611.75
437.29	1572.84
437.49	1523.69
437.70	1562.60
437.90	1544.17
438.11	1669.09
438.31	1697.77
438.52	1708.01
438.72	1775.59
438.93	1841.12
439.13	1626.09
439.34	1632.23
439.54	1603.56
439.75	1638.38
439.95	1599.46
440.16	1560.55
440.36	1517.54
440.57	1556.46
440.77	1540.07
440.98	1474.54
441.18	1519.59
441.39	1570.79
441.59	1525.74
441.80	1660.90
442.00	1560.55
442.21	1593.32
442.41	1527.78
442.62	1589.22
442.82	1546.22
443.02	1578.98
443.23	1585.13
443.43	1501.16
443.64	1593.32
443.84	1546.22
444.05	1609.70
444.25	1576.94
444.46	1533.93
444.66	1550.31
444.87	1597.42
445.07	1439.72
445.28	1525.74
445.48	1603.56
445.69	1576.94
445.89	1703.91
446.09	1652.71
446.30	2045.92
446.50	3192.78
446.71	4540.35
446.91	5330.86
447.12	5717.93
447.32	5646.25
447.53	4720.57
447.73	4057.03
447.93	3762.12
448.14	3467.21
448.34	3149.78
448.55	2906.07
448.75	2947.03
448.96	2822.10
449.16	2463.71
449.36	2275.29
449.57	1953.76
449.77	1853.41
449.98	1646.57
450.18	1560.55
450.39	1531.88
450.59	1535.98
450.79	1533.93
451.00	1484.78
451.20	1636.33
451.41	1566.70
451.61	1583.08
451.81	1554.41
452.02	1527.78
452.22	1546.22
452.43	1548.26
452.63	1601.51
452.84	1570.79
453.04	1581.03
453.24	1513.45
453.45	1505.26
453.65	1538.02
453.86	1533.93
454.06	1505.26
454.26	1495.02
454.47	1452.01
454.67	1624.04
454.87	1540.07
455.08	1497.07
455.28	1632.23
455.49	1554.41
455.69	1464.30
455.89	1658.85
456.10	1642.47
456.30	1587.18
456.51	1515.50
456.71	1538.02
456.91	1589.22
457.12	1486.83
457.32	1572.84
457.52	1568.74
457.73	1501.16
457.93	1552.36
458.14	1523.69
458.34	1458.15
458.54	1597.42
458.75	1552.36
458.95	1615.85
459.15	1550.31
459.36	1527.78
459.56	1611.75
459.76	1593.32
459.97	1505.26
460.17	1486.83
460.37	1554.41
460.58	1527.78
460.78	1632.23
460.99	1484.78
461.19	1560.55
461.39	1566.70
461.60	1468.39
461.80	1589.22
462.00	1490.92
462.21	1538.02
462.41	1517.54
462.61	1468.39
462.82	1464.30
463.02	1640.42
463.22	1468.39
463.43	1634.28
463.63	1531.88
463.83	1562.60
464.04	1538.02
464.24	1464.30
464.44	1470.44
464.64	1558.50
464.85	1624.04
465.05	1519.59
465.25	1613.80
465.46	1535.98
465.66	1554.41
465.86	1562.60
466.07	1568.74
466.27	1476.59
466.47	1443.82
466.68	1449.96
466.88	1597.42
467.08	1587.18
467.29	1527.78
467.49	1605.61
467.69	1568.74
467.89	1593.32
468.10	1523.69
468.30	1523.69
468.50	1593.32
468.71	1544.17
468.91	1527.78
469.11	1636.33
469.31	1527.78
469.52	1497.07
469.72	1624.04
469.92	1654.76
470.13	1544.17
470.33	1535.98
470.53	1781.73
470.73	2076.64
470.94	2379.74
471.14	2469.85
471.34	2619.35
471.54	2396.12
471.75	2170.85
471.95	2064.35
472.15	1966.05
472.36	2004.96
472.56	1951.71
472.76	1968.10
472.96	1875.94
473.17	1843.17
473.37	1802.21
473.57	1589.22
473.77	1644.52
473.98	1531.88
474.18	1640.42
474.38	1685.48
474.58	1550.31
474.79	1554.41
474.99	1560.55
475.19	1642.47
475.39	1497.07
475.60	1544.17
475.80	1581.03
476.00	1531.88
476.20	1546.22
476.41	1574.89
476.61	1615.85
476.81	1589.22
477.01	1521.64
477.21	1583.08
477.42	1585.13
477.62	1603.56
477.82	1568.74
478.02	1474.54
478.23	1486.83
478.43	1564.65
478.63	1445.87
478.83	1464.30
479.03	1527.78
479.24	1619.94
479.44	1642.47
479.64	1544.17
479.84	1476.59
480.04	1535.98
480.25	1597.42
480.45	1540.07
480.65	1513.45
480.85	1566.70
481.06	1542.12
481.26	1564.65
481.46	1568.74
481.66	1585.13
481.86	1452.01
482.06	1662.95
482.27	1554.41
482.47	1521.64
482.67	1542.12
482.87	1503.21
483.07	1538.02
483.28	1566.70
483.48	1515.50
483.68	1554.41
483.88	1533.93
484.08	1492.97
484.29	1503.21
484.49	1462.25
484.69	1576.94
484.89	1574.89
485.09	1554.41
485.29	1507.30
485.50	1607.66
485.70	1523.69
485.90	1585.13
486.10	1597.42
486.30	1589.22
486.50	1492.97
486.71	1501.16
486.91	1568.74
487.11	1615.85
487.31	1470.44
487.51	1554.41
487.71	1560.55
487.91	1513.45
488.12	1495.02
488.32	1406.95
488.52	1400.81
488.72	1443.82
488.92	1576.94
489.12	1607.66
489.32	1632.23
489.53	1617.90
489.73	1460.20
489.93	1568.74
490.13	1554.41
490.33	1529.83
490.53	1468.39
490.73	1574.89
490.94	1411.05
491.14	1624.04
491.34	1667.05
491.54	2103.26
491.74	2629.59
491.94	3039.19
492.14	3299.28
492.34	3174.35
492.54	2846.68
492.75	2480.09
492.95	2430.94
493.15	2166.75
493.35	2129.89
493.55	2224.09
493.75	1992.67
493.95	1945.57
494.15	1947.62
494.35	1794.02
494.56	1767.40
494.76	1632.23
494.96	1626.09
495.16	1658.85
495.36	1591.27
495.56	1546.22
495.76	1447.91
495.96	1445.87
496.16	1497.07
496.36	1617.90
496.56	1562.60
496.77	1585.13
496.97	1574.89
497.17	1597.42
497.37	1501.16
497.57	1558.50
497.77	1546.22
497.97	1533.93
498.17	1511.40
498.37	1566.70
498.57	1531.88
498.77	1521.64
498.97	1548.26
499.17	1654.76
499.38	1499.11
499.58	1576.94
499.78	1642.47
499.98	1632.23
500.18	1583.08
500.38	1562.60
500.58	1738.73
500.78	2650.07
500.98	5046.20
501.18	6934.42
501.38	8107.91
501.58	8746.87
501.78	8044.42
501.98	6150.05
502.18	5470.12
502.38	4695.99
502.58	4278.21
502.78	3821.51
502.98	3721.16
503.18	3596.23
503.38	3409.87
503.59	3030.99
503.79	2838.48
503.99	2502.62
504.19	2250.72
504.39	2215.90
504.59	2009.06
504.79	2052.06
504.99	1920.99
505.19	1777.64
505.39	1656.81
505.59	1826.79
505.79	1726.44
505.99	1701.86
506.19	1658.85
506.39	1716.20
506.59	1638.38
506.79	1556.46
506.99	1609.70
507.19	1564.65
507.39	1589.22
507.59	1540.07
507.79	1578.98
507.99	1486.83
508.19	1566.70
508.39	1462.25
508.59	1495.02
508.79	1619.94
508.99	1656.81
509.19	1441.77
509.39	1542.12
509.59	1460.20
509.79	1550.31
509.99	1525.74
510.19	1562.60
510.39	1587.18
510.59	1515.50
510.79	1497.07
510.99	1556.46
511.19	1613.80
511.39	1581.03
511.59	1652.71
511.79	1615.85
511.99	1556.46
512.19	1626.09
512.38	1621.99
512.58	1535.98
512.78	1576.94
512.98	1529.83
513.18	1611.75
513.38	1484.78
513.58	1492.97
513.78	1501.16
513.98	1589.22
514.18	1550.31
514.38	1503.21
514.58	1581.03
514.78	1435.63
514.98	1519.59
515.18	1607.66
515.38	1492.97
515.58	1654.76
515.78	1478.63
515.98	1509.35
516.18	1597.42
516.38	1550.31
516.57	1482.73
516.77	1535.98
516.97	1550.31
517.17	1482.73
517.37	1542.12
517.57	1566.70
517.77	1576.94
517.97	1495.02
518.17	1527.78
518.37	1447.91
518.57	1544.17
518.77	1527.78
518.97	1521.64
519.16	1576.94
519.36	1591.27
519.56	1578.98
519.76	1542.12
519.96	1568.74
520.16	1597.42
520.36	1509.35
520.56	1591.27
520.76	1478.63
520.96	1490.92
521.16	1589.22
521.35	1609.70
521.55	1673.19
521.75	1507.30
521.95	1597.42
522.15	1540.07
522.35	1466.35
522.55	1505.26
522.75	1599.46
522.95	1499.11
523.14	1548.26
523.34	1513.45
523.54	1478.63
523.74	1503.21
523.94	1535.98
524.14	1460.20
524.34	1544.17
524.54	1499.11
524.73	1611.75
524.93	1550.31
525.13	1462.25
525.33	1480.68
525.53	1634.28
525.73	1503.21
525.93	1638.38
526.13	1578.98
526.32	1572.84
526.52	1570.79
526.72	1601.51
526.92	1511.40
527.12	1550.31
527.32	1464.30
527.52	1611.75
527.71	1527.78
527.91	1476.59
528.11	1535.98
528.31	1566.70
528.51	1351.66
528.71	1560.55
528.90	1560.55
529.10	1669.09
529.30	1558.50
529.50	1406.95
529.70	1642.47
529.90	1509.35
530.09	1517.54
530.29	1476.59
530.49	1513.45
530.69	1667.05
530.89	1538.02
531.09	1552.36
531.28	1597.42
531.48	1605.61
531.68	1562.60
531.88	1564.65
532.08	1564.65
532.28	1558.50
532.47	1566.70
532.67	1574.89
532.87	1581.03
533.07	1501.16
533.27	1589.22
533.46	1509.35
533.66	1576.94
533.86	1531.88
534.06	1509.35
534.26	1458.15
534.45	1490.92
534.65	1619.94
534.85	1554.41
535.05	1517.54
535.25	1572.84
535.44	1480.68
535.64	1570.79
535.84	1490.92
536.04	1562.60
536.24	1558.50
536.43	1486.83
536.63	1523.69
536.83	1538.02
537.03	1501.16
537.22	1509.35
537.42	1480.68
537.62	1497.07
537.82	1515.50
538.02	1568.74
538.21	1665.00
538.41	1701.86
538.61	1542.12
538.81	1490.92
539.00	1632.23
539.20	1470.44
539.40	1540.07
539.60	1523.69
539.79	1576.94
539.99	1562.60
540.19	1505.26
540.39	1492.97
540.58	1564.65
540.78	1556.46
540.98	1484.78
541.18	1560.55
541.37	1634.28
541.57	1578.98
541.77	1548.26
541.97	1400.81
542.16	1544.17
542.36	1560.55
542.56	1605.61
542.76	1609.70
542.95	1636.33
543.15	1544.17
543.35	1578.98
543.54	1519.59
543.74	1527.78
543.94	1558.50
544.14	1558.50
544.33	1503.21
544.53	1554.41
544.73	1533.93
544.93	1484.78
545.12	1562.60
545.32	1523.69
545.52	1552.36
545.71	1466.35
545.91	1564.65
546.11	1578.98
546.30	1497.07
546.50	1531.88
546.70	1572.84
546.90	1601.51
547.09	1447.91
547.29	1509.35
547.49	1613.80
547.68	1480.68
547.88	1523.69
548.08	1591.27
548.27	1957.86
548.47	1507.30
548.67	1581.03
548.87	1576.94
549.06	1492.97
549.26	1574.89
549.46	1621.99
549.65	1562.60
549.85	1484.78
550.05	1599.46
550.24	1492.97
550.44	1609.70
550.64	1562.60
550.83	1480.68
551.03	1556.46
551.23	1632.23
551.42	1597.42
551.62	1542.12
551.82	1558.50
552.01	1482.73
552.21	1581.03
552.41	1527.78
552.60	1562.60
552.80	1515.50
553.00	1538.02
553.19	1531.88
553.39	1609.70
553.59	1490.92
553.78	1589.22
553.98	1546.22
554.17	1542.12
554.37	1564.65
554.57	1560.55
554.76	1560.55
554.96	1482.73
555.16	1533.93
555.35	1501.16
555.55	1564.65
555.75	1581.03
555.94	1558.50
556.14	1470.44
556.33	1595.37
556.53	1593.32
556.73	1527.78
556.92	1603.56
557.12	1621.99
557.32	1597.42
557.51	1621.99
557.71	1619.94
557.90	1607.66
558.10	1521.64
558.30	1574.89
558.49	1515.50
558.69	1490.92
558.88	1517.54
559.08	1535.98
559.28	1570.79
559.47	1576.94
559.67	1505.26
559.86	1626.09
560.06	1554.41
560.26	1597.42
560.45	1550.31
560.65	1521.64
560.84	1521.64
561.04	1517.54
561.24	1552.36
561.43	1482.73
561.63	1593.32
561.82	1609.70
562.02	1527.78
562.22	1488.87
562.41	1499.11
562.61	1521.64
562.80	1558.50
563.00	1621.99
563.19	1626.09
563.39	1587.18
563.59	1615.85
563.78	1525.74
563.98	1482.73
564.17	1609.70
564.37	1380.33
564.56	1566.70
564.76	1546.22
564.96	1589.22
565.15	1533.93
565.35	1570.79
565.54	1511.40
565.74	1601.51
565.93	1603.56
566.13	1484.78
566.32	1646.57
566.52	1607.66
566.71	1533.93
566.91	1607.66
567.11	1548.26
567.30	1546.22
567.50	1554.41
567.69	1605.61
567.89	1540.07
568.08	1482.73
568.28	1546.22
568.47	1540.07
568.67	1552.36
568.86	1581.03
569.06	1556.46
569.25	1533.93
569.45	1552.36
569.64	1484.78
569.84	1488.87
570.04	1595.37
570.23	1554.41
570.43	1583.08
570.62	1617.90
570.82	1581.03
571.01	1392.62
571.21	1566.70
571.40	1454.06
571.60	1607.66
571.79	1595.37
571.99	1540.07
572.18	1492.97
572.38	1552.36
572.57	1538.02
572.77	1564.65
572.96	1667.05
573.16	1511.40
573.35	1568.74
573.55	1675.24
573.74	1615.85
573.94	1552.36
574.13	1570.79
574.33	1652.71
574.52	1691.62
574.71	1474.54
574.91	1538.02
575.10	1568.74
575.30	1523.69
575.49	1558.50
575.69	1499.11
575.88	1730.53
576.08	1572.84
576.27	1628.14
576.47	1636.33
576.66	1689.57
576.86	1703.91
577.05	1605.61
577.25	1554.41
577.44	1624.04
577.64	1531.88
577.83	1619.94
578.02	1558.50
578.22	1669.09
578.41	1654.76
578.61	1535.98
578.80	1505.26
579.00	1546.22
579.19	1585.13
579.39	1607.66
579.58	1591.27
579.77	1652.71
579.97	1648.61
580.16	1640.42
580.36	1691.62
580.55	1558.50
580.75	1624.04
580.94	1527.78
581.13	1687.53
581.33	1689.57
581.52	1572.84
581.72	1738.73
581.91	1681.38
582.11	1626.09
582.30	1578.98
582.49	1574.89
582.69	1716.20
582.88	1617.90
583.08	1609.70
583.27	1585.13
583.47	1619.94
583.66	1570.79
583.85	1542.12
584.05	1607.66
584.24	1613.80
584.44	1544.17
584.63	1671.14
584.82	1685.48
585.02	1699.81
585.21	1757.16
585.41	1843.17
585.60	1791.97
585.79	1851.36
585.99	1789.92
586.18	1884.13
586.37	1986.53
586.57	3063.76
586.76	9389.94
586.96	27604.57
587.15	44649.81
587.34	54705.34
587.54	61791.31
587.73	60120.17
587.93	43806.05
588.12	32341.52
588.31	26152.56
588.51	22214.32
588.70	20016.85
588.89	18425.57
589.09	17071.87
589.28	15353.62
589.47	13156.15
589.67	11050.84
589.86	8865.66
590.06	6862.74
590.25	5025.72
590.44	3936.20
590.64	3035.09
590.83	2367.45
591.02	2119.65
591.22	1875.94
591.41	1732.58
591.60	1671.14
591.80	1738.73
591.99	1591.27
592.18	1605.61
592.38	1566.70
592.57	1570.79
592.76	1609.70
592.96	1583.08
593.15	1501.16
593.34	1589.22
593.54	1566.70
593.73	1609.70
593.92	1609.70
594.12	1660.90
594.31	1634.28
594.50	1628.14
594.70	1535.98
594.89	1691.62
595.08	1564.65
595.28	1615.85
595.47	1787.88
595.66	1583.08
595.86	1484.78
596.05	1554.41
596.24	1646.57
596.43	1683.43
596.63	1681.38
596.82	1583.08
597.01	1515.50
597.21	1705.96
597.40	1634.28
597.59	1564.65
597.79	1540.07
597.98	1615.85
598.17	1552.36
598.36	1560.55
598.56	1521.64
598.75	1523.69
598.94	1581.03
599.14	1675.24
599.33	1552.36
599.52	1470.44
599.71	1642.47
599.91	1527.78
600.10	1556.46
600.29	1576.94
600.48	1650.66
600.68	1578.98
600.87	1593.32
601.06	1632.23
601.26	1619.94
601.45	1554.41
601.64	1572.84
601.83	1572.84
602.03	1535.98
602.22	1501.16
602.41	1570.79
602.60	1691.62
602.80	1630.18
602.99	1607.66
603.18	1574.89
603.37	1546.22
603.57	1550.31
603.76	1689.57
603.95	1568.74
604.14	1587.18
604.34	1513.45
604.53	1560.55
604.72	1576.94
604.91	1605.61
605.10	1562.60
605.30	1492.97
605.49	1613.80
605.68	1533.93
605.87	1525.74
606.07	1513.45
606.26	1544.17
606.45	1576.94
606.64	1560.55
606.84	1531.88
607.03	1531.88
607.22	1531.88
607.41	1638.38
607.60	1587.18
607.80	1634.28
607.99	1605.61
608.18	1511.40
608.37	1609.70
608.56	1560.55
608.76	1624.04
608.95	1685.48
609.14	1568.74
609.33	1609.70
609.52	1667.05
609.72	1550.31
609.91	1603.56
610.10	1581.03
610.29	1640.42
610.48	1621.99
610.68	1617.90
610.87	1538.02
611.06	1611.75
611.25	1499.11
611.44	1628.14
611.63	1511.40
611.83	1578.98
612.02	1538.02
612.21	1554.41
612.40	1468.39
612.59	1558.50
612.79	1540.07
612.98	1554.41
613.17	1527.78
613.36	1533.93
613.55	1681.38
613.74	1640.42
613.93	1748.97
614.13	1724.39
614.32	1767.40
614.51	1806.31
614.70	1611.75
614.89	1679.33
615.08	1599.46
615.28	1832.93
615.47	1527.78
615.66	1527.78
615.85	1654.76
616.04	1665.00
616.23	1621.99
616.42	1648.61
616.62	1615.85
616.81	1591.27
617.00	1503.21
617.19	1611.75
617.38	1624.04
617.57	1568.74
617.76	1591.27
617.95	1595.37
618.15	1564.65
618.34	1587.18
618.53	1525.74
618.72	1576.94
618.91	1621.99
619.10	1677.29
619.29	1574.89
619.48	1544.17
619.68	1609.70
619.87	1509.35
620.06	1472.49
620.25	1562.60
620.44	1542.12
620.63	1566.70
620.82	1558.50
621.01	1595.37
621.20	1605.61
621.39	1599.46
621.59	1642.47
621.78	1597.42
621.97	1562.60
622.16	1642.47
622.35	1562.60
622.54	1544.17
622.73	1652.71
622.92	1466.35
623.11	1439.72
623.30	1583.08
623.49	1556.46
623.68	1531.88
623.88	1597.42
624.07	1581.03
624.26	1531.88
624.45	1613.80
624.64	1488.87
624.83	1533.93
625.02	1454.06
625.21	1538.02
625.40	1503.21
625.59	1554.41
625.78	1484.78
625.97	1605.61
626.16	1638.38
626.35	1595.37
626.54	1601.51
626.74	1634.28
626.93	1581.03
627.12	1554.41
627.31	1601.51
627.50	1576.94
627.69	1576.94
627.88	1566.70
628.07	1515.50
628.26	1511.40
628.45	1568.74
628.64	1527.78
628.83	1603.56
629.02	1476.59
629.21	1576.94
629.40	1552.36
629.59	1482.73
629.78	1513.45
629.97	1542.12
630.16	1609.70
630.35	1542.12
630.54	1562.60
630.73	1552.36
630.92	1535.98
631.11	1542.12
631.30	1609.70
631.49	1529.83
631.68	1542.12
631.87	1503.21
632.06	1503.21
632.25	1628.14
632.44	1517.54
632.63	1556.46
632.82	1558.50
633.01	1568.74
633.20	1650.66
633.39	1697.77
633.58	1540.07
633.77	1595.37
633.96	1671.14
634.15	1587.18
634.34	1564.65
634.53	1574.89
634.72	1560.55
634.91	1495.02
635.10	1601.51
635.29	1544.17
635.48	1605.61
635.67	1542.12
635.86	1511.40
636.05	1521.64
636.24	1476.59
636.43	1576.94
636.62	1591.27
636.81	1495.02
637.00	1544.17
637.19	1531.88
637.38	1562.60
637.57	1556.46
637.76	1632.23
637.95	1671.14
638.14	1615.85
638.33	1716.20
638.52	1673.19
638.71	1527.78
638.89	1597.42
639.08	1652.71
639.27	1632.23
639.46	1716.20
639.65	1988.58
639.84	1949.67
640.03	2142.18
640.22	2174.94
640.41	2168.80
640.60	1916.90
640.79	1925.09
640.98	1718.25
641.17	1746.92
641.36	1787.88
641.55	1681.38
641.74	1626.09
641.92	1681.38
642.11	1568.74
642.30	1556.46
642.49	1484.78
642.68	1578.98
642.87	1542.12
643.06	1535.98
643.25	1566.70
643.44	1585.13
643.63	1511.40
643.82	1607.66
644.00	1546.22
644.19	1544.17
644.38	1443.82
644.57	1535.98
644.76	1583.08
644.95	1556.46
645.14	1540.07
645.33	1531.88
645.52	1513.45
645.71	1509.35
645.89	1517.54
646.08	1476.59
646.27	1554.41
646.46	1683.43
646.65	1431.53
646.84	1564.65
647.03	1546.22
647.22	1583.08
647.40	1540.07
647.59	1460.20
647.78	1511.40
647.97	1509.35
648.16	1501.16
648.35	1628.14
648.54	1574.89
648.73	1544.17
648.91	1613.80
649.10	1531.88
649.29	1527.78
649.48	1581.03
649.67	1568.74
649.86	1611.75
650.05	1632.23
650.23	1665.00
650.42	1601.51
650.61	1789.92
650.80	1765.35
650.99	1773.54
651.18	1708.01
651.36	1658.85
651.55	1611.75
651.74	1624.04
651.93	1521.64
652.12	1570.79
652.31	1521.64
652.49	1624.04
652.68	1456.11
652.87	1599.46
653.06	1574.89
653.25	1656.81
653.44	1544.17
653.62	1654.76
653.81	1431.53
654.00	1576.94
654.19	1615.85
654.38	1705.96
654.56	1603.56
654.75	1568.74
654.94	1599.46
655.13	1578.98
655.32	1464.30
655.51	1585.13
655.69	1519.59
655.88	1495.02
656.07	1507.30
656.26	1626.09
656.45	1480.68
656.63	1570.79
656.82	1593.32
657.01	1681.38
657.20	1468.39
657.38	1591.27
657.57	1509.35
657.76	1406.95
657.95	1587.18
658.14	1462.25
658.32	1550.31
658.51	1458.15
658.70	1525.74
658.89	1535.98
659.08	1535.98
659.26	1660.90
659.45	1546.22
659.64	1613.80
659.83	1593.32
660.01	1699.81
660.20	1572.84
660.39	1652.71
660.58	1531.88
660.76	1578.98
660.95	1488.87
661.14	1533.93
661.33	1509.35
661.51	1527.78
661.70	1538.02
661.89	1634.28
662.08	1574.89
662.26	1476.59
662.45	1505.26
662.64	1648.61
662.83	1570.79
663.01	1535.98
663.20	1605.61
663.39	1554.41
663.58	1568.74
663.76	1568.74
663.95	1595.37
664.14	1464.30
664.32	1564.65
664.51	1417.19
664.70	1462.25
664.89	1601.51
665.07	1492.97
665.26	1576.94
665.45	1546.22
665.64	1626.09
665.82	1517.54
666.01	1544.17
666.20	1525.74
666.38	1658.85
666.57	1560.55
666.76	1884.13
666.95	2944.98
667.13	7524.24
667.32	15857.42
667.51	20215.50
667.69	23938.71
667.88	25544.31
668.07	22382.25
668.25	15763.22
668.44	12574.53
668.63	10202.98
668.81	8830.84
669.00	7856.01
669.19	7176.08
669.38	6322.08
669.56	5668.78
669.75	4880.31
669.94	4118.47
670.12	3366.86
670.31	2836.44
670.50	2467.80
670.68	2062.30
670.87	1933.28
671.06	1734.63
671.24	1736.68
671.43	1665.00
671.62	1699.81
671.80	1583.08
671.99	1685.48
672.18	1671.14
672.36	1619.94
672.55	1611.75
672.74	1527.78
672.92	1509.35
673.11	1675.24
673.29	1517.54
673.48	1576.94
673.67	1605.61
673.85	1591.27
674.04	1548.26
674.23	1578.98
674.41	1538.02
674.60	1492.97
674.79	1435.63
674.97	1538.02
675.16	1550.31
675.34	1540.07
675.53	1468.39
675.72	1533.93
675.90	1601.51
676.09	1511.40
676.28	1525.74
676.46	1499.11
676.65	1527.78
676.83	1552.36
677.02	1538.02
677.21	1488.87
677.39	1511.40
677.58	1464.30
677.77	1558.50
677.95	1503.21
678.14	1517.54
678.32	1599.46
678.51	1497.07
678.70	1632.23
678.88	1550.31
679.07	1501.16
679.25	1609.70
679.44	1437.67
679.63	1460.20
679.81	1574.89
680.00	1646.57
680.18	1544.17
680.37	1542.12
680.55	1531.88
680.74	1521.64
680.93	1507.30
681.11	1644.52
681.30	1525.74
681.48	1560.55
681.67	1638.38
681.85	1595.37
682.04	1458.15
682.23	1560.55
682.41	1548.26
682.60	1492.97
682.78	1570.79
682.97	1546.22
683.15	1535.98
683.34	1527.78
683.53	1546.22
683.71	1480.68
683.90	1628.14
684.08	1533.93
684.27	1544.17
684.45	1542.12
684.64	1583.08
684.82	1564.65
685.01	1648.61
685.19	1490.92
685.38	1558.50
685.57	1556.46
685.75	1515.50
685.94	1607.66
686.12	1507.30
686.31	1540.07
686.49	1550.31
686.68	1474.54
686.86	1509.35
687.05	1529.83
687.23	1646.57
687.42	1484.78
687.60	1482.73
687.79	1601.51
687.97	1601.51
688.16	1683.43
688.34	1609.70
688.53	1476.59
688.71	1531.88
688.90	1568.74
689.08	1515.50
689.27	1519.59
689.45	1617.90
689.64	1540.07
689.82	1591.27
690.01	1542.12
690.19	1515.50
690.38	1587.18
690.56	1611.75
690.75	1466.35
690.93	1488.87
691.12	1472.49
691.30	1492.97
691.49	1468.39
691.67	1531.88
691.86	1617.90
692.04	1441.77
692.23	1443.82
692.41	1564.65
692.60	1687.53
692.78	1634.28
692.97	1658.85
693.15	1583.08
693.34	1644.52
693.52	1642.47
693.71	1630.18
693.89	1603.56
694.08	1513.45
694.26	1609.70
694.44	1597.42
694.63	1570.79
694.81	1564.65
695.00	1554.41
695.18	1558.50
695.37	1681.38
695.55	1546.22
695.74	1554.41
695.92	1509.35
696.10	1675.24
696.29	1460.20
696.47	1529.83
696.66	1511.40
696.84	1572.84
697.03	1558.50
697.21	1712.10
697.40	2029.54
697.58	1615.85
697.76	1603.56
697.95	1517.54
698.13	1480.68
698.32	1521.64
698.50	1511.40
698.68	1542.12
698.87	1538.02
699.05	1597.42
699.24	1585.13
699.42	1574.89
699.61	1529.83
699.79	1509.35
699.97	1525.74
700.16	1447.91
700.34	1406.95
700.53	1552.36
700.71	1634.28
700.89	1607.66
701.08	1525.74
701.26	1533.93
701.45	1871.84
701.63	1570.79
701.81	1507.30
702.00	1609.70
702.18	1529.83
702.37	1525.74
702.55	1595.37
702.73	1687.53
702.92	1693.67
703.10	1783.78
703.28	1800.16
703.47	1675.24
703.65	1767.40
703.84	1685.48
704.02	1675.24
704.20	1642.47
704.39	1535.98
704.57	1597.42
704.75	1656.81
704.94	1675.24
705.12	1578.98
705.30	1638.38
705.49	1888.23
705.67	2785.24
705.86	7419.79
706.04	14647.07
706.22	18773.73
706.41	21784.24
706.59	23332.51
706.77	21374.65
706.96	14792.48
707.14	11880.27
707.32	9752.43
707.51	8558.46
707.69	7614.35
707.87	6799.26
708.06	5801.90
708.24	4732.86
708.42	3588.04
708.61	2928.60
708.79	2361.31
708.97	2002.91
709.16	1789.92
709.34	1714.15
709.52	1648.61
709.71	1597.42
709.89	1548.26
710.07	1495.02
710.26	1566.70
710.44	1544.17
710.62	1640.42
710.80	1497.07
710.99	1535.98
711.17	1591.27
711.35	1546.22
711.54	1564.65
711.72	1609.70
711.90	1560.55
712.09	1585.13
712.27	1550.31
712.45	1542.12
712.63	1488.87
712.82	1486.83
713.00	1558.50
713.18	1583.08
713.37	1593.32
713.55	1597.42
713.73	1533.93
713.91	1570.79
714.10	1492.97
714.28	1529.83
714.46	1492.97
714.65	1570.79
714.83	1495.02
715.01	1542.12
715.19	1490.92
715.38	1519.59
715.56	1611.75
715.74	1544.17
715.92	1441.77
716.11	1619.94
716.29	1458.15
716.47	1540.07
716.65	1544.17
716.84	1429.48
717.02	1624.04
717.20	1529.83
717.38	1492.97
717.57	1554.41
717.75	1482.73
717.93	1519.59
718.11	1564.65
718.30	1456.11
718.48	1593.32
718.66	1589.22
718.84	1576.94
719.03	1527.78
719.21	1517.54
719.39	1669.09
719.57	1566.70
719.75	1566.70
719.94	1503.21
720.12	1538.02
720.30	1505.26
720.48	1660.90
720.67	1497.07
720.85	1488.87
721.03	1484.78
721.21	1538.02
721.39	1568.74
721.58	1540.07
721.76	1511.40
721.94	1568.74
722.12	1546.22
722.30	1533.93
722.49	1525.74
722.67	1570.79
722.85	1544.17
723.03	1472.49
723.21	1513.45
723.40	1595.37
723.58	1533.93
723.76	1533.93
723.94	1540.07
724.12	1609.70
724.30	1703.91
724.49	1572.84
724.67	1552.36
724.85	1583.08
725.03	1548.26
725.21	1603.56
725.40	1585.13
725.58	1583.08
725.76	1572.84
725.94	1587.18
726.12	1445.87
726.30	1531.88
726.49	1550.31
726.67	1572.84
726.85	1499.11
727.03	1562.60
727.21	1773.54
727.39	2099.17
727.57	3360.72
727.76	4298.69
727.94	4808.63
728.12	5312.43
728.30	5111.73
728.48	4374.46
728.66	3516.36
728.84	3176.40
729.03	2901.97
729.21	2701.27
729.39	2416.60
729.57	2066.40
729.75	1843.17
729.93	1705.96
730.11	1632.23
730.30	1535.98
730.48	1619.94
730.66	1691.62
730.84	1595.37
731.02	1605.61
731.20	1443.82
731.38	1533.93
731.56	1521.64
731.74	1554.41
731.93	1566.70
732.11	1619.94
732.29	1492.97
732.47	1527.78
732.65	1521.64
732.83	1605.61
733.01	1587.18
733.19	1540.07
733.37	1552.36
733.56	1548.26
733.74	1445.87
733.92	1548.26
734.10	1546.22
734.28	1558.50
734.46	1460.20
734.64	1576.94
734.82	1523.69
735.00	1513.45
735.18	1560.55
735.36	1583.08
735.54	1576.94
735.73	1472.49
735.91	1521.64
736.09	1486.83
736.27	1425.39
736.45	1566.70
736.63	1511.40
736.81	1523.69
736.99	1556.46
737.17	1599.46
737.35	1521.64
737.53	1492.97
737.71	1560.55
737.89	1605.61
738.07	1482.73
738.25	1464.30
738.43	1533.93
738.61	1642.47
738.80	1466.35
738.98	1429.48
739.16	1509.35
739.34	1523.69
739.52	1615.85
739.70	1564.65
739.88	1564.65
740.06	1662.95
740.24	1445.87
740.42	1583.08
740.60	1456.11
740.78	1556.46
740.96	1464.30
741.14	1472.49
741.32	1607.66
741.50	1449.96
741.68	1673.19
741.86	1626.09
742.04	1482.73
742.22	1492.97
742.40	1564.65
742.58	1535.98
742.76	1472.49
742.94	1583.08
743.12	1484.78
743.30	1538.02
743.48	1544.17
743.66	1492.97
743.84	1548.26
744.02	1458.15
744.20	1583.08
744.38	1505.26
744.56	1501.16
744.74	1605.61
744.92	1636.33
745.10	1621.99
745.28	1554.41
745.46	1599.46
745.64	1476.59
745.82	1566.70
746.00	1441.77
746.18	1476.59
746.36	1462.25
746.54	1503.21
746.72	1587.18
746.90	1443.82
747.08	1595.37
747.26	1595.37
747.44	1566.70
747.62	1593.32
747.80	1585.13
747.98	1585.13
748.15	1542.12
748.33	1595.37
748.51	1560.55
748.69	1595.37
748.87	1562.60
749.05	1597.42
749.23	1484.78
749.41	1533.93
749.59	1544.17
749.77	1615.85
749.95	1527.78
750.13	1486.83
750.31	1624.04
750.49	1546.22
750.67	1515.50
750.85	1587.18
751.03	1603.56
751.20	1617.90
751.38	1548.26
751.56	1538.02
751.74	1607.66
751.92	1523.69
752.10	1507.30
752.28	1533.93
752.46	1540.07
752.64	1513.45
752.82	1556.46
753.00	1550.31
753.18	1574.89
753.35	1462.25
753.53	1511.40
753.71	1449.96
753.89	1566.70
754.07	1554.41
754.25	1615.85
754.43	1566.70
754.61	1478.63
754.79	1538.02
754.97	1509.35
755.14	1597.42
755.32	1495.02
755.50	1538.02
755.68	1507.30
755.86	1499.11
756.04	1521.64
756.22	1480.68
756.40	1566.70
756.57	1617.90
756.75	1486.83
756.93	1638.38
757.11	1581.03
757.29	1472.49
757.47	1476.59
757.65	1449.96
757.82	1462.25
758.00	1521.64
758.18	1583.08
758.36	1531.88
758.54	1640.42
758.72	1419.24
758.90	1603.56
759.07	1593.32
759.25	1482.73
759.43	1519.59
759.61	1495.02
759.79	1880.04
759.97	1533.93
760.15	1540.07
760.32	1456.11
760.50	1572.84
760.68	1568.74
760.86	1482.73
761.04	1597.42
761.22	1540.07
761.39	1513.45
761.57	1574.89
761.75	1486.83
761.93	1562.60
762.11	1501.16
762.28	1585.13
762.46	1542.12
762.64	1587.18
762.82	1523.69
763.00	1519.59
763.18	1570.79
763.35	1486.83
763.53	1603.56
763.71	1513.45
763.89	1533.93
764.07	1560.55
764.24	1562.60
764.42	1591.27
764.60	1554.41
764.78	1529.83
764.96	1548.26
765.13	1609.70
765.31	1599.46
765.49	1501.16
765.67	1521.64
765.84	1568.74
766.02	1546.22
766.20	1470.44
766.38	1607.66
766.56	1544.17
766.73	1519.59
766.91	1482.73
767.09	1503.21
767.27	1497.07
767.44	1533.93
767.62	1560.55
767.80	1527.78
767.98	1531.88
768.15	1578.98
768.33	1564.65
768.51	1531.88
768.69	1499.11
768.87	1552.36
769.04	1499.11
769.22	1648.61
769.40	1568.74
769.58	1611.75
769.75	1560.55
769.93	1644.52
770.11	1538.02
770.28	1449.96
770.46	1605.61
770.64	1546.22
770.82	1581.03
770.99	1550.31
771.17	1544.17
771.35	1501.16
771.53	1535.98
771.70	1505.26
771.88	1619.94
772.06	1525.74
772.23	1574.89
772.41	1562.60
772.59	1503.21
772.77	1466.35
772.94	1462.25
773.12	1544.17
773.30	1519.59
773.47	1531.88
773.65	1454.06
773.83	1624.04
774.01	1544.17
774.18	1472.49
774.36	1566.70
774.54	1511.40
774.71	1603.56
774.89	1462.25
775.07	1464.30
775.24	1523.69
775.42	1488.87
775.60	1648.61
775.78	1478.63
775.95	1521.64
776.13	1441.77
776.31	1445.87
776.48	1550.31
776.66	1556.46
776.84	1505.26
777.01	1458.15
777.19	1583.08
777.37	1480.68
777.54	1433.58
777.72	1595.37
777.90	1509.35
778.07	1519.59
778.25	1683.43
778.43	1593.32
778.60	1495.02
778.78	1583.08
778.96	1554.41
779.13	1468.39
779.31	1544.17
779.49	1607.66
779.66	1546.22
779.84	1546.22
780.01	1480.68
780.19	1505.26
780.37	1615.85
780.54	1533.93
780.72	1533.93
780.90	1490.92
781.07	1460.20
781.25	1525.74
781.43	1521.64
781.60	1484.78
781.78	1591.27
781.95	1529.83
782.13	1511.40
782.31	1535.98
782.48	1474.54
782.66	1523.69
782.83	1603.56
783.01	1552.36
783.19	1531.88
783.36	1591.27
783.54	1533.93
783.72	1507.30
783.89	1499.11
784.07	1468.39
784.24	1535.98
784.42	1583.08
784.60	1556.46
784.77	1490.92
784.95	1521.64
785.12	1488.87
785.30	1503.21
785.47	1513.45
785.65	1470.44
785.83	1566.70
786.00	1533.93
786.18	1556.46
786.35	1515.50
786.53	1523.69
786.71	1636.33
786.88	1554.41
787.06	1570.79
787.23	1587.18
787.41	1517.54
787.58	1519.59
787.76	1548.26
787.94	1550.31
788.11	1589.22
788.29	1492.97
788.46	1523.69
788.64	1472.49
788.81	1505.26
788.99	1468.39
789.16	1492.97
789.34	1495.02
789.52	1535.98
789.69	1535.98
789.87	1505.26
790.04	1456.11
790.22	1556.46
790.39	1587.18
790.57	1454.06
790.74	1490.92
790.92	1570.79
791.09	1454.06
791.27	1486.83
791.44	1574.89
791.62	1607.66
791.79	1517.54
791.97	1519.59
792.15	1632.23
792.32	1595.37
792.50	1570.79
792.67	1570.79
792.85	1578.98
793.02	1486.83
793.20	1495.02
793.37	1505.26
793.55	1519.59
793.72	1411.05
793.90	1572.84
794.07	1521.64
794.25	1544.17
794.42	1507.30
794.60	1535.98
794.77	1581.03
794.95	1572.84
795.12	1568.74
795.30	1535.98
795.47	1525.74
795.65	1644.52
795.82	1531.88
796.00	1535.98
796.17	1513.45
796.34	1515.50
796.52	1499.11
796.69	1568.74
796.87	1609.70
797.04	1540.07
797.22	1585.13
797.39	1499.11
797.57	1533.93
797.74	1548.26
797.92	1538.02
798.09	1466.35
798.27	1460.20
798.44	1570.79
798.62	1511.40
798.79	1511.40
798.96	1558.50
799.14	1441.77
799.31	1675.24
799.49	1509.35
799.66	1503.21
799.84	1529.83
800.01	1490.92
800.19	1533.93
800.36	1456.11
800.53	1566.70
800.71	1540.07
800.88	1609.70
801.06	1535.98
801.23	1472.49
801.41	1589.22
801.58	1570.79
801.75	1437.67
801.93	1550.31
802.10	1566.70
802.28	1492.97
802.45	1501.16
802.63	1492.97
802.80	1652.71
802.97	1501.16
803.15	1613.80
803.32	1462.25
803.50	1472.49
803.67	1505.26
803.84	1486.83
804.02	1593.32
804.19	1515.50
804.37	1474.54
804.54	1505.26
804.71	1556.46
804.89	1499.11
805.06	1501.16
805.24	1495.02
805.41	1474.54
805.58	1480.68
805.76	1685.48
805.93	1517.54
806.10	1517.54
806.28	1509.35
806.45	1564.65
806.63	1574.89
806.80	1492.97
806.97	1533.93
807.15	1517.54
807.32	1542.12
807.49	1529.83
807.67	1517.54
807.84	1519.59
808.01	1480.68
808.19	1599.46
808.36	1615.85
808.54	1550.31
808.71	1540.07
808.88	1560.55
809.06	1572.84
809.23	1570.79
809.40	1460.20
809.58	1601.51
809.75	1492.97
809.92	1570.79
810.10	1644.52
810.27	1548.26
810.44	1495.02
810.62	1495.02
810.79	1548.26
810.96	1589.22
811.14	1505.26
811.31	1538.02
811.48	1519.59
811.66	1542.12
811.83	1503.21
812.00	1550.31
812.18	1552.36
812.35	1581.03
812.52	1447.91
812.69	1540.07
812.87	1533.93
813.04	1511.40
813.21	1605.61
813.39	1546.22
813.56	1515.50
813.73	1476.59
813.91	1445.87
814.08	1570.79
814.25	1599.46
814.42	1449.96
814.60	1581.03
814.77	1578.98
814.94	1552.36
815.12	1503.21
815.29	1574.89
815.46	1538.02
815.63	1529.83
815.81	1452.01
815.98	1507.30
816.15	1554.41
816.33	1411.05
816.50	1484.78
816.67	1474.54
816.84	1552.36
817.02	1454.06
817.19	1566.70
817.36	1560.55
817.53	1615.85
817.71	1484.78
817.88	1546.22
818.05	1492.97
818.22	1478.63
818.40	1562.60
818.57	1570.79
818.74	1515.50
818.91	1476.59
819.09	1583.08
819.26	1617.90
819.43	1558.50
819.60	1484.78
819.78	1593.32
819.95	1593.32
820.12	1519.59
820.29	1568.74
820.47	1593.32
820.64	1462.25
820.81	1515.50
820.98	1484.78
821.15	1574.89
821.33	1497.07
821.50	1425.39
821.67	1441.77
821.84	1492.97
822.02	1628.14
822.19	1583.08
822.36	1519.59
822.53	1525.74
822.70	1492.97
822.88	1511.40
823.05	1654.76
823.22	1531.88
823.39	1603.56
823.56	1515.50
823.74	1601.51
823.91	1511.40
824.08	1503.21
824.25	1480.68
824.42	1646.57
824.60	1468.39
824.77	1538.02
824.94	1515.50
825.11	1525.74
825.28	1419.24
825.45	1626.09
825.63	1490.92
825.80	1572.84
825.97	1595.37
826.14	1527.78
826.31	1413.10
826.48	1613.80
826.66	1486.83
826.83	1546.22
827.00	1464.30
827.17	1468.39
827.34	1486.83
827.51	1527.78
827.69	1511.40
827.86	1492.97
828.03	1560.55
828.20	1542.12
828.37	1476.59
828.54	1525.74
828.71	1605.61
828.89	1544.17
829.06	1533.93
829.23	1564.65
829.40	1431.53
829.57	1490.92
829.74	1562.60
829.91	1507.30
830.09	1476.59
830.26	1523.69
830.43	1617.90
830.60	1519.59
830.77	1527.78
830.94	1624.04
831.11	1607.66
831.28	1507.30
831.46	1560.55
831.63	1540.07
831.80	1540.07
831.97	1619.94
832.14	1517.54
832.31	1519.59
832.48	1503.21
832.65	1527.78
832.82	1517.54
832.99	1525.74
833.17	1476.59
833.34	1531.88
833.51	1499.11
833.68	1470.44
833.85	1591.27
834.02	1449.96
834.19	1435.63
834.36	1474.54
834.53	1527.78
834.70	1613.80
834.87	1507.30
835.04	1439.72
835.22	1554.41
835.39	1431.53
835.56	1552.36
835.73	1458.15
835.90	1630.18
836.07	1472.49
836.24	1570.79
836.41	1478.63
836.58	1497.07
836.75	1613.80
836.92	1533.93
837.09	1542.12
837.26	1501.16
837.43	1558.50
837.60	1548.26
837.77	1636.33
837.94	1593.32
838.12	1550.31
838.29	1603.56
838.46	1413.10
838.63	1492.97
838.80	1603.56
838.97	1589.22
839.14	1578.98
839.31	1507.30
839.48	1568.74
839.65	1556.46
839.82	1591.27
839.99	1525.74
840.16	1576.94
840.33	1486.83
840.50	1566.70
840.67	1484.78
840.84	1423.34
841.01	1478.63
841.18	1554.41
841.35	1550.31
841.52	1601.51
841.69	1626.09
841.86	1587.18
842.03	1497.07
842.20	1548.26
842.37	1452.01
842.54	1527.78
842.71	1568.74
842.88	1509.35
843.05	1595.37
843.22	1517.54
843.39	1535.98
843.56	1538.02
843.73	1538.02
843.90	1503.21
844.07	1488.87
844.24	1585.13
844.41	1587.18
844.58	1558.50
844.75	1456.11
844.92	1601.51
845.09	1583.08
845.26	1499.11
845.43	1585.13
845.60	1540.07
845.77	1679.33
845.94	1521.64
846.10	1601.51
846.27	1452.01
846.44	1490.92
846.61	1495.02
846.78	1519.59
846.95	1574.89
847.12	1456.11
847.29	1593.32
847.46	1538.02
847.63	1558.50
847.80	1505.26
847.97	1517.54
848.14	1589.22
848.31	1615.85
848.48	1517.54
848.65	1546.22
848.82	1513.45
848.98	1640.42
849.15	1593.32
849.32	1558.50
849.49	1538.02
849.66	1560.55
849.83	1576.94
850.00	1484.78
850.17	1562.60
850.34	1515.50
850.51	1486.83
850.68	1488.87
850.85	1591.27
851.01	1454.06
851.18	1581.03
851.35	1480.68
851.52	1574.89
851.69	1654.76
851.86	1503.21
852.03	1593.32
852.20	1568.74
852.37	1529.83
852.53	1548.26
852.70	1535.98
852.87	1574.89
853.04	1589.22
853.21	1576.94
853.38	1578.98
853.55	1560.55
853.72	1585.13
853.89	1441.77
854.05	1519.59
854.22	1503.21
854.39	1507.30
854.56	1531.88
854.73	1650.66
854.90	1495.02
855.07	1521.64
855.23	1552.36
855.40	1525.74
855.57	1511.40
855.74	1437.67
855.91	1687.53
856.08	1443.82
856.25	1505.26
856.41	1456.11
856.58	1521.64
856.75	1521.64
856.92	1398.76
857.09	1599.46
857.26	1519.59
857.42	1574.89
857.59	1576.94
857.76	1484.78
857.93	1458.15
858.10	1509.35
858.27	1535.98
858.43	1490.92
858.60	1423.34
858.77	1447.91
858.94	1509.35
859.11	1599.46
859.27	1519.59
859.44	1576.94
859.61	1662.95
859.78	1495.02
859.95	1509.35
860.12	1585.13
860.28	1603.56
860.45	1644.52
860.62	1511.40
860.79	1546.22
860.95	1589.22
861.12	1468.39
861.29	1550.31
861.46	1515.50
861.63	1546.22
861.79	1585.13
861.96	1519.59
862.13	1462.25
862.30	1566.70
862.47	1501.16
862.63	1538.02
862.80	1607.66
862.97	1603.56
863.14	1488.87
863.30	1560.55
863.47	1507.30
863.64	1574.89
863.81	1517.54
863.97	1599.46
864.14	1535.98
864.31	1484.78
864.48	1548.26
864.65	1558.50
864.81	1613.80
864.98	1517.54
865.15	1574.89
865.32	1566.70
865.48	1605.61
865.65	1609.70
865.82	1525.74
865.98	1615.85
866.15	1552.36
866.32	1515.50
866.49	1533.93
866.65	1581.03
866.82	1484.78
866.99	1535.98
867.16	1562.60
867.32	1486.83
867.49	1476.59
867.66	1511.40
867.83	1443.82
867.99	1478.63
868.16	1562.60
868.33	1472.49
868.49	1509.35
868.66	1484.78
868.83	1527.78
868.99	1589.22
869.16	1634.28
869.33	1605.61
869.50	1587.18
869.66	1574.89
869.83	1531.88
870.00	1478.63
870.16	1560.55
870.33	1501.16
870.50	1566.70
870.66	1525.74
870.83	1638.38
871.00	1587.18
871.17	1564.65
871.33	1542.12
871.50	1503.21
871.67	1486.83
871.83	1519.59
872.00	1601.51
872.17	1558.50
872.33	1630.18
872.50	1570.79
872.67	1480.68
872.83	1468.39
873.00	1578.98
873.17	1574.89
873.33	1503.21
873.50	1484.78
873.67	1544.17
873.83	1552.36
874.00	1572.84
874.16	1597.42
874.33	1550.31
874.50	1482.73
874.66	1640.42
874.83	1529.83
875.00	1591.27
875.16	1562.60
875.33	1591.27
875.50	1452.01
875.66	1488.87
875.83	1593.32
875.99	1519.59
876.16	1501.16
876.33	1503.21
876.49	1527.78
876.66	1509.35
876.83	1501.16
876.99	1421.29
877.16	1568.74
877.32	1542.12
877.49	1478.63
877.66	1523.69
877.82	1650.66
877.99	1591.27
878.15	1562.60
878.32	1548.26
878.49	1525.74
878.65	1480.68
878.82	1535.98
878.98	1513.45
879.15	1568.74
879.32	1615.85
879.48	1476.59
879.65	1431.53
879.81	1593.32
879.98	1544.17
880.15	1572.84
880.31	1587.18
880.48	1472.49
880.64	1570.79
880.81	1576.94
880.97	1558.50
881.14	1650.66
881.31	1478.63
881.47	1615.85
881.64	1556.46
881.80	1423.34
881.97	1538.02
882.13	1574.89
882.30	1562.60
882.47	1554.41
882.63	1581.03
882.80	1488.87
882.96	1507.30
883.13	1626.09
883.29	1474.54
883.46	1495.02
883.62	1583.08
883.79	1560.55
883.95	1548.26
884.12	1535.98
884.29	1648.61
884.45	1505.26
884.62	1550.31
884.78	1513.45
884.95	1597.42
885.11	1507.30
885.28	1607.66
885.44	1509.35
885.61	1654.76
885.77	1626.09
885.94	1564.65
886.10	1558.50
886.27	1548.26
886.43	1593.32
886.60	1570.79
886.76	1476.59
886.93	1478.63
887.09	1492.97
887.26	1447.91
887.42	1474.54
887.59	1509.35
887.75	1634.28
887.92	1609.70
888.08	1527.78
888.25	1585.13
888.41	1523.69
888.58	1478.63
888.74	1507.30
888.91	1511.40
>>>>>End Processed Spectral Data<<<<<
