SpectraSuite Data File
++++++++++++++++++++++++++++++++++++
Date: Tue May 03 12:55:20 CEST 2016
User: root
Dark Spectrum Present: No
Reference Spectrum Present: No
Number of Sampled Component Spectra: 1
Spectrometers: USB4C02835
Integration Time (usec): 100000 (USB4C02835)
Spectra Averaged: 1 (USB4C02835)
Boxcar Smoothing: 0 (USB4C02835)
Correct for Electrical Dark: No (USB4C02835)
Strobe/Lamp Enabled: No (USB4C02835)
Correct for Detector Non-linearity: No (USB4C02835)
Correct for Stray Light: No (USB4C02835)
Number of Pixels in Processed Spectrum: 3648
>>>>>Begin Processed Spectral Data<<<<<
177.47	1386.47
177.69	1386.47
177.91	1386.47
178.13	1335.28
178.36	1417.19
178.58	1449.96
178.80	1578.98
179.02	1452.01
179.24	1495.02
179.46	1447.91
179.68	1552.36
179.90	1519.59
180.13	1490.92
180.35	1538.02
180.57	1525.74
180.79	1599.46
181.01	1542.12
181.23	1589.22
181.45	1558.50
181.67	1581.03
181.90	1558.50
182.12	1517.54
182.34	1472.49
182.56	1548.26
182.78	1538.02
183.00	1515.50
183.22	1519.59
183.44	1460.20
183.66	1599.46
183.89	1574.89
184.11	1490.92
184.33	1529.83
184.55	1566.70
184.77	1591.27
184.99	1628.14
185.21	1556.46
185.43	1656.81
185.65	1464.30
185.87	1552.36
186.10	1632.23
186.32	1660.90
186.54	1603.56
186.76	1636.33
186.98	1638.38
187.20	1495.02
187.42	1525.74
187.64	1525.74
187.86	1564.65
188.08	1646.57
188.30	1480.68
188.52	1517.54
188.75	1501.16
188.97	1615.85
189.19	1505.26
189.41	1519.59
189.63	1540.07
189.85	1574.89
190.07	1468.39
190.29	1515.50
190.51	1529.83
190.73	1529.83
190.95	1587.18
191.17	1585.13
191.39	1558.50
191.61	1505.26
191.84	1583.08
192.06	1599.46
192.28	1443.82
192.50	1705.96
192.72	1554.41
192.94	1409.00
193.16	1552.36
193.38	1597.42
193.60	1517.54
193.82	1517.54
194.04	1691.62
194.26	1568.74
194.48	1546.22
194.70	1581.03
194.92	1505.26
195.14	1527.78
195.36	1535.98
195.58	1566.70
195.80	1531.88
196.02	1591.27
196.24	1492.97
196.46	1560.55
196.69	1572.84
196.91	1609.70
197.13	1503.21
197.35	1511.40
197.57	1617.90
197.79	1583.08
198.01	1533.93
198.23	1576.94
198.45	1499.11
198.67	1441.77
198.89	1538.02
199.11	1445.87
199.33	1542.12
199.55	1492.97
199.77	1550.31
199.99	1542.12
200.21	1507.30
200.43	1552.36
200.65	1441.77
200.87	1413.10
201.09	1562.60
201.31	1548.26
201.53	1595.37
201.75	1568.74
201.97	1558.50
202.19	1499.11
202.41	1564.65
202.63	1636.33
202.85	1548.26
203.07	1597.42
203.29	1511.40
203.51	1540.07
203.73	1472.49
203.95	1693.67
204.17	1533.93
204.39	1533.93
204.61	1507.30
204.83	1503.21
205.05	1546.22
205.27	1591.27
205.49	1585.13
205.71	1507.30
205.93	1507.30
206.15	1507.30
206.37	1527.78
206.59	1550.31
206.81	1490.92
207.03	1501.16
207.25	1484.78
207.47	1607.66
207.69	1511.40
207.91	1572.84
208.13	1599.46
208.34	1523.69
208.56	1443.82
208.78	1562.60
209.00	1515.50
209.22	1550.31
209.44	1574.89
209.66	1464.30
209.88	1566.70
210.10	1490.92
210.32	1538.02
210.54	1591.27
210.76	1505.26
210.98	1611.75
211.20	1486.83
211.42	1535.98
211.64	1564.65
211.86	1535.98
212.08	1570.79
212.30	1535.98
212.52	1499.11
212.74	1552.36
212.96	1538.02
213.17	1628.14
213.39	1554.41
213.61	1621.99
213.83	1652.71
214.05	1511.40
214.27	1501.16
214.49	1476.59
214.71	1454.06
214.93	1611.75
215.15	1599.46
215.37	1552.36
215.59	1517.54
215.81	1552.36
216.03	1576.94
216.24	1499.11
216.46	1503.21
216.68	1523.69
216.90	1648.61
217.12	1595.37
217.34	1621.99
217.56	1570.79
217.78	1560.55
218.00	1556.46
218.22	1546.22
218.44	1550.31
218.66	1587.18
218.87	1564.65
219.09	1511.40
219.31	1533.93
219.53	1583.08
219.75	1478.63
219.97	1511.40
220.19	1564.65
220.41	1540.07
220.63	1605.61
220.85	1558.50
221.06	1566.70
221.28	1488.87
221.50	1570.79
221.72	1517.54
221.94	1578.98
222.16	1495.02
222.38	1519.59
222.60	1593.32
222.82	1572.84
223.03	1574.89
223.25	1486.83
223.47	1632.23
223.69	1675.24
223.91	1613.80
224.13	1509.35
224.35	1535.98
224.57	1558.50
224.78	1523.69
225.00	1501.16
225.22	1497.07
225.44	1533.93
225.66	1564.65
225.88	1505.26
226.10	1585.13
226.32	1583.08
226.53	1581.03
226.75	1531.88
226.97	1558.50
227.19	1589.22
227.41	1449.96
227.63	1576.94
227.85	1484.78
228.06	1554.41
228.28	1535.98
228.50	1560.55
228.72	1531.88
228.94	1509.35
229.16	1417.19
229.37	1497.07
229.59	1601.51
229.81	1619.94
230.03	1546.22
230.25	1492.97
230.47	1570.79
230.69	1517.54
230.90	1636.33
231.12	1587.18
231.34	1570.79
231.56	1576.94
231.78	1464.30
232.00	1566.70
232.21	1619.94
232.43	1533.93
232.65	1452.01
232.87	1497.07
233.09	1392.62
233.30	1492.97
233.52	1546.22
233.74	1490.92
233.96	1517.54
234.18	1587.18
234.40	1497.07
234.61	1615.85
234.83	1542.12
235.05	1452.01
235.27	1701.86
235.49	1562.60
235.70	1593.32
235.92	1609.70
236.14	1490.92
236.36	1632.23
236.58	1505.26
236.79	1507.30
237.01	1503.21
237.23	1538.02
237.45	1599.46
237.67	1552.36
237.88	1468.39
238.10	1681.38
238.32	1462.25
238.54	1562.60
238.76	1482.73
238.97	1499.11
239.19	1437.67
239.41	1554.41
239.63	1540.07
239.85	1509.35
240.06	1550.31
240.28	1578.98
240.50	1548.26
240.72	1521.64
240.93	1525.74
241.15	1556.46
241.37	1521.64
241.59	1583.08
241.81	1458.15
242.02	1503.21
242.24	1540.07
242.46	1581.03
242.68	1550.31
242.89	1564.65
243.11	1626.09
243.33	1499.11
243.55	1595.37
243.76	1601.51
243.98	1554.41
244.20	1523.69
244.42	1513.45
244.64	1583.08
244.85	1486.83
245.07	1447.91
245.29	1535.98
245.51	1585.13
245.72	1591.27
245.94	1570.79
246.16	1507.30
246.38	1578.98
246.59	1574.89
246.81	1464.30
247.03	1515.50
247.24	1480.68
247.46	1574.89
247.68	1517.54
247.90	1570.79
248.11	1535.98
248.33	1587.18
248.55	1460.20
248.77	1607.66
248.98	1550.31
249.20	1482.73
249.42	1507.30
249.64	1538.02
249.85	1556.46
250.07	1513.45
250.29	1607.66
250.50	1566.70
250.72	1480.68
250.94	1576.94
251.16	1679.33
251.37	1566.70
251.59	1525.74
251.81	1521.64
252.02	1615.85
252.24	1505.26
252.46	1544.17
252.68	1417.19
252.89	1472.49
253.11	1415.15
253.33	1665.00
253.54	1593.32
253.76	1490.92
253.98	1482.73
254.20	1509.35
254.41	1417.19
254.63	1552.36
254.85	1509.35
255.06	1535.98
255.28	1570.79
255.50	1538.02
255.71	1585.13
255.93	1517.54
256.15	1535.98
256.36	1576.94
256.58	1527.78
256.80	1501.16
257.02	1521.64
257.23	1488.87
257.45	1540.07
257.67	1621.99
257.88	1454.06
258.10	1585.13
258.32	1568.74
258.53	1550.31
258.75	1603.56
258.97	1529.83
259.18	1519.59
259.40	1476.59
259.62	1609.70
259.83	1511.40
260.05	1615.85
260.27	1777.64
260.48	1581.03
260.70	1492.97
260.92	1531.88
261.13	1533.93
261.35	1507.30
261.57	1613.80
261.78	1398.76
262.00	1460.20
262.22	1591.27
262.43	1509.35
262.65	1509.35
262.86	1550.31
263.08	1621.99
263.30	1544.17
263.51	1462.25
263.73	1585.13
263.95	1624.04
264.16	1515.50
264.38	1507.30
264.60	1626.09
264.81	1509.35
265.03	1591.27
265.25	1617.90
265.46	1544.17
265.68	1558.50
265.89	1570.79
266.11	1445.87
266.33	1550.31
266.54	1607.66
266.76	1605.61
266.98	1527.78
267.19	1601.51
267.41	1538.02
267.62	1505.26
267.84	1445.87
268.06	1550.31
268.27	1507.30
268.49	1597.42
268.70	1638.38
268.92	1550.31
269.14	1478.63
269.35	1503.21
269.57	1499.11
269.79	1583.08
270.00	1523.69
270.22	1648.61
270.43	1546.22
270.65	1476.59
270.87	1519.59
271.08	1517.54
271.30	1648.61
271.51	1529.83
271.73	1546.22
271.95	1572.84
272.16	1609.70
272.38	1456.11
272.59	1523.69
272.81	1517.54
273.02	1607.66
273.24	1576.94
273.46	1576.94
273.67	1527.78
273.89	1445.87
274.10	1574.89
274.32	1499.11
274.54	1523.69
274.75	1581.03
274.97	1560.55
275.18	1495.02
275.40	1572.84
275.61	1511.40
275.83	1568.74
276.05	1411.05
276.26	1521.64
276.48	1535.98
276.69	1507.30
276.91	1515.50
277.12	1581.03
277.34	1599.46
277.55	1581.03
277.77	1542.12
277.99	1538.02
278.20	1519.59
278.42	1533.93
278.63	1503.21
278.85	1558.50
279.06	1454.06
279.28	1564.65
279.49	1497.07
279.71	1556.46
279.93	1556.46
280.14	1484.78
280.36	1523.69
280.57	1511.40
280.79	1587.18
281.00	1533.93
281.22	1558.50
281.43	1658.85
281.65	1486.83
281.86	1517.54
282.08	1576.94
282.29	1595.37
282.51	1478.63
282.73	1452.01
282.94	1495.02
283.16	1531.88
283.37	1535.98
283.59	1488.87
283.80	1607.66
284.02	1503.21
284.23	1540.07
284.45	1503.21
284.66	1511.40
284.88	1521.64
285.09	1601.51
285.31	1574.89
285.52	1564.65
285.74	1466.35
285.95	1581.03
286.17	1521.64
286.38	1681.38
286.60	1562.60
286.81	1476.59
287.03	1538.02
287.24	1570.79
287.46	1558.50
287.67	1619.94
287.89	1583.08
288.10	1542.12
288.32	1568.74
288.53	1533.93
288.75	1554.41
288.96	1535.98
289.18	1527.78
289.39	1447.91
289.61	1566.70
289.82	1630.18
290.04	1603.56
290.25	1421.29
290.47	1554.41
290.68	1511.40
290.90	1470.44
291.11	1454.06
291.33	1562.60
291.54	1484.78
291.76	1556.46
291.97	1507.30
292.18	1564.65
292.40	1462.25
292.61	1511.40
292.83	1689.57
293.04	1564.65
293.26	1581.03
293.47	1660.90
293.69	1521.64
293.90	1568.74
294.12	1564.65
294.33	1562.60
294.55	1542.12
294.76	1538.02
294.97	1564.65
295.19	1591.27
295.40	1542.12
295.62	1529.83
295.83	1599.46
296.05	1546.22
296.26	1601.51
296.48	1476.59
296.69	1556.46
296.90	1578.98
297.12	1566.70
297.33	1519.59
297.55	1578.98
297.76	1585.13
297.98	1535.98
298.19	1591.27
298.41	1595.37
298.62	1529.83
298.83	1642.47
299.05	1558.50
299.26	1472.49
299.48	1495.02
299.69	1583.08
299.90	1558.50
300.12	1515.50
300.33	1554.41
300.55	1560.55
300.76	1556.46
300.98	1513.45
301.19	1542.12
301.40	1515.50
301.62	1525.74
301.83	1540.07
302.05	1544.17
302.26	1570.79
302.47	1574.89
302.69	1505.26
302.90	1544.17
303.12	1458.15
303.33	1630.18
303.54	1652.71
303.76	1515.50
303.97	1505.26
304.19	1619.94
304.40	1472.49
304.61	1613.80
304.83	1650.66
305.04	1597.42
305.26	1574.89
305.47	1462.25
305.68	1609.70
305.90	1490.92
306.11	1570.79
306.33	1626.09
306.54	1509.35
306.75	1548.26
306.97	1505.26
307.18	1564.65
307.39	1546.22
307.61	1603.56
307.82	1497.07
308.04	1443.82
308.25	1513.45
308.46	1511.40
308.68	1538.02
308.89	1527.78
309.10	1538.02
309.32	1501.16
309.53	1562.60
309.74	1550.31
309.96	1517.54
310.17	1538.02
310.39	1488.87
310.60	1507.30
310.81	1574.89
311.03	1585.13
311.24	1542.12
311.45	1517.54
311.67	1624.04
311.88	1538.02
312.09	1484.78
312.31	1484.78
312.52	1544.17
312.73	1503.21
312.95	1513.45
313.16	1525.74
313.37	1589.22
313.59	1574.89
313.80	1509.35
314.01	1638.38
314.23	1507.30
314.44	1519.59
314.65	1490.92
314.87	1550.31
315.08	1525.74
315.29	1488.87
315.51	1497.07
315.72	1435.63
315.93	1648.61
316.15	1546.22
316.36	1533.93
316.57	1538.02
316.79	1585.13
317.00	1560.55
317.21	1552.36
317.43	1603.56
317.64	1546.22
317.85	1458.15
318.07	1544.17
318.28	1687.53
318.49	1755.11
318.70	1798.12
318.92	1740.77
319.13	1732.58
319.34	1710.05
319.56	1583.08
319.77	1607.66
319.98	1701.86
320.20	1636.33
320.41	1671.14
320.62	1558.50
320.83	1495.02
321.05	1642.47
321.26	1556.46
321.47	1509.35
321.69	1556.46
321.90	1519.59
322.11	1521.64
322.32	1492.97
322.54	1542.12
322.75	1495.02
322.96	1585.13
323.18	1454.06
323.39	1497.07
323.60	1445.87
323.81	1611.75
324.03	1492.97
324.24	1542.12
324.45	1562.60
324.66	1527.78
324.88	1497.07
325.09	1587.18
325.30	1550.31
325.52	1517.54
325.73	1535.98
325.94	1495.02
326.15	1472.49
326.37	1495.02
326.58	1544.17
326.79	1591.27
327.00	1466.35
327.22	1572.84
327.43	1478.63
327.64	1421.29
327.85	1501.16
328.07	1533.93
328.28	1574.89
328.49	1566.70
328.70	1515.50
328.92	1511.40
329.13	1552.36
329.34	1478.63
329.55	1679.33
329.76	1556.46
329.98	1531.88
330.19	1628.14
330.40	1597.42
330.61	1574.89
330.83	1630.18
331.04	1452.01
331.25	1521.64
331.46	1517.54
331.68	1501.16
331.89	1523.69
332.10	1544.17
332.31	1533.93
332.52	1501.16
332.74	1599.46
332.95	1468.39
333.16	1535.98
333.37	1527.78
333.58	1515.50
333.80	1501.16
334.01	1486.83
334.22	1468.39
334.43	1560.55
334.64	1599.46
334.86	1503.21
335.07	1531.88
335.28	1597.42
335.49	1513.45
335.70	1544.17
335.92	1560.55
336.13	1556.46
336.34	1513.45
336.55	1515.50
336.76	1597.42
336.98	1497.07
337.19	1499.11
337.40	1636.33
337.61	1675.24
337.82	1507.30
338.04	1609.70
338.25	1480.68
338.46	1456.11
338.67	1474.54
338.88	1542.12
339.09	1501.16
339.31	1556.46
339.52	1474.54
339.73	1419.24
339.94	1486.83
340.15	1591.27
340.36	1454.06
340.58	1542.12
340.79	1452.01
341.00	1550.31
341.21	1529.83
341.42	1587.18
341.63	1464.30
341.85	1615.85
342.06	1447.91
342.27	1492.97
342.48	1597.42
342.69	1452.01
342.90	1527.78
343.12	1595.37
343.33	1484.78
343.54	1542.12
343.75	1638.38
343.96	1527.78
344.17	1552.36
344.38	1490.92
344.60	1470.44
344.81	1529.83
345.02	1566.70
345.23	1613.80
345.44	1619.94
345.65	1617.90
345.86	1607.66
346.07	1538.02
346.29	1460.20
346.50	1570.79
346.71	1624.04
346.92	1560.55
347.13	1593.32
347.34	1507.30
347.55	1558.50
347.76	1519.59
347.98	1447.91
348.19	1527.78
348.40	1619.94
348.61	1513.45
348.82	1689.57
349.03	1679.33
349.24	1435.63
349.45	1621.99
349.66	1497.07
349.88	1509.35
350.09	1509.35
350.30	1605.61
350.51	1597.42
350.72	1533.93
350.93	1535.98
351.14	1449.96
351.35	1535.98
351.56	1578.98
351.77	1568.74
351.99	1550.31
352.20	1613.80
352.41	1593.32
352.62	1445.87
352.83	1503.21
353.04	1521.64
353.25	1480.68
353.46	1501.16
353.67	1605.61
353.88	1454.06
354.09	1533.93
354.30	1564.65
354.52	1615.85
354.73	1548.26
354.94	1576.94
355.15	1499.11
355.36	1619.94
355.57	1480.68
355.78	1558.50
355.99	1525.74
356.20	1482.73
356.41	1548.26
356.62	1517.54
356.83	1535.98
357.04	1595.37
357.25	1527.78
357.46	1538.02
357.68	1423.34
357.89	1476.59
358.10	1548.26
358.31	1478.63
358.52	1546.22
358.73	1556.46
358.94	1486.83
359.15	1443.82
359.36	1519.59
359.57	1521.64
359.78	1484.78
359.99	1570.79
360.20	1560.55
360.41	1546.22
360.62	1601.51
360.83	1550.31
361.04	1595.37
361.25	1544.17
361.46	1568.74
361.67	1550.31
361.88	1540.07
362.09	1562.60
362.30	1533.93
362.51	1449.96
362.72	1445.87
362.93	1572.84
363.14	1578.98
363.35	1576.94
363.56	1552.36
363.78	1624.04
363.99	1568.74
364.20	1519.59
364.41	1550.31
364.62	1646.57
364.83	1599.46
365.04	1535.98
365.25	1597.42
365.46	1648.61
365.67	1452.01
365.88	1462.25
366.09	1607.66
366.30	1544.17
366.51	1525.74
366.72	1546.22
366.93	1556.46
367.14	1570.79
367.35	1652.71
367.56	1529.83
367.77	1628.14
367.98	1540.07
368.18	1578.98
368.39	1595.37
368.60	1525.74
368.81	1556.46
369.02	1550.31
369.23	1566.70
369.44	1509.35
369.65	1523.69
369.86	1533.93
370.07	1593.32
370.28	1544.17
370.49	1529.83
370.70	1570.79
370.91	1533.93
371.12	1503.21
371.33	1621.99
371.54	1507.30
371.75	1624.04
371.96	1437.67
372.17	1513.45
372.38	1558.50
372.59	1599.46
372.80	1540.07
373.01	1601.51
373.22	1568.74
373.43	1544.17
373.64	1513.45
373.85	1619.94
374.06	1591.27
374.26	1578.98
374.47	1587.18
374.68	1654.76
374.89	1517.54
375.10	1511.40
375.31	1542.12
375.52	1552.36
375.73	1521.64
375.94	1468.39
376.15	1650.66
376.36	1527.78
376.57	1601.51
376.78	1630.18
376.99	1556.46
377.20	1589.22
377.40	1517.54
377.61	1632.23
377.82	1447.91
378.03	1624.04
378.24	1542.12
378.45	1533.93
378.66	1505.26
378.87	1495.02
379.08	1525.74
379.29	1511.40
379.50	1597.42
379.71	1560.55
379.91	1525.74
380.12	1525.74
380.33	1527.78
380.54	1570.79
380.75	1482.73
380.96	1581.03
381.17	1585.13
381.38	1634.28
381.59	1624.04
381.80	1595.37
382.00	1687.53
382.21	1525.74
382.42	1654.76
382.63	1705.96
382.84	1576.94
383.05	1570.79
383.26	1613.80
383.47	1544.17
383.68	1560.55
383.88	1538.02
384.09	1538.02
384.30	1638.38
384.51	1617.90
384.72	1550.31
384.93	1456.11
385.14	1533.93
385.35	1599.46
385.55	1480.68
385.76	1621.99
385.97	1535.98
386.18	1484.78
386.39	1548.26
386.60	1501.16
386.81	1615.85
387.02	1550.31
387.22	1509.35
387.43	1607.66
387.64	1677.29
387.85	1820.64
388.06	3157.97
388.27	7249.81
388.48	10618.72
388.68	12529.47
388.89	13905.71
389.10	13045.56
389.31	10139.49
389.52	8892.28
389.73	7853.96
389.93	7128.98
390.14	6813.59
390.35	6211.49
390.56	5556.14
390.77	4599.74
390.98	3663.82
391.18	2766.81
391.39	2217.95
391.60	1853.41
391.81	1705.96
392.02	1538.02
392.23	1640.42
392.43	1533.93
392.64	1593.32
392.85	1503.21
393.06	1593.32
393.27	1472.49
393.47	1519.59
393.68	1603.56
393.89	1566.70
394.10	1581.03
394.31	1470.44
394.52	1529.83
394.72	1425.39
394.93	1624.04
395.14	1429.48
395.35	1490.92
395.56	1527.78
395.76	1638.38
395.97	1667.05
396.18	1759.21
396.39	1857.51
396.60	1779.68
396.80	1791.97
397.01	1626.09
397.22	1712.10
397.43	1681.38
397.64	1650.66
397.84	1667.05
398.05	1652.71
398.26	1589.22
398.47	1603.56
398.67	1599.46
398.88	1630.18
399.09	1542.12
399.30	1538.02
399.51	1521.64
399.71	1478.63
399.92	1540.07
400.13	1570.79
400.34	1527.78
400.54	1529.83
400.75	1603.56
400.96	1517.54
401.17	1626.09
401.37	1605.61
401.58	1589.22
401.79	1624.04
402.00	1791.97
402.21	1947.62
402.41	1904.61
402.62	1947.62
402.83	1916.90
403.04	1865.70
403.24	1888.23
403.45	1720.29
403.66	1757.16
403.87	1789.92
404.07	1796.07
404.28	1843.17
404.49	1748.97
404.70	1626.09
404.90	1656.81
405.11	1630.18
405.32	1556.46
405.52	1523.69
405.73	1507.30
405.94	1499.11
406.15	1558.50
406.35	1587.18
406.56	1511.40
406.77	1552.36
406.98	1593.32
407.18	1478.63
407.39	1624.04
407.60	1495.02
407.80	1535.98
408.01	1574.89
408.22	1542.12
408.43	1517.54
408.63	1632.23
408.84	1591.27
409.05	1656.81
409.25	1503.21
409.46	1490.92
409.67	1529.83
409.88	1583.08
410.08	1495.02
410.29	1599.46
410.50	1603.56
410.70	1478.63
410.91	1548.26
411.12	1511.40
411.32	1511.40
411.53	1591.27
411.74	1695.72
411.95	1662.95
412.15	1632.23
412.36	1644.52
412.57	1634.28
412.77	1601.51
412.98	1603.56
413.19	1554.41
413.39	1621.99
413.60	1558.50
413.81	1697.77
414.01	1546.22
414.22	1681.38
414.43	1626.09
414.63	1525.74
414.84	1693.67
415.05	1560.55
415.25	1517.54
415.46	1544.17
415.67	1533.93
415.87	1601.51
416.08	1538.02
416.29	1533.93
416.49	1533.93
416.70	1574.89
416.91	1562.60
417.11	1544.17
417.32	1525.74
417.53	1595.37
417.73	1566.70
417.94	1476.59
418.15	1615.85
418.35	1583.08
418.56	1558.50
418.77	1615.85
418.97	1511.40
419.18	1501.16
419.38	1404.91
419.59	1505.26
419.80	1585.13
420.00	1478.63
420.21	1562.60
420.42	1617.90
420.62	1527.78
420.83	1525.74
421.04	1560.55
421.24	1554.41
421.45	1544.17
421.65	1578.98
421.86	1533.93
422.07	1585.13
422.27	1572.84
422.48	1509.35
422.69	1521.64
422.89	1533.93
423.10	1505.26
423.30	1462.25
423.51	1552.36
423.72	1544.17
423.92	1525.74
424.13	1544.17
424.33	1507.30
424.54	1556.46
424.75	1591.27
424.95	1607.66
425.16	1585.13
425.36	1626.09
425.57	1589.22
425.78	1576.94
425.98	1589.22
426.19	1509.35
426.39	1521.64
426.60	1556.46
426.81	1691.62
427.01	1521.64
427.22	1521.64
427.42	1509.35
427.63	1447.91
427.83	1568.74
428.04	1685.48
428.25	1611.75
428.45	1548.26
428.66	1548.26
428.86	1566.70
429.07	1564.65
429.28	1583.08
429.48	1517.54
429.69	1472.49
429.89	1529.83
430.10	1456.11
430.30	1605.61
430.51	1568.74
430.71	1478.63
430.92	1497.07
431.13	1509.35
431.33	1636.33
431.54	1521.64
431.74	1626.09
431.95	1658.85
432.15	1478.63
432.36	1550.31
432.56	1546.22
432.77	1644.52
432.98	1564.65
433.18	1554.41
433.39	1540.07
433.59	1546.22
433.80	1693.67
434.00	1648.61
434.21	1452.01
434.41	1507.30
434.62	1640.42
434.82	1562.60
435.03	1533.93
435.23	1501.16
435.44	1490.92
435.64	1599.46
435.85	1570.79
436.06	1560.55
436.26	1611.75
436.47	1521.64
436.67	1515.50
436.88	1552.36
437.08	1574.89
437.29	1624.04
437.49	1574.89
437.70	1611.75
437.90	1572.84
438.11	1626.09
438.31	1718.25
438.52	1710.05
438.72	1675.24
438.93	1757.16
439.13	1644.52
439.34	1591.27
439.54	1615.85
439.75	1585.13
439.95	1583.08
440.16	1587.18
440.36	1619.94
440.57	1634.28
440.77	1603.56
440.98	1583.08
441.18	1560.55
441.39	1480.68
441.59	1411.05
441.80	1669.09
442.00	1488.87
442.21	1693.67
442.41	1497.07
442.62	1558.50
442.82	1501.16
443.02	1484.78
443.23	1576.94
443.43	1544.17
443.64	1658.85
443.84	1570.79
444.05	1587.18
444.25	1527.78
444.46	1503.21
444.66	1548.26
444.87	1642.47
445.07	1566.70
445.28	1572.84
445.48	1566.70
445.69	1677.29
445.89	1679.33
446.09	1570.79
446.30	2033.63
446.50	3209.17
446.71	4515.77
446.91	5314.48
447.12	5871.53
447.32	5711.78
447.53	4577.21
447.73	4181.95
447.93	3583.95
448.14	3330.00
448.34	3254.22
448.55	2891.73
448.75	2942.93
448.96	2764.76
449.16	2502.62
449.36	2256.86
449.57	1976.29
449.77	1691.62
449.98	1632.23
450.18	1650.66
450.39	1669.09
450.59	1574.89
450.79	1538.02
451.00	1574.89
451.20	1568.74
451.41	1488.87
451.61	1570.79
451.81	1560.55
452.02	1445.87
452.22	1568.74
452.43	1564.65
452.63	1564.65
452.84	1572.84
453.04	1533.93
453.24	1591.27
453.45	1521.64
453.65	1552.36
453.86	1525.74
454.06	1554.41
454.26	1576.94
454.47	1476.59
454.67	1597.42
454.87	1513.45
455.08	1533.93
455.28	1548.26
455.49	1519.59
455.69	1501.16
455.89	1665.00
456.10	1595.37
456.30	1533.93
456.51	1587.18
456.71	1591.27
456.91	1583.08
457.12	1533.93
457.32	1552.36
457.52	1505.26
457.73	1533.93
457.93	1585.13
458.14	1464.30
458.34	1554.41
458.54	1527.78
458.75	1544.17
458.95	1591.27
459.15	1468.39
459.36	1570.79
459.56	1566.70
459.76	1701.86
459.97	1583.08
460.17	1556.46
460.37	1615.85
460.58	1533.93
460.78	1693.67
460.99	1556.46
461.19	1515.50
461.39	1564.65
461.60	1527.78
461.80	1597.42
462.00	1439.72
462.21	1490.92
462.41	1546.22
462.61	1509.35
462.82	1441.77
463.02	1615.85
463.22	1599.46
463.43	1595.37
463.63	1552.36
463.83	1636.33
464.04	1519.59
464.24	1558.50
464.44	1544.17
464.64	1540.07
464.85	1505.26
465.05	1550.31
465.25	1546.22
465.46	1468.39
465.66	1566.70
465.86	1613.80
466.07	1550.31
466.27	1574.89
466.47	1452.01
466.68	1517.54
466.88	1619.94
467.08	1597.42
467.29	1546.22
467.49	1476.59
467.69	1562.60
467.89	1552.36
468.10	1505.26
468.30	1574.89
468.50	1611.75
468.71	1615.85
468.91	1452.01
469.11	1593.32
469.31	1540.07
469.52	1544.17
469.72	1607.66
469.92	1636.33
470.13	1560.55
470.33	1589.22
470.53	1746.92
470.73	2050.02
470.94	2428.89
471.14	2338.78
471.34	2635.74
471.54	2457.56
471.75	2093.02
471.95	2068.45
472.15	1882.08
472.36	1966.05
472.56	1906.66
472.76	1912.80
472.96	1851.36
473.17	1871.84
473.37	1804.26
473.57	1683.43
473.77	1652.71
473.98	1597.42
474.18	1564.65
474.38	1640.42
474.58	1519.59
474.79	1480.68
474.99	1523.69
475.19	1574.89
475.39	1507.30
475.60	1632.23
475.80	1609.70
476.00	1597.42
476.20	1454.06
476.41	1513.45
476.61	1656.81
476.81	1572.84
477.01	1454.06
477.21	1648.61
477.42	1640.42
477.62	1509.35
477.82	1509.35
478.02	1595.37
478.23	1533.93
478.43	1546.22
478.63	1533.93
478.83	1583.08
479.03	1611.75
479.24	1665.00
479.44	1632.23
479.64	1437.67
479.84	1492.97
480.04	1468.39
480.25	1570.79
480.45	1501.16
480.65	1554.41
480.85	1595.37
481.06	1443.82
481.26	1597.42
481.46	1574.89
481.66	1538.02
481.86	1517.54
482.06	1585.13
482.27	1533.93
482.47	1509.35
482.67	1544.17
482.87	1470.44
483.07	1544.17
483.28	1509.35
483.48	1548.26
483.68	1503.21
483.88	1484.78
484.08	1476.59
484.29	1519.59
484.49	1554.41
484.69	1474.54
484.89	1542.12
485.09	1628.14
485.29	1550.31
485.50	1513.45
485.70	1527.78
485.90	1611.75
486.10	1560.55
486.30	1538.02
486.50	1613.80
486.71	1462.25
486.91	1603.56
487.11	1601.51
487.31	1519.59
487.51	1472.49
487.71	1503.21
487.91	1515.50
488.12	1490.92
488.32	1462.25
488.52	1517.54
488.72	1505.26
488.92	1521.64
489.12	1605.61
489.32	1605.61
489.53	1599.46
489.73	1503.21
489.93	1638.38
490.13	1484.78
490.33	1411.05
490.53	1464.30
490.73	1634.28
490.94	1501.16
491.14	1615.85
491.34	1716.20
491.54	2172.89
491.74	2629.59
491.94	3059.67
492.14	3368.91
492.34	3282.89
492.54	2854.87
492.75	2359.26
492.95	2379.74
493.15	2226.14
493.35	2197.47
493.55	2101.22
493.75	2195.42
493.95	2056.16
494.15	1931.23
494.35	1796.07
494.56	1849.32
494.76	1624.04
494.96	1613.80
495.16	1617.90
495.36	1505.26
495.56	1544.17
495.76	1554.41
495.96	1511.40
496.16	1468.39
496.36	1544.17
496.56	1513.45
496.77	1624.04
496.97	1570.79
497.17	1603.56
497.37	1519.59
497.57	1621.99
497.77	1597.42
497.97	1583.08
498.17	1564.65
498.37	1574.89
498.57	1521.64
498.77	1548.26
498.97	1558.50
499.17	1691.62
499.38	1583.08
499.58	1583.08
499.78	1583.08
499.98	1669.09
500.18	1632.23
500.38	1521.64
500.58	1757.16
500.78	2602.97
500.98	5109.68
501.18	6889.37
501.38	8271.75
501.58	8785.79
501.78	7929.74
501.98	6246.30
502.18	5296.05
502.38	4595.64
502.58	4345.79
502.78	3796.93
502.98	3706.82
503.18	3712.97
503.38	3442.64
503.59	3067.86
503.79	2756.57
503.99	2537.43
504.19	2293.72
504.39	2224.09
504.59	2197.47
504.79	2072.54
504.99	1961.95
505.19	1849.32
505.39	1748.97
505.59	1800.16
505.79	1726.44
505.99	1615.85
506.19	1662.95
506.39	1689.57
506.59	1574.89
506.79	1634.28
506.99	1607.66
507.19	1548.26
507.39	1585.13
507.59	1472.49
507.79	1529.83
507.99	1540.07
508.19	1568.74
508.39	1583.08
508.59	1558.50
508.79	1576.94
508.99	1578.98
509.19	1466.35
509.39	1576.94
509.59	1490.92
509.79	1499.11
509.99	1564.65
510.19	1685.48
510.39	1574.89
510.59	1574.89
510.79	1519.59
510.99	1505.26
511.19	1523.69
511.39	1675.24
511.59	1544.17
511.79	1630.18
511.99	1546.22
512.19	1716.20
512.38	1562.60
512.58	1480.68
512.78	1597.42
512.98	1570.79
513.18	1589.22
513.38	1452.01
513.58	1566.70
513.78	1497.07
513.98	1521.64
514.18	1535.98
514.38	1564.65
514.58	1513.45
514.78	1550.31
514.98	1523.69
515.18	1562.60
515.38	1619.94
515.58	1605.61
515.78	1558.50
515.98	1601.51
516.18	1615.85
516.38	1576.94
516.57	1482.73
516.77	1542.12
516.97	1527.78
517.17	1505.26
517.37	1449.96
517.57	1605.61
517.77	1542.12
517.97	1558.50
518.17	1619.94
518.37	1538.02
518.57	1556.46
518.77	1503.21
518.97	1501.16
519.16	1593.32
519.36	1607.66
519.56	1505.26
519.76	1533.93
519.96	1542.12
520.16	1552.36
520.36	1429.48
520.56	1576.94
520.76	1521.64
520.96	1468.39
521.16	1546.22
521.35	1511.40
521.55	1517.54
521.75	1470.44
521.95	1533.93
522.15	1517.54
522.35	1519.59
522.55	1490.92
522.75	1546.22
522.95	1630.18
523.14	1525.74
523.34	1499.11
523.54	1490.92
523.74	1601.51
523.94	1609.70
524.14	1515.50
524.34	1566.70
524.54	1576.94
524.73	1554.41
524.93	1578.98
525.13	1533.93
525.33	1529.83
525.53	1681.38
525.73	1538.02
525.93	1505.26
526.13	1548.26
526.32	1544.17
526.52	1474.54
526.72	1615.85
526.92	1560.55
527.12	1511.40
527.32	1421.29
527.52	1509.35
527.71	1603.56
527.91	1593.32
528.11	1540.07
528.31	1482.73
528.51	1509.35
528.71	1546.22
528.90	1495.02
529.10	1597.42
529.30	1638.38
529.50	1474.54
529.70	1578.98
529.90	1531.88
530.09	1558.50
530.29	1527.78
530.49	1556.46
530.69	1708.01
530.89	1540.07
531.09	1603.56
531.28	1503.21
531.48	1595.37
531.68	1646.57
531.88	1531.88
532.08	1609.70
532.28	1554.41
532.47	1529.83
532.67	1572.84
532.87	1513.45
533.07	1540.07
533.27	1640.42
533.46	1562.60
533.66	1540.07
533.86	1587.18
534.06	1548.26
534.26	1591.27
534.45	1628.14
534.65	1570.79
534.85	1505.26
535.05	1552.36
535.25	1552.36
535.44	1454.06
535.64	1570.79
535.84	1548.26
536.04	1544.17
536.24	1562.60
536.43	1425.39
536.63	1519.59
536.83	1525.74
537.03	1632.23
537.22	1501.16
537.42	1460.20
537.62	1499.11
537.82	1505.26
538.02	1538.02
538.21	1570.79
538.41	1648.61
538.61	1581.03
538.81	1484.78
539.00	1646.57
539.20	1458.15
539.40	1492.97
539.60	1558.50
539.79	1550.31
539.99	1519.59
540.19	1521.64
540.39	1527.78
540.58	1597.42
540.78	1538.02
540.98	1611.75
541.18	1632.23
541.37	1505.26
541.57	1513.45
541.77	1540.07
541.97	1482.73
542.16	1474.54
542.36	1507.30
542.56	1628.14
542.76	1650.66
542.95	1581.03
543.15	1636.33
543.35	1544.17
543.54	1509.35
543.74	1587.18
543.94	1601.51
544.14	1468.39
544.33	1603.56
544.53	1546.22
544.73	1550.31
544.93	1570.79
545.12	1566.70
545.32	1591.27
545.52	1513.45
545.71	1492.97
545.91	1509.35
546.11	1474.54
546.30	1488.87
546.50	1519.59
546.70	1558.50
546.90	1538.02
547.09	1478.63
547.29	1593.32
547.49	1566.70
547.68	1519.59
547.88	1492.97
548.08	1548.26
548.27	1906.66
548.47	1501.16
548.67	1499.11
548.87	1605.61
549.06	1540.07
549.26	1634.28
549.46	1576.94
549.65	1525.74
549.85	1581.03
550.05	1550.31
550.24	1464.30
550.44	1587.18
550.64	1581.03
550.83	1470.44
551.03	1560.55
551.23	1501.16
551.42	1546.22
551.62	1519.59
551.82	1531.88
552.01	1507.30
552.21	1595.37
552.41	1476.59
552.60	1542.12
552.80	1554.41
553.00	1503.21
553.19	1519.59
553.39	1638.38
553.59	1519.59
553.78	1581.03
553.98	1550.31
554.17	1439.72
554.37	1574.89
554.57	1566.70
554.76	1478.63
554.96	1566.70
555.16	1517.54
555.35	1466.35
555.55	1558.50
555.75	1626.09
555.94	1576.94
556.14	1435.63
556.33	1609.70
556.53	1589.22
556.73	1601.51
556.92	1531.88
557.12	1581.03
557.32	1644.52
557.51	1613.80
557.71	1548.26
557.90	1617.90
558.10	1581.03
558.30	1538.02
558.49	1478.63
558.69	1554.41
558.88	1621.99
559.08	1566.70
559.28	1525.74
559.47	1560.55
559.67	1550.31
559.86	1634.28
560.06	1621.99
560.26	1509.35
560.45	1552.36
560.65	1544.17
560.84	1597.42
561.04	1558.50
561.24	1578.98
561.43	1550.31
561.63	1576.94
561.82	1521.64
562.02	1527.78
562.22	1495.02
562.41	1540.07
562.61	1533.93
562.80	1517.54
563.00	1662.95
563.19	1501.16
563.39	1568.74
563.59	1484.78
563.78	1409.00
563.98	1531.88
564.17	1581.03
564.37	1538.02
564.56	1587.18
564.76	1535.98
564.96	1718.25
565.15	1490.92
565.35	1599.46
565.54	1472.49
565.74	1578.98
565.93	1554.41
566.13	1492.97
566.32	1611.75
566.52	1591.27
566.71	1564.65
566.91	1607.66
567.11	1552.36
567.30	1558.50
567.50	1603.56
567.69	1587.18
567.89	1607.66
568.08	1482.73
568.28	1570.79
568.47	1452.01
568.67	1601.51
568.86	1509.35
569.06	1544.17
569.25	1517.54
569.45	1529.83
569.64	1527.78
569.84	1570.79
570.04	1550.31
570.23	1517.54
570.43	1556.46
570.62	1581.03
570.82	1630.18
571.01	1480.68
571.21	1609.70
571.40	1574.89
571.60	1589.22
571.79	1640.42
571.99	1550.31
572.18	1507.30
572.38	1595.37
572.57	1548.26
572.77	1652.71
572.96	1683.43
573.16	1550.31
573.35	1568.74
573.55	1576.94
573.74	1552.36
573.94	1603.56
574.13	1554.41
574.33	1576.94
574.52	1626.09
574.71	1609.70
574.91	1542.12
575.10	1531.88
575.30	1597.42
575.49	1445.87
575.69	1529.83
575.88	1628.14
576.08	1583.08
576.27	1583.08
576.47	1619.94
576.66	1710.05
576.86	1685.48
577.05	1497.07
577.25	1628.14
577.44	1632.23
577.64	1525.74
577.83	1630.18
578.02	1589.22
578.22	1597.42
578.41	1648.61
578.61	1542.12
578.80	1480.68
579.00	1519.59
579.19	1542.12
579.39	1603.56
579.58	1662.95
579.77	1630.18
579.97	1662.95
580.16	1665.00
580.36	1656.81
580.55	1681.38
580.75	1597.42
580.94	1634.28
581.13	1603.56
581.33	1626.09
581.52	1650.66
581.72	1624.04
581.91	1699.81
582.11	1542.12
582.30	1673.19
582.49	1619.94
582.69	1708.01
582.88	1570.79
583.08	1615.85
583.27	1642.47
583.47	1630.18
583.66	1488.87
583.85	1583.08
584.05	1560.55
584.24	1628.14
584.44	1656.81
584.63	1736.68
584.82	1640.42
585.02	1734.63
585.21	1802.21
585.41	1751.01
585.60	1601.51
585.79	1875.94
585.99	1886.18
586.18	1826.79
586.37	2076.64
586.57	3057.62
586.76	9645.93
586.96	27606.62
587.15	43937.12
587.34	54873.27
587.54	61711.44
587.73	59839.60
587.93	44121.44
588.12	32734.73
588.31	26044.02
588.51	21841.59
588.70	20180.68
588.89	18235.11
589.09	17155.83
589.28	15390.49
589.47	13322.04
589.67	11355.99
589.86	8886.14
590.06	6809.50
590.25	5087.15
590.44	3923.91
590.64	2889.68
590.83	2404.32
591.02	2064.35
591.22	1839.08
591.41	1738.73
591.60	1605.61
591.80	1759.21
591.99	1599.46
592.18	1640.42
592.38	1638.38
592.57	1665.00
592.76	1552.36
592.96	1591.27
593.15	1550.31
593.34	1636.33
593.54	1490.92
593.73	1566.70
593.92	1615.85
594.12	1578.98
594.31	1675.24
594.50	1714.15
594.70	1673.19
594.89	1693.67
595.08	1570.79
595.28	1583.08
595.47	1763.30
595.66	1621.99
595.86	1497.07
596.05	1599.46
596.24	1470.44
596.43	1583.08
596.63	1638.38
596.82	1548.26
597.01	1587.18
597.21	1705.96
597.40	1628.14
597.59	1562.60
597.79	1611.75
597.98	1615.85
598.17	1585.13
598.36	1644.52
598.56	1542.12
598.75	1593.32
598.94	1562.60
599.14	1578.98
599.33	1531.88
599.52	1576.94
599.71	1634.28
599.91	1660.90
600.10	1581.03
600.29	1548.26
600.48	1572.84
600.68	1609.70
600.87	1570.79
601.06	1490.92
601.26	1525.74
601.45	1601.51
601.64	1505.26
601.83	1662.95
602.03	1587.18
602.22	1482.73
602.41	1597.42
602.60	1679.33
602.80	1599.46
602.99	1564.65
603.18	1572.84
603.37	1589.22
603.57	1570.79
603.76	1640.42
603.95	1607.66
604.14	1531.88
604.34	1476.59
604.53	1572.84
604.72	1511.40
604.91	1607.66
605.10	1607.66
605.30	1507.30
605.49	1617.90
605.68	1632.23
605.87	1578.98
606.07	1449.96
606.26	1558.50
606.45	1609.70
606.64	1566.70
606.84	1511.40
607.03	1531.88
607.22	1687.53
607.41	1597.42
607.60	1617.90
607.80	1685.48
607.99	1574.89
608.18	1538.02
608.37	1568.74
608.56	1587.18
608.76	1654.76
608.95	1611.75
609.14	1701.86
609.33	1675.24
609.52	1703.91
609.72	1595.37
609.91	1669.09
610.10	1554.41
610.29	1613.80
610.48	1607.66
610.68	1601.51
610.87	1570.79
611.06	1552.36
611.25	1652.71
611.44	1656.81
611.63	1572.84
611.83	1656.81
612.02	1507.30
612.21	1587.18
612.40	1525.74
612.59	1505.26
612.79	1595.37
612.98	1564.65
613.17	1587.18
613.36	1566.70
613.55	1683.43
613.74	1535.98
613.93	1636.33
614.13	1732.58
614.32	1751.01
614.51	1757.16
614.70	1695.72
614.89	1634.28
615.08	1630.18
615.28	1910.75
615.47	1583.08
615.66	1615.85
615.85	1646.57
616.04	1753.06
616.23	1634.28
616.42	1595.37
616.62	1636.33
616.81	1589.22
617.00	1527.78
617.19	1585.13
617.38	1533.93
617.57	1552.36
617.76	1566.70
617.95	1665.00
618.15	1550.31
618.34	1630.18
618.53	1474.54
618.72	1646.57
618.91	1521.64
619.10	1613.80
619.29	1480.68
619.48	1546.22
619.68	1458.15
619.87	1535.98
620.06	1452.01
620.25	1533.93
620.44	1589.22
620.63	1562.60
620.82	1589.22
621.01	1540.07
621.20	1570.79
621.39	1535.98
621.59	1624.04
621.78	1581.03
621.97	1521.64
622.16	1548.26
622.35	1566.70
622.54	1615.85
622.73	1593.32
622.92	1497.07
623.11	1499.11
623.30	1527.78
623.49	1562.60
623.68	1509.35
623.88	1550.31
624.07	1605.61
624.26	1533.93
624.45	1601.51
624.64	1568.74
624.83	1585.13
625.02	1497.07
625.21	1533.93
625.40	1497.07
625.59	1509.35
625.78	1492.97
625.97	1619.94
626.16	1601.51
626.35	1646.57
626.54	1587.18
626.74	1687.53
626.93	1542.12
627.12	1562.60
627.31	1632.23
627.50	1640.42
627.69	1658.85
627.88	1417.19
628.07	1476.59
628.26	1566.70
628.45	1599.46
628.64	1517.54
628.83	1458.15
629.02	1513.45
629.21	1544.17
629.40	1542.12
629.59	1546.22
629.78	1503.21
629.97	1544.17
630.16	1574.89
630.35	1560.55
630.54	1484.78
630.73	1601.51
630.92	1535.98
631.11	1523.69
631.30	1564.65
631.49	1642.47
631.68	1587.18
631.87	1490.92
632.06	1413.10
632.25	1660.90
632.44	1570.79
632.63	1611.75
632.82	1542.12
633.01	1566.70
633.20	1652.71
633.39	1611.75
633.58	1554.41
633.77	1560.55
633.96	1607.66
634.15	1615.85
634.34	1687.53
634.53	1574.89
634.72	1533.93
634.91	1550.31
635.10	1607.66
635.29	1636.33
635.48	1517.54
635.67	1462.25
635.86	1492.97
636.05	1525.74
636.24	1454.06
636.43	1521.64
636.62	1535.98
636.81	1443.82
637.00	1548.26
637.19	1552.36
637.38	1556.46
637.57	1568.74
637.76	1574.89
637.95	1646.57
638.14	1632.23
638.33	1636.33
638.52	1589.22
638.71	1595.37
638.89	1640.42
639.08	1654.76
639.27	1658.85
639.46	1683.43
639.65	1914.85
639.84	2041.82
640.03	2109.41
640.22	2168.80
640.41	2301.92
640.60	1908.71
640.79	1867.75
640.98	1761.25
641.17	1806.31
641.36	1757.16
641.55	1714.15
641.74	1650.66
641.92	1640.42
642.11	1609.70
642.30	1628.14
642.49	1560.55
642.68	1605.61
642.87	1544.17
643.06	1609.70
643.25	1486.83
643.44	1492.97
643.63	1480.68
643.82	1589.22
644.00	1468.39
644.19	1515.50
644.38	1501.16
644.57	1583.08
644.76	1474.54
644.95	1445.87
645.14	1527.78
645.33	1533.93
645.52	1585.13
645.71	1468.39
645.89	1505.26
646.08	1495.02
646.27	1548.26
646.46	1601.51
646.65	1499.11
646.84	1546.22
647.03	1460.20
647.22	1581.03
647.40	1525.74
647.59	1564.65
647.78	1581.03
647.97	1503.21
648.16	1435.63
648.35	1572.84
648.54	1544.17
648.73	1533.93
648.91	1544.17
649.10	1591.27
649.29	1564.65
649.48	1515.50
649.67	1601.51
649.86	1581.03
650.05	1611.75
650.23	1763.30
650.42	1658.85
650.61	1703.91
650.80	1710.05
650.99	1726.44
651.18	1595.37
651.36	1673.19
651.55	1642.47
651.74	1646.57
651.93	1552.36
652.12	1556.46
652.31	1615.85
652.49	1556.46
652.68	1521.64
652.87	1630.18
653.06	1628.14
653.25	1652.71
653.44	1540.07
653.62	1621.99
653.81	1488.87
654.00	1550.31
654.19	1558.50
654.38	1624.04
654.56	1591.27
654.75	1486.83
654.94	1587.18
655.13	1538.02
655.32	1550.31
655.51	1650.66
655.69	1478.63
655.88	1570.79
656.07	1548.26
656.26	1583.08
656.45	1447.91
656.63	1601.51
656.82	1517.54
657.01	1574.89
657.20	1495.02
657.38	1552.36
657.57	1441.77
657.76	1468.39
657.95	1607.66
658.14	1509.35
658.32	1542.12
658.51	1421.29
658.70	1540.07
658.89	1499.11
659.08	1564.65
659.26	1638.38
659.45	1476.59
659.64	1628.14
659.83	1603.56
660.01	1701.86
660.20	1703.91
660.39	1708.01
660.58	1523.69
660.76	1658.85
660.95	1474.54
661.14	1603.56
661.33	1507.30
661.51	1578.98
661.70	1615.85
661.89	1574.89
662.08	1585.13
662.26	1486.83
662.45	1505.26
662.64	1646.57
662.83	1619.94
663.01	1495.02
663.20	1521.64
663.39	1587.18
663.58	1619.94
663.76	1492.97
663.95	1585.13
664.14	1486.83
664.32	1490.92
664.51	1505.26
664.70	1509.35
664.89	1613.80
665.07	1480.68
665.26	1562.60
665.45	1499.11
665.64	1544.17
665.82	1648.61
666.01	1513.45
666.20	1535.98
666.38	1667.05
666.57	1665.00
666.76	1824.74
666.95	3014.61
667.13	7720.84
667.32	15773.46
667.51	19975.89
667.69	23635.61
667.88	25523.83
668.07	22396.59
668.25	15603.47
668.44	12625.73
668.63	10211.17
668.81	8654.72
669.00	7882.63
669.19	7239.57
669.38	6256.54
669.56	5767.08
669.75	4827.06
669.94	4054.98
670.12	3397.58
670.31	2758.61
670.50	2523.10
670.68	2090.98
670.87	1890.28
671.06	1724.39
671.24	1818.60
671.43	1640.42
671.62	1714.15
671.80	1619.94
671.99	1671.14
672.18	1642.47
672.36	1583.08
672.55	1611.75
672.74	1654.76
672.92	1525.74
673.11	1554.41
673.29	1548.26
673.48	1519.59
673.67	1497.07
673.85	1613.80
674.04	1499.11
674.23	1566.70
674.41	1683.43
674.60	1529.83
674.79	1454.06
674.97	1501.16
675.16	1533.93
675.34	1501.16
675.53	1499.11
675.72	1482.73
675.90	1546.22
676.09	1486.83
676.28	1472.49
676.46	1480.68
676.65	1540.07
676.83	1474.54
677.02	1589.22
677.21	1472.49
677.39	1505.26
677.58	1517.54
677.77	1470.44
677.95	1517.54
678.14	1519.59
678.32	1531.88
678.51	1464.30
678.70	1648.61
678.88	1525.74
679.07	1581.03
679.25	1568.74
679.44	1517.54
679.63	1505.26
679.81	1611.75
680.00	1574.89
680.18	1511.40
680.37	1644.52
680.55	1538.02
680.74	1509.35
680.93	1462.25
681.11	1603.56
681.30	1597.42
681.48	1570.79
681.67	1468.39
681.85	1503.21
682.04	1462.25
682.23	1562.60
682.41	1554.41
682.60	1509.35
682.78	1515.50
682.97	1560.55
683.15	1572.84
683.34	1529.83
683.53	1619.94
683.71	1492.97
683.90	1576.94
684.08	1673.19
684.27	1501.16
684.45	1509.35
684.64	1617.90
684.82	1484.78
685.01	1548.26
685.19	1507.30
685.38	1615.85
685.57	1544.17
685.75	1488.87
685.94	1464.30
686.12	1576.94
686.31	1535.98
686.49	1640.42
686.68	1476.59
686.86	1542.12
687.05	1597.42
687.23	1554.41
687.42	1505.26
687.60	1454.06
687.79	1568.74
687.97	1499.11
688.16	1556.46
688.34	1578.98
688.53	1527.78
688.71	1626.09
688.90	1587.18
689.08	1593.32
689.27	1540.07
689.45	1529.83
689.64	1564.65
689.82	1566.70
690.01	1585.13
690.19	1558.50
690.38	1492.97
690.56	1593.32
690.75	1505.26
690.93	1527.78
691.12	1531.88
691.30	1535.98
691.49	1480.68
691.67	1507.30
691.86	1601.51
692.04	1468.39
692.23	1517.54
692.41	1499.11
692.60	1720.29
692.78	1585.13
692.97	1560.55
693.15	1630.18
693.34	1697.77
693.52	1646.57
693.71	1566.70
693.89	1544.17
694.08	1441.77
694.26	1576.94
694.44	1607.66
694.63	1675.24
694.81	1497.07
695.00	1591.27
695.18	1669.09
695.37	1619.94
695.55	1529.83
695.74	1490.92
695.92	1552.36
696.10	1589.22
696.29	1501.16
696.47	1542.12
696.66	1476.59
696.84	1540.07
697.03	1490.92
697.21	1654.76
697.40	1992.67
697.58	1621.99
697.76	1423.34
697.95	1578.98
698.13	1566.70
698.32	1517.54
698.50	1607.66
698.68	1566.70
698.87	1495.02
699.05	1626.09
699.24	1460.20
699.42	1480.68
699.61	1527.78
699.79	1503.21
699.97	1552.36
700.16	1538.02
700.34	1523.69
700.53	1527.78
700.71	1550.31
700.89	1613.80
701.08	1507.30
701.26	1501.16
701.45	1824.74
701.63	1509.35
701.81	1509.35
702.00	1581.03
702.18	1603.56
702.37	1542.12
702.55	1642.47
702.73	1708.01
702.92	1699.81
703.10	1812.45
703.28	1789.92
703.47	1757.16
703.65	1777.64
703.84	1689.57
704.02	1685.48
704.20	1683.43
704.39	1628.14
704.57	1591.27
704.75	1658.85
704.94	1626.09
705.12	1615.85
705.30	1738.73
705.49	1888.23
705.67	2768.85
705.86	7225.23
706.04	14460.71
706.22	18761.44
706.41	21757.62
706.59	23021.22
706.77	20985.54
706.96	14755.61
707.14	11847.50
707.32	9725.80
707.51	8669.05
707.69	7628.68
707.87	6823.83
708.06	5724.07
708.24	4849.59
708.42	3715.02
708.61	2936.79
708.79	2193.37
708.97	2095.07
709.16	1789.92
709.34	1708.01
709.52	1574.89
709.71	1615.85
709.89	1613.80
710.07	1617.90
710.26	1519.59
710.44	1507.30
710.62	1533.93
710.80	1529.83
710.99	1601.51
711.17	1634.28
711.35	1544.17
711.54	1511.40
711.72	1603.56
711.90	1519.59
712.09	1513.45
712.27	1452.01
712.45	1484.78
712.63	1550.31
712.82	1527.78
713.00	1595.37
713.18	1587.18
713.37	1595.37
713.55	1597.42
713.73	1626.09
713.91	1566.70
714.10	1566.70
714.28	1535.98
714.46	1480.68
714.65	1607.66
714.83	1624.04
715.01	1581.03
715.19	1576.94
715.38	1501.16
715.56	1544.17
715.74	1495.02
715.92	1556.46
716.11	1501.16
716.29	1476.59
716.47	1593.32
716.65	1513.45
716.84	1519.59
717.02	1527.78
717.20	1492.97
717.38	1558.50
717.57	1486.83
717.75	1535.98
717.93	1495.02
718.11	1669.09
718.30	1570.79
718.48	1558.50
718.66	1570.79
718.84	1634.28
719.03	1548.26
719.21	1550.31
719.39	1587.18
719.57	1587.18
719.75	1671.14
719.94	1525.74
720.12	1484.78
720.30	1525.74
720.48	1556.46
720.67	1470.44
720.85	1495.02
721.03	1464.30
721.21	1454.06
721.39	1611.75
721.58	1578.98
721.76	1527.78
721.94	1570.79
722.12	1515.50
722.30	1558.50
722.49	1470.44
722.67	1595.37
722.85	1550.31
723.03	1533.93
723.21	1513.45
723.40	1581.03
723.58	1613.80
723.76	1558.50
723.94	1554.41
724.12	1568.74
724.30	1585.13
724.49	1632.23
724.67	1626.09
724.85	1710.05
725.03	1540.07
725.21	1566.70
725.40	1634.28
725.58	1544.17
725.76	1560.55
725.94	1490.92
726.12	1503.21
726.30	1529.83
726.49	1587.18
726.67	1560.55
726.85	1544.17
727.03	1548.26
727.21	1708.01
727.39	2062.30
727.57	3366.86
727.76	4407.23
727.94	4906.93
728.12	5156.79
728.30	5126.07
728.48	4300.73
728.66	3549.13
728.84	3182.54
729.03	2916.31
729.21	2666.46
729.39	2414.56
729.57	2125.79
729.75	1861.60
729.93	1775.59
730.11	1683.43
730.30	1570.79
730.48	1574.89
730.66	1574.89
730.84	1617.90
731.02	1513.45
731.20	1505.26
731.38	1634.28
731.56	1478.63
731.74	1466.35
731.93	1554.41
732.11	1533.93
732.29	1538.02
732.47	1513.45
732.65	1570.79
732.83	1621.99
733.01	1521.64
733.19	1513.45
733.37	1589.22
733.56	1621.99
733.74	1585.13
733.92	1673.19
734.10	1583.08
734.28	1578.98
734.46	1429.48
734.64	1513.45
734.82	1556.46
735.00	1507.30
735.18	1521.64
735.36	1499.11
735.54	1462.25
735.73	1581.03
735.91	1570.79
736.09	1583.08
736.27	1519.59
736.45	1578.98
736.63	1384.43
736.81	1574.89
736.99	1552.36
737.17	1542.12
737.35	1566.70
737.53	1513.45
737.71	1525.74
737.89	1566.70
738.07	1478.63
738.25	1587.18
738.43	1495.02
738.61	1566.70
738.80	1519.59
738.98	1462.25
739.16	1464.30
739.34	1460.20
739.52	1560.55
739.70	1503.21
739.88	1544.17
740.06	1550.31
740.24	1482.73
740.42	1517.54
740.60	1589.22
740.78	1460.20
740.96	1470.44
741.14	1474.54
741.32	1642.47
741.50	1531.88
741.68	1656.81
741.86	1609.70
742.04	1581.03
742.22	1556.46
742.40	1542.12
742.58	1503.21
742.76	1525.74
742.94	1544.17
743.12	1454.06
743.30	1456.11
743.48	1535.98
743.66	1558.50
743.84	1597.42
744.02	1519.59
744.20	1552.36
744.38	1556.46
744.56	1484.78
744.74	1601.51
744.92	1599.46
745.10	1533.93
745.28	1511.40
745.46	1558.50
745.64	1531.88
745.82	1558.50
746.00	1552.36
746.18	1486.83
746.36	1492.97
746.54	1495.02
746.72	1507.30
746.90	1460.20
747.08	1630.18
747.26	1550.31
747.44	1632.23
747.62	1562.60
747.80	1533.93
747.98	1568.74
748.15	1497.07
748.33	1613.80
748.51	1556.46
748.69	1540.07
748.87	1583.08
749.05	1544.17
749.23	1583.08
749.41	1558.50
749.59	1542.12
749.77	1576.94
749.95	1570.79
750.13	1474.54
750.31	1542.12
750.49	1548.26
750.67	1570.79
750.85	1642.47
751.03	1482.73
751.20	1587.18
751.38	1449.96
751.56	1517.54
751.74	1525.74
751.92	1523.69
752.10	1503.21
752.28	1505.26
752.46	1411.05
752.64	1486.83
752.82	1583.08
753.00	1564.65
753.18	1593.32
753.35	1519.59
753.53	1513.45
753.71	1505.26
753.89	1599.46
754.07	1558.50
754.25	1634.28
754.43	1558.50
754.61	1460.20
754.79	1566.70
754.97	1581.03
755.14	1566.70
755.32	1452.01
755.50	1492.97
755.68	1486.83
755.86	1460.20
756.04	1507.30
756.22	1452.01
756.40	1550.31
756.57	1585.13
756.75	1540.07
756.93	1529.83
757.11	1576.94
757.29	1673.19
757.47	1421.29
757.65	1466.35
757.82	1411.05
758.00	1503.21
758.18	1488.87
758.36	1505.26
758.54	1603.56
758.72	1507.30
758.90	1519.59
759.07	1517.54
759.25	1402.86
759.43	1560.55
759.61	1527.78
759.79	1931.23
759.97	1566.70
760.15	1574.89
760.32	1482.73
760.50	1605.61
760.68	1648.61
760.86	1472.49
761.04	1583.08
761.22	1546.22
761.39	1568.74
761.57	1515.50
761.75	1488.87
761.93	1552.36
762.11	1507.30
762.28	1564.65
762.46	1589.22
762.64	1591.27
762.82	1427.43
763.00	1513.45
763.18	1529.83
763.35	1468.39
763.53	1574.89
763.71	1568.74
763.89	1558.50
764.07	1505.26
764.24	1495.02
764.42	1609.70
764.60	1523.69
764.78	1490.92
764.96	1525.74
765.13	1511.40
765.31	1578.98
765.49	1511.40
765.67	1624.04
765.84	1478.63
766.02	1503.21
766.20	1474.54
766.38	1597.42
766.56	1538.02
766.73	1533.93
766.91	1515.50
767.09	1492.97
767.27	1607.66
767.44	1535.98
767.62	1634.28
767.80	1544.17
767.98	1482.73
768.15	1511.40
768.33	1548.26
768.51	1566.70
768.69	1531.88
768.87	1558.50
769.04	1505.26
769.22	1615.85
769.40	1607.66
769.58	1677.29
769.75	1497.07
769.93	1583.08
770.11	1511.40
770.28	1482.73
770.46	1501.16
770.64	1449.96
770.82	1535.98
770.99	1499.11
771.17	1482.73
771.35	1609.70
771.53	1538.02
771.70	1599.46
771.88	1587.18
772.06	1574.89
772.23	1546.22
772.41	1492.97
772.59	1556.46
772.77	1456.11
772.94	1525.74
773.12	1632.23
773.30	1525.74
773.47	1482.73
773.65	1425.39
773.83	1619.94
774.01	1472.49
774.18	1445.87
774.36	1525.74
774.54	1458.15
774.71	1523.69
774.89	1445.87
775.07	1484.78
775.24	1531.88
775.42	1523.69
775.60	1570.79
775.78	1472.49
775.95	1529.83
776.13	1433.58
776.31	1372.14
776.48	1515.50
776.66	1552.36
776.84	1583.08
777.01	1558.50
777.19	1507.30
777.37	1550.31
777.54	1615.85
777.72	1662.95
777.90	1505.26
778.07	1552.36
778.25	1593.32
778.43	1550.31
778.60	1515.50
778.78	1578.98
778.96	1585.13
779.13	1501.16
779.31	1611.75
779.49	1482.73
779.66	1558.50
779.84	1509.35
780.01	1535.98
780.19	1529.83
780.37	1628.14
780.54	1490.92
780.72	1505.26
780.90	1550.31
781.07	1517.54
781.25	1495.02
781.43	1499.11
781.60	1431.53
781.78	1589.22
781.95	1544.17
782.13	1505.26
782.31	1542.12
782.48	1460.20
782.66	1509.35
782.83	1652.71
783.01	1552.36
783.19	1583.08
783.36	1542.12
783.54	1492.97
783.72	1548.26
783.89	1523.69
784.07	1578.98
784.24	1568.74
784.42	1636.33
784.60	1460.20
784.77	1540.07
784.95	1423.34
785.12	1546.22
785.30	1490.92
785.47	1505.26
785.65	1511.40
785.83	1542.12
786.00	1527.78
786.18	1480.68
786.35	1495.02
786.53	1503.21
786.71	1562.60
786.88	1570.79
787.06	1497.07
787.23	1535.98
787.41	1495.02
787.58	1615.85
787.76	1392.62
787.94	1585.13
788.11	1615.85
788.29	1492.97
788.46	1486.83
788.64	1497.07
788.81	1476.59
788.99	1538.02
789.16	1515.50
789.34	1576.94
789.52	1523.69
789.69	1492.97
789.87	1499.11
790.04	1484.78
790.22	1492.97
790.39	1660.90
790.57	1454.06
790.74	1486.83
790.92	1544.17
791.09	1441.77
791.27	1538.02
791.44	1593.32
791.62	1564.65
791.79	1525.74
791.97	1546.22
792.15	1724.39
792.32	1492.97
792.50	1564.65
792.67	1650.66
792.85	1552.36
793.02	1538.02
793.20	1527.78
793.37	1452.01
793.55	1599.46
793.72	1507.30
793.90	1497.07
794.07	1503.21
794.25	1542.12
794.42	1542.12
794.60	1587.18
794.77	1535.98
794.95	1570.79
795.12	1517.54
795.30	1517.54
795.47	1515.50
795.65	1691.62
795.82	1554.41
796.00	1454.06
796.17	1603.56
796.34	1509.35
796.52	1648.61
796.69	1488.87
796.87	1566.70
797.04	1550.31
797.22	1566.70
797.39	1501.16
797.57	1531.88
797.74	1566.70
797.92	1572.84
798.09	1535.98
798.27	1587.18
798.44	1574.89
798.62	1523.69
798.79	1578.98
798.96	1523.69
799.14	1542.12
799.31	1632.23
799.49	1583.08
799.66	1501.16
799.84	1499.11
800.01	1468.39
800.19	1578.98
800.36	1437.67
800.53	1529.83
800.71	1519.59
800.88	1572.84
801.06	1476.59
801.23	1431.53
801.41	1566.70
801.58	1488.87
801.75	1525.74
801.93	1509.35
802.10	1560.55
802.28	1546.22
802.45	1542.12
802.63	1572.84
802.80	1574.89
802.97	1550.31
803.15	1517.54
803.32	1603.56
803.50	1554.41
803.67	1456.11
803.84	1486.83
804.02	1525.74
804.19	1495.02
804.37	1445.87
804.54	1464.30
804.71	1570.79
804.89	1484.78
805.06	1505.26
805.24	1435.63
805.41	1560.55
805.58	1540.07
805.76	1642.47
805.93	1519.59
806.10	1589.22
806.28	1591.27
806.45	1511.40
806.63	1554.41
806.80	1558.50
806.97	1523.69
807.15	1589.22
807.32	1501.16
807.49	1542.12
807.67	1513.45
807.84	1597.42
808.01	1511.40
808.19	1597.42
808.36	1687.53
808.54	1517.54
808.71	1509.35
808.88	1550.31
809.06	1591.27
809.23	1566.70
809.40	1546.22
809.58	1662.95
809.75	1564.65
809.92	1415.15
810.10	1656.81
810.27	1488.87
810.44	1535.98
810.62	1525.74
810.79	1568.74
810.96	1501.16
811.14	1546.22
811.31	1638.38
811.48	1581.03
811.66	1521.64
811.83	1501.16
812.00	1550.31
812.18	1521.64
812.35	1644.52
812.52	1572.84
812.69	1558.50
812.87	1497.07
813.04	1501.16
813.21	1492.97
813.39	1460.20
813.56	1466.35
813.73	1544.17
813.91	1400.81
814.08	1535.98
814.25	1533.93
814.42	1458.15
814.60	1472.49
814.77	1568.74
814.94	1544.17
815.12	1613.80
815.29	1583.08
815.46	1589.22
815.63	1517.54
815.81	1431.53
815.98	1525.74
816.15	1525.74
816.33	1605.61
816.50	1490.92
816.67	1488.87
816.84	1538.02
817.02	1454.06
817.19	1488.87
817.36	1531.88
817.53	1574.89
817.71	1499.11
817.88	1624.04
818.05	1554.41
818.22	1581.03
818.40	1605.61
818.57	1533.93
818.74	1570.79
818.91	1527.78
819.09	1509.35
819.26	1574.89
819.43	1533.93
819.60	1488.87
819.78	1585.13
819.95	1482.73
820.12	1402.86
820.29	1558.50
820.47	1548.26
820.64	1488.87
820.81	1417.19
820.98	1488.87
821.15	1544.17
821.33	1519.59
821.50	1484.78
821.67	1495.02
821.84	1490.92
822.02	1515.50
822.19	1527.78
822.36	1527.78
822.53	1535.98
822.70	1449.96
822.88	1527.78
823.05	1587.18
823.22	1521.64
823.39	1634.28
823.56	1460.20
823.74	1599.46
823.91	1486.83
824.08	1495.02
824.25	1544.17
824.42	1574.89
824.60	1505.26
824.77	1558.50
824.94	1492.97
825.11	1501.16
825.28	1497.07
825.45	1554.41
825.63	1505.26
825.80	1535.98
825.97	1540.07
826.14	1509.35
826.31	1447.91
826.48	1515.50
826.66	1435.63
826.83	1462.25
827.00	1497.07
827.17	1468.39
827.34	1505.26
827.51	1566.70
827.69	1441.77
827.86	1482.73
828.03	1556.46
828.20	1515.50
828.37	1544.17
828.54	1535.98
828.71	1533.93
828.89	1656.81
829.06	1628.14
829.23	1587.18
829.40	1484.78
829.57	1501.16
829.74	1538.02
829.91	1538.02
830.09	1529.83
830.26	1558.50
830.43	1640.42
830.60	1533.93
830.77	1538.02
830.94	1593.32
831.11	1546.22
831.28	1533.93
831.46	1587.18
831.63	1542.12
831.80	1572.84
831.97	1548.26
832.14	1490.92
832.31	1556.46
832.48	1566.70
832.65	1624.04
832.82	1531.88
832.99	1593.32
833.17	1517.54
833.34	1624.04
833.51	1538.02
833.68	1503.21
833.85	1587.18
834.02	1535.98
834.19	1509.35
834.36	1564.65
834.53	1542.12
834.70	1593.32
834.87	1591.27
835.04	1564.65
835.22	1523.69
835.39	1511.40
835.56	1501.16
835.73	1527.78
835.90	1603.56
836.07	1505.26
836.24	1566.70
836.41	1478.63
836.58	1476.59
836.75	1587.18
836.92	1531.88
837.09	1544.17
837.26	1542.12
837.43	1517.54
837.60	1497.07
837.77	1482.73
837.94	1603.56
838.12	1650.66
838.29	1548.26
838.46	1443.82
838.63	1441.77
838.80	1597.42
838.97	1544.17
839.14	1525.74
839.31	1572.84
839.48	1550.31
839.65	1562.60
839.82	1605.61
839.99	1533.93
840.16	1509.35
840.33	1503.21
840.50	1583.08
840.67	1519.59
840.84	1386.47
841.01	1615.85
841.18	1484.78
841.35	1499.11
841.52	1652.71
841.69	1705.96
841.86	1548.26
842.03	1515.50
842.20	1576.94
842.37	1558.50
842.54	1550.31
842.71	1517.54
842.88	1529.83
843.05	1599.46
843.22	1550.31
843.39	1535.98
843.56	1597.42
843.73	1564.65
843.90	1558.50
844.07	1517.54
844.24	1468.39
844.41	1542.12
844.58	1478.63
844.75	1570.79
844.92	1501.16
845.09	1501.16
845.26	1519.59
845.43	1607.66
845.60	1515.50
845.77	1599.46
845.94	1486.83
846.10	1591.27
846.27	1468.39
846.44	1431.53
846.61	1525.74
846.78	1529.83
846.95	1527.78
847.12	1527.78
847.29	1480.68
847.46	1521.64
847.63	1568.74
847.80	1540.07
847.97	1519.59
848.14	1669.09
848.31	1546.22
848.48	1505.26
848.65	1525.74
848.82	1525.74
848.98	1607.66
849.15	1533.93
849.32	1597.42
849.49	1556.46
849.66	1515.50
849.83	1589.22
850.00	1546.22
850.17	1603.56
850.34	1527.78
850.51	1462.25
850.68	1533.93
850.85	1626.09
851.01	1562.60
851.18	1552.36
851.35	1568.74
851.52	1521.64
851.69	1581.03
851.86	1488.87
852.03	1560.55
852.20	1538.02
852.37	1589.22
852.53	1478.63
852.70	1503.21
852.87	1574.89
853.04	1490.92
853.21	1519.59
853.38	1574.89
853.55	1531.88
853.72	1570.79
853.89	1533.93
854.05	1470.44
854.22	1480.68
854.39	1552.36
854.56	1583.08
854.73	1585.13
854.90	1474.54
855.07	1552.36
855.23	1449.96
855.40	1468.39
855.57	1460.20
855.74	1404.91
855.91	1652.71
856.08	1462.25
856.25	1509.35
856.41	1478.63
856.58	1509.35
856.75	1609.70
856.92	1521.64
857.09	1644.52
857.26	1441.77
857.42	1548.26
857.59	1628.14
857.76	1603.56
857.93	1566.70
858.10	1456.11
858.27	1411.05
858.43	1484.78
858.60	1492.97
858.77	1499.11
858.94	1486.83
859.11	1523.69
859.27	1441.77
859.44	1576.94
859.61	1626.09
859.78	1511.40
859.95	1531.88
860.12	1411.05
860.28	1556.46
860.45	1601.51
860.62	1519.59
860.79	1527.78
860.95	1562.60
861.12	1419.24
861.29	1476.59
861.46	1497.07
861.63	1564.65
861.79	1521.64
861.96	1452.01
862.13	1568.74
862.30	1576.94
862.47	1480.68
862.63	1490.92
862.80	1585.13
862.97	1513.45
863.14	1509.35
863.30	1531.88
863.47	1519.59
863.64	1591.27
863.81	1568.74
863.97	1509.35
864.14	1523.69
864.31	1503.21
864.48	1556.46
864.65	1533.93
864.81	1525.74
864.98	1486.83
865.15	1593.32
865.32	1644.52
865.48	1564.65
865.65	1619.94
865.82	1458.15
865.98	1564.65
866.15	1568.74
866.32	1552.36
866.49	1458.15
866.65	1607.66
866.82	1544.17
866.99	1486.83
867.16	1519.59
867.32	1507.30
867.49	1501.16
867.66	1509.35
867.83	1452.01
867.99	1431.53
868.16	1490.92
868.33	1538.02
868.49	1492.97
868.66	1558.50
868.83	1554.41
868.99	1527.78
869.16	1521.64
869.33	1511.40
869.50	1468.39
869.66	1521.64
869.83	1560.55
870.00	1525.74
870.16	1587.18
870.33	1525.74
870.50	1574.89
870.66	1560.55
870.83	1621.99
871.00	1578.98
871.17	1576.94
871.33	1581.03
871.50	1552.36
871.67	1488.87
871.83	1492.97
872.00	1578.98
872.17	1542.12
872.33	1636.33
872.50	1533.93
872.67	1523.69
872.83	1519.59
873.00	1576.94
873.17	1581.03
873.33	1513.45
873.50	1470.44
873.67	1478.63
873.83	1509.35
874.00	1497.07
874.16	1556.46
874.33	1554.41
874.50	1466.35
874.66	1525.74
874.83	1505.26
875.00	1589.22
875.16	1570.79
875.33	1626.09
875.50	1452.01
875.66	1533.93
875.83	1595.37
875.99	1566.70
876.16	1501.16
876.33	1480.68
876.49	1488.87
876.66	1560.55
876.83	1523.69
876.99	1490.92
877.16	1560.55
877.32	1576.94
877.49	1544.17
877.66	1482.73
877.82	1599.46
877.99	1542.12
878.15	1544.17
878.32	1564.65
878.49	1511.40
878.65	1538.02
878.82	1589.22
878.98	1564.65
879.15	1587.18
879.32	1576.94
879.48	1583.08
879.65	1503.21
879.81	1445.87
879.98	1529.83
880.15	1406.95
880.31	1521.64
880.48	1519.59
880.64	1486.83
880.81	1560.55
880.97	1703.91
881.14	1578.98
881.31	1478.63
881.47	1673.19
881.64	1505.26
881.80	1445.87
881.97	1542.12
882.13	1519.59
882.30	1503.21
882.47	1419.24
882.63	1578.98
882.80	1509.35
882.96	1523.69
883.13	1607.66
883.29	1462.25
883.46	1568.74
883.62	1578.98
883.79	1574.89
883.95	1488.87
884.12	1495.02
884.29	1507.30
884.45	1527.78
884.62	1542.12
884.78	1478.63
884.95	1603.56
885.11	1560.55
885.28	1601.51
885.44	1511.40
885.61	1568.74
885.77	1591.27
885.94	1589.22
886.10	1540.07
886.27	1581.03
886.43	1605.61
886.60	1544.17
886.76	1542.12
886.93	1476.59
887.09	1550.31
887.26	1476.59
887.42	1566.70
887.59	1593.32
887.75	1595.37
887.92	1583.08
888.08	1572.84
888.25	1585.13
888.41	1556.46
888.58	1511.40
888.74	1503.21
888.91	1515.50
>>>>>End Processed Spectral Data<<<<<
