SpectraSuite Data File
++++++++++++++++++++++++++++++++++++
Date: Tue May 03 12:55:14 CEST 2016
User: root
Dark Spectrum Present: No
Reference Spectrum Present: No
Number of Sampled Component Spectra: 1
Spectrometers: USB4C02835
Integration Time (usec): 100000 (USB4C02835)
Spectra Averaged: 1 (USB4C02835)
Boxcar Smoothing: 0 (USB4C02835)
Correct for Electrical Dark: No (USB4C02835)
Strobe/Lamp Enabled: No (USB4C02835)
Correct for Detector Non-linearity: No (USB4C02835)
Correct for Stray Light: No (USB4C02835)
Number of Pixels in Processed Spectrum: 3648
>>>>>Begin Processed Spectral Data<<<<<
177.47	1368.04
177.69	1368.04
177.91	1368.04
178.13	1296.36
178.36	1433.58
178.58	1511.40
178.80	1527.78
179.02	1474.54
179.24	1499.11
179.46	1550.31
179.68	1544.17
179.90	1527.78
180.13	1544.17
180.35	1533.93
180.57	1525.74
180.79	1564.65
181.01	1466.35
181.23	1646.57
181.45	1585.13
181.67	1527.78
181.90	1552.36
182.12	1560.55
182.34	1474.54
182.56	1572.84
182.78	1499.11
183.00	1507.30
183.22	1525.74
183.44	1478.63
183.66	1628.14
183.89	1652.71
184.11	1538.02
184.33	1552.36
184.55	1574.89
184.77	1546.22
184.99	1570.79
185.21	1538.02
185.43	1619.94
185.65	1552.36
185.87	1562.60
186.10	1617.90
186.32	1673.19
186.54	1570.79
186.76	1589.22
186.98	1658.85
187.20	1546.22
187.42	1525.74
187.64	1554.41
187.86	1542.12
188.08	1587.18
188.30	1544.17
188.52	1499.11
188.75	1628.14
188.97	1542.12
189.19	1525.74
189.41	1531.88
189.63	1509.35
189.85	1476.59
190.07	1523.69
190.29	1470.44
190.51	1517.54
190.73	1380.33
190.95	1603.56
191.17	1550.31
191.39	1411.05
191.61	1550.31
191.84	1564.65
192.06	1484.78
192.28	1402.86
192.50	1687.53
192.72	1544.17
192.94	1558.50
193.16	1589.22
193.38	1550.31
193.60	1478.63
193.82	1544.17
194.04	1603.56
194.26	1570.79
194.48	1607.66
194.70	1550.31
194.92	1474.54
195.14	1550.31
195.36	1501.16
195.58	1564.65
195.80	1402.86
196.02	1529.83
196.24	1556.46
196.46	1615.85
196.69	1550.31
196.91	1675.24
197.13	1468.39
197.35	1527.78
197.57	1546.22
197.79	1566.70
198.01	1540.07
198.23	1554.41
198.45	1570.79
198.67	1458.15
198.89	1542.12
199.11	1542.12
199.33	1566.70
199.55	1484.78
199.77	1488.87
199.99	1515.50
200.21	1488.87
200.43	1499.11
200.65	1441.77
200.87	1421.29
201.09	1562.60
201.31	1525.74
201.53	1540.07
201.75	1515.50
201.97	1552.36
202.19	1550.31
202.41	1568.74
202.63	1599.46
202.85	1513.45
203.07	1595.37
203.29	1488.87
203.51	1474.54
203.73	1472.49
203.95	1740.77
204.17	1578.98
204.39	1585.13
204.61	1521.64
204.83	1472.49
205.05	1542.12
205.27	1599.46
205.49	1642.47
205.71	1495.02
205.93	1486.83
206.15	1587.18
206.37	1542.12
206.59	1548.26
206.81	1521.64
207.03	1542.12
207.25	1501.16
207.47	1615.85
207.69	1568.74
207.91	1642.47
208.13	1546.22
208.34	1443.82
208.56	1515.50
208.78	1624.04
209.00	1499.11
209.22	1515.50
209.44	1564.65
209.66	1519.59
209.88	1523.69
210.10	1511.40
210.32	1566.70
210.54	1550.31
210.76	1484.78
210.98	1595.37
211.20	1466.35
211.42	1550.31
211.64	1581.03
211.86	1585.13
212.08	1595.37
212.30	1560.55
212.52	1492.97
212.74	1581.03
212.96	1501.16
213.17	1570.79
213.39	1527.78
213.61	1572.84
213.83	1578.98
214.05	1505.26
214.27	1599.46
214.49	1462.25
214.71	1478.63
214.93	1609.70
215.15	1527.78
215.37	1560.55
215.59	1484.78
215.81	1495.02
216.03	1556.46
216.24	1544.17
216.46	1492.97
216.68	1611.75
216.90	1533.93
217.12	1578.98
217.34	1570.79
217.56	1562.60
217.78	1589.22
218.00	1525.74
218.22	1497.07
218.44	1574.89
218.66	1531.88
218.87	1576.94
219.09	1593.32
219.31	1521.64
219.53	1562.60
219.75	1581.03
219.97	1509.35
220.19	1525.74
220.41	1544.17
220.63	1523.69
220.85	1562.60
221.06	1556.46
221.28	1601.51
221.50	1632.23
221.72	1538.02
221.94	1544.17
222.16	1533.93
222.38	1478.63
222.60	1619.94
222.82	1484.78
223.03	1583.08
223.25	1464.30
223.47	1667.05
223.69	1652.71
223.91	1517.54
224.13	1548.26
224.35	1509.35
224.57	1642.47
224.78	1650.66
225.00	1476.59
225.22	1499.11
225.44	1558.50
225.66	1562.60
225.88	1527.78
226.10	1587.18
226.32	1554.41
226.53	1576.94
226.75	1531.88
226.97	1505.26
227.19	1503.21
227.41	1406.95
227.63	1548.26
227.85	1445.87
228.06	1509.35
228.28	1525.74
228.50	1464.30
228.72	1466.35
228.94	1505.26
229.16	1581.03
229.37	1456.11
229.59	1454.06
229.81	1599.46
230.03	1462.25
230.25	1507.30
230.47	1456.11
230.69	1554.41
230.90	1626.09
231.12	1511.40
231.34	1599.46
231.56	1568.74
231.78	1468.39
232.00	1517.54
232.21	1503.21
232.43	1556.46
232.65	1458.15
232.87	1531.88
233.09	1492.97
233.30	1544.17
233.52	1507.30
233.74	1445.87
233.96	1546.22
234.18	1501.16
234.40	1572.84
234.61	1581.03
234.83	1525.74
235.05	1447.91
235.27	1687.53
235.49	1632.23
235.70	1484.78
235.92	1535.98
236.14	1576.94
236.36	1673.19
236.58	1462.25
236.79	1464.30
237.01	1501.16
237.23	1564.65
237.45	1613.80
237.67	1439.72
237.88	1570.79
238.10	1609.70
238.32	1507.30
238.54	1505.26
238.76	1513.45
238.97	1480.68
239.19	1454.06
239.41	1578.98
239.63	1585.13
239.85	1501.16
240.06	1525.74
240.28	1550.31
240.50	1558.50
240.72	1482.73
240.93	1521.64
241.15	1583.08
241.37	1503.21
241.59	1503.21
241.81	1554.41
242.02	1511.40
242.24	1589.22
242.46	1581.03
242.68	1501.16
242.89	1538.02
243.11	1583.08
243.33	1499.11
243.55	1607.66
243.76	1523.69
243.98	1527.78
244.20	1591.27
244.42	1488.87
244.64	1509.35
244.85	1529.83
245.07	1538.02
245.29	1558.50
245.51	1509.35
245.72	1523.69
245.94	1554.41
246.16	1589.22
246.38	1607.66
246.59	1472.49
246.81	1492.97
247.03	1540.07
247.24	1433.58
247.46	1523.69
247.68	1507.30
247.90	1509.35
248.11	1419.24
248.33	1615.85
248.55	1566.70
248.77	1578.98
248.98	1585.13
249.20	1548.26
249.42	1535.98
249.64	1542.12
249.85	1585.13
250.07	1449.96
250.29	1646.57
250.50	1529.83
250.72	1474.54
250.94	1570.79
251.16	1533.93
251.37	1562.60
251.59	1597.42
251.81	1585.13
252.02	1613.80
252.24	1458.15
252.46	1562.60
252.68	1523.69
252.89	1568.74
253.11	1492.97
253.33	1501.16
253.54	1589.22
253.76	1501.16
253.98	1486.83
254.20	1490.92
254.41	1464.30
254.63	1613.80
254.85	1429.48
255.06	1587.18
255.28	1554.41
255.50	1499.11
255.71	1529.83
255.93	1515.50
256.15	1515.50
256.36	1509.35
256.58	1566.70
256.80	1531.88
257.02	1525.74
257.23	1540.07
257.45	1519.59
257.67	1540.07
257.88	1525.74
258.10	1544.17
258.32	1595.37
258.53	1523.69
258.75	1540.07
258.97	1480.68
259.18	1576.94
259.40	1570.79
259.62	1591.27
259.83	1607.66
260.05	1658.85
260.27	1751.01
260.48	1585.13
260.70	1511.40
260.92	1611.75
261.13	1542.12
261.35	1546.22
261.57	1490.92
261.78	1415.15
262.00	1540.07
262.22	1544.17
262.43	1533.93
262.65	1560.55
262.86	1621.99
263.08	1576.94
263.30	1568.74
263.51	1452.01
263.73	1470.44
263.95	1560.55
264.16	1462.25
264.38	1591.27
264.60	1640.42
264.81	1558.50
265.03	1583.08
265.25	1529.83
265.46	1490.92
265.68	1658.85
265.89	1605.61
266.11	1462.25
266.33	1601.51
266.54	1548.26
266.76	1583.08
266.98	1513.45
267.19	1546.22
267.41	1558.50
267.62	1568.74
267.84	1409.00
268.06	1535.98
268.27	1552.36
268.49	1650.66
268.70	1560.55
268.92	1527.78
269.14	1411.05
269.35	1578.98
269.57	1515.50
269.79	1503.21
270.00	1538.02
270.22	1525.74
270.43	1480.68
270.65	1431.53
270.87	1558.50
271.08	1617.90
271.30	1570.79
271.51	1476.59
271.73	1480.68
271.95	1634.28
272.16	1556.46
272.38	1572.84
272.59	1548.26
272.81	1544.17
273.02	1509.35
273.24	1519.59
273.46	1632.23
273.67	1497.07
273.89	1538.02
274.10	1513.45
274.32	1529.83
274.54	1568.74
274.75	1474.54
274.97	1562.60
275.18	1525.74
275.40	1597.42
275.61	1544.17
275.83	1576.94
276.05	1603.56
276.26	1583.08
276.48	1576.94
276.69	1460.20
276.91	1452.01
277.12	1593.32
277.34	1650.66
277.55	1624.04
277.77	1595.37
277.99	1513.45
278.20	1499.11
278.42	1466.35
278.63	1490.92
278.85	1511.40
279.06	1484.78
279.28	1597.42
279.49	1499.11
279.71	1560.55
279.93	1538.02
280.14	1505.26
280.36	1488.87
280.57	1611.75
280.79	1585.13
281.00	1486.83
281.22	1521.64
281.43	1558.50
281.65	1417.19
281.86	1591.27
282.08	1503.21
282.29	1599.46
282.51	1497.07
282.73	1531.88
282.94	1505.26
283.16	1560.55
283.37	1619.94
283.59	1447.91
283.80	1519.59
284.02	1558.50
284.23	1642.47
284.45	1437.67
284.66	1490.92
284.88	1513.45
285.09	1554.41
285.31	1581.03
285.52	1566.70
285.74	1521.64
285.95	1544.17
286.17	1576.94
286.38	1589.22
286.60	1556.46
286.81	1464.30
287.03	1478.63
287.24	1464.30
287.46	1576.94
287.67	1533.93
287.89	1646.57
288.10	1519.59
288.32	1527.78
288.53	1572.84
288.75	1527.78
288.96	1556.46
289.18	1550.31
289.39	1521.64
289.61	1538.02
289.82	1533.93
290.04	1671.14
290.25	1554.41
290.47	1513.45
290.68	1478.63
290.90	1636.33
291.11	1503.21
291.33	1601.51
291.54	1515.50
291.76	1519.59
291.97	1525.74
292.18	1433.58
292.40	1501.16
292.61	1527.78
292.83	1648.61
293.04	1527.78
293.26	1574.89
293.47	1529.83
293.69	1503.21
293.90	1519.59
294.12	1601.51
294.33	1527.78
294.55	1517.54
294.76	1511.40
294.97	1560.55
295.19	1693.67
295.40	1470.44
295.62	1552.36
295.83	1601.51
296.05	1552.36
296.26	1603.56
296.48	1533.93
296.69	1513.45
296.90	1445.87
297.12	1599.46
297.33	1554.41
297.55	1535.98
297.76	1533.93
297.98	1499.11
298.19	1484.78
298.41	1542.12
298.62	1427.43
298.83	1613.80
299.05	1564.65
299.26	1550.31
299.48	1488.87
299.69	1413.10
299.90	1529.83
300.12	1554.41
300.33	1570.79
300.55	1521.64
300.76	1548.26
300.98	1480.68
301.19	1566.70
301.40	1560.55
301.62	1460.20
301.83	1552.36
302.05	1535.98
302.26	1552.36
302.47	1568.74
302.69	1484.78
302.90	1488.87
303.12	1464.30
303.33	1609.70
303.54	1593.32
303.76	1564.65
303.97	1593.32
304.19	1576.94
304.40	1505.26
304.61	1544.17
304.83	1572.84
305.04	1658.85
305.26	1542.12
305.47	1544.17
305.68	1533.93
305.90	1525.74
306.11	1558.50
306.33	1544.17
306.54	1484.78
306.75	1509.35
306.97	1472.49
307.18	1521.64
307.39	1548.26
307.61	1568.74
307.82	1507.30
308.04	1544.17
308.25	1538.02
308.46	1519.59
308.68	1560.55
308.89	1533.93
309.10	1568.74
309.32	1499.11
309.53	1558.50
309.74	1535.98
309.96	1439.72
310.17	1503.21
310.39	1529.83
310.60	1527.78
310.81	1583.08
311.03	1509.35
311.24	1486.83
311.45	1574.89
311.67	1572.84
311.88	1554.41
312.09	1490.92
312.31	1505.26
312.52	1546.22
312.73	1544.17
312.95	1505.26
313.16	1488.87
313.37	1558.50
313.59	1572.84
313.80	1591.27
314.01	1554.41
314.23	1531.88
314.44	1570.79
314.65	1466.35
314.87	1505.26
315.08	1501.16
315.29	1525.74
315.51	1462.25
315.72	1486.83
315.93	1662.95
316.15	1576.94
316.36	1501.16
316.57	1519.59
316.79	1589.22
317.00	1583.08
317.21	1554.41
317.43	1515.50
317.64	1495.02
317.85	1462.25
318.07	1529.83
318.28	1722.34
318.49	1720.29
318.70	1759.21
318.92	1685.48
319.13	1720.29
319.34	1748.97
319.56	1583.08
319.77	1656.81
319.98	1677.29
320.20	1595.37
320.41	1685.48
320.62	1560.55
320.83	1511.40
321.05	1609.70
321.26	1564.65
321.47	1560.55
321.69	1599.46
321.90	1507.30
322.11	1478.63
322.32	1507.30
322.54	1667.05
322.75	1497.07
322.96	1611.75
323.18	1484.78
323.39	1452.01
323.60	1556.46
323.81	1574.89
324.03	1570.79
324.24	1509.35
324.45	1570.79
324.66	1554.41
324.88	1564.65
325.09	1607.66
325.30	1533.93
325.52	1490.92
325.73	1560.55
325.94	1466.35
326.15	1540.07
326.37	1392.62
326.58	1568.74
326.79	1685.48
327.00	1443.82
327.22	1570.79
327.43	1437.67
327.64	1480.68
327.85	1474.54
328.07	1538.02
328.28	1619.94
328.49	1540.07
328.70	1501.16
328.92	1503.21
329.13	1435.63
329.34	1499.11
329.55	1630.18
329.76	1531.88
329.98	1556.46
330.19	1609.70
330.40	1603.56
330.61	1533.93
330.83	1607.66
331.04	1495.02
331.25	1564.65
331.46	1572.84
331.68	1468.39
331.89	1558.50
332.10	1488.87
332.31	1525.74
332.52	1542.12
332.74	1634.28
332.95	1456.11
333.16	1488.87
333.37	1499.11
333.58	1443.82
333.80	1550.31
334.01	1443.82
334.22	1486.83
334.43	1452.01
334.64	1501.16
334.86	1468.39
335.07	1519.59
335.28	1548.26
335.49	1468.39
335.70	1542.12
335.92	1578.98
336.13	1662.95
336.34	1564.65
336.55	1589.22
336.76	1517.54
336.98	1452.01
337.19	1529.83
337.40	1566.70
337.61	1617.90
337.82	1515.50
338.04	1519.59
338.25	1427.43
338.46	1511.40
338.67	1560.55
338.88	1517.54
339.09	1488.87
339.31	1517.54
339.52	1445.87
339.73	1562.60
339.94	1476.59
340.15	1626.09
340.36	1558.50
340.58	1523.69
340.79	1550.31
341.00	1509.35
341.21	1480.68
341.42	1589.22
341.63	1538.02
341.85	1652.71
342.06	1576.94
342.27	1540.07
342.48	1624.04
342.69	1540.07
342.90	1583.08
343.12	1560.55
343.33	1570.79
343.54	1601.51
343.75	1574.89
343.96	1548.26
344.17	1511.40
344.38	1472.49
344.60	1497.07
344.81	1513.45
345.02	1574.89
345.23	1540.07
345.44	1744.87
345.65	1564.65
345.86	1574.89
346.07	1574.89
346.29	1535.98
346.50	1542.12
346.71	1558.50
346.92	1552.36
347.13	1593.32
347.34	1515.50
347.55	1499.11
347.76	1589.22
347.98	1445.87
348.19	1560.55
348.40	1613.80
348.61	1476.59
348.82	1617.90
349.03	1535.98
349.24	1519.59
349.45	1636.33
349.66	1478.63
349.88	1585.13
350.09	1583.08
350.30	1576.94
350.51	1578.98
350.72	1556.46
350.93	1538.02
351.14	1476.59
351.35	1505.26
351.56	1552.36
351.77	1497.07
351.99	1566.70
352.20	1613.80
352.41	1568.74
352.62	1439.72
352.83	1556.46
353.04	1525.74
353.25	1572.84
353.46	1617.90
353.67	1599.46
353.88	1454.06
354.09	1529.83
354.30	1501.16
354.52	1546.22
354.73	1515.50
354.94	1490.92
355.15	1538.02
355.36	1605.61
355.57	1558.50
355.78	1501.16
355.99	1476.59
356.20	1581.03
356.41	1558.50
356.62	1488.87
356.83	1568.74
357.04	1621.99
357.25	1548.26
357.46	1507.30
357.68	1460.20
357.89	1527.78
358.10	1546.22
358.31	1548.26
358.52	1578.98
358.73	1476.59
358.94	1427.43
359.15	1486.83
359.36	1556.46
359.57	1546.22
359.78	1591.27
359.99	1533.93
360.20	1511.40
360.41	1531.88
360.62	1615.85
360.83	1548.26
361.04	1583.08
361.25	1552.36
361.46	1648.61
361.67	1624.04
361.88	1527.78
362.09	1583.08
362.30	1556.46
362.51	1595.37
362.72	1624.04
362.93	1605.61
363.14	1599.46
363.35	1634.28
363.56	1523.69
363.78	1562.60
363.99	1687.53
364.20	1548.26
364.41	1572.84
364.62	1578.98
364.83	1517.54
365.04	1517.54
365.25	1517.54
365.46	1607.66
365.67	1519.59
365.88	1513.45
366.09	1527.78
366.30	1542.12
366.51	1566.70
366.72	1527.78
366.93	1531.88
367.14	1562.60
367.35	1644.52
367.56	1566.70
367.77	1656.81
367.98	1603.56
368.18	1540.07
368.39	1572.84
368.60	1503.21
368.81	1492.97
369.02	1581.03
369.23	1546.22
369.44	1482.73
369.65	1523.69
369.86	1591.27
370.07	1550.31
370.28	1505.26
370.49	1517.54
370.70	1613.80
370.91	1564.65
371.12	1484.78
371.33	1611.75
371.54	1519.59
371.75	1615.85
371.96	1431.53
372.17	1544.17
372.38	1492.97
372.59	1519.59
372.80	1472.49
373.01	1476.59
373.22	1570.79
373.43	1509.35
373.64	1538.02
373.85	1542.12
374.06	1599.46
374.26	1613.80
374.47	1574.89
374.68	1527.78
374.89	1503.21
375.10	1513.45
375.31	1599.46
375.52	1578.98
375.73	1591.27
375.94	1378.28
376.15	1695.72
376.36	1486.83
376.57	1513.45
376.78	1486.83
376.99	1576.94
377.20	1619.94
377.40	1574.89
377.61	1632.23
377.82	1548.26
378.03	1540.07
378.24	1652.71
378.45	1540.07
378.66	1546.22
378.87	1449.96
379.08	1466.35
379.29	1515.50
379.50	1566.70
379.71	1554.41
379.91	1525.74
380.12	1452.01
380.33	1560.55
380.54	1527.78
380.75	1585.13
380.96	1509.35
381.17	1595.37
381.38	1570.79
381.59	1597.42
381.80	1566.70
382.00	1771.49
382.21	1554.41
382.42	1626.09
382.63	1687.53
382.84	1503.21
383.05	1638.38
383.26	1634.28
383.47	1552.36
383.68	1621.99
383.88	1568.74
384.09	1599.46
384.30	1624.04
384.51	1562.60
384.72	1548.26
384.93	1495.02
385.14	1669.09
385.35	1595.37
385.55	1497.07
385.76	1611.75
385.97	1492.97
386.18	1505.26
386.39	1554.41
386.60	1503.21
386.81	1458.15
387.02	1554.41
387.22	1570.79
387.43	1621.99
387.64	1675.24
387.85	1808.36
388.06	3137.49
388.27	7083.92
388.48	10420.06
388.68	12537.66
388.89	13760.30
389.10	12781.37
389.31	10137.45
389.52	8927.10
389.73	7804.81
389.93	7325.58
390.14	6715.29
390.35	6104.99
390.56	5658.54
390.77	4599.74
390.98	3600.33
391.18	2850.77
391.39	2156.51
391.60	1759.21
391.81	1693.67
392.02	1552.36
392.23	1675.24
392.43	1556.46
392.64	1665.00
392.85	1558.50
393.06	1624.04
393.27	1519.59
393.47	1548.26
393.68	1511.40
393.89	1505.26
394.10	1574.89
394.31	1458.15
394.52	1546.22
394.72	1542.12
394.93	1583.08
395.14	1499.11
395.35	1558.50
395.56	1515.50
395.76	1605.61
395.97	1699.81
396.18	1800.16
396.39	1740.77
396.60	1898.47
396.80	1701.86
397.01	1763.30
397.22	1665.00
397.43	1640.42
397.64	1619.94
397.84	1628.14
398.05	1679.33
398.26	1593.32
398.47	1626.09
398.67	1560.55
398.88	1513.45
399.09	1630.18
399.30	1486.83
399.51	1574.89
399.71	1523.69
399.92	1495.02
400.13	1548.26
400.34	1470.44
400.54	1538.02
400.75	1599.46
400.96	1591.27
401.17	1595.37
401.37	1576.94
401.58	1499.11
401.79	1646.57
402.00	1783.78
402.21	1957.86
402.41	1949.67
402.62	1959.91
402.83	2045.92
403.04	1775.59
403.24	1892.32
403.45	1658.85
403.66	1746.92
403.87	1740.77
404.07	1712.10
404.28	1695.72
404.49	1699.81
404.70	1648.61
404.90	1564.65
405.11	1634.28
405.32	1568.74
405.52	1519.59
405.73	1523.69
405.94	1525.74
406.15	1429.48
406.35	1581.03
406.56	1578.98
406.77	1529.83
406.98	1581.03
407.18	1501.16
407.39	1581.03
407.60	1531.88
407.80	1505.26
408.01	1513.45
408.22	1558.50
408.43	1570.79
408.63	1632.23
408.84	1554.41
409.05	1576.94
409.25	1488.87
409.46	1523.69
409.67	1533.93
409.88	1464.30
410.08	1525.74
410.29	1472.49
410.50	1535.98
410.70	1593.32
410.91	1548.26
411.12	1540.07
411.32	1613.80
411.53	1585.13
411.74	1624.04
411.95	1630.18
412.15	1570.79
412.36	1687.53
412.57	1611.75
412.77	1624.04
412.98	1560.55
413.19	1470.44
413.39	1646.57
413.60	1628.14
413.81	1681.38
414.01	1525.74
414.22	1585.13
414.43	1521.64
414.63	1523.69
414.84	1650.66
415.05	1570.79
415.25	1470.44
415.46	1572.84
415.67	1548.26
415.87	1570.79
416.08	1503.21
416.29	1513.45
416.49	1570.79
416.70	1486.83
416.91	1593.32
417.11	1499.11
417.32	1542.12
417.53	1529.83
417.73	1550.31
417.94	1505.26
418.15	1519.59
418.35	1546.22
418.56	1527.78
418.77	1581.03
418.97	1576.94
419.18	1538.02
419.38	1398.76
419.59	1554.41
419.80	1603.56
420.00	1538.02
420.21	1562.60
420.42	1558.50
420.62	1550.31
420.83	1486.83
421.04	1525.74
421.24	1533.93
421.45	1648.61
421.65	1546.22
421.86	1531.88
422.07	1566.70
422.27	1591.27
422.48	1609.70
422.69	1507.30
422.89	1490.92
423.10	1574.89
423.30	1472.49
423.51	1521.64
423.72	1636.33
423.92	1642.47
424.13	1447.91
424.33	1511.40
424.54	1626.09
424.75	1574.89
424.95	1636.33
425.16	1568.74
425.36	1601.51
425.57	1490.92
425.78	1578.98
425.98	1611.75
426.19	1521.64
426.39	1505.26
426.60	1533.93
426.81	1591.27
427.01	1486.83
427.22	1544.17
427.42	1525.74
427.63	1538.02
427.83	1597.42
428.04	1593.32
428.25	1560.55
428.45	1619.94
428.66	1583.08
428.86	1599.46
429.07	1507.30
429.28	1492.97
429.48	1476.59
429.69	1509.35
429.89	1495.02
430.10	1501.16
430.30	1519.59
430.51	1621.99
430.71	1490.92
430.92	1464.30
431.13	1583.08
431.33	1509.35
431.54	1486.83
431.74	1628.14
431.95	1658.85
432.15	1484.78
432.36	1556.46
432.56	1617.90
432.77	1603.56
432.98	1595.37
433.18	1554.41
433.39	1525.74
433.59	1490.92
433.80	1613.80
434.00	1693.67
434.21	1533.93
434.41	1511.40
434.62	1632.23
434.82	1468.39
435.03	1482.73
435.23	1576.94
435.44	1581.03
435.64	1581.03
435.85	1564.65
436.06	1603.56
436.26	1644.52
436.47	1574.89
436.67	1447.91
436.88	1576.94
437.08	1646.57
437.29	1595.37
437.49	1480.68
437.70	1652.71
437.90	1501.16
438.11	1644.52
438.31	1632.23
438.52	1728.49
438.72	1718.25
438.93	1775.59
439.13	1667.05
439.34	1531.88
439.54	1665.00
439.75	1652.71
439.95	1544.17
440.16	1554.41
440.36	1626.09
440.57	1611.75
440.77	1525.74
440.98	1595.37
441.18	1531.88
441.39	1517.54
441.59	1474.54
441.80	1593.32
442.00	1505.26
442.21	1652.71
442.41	1503.21
442.62	1527.78
442.82	1595.37
443.02	1529.83
443.23	1583.08
443.43	1550.31
443.64	1644.52
443.84	1533.93
444.05	1624.04
444.25	1552.36
444.46	1523.69
444.66	1544.17
444.87	1654.76
445.07	1484.78
445.28	1484.78
445.48	1667.05
445.69	1599.46
445.89	1722.34
446.09	1638.38
446.30	2009.06
446.50	3063.76
446.71	4372.41
446.91	5263.28
447.12	5642.15
447.32	5511.08
447.53	4528.06
447.73	3909.57
447.93	3641.29
448.14	3395.53
448.34	3143.63
448.55	2893.78
448.75	2893.78
448.96	2748.37
449.16	2441.18
449.36	2125.79
449.57	2007.01
449.77	1740.77
449.98	1605.61
450.18	1609.70
450.39	1640.42
450.59	1572.84
450.79	1583.08
451.00	1501.16
451.20	1517.54
451.41	1566.70
451.61	1552.36
451.81	1550.31
452.02	1583.08
452.22	1548.26
452.43	1570.79
452.63	1511.40
452.84	1560.55
453.04	1562.60
453.24	1617.90
453.45	1558.50
453.65	1576.94
453.86	1472.49
454.06	1613.80
454.26	1484.78
454.47	1454.06
454.67	1484.78
454.87	1589.22
455.08	1490.92
455.28	1587.18
455.49	1531.88
455.69	1464.30
455.89	1607.66
456.10	1595.37
456.30	1480.68
456.51	1595.37
456.71	1501.16
456.91	1550.31
457.12	1642.47
457.32	1603.56
457.52	1488.87
457.73	1585.13
457.93	1554.41
458.14	1441.77
458.34	1525.74
458.54	1497.07
458.75	1470.44
458.95	1546.22
459.15	1554.41
459.36	1583.08
459.56	1628.14
459.76	1621.99
459.97	1509.35
460.17	1525.74
460.37	1550.31
460.58	1521.64
460.78	1652.71
460.99	1519.59
461.19	1560.55
461.39	1523.69
461.60	1484.78
461.80	1529.83
462.00	1470.44
462.21	1497.07
462.41	1478.63
462.61	1497.07
462.82	1503.21
463.02	1552.36
463.22	1490.92
463.43	1609.70
463.63	1544.17
463.83	1581.03
464.04	1599.46
464.24	1501.16
464.44	1443.82
464.64	1550.31
464.85	1589.22
465.05	1542.12
465.25	1576.94
465.46	1476.59
465.66	1558.50
465.86	1544.17
466.07	1523.69
466.27	1501.16
466.47	1466.35
466.68	1398.76
466.88	1531.88
467.08	1531.88
467.29	1568.74
467.49	1519.59
467.69	1540.07
467.89	1621.99
468.10	1505.26
468.30	1525.74
468.50	1581.03
468.71	1603.56
468.91	1484.78
469.11	1646.57
469.31	1566.70
469.52	1445.87
469.72	1568.74
469.92	1632.23
470.13	1513.45
470.33	1523.69
470.53	1665.00
470.73	2066.40
470.94	2355.16
471.14	2371.55
471.34	2629.59
471.54	2457.56
471.75	2127.84
471.95	2058.21
472.15	1968.10
472.36	1947.62
472.56	2011.11
472.76	1902.56
472.96	1914.85
473.17	1791.97
473.37	1779.68
473.57	1658.85
473.77	1720.29
473.98	1628.14
474.18	1521.64
474.38	1732.58
474.58	1632.23
474.79	1570.79
474.99	1511.40
475.19	1589.22
475.39	1525.74
475.60	1576.94
475.80	1593.32
476.00	1554.41
476.20	1591.27
476.41	1484.78
476.61	1658.85
476.81	1593.32
477.01	1501.16
477.21	1628.14
477.42	1632.23
477.62	1521.64
477.82	1593.32
478.02	1507.30
478.23	1546.22
478.43	1439.72
478.63	1566.70
478.83	1529.83
479.03	1511.40
479.24	1609.70
479.44	1673.19
479.64	1429.48
479.84	1533.93
480.04	1505.26
480.25	1558.50
480.45	1509.35
480.65	1542.12
480.85	1566.70
481.06	1470.44
481.26	1503.21
481.46	1593.32
481.66	1552.36
481.86	1587.18
482.06	1513.45
482.27	1542.12
482.47	1533.93
482.67	1562.60
482.87	1599.46
483.07	1585.13
483.28	1589.22
483.48	1499.11
483.68	1542.12
483.88	1503.21
484.08	1417.19
484.29	1488.87
484.49	1552.36
484.69	1519.59
484.89	1624.04
485.09	1566.70
485.29	1558.50
485.50	1566.70
485.70	1574.89
485.90	1681.38
486.10	1552.36
486.30	1601.51
486.50	1576.94
486.71	1544.17
486.91	1601.51
487.11	1576.94
487.31	1470.44
487.51	1570.79
487.71	1523.69
487.91	1591.27
488.12	1466.35
488.32	1417.19
488.52	1566.70
488.72	1519.59
488.92	1644.52
489.12	1568.74
489.32	1636.33
489.53	1533.93
489.73	1546.22
489.93	1634.28
490.13	1486.83
490.33	1531.88
490.53	1540.07
490.73	1583.08
490.94	1386.47
491.14	1640.42
491.34	1746.92
491.54	2166.75
491.74	2676.70
491.94	3033.04
492.14	3272.65
492.34	3293.13
492.54	2887.64
492.75	2484.19
492.95	2437.08
493.15	2254.81
493.35	2248.67
493.55	2121.70
493.75	2039.78
493.95	2002.91
494.15	1933.28
494.35	1767.40
494.56	1755.11
494.76	1650.66
494.96	1605.61
495.16	1568.74
495.36	1560.55
495.56	1560.55
495.76	1544.17
495.96	1550.31
496.16	1523.69
496.36	1593.32
496.56	1550.31
496.77	1558.50
496.97	1566.70
497.17	1648.61
497.37	1509.35
497.57	1515.50
497.77	1611.75
497.97	1587.18
498.17	1585.13
498.37	1558.50
498.57	1630.18
498.77	1581.03
498.97	1578.98
499.17	1685.48
499.38	1482.73
499.58	1624.04
499.78	1689.57
499.98	1697.77
500.18	1513.45
500.38	1566.70
500.58	1730.53
500.78	2752.47
500.98	5193.65
501.18	6762.39
501.38	8236.93
501.58	8718.20
501.78	7870.34
501.98	5996.45
502.18	5296.05
502.38	4517.82
502.58	4243.39
502.78	3839.94
502.98	3672.01
503.18	3686.34
503.38	3332.05
503.59	2963.41
503.79	2822.10
503.99	2549.72
504.19	2246.62
504.39	2107.36
504.59	2078.69
504.79	2084.83
504.99	1959.91
505.19	1787.88
505.39	1744.87
505.59	1662.95
505.79	1703.91
505.99	1652.71
506.19	1656.81
506.39	1685.48
506.59	1617.90
506.79	1585.13
506.99	1632.23
507.19	1593.32
507.39	1611.75
507.59	1523.69
507.79	1601.51
507.99	1525.74
508.19	1486.83
508.39	1550.31
508.59	1525.74
508.79	1642.47
508.99	1660.90
509.19	1497.07
509.39	1562.60
509.59	1511.40
509.79	1572.84
509.99	1511.40
510.19	1613.80
510.39	1531.88
510.59	1597.42
510.79	1505.26
510.99	1560.55
511.19	1560.55
511.39	1593.32
511.59	1589.22
511.79	1583.08
511.99	1550.31
512.19	1626.09
512.38	1626.09
512.58	1499.11
512.78	1568.74
512.98	1578.98
513.18	1585.13
513.38	1544.17
513.58	1558.50
513.78	1495.02
513.98	1513.45
514.18	1597.42
514.38	1597.42
514.58	1544.17
514.78	1542.12
514.98	1454.06
515.18	1566.70
515.38	1445.87
515.58	1652.71
515.78	1562.60
515.98	1517.54
516.18	1554.41
516.38	1533.93
516.57	1488.87
516.77	1517.54
516.97	1632.23
517.17	1525.74
517.37	1474.54
517.57	1542.12
517.77	1562.60
517.97	1540.07
518.17	1589.22
518.37	1529.83
518.57	1554.41
518.77	1513.45
518.97	1554.41
519.16	1597.42
519.36	1611.75
519.56	1562.60
519.76	1480.68
519.96	1480.68
520.16	1630.18
520.36	1527.78
520.56	1607.66
520.76	1519.59
520.96	1603.56
521.16	1593.32
521.35	1644.52
521.55	1576.94
521.75	1507.30
521.95	1480.68
522.15	1546.22
522.35	1398.76
522.55	1599.46
522.75	1525.74
522.95	1523.69
523.14	1572.84
523.34	1570.79
523.54	1523.69
523.74	1621.99
523.94	1615.85
524.14	1548.26
524.34	1599.46
524.54	1542.12
524.73	1556.46
524.93	1597.42
525.13	1505.26
525.33	1472.49
525.53	1695.72
525.73	1488.87
525.93	1509.35
526.13	1499.11
526.32	1492.97
526.52	1548.26
526.72	1583.08
526.92	1497.07
527.12	1540.07
527.32	1519.59
527.52	1581.03
527.71	1566.70
527.91	1585.13
528.11	1540.07
528.31	1589.22
528.51	1501.16
528.71	1583.08
528.90	1593.32
529.10	1583.08
529.30	1615.85
529.50	1449.96
529.70	1572.84
529.90	1548.26
530.09	1566.70
530.29	1519.59
530.49	1484.78
530.69	1636.33
530.89	1552.36
531.09	1599.46
531.28	1583.08
531.48	1587.18
531.68	1570.79
531.88	1501.16
532.08	1615.85
532.28	1574.89
532.47	1581.03
532.67	1599.46
532.87	1601.51
533.07	1525.74
533.27	1511.40
533.46	1566.70
533.66	1566.70
533.86	1599.46
534.06	1609.70
534.26	1529.83
534.45	1495.02
534.65	1599.46
534.85	1558.50
535.05	1503.21
535.25	1564.65
535.44	1470.44
535.64	1597.42
535.84	1544.17
536.04	1449.96
536.24	1544.17
536.43	1488.87
536.63	1531.88
536.83	1546.22
537.03	1499.11
537.22	1495.02
537.42	1449.96
537.62	1490.92
537.82	1452.01
538.02	1636.33
538.21	1624.04
538.41	1703.91
538.61	1564.65
538.81	1538.02
539.00	1540.07
539.20	1507.30
539.40	1595.37
539.60	1529.83
539.79	1568.74
539.99	1505.26
540.19	1482.73
540.39	1566.70
540.58	1611.75
540.78	1673.19
540.98	1568.74
541.18	1576.94
541.37	1611.75
541.57	1554.41
541.77	1611.75
541.97	1431.53
542.16	1503.21
542.36	1474.54
542.56	1603.56
542.76	1597.42
542.95	1560.55
543.15	1601.51
543.35	1552.36
543.54	1474.54
543.74	1449.96
543.94	1591.27
544.14	1558.50
544.33	1644.52
544.53	1550.31
544.73	1535.98
544.93	1482.73
545.12	1509.35
545.32	1495.02
545.52	1513.45
545.71	1525.74
545.91	1490.92
546.11	1560.55
546.30	1449.96
546.50	1474.54
546.70	1523.69
546.90	1513.45
547.09	1488.87
547.29	1513.45
547.49	1560.55
547.68	1501.16
547.88	1501.16
548.08	1542.12
548.27	1834.98
548.47	1482.73
548.67	1482.73
548.87	1527.78
549.06	1576.94
549.26	1511.40
549.46	1495.02
549.65	1540.07
549.85	1562.60
550.05	1550.31
550.24	1488.87
550.44	1501.16
550.64	1552.36
550.83	1501.16
551.03	1554.41
551.23	1593.32
551.42	1558.50
551.62	1554.41
551.82	1587.18
552.01	1517.54
552.21	1554.41
552.41	1542.12
552.60	1597.42
552.80	1511.40
553.00	1515.50
553.19	1613.80
553.39	1519.59
553.59	1515.50
553.78	1503.21
553.98	1576.94
554.17	1425.39
554.37	1564.65
554.57	1556.46
554.76	1519.59
554.96	1595.37
555.16	1587.18
555.35	1519.59
555.55	1521.64
555.75	1488.87
555.94	1621.99
556.14	1535.98
556.33	1566.70
556.53	1529.83
556.73	1519.59
556.92	1492.97
557.12	1691.62
557.32	1597.42
557.51	1638.38
557.71	1662.95
557.90	1656.81
558.10	1613.80
558.30	1554.41
558.49	1611.75
558.69	1560.55
558.88	1597.42
559.08	1529.83
559.28	1513.45
559.47	1527.78
559.67	1593.32
559.86	1599.46
560.06	1597.42
560.26	1538.02
560.45	1515.50
560.65	1495.02
560.84	1626.09
561.04	1482.73
561.24	1546.22
561.43	1499.11
561.63	1599.46
561.82	1681.38
562.02	1560.55
562.22	1519.59
562.41	1509.35
562.61	1513.45
562.80	1492.97
563.00	1685.48
563.19	1617.90
563.39	1529.83
563.59	1568.74
563.78	1568.74
563.98	1501.16
564.17	1591.27
564.37	1441.77
564.56	1495.02
564.76	1552.36
564.96	1544.17
565.15	1576.94
565.35	1693.67
565.54	1466.35
565.74	1624.04
565.93	1621.99
566.13	1552.36
566.32	1593.32
566.52	1554.41
566.71	1531.88
566.91	1589.22
567.11	1525.74
567.30	1472.49
567.50	1568.74
567.69	1572.84
567.89	1472.49
568.08	1468.39
568.28	1558.50
568.47	1566.70
568.67	1585.13
568.86	1552.36
569.06	1517.54
569.25	1525.74
569.45	1527.78
569.64	1490.92
569.84	1529.83
570.04	1613.80
570.23	1490.92
570.43	1562.60
570.62	1593.32
570.82	1591.27
571.01	1540.07
571.21	1568.74
571.40	1476.59
571.60	1615.85
571.79	1572.84
571.99	1599.46
572.18	1574.89
572.38	1603.56
572.57	1560.55
572.77	1550.31
572.96	1716.20
573.16	1568.74
573.35	1480.68
573.55	1595.37
573.74	1517.54
573.94	1583.08
574.13	1546.22
574.33	1593.32
574.52	1595.37
574.71	1509.35
574.91	1611.75
575.10	1517.54
575.30	1476.59
575.49	1482.73
575.69	1533.93
575.88	1599.46
576.08	1554.41
576.27	1701.86
576.47	1628.14
576.66	1677.29
576.86	1681.38
577.05	1617.90
577.25	1656.81
577.44	1558.50
577.64	1521.64
577.83	1562.60
578.02	1597.42
578.22	1669.09
578.41	1716.20
578.61	1593.32
578.80	1517.54
579.00	1566.70
579.19	1591.27
579.39	1632.23
579.58	1632.23
579.77	1601.51
579.97	1581.03
580.16	1658.85
580.36	1703.91
580.55	1581.03
580.75	1644.52
580.94	1572.84
581.13	1722.34
581.33	1722.34
581.52	1566.70
581.72	1687.53
581.91	1728.49
582.11	1597.42
582.30	1605.61
582.49	1619.94
582.69	1636.33
582.88	1527.78
583.08	1597.42
583.27	1642.47
583.47	1597.42
583.66	1474.54
583.85	1533.93
584.05	1617.90
584.24	1638.38
584.44	1638.38
584.63	1652.71
584.82	1757.16
585.02	1753.06
585.21	1648.61
585.41	1751.01
585.60	1746.92
585.79	1814.50
585.99	1837.03
586.18	1818.60
586.37	2107.36
586.57	3155.92
586.76	9660.27
586.96	27315.81
587.15	43902.31
587.34	54604.99
587.54	61099.10
587.73	59409.53
587.93	43445.61
588.12	32085.53
588.31	25851.51
588.51	21769.91
588.70	19781.33
588.89	18069.23
589.09	17022.72
589.28	15218.46
589.47	13074.23
589.67	11179.86
589.86	8929.14
590.06	6782.87
590.25	5005.24
590.44	3715.02
590.64	2971.60
590.83	2428.89
591.02	2101.22
591.22	1853.41
591.41	1757.16
591.60	1755.11
591.80	1712.10
591.99	1693.67
592.18	1607.66
592.38	1599.46
592.57	1609.70
592.76	1591.27
592.96	1607.66
593.15	1519.59
593.34	1574.89
593.54	1578.98
593.73	1603.56
593.92	1644.52
594.12	1626.09
594.31	1648.61
594.50	1708.01
594.70	1583.08
594.89	1703.91
595.08	1441.77
595.28	1587.18
595.47	1689.57
595.66	1656.81
595.86	1540.07
596.05	1529.83
596.24	1576.94
596.43	1591.27
596.63	1654.76
596.82	1578.98
597.01	1624.04
597.21	1646.57
597.40	1583.08
597.59	1601.51
597.79	1632.23
597.98	1609.70
598.17	1605.61
598.36	1599.46
598.56	1572.84
598.75	1521.64
598.94	1576.94
599.14	1566.70
599.33	1611.75
599.52	1570.79
599.71	1576.94
599.91	1642.47
600.10	1617.90
600.29	1523.69
600.48	1595.37
600.68	1546.22
600.87	1515.50
601.06	1515.50
601.26	1538.02
601.45	1513.45
601.64	1605.61
601.83	1601.51
602.03	1523.69
602.22	1521.64
602.41	1632.23
602.60	1632.23
602.80	1673.19
602.99	1648.61
603.18	1560.55
603.37	1617.90
603.57	1628.14
603.76	1585.13
603.95	1572.84
604.14	1482.73
604.34	1576.94
604.53	1587.18
604.72	1619.94
604.91	1570.79
605.10	1587.18
605.30	1550.31
605.49	1570.79
605.68	1525.74
605.87	1558.50
606.07	1509.35
606.26	1531.88
606.45	1591.27
606.64	1550.31
606.84	1576.94
607.03	1523.69
607.22	1658.85
607.41	1562.60
607.60	1589.22
607.80	1515.50
607.99	1544.17
608.18	1599.46
608.37	1593.32
608.56	1527.78
608.76	1628.14
608.95	1695.72
609.14	1605.61
609.33	1644.52
609.52	1695.72
609.72	1660.90
609.91	1695.72
610.10	1687.53
610.29	1724.39
610.48	1603.56
610.68	1595.37
610.87	1556.46
611.06	1570.79
611.25	1517.54
611.44	1607.66
611.63	1583.08
611.83	1615.85
612.02	1505.26
612.21	1544.17
612.40	1478.63
612.59	1538.02
612.79	1535.98
612.98	1550.31
613.17	1632.23
613.36	1505.26
613.55	1669.09
613.74	1609.70
613.93	1781.73
614.13	1656.81
614.32	1763.30
614.51	1787.88
614.70	1722.34
614.89	1685.48
615.08	1669.09
615.28	1877.99
615.47	1562.60
615.66	1615.85
615.85	1593.32
616.04	1722.34
616.23	1658.85
616.42	1609.70
616.62	1615.85
616.81	1638.38
617.00	1570.79
617.19	1638.38
617.38	1490.92
617.57	1624.04
617.76	1546.22
617.95	1587.18
618.15	1578.98
618.34	1621.99
618.53	1456.11
618.72	1509.35
618.91	1615.85
619.10	1687.53
619.29	1515.50
619.48	1544.17
619.68	1492.97
619.87	1515.50
620.06	1585.13
620.25	1574.89
620.44	1540.07
620.63	1497.07
620.82	1564.65
621.01	1550.31
621.20	1560.55
621.39	1587.18
621.59	1574.89
621.78	1619.94
621.97	1562.60
622.16	1609.70
622.35	1501.16
622.54	1570.79
622.73	1570.79
622.92	1456.11
623.11	1581.03
623.30	1513.45
623.49	1646.57
623.68	1511.40
623.88	1587.18
624.07	1486.83
624.26	1513.45
624.45	1617.90
624.64	1472.49
624.83	1509.35
625.02	1519.59
625.21	1578.98
625.40	1560.55
625.59	1564.65
625.78	1570.79
625.97	1665.00
626.16	1658.85
626.35	1640.42
626.54	1581.03
626.74	1746.92
626.93	1605.61
627.12	1609.70
627.31	1617.90
627.50	1556.46
627.69	1589.22
627.88	1472.49
628.07	1548.26
628.26	1435.63
628.45	1533.93
628.64	1538.02
628.83	1548.26
629.02	1511.40
629.21	1652.71
629.40	1562.60
629.59	1550.31
629.78	1527.78
629.97	1550.31
630.16	1476.59
630.35	1552.36
630.54	1546.22
630.73	1478.63
630.92	1525.74
631.11	1497.07
631.30	1515.50
631.49	1597.42
631.68	1519.59
631.87	1583.08
632.06	1570.79
632.25	1662.95
632.44	1552.36
632.63	1509.35
632.82	1529.83
633.01	1542.12
633.20	1695.72
633.39	1626.09
633.58	1632.23
633.77	1636.33
633.96	1568.74
634.15	1605.61
634.34	1681.38
634.53	1624.04
634.72	1501.16
634.91	1495.02
635.10	1484.78
635.29	1564.65
635.48	1558.50
635.67	1562.60
635.86	1505.26
636.05	1550.31
636.24	1566.70
636.43	1589.22
636.62	1570.79
636.81	1466.35
637.00	1546.22
637.19	1560.55
637.38	1490.92
637.57	1609.70
637.76	1511.40
637.95	1617.90
638.14	1665.00
638.33	1619.94
638.52	1626.09
638.71	1591.27
638.89	1480.68
639.08	1662.95
639.27	1585.13
639.46	1648.61
639.65	1894.37
639.84	2015.20
640.03	2222.05
640.22	2142.18
640.41	2238.43
640.60	1976.29
640.79	1810.40
640.98	1773.54
641.17	1765.35
641.36	1810.40
641.55	1705.96
641.74	1576.94
641.92	1669.09
642.11	1611.75
642.30	1609.70
642.49	1566.70
642.68	1609.70
642.87	1548.26
643.06	1546.22
643.25	1533.93
643.44	1544.17
643.63	1552.36
643.82	1576.94
644.00	1462.25
644.19	1538.02
644.38	1474.54
644.57	1495.02
644.76	1564.65
644.95	1501.16
645.14	1546.22
645.33	1511.40
645.52	1564.65
645.71	1447.91
645.89	1525.74
646.08	1562.60
646.27	1460.20
646.46	1603.56
646.65	1523.69
646.84	1554.41
647.03	1513.45
647.22	1630.18
647.40	1587.18
647.59	1495.02
647.78	1574.89
647.97	1509.35
648.16	1425.39
648.35	1611.75
648.54	1585.13
648.73	1585.13
648.91	1591.27
649.10	1542.12
649.29	1478.63
649.48	1538.02
649.67	1574.89
649.86	1548.26
650.05	1632.23
650.23	1699.81
650.42	1626.09
650.61	1683.43
650.80	1753.06
650.99	1746.92
651.18	1677.29
651.36	1667.05
651.55	1583.08
651.74	1492.97
651.93	1583.08
652.12	1585.13
652.31	1626.09
652.49	1495.02
652.68	1617.90
652.87	1705.96
653.06	1601.51
653.25	1675.24
653.44	1642.47
653.62	1683.43
653.81	1538.02
654.00	1509.35
654.19	1585.13
654.38	1714.15
654.56	1589.22
654.75	1511.40
654.94	1576.94
655.13	1531.88
655.32	1515.50
655.51	1560.55
655.69	1495.02
655.88	1593.32
656.07	1495.02
656.26	1570.79
656.45	1538.02
656.63	1525.74
656.82	1540.07
657.01	1525.74
657.20	1505.26
657.38	1560.55
657.57	1550.31
657.76	1456.11
657.95	1538.02
658.14	1511.40
658.32	1443.82
658.51	1517.54
658.70	1576.94
658.89	1617.90
659.08	1495.02
659.26	1636.33
659.45	1531.88
659.64	1634.28
659.83	1581.03
660.01	1734.63
660.20	1585.13
660.39	1652.71
660.58	1490.92
660.76	1591.27
660.95	1560.55
661.14	1593.32
661.33	1546.22
661.51	1562.60
661.70	1568.74
661.89	1611.75
662.08	1560.55
662.26	1495.02
662.45	1591.27
662.64	1634.28
662.83	1572.84
663.01	1443.82
663.20	1429.48
663.39	1617.90
663.58	1513.45
663.76	1527.78
663.95	1566.70
664.14	1550.31
664.32	1566.70
664.51	1568.74
664.70	1458.15
664.89	1626.09
665.07	1478.63
665.26	1529.83
665.45	1513.45
665.64	1576.94
665.82	1523.69
666.01	1621.99
666.20	1484.78
666.38	1648.61
666.57	1607.66
666.76	1888.23
666.95	2883.54
667.13	7505.81
667.32	15523.60
667.51	19973.84
667.69	23539.35
667.88	25243.26
668.07	22159.02
668.25	15707.92
668.44	12554.05
668.63	9946.98
668.81	8673.15
669.00	7378.83
669.19	7036.82
669.38	6311.84
669.56	5504.94
669.75	4728.76
669.94	4136.90
670.12	3407.82
670.31	2848.72
670.50	2469.85
670.68	2133.98
670.87	1869.80
671.06	1685.48
671.24	1738.73
671.43	1660.90
671.62	1714.15
671.80	1628.14
671.99	1597.42
672.18	1599.46
672.36	1576.94
672.55	1636.33
672.74	1576.94
672.92	1617.90
673.11	1599.46
673.29	1490.92
673.48	1591.27
673.67	1628.14
673.85	1576.94
674.04	1564.65
674.23	1605.61
674.41	1642.47
674.60	1527.78
674.79	1488.87
674.97	1509.35
675.16	1585.13
675.34	1517.54
675.53	1474.54
675.72	1593.32
675.90	1644.52
676.09	1603.56
676.28	1474.54
676.46	1583.08
676.65	1607.66
676.83	1509.35
677.02	1552.36
677.21	1568.74
677.39	1554.41
677.58	1513.45
677.77	1486.83
677.95	1566.70
678.14	1556.46
678.32	1507.30
678.51	1466.35
678.70	1589.22
678.88	1560.55
679.07	1509.35
679.25	1562.60
679.44	1533.93
679.63	1531.88
679.81	1546.22
680.00	1544.17
680.18	1568.74
680.37	1568.74
680.55	1490.92
680.74	1503.21
680.93	1431.53
681.11	1611.75
681.30	1519.59
681.48	1540.07
681.67	1490.92
681.85	1486.83
682.04	1470.44
682.23	1615.85
682.41	1566.70
682.60	1511.40
682.78	1527.78
682.97	1517.54
683.15	1533.93
683.34	1544.17
683.53	1634.28
683.71	1431.53
683.90	1566.70
684.08	1599.46
684.27	1574.89
684.45	1542.12
684.64	1560.55
684.82	1568.74
685.01	1599.46
685.19	1595.37
685.38	1609.70
685.57	1515.50
685.75	1529.83
685.94	1568.74
686.12	1445.87
686.31	1517.54
686.49	1634.28
686.68	1474.54
686.86	1556.46
687.05	1454.06
687.23	1599.46
687.42	1415.15
687.60	1538.02
687.79	1525.74
687.97	1540.07
688.16	1609.70
688.34	1564.65
688.53	1423.34
688.71	1495.02
688.90	1570.79
689.08	1540.07
689.27	1507.30
689.45	1554.41
689.64	1531.88
689.82	1576.94
690.01	1519.59
690.19	1609.70
690.38	1587.18
690.56	1665.00
690.75	1490.92
690.93	1533.93
691.12	1437.67
691.30	1527.78
691.49	1527.78
691.67	1525.74
691.86	1558.50
692.04	1540.07
692.23	1570.79
692.41	1511.40
692.60	1716.20
692.78	1775.59
692.97	1624.04
693.15	1636.33
693.34	1669.09
693.52	1648.61
693.71	1601.51
693.89	1583.08
694.08	1501.16
694.26	1574.89
694.44	1591.27
694.63	1587.18
694.81	1521.64
695.00	1484.78
695.18	1558.50
695.37	1697.77
695.55	1501.16
695.74	1452.01
695.92	1550.31
696.10	1619.94
696.29	1523.69
696.47	1548.26
696.66	1503.21
696.84	1558.50
697.03	1480.68
697.21	1626.09
697.40	1988.58
697.58	1619.94
697.76	1505.26
697.95	1468.39
698.13	1417.19
698.32	1570.79
698.50	1519.59
698.68	1556.46
698.87	1566.70
699.05	1607.66
699.24	1570.79
699.42	1533.93
699.61	1595.37
699.79	1533.93
699.97	1523.69
700.16	1456.11
700.34	1513.45
700.53	1533.93
700.71	1576.94
700.89	1595.37
701.08	1454.06
701.26	1464.30
701.45	1849.32
701.63	1576.94
701.81	1558.50
702.00	1511.40
702.18	1556.46
702.37	1460.20
702.55	1630.18
702.73	1740.77
702.92	1671.14
703.10	1810.40
703.28	1761.25
703.47	1699.81
703.65	1748.97
703.84	1763.30
704.02	1628.14
704.20	1644.52
704.39	1562.60
704.57	1605.61
704.75	1660.90
704.94	1662.95
705.12	1673.19
705.30	1658.85
705.49	1853.41
705.67	2799.57
705.86	7188.37
706.04	14708.51
706.22	18302.70
706.41	21552.82
706.59	22662.82
706.77	20915.90
706.96	14604.07
707.14	11581.26
707.32	9678.70
707.51	8589.18
707.69	7485.33
707.87	6612.89
708.06	5707.69
708.24	4861.88
708.42	3782.60
708.61	2918.36
708.79	2326.49
708.97	1951.71
709.16	1869.80
709.34	1783.78
709.52	1662.95
709.71	1578.98
709.89	1581.03
710.07	1558.50
710.26	1587.18
710.44	1499.11
710.62	1599.46
710.80	1603.56
710.99	1523.69
711.17	1517.54
711.35	1542.12
711.54	1542.12
711.72	1572.84
711.90	1587.18
712.09	1589.22
712.27	1503.21
712.45	1587.18
712.63	1560.55
712.82	1554.41
713.00	1566.70
713.18	1525.74
713.37	1638.38
713.55	1658.85
713.73	1513.45
713.91	1552.36
714.10	1558.50
714.28	1615.85
714.46	1503.21
714.65	1595.37
714.83	1572.84
715.01	1572.84
715.19	1550.31
715.38	1495.02
715.56	1566.70
715.74	1511.40
715.92	1462.25
716.11	1763.30
716.29	1492.97
716.47	1503.21
716.65	1562.60
716.84	1523.69
717.02	1601.51
717.20	1503.21
717.38	1595.37
717.57	1519.59
717.75	1517.54
717.93	1521.64
718.11	1583.08
718.30	1458.15
718.48	1593.32
718.66	1558.50
718.84	1515.50
719.03	1544.17
719.21	1511.40
719.39	1599.46
719.57	1619.94
719.75	1603.56
719.94	1466.35
720.12	1583.08
720.30	1570.79
720.48	1544.17
720.67	1501.16
720.85	1476.59
721.03	1589.22
721.21	1449.96
721.39	1626.09
721.58	1542.12
721.76	1572.84
721.94	1544.17
722.12	1523.69
722.30	1617.90
722.49	1533.93
722.67	1570.79
722.85	1468.39
723.03	1447.91
723.21	1495.02
723.40	1613.80
723.58	1613.80
723.76	1591.27
723.94	1673.19
724.12	1587.18
724.30	1675.24
724.49	1671.14
724.67	1544.17
724.85	1673.19
725.03	1538.02
725.21	1566.70
725.40	1636.33
725.58	1578.98
725.76	1626.09
725.94	1544.17
726.12	1499.11
726.30	1562.60
726.49	1552.36
726.67	1556.46
726.85	1581.03
727.03	1581.03
727.21	1734.63
727.39	2166.75
727.57	3178.45
727.76	4265.92
727.94	4788.15
728.12	4923.32
728.30	5040.05
728.48	4337.60
728.66	3510.22
728.84	3157.97
729.03	2871.25
729.21	2588.63
729.39	2363.36
729.57	2054.11
729.75	1863.65
729.93	1779.68
730.11	1658.85
730.30	1607.66
730.48	1581.03
730.66	1626.09
730.84	1581.03
731.02	1581.03
731.20	1411.05
731.38	1525.74
731.56	1542.12
731.74	1562.60
731.93	1562.60
732.11	1544.17
732.29	1560.55
732.47	1583.08
732.65	1560.55
732.83	1607.66
733.01	1560.55
733.19	1550.31
733.37	1546.22
733.56	1552.36
733.74	1445.87
733.92	1603.56
734.10	1535.98
734.28	1497.07
734.46	1495.02
734.64	1535.98
734.82	1568.74
735.00	1558.50
735.18	1488.87
735.36	1546.22
735.54	1513.45
735.73	1497.07
735.91	1503.21
736.09	1570.79
736.27	1566.70
736.45	1542.12
736.63	1454.06
736.81	1525.74
736.99	1595.37
737.17	1497.07
737.35	1578.98
737.53	1511.40
737.71	1527.78
737.89	1658.85
738.07	1466.35
738.25	1445.87
738.43	1523.69
738.61	1542.12
738.80	1527.78
738.98	1495.02
739.16	1529.83
739.34	1525.74
739.52	1599.46
739.70	1601.51
739.88	1617.90
740.06	1624.04
740.24	1511.40
740.42	1550.31
740.60	1437.67
740.78	1544.17
740.96	1472.49
741.14	1472.49
741.32	1570.79
741.50	1476.59
741.68	1640.42
741.86	1601.51
742.04	1468.39
742.22	1503.21
742.40	1527.78
742.58	1552.36
742.76	1501.16
742.94	1609.70
743.12	1486.83
743.30	1458.15
743.48	1548.26
743.66	1458.15
743.84	1632.23
744.02	1492.97
744.20	1587.18
744.38	1564.65
744.56	1617.90
744.74	1652.71
744.92	1495.02
745.10	1628.14
745.28	1658.85
745.46	1638.38
745.64	1554.41
745.82	1581.03
746.00	1533.93
746.18	1566.70
746.36	1552.36
746.54	1583.08
746.72	1495.02
746.90	1476.59
747.08	1613.80
747.26	1525.74
747.44	1548.26
747.62	1624.04
747.80	1511.40
747.98	1574.89
748.15	1443.82
748.33	1556.46
748.51	1570.79
748.69	1607.66
748.87	1535.98
749.05	1505.26
749.23	1482.73
749.41	1558.50
749.59	1527.78
749.77	1556.46
749.95	1495.02
750.13	1540.07
750.31	1603.56
750.49	1560.55
750.67	1566.70
750.85	1560.55
751.03	1501.16
751.20	1581.03
751.38	1568.74
751.56	1474.54
751.74	1609.70
751.92	1482.73
752.10	1515.50
752.28	1515.50
752.46	1501.16
752.64	1515.50
752.82	1535.98
753.00	1636.33
753.18	1525.74
753.35	1525.74
753.53	1562.60
753.71	1484.78
753.89	1533.93
754.07	1538.02
754.25	1583.08
754.43	1535.98
754.61	1505.26
754.79	1576.94
754.97	1560.55
755.14	1538.02
755.32	1443.82
755.50	1470.44
755.68	1542.12
755.86	1542.12
756.04	1443.82
756.22	1513.45
756.40	1615.85
756.57	1554.41
756.75	1609.70
756.93	1507.30
757.11	1576.94
757.29	1544.17
757.47	1542.12
757.65	1521.64
757.82	1398.76
758.00	1513.45
758.18	1529.83
758.36	1497.07
758.54	1617.90
758.72	1441.77
758.90	1564.65
759.07	1554.41
759.25	1449.96
759.43	1564.65
759.61	1474.54
759.79	2002.91
759.97	1585.13
760.15	1572.84
760.32	1523.69
760.50	1474.54
760.68	1587.18
760.86	1445.87
761.04	1599.46
761.22	1572.84
761.39	1558.50
761.57	1531.88
761.75	1505.26
761.93	1535.98
762.11	1533.93
762.28	1490.92
762.46	1507.30
762.64	1585.13
762.82	1488.87
763.00	1589.22
763.18	1482.73
763.35	1542.12
763.53	1617.90
763.71	1529.83
763.89	1538.02
764.07	1546.22
764.24	1521.64
764.42	1570.79
764.60	1519.59
764.78	1529.83
764.96	1587.18
765.13	1507.30
765.31	1519.59
765.49	1581.03
765.67	1607.66
765.84	1521.64
766.02	1529.83
766.20	1449.96
766.38	1576.94
766.56	1560.55
766.73	1523.69
766.91	1558.50
767.09	1574.89
767.27	1593.32
767.44	1423.34
767.62	1548.26
767.80	1640.42
767.98	1523.69
768.15	1517.54
768.33	1558.50
768.51	1550.31
768.69	1538.02
768.87	1538.02
769.04	1523.69
769.22	1609.70
769.40	1603.56
769.58	1568.74
769.75	1550.31
769.93	1636.33
770.11	1433.58
770.28	1562.60
770.46	1578.98
770.64	1570.79
770.82	1562.60
770.99	1572.84
771.17	1535.98
771.35	1511.40
771.53	1562.60
771.70	1525.74
771.88	1538.02
772.06	1497.07
772.23	1521.64
772.41	1531.88
772.59	1488.87
772.77	1501.16
772.94	1486.83
773.12	1574.89
773.30	1531.88
773.47	1538.02
773.65	1486.83
773.83	1554.41
774.01	1599.46
774.18	1449.96
774.36	1468.39
774.54	1452.01
774.71	1562.60
774.89	1462.25
775.07	1460.20
775.24	1456.11
775.42	1476.59
775.60	1597.42
775.78	1476.59
775.95	1570.79
776.13	1484.78
776.31	1429.48
776.48	1505.26
776.66	1533.93
776.84	1517.54
777.01	1527.78
777.19	1544.17
777.37	1535.98
777.54	1589.22
777.72	1595.37
777.90	1548.26
778.07	1499.11
778.25	1613.80
778.43	1562.60
778.60	1554.41
778.78	1589.22
778.96	1521.64
779.13	1503.21
779.31	1544.17
779.49	1533.93
779.66	1581.03
779.84	1533.93
780.01	1550.31
780.19	1499.11
780.37	1615.85
780.54	1566.70
780.72	1466.35
780.90	1572.84
781.07	1546.22
781.25	1480.68
781.43	1562.60
781.60	1511.40
781.78	1503.21
781.95	1542.12
782.13	1480.68
782.31	1562.60
782.48	1415.15
782.66	1482.73
782.83	1566.70
783.01	1482.73
783.19	1576.94
783.36	1544.17
783.54	1476.59
783.72	1591.27
783.89	1509.35
784.07	1578.98
784.24	1574.89
784.42	1519.59
784.60	1546.22
784.77	1591.27
784.95	1488.87
785.12	1533.93
785.30	1560.55
785.47	1552.36
785.65	1462.25
785.83	1538.02
786.00	1497.07
786.18	1533.93
786.35	1404.91
786.53	1572.84
786.71	1542.12
786.88	1560.55
787.06	1558.50
787.23	1593.32
787.41	1419.24
787.58	1540.07
787.76	1452.01
787.94	1593.32
788.11	1462.25
788.29	1517.54
788.46	1470.44
788.64	1435.63
788.81	1488.87
788.99	1556.46
789.16	1513.45
789.34	1581.03
789.52	1452.01
789.69	1523.69
789.87	1413.10
790.04	1505.26
790.22	1593.32
790.39	1648.61
790.57	1456.11
790.74	1468.39
790.92	1454.06
791.09	1441.77
791.27	1525.74
791.44	1587.18
791.62	1538.02
791.79	1611.75
791.97	1540.07
792.15	1675.24
792.32	1570.79
792.50	1640.42
792.67	1658.85
792.85	1642.47
793.02	1470.44
793.20	1538.02
793.37	1513.45
793.55	1542.12
793.72	1595.37
793.90	1538.02
794.07	1488.87
794.25	1501.16
794.42	1484.78
794.60	1519.59
794.77	1552.36
794.95	1611.75
795.12	1581.03
795.30	1566.70
795.47	1486.83
795.65	1599.46
795.82	1492.97
796.00	1556.46
796.17	1535.98
796.34	1509.35
796.52	1488.87
796.69	1472.49
796.87	1593.32
797.04	1535.98
797.22	1578.98
797.39	1544.17
797.57	1533.93
797.74	1546.22
797.92	1605.61
798.09	1540.07
798.27	1583.08
798.44	1521.64
798.62	1437.67
798.79	1499.11
798.96	1495.02
799.14	1572.84
799.31	1578.98
799.49	1511.40
799.66	1521.64
799.84	1482.73
800.01	1517.54
800.19	1503.21
800.36	1521.64
800.53	1552.36
800.71	1587.18
800.88	1576.94
801.06	1456.11
801.23	1570.79
801.41	1529.83
801.58	1511.40
801.75	1527.78
801.93	1480.68
802.10	1492.97
802.28	1521.64
802.45	1499.11
802.63	1568.74
802.80	1552.36
802.97	1505.26
803.15	1505.26
803.32	1488.87
803.50	1515.50
803.67	1486.83
803.84	1495.02
804.02	1521.64
804.19	1501.16
804.37	1423.34
804.54	1505.26
804.71	1533.93
804.89	1458.15
805.06	1556.46
805.24	1486.83
805.41	1456.11
805.58	1566.70
805.76	1585.13
805.93	1468.39
806.10	1654.76
806.28	1531.88
806.45	1576.94
806.63	1495.02
806.80	1474.54
806.97	1619.94
807.15	1581.03
807.32	1525.74
807.49	1511.40
807.67	1429.48
807.84	1525.74
808.01	1527.78
808.19	1660.90
808.36	1677.29
808.54	1488.87
808.71	1550.31
808.88	1492.97
809.06	1509.35
809.23	1636.33
809.40	1482.73
809.58	1615.85
809.75	1482.73
809.92	1519.59
810.10	1617.90
810.27	1488.87
810.44	1529.83
810.62	1603.56
810.79	1519.59
810.96	1538.02
811.14	1474.54
811.31	1562.60
811.48	1552.36
811.66	1497.07
811.83	1521.64
812.00	1566.70
812.18	1603.56
812.35	1578.98
812.52	1505.26
812.69	1509.35
812.87	1505.26
813.04	1542.12
813.21	1548.26
813.39	1476.59
813.56	1523.69
813.73	1601.51
813.91	1515.50
814.08	1511.40
814.25	1466.35
814.42	1560.55
814.60	1521.64
814.77	1495.02
814.94	1525.74
815.12	1533.93
815.29	1556.46
815.46	1521.64
815.63	1529.83
815.81	1544.17
815.98	1517.54
816.15	1501.16
816.33	1585.13
816.50	1554.41
816.67	1474.54
816.84	1542.12
817.02	1527.78
817.19	1507.30
817.36	1595.37
817.53	1556.46
817.71	1490.92
817.88	1578.98
818.05	1529.83
818.22	1470.44
818.40	1662.95
818.57	1476.59
818.74	1568.74
818.91	1585.13
819.09	1603.56
819.26	1562.60
819.43	1456.11
819.60	1423.34
819.78	1597.42
819.95	1538.02
820.12	1570.79
820.29	1638.38
820.47	1624.04
820.64	1507.30
820.81	1484.78
820.98	1452.01
821.15	1544.17
821.33	1628.14
821.50	1419.24
821.67	1511.40
821.84	1560.55
822.02	1611.75
822.19	1513.45
822.36	1490.92
822.53	1505.26
822.70	1482.73
822.88	1488.87
823.05	1564.65
823.22	1601.51
823.39	1595.37
823.56	1466.35
823.74	1656.81
823.91	1562.60
824.08	1499.11
824.25	1495.02
824.42	1619.94
824.60	1499.11
824.77	1501.16
824.94	1452.01
825.11	1517.54
825.28	1511.40
825.45	1558.50
825.63	1558.50
825.80	1468.39
825.97	1585.13
826.14	1495.02
826.31	1484.78
826.48	1572.84
826.66	1490.92
826.83	1476.59
827.00	1585.13
827.17	1452.01
827.34	1583.08
827.51	1527.78
827.69	1478.63
827.86	1515.50
828.03	1531.88
828.20	1540.07
828.37	1458.15
828.54	1669.09
828.71	1482.73
828.89	1650.66
829.06	1505.26
829.23	1564.65
829.40	1507.30
829.57	1480.68
829.74	1599.46
829.91	1431.53
830.09	1548.26
830.26	1554.41
830.43	1632.23
830.60	1558.50
830.77	1607.66
830.94	1619.94
831.11	1495.02
831.28	1542.12
831.46	1654.76
831.63	1519.59
831.80	1533.93
831.97	1466.35
832.14	1540.07
832.31	1533.93
832.48	1490.92
832.65	1574.89
832.82	1591.27
832.99	1523.69
833.17	1552.36
833.34	1593.32
833.51	1583.08
833.68	1482.73
833.85	1605.61
834.02	1509.35
834.19	1523.69
834.36	1468.39
834.53	1564.65
834.70	1538.02
834.87	1632.23
835.04	1552.36
835.22	1525.74
835.39	1454.06
835.56	1497.07
835.73	1562.60
835.90	1587.18
836.07	1460.20
836.24	1538.02
836.41	1501.16
836.58	1515.50
836.75	1642.47
836.92	1570.79
837.09	1548.26
837.26	1517.54
837.43	1540.07
837.60	1548.26
837.77	1595.37
837.94	1617.90
838.12	1574.89
838.29	1535.98
838.46	1492.97
838.63	1492.97
838.80	1624.04
838.97	1544.17
839.14	1466.35
839.31	1474.54
839.48	1495.02
839.65	1472.49
839.82	1521.64
839.99	1585.13
840.16	1476.59
840.33	1525.74
840.50	1605.61
840.67	1456.11
840.84	1433.58
841.01	1505.26
841.18	1523.69
841.35	1511.40
841.52	1548.26
841.69	1691.62
841.86	1605.61
842.03	1636.33
842.20	1595.37
842.37	1478.63
842.54	1433.58
842.71	1581.03
842.88	1417.19
843.05	1619.94
843.22	1511.40
843.39	1548.26
843.56	1550.31
843.73	1499.11
843.90	1581.03
844.07	1542.12
844.24	1556.46
844.41	1578.98
844.58	1511.40
844.75	1550.31
844.92	1568.74
845.09	1509.35
845.26	1464.30
845.43	1599.46
845.60	1501.16
845.77	1552.36
845.94	1589.22
846.10	1558.50
846.27	1460.20
846.44	1523.69
846.61	1507.30
846.78	1566.70
846.95	1566.70
847.12	1523.69
847.29	1515.50
847.46	1478.63
847.63	1574.89
847.80	1495.02
847.97	1591.27
848.14	1630.18
848.31	1511.40
848.48	1501.16
848.65	1615.85
848.82	1490.92
848.98	1652.71
849.15	1583.08
849.32	1615.85
849.49	1570.79
849.66	1527.78
849.83	1488.87
850.00	1443.82
850.17	1581.03
850.34	1542.12
850.51	1564.65
850.68	1495.02
850.85	1665.00
851.01	1519.59
851.18	1531.88
851.35	1523.69
851.52	1574.89
851.69	1562.60
851.86	1431.53
852.03	1607.66
852.20	1568.74
852.37	1513.45
852.53	1478.63
852.70	1523.69
852.87	1515.50
853.04	1578.98
853.21	1615.85
853.38	1509.35
853.55	1576.94
853.72	1601.51
853.89	1527.78
854.05	1511.40
854.22	1427.43
854.39	1476.59
854.56	1548.26
854.73	1593.32
854.90	1497.07
855.07	1560.55
855.23	1507.30
855.40	1503.21
855.57	1490.92
855.74	1533.93
855.91	1736.68
856.08	1460.20
856.25	1482.73
856.41	1482.73
856.58	1468.39
856.75	1542.12
856.92	1519.59
857.09	1554.41
857.26	1458.15
857.42	1456.11
857.59	1562.60
857.76	1482.73
857.93	1560.55
858.10	1527.78
858.27	1476.59
858.43	1501.16
858.60	1458.15
858.77	1462.25
858.94	1499.11
859.11	1599.46
859.27	1456.11
859.44	1476.59
859.61	1611.75
859.78	1609.70
859.95	1527.78
860.12	1519.59
860.28	1697.77
860.45	1542.12
860.62	1468.39
860.79	1474.54
860.95	1550.31
861.12	1443.82
861.29	1480.68
861.46	1552.36
861.63	1535.98
861.79	1585.13
861.96	1509.35
862.13	1435.63
862.30	1576.94
862.47	1542.12
862.63	1546.22
862.80	1619.94
862.97	1595.37
863.14	1505.26
863.30	1509.35
863.47	1449.96
863.64	1576.94
863.81	1566.70
863.97	1560.55
864.14	1511.40
864.31	1519.59
864.48	1488.87
864.65	1511.40
864.81	1570.79
864.98	1568.74
865.15	1531.88
865.32	1636.33
865.48	1566.70
865.65	1597.42
865.82	1519.59
865.98	1507.30
866.15	1595.37
866.32	1544.17
866.49	1476.59
866.65	1568.74
866.82	1550.31
866.99	1488.87
867.16	1531.88
867.32	1550.31
867.49	1619.94
867.66	1597.42
867.83	1521.64
867.99	1484.78
868.16	1513.45
868.33	1507.30
868.49	1533.93
868.66	1535.98
868.83	1621.99
868.99	1501.16
869.16	1626.09
869.33	1525.74
869.50	1533.93
869.66	1533.93
869.83	1427.43
870.00	1484.78
870.16	1566.70
870.33	1550.31
870.50	1564.65
870.66	1456.11
870.83	1679.33
871.00	1558.50
871.17	1546.22
871.33	1581.03
871.50	1480.68
871.67	1490.92
871.83	1544.17
872.00	1544.17
872.17	1638.38
872.33	1665.00
872.50	1535.98
872.67	1574.89
872.83	1464.30
873.00	1660.90
873.17	1423.34
873.33	1560.55
873.50	1554.41
873.67	1470.44
873.83	1474.54
874.00	1533.93
874.16	1546.22
874.33	1505.26
874.50	1476.59
874.66	1593.32
874.83	1533.93
875.00	1615.85
875.16	1564.65
875.33	1626.09
875.50	1452.01
875.66	1478.63
875.83	1505.26
875.99	1656.81
876.16	1535.98
876.33	1431.53
876.49	1621.99
876.66	1605.61
876.83	1468.39
876.99	1417.19
877.16	1464.30
877.32	1572.84
877.49	1574.89
877.66	1615.85
877.82	1607.66
877.99	1525.74
878.15	1636.33
878.32	1509.35
878.49	1523.69
878.65	1488.87
878.82	1572.84
878.98	1497.07
879.15	1552.36
879.32	1556.46
879.48	1564.65
879.65	1531.88
879.81	1505.26
879.98	1464.30
880.15	1519.59
880.31	1570.79
880.48	1509.35
880.64	1660.90
880.81	1497.07
880.97	1621.99
881.14	1617.90
881.31	1468.39
881.47	1654.76
881.64	1570.79
881.80	1454.06
881.97	1488.87
882.13	1556.46
882.30	1509.35
882.47	1490.92
882.63	1513.45
882.80	1515.50
882.96	1525.74
883.13	1525.74
883.29	1454.06
883.46	1587.18
883.62	1626.09
883.79	1540.07
883.95	1531.88
884.12	1566.70
884.29	1519.59
884.45	1462.25
884.62	1535.98
884.78	1499.11
884.95	1552.36
885.11	1517.54
885.28	1591.27
885.44	1476.59
885.61	1585.13
885.77	1609.70
885.94	1566.70
886.10	1546.22
886.27	1558.50
886.43	1519.59
886.60	1585.13
886.76	1497.07
886.93	1495.02
887.09	1554.41
887.26	1417.19
887.42	1517.54
887.59	1636.33
887.75	1665.00
887.92	1542.12
888.08	1613.80
888.25	1548.26
888.41	1650.66
888.58	1464.30
888.74	1511.40
888.91	1505.26
>>>>>End Processed Spectral Data<<<<<
