SpectraSuite Data File
++++++++++++++++++++++++++++++++++++
Date: Tue May 03 12:55:12 CEST 2016
User: root
Dark Spectrum Present: No
Reference Spectrum Present: No
Number of Sampled Component Spectra: 1
Spectrometers: USB4C02835
Integration Time (usec): 100000 (USB4C02835)
Spectra Averaged: 1 (USB4C02835)
Boxcar Smoothing: 0 (USB4C02835)
Correct for Electrical Dark: No (USB4C02835)
Strobe/Lamp Enabled: No (USB4C02835)
Correct for Detector Non-linearity: No (USB4C02835)
Correct for Stray Light: No (USB4C02835)
Number of Pixels in Processed Spectrum: 3648
>>>>>Begin Processed Spectral Data<<<<<
177.47	1353.71
177.69	1353.71
177.91	1353.71
178.13	1388.52
178.36	1314.80
178.58	1513.45
178.80	1603.56
179.02	1439.72
179.24	1540.07
179.46	1505.26
179.68	1597.42
179.90	1542.12
180.13	1558.50
180.35	1460.20
180.57	1581.03
180.79	1511.40
181.01	1503.21
181.23	1558.50
181.45	1638.38
181.67	1533.93
181.90	1535.98
182.12	1441.77
182.34	1460.20
182.56	1538.02
182.78	1492.97
183.00	1492.97
183.22	1595.37
183.44	1406.95
183.66	1646.57
183.89	1529.83
184.11	1576.94
184.33	1525.74
184.55	1550.31
184.77	1552.36
184.99	1562.60
185.21	1540.07
185.43	1624.04
185.65	1552.36
185.87	1492.97
186.10	1671.14
186.32	1667.05
186.54	1615.85
186.76	1574.89
186.98	1552.36
187.20	1480.68
187.42	1527.78
187.64	1492.97
187.86	1615.85
188.08	1535.98
188.30	1550.31
188.52	1515.50
188.75	1583.08
188.97	1589.22
189.19	1533.93
189.41	1519.59
189.63	1564.65
189.85	1527.78
190.07	1517.54
190.29	1507.30
190.51	1552.36
190.73	1533.93
190.95	1632.23
191.17	1540.07
191.39	1554.41
191.61	1464.30
191.84	1550.31
192.06	1603.56
192.28	1490.92
192.50	1662.95
192.72	1519.59
192.94	1544.17
193.16	1581.03
193.38	1605.61
193.60	1497.07
193.82	1497.07
194.04	1540.07
194.26	1558.50
194.48	1529.83
194.70	1538.02
194.92	1533.93
195.14	1490.92
195.36	1533.93
195.58	1533.93
195.80	1564.65
196.02	1521.64
196.24	1523.69
196.46	1611.75
196.69	1589.22
196.91	1662.95
197.13	1523.69
197.35	1480.68
197.57	1578.98
197.79	1585.13
198.01	1511.40
198.23	1634.28
198.45	1538.02
198.67	1503.21
198.89	1505.26
199.11	1576.94
199.33	1447.91
199.55	1503.21
199.77	1525.74
199.99	1581.03
200.21	1513.45
200.43	1650.66
200.65	1492.97
200.87	1384.43
201.09	1550.31
201.31	1441.77
201.53	1552.36
201.75	1492.97
201.97	1523.69
202.19	1576.94
202.41	1546.22
202.63	1648.61
202.85	1503.21
203.07	1564.65
203.29	1470.44
203.51	1439.72
203.73	1525.74
203.95	1689.57
204.17	1552.36
204.39	1464.30
204.61	1480.68
204.83	1429.48
205.05	1538.02
205.27	1562.60
205.49	1628.14
205.71	1519.59
205.93	1495.02
206.15	1482.73
206.37	1560.55
206.59	1478.63
206.81	1458.15
207.03	1480.68
207.25	1511.40
207.47	1488.87
207.69	1515.50
207.91	1621.99
208.13	1603.56
208.34	1560.55
208.56	1556.46
208.78	1556.46
209.00	1552.36
209.22	1562.60
209.44	1521.64
209.66	1533.93
209.88	1542.12
210.10	1507.30
210.32	1542.12
210.54	1632.23
210.76	1480.68
210.98	1576.94
211.20	1454.06
211.42	1540.07
211.64	1552.36
211.86	1552.36
212.08	1576.94
212.30	1511.40
212.52	1578.98
212.74	1599.46
212.96	1556.46
213.17	1468.39
213.39	1535.98
213.61	1603.56
213.83	1578.98
214.05	1439.72
214.27	1581.03
214.49	1425.39
214.71	1533.93
214.93	1617.90
215.15	1581.03
215.37	1521.64
215.59	1443.82
215.81	1591.27
216.03	1574.89
216.24	1492.97
216.46	1519.59
216.68	1591.27
216.90	1511.40
217.12	1572.84
217.34	1488.87
217.56	1617.90
217.78	1589.22
218.00	1558.50
218.22	1527.78
218.44	1601.51
218.66	1497.07
218.87	1566.70
219.09	1460.20
219.31	1564.65
219.53	1630.18
219.75	1531.88
219.97	1486.83
220.19	1593.32
220.41	1574.89
220.63	1626.09
220.85	1583.08
221.06	1470.44
221.28	1628.14
221.50	1495.02
221.72	1503.21
221.94	1531.88
222.16	1505.26
222.38	1550.31
222.60	1570.79
222.82	1454.06
223.03	1601.51
223.25	1415.15
223.47	1587.18
223.69	1640.42
223.91	1501.16
224.13	1482.73
224.35	1544.17
224.57	1638.38
224.78	1574.89
225.00	1464.30
225.22	1558.50
225.44	1570.79
225.66	1548.26
225.88	1486.83
226.10	1617.90
226.32	1533.93
226.53	1558.50
226.75	1560.55
226.97	1558.50
227.19	1550.31
227.41	1480.68
227.63	1482.73
227.85	1529.83
228.06	1564.65
228.28	1497.07
228.50	1578.98
228.72	1542.12
228.94	1568.74
229.16	1474.54
229.37	1462.25
229.59	1431.53
229.81	1546.22
230.03	1548.26
230.25	1443.82
230.47	1490.92
230.69	1517.54
230.90	1570.79
231.12	1472.49
231.34	1531.88
231.56	1558.50
231.78	1542.12
232.00	1552.36
232.21	1593.32
232.43	1558.50
232.65	1427.43
232.87	1589.22
233.09	1482.73
233.30	1507.30
233.52	1634.28
233.74	1525.74
233.96	1452.01
234.18	1558.50
234.40	1511.40
234.61	1548.26
234.83	1535.98
235.05	1495.02
235.27	1634.28
235.49	1560.55
235.70	1572.84
235.92	1617.90
236.14	1560.55
236.36	1667.05
236.58	1578.98
236.79	1595.37
237.01	1529.83
237.23	1392.62
237.45	1581.03
237.67	1519.59
237.88	1603.56
238.10	1585.13
238.32	1540.07
238.54	1587.18
238.76	1486.83
238.97	1468.39
239.19	1476.59
239.41	1613.80
239.63	1554.41
239.85	1505.26
240.06	1492.97
240.28	1505.26
240.50	1599.46
240.72	1538.02
240.93	1544.17
241.15	1587.18
241.37	1517.54
241.59	1591.27
241.81	1533.93
242.02	1564.65
242.24	1515.50
242.46	1540.07
242.68	1525.74
242.89	1552.36
243.11	1529.83
243.33	1513.45
243.55	1591.27
243.76	1509.35
243.98	1497.07
244.20	1652.71
244.42	1552.36
244.64	1581.03
244.85	1468.39
245.07	1511.40
245.29	1521.64
245.51	1435.63
245.72	1480.68
245.94	1605.61
246.16	1583.08
246.38	1542.12
246.59	1449.96
246.81	1468.39
247.03	1560.55
247.24	1468.39
247.46	1478.63
247.68	1527.78
247.90	1511.40
248.11	1492.97
248.33	1581.03
248.55	1558.50
248.77	1511.40
248.98	1560.55
249.20	1628.14
249.42	1523.69
249.64	1517.54
249.85	1548.26
250.07	1517.54
250.29	1636.33
250.50	1576.94
250.72	1521.64
250.94	1492.97
251.16	1634.28
251.37	1589.22
251.59	1578.98
251.81	1531.88
252.02	1540.07
252.24	1505.26
252.46	1574.89
252.68	1546.22
252.89	1533.93
253.11	1466.35
253.33	1607.66
253.54	1548.26
253.76	1529.83
253.98	1617.90
254.20	1540.07
254.41	1456.11
254.63	1409.00
254.85	1535.98
255.06	1542.12
255.28	1478.63
255.50	1601.51
255.71	1533.93
255.93	1478.63
256.15	1531.88
256.36	1542.12
256.58	1499.11
256.80	1583.08
257.02	1499.11
257.23	1550.31
257.45	1593.32
257.67	1562.60
257.88	1533.93
258.10	1593.32
258.32	1531.88
258.53	1544.17
258.75	1562.60
258.97	1501.16
259.18	1513.45
259.40	1466.35
259.62	1552.36
259.83	1576.94
260.05	1529.83
260.27	1691.62
260.48	1601.51
260.70	1513.45
260.92	1544.17
261.13	1519.59
261.35	1540.07
261.57	1564.65
261.78	1435.63
262.00	1583.08
262.22	1617.90
262.43	1593.32
262.65	1542.12
262.86	1529.83
263.08	1591.27
263.30	1492.97
263.51	1462.25
263.73	1581.03
263.95	1638.38
264.16	1464.30
264.38	1507.30
264.60	1482.73
264.81	1513.45
265.03	1611.75
265.25	1546.22
265.46	1499.11
265.68	1564.65
265.89	1615.85
266.11	1513.45
266.33	1560.55
266.54	1574.89
266.76	1484.78
266.98	1542.12
267.19	1542.12
267.41	1566.70
267.62	1503.21
267.84	1490.92
268.06	1636.33
268.27	1513.45
268.49	1642.47
268.70	1566.70
268.92	1513.45
269.14	1503.21
269.35	1468.39
269.57	1488.87
269.79	1591.27
270.00	1542.12
270.22	1556.46
270.43	1576.94
270.65	1480.68
270.87	1509.35
271.08	1550.31
271.30	1509.35
271.51	1599.46
271.73	1556.46
271.95	1603.56
272.16	1554.41
272.38	1509.35
272.59	1523.69
272.81	1538.02
273.02	1656.81
273.24	1546.22
273.46	1587.18
273.67	1501.16
273.89	1595.37
274.10	1585.13
274.32	1605.61
274.54	1472.49
274.75	1570.79
274.97	1413.10
275.18	1617.90
275.40	1607.66
275.61	1578.98
275.83	1540.07
276.05	1509.35
276.26	1533.93
276.48	1585.13
276.69	1507.30
276.91	1521.64
277.12	1656.81
277.34	1538.02
277.55	1578.98
277.77	1576.94
277.99	1542.12
278.20	1495.02
278.42	1509.35
278.63	1515.50
278.85	1476.59
279.06	1515.50
279.28	1591.27
279.49	1589.22
279.71	1619.94
279.93	1538.02
280.14	1589.22
280.36	1544.17
280.57	1628.14
280.79	1540.07
281.00	1488.87
281.22	1548.26
281.43	1517.54
281.65	1449.96
281.86	1558.50
282.08	1540.07
282.29	1589.22
282.51	1499.11
282.73	1488.87
282.94	1529.83
283.16	1566.70
283.37	1595.37
283.59	1486.83
283.80	1572.84
284.02	1570.79
284.23	1624.04
284.45	1462.25
284.66	1488.87
284.88	1492.97
285.09	1535.98
285.31	1583.08
285.52	1519.59
285.74	1390.57
285.95	1634.28
286.17	1550.31
286.38	1576.94
286.60	1535.98
286.81	1511.40
287.03	1495.02
287.24	1568.74
287.46	1585.13
287.67	1452.01
287.89	1589.22
288.10	1495.02
288.32	1492.97
288.53	1585.13
288.75	1578.98
288.96	1597.42
289.18	1499.11
289.39	1525.74
289.61	1589.22
289.82	1578.98
290.04	1624.04
290.25	1478.63
290.47	1572.84
290.68	1501.16
290.90	1587.18
291.11	1548.26
291.33	1591.27
291.54	1511.40
291.76	1452.01
291.97	1585.13
292.18	1560.55
292.40	1595.37
292.61	1507.30
292.83	1585.13
293.04	1574.89
293.26	1552.36
293.47	1574.89
293.69	1486.83
293.90	1591.27
294.12	1564.65
294.33	1558.50
294.55	1544.17
294.76	1523.69
294.97	1595.37
295.19	1540.07
295.40	1564.65
295.62	1443.82
295.83	1548.26
296.05	1595.37
296.26	1535.98
296.48	1523.69
296.69	1515.50
296.90	1527.78
297.12	1533.93
297.33	1642.47
297.55	1482.73
297.76	1533.93
297.98	1630.18
298.19	1566.70
298.41	1462.25
298.62	1476.59
298.83	1576.94
299.05	1531.88
299.26	1531.88
299.48	1548.26
299.69	1558.50
299.90	1583.08
300.12	1503.21
300.33	1589.22
300.55	1462.25
300.76	1591.27
300.98	1503.21
301.19	1568.74
301.40	1607.66
301.62	1511.40
301.83	1550.31
302.05	1597.42
302.26	1591.27
302.47	1562.60
302.69	1495.02
302.90	1503.21
303.12	1445.87
303.33	1607.66
303.54	1628.14
303.76	1495.02
303.97	1544.17
304.19	1624.04
304.40	1484.78
304.61	1517.54
304.83	1578.98
305.04	1576.94
305.26	1605.61
305.47	1554.41
305.68	1511.40
305.90	1519.59
306.11	1544.17
306.33	1476.59
306.54	1521.64
306.75	1495.02
306.97	1452.01
307.18	1427.43
307.39	1480.68
307.61	1626.09
307.82	1505.26
308.04	1507.30
308.25	1460.20
308.46	1554.41
308.68	1505.26
308.89	1581.03
309.10	1517.54
309.32	1568.74
309.53	1495.02
309.74	1542.12
309.96	1427.43
310.17	1576.94
310.39	1474.54
310.60	1615.85
310.81	1574.89
311.03	1511.40
311.24	1456.11
311.45	1495.02
311.67	1544.17
311.88	1613.80
312.09	1505.26
312.31	1482.73
312.52	1599.46
312.73	1576.94
312.95	1490.92
313.16	1517.54
313.37	1562.60
313.59	1570.79
313.80	1613.80
314.01	1566.70
314.23	1527.78
314.44	1433.58
314.65	1470.44
314.87	1562.60
315.08	1499.11
315.29	1533.93
315.51	1501.16
315.72	1566.70
315.93	1621.99
316.15	1540.07
316.36	1542.12
316.57	1544.17
316.79	1556.46
317.00	1560.55
317.21	1572.84
317.43	1535.98
317.64	1505.26
317.85	1554.41
318.07	1595.37
318.28	1628.14
318.49	1712.10
318.70	1902.56
318.92	1691.62
319.13	1654.76
319.34	1658.85
319.56	1595.37
319.77	1642.47
319.98	1634.28
320.20	1540.07
320.41	1566.70
320.62	1574.89
320.83	1519.59
321.05	1646.57
321.26	1583.08
321.47	1544.17
321.69	1560.55
321.90	1484.78
322.11	1421.29
322.32	1562.60
322.54	1634.28
322.75	1517.54
322.96	1583.08
323.18	1501.16
323.39	1415.15
323.60	1505.26
323.81	1615.85
324.03	1513.45
324.24	1525.74
324.45	1550.31
324.66	1535.98
324.88	1630.18
325.09	1652.71
325.30	1591.27
325.52	1578.98
325.73	1542.12
325.94	1480.68
326.15	1462.25
326.37	1456.11
326.58	1601.51
326.79	1619.94
327.00	1521.64
327.22	1552.36
327.43	1462.25
327.64	1503.21
327.85	1546.22
328.07	1619.94
328.28	1535.98
328.49	1503.21
328.70	1511.40
328.92	1495.02
329.13	1531.88
329.34	1525.74
329.55	1576.94
329.76	1548.26
329.98	1490.92
330.19	1595.37
330.40	1578.98
330.61	1564.65
330.83	1570.79
331.04	1552.36
331.25	1546.22
331.46	1519.59
331.68	1470.44
331.89	1595.37
332.10	1605.61
332.31	1490.92
332.52	1538.02
332.74	1542.12
332.95	1490.92
333.16	1558.50
333.37	1554.41
333.58	1490.92
333.80	1556.46
334.01	1531.88
334.22	1519.59
334.43	1488.87
334.64	1544.17
334.86	1525.74
335.07	1529.83
335.28	1611.75
335.49	1509.35
335.70	1495.02
335.92	1548.26
336.13	1601.51
336.34	1591.27
336.55	1572.84
336.76	1564.65
336.98	1503.21
337.19	1488.87
337.40	1619.94
337.61	1638.38
337.82	1523.69
338.04	1595.37
338.25	1443.82
338.46	1531.88
338.67	1542.12
338.88	1486.83
339.09	1497.07
339.31	1509.35
339.52	1515.50
339.73	1507.30
339.94	1488.87
340.15	1574.89
340.36	1527.78
340.58	1566.70
340.79	1447.91
341.00	1605.61
341.21	1411.05
341.42	1603.56
341.63	1521.64
341.85	1552.36
342.06	1523.69
342.27	1572.84
342.48	1566.70
342.69	1495.02
342.90	1581.03
343.12	1611.75
343.33	1533.93
343.54	1595.37
343.75	1538.02
343.96	1521.64
344.17	1511.40
344.38	1564.65
344.60	1490.92
344.81	1488.87
345.02	1476.59
345.23	1636.33
345.44	1609.70
345.65	1609.70
345.86	1624.04
346.07	1540.07
346.29	1456.11
346.50	1605.61
346.71	1599.46
346.92	1591.27
347.13	1660.90
347.34	1511.40
347.55	1546.22
347.76	1630.18
347.98	1433.58
348.19	1527.78
348.40	1611.75
348.61	1482.73
348.82	1540.07
349.03	1605.61
349.24	1495.02
349.45	1581.03
349.66	1419.24
349.88	1507.30
350.09	1495.02
350.30	1605.61
350.51	1585.13
350.72	1560.55
350.93	1519.59
351.14	1501.16
351.35	1525.74
351.56	1611.75
351.77	1576.94
351.99	1597.42
352.20	1591.27
352.41	1560.55
352.62	1495.02
352.83	1544.17
353.04	1540.07
353.25	1578.98
353.46	1636.33
353.67	1517.54
353.88	1492.97
354.09	1599.46
354.30	1523.69
354.52	1533.93
354.73	1560.55
354.94	1470.44
355.15	1488.87
355.36	1619.94
355.57	1515.50
355.78	1587.18
355.99	1515.50
356.20	1478.63
356.41	1523.69
356.62	1542.12
356.83	1505.26
357.04	1527.78
357.25	1417.19
357.46	1587.18
357.68	1458.15
357.89	1556.46
358.10	1558.50
358.31	1560.55
358.52	1488.87
358.73	1521.64
358.94	1550.31
359.15	1445.87
359.36	1533.93
359.57	1574.89
359.78	1484.78
359.99	1566.70
360.20	1525.74
360.41	1570.79
360.62	1628.14
360.83	1583.08
361.04	1546.22
361.25	1562.60
361.46	1570.79
361.67	1603.56
361.88	1609.70
362.09	1505.26
362.30	1531.88
362.51	1490.92
362.72	1640.42
362.93	1585.13
363.14	1566.70
363.35	1517.54
363.56	1525.74
363.78	1591.27
363.99	1574.89
364.20	1538.02
364.41	1609.70
364.62	1558.50
364.83	1531.88
365.04	1609.70
365.25	1505.26
365.46	1673.19
365.67	1540.07
365.88	1495.02
366.09	1480.68
366.30	1535.98
366.51	1531.88
366.72	1474.54
366.93	1492.97
367.14	1548.26
367.35	1589.22
367.56	1585.13
367.77	1613.80
367.98	1495.02
368.18	1607.66
368.39	1486.83
368.60	1517.54
368.81	1566.70
369.02	1558.50
369.23	1548.26
369.44	1499.11
369.65	1554.41
369.86	1548.26
370.07	1683.43
370.28	1468.39
370.49	1550.31
370.70	1548.26
370.91	1486.83
371.12	1482.73
371.33	1628.14
371.54	1490.92
371.75	1621.99
371.96	1419.24
372.17	1568.74
372.38	1542.12
372.59	1554.41
372.80	1605.61
373.01	1466.35
373.22	1492.97
373.43	1501.16
373.64	1529.83
373.85	1595.37
374.06	1538.02
374.26	1533.93
374.47	1535.98
374.68	1621.99
374.89	1517.54
375.10	1548.26
375.31	1556.46
375.52	1521.64
375.73	1564.65
375.94	1560.55
376.15	1587.18
376.36	1472.49
376.57	1511.40
376.78	1548.26
376.99	1558.50
377.20	1599.46
377.40	1533.93
377.61	1583.08
377.82	1495.02
378.03	1546.22
378.24	1544.17
378.45	1576.94
378.66	1527.78
378.87	1454.06
379.08	1484.78
379.29	1480.68
379.50	1609.70
379.71	1519.59
379.91	1568.74
380.12	1478.63
380.33	1576.94
380.54	1546.22
380.75	1505.26
380.96	1492.97
381.17	1540.07
381.38	1566.70
381.59	1638.38
381.80	1585.13
382.00	1619.94
382.21	1665.00
382.42	1673.19
382.63	1687.53
382.84	1603.56
383.05	1591.27
383.26	1574.89
383.47	1544.17
383.68	1564.65
383.88	1611.75
384.09	1570.79
384.30	1621.99
384.51	1605.61
384.72	1499.11
384.93	1400.81
385.14	1515.50
385.35	1595.37
385.55	1560.55
385.76	1574.89
385.97	1531.88
386.18	1535.98
386.39	1554.41
386.60	1523.69
386.81	1525.74
387.02	1558.50
387.22	1499.11
387.43	1646.57
387.64	1675.24
387.85	1806.31
388.06	3047.38
388.27	7108.50
388.48	10463.07
388.68	12556.10
388.89	13934.38
389.10	12955.45
389.31	10139.49
389.52	8816.51
389.73	7808.90
389.93	7514.00
390.14	6764.44
390.35	6252.45
390.56	5521.32
390.77	4624.31
390.98	3506.12
391.18	2791.38
391.39	2271.20
391.60	1712.10
391.81	1703.91
392.02	1585.13
392.23	1708.01
392.43	1634.28
392.64	1640.42
392.85	1626.09
393.06	1689.57
393.27	1462.25
393.47	1529.83
393.68	1531.88
393.89	1456.11
394.10	1597.42
394.31	1576.94
394.52	1589.22
394.72	1581.03
394.93	1550.31
395.14	1562.60
395.35	1556.46
395.56	1587.18
395.76	1587.18
395.97	1697.77
396.18	1714.15
396.39	1683.43
396.60	1849.32
396.80	1744.87
397.01	1587.18
397.22	1624.04
397.43	1587.18
397.64	1527.78
397.84	1718.25
398.05	1595.37
398.26	1556.46
398.47	1581.03
398.67	1685.48
398.88	1591.27
399.09	1556.46
399.30	1548.26
399.51	1517.54
399.71	1513.45
399.92	1456.11
400.13	1589.22
400.34	1525.74
400.54	1556.46
400.75	1595.37
400.96	1546.22
401.17	1636.33
401.37	1597.42
401.58	1519.59
401.79	1591.27
402.00	1761.25
402.21	1982.43
402.41	1943.52
402.62	1902.56
402.83	1812.45
403.04	1892.32
403.24	1853.41
403.45	1662.95
403.66	1785.83
403.87	1783.78
404.07	1718.25
404.28	1816.55
404.49	1685.48
404.70	1656.81
404.90	1605.61
405.11	1613.80
405.32	1597.42
405.52	1587.18
405.73	1517.54
405.94	1519.59
406.15	1597.42
406.35	1540.07
406.56	1599.46
406.77	1585.13
406.98	1556.46
407.18	1476.59
407.39	1638.38
407.60	1525.74
407.80	1615.85
408.01	1554.41
408.22	1572.84
408.43	1564.65
408.63	1607.66
408.84	1589.22
409.05	1558.50
409.25	1521.64
409.46	1486.83
409.67	1556.46
409.88	1533.93
410.08	1587.18
410.29	1505.26
410.50	1558.50
410.70	1560.55
410.91	1560.55
411.12	1578.98
411.32	1595.37
411.53	1521.64
411.74	1638.38
411.95	1611.75
412.15	1634.28
412.36	1591.27
412.57	1589.22
412.77	1656.81
412.98	1669.09
413.19	1535.98
413.39	1611.75
413.60	1550.31
413.81	1615.85
414.01	1507.30
414.22	1589.22
414.43	1673.19
414.63	1548.26
414.84	1548.26
415.05	1554.41
415.25	1507.30
415.46	1556.46
415.67	1595.37
415.87	1576.94
416.08	1597.42
416.29	1550.31
416.49	1578.98
416.70	1495.02
416.91	1550.31
417.11	1630.18
417.32	1609.70
417.53	1638.38
417.73	1585.13
417.94	1474.54
418.15	1624.04
418.35	1529.83
418.56	1484.78
418.77	1531.88
418.97	1585.13
419.18	1562.60
419.38	1429.48
419.59	1505.26
419.80	1632.23
420.00	1517.54
420.21	1503.21
420.42	1615.85
420.62	1611.75
420.83	1492.97
421.04	1540.07
421.24	1533.93
421.45	1585.13
421.65	1611.75
421.86	1509.35
422.07	1505.26
422.27	1521.64
422.48	1542.12
422.69	1492.97
422.89	1523.69
423.10	1478.63
423.30	1495.02
423.51	1515.50
423.72	1497.07
423.92	1566.70
424.13	1521.64
424.33	1515.50
424.54	1566.70
424.75	1468.39
424.95	1615.85
425.16	1495.02
425.36	1554.41
425.57	1601.51
425.78	1552.36
425.98	1626.09
426.19	1509.35
426.39	1458.15
426.60	1552.36
426.81	1609.70
427.01	1562.60
427.22	1490.92
427.42	1548.26
427.63	1515.50
427.83	1572.84
428.04	1630.18
428.25	1619.94
428.45	1626.09
428.66	1619.94
428.86	1566.70
429.07	1464.30
429.28	1562.60
429.48	1517.54
429.69	1521.64
429.89	1507.30
430.10	1505.26
430.30	1574.89
430.51	1583.08
430.71	1490.92
430.92	1517.54
431.13	1568.74
431.33	1544.17
431.54	1492.97
431.74	1656.81
431.95	1611.75
432.15	1449.96
432.36	1525.74
432.56	1548.26
432.77	1644.52
432.98	1656.81
433.18	1511.40
433.39	1587.18
433.59	1527.78
433.80	1619.94
434.00	1660.90
434.21	1554.41
434.41	1415.15
434.62	1607.66
434.82	1452.01
435.03	1552.36
435.23	1529.83
435.44	1490.92
435.64	1531.88
435.85	1574.89
436.06	1576.94
436.26	1560.55
436.47	1570.79
436.67	1527.78
436.88	1552.36
437.08	1581.03
437.29	1599.46
437.49	1574.89
437.70	1589.22
437.90	1572.84
438.11	1701.86
438.31	1687.53
438.52	1701.86
438.72	1673.19
438.93	1759.21
439.13	1648.61
439.34	1656.81
439.54	1544.17
439.75	1648.61
439.95	1554.41
440.16	1634.28
440.36	1546.22
440.57	1558.50
440.77	1595.37
440.98	1562.60
441.18	1617.90
441.39	1628.14
441.59	1517.54
441.80	1591.27
442.00	1535.98
442.21	1587.18
442.41	1521.64
442.62	1650.66
442.82	1476.59
443.02	1548.26
443.23	1499.11
443.43	1482.73
443.64	1599.46
443.84	1548.26
444.05	1656.81
444.25	1564.65
444.46	1558.50
444.66	1501.16
444.87	1585.13
445.07	1468.39
445.28	1572.84
445.48	1642.47
445.69	1605.61
445.89	1650.66
446.09	1595.37
446.30	1990.63
446.50	3172.30
446.71	4327.36
446.91	5302.19
447.12	5748.65
447.32	5560.24
447.53	4626.36
447.73	4073.41
447.93	3585.99
448.14	3321.81
448.34	3246.03
448.55	2895.83
448.75	2951.12
448.96	2791.38
449.16	2455.51
449.36	2324.44
449.57	2086.88
449.77	1869.80
449.98	1578.98
450.18	1578.98
450.39	1613.80
450.59	1583.08
450.79	1531.88
451.00	1540.07
451.20	1558.50
451.41	1574.89
451.61	1535.98
451.81	1511.40
452.02	1492.97
452.22	1486.83
452.43	1538.02
452.63	1585.13
452.84	1552.36
453.04	1599.46
453.24	1552.36
453.45	1503.21
453.65	1478.63
453.86	1566.70
454.06	1538.02
454.26	1560.55
454.47	1480.68
454.67	1599.46
454.87	1525.74
455.08	1538.02
455.28	1593.32
455.49	1478.63
455.69	1572.84
455.89	1660.90
456.10	1556.46
456.30	1486.83
456.51	1576.94
456.71	1593.32
456.91	1626.09
457.12	1585.13
457.32	1523.69
457.52	1630.18
457.73	1578.98
457.93	1572.84
458.14	1529.83
458.34	1533.93
458.54	1466.35
458.75	1529.83
458.95	1589.22
459.15	1581.03
459.36	1556.46
459.56	1540.07
459.76	1669.09
459.97	1507.30
460.17	1593.32
460.37	1548.26
460.58	1554.41
460.78	1578.98
460.99	1538.02
461.19	1501.16
461.39	1548.26
461.60	1576.94
461.80	1570.79
462.00	1458.15
462.21	1574.89
462.41	1517.54
462.61	1474.54
462.82	1443.82
463.02	1554.41
463.22	1486.83
463.43	1593.32
463.63	1538.02
463.83	1646.57
464.04	1568.74
464.24	1501.16
464.44	1538.02
464.64	1552.36
464.85	1511.40
465.05	1492.97
465.25	1564.65
465.46	1560.55
465.66	1507.30
465.86	1581.03
466.07	1546.22
466.27	1525.74
466.47	1511.40
466.68	1488.87
466.88	1587.18
467.08	1576.94
467.29	1558.50
467.49	1624.04
467.69	1449.96
467.89	1603.56
468.10	1546.22
468.30	1519.59
468.50	1566.70
468.71	1576.94
468.91	1554.41
469.11	1675.24
469.31	1492.97
469.52	1527.78
469.72	1585.13
469.92	1673.19
470.13	1525.74
470.33	1564.65
470.53	1687.53
470.73	2027.49
470.94	2320.35
471.14	2443.23
471.34	2629.59
471.54	2392.03
471.75	2146.27
471.95	2054.11
472.15	1898.47
472.36	2000.87
472.56	1976.29
472.76	1943.52
472.96	1843.17
473.17	1810.40
473.37	1791.97
473.57	1689.57
473.77	1665.00
473.98	1656.81
474.18	1552.36
474.38	1691.62
474.58	1527.78
474.79	1558.50
474.99	1531.88
475.19	1583.08
475.39	1521.64
475.60	1581.03
475.80	1533.93
476.00	1482.73
476.20	1486.83
476.41	1535.98
476.61	1660.90
476.81	1585.13
477.01	1492.97
477.21	1687.53
477.42	1671.14
477.62	1517.54
477.82	1621.99
478.02	1521.64
478.23	1597.42
478.43	1521.64
478.63	1574.89
478.83	1513.45
479.03	1525.74
479.24	1638.38
479.44	1605.61
479.64	1550.31
479.84	1431.53
480.04	1503.21
480.25	1501.16
480.45	1525.74
480.65	1542.12
480.85	1540.07
481.06	1556.46
481.26	1574.89
481.46	1501.16
481.66	1593.32
481.86	1515.50
482.06	1486.83
482.27	1525.74
482.47	1542.12
482.67	1583.08
482.87	1542.12
483.07	1564.65
483.28	1587.18
483.48	1462.25
483.68	1535.98
483.88	1466.35
484.08	1454.06
484.29	1499.11
484.49	1552.36
484.69	1497.07
484.89	1566.70
485.09	1538.02
485.29	1562.60
485.50	1634.28
485.70	1628.14
485.90	1683.43
486.10	1546.22
486.30	1544.17
486.50	1540.07
486.71	1605.61
486.91	1658.85
487.11	1611.75
487.31	1517.54
487.51	1523.69
487.71	1458.15
487.91	1456.11
488.12	1431.53
488.32	1513.45
488.52	1431.53
488.72	1495.02
488.92	1503.21
489.12	1597.42
489.32	1585.13
489.53	1566.70
489.73	1499.11
489.93	1650.66
490.13	1538.02
490.33	1501.16
490.53	1548.26
490.73	1552.36
490.94	1468.39
491.14	1611.75
491.34	1753.06
491.54	2119.65
491.74	2537.43
491.94	3094.48
492.14	3266.51
492.34	3184.59
492.54	2709.46
492.75	2467.80
492.95	2340.83
493.15	2205.66
493.35	2232.29
493.55	2154.46
493.75	1986.53
493.95	2154.46
494.15	1941.47
494.35	1855.46
494.56	1714.15
494.76	1695.72
494.96	1642.47
495.16	1615.85
495.36	1574.89
495.56	1546.22
495.76	1603.56
495.96	1574.89
496.16	1525.74
496.36	1640.42
496.56	1517.54
496.77	1572.84
496.97	1513.45
497.17	1585.13
497.37	1452.01
497.57	1599.46
497.77	1523.69
497.97	1564.65
498.17	1607.66
498.37	1527.78
498.57	1609.70
498.77	1583.08
498.97	1581.03
499.17	1531.88
499.38	1626.09
499.58	1591.27
499.78	1593.32
499.98	1644.52
500.18	1548.26
500.38	1525.74
500.58	1744.87
500.78	2680.79
500.98	5124.02
501.18	6848.41
501.38	8163.20
501.58	8869.75
501.78	7849.86
501.98	6170.53
502.18	5398.45
502.38	4693.94
502.58	4325.31
502.78	3903.43
502.98	3768.26
503.18	3559.37
503.38	3332.05
503.59	3012.56
503.79	2807.77
503.99	2412.51
504.19	2201.57
504.39	2185.18
504.59	2054.11
504.79	2029.54
504.99	1941.47
505.19	1808.36
505.39	1736.68
505.59	1804.26
505.79	1681.38
505.99	1662.95
506.19	1681.38
506.39	1648.61
506.59	1609.70
506.79	1581.03
506.99	1677.29
507.19	1552.36
507.39	1589.22
507.59	1523.69
507.79	1556.46
507.99	1495.02
508.19	1576.94
508.39	1476.59
508.59	1581.03
508.79	1673.19
508.99	1683.43
509.19	1562.60
509.39	1566.70
509.59	1566.70
509.79	1492.97
509.99	1564.65
510.19	1570.79
510.39	1599.46
510.59	1560.55
510.79	1542.12
510.99	1527.78
511.19	1517.54
511.39	1589.22
511.59	1632.23
511.79	1650.66
511.99	1519.59
512.19	1603.56
512.38	1548.26
512.58	1550.31
512.78	1511.40
512.98	1601.51
513.18	1609.70
513.38	1439.72
513.58	1603.56
513.78	1599.46
513.98	1499.11
514.18	1564.65
514.38	1572.84
514.58	1519.59
514.78	1509.35
514.98	1445.87
515.18	1658.85
515.38	1474.54
515.58	1601.51
515.78	1529.83
515.98	1554.41
516.18	1499.11
516.38	1540.07
516.57	1472.49
516.77	1554.41
516.97	1615.85
517.17	1511.40
517.37	1515.50
517.57	1583.08
517.77	1585.13
517.97	1439.72
518.17	1585.13
518.37	1595.37
518.57	1542.12
518.77	1476.59
518.97	1558.50
519.16	1501.16
519.36	1548.26
519.56	1595.37
519.76	1474.54
519.96	1568.74
520.16	1660.90
520.36	1533.93
520.56	1615.85
520.76	1458.15
520.96	1548.26
521.16	1540.07
521.35	1515.50
521.55	1648.61
521.75	1560.55
521.95	1531.88
522.15	1570.79
522.35	1480.68
522.55	1511.40
522.75	1630.18
522.95	1499.11
523.14	1468.39
523.34	1509.35
523.54	1492.97
523.74	1540.07
523.94	1505.26
524.14	1460.20
524.34	1564.65
524.54	1568.74
524.73	1519.59
524.93	1566.70
525.13	1488.87
525.33	1535.98
525.53	1607.66
525.73	1552.36
525.93	1578.98
526.13	1511.40
526.32	1554.41
526.52	1544.17
526.72	1576.94
526.92	1540.07
527.12	1542.12
527.32	1476.59
527.52	1621.99
527.71	1566.70
527.91	1527.78
528.11	1433.58
528.31	1527.78
528.51	1435.63
528.71	1527.78
528.90	1591.27
529.10	1689.57
529.30	1675.24
529.50	1495.02
529.70	1492.97
529.90	1548.26
530.09	1564.65
530.29	1488.87
530.49	1501.16
530.69	1648.61
530.89	1572.84
531.09	1554.41
531.28	1546.22
531.48	1632.23
531.68	1568.74
531.88	1519.59
532.08	1585.13
532.28	1464.30
532.47	1589.22
532.67	1607.66
532.87	1533.93
533.07	1544.17
533.27	1554.41
533.46	1562.60
533.66	1509.35
533.86	1554.41
534.06	1538.02
534.26	1624.04
534.45	1509.35
534.65	1619.94
534.85	1535.98
535.05	1591.27
535.25	1605.61
535.44	1497.07
535.64	1605.61
535.84	1521.64
536.04	1538.02
536.24	1515.50
536.43	1515.50
536.63	1556.46
536.83	1476.59
537.03	1535.98
537.22	1509.35
537.42	1478.63
537.62	1566.70
537.82	1447.91
538.02	1531.88
538.21	1632.23
538.41	1720.29
538.61	1558.50
538.81	1509.35
539.00	1642.47
539.20	1492.97
539.40	1603.56
539.60	1501.16
539.79	1636.33
539.99	1517.54
540.19	1552.36
540.39	1497.07
540.58	1527.78
540.78	1642.47
540.98	1505.26
541.18	1542.12
541.37	1538.02
541.57	1499.11
541.77	1605.61
541.97	1492.97
542.16	1509.35
542.36	1492.97
542.56	1611.75
542.76	1548.26
542.95	1525.74
543.15	1589.22
543.35	1544.17
543.54	1564.65
543.74	1529.83
543.94	1624.04
544.14	1556.46
544.33	1550.31
544.53	1615.85
544.73	1523.69
544.93	1538.02
545.12	1505.26
545.32	1548.26
545.52	1490.92
545.71	1482.73
545.91	1550.31
546.11	1525.74
546.30	1484.78
546.50	1564.65
546.70	1595.37
546.90	1574.89
547.09	1449.96
547.29	1542.12
547.49	1607.66
547.68	1509.35
547.88	1449.96
548.08	1585.13
548.27	1949.67
548.47	1581.03
548.67	1454.06
548.87	1527.78
549.06	1556.46
549.26	1546.22
549.46	1542.12
549.65	1542.12
549.85	1523.69
550.05	1593.32
550.24	1452.01
550.44	1507.30
550.64	1490.92
550.83	1535.98
551.03	1593.32
551.23	1578.98
551.42	1507.30
551.62	1478.63
551.82	1560.55
552.01	1527.78
552.21	1562.60
552.41	1552.36
552.60	1611.75
552.80	1521.64
553.00	1509.35
553.19	1562.60
553.39	1648.61
553.59	1497.07
553.78	1599.46
553.98	1585.13
554.17	1468.39
554.37	1634.28
554.57	1564.65
554.76	1501.16
554.96	1427.43
555.16	1535.98
555.35	1542.12
555.55	1568.74
555.75	1593.32
555.94	1560.55
556.14	1462.25
556.33	1574.89
556.53	1581.03
556.73	1542.12
556.92	1566.70
557.12	1662.95
557.32	1626.09
557.51	1572.84
557.71	1656.81
557.90	1578.98
558.10	1597.42
558.30	1548.26
558.49	1531.88
558.69	1505.26
558.88	1560.55
559.08	1624.04
559.28	1568.74
559.47	1593.32
559.67	1538.02
559.86	1613.80
560.06	1591.27
560.26	1527.78
560.45	1601.51
560.65	1574.89
560.84	1587.18
561.04	1484.78
561.24	1544.17
561.43	1572.84
561.63	1626.09
561.82	1517.54
562.02	1523.69
562.22	1486.83
562.41	1490.92
562.61	1533.93
562.80	1499.11
563.00	1650.66
563.19	1572.84
563.39	1540.07
563.59	1619.94
563.78	1439.72
563.98	1460.20
564.17	1486.83
564.37	1445.87
564.56	1560.55
564.76	1490.92
564.96	1542.12
565.15	1523.69
565.35	1642.47
565.54	1550.31
565.74	1615.85
565.93	1544.17
566.13	1572.84
566.32	1642.47
566.52	1578.98
566.71	1562.60
566.91	1585.13
567.11	1525.74
567.30	1511.40
567.50	1495.02
567.69	1601.51
567.89	1634.28
568.08	1591.27
568.28	1542.12
568.47	1488.87
568.67	1650.66
568.86	1560.55
569.06	1581.03
569.25	1538.02
569.45	1511.40
569.64	1540.07
569.84	1589.22
570.04	1480.68
570.23	1486.83
570.43	1529.83
570.62	1572.84
570.82	1617.90
571.01	1468.39
571.21	1531.88
571.40	1525.74
571.60	1662.95
571.79	1501.16
571.99	1587.18
572.18	1429.48
572.38	1589.22
572.57	1566.70
572.77	1566.70
572.96	1652.71
573.16	1538.02
573.35	1556.46
573.55	1632.23
573.74	1583.08
573.94	1486.83
574.13	1578.98
574.33	1605.61
574.52	1652.71
574.71	1617.90
574.91	1677.29
575.10	1568.74
575.30	1525.74
575.49	1538.02
575.69	1523.69
575.88	1593.32
576.08	1576.94
576.27	1613.80
576.47	1638.38
576.66	1693.67
576.86	1624.04
577.05	1591.27
577.25	1677.29
577.44	1689.57
577.64	1505.26
577.83	1626.09
578.02	1521.64
578.22	1638.38
578.41	1683.43
578.61	1529.83
578.80	1488.87
579.00	1587.18
579.19	1554.41
579.39	1531.88
579.58	1646.57
579.77	1509.35
579.97	1675.24
580.16	1691.62
580.36	1656.81
580.55	1646.57
580.75	1599.46
580.94	1591.27
581.13	1587.18
581.33	1677.29
581.52	1646.57
581.72	1712.10
581.91	1701.86
582.11	1581.03
582.30	1673.19
582.49	1685.48
582.69	1708.01
582.88	1611.75
583.08	1587.18
583.27	1615.85
583.47	1615.85
583.66	1527.78
583.85	1589.22
584.05	1517.54
584.24	1681.38
584.44	1730.53
584.63	1701.86
584.82	1705.96
585.02	1744.87
585.21	1716.20
585.41	1642.47
585.60	1728.49
585.79	1839.08
585.99	1757.16
586.18	1742.82
586.37	2027.49
586.57	3203.02
586.76	9373.55
586.96	27563.61
587.15	43490.66
587.34	54287.56
587.54	61133.92
587.73	59360.37
587.93	43740.52
588.12	32255.51
588.31	26125.94
588.51	22361.77
588.70	19728.08
588.89	18409.19
589.09	16912.13
589.28	15413.01
589.47	13223.73
589.67	11167.57
589.86	8834.94
590.06	6793.11
590.25	5066.67
590.44	3801.03
590.64	2887.64
590.83	2416.60
591.02	2076.64
591.22	1830.88
591.41	1720.29
591.60	1644.52
591.80	1794.02
591.99	1630.18
592.18	1640.42
592.38	1599.46
592.57	1595.37
592.76	1574.89
592.96	1558.50
593.15	1574.89
593.34	1624.04
593.54	1480.68
593.73	1626.09
593.92	1611.75
594.12	1611.75
594.31	1564.65
594.50	1687.53
594.70	1642.47
594.89	1769.44
595.08	1560.55
595.28	1689.57
595.47	1640.42
595.66	1632.23
595.86	1437.67
596.05	1505.26
596.24	1503.21
596.43	1669.09
596.63	1587.18
596.82	1597.42
597.01	1646.57
597.21	1675.24
597.40	1599.46
597.59	1652.71
597.79	1552.36
597.98	1607.66
598.17	1574.89
598.36	1619.94
598.56	1576.94
598.75	1581.03
598.94	1617.90
599.14	1552.36
599.33	1535.98
599.52	1503.21
599.71	1570.79
599.91	1624.04
600.10	1527.78
600.29	1599.46
600.48	1548.26
600.68	1550.31
600.87	1574.89
601.06	1630.18
601.26	1550.31
601.45	1611.75
601.64	1607.66
601.83	1621.99
602.03	1468.39
602.22	1505.26
602.41	1566.70
602.60	1642.47
602.80	1615.85
602.99	1540.07
603.18	1542.12
603.37	1529.83
603.57	1535.98
603.76	1550.31
603.95	1527.78
604.14	1558.50
604.34	1542.12
604.53	1564.65
604.72	1599.46
604.91	1619.94
605.10	1562.60
605.30	1587.18
605.49	1640.42
605.68	1589.22
605.87	1640.42
606.07	1513.45
606.26	1621.99
606.45	1572.84
606.64	1632.23
606.84	1533.93
607.03	1636.33
607.22	1601.51
607.41	1603.56
607.60	1568.74
607.80	1689.57
607.99	1538.02
608.18	1554.41
608.37	1634.28
608.56	1517.54
608.76	1529.83
608.95	1638.38
609.14	1679.33
609.33	1673.19
609.52	1689.57
609.72	1628.14
609.91	1697.77
610.10	1617.90
610.29	1673.19
610.48	1626.09
610.68	1605.61
610.87	1589.22
611.06	1593.32
611.25	1437.67
611.44	1705.96
611.63	1529.83
611.83	1603.56
612.02	1505.26
612.21	1628.14
612.40	1470.44
612.59	1527.78
612.79	1409.00
612.98	1564.65
613.17	1585.13
613.36	1535.98
613.55	1681.38
613.74	1646.57
613.93	1650.66
614.13	1724.39
614.32	1812.45
614.51	1755.11
614.70	1611.75
614.89	1644.52
615.08	1646.57
615.28	1861.60
615.47	1564.65
615.66	1572.84
615.85	1578.98
616.04	1716.20
616.23	1619.94
616.42	1681.38
616.62	1632.23
616.81	1607.66
617.00	1501.16
617.19	1595.37
617.38	1529.83
617.57	1525.74
617.76	1546.22
617.95	1529.83
618.15	1538.02
618.34	1619.94
618.53	1490.92
618.72	1560.55
618.91	1642.47
619.10	1603.56
619.29	1558.50
619.48	1513.45
619.68	1550.31
619.87	1533.93
620.06	1499.11
620.25	1603.56
620.44	1546.22
620.63	1552.36
620.82	1513.45
621.01	1581.03
621.20	1589.22
621.39	1593.32
621.59	1591.27
621.78	1587.18
621.97	1550.31
622.16	1605.61
622.35	1566.70
622.54	1550.31
622.73	1544.17
622.92	1433.58
623.11	1558.50
623.30	1595.37
623.49	1515.50
623.68	1531.88
623.88	1665.00
624.07	1581.03
624.26	1550.31
624.45	1589.22
624.64	1472.49
624.83	1560.55
625.02	1497.07
625.21	1538.02
625.40	1589.22
625.59	1583.08
625.78	1548.26
625.97	1546.22
626.16	1677.29
626.35	1585.13
626.54	1597.42
626.74	1689.57
626.93	1628.14
627.12	1589.22
627.31	1585.13
627.50	1568.74
627.69	1576.94
627.88	1533.93
628.07	1529.83
628.26	1533.93
628.45	1454.06
628.64	1581.03
628.83	1572.84
629.02	1523.69
629.21	1589.22
629.40	1578.98
629.59	1499.11
629.78	1546.22
629.97	1535.98
630.16	1605.61
630.35	1544.17
630.54	1556.46
630.73	1585.13
630.92	1574.89
631.11	1470.44
631.30	1576.94
631.49	1525.74
631.68	1560.55
631.87	1574.89
632.06	1460.20
632.25	1689.57
632.44	1601.51
632.63	1591.27
632.82	1568.74
633.01	1574.89
633.20	1599.46
633.39	1568.74
633.58	1599.46
633.77	1632.23
633.96	1591.27
634.15	1593.32
634.34	1603.56
634.53	1591.27
634.72	1529.83
634.91	1433.58
635.10	1560.55
635.29	1521.64
635.48	1538.02
635.67	1533.93
635.86	1441.77
636.05	1669.09
636.24	1533.93
636.43	1595.37
636.62	1628.14
636.81	1445.87
637.00	1533.93
637.19	1540.07
637.38	1634.28
637.57	1480.68
637.76	1642.47
637.95	1626.09
638.14	1609.70
638.33	1669.09
638.52	1642.47
638.71	1558.50
638.89	1533.93
639.08	1687.53
639.27	1632.23
639.46	1638.38
639.65	1914.85
639.84	2082.78
640.03	2082.78
640.22	2205.66
640.41	2199.52
640.60	1910.75
640.79	1908.71
640.98	1769.44
641.17	1882.08
641.36	1763.30
641.55	1732.58
641.74	1654.76
641.92	1705.96
642.11	1564.65
642.30	1654.76
642.49	1542.12
642.68	1552.36
642.87	1611.75
643.06	1568.74
643.25	1511.40
643.44	1558.50
643.63	1560.55
643.82	1576.94
644.00	1556.46
644.19	1568.74
644.38	1427.43
644.57	1533.93
644.76	1603.56
644.95	1503.21
645.14	1556.46
645.33	1535.98
645.52	1535.98
645.71	1497.07
645.89	1535.98
646.08	1585.13
646.27	1568.74
646.46	1595.37
646.65	1517.54
646.84	1568.74
647.03	1501.16
647.22	1554.41
647.40	1527.78
647.59	1492.97
647.78	1429.48
647.97	1533.93
648.16	1413.10
648.35	1652.71
648.54	1550.31
648.73	1568.74
648.91	1662.95
649.10	1519.59
649.29	1464.30
649.48	1535.98
649.67	1492.97
649.86	1611.75
650.05	1597.42
650.23	1671.14
650.42	1615.85
650.61	1730.53
650.80	1673.19
650.99	1771.49
651.18	1632.23
651.36	1671.14
651.55	1533.93
651.74	1675.24
651.93	1564.65
652.12	1601.51
652.31	1562.60
652.49	1562.60
652.68	1470.44
652.87	1574.89
653.06	1595.37
653.25	1697.77
653.44	1519.59
653.62	1630.18
653.81	1447.91
654.00	1550.31
654.19	1581.03
654.38	1628.14
654.56	1538.02
654.75	1488.87
654.94	1644.52
655.13	1548.26
655.32	1525.74
655.51	1609.70
655.69	1505.26
655.88	1642.47
656.07	1490.92
656.26	1605.61
656.45	1490.92
656.63	1488.87
656.82	1574.89
657.01	1521.64
657.20	1417.19
657.38	1626.09
657.57	1521.64
657.76	1435.63
657.95	1548.26
658.14	1583.08
658.32	1542.12
658.51	1431.53
658.70	1521.64
658.89	1480.68
659.08	1505.26
659.26	1652.71
659.45	1599.46
659.64	1667.05
659.83	1578.98
660.01	1806.31
660.20	1581.03
660.39	1574.89
660.58	1529.83
660.76	1564.65
660.95	1531.88
661.14	1538.02
661.33	1529.83
661.51	1544.17
661.70	1527.78
661.89	1564.65
662.08	1552.36
662.26	1482.73
662.45	1558.50
662.64	1652.71
662.83	1589.22
663.01	1511.40
663.20	1505.26
663.39	1566.70
663.58	1492.97
663.76	1439.72
663.95	1546.22
664.14	1466.35
664.32	1558.50
664.51	1464.30
664.70	1425.39
664.89	1564.65
665.07	1478.63
665.26	1601.51
665.45	1443.82
665.64	1617.90
665.82	1535.98
666.01	1656.81
666.20	1548.26
666.38	1642.47
666.57	1660.90
666.76	1830.88
666.95	2899.92
667.13	7638.92
667.32	15513.36
667.51	19920.59
667.69	23443.10
667.88	25208.45
668.07	22044.34
668.25	15648.53
668.44	12445.51
668.63	10129.25
668.81	8640.38
669.00	7753.61
669.19	7030.68
669.38	6250.40
669.56	5707.69
669.75	4761.53
669.94	3985.35
670.12	3493.83
670.31	2826.20
670.50	2418.65
670.68	2133.98
670.87	1873.89
671.06	1734.63
671.24	1822.69
671.43	1675.24
671.62	1683.43
671.80	1595.37
671.99	1589.22
672.18	1550.31
672.36	1632.23
672.55	1591.27
672.74	1482.73
672.92	1613.80
673.11	1562.60
673.29	1505.26
673.48	1589.22
673.67	1548.26
673.85	1568.74
674.04	1542.12
674.23	1462.25
674.41	1609.70
674.60	1548.26
674.79	1480.68
674.97	1546.22
675.16	1574.89
675.34	1521.64
675.53	1503.21
675.72	1517.54
675.90	1619.94
676.09	1581.03
676.28	1525.74
676.46	1462.25
676.65	1597.42
676.83	1497.07
677.02	1472.49
677.21	1607.66
677.39	1480.68
677.58	1548.26
677.77	1505.26
677.95	1519.59
678.14	1525.74
678.32	1515.50
678.51	1490.92
678.70	1603.56
678.88	1468.39
679.07	1574.89
679.25	1546.22
679.44	1605.61
679.63	1484.78
679.81	1531.88
680.00	1566.70
680.18	1656.81
680.37	1593.32
680.55	1550.31
680.74	1478.63
680.93	1495.02
681.11	1488.87
681.30	1499.11
681.48	1505.26
681.67	1531.88
681.85	1521.64
682.04	1495.02
682.23	1617.90
682.41	1509.35
682.60	1501.16
682.78	1544.17
682.97	1554.41
683.15	1505.26
683.34	1499.11
683.53	1632.23
683.71	1505.26
683.90	1632.23
684.08	1660.90
684.27	1550.31
684.45	1570.79
684.64	1599.46
684.82	1445.87
685.01	1525.74
685.19	1527.78
685.38	1632.23
685.57	1517.54
685.75	1578.98
685.94	1511.40
686.12	1572.84
686.31	1495.02
686.49	1656.81
686.68	1538.02
686.86	1613.80
687.05	1531.88
687.23	1658.85
687.42	1419.24
687.60	1495.02
687.79	1546.22
687.97	1544.17
688.16	1574.89
688.34	1560.55
688.53	1490.92
688.71	1599.46
688.90	1591.27
689.08	1484.78
689.27	1484.78
689.45	1558.50
689.64	1542.12
689.82	1566.70
690.01	1591.27
690.19	1511.40
690.38	1548.26
690.56	1654.76
690.75	1509.35
690.93	1589.22
691.12	1527.78
691.30	1515.50
691.49	1490.92
691.67	1630.18
691.86	1593.32
692.04	1538.02
692.23	1480.68
692.41	1566.70
692.60	1712.10
692.78	1648.61
692.97	1599.46
693.15	1585.13
693.34	1691.62
693.52	1714.15
693.71	1474.54
693.89	1550.31
694.08	1452.01
694.26	1615.85
694.44	1599.46
694.63	1595.37
694.81	1515.50
695.00	1419.24
695.18	1527.78
695.37	1587.18
695.55	1560.55
695.74	1535.98
695.92	1535.98
696.10	1562.60
696.29	1456.11
696.47	1484.78
696.66	1480.68
696.84	1576.94
697.03	1525.74
697.21	1607.66
697.40	1986.53
697.58	1544.17
697.76	1581.03
697.95	1452.01
698.13	1464.30
698.32	1562.60
698.50	1533.93
698.68	1619.94
698.87	1560.55
699.05	1634.28
699.24	1533.93
699.42	1449.96
699.61	1562.60
699.79	1581.03
699.97	1556.46
700.16	1523.69
700.34	1505.26
700.53	1521.64
700.71	1613.80
700.89	1667.05
701.08	1464.30
701.26	1564.65
701.45	1908.71
701.63	1499.11
701.81	1593.32
702.00	1570.79
702.18	1581.03
702.37	1589.22
702.55	1621.99
702.73	1757.16
702.92	1728.49
703.10	1857.51
703.28	1865.70
703.47	1701.86
703.65	1781.73
703.84	1677.29
704.02	1595.37
704.20	1642.47
704.39	1642.47
704.57	1595.37
704.75	1599.46
704.94	1648.61
705.12	1630.18
705.30	1665.00
705.49	1775.59
705.67	2742.23
705.86	7100.31
706.04	14391.08
706.22	18579.17
706.41	21515.96
706.59	22931.11
706.77	20702.92
706.96	14833.44
707.14	11968.33
707.32	9656.17
707.51	8523.65
707.69	7581.58
707.87	6737.82
708.06	5744.55
708.24	4782.01
708.42	3698.63
708.61	3008.47
708.79	2330.59
708.97	2019.30
709.16	1806.31
709.34	1710.05
709.52	1671.14
709.71	1640.42
709.89	1544.17
710.07	1542.12
710.26	1574.89
710.44	1599.46
710.62	1550.31
710.80	1529.83
710.99	1619.94
711.17	1630.18
711.35	1497.07
711.54	1552.36
711.72	1533.93
711.90	1558.50
712.09	1583.08
712.27	1511.40
712.45	1546.22
712.63	1572.84
712.82	1638.38
713.00	1568.74
713.18	1576.94
713.37	1572.84
713.55	1570.79
713.73	1566.70
713.91	1507.30
714.10	1615.85
714.28	1507.30
714.46	1529.83
714.65	1540.07
714.83	1576.94
715.01	1525.74
715.19	1476.59
715.38	1472.49
715.56	1558.50
715.74	1523.69
715.92	1538.02
716.11	1595.37
716.29	1474.54
716.47	1515.50
716.65	1595.37
716.84	1478.63
717.02	1619.94
717.20	1505.26
717.38	1495.02
717.57	1558.50
717.75	1533.93
717.93	1546.22
718.11	1601.51
718.30	1525.74
718.48	1533.93
718.66	1525.74
718.84	1611.75
719.03	1538.02
719.21	1507.30
719.39	1570.79
719.57	1581.03
719.75	1519.59
719.94	1542.12
720.12	1523.69
720.30	1550.31
720.48	1576.94
720.67	1488.87
720.85	1538.02
721.03	1556.46
721.21	1503.21
721.39	1632.23
721.58	1611.75
721.76	1564.65
721.94	1566.70
722.12	1591.27
722.30	1642.47
722.49	1560.55
722.67	1552.36
722.85	1572.84
723.03	1476.59
723.21	1505.26
723.40	1621.99
723.58	1613.80
723.76	1568.74
723.94	1566.70
724.12	1619.94
724.30	1683.43
724.49	1722.34
724.67	1587.18
724.85	1648.61
725.03	1507.30
725.21	1597.42
725.40	1630.18
725.58	1556.46
725.76	1593.32
725.94	1583.08
726.12	1521.64
726.30	1533.93
726.49	1574.89
726.67	1535.98
726.85	1597.42
727.03	1566.70
727.21	1703.91
727.39	2050.02
727.57	3205.07
727.76	4313.02
727.94	4667.32
728.12	5040.05
728.30	5064.63
728.48	4433.85
728.66	3459.02
728.84	3256.27
729.03	2865.11
729.21	2613.21
729.39	2336.73
729.57	2119.65
729.75	1912.80
729.93	1777.64
730.11	1652.71
730.30	1529.83
730.48	1544.17
730.66	1589.22
730.84	1617.90
731.02	1517.54
731.20	1591.27
731.38	1519.59
731.56	1476.59
731.74	1462.25
731.93	1550.31
732.11	1521.64
732.29	1456.11
732.47	1566.70
732.65	1523.69
732.83	1658.85
733.01	1529.83
733.19	1523.69
733.37	1480.68
733.56	1525.74
733.74	1570.79
733.92	1687.53
734.10	1517.54
734.28	1560.55
734.46	1476.59
734.64	1519.59
734.82	1525.74
735.00	1425.39
735.18	1499.11
735.36	1542.12
735.54	1546.22
735.73	1529.83
735.91	1597.42
736.09	1581.03
736.27	1517.54
736.45	1609.70
736.63	1447.91
736.81	1531.88
736.99	1599.46
737.17	1544.17
737.35	1466.35
737.53	1531.88
737.71	1560.55
737.89	1642.47
738.07	1583.08
738.25	1558.50
738.43	1511.40
738.61	1509.35
738.80	1490.92
738.98	1458.15
739.16	1535.98
739.34	1521.64
739.52	1613.80
739.70	1488.87
739.88	1542.12
740.06	1542.12
740.24	1396.71
740.42	1589.22
740.60	1443.82
740.78	1511.40
740.96	1521.64
741.14	1458.15
741.32	1597.42
741.50	1435.63
741.68	1656.81
741.86	1523.69
742.04	1505.26
742.22	1468.39
742.40	1570.79
742.58	1615.85
742.76	1566.70
742.94	1626.09
743.12	1505.26
743.30	1511.40
743.48	1585.13
743.66	1505.26
743.84	1656.81
744.02	1513.45
744.20	1542.12
744.38	1476.59
744.56	1546.22
744.74	1581.03
744.92	1566.70
745.10	1640.42
745.28	1574.89
745.46	1552.36
745.64	1499.11
745.82	1611.75
746.00	1542.12
746.18	1591.27
746.36	1478.63
746.54	1560.55
746.72	1482.73
746.90	1468.39
747.08	1599.46
747.26	1511.40
747.44	1568.74
747.62	1583.08
747.80	1533.93
747.98	1560.55
748.15	1515.50
748.33	1595.37
748.51	1529.83
748.69	1581.03
748.87	1454.06
749.05	1556.46
749.23	1484.78
749.41	1607.66
749.59	1480.68
749.77	1562.60
749.95	1517.54
750.13	1445.87
750.31	1478.63
750.49	1480.68
750.67	1587.18
750.85	1621.99
751.03	1554.41
751.20	1601.51
751.38	1576.94
751.56	1515.50
751.74	1527.78
751.92	1550.31
752.10	1507.30
752.28	1615.85
752.46	1511.40
752.64	1562.60
752.82	1529.83
753.00	1626.09
753.18	1525.74
753.35	1482.73
753.53	1519.59
753.71	1525.74
753.89	1550.31
754.07	1468.39
754.25	1636.33
754.43	1564.65
754.61	1507.30
754.79	1486.83
754.97	1581.03
755.14	1560.55
755.32	1480.68
755.50	1550.31
755.68	1576.94
755.86	1509.35
756.04	1595.37
756.22	1507.30
756.40	1568.74
756.57	1576.94
756.75	1525.74
756.93	1568.74
757.11	1486.83
757.29	1472.49
757.47	1601.51
757.65	1441.77
757.82	1456.11
758.00	1519.59
758.18	1572.84
758.36	1525.74
758.54	1609.70
758.72	1462.25
758.90	1576.94
759.07	1513.45
759.25	1576.94
759.43	1535.98
759.61	1480.68
759.79	1912.80
759.97	1638.38
760.15	1570.79
760.32	1546.22
760.50	1527.78
760.68	1656.81
760.86	1484.78
761.04	1581.03
761.22	1511.40
761.39	1583.08
761.57	1525.74
761.75	1531.88
761.93	1495.02
762.11	1476.59
762.28	1482.73
762.46	1476.59
762.64	1546.22
762.82	1513.45
763.00	1554.41
763.18	1609.70
763.35	1531.88
763.53	1472.49
763.71	1517.54
763.89	1566.70
764.07	1505.26
764.24	1576.94
764.42	1605.61
764.60	1529.83
764.78	1521.64
764.96	1519.59
765.13	1642.47
765.31	1533.93
765.49	1595.37
765.67	1460.20
765.84	1562.60
766.02	1511.40
766.20	1497.07
766.38	1583.08
766.56	1544.17
766.73	1556.46
766.91	1533.93
767.09	1538.02
767.27	1574.89
767.44	1499.11
767.62	1617.90
767.80	1566.70
767.98	1568.74
768.15	1521.64
768.33	1548.26
768.51	1624.04
768.69	1519.59
768.87	1554.41
769.04	1529.83
769.22	1621.99
769.40	1679.33
769.58	1613.80
769.75	1558.50
769.93	1593.32
770.11	1570.79
770.28	1409.00
770.46	1540.07
770.64	1558.50
770.82	1472.49
770.99	1609.70
771.17	1583.08
771.35	1505.26
771.53	1509.35
771.70	1535.98
771.88	1607.66
772.06	1595.37
772.23	1480.68
772.41	1546.22
772.59	1562.60
772.77	1484.78
772.94	1454.06
773.12	1576.94
773.30	1556.46
773.47	1638.38
773.65	1525.74
773.83	1665.00
774.01	1497.07
774.18	1513.45
774.36	1576.94
774.54	1554.41
774.71	1468.39
774.89	1437.67
775.07	1515.50
775.24	1513.45
775.42	1550.31
775.60	1634.28
775.78	1478.63
775.95	1490.92
776.13	1464.30
776.31	1507.30
776.48	1603.56
776.66	1597.42
776.84	1521.64
777.01	1529.83
777.19	1533.93
777.37	1409.00
777.54	1519.59
777.72	1658.85
777.90	1566.70
778.07	1447.91
778.25	1677.29
778.43	1492.97
778.60	1490.92
778.78	1560.55
778.96	1591.27
779.13	1456.11
779.31	1542.12
779.49	1572.84
779.66	1533.93
779.84	1470.44
780.01	1480.68
780.19	1521.64
780.37	1621.99
780.54	1560.55
780.72	1452.01
780.90	1572.84
781.07	1521.64
781.25	1507.30
781.43	1599.46
781.60	1544.17
781.78	1568.74
781.95	1585.13
782.13	1517.54
782.31	1533.93
782.48	1439.72
782.66	1507.30
782.83	1632.23
783.01	1570.79
783.19	1535.98
783.36	1540.07
783.54	1454.06
783.72	1581.03
783.89	1538.02
784.07	1523.69
784.24	1542.12
784.42	1581.03
784.60	1511.40
784.77	1576.94
784.95	1474.54
785.12	1480.68
785.30	1511.40
785.47	1462.25
785.65	1509.35
785.83	1583.08
786.00	1517.54
786.18	1478.63
786.35	1388.52
786.53	1484.78
786.71	1525.74
786.88	1595.37
787.06	1521.64
787.23	1511.40
787.41	1548.26
787.58	1540.07
787.76	1454.06
787.94	1538.02
788.11	1587.18
788.29	1535.98
788.46	1515.50
788.64	1445.87
788.81	1497.07
788.99	1509.35
789.16	1478.63
789.34	1595.37
789.52	1521.64
789.69	1552.36
789.87	1503.21
790.04	1593.32
790.22	1503.21
790.39	1624.04
790.57	1499.11
790.74	1503.21
790.92	1591.27
791.09	1437.67
791.27	1583.08
791.44	1533.93
791.62	1562.60
791.79	1521.64
791.97	1441.77
792.15	1724.39
792.32	1607.66
792.50	1558.50
792.67	1615.85
792.85	1566.70
793.02	1454.06
793.20	1556.46
793.37	1546.22
793.55	1501.16
793.72	1505.26
793.90	1558.50
794.07	1456.11
794.25	1501.16
794.42	1497.07
794.60	1464.30
794.77	1566.70
794.95	1527.78
795.12	1576.94
795.30	1554.41
795.47	1478.63
795.65	1705.96
795.82	1478.63
796.00	1468.39
796.17	1484.78
796.34	1519.59
796.52	1593.32
796.69	1546.22
796.87	1581.03
797.04	1521.64
797.22	1581.03
797.39	1527.78
797.57	1591.27
797.74	1603.56
797.92	1658.85
798.09	1488.87
798.27	1544.17
798.44	1581.03
798.62	1501.16
798.79	1531.88
798.96	1546.22
799.14	1566.70
799.31	1644.52
799.49	1566.70
799.66	1478.63
799.84	1533.93
800.01	1456.11
800.19	1533.93
800.36	1433.58
800.53	1480.68
800.71	1523.69
800.88	1517.54
801.06	1546.22
801.23	1521.64
801.41	1519.59
801.58	1490.92
801.75	1558.50
801.93	1558.50
802.10	1490.92
802.28	1480.68
802.45	1519.59
802.63	1619.94
802.80	1476.59
802.97	1492.97
803.15	1558.50
803.32	1501.16
803.50	1484.78
803.67	1558.50
803.84	1488.87
804.02	1521.64
804.19	1540.07
804.37	1437.67
804.54	1544.17
804.71	1517.54
804.89	1552.36
805.06	1466.35
805.24	1482.73
805.41	1462.25
805.58	1591.27
805.76	1681.38
805.93	1564.65
806.10	1593.32
806.28	1619.94
806.45	1550.31
806.63	1474.54
806.80	1566.70
806.97	1564.65
807.15	1564.65
807.32	1566.70
807.49	1523.69
807.67	1488.87
807.84	1497.07
808.01	1435.63
808.19	1648.61
808.36	1679.33
808.54	1472.49
808.71	1523.69
808.88	1513.45
809.06	1568.74
809.23	1568.74
809.40	1437.67
809.58	1554.41
809.75	1556.46
809.92	1511.40
810.10	1650.66
810.27	1548.26
810.44	1546.22
810.62	1538.02
810.79	1546.22
810.96	1476.59
811.14	1535.98
811.31	1484.78
811.48	1546.22
811.66	1525.74
811.83	1572.84
812.00	1531.88
812.18	1519.59
812.35	1542.12
812.52	1587.18
812.69	1488.87
812.87	1546.22
813.04	1566.70
813.21	1591.27
813.39	1470.44
813.56	1468.39
813.73	1554.41
813.91	1478.63
814.08	1560.55
814.25	1550.31
814.42	1454.06
814.60	1550.31
814.77	1572.84
814.94	1583.08
815.12	1556.46
815.29	1591.27
815.46	1507.30
815.63	1583.08
815.81	1554.41
815.98	1492.97
816.15	1486.83
816.33	1515.50
816.50	1470.44
816.67	1513.45
816.84	1583.08
817.02	1529.83
817.19	1535.98
817.36	1585.13
817.53	1515.50
817.71	1533.93
817.88	1542.12
818.05	1531.88
818.22	1513.45
818.40	1595.37
818.57	1517.54
818.74	1593.32
818.91	1492.97
819.09	1583.08
819.26	1599.46
819.43	1488.87
819.60	1531.88
819.78	1519.59
819.95	1615.85
820.12	1480.68
820.29	1515.50
820.47	1562.60
820.64	1492.97
820.81	1427.43
820.98	1519.59
821.15	1484.78
821.33	1564.65
821.50	1429.48
821.67	1601.51
821.84	1488.87
822.02	1566.70
822.19	1644.52
822.36	1466.35
822.53	1507.30
822.70	1394.67
822.88	1564.65
823.05	1581.03
823.22	1511.40
823.39	1591.27
823.56	1578.98
823.74	1615.85
823.91	1470.44
824.08	1458.15
824.25	1472.49
824.42	1665.00
824.60	1515.50
824.77	1585.13
824.94	1548.26
825.11	1585.13
825.28	1515.50
825.45	1517.54
825.63	1501.16
825.80	1511.40
825.97	1468.39
826.14	1505.26
826.31	1531.88
826.48	1517.54
826.66	1499.11
826.83	1558.50
827.00	1501.16
827.17	1544.17
827.34	1464.30
827.51	1513.45
827.69	1552.36
827.86	1519.59
828.03	1511.40
828.20	1550.31
828.37	1515.50
828.54	1535.98
828.71	1542.12
828.89	1542.12
829.06	1548.26
829.23	1595.37
829.40	1519.59
829.57	1468.39
829.74	1521.64
829.91	1548.26
830.09	1499.11
830.26	1544.17
830.43	1648.61
830.60	1466.35
830.77	1583.08
830.94	1626.09
831.11	1568.74
831.28	1556.46
831.46	1615.85
831.63	1513.45
831.80	1638.38
831.97	1431.53
832.14	1509.35
832.31	1517.54
832.48	1533.93
832.65	1619.94
832.82	1525.74
832.99	1548.26
833.17	1470.44
833.34	1548.26
833.51	1497.07
833.68	1415.15
833.85	1560.55
834.02	1445.87
834.19	1458.15
834.36	1439.72
834.53	1578.98
834.70	1574.89
834.87	1642.47
835.04	1492.97
835.22	1593.32
835.39	1427.43
835.56	1445.87
835.73	1497.07
835.90	1566.70
836.07	1495.02
836.24	1570.79
836.41	1548.26
836.58	1535.98
836.75	1591.27
836.92	1556.46
837.09	1476.59
837.26	1501.16
837.43	1546.22
837.60	1585.13
837.77	1574.89
837.94	1617.90
838.12	1560.55
838.29	1576.94
838.46	1505.26
838.63	1519.59
838.80	1650.66
838.97	1587.18
839.14	1550.31
839.31	1478.63
839.48	1513.45
839.65	1437.67
839.82	1605.61
839.99	1572.84
840.16	1501.16
840.33	1507.30
840.50	1525.74
840.67	1519.59
840.84	1363.95
841.01	1484.78
841.18	1513.45
841.35	1568.74
841.52	1591.27
841.69	1648.61
841.86	1544.17
842.03	1521.64
842.20	1542.12
842.37	1523.69
842.54	1466.35
842.71	1585.13
842.88	1464.30
843.05	1591.27
843.22	1484.78
843.39	1531.88
843.56	1511.40
843.73	1564.65
843.90	1517.54
844.07	1583.08
844.24	1517.54
844.41	1490.92
844.58	1593.32
844.75	1509.35
844.92	1495.02
845.09	1523.69
845.26	1499.11
845.43	1628.14
845.60	1470.44
845.77	1572.84
845.94	1513.45
846.10	1578.98
846.27	1484.78
846.44	1515.50
846.61	1419.24
846.78	1595.37
846.95	1540.07
847.12	1445.87
847.29	1492.97
847.46	1515.50
847.63	1562.60
847.80	1529.83
847.97	1497.07
848.14	1624.04
848.31	1501.16
848.48	1470.44
848.65	1576.94
848.82	1488.87
848.98	1601.51
849.15	1556.46
849.32	1570.79
849.49	1574.89
849.66	1519.59
849.83	1544.17
850.00	1533.93
850.17	1542.12
850.34	1566.70
850.51	1474.54
850.68	1486.83
850.85	1621.99
851.01	1533.93
851.18	1515.50
851.35	1581.03
851.52	1542.12
851.69	1601.51
851.86	1406.95
852.03	1527.78
852.20	1517.54
852.37	1540.07
852.53	1415.15
852.70	1587.18
852.87	1585.13
853.04	1607.66
853.21	1568.74
853.38	1564.65
853.55	1531.88
853.72	1599.46
853.89	1478.63
854.05	1497.07
854.22	1552.36
854.39	1437.67
854.56	1548.26
854.73	1542.12
854.90	1505.26
855.07	1540.07
855.23	1523.69
855.40	1505.26
855.57	1462.25
855.74	1476.59
855.91	1724.39
856.08	1468.39
856.25	1542.12
856.41	1521.64
856.58	1578.98
856.75	1548.26
856.92	1437.67
857.09	1501.16
857.26	1521.64
857.42	1423.34
857.59	1599.46
857.76	1529.83
857.93	1570.79
858.10	1587.18
858.27	1454.06
858.43	1464.30
858.60	1589.22
858.77	1443.82
858.94	1517.54
859.11	1609.70
859.27	1570.79
859.44	1521.64
859.61	1611.75
859.78	1556.46
859.95	1482.73
860.12	1560.55
860.28	1621.99
860.45	1525.74
860.62	1542.12
860.79	1535.98
860.95	1501.16
861.12	1449.96
861.29	1478.63
861.46	1507.30
861.63	1552.36
861.79	1581.03
861.96	1505.26
862.13	1484.78
862.30	1566.70
862.47	1492.97
862.63	1466.35
862.80	1576.94
862.97	1533.93
863.14	1554.41
863.30	1570.79
863.47	1505.26
863.64	1495.02
863.81	1488.87
863.97	1411.05
864.14	1523.69
864.31	1495.02
864.48	1550.31
864.65	1492.97
864.81	1495.02
864.98	1574.89
865.15	1525.74
865.32	1568.74
865.48	1632.23
865.65	1447.91
865.82	1531.88
865.98	1538.02
866.15	1595.37
866.32	1591.27
866.49	1531.88
866.65	1531.88
866.82	1476.59
866.99	1495.02
867.16	1476.59
867.32	1492.97
867.49	1533.93
867.66	1572.84
867.83	1476.59
867.99	1478.63
868.16	1540.07
868.33	1472.49
868.49	1554.41
868.66	1511.40
868.83	1599.46
868.99	1499.11
869.16	1542.12
869.33	1525.74
869.50	1626.09
869.66	1552.36
869.83	1447.91
870.00	1490.92
870.16	1488.87
870.33	1585.13
870.50	1595.37
870.66	1517.54
870.83	1646.57
871.00	1587.18
871.17	1509.35
871.33	1548.26
871.50	1433.58
871.67	1521.64
871.83	1484.78
872.00	1603.56
872.17	1556.46
872.33	1531.88
872.50	1576.94
872.67	1439.72
872.83	1486.83
873.00	1497.07
873.17	1554.41
873.33	1566.70
873.50	1517.54
873.67	1570.79
873.83	1492.97
874.00	1576.94
874.16	1501.16
874.33	1544.17
874.50	1533.93
874.66	1624.04
874.83	1581.03
875.00	1574.89
875.16	1617.90
875.33	1566.70
875.50	1439.72
875.66	1484.78
875.83	1523.69
875.99	1560.55
876.16	1552.36
876.33	1472.49
876.49	1521.64
876.66	1523.69
876.83	1525.74
876.99	1454.06
877.16	1439.72
877.32	1507.30
877.49	1550.31
877.66	1515.50
877.82	1583.08
877.99	1556.46
878.15	1554.41
878.32	1556.46
878.49	1587.18
878.65	1443.82
878.82	1578.98
878.98	1505.26
879.15	1617.90
879.32	1492.97
879.48	1576.94
879.65	1511.40
879.81	1462.25
879.98	1542.12
880.15	1439.72
880.31	1531.88
880.48	1552.36
880.64	1544.17
880.81	1525.74
880.97	1638.38
881.14	1621.99
881.31	1484.78
881.47	1671.14
881.64	1509.35
881.80	1499.11
881.97	1572.84
882.13	1576.94
882.30	1484.78
882.47	1546.22
882.63	1480.68
882.80	1519.59
882.96	1497.07
883.13	1611.75
883.29	1540.07
883.46	1527.78
883.62	1585.13
883.79	1554.41
883.95	1570.79
884.12	1482.73
884.29	1578.98
884.45	1556.46
884.62	1542.12
884.78	1544.17
884.95	1482.73
885.11	1529.83
885.28	1564.65
885.44	1482.73
885.61	1558.50
885.77	1621.99
885.94	1529.83
886.10	1492.97
886.27	1570.79
886.43	1621.99
886.60	1583.08
886.76	1419.24
886.93	1497.07
887.09	1576.94
887.26	1476.59
887.42	1540.07
887.59	1558.50
887.75	1632.23
887.92	1597.42
888.08	1546.22
888.25	1597.42
888.41	1548.26
888.58	1546.22
888.74	1554.41
888.91	1470.44
>>>>>End Processed Spectral Data<<<<<
