SpectraSuite Data File
++++++++++++++++++++++++++++++++++++
Date: Tue May 03 12:55:15 CEST 2016
User: root
Dark Spectrum Present: No
Reference Spectrum Present: No
Number of Sampled Component Spectra: 1
Spectrometers: USB4C02835
Integration Time (usec): 100000 (USB4C02835)
Spectra Averaged: 1 (USB4C02835)
Boxcar Smoothing: 0 (USB4C02835)
Correct for Electrical Dark: No (USB4C02835)
Strobe/Lamp Enabled: No (USB4C02835)
Correct for Detector Non-linearity: No (USB4C02835)
Correct for Stray Light: No (USB4C02835)
Number of Pixels in Processed Spectrum: 3648
>>>>>Begin Processed Spectral Data<<<<<
177.47	1359.85
177.69	1359.85
177.91	1359.85
178.13	1271.79
178.36	1384.43
178.58	1423.34
178.80	1578.98
179.02	1505.26
179.24	1480.68
179.46	1519.59
179.68	1640.42
179.90	1523.69
180.13	1595.37
180.35	1470.44
180.57	1540.07
180.79	1634.28
181.01	1558.50
181.23	1607.66
181.45	1570.79
181.67	1550.31
181.90	1556.46
182.12	1531.88
182.34	1492.97
182.56	1544.17
182.78	1476.59
183.00	1474.54
183.22	1603.56
183.44	1447.91
183.66	1644.52
183.89	1640.42
184.11	1501.16
184.33	1591.27
184.55	1556.46
184.77	1507.30
184.99	1548.26
185.21	1617.90
185.43	1578.98
185.65	1566.70
185.87	1556.46
186.10	1601.51
186.32	1636.33
186.54	1548.26
186.76	1535.98
186.98	1503.21
187.20	1531.88
187.42	1533.93
187.64	1599.46
187.86	1513.45
188.08	1542.12
188.30	1484.78
188.52	1554.41
188.75	1578.98
188.97	1611.75
189.19	1421.29
189.41	1482.73
189.63	1603.56
189.85	1492.97
190.07	1511.40
190.29	1542.12
190.51	1544.17
190.73	1503.21
190.95	1617.90
191.17	1576.94
191.39	1517.54
191.61	1505.26
191.84	1505.26
192.06	1581.03
192.28	1476.59
192.50	1671.14
192.72	1519.59
192.94	1456.11
193.16	1587.18
193.38	1570.79
193.60	1476.59
193.82	1570.79
194.04	1599.46
194.26	1511.40
194.48	1550.31
194.70	1538.02
194.92	1505.26
195.14	1566.70
195.36	1599.46
195.58	1492.97
195.80	1503.21
196.02	1525.74
196.24	1595.37
196.46	1507.30
196.69	1562.60
196.91	1652.71
197.13	1503.21
197.35	1488.87
197.57	1624.04
197.79	1521.64
198.01	1540.07
198.23	1533.93
198.45	1583.08
198.67	1452.01
198.89	1480.68
199.11	1599.46
199.33	1458.15
199.55	1464.30
199.77	1523.69
199.99	1554.41
200.21	1476.59
200.43	1544.17
200.65	1531.88
200.87	1464.30
201.09	1544.17
201.31	1486.83
201.53	1574.89
201.75	1535.98
201.97	1519.59
202.19	1607.66
202.41	1509.35
202.63	1630.18
202.85	1515.50
203.07	1583.08
203.29	1548.26
203.51	1505.26
203.73	1482.73
203.95	1689.57
204.17	1558.50
204.39	1542.12
204.61	1517.54
204.83	1562.60
205.05	1572.84
205.27	1583.08
205.49	1662.95
205.71	1515.50
205.93	1568.74
206.15	1495.02
206.37	1546.22
206.59	1521.64
206.81	1462.25
207.03	1503.21
207.25	1521.64
207.47	1495.02
207.69	1564.65
207.91	1642.47
208.13	1607.66
208.34	1472.49
208.56	1521.64
208.78	1507.30
209.00	1492.97
209.22	1492.97
209.44	1538.02
209.66	1519.59
209.88	1521.64
210.10	1472.49
210.32	1533.93
210.54	1591.27
210.76	1484.78
210.98	1556.46
211.20	1421.29
211.42	1587.18
211.64	1605.61
211.86	1595.37
212.08	1558.50
212.30	1593.32
212.52	1585.13
212.74	1464.30
212.96	1619.94
213.17	1615.85
213.39	1525.74
213.61	1548.26
213.83	1640.42
214.05	1474.54
214.27	1585.13
214.49	1556.46
214.71	1515.50
214.93	1585.13
215.15	1501.16
215.37	1593.32
215.59	1431.53
215.81	1558.50
216.03	1638.38
216.24	1533.93
216.46	1542.12
216.68	1558.50
216.90	1578.98
217.12	1585.13
217.34	1617.90
217.56	1634.28
217.78	1572.84
218.00	1515.50
218.22	1525.74
218.44	1548.26
218.66	1550.31
218.87	1665.00
219.09	1476.59
219.31	1630.18
219.53	1546.22
219.75	1480.68
219.97	1538.02
220.19	1540.07
220.41	1511.40
220.63	1593.32
220.85	1546.22
221.06	1538.02
221.28	1628.14
221.50	1507.30
221.72	1517.54
221.94	1564.65
222.16	1550.31
222.38	1568.74
222.60	1591.27
222.82	1560.55
223.03	1570.79
223.25	1574.89
223.47	1546.22
223.69	1552.36
223.91	1572.84
224.13	1497.07
224.35	1531.88
224.57	1566.70
224.78	1501.16
225.00	1521.64
225.22	1535.98
225.44	1562.60
225.66	1583.08
225.88	1533.93
226.10	1673.19
226.32	1599.46
226.53	1605.61
226.75	1572.84
226.97	1572.84
227.19	1574.89
227.41	1562.60
227.63	1460.20
227.85	1548.26
228.06	1544.17
228.28	1558.50
228.50	1556.46
228.72	1568.74
228.94	1574.89
229.16	1458.15
229.37	1550.31
229.59	1519.59
229.81	1554.41
230.03	1507.30
230.25	1458.15
230.47	1503.21
230.69	1499.11
230.90	1615.85
231.12	1519.59
231.34	1535.98
231.56	1624.04
231.78	1507.30
232.00	1525.74
232.21	1533.93
232.43	1501.16
232.65	1402.86
232.87	1599.46
233.09	1468.39
233.30	1437.67
233.52	1501.16
233.74	1611.75
233.96	1533.93
234.18	1538.02
234.40	1554.41
234.61	1595.37
234.83	1466.35
235.05	1470.44
235.27	1681.38
235.49	1669.09
235.70	1597.42
235.92	1613.80
236.14	1501.16
236.36	1570.79
236.58	1499.11
236.79	1529.83
237.01	1568.74
237.23	1513.45
237.45	1648.61
237.67	1507.30
237.88	1517.54
238.10	1544.17
238.32	1492.97
238.54	1576.94
238.76	1511.40
238.97	1540.07
239.19	1531.88
239.41	1480.68
239.63	1617.90
239.85	1452.01
240.06	1466.35
240.28	1607.66
240.50	1617.90
240.72	1587.18
240.93	1558.50
241.15	1599.46
241.37	1501.16
241.59	1638.38
241.81	1533.93
242.02	1509.35
242.24	1521.64
242.46	1495.02
242.68	1476.59
242.89	1581.03
243.11	1611.75
243.33	1556.46
243.55	1531.88
243.76	1509.35
243.98	1535.98
244.20	1538.02
244.42	1642.47
244.64	1568.74
244.85	1464.30
245.07	1511.40
245.29	1574.89
245.51	1548.26
245.72	1550.31
245.94	1601.51
246.16	1624.04
246.38	1519.59
246.59	1462.25
246.81	1501.16
247.03	1507.30
247.24	1476.59
247.46	1521.64
247.68	1558.50
247.90	1529.83
248.11	1523.69
248.33	1581.03
248.55	1556.46
248.77	1550.31
248.98	1568.74
249.20	1636.33
249.42	1570.79
249.64	1517.54
249.85	1527.78
250.07	1476.59
250.29	1513.45
250.50	1546.22
250.72	1423.34
250.94	1544.17
251.16	1581.03
251.37	1662.95
251.59	1583.08
251.81	1484.78
252.02	1656.81
252.24	1445.87
252.46	1591.27
252.68	1511.40
252.89	1480.68
253.11	1390.57
253.33	1587.18
253.54	1574.89
253.76	1464.30
253.98	1615.85
254.20	1488.87
254.41	1564.65
254.63	1519.59
254.85	1456.11
255.06	1564.65
255.28	1540.07
255.50	1603.56
255.71	1544.17
255.93	1521.64
256.15	1548.26
256.36	1535.98
256.58	1564.65
256.80	1554.41
257.02	1552.36
257.23	1521.64
257.45	1476.59
257.67	1572.84
257.88	1460.20
258.10	1507.30
258.32	1597.42
258.53	1495.02
258.75	1646.57
258.97	1566.70
259.18	1560.55
259.40	1558.50
259.62	1669.09
259.83	1601.51
260.05	1554.41
260.27	1708.01
260.48	1521.64
260.70	1492.97
260.92	1480.68
261.13	1548.26
261.35	1529.83
261.57	1554.41
261.78	1515.50
262.00	1564.65
262.22	1519.59
262.43	1503.21
262.65	1554.41
262.86	1560.55
263.08	1642.47
263.30	1535.98
263.51	1570.79
263.73	1523.69
263.95	1624.04
264.16	1503.21
264.38	1482.73
264.60	1478.63
264.81	1529.83
265.03	1570.79
265.25	1499.11
265.46	1546.22
265.68	1499.11
265.89	1513.45
266.11	1562.60
266.33	1585.13
266.54	1626.09
266.76	1501.16
266.98	1535.98
267.19	1587.18
267.41	1581.03
267.62	1527.78
267.84	1460.20
268.06	1591.27
268.27	1597.42
268.49	1550.31
268.70	1556.46
268.92	1527.78
269.14	1509.35
269.35	1486.83
269.57	1544.17
269.79	1583.08
270.00	1548.26
270.22	1660.90
270.43	1529.83
270.65	1460.20
270.87	1462.25
271.08	1570.79
271.30	1644.52
271.51	1558.50
271.73	1538.02
271.95	1583.08
272.16	1570.79
272.38	1509.35
272.59	1484.78
272.81	1550.31
273.02	1568.74
273.24	1634.28
273.46	1621.99
273.67	1454.06
273.89	1495.02
274.10	1474.54
274.32	1519.59
274.54	1554.41
274.75	1527.78
274.97	1472.49
275.18	1505.26
275.40	1595.37
275.61	1550.31
275.83	1587.18
276.05	1458.15
276.26	1482.73
276.48	1581.03
276.69	1441.77
276.91	1556.46
277.12	1560.55
277.34	1636.33
277.55	1560.55
277.77	1548.26
277.99	1583.08
278.20	1486.83
278.42	1437.67
278.63	1411.05
278.85	1452.01
279.06	1482.73
279.28	1595.37
279.49	1529.83
279.71	1603.56
279.93	1540.07
280.14	1533.93
280.36	1474.54
280.57	1568.74
280.79	1538.02
281.00	1519.59
281.22	1495.02
281.43	1554.41
281.65	1507.30
281.86	1417.19
282.08	1572.84
282.29	1558.50
282.51	1435.63
282.73	1505.26
282.94	1421.29
283.16	1540.07
283.37	1624.04
283.59	1511.40
283.80	1495.02
284.02	1476.59
284.23	1591.27
284.45	1595.37
284.66	1521.64
284.88	1486.83
285.09	1589.22
285.31	1599.46
285.52	1591.27
285.74	1470.44
285.95	1611.75
286.17	1595.37
286.38	1679.33
286.60	1540.07
286.81	1523.69
287.03	1492.97
287.24	1511.40
287.46	1574.89
287.67	1529.83
287.89	1667.05
288.10	1486.83
288.32	1544.17
288.53	1548.26
288.75	1468.39
288.96	1562.60
289.18	1576.94
289.39	1574.89
289.61	1538.02
289.82	1558.50
290.04	1650.66
290.25	1456.11
290.47	1527.78
290.68	1449.96
290.90	1533.93
291.11	1492.97
291.33	1550.31
291.54	1406.95
291.76	1488.87
291.97	1533.93
292.18	1550.31
292.40	1499.11
292.61	1568.74
292.83	1572.84
293.04	1437.67
293.26	1533.93
293.47	1546.22
293.69	1462.25
293.90	1556.46
294.12	1540.07
294.33	1492.97
294.55	1517.54
294.76	1572.84
294.97	1585.13
295.19	1648.61
295.40	1464.30
295.62	1445.87
295.83	1585.13
296.05	1460.20
296.26	1558.50
296.48	1523.69
296.69	1560.55
296.90	1515.50
297.12	1564.65
297.33	1689.57
297.55	1505.26
297.76	1511.40
297.98	1589.22
298.19	1517.54
298.41	1566.70
298.62	1484.78
298.83	1619.94
299.05	1591.27
299.26	1538.02
299.48	1535.98
299.69	1476.59
299.90	1609.70
300.12	1486.83
300.33	1529.83
300.55	1505.26
300.76	1599.46
300.98	1501.16
301.19	1558.50
301.40	1540.07
301.62	1527.78
301.83	1591.27
302.05	1544.17
302.26	1519.59
302.47	1554.41
302.69	1474.54
302.90	1529.83
303.12	1462.25
303.33	1597.42
303.54	1669.09
303.76	1521.64
303.97	1607.66
304.19	1560.55
304.40	1423.34
304.61	1495.02
304.83	1581.03
305.04	1546.22
305.26	1507.30
305.47	1513.45
305.68	1515.50
305.90	1495.02
306.11	1607.66
306.33	1435.63
306.54	1511.40
306.75	1433.58
306.97	1556.46
307.18	1538.02
307.39	1484.78
307.61	1554.41
307.82	1562.60
308.04	1499.11
308.25	1492.97
308.46	1574.89
308.68	1535.98
308.89	1531.88
309.10	1591.27
309.32	1538.02
309.53	1523.69
309.74	1636.33
309.96	1464.30
310.17	1538.02
310.39	1525.74
310.60	1529.83
310.81	1525.74
311.03	1501.16
311.24	1626.09
311.45	1533.93
311.67	1716.20
311.88	1468.39
312.09	1497.07
312.31	1480.68
312.52	1476.59
312.73	1568.74
312.95	1454.06
313.16	1474.54
313.37	1511.40
313.59	1517.54
313.80	1511.40
314.01	1578.98
314.23	1499.11
314.44	1490.92
314.65	1476.59
314.87	1529.83
315.08	1597.42
315.29	1458.15
315.51	1429.48
315.72	1480.68
315.93	1615.85
316.15	1544.17
316.36	1546.22
316.57	1560.55
316.79	1589.22
317.00	1495.02
317.21	1525.74
317.43	1495.02
317.64	1556.46
317.85	1476.59
318.07	1529.83
318.28	1583.08
318.49	1740.77
318.70	1761.25
318.92	1683.43
319.13	1535.98
319.34	1714.15
319.56	1681.38
319.77	1636.33
319.98	1613.80
320.20	1621.99
320.41	1632.23
320.62	1583.08
320.83	1501.16
321.05	1675.24
321.26	1593.32
321.47	1468.39
321.69	1626.09
321.90	1540.07
322.11	1523.69
322.32	1558.50
322.54	1617.90
322.75	1478.63
322.96	1525.74
323.18	1523.69
323.39	1415.15
323.60	1519.59
323.81	1654.76
324.03	1486.83
324.24	1535.98
324.45	1509.35
324.66	1499.11
324.88	1515.50
325.09	1558.50
325.30	1505.26
325.52	1546.22
325.73	1554.41
325.94	1480.68
326.15	1546.22
326.37	1531.88
326.58	1613.80
326.79	1535.98
327.00	1495.02
327.22	1513.45
327.43	1507.30
327.64	1523.69
327.85	1589.22
328.07	1521.64
328.28	1581.03
328.49	1568.74
328.70	1468.39
328.92	1503.21
329.13	1521.64
329.34	1576.94
329.55	1583.08
329.76	1589.22
329.98	1544.17
330.19	1576.94
330.40	1538.02
330.61	1568.74
330.83	1550.31
331.04	1538.02
331.25	1521.64
331.46	1566.70
331.68	1478.63
331.89	1556.46
332.10	1523.69
332.31	1511.40
332.52	1445.87
332.74	1617.90
332.95	1468.39
333.16	1533.93
333.37	1574.89
333.58	1519.59
333.80	1509.35
334.01	1460.20
334.22	1562.60
334.43	1486.83
334.64	1488.87
334.86	1404.91
335.07	1515.50
335.28	1570.79
335.49	1492.97
335.70	1589.22
335.92	1589.22
336.13	1656.81
336.34	1497.07
336.55	1517.54
336.76	1509.35
336.98	1505.26
337.19	1546.22
337.40	1640.42
337.61	1679.33
337.82	1556.46
338.04	1576.94
338.25	1435.63
338.46	1509.35
338.67	1482.73
338.88	1505.26
339.09	1523.69
339.31	1447.91
339.52	1503.21
339.73	1515.50
339.94	1492.97
340.15	1607.66
340.36	1470.44
340.58	1535.98
340.79	1523.69
341.00	1572.84
341.21	1484.78
341.42	1669.09
341.63	1542.12
341.85	1540.07
342.06	1544.17
342.27	1482.73
342.48	1542.12
342.69	1519.59
342.90	1568.74
343.12	1570.79
343.33	1540.07
343.54	1519.59
343.75	1603.56
343.96	1509.35
344.17	1523.69
344.38	1542.12
344.60	1552.36
344.81	1490.92
345.02	1517.54
345.23	1572.84
345.44	1658.85
345.65	1587.18
345.86	1595.37
346.07	1578.98
346.29	1521.64
346.50	1560.55
346.71	1607.66
346.92	1599.46
347.13	1652.71
347.34	1570.79
347.55	1566.70
347.76	1589.22
347.98	1435.63
348.19	1538.02
348.40	1607.66
348.61	1478.63
348.82	1540.07
349.03	1630.18
349.24	1515.50
349.45	1574.89
349.66	1509.35
349.88	1535.98
350.09	1505.26
350.30	1574.89
350.51	1621.99
350.72	1538.02
350.93	1634.28
351.14	1533.93
351.35	1550.31
351.56	1552.36
351.77	1439.72
351.99	1593.32
352.20	1624.04
352.41	1621.99
352.62	1509.35
352.83	1484.78
353.04	1609.70
353.25	1505.26
353.46	1611.75
353.67	1621.99
353.88	1499.11
354.09	1531.88
354.30	1462.25
354.52	1517.54
354.73	1511.40
354.94	1591.27
355.15	1509.35
355.36	1609.70
355.57	1445.87
355.78	1560.55
355.99	1492.97
356.20	1544.17
356.41	1595.37
356.62	1550.31
356.83	1521.64
357.04	1583.08
357.25	1476.59
357.46	1495.02
357.68	1492.97
357.89	1460.20
358.10	1529.83
358.31	1480.68
358.52	1533.93
358.73	1464.30
358.94	1437.67
359.15	1527.78
359.36	1566.70
359.57	1519.59
359.78	1505.26
359.99	1613.80
360.20	1468.39
360.41	1445.87
360.62	1615.85
360.83	1603.56
361.04	1568.74
361.25	1513.45
361.46	1550.31
361.67	1429.48
361.88	1585.13
362.09	1533.93
362.30	1542.12
362.51	1523.69
362.72	1564.65
362.93	1538.02
363.14	1531.88
363.35	1587.18
363.56	1409.00
363.78	1562.60
363.99	1574.89
364.20	1423.34
364.41	1525.74
364.62	1665.00
364.83	1517.54
365.04	1574.89
365.25	1509.35
365.46	1644.52
365.67	1441.77
365.88	1560.55
366.09	1478.63
366.30	1566.70
366.51	1521.64
366.72	1486.83
366.93	1576.94
367.14	1574.89
367.35	1640.42
367.56	1546.22
367.77	1566.70
367.98	1531.88
368.18	1542.12
368.39	1648.61
368.60	1521.64
368.81	1513.45
369.02	1585.13
369.23	1538.02
369.44	1423.34
369.65	1503.21
369.86	1570.79
370.07	1593.32
370.28	1447.91
370.49	1609.70
370.70	1568.74
370.91	1501.16
371.12	1458.15
371.33	1583.08
371.54	1517.54
371.75	1583.08
371.96	1468.39
372.17	1490.92
372.38	1525.74
372.59	1634.28
372.80	1529.83
373.01	1527.78
373.22	1540.07
373.43	1542.12
373.64	1472.49
373.85	1609.70
374.06	1640.42
374.26	1640.42
374.47	1542.12
374.68	1585.13
374.89	1484.78
375.10	1511.40
375.31	1601.51
375.52	1497.07
375.73	1548.26
375.94	1474.54
376.15	1568.74
376.36	1562.60
376.57	1490.92
376.78	1535.98
376.99	1497.07
377.20	1644.52
377.40	1558.50
377.61	1548.26
377.82	1443.82
378.03	1583.08
378.24	1515.50
378.45	1574.89
378.66	1589.22
378.87	1431.53
379.08	1492.97
379.29	1568.74
379.50	1624.04
379.71	1542.12
379.91	1593.32
380.12	1525.74
380.33	1535.98
380.54	1501.16
380.75	1464.30
380.96	1486.83
381.17	1544.17
381.38	1578.98
381.59	1546.22
381.80	1624.04
382.00	1701.86
382.21	1587.18
382.42	1642.47
382.63	1665.00
382.84	1634.28
383.05	1599.46
383.26	1624.04
383.47	1628.14
383.68	1681.38
383.88	1583.08
384.09	1593.32
384.30	1585.13
384.51	1572.84
384.72	1531.88
384.93	1566.70
385.14	1546.22
385.35	1599.46
385.55	1490.92
385.76	1568.74
385.97	1509.35
386.18	1478.63
386.39	1515.50
386.60	1548.26
386.81	1535.98
387.02	1527.78
387.22	1490.92
387.43	1624.04
387.64	1636.33
387.85	1816.55
388.06	3221.45
388.27	7104.40
388.48	10631.01
388.68	12490.56
388.89	13739.82
389.10	12705.60
389.31	10098.53
389.52	8957.82
389.73	7874.44
389.93	7184.27
390.14	6815.64
390.35	6277.02
390.56	5631.91
390.77	4661.18
390.98	3573.71
391.18	2725.85
391.39	2195.42
391.60	1705.96
391.81	1681.38
392.02	1585.13
392.23	1652.71
392.43	1568.74
392.64	1566.70
392.85	1519.59
393.06	1585.13
393.27	1581.03
393.47	1533.93
393.68	1572.84
393.89	1523.69
394.10	1533.93
394.31	1503.21
394.52	1617.90
394.72	1576.94
394.93	1607.66
395.14	1525.74
395.35	1492.97
395.56	1540.07
395.76	1669.09
395.97	1640.42
396.18	1693.67
396.39	1708.01
396.60	1978.34
396.80	1759.21
397.01	1650.66
397.22	1634.28
397.43	1679.33
397.64	1572.84
397.84	1667.05
398.05	1636.33
398.26	1593.32
398.47	1693.67
398.67	1619.94
398.88	1517.54
399.09	1634.28
399.30	1527.78
399.51	1589.22
399.71	1513.45
399.92	1554.41
400.13	1576.94
400.34	1558.50
400.54	1529.83
400.75	1644.52
400.96	1529.83
401.17	1732.58
401.37	1544.17
401.58	1513.45
401.79	1599.46
402.00	1771.49
402.21	1943.52
402.41	1964.00
402.62	1976.29
402.83	1951.71
403.04	1847.27
403.24	1949.67
403.45	1681.38
403.66	1810.40
403.87	1744.87
404.07	1738.73
404.28	1708.01
404.49	1701.86
404.70	1558.50
404.90	1599.46
405.11	1486.83
405.32	1572.84
405.52	1585.13
405.73	1503.21
405.94	1583.08
406.15	1464.30
406.35	1544.17
406.56	1521.64
406.77	1589.22
406.98	1644.52
407.18	1492.97
407.39	1626.09
407.60	1542.12
407.80	1591.27
408.01	1605.61
408.22	1533.93
408.43	1521.64
408.63	1554.41
408.84	1568.74
409.05	1597.42
409.25	1570.79
409.46	1490.92
409.67	1538.02
409.88	1456.11
410.08	1574.89
410.29	1484.78
410.50	1556.46
410.70	1562.60
410.91	1505.26
411.12	1578.98
411.32	1552.36
411.53	1513.45
411.74	1658.85
411.95	1660.90
412.15	1617.90
412.36	1675.24
412.57	1587.18
412.77	1665.00
412.98	1527.78
413.19	1497.07
413.39	1611.75
413.60	1613.80
413.81	1576.94
414.01	1513.45
414.22	1562.60
414.43	1583.08
414.63	1488.87
414.84	1525.74
415.05	1597.42
415.25	1521.64
415.46	1523.69
415.67	1468.39
415.87	1546.22
416.08	1542.12
416.29	1531.88
416.49	1558.50
416.70	1519.59
416.91	1535.98
417.11	1538.02
417.32	1495.02
417.53	1613.80
417.73	1581.03
417.94	1517.54
418.15	1531.88
418.35	1527.78
418.56	1591.27
418.77	1724.39
418.97	1533.93
419.18	1511.40
419.38	1386.47
419.59	1509.35
419.80	1599.46
420.00	1597.42
420.21	1492.97
420.42	1617.90
420.62	1540.07
420.83	1507.30
421.04	1509.35
421.24	1492.97
421.45	1538.02
421.65	1615.85
421.86	1593.32
422.07	1515.50
422.27	1513.45
422.48	1576.94
422.69	1523.69
422.89	1523.69
423.10	1589.22
423.30	1468.39
423.51	1544.17
423.72	1570.79
423.92	1597.42
424.13	1468.39
424.33	1576.94
424.54	1595.37
424.75	1558.50
424.95	1652.71
425.16	1576.94
425.36	1583.08
425.57	1607.66
425.78	1599.46
425.98	1576.94
426.19	1544.17
426.39	1492.97
426.60	1538.02
426.81	1673.19
427.01	1495.02
427.22	1525.74
427.42	1429.48
427.63	1523.69
427.83	1562.60
428.04	1609.70
428.25	1566.70
428.45	1599.46
428.66	1515.50
428.86	1521.64
429.07	1466.35
429.28	1499.11
429.48	1486.83
429.69	1490.92
429.89	1505.26
430.10	1456.11
430.30	1568.74
430.51	1529.83
430.71	1540.07
430.92	1531.88
431.13	1501.16
431.33	1574.89
431.54	1609.70
431.74	1621.99
431.95	1656.81
432.15	1454.06
432.36	1544.17
432.56	1628.14
432.77	1560.55
432.98	1644.52
433.18	1570.79
433.39	1531.88
433.59	1525.74
433.80	1679.33
434.00	1523.69
434.21	1505.26
434.41	1439.72
434.62	1626.09
434.82	1472.49
435.03	1497.07
435.23	1595.37
435.44	1482.73
435.64	1591.27
435.85	1589.22
436.06	1554.41
436.26	1560.55
436.47	1538.02
436.67	1527.78
436.88	1501.16
437.08	1556.46
437.29	1628.14
437.49	1570.79
437.70	1570.79
437.90	1449.96
438.11	1716.20
438.31	1619.94
438.52	1757.16
438.72	1794.02
438.93	1722.34
439.13	1691.62
439.34	1632.23
439.54	1626.09
439.75	1693.67
439.95	1593.32
440.16	1495.02
440.36	1574.89
440.57	1531.88
440.77	1617.90
440.98	1611.75
441.18	1568.74
441.39	1511.40
441.59	1480.68
441.80	1701.86
442.00	1578.98
442.21	1619.94
442.41	1441.77
442.62	1607.66
442.82	1527.78
443.02	1495.02
443.23	1572.84
443.43	1542.12
443.64	1578.98
443.84	1540.07
444.05	1671.14
444.25	1490.92
444.46	1406.95
444.66	1578.98
444.87	1578.98
445.07	1427.43
445.28	1583.08
445.48	1611.75
445.69	1583.08
445.89	1634.28
446.09	1578.98
446.30	1978.34
446.50	3209.17
446.71	4450.24
446.91	5343.15
447.12	5771.18
447.32	5564.33
447.53	4595.64
447.73	4067.27
447.93	3520.46
448.14	3364.81
448.34	3225.55
448.55	2836.44
448.75	2871.25
448.96	2791.38
449.16	2451.42
449.36	2246.62
449.57	1955.81
449.77	1800.16
449.98	1662.95
450.18	1644.52
450.39	1615.85
450.59	1576.94
450.79	1556.46
451.00	1456.11
451.20	1521.64
451.41	1587.18
451.61	1533.93
451.81	1558.50
452.02	1533.93
452.22	1538.02
452.43	1556.46
452.63	1501.16
452.84	1517.54
453.04	1476.59
453.24	1529.83
453.45	1482.73
453.65	1574.89
453.86	1511.40
454.06	1511.40
454.26	1521.64
454.47	1484.78
454.67	1654.76
454.87	1472.49
455.08	1595.37
455.28	1669.09
455.49	1619.94
455.69	1531.88
455.89	1609.70
456.10	1574.89
456.30	1548.26
456.51	1540.07
456.71	1476.59
456.91	1529.83
457.12	1540.07
457.32	1535.98
457.52	1474.54
457.73	1531.88
457.93	1505.26
458.14	1562.60
458.34	1538.02
458.54	1511.40
458.75	1544.17
458.95	1630.18
459.15	1529.83
459.36	1574.89
459.56	1566.70
459.76	1630.18
459.97	1568.74
460.17	1513.45
460.37	1566.70
460.58	1529.83
460.78	1538.02
460.99	1538.02
461.19	1601.51
461.39	1490.92
461.60	1546.22
461.80	1515.50
462.00	1470.44
462.21	1513.45
462.41	1538.02
462.61	1527.78
462.82	1464.30
463.02	1652.71
463.22	1548.26
463.43	1591.27
463.63	1560.55
463.83	1574.89
464.04	1527.78
464.24	1511.40
464.44	1523.69
464.64	1503.21
464.85	1609.70
465.05	1548.26
465.25	1538.02
465.46	1568.74
465.66	1607.66
465.86	1558.50
466.07	1535.98
466.27	1550.31
466.47	1503.21
466.68	1435.63
466.88	1589.22
467.08	1550.31
467.29	1605.61
467.49	1533.93
467.69	1499.11
467.89	1552.36
468.10	1597.42
468.30	1482.73
468.50	1626.09
468.71	1621.99
468.91	1476.59
469.11	1636.33
469.31	1546.22
469.52	1525.74
469.72	1675.24
469.92	1660.90
470.13	1578.98
470.33	1574.89
470.53	1742.82
470.73	2045.92
470.94	2297.82
471.14	2490.33
471.34	2680.79
471.54	2467.80
471.75	2105.31
471.95	2035.68
472.15	1986.53
472.36	1990.63
472.56	1912.80
472.76	1951.71
472.96	1892.32
473.17	1918.95
473.37	1794.02
473.57	1621.99
473.77	1630.18
473.98	1538.02
474.18	1572.84
474.38	1718.25
474.58	1499.11
474.79	1488.87
474.99	1525.74
475.19	1546.22
475.39	1447.91
475.60	1597.42
475.80	1558.50
476.00	1572.84
476.20	1460.20
476.41	1525.74
476.61	1640.42
476.81	1650.66
477.01	1554.41
477.21	1662.95
477.42	1605.61
477.62	1511.40
477.82	1609.70
478.02	1578.98
478.23	1544.17
478.43	1525.74
478.63	1589.22
478.83	1533.93
479.03	1601.51
479.24	1550.31
479.44	1603.56
479.64	1499.11
479.84	1421.29
480.04	1552.36
480.25	1572.84
480.45	1476.59
480.65	1533.93
480.85	1617.90
481.06	1587.18
481.26	1638.38
481.46	1624.04
481.66	1497.07
481.86	1431.53
482.06	1652.71
482.27	1554.41
482.47	1558.50
482.67	1576.94
482.87	1542.12
483.07	1554.41
483.28	1505.26
483.48	1492.97
483.68	1501.16
483.88	1495.02
484.08	1402.86
484.29	1558.50
484.49	1503.21
484.69	1501.16
484.89	1665.00
485.09	1621.99
485.29	1497.07
485.50	1568.74
485.70	1462.25
485.90	1560.55
486.10	1466.35
486.30	1601.51
486.50	1646.57
486.71	1581.03
486.91	1550.31
487.11	1570.79
487.31	1466.35
487.51	1568.74
487.71	1542.12
487.91	1499.11
488.12	1529.83
488.32	1425.39
488.52	1511.40
488.72	1429.48
488.92	1552.36
489.12	1578.98
489.32	1576.94
489.53	1525.74
489.73	1484.78
489.93	1654.76
490.13	1574.89
490.33	1492.97
490.53	1538.02
490.73	1576.94
490.94	1501.16
491.14	1634.28
491.34	1671.14
491.54	2148.32
491.74	2684.89
491.94	3094.48
492.14	3221.45
492.34	3295.18
492.54	2793.43
492.75	2435.03
492.95	2344.92
493.15	2224.09
493.35	2146.27
493.55	2142.18
493.75	2019.30
493.95	2017.25
494.15	1896.42
494.35	1755.11
494.56	1734.63
494.76	1689.57
494.96	1613.80
495.16	1642.47
495.36	1609.70
495.56	1593.32
495.76	1521.64
495.96	1538.02
496.16	1527.78
496.36	1673.19
496.56	1593.32
496.77	1626.09
496.97	1550.31
497.17	1540.07
497.37	1533.93
497.57	1599.46
497.77	1538.02
497.97	1538.02
498.17	1525.74
498.37	1507.30
498.57	1540.07
498.77	1509.35
498.97	1591.27
499.17	1615.85
499.38	1519.59
499.58	1587.18
499.78	1609.70
499.98	1589.22
500.18	1593.32
500.38	1517.54
500.58	1820.64
500.78	2729.94
500.98	5244.85
501.18	6647.71
501.38	8284.03
501.58	8654.72
501.78	7872.39
501.98	6088.61
502.18	5248.94
502.38	4569.02
502.58	4241.34
502.78	3977.16
502.98	3792.84
503.18	3559.37
503.38	3344.33
503.59	2957.27
503.79	2830.29
503.99	2574.30
504.19	2297.82
504.39	2119.65
504.59	2058.21
504.79	2056.16
504.99	1976.29
505.19	1761.25
505.39	1783.78
505.59	1769.44
505.79	1716.20
505.99	1669.09
506.19	1595.37
506.39	1705.96
506.59	1636.33
506.79	1621.99
506.99	1624.04
507.19	1658.85
507.39	1562.60
507.59	1525.74
507.79	1507.30
507.99	1509.35
508.19	1566.70
508.39	1587.18
508.59	1519.59
508.79	1660.90
508.99	1642.47
509.19	1486.83
509.39	1560.55
509.59	1476.59
509.79	1476.59
509.99	1574.89
510.19	1605.61
510.39	1566.70
510.59	1572.84
510.79	1527.78
510.99	1550.31
511.19	1576.94
511.39	1621.99
511.59	1548.26
511.79	1538.02
511.99	1560.55
512.19	1560.55
512.38	1488.87
512.58	1542.12
512.78	1550.31
512.98	1648.61
513.18	1615.85
513.38	1452.01
513.58	1615.85
513.78	1478.63
513.98	1499.11
514.18	1564.65
514.38	1492.97
514.58	1521.64
514.78	1503.21
514.98	1519.59
515.18	1523.69
515.38	1546.22
515.58	1562.60
515.78	1495.02
515.98	1525.74
516.18	1599.46
516.38	1521.64
516.57	1538.02
516.77	1492.97
516.97	1611.75
517.17	1585.13
517.37	1497.07
517.57	1550.31
517.77	1521.64
517.97	1454.06
518.17	1583.08
518.37	1521.64
518.57	1497.07
518.77	1509.35
518.97	1619.94
519.16	1603.56
519.36	1593.32
519.56	1511.40
519.76	1562.60
519.96	1574.89
520.16	1628.14
520.36	1503.21
520.56	1574.89
520.76	1574.89
520.96	1558.50
521.16	1595.37
521.35	1574.89
521.55	1558.50
521.75	1617.90
521.95	1570.79
522.15	1617.90
522.35	1507.30
522.55	1499.11
522.75	1519.59
522.95	1595.37
523.14	1521.64
523.34	1578.98
523.54	1492.97
523.74	1603.56
523.94	1576.94
524.14	1415.15
524.34	1542.12
524.54	1599.46
524.73	1523.69
524.93	1503.21
525.13	1495.02
525.33	1501.16
525.53	1615.85
525.73	1515.50
525.93	1521.64
526.13	1529.83
526.32	1568.74
526.52	1554.41
526.72	1583.08
526.92	1540.07
527.12	1535.98
527.32	1540.07
527.52	1562.60
527.71	1587.18
527.91	1462.25
528.11	1480.68
528.31	1599.46
528.51	1515.50
528.71	1572.84
528.90	1583.08
529.10	1621.99
529.30	1560.55
529.50	1462.25
529.70	1607.66
529.90	1511.40
530.09	1499.11
530.29	1558.50
530.49	1556.46
530.69	1609.70
530.89	1603.56
531.09	1613.80
531.28	1503.21
531.48	1640.42
531.68	1495.02
531.88	1544.17
532.08	1599.46
532.28	1572.84
532.47	1552.36
532.67	1587.18
532.87	1527.78
533.07	1542.12
533.27	1552.36
533.46	1533.93
533.66	1599.46
533.86	1490.92
534.06	1611.75
534.26	1591.27
534.45	1587.18
534.65	1613.80
534.85	1523.69
535.05	1435.63
535.25	1519.59
535.44	1554.41
535.64	1583.08
535.84	1535.98
536.04	1570.79
536.24	1511.40
536.43	1546.22
536.63	1529.83
536.83	1568.74
537.03	1550.31
537.22	1550.31
537.42	1535.98
537.62	1527.78
537.82	1562.60
538.02	1599.46
538.21	1576.94
538.41	1632.23
538.61	1560.55
538.81	1472.49
539.00	1595.37
539.20	1435.63
539.40	1542.12
539.60	1533.93
539.79	1617.90
539.99	1538.02
540.19	1519.59
540.39	1507.30
540.58	1554.41
540.78	1593.32
540.98	1554.41
541.18	1587.18
541.37	1509.35
541.57	1486.83
541.77	1581.03
541.97	1533.93
542.16	1447.91
542.36	1501.16
542.56	1587.18
542.76	1630.18
542.95	1632.23
543.15	1542.12
543.35	1626.09
543.54	1511.40
543.74	1452.01
543.94	1552.36
544.14	1476.59
544.33	1574.89
544.53	1525.74
544.73	1535.98
544.93	1533.93
545.12	1513.45
545.32	1495.02
545.52	1568.74
545.71	1464.30
545.91	1488.87
546.11	1499.11
546.30	1558.50
546.50	1570.79
546.70	1542.12
546.90	1634.28
547.09	1447.91
547.29	1544.17
547.49	1546.22
547.68	1484.78
547.88	1503.21
548.08	1488.87
548.27	1931.23
548.47	1470.44
548.67	1499.11
548.87	1517.54
549.06	1519.59
549.26	1628.14
549.46	1560.55
549.65	1570.79
549.85	1533.93
550.05	1576.94
550.24	1515.50
550.44	1478.63
550.64	1523.69
550.83	1544.17
551.03	1548.26
551.23	1656.81
551.42	1552.36
551.62	1501.16
551.82	1511.40
552.01	1519.59
552.21	1660.90
552.41	1607.66
552.60	1621.99
552.80	1511.40
553.00	1505.26
553.19	1525.74
553.39	1550.31
553.59	1452.01
553.78	1570.79
553.98	1589.22
554.17	1525.74
554.37	1538.02
554.57	1550.31
554.76	1486.83
554.96	1431.53
555.16	1554.41
555.35	1550.31
555.55	1492.97
555.75	1490.92
555.94	1595.37
556.14	1503.21
556.33	1538.02
556.53	1501.16
556.73	1576.94
556.92	1525.74
557.12	1601.51
557.32	1646.57
557.51	1564.65
557.71	1599.46
557.90	1683.43
558.10	1626.09
558.30	1470.44
558.49	1505.26
558.69	1540.07
558.88	1531.88
559.08	1578.98
559.28	1486.83
559.47	1550.31
559.67	1523.69
559.86	1648.61
560.06	1568.74
560.26	1552.36
560.45	1505.26
560.65	1476.59
560.84	1587.18
561.04	1486.83
561.24	1593.32
561.43	1474.54
561.63	1591.27
561.82	1576.94
562.02	1597.42
562.22	1538.02
562.41	1478.63
562.61	1443.82
562.80	1492.97
563.00	1656.81
563.19	1495.02
563.39	1517.54
563.59	1585.13
563.78	1470.44
563.98	1486.83
564.17	1472.49
564.37	1523.69
564.56	1490.92
564.76	1437.67
564.96	1615.85
565.15	1544.17
565.35	1691.62
565.54	1507.30
565.74	1552.36
565.93	1558.50
566.13	1658.85
566.32	1460.20
566.52	1509.35
566.71	1558.50
566.91	1654.76
567.11	1538.02
567.30	1574.89
567.50	1583.08
567.69	1581.03
567.89	1570.79
568.08	1529.83
568.28	1542.12
568.47	1460.20
568.67	1558.50
568.86	1538.02
569.06	1572.84
569.25	1509.35
569.45	1552.36
569.64	1507.30
569.84	1525.74
570.04	1574.89
570.23	1490.92
570.43	1574.89
570.62	1525.74
570.82	1599.46
571.01	1560.55
571.21	1572.84
571.40	1519.59
571.60	1576.94
571.79	1576.94
571.99	1519.59
572.18	1443.82
572.38	1509.35
572.57	1619.94
572.77	1578.98
572.96	1665.00
573.16	1601.51
573.35	1542.12
573.55	1617.90
573.74	1585.13
573.94	1544.17
574.13	1585.13
574.33	1566.70
574.52	1568.74
574.71	1587.18
574.91	1673.19
575.10	1501.16
575.30	1550.31
575.49	1562.60
575.69	1578.98
575.88	1650.66
576.08	1599.46
576.27	1681.38
576.47	1642.47
576.66	1642.47
576.86	1642.47
577.05	1533.93
577.25	1568.74
577.44	1691.62
577.64	1533.93
577.83	1542.12
578.02	1566.70
578.22	1585.13
578.41	1605.61
578.61	1556.46
578.80	1458.15
579.00	1562.60
579.19	1574.89
579.39	1550.31
579.58	1581.03
579.77	1603.56
579.97	1634.28
580.16	1636.33
580.36	1660.90
580.55	1654.76
580.75	1595.37
580.94	1632.23
581.13	1697.77
581.33	1677.29
581.52	1630.18
581.72	1675.24
581.91	1703.91
582.11	1556.46
582.30	1644.52
582.49	1671.14
582.69	1654.76
582.88	1673.19
583.08	1593.32
583.27	1644.52
583.47	1570.79
583.66	1533.93
583.85	1542.12
584.05	1605.61
584.24	1714.15
584.44	1648.61
584.63	1656.81
584.82	1669.09
585.02	1705.96
585.21	1730.53
585.41	1783.78
585.60	1736.68
585.79	1718.25
585.99	1824.74
586.18	1796.07
586.37	2029.54
586.57	3166.16
586.76	9607.02
586.96	27539.04
587.15	43330.92
587.34	53990.60
587.54	61203.55
587.73	59540.60
587.93	43447.66
588.12	32050.71
588.31	25742.97
588.51	22038.19
588.70	19838.67
588.89	18378.47
589.09	16871.17
589.28	15621.91
589.47	13238.07
589.67	11128.66
589.86	8957.82
590.06	6707.10
590.25	5017.52
590.44	3893.19
590.64	2942.93
590.83	2349.02
591.02	2101.22
591.22	1865.70
591.41	1783.78
591.60	1642.47
591.80	1716.20
591.99	1646.57
592.18	1634.28
592.38	1632.23
592.57	1599.46
592.76	1621.99
592.96	1595.37
593.15	1566.70
593.34	1662.95
593.54	1642.47
593.73	1611.75
593.92	1617.90
594.12	1615.85
594.31	1681.38
594.50	1712.10
594.70	1603.56
594.89	1691.62
595.08	1542.12
595.28	1587.18
595.47	1714.15
595.66	1533.93
595.86	1486.83
596.05	1527.78
596.24	1533.93
596.43	1607.66
596.63	1665.00
596.82	1615.85
597.01	1572.84
597.21	1648.61
597.40	1654.76
597.59	1587.18
597.79	1601.51
597.98	1576.94
598.17	1591.27
598.36	1609.70
598.56	1601.51
598.75	1515.50
598.94	1583.08
599.14	1576.94
599.33	1550.31
599.52	1585.13
599.71	1581.03
599.91	1648.61
600.10	1644.52
600.29	1503.21
600.48	1591.27
600.68	1689.57
600.87	1517.54
601.06	1495.02
601.26	1574.89
601.45	1566.70
601.64	1474.54
601.83	1615.85
602.03	1417.19
602.22	1435.63
602.41	1562.60
602.60	1697.77
602.80	1609.70
602.99	1626.09
603.18	1544.17
603.37	1554.41
603.57	1621.99
603.76	1527.78
603.95	1656.81
604.14	1492.97
604.34	1531.88
604.53	1591.27
604.72	1585.13
604.91	1611.75
605.10	1585.13
605.30	1501.16
605.49	1683.43
605.68	1525.74
605.87	1533.93
606.07	1462.25
606.26	1609.70
606.45	1619.94
606.64	1535.98
606.84	1554.41
607.03	1560.55
607.22	1587.18
607.41	1525.74
607.60	1603.56
607.80	1601.51
607.99	1587.18
608.18	1511.40
608.37	1601.51
608.56	1548.26
608.76	1591.27
608.95	1722.34
609.14	1624.04
609.33	1650.66
609.52	1759.21
609.72	1591.27
609.91	1662.95
610.10	1665.00
610.29	1673.19
610.48	1652.71
610.68	1578.98
610.87	1605.61
611.06	1595.37
611.25	1503.21
611.44	1658.85
611.63	1533.93
611.83	1662.95
612.02	1560.55
612.21	1656.81
612.40	1511.40
612.59	1484.78
612.79	1505.26
612.98	1556.46
613.17	1634.28
613.36	1538.02
613.55	1646.57
613.74	1581.03
613.93	1669.09
614.13	1761.25
614.32	1851.36
614.51	1767.40
614.70	1675.24
614.89	1658.85
615.08	1611.75
615.28	1888.23
615.47	1621.99
615.66	1624.04
615.85	1546.22
616.04	1767.40
616.23	1611.75
616.42	1644.52
616.62	1603.56
616.81	1525.74
617.00	1546.22
617.19	1542.12
617.38	1486.83
617.57	1581.03
617.76	1626.09
617.95	1533.93
618.15	1507.30
618.34	1613.80
618.53	1538.02
618.72	1621.99
618.91	1531.88
619.10	1619.94
619.29	1544.17
619.48	1492.97
619.68	1519.59
619.87	1548.26
620.06	1447.91
620.25	1644.52
620.44	1511.40
620.63	1488.87
620.82	1495.02
621.01	1630.18
621.20	1540.07
621.39	1535.98
621.59	1535.98
621.78	1617.90
621.97	1519.59
622.16	1599.46
622.35	1523.69
622.54	1593.32
622.73	1578.98
622.92	1454.06
623.11	1587.18
623.30	1495.02
623.49	1517.54
623.68	1488.87
623.88	1611.75
624.07	1544.17
624.26	1468.39
624.45	1554.41
624.64	1531.88
624.83	1609.70
625.02	1531.88
625.21	1533.93
625.40	1572.84
625.59	1599.46
625.78	1531.88
625.97	1679.33
626.16	1599.46
626.35	1665.00
626.54	1597.42
626.74	1777.64
626.93	1621.99
627.12	1566.70
627.31	1624.04
627.50	1615.85
627.69	1585.13
627.88	1576.94
628.07	1597.42
628.26	1470.44
628.45	1529.83
628.64	1517.54
628.83	1513.45
629.02	1497.07
629.21	1591.27
629.40	1533.93
629.59	1519.59
629.78	1495.02
629.97	1460.20
630.16	1607.66
630.35	1495.02
630.54	1535.98
630.73	1495.02
630.92	1523.69
631.11	1535.98
631.30	1599.46
631.49	1607.66
631.68	1558.50
631.87	1552.36
632.06	1462.25
632.25	1748.97
632.44	1576.94
632.63	1605.61
632.82	1554.41
633.01	1660.90
633.20	1671.14
633.39	1742.82
633.58	1583.08
633.77	1617.90
633.96	1628.14
634.15	1587.18
634.34	1685.48
634.53	1611.75
634.72	1509.35
634.91	1474.54
635.10	1568.74
635.29	1624.04
635.48	1558.50
635.67	1570.79
635.86	1415.15
636.05	1562.60
636.24	1564.65
636.43	1603.56
636.62	1578.98
636.81	1490.92
637.00	1587.18
637.19	1570.79
637.38	1552.36
637.57	1492.97
637.76	1566.70
637.95	1705.96
638.14	1585.13
638.33	1603.56
638.52	1648.61
638.71	1624.04
638.89	1511.40
639.08	1765.35
639.27	1595.37
639.46	1730.53
639.65	1888.23
639.84	2037.73
640.03	2115.55
640.22	2203.61
640.41	2220.00
640.60	1941.47
640.79	1857.51
640.98	1816.55
641.17	1697.77
641.36	1681.38
641.55	1757.16
641.74	1624.04
641.92	1652.71
642.11	1589.22
642.30	1611.75
642.49	1558.50
642.68	1554.41
642.87	1613.80
643.06	1642.47
643.25	1585.13
643.44	1492.97
643.63	1474.54
643.82	1591.27
644.00	1484.78
644.19	1611.75
644.38	1472.49
644.57	1560.55
644.76	1574.89
644.95	1476.59
645.14	1492.97
645.33	1492.97
645.52	1564.65
645.71	1501.16
645.89	1505.26
646.08	1492.97
646.27	1521.64
646.46	1642.47
646.65	1433.58
646.84	1533.93
647.03	1499.11
647.22	1601.51
647.40	1591.27
647.59	1552.36
647.78	1472.49
647.97	1503.21
648.16	1581.03
648.35	1595.37
648.54	1638.38
648.73	1552.36
648.91	1574.89
649.10	1525.74
649.29	1617.90
649.48	1495.02
649.67	1535.98
649.86	1591.27
650.05	1603.56
650.23	1730.53
650.42	1671.14
650.61	1703.91
650.80	1767.40
650.99	1775.59
651.18	1578.98
651.36	1710.05
651.55	1531.88
651.74	1683.43
651.93	1558.50
652.12	1574.89
652.31	1503.21
652.49	1554.41
652.68	1515.50
652.87	1624.04
653.06	1591.27
653.25	1581.03
653.44	1564.65
653.62	1642.47
653.81	1634.28
654.00	1585.13
654.19	1585.13
654.38	1636.33
654.56	1548.26
654.75	1583.08
654.94	1458.15
655.13	1566.70
655.32	1560.55
655.51	1560.55
655.69	1574.89
655.88	1519.59
656.07	1552.36
656.26	1568.74
656.45	1521.64
656.63	1488.87
656.82	1513.45
657.01	1593.32
657.20	1488.87
657.38	1621.99
657.57	1558.50
657.76	1525.74
657.95	1617.90
658.14	1568.74
658.32	1525.74
658.51	1433.58
658.70	1544.17
658.89	1546.22
659.08	1556.46
659.26	1660.90
659.45	1550.31
659.64	1578.98
659.83	1576.94
660.01	1730.53
660.20	1601.51
660.39	1624.04
660.58	1501.16
660.76	1570.79
660.95	1486.83
661.14	1562.60
661.33	1515.50
661.51	1503.21
661.70	1542.12
661.89	1687.53
662.08	1544.17
662.26	1464.30
662.45	1511.40
662.64	1576.94
662.83	1621.99
663.01	1540.07
663.20	1521.64
663.39	1648.61
663.58	1574.89
663.76	1533.93
663.95	1546.22
664.14	1542.12
664.32	1578.98
664.51	1492.97
664.70	1490.92
664.89	1501.16
665.07	1538.02
665.26	1671.14
665.45	1499.11
665.64	1599.46
665.82	1503.21
666.01	1656.81
666.20	1548.26
666.38	1585.13
666.57	1665.00
666.76	1839.08
666.95	2848.72
667.13	7667.60
667.32	15513.36
667.51	20119.24
667.69	23570.07
667.88	25280.13
668.07	22240.94
668.25	15675.15
668.44	12508.99
668.63	10080.10
668.81	8574.85
669.00	7681.93
669.19	7174.03
669.38	6295.46
669.56	5826.47
669.75	4843.45
669.94	4048.83
670.12	3461.07
670.31	2813.91
670.50	2525.15
670.68	2119.65
670.87	1918.95
671.06	1730.53
671.24	1755.11
671.43	1720.29
671.62	1683.43
671.80	1650.66
671.99	1679.33
672.18	1617.90
672.36	1683.43
672.55	1605.61
672.74	1525.74
672.92	1566.70
673.11	1597.42
673.29	1480.68
673.48	1599.46
673.67	1460.20
673.85	1628.14
674.04	1525.74
674.23	1468.39
674.41	1660.90
674.60	1480.68
674.79	1501.16
674.97	1527.78
675.16	1634.28
675.34	1665.00
675.53	1484.78
675.72	1538.02
675.90	1632.23
676.09	1517.54
676.28	1595.37
676.46	1482.73
676.65	1540.07
676.83	1591.27
677.02	1472.49
677.21	1546.22
677.39	1566.70
677.58	1576.94
677.77	1562.60
677.95	1476.59
678.14	1538.02
678.32	1415.15
678.51	1544.17
678.70	1654.76
678.88	1533.93
679.07	1540.07
679.25	1589.22
679.44	1523.69
679.63	1464.30
679.81	1505.26
680.00	1605.61
680.18	1585.13
680.37	1601.51
680.55	1517.54
680.74	1525.74
680.93	1441.77
681.11	1544.17
681.30	1591.27
681.48	1605.61
681.67	1595.37
681.85	1572.84
682.04	1521.64
682.23	1593.32
682.41	1583.08
682.60	1542.12
682.78	1542.12
682.97	1525.74
683.15	1456.11
683.34	1476.59
683.53	1568.74
683.71	1443.82
683.90	1568.74
684.08	1718.25
684.27	1591.27
684.45	1495.02
684.64	1611.75
684.82	1535.98
685.01	1636.33
685.19	1505.26
685.38	1611.75
685.57	1587.18
685.75	1554.41
685.94	1593.32
686.12	1425.39
686.31	1478.63
686.49	1646.57
686.68	1406.95
686.86	1574.89
687.05	1488.87
687.23	1613.80
687.42	1507.30
687.60	1492.97
687.79	1591.27
687.97	1595.37
688.16	1492.97
688.34	1603.56
688.53	1417.19
688.71	1632.23
688.90	1566.70
689.08	1464.30
689.27	1437.67
689.45	1562.60
689.64	1531.88
689.82	1617.90
690.01	1576.94
690.19	1570.79
690.38	1568.74
690.56	1570.79
690.75	1558.50
690.93	1519.59
691.12	1482.73
691.30	1568.74
691.49	1468.39
691.67	1546.22
691.86	1615.85
692.04	1509.35
692.23	1409.00
692.41	1531.88
692.60	1718.25
692.78	1662.95
692.97	1550.31
693.15	1701.86
693.34	1642.47
693.52	1550.31
693.71	1521.64
693.89	1523.69
694.08	1495.02
694.26	1656.81
694.44	1656.81
694.63	1597.42
694.81	1468.39
695.00	1499.11
695.18	1613.80
695.37	1687.53
695.55	1597.42
695.74	1554.41
695.92	1511.40
696.10	1568.74
696.29	1521.64
696.47	1503.21
696.66	1486.83
696.84	1488.87
697.03	1488.87
697.21	1634.28
697.40	2029.54
697.58	1660.90
697.76	1558.50
697.95	1552.36
698.13	1484.78
698.32	1480.68
698.50	1515.50
698.68	1611.75
698.87	1531.88
699.05	1685.48
699.24	1603.56
699.42	1546.22
699.61	1535.98
699.79	1574.89
699.97	1554.41
700.16	1511.40
700.34	1558.50
700.53	1564.65
700.71	1603.56
700.89	1562.60
701.08	1429.48
701.26	1546.22
701.45	1898.47
701.63	1511.40
701.81	1562.60
702.00	1503.21
702.18	1531.88
702.37	1486.83
702.55	1609.70
702.73	1662.95
702.92	1732.58
703.10	1759.21
703.28	1806.31
703.47	1751.01
703.65	1675.24
703.84	1738.73
704.02	1613.80
704.20	1783.78
704.39	1630.18
704.57	1578.98
704.75	1630.18
704.94	1730.53
705.12	1603.56
705.30	1665.00
705.49	1789.92
705.67	2789.33
705.86	7165.84
706.04	14264.10
706.22	18677.48
706.41	21528.25
706.59	22775.46
706.77	20885.19
706.96	14855.97
707.14	11620.17
707.32	9799.53
707.51	8640.38
707.69	7600.01
707.87	6780.82
708.06	5762.98
708.24	4868.02
708.42	3676.10
708.61	3012.56
708.79	2265.05
708.97	2023.39
709.16	1886.18
709.34	1685.48
709.52	1636.33
709.71	1603.56
709.89	1621.99
710.07	1566.70
710.26	1538.02
710.44	1587.18
710.62	1685.48
710.80	1542.12
710.99	1605.61
711.17	1605.61
711.35	1556.46
711.54	1484.78
711.72	1574.89
711.90	1538.02
712.09	1497.07
712.27	1454.06
712.45	1533.93
712.63	1589.22
712.82	1613.80
713.00	1486.83
713.18	1601.51
713.37	1599.46
713.55	1523.69
713.73	1538.02
713.91	1611.75
714.10	1519.59
714.28	1554.41
714.46	1556.46
714.65	1499.11
714.83	1560.55
715.01	1562.60
715.19	1456.11
715.38	1511.40
715.56	1605.61
715.74	1488.87
715.92	1535.98
716.11	1587.18
716.29	1437.67
716.47	1464.30
716.65	1558.50
716.84	1476.59
717.02	1607.66
717.20	1507.30
717.38	1517.54
717.57	1595.37
717.75	1499.11
717.93	1499.11
718.11	1519.59
718.30	1433.58
718.48	1554.41
718.66	1566.70
718.84	1556.46
719.03	1529.83
719.21	1566.70
719.39	1628.14
719.57	1538.02
719.75	1597.42
719.94	1515.50
720.12	1511.40
720.30	1482.73
720.48	1591.27
720.67	1527.78
720.85	1562.60
721.03	1556.46
721.21	1525.74
721.39	1576.94
721.58	1531.88
721.76	1540.07
721.94	1556.46
722.12	1529.83
722.30	1591.27
722.49	1476.59
722.67	1566.70
722.85	1574.89
723.03	1460.20
723.21	1492.97
723.40	1566.70
723.58	1587.18
723.76	1570.79
723.94	1650.66
724.12	1599.46
724.30	1609.70
724.49	1597.42
724.67	1544.17
724.85	1617.90
725.03	1535.98
725.21	1644.52
725.40	1667.05
725.58	1542.12
725.76	1605.61
725.94	1505.26
726.12	1480.68
726.30	1476.59
726.49	1574.89
726.67	1523.69
726.85	1605.61
727.03	1640.42
727.21	1679.33
727.39	2150.37
727.57	3231.69
727.76	4333.50
727.94	4816.82
728.12	5005.24
728.30	5107.63
728.48	4308.93
728.66	3631.05
728.84	3209.17
729.03	2899.92
729.21	2684.89
729.39	2342.88
729.57	2015.20
729.75	1927.14
729.93	1853.41
730.11	1601.51
730.30	1503.21
730.48	1624.04
730.66	1583.08
730.84	1542.12
731.02	1574.89
731.20	1576.94
731.38	1505.26
731.56	1503.21
731.74	1480.68
731.93	1595.37
732.11	1542.12
732.29	1517.54
732.47	1552.36
732.65	1529.83
732.83	1615.85
733.01	1568.74
733.19	1476.59
733.37	1538.02
733.56	1599.46
733.74	1564.65
733.92	1538.02
734.10	1525.74
734.28	1540.07
734.46	1466.35
734.64	1495.02
734.82	1562.60
735.00	1576.94
735.18	1513.45
735.36	1529.83
735.54	1562.60
735.73	1566.70
735.91	1574.89
736.09	1486.83
736.27	1509.35
736.45	1521.64
736.63	1464.30
736.81	1546.22
736.99	1568.74
737.17	1619.94
737.35	1517.54
737.53	1574.89
737.71	1482.73
737.89	1603.56
738.07	1517.54
738.25	1484.78
738.43	1495.02
738.61	1447.91
738.80	1554.41
738.98	1486.83
739.16	1495.02
739.34	1480.68
739.52	1595.37
739.70	1513.45
739.88	1603.56
740.06	1624.04
740.24	1445.87
740.42	1519.59
740.60	1470.44
740.78	1509.35
740.96	1456.11
741.14	1466.35
741.32	1626.09
741.50	1476.59
741.68	1669.09
741.86	1611.75
742.04	1554.41
742.22	1478.63
742.40	1611.75
742.58	1525.74
742.76	1560.55
742.94	1511.40
743.12	1462.25
743.30	1542.12
743.48	1556.46
743.66	1486.83
743.84	1585.13
744.02	1499.11
744.20	1476.59
744.38	1521.64
744.56	1470.44
744.74	1632.23
744.92	1521.64
745.10	1652.71
745.28	1560.55
745.46	1660.90
745.64	1525.74
745.82	1581.03
746.00	1480.68
746.18	1644.52
746.36	1454.06
746.54	1595.37
746.72	1552.36
746.90	1490.92
747.08	1589.22
747.26	1527.78
747.44	1538.02
747.62	1617.90
747.80	1507.30
747.98	1529.83
748.15	1538.02
748.33	1609.70
748.51	1527.78
748.69	1603.56
748.87	1533.93
749.05	1490.92
749.23	1587.18
749.41	1621.99
749.59	1535.98
749.77	1560.55
749.95	1486.83
750.13	1519.59
750.31	1587.18
750.49	1435.63
750.67	1554.41
750.85	1558.50
751.03	1437.67
751.20	1609.70
751.38	1402.86
751.56	1484.78
751.74	1550.31
751.92	1495.02
752.10	1458.15
752.28	1581.03
752.46	1525.74
752.64	1540.07
752.82	1509.35
753.00	1648.61
753.18	1507.30
753.35	1548.26
753.53	1550.31
753.71	1558.50
753.89	1609.70
754.07	1576.94
754.25	1638.38
754.43	1609.70
754.61	1517.54
754.79	1449.96
754.97	1540.07
755.14	1540.07
755.32	1466.35
755.50	1480.68
755.68	1492.97
755.86	1486.83
756.04	1474.54
756.22	1431.53
756.40	1576.94
756.57	1544.17
756.75	1501.16
756.93	1593.32
757.11	1550.31
757.29	1499.11
757.47	1546.22
757.65	1472.49
757.82	1509.35
758.00	1415.15
758.18	1529.83
758.36	1509.35
758.54	1636.33
758.72	1447.91
758.90	1583.08
759.07	1566.70
759.25	1495.02
759.43	1507.30
759.61	1474.54
759.79	1888.23
759.97	1578.98
760.15	1443.82
760.32	1507.30
760.50	1521.64
760.68	1558.50
760.86	1449.96
761.04	1572.84
761.22	1560.55
761.39	1529.83
761.57	1570.79
761.75	1466.35
761.93	1591.27
762.11	1540.07
762.28	1593.32
762.46	1472.49
762.64	1538.02
762.82	1456.11
763.00	1542.12
763.18	1585.13
763.35	1474.54
763.53	1521.64
763.71	1542.12
763.89	1535.98
764.07	1558.50
764.24	1509.35
764.42	1572.84
764.60	1501.16
764.78	1492.97
764.96	1613.80
765.13	1519.59
765.31	1517.54
765.49	1519.59
765.67	1456.11
765.84	1501.16
766.02	1484.78
766.20	1460.20
766.38	1564.65
766.56	1501.16
766.73	1587.18
766.91	1548.26
767.09	1583.08
767.27	1542.12
767.44	1484.78
767.62	1527.78
767.80	1560.55
767.98	1484.78
768.15	1576.94
768.33	1638.38
768.51	1646.57
768.69	1564.65
768.87	1591.27
769.04	1533.93
769.22	1574.89
769.40	1642.47
769.58	1597.42
769.75	1542.12
769.93	1574.89
770.11	1599.46
770.28	1583.08
770.46	1574.89
770.64	1648.61
770.82	1550.31
770.99	1443.82
771.17	1544.17
771.35	1466.35
771.53	1531.88
771.70	1581.03
771.88	1540.07
772.06	1482.73
772.23	1550.31
772.41	1648.61
772.59	1603.56
772.77	1490.92
772.94	1435.63
773.12	1468.39
773.30	1480.68
773.47	1533.93
773.65	1589.22
773.83	1599.46
774.01	1529.83
774.18	1417.19
774.36	1585.13
774.54	1486.83
774.71	1476.59
774.89	1452.01
775.07	1431.53
775.24	1583.08
775.42	1564.65
775.60	1578.98
775.78	1538.02
775.95	1513.45
776.13	1484.78
776.31	1456.11
776.48	1488.87
776.66	1529.83
776.84	1558.50
777.01	1523.69
777.19	1443.82
777.37	1566.70
777.54	1570.79
777.72	1656.81
777.90	1535.98
778.07	1503.21
778.25	1681.38
778.43	1574.89
778.60	1533.93
778.78	1533.93
778.96	1607.66
779.13	1423.34
779.31	1527.78
779.49	1544.17
779.66	1470.44
779.84	1445.87
780.01	1552.36
780.19	1482.73
780.37	1581.03
780.54	1593.32
780.72	1568.74
780.90	1503.21
781.07	1548.26
781.25	1583.08
781.43	1556.46
781.60	1492.97
781.78	1578.98
781.95	1576.94
782.13	1484.78
782.31	1535.98
782.48	1470.44
782.66	1601.51
782.83	1533.93
783.01	1554.41
783.19	1501.16
783.36	1540.07
783.54	1523.69
783.72	1644.52
783.89	1523.69
784.07	1490.92
784.24	1542.12
784.42	1634.28
784.60	1550.31
784.77	1570.79
784.95	1472.49
785.12	1497.07
785.30	1560.55
785.47	1472.49
785.65	1558.50
785.83	1529.83
786.00	1486.83
786.18	1624.04
786.35	1519.59
786.53	1525.74
786.71	1665.00
786.88	1570.79
787.06	1576.94
787.23	1583.08
787.41	1490.92
787.58	1527.78
787.76	1466.35
787.94	1486.83
788.11	1558.50
788.29	1525.74
788.46	1511.40
788.64	1466.35
788.81	1509.35
788.99	1468.39
789.16	1486.83
789.34	1542.12
789.52	1533.93
789.69	1550.31
789.87	1484.78
790.04	1499.11
790.22	1492.97
790.39	1611.75
790.57	1492.97
790.74	1513.45
790.92	1572.84
791.09	1406.95
791.27	1472.49
791.44	1558.50
791.62	1564.65
791.79	1613.80
791.97	1497.07
792.15	1597.42
792.32	1560.55
792.50	1601.51
792.67	1644.52
792.85	1574.89
793.02	1501.16
793.20	1544.17
793.37	1462.25
793.55	1548.26
793.72	1527.78
793.90	1560.55
794.07	1562.60
794.25	1523.69
794.42	1533.93
794.60	1478.63
794.77	1535.98
794.95	1468.39
795.12	1572.84
795.30	1578.98
795.47	1439.72
795.65	1691.62
795.82	1527.78
796.00	1476.59
796.17	1513.45
796.34	1544.17
796.52	1531.88
796.69	1564.65
796.87	1626.09
797.04	1538.02
797.22	1621.99
797.39	1552.36
797.57	1615.85
797.74	1472.49
797.92	1585.13
798.09	1556.46
798.27	1501.16
798.44	1472.49
798.62	1486.83
798.79	1533.93
798.96	1533.93
799.14	1470.44
799.31	1581.03
799.49	1542.12
799.66	1492.97
799.84	1523.69
800.01	1497.07
800.19	1525.74
800.36	1484.78
800.53	1519.59
800.71	1447.91
800.88	1667.05
801.06	1531.88
801.23	1585.13
801.41	1497.07
801.58	1533.93
801.75	1478.63
801.93	1554.41
802.10	1593.32
802.28	1501.16
802.45	1525.74
802.63	1525.74
802.80	1619.94
802.97	1527.78
803.15	1533.93
803.32	1554.41
803.50	1509.35
803.67	1439.72
803.84	1406.95
804.02	1511.40
804.19	1501.16
804.37	1464.30
804.54	1519.59
804.71	1558.50
804.89	1497.07
805.06	1531.88
805.24	1501.16
805.41	1460.20
805.58	1538.02
805.76	1636.33
805.93	1562.60
806.10	1617.90
806.28	1542.12
806.45	1562.60
806.63	1566.70
806.80	1542.12
806.97	1527.78
807.15	1486.83
807.32	1535.98
807.49	1548.26
807.67	1533.93
807.84	1552.36
808.01	1482.73
808.19	1591.27
808.36	1640.42
808.54	1570.79
808.71	1490.92
808.88	1556.46
809.06	1591.27
809.23	1615.85
809.40	1511.40
809.58	1572.84
809.75	1581.03
809.92	1462.25
810.10	1624.04
810.27	1581.03
810.44	1462.25
810.62	1619.94
810.79	1480.68
810.96	1515.50
811.14	1425.39
811.31	1591.27
811.48	1556.46
811.66	1472.49
811.83	1554.41
812.00	1589.22
812.18	1542.12
812.35	1583.08
812.52	1492.97
812.69	1609.70
812.87	1515.50
813.04	1445.87
813.21	1456.11
813.39	1470.44
813.56	1464.30
813.73	1626.09
813.91	1458.15
814.08	1552.36
814.25	1515.50
814.42	1488.87
814.60	1542.12
814.77	1476.59
814.94	1581.03
815.12	1558.50
815.29	1568.74
815.46	1495.02
815.63	1540.07
815.81	1507.30
815.98	1548.26
816.15	1554.41
816.33	1456.11
816.50	1576.94
816.67	1525.74
816.84	1550.31
817.02	1402.86
817.19	1478.63
817.36	1544.17
817.53	1542.12
817.71	1503.21
817.88	1523.69
818.05	1529.83
818.22	1511.40
818.40	1591.27
818.57	1531.88
818.74	1511.40
818.91	1566.70
819.09	1572.84
819.26	1601.51
819.43	1544.17
819.60	1495.02
819.78	1482.73
819.95	1654.76
820.12	1411.05
820.29	1538.02
820.47	1621.99
820.64	1470.44
820.81	1462.25
820.98	1495.02
821.15	1435.63
821.33	1509.35
821.50	1533.93
821.67	1589.22
821.84	1519.59
822.02	1591.27
822.19	1556.46
822.36	1480.68
822.53	1554.41
822.70	1425.39
822.88	1529.83
823.05	1572.84
823.22	1560.55
823.39	1591.27
823.56	1490.92
823.74	1609.70
823.91	1556.46
824.08	1527.78
824.25	1419.24
824.42	1607.66
824.60	1572.84
824.77	1574.89
824.94	1542.12
825.11	1560.55
825.28	1423.34
825.45	1488.87
825.63	1578.98
825.80	1535.98
825.97	1507.30
826.14	1486.83
826.31	1476.59
826.48	1499.11
826.66	1535.98
826.83	1525.74
827.00	1607.66
827.17	1503.21
827.34	1552.36
827.51	1484.78
827.69	1531.88
827.86	1462.25
828.03	1556.46
828.20	1470.44
828.37	1531.88
828.54	1505.26
828.71	1474.54
828.89	1609.70
829.06	1531.88
829.23	1656.81
829.40	1533.93
829.57	1445.87
829.74	1566.70
829.91	1503.21
830.09	1476.59
830.26	1503.21
830.43	1546.22
830.60	1531.88
830.77	1607.66
830.94	1564.65
831.11	1574.89
831.28	1505.26
831.46	1564.65
831.63	1449.96
831.80	1619.94
831.97	1609.70
832.14	1503.21
832.31	1562.60
832.48	1552.36
832.65	1585.13
832.82	1529.83
832.99	1519.59
833.17	1501.16
833.34	1570.79
833.51	1544.17
833.68	1431.53
833.85	1492.97
834.02	1548.26
834.19	1560.55
834.36	1505.26
834.53	1495.02
834.70	1564.65
834.87	1529.83
835.04	1581.03
835.22	1486.83
835.39	1517.54
835.56	1578.98
835.73	1486.83
835.90	1497.07
836.07	1501.16
836.24	1542.12
836.41	1533.93
836.58	1540.07
836.75	1574.89
836.92	1566.70
837.09	1550.31
837.26	1554.41
837.43	1564.65
837.60	1544.17
837.77	1501.16
837.94	1558.50
838.12	1535.98
838.29	1562.60
838.46	1497.07
838.63	1519.59
838.80	1605.61
838.97	1556.46
839.14	1542.12
839.31	1507.30
839.48	1542.12
839.65	1560.55
839.82	1570.79
839.99	1495.02
840.16	1550.31
840.33	1531.88
840.50	1566.70
840.67	1556.46
840.84	1472.49
841.01	1560.55
841.18	1435.63
841.35	1581.03
841.52	1519.59
841.69	1601.51
841.86	1587.18
842.03	1542.12
842.20	1556.46
842.37	1540.07
842.54	1521.64
842.71	1548.26
842.88	1447.91
843.05	1558.50
843.22	1449.96
843.39	1568.74
843.56	1482.73
843.73	1449.96
843.90	1533.93
844.07	1538.02
844.24	1593.32
844.41	1583.08
844.58	1488.87
844.75	1492.97
844.92	1548.26
845.09	1566.70
845.26	1550.31
845.43	1587.18
845.60	1519.59
845.77	1562.60
845.94	1583.08
846.10	1521.64
846.27	1464.30
846.44	1466.35
846.61	1499.11
846.78	1554.41
846.95	1581.03
847.12	1478.63
847.29	1581.03
847.46	1511.40
847.63	1562.60
847.80	1484.78
847.97	1560.55
848.14	1583.08
848.31	1527.78
848.48	1484.78
848.65	1568.74
848.82	1456.11
848.98	1667.05
849.15	1556.46
849.32	1626.09
849.49	1611.75
849.66	1525.74
849.83	1533.93
850.00	1533.93
850.17	1583.08
850.34	1542.12
850.51	1515.50
850.68	1447.91
850.85	1558.50
851.01	1558.50
851.18	1535.98
851.35	1507.30
851.52	1628.14
851.69	1583.08
851.86	1462.25
852.03	1447.91
852.20	1550.31
852.37	1538.02
852.53	1464.30
852.70	1544.17
852.87	1540.07
853.04	1527.78
853.21	1456.11
853.38	1562.60
853.55	1601.51
853.72	1546.22
853.89	1476.59
854.05	1439.72
854.22	1568.74
854.39	1566.70
854.56	1568.74
854.73	1593.32
854.90	1484.78
855.07	1460.20
855.23	1574.89
855.40	1558.50
855.57	1501.16
855.74	1480.68
855.91	1658.85
856.08	1542.12
856.25	1472.49
856.41	1511.40
856.58	1517.54
856.75	1548.26
856.92	1394.67
857.09	1601.51
857.26	1486.83
857.42	1533.93
857.59	1509.35
857.76	1492.97
857.93	1562.60
858.10	1484.78
858.27	1505.26
858.43	1581.03
858.60	1521.64
858.77	1525.74
858.94	1538.02
859.11	1634.28
859.27	1544.17
859.44	1533.93
859.61	1632.23
859.78	1482.73
859.95	1531.88
860.12	1458.15
860.28	1640.42
860.45	1568.74
860.62	1533.93
860.79	1562.60
860.95	1505.26
861.12	1525.74
861.29	1544.17
861.46	1501.16
861.63	1570.79
861.79	1542.12
861.96	1558.50
862.13	1519.59
862.30	1583.08
862.47	1521.64
862.63	1449.96
862.80	1544.17
862.97	1546.22
863.14	1581.03
863.30	1578.98
863.47	1478.63
863.64	1617.90
863.81	1568.74
863.97	1488.87
864.14	1464.30
864.31	1517.54
864.48	1507.30
864.65	1476.59
864.81	1560.55
864.98	1593.32
865.15	1540.07
865.32	1562.60
865.48	1578.98
865.65	1611.75
865.82	1460.20
865.98	1558.50
866.15	1576.94
866.32	1517.54
866.49	1525.74
866.65	1564.65
866.82	1478.63
866.99	1595.37
867.16	1540.07
867.32	1488.87
867.49	1583.08
867.66	1486.83
867.83	1509.35
867.99	1511.40
868.16	1558.50
868.33	1478.63
868.49	1495.02
868.66	1572.84
868.83	1576.94
868.99	1556.46
869.16	1548.26
869.33	1585.13
869.50	1574.89
869.66	1523.69
869.83	1474.54
870.00	1521.64
870.16	1585.13
870.33	1529.83
870.50	1572.84
870.66	1603.56
870.83	1626.09
871.00	1550.31
871.17	1468.39
871.33	1554.41
871.50	1435.63
871.67	1644.52
871.83	1431.53
872.00	1599.46
872.17	1517.54
872.33	1587.18
872.50	1593.32
872.67	1511.40
872.83	1517.54
873.00	1525.74
873.17	1531.88
873.33	1558.50
873.50	1601.51
873.67	1497.07
873.83	1464.30
874.00	1513.45
874.16	1544.17
874.33	1478.63
874.50	1480.68
874.66	1523.69
874.83	1550.31
875.00	1488.87
875.16	1595.37
875.33	1628.14
875.50	1490.92
875.66	1542.12
875.83	1527.78
875.99	1607.66
876.16	1542.12
876.33	1462.25
876.49	1472.49
876.66	1511.40
876.83	1574.89
876.99	1464.30
877.16	1472.49
877.32	1527.78
877.49	1521.64
877.66	1535.98
877.82	1646.57
877.99	1503.21
878.15	1531.88
878.32	1626.09
878.49	1564.65
878.65	1492.97
878.82	1558.50
878.98	1513.45
879.15	1576.94
879.32	1558.50
879.48	1585.13
879.65	1556.46
879.81	1472.49
879.98	1517.54
880.15	1452.01
880.31	1552.36
880.48	1525.74
880.64	1601.51
880.81	1523.69
880.97	1656.81
881.14	1609.70
881.31	1515.50
881.47	1636.33
881.64	1505.26
881.80	1527.78
881.97	1533.93
882.13	1638.38
882.30	1431.53
882.47	1515.50
882.63	1458.15
882.80	1535.98
882.96	1519.59
883.13	1599.46
883.29	1529.83
883.46	1568.74
883.62	1574.89
883.79	1519.59
883.95	1632.23
884.12	1527.78
884.29	1560.55
884.45	1544.17
884.62	1624.04
884.78	1538.02
884.95	1642.47
885.11	1566.70
885.28	1486.83
885.44	1505.26
885.61	1603.56
885.77	1562.60
885.94	1523.69
886.10	1441.77
886.27	1521.64
886.43	1540.07
886.60	1540.07
886.76	1546.22
886.93	1546.22
887.09	1568.74
887.26	1476.59
887.42	1538.02
887.59	1562.60
887.75	1605.61
887.92	1605.61
888.08	1572.84
888.25	1546.22
888.41	1554.41
888.58	1564.65
888.74	1443.82
888.91	1482.73
>>>>>End Processed Spectral Data<<<<<
