SpectraSuite Data File
++++++++++++++++++++++++++++++++++++
Date: Tue May 03 12:55:21 CEST 2016
User: root
Dark Spectrum Present: No
Reference Spectrum Present: No
Number of Sampled Component Spectra: 1
Spectrometers: USB4C02835
Integration Time (usec): 100000 (USB4C02835)
Spectra Averaged: 1 (USB4C02835)
Boxcar Smoothing: 0 (USB4C02835)
Correct for Electrical Dark: No (USB4C02835)
Strobe/Lamp Enabled: No (USB4C02835)
Correct for Detector Non-linearity: No (USB4C02835)
Correct for Stray Light: No (USB4C02835)
Number of Pixels in Processed Spectrum: 3648
>>>>>Begin Processed Spectral Data<<<<<
177.47	1271.79
177.69	1271.79
177.91	1271.79
178.13	1345.52
178.36	1370.09
178.58	1492.97
178.80	1488.87
179.02	1492.97
179.24	1605.61
179.46	1507.30
179.68	1679.33
179.90	1576.94
180.13	1538.02
180.35	1441.77
180.57	1531.88
180.79	1533.93
181.01	1519.59
181.23	1632.23
181.45	1544.17
181.67	1595.37
181.90	1484.78
182.12	1523.69
182.34	1472.49
182.56	1552.36
182.78	1642.47
183.00	1591.27
183.22	1464.30
183.44	1454.06
183.66	1630.18
183.89	1562.60
184.11	1558.50
184.33	1552.36
184.55	1548.26
184.77	1630.18
184.99	1533.93
185.21	1513.45
185.43	1658.85
185.65	1443.82
185.87	1605.61
186.10	1665.00
186.32	1675.24
186.54	1527.78
186.76	1578.98
186.98	1544.17
187.20	1556.46
187.42	1472.49
187.64	1535.98
187.86	1488.87
188.08	1646.57
188.30	1503.21
188.52	1533.93
188.75	1576.94
188.97	1632.23
189.19	1474.54
189.41	1527.78
189.63	1576.94
189.85	1533.93
190.07	1458.15
190.29	1503.21
190.51	1529.83
190.73	1527.78
190.95	1609.70
191.17	1564.65
191.39	1478.63
191.61	1490.92
191.84	1538.02
192.06	1552.36
192.28	1456.11
192.50	1638.38
192.72	1540.07
192.94	1525.74
193.16	1603.56
193.38	1593.32
193.60	1527.78
193.82	1527.78
194.04	1572.84
194.26	1601.51
194.48	1548.26
194.70	1507.30
194.92	1531.88
195.14	1527.78
195.36	1507.30
195.58	1560.55
195.80	1488.87
196.02	1486.83
196.24	1492.97
196.46	1550.31
196.69	1548.26
196.91	1683.43
197.13	1468.39
197.35	1488.87
197.57	1570.79
197.79	1490.92
198.01	1490.92
198.23	1527.78
198.45	1624.04
198.67	1468.39
198.89	1554.41
199.11	1492.97
199.33	1488.87
199.55	1517.54
199.77	1527.78
199.99	1535.98
200.21	1597.42
200.43	1542.12
200.65	1486.83
200.87	1488.87
201.09	1439.72
201.31	1529.83
201.53	1609.70
201.75	1591.27
201.97	1585.13
202.19	1609.70
202.41	1513.45
202.63	1605.61
202.85	1525.74
203.07	1538.02
203.29	1593.32
203.51	1492.97
203.73	1497.07
203.95	1732.58
204.17	1587.18
204.39	1566.70
204.61	1503.21
204.83	1535.98
205.05	1597.42
205.27	1552.36
205.49	1697.77
205.71	1527.78
205.93	1470.44
206.15	1492.97
206.37	1531.88
206.59	1482.73
206.81	1613.80
207.03	1509.35
207.25	1495.02
207.47	1564.65
207.69	1574.89
207.91	1538.02
208.13	1574.89
208.34	1564.65
208.56	1445.87
208.78	1470.44
209.00	1513.45
209.22	1474.54
209.44	1513.45
209.66	1560.55
209.88	1527.78
210.10	1511.40
210.32	1519.59
210.54	1523.69
210.76	1525.74
210.98	1589.22
211.20	1423.34
211.42	1492.97
211.64	1585.13
211.86	1642.47
212.08	1572.84
212.30	1462.25
212.52	1452.01
212.74	1521.64
212.96	1544.17
213.17	1531.88
213.39	1601.51
213.61	1587.18
213.83	1576.94
214.05	1476.59
214.27	1527.78
214.49	1429.48
214.71	1476.59
214.93	1585.13
215.15	1535.98
215.37	1554.41
215.59	1470.44
215.81	1538.02
216.03	1591.27
216.24	1558.50
216.46	1509.35
216.68	1533.93
216.90	1646.57
217.12	1609.70
217.34	1535.98
217.56	1542.12
217.78	1599.46
218.00	1503.21
218.22	1466.35
218.44	1460.20
218.66	1517.54
218.87	1599.46
219.09	1542.12
219.31	1593.32
219.53	1533.93
219.75	1517.54
219.97	1525.74
220.19	1550.31
220.41	1558.50
220.63	1546.22
220.85	1593.32
221.06	1558.50
221.28	1603.56
221.50	1587.18
221.72	1515.50
221.94	1613.80
222.16	1540.07
222.38	1583.08
222.60	1570.79
222.82	1474.54
223.03	1570.79
223.25	1474.54
223.47	1552.36
223.69	1687.53
223.91	1556.46
224.13	1521.64
224.35	1548.26
224.57	1519.59
224.78	1576.94
225.00	1505.26
225.22	1540.07
225.44	1544.17
225.66	1480.68
225.88	1523.69
226.10	1638.38
226.32	1599.46
226.53	1636.33
226.75	1452.01
226.97	1560.55
227.19	1488.87
227.41	1529.83
227.63	1447.91
227.85	1523.69
228.06	1523.69
228.28	1503.21
228.50	1593.32
228.72	1527.78
228.94	1540.07
229.16	1488.87
229.37	1484.78
229.59	1480.68
229.81	1632.23
230.03	1505.26
230.25	1488.87
230.47	1517.54
230.69	1538.02
230.90	1540.07
231.12	1437.67
231.34	1562.60
231.56	1591.27
231.78	1554.41
232.00	1581.03
232.21	1492.97
232.43	1515.50
232.65	1486.83
232.87	1527.78
233.09	1593.32
233.30	1544.17
233.52	1529.83
233.74	1591.27
233.96	1538.02
234.18	1523.69
234.40	1525.74
234.61	1593.32
234.83	1564.65
235.05	1460.20
235.27	1601.51
235.49	1656.81
235.70	1538.02
235.92	1679.33
236.14	1558.50
236.36	1581.03
236.58	1400.81
236.79	1546.22
237.01	1665.00
237.23	1466.35
237.45	1689.57
237.67	1566.70
237.88	1538.02
238.10	1673.19
238.32	1546.22
238.54	1488.87
238.76	1509.35
238.97	1509.35
239.19	1525.74
239.41	1574.89
239.63	1628.14
239.85	1456.11
240.06	1558.50
240.28	1486.83
240.50	1542.12
240.72	1556.46
240.93	1513.45
241.15	1599.46
241.37	1558.50
241.59	1630.18
241.81	1476.59
242.02	1503.21
242.24	1548.26
242.46	1544.17
242.68	1482.73
242.89	1632.23
243.11	1535.98
243.33	1501.16
243.55	1640.42
243.76	1540.07
243.98	1505.26
244.20	1630.18
244.42	1609.70
244.64	1533.93
244.85	1501.16
245.07	1468.39
245.29	1564.65
245.51	1552.36
245.72	1535.98
245.94	1589.22
246.16	1486.83
246.38	1552.36
246.59	1486.83
246.81	1470.44
247.03	1576.94
247.24	1456.11
247.46	1505.26
247.68	1497.07
247.90	1544.17
248.11	1548.26
248.33	1456.11
248.55	1480.68
248.77	1468.39
248.98	1578.98
249.20	1601.51
249.42	1538.02
249.64	1593.32
249.85	1583.08
250.07	1552.36
250.29	1560.55
250.50	1578.98
250.72	1525.74
250.94	1447.91
251.16	1624.04
251.37	1542.12
251.59	1558.50
251.81	1634.28
252.02	1632.23
252.24	1587.18
252.46	1634.28
252.68	1495.02
252.89	1550.31
253.11	1447.91
253.33	1654.76
253.54	1589.22
253.76	1523.69
253.98	1503.21
254.20	1525.74
254.41	1433.58
254.63	1490.92
254.85	1535.98
255.06	1533.93
255.28	1554.41
255.50	1562.60
255.71	1488.87
255.93	1544.17
256.15	1509.35
256.36	1583.08
256.58	1558.50
256.80	1527.78
257.02	1464.30
257.23	1558.50
257.45	1603.56
257.67	1574.89
257.88	1533.93
258.10	1554.41
258.32	1529.83
258.53	1535.98
258.75	1570.79
258.97	1486.83
259.18	1521.64
259.40	1542.12
259.62	1628.14
259.83	1556.46
260.05	1607.66
260.27	1748.97
260.48	1503.21
260.70	1482.73
260.92	1511.40
261.13	1568.74
261.35	1511.40
261.57	1529.83
261.78	1449.96
262.00	1533.93
262.22	1570.79
262.43	1564.65
262.65	1495.02
262.86	1521.64
263.08	1535.98
263.30	1591.27
263.51	1478.63
263.73	1503.21
263.95	1578.98
264.16	1452.01
264.38	1570.79
264.60	1515.50
264.81	1519.59
265.03	1566.70
265.25	1552.36
265.46	1462.25
265.68	1447.91
265.89	1511.40
266.11	1499.11
266.33	1515.50
266.54	1595.37
266.76	1507.30
266.98	1574.89
267.19	1599.46
267.41	1578.98
267.62	1523.69
267.84	1501.16
268.06	1546.22
268.27	1478.63
268.49	1550.31
268.70	1595.37
268.92	1570.79
269.14	1445.87
269.35	1470.44
269.57	1587.18
269.79	1544.17
270.00	1472.49
270.22	1585.13
270.43	1474.54
270.65	1394.67
270.87	1497.07
271.08	1578.98
271.30	1529.83
271.51	1517.54
271.73	1511.40
271.95	1486.83
272.16	1595.37
272.38	1560.55
272.59	1474.54
272.81	1535.98
273.02	1585.13
273.24	1550.31
273.46	1585.13
273.67	1533.93
273.89	1501.16
274.10	1478.63
274.32	1556.46
274.54	1515.50
274.75	1525.74
274.97	1501.16
275.18	1548.26
275.40	1617.90
275.61	1533.93
275.83	1527.78
276.05	1609.70
276.26	1521.64
276.48	1603.56
276.69	1550.31
276.91	1599.46
277.12	1656.81
277.34	1605.61
277.55	1589.22
277.77	1531.88
277.99	1501.16
278.20	1447.91
278.42	1478.63
278.63	1527.78
278.85	1558.50
279.06	1497.07
279.28	1576.94
279.49	1497.07
279.71	1642.47
279.93	1501.16
280.14	1593.32
280.36	1533.93
280.57	1570.79
280.79	1548.26
281.00	1505.26
281.22	1466.35
281.43	1619.94
281.65	1468.39
281.86	1484.78
282.08	1519.59
282.29	1652.71
282.51	1503.21
282.73	1497.07
282.94	1394.67
283.16	1542.12
283.37	1677.29
283.59	1646.57
283.80	1564.65
284.02	1593.32
284.23	1542.12
284.45	1513.45
284.66	1482.73
284.88	1470.44
285.09	1581.03
285.31	1615.85
285.52	1585.13
285.74	1486.83
285.95	1581.03
286.17	1484.78
286.38	1523.69
286.60	1478.63
286.81	1474.54
287.03	1544.17
287.24	1535.98
287.46	1476.59
287.67	1521.64
287.89	1617.90
288.10	1568.74
288.32	1587.18
288.53	1630.18
288.75	1531.88
288.96	1531.88
289.18	1472.49
289.39	1507.30
289.61	1648.61
289.82	1621.99
290.04	1656.81
290.25	1550.31
290.47	1548.26
290.68	1517.54
290.90	1630.18
291.11	1472.49
291.33	1533.93
291.54	1478.63
291.76	1490.92
291.97	1517.54
292.18	1587.18
292.40	1445.87
292.61	1517.54
292.83	1542.12
293.04	1574.89
293.26	1568.74
293.47	1519.59
293.69	1503.21
293.90	1492.97
294.12	1583.08
294.33	1550.31
294.55	1656.81
294.76	1511.40
294.97	1529.83
295.19	1650.66
295.40	1562.60
295.62	1564.65
295.83	1576.94
296.05	1419.24
296.26	1562.60
296.48	1540.07
296.69	1542.12
296.90	1468.39
297.12	1574.89
297.33	1632.23
297.55	1548.26
297.76	1542.12
297.98	1556.46
298.19	1538.02
298.41	1568.74
298.62	1486.83
298.83	1609.70
299.05	1529.83
299.26	1531.88
299.48	1531.88
299.69	1562.60
299.90	1607.66
300.12	1464.30
300.33	1589.22
300.55	1599.46
300.76	1593.32
300.98	1482.73
301.19	1595.37
301.40	1548.26
301.62	1501.16
301.83	1529.83
302.05	1581.03
302.26	1509.35
302.47	1523.69
302.69	1431.53
302.90	1560.55
303.12	1544.17
303.33	1591.27
303.54	1521.64
303.76	1529.83
303.97	1572.84
304.19	1599.46
304.40	1519.59
304.61	1587.18
304.83	1656.81
305.04	1511.40
305.26	1576.94
305.47	1468.39
305.68	1538.02
305.90	1398.76
306.11	1564.65
306.33	1511.40
306.54	1388.52
306.75	1517.54
306.97	1533.93
307.18	1529.83
307.39	1492.97
307.61	1591.27
307.82	1499.11
308.04	1538.02
308.25	1511.40
308.46	1513.45
308.68	1533.93
308.89	1540.07
309.10	1548.26
309.32	1609.70
309.53	1544.17
309.74	1556.46
309.96	1544.17
310.17	1587.18
310.39	1507.30
310.60	1544.17
310.81	1533.93
311.03	1484.78
311.24	1554.41
311.45	1535.98
311.67	1617.90
311.88	1509.35
312.09	1540.07
312.31	1636.33
312.52	1525.74
312.73	1548.26
312.95	1447.91
313.16	1517.54
313.37	1665.00
313.59	1560.55
313.80	1585.13
314.01	1669.09
314.23	1548.26
314.44	1521.64
314.65	1443.82
314.87	1523.69
315.08	1517.54
315.29	1476.59
315.51	1542.12
315.72	1437.67
315.93	1662.95
316.15	1660.90
316.36	1501.16
316.57	1527.78
316.79	1607.66
317.00	1509.35
317.21	1540.07
317.43	1423.34
317.64	1488.87
317.85	1492.97
318.07	1503.21
318.28	1595.37
318.49	1753.06
318.70	1808.36
318.92	1671.14
319.13	1636.33
319.34	1673.19
319.56	1619.94
319.77	1636.33
319.98	1632.23
320.20	1578.98
320.41	1626.09
320.62	1591.27
320.83	1533.93
321.05	1626.09
321.26	1591.27
321.47	1585.13
321.69	1607.66
321.90	1517.54
322.11	1538.02
322.32	1523.69
322.54	1564.65
322.75	1591.27
322.96	1654.76
323.18	1439.72
323.39	1501.16
323.60	1476.59
323.81	1546.22
324.03	1476.59
324.24	1503.21
324.45	1576.94
324.66	1515.50
324.88	1595.37
325.09	1669.09
325.30	1603.56
325.52	1564.65
325.73	1603.56
325.94	1464.30
326.15	1390.57
326.37	1466.35
326.58	1626.09
326.79	1589.22
327.00	1523.69
327.22	1501.16
327.43	1470.44
327.64	1484.78
327.85	1533.93
328.07	1572.84
328.28	1544.17
328.49	1521.64
328.70	1550.31
328.92	1585.13
329.13	1548.26
329.34	1589.22
329.55	1636.33
329.76	1599.46
329.98	1517.54
330.19	1589.22
330.40	1495.02
330.61	1585.13
330.83	1624.04
331.04	1499.11
331.25	1546.22
331.46	1462.25
331.68	1456.11
331.89	1497.07
332.10	1558.50
332.31	1486.83
332.52	1507.30
332.74	1603.56
332.95	1478.63
333.16	1470.44
333.37	1552.36
333.58	1511.40
333.80	1550.31
334.01	1488.87
334.22	1523.69
334.43	1525.74
334.64	1525.74
334.86	1505.26
335.07	1468.39
335.28	1488.87
335.49	1515.50
335.70	1574.89
335.92	1589.22
336.13	1630.18
336.34	1519.59
336.55	1566.70
336.76	1572.84
336.98	1445.87
337.19	1501.16
337.40	1607.66
337.61	1648.61
337.82	1533.93
338.04	1533.93
338.25	1544.17
338.46	1519.59
338.67	1560.55
338.88	1492.97
339.09	1509.35
339.31	1488.87
339.52	1533.93
339.73	1492.97
339.94	1581.03
340.15	1632.23
340.36	1396.71
340.58	1548.26
340.79	1443.82
341.00	1513.45
341.21	1372.14
341.42	1554.41
341.63	1554.41
341.85	1558.50
342.06	1548.26
342.27	1478.63
342.48	1613.80
342.69	1427.43
342.90	1470.44
343.12	1568.74
343.33	1517.54
343.54	1611.75
343.75	1640.42
343.96	1503.21
344.17	1429.48
344.38	1413.10
344.60	1449.96
344.81	1533.93
345.02	1511.40
345.23	1538.02
345.44	1632.23
345.65	1544.17
345.86	1511.40
346.07	1490.92
346.29	1470.44
346.50	1556.46
346.71	1583.08
346.92	1585.13
347.13	1716.20
347.34	1560.55
347.55	1533.93
347.76	1597.42
347.98	1501.16
348.19	1554.41
348.40	1589.22
348.61	1503.21
348.82	1546.22
349.03	1632.23
349.24	1538.02
349.45	1574.89
349.66	1443.82
349.88	1583.08
350.09	1478.63
350.30	1621.99
350.51	1654.76
350.72	1525.74
350.93	1574.89
351.14	1523.69
351.35	1560.55
351.56	1538.02
351.77	1503.21
351.99	1517.54
352.20	1714.15
352.41	1587.18
352.62	1486.83
352.83	1517.54
353.04	1519.59
353.25	1488.87
353.46	1525.74
353.67	1665.00
353.88	1431.53
354.09	1542.12
354.30	1628.14
354.52	1624.04
354.73	1566.70
354.94	1486.83
355.15	1497.07
355.36	1566.70
355.57	1525.74
355.78	1562.60
355.99	1454.06
356.20	1558.50
356.41	1585.13
356.62	1566.70
356.83	1527.78
357.04	1587.18
357.25	1447.91
357.46	1445.87
357.68	1456.11
357.89	1497.07
358.10	1556.46
358.31	1470.44
358.52	1490.92
358.73	1484.78
358.94	1521.64
359.15	1470.44
359.36	1560.55
359.57	1595.37
359.78	1521.64
359.99	1554.41
360.20	1468.39
360.41	1552.36
360.62	1529.83
360.83	1605.61
361.04	1574.89
361.25	1570.79
361.46	1619.94
361.67	1556.46
361.88	1511.40
362.09	1581.03
362.30	1581.03
362.51	1492.97
362.72	1468.39
362.93	1603.56
363.14	1601.51
363.35	1634.28
363.56	1456.11
363.78	1492.97
363.99	1591.27
364.20	1511.40
364.41	1556.46
364.62	1544.17
364.83	1581.03
365.04	1443.82
365.25	1468.39
365.46	1585.13
365.67	1495.02
365.88	1497.07
366.09	1486.83
366.30	1574.89
366.51	1511.40
366.72	1470.44
366.93	1531.88
367.14	1478.63
367.35	1544.17
367.56	1521.64
367.77	1617.90
367.98	1499.11
368.18	1552.36
368.39	1511.40
368.60	1533.93
368.81	1546.22
369.02	1554.41
369.23	1484.78
369.44	1429.48
369.65	1507.30
369.86	1566.70
370.07	1550.31
370.28	1484.78
370.49	1538.02
370.70	1556.46
370.91	1499.11
371.12	1538.02
371.33	1576.94
371.54	1474.54
371.75	1578.98
371.96	1472.49
372.17	1540.07
372.38	1546.22
372.59	1562.60
372.80	1468.39
373.01	1542.12
373.22	1538.02
373.43	1515.50
373.64	1619.94
373.85	1550.31
374.06	1609.70
374.26	1554.41
374.47	1521.64
374.68	1652.71
374.89	1544.17
375.10	1497.07
375.31	1531.88
375.52	1576.94
375.73	1492.97
375.94	1478.63
376.15	1593.32
376.36	1492.97
376.57	1552.36
376.78	1523.69
376.99	1591.27
377.20	1693.67
377.40	1464.30
377.61	1589.22
377.82	1566.70
378.03	1589.22
378.24	1626.09
378.45	1503.21
378.66	1538.02
378.87	1409.00
379.08	1411.05
379.29	1552.36
379.50	1593.32
379.71	1542.12
379.91	1583.08
380.12	1507.30
380.33	1523.69
380.54	1544.17
380.75	1591.27
380.96	1546.22
381.17	1589.22
381.38	1548.26
381.59	1654.76
381.80	1603.56
382.00	1660.90
382.21	1595.37
382.42	1730.53
382.63	1685.48
382.84	1699.81
383.05	1597.42
383.26	1689.57
383.47	1509.35
383.68	1591.27
383.88	1615.85
384.09	1560.55
384.30	1685.48
384.51	1527.78
384.72	1560.55
384.93	1525.74
385.14	1617.90
385.35	1558.50
385.55	1449.96
385.76	1574.89
385.97	1540.07
386.18	1587.18
386.39	1542.12
386.60	1574.89
386.81	1574.89
387.02	1505.26
387.22	1480.68
387.43	1581.03
387.64	1665.00
387.85	1855.46
388.06	3229.65
388.27	7229.33
388.48	10360.67
388.68	12654.40
388.89	13858.60
389.10	12805.95
389.31	10162.02
389.52	8894.33
389.73	7892.87
389.93	7235.47
390.14	6793.11
390.35	6178.72
390.56	5615.53
390.77	4673.46
390.98	3612.62
391.18	2799.57
391.39	2162.66
391.60	1779.68
391.81	1669.09
392.02	1617.90
392.23	1693.67
392.43	1581.03
392.64	1636.33
392.85	1476.59
393.06	1624.04
393.27	1562.60
393.47	1511.40
393.68	1601.51
393.89	1523.69
394.10	1638.38
394.31	1505.26
394.52	1538.02
394.72	1507.30
394.93	1619.94
395.14	1464.30
395.35	1529.83
395.56	1474.54
395.76	1658.85
395.97	1646.57
396.18	1738.73
396.39	1703.91
396.60	1869.80
396.80	1734.63
397.01	1660.90
397.22	1675.24
397.43	1720.29
397.64	1564.65
397.84	1632.23
398.05	1744.87
398.26	1644.52
398.47	1574.89
398.67	1599.46
398.88	1550.31
399.09	1638.38
399.30	1488.87
399.51	1564.65
399.71	1454.06
399.92	1525.74
400.13	1572.84
400.34	1607.66
400.54	1476.59
400.75	1568.74
400.96	1521.64
401.17	1607.66
401.37	1599.46
401.58	1605.61
401.79	1648.61
402.00	1834.98
402.21	1992.67
402.41	1890.28
402.62	1951.71
402.83	1920.99
403.04	1830.88
403.24	1890.28
403.45	1703.91
403.66	1753.06
403.87	1722.34
404.07	1689.57
404.28	1812.45
404.49	1734.63
404.70	1708.01
404.90	1675.24
405.11	1597.42
405.32	1632.23
405.52	1492.97
405.73	1546.22
405.94	1550.31
406.15	1531.88
406.35	1601.51
406.56	1521.64
406.77	1632.23
406.98	1599.46
407.18	1513.45
407.39	1566.70
407.60	1552.36
407.80	1560.55
408.01	1535.98
408.22	1597.42
408.43	1540.07
408.63	1619.94
408.84	1515.50
409.05	1591.27
409.25	1533.93
409.46	1585.13
409.67	1548.26
409.88	1507.30
410.08	1613.80
410.29	1513.45
410.50	1621.99
410.70	1540.07
410.91	1513.45
411.12	1564.65
411.32	1517.54
411.53	1583.08
411.74	1703.91
411.95	1626.09
412.15	1648.61
412.36	1583.08
412.57	1601.51
412.77	1658.85
412.98	1499.11
413.19	1523.69
413.39	1570.79
413.60	1626.09
413.81	1578.98
414.01	1544.17
414.22	1550.31
414.43	1601.51
414.63	1480.68
414.84	1578.98
415.05	1630.18
415.25	1574.89
415.46	1542.12
415.67	1552.36
415.87	1556.46
416.08	1562.60
416.29	1574.89
416.49	1646.57
416.70	1525.74
416.91	1503.21
417.11	1497.07
417.32	1558.50
417.53	1572.84
417.73	1589.22
417.94	1621.99
418.15	1478.63
418.35	1519.59
418.56	1529.83
418.77	1683.43
418.97	1593.32
419.18	1562.60
419.38	1427.43
419.59	1472.49
419.80	1632.23
420.00	1503.21
420.21	1556.46
420.42	1507.30
420.62	1613.80
420.83	1505.26
421.04	1517.54
421.24	1607.66
421.45	1497.07
421.65	1603.56
421.86	1558.50
422.07	1525.74
422.27	1568.74
422.48	1544.17
422.69	1523.69
422.89	1544.17
423.10	1495.02
423.30	1490.92
423.51	1548.26
423.72	1531.88
423.92	1566.70
424.13	1499.11
424.33	1497.07
424.54	1613.80
424.75	1566.70
424.95	1650.66
425.16	1548.26
425.36	1478.63
425.57	1607.66
425.78	1562.60
425.98	1546.22
426.19	1538.02
426.39	1533.93
426.60	1564.65
426.81	1646.57
427.01	1581.03
427.22	1560.55
427.42	1490.92
427.63	1474.54
427.83	1564.65
428.04	1548.26
428.25	1662.95
428.45	1542.12
428.66	1566.70
428.86	1560.55
429.07	1591.27
429.28	1517.54
429.48	1501.16
429.69	1542.12
429.89	1505.26
430.10	1478.63
430.30	1505.26
430.51	1605.61
430.71	1501.16
430.92	1535.98
431.13	1513.45
431.33	1552.36
431.54	1593.32
431.74	1589.22
431.95	1644.52
432.15	1474.54
432.36	1513.45
432.56	1560.55
432.77	1628.14
432.98	1621.99
433.18	1570.79
433.39	1503.21
433.59	1558.50
433.80	1665.00
434.00	1570.79
434.21	1472.49
434.41	1558.50
434.62	1597.42
434.82	1484.78
435.03	1505.26
435.23	1552.36
435.44	1476.59
435.64	1572.84
435.85	1544.17
436.06	1583.08
436.26	1611.75
436.47	1552.36
436.67	1562.60
436.88	1546.22
437.08	1587.18
437.29	1611.75
437.49	1544.17
437.70	1570.79
437.90	1570.79
438.11	1613.80
438.31	1626.09
438.52	1726.44
438.72	1689.57
438.93	1736.68
439.13	1697.77
439.34	1634.28
439.54	1681.38
439.75	1699.81
439.95	1595.37
440.16	1599.46
440.36	1665.00
440.57	1607.66
440.77	1564.65
440.98	1519.59
441.18	1548.26
441.39	1470.44
441.59	1468.39
441.80	1599.46
442.00	1527.78
442.21	1564.65
442.41	1499.11
442.62	1656.81
442.82	1495.02
443.02	1630.18
443.23	1595.37
443.43	1507.30
443.64	1632.23
443.84	1583.08
444.05	1546.22
444.25	1540.07
444.46	1515.50
444.66	1572.84
444.87	1654.76
445.07	1390.57
445.28	1583.08
445.48	1673.19
445.69	1552.36
445.89	1607.66
446.09	1564.65
446.30	2080.74
446.50	3133.39
446.71	4511.68
446.91	5328.81
447.12	5859.24
447.32	5689.26
447.53	4732.86
447.73	4036.55
447.93	3559.37
448.14	3389.39
448.34	3174.35
448.55	2949.08
448.75	2832.34
448.96	2813.91
449.16	2430.94
449.36	2174.94
449.57	2039.78
449.77	1779.68
449.98	1654.76
450.18	1644.52
450.39	1624.04
450.59	1568.74
450.79	1535.98
451.00	1525.74
451.20	1632.23
451.41	1552.36
451.61	1587.18
451.81	1509.35
452.02	1515.50
452.22	1609.70
452.43	1533.93
452.63	1507.30
452.84	1546.22
453.04	1533.93
453.24	1490.92
453.45	1527.78
453.65	1574.89
453.86	1560.55
454.06	1603.56
454.26	1566.70
454.47	1515.50
454.67	1615.85
454.87	1597.42
455.08	1505.26
455.28	1669.09
455.49	1550.31
455.69	1515.50
455.89	1570.79
456.10	1581.03
456.30	1521.64
456.51	1490.92
456.71	1562.60
456.91	1558.50
457.12	1587.18
457.32	1566.70
457.52	1519.59
457.73	1519.59
457.93	1554.41
458.14	1540.07
458.34	1511.40
458.54	1542.12
458.75	1542.12
458.95	1515.50
459.15	1644.52
459.36	1531.88
459.56	1548.26
459.76	1558.50
459.97	1523.69
460.17	1560.55
460.37	1630.18
460.58	1550.31
460.78	1603.56
460.99	1529.83
461.19	1570.79
461.39	1593.32
461.60	1495.02
461.80	1544.17
462.00	1413.10
462.21	1595.37
462.41	1490.92
462.61	1501.16
462.82	1490.92
463.02	1617.90
463.22	1503.21
463.43	1660.90
463.63	1556.46
463.83	1548.26
464.04	1529.83
464.24	1531.88
464.44	1550.31
464.64	1527.78
464.85	1583.08
465.05	1568.74
465.25	1564.65
465.46	1552.36
465.66	1517.54
465.86	1552.36
466.07	1572.84
466.27	1503.21
466.47	1531.88
466.68	1449.96
466.88	1652.71
467.08	1615.85
467.29	1560.55
467.49	1605.61
467.69	1517.54
467.89	1507.30
468.10	1497.07
468.30	1607.66
468.50	1585.13
468.71	1662.95
468.91	1497.07
469.11	1572.84
469.31	1591.27
469.52	1562.60
469.72	1658.85
469.92	1619.94
470.13	1558.50
470.33	1587.18
470.53	1794.02
470.73	2052.06
470.94	2297.82
471.14	2496.47
471.34	2547.67
471.54	2439.13
471.75	2256.86
471.95	2054.11
472.15	1959.91
472.36	1953.76
472.56	1867.75
472.76	1828.84
472.96	1941.47
473.17	1820.64
473.37	1751.01
473.57	1621.99
473.77	1714.15
473.98	1601.51
474.18	1574.89
474.38	1636.33
474.58	1578.98
474.79	1548.26
474.99	1515.50
475.19	1640.42
475.39	1492.97
475.60	1531.88
475.80	1503.21
476.00	1454.06
476.20	1527.78
476.41	1535.98
476.61	1640.42
476.81	1644.52
477.01	1497.07
477.21	1619.94
477.42	1640.42
477.62	1482.73
477.82	1636.33
478.02	1456.11
478.23	1531.88
478.43	1576.94
478.63	1558.50
478.83	1492.97
479.03	1525.74
479.24	1546.22
479.44	1673.19
479.64	1454.06
479.84	1468.39
480.04	1513.45
480.25	1558.50
480.45	1542.12
480.65	1552.36
480.85	1656.81
481.06	1581.03
481.26	1640.42
481.46	1519.59
481.66	1599.46
481.86	1544.17
482.06	1624.04
482.27	1497.07
482.47	1503.21
482.67	1548.26
482.87	1540.07
483.07	1550.31
483.28	1474.54
483.48	1486.83
483.68	1521.64
483.88	1578.98
484.08	1509.35
484.29	1509.35
484.49	1581.03
484.69	1490.92
484.89	1611.75
485.09	1593.32
485.29	1583.08
485.50	1591.27
485.70	1523.69
485.90	1560.55
486.10	1517.54
486.30	1550.31
486.50	1578.98
486.71	1505.26
486.91	1603.56
487.11	1652.71
487.31	1396.71
487.51	1619.94
487.71	1478.63
487.91	1476.59
488.12	1531.88
488.32	1474.54
488.52	1490.92
488.72	1478.63
488.92	1578.98
489.12	1566.70
489.32	1458.15
489.53	1587.18
489.73	1411.05
489.93	1669.09
490.13	1478.63
490.33	1517.54
490.53	1513.45
490.73	1585.13
490.94	1511.40
491.14	1624.04
491.34	1726.44
491.54	2179.04
491.74	2729.94
491.94	3012.56
492.14	3309.52
492.34	3172.30
492.54	2832.34
492.75	2492.38
492.95	2314.20
493.15	2158.56
493.35	2148.32
493.55	2093.02
493.75	2007.01
493.95	2115.55
494.15	1961.95
494.35	1828.84
494.56	1728.49
494.76	1656.81
494.96	1665.00
495.16	1587.18
495.36	1587.18
495.56	1560.55
495.76	1564.65
495.96	1566.70
496.16	1523.69
496.36	1677.29
496.56	1566.70
496.77	1583.08
496.97	1550.31
497.17	1603.56
497.37	1431.53
497.57	1540.07
497.77	1523.69
497.97	1501.16
498.17	1554.41
498.37	1468.39
498.57	1538.02
498.77	1566.70
498.97	1597.42
499.17	1656.81
499.38	1513.45
499.58	1558.50
499.78	1558.50
499.98	1591.27
500.18	1593.32
500.38	1556.46
500.58	1742.82
500.78	2621.40
500.98	5210.03
501.18	6688.67
501.38	8069.00
501.58	8734.59
501.78	7962.50
501.98	6158.24
502.18	5220.27
502.38	4642.75
502.58	4257.73
502.78	3913.67
502.98	3821.51
503.18	3590.09
503.38	3387.34
503.59	3065.81
503.79	2805.72
503.99	2508.76
504.19	2340.83
504.39	2154.46
504.59	2093.02
504.79	1951.71
504.99	1955.81
505.19	1826.79
505.39	1806.31
505.59	1820.64
505.79	1787.88
505.99	1665.00
506.19	1675.24
506.39	1693.67
506.59	1595.37
506.79	1576.94
506.99	1626.09
507.19	1597.42
507.39	1593.32
507.59	1540.07
507.79	1449.96
507.99	1558.50
508.19	1558.50
508.39	1538.02
508.59	1540.07
508.79	1615.85
508.99	1605.61
509.19	1488.87
509.39	1609.70
509.59	1558.50
509.79	1476.59
509.99	1568.74
510.19	1535.98
510.39	1640.42
510.59	1535.98
510.79	1468.39
510.99	1415.15
511.19	1574.89
511.39	1601.51
511.59	1656.81
511.79	1603.56
511.99	1562.60
512.19	1632.23
512.38	1548.26
512.58	1583.08
512.78	1617.90
512.98	1566.70
513.18	1640.42
513.38	1546.22
513.58	1527.78
513.78	1564.65
513.98	1525.74
514.18	1495.02
514.38	1521.64
514.58	1595.37
514.78	1492.97
514.98	1456.11
515.18	1464.30
515.38	1458.15
515.58	1570.79
515.78	1486.83
515.98	1609.70
516.18	1562.60
516.38	1507.30
516.57	1548.26
516.77	1523.69
516.97	1558.50
517.17	1480.68
517.37	1488.87
517.57	1544.17
517.77	1484.78
517.97	1482.73
518.17	1566.70
518.37	1529.83
518.57	1546.22
518.77	1529.83
518.97	1499.11
519.16	1615.85
519.36	1617.90
519.56	1613.80
519.76	1538.02
519.96	1609.70
520.16	1497.07
520.36	1476.59
520.56	1585.13
520.76	1505.26
520.96	1464.30
521.16	1603.56
521.35	1619.94
521.55	1640.42
521.75	1558.50
521.95	1515.50
522.15	1542.12
522.35	1411.05
522.55	1515.50
522.75	1540.07
522.95	1572.84
523.14	1568.74
523.34	1503.21
523.54	1523.69
523.74	1556.46
523.94	1558.50
524.14	1560.55
524.34	1566.70
524.54	1593.32
524.73	1501.16
524.93	1583.08
525.13	1517.54
525.33	1435.63
525.53	1679.33
525.73	1587.18
525.93	1560.55
526.13	1566.70
526.32	1480.68
526.52	1548.26
526.72	1470.44
526.92	1521.64
527.12	1533.93
527.32	1515.50
527.52	1589.22
527.71	1599.46
527.91	1521.64
528.11	1484.78
528.31	1495.02
528.51	1495.02
528.71	1578.98
528.90	1578.98
529.10	1546.22
529.30	1601.51
529.50	1404.91
529.70	1540.07
529.90	1576.94
530.09	1560.55
530.29	1517.54
530.49	1505.26
530.69	1574.89
530.89	1402.86
531.09	1581.03
531.28	1554.41
531.48	1574.89
531.68	1538.02
531.88	1529.83
532.08	1634.28
532.28	1552.36
532.47	1638.38
532.67	1560.55
532.87	1632.23
533.07	1511.40
533.27	1531.88
533.46	1558.50
533.66	1595.37
533.86	1576.94
534.06	1507.30
534.26	1564.65
534.45	1568.74
534.65	1578.98
534.85	1574.89
535.05	1495.02
535.25	1576.94
535.44	1509.35
535.64	1599.46
535.84	1482.73
536.04	1533.93
536.24	1423.34
536.43	1486.83
536.63	1527.78
536.83	1472.49
537.03	1568.74
537.22	1433.58
537.42	1497.07
537.62	1533.93
537.82	1492.97
538.02	1550.31
538.21	1578.98
538.41	1642.47
538.61	1611.75
538.81	1480.68
539.00	1601.51
539.20	1425.39
539.40	1544.17
539.60	1546.22
539.79	1529.83
539.99	1578.98
540.19	1554.41
540.39	1458.15
540.58	1507.30
540.78	1720.29
540.98	1542.12
541.18	1591.27
541.37	1574.89
541.57	1492.97
541.77	1513.45
541.97	1486.83
542.16	1484.78
542.36	1499.11
542.56	1605.61
542.76	1660.90
542.95	1615.85
543.15	1558.50
543.35	1617.90
543.54	1413.10
543.74	1525.74
543.94	1640.42
544.14	1513.45
544.33	1574.89
544.53	1601.51
544.73	1495.02
544.93	1466.35
545.12	1552.36
545.32	1583.08
545.52	1566.70
545.71	1482.73
545.91	1505.26
546.11	1587.18
546.30	1538.02
546.50	1626.09
546.70	1540.07
546.90	1566.70
547.09	1447.91
547.29	1542.12
547.49	1480.68
547.68	1515.50
547.88	1513.45
548.08	1525.74
548.27	1976.29
548.47	1503.21
548.67	1525.74
548.87	1593.32
549.06	1544.17
549.26	1544.17
549.46	1583.08
549.65	1460.20
549.85	1497.07
550.05	1566.70
550.24	1458.15
550.44	1531.88
550.64	1566.70
550.83	1517.54
551.03	1605.61
551.23	1638.38
551.42	1564.65
551.62	1576.94
551.82	1550.31
552.01	1564.65
552.21	1626.09
552.41	1499.11
552.60	1591.27
552.80	1560.55
553.00	1574.89
553.19	1517.54
553.39	1632.23
553.59	1531.88
553.78	1574.89
553.98	1589.22
554.17	1462.25
554.37	1535.98
554.57	1542.12
554.76	1525.74
554.96	1497.07
555.16	1562.60
555.35	1546.22
555.55	1533.93
555.75	1542.12
555.94	1568.74
556.14	1486.83
556.33	1540.07
556.53	1599.46
556.73	1574.89
556.92	1538.02
557.12	1638.38
557.32	1605.61
557.51	1540.07
557.71	1591.27
557.90	1576.94
558.10	1626.09
558.30	1533.93
558.49	1441.77
558.69	1558.50
558.88	1552.36
559.08	1599.46
559.28	1488.87
559.47	1533.93
559.67	1531.88
559.86	1640.42
560.06	1687.53
560.26	1562.60
560.45	1552.36
560.65	1589.22
560.84	1644.52
561.04	1544.17
561.24	1538.02
561.43	1535.98
561.63	1605.61
561.82	1531.88
562.02	1556.46
562.22	1566.70
562.41	1562.60
562.61	1476.59
562.80	1552.36
563.00	1665.00
563.19	1519.59
563.39	1568.74
563.59	1507.30
563.78	1521.64
563.98	1535.98
564.17	1495.02
564.37	1439.72
564.56	1521.64
564.76	1492.97
564.96	1556.46
565.15	1538.02
565.35	1673.19
565.54	1538.02
565.74	1603.56
565.93	1517.54
566.13	1548.26
566.32	1525.74
566.52	1505.26
566.71	1525.74
566.91	1574.89
567.11	1566.70
567.30	1538.02
567.50	1652.71
567.69	1544.17
567.89	1554.41
568.08	1519.59
568.28	1568.74
568.47	1503.21
568.67	1556.46
568.86	1507.30
569.06	1566.70
569.25	1578.98
569.45	1521.64
569.64	1495.02
569.84	1554.41
570.04	1568.74
570.23	1540.07
570.43	1527.78
570.62	1601.51
570.82	1562.60
571.01	1523.69
571.21	1552.36
571.40	1503.21
571.60	1599.46
571.79	1552.36
571.99	1492.97
572.18	1572.84
572.38	1556.46
572.57	1609.70
572.77	1595.37
572.96	1654.76
573.16	1585.13
573.35	1574.89
573.55	1626.09
573.74	1552.36
573.94	1521.64
574.13	1552.36
574.33	1601.51
574.52	1597.42
574.71	1527.78
574.91	1585.13
575.10	1531.88
575.30	1484.78
575.49	1560.55
575.69	1533.93
575.88	1570.79
576.08	1544.17
576.27	1566.70
576.47	1646.57
576.66	1693.67
576.86	1617.90
577.05	1581.03
577.25	1581.03
577.44	1644.52
577.64	1523.69
577.83	1583.08
578.02	1521.64
578.22	1619.94
578.41	1560.55
578.61	1492.97
578.80	1501.16
579.00	1574.89
579.19	1601.51
579.39	1587.18
579.58	1648.61
579.77	1550.31
579.97	1644.52
580.16	1632.23
580.36	1630.18
580.55	1646.57
580.75	1550.31
580.94	1574.89
581.13	1660.90
581.33	1597.42
581.52	1615.85
581.72	1658.85
581.91	1671.14
582.11	1611.75
582.30	1607.66
582.49	1566.70
582.69	1728.49
582.88	1660.90
583.08	1613.80
583.27	1632.23
583.47	1619.94
583.66	1556.46
583.85	1466.35
584.05	1599.46
584.24	1669.09
584.44	1632.23
584.63	1720.29
584.82	1718.25
585.02	1738.73
585.21	1734.63
585.41	1687.53
585.60	1667.05
585.79	1761.25
585.99	1771.49
586.18	1863.65
586.37	2070.50
586.57	3164.11
586.76	9531.25
586.96	27735.64
587.15	43976.03
587.34	54199.49
587.54	61287.51
587.73	59589.75
587.93	43656.55
588.12	32136.73
588.31	25886.32
588.51	22140.59
588.70	19773.14
588.89	18292.46
589.09	16936.70
589.28	15148.82
589.47	13203.25
589.67	11284.31
589.86	9035.64
590.06	6698.91
590.25	5207.98
590.44	3862.47
590.64	2953.17
590.83	2387.93
591.02	2093.02
591.22	1912.80
591.41	1755.11
591.60	1617.90
591.80	1722.34
591.99	1568.74
592.18	1640.42
592.38	1601.51
592.57	1589.22
592.76	1685.48
592.96	1499.11
593.15	1554.41
593.34	1658.85
593.54	1544.17
593.73	1595.37
593.92	1662.95
594.12	1648.61
594.31	1685.48
594.50	1712.10
594.70	1585.13
594.89	1632.23
595.08	1574.89
595.28	1597.42
595.47	1724.39
595.66	1634.28
595.86	1540.07
596.05	1689.57
596.24	1585.13
596.43	1685.48
596.63	1603.56
596.82	1615.85
597.01	1619.94
597.21	1648.61
597.40	1669.09
597.59	1599.46
597.79	1546.22
597.98	1650.66
598.17	1578.98
598.36	1581.03
598.56	1613.80
598.75	1546.22
598.94	1558.50
599.14	1552.36
599.33	1497.07
599.52	1599.46
599.71	1517.54
599.91	1613.80
600.10	1576.94
600.29	1615.85
600.48	1628.14
600.68	1605.61
600.87	1515.50
601.06	1572.84
601.26	1464.30
601.45	1634.28
601.64	1511.40
601.83	1650.66
602.03	1517.54
602.22	1511.40
602.41	1599.46
602.60	1759.21
602.80	1585.13
602.99	1544.17
603.18	1609.70
603.37	1597.42
603.57	1542.12
603.76	1566.70
603.95	1597.42
604.14	1509.35
604.34	1544.17
604.53	1544.17
604.72	1519.59
604.91	1525.74
605.10	1619.94
605.30	1452.01
605.49	1650.66
605.68	1605.61
605.87	1619.94
606.07	1564.65
606.26	1529.83
606.45	1652.71
606.64	1589.22
606.84	1576.94
607.03	1560.55
607.22	1699.81
607.41	1589.22
607.60	1609.70
607.80	1630.18
607.99	1533.93
608.18	1492.97
608.37	1619.94
608.56	1515.50
608.76	1624.04
608.95	1712.10
609.14	1591.27
609.33	1662.95
609.52	1660.90
609.72	1617.90
609.91	1640.42
610.10	1593.32
610.29	1667.05
610.48	1535.98
610.68	1548.26
610.87	1585.13
611.06	1603.56
611.25	1550.31
611.44	1591.27
611.63	1554.41
611.83	1628.14
612.02	1535.98
612.21	1677.29
612.40	1495.02
612.59	1470.44
612.79	1513.45
612.98	1529.83
613.17	1656.81
613.36	1527.78
613.55	1665.00
613.74	1613.80
613.93	1669.09
614.13	1757.16
614.32	1814.50
614.51	1775.59
614.70	1638.38
614.89	1597.42
615.08	1640.42
615.28	1834.98
615.47	1578.98
615.66	1585.13
615.85	1628.14
616.04	1722.34
616.23	1644.52
616.42	1566.70
616.62	1662.95
616.81	1583.08
617.00	1603.56
617.19	1572.84
617.38	1544.17
617.57	1585.13
617.76	1525.74
617.95	1599.46
618.15	1583.08
618.34	1654.76
618.53	1513.45
618.72	1556.46
618.91	1613.80
619.10	1665.00
619.29	1535.98
619.48	1554.41
619.68	1550.31
619.87	1593.32
620.06	1482.73
620.25	1583.08
620.44	1484.78
620.63	1509.35
620.82	1585.13
621.01	1574.89
621.20	1570.79
621.39	1640.42
621.59	1644.52
621.78	1538.02
621.97	1576.94
622.16	1574.89
622.35	1566.70
622.54	1576.94
622.73	1570.79
622.92	1478.63
623.11	1548.26
623.30	1515.50
623.49	1507.30
623.68	1519.59
623.88	1564.65
624.07	1574.89
624.26	1585.13
624.45	1558.50
624.64	1574.89
624.83	1603.56
625.02	1409.00
625.21	1533.93
625.40	1607.66
625.59	1558.50
625.78	1552.36
625.97	1587.18
626.16	1611.75
626.35	1683.43
626.54	1591.27
626.74	1767.40
626.93	1564.65
627.12	1552.36
627.31	1617.90
627.50	1546.22
627.69	1613.80
627.88	1478.63
628.07	1533.93
628.26	1511.40
628.45	1548.26
628.64	1544.17
628.83	1632.23
629.02	1517.54
629.21	1552.36
629.40	1525.74
629.59	1525.74
629.78	1566.70
629.97	1542.12
630.16	1626.09
630.35	1644.52
630.54	1601.51
630.73	1497.07
630.92	1527.78
631.11	1603.56
631.30	1603.56
631.49	1542.12
631.68	1601.51
631.87	1513.45
632.06	1445.87
632.25	1652.71
632.44	1540.07
632.63	1529.83
632.82	1495.02
633.01	1495.02
633.20	1601.51
633.39	1634.28
633.58	1595.37
633.77	1552.36
633.96	1624.04
634.15	1527.78
634.34	1576.94
634.53	1566.70
634.72	1417.19
634.91	1515.50
635.10	1572.84
635.29	1654.76
635.48	1546.22
635.67	1527.78
635.86	1552.36
636.05	1564.65
636.24	1501.16
636.43	1521.64
636.62	1538.02
636.81	1409.00
637.00	1517.54
637.19	1632.23
637.38	1554.41
637.57	1519.59
637.76	1640.42
637.95	1669.09
638.14	1558.50
638.33	1634.28
638.52	1669.09
638.71	1640.42
638.89	1587.18
639.08	1757.16
639.27	1587.18
639.46	1665.00
639.65	2025.44
639.84	1994.72
640.03	2179.04
640.22	2172.89
640.41	2222.05
640.60	1945.57
640.79	1929.19
640.98	1808.36
641.17	1771.49
641.36	1695.72
641.55	1679.33
641.74	1624.04
641.92	1630.18
642.11	1603.56
642.30	1599.46
642.49	1523.69
642.68	1673.19
642.87	1544.17
643.06	1632.23
643.25	1513.45
643.44	1599.46
643.63	1605.61
643.82	1632.23
644.00	1544.17
644.19	1535.98
644.38	1621.99
644.57	1597.42
644.76	1509.35
644.95	1529.83
645.14	1535.98
645.33	1505.26
645.52	1535.98
645.71	1587.18
645.89	1484.78
646.08	1486.83
646.27	1513.45
646.46	1603.56
646.65	1406.95
646.84	1546.22
647.03	1484.78
647.22	1601.51
647.40	1550.31
647.59	1509.35
647.78	1542.12
647.97	1550.31
648.16	1517.54
648.35	1660.90
648.54	1601.51
648.73	1482.73
648.91	1613.80
649.10	1581.03
649.29	1468.39
649.48	1542.12
649.67	1581.03
649.86	1562.60
650.05	1535.98
650.23	1736.68
650.42	1599.46
650.61	1714.15
650.80	1777.64
650.99	1806.31
651.18	1685.48
651.36	1632.23
651.55	1615.85
651.74	1619.94
651.93	1542.12
652.12	1517.54
652.31	1501.16
652.49	1480.68
652.68	1591.27
652.87	1654.76
653.06	1615.85
653.25	1640.42
653.44	1564.65
653.62	1617.90
653.81	1630.18
654.00	1583.08
654.19	1632.23
654.38	1681.38
654.56	1572.84
654.75	1511.40
654.94	1599.46
655.13	1546.22
655.32	1548.26
655.51	1554.41
655.69	1533.93
655.88	1523.69
656.07	1486.83
656.26	1642.47
656.45	1501.16
656.63	1515.50
656.82	1576.94
657.01	1669.09
657.20	1544.17
657.38	1521.64
657.57	1501.16
657.76	1519.59
657.95	1638.38
658.14	1492.97
658.32	1564.65
658.51	1458.15
658.70	1603.56
658.89	1523.69
659.08	1558.50
659.26	1632.23
659.45	1499.11
659.64	1599.46
659.83	1542.12
660.01	1658.85
660.20	1538.02
660.39	1638.38
660.58	1492.97
660.76	1591.27
660.95	1544.17
661.14	1595.37
661.33	1490.92
661.51	1576.94
661.70	1464.30
661.89	1656.81
662.08	1523.69
662.26	1486.83
662.45	1470.44
662.64	1687.53
662.83	1611.75
663.01	1484.78
663.20	1593.32
663.39	1601.51
663.58	1566.70
663.76	1566.70
663.95	1603.56
664.14	1454.06
664.32	1552.36
664.51	1429.48
664.70	1492.97
664.89	1581.03
665.07	1509.35
665.26	1621.99
665.45	1443.82
665.64	1605.61
665.82	1548.26
666.01	1599.46
666.20	1511.40
666.38	1681.38
666.57	1626.09
666.76	1861.60
666.95	2932.69
667.13	7442.32
667.32	15746.83
667.51	20274.89
667.69	23613.08
667.88	25540.22
668.07	22324.91
668.25	15605.52
668.44	12425.03
668.63	10053.48
668.81	8744.83
669.00	7624.59
669.19	7159.70
669.38	6301.60
669.56	5603.24
669.75	4845.49
669.94	4184.00
670.12	3377.10
670.31	2820.05
670.50	2369.50
670.68	2193.37
670.87	1839.08
671.06	1763.30
671.24	1761.25
671.43	1683.43
671.62	1652.71
671.80	1699.81
671.99	1656.81
672.18	1525.74
672.36	1619.94
672.55	1529.83
672.74	1554.41
672.92	1572.84
673.11	1574.89
673.29	1501.16
673.48	1615.85
673.67	1585.13
673.85	1581.03
674.04	1503.21
674.23	1529.83
674.41	1619.94
674.60	1490.92
674.79	1558.50
674.97	1570.79
675.16	1523.69
675.34	1525.74
675.53	1556.46
675.72	1589.22
675.90	1585.13
676.09	1503.21
676.28	1581.03
676.46	1544.17
676.65	1630.18
676.83	1472.49
677.02	1521.64
677.21	1576.94
677.39	1601.51
677.58	1466.35
677.77	1523.69
677.95	1544.17
678.14	1529.83
678.32	1552.36
678.51	1507.30
678.70	1593.32
678.88	1480.68
679.07	1529.83
679.25	1515.50
679.44	1550.31
679.63	1519.59
679.81	1558.50
680.00	1605.61
680.18	1544.17
680.37	1619.94
680.55	1533.93
680.74	1480.68
680.93	1531.88
681.11	1525.74
681.30	1525.74
681.48	1619.94
681.67	1515.50
681.85	1505.26
682.04	1548.26
682.23	1523.69
682.41	1531.88
682.60	1439.72
682.78	1509.35
682.97	1454.06
683.15	1568.74
683.34	1509.35
683.53	1564.65
683.71	1474.54
683.90	1603.56
684.08	1644.52
684.27	1441.77
684.45	1556.46
684.64	1621.99
684.82	1499.11
685.01	1568.74
685.19	1513.45
685.38	1695.72
685.57	1490.92
685.75	1538.02
685.94	1499.11
686.12	1449.96
686.31	1509.35
686.49	1621.99
686.68	1474.54
686.86	1564.65
687.05	1513.45
687.23	1603.56
687.42	1513.45
687.60	1470.44
687.79	1587.18
687.97	1599.46
688.16	1626.09
688.34	1574.89
688.53	1423.34
688.71	1495.02
688.90	1638.38
689.08	1519.59
689.27	1464.30
689.45	1656.81
689.64	1466.35
689.82	1531.88
690.01	1578.98
690.19	1583.08
690.38	1509.35
690.56	1615.85
690.75	1552.36
690.93	1443.82
691.12	1511.40
691.30	1544.17
691.49	1621.99
691.67	1546.22
691.86	1615.85
692.04	1597.42
692.23	1505.26
692.41	1548.26
692.60	1718.25
692.78	1695.72
692.97	1587.18
693.15	1646.57
693.34	1687.53
693.52	1581.03
693.71	1552.36
693.89	1634.28
694.08	1466.35
694.26	1642.47
694.44	1572.84
694.63	1624.04
694.81	1585.13
695.00	1509.35
695.18	1640.42
695.37	1667.05
695.55	1550.31
695.74	1550.31
695.92	1468.39
696.10	1605.61
696.29	1474.54
696.47	1562.60
696.66	1464.30
696.84	1529.83
697.03	1566.70
697.21	1675.24
697.40	2033.63
697.58	1591.27
697.76	1566.70
697.95	1492.97
698.13	1495.02
698.32	1503.21
698.50	1519.59
698.68	1538.02
698.87	1517.54
699.05	1646.57
699.24	1513.45
699.42	1581.03
699.61	1562.60
699.79	1513.45
699.97	1544.17
700.16	1535.98
700.34	1564.65
700.53	1527.78
700.71	1548.26
700.89	1576.94
701.08	1609.70
701.26	1521.64
701.45	1830.88
701.63	1603.56
701.81	1535.98
702.00	1535.98
702.18	1605.61
702.37	1587.18
702.55	1652.71
702.73	1665.00
702.92	1718.25
703.10	1853.41
703.28	1783.78
703.47	1708.01
703.65	1675.24
703.84	1740.77
704.02	1628.14
704.20	1712.10
704.39	1550.31
704.57	1621.99
704.75	1621.99
704.94	1583.08
705.12	1609.70
705.30	1576.94
705.49	1814.50
705.67	2787.29
705.86	7327.63
706.04	14538.53
706.22	18577.12
706.41	21683.89
706.59	23041.70
706.77	20883.14
706.96	14694.18
707.14	11620.17
707.32	9686.89
707.51	8589.18
707.69	7573.39
707.87	6557.60
708.06	5748.65
708.24	4804.53
708.42	3704.78
708.61	2998.23
708.79	2400.22
708.97	1925.09
709.16	1843.17
709.34	1716.20
709.52	1642.47
709.71	1611.75
709.89	1638.38
710.07	1505.26
710.26	1474.54
710.44	1593.32
710.62	1683.43
710.80	1476.59
710.99	1644.52
711.17	1558.50
711.35	1478.63
711.54	1560.55
711.72	1624.04
711.90	1488.87
712.09	1558.50
712.27	1560.55
712.45	1632.23
712.63	1595.37
712.82	1449.96
713.00	1583.08
713.18	1538.02
713.37	1617.90
713.55	1552.36
713.73	1540.07
713.91	1644.52
714.10	1554.41
714.28	1560.55
714.46	1615.85
714.65	1662.95
714.83	1585.13
715.01	1583.08
715.19	1478.63
715.38	1599.46
715.56	1619.94
715.74	1464.30
715.92	1460.20
716.11	1624.04
716.29	1523.69
716.47	1525.74
716.65	1599.46
716.84	1552.36
717.02	1591.27
717.20	1554.41
717.38	1533.93
717.57	1591.27
717.75	1523.69
717.93	1501.16
718.11	1544.17
718.30	1497.07
718.48	1621.99
718.66	1599.46
718.84	1566.70
719.03	1490.92
719.21	1484.78
719.39	1658.85
719.57	1652.71
719.75	1644.52
719.94	1507.30
720.12	1492.97
720.30	1583.08
720.48	1558.50
720.67	1507.30
720.85	1466.35
721.03	1583.08
721.21	1462.25
721.39	1515.50
721.58	1624.04
721.76	1492.97
721.94	1574.89
722.12	1507.30
722.30	1615.85
722.49	1511.40
722.67	1583.08
722.85	1492.97
723.03	1443.82
723.21	1576.94
723.40	1568.74
723.58	1531.88
723.76	1585.13
723.94	1601.51
724.12	1540.07
724.30	1679.33
724.49	1650.66
724.67	1589.22
724.85	1640.42
725.03	1517.54
725.21	1667.05
725.40	1617.90
725.58	1535.98
725.76	1609.70
725.94	1548.26
726.12	1501.16
726.30	1572.84
726.49	1546.22
726.67	1591.27
726.85	1505.26
727.03	1642.47
727.21	1769.44
727.39	2152.42
727.57	3315.66
727.76	4325.31
727.94	4853.69
728.12	5121.97
728.30	5138.35
728.48	4321.21
728.66	3405.77
728.84	3213.26
729.03	2830.29
729.21	2652.12
729.39	2332.64
729.57	2078.69
729.75	1855.46
729.93	1769.44
730.11	1681.38
730.30	1638.38
730.48	1634.28
730.66	1630.18
730.84	1650.66
731.02	1583.08
731.20	1589.22
731.38	1515.50
731.56	1492.97
731.74	1507.30
731.93	1603.56
732.11	1562.60
732.29	1511.40
732.47	1624.04
732.65	1568.74
732.83	1552.36
733.01	1531.88
733.19	1570.79
733.37	1603.56
733.56	1529.83
733.74	1503.21
733.92	1558.50
734.10	1503.21
734.28	1550.31
734.46	1443.82
734.64	1538.02
734.82	1542.12
735.00	1464.30
735.18	1511.40
735.36	1589.22
735.54	1484.78
735.73	1558.50
735.91	1544.17
736.09	1570.79
736.27	1591.27
736.45	1646.57
736.63	1431.53
736.81	1529.83
736.99	1578.98
737.17	1591.27
737.35	1478.63
737.53	1583.08
737.71	1505.26
737.89	1519.59
738.07	1488.87
738.25	1472.49
738.43	1423.34
738.61	1550.31
738.80	1525.74
738.98	1441.77
739.16	1548.26
739.34	1523.69
739.52	1615.85
739.70	1521.64
739.88	1570.79
740.06	1482.73
740.24	1482.73
740.42	1638.38
740.60	1484.78
740.78	1501.16
740.96	1476.59
741.14	1482.73
741.32	1492.97
741.50	1525.74
741.68	1716.20
741.86	1525.74
742.04	1538.02
742.22	1550.31
742.40	1464.30
742.58	1574.89
742.76	1472.49
742.94	1554.41
743.12	1454.06
743.30	1497.07
743.48	1523.69
743.66	1497.07
743.84	1515.50
744.02	1538.02
744.20	1552.36
744.38	1495.02
744.56	1468.39
744.74	1673.19
744.92	1525.74
745.10	1576.94
745.28	1558.50
745.46	1671.14
745.64	1513.45
745.82	1574.89
746.00	1474.54
746.18	1556.46
746.36	1570.79
746.54	1550.31
746.72	1550.31
746.90	1423.34
747.08	1603.56
747.26	1540.07
747.44	1597.42
747.62	1556.46
747.80	1601.51
747.98	1538.02
748.15	1462.25
748.33	1581.03
748.51	1613.80
748.69	1611.75
748.87	1462.25
749.05	1486.83
749.23	1558.50
749.41	1564.65
749.59	1525.74
749.77	1605.61
749.95	1486.83
750.13	1505.26
750.31	1542.12
750.49	1572.84
750.67	1603.56
750.85	1656.81
751.03	1576.94
751.20	1636.33
751.38	1587.18
751.56	1531.88
751.74	1452.01
751.92	1515.50
752.10	1427.43
752.28	1585.13
752.46	1501.16
752.64	1507.30
752.82	1517.54
753.00	1554.41
753.18	1435.63
753.35	1488.87
753.53	1538.02
753.71	1542.12
753.89	1671.14
754.07	1591.27
754.25	1574.89
754.43	1480.68
754.61	1468.39
754.79	1572.84
754.97	1574.89
755.14	1648.61
755.32	1488.87
755.50	1613.80
755.68	1583.08
755.86	1482.73
756.04	1562.60
756.22	1517.54
756.40	1576.94
756.57	1648.61
756.75	1517.54
756.93	1605.61
757.11	1503.21
757.29	1525.74
757.47	1478.63
757.65	1505.26
757.82	1449.96
758.00	1589.22
758.18	1509.35
758.36	1452.01
758.54	1628.14
758.72	1513.45
758.90	1566.70
759.07	1572.84
759.25	1538.02
759.43	1531.88
759.61	1511.40
759.79	1906.66
759.97	1583.08
760.15	1558.50
760.32	1511.40
760.50	1560.55
760.68	1587.18
760.86	1468.39
761.04	1535.98
761.22	1583.08
761.39	1527.78
761.57	1556.46
761.75	1613.80
761.93	1562.60
762.11	1535.98
762.28	1550.31
762.46	1509.35
762.64	1609.70
762.82	1503.21
763.00	1546.22
763.18	1568.74
763.35	1523.69
763.53	1628.14
763.71	1525.74
763.89	1533.93
764.07	1578.98
764.24	1501.16
764.42	1593.32
764.60	1507.30
764.78	1525.74
764.96	1535.98
765.13	1597.42
765.31	1515.50
765.49	1558.50
765.67	1464.30
765.84	1492.97
766.02	1495.02
766.20	1509.35
766.38	1587.18
766.56	1644.52
766.73	1576.94
766.91	1517.54
767.09	1495.02
767.27	1550.31
767.44	1495.02
767.62	1511.40
767.80	1523.69
767.98	1458.15
768.15	1490.92
768.33	1603.56
768.51	1544.17
768.69	1572.84
768.87	1562.60
769.04	1497.07
769.22	1650.66
769.40	1624.04
769.58	1656.81
769.75	1525.74
769.93	1501.16
770.11	1409.00
770.28	1517.54
770.46	1576.94
770.64	1566.70
770.82	1546.22
770.99	1542.12
771.17	1591.27
771.35	1476.59
771.53	1550.31
771.70	1517.54
771.88	1572.84
772.06	1464.30
772.23	1546.22
772.41	1599.46
772.59	1511.40
772.77	1476.59
772.94	1515.50
773.12	1581.03
773.30	1509.35
773.47	1439.72
773.65	1509.35
773.83	1585.13
774.01	1572.84
774.18	1431.53
774.36	1517.54
774.54	1501.16
774.71	1507.30
774.89	1468.39
775.07	1503.21
775.24	1619.94
775.42	1474.54
775.60	1609.70
775.78	1486.83
775.95	1495.02
776.13	1462.25
776.31	1423.34
776.48	1484.78
776.66	1617.90
776.84	1519.59
777.01	1462.25
777.19	1509.35
777.37	1556.46
777.54	1638.38
777.72	1646.57
777.90	1535.98
778.07	1497.07
778.25	1599.46
778.43	1583.08
778.60	1529.83
778.78	1560.55
778.96	1560.55
779.13	1435.63
779.31	1609.70
779.49	1568.74
779.66	1517.54
779.84	1533.93
780.01	1613.80
780.19	1445.87
780.37	1552.36
780.54	1605.61
780.72	1546.22
780.90	1562.60
781.07	1515.50
781.25	1486.83
781.43	1601.51
781.60	1484.78
781.78	1589.22
781.95	1525.74
782.13	1460.20
782.31	1517.54
782.48	1439.72
782.66	1509.35
782.83	1595.37
783.01	1556.46
783.19	1572.84
783.36	1484.78
783.54	1538.02
783.72	1595.37
783.89	1570.79
784.07	1605.61
784.24	1533.93
784.42	1576.94
784.60	1570.79
784.77	1492.97
784.95	1478.63
785.12	1466.35
785.30	1476.59
785.47	1511.40
785.65	1435.63
785.83	1564.65
786.00	1521.64
786.18	1542.12
786.35	1527.78
786.53	1497.07
786.71	1542.12
786.88	1550.31
787.06	1556.46
787.23	1456.11
787.41	1523.69
787.58	1542.12
787.76	1499.11
787.94	1554.41
788.11	1472.49
788.29	1468.39
788.46	1452.01
788.64	1439.72
788.81	1445.87
788.99	1472.49
789.16	1413.10
789.34	1509.35
789.52	1544.17
789.69	1550.31
789.87	1515.50
790.04	1574.89
790.22	1581.03
790.39	1689.57
790.57	1478.63
790.74	1468.39
790.92	1515.50
791.09	1497.07
791.27	1484.78
791.44	1605.61
791.62	1538.02
791.79	1525.74
791.97	1519.59
792.15	1677.29
792.32	1564.65
792.50	1556.46
792.67	1591.27
792.85	1628.14
793.02	1513.45
793.20	1566.70
793.37	1419.24
793.55	1505.26
793.72	1525.74
793.90	1527.78
794.07	1488.87
794.25	1583.08
794.42	1495.02
794.60	1542.12
794.77	1560.55
794.95	1542.12
795.12	1531.88
795.30	1574.89
795.47	1409.00
795.65	1611.75
795.82	1542.12
796.00	1470.44
796.17	1560.55
796.34	1527.78
796.52	1521.64
796.69	1572.84
796.87	1556.46
797.04	1605.61
797.22	1519.59
797.39	1581.03
797.57	1548.26
797.74	1566.70
797.92	1456.11
798.09	1472.49
798.27	1601.51
798.44	1566.70
798.62	1495.02
798.79	1640.42
798.96	1550.31
799.14	1607.66
799.31	1591.27
799.49	1515.50
799.66	1486.83
799.84	1525.74
800.01	1464.30
800.19	1566.70
800.36	1474.54
800.53	1554.41
800.71	1544.17
800.88	1568.74
801.06	1484.78
801.23	1515.50
801.41	1492.97
801.58	1452.01
801.75	1542.12
801.93	1527.78
802.10	1433.58
802.28	1556.46
802.45	1533.93
802.63	1560.55
802.80	1644.52
802.97	1472.49
803.15	1488.87
803.32	1527.78
803.50	1484.78
803.67	1583.08
803.84	1406.95
804.02	1529.83
804.19	1466.35
804.37	1521.64
804.54	1509.35
804.71	1531.88
804.89	1474.54
805.06	1525.74
805.24	1472.49
805.41	1521.64
805.58	1492.97
805.76	1642.47
805.93	1525.74
806.10	1564.65
806.28	1552.36
806.45	1595.37
806.63	1558.50
806.80	1525.74
806.97	1562.60
807.15	1474.54
807.32	1523.69
807.49	1560.55
807.67	1454.06
807.84	1568.74
808.01	1515.50
808.19	1642.47
808.36	1626.09
808.54	1462.25
808.71	1437.67
808.88	1509.35
809.06	1615.85
809.23	1593.32
809.40	1449.96
809.58	1566.70
809.75	1517.54
809.92	1499.11
810.10	1593.32
810.27	1638.38
810.44	1585.13
810.62	1587.18
810.79	1517.54
810.96	1466.35
811.14	1519.59
811.31	1593.32
811.48	1560.55
811.66	1560.55
811.83	1560.55
812.00	1495.02
812.18	1550.31
812.35	1699.81
812.52	1505.26
812.69	1452.01
812.87	1585.13
813.04	1535.98
813.21	1519.59
813.39	1470.44
813.56	1595.37
813.73	1556.46
813.91	1447.91
814.08	1525.74
814.25	1511.40
814.42	1497.07
814.60	1531.88
814.77	1552.36
814.94	1482.73
815.12	1574.89
815.29	1595.37
815.46	1505.26
815.63	1644.52
815.81	1542.12
815.98	1525.74
816.15	1583.08
816.33	1517.54
816.50	1550.31
816.67	1472.49
816.84	1466.35
817.02	1501.16
817.19	1474.54
817.36	1540.07
817.53	1529.83
817.71	1478.63
817.88	1599.46
818.05	1531.88
818.22	1566.70
818.40	1599.46
818.57	1607.66
818.74	1519.59
818.91	1566.70
819.09	1568.74
819.26	1583.08
819.43	1503.21
819.60	1511.40
819.78	1521.64
819.95	1613.80
820.12	1492.97
820.29	1576.94
820.47	1513.45
820.64	1499.11
820.81	1495.02
820.98	1497.07
821.15	1568.74
821.33	1568.74
821.50	1413.10
821.67	1560.55
821.84	1607.66
822.02	1601.51
822.19	1513.45
822.36	1533.93
822.53	1550.31
822.70	1445.87
822.88	1562.60
823.05	1492.97
823.22	1546.22
823.39	1587.18
823.56	1564.65
823.74	1611.75
823.91	1519.59
824.08	1488.87
824.25	1482.73
824.42	1624.04
824.60	1544.17
824.77	1519.59
824.94	1529.83
825.11	1603.56
825.28	1548.26
825.45	1562.60
825.63	1535.98
825.80	1490.92
825.97	1501.16
826.14	1548.26
826.31	1419.24
826.48	1605.61
826.66	1468.39
826.83	1464.30
827.00	1576.94
827.17	1503.21
827.34	1497.07
827.51	1482.73
827.69	1525.74
827.86	1466.35
828.03	1550.31
828.20	1533.93
828.37	1517.54
828.54	1519.59
828.71	1486.83
828.89	1595.37
829.06	1531.88
829.23	1558.50
829.40	1466.35
829.57	1513.45
829.74	1507.30
829.91	1484.78
830.09	1540.07
830.26	1470.44
830.43	1585.13
830.60	1558.50
830.77	1552.36
830.94	1585.13
831.11	1609.70
831.28	1525.74
831.46	1521.64
831.63	1462.25
831.80	1570.79
831.97	1550.31
832.14	1497.07
832.31	1509.35
832.48	1542.12
832.65	1578.98
832.82	1583.08
832.99	1529.83
833.17	1443.82
833.34	1599.46
833.51	1513.45
833.68	1390.57
833.85	1527.78
834.02	1501.16
834.19	1433.58
834.36	1488.87
834.53	1546.22
834.70	1546.22
834.87	1615.85
835.04	1472.49
835.22	1515.50
835.39	1525.74
835.56	1458.15
835.73	1472.49
835.90	1564.65
836.07	1492.97
836.24	1560.55
836.41	1560.55
836.58	1519.59
836.75	1542.12
836.92	1552.36
837.09	1525.74
837.26	1583.08
837.43	1581.03
837.60	1509.35
837.77	1515.50
837.94	1576.94
838.12	1560.55
838.29	1548.26
838.46	1456.11
838.63	1523.69
838.80	1587.18
838.97	1570.79
839.14	1531.88
839.31	1527.78
839.48	1585.13
839.65	1576.94
839.82	1595.37
839.99	1495.02
840.16	1556.46
840.33	1427.43
840.50	1486.83
840.67	1515.50
840.84	1445.87
841.01	1542.12
841.18	1535.98
841.35	1454.06
841.52	1615.85
841.69	1636.33
841.86	1535.98
842.03	1488.87
842.20	1570.79
842.37	1474.54
842.54	1511.40
842.71	1589.22
842.88	1583.08
843.05	1613.80
843.22	1576.94
843.39	1562.60
843.56	1535.98
843.73	1560.55
843.90	1556.46
844.07	1548.26
844.24	1546.22
844.41	1632.23
844.58	1540.07
844.75	1554.41
844.92	1525.74
845.09	1497.07
845.26	1533.93
845.43	1605.61
845.60	1527.78
845.77	1572.84
845.94	1597.42
846.10	1589.22
846.27	1456.11
846.44	1515.50
846.61	1538.02
846.78	1523.69
846.95	1591.27
847.12	1546.22
847.29	1519.59
847.46	1546.22
847.63	1542.12
847.80	1546.22
847.97	1517.54
848.14	1656.81
848.31	1535.98
848.48	1423.34
848.65	1531.88
848.82	1519.59
848.98	1591.27
849.15	1617.90
849.32	1560.55
849.49	1552.36
849.66	1447.91
849.83	1632.23
850.00	1439.72
850.17	1552.36
850.34	1533.93
850.51	1507.30
850.68	1482.73
850.85	1583.08
851.01	1482.73
851.18	1525.74
851.35	1443.82
851.52	1574.89
851.69	1632.23
851.86	1419.24
852.03	1619.94
852.20	1617.90
852.37	1484.78
852.53	1470.44
852.70	1535.98
852.87	1562.60
853.04	1562.60
853.21	1599.46
853.38	1599.46
853.55	1556.46
853.72	1605.61
853.89	1554.41
854.05	1425.39
854.22	1521.64
854.39	1523.69
854.56	1542.12
854.73	1535.98
854.90	1581.03
855.07	1482.73
855.23	1495.02
855.40	1583.08
855.57	1509.35
855.74	1464.30
855.91	1675.24
856.08	1433.58
856.25	1470.44
856.41	1538.02
856.58	1523.69
856.75	1630.18
856.92	1460.20
857.09	1624.04
857.26	1452.01
857.42	1542.12
857.59	1529.83
857.76	1460.20
857.93	1546.22
858.10	1550.31
858.27	1456.11
858.43	1574.89
858.60	1548.26
858.77	1509.35
858.94	1482.73
859.11	1595.37
859.27	1605.61
859.44	1587.18
859.61	1728.49
859.78	1523.69
859.95	1587.18
860.12	1538.02
860.28	1597.42
860.45	1558.50
860.62	1517.54
860.79	1533.93
860.95	1454.06
861.12	1527.78
861.29	1544.17
861.46	1527.78
861.63	1474.54
861.79	1583.08
861.96	1578.98
862.13	1474.54
862.30	1599.46
862.47	1486.83
862.63	1519.59
862.80	1507.30
862.97	1546.22
863.14	1558.50
863.30	1591.27
863.47	1458.15
863.64	1603.56
863.81	1540.07
863.97	1495.02
864.14	1538.02
864.31	1499.11
864.48	1568.74
864.65	1474.54
864.81	1550.31
864.98	1531.88
865.15	1535.98
865.32	1527.78
865.48	1564.65
865.65	1599.46
865.82	1505.26
865.98	1576.94
866.15	1611.75
866.32	1550.31
866.49	1466.35
866.65	1617.90
866.82	1470.44
866.99	1554.41
867.16	1560.55
867.32	1507.30
867.49	1523.69
867.66	1533.93
867.83	1548.26
867.99	1419.24
868.16	1542.12
868.33	1482.73
868.49	1527.78
868.66	1542.12
868.83	1550.31
868.99	1527.78
869.16	1529.83
869.33	1531.88
869.50	1599.46
869.66	1566.70
869.83	1538.02
870.00	1462.25
870.16	1626.09
870.33	1558.50
870.50	1464.30
870.66	1519.59
870.83	1558.50
871.00	1529.83
871.17	1599.46
871.33	1585.13
871.50	1499.11
871.67	1583.08
871.83	1447.91
872.00	1619.94
872.17	1595.37
872.33	1531.88
872.50	1615.85
872.67	1480.68
872.83	1583.08
873.00	1544.17
873.17	1454.06
873.33	1603.56
873.50	1546.22
873.67	1492.97
873.83	1636.33
874.00	1472.49
874.16	1632.23
874.33	1521.64
874.50	1501.16
874.66	1591.27
874.83	1572.84
875.00	1523.69
875.16	1523.69
875.33	1550.31
875.50	1411.05
875.66	1480.68
875.83	1535.98
875.99	1599.46
876.16	1497.07
876.33	1540.07
876.49	1511.40
876.66	1531.88
876.83	1505.26
876.99	1476.59
877.16	1445.87
877.32	1552.36
877.49	1566.70
877.66	1538.02
877.82	1562.60
877.99	1546.22
878.15	1644.52
878.32	1523.69
878.49	1529.83
878.65	1513.45
878.82	1601.51
878.98	1529.83
879.15	1511.40
879.32	1568.74
879.48	1587.18
879.65	1533.93
879.81	1443.82
879.98	1548.26
880.15	1560.55
880.31	1564.65
880.48	1472.49
880.64	1624.04
880.81	1499.11
880.97	1613.80
881.14	1591.27
881.31	1546.22
881.47	1609.70
881.64	1591.27
881.80	1521.64
881.97	1544.17
882.13	1609.70
882.30	1531.88
882.47	1515.50
882.63	1480.68
882.80	1497.07
882.96	1406.95
883.13	1529.83
883.29	1589.22
883.46	1560.55
883.62	1581.03
883.79	1533.93
883.95	1597.42
884.12	1495.02
884.29	1488.87
884.45	1540.07
884.62	1605.61
884.78	1476.59
884.95	1642.47
885.11	1523.69
885.28	1462.25
885.44	1433.58
885.61	1591.27
885.77	1560.55
885.94	1609.70
886.10	1505.26
886.27	1581.03
886.43	1636.33
886.60	1570.79
886.76	1525.74
886.93	1439.72
887.09	1552.36
887.26	1484.78
887.42	1507.30
887.59	1570.79
887.75	1556.46
887.92	1595.37
888.08	1550.31
888.25	1531.88
888.41	1626.09
888.58	1605.61
888.74	1562.60
888.91	1398.76
>>>>>End Processed Spectral Data<<<<<
