SpectraSuite Data File
++++++++++++++++++++++++++++++++++++
Date: Tue May 03 12:55:18 CEST 2016
User: root
Dark Spectrum Present: No
Reference Spectrum Present: No
Number of Sampled Component Spectra: 1
Spectrometers: USB4C02835
Integration Time (usec): 100000 (USB4C02835)
Spectra Averaged: 1 (USB4C02835)
Boxcar Smoothing: 0 (USB4C02835)
Correct for Electrical Dark: No (USB4C02835)
Strobe/Lamp Enabled: No (USB4C02835)
Correct for Detector Non-linearity: No (USB4C02835)
Correct for Stray Light: No (USB4C02835)
Number of Pixels in Processed Spectrum: 3648
>>>>>Begin Processed Spectral Data<<<<<
177.47	1372.14
177.69	1372.14
177.91	1372.14
178.13	1316.84
178.36	1331.18
178.58	1462.25
178.80	1570.79
179.02	1574.89
179.24	1517.54
179.46	1605.61
179.68	1621.99
179.90	1474.54
180.13	1535.98
180.35	1468.39
180.57	1552.36
180.79	1615.85
181.01	1527.78
181.23	1576.94
181.45	1589.22
181.67	1535.98
181.90	1576.94
182.12	1458.15
182.34	1398.76
182.56	1538.02
182.78	1556.46
183.00	1558.50
183.22	1558.50
183.44	1460.20
183.66	1628.14
183.89	1613.80
184.11	1544.17
184.33	1595.37
184.55	1562.60
184.77	1564.65
184.99	1531.88
185.21	1529.83
185.43	1673.19
185.65	1509.35
185.87	1626.09
186.10	1611.75
186.32	1695.72
186.54	1560.55
186.76	1488.87
186.98	1665.00
187.20	1462.25
187.42	1466.35
187.64	1486.83
187.86	1585.13
188.08	1570.79
188.30	1517.54
188.52	1624.04
188.75	1558.50
188.97	1566.70
189.19	1445.87
189.41	1492.97
189.63	1576.94
189.85	1505.26
190.07	1499.11
190.29	1445.87
190.51	1566.70
190.73	1490.92
190.95	1548.26
191.17	1517.54
191.39	1476.59
191.61	1533.93
191.84	1501.16
192.06	1597.42
192.28	1507.30
192.50	1675.24
192.72	1486.83
192.94	1519.59
193.16	1517.54
193.38	1527.78
193.60	1552.36
193.82	1527.78
194.04	1550.31
194.26	1542.12
194.48	1558.50
194.70	1447.91
194.92	1554.41
195.14	1593.32
195.36	1484.78
195.58	1568.74
195.80	1542.12
196.02	1449.96
196.24	1490.92
196.46	1578.98
196.69	1474.54
196.91	1613.80
197.13	1492.97
197.35	1587.18
197.57	1570.79
197.79	1599.46
198.01	1570.79
198.23	1591.27
198.45	1556.46
198.67	1480.68
198.89	1503.21
199.11	1599.46
199.33	1490.92
199.55	1456.11
199.77	1505.26
199.99	1552.36
200.21	1458.15
200.43	1470.44
200.65	1511.40
200.87	1415.15
201.09	1560.55
201.31	1525.74
201.53	1509.35
201.75	1554.41
201.97	1544.17
202.19	1595.37
202.41	1501.16
202.63	1683.43
202.85	1515.50
203.07	1503.21
203.29	1523.69
203.51	1400.81
203.73	1497.07
203.95	1665.00
204.17	1521.64
204.39	1511.40
204.61	1527.78
204.83	1548.26
205.05	1607.66
205.27	1546.22
205.49	1566.70
205.71	1572.84
205.93	1497.07
206.15	1480.68
206.37	1535.98
206.59	1509.35
206.81	1476.59
207.03	1492.97
207.25	1458.15
207.47	1632.23
207.69	1533.93
207.91	1638.38
208.13	1605.61
208.34	1517.54
208.56	1499.11
208.78	1624.04
209.00	1509.35
209.22	1462.25
209.44	1585.13
209.66	1501.16
209.88	1589.22
210.10	1525.74
210.32	1515.50
210.54	1601.51
210.76	1533.93
210.98	1535.98
211.20	1402.86
211.42	1550.31
211.64	1576.94
211.86	1585.13
212.08	1568.74
212.30	1570.79
212.52	1449.96
212.74	1480.68
212.96	1505.26
213.17	1560.55
213.39	1583.08
213.61	1593.32
213.83	1605.61
214.05	1460.20
214.27	1648.61
214.49	1523.69
214.71	1486.83
214.93	1552.36
215.15	1529.83
215.37	1550.31
215.59	1482.73
215.81	1513.45
216.03	1548.26
216.24	1529.83
216.46	1529.83
216.68	1544.17
216.90	1540.07
217.12	1652.71
217.34	1601.51
217.56	1482.73
217.78	1564.65
218.00	1505.26
218.22	1540.07
218.44	1523.69
218.66	1544.17
218.87	1558.50
219.09	1564.65
219.31	1538.02
219.53	1478.63
219.75	1558.50
219.97	1595.37
220.19	1470.44
220.41	1501.16
220.63	1548.26
220.85	1515.50
221.06	1544.17
221.28	1503.21
221.50	1562.60
221.72	1476.59
221.94	1542.12
222.16	1456.11
222.38	1628.14
222.60	1628.14
222.82	1523.69
223.03	1576.94
223.25	1507.30
223.47	1630.18
223.69	1617.90
223.91	1599.46
224.13	1525.74
224.35	1548.26
224.57	1609.70
224.78	1546.22
225.00	1490.92
225.22	1605.61
225.44	1638.38
225.66	1560.55
225.88	1560.55
226.10	1593.32
226.32	1587.18
226.53	1589.22
226.75	1488.87
226.97	1529.83
227.19	1589.22
227.41	1480.68
227.63	1462.25
227.85	1484.78
228.06	1540.07
228.28	1636.33
228.50	1523.69
228.72	1560.55
228.94	1556.46
229.16	1492.97
229.37	1531.88
229.59	1509.35
229.81	1615.85
230.03	1492.97
230.25	1548.26
230.47	1513.45
230.69	1456.11
230.90	1574.89
231.12	1538.02
231.34	1503.21
231.56	1624.04
231.78	1497.07
232.00	1583.08
232.21	1490.92
232.43	1531.88
232.65	1425.39
232.87	1519.59
233.09	1509.35
233.30	1548.26
233.52	1591.27
233.74	1556.46
233.96	1540.07
234.18	1472.49
234.40	1560.55
234.61	1669.09
234.83	1507.30
235.05	1486.83
235.27	1607.66
235.49	1597.42
235.70	1544.17
235.92	1605.61
236.14	1454.06
236.36	1644.52
236.58	1474.54
236.79	1490.92
237.01	1468.39
237.23	1527.78
237.45	1642.47
237.67	1468.39
237.88	1554.41
238.10	1660.90
238.32	1509.35
238.54	1535.98
238.76	1527.78
238.97	1478.63
239.19	1472.49
239.41	1566.70
239.63	1605.61
239.85	1523.69
240.06	1556.46
240.28	1454.06
240.50	1570.79
240.72	1558.50
240.93	1533.93
241.15	1615.85
241.37	1564.65
241.59	1566.70
241.81	1529.83
242.02	1503.21
242.24	1572.84
242.46	1550.31
242.68	1464.30
242.89	1507.30
243.11	1585.13
243.33	1570.79
243.55	1595.37
243.76	1490.92
243.98	1462.25
244.20	1456.11
244.42	1509.35
244.64	1574.89
244.85	1468.39
245.07	1511.40
245.29	1605.61
245.51	1517.54
245.72	1513.45
245.94	1581.03
246.16	1599.46
246.38	1630.18
246.59	1511.40
246.81	1464.30
247.03	1597.42
247.24	1472.49
247.46	1486.83
247.68	1556.46
247.90	1558.50
248.11	1507.30
248.33	1576.94
248.55	1486.83
248.77	1564.65
248.98	1572.84
249.20	1585.13
249.42	1533.93
249.64	1556.46
249.85	1515.50
250.07	1501.16
250.29	1519.59
250.50	1519.59
250.72	1464.30
250.94	1538.02
251.16	1615.85
251.37	1556.46
251.59	1576.94
251.81	1454.06
252.02	1611.75
252.24	1499.11
252.46	1560.55
252.68	1439.72
252.89	1538.02
253.11	1433.58
253.33	1591.27
253.54	1574.89
253.76	1570.79
253.98	1558.50
254.20	1560.55
254.41	1427.43
254.63	1603.56
254.85	1546.22
255.06	1523.69
255.28	1529.83
255.50	1501.16
255.71	1468.39
255.93	1523.69
256.15	1474.54
256.36	1595.37
256.58	1511.40
256.80	1646.57
257.02	1595.37
257.23	1511.40
257.45	1546.22
257.67	1474.54
257.88	1617.90
258.10	1587.18
258.32	1535.98
258.53	1484.78
258.75	1507.30
258.97	1538.02
259.18	1581.03
259.40	1503.21
259.62	1593.32
259.83	1558.50
260.05	1529.83
260.27	1667.05
260.48	1605.61
260.70	1478.63
260.92	1476.59
261.13	1509.35
261.35	1513.45
261.57	1546.22
261.78	1521.64
262.00	1503.21
262.22	1548.26
262.43	1452.01
262.65	1511.40
262.86	1576.94
263.08	1652.71
263.30	1589.22
263.51	1503.21
263.73	1521.64
263.95	1603.56
264.16	1533.93
264.38	1531.88
264.60	1511.40
264.81	1472.49
265.03	1648.61
265.25	1531.88
265.46	1501.16
265.68	1585.13
265.89	1515.50
266.11	1558.50
266.33	1611.75
266.54	1650.66
266.76	1562.60
266.98	1624.04
267.19	1675.24
267.41	1538.02
267.62	1562.60
267.84	1546.22
268.06	1544.17
268.27	1517.54
268.49	1554.41
268.70	1505.26
268.92	1488.87
269.14	1456.11
269.35	1437.67
269.57	1521.64
269.79	1581.03
270.00	1497.07
270.22	1578.98
270.43	1552.36
270.65	1474.54
270.87	1542.12
271.08	1538.02
271.30	1533.93
271.51	1564.65
271.73	1570.79
271.95	1542.12
272.16	1581.03
272.38	1550.31
272.59	1495.02
272.81	1566.70
273.02	1521.64
273.24	1574.89
273.46	1521.64
273.67	1505.26
273.89	1509.35
274.10	1564.65
274.32	1560.55
274.54	1478.63
274.75	1509.35
274.97	1472.49
275.18	1562.60
275.40	1585.13
275.61	1558.50
275.83	1585.13
276.05	1581.03
276.26	1519.59
276.48	1638.38
276.69	1568.74
276.91	1540.07
277.12	1597.42
277.34	1617.90
277.55	1542.12
277.77	1560.55
277.99	1427.43
278.20	1476.59
278.42	1492.97
278.63	1486.83
278.85	1470.44
279.06	1468.39
279.28	1544.17
279.49	1609.70
279.71	1511.40
279.93	1581.03
280.14	1486.83
280.36	1529.83
280.57	1486.83
280.79	1587.18
281.00	1554.41
281.22	1562.60
281.43	1583.08
281.65	1476.59
281.86	1411.05
282.08	1533.93
282.29	1595.37
282.51	1492.97
282.73	1527.78
282.94	1497.07
283.16	1589.22
283.37	1644.52
283.59	1476.59
283.80	1583.08
284.02	1517.54
284.23	1546.22
284.45	1517.54
284.66	1501.16
284.88	1394.67
285.09	1552.36
285.31	1552.36
285.52	1513.45
285.74	1386.47
285.95	1609.70
286.17	1484.78
286.38	1540.07
286.60	1402.86
286.81	1538.02
287.03	1492.97
287.24	1490.92
287.46	1519.59
287.67	1609.70
287.89	1621.99
288.10	1578.98
288.32	1570.79
288.53	1630.18
288.75	1507.30
288.96	1601.51
289.18	1521.64
289.39	1538.02
289.61	1480.68
289.82	1648.61
290.04	1529.83
290.25	1478.63
290.47	1525.74
290.68	1533.93
290.90	1591.27
291.11	1443.82
291.33	1548.26
291.54	1417.19
291.76	1429.48
291.97	1525.74
292.18	1564.65
292.40	1513.45
292.61	1478.63
292.83	1605.61
293.04	1560.55
293.26	1568.74
293.47	1533.93
293.69	1535.98
293.90	1486.83
294.12	1564.65
294.33	1533.93
294.55	1495.02
294.76	1581.03
294.97	1492.97
295.19	1646.57
295.40	1550.31
295.62	1613.80
295.83	1511.40
296.05	1495.02
296.26	1523.69
296.48	1542.12
296.69	1521.64
296.90	1533.93
297.12	1556.46
297.33	1587.18
297.55	1525.74
297.76	1556.46
297.98	1552.36
298.19	1531.88
298.41	1521.64
298.62	1482.73
298.83	1566.70
299.05	1538.02
299.26	1513.45
299.48	1570.79
299.69	1560.55
299.90	1544.17
300.12	1447.91
300.33	1593.32
300.55	1535.98
300.76	1640.42
300.98	1513.45
301.19	1568.74
301.40	1464.30
301.62	1538.02
301.83	1603.56
302.05	1511.40
302.26	1480.68
302.47	1533.93
302.69	1454.06
302.90	1542.12
303.12	1423.34
303.33	1599.46
303.54	1527.78
303.76	1540.07
303.97	1638.38
304.19	1624.04
304.40	1486.83
304.61	1605.61
304.83	1642.47
305.04	1507.30
305.26	1497.07
305.47	1558.50
305.68	1538.02
305.90	1499.11
306.11	1583.08
306.33	1578.98
306.54	1497.07
306.75	1568.74
306.97	1478.63
307.18	1544.17
307.39	1527.78
307.61	1527.78
307.82	1503.21
308.04	1542.12
308.25	1523.69
308.46	1566.70
308.68	1511.40
308.89	1490.92
309.10	1552.36
309.32	1566.70
309.53	1558.50
309.74	1517.54
309.96	1525.74
310.17	1583.08
310.39	1521.64
310.60	1613.80
310.81	1529.83
311.03	1505.26
311.24	1566.70
311.45	1501.16
311.67	1636.33
311.88	1507.30
312.09	1486.83
312.31	1562.60
312.52	1558.50
312.73	1460.20
312.95	1476.59
313.16	1515.50
313.37	1560.55
313.59	1460.20
313.80	1595.37
314.01	1533.93
314.23	1570.79
314.44	1515.50
314.65	1449.96
314.87	1531.88
315.08	1533.93
315.29	1533.93
315.51	1581.03
315.72	1476.59
315.93	1695.72
316.15	1648.61
316.36	1476.59
316.57	1589.22
316.79	1599.46
317.00	1556.46
317.21	1607.66
317.43	1492.97
317.64	1470.44
317.85	1513.45
318.07	1566.70
318.28	1691.62
318.49	1724.39
318.70	1783.78
318.92	1726.44
319.13	1628.14
319.34	1728.49
319.56	1681.38
319.77	1665.00
319.98	1628.14
320.20	1648.61
320.41	1624.04
320.62	1611.75
320.83	1544.17
321.05	1681.38
321.26	1591.27
321.47	1509.35
321.69	1566.70
321.90	1507.30
322.11	1525.74
322.32	1591.27
322.54	1601.51
322.75	1519.59
322.96	1689.57
323.18	1435.63
323.39	1433.58
323.60	1458.15
323.81	1597.42
324.03	1490.92
324.24	1435.63
324.45	1558.50
324.66	1523.69
324.88	1523.69
325.09	1640.42
325.30	1503.21
325.52	1521.64
325.73	1576.94
325.94	1495.02
326.15	1454.06
326.37	1501.16
326.58	1519.59
326.79	1533.93
327.00	1447.91
327.22	1634.28
327.43	1497.07
327.64	1490.92
327.85	1611.75
328.07	1554.41
328.28	1675.24
328.49	1511.40
328.70	1556.46
328.92	1495.02
329.13	1517.54
329.34	1499.11
329.55	1626.09
329.76	1591.27
329.98	1527.78
330.19	1566.70
330.40	1572.84
330.61	1519.59
330.83	1507.30
331.04	1509.35
331.25	1480.68
331.46	1476.59
331.68	1538.02
331.89	1607.66
332.10	1480.68
332.31	1427.43
332.52	1605.61
332.74	1576.94
332.95	1554.41
333.16	1462.25
333.37	1578.98
333.58	1550.31
333.80	1495.02
334.01	1476.59
334.22	1593.32
334.43	1435.63
334.64	1585.13
334.86	1472.49
335.07	1501.16
335.28	1542.12
335.49	1476.59
335.70	1523.69
335.92	1624.04
336.13	1689.57
336.34	1544.17
336.55	1538.02
336.76	1544.17
336.98	1431.53
337.19	1603.56
337.40	1605.61
337.61	1617.90
337.82	1484.78
338.04	1574.89
338.25	1470.44
338.46	1540.07
338.67	1505.26
338.88	1505.26
339.09	1527.78
339.31	1525.74
339.52	1419.24
339.73	1542.12
339.94	1587.18
340.15	1546.22
340.36	1490.92
340.58	1531.88
340.79	1445.87
341.00	1626.09
341.21	1443.82
341.42	1613.80
341.63	1560.55
341.85	1552.36
342.06	1640.42
342.27	1484.78
342.48	1560.55
342.69	1535.98
342.90	1515.50
343.12	1630.18
343.33	1560.55
343.54	1597.42
343.75	1566.70
343.96	1542.12
344.17	1521.64
344.38	1527.78
344.60	1480.68
344.81	1531.88
345.02	1546.22
345.23	1556.46
345.44	1556.46
345.65	1574.89
345.86	1617.90
346.07	1505.26
346.29	1544.17
346.50	1535.98
346.71	1570.79
346.92	1624.04
347.13	1714.15
347.34	1540.07
347.55	1626.09
347.76	1497.07
347.98	1464.30
348.19	1443.82
348.40	1634.28
348.61	1550.31
348.82	1593.32
349.03	1523.69
349.24	1556.46
349.45	1585.13
349.66	1492.97
349.88	1517.54
350.09	1513.45
350.30	1624.04
350.51	1662.95
350.72	1519.59
350.93	1572.84
351.14	1540.07
351.35	1525.74
351.56	1578.98
351.77	1511.40
351.99	1607.66
352.20	1585.13
352.41	1574.89
352.62	1460.20
352.83	1505.26
353.04	1535.98
353.25	1570.79
353.46	1578.98
353.67	1556.46
353.88	1374.19
354.09	1548.26
354.30	1525.74
354.52	1542.12
354.73	1574.89
354.94	1482.73
355.15	1585.13
355.36	1656.81
355.57	1560.55
355.78	1638.38
355.99	1554.41
356.20	1476.59
356.41	1525.74
356.62	1568.74
356.83	1517.54
357.04	1603.56
357.25	1445.87
357.46	1550.31
357.68	1527.78
357.89	1478.63
358.10	1538.02
358.31	1533.93
358.52	1542.12
358.73	1460.20
358.94	1458.15
359.15	1535.98
359.36	1587.18
359.57	1511.40
359.78	1550.31
359.99	1589.22
360.20	1570.79
360.41	1544.17
360.62	1550.31
360.83	1599.46
361.04	1523.69
361.25	1599.46
361.46	1585.13
361.67	1566.70
361.88	1595.37
362.09	1538.02
362.30	1515.50
362.51	1576.94
362.72	1542.12
362.93	1607.66
363.14	1591.27
363.35	1554.41
363.56	1482.73
363.78	1574.89
363.99	1611.75
364.20	1527.78
364.41	1599.46
364.62	1638.38
364.83	1607.66
365.04	1568.74
365.25	1513.45
365.46	1660.90
365.67	1503.21
365.88	1503.21
366.09	1464.30
366.30	1533.93
366.51	1564.65
366.72	1427.43
366.93	1564.65
367.14	1529.83
367.35	1585.13
367.56	1525.74
367.77	1552.36
367.98	1529.83
368.18	1583.08
368.39	1603.56
368.60	1505.26
368.81	1599.46
369.02	1552.36
369.23	1505.26
369.44	1433.58
369.65	1527.78
369.86	1636.33
370.07	1621.99
370.28	1597.42
370.49	1533.93
370.70	1558.50
370.91	1482.73
371.12	1439.72
371.33	1583.08
371.54	1486.83
371.75	1626.09
371.96	1501.16
372.17	1568.74
372.38	1515.50
372.59	1593.32
372.80	1452.01
373.01	1495.02
373.22	1499.11
373.43	1542.12
373.64	1462.25
373.85	1671.14
374.06	1523.69
374.26	1513.45
374.47	1583.08
374.68	1656.81
374.89	1570.79
375.10	1546.22
375.31	1484.78
375.52	1544.17
375.73	1597.42
375.94	1495.02
376.15	1517.54
376.36	1572.84
376.57	1499.11
376.78	1513.45
376.99	1591.27
377.20	1609.70
377.40	1486.83
377.61	1630.18
377.82	1533.93
378.03	1562.60
378.24	1634.28
378.45	1499.11
378.66	1601.51
378.87	1482.73
379.08	1413.10
379.29	1527.78
379.50	1576.94
379.71	1492.97
379.91	1574.89
380.12	1517.54
380.33	1621.99
380.54	1523.69
380.75	1495.02
380.96	1566.70
381.17	1544.17
381.38	1486.83
381.59	1583.08
381.80	1599.46
382.00	1712.10
382.21	1560.55
382.42	1656.81
382.63	1648.61
382.84	1642.47
383.05	1675.24
383.26	1578.98
383.47	1521.64
383.68	1607.66
383.88	1507.30
384.09	1495.02
384.30	1619.94
384.51	1591.27
384.72	1552.36
384.93	1474.54
385.14	1529.83
385.35	1636.33
385.55	1509.35
385.76	1540.07
385.97	1525.74
386.18	1472.49
386.39	1503.21
386.60	1497.07
386.81	1611.75
387.02	1478.63
387.22	1523.69
387.43	1665.00
387.64	1726.44
387.85	1931.23
388.06	3153.87
388.27	7243.67
388.48	10526.56
388.68	12492.61
388.89	13721.39
389.10	12721.98
389.31	10172.26
389.52	8843.13
389.73	7976.84
389.93	7243.67
390.14	6586.27
390.35	6203.30
390.56	5363.63
390.77	4646.84
390.98	3559.37
391.18	2779.09
391.39	2199.52
391.60	1779.68
391.81	1781.73
392.02	1566.70
392.23	1630.18
392.43	1619.94
392.64	1650.66
392.85	1550.31
393.06	1634.28
393.27	1538.02
393.47	1533.93
393.68	1581.03
393.89	1595.37
394.10	1615.85
394.31	1587.18
394.52	1509.35
394.72	1574.89
394.93	1615.85
395.14	1560.55
395.35	1558.50
395.56	1513.45
395.76	1628.14
395.97	1652.71
396.18	1730.53
396.39	1724.39
396.60	1812.45
396.80	1710.05
397.01	1730.53
397.22	1634.28
397.43	1708.01
397.64	1597.42
397.84	1632.23
398.05	1652.71
398.26	1519.59
398.47	1605.61
398.67	1693.67
398.88	1589.22
399.09	1597.42
399.30	1593.32
399.51	1566.70
399.71	1490.92
399.92	1486.83
400.13	1556.46
400.34	1517.54
400.54	1576.94
400.75	1632.23
400.96	1595.37
401.17	1601.51
401.37	1611.75
401.58	1542.12
401.79	1566.70
402.00	1765.35
402.21	1941.47
402.41	1994.72
402.62	1937.38
402.83	2035.68
403.04	1865.70
403.24	1931.23
403.45	1765.35
403.66	1712.10
403.87	1728.49
404.07	1804.26
404.28	1765.35
404.49	1759.21
404.70	1603.56
404.90	1650.66
405.11	1646.57
405.32	1601.51
405.52	1466.35
405.73	1583.08
405.94	1472.49
406.15	1503.21
406.35	1531.88
406.56	1538.02
406.77	1587.18
406.98	1560.55
407.18	1488.87
407.39	1585.13
407.60	1517.54
407.80	1599.46
408.01	1486.83
408.22	1570.79
408.43	1535.98
408.63	1665.00
408.84	1566.70
409.05	1574.89
409.25	1550.31
409.46	1503.21
409.67	1499.11
409.88	1558.50
410.08	1560.55
410.29	1566.70
410.50	1648.61
410.70	1542.12
410.91	1439.72
411.12	1591.27
411.32	1497.07
411.53	1531.88
411.74	1662.95
411.95	1554.41
412.15	1574.89
412.36	1527.78
412.57	1660.90
412.77	1642.47
412.98	1564.65
413.19	1581.03
413.39	1624.04
413.60	1558.50
413.81	1578.98
414.01	1624.04
414.22	1540.07
414.43	1533.93
414.63	1484.78
414.84	1554.41
415.05	1501.16
415.25	1486.83
415.46	1595.37
415.67	1472.49
415.87	1517.54
416.08	1540.07
416.29	1513.45
416.49	1574.89
416.70	1578.98
416.91	1523.69
417.11	1454.06
417.32	1523.69
417.53	1630.18
417.73	1542.12
417.94	1507.30
418.15	1562.60
418.35	1550.31
418.56	1562.60
418.77	1556.46
418.97	1495.02
419.18	1564.65
419.38	1550.31
419.59	1544.17
419.80	1552.36
420.00	1509.35
420.21	1632.23
420.42	1533.93
420.62	1546.22
420.83	1466.35
421.04	1509.35
421.24	1511.40
421.45	1511.40
421.65	1562.60
421.86	1515.50
422.07	1593.32
422.27	1630.18
422.48	1519.59
422.69	1511.40
422.89	1433.58
423.10	1515.50
423.30	1523.69
423.51	1550.31
423.72	1538.02
423.92	1562.60
424.13	1460.20
424.33	1593.32
424.54	1550.31
424.75	1589.22
424.95	1554.41
425.16	1527.78
425.36	1560.55
425.57	1583.08
425.78	1533.93
425.98	1650.66
426.19	1548.26
426.39	1484.78
426.60	1544.17
426.81	1595.37
427.01	1511.40
427.22	1535.98
427.42	1476.59
427.63	1454.06
427.83	1613.80
428.04	1611.75
428.25	1578.98
428.45	1540.07
428.66	1533.93
428.86	1538.02
429.07	1585.13
429.28	1550.31
429.48	1523.69
429.69	1556.46
429.89	1519.59
430.10	1488.87
430.30	1578.98
430.51	1599.46
430.71	1474.54
430.92	1525.74
431.13	1544.17
431.33	1505.26
431.54	1542.12
431.74	1624.04
431.95	1601.51
432.15	1589.22
432.36	1560.55
432.56	1632.23
432.77	1593.32
432.98	1548.26
433.18	1476.59
433.39	1458.15
433.59	1509.35
433.80	1613.80
434.00	1710.05
434.21	1519.59
434.41	1517.54
434.62	1619.94
434.82	1484.78
435.03	1495.02
435.23	1542.12
435.44	1406.95
435.64	1611.75
435.85	1550.31
436.06	1540.07
436.26	1583.08
436.47	1566.70
436.67	1581.03
436.88	1560.55
437.08	1544.17
437.29	1591.27
437.49	1546.22
437.70	1591.27
437.90	1558.50
438.11	1656.81
438.31	1710.05
438.52	1720.29
438.72	1726.44
438.93	1746.92
439.13	1544.17
439.34	1632.23
439.54	1572.84
439.75	1583.08
439.95	1495.02
440.16	1566.70
440.36	1601.51
440.57	1525.74
440.77	1660.90
440.98	1615.85
441.18	1566.70
441.39	1533.93
441.59	1482.73
441.80	1611.75
442.00	1509.35
442.21	1607.66
442.41	1501.16
442.62	1488.87
442.82	1546.22
443.02	1523.69
443.23	1615.85
443.43	1515.50
443.64	1535.98
443.84	1490.92
444.05	1601.51
444.25	1529.83
444.46	1513.45
444.66	1589.22
444.87	1615.85
445.07	1490.92
445.28	1521.64
445.48	1552.36
445.69	1544.17
445.89	1621.99
446.09	1589.22
446.30	2017.25
446.50	3188.69
446.71	4450.24
446.91	5236.66
447.12	5627.82
447.32	5478.32
447.53	4483.00
447.73	4016.07
447.93	3629.00
448.14	3323.85
448.34	3264.46
448.55	2938.84
448.75	2781.14
448.96	2818.00
449.16	2547.67
449.36	2279.39
449.57	1935.33
449.77	1757.16
449.98	1685.48
450.18	1621.99
450.39	1621.99
450.59	1525.74
450.79	1499.11
451.00	1544.17
451.20	1558.50
451.41	1554.41
451.61	1591.27
451.81	1533.93
452.02	1511.40
452.22	1509.35
452.43	1476.59
452.63	1507.30
452.84	1531.88
453.04	1544.17
453.24	1540.07
453.45	1464.30
453.65	1521.64
453.86	1581.03
454.06	1578.98
454.26	1488.87
454.47	1515.50
454.67	1665.00
454.87	1621.99
455.08	1548.26
455.28	1595.37
455.49	1482.73
455.69	1507.30
455.89	1621.99
456.10	1656.81
456.30	1476.59
456.51	1624.04
456.71	1550.31
456.91	1617.90
457.12	1527.78
457.32	1558.50
457.52	1566.70
457.73	1531.88
457.93	1525.74
458.14	1511.40
458.34	1478.63
458.54	1552.36
458.75	1576.94
458.95	1621.99
459.15	1525.74
459.36	1570.79
459.56	1556.46
459.76	1636.33
459.97	1490.92
460.17	1511.40
460.37	1621.99
460.58	1554.41
460.78	1542.12
460.99	1515.50
461.19	1511.40
461.39	1482.73
461.60	1552.36
461.80	1562.60
462.00	1458.15
462.21	1521.64
462.41	1476.59
462.61	1433.58
462.82	1476.59
463.02	1535.98
463.22	1505.26
463.43	1605.61
463.63	1525.74
463.83	1568.74
464.04	1546.22
464.24	1564.65
464.44	1540.07
464.64	1587.18
464.85	1517.54
465.05	1599.46
465.25	1517.54
465.46	1552.36
465.66	1529.83
465.86	1548.26
466.07	1517.54
466.27	1585.13
466.47	1458.15
466.68	1492.97
466.88	1585.13
467.08	1576.94
467.29	1593.32
467.49	1544.17
467.69	1566.70
467.89	1544.17
468.10	1599.46
468.30	1554.41
468.50	1597.42
468.71	1605.61
468.91	1550.31
469.11	1595.37
469.31	1501.16
469.52	1564.65
469.72	1552.36
469.92	1712.10
470.13	1478.63
470.33	1476.59
470.53	1705.96
470.73	2152.42
470.94	2301.92
471.14	2385.88
471.34	2623.45
471.54	2416.60
471.75	2172.89
471.95	2082.78
472.15	1927.14
472.36	1900.52
472.56	1964.00
472.76	1818.60
472.96	1808.36
473.17	1746.92
473.37	1771.49
473.57	1652.71
473.77	1779.68
473.98	1607.66
474.18	1523.69
474.38	1587.18
474.58	1497.07
474.79	1550.31
474.99	1597.42
475.19	1568.74
475.39	1505.26
475.60	1538.02
475.80	1587.18
476.00	1599.46
476.20	1529.83
476.41	1521.64
476.61	1546.22
476.81	1583.08
477.01	1425.39
477.21	1568.74
477.42	1558.50
477.62	1535.98
477.82	1550.31
478.02	1513.45
478.23	1535.98
478.43	1482.73
478.63	1480.68
478.83	1574.89
479.03	1515.50
479.24	1566.70
479.44	1568.74
479.64	1499.11
479.84	1462.25
480.04	1560.55
480.25	1511.40
480.45	1486.83
480.65	1486.83
480.85	1574.89
481.06	1521.64
481.26	1521.64
481.46	1548.26
481.66	1599.46
481.86	1472.49
482.06	1599.46
482.27	1581.03
482.47	1462.25
482.67	1585.13
482.87	1556.46
483.07	1560.55
483.28	1525.74
483.48	1501.16
483.68	1478.63
483.88	1501.16
484.08	1519.59
484.29	1464.30
484.49	1554.41
484.69	1443.82
484.89	1568.74
485.09	1554.41
485.29	1624.04
485.50	1583.08
485.70	1607.66
485.90	1568.74
486.10	1609.70
486.30	1511.40
486.50	1560.55
486.71	1533.93
486.91	1546.22
487.11	1626.09
487.31	1476.59
487.51	1603.56
487.71	1548.26
487.91	1499.11
488.12	1486.83
488.32	1480.68
488.52	1509.35
488.72	1468.39
488.92	1550.31
489.12	1576.94
489.32	1560.55
489.53	1509.35
489.73	1484.78
489.93	1615.85
490.13	1511.40
490.33	1501.16
490.53	1533.93
490.73	1585.13
490.94	1548.26
491.14	1628.14
491.34	1781.73
491.54	2158.56
491.74	2658.26
491.94	2949.08
492.14	3321.81
492.34	3274.70
492.54	2695.13
492.75	2525.15
492.95	2314.20
493.15	2217.95
493.35	2217.95
493.55	2131.94
493.75	2062.30
493.95	2025.44
494.15	1933.28
494.35	1781.73
494.56	1710.05
494.76	1585.13
494.96	1621.99
495.16	1652.71
495.36	1511.40
495.56	1456.11
495.76	1583.08
495.96	1546.22
496.16	1507.30
496.36	1675.24
496.56	1509.35
496.77	1601.51
496.97	1515.50
497.17	1538.02
497.37	1495.02
497.57	1572.84
497.77	1511.40
497.97	1509.35
498.17	1615.85
498.37	1568.74
498.57	1564.65
498.77	1509.35
498.97	1607.66
499.17	1591.27
499.38	1523.69
499.58	1599.46
499.78	1591.27
499.98	1630.18
500.18	1517.54
500.38	1581.03
500.58	1697.77
500.78	2635.74
500.98	5089.20
501.18	6846.36
501.38	8101.76
501.58	8683.39
501.78	7817.10
501.98	6131.62
502.18	5259.18
502.38	4667.32
502.58	4265.92
502.78	3891.14
502.98	3856.33
503.18	3633.10
503.38	3381.20
503.59	3022.80
503.79	2713.56
503.99	2582.49
504.19	2295.77
504.39	2158.56
504.59	2054.11
504.79	2062.30
504.99	1902.56
505.19	1785.83
505.39	1718.25
505.59	1798.12
505.79	1734.63
505.99	1675.24
506.19	1654.76
506.39	1746.92
506.59	1560.55
506.79	1587.18
506.99	1578.98
507.19	1624.04
507.39	1568.74
507.59	1472.49
507.79	1511.40
507.99	1535.98
508.19	1472.49
508.39	1556.46
508.59	1509.35
508.79	1652.71
508.99	1646.57
509.19	1531.88
509.39	1583.08
509.59	1474.54
509.79	1540.07
509.99	1544.17
510.19	1624.04
510.39	1617.90
510.59	1540.07
510.79	1533.93
510.99	1447.91
511.19	1558.50
511.39	1632.23
511.59	1560.55
511.79	1615.85
511.99	1476.59
512.19	1603.56
512.38	1566.70
512.58	1499.11
512.78	1474.54
512.98	1585.13
513.18	1607.66
513.38	1466.35
513.58	1576.94
513.78	1419.24
513.98	1642.47
514.18	1466.35
514.38	1509.35
514.58	1607.66
514.78	1540.07
514.98	1560.55
515.18	1603.56
515.38	1505.26
515.58	1652.71
515.78	1427.43
515.98	1497.07
516.18	1595.37
516.38	1554.41
516.57	1585.13
516.77	1533.93
516.97	1529.83
517.17	1484.78
517.37	1513.45
517.57	1566.70
517.77	1511.40
517.97	1531.88
518.17	1576.94
518.37	1574.89
518.57	1521.64
518.77	1503.21
518.97	1548.26
519.16	1525.74
519.36	1624.04
519.56	1509.35
519.76	1525.74
519.96	1501.16
520.16	1554.41
520.36	1478.63
520.56	1636.33
520.76	1509.35
520.96	1486.83
521.16	1517.54
521.35	1611.75
521.55	1597.42
521.75	1509.35
521.95	1533.93
522.15	1456.11
522.35	1456.11
522.55	1538.02
522.75	1544.17
522.95	1517.54
523.14	1488.87
523.34	1490.92
523.54	1466.35
523.74	1638.38
523.94	1517.54
524.14	1529.83
524.34	1574.89
524.54	1562.60
524.73	1597.42
524.93	1513.45
525.13	1542.12
525.33	1464.30
525.53	1671.14
525.73	1650.66
525.93	1527.78
526.13	1552.36
526.32	1568.74
526.52	1632.23
526.72	1482.73
526.92	1507.30
527.12	1591.27
527.32	1470.44
527.52	1558.50
527.71	1587.18
527.91	1544.17
528.11	1497.07
528.31	1503.21
528.51	1519.59
528.71	1550.31
528.90	1540.07
529.10	1574.89
529.30	1531.88
529.50	1478.63
529.70	1505.26
529.90	1505.26
530.09	1583.08
530.29	1515.50
530.49	1515.50
530.69	1634.28
530.89	1503.21
531.09	1560.55
531.28	1464.30
531.48	1605.61
531.68	1538.02
531.88	1550.31
532.08	1603.56
532.28	1587.18
532.47	1501.16
532.67	1587.18
532.87	1560.55
533.07	1574.89
533.27	1576.94
533.46	1621.99
533.66	1583.08
533.86	1540.07
534.06	1544.17
534.26	1568.74
534.45	1558.50
534.65	1535.98
534.85	1619.94
535.05	1558.50
535.25	1540.07
535.44	1486.83
535.64	1572.84
535.84	1558.50
536.04	1583.08
536.24	1550.31
536.43	1535.98
536.63	1589.22
536.83	1595.37
537.03	1501.16
537.22	1466.35
537.42	1452.01
537.62	1517.54
537.82	1564.65
538.02	1630.18
538.21	1601.51
538.41	1611.75
538.61	1626.09
538.81	1554.41
539.00	1591.27
539.20	1486.83
539.40	1542.12
539.60	1542.12
539.79	1566.70
539.99	1527.78
540.19	1566.70
540.39	1499.11
540.58	1583.08
540.78	1566.70
540.98	1646.57
541.18	1609.70
541.37	1576.94
541.57	1521.64
541.77	1517.54
541.97	1470.44
542.16	1488.87
542.36	1615.85
542.56	1638.38
542.76	1667.05
542.95	1529.83
543.15	1548.26
543.35	1533.93
543.54	1540.07
543.74	1544.17
543.94	1599.46
544.14	1574.89
544.33	1599.46
544.53	1585.13
544.73	1587.18
544.93	1519.59
545.12	1478.63
545.32	1497.07
545.52	1548.26
545.71	1466.35
545.91	1527.78
546.11	1523.69
546.30	1490.92
546.50	1513.45
546.70	1523.69
546.90	1558.50
547.09	1511.40
547.29	1533.93
547.49	1542.12
547.68	1630.18
547.88	1517.54
548.08	1574.89
548.27	1906.66
548.47	1474.54
548.67	1478.63
548.87	1544.17
549.06	1495.02
549.26	1486.83
549.46	1599.46
549.65	1466.35
549.85	1566.70
550.05	1554.41
550.24	1452.01
550.44	1482.73
550.64	1542.12
550.83	1574.89
551.03	1576.94
551.23	1540.07
551.42	1542.12
551.62	1548.26
551.82	1509.35
552.01	1509.35
552.21	1595.37
552.41	1544.17
552.60	1605.61
552.80	1640.42
553.00	1521.64
553.19	1554.41
553.39	1624.04
553.59	1624.04
553.78	1521.64
553.98	1570.79
554.17	1515.50
554.37	1619.94
554.57	1595.37
554.76	1523.69
554.96	1578.98
555.16	1523.69
555.35	1523.69
555.55	1531.88
555.75	1677.29
555.94	1572.84
556.14	1552.36
556.33	1535.98
556.53	1511.40
556.73	1525.74
556.92	1605.61
557.12	1630.18
557.32	1564.65
557.51	1624.04
557.71	1587.18
557.90	1650.66
558.10	1554.41
558.30	1583.08
558.49	1535.98
558.69	1511.40
558.88	1535.98
559.08	1597.42
559.28	1550.31
559.47	1587.18
559.67	1621.99
559.86	1564.65
560.06	1511.40
560.26	1558.50
560.45	1626.09
560.65	1550.31
560.84	1603.56
561.04	1585.13
561.24	1542.12
561.43	1527.78
561.63	1538.02
561.82	1503.21
562.02	1540.07
562.22	1550.31
562.41	1527.78
562.61	1517.54
562.80	1490.92
563.00	1669.09
563.19	1599.46
563.39	1581.03
563.59	1544.17
563.78	1531.88
563.98	1484.78
564.17	1533.93
564.37	1488.87
564.56	1578.98
564.76	1454.06
564.96	1646.57
565.15	1556.46
565.35	1677.29
565.54	1583.08
565.74	1554.41
565.93	1617.90
566.13	1572.84
566.32	1531.88
566.52	1693.67
566.71	1552.36
566.91	1574.89
567.11	1484.78
567.30	1585.13
567.50	1531.88
567.69	1587.18
567.89	1535.98
568.08	1527.78
568.28	1515.50
568.47	1499.11
568.67	1585.13
568.86	1560.55
569.06	1632.23
569.25	1554.41
569.45	1558.50
569.64	1576.94
569.84	1560.55
570.04	1560.55
570.23	1554.41
570.43	1581.03
570.62	1507.30
570.82	1632.23
571.01	1499.11
571.21	1535.98
571.40	1468.39
571.60	1564.65
571.79	1490.92
571.99	1591.27
572.18	1484.78
572.38	1589.22
572.57	1568.74
572.77	1531.88
572.96	1728.49
573.16	1564.65
573.35	1552.36
573.55	1587.18
573.74	1560.55
573.94	1525.74
574.13	1540.07
574.33	1644.52
574.52	1576.94
574.71	1517.54
574.91	1599.46
575.10	1521.64
575.30	1558.50
575.49	1505.26
575.69	1548.26
575.88	1558.50
576.08	1621.99
576.27	1611.75
576.47	1562.60
576.66	1662.95
576.86	1736.68
577.05	1675.24
577.25	1665.00
577.44	1691.62
577.64	1546.22
577.83	1601.51
578.02	1599.46
578.22	1656.81
578.41	1589.22
578.61	1515.50
578.80	1544.17
579.00	1507.30
579.19	1560.55
579.39	1570.79
579.58	1677.29
579.77	1576.94
579.97	1650.66
580.16	1597.42
580.36	1636.33
580.55	1613.80
580.75	1562.60
580.94	1603.56
581.13	1679.33
581.33	1687.53
581.52	1615.85
581.72	1724.39
581.91	1677.29
582.11	1644.52
582.30	1667.05
582.49	1595.37
582.69	1720.29
582.88	1611.75
583.08	1507.30
583.27	1665.00
583.47	1632.23
583.66	1638.38
583.85	1529.83
584.05	1529.83
584.24	1644.52
584.44	1621.99
584.63	1648.61
584.82	1705.96
585.02	1744.87
585.21	1746.92
585.41	1710.05
585.60	1804.26
585.79	1806.31
585.99	1814.50
586.18	1837.03
586.37	2056.16
586.57	3114.96
586.76	9463.66
586.96	27598.43
587.15	43459.94
587.34	53779.66
587.54	61238.36
587.73	59356.28
587.93	43222.38
588.12	32517.65
588.31	25605.75
588.51	22181.55
588.70	20152.01
588.89	18128.62
589.09	16877.31
589.28	15267.61
589.47	13272.89
589.67	11204.44
589.86	8769.40
590.06	6907.80
590.25	5103.54
590.44	3743.69
590.64	2904.02
590.83	2451.42
591.02	2090.98
591.22	1877.99
591.41	1746.92
591.60	1759.21
591.80	1671.14
591.99	1626.09
592.18	1619.94
592.38	1656.81
592.57	1517.54
592.76	1611.75
592.96	1648.61
593.15	1607.66
593.34	1636.33
593.54	1621.99
593.73	1624.04
593.92	1587.18
594.12	1576.94
594.31	1638.38
594.50	1726.44
594.70	1652.71
594.89	1681.38
595.08	1540.07
595.28	1597.42
595.47	1722.34
595.66	1628.14
595.86	1515.50
596.05	1546.22
596.24	1564.65
596.43	1613.80
596.63	1621.99
596.82	1652.71
597.01	1638.38
597.21	1669.09
597.40	1585.13
597.59	1531.88
597.79	1556.46
597.98	1636.33
598.17	1574.89
598.36	1587.18
598.56	1566.70
598.75	1525.74
598.94	1568.74
599.14	1621.99
599.33	1505.26
599.52	1601.51
599.71	1603.56
599.91	1621.99
600.10	1626.09
600.29	1570.79
600.48	1587.18
600.68	1511.40
600.87	1578.98
601.06	1542.12
601.26	1533.93
601.45	1486.83
601.64	1527.78
601.83	1638.38
602.03	1519.59
602.22	1462.25
602.41	1595.37
602.60	1585.13
602.80	1558.50
602.99	1574.89
603.18	1638.38
603.37	1621.99
603.57	1558.50
603.76	1617.90
603.95	1611.75
604.14	1587.18
604.34	1495.02
604.53	1507.30
604.72	1624.04
604.91	1556.46
605.10	1576.94
605.30	1499.11
605.49	1681.38
605.68	1574.89
605.87	1570.79
606.07	1540.07
606.26	1495.02
606.45	1587.18
606.64	1523.69
606.84	1591.27
607.03	1552.36
607.22	1681.38
607.41	1626.09
607.60	1593.32
607.80	1640.42
607.99	1535.98
608.18	1574.89
608.37	1509.35
608.56	1509.35
608.76	1648.61
608.95	1712.10
609.14	1636.33
609.33	1550.31
609.52	1712.10
609.72	1570.79
609.91	1677.29
610.10	1652.71
610.29	1583.08
610.48	1564.65
610.68	1574.89
610.87	1624.04
611.06	1570.79
611.25	1556.46
611.44	1607.66
611.63	1550.31
611.83	1572.84
612.02	1513.45
612.21	1595.37
612.40	1431.53
612.59	1476.59
612.79	1562.60
612.98	1544.17
613.17	1595.37
613.36	1572.84
613.55	1671.14
613.74	1591.27
613.93	1681.38
614.13	1718.25
614.32	1800.16
614.51	1775.59
614.70	1632.23
614.89	1642.47
615.08	1611.75
615.28	1902.56
615.47	1509.35
615.66	1644.52
615.85	1652.71
616.04	1734.63
616.23	1671.14
616.42	1701.86
616.62	1552.36
616.81	1638.38
617.00	1562.60
617.19	1624.04
617.38	1576.94
617.57	1603.56
617.76	1605.61
617.95	1609.70
618.15	1527.78
618.34	1630.18
618.53	1538.02
618.72	1597.42
618.91	1593.32
619.10	1630.18
619.29	1570.79
619.48	1556.46
619.68	1460.20
619.87	1581.03
620.06	1501.16
620.25	1605.61
620.44	1525.74
620.63	1533.93
620.82	1597.42
621.01	1542.12
621.20	1548.26
621.39	1542.12
621.59	1578.98
621.78	1589.22
621.97	1560.55
622.16	1570.79
622.35	1560.55
622.54	1546.22
622.73	1585.13
622.92	1523.69
623.11	1591.27
623.30	1589.22
623.49	1556.46
623.68	1495.02
623.88	1605.61
624.07	1599.46
624.26	1523.69
624.45	1564.65
624.64	1421.29
624.83	1535.98
625.02	1507.30
625.21	1501.16
625.40	1538.02
625.59	1562.60
625.78	1515.50
625.97	1609.70
626.16	1654.76
626.35	1605.61
626.54	1626.09
626.74	1621.99
626.93	1546.22
627.12	1574.89
627.31	1624.04
627.50	1587.18
627.69	1599.46
627.88	1546.22
628.07	1550.31
628.26	1517.54
628.45	1505.26
628.64	1540.07
628.83	1591.27
629.02	1581.03
629.21	1611.75
629.40	1513.45
629.59	1544.17
629.78	1515.50
629.97	1562.60
630.16	1626.09
630.35	1497.07
630.54	1501.16
630.73	1550.31
630.92	1527.78
631.11	1462.25
631.30	1607.66
631.49	1568.74
631.68	1488.87
631.87	1574.89
632.06	1449.96
632.25	1630.18
632.44	1583.08
632.63	1513.45
632.82	1570.79
633.01	1619.94
633.20	1613.80
633.39	1691.62
633.58	1558.50
633.77	1578.98
633.96	1591.27
634.15	1667.05
634.34	1583.08
634.53	1607.66
634.72	1517.54
634.91	1566.70
635.10	1611.75
635.29	1540.07
635.48	1562.60
635.67	1513.45
635.86	1507.30
636.05	1523.69
636.24	1495.02
636.43	1521.64
636.62	1542.12
636.81	1331.18
637.00	1519.59
637.19	1578.98
637.38	1568.74
637.57	1523.69
637.76	1595.37
637.95	1605.61
638.14	1650.66
638.33	1628.14
638.52	1638.38
638.71	1540.07
638.89	1503.21
639.08	1679.33
639.27	1679.33
639.46	1673.19
639.65	1929.19
639.84	2050.02
640.03	2101.22
640.22	2158.56
640.41	2220.00
640.60	1996.77
640.79	1839.08
640.98	1757.16
641.17	1697.77
641.36	1716.20
641.55	1642.47
641.74	1593.32
641.92	1619.94
642.11	1626.09
642.30	1634.28
642.49	1552.36
642.68	1556.46
642.87	1513.45
643.06	1521.64
643.25	1501.16
643.44	1490.92
643.63	1509.35
643.82	1570.79
644.00	1470.44
644.19	1525.74
644.38	1474.54
644.57	1550.31
644.76	1511.40
644.95	1495.02
645.14	1568.74
645.33	1531.88
645.52	1558.50
645.71	1495.02
645.89	1449.96
646.08	1525.74
646.27	1585.13
646.46	1605.61
646.65	1433.58
646.84	1613.80
647.03	1495.02
647.22	1578.98
647.40	1515.50
647.59	1550.31
647.78	1474.54
647.97	1544.17
648.16	1497.07
648.35	1603.56
648.54	1679.33
648.73	1495.02
648.91	1550.31
649.10	1495.02
649.29	1501.16
649.48	1533.93
649.67	1472.49
649.86	1474.54
650.05	1650.66
650.23	1716.20
650.42	1662.95
650.61	1753.06
650.80	1763.30
650.99	1732.58
651.18	1642.47
651.36	1665.00
651.55	1540.07
651.74	1648.61
651.93	1513.45
652.12	1521.64
652.31	1648.61
652.49	1583.08
652.68	1578.98
652.87	1591.27
653.06	1548.26
653.25	1609.70
653.44	1521.64
653.62	1576.94
653.81	1574.89
654.00	1517.54
654.19	1566.70
654.38	1669.09
654.56	1628.14
654.75	1527.78
654.94	1599.46
655.13	1562.60
655.32	1497.07
655.51	1574.89
655.69	1470.44
655.88	1660.90
656.07	1476.59
656.26	1654.76
656.45	1480.68
656.63	1533.93
656.82	1558.50
657.01	1662.95
657.20	1470.44
657.38	1505.26
657.57	1560.55
657.76	1501.16
657.95	1511.40
658.14	1578.98
658.32	1562.60
658.51	1492.97
658.70	1540.07
658.89	1550.31
659.08	1574.89
659.26	1675.24
659.45	1546.22
659.64	1609.70
659.83	1605.61
660.01	1734.63
660.20	1587.18
660.39	1681.38
660.58	1476.59
660.76	1591.27
660.95	1476.59
661.14	1525.74
661.33	1624.04
661.51	1538.02
661.70	1574.89
661.89	1552.36
662.08	1570.79
662.26	1482.73
662.45	1472.49
662.64	1642.47
662.83	1572.84
663.01	1566.70
663.20	1476.59
663.39	1621.99
663.58	1560.55
663.76	1519.59
663.95	1525.74
664.14	1505.26
664.32	1517.54
664.51	1509.35
664.70	1501.16
664.89	1529.83
665.07	1531.88
665.26	1550.31
665.45	1478.63
665.64	1640.42
665.82	1525.74
666.01	1595.37
666.20	1501.16
666.38	1646.57
666.57	1593.32
666.76	1781.73
666.95	2944.98
667.13	7337.87
667.32	15449.88
667.51	20053.71
667.69	23142.05
667.88	25237.12
668.07	21960.37
668.25	15732.50
668.44	12191.56
668.63	10323.81
668.81	8462.21
669.00	7794.57
669.19	7012.24
669.38	6221.73
669.56	5656.49
669.75	4829.11
669.94	4140.99
670.12	3299.28
670.31	2799.57
670.50	2375.64
670.68	2156.51
670.87	1863.65
671.06	1808.36
671.24	1822.69
671.43	1763.30
671.62	1597.42
671.80	1621.99
671.99	1605.61
672.18	1540.07
672.36	1615.85
672.55	1603.56
672.74	1556.46
672.92	1609.70
673.11	1576.94
673.29	1546.22
673.48	1589.22
673.67	1560.55
673.85	1566.70
674.04	1533.93
674.23	1611.75
674.41	1634.28
674.60	1474.54
674.79	1490.92
674.97	1527.78
675.16	1540.07
675.34	1587.18
675.53	1507.30
675.72	1509.35
675.90	1665.00
676.09	1484.78
676.28	1523.69
676.46	1454.06
676.65	1605.61
676.83	1550.31
677.02	1492.97
677.21	1535.98
677.39	1517.54
677.58	1495.02
677.77	1509.35
677.95	1480.68
678.14	1507.30
678.32	1523.69
678.51	1503.21
678.70	1656.81
678.88	1484.78
679.07	1595.37
679.25	1607.66
679.44	1525.74
679.63	1386.47
679.81	1509.35
680.00	1599.46
680.18	1527.78
680.37	1636.33
680.55	1556.46
680.74	1433.58
680.93	1492.97
681.11	1542.12
681.30	1523.69
681.48	1589.22
681.67	1490.92
681.85	1546.22
682.04	1501.16
682.23	1585.13
682.41	1558.50
682.60	1519.59
682.78	1607.66
682.97	1544.17
683.15	1558.50
683.34	1517.54
683.53	1599.46
683.71	1484.78
683.90	1609.70
684.08	1648.61
684.27	1464.30
684.45	1521.64
684.64	1564.65
684.82	1550.31
685.01	1548.26
685.19	1570.79
685.38	1570.79
685.57	1617.90
685.75	1529.83
685.94	1497.07
686.12	1531.88
686.31	1449.96
686.49	1554.41
686.68	1429.48
686.86	1523.69
687.05	1517.54
687.23	1601.51
687.42	1507.30
687.60	1495.02
687.79	1595.37
687.97	1632.23
688.16	1607.66
688.34	1601.51
688.53	1501.16
688.71	1556.46
688.90	1576.94
689.08	1470.44
689.27	1509.35
689.45	1550.31
689.64	1583.08
689.82	1542.12
690.01	1517.54
690.19	1589.22
690.38	1568.74
690.56	1597.42
690.75	1531.88
690.93	1501.16
691.12	1509.35
691.30	1511.40
691.49	1544.17
691.67	1570.79
691.86	1640.42
692.04	1519.59
692.23	1558.50
692.41	1535.98
692.60	1787.88
692.78	1667.05
692.97	1646.57
693.15	1619.94
693.34	1714.15
693.52	1611.75
693.71	1581.03
693.89	1548.26
694.08	1517.54
694.26	1564.65
694.44	1587.18
694.63	1609.70
694.81	1560.55
695.00	1452.01
695.18	1505.26
695.37	1632.23
695.55	1568.74
695.74	1529.83
695.92	1501.16
696.10	1548.26
696.29	1535.98
696.47	1540.07
696.66	1503.21
696.84	1431.53
697.03	1458.15
697.21	1609.70
697.40	2002.91
697.58	1603.56
697.76	1572.84
697.95	1544.17
698.13	1429.48
698.32	1509.35
698.50	1515.50
698.68	1544.17
698.87	1572.84
699.05	1617.90
699.24	1535.98
699.42	1527.78
699.61	1515.50
699.79	1550.31
699.97	1535.98
700.16	1492.97
700.34	1603.56
700.53	1538.02
700.71	1656.81
700.89	1585.13
701.08	1564.65
701.26	1566.70
701.45	1843.17
701.63	1535.98
701.81	1587.18
702.00	1533.93
702.18	1587.18
702.37	1550.31
702.55	1560.55
702.73	1673.19
702.92	1740.77
703.10	1800.16
703.28	1806.31
703.47	1675.24
703.65	1732.58
703.84	1699.81
704.02	1667.05
704.20	1669.09
704.39	1507.30
704.57	1585.13
704.75	1718.25
704.94	1619.94
705.12	1611.75
705.30	1669.09
705.49	1820.64
705.67	2928.60
705.86	7317.39
706.04	14581.54
706.22	18675.43
706.41	21614.26
706.59	22685.35
706.77	20790.98
706.96	14577.44
707.14	11788.11
707.32	9586.54
707.51	8611.71
707.69	7477.13
707.87	6623.13
708.06	5783.46
708.24	4853.69
708.42	3676.10
708.61	2916.31
708.79	2289.63
708.97	2007.01
709.16	1865.70
709.34	1822.69
709.52	1615.85
709.71	1609.70
709.89	1593.32
710.07	1511.40
710.26	1607.66
710.44	1617.90
710.62	1533.93
710.80	1544.17
710.99	1576.94
711.17	1515.50
711.35	1509.35
711.54	1585.13
711.72	1574.89
711.90	1546.22
712.09	1511.40
712.27	1462.25
712.45	1525.74
712.63	1550.31
712.82	1433.58
713.00	1589.22
713.18	1576.94
713.37	1583.08
713.55	1613.80
713.73	1505.26
713.91	1609.70
714.10	1464.30
714.28	1513.45
714.46	1550.31
714.65	1562.60
714.83	1531.88
715.01	1581.03
715.19	1593.32
715.38	1443.82
715.56	1550.31
715.74	1482.73
715.92	1462.25
716.11	1585.13
716.29	1509.35
716.47	1581.03
716.65	1550.31
716.84	1425.39
717.02	1560.55
717.20	1425.39
717.38	1503.21
717.57	1552.36
717.75	1605.61
717.93	1484.78
718.11	1476.59
718.30	1570.79
718.48	1542.12
718.66	1597.42
718.84	1632.23
719.03	1519.59
719.21	1507.30
719.39	1720.29
719.57	1542.12
719.75	1599.46
719.94	1505.26
720.12	1495.02
720.30	1523.69
720.48	1503.21
720.67	1449.96
720.85	1454.06
721.03	1576.94
721.21	1370.09
721.39	1585.13
721.58	1570.79
721.76	1574.89
721.94	1566.70
722.12	1527.78
722.30	1546.22
722.49	1591.27
722.67	1548.26
722.85	1558.50
723.03	1470.44
723.21	1552.36
723.40	1535.98
723.58	1593.32
723.76	1562.60
723.94	1683.43
724.12	1581.03
724.30	1658.85
724.49	1669.09
724.67	1624.04
724.85	1628.14
725.03	1499.11
725.21	1626.09
725.40	1646.57
725.58	1568.74
725.76	1677.29
725.94	1511.40
726.12	1505.26
726.30	1617.90
726.49	1560.55
726.67	1574.89
726.85	1515.50
727.03	1587.18
727.21	1683.43
727.39	2181.09
727.57	3319.76
727.76	4208.58
727.94	4763.58
728.12	5109.68
728.30	5070.77
728.48	4353.98
728.66	3559.37
728.84	3241.93
729.03	2959.31
729.21	2611.16
729.39	2269.15
729.57	2041.82
729.75	1875.94
729.93	1771.49
730.11	1578.98
730.30	1574.89
730.48	1607.66
730.66	1591.27
730.84	1523.69
731.02	1523.69
731.20	1535.98
731.38	1546.22
731.56	1570.79
731.74	1482.73
731.93	1550.31
732.11	1595.37
732.29	1533.93
732.47	1640.42
732.65	1560.55
732.83	1652.71
733.01	1591.27
733.19	1515.50
733.37	1611.75
733.56	1560.55
733.74	1472.49
733.92	1671.14
734.10	1548.26
734.28	1632.23
734.46	1480.68
734.64	1566.70
734.82	1548.26
735.00	1519.59
735.18	1474.54
735.36	1535.98
735.54	1505.26
735.73	1617.90
735.91	1445.87
736.09	1636.33
736.27	1544.17
736.45	1570.79
736.63	1449.96
736.81	1486.83
736.99	1552.36
737.17	1556.46
737.35	1499.11
737.53	1570.79
737.71	1513.45
737.89	1599.46
738.07	1521.64
738.25	1509.35
738.43	1495.02
738.61	1509.35
738.80	1560.55
738.98	1480.68
739.16	1513.45
739.34	1540.07
739.52	1621.99
739.70	1550.31
739.88	1525.74
740.06	1529.83
740.24	1392.62
740.42	1634.28
740.60	1456.11
740.78	1482.73
740.96	1478.63
741.14	1501.16
741.32	1542.12
741.50	1478.63
741.68	1601.51
741.86	1542.12
742.04	1519.59
742.22	1558.50
742.40	1560.55
742.58	1560.55
742.76	1548.26
742.94	1601.51
743.12	1460.20
743.30	1525.74
743.48	1535.98
743.66	1531.88
743.84	1533.93
744.02	1566.70
744.20	1615.85
744.38	1472.49
744.56	1409.00
744.74	1550.31
744.92	1529.83
745.10	1638.38
745.28	1482.73
745.46	1564.65
745.64	1509.35
745.82	1607.66
746.00	1495.02
746.18	1626.09
746.36	1421.29
746.54	1525.74
746.72	1474.54
746.90	1462.25
747.08	1597.42
747.26	1529.83
747.44	1621.99
747.62	1505.26
747.80	1574.89
747.98	1615.85
748.15	1454.06
748.33	1624.04
748.51	1513.45
748.69	1581.03
748.87	1544.17
749.05	1544.17
749.23	1540.07
749.41	1521.64
749.59	1501.16
749.77	1636.33
749.95	1509.35
750.13	1478.63
750.31	1468.39
750.49	1529.83
750.67	1509.35
750.85	1570.79
751.03	1562.60
751.20	1615.85
751.38	1544.17
751.56	1546.22
751.74	1572.84
751.92	1523.69
752.10	1488.87
752.28	1587.18
752.46	1482.73
752.64	1445.87
752.82	1503.21
753.00	1578.98
753.18	1576.94
753.35	1503.21
753.53	1599.46
753.71	1531.88
753.89	1578.98
754.07	1535.98
754.25	1632.23
754.43	1556.46
754.61	1480.68
754.79	1490.92
754.97	1529.83
755.14	1658.85
755.32	1484.78
755.50	1507.30
755.68	1484.78
755.86	1523.69
756.04	1535.98
756.22	1400.81
756.40	1544.17
756.57	1656.81
756.75	1503.21
756.93	1619.94
757.11	1568.74
757.29	1462.25
757.47	1456.11
757.65	1468.39
757.82	1409.00
758.00	1486.83
758.18	1447.91
758.36	1507.30
758.54	1560.55
758.72	1480.68
758.90	1619.94
759.07	1595.37
759.25	1585.13
759.43	1544.17
759.61	1472.49
759.79	1937.38
759.97	1589.22
760.15	1492.97
760.32	1538.02
760.50	1560.55
760.68	1552.36
760.86	1513.45
761.04	1636.33
761.22	1550.31
761.39	1519.59
761.57	1560.55
761.75	1458.15
761.93	1572.84
762.11	1501.16
762.28	1566.70
762.46	1427.43
762.64	1611.75
762.82	1509.35
763.00	1476.59
763.18	1689.57
763.35	1427.43
763.53	1603.56
763.71	1550.31
763.89	1587.18
764.07	1578.98
764.24	1550.31
764.42	1527.78
764.60	1527.78
764.78	1517.54
764.96	1546.22
765.13	1603.56
765.31	1427.43
765.49	1560.55
765.67	1445.87
765.84	1488.87
766.02	1456.11
766.20	1460.20
766.38	1527.78
766.56	1552.36
766.73	1601.51
766.91	1507.30
767.09	1482.73
767.27	1548.26
767.44	1456.11
767.62	1576.94
767.80	1513.45
767.98	1538.02
768.15	1533.93
768.33	1626.09
768.51	1554.41
768.69	1546.22
768.87	1531.88
769.04	1535.98
769.22	1665.00
769.40	1609.70
769.58	1628.14
769.75	1562.60
769.93	1542.12
770.11	1568.74
770.28	1486.83
770.46	1540.07
770.64	1572.84
770.82	1558.50
770.99	1472.49
771.17	1546.22
771.35	1540.07
771.53	1562.60
771.70	1492.97
771.88	1566.70
772.06	1554.41
772.23	1578.98
772.41	1511.40
772.59	1558.50
772.77	1435.63
772.94	1501.16
773.12	1576.94
773.30	1488.87
773.47	1488.87
773.65	1503.21
773.83	1603.56
774.01	1533.93
774.18	1492.97
774.36	1519.59
774.54	1505.26
774.71	1441.77
774.89	1429.48
775.07	1513.45
775.24	1454.06
775.42	1478.63
775.60	1656.81
775.78	1470.44
775.95	1466.35
776.13	1521.64
776.31	1472.49
776.48	1511.40
776.66	1589.22
776.84	1552.36
777.01	1511.40
777.19	1497.07
777.37	1484.78
777.54	1542.12
777.72	1656.81
777.90	1546.22
778.07	1511.40
778.25	1681.38
778.43	1591.27
778.60	1474.54
778.78	1562.60
778.96	1591.27
779.13	1492.97
779.31	1564.65
779.49	1499.11
779.66	1529.83
779.84	1564.65
780.01	1597.42
780.19	1427.43
780.37	1531.88
780.54	1564.65
780.72	1492.97
780.90	1562.60
781.07	1511.40
781.25	1492.97
781.43	1585.13
781.60	1474.54
781.78	1599.46
781.95	1558.50
782.13	1445.87
782.31	1515.50
782.48	1478.63
782.66	1484.78
782.83	1556.46
783.01	1482.73
783.19	1585.13
783.36	1478.63
783.54	1497.07
783.72	1566.70
783.89	1564.65
784.07	1505.26
784.24	1556.46
784.42	1634.28
784.60	1519.59
784.77	1632.23
784.95	1421.29
785.12	1589.22
785.30	1480.68
785.47	1505.26
785.65	1513.45
785.83	1527.78
786.00	1527.78
786.18	1550.31
786.35	1439.72
786.53	1525.74
786.71	1558.50
786.88	1609.70
787.06	1540.07
787.23	1558.50
787.41	1460.20
787.58	1492.97
787.76	1505.26
787.94	1568.74
788.11	1542.12
788.29	1525.74
788.46	1548.26
788.64	1505.26
788.81	1501.16
788.99	1523.69
789.16	1495.02
789.34	1558.50
789.52	1538.02
789.69	1495.02
789.87	1460.20
790.04	1505.26
790.22	1550.31
790.39	1595.37
790.57	1507.30
790.74	1505.26
790.92	1576.94
791.09	1462.25
791.27	1599.46
791.44	1566.70
791.62	1548.26
791.79	1527.78
791.97	1529.83
792.15	1705.96
792.32	1546.22
792.50	1570.79
792.67	1658.85
792.85	1576.94
793.02	1566.70
793.20	1509.35
793.37	1456.11
793.55	1566.70
793.72	1509.35
793.90	1574.89
794.07	1490.92
794.25	1505.26
794.42	1589.22
794.60	1521.64
794.77	1626.09
794.95	1544.17
795.12	1593.32
795.30	1566.70
795.47	1441.77
795.65	1642.47
795.82	1583.08
796.00	1527.78
796.17	1480.68
796.34	1497.07
796.52	1521.64
796.69	1578.98
796.87	1591.27
797.04	1566.70
797.22	1646.57
797.39	1574.89
797.57	1642.47
797.74	1540.07
797.92	1560.55
798.09	1527.78
798.27	1556.46
798.44	1529.83
798.62	1632.23
798.79	1521.64
798.96	1529.83
799.14	1513.45
799.31	1720.29
799.49	1544.17
799.66	1527.78
799.84	1550.31
800.01	1509.35
800.19	1546.22
800.36	1449.96
800.53	1533.93
800.71	1544.17
800.88	1607.66
801.06	1499.11
801.23	1517.54
801.41	1566.70
801.58	1497.07
801.75	1554.41
801.93	1560.55
802.10	1542.12
802.28	1546.22
802.45	1486.83
802.63	1560.55
802.80	1548.26
802.97	1589.22
803.15	1560.55
803.32	1478.63
803.50	1505.26
803.67	1538.02
803.84	1421.29
804.02	1544.17
804.19	1515.50
804.37	1525.74
804.54	1456.11
804.71	1560.55
804.89	1531.88
805.06	1488.87
805.24	1495.02
805.41	1452.01
805.58	1509.35
805.76	1654.76
805.93	1501.16
806.10	1570.79
806.28	1615.85
806.45	1626.09
806.63	1562.60
806.80	1607.66
806.97	1531.88
807.15	1484.78
807.32	1490.92
807.49	1624.04
807.67	1468.39
807.84	1474.54
808.01	1423.34
808.19	1636.33
808.36	1679.33
808.54	1423.34
808.71	1472.49
808.88	1511.40
809.06	1630.18
809.23	1615.85
809.40	1515.50
809.58	1583.08
809.75	1486.83
809.92	1531.88
810.10	1601.51
810.27	1443.82
810.44	1533.93
810.62	1517.54
810.79	1533.93
810.96	1533.93
811.14	1501.16
811.31	1593.32
811.48	1531.88
811.66	1542.12
811.83	1566.70
812.00	1587.18
812.18	1550.31
812.35	1576.94
812.52	1519.59
812.69	1570.79
812.87	1533.93
813.04	1470.44
813.21	1505.26
813.39	1486.83
813.56	1472.49
813.73	1595.37
813.91	1454.06
814.08	1570.79
814.25	1568.74
814.42	1472.49
814.60	1527.78
814.77	1501.16
814.94	1509.35
815.12	1511.40
815.29	1560.55
815.46	1490.92
815.63	1576.94
815.81	1529.83
815.98	1535.98
816.15	1568.74
816.33	1488.87
816.50	1564.65
816.67	1542.12
816.84	1554.41
817.02	1445.87
817.19	1560.55
817.36	1533.93
817.53	1617.90
817.71	1544.17
817.88	1521.64
818.05	1572.84
818.22	1546.22
818.40	1613.80
818.57	1615.85
818.74	1581.03
818.91	1535.98
819.09	1542.12
819.26	1507.30
819.43	1462.25
819.60	1445.87
819.78	1574.89
819.95	1601.51
820.12	1411.05
820.29	1591.27
820.47	1495.02
820.64	1435.63
820.81	1511.40
820.98	1488.87
821.15	1472.49
821.33	1601.51
821.50	1470.44
821.67	1587.18
821.84	1562.60
822.02	1587.18
822.19	1589.22
822.36	1521.64
822.53	1574.89
822.70	1556.46
822.88	1472.49
823.05	1578.98
823.22	1607.66
823.39	1540.07
823.56	1464.30
823.74	1613.80
823.91	1488.87
824.08	1460.20
824.25	1501.16
824.42	1615.85
824.60	1509.35
824.77	1626.09
824.94	1441.77
825.11	1566.70
825.28	1552.36
825.45	1513.45
825.63	1503.21
825.80	1535.98
825.97	1599.46
826.14	1544.17
826.31	1505.26
826.48	1603.56
826.66	1492.97
826.83	1521.64
827.00	1464.30
827.17	1427.43
827.34	1476.59
827.51	1435.63
827.69	1521.64
827.86	1533.93
828.03	1568.74
828.20	1554.41
828.37	1482.73
828.54	1595.37
828.71	1490.92
828.89	1599.46
829.06	1486.83
829.23	1601.51
829.40	1531.88
829.57	1495.02
829.74	1540.07
829.91	1486.83
830.09	1517.54
830.26	1626.09
830.43	1624.04
830.60	1597.42
830.77	1578.98
830.94	1581.03
831.11	1546.22
831.28	1513.45
831.46	1505.26
831.63	1570.79
831.80	1568.74
831.97	1521.64
832.14	1581.03
832.31	1552.36
832.48	1593.32
832.65	1589.22
832.82	1531.88
832.99	1597.42
833.17	1505.26
833.34	1617.90
833.51	1662.95
833.68	1419.24
833.85	1544.17
834.02	1423.34
834.19	1572.84
834.36	1621.99
834.53	1591.27
834.70	1650.66
834.87	1570.79
835.04	1568.74
835.22	1505.26
835.39	1474.54
835.56	1507.30
835.73	1482.73
835.90	1599.46
836.07	1435.63
836.24	1542.12
836.41	1542.12
836.58	1587.18
836.75	1662.95
836.92	1603.56
837.09	1558.50
837.26	1519.59
837.43	1533.93
837.60	1570.79
837.77	1554.41
837.94	1562.60
838.12	1675.24
838.29	1556.46
838.46	1482.73
838.63	1411.05
838.80	1564.65
838.97	1581.03
839.14	1603.56
839.31	1562.60
839.48	1576.94
839.65	1527.78
839.82	1517.54
839.99	1492.97
840.16	1521.64
840.33	1538.02
840.50	1583.08
840.67	1478.63
840.84	1462.25
841.01	1503.21
841.18	1562.60
841.35	1417.19
841.52	1578.98
841.69	1581.03
841.86	1505.26
842.03	1507.30
842.20	1538.02
842.37	1574.89
842.54	1568.74
842.71	1552.36
842.88	1452.01
843.05	1599.46
843.22	1501.16
843.39	1517.54
843.56	1533.93
843.73	1515.50
843.90	1513.45
844.07	1517.54
844.24	1556.46
844.41	1531.88
844.58	1607.66
844.75	1564.65
844.92	1591.27
845.09	1550.31
845.26	1552.36
845.43	1570.79
845.60	1509.35
845.77	1587.18
845.94	1525.74
846.10	1554.41
846.27	1400.81
846.44	1497.07
846.61	1501.16
846.78	1597.42
846.95	1546.22
847.12	1535.98
847.29	1548.26
847.46	1437.67
847.63	1513.45
847.80	1427.43
847.97	1468.39
848.14	1615.85
848.31	1525.74
848.48	1492.97
848.65	1513.45
848.82	1431.53
848.98	1689.57
849.15	1517.54
849.32	1615.85
849.49	1585.13
849.66	1558.50
849.83	1546.22
850.00	1525.74
850.17	1581.03
850.34	1556.46
850.51	1492.97
850.68	1503.21
850.85	1601.51
851.01	1544.17
851.18	1513.45
851.35	1466.35
851.52	1515.50
851.69	1507.30
851.86	1400.81
852.03	1456.11
852.20	1564.65
852.37	1540.07
852.53	1423.34
852.70	1529.83
852.87	1529.83
853.04	1519.59
853.21	1552.36
853.38	1595.37
853.55	1589.22
853.72	1564.65
853.89	1501.16
854.05	1503.21
854.22	1589.22
854.39	1550.31
854.56	1597.42
854.73	1574.89
854.90	1499.11
855.07	1535.98
855.23	1460.20
855.40	1525.74
855.57	1531.88
855.74	1458.15
855.91	1705.96
856.08	1421.29
856.25	1554.41
856.41	1542.12
856.58	1540.07
856.75	1509.35
856.92	1480.68
857.09	1550.31
857.26	1552.36
857.42	1468.39
857.59	1521.64
857.76	1503.21
857.93	1492.97
858.10	1570.79
858.27	1462.25
858.43	1527.78
858.60	1460.20
858.77	1441.77
858.94	1572.84
859.11	1554.41
859.27	1511.40
859.44	1546.22
859.61	1566.70
859.78	1511.40
859.95	1499.11
860.12	1495.02
860.28	1652.71
860.45	1665.00
860.62	1499.11
860.79	1454.06
860.95	1556.46
861.12	1562.60
861.29	1484.78
861.46	1470.44
861.63	1531.88
861.79	1558.50
861.96	1533.93
862.13	1525.74
862.30	1515.50
862.47	1492.97
862.63	1449.96
862.80	1544.17
862.97	1572.84
863.14	1470.44
863.30	1552.36
863.47	1472.49
863.64	1660.90
863.81	1615.85
863.97	1538.02
864.14	1501.16
864.31	1478.63
864.48	1509.35
864.65	1531.88
864.81	1587.18
864.98	1607.66
865.15	1562.60
865.32	1519.59
865.48	1533.93
865.65	1597.42
865.82	1527.78
865.98	1568.74
866.15	1607.66
866.32	1511.40
866.49	1564.65
866.65	1589.22
866.82	1542.12
866.99	1507.30
867.16	1513.45
867.32	1560.55
867.49	1531.88
867.66	1476.59
867.83	1452.01
867.99	1458.15
868.16	1521.64
868.33	1523.69
868.49	1566.70
868.66	1468.39
868.83	1648.61
868.99	1497.07
869.16	1497.07
869.33	1525.74
869.50	1572.84
869.66	1519.59
869.83	1560.55
870.00	1558.50
870.16	1544.17
870.33	1460.20
870.50	1546.22
870.66	1621.99
870.83	1644.52
871.00	1591.27
871.17	1603.56
871.33	1560.55
871.50	1542.12
871.67	1484.78
871.83	1501.16
872.00	1611.75
872.17	1497.07
872.33	1615.85
872.50	1689.57
872.67	1470.44
872.83	1458.15
873.00	1511.40
873.17	1531.88
873.33	1538.02
873.50	1609.70
873.67	1476.59
873.83	1355.76
874.00	1556.46
874.16	1495.02
874.33	1517.54
874.50	1454.06
874.66	1570.79
874.83	1525.74
875.00	1562.60
875.16	1570.79
875.33	1535.98
875.50	1376.24
875.66	1388.52
875.83	1554.41
875.99	1583.08
876.16	1542.12
876.33	1445.87
876.49	1519.59
876.66	1652.71
876.83	1495.02
876.99	1521.64
877.16	1585.13
877.32	1560.55
877.49	1581.03
877.66	1505.26
877.82	1593.32
877.99	1529.83
878.15	1581.03
878.32	1531.88
878.49	1542.12
878.65	1542.12
878.82	1542.12
878.98	1552.36
879.15	1533.93
879.32	1535.98
879.48	1558.50
879.65	1521.64
879.81	1568.74
879.98	1525.74
880.15	1517.54
880.31	1515.50
880.48	1417.19
880.64	1562.60
880.81	1478.63
880.97	1619.94
881.14	1478.63
881.31	1492.97
881.47	1632.23
881.64	1499.11
881.80	1478.63
881.97	1615.85
882.13	1624.04
882.30	1460.20
882.47	1495.02
882.63	1513.45
882.80	1462.25
882.96	1517.54
883.13	1587.18
883.29	1548.26
883.46	1607.66
883.62	1603.56
883.79	1480.68
883.95	1546.22
884.12	1542.12
884.29	1634.28
884.45	1546.22
884.62	1570.79
884.78	1488.87
884.95	1630.18
885.11	1456.11
885.28	1568.74
885.44	1525.74
885.61	1460.20
885.77	1517.54
885.94	1546.22
886.10	1474.54
886.27	1552.36
886.43	1576.94
886.60	1611.75
886.76	1519.59
886.93	1484.78
887.09	1554.41
887.26	1495.02
887.42	1501.16
887.59	1538.02
887.75	1650.66
887.92	1648.61
888.08	1554.41
888.25	1660.90
888.41	1607.66
888.58	1476.59
888.74	1484.78
888.91	1568.74
>>>>>End Processed Spectral Data<<<<<
