SpectraSuite Data File
++++++++++++++++++++++++++++++++++++
Date: Tue May 03 12:55:17 CEST 2016
User: root
Dark Spectrum Present: No
Reference Spectrum Present: No
Number of Sampled Component Spectra: 1
Spectrometers: USB4C02835
Integration Time (usec): 100000 (USB4C02835)
Spectra Averaged: 1 (USB4C02835)
Boxcar Smoothing: 0 (USB4C02835)
Correct for Electrical Dark: No (USB4C02835)
Strobe/Lamp Enabled: No (USB4C02835)
Correct for Detector Non-linearity: No (USB4C02835)
Correct for Stray Light: No (USB4C02835)
Number of Pixels in Processed Spectrum: 3648
>>>>>Begin Processed Spectral Data<<<<<
177.47	1443.82
177.69	1443.82
177.91	1443.82
178.13	1325.04
178.36	1419.24
178.58	1468.39
178.80	1605.61
179.02	1421.29
179.24	1531.88
179.46	1460.20
179.68	1636.33
179.90	1535.98
180.13	1517.54
180.35	1449.96
180.57	1558.50
180.79	1570.79
181.01	1464.30
181.23	1581.03
181.45	1523.69
181.67	1574.89
181.90	1576.94
182.12	1495.02
182.34	1445.87
182.56	1566.70
182.78	1517.54
183.00	1501.16
183.22	1572.84
183.44	1497.07
183.66	1644.52
183.89	1566.70
184.11	1589.22
184.33	1576.94
184.55	1572.84
184.77	1540.07
184.99	1527.78
185.21	1499.11
185.43	1691.62
185.65	1482.73
185.87	1556.46
186.10	1613.80
186.32	1609.70
186.54	1503.21
186.76	1515.50
186.98	1562.60
187.20	1478.63
187.42	1527.78
187.64	1503.21
187.86	1617.90
188.08	1634.28
188.30	1542.12
188.52	1517.54
188.75	1574.89
188.97	1583.08
189.19	1476.59
189.41	1445.87
189.63	1607.66
189.85	1505.26
190.07	1480.68
190.29	1476.59
190.51	1564.65
190.73	1443.82
190.95	1652.71
191.17	1542.12
191.39	1486.83
191.61	1556.46
191.84	1568.74
192.06	1517.54
192.28	1499.11
192.50	1681.38
192.72	1574.89
192.94	1564.65
193.16	1599.46
193.38	1480.68
193.60	1435.63
193.82	1495.02
194.04	1593.32
194.26	1542.12
194.48	1452.01
194.70	1574.89
194.92	1519.59
195.14	1601.51
195.36	1460.20
195.58	1544.17
195.80	1548.26
196.02	1574.89
196.24	1538.02
196.46	1609.70
196.69	1513.45
196.91	1611.75
197.13	1544.17
197.35	1517.54
197.57	1605.61
197.79	1507.30
198.01	1513.45
198.23	1560.55
198.45	1597.42
198.67	1515.50
198.89	1609.70
199.11	1550.31
199.33	1497.07
199.55	1460.20
199.77	1560.55
199.99	1599.46
200.21	1560.55
200.43	1523.69
200.65	1425.39
200.87	1452.01
201.09	1540.07
201.31	1497.07
201.53	1603.56
201.75	1544.17
201.97	1597.42
202.19	1523.69
202.41	1486.83
202.63	1591.27
202.85	1589.22
203.07	1578.98
203.29	1505.26
203.51	1468.39
203.73	1525.74
203.95	1644.52
204.17	1550.31
204.39	1560.55
204.61	1533.93
204.83	1548.26
205.05	1535.98
205.27	1613.80
205.49	1648.61
205.71	1509.35
205.93	1447.91
206.15	1492.97
206.37	1533.93
206.59	1546.22
206.81	1497.07
207.03	1533.93
207.25	1495.02
207.47	1574.89
207.69	1566.70
207.91	1658.85
208.13	1621.99
208.34	1576.94
208.56	1527.78
208.78	1613.80
209.00	1507.30
209.22	1576.94
209.44	1439.72
209.66	1533.93
209.88	1535.98
210.10	1501.16
210.32	1525.74
210.54	1697.77
210.76	1495.02
210.98	1538.02
211.20	1478.63
211.42	1533.93
211.64	1570.79
211.86	1540.07
212.08	1556.46
212.30	1558.50
212.52	1552.36
212.74	1523.69
212.96	1601.51
213.17	1527.78
213.39	1578.98
213.61	1576.94
213.83	1566.70
214.05	1474.54
214.27	1605.61
214.49	1499.11
214.71	1525.74
214.93	1519.59
215.15	1497.07
215.37	1578.98
215.59	1495.02
215.81	1587.18
216.03	1538.02
216.24	1509.35
216.46	1503.21
216.68	1476.59
216.90	1595.37
217.12	1646.57
217.34	1544.17
217.56	1527.78
217.78	1617.90
218.00	1628.14
218.22	1538.02
218.44	1527.78
218.66	1634.28
218.87	1617.90
219.09	1540.07
219.31	1466.35
219.53	1535.98
219.75	1517.54
219.97	1544.17
220.19	1484.78
220.41	1560.55
220.63	1574.89
220.85	1519.59
221.06	1531.88
221.28	1644.52
221.50	1538.02
221.72	1544.17
221.94	1587.18
222.16	1546.22
222.38	1550.31
222.60	1515.50
222.82	1531.88
223.03	1597.42
223.25	1505.26
223.47	1587.18
223.69	1634.28
223.91	1597.42
224.13	1546.22
224.35	1443.82
224.57	1634.28
224.78	1538.02
225.00	1458.15
225.22	1558.50
225.44	1523.69
225.66	1589.22
225.88	1478.63
226.10	1681.38
226.32	1527.78
226.53	1615.85
226.75	1484.78
226.97	1607.66
227.19	1521.64
227.41	1497.07
227.63	1488.87
227.85	1519.59
228.06	1519.59
228.28	1527.78
228.50	1503.21
228.72	1521.64
228.94	1570.79
229.16	1466.35
229.37	1544.17
229.59	1490.92
229.81	1597.42
230.03	1517.54
230.25	1521.64
230.47	1570.79
230.69	1462.25
230.90	1589.22
231.12	1544.17
231.34	1544.17
231.56	1568.74
231.78	1474.54
232.00	1521.64
232.21	1505.26
232.43	1452.01
232.65	1497.07
232.87	1519.59
233.09	1454.06
233.30	1503.21
233.52	1505.26
233.74	1583.08
233.96	1486.83
234.18	1593.32
234.40	1474.54
234.61	1595.37
234.83	1462.25
235.05	1462.25
235.27	1607.66
235.49	1546.22
235.70	1509.35
235.92	1581.03
236.14	1587.18
236.36	1679.33
236.58	1466.35
236.79	1640.42
237.01	1505.26
237.23	1503.21
237.45	1640.42
237.67	1521.64
237.88	1523.69
238.10	1656.81
238.32	1568.74
238.54	1546.22
238.76	1509.35
238.97	1460.20
239.19	1546.22
239.41	1554.41
239.63	1495.02
239.85	1505.26
240.06	1572.84
240.28	1576.94
240.50	1574.89
240.72	1521.64
240.93	1564.65
241.15	1492.97
241.37	1548.26
241.59	1554.41
241.81	1574.89
242.02	1615.85
242.24	1630.18
242.46	1488.87
242.68	1490.92
242.89	1521.64
243.11	1521.64
243.33	1535.98
243.55	1603.56
243.76	1544.17
243.98	1570.79
244.20	1505.26
244.42	1593.32
244.64	1617.90
244.85	1464.30
245.07	1554.41
245.29	1576.94
245.51	1542.12
245.72	1554.41
245.94	1615.85
246.16	1609.70
246.38	1564.65
246.59	1476.59
246.81	1550.31
247.03	1507.30
247.24	1517.54
247.46	1478.63
247.68	1546.22
247.90	1578.98
248.11	1560.55
248.33	1607.66
248.55	1546.22
248.77	1585.13
248.98	1560.55
249.20	1619.94
249.42	1488.87
249.64	1583.08
249.85	1505.26
250.07	1550.31
250.29	1533.93
250.50	1576.94
250.72	1452.01
250.94	1562.60
251.16	1691.62
251.37	1529.83
251.59	1525.74
251.81	1507.30
252.02	1632.23
252.24	1521.64
252.46	1574.89
252.68	1423.34
252.89	1533.93
253.11	1429.48
253.33	1603.56
253.54	1617.90
253.76	1505.26
253.98	1593.32
254.20	1572.84
254.41	1519.59
254.63	1497.07
254.85	1468.39
255.06	1527.78
255.28	1544.17
255.50	1468.39
255.71	1490.92
255.93	1466.35
256.15	1525.74
256.36	1560.55
256.58	1505.26
256.80	1560.55
257.02	1499.11
257.23	1480.68
257.45	1624.04
257.67	1533.93
257.88	1529.83
258.10	1538.02
258.32	1503.21
258.53	1560.55
258.75	1581.03
258.97	1503.21
259.18	1499.11
259.40	1486.83
259.62	1591.27
259.83	1585.13
260.05	1593.32
260.27	1834.98
260.48	1544.17
260.70	1519.59
260.92	1607.66
261.13	1558.50
261.35	1521.64
261.57	1495.02
261.78	1464.30
262.00	1488.87
262.22	1576.94
262.43	1527.78
262.65	1587.18
262.86	1533.93
263.08	1621.99
263.30	1527.78
263.51	1509.35
263.73	1495.02
263.95	1560.55
264.16	1490.92
264.38	1546.22
264.60	1562.60
264.81	1499.11
265.03	1501.16
265.25	1576.94
265.46	1460.20
265.68	1599.46
265.89	1613.80
266.11	1492.97
266.33	1640.42
266.54	1609.70
266.76	1574.89
266.98	1566.70
267.19	1568.74
267.41	1595.37
267.62	1468.39
267.84	1558.50
268.06	1615.85
268.27	1556.46
268.49	1538.02
268.70	1576.94
268.92	1583.08
269.14	1519.59
269.35	1421.29
269.57	1488.87
269.79	1605.61
270.00	1517.54
270.22	1628.14
270.43	1626.09
270.65	1423.34
270.87	1515.50
271.08	1513.45
271.30	1531.88
271.51	1552.36
271.73	1521.64
271.95	1574.89
272.16	1581.03
272.38	1603.56
272.59	1429.48
272.81	1490.92
273.02	1562.60
273.24	1523.69
273.46	1597.42
273.67	1501.16
273.89	1499.11
274.10	1476.59
274.32	1634.28
274.54	1462.25
274.75	1626.09
274.97	1492.97
275.18	1548.26
275.40	1599.46
275.61	1538.02
275.83	1523.69
276.05	1501.16
276.26	1480.68
276.48	1574.89
276.69	1548.26
276.91	1464.30
277.12	1576.94
277.34	1566.70
277.55	1562.60
277.77	1542.12
277.99	1550.31
278.20	1486.83
278.42	1464.30
278.63	1492.97
278.85	1533.93
279.06	1495.02
279.28	1546.22
279.49	1570.79
279.71	1542.12
279.93	1509.35
280.14	1531.88
280.36	1558.50
280.57	1544.17
280.79	1548.26
281.00	1599.46
281.22	1476.59
281.43	1568.74
281.65	1433.58
281.86	1519.59
282.08	1476.59
282.29	1515.50
282.51	1533.93
282.73	1484.78
282.94	1431.53
283.16	1495.02
283.37	1636.33
283.59	1560.55
283.80	1556.46
284.02	1497.07
284.23	1521.64
284.45	1482.73
284.66	1523.69
284.88	1495.02
285.09	1570.79
285.31	1544.17
285.52	1548.26
285.74	1452.01
285.95	1525.74
286.17	1603.56
286.38	1486.83
286.60	1523.69
286.81	1517.54
287.03	1460.20
287.24	1519.59
287.46	1521.64
287.67	1564.65
287.89	1587.18
288.10	1488.87
288.32	1581.03
288.53	1593.32
288.75	1556.46
288.96	1554.41
289.18	1411.05
289.39	1523.69
289.61	1503.21
289.82	1632.23
290.04	1652.71
290.25	1499.11
290.47	1644.52
290.68	1499.11
290.90	1669.09
291.11	1454.06
291.33	1585.13
291.54	1574.89
291.76	1503.21
291.97	1583.08
292.18	1558.50
292.40	1511.40
292.61	1503.21
292.83	1624.04
293.04	1599.46
293.26	1556.46
293.47	1501.16
293.69	1535.98
293.90	1556.46
294.12	1587.18
294.33	1591.27
294.55	1535.98
294.76	1574.89
294.97	1587.18
295.19	1607.66
295.40	1521.64
295.62	1554.41
295.83	1550.31
296.05	1447.91
296.26	1554.41
296.48	1507.30
296.69	1517.54
296.90	1529.83
297.12	1558.50
297.33	1576.94
297.55	1621.99
297.76	1570.79
297.98	1619.94
298.19	1566.70
298.41	1517.54
298.62	1527.78
298.83	1542.12
299.05	1507.30
299.26	1566.70
299.48	1490.92
299.69	1585.13
299.90	1501.16
300.12	1445.87
300.33	1615.85
300.55	1560.55
300.76	1507.30
300.98	1511.40
301.19	1562.60
301.40	1535.98
301.62	1605.61
301.83	1587.18
302.05	1552.36
302.26	1583.08
302.47	1548.26
302.69	1515.50
302.90	1517.54
303.12	1400.81
303.33	1544.17
303.54	1642.47
303.76	1558.50
303.97	1576.94
304.19	1656.81
304.40	1513.45
304.61	1531.88
304.83	1605.61
305.04	1591.27
305.26	1560.55
305.47	1523.69
305.68	1482.73
305.90	1503.21
306.11	1542.12
306.33	1486.83
306.54	1525.74
306.75	1589.22
306.97	1542.12
307.18	1511.40
307.39	1517.54
307.61	1517.54
307.82	1476.59
308.04	1562.60
308.25	1488.87
308.46	1548.26
308.68	1544.17
308.89	1554.41
309.10	1617.90
309.32	1576.94
309.53	1558.50
309.74	1583.08
309.96	1511.40
310.17	1640.42
310.39	1535.98
310.60	1570.79
310.81	1509.35
311.03	1447.91
311.24	1499.11
311.45	1492.97
311.67	1597.42
311.88	1673.19
312.09	1540.07
312.31	1531.88
312.52	1552.36
312.73	1574.89
312.95	1431.53
313.16	1492.97
313.37	1624.04
313.59	1583.08
313.80	1613.80
314.01	1607.66
314.23	1482.73
314.44	1507.30
314.65	1431.53
314.87	1540.07
315.08	1533.93
315.29	1460.20
315.51	1546.22
315.72	1488.87
315.93	1607.66
316.15	1550.31
316.36	1482.73
316.57	1492.97
316.79	1662.95
317.00	1521.64
317.21	1566.70
317.43	1591.27
317.64	1523.69
317.85	1495.02
318.07	1515.50
318.28	1656.81
318.49	1732.58
318.70	1794.02
318.92	1712.10
319.13	1626.09
319.34	1667.05
319.56	1654.76
319.77	1703.91
319.98	1626.09
320.20	1581.03
320.41	1576.94
320.62	1556.46
320.83	1568.74
321.05	1619.94
321.26	1554.41
321.47	1529.83
321.69	1599.46
321.90	1519.59
322.11	1513.45
322.32	1556.46
322.54	1644.52
322.75	1572.84
322.96	1556.46
323.18	1478.63
323.39	1378.28
323.60	1574.89
323.81	1574.89
324.03	1474.54
324.24	1552.36
324.45	1538.02
324.66	1513.45
324.88	1632.23
325.09	1619.94
325.30	1556.46
325.52	1599.46
325.73	1574.89
325.94	1515.50
326.15	1501.16
326.37	1533.93
326.58	1576.94
326.79	1607.66
327.00	1515.50
327.22	1507.30
327.43	1480.68
327.64	1507.30
327.85	1566.70
328.07	1615.85
328.28	1554.41
328.49	1466.35
328.70	1560.55
328.92	1578.98
329.13	1607.66
329.34	1501.16
329.55	1599.46
329.76	1495.02
329.98	1533.93
330.19	1669.09
330.40	1523.69
330.61	1529.83
330.83	1492.97
331.04	1503.21
331.25	1587.18
331.46	1490.92
331.68	1523.69
331.89	1542.12
332.10	1556.46
332.31	1505.26
332.52	1503.21
332.74	1556.46
332.95	1497.07
333.16	1492.97
333.37	1490.92
333.58	1503.21
333.80	1527.78
334.01	1427.43
334.22	1529.83
334.43	1542.12
334.64	1529.83
334.86	1441.77
335.07	1501.16
335.28	1578.98
335.49	1476.59
335.70	1525.74
335.92	1615.85
336.13	1615.85
336.34	1519.59
336.55	1482.73
336.76	1521.64
336.98	1466.35
337.19	1492.97
337.40	1628.14
337.61	1621.99
337.82	1527.78
338.04	1607.66
338.25	1411.05
338.46	1581.03
338.67	1482.73
338.88	1486.83
339.09	1517.54
339.31	1427.43
339.52	1460.20
339.73	1431.53
339.94	1560.55
340.15	1497.07
340.36	1490.92
340.58	1554.41
340.79	1478.63
341.00	1585.13
341.21	1437.67
341.42	1628.14
341.63	1535.98
341.85	1578.98
342.06	1611.75
342.27	1447.91
342.48	1509.35
342.69	1482.73
342.90	1546.22
343.12	1523.69
343.33	1527.78
343.54	1540.07
343.75	1646.57
343.96	1515.50
344.17	1517.54
344.38	1509.35
344.60	1507.30
344.81	1454.06
345.02	1497.07
345.23	1597.42
345.44	1658.85
345.65	1576.94
345.86	1554.41
346.07	1613.80
346.29	1468.39
346.50	1566.70
346.71	1525.74
346.92	1585.13
347.13	1644.52
347.34	1519.59
347.55	1468.39
347.76	1591.27
347.98	1406.95
348.19	1525.74
348.40	1589.22
348.61	1456.11
348.82	1597.42
349.03	1648.61
349.24	1474.54
349.45	1671.14
349.66	1427.43
349.88	1484.78
350.09	1558.50
350.30	1607.66
350.51	1593.32
350.72	1550.31
350.93	1603.56
351.14	1488.87
351.35	1556.46
351.56	1538.02
351.77	1429.48
351.99	1605.61
352.20	1615.85
352.41	1636.33
352.62	1503.21
352.83	1556.46
353.04	1517.54
353.25	1447.91
353.46	1521.64
353.67	1609.70
353.88	1460.20
354.09	1578.98
354.30	1488.87
354.52	1578.98
354.73	1601.51
354.94	1501.16
355.15	1517.54
355.36	1640.42
355.57	1478.63
355.78	1515.50
355.99	1574.89
356.20	1521.64
356.41	1619.94
356.62	1583.08
356.83	1480.68
357.04	1632.23
357.25	1413.10
357.46	1531.88
357.68	1439.72
357.89	1456.11
358.10	1515.50
358.31	1576.94
358.52	1564.65
358.73	1435.63
358.94	1482.73
359.15	1443.82
359.36	1480.68
359.57	1499.11
359.78	1505.26
359.99	1566.70
360.20	1546.22
360.41	1564.65
360.62	1554.41
360.83	1476.59
361.04	1564.65
361.25	1552.36
361.46	1570.79
361.67	1505.26
361.88	1521.64
362.09	1529.83
362.30	1587.18
362.51	1538.02
362.72	1548.26
362.93	1638.38
363.14	1617.90
363.35	1570.79
363.56	1550.31
363.78	1556.46
363.99	1533.93
364.20	1542.12
364.41	1585.13
364.62	1695.72
364.83	1542.12
365.04	1501.16
365.25	1546.22
365.46	1665.00
365.67	1509.35
365.88	1449.96
366.09	1499.11
366.30	1519.59
366.51	1542.12
366.72	1417.19
366.93	1556.46
367.14	1601.51
367.35	1560.55
367.56	1558.50
367.77	1599.46
367.98	1466.35
368.18	1523.69
368.39	1441.77
368.60	1472.49
368.81	1583.08
369.02	1540.07
369.23	1552.36
369.44	1456.11
369.65	1548.26
369.86	1546.22
370.07	1595.37
370.28	1499.11
370.49	1607.66
370.70	1544.17
370.91	1482.73
371.12	1492.97
371.33	1599.46
371.54	1538.02
371.75	1636.33
371.96	1443.82
372.17	1535.98
372.38	1437.67
372.59	1599.46
372.80	1617.90
373.01	1478.63
373.22	1587.18
373.43	1478.63
373.64	1482.73
373.85	1652.71
374.06	1652.71
374.26	1638.38
374.47	1511.40
374.68	1615.85
374.89	1497.07
375.10	1564.65
375.31	1480.68
375.52	1603.56
375.73	1470.44
375.94	1533.93
376.15	1574.89
376.36	1486.83
376.57	1581.03
376.78	1540.07
376.99	1521.64
377.20	1562.60
377.40	1468.39
377.61	1642.47
377.82	1478.63
378.03	1503.21
378.24	1509.35
378.45	1513.45
378.66	1521.64
378.87	1452.01
379.08	1515.50
379.29	1558.50
379.50	1581.03
379.71	1560.55
379.91	1540.07
380.12	1523.69
380.33	1558.50
380.54	1507.30
380.75	1517.54
380.96	1472.49
381.17	1548.26
381.38	1630.18
381.59	1652.71
381.80	1509.35
382.00	1769.44
382.21	1640.42
382.42	1624.04
382.63	1658.85
382.84	1693.67
383.05	1566.70
383.26	1632.23
383.47	1583.08
383.68	1642.47
383.88	1626.09
384.09	1560.55
384.30	1613.80
384.51	1517.54
384.72	1499.11
384.93	1488.87
385.14	1568.74
385.35	1593.32
385.55	1456.11
385.76	1636.33
385.97	1624.04
386.18	1527.78
386.39	1505.26
386.60	1542.12
386.81	1476.59
387.02	1550.31
387.22	1490.92
387.43	1650.66
387.64	1677.29
387.85	1875.94
388.06	3133.39
388.27	7264.15
388.48	10594.14
388.68	12416.83
388.89	13836.08
389.10	12699.45
389.31	10227.56
389.52	8777.59
389.73	7694.22
389.93	7233.43
390.14	6725.53
390.35	6010.79
390.56	5513.13
390.77	4745.14
390.98	3614.66
391.18	2846.68
391.39	2191.33
391.60	1796.07
391.81	1746.92
392.02	1570.79
392.23	1683.43
392.43	1617.90
392.64	1615.85
392.85	1595.37
393.06	1554.41
393.27	1560.55
393.47	1533.93
393.68	1597.42
393.89	1531.88
394.10	1624.04
394.31	1585.13
394.52	1566.70
394.72	1525.74
394.93	1611.75
395.14	1525.74
395.35	1562.60
395.56	1503.21
395.76	1585.13
395.97	1771.49
396.18	1716.20
396.39	1757.16
396.60	1849.32
396.80	1761.25
397.01	1646.57
397.22	1648.61
397.43	1687.53
397.64	1566.70
397.84	1665.00
398.05	1781.73
398.26	1642.47
398.47	1564.65
398.67	1609.70
398.88	1578.98
399.09	1542.12
399.30	1505.26
399.51	1593.32
399.71	1509.35
399.92	1548.26
400.13	1521.64
400.34	1566.70
400.54	1636.33
400.75	1665.00
400.96	1515.50
401.17	1642.47
401.37	1589.22
401.58	1488.87
401.79	1544.17
402.00	1779.68
402.21	1988.58
402.41	1931.23
402.62	2000.87
402.83	1949.67
403.04	1824.74
403.24	1877.99
403.45	1695.72
403.66	1759.21
403.87	1748.97
404.07	1746.92
404.28	1718.25
404.49	1787.88
404.70	1640.42
404.90	1656.81
405.11	1595.37
405.32	1701.86
405.52	1497.07
405.73	1566.70
405.94	1468.39
406.15	1529.83
406.35	1578.98
406.56	1542.12
406.77	1517.54
406.98	1560.55
407.18	1503.21
407.39	1675.24
407.60	1482.73
407.80	1538.02
408.01	1544.17
408.22	1550.31
408.43	1523.69
408.63	1544.17
408.84	1576.94
409.05	1538.02
409.25	1435.63
409.46	1476.59
409.67	1503.21
409.88	1560.55
410.08	1593.32
410.29	1454.06
410.50	1552.36
410.70	1519.59
410.91	1507.30
411.12	1554.41
411.32	1558.50
411.53	1558.50
411.74	1671.14
411.95	1650.66
412.15	1636.33
412.36	1574.89
412.57	1593.32
412.77	1574.89
412.98	1601.51
413.19	1531.88
413.39	1572.84
413.60	1583.08
413.81	1599.46
414.01	1527.78
414.22	1533.93
414.43	1503.21
414.63	1562.60
414.84	1542.12
415.05	1544.17
415.25	1525.74
415.46	1503.21
415.67	1576.94
415.87	1574.89
416.08	1540.07
416.29	1527.78
416.49	1609.70
416.70	1527.78
416.91	1546.22
417.11	1447.91
417.32	1509.35
417.53	1587.18
417.73	1505.26
417.94	1495.02
418.15	1578.98
418.35	1560.55
418.56	1497.07
418.77	1671.14
418.97	1558.50
419.18	1531.88
419.38	1447.91
419.59	1533.93
419.80	1542.12
420.00	1452.01
420.21	1501.16
420.42	1538.02
420.62	1497.07
420.83	1572.84
421.04	1607.66
421.24	1554.41
421.45	1578.98
421.65	1560.55
421.86	1552.36
422.07	1548.26
422.27	1564.65
422.48	1527.78
422.69	1468.39
422.89	1466.35
423.10	1499.11
423.30	1480.68
423.51	1525.74
423.72	1568.74
423.92	1601.51
424.13	1456.11
424.33	1544.17
424.54	1587.18
424.75	1542.12
424.95	1757.16
425.16	1617.90
425.36	1546.22
425.57	1540.07
425.78	1540.07
425.98	1591.27
426.19	1499.11
426.39	1439.72
426.60	1585.13
426.81	1638.38
427.01	1474.54
427.22	1511.40
427.42	1462.25
427.63	1511.40
427.83	1609.70
428.04	1578.98
428.25	1544.17
428.45	1617.90
428.66	1591.27
428.86	1556.46
429.07	1517.54
429.28	1544.17
429.48	1517.54
429.69	1429.48
429.89	1570.79
430.10	1525.74
430.30	1513.45
430.51	1595.37
430.71	1535.98
430.92	1521.64
431.13	1564.65
431.33	1656.81
431.54	1572.84
431.74	1626.09
431.95	1564.65
432.15	1460.20
432.36	1564.65
432.56	1574.89
432.77	1621.99
432.98	1560.55
433.18	1501.16
433.39	1583.08
433.59	1505.26
433.80	1601.51
434.00	1605.61
434.21	1486.83
434.41	1423.34
434.62	1636.33
434.82	1466.35
435.03	1449.96
435.23	1540.07
435.44	1456.11
435.64	1552.36
435.85	1535.98
436.06	1490.92
436.26	1562.60
436.47	1501.16
436.67	1470.44
436.88	1435.63
437.08	1632.23
437.29	1593.32
437.49	1562.60
437.70	1619.94
437.90	1529.83
438.11	1703.91
438.31	1648.61
438.52	1728.49
438.72	1689.57
438.93	1703.91
439.13	1685.48
439.34	1632.23
439.54	1601.51
439.75	1609.70
439.95	1613.80
440.16	1574.89
440.36	1626.09
440.57	1558.50
440.77	1525.74
440.98	1599.46
441.18	1595.37
441.39	1527.78
441.59	1411.05
441.80	1562.60
442.00	1464.30
442.21	1617.90
442.41	1550.31
442.62	1597.42
442.82	1566.70
443.02	1517.54
443.23	1581.03
443.43	1501.16
443.64	1644.52
443.84	1566.70
444.05	1636.33
444.25	1562.60
444.46	1513.45
444.66	1601.51
444.87	1564.65
445.07	1396.71
445.28	1548.26
445.48	1662.95
445.69	1548.26
445.89	1689.57
446.09	1599.46
446.30	2019.30
446.50	3084.24
446.71	4345.79
446.91	5287.86
447.12	5683.11
447.32	5715.88
447.53	4595.64
447.73	3934.15
447.93	3651.53
448.14	3366.86
448.34	3188.69
448.55	2869.20
448.75	3000.27
448.96	2770.90
449.16	2410.46
449.36	2256.86
449.57	2082.78
449.77	1708.01
449.98	1630.18
450.18	1626.09
450.39	1542.12
450.59	1574.89
450.79	1576.94
451.00	1572.84
451.20	1636.33
451.41	1566.70
451.61	1562.60
451.81	1544.17
452.02	1495.02
452.22	1511.40
452.43	1574.89
452.63	1484.78
452.84	1529.83
453.04	1472.49
453.24	1503.21
453.45	1492.97
453.65	1505.26
453.86	1566.70
454.06	1597.42
454.26	1619.94
454.47	1513.45
454.67	1601.51
454.87	1523.69
455.08	1576.94
455.28	1535.98
455.49	1624.04
455.69	1431.53
455.89	1765.35
456.10	1603.56
456.30	1542.12
456.51	1548.26
456.71	1568.74
456.91	1527.78
457.12	1423.34
457.32	1578.98
457.52	1404.91
457.73	1599.46
457.93	1593.32
458.14	1492.97
458.34	1404.91
458.54	1550.31
458.75	1521.64
458.95	1609.70
459.15	1597.42
459.36	1644.52
459.56	1644.52
459.76	1603.56
459.97	1558.50
460.17	1607.66
460.37	1515.50
460.58	1531.88
460.78	1593.32
460.99	1509.35
461.19	1538.02
461.39	1562.60
461.60	1550.31
461.80	1609.70
462.00	1499.11
462.21	1574.89
462.41	1552.36
462.61	1421.29
462.82	1449.96
463.02	1548.26
463.22	1611.75
463.43	1570.79
463.63	1558.50
463.83	1619.94
464.04	1599.46
464.24	1552.36
464.44	1505.26
464.64	1472.49
464.85	1583.08
465.05	1675.24
465.25	1597.42
465.46	1568.74
465.66	1572.84
465.86	1558.50
466.07	1621.99
466.27	1548.26
466.47	1464.30
466.68	1490.92
466.88	1566.70
467.08	1454.06
467.29	1560.55
467.49	1560.55
467.69	1613.80
467.89	1523.69
468.10	1478.63
468.30	1619.94
468.50	1617.90
468.71	1566.70
468.91	1505.26
469.11	1665.00
469.31	1531.88
469.52	1466.35
469.72	1652.71
469.92	1656.81
470.13	1529.83
470.33	1583.08
470.53	1667.05
470.73	2109.41
470.94	2377.69
471.14	2475.99
471.34	2609.11
471.54	2502.62
471.75	2187.23
471.95	2158.56
472.15	2000.87
472.36	1896.42
472.56	1949.67
472.76	1884.13
472.96	1902.56
473.17	1925.09
473.37	1765.35
473.57	1671.14
473.77	1572.84
473.98	1648.61
474.18	1581.03
474.38	1644.52
474.58	1521.64
474.79	1523.69
474.99	1550.31
475.19	1691.62
475.39	1468.39
475.60	1591.27
475.80	1540.07
476.00	1583.08
476.20	1527.78
476.41	1595.37
476.61	1621.99
476.81	1648.61
477.01	1488.87
477.21	1630.18
477.42	1705.96
477.62	1484.78
477.82	1638.38
478.02	1552.36
478.23	1583.08
478.43	1478.63
478.63	1517.54
478.83	1501.16
479.03	1560.55
479.24	1593.32
479.44	1621.99
479.64	1466.35
479.84	1402.86
480.04	1482.73
480.25	1585.13
480.45	1499.11
480.65	1527.78
480.85	1683.43
481.06	1556.46
481.26	1560.55
481.46	1595.37
481.66	1624.04
481.86	1523.69
482.06	1578.98
482.27	1509.35
482.47	1497.07
482.67	1572.84
482.87	1507.30
483.07	1589.22
483.28	1458.15
483.48	1521.64
483.68	1556.46
483.88	1542.12
484.08	1458.15
484.29	1486.83
484.49	1533.93
484.69	1492.97
484.89	1603.56
485.09	1560.55
485.29	1632.23
485.50	1615.85
485.70	1550.31
485.90	1619.94
486.10	1490.92
486.30	1601.51
486.50	1652.71
486.71	1611.75
486.91	1550.31
487.11	1667.05
487.31	1529.83
487.51	1546.22
487.71	1513.45
487.91	1447.91
488.12	1517.54
488.32	1480.68
488.52	1521.64
488.72	1480.68
488.92	1556.46
489.12	1587.18
489.32	1531.88
489.53	1531.88
489.73	1503.21
489.93	1548.26
490.13	1449.96
490.33	1501.16
490.53	1562.60
490.73	1531.88
490.94	1546.22
491.14	1624.04
491.34	1646.57
491.54	2109.41
491.74	2598.87
491.94	3059.67
492.14	3317.71
492.34	3221.45
492.54	2758.61
492.75	2555.86
492.95	2363.36
493.15	2230.24
493.35	2211.81
493.55	2146.27
493.75	2088.93
493.95	2029.54
494.15	1869.80
494.35	1789.92
494.56	1734.63
494.76	1640.42
494.96	1634.28
495.16	1566.70
495.36	1566.70
495.56	1525.74
495.76	1529.83
495.96	1568.74
496.16	1548.26
496.36	1632.23
496.56	1562.60
496.77	1665.00
496.97	1626.09
497.17	1662.95
497.37	1558.50
497.57	1566.70
497.77	1515.50
497.97	1492.97
498.17	1566.70
498.37	1511.40
498.57	1550.31
498.77	1562.60
498.97	1578.98
499.17	1703.91
499.38	1505.26
499.58	1544.17
499.78	1601.51
499.98	1593.32
500.18	1538.02
500.38	1591.27
500.58	1837.03
500.78	2668.50
500.98	5228.46
501.18	6703.00
501.38	8036.23
501.58	8769.40
501.78	7937.93
501.98	6092.71
502.18	5326.77
502.38	4657.08
502.58	4204.48
502.78	3872.71
502.98	3659.72
503.18	3651.53
503.38	3344.33
503.59	2930.64
503.79	2688.98
503.99	2549.72
504.19	2244.57
504.39	2213.85
504.59	2056.16
504.79	2058.21
504.99	1968.10
505.19	1734.63
505.39	1624.04
505.59	1697.77
505.79	1759.21
505.99	1687.53
506.19	1669.09
506.39	1656.81
506.59	1603.56
506.79	1546.22
506.99	1560.55
507.19	1595.37
507.39	1677.29
507.59	1626.09
507.79	1581.03
507.99	1581.03
508.19	1574.89
508.39	1583.08
508.59	1533.93
508.79	1646.57
508.99	1640.42
509.19	1570.79
509.39	1542.12
509.59	1552.36
509.79	1447.91
509.99	1513.45
510.19	1572.84
510.39	1591.27
510.59	1574.89
510.79	1509.35
510.99	1540.07
511.19	1578.98
511.39	1581.03
511.59	1572.84
511.79	1665.00
511.99	1574.89
512.19	1662.95
512.38	1548.26
512.58	1495.02
512.78	1529.83
512.98	1583.08
513.18	1607.66
513.38	1552.36
513.58	1572.84
513.78	1554.41
513.98	1558.50
514.18	1538.02
514.38	1492.97
514.58	1495.02
514.78	1466.35
514.98	1576.94
515.18	1591.27
515.38	1462.25
515.58	1638.38
515.78	1566.70
515.98	1535.98
516.18	1564.65
516.38	1568.74
516.57	1486.83
516.77	1585.13
516.97	1542.12
517.17	1476.59
517.37	1460.20
517.57	1662.95
517.77	1570.79
517.97	1462.25
518.17	1488.87
518.37	1615.85
518.57	1503.21
518.77	1550.31
518.97	1462.25
519.16	1634.28
519.36	1607.66
519.56	1535.98
519.76	1597.42
519.96	1540.07
520.16	1630.18
520.36	1411.05
520.56	1609.70
520.76	1515.50
520.96	1535.98
521.16	1558.50
521.35	1560.55
521.55	1675.24
521.75	1468.39
521.95	1499.11
522.15	1478.63
522.35	1515.50
522.55	1558.50
522.75	1538.02
522.95	1472.49
523.14	1533.93
523.34	1540.07
523.54	1607.66
523.74	1595.37
523.94	1495.02
524.14	1452.01
524.34	1583.08
524.54	1583.08
524.73	1572.84
524.93	1511.40
525.13	1542.12
525.33	1511.40
525.53	1714.15
525.73	1570.79
525.93	1523.69
526.13	1593.32
526.32	1503.21
526.52	1597.42
526.72	1695.72
526.92	1513.45
527.12	1525.74
527.32	1476.59
527.52	1499.11
527.71	1468.39
527.91	1581.03
528.11	1550.31
528.31	1585.13
528.51	1419.24
528.71	1583.08
528.90	1581.03
529.10	1564.65
529.30	1574.89
529.50	1478.63
529.70	1480.68
529.90	1439.72
530.09	1505.26
530.29	1503.21
530.49	1492.97
530.69	1705.96
530.89	1566.70
531.09	1589.22
531.28	1513.45
531.48	1576.94
531.68	1546.22
531.88	1511.40
532.08	1595.37
532.28	1521.64
532.47	1595.37
532.67	1624.04
532.87	1597.42
533.07	1578.98
533.27	1613.80
533.46	1630.18
533.66	1556.46
533.86	1550.31
534.06	1591.27
534.26	1673.19
534.45	1507.30
534.65	1630.18
534.85	1650.66
535.05	1511.40
535.25	1632.23
535.44	1509.35
535.64	1613.80
535.84	1509.35
536.04	1478.63
536.24	1492.97
536.43	1456.11
536.63	1599.46
536.83	1523.69
537.03	1517.54
537.22	1529.83
537.42	1513.45
537.62	1556.46
537.82	1517.54
538.02	1589.22
538.21	1511.40
538.41	1636.33
538.61	1521.64
538.81	1601.51
539.00	1609.70
539.20	1423.34
539.40	1521.64
539.60	1615.85
539.79	1673.19
539.99	1474.54
540.19	1513.45
540.39	1497.07
540.58	1505.26
540.78	1613.80
540.98	1511.40
541.18	1535.98
541.37	1597.42
541.57	1503.21
541.77	1562.60
541.97	1452.01
542.16	1497.07
542.36	1570.79
542.56	1527.78
542.76	1591.27
542.95	1501.16
543.15	1552.36
543.35	1595.37
543.54	1484.78
543.74	1517.54
543.94	1683.43
544.14	1568.74
544.33	1542.12
544.53	1466.35
544.73	1499.11
544.93	1542.12
545.12	1556.46
545.32	1560.55
545.52	1503.21
545.71	1527.78
545.91	1548.26
546.11	1511.40
546.30	1535.98
546.50	1480.68
546.70	1488.87
546.90	1503.21
547.09	1533.93
547.29	1564.65
547.49	1609.70
547.68	1538.02
547.88	1533.93
548.08	1521.64
548.27	1892.32
548.47	1585.13
548.67	1535.98
548.87	1607.66
549.06	1517.54
549.26	1499.11
549.46	1482.73
549.65	1495.02
549.85	1505.26
550.05	1572.84
550.24	1507.30
550.44	1542.12
550.64	1546.22
550.83	1572.84
551.03	1630.18
551.23	1605.61
551.42	1478.63
551.62	1517.54
551.82	1497.07
552.01	1523.69
552.21	1558.50
552.41	1566.70
552.60	1562.60
552.80	1511.40
553.00	1495.02
553.19	1499.11
553.39	1640.42
553.59	1482.73
553.78	1585.13
553.98	1603.56
554.17	1445.87
554.37	1497.07
554.57	1572.84
554.76	1464.30
554.96	1511.40
555.16	1597.42
555.35	1593.32
555.55	1497.07
555.75	1578.98
555.94	1583.08
556.14	1464.30
556.33	1501.16
556.53	1542.12
556.73	1533.93
556.92	1607.66
557.12	1552.36
557.32	1544.17
557.51	1574.89
557.71	1597.42
557.90	1581.03
558.10	1685.48
558.30	1542.12
558.49	1538.02
558.69	1538.02
558.88	1578.98
559.08	1560.55
559.28	1533.93
559.47	1523.69
559.67	1550.31
559.86	1650.66
560.06	1521.64
560.26	1531.88
560.45	1517.54
560.65	1544.17
560.84	1581.03
561.04	1570.79
561.24	1531.88
561.43	1558.50
561.63	1636.33
561.82	1505.26
562.02	1554.41
562.22	1482.73
562.41	1513.45
562.61	1484.78
562.80	1521.64
563.00	1669.09
563.19	1568.74
563.39	1556.46
563.59	1566.70
563.78	1501.16
563.98	1433.58
564.17	1552.36
564.37	1519.59
564.56	1591.27
564.76	1525.74
564.96	1646.57
565.15	1554.41
565.35	1611.75
565.54	1535.98
565.74	1595.37
565.93	1589.22
566.13	1546.22
566.32	1521.64
566.52	1617.90
566.71	1587.18
566.91	1583.08
567.11	1513.45
567.30	1542.12
567.50	1560.55
567.69	1578.98
567.89	1542.12
568.08	1560.55
568.28	1548.26
568.47	1480.68
568.67	1484.78
568.86	1556.46
569.06	1521.64
569.25	1523.69
569.45	1523.69
569.64	1517.54
569.84	1531.88
570.04	1542.12
570.23	1464.30
570.43	1540.07
570.62	1474.54
570.82	1589.22
571.01	1501.16
571.21	1583.08
571.40	1570.79
571.60	1591.27
571.79	1564.65
571.99	1533.93
572.18	1480.68
572.38	1542.12
572.57	1564.65
572.77	1585.13
572.96	1640.42
573.16	1628.14
573.35	1507.30
573.55	1560.55
573.74	1603.56
573.94	1515.50
574.13	1599.46
574.33	1581.03
574.52	1599.46
574.71	1617.90
574.91	1558.50
575.10	1495.02
575.30	1570.79
575.49	1562.60
575.69	1540.07
575.88	1626.09
576.08	1634.28
576.27	1689.57
576.47	1587.18
576.66	1771.49
576.86	1656.81
577.05	1630.18
577.25	1646.57
577.44	1746.92
577.64	1593.32
577.83	1621.99
578.02	1591.27
578.22	1617.90
578.41	1658.85
578.61	1589.22
578.80	1441.77
579.00	1550.31
579.19	1576.94
579.39	1552.36
579.58	1605.61
579.77	1566.70
579.97	1603.56
580.16	1646.57
580.36	1605.61
580.55	1681.38
580.75	1617.90
580.94	1550.31
581.13	1665.00
581.33	1718.25
581.52	1634.28
581.72	1703.91
581.91	1675.24
582.11	1689.57
582.30	1601.51
582.49	1636.33
582.69	1740.77
582.88	1648.61
583.08	1554.41
583.27	1593.32
583.47	1574.89
583.66	1591.27
583.85	1519.59
584.05	1576.94
584.24	1552.36
584.44	1621.99
584.63	1642.47
584.82	1665.00
585.02	1699.81
585.21	1720.29
585.41	1753.06
585.60	1761.25
585.79	1787.88
585.99	1759.21
586.18	1830.88
586.37	2105.31
586.57	3149.78
586.76	9443.18
586.96	27446.88
587.15	43687.27
587.34	53849.29
587.54	61256.79
587.73	59208.82
587.93	43527.53
588.12	32232.98
588.31	25759.35
588.51	21825.20
588.70	19543.77
588.89	18188.01
589.09	16772.86
589.28	15173.40
589.47	13268.79
589.67	11071.32
589.86	8945.53
590.06	6586.27
590.25	5040.05
590.44	3729.35
590.64	2971.60
590.83	2359.26
591.02	2099.17
591.22	1884.13
591.41	1789.92
591.60	1660.90
591.80	1714.15
591.99	1599.46
592.18	1572.84
592.38	1636.33
592.57	1611.75
592.76	1617.90
592.96	1591.27
593.15	1607.66
593.34	1640.42
593.54	1525.74
593.73	1574.89
593.92	1656.81
594.12	1656.81
594.31	1630.18
594.50	1669.09
594.70	1632.23
594.89	1716.20
595.08	1587.18
595.28	1656.81
595.47	1791.97
595.66	1646.57
595.86	1581.03
596.05	1529.83
596.24	1517.54
596.43	1624.04
596.63	1697.77
596.82	1607.66
597.01	1644.52
597.21	1650.66
597.40	1554.41
597.59	1593.32
597.79	1603.56
597.98	1638.38
598.17	1603.56
598.36	1570.79
598.56	1560.55
598.75	1480.68
598.94	1593.32
599.14	1630.18
599.33	1535.98
599.52	1595.37
599.71	1560.55
599.91	1601.51
600.10	1587.18
600.29	1601.51
600.48	1576.94
600.68	1578.98
600.87	1550.31
601.06	1507.30
601.26	1560.55
601.45	1515.50
601.64	1544.17
601.83	1638.38
602.03	1566.70
602.22	1482.73
602.41	1611.75
602.60	1656.81
602.80	1544.17
602.99	1542.12
603.18	1552.36
603.37	1621.99
603.57	1507.30
603.76	1632.23
603.95	1650.66
604.14	1542.12
604.34	1497.07
604.53	1556.46
604.72	1591.27
604.91	1570.79
605.10	1638.38
605.30	1499.11
605.49	1683.43
605.68	1583.08
605.87	1652.71
606.07	1544.17
606.26	1554.41
606.45	1597.42
606.64	1560.55
606.84	1486.83
607.03	1613.80
607.22	1589.22
607.41	1613.80
607.60	1609.70
607.80	1611.75
607.99	1531.88
608.18	1581.03
608.37	1574.89
608.56	1511.40
608.76	1636.33
608.95	1681.38
609.14	1658.85
609.33	1634.28
609.52	1716.20
609.72	1658.85
609.91	1585.13
610.10	1679.33
610.29	1587.18
610.48	1591.27
610.68	1517.54
610.87	1576.94
611.06	1576.94
611.25	1533.93
611.44	1568.74
611.63	1570.79
611.83	1546.22
612.02	1527.78
612.21	1652.71
612.40	1495.02
612.59	1474.54
612.79	1546.22
612.98	1593.32
613.17	1558.50
613.36	1538.02
613.55	1634.28
613.74	1615.85
613.93	1716.20
614.13	1685.48
614.32	1859.56
614.51	1763.30
614.70	1621.99
614.89	1669.09
615.08	1603.56
615.28	1918.95
615.47	1550.31
615.66	1673.19
615.85	1574.89
616.04	1689.57
616.23	1675.24
616.42	1691.62
616.62	1605.61
616.81	1591.27
617.00	1525.74
617.19	1568.74
617.38	1533.93
617.57	1626.09
617.76	1591.27
617.95	1652.71
618.15	1597.42
618.34	1632.23
618.53	1548.26
618.72	1634.28
618.91	1685.48
619.10	1656.81
619.29	1523.69
619.48	1572.84
619.68	1507.30
619.87	1570.79
620.06	1560.55
620.25	1564.65
620.44	1515.50
620.63	1515.50
620.82	1542.12
621.01	1578.98
621.20	1589.22
621.39	1517.54
621.59	1572.84
621.78	1564.65
621.97	1564.65
622.16	1574.89
622.35	1544.17
622.54	1587.18
622.73	1578.98
622.92	1542.12
623.11	1552.36
623.30	1538.02
623.49	1535.98
623.68	1468.39
623.88	1529.83
624.07	1564.65
624.26	1521.64
624.45	1503.21
624.64	1437.67
624.83	1554.41
625.02	1486.83
625.21	1492.97
625.40	1593.32
625.59	1587.18
625.78	1560.55
625.97	1554.41
626.16	1587.18
626.35	1619.94
626.54	1605.61
626.74	1658.85
626.93	1603.56
627.12	1513.45
627.31	1585.13
627.50	1548.26
627.69	1591.27
627.88	1544.17
628.07	1523.69
628.26	1511.40
628.45	1544.17
628.64	1488.87
628.83	1519.59
629.02	1560.55
629.21	1617.90
629.40	1535.98
629.59	1488.87
629.78	1519.59
629.97	1482.73
630.16	1581.03
630.35	1482.73
630.54	1595.37
630.73	1535.98
630.92	1552.36
631.11	1509.35
631.30	1593.32
631.49	1552.36
631.68	1609.70
631.87	1523.69
632.06	1517.54
632.25	1697.77
632.44	1544.17
632.63	1617.90
632.82	1597.42
633.01	1515.50
633.20	1689.57
633.39	1591.27
633.58	1601.51
633.77	1576.94
633.96	1638.38
634.15	1597.42
634.34	1574.89
634.53	1628.14
634.72	1523.69
634.91	1478.63
635.10	1576.94
635.29	1595.37
635.48	1544.17
635.67	1548.26
635.86	1542.12
636.05	1619.94
636.24	1562.60
636.43	1552.36
636.62	1521.64
636.81	1390.57
637.00	1570.79
637.19	1574.89
637.38	1599.46
637.57	1576.94
637.76	1548.26
637.95	1701.86
638.14	1617.90
638.33	1609.70
638.52	1685.48
638.71	1570.79
638.89	1529.83
639.08	1677.29
639.27	1619.94
639.46	1566.70
639.65	1943.52
639.84	2035.68
640.03	2166.75
640.22	2181.09
640.41	2260.96
640.60	1849.32
640.79	1800.16
640.98	1742.82
641.17	1705.96
641.36	1685.48
641.55	1746.92
641.74	1656.81
641.92	1658.85
642.11	1650.66
642.30	1654.76
642.49	1593.32
642.68	1583.08
642.87	1597.42
643.06	1578.98
643.25	1570.79
643.44	1513.45
643.63	1712.10
643.82	1546.22
644.00	1499.11
644.19	1523.69
644.38	1417.19
644.57	1581.03
644.76	1507.30
644.95	1533.93
645.14	1531.88
645.33	1587.18
645.52	1564.65
645.71	1509.35
645.89	1501.16
646.08	1550.31
646.27	1593.32
646.46	1632.23
646.65	1501.16
646.84	1535.98
647.03	1474.54
647.22	1589.22
647.40	1507.30
647.59	1615.85
647.78	1488.87
647.97	1476.59
648.16	1484.78
648.35	1630.18
648.54	1525.74
648.73	1511.40
648.91	1497.07
649.10	1484.78
649.29	1501.16
649.48	1495.02
649.67	1562.60
649.86	1556.46
650.05	1609.70
650.23	1691.62
650.42	1658.85
650.61	1781.73
650.80	1693.67
650.99	1800.16
651.18	1699.81
651.36	1634.28
651.55	1595.37
651.74	1673.19
651.93	1546.22
652.12	1589.22
652.31	1554.41
652.49	1542.12
652.68	1585.13
652.87	1652.71
653.06	1527.78
653.25	1617.90
653.44	1593.32
653.62	1648.61
653.81	1617.90
654.00	1619.94
654.19	1546.22
654.38	1712.10
654.56	1552.36
654.75	1533.93
654.94	1527.78
655.13	1509.35
655.32	1527.78
655.51	1609.70
655.69	1492.97
655.88	1519.59
656.07	1497.07
656.26	1540.07
656.45	1497.07
656.63	1544.17
656.82	1540.07
657.01	1587.18
657.20	1488.87
657.38	1533.93
657.57	1519.59
657.76	1484.78
657.95	1552.36
658.14	1490.92
658.32	1499.11
658.51	1490.92
658.70	1621.99
658.89	1439.72
659.08	1503.21
659.26	1697.77
659.45	1566.70
659.64	1587.18
659.83	1593.32
660.01	1775.59
660.20	1568.74
660.39	1605.61
660.58	1564.65
660.76	1626.09
660.95	1505.26
661.14	1556.46
661.33	1535.98
661.51	1499.11
661.70	1540.07
661.89	1595.37
662.08	1540.07
662.26	1464.30
662.45	1482.73
662.64	1531.88
662.83	1589.22
663.01	1474.54
663.20	1501.16
663.39	1595.37
663.58	1513.45
663.76	1601.51
663.95	1587.18
664.14	1566.70
664.32	1417.19
664.51	1533.93
664.70	1429.48
664.89	1568.74
665.07	1517.54
665.26	1560.55
665.45	1509.35
665.64	1624.04
665.82	1728.49
666.01	1617.90
666.20	1538.02
666.38	1552.36
666.57	1597.42
666.76	1806.31
666.95	2844.63
667.13	7489.42
667.32	15423.25
667.51	19885.78
667.69	23287.45
667.88	24995.46
668.07	21984.94
668.25	15777.55
668.44	12580.67
668.63	9899.88
668.81	8646.52
669.00	7645.07
669.19	7069.59
669.38	6322.08
669.56	5668.78
669.75	4921.27
669.94	4192.19
670.12	3442.64
670.31	2809.81
670.50	2369.50
670.68	2195.42
670.87	1863.65
671.06	1744.87
671.24	1660.90
671.43	1759.21
671.62	1687.53
671.80	1648.61
671.99	1626.09
672.18	1624.04
672.36	1626.09
672.55	1654.76
672.74	1538.02
672.92	1570.79
673.11	1607.66
673.29	1476.59
673.48	1619.94
673.67	1507.30
673.85	1568.74
674.04	1529.83
674.23	1540.07
674.41	1636.33
674.60	1439.72
674.79	1519.59
674.97	1460.20
675.16	1574.89
675.34	1570.79
675.53	1474.54
675.72	1626.09
675.90	1556.46
676.09	1568.74
676.28	1583.08
676.46	1449.96
676.65	1560.55
676.83	1472.49
677.02	1519.59
677.21	1564.65
677.39	1517.54
677.58	1517.54
677.77	1587.18
677.95	1466.35
678.14	1521.64
678.32	1566.70
678.51	1492.97
678.70	1665.00
678.88	1587.18
679.07	1576.94
679.25	1523.69
679.44	1535.98
679.63	1464.30
679.81	1576.94
680.00	1558.50
680.18	1558.50
680.37	1572.84
680.55	1599.46
680.74	1523.69
680.93	1538.02
681.11	1544.17
681.30	1546.22
681.48	1601.51
681.67	1484.78
681.85	1619.94
682.04	1466.35
682.23	1548.26
682.41	1587.18
682.60	1527.78
682.78	1495.02
682.97	1533.93
683.15	1517.54
683.34	1538.02
683.53	1597.42
683.71	1460.20
683.90	1574.89
684.08	1607.66
684.27	1576.94
684.45	1601.51
684.64	1681.38
684.82	1538.02
685.01	1566.70
685.19	1554.41
685.38	1595.37
685.57	1544.17
685.75	1533.93
685.94	1480.68
686.12	1525.74
686.31	1505.26
686.49	1630.18
686.68	1464.30
686.86	1535.98
687.05	1560.55
687.23	1613.80
687.42	1458.15
687.60	1527.78
687.79	1603.56
687.97	1593.32
688.16	1576.94
688.34	1589.22
688.53	1372.14
688.71	1521.64
688.90	1560.55
689.08	1564.65
689.27	1509.35
689.45	1615.85
689.64	1587.18
689.82	1558.50
690.01	1503.21
690.19	1476.59
690.38	1474.54
690.56	1615.85
690.75	1513.45
690.93	1499.11
691.12	1472.49
691.30	1515.50
691.49	1550.31
691.67	1497.07
691.86	1630.18
692.04	1452.01
692.23	1458.15
692.41	1517.54
692.60	1722.34
692.78	1656.81
692.97	1699.81
693.15	1658.85
693.34	1693.67
693.52	1634.28
693.71	1515.50
693.89	1593.32
694.08	1460.20
694.26	1654.76
694.44	1597.42
694.63	1562.60
694.81	1554.41
695.00	1495.02
695.18	1593.32
695.37	1644.52
695.55	1570.79
695.74	1503.21
695.92	1476.59
696.10	1597.42
696.29	1484.78
696.47	1613.80
696.66	1425.39
696.84	1546.22
697.03	1593.32
697.21	1601.51
697.40	1964.00
697.58	1587.18
697.76	1519.59
697.95	1540.07
698.13	1482.73
698.32	1535.98
698.50	1564.65
698.68	1511.40
698.87	1492.97
699.05	1652.71
699.24	1503.21
699.42	1478.63
699.61	1548.26
699.79	1574.89
699.97	1472.49
700.16	1482.73
700.34	1499.11
700.53	1581.03
700.71	1587.18
700.89	1570.79
701.08	1538.02
701.26	1574.89
701.45	1884.13
701.63	1523.69
701.81	1566.70
702.00	1538.02
702.18	1581.03
702.37	1669.09
702.55	1687.53
702.73	1607.66
702.92	1742.82
703.10	1755.11
703.28	1804.26
703.47	1708.01
703.65	1742.82
703.84	1669.09
704.02	1548.26
704.20	1685.48
704.39	1570.79
704.57	1572.84
704.75	1650.66
704.94	1673.19
705.12	1558.50
705.30	1621.99
705.49	1804.26
705.67	2863.06
705.86	7341.97
706.04	14700.32
706.22	18738.91
706.41	21434.04
706.59	22929.06
706.77	20831.94
706.96	14513.95
707.14	11732.81
707.32	9754.48
707.51	8765.31
707.69	7573.39
707.87	6686.62
708.06	5781.42
708.24	4659.13
708.42	3725.26
708.61	2940.88
708.79	2320.35
708.97	2093.02
709.16	1863.65
709.34	1785.83
709.52	1638.38
709.71	1646.57
709.89	1597.42
710.07	1513.45
710.26	1564.65
710.44	1544.17
710.62	1603.56
710.80	1519.59
710.99	1626.09
711.17	1636.33
711.35	1505.26
711.54	1476.59
711.72	1587.18
711.90	1601.51
712.09	1609.70
712.27	1535.98
712.45	1556.46
712.63	1574.89
712.82	1538.02
713.00	1501.16
713.18	1552.36
713.37	1554.41
713.55	1593.32
713.73	1562.60
713.91	1581.03
714.10	1564.65
714.28	1605.61
714.46	1583.08
714.65	1535.98
714.83	1607.66
715.01	1495.02
715.19	1492.97
715.38	1480.68
715.56	1589.22
715.74	1501.16
715.92	1462.25
716.11	1578.98
716.29	1488.87
716.47	1474.54
716.65	1548.26
716.84	1511.40
717.02	1583.08
717.20	1437.67
717.38	1472.49
717.57	1560.55
717.75	1521.64
717.93	1527.78
718.11	1621.99
718.30	1441.77
718.48	1478.63
718.66	1624.04
718.84	1634.28
719.03	1484.78
719.21	1449.96
719.39	1593.32
719.57	1542.12
719.75	1501.16
719.94	1474.54
720.12	1595.37
720.30	1581.03
720.48	1533.93
720.67	1521.64
720.85	1511.40
721.03	1576.94
721.21	1576.94
721.39	1552.36
721.58	1552.36
721.76	1574.89
721.94	1574.89
722.12	1529.83
722.30	1492.97
722.49	1556.46
722.67	1558.50
722.85	1624.04
723.03	1490.92
723.21	1484.78
723.40	1546.22
723.58	1634.28
723.76	1609.70
723.94	1611.75
724.12	1566.70
724.30	1679.33
724.49	1679.33
724.67	1576.94
724.85	1693.67
725.03	1542.12
725.21	1560.55
725.40	1617.90
725.58	1486.83
725.76	1667.05
725.94	1533.93
726.12	1476.59
726.30	1550.31
726.49	1525.74
726.67	1482.73
726.85	1546.22
727.03	1581.03
727.21	1761.25
727.39	2115.55
727.57	3270.61
727.76	4356.03
727.94	4743.10
728.12	5162.93
728.30	5185.46
728.48	4308.93
728.66	3487.69
728.84	3246.03
729.03	2818.00
729.21	2613.21
729.39	2363.36
729.57	2064.35
729.75	1865.70
729.93	1746.92
730.11	1658.85
730.30	1597.42
730.48	1591.27
730.66	1712.10
730.84	1591.27
731.02	1593.32
731.20	1560.55
731.38	1556.46
731.56	1517.54
731.74	1490.92
731.93	1589.22
732.11	1495.02
732.29	1468.39
732.47	1511.40
732.65	1445.87
732.83	1621.99
733.01	1587.18
733.19	1525.74
733.37	1574.89
733.56	1589.22
733.74	1497.07
733.92	1591.27
734.10	1646.57
734.28	1595.37
734.46	1462.25
734.64	1548.26
734.82	1585.13
735.00	1468.39
735.18	1585.13
735.36	1503.21
735.54	1523.69
735.73	1548.26
735.91	1560.55
736.09	1603.56
736.27	1556.46
736.45	1554.41
736.63	1466.35
736.81	1511.40
736.99	1552.36
737.17	1587.18
737.35	1585.13
737.53	1587.18
737.71	1509.35
737.89	1652.71
738.07	1572.84
738.25	1468.39
738.43	1488.87
738.61	1517.54
738.80	1495.02
738.98	1505.26
739.16	1517.54
739.34	1490.92
739.52	1609.70
739.70	1509.35
739.88	1495.02
740.06	1560.55
740.24	1509.35
740.42	1560.55
740.60	1472.49
740.78	1480.68
740.96	1462.25
741.14	1486.83
741.32	1550.31
741.50	1499.11
741.68	1660.90
741.86	1617.90
742.04	1599.46
742.22	1490.92
742.40	1550.31
742.58	1566.70
742.76	1476.59
742.94	1515.50
743.12	1402.86
743.30	1601.51
743.48	1585.13
743.66	1456.11
743.84	1611.75
744.02	1546.22
744.20	1558.50
744.38	1458.15
744.56	1486.83
744.74	1572.84
744.92	1611.75
745.10	1542.12
745.28	1578.98
745.46	1607.66
745.64	1480.68
745.82	1601.51
746.00	1562.60
746.18	1548.26
746.36	1562.60
746.54	1566.70
746.72	1509.35
746.90	1431.53
747.08	1593.32
747.26	1544.17
747.44	1599.46
747.62	1478.63
747.80	1562.60
747.98	1492.97
748.15	1560.55
748.33	1634.28
748.51	1480.68
748.69	1593.32
748.87	1499.11
749.05	1533.93
749.23	1560.55
749.41	1609.70
749.59	1501.16
749.77	1554.41
749.95	1572.84
750.13	1419.24
750.31	1570.79
750.49	1505.26
750.67	1535.98
750.85	1660.90
751.03	1492.97
751.20	1652.71
751.38	1554.41
751.56	1525.74
751.74	1509.35
751.92	1509.35
752.10	1521.64
752.28	1585.13
752.46	1456.11
752.64	1599.46
752.82	1599.46
753.00	1501.16
753.18	1548.26
753.35	1515.50
753.53	1552.36
753.71	1517.54
753.89	1554.41
754.07	1587.18
754.25	1540.07
754.43	1490.92
754.61	1492.97
754.79	1529.83
754.97	1517.54
755.14	1585.13
755.32	1507.30
755.50	1562.60
755.68	1619.94
755.86	1556.46
756.04	1548.26
756.22	1517.54
756.40	1599.46
756.57	1634.28
756.75	1472.49
756.93	1624.04
757.11	1617.90
757.29	1478.63
757.47	1542.12
757.65	1421.29
757.82	1490.92
758.00	1507.30
758.18	1533.93
758.36	1540.07
758.54	1626.09
758.72	1437.67
758.90	1574.89
759.07	1576.94
759.25	1503.21
759.43	1570.79
759.61	1456.11
759.79	1925.09
759.97	1523.69
760.15	1421.29
760.32	1535.98
760.50	1583.08
760.68	1681.38
760.86	1495.02
761.04	1601.51
761.22	1585.13
761.39	1529.83
761.57	1576.94
761.75	1480.68
761.93	1605.61
762.11	1462.25
762.28	1454.06
762.46	1503.21
762.64	1542.12
762.82	1562.60
763.00	1474.54
763.18	1626.09
763.35	1535.98
763.53	1552.36
763.71	1552.36
763.89	1507.30
764.07	1613.80
764.24	1544.17
764.42	1576.94
764.60	1515.50
764.78	1505.26
764.96	1660.90
765.13	1562.60
765.31	1531.88
765.49	1546.22
765.67	1509.35
765.84	1480.68
766.02	1462.25
766.20	1474.54
766.38	1550.31
766.56	1550.31
766.73	1535.98
766.91	1531.88
767.09	1521.64
767.27	1587.18
767.44	1478.63
767.62	1517.54
767.80	1556.46
767.98	1540.07
768.15	1560.55
768.33	1538.02
768.51	1531.88
768.69	1540.07
768.87	1542.12
769.04	1505.26
769.22	1667.05
769.40	1681.38
769.58	1714.15
769.75	1476.59
769.93	1574.89
770.11	1492.97
770.28	1495.02
770.46	1542.12
770.64	1533.93
770.82	1476.59
770.99	1472.49
771.17	1591.27
771.35	1404.91
771.53	1533.93
771.70	1535.98
771.88	1550.31
772.06	1452.01
772.23	1501.16
772.41	1601.51
772.59	1454.06
772.77	1507.30
772.94	1603.56
773.12	1548.26
773.30	1546.22
773.47	1542.12
773.65	1505.26
773.83	1675.24
774.01	1607.66
774.18	1552.36
774.36	1564.65
774.54	1394.67
774.71	1501.16
774.89	1476.59
775.07	1439.72
775.24	1476.59
775.42	1486.83
775.60	1613.80
775.78	1585.13
775.95	1513.45
776.13	1411.05
776.31	1447.91
776.48	1488.87
776.66	1558.50
776.84	1538.02
777.01	1538.02
777.19	1562.60
777.37	1466.35
777.54	1535.98
777.72	1603.56
777.90	1501.16
778.07	1503.21
778.25	1660.90
778.43	1552.36
778.60	1578.98
778.78	1591.27
778.96	1552.36
779.13	1505.26
779.31	1603.56
779.49	1564.65
779.66	1562.60
779.84	1542.12
780.01	1519.59
780.19	1509.35
780.37	1556.46
780.54	1583.08
780.72	1478.63
780.90	1470.44
781.07	1466.35
781.25	1503.21
781.43	1527.78
781.60	1445.87
781.78	1619.94
781.95	1519.59
782.13	1535.98
782.31	1511.40
782.48	1441.77
782.66	1476.59
782.83	1619.94
783.01	1621.99
783.19	1533.93
783.36	1544.17
783.54	1447.91
783.72	1630.18
783.89	1554.41
784.07	1583.08
784.24	1576.94
784.42	1630.18
784.60	1513.45
784.77	1501.16
784.95	1456.11
785.12	1460.20
785.30	1452.01
785.47	1470.44
785.65	1400.81
785.83	1542.12
786.00	1507.30
786.18	1462.25
786.35	1497.07
786.53	1478.63
786.71	1583.08
786.88	1546.22
787.06	1441.77
787.23	1656.81
787.41	1445.87
787.58	1445.87
787.76	1525.74
787.94	1544.17
788.11	1517.54
788.29	1538.02
788.46	1492.97
788.64	1484.78
788.81	1517.54
788.99	1492.97
789.16	1480.68
789.34	1552.36
789.52	1531.88
789.69	1503.21
789.87	1449.96
790.04	1484.78
790.22	1540.07
790.39	1533.93
790.57	1429.48
790.74	1523.69
790.92	1509.35
791.09	1511.40
791.27	1538.02
791.44	1542.12
791.62	1546.22
791.79	1560.55
791.97	1552.36
792.15	1695.72
792.32	1521.64
792.50	1517.54
792.67	1603.56
792.85	1535.98
793.02	1472.49
793.20	1478.63
793.37	1525.74
793.55	1513.45
793.72	1468.39
793.90	1509.35
794.07	1505.26
794.25	1470.44
794.42	1583.08
794.60	1523.69
794.77	1538.02
794.95	1587.18
795.12	1568.74
795.30	1509.35
795.47	1488.87
795.65	1562.60
795.82	1603.56
796.00	1456.11
796.17	1531.88
796.34	1517.54
796.52	1572.84
796.69	1591.27
796.87	1570.79
797.04	1554.41
797.22	1552.36
797.39	1562.60
797.57	1566.70
797.74	1574.89
797.92	1556.46
798.09	1484.78
798.27	1615.85
798.44	1591.27
798.62	1529.83
798.79	1605.61
798.96	1640.42
799.14	1548.26
799.31	1650.66
799.49	1546.22
799.66	1521.64
799.84	1562.60
800.01	1505.26
800.19	1560.55
800.36	1470.44
800.53	1503.21
800.71	1576.94
800.88	1621.99
801.06	1429.48
801.23	1519.59
801.41	1538.02
801.58	1556.46
801.75	1519.59
801.93	1517.54
802.10	1472.49
802.28	1490.92
802.45	1478.63
802.63	1540.07
802.80	1609.70
802.97	1546.22
803.15	1525.74
803.32	1570.79
803.50	1501.16
803.67	1523.69
803.84	1548.26
804.02	1542.12
804.19	1564.65
804.37	1505.26
804.54	1478.63
804.71	1533.93
804.89	1499.11
805.06	1462.25
805.24	1550.31
805.41	1525.74
805.58	1535.98
805.76	1630.18
805.93	1568.74
806.10	1617.90
806.28	1515.50
806.45	1462.25
806.63	1517.54
806.80	1513.45
806.97	1513.45
807.15	1488.87
807.32	1523.69
807.49	1488.87
807.67	1525.74
807.84	1499.11
808.01	1482.73
808.19	1554.41
808.36	1665.00
808.54	1501.16
808.71	1466.35
808.88	1552.36
809.06	1533.93
809.23	1632.23
809.40	1484.78
809.58	1533.93
809.75	1542.12
809.92	1535.98
810.10	1656.81
810.27	1552.36
810.44	1548.26
810.62	1578.98
810.79	1560.55
810.96	1558.50
811.14	1497.07
811.31	1568.74
811.48	1587.18
811.66	1544.17
811.83	1595.37
812.00	1601.51
812.18	1556.46
812.35	1640.42
812.52	1515.50
812.69	1527.78
812.87	1560.55
813.04	1435.63
813.21	1517.54
813.39	1488.87
813.56	1507.30
813.73	1525.74
813.91	1452.01
814.08	1574.89
814.25	1546.22
814.42	1445.87
814.60	1554.41
814.77	1533.93
814.94	1507.30
815.12	1527.78
815.29	1546.22
815.46	1474.54
815.63	1540.07
815.81	1568.74
815.98	1495.02
816.15	1507.30
816.33	1583.08
816.50	1533.93
816.67	1474.54
816.84	1531.88
817.02	1507.30
817.19	1511.40
817.36	1492.97
817.53	1562.60
817.71	1417.19
817.88	1429.48
818.05	1556.46
818.22	1495.02
818.40	1615.85
818.57	1499.11
818.74	1605.61
818.91	1449.96
819.09	1595.37
819.26	1605.61
819.43	1476.59
819.60	1484.78
819.78	1552.36
819.95	1595.37
820.12	1523.69
820.29	1578.98
820.47	1533.93
820.64	1613.80
820.81	1472.49
820.98	1558.50
821.15	1425.39
821.33	1589.22
821.50	1472.49
821.67	1550.31
821.84	1470.44
822.02	1501.16
822.19	1593.32
822.36	1538.02
822.53	1456.11
822.70	1495.02
822.88	1521.64
823.05	1554.41
823.22	1529.83
823.39	1550.31
823.56	1533.93
823.74	1675.24
823.91	1533.93
824.08	1501.16
824.25	1497.07
824.42	1615.85
824.60	1515.50
824.77	1492.97
824.94	1542.12
825.11	1503.21
825.28	1411.05
825.45	1525.74
825.63	1507.30
825.80	1527.78
825.97	1519.59
826.14	1533.93
826.31	1497.07
826.48	1574.89
826.66	1519.59
826.83	1533.93
827.00	1560.55
827.17	1503.21
827.34	1552.36
827.51	1521.64
827.69	1558.50
827.86	1441.77
828.03	1523.69
828.20	1454.06
828.37	1513.45
828.54	1572.84
828.71	1523.69
828.89	1611.75
829.06	1517.54
829.23	1595.37
829.40	1501.16
829.57	1503.21
829.74	1570.79
829.91	1525.74
830.09	1562.60
830.26	1507.30
830.43	1585.13
830.60	1601.51
830.77	1542.12
830.94	1576.94
831.11	1595.37
831.28	1538.02
831.46	1630.18
831.63	1503.21
831.80	1538.02
831.97	1492.97
832.14	1546.22
832.31	1454.06
832.48	1574.89
832.65	1560.55
832.82	1525.74
832.99	1521.64
833.17	1482.73
833.34	1593.32
833.51	1578.98
833.68	1470.44
833.85	1617.90
834.02	1529.83
834.19	1517.54
834.36	1581.03
834.53	1552.36
834.70	1542.12
834.87	1599.46
835.04	1464.30
835.22	1409.00
835.39	1517.54
835.56	1527.78
835.73	1525.74
835.90	1503.21
836.07	1599.46
836.24	1570.79
836.41	1486.83
836.58	1480.68
836.75	1521.64
836.92	1517.54
837.09	1507.30
837.26	1560.55
837.43	1486.83
837.60	1578.98
837.77	1587.18
837.94	1615.85
838.12	1585.13
838.29	1550.31
838.46	1486.83
838.63	1542.12
838.80	1576.94
838.97	1662.95
839.14	1468.39
839.31	1593.32
839.48	1558.50
839.65	1544.17
839.82	1572.84
839.99	1540.07
840.16	1556.46
840.33	1482.73
840.50	1531.88
840.67	1499.11
840.84	1415.15
841.01	1611.75
841.18	1558.50
841.35	1521.64
841.52	1630.18
841.69	1607.66
841.86	1572.84
842.03	1507.30
842.20	1540.07
842.37	1499.11
842.54	1552.36
842.71	1562.60
842.88	1499.11
843.05	1511.40
843.22	1499.11
843.39	1533.93
843.56	1531.88
843.73	1443.82
843.90	1460.20
844.07	1484.78
844.24	1552.36
844.41	1474.54
844.58	1484.78
844.75	1564.65
844.92	1648.61
845.09	1464.30
845.26	1468.39
845.43	1589.22
845.60	1593.32
845.77	1560.55
845.94	1527.78
846.10	1495.02
846.27	1454.06
846.44	1515.50
846.61	1501.16
846.78	1568.74
846.95	1501.16
847.12	1449.96
847.29	1513.45
847.46	1488.87
847.63	1527.78
847.80	1480.68
847.97	1587.18
848.14	1566.70
848.31	1560.55
848.48	1472.49
848.65	1605.61
848.82	1548.26
848.98	1632.23
849.15	1535.98
849.32	1621.99
849.49	1585.13
849.66	1568.74
849.83	1509.35
850.00	1505.26
850.17	1492.97
850.34	1396.71
850.51	1495.02
850.68	1466.35
850.85	1630.18
851.01	1617.90
851.18	1550.31
851.35	1544.17
851.52	1470.44
851.69	1609.70
851.86	1472.49
852.03	1517.54
852.20	1589.22
852.37	1525.74
852.53	1544.17
852.70	1509.35
852.87	1525.74
853.04	1542.12
853.21	1533.93
853.38	1632.23
853.55	1587.18
853.72	1568.74
853.89	1472.49
854.05	1505.26
854.22	1576.94
854.39	1554.41
854.56	1495.02
854.73	1523.69
854.90	1527.78
855.07	1476.59
855.23	1488.87
855.40	1509.35
855.57	1607.66
855.74	1439.72
855.91	1636.33
856.08	1521.64
856.25	1511.40
856.41	1560.55
856.58	1542.12
856.75	1548.26
856.92	1538.02
857.09	1568.74
857.26	1478.63
857.42	1531.88
857.59	1542.12
857.76	1527.78
857.93	1548.26
858.10	1535.98
858.27	1495.02
858.43	1529.83
858.60	1458.15
858.77	1425.39
858.94	1583.08
859.11	1476.59
859.27	1439.72
859.44	1521.64
859.61	1646.57
859.78	1591.27
859.95	1511.40
860.12	1568.74
860.28	1546.22
860.45	1638.38
860.62	1513.45
860.79	1605.61
860.95	1527.78
861.12	1501.16
861.29	1550.31
861.46	1523.69
861.63	1509.35
861.79	1527.78
861.96	1515.50
862.13	1466.35
862.30	1599.46
862.47	1548.26
862.63	1478.63
862.80	1615.85
862.97	1513.45
863.14	1519.59
863.30	1529.83
863.47	1497.07
863.64	1566.70
863.81	1527.78
863.97	1562.60
864.14	1548.26
864.31	1509.35
864.48	1558.50
864.65	1482.73
864.81	1587.18
864.98	1517.54
865.15	1533.93
865.32	1611.75
865.48	1619.94
865.65	1597.42
865.82	1529.83
865.98	1540.07
866.15	1595.37
866.32	1632.23
866.49	1478.63
866.65	1644.52
866.82	1562.60
866.99	1529.83
867.16	1529.83
867.32	1464.30
867.49	1544.17
867.66	1593.32
867.83	1484.78
867.99	1474.54
868.16	1527.78
868.33	1402.86
868.49	1497.07
868.66	1552.36
868.83	1615.85
868.99	1507.30
869.16	1484.78
869.33	1550.31
869.50	1542.12
869.66	1550.31
869.83	1521.64
870.00	1513.45
870.16	1624.04
870.33	1535.98
870.50	1581.03
870.66	1521.64
870.83	1665.00
871.00	1599.46
871.17	1595.37
871.33	1591.27
871.50	1484.78
871.67	1548.26
871.83	1474.54
872.00	1611.75
872.17	1482.73
872.33	1548.26
872.50	1472.49
872.67	1558.50
872.83	1507.30
873.00	1611.75
873.17	1576.94
873.33	1640.42
873.50	1503.21
873.67	1435.63
873.83	1538.02
874.00	1544.17
874.16	1648.61
874.33	1589.22
874.50	1507.30
874.66	1595.37
874.83	1519.59
875.00	1583.08
875.16	1540.07
875.33	1574.89
875.50	1456.11
875.66	1503.21
875.83	1558.50
875.99	1488.87
876.16	1509.35
876.33	1505.26
876.49	1542.12
876.66	1564.65
876.83	1587.18
876.99	1492.97
877.16	1568.74
877.32	1523.69
877.49	1456.11
877.66	1437.67
877.82	1626.09
877.99	1497.07
878.15	1593.32
878.32	1509.35
878.49	1503.21
878.65	1574.89
878.82	1568.74
878.98	1523.69
879.15	1595.37
879.32	1585.13
879.48	1558.50
879.65	1548.26
879.81	1499.11
879.98	1474.54
880.15	1476.59
880.31	1525.74
880.48	1507.30
880.64	1583.08
880.81	1605.61
880.97	1607.66
881.14	1572.84
881.31	1554.41
881.47	1699.81
881.64	1509.35
881.80	1519.59
881.97	1466.35
882.13	1599.46
882.30	1554.41
882.47	1533.93
882.63	1404.91
882.80	1517.54
882.96	1529.83
883.13	1564.65
883.29	1554.41
883.46	1568.74
883.62	1601.51
883.79	1566.70
883.95	1542.12
884.12	1529.83
884.29	1519.59
884.45	1495.02
884.62	1603.56
884.78	1472.49
884.95	1568.74
885.11	1474.54
885.28	1587.18
885.44	1552.36
885.61	1509.35
885.77	1650.66
885.94	1558.50
886.10	1509.35
886.27	1535.98
886.43	1544.17
886.60	1574.89
886.76	1538.02
886.93	1492.97
887.09	1519.59
887.26	1439.72
887.42	1519.59
887.59	1572.84
887.75	1624.04
887.92	1578.98
888.08	1533.93
888.25	1609.70
888.41	1636.33
888.58	1570.79
888.74	1550.31
888.91	1542.12
>>>>>End Processed Spectral Data<<<<<
