SpectraSuite Data File
++++++++++++++++++++++++++++++++++++
Date: Tue May 03 12:55:31 CEST 2016
User: root
Dark Spectrum Present: No
Reference Spectrum Present: No
Number of Sampled Component Spectra: 1
Spectrometers: USB4C02835
Integration Time (usec): 100000 (USB4C02835)
Spectra Averaged: 1 (USB4C02835)
Boxcar Smoothing: 0 (USB4C02835)
Correct for Electrical Dark: No (USB4C02835)
Strobe/Lamp Enabled: No (USB4C02835)
Correct for Detector Non-linearity: No (USB4C02835)
Correct for Stray Light: No (USB4C02835)
Number of Pixels in Processed Spectrum: 3648
>>>>>Begin Processed Spectral Data<<<<<
177.47	1355.76
177.69	1355.76
177.91	1355.76
178.13	1363.95
178.36	1361.90
178.58	1525.74
178.80	1533.93
179.02	1519.59
179.24	1495.02
179.46	1513.45
179.68	1538.02
179.90	1503.21
180.13	1544.17
180.35	1585.13
180.57	1574.89
180.79	1619.94
181.01	1589.22
181.23	1665.00
181.45	1615.85
181.67	1515.50
181.90	1550.31
182.12	1474.54
182.34	1468.39
182.56	1562.60
182.78	1593.32
183.00	1531.88
183.22	1572.84
183.44	1507.30
183.66	1751.01
183.89	1671.14
184.11	1511.40
184.33	1578.98
184.55	1572.84
184.77	1632.23
184.99	1576.94
185.21	1490.92
185.43	1718.25
185.65	1529.83
185.87	1576.94
186.10	1613.80
186.32	1570.79
186.54	1628.14
186.76	1542.12
186.98	1566.70
187.20	1505.26
187.42	1533.93
187.64	1458.15
187.86	1587.18
188.08	1621.99
188.30	1503.21
188.52	1542.12
188.75	1581.03
188.97	1603.56
189.19	1533.93
189.41	1505.26
189.63	1560.55
189.85	1490.92
190.07	1490.92
190.29	1482.73
190.51	1554.41
190.73	1419.24
190.95	1634.28
191.17	1476.59
191.39	1474.54
191.61	1570.79
191.84	1509.35
192.06	1595.37
192.28	1492.97
192.50	1689.57
192.72	1511.40
192.94	1507.30
193.16	1591.27
193.38	1478.63
193.60	1570.79
193.82	1542.12
194.04	1581.03
194.26	1599.46
194.48	1495.02
194.70	1490.92
194.92	1529.83
195.14	1533.93
195.36	1515.50
195.58	1607.66
195.80	1482.73
196.02	1525.74
196.24	1511.40
196.46	1511.40
196.69	1454.06
196.91	1658.85
197.13	1550.31
197.35	1495.02
197.57	1570.79
197.79	1550.31
198.01	1535.98
198.23	1533.93
198.45	1542.12
198.67	1470.44
198.89	1558.50
199.11	1593.32
199.33	1527.78
199.55	1427.43
199.77	1628.14
199.99	1587.18
200.21	1576.94
200.43	1556.46
200.65	1464.30
200.87	1435.63
201.09	1540.07
201.31	1521.64
201.53	1546.22
201.75	1476.59
201.97	1531.88
202.19	1519.59
202.41	1544.17
202.63	1632.23
202.85	1542.12
203.07	1513.45
203.29	1558.50
203.51	1587.18
203.73	1484.78
203.95	1671.14
204.17	1544.17
204.39	1535.98
204.61	1513.45
204.83	1540.07
205.05	1564.65
205.27	1566.70
205.49	1554.41
205.71	1593.32
205.93	1519.59
206.15	1597.42
206.37	1542.12
206.59	1597.42
206.81	1503.21
207.03	1560.55
207.25	1472.49
207.47	1599.46
207.69	1560.55
207.91	1609.70
208.13	1544.17
208.34	1476.59
208.56	1572.84
208.78	1589.22
209.00	1501.16
209.22	1499.11
209.44	1540.07
209.66	1517.54
209.88	1439.72
210.10	1513.45
210.32	1462.25
210.54	1681.38
210.76	1525.74
210.98	1554.41
211.20	1470.44
211.42	1546.22
211.64	1542.12
211.86	1519.59
212.08	1560.55
212.30	1601.51
212.52	1495.02
212.74	1513.45
212.96	1474.54
213.17	1587.18
213.39	1581.03
213.61	1583.08
213.83	1542.12
214.05	1499.11
214.27	1574.89
214.49	1492.97
214.71	1517.54
214.93	1654.76
215.15	1462.25
215.37	1615.85
215.59	1505.26
215.81	1531.88
216.03	1636.33
216.24	1507.30
216.46	1538.02
216.68	1632.23
216.90	1585.13
217.12	1548.26
217.34	1521.64
217.56	1505.26
217.78	1595.37
218.00	1632.23
218.22	1599.46
218.44	1568.74
218.66	1533.93
218.87	1679.33
219.09	1591.27
219.31	1595.37
219.53	1546.22
219.75	1505.26
219.97	1517.54
220.19	1511.40
220.41	1486.83
220.63	1615.85
220.85	1523.69
221.06	1466.35
221.28	1583.08
221.50	1628.14
221.72	1501.16
221.94	1546.22
222.16	1492.97
222.38	1572.84
222.60	1548.26
222.82	1443.82
223.03	1595.37
223.25	1456.11
223.47	1621.99
223.69	1574.89
223.91	1548.26
224.13	1550.31
224.35	1558.50
224.57	1568.74
224.78	1574.89
225.00	1538.02
225.22	1470.44
225.44	1574.89
225.66	1560.55
225.88	1464.30
226.10	1621.99
226.32	1574.89
226.53	1560.55
226.75	1449.96
226.97	1480.68
227.19	1538.02
227.41	1509.35
227.63	1535.98
227.85	1447.91
228.06	1488.87
228.28	1558.50
228.50	1585.13
228.72	1517.54
228.94	1591.27
229.16	1478.63
229.37	1583.08
229.59	1484.78
229.81	1605.61
230.03	1558.50
230.25	1488.87
230.47	1445.87
230.69	1470.44
230.90	1511.40
231.12	1521.64
231.34	1503.21
231.56	1525.74
231.78	1503.21
232.00	1538.02
232.21	1533.93
232.43	1499.11
232.65	1421.29
232.87	1574.89
233.09	1482.73
233.30	1552.36
233.52	1503.21
233.74	1439.72
233.96	1499.11
234.18	1525.74
234.40	1517.54
234.61	1570.79
234.83	1505.26
235.05	1449.96
235.27	1609.70
235.49	1570.79
235.70	1570.79
235.92	1480.68
236.14	1597.42
236.36	1644.52
236.58	1511.40
236.79	1548.26
237.01	1476.59
237.23	1476.59
237.45	1611.75
237.67	1499.11
237.88	1521.64
238.10	1648.61
238.32	1521.64
238.54	1503.21
238.76	1497.07
238.97	1509.35
239.19	1531.88
239.41	1566.70
239.63	1583.08
239.85	1529.83
240.06	1531.88
240.28	1484.78
240.50	1591.27
240.72	1513.45
240.93	1509.35
241.15	1615.85
241.37	1558.50
241.59	1587.18
241.81	1458.15
242.02	1570.79
242.24	1517.54
242.46	1599.46
242.68	1562.60
242.89	1562.60
243.11	1593.32
243.33	1560.55
243.55	1570.79
243.76	1468.39
243.98	1464.30
244.20	1568.74
244.42	1574.89
244.64	1513.45
244.85	1531.88
245.07	1517.54
245.29	1585.13
245.51	1538.02
245.72	1535.98
245.94	1538.02
246.16	1538.02
246.38	1521.64
246.59	1480.68
246.81	1566.70
247.03	1564.65
247.24	1556.46
247.46	1605.61
247.68	1556.46
247.90	1497.07
248.11	1611.75
248.33	1572.84
248.55	1544.17
248.77	1538.02
248.98	1568.74
249.20	1576.94
249.42	1480.68
249.64	1564.65
249.85	1460.20
250.07	1472.49
250.29	1583.08
250.50	1671.14
250.72	1466.35
250.94	1560.55
251.16	1581.03
251.37	1562.60
251.59	1587.18
251.81	1540.07
252.02	1619.94
252.24	1574.89
252.46	1583.08
252.68	1564.65
252.89	1468.39
253.11	1470.44
253.33	1611.75
253.54	1628.14
253.76	1511.40
253.98	1554.41
254.20	1519.59
254.41	1507.30
254.63	1560.55
254.85	1497.07
255.06	1550.31
255.28	1589.22
255.50	1568.74
255.71	1531.88
255.93	1466.35
256.15	1566.70
256.36	1515.50
256.58	1570.79
256.80	1507.30
257.02	1507.30
257.23	1511.40
257.45	1501.16
257.67	1525.74
257.88	1492.97
258.10	1519.59
258.32	1578.98
258.53	1607.66
258.75	1605.61
258.97	1550.31
259.18	1554.41
259.40	1560.55
259.62	1609.70
259.83	1556.46
260.05	1572.84
260.27	1757.16
260.48	1542.12
260.70	1468.39
260.92	1607.66
261.13	1574.89
261.35	1540.07
261.57	1468.39
261.78	1492.97
262.00	1533.93
262.22	1574.89
262.43	1513.45
262.65	1523.69
262.86	1544.17
263.08	1605.61
263.30	1554.41
263.51	1468.39
263.73	1538.02
263.95	1585.13
264.16	1519.59
264.38	1486.83
264.60	1583.08
264.81	1556.46
265.03	1566.70
265.25	1564.65
265.46	1597.42
265.68	1550.31
265.89	1574.89
266.11	1366.00
266.33	1603.56
266.54	1540.07
266.76	1540.07
266.98	1603.56
267.19	1611.75
267.41	1636.33
267.62	1460.20
267.84	1439.72
268.06	1595.37
268.27	1576.94
268.49	1595.37
268.70	1550.31
268.92	1535.98
269.14	1423.34
269.35	1507.30
269.57	1542.12
269.79	1505.26
270.00	1540.07
270.22	1619.94
270.43	1464.30
270.65	1411.05
270.87	1468.39
271.08	1519.59
271.30	1652.71
271.51	1548.26
271.73	1525.74
271.95	1564.65
272.16	1550.31
272.38	1552.36
272.59	1566.70
272.81	1591.27
273.02	1550.31
273.24	1554.41
273.46	1525.74
273.67	1501.16
273.89	1513.45
274.10	1558.50
274.32	1613.80
274.54	1533.93
274.75	1558.50
274.97	1564.65
275.18	1503.21
275.40	1558.50
275.61	1581.03
275.83	1587.18
276.05	1548.26
276.26	1552.36
276.48	1484.78
276.69	1521.64
276.91	1476.59
277.12	1595.37
277.34	1583.08
277.55	1572.84
277.77	1460.20
277.99	1478.63
278.20	1439.72
278.42	1570.79
278.63	1581.03
278.85	1486.83
279.06	1470.44
279.28	1558.50
279.49	1589.22
279.71	1585.13
279.93	1517.54
280.14	1607.66
280.36	1513.45
280.57	1640.42
280.79	1554.41
281.00	1576.94
281.22	1480.68
281.43	1624.04
281.65	1411.05
281.86	1538.02
282.08	1660.90
282.29	1638.38
282.51	1445.87
282.73	1404.91
282.94	1478.63
283.16	1556.46
283.37	1581.03
283.59	1538.02
283.80	1601.51
284.02	1486.83
284.23	1529.83
284.45	1523.69
284.66	1462.25
284.88	1564.65
285.09	1601.51
285.31	1562.60
285.52	1562.60
285.74	1458.15
285.95	1478.63
286.17	1566.70
286.38	1624.04
286.60	1492.97
286.81	1540.07
287.03	1452.01
287.24	1556.46
287.46	1607.66
287.67	1484.78
287.89	1587.18
288.10	1564.65
288.32	1585.13
288.53	1597.42
288.75	1568.74
288.96	1603.56
289.18	1576.94
289.39	1646.57
289.61	1517.54
289.82	1632.23
290.04	1589.22
290.25	1478.63
290.47	1517.54
290.68	1482.73
290.90	1535.98
291.11	1517.54
291.33	1591.27
291.54	1476.59
291.76	1488.87
291.97	1548.26
292.18	1501.16
292.40	1478.63
292.61	1521.64
292.83	1689.57
293.04	1576.94
293.26	1486.83
293.47	1599.46
293.69	1437.67
293.90	1597.42
294.12	1583.08
294.33	1558.50
294.55	1492.97
294.76	1613.80
294.97	1544.17
295.19	1619.94
295.40	1542.12
295.62	1607.66
295.83	1529.83
296.05	1564.65
296.26	1617.90
296.48	1433.58
296.69	1550.31
296.90	1513.45
297.12	1570.79
297.33	1576.94
297.55	1548.26
297.76	1576.94
297.98	1556.46
298.19	1527.78
298.41	1517.54
298.62	1464.30
298.83	1578.98
299.05	1576.94
299.26	1527.78
299.48	1456.11
299.69	1572.84
299.90	1517.54
300.12	1505.26
300.33	1564.65
300.55	1503.21
300.76	1566.70
300.98	1525.74
301.19	1511.40
301.40	1578.98
301.62	1531.88
301.83	1560.55
302.05	1607.66
302.26	1497.07
302.47	1544.17
302.69	1427.43
302.90	1511.40
303.12	1490.92
303.33	1564.65
303.54	1621.99
303.76	1435.63
303.97	1562.60
304.19	1626.09
304.40	1462.25
304.61	1509.35
304.83	1617.90
305.04	1511.40
305.26	1556.46
305.47	1429.48
305.68	1527.78
305.90	1515.50
306.11	1527.78
306.33	1552.36
306.54	1476.59
306.75	1431.53
306.97	1429.48
307.18	1464.30
307.39	1542.12
307.61	1540.07
307.82	1517.54
308.04	1572.84
308.25	1525.74
308.46	1544.17
308.68	1474.54
308.89	1533.93
309.10	1535.98
309.32	1597.42
309.53	1441.77
309.74	1562.60
309.96	1484.78
310.17	1656.81
310.39	1585.13
310.60	1515.50
310.81	1501.16
311.03	1468.39
311.24	1562.60
311.45	1488.87
311.67	1595.37
311.88	1542.12
312.09	1558.50
312.31	1558.50
312.52	1585.13
312.73	1558.50
312.95	1462.25
313.16	1535.98
313.37	1597.42
313.59	1574.89
313.80	1560.55
314.01	1574.89
314.23	1550.31
314.44	1501.16
314.65	1482.73
314.87	1482.73
315.08	1570.79
315.29	1503.21
315.51	1462.25
315.72	1495.02
315.93	1628.14
316.15	1519.59
316.36	1433.58
316.57	1533.93
316.79	1505.26
317.00	1503.21
317.21	1521.64
317.43	1490.92
317.64	1482.73
317.85	1464.30
318.07	1517.54
318.28	1640.42
318.49	1683.43
318.70	1755.11
318.92	1722.34
319.13	1574.89
319.34	1681.38
319.56	1667.05
319.77	1601.51
319.98	1673.19
320.20	1599.46
320.41	1535.98
320.62	1656.81
320.83	1488.87
321.05	1646.57
321.26	1552.36
321.47	1507.30
321.69	1632.23
321.90	1437.67
322.11	1497.07
322.32	1581.03
322.54	1578.98
322.75	1490.92
322.96	1669.09
323.18	1476.59
323.39	1411.05
323.60	1421.29
323.81	1595.37
324.03	1482.73
324.24	1509.35
324.45	1538.02
324.66	1556.46
324.88	1525.74
325.09	1585.13
325.30	1458.15
325.52	1599.46
325.73	1591.27
325.94	1492.97
326.15	1421.29
326.37	1486.83
326.58	1560.55
326.79	1589.22
327.00	1435.63
327.22	1585.13
327.43	1486.83
327.64	1468.39
327.85	1558.50
328.07	1535.98
328.28	1593.32
328.49	1548.26
328.70	1566.70
328.92	1521.64
329.13	1566.70
329.34	1585.13
329.55	1636.33
329.76	1621.99
329.98	1497.07
330.19	1642.47
330.40	1509.35
330.61	1492.97
330.83	1509.35
331.04	1552.36
331.25	1554.41
331.46	1509.35
331.68	1439.72
331.89	1558.50
332.10	1515.50
332.31	1505.26
332.52	1544.17
332.74	1626.09
332.95	1454.06
333.16	1511.40
333.37	1581.03
333.58	1519.59
333.80	1624.04
334.01	1478.63
334.22	1554.41
334.43	1507.30
334.64	1439.72
334.86	1476.59
335.07	1521.64
335.28	1597.42
335.49	1538.02
335.70	1562.60
335.92	1562.60
336.13	1658.85
336.34	1572.84
336.55	1511.40
336.76	1519.59
336.98	1445.87
337.19	1562.60
337.40	1552.36
337.61	1613.80
337.82	1607.66
338.04	1556.46
338.25	1495.02
338.46	1519.59
338.67	1507.30
338.88	1505.26
339.09	1486.83
339.31	1542.12
339.52	1523.69
339.73	1486.83
339.94	1492.97
340.15	1640.42
340.36	1505.26
340.58	1519.59
340.79	1546.22
341.00	1560.55
341.21	1456.11
341.42	1574.89
341.63	1558.50
341.85	1626.09
342.06	1527.78
342.27	1454.06
342.48	1544.17
342.69	1529.83
342.90	1507.30
343.12	1542.12
343.33	1501.16
343.54	1589.22
343.75	1654.76
343.96	1478.63
344.17	1482.73
344.38	1552.36
344.60	1501.16
344.81	1490.92
345.02	1519.59
345.23	1529.83
345.44	1636.33
345.65	1548.26
345.86	1503.21
346.07	1517.54
346.29	1482.73
346.50	1533.93
346.71	1628.14
346.92	1542.12
347.13	1578.98
347.34	1542.12
347.55	1566.70
347.76	1501.16
347.98	1435.63
348.19	1521.64
348.40	1601.51
348.61	1464.30
348.82	1581.03
349.03	1562.60
349.24	1501.16
349.45	1689.57
349.66	1435.63
349.88	1587.18
350.09	1492.97
350.30	1644.52
350.51	1679.33
350.72	1540.07
350.93	1548.26
351.14	1540.07
351.35	1525.74
351.56	1595.37
351.77	1517.54
351.99	1511.40
352.20	1593.32
352.41	1632.23
352.62	1460.20
352.83	1540.07
353.04	1558.50
353.25	1552.36
353.46	1568.74
353.67	1576.94
353.88	1437.67
354.09	1558.50
354.30	1482.73
354.52	1507.30
354.73	1560.55
354.94	1486.83
355.15	1507.30
355.36	1605.61
355.57	1533.93
355.78	1589.22
355.99	1480.68
356.20	1466.35
356.41	1441.77
356.62	1544.17
356.83	1568.74
357.04	1609.70
357.25	1427.43
357.46	1509.35
357.68	1538.02
357.89	1472.49
358.10	1480.68
358.31	1535.98
358.52	1556.46
358.73	1499.11
358.94	1470.44
359.15	1521.64
359.36	1558.50
359.57	1570.79
359.78	1484.78
359.99	1548.26
360.20	1490.92
360.41	1511.40
360.62	1544.17
360.83	1542.12
361.04	1560.55
361.25	1546.22
361.46	1595.37
361.67	1601.51
361.88	1552.36
362.09	1501.16
362.30	1503.21
362.51	1538.02
362.72	1648.61
362.93	1578.98
363.14	1572.84
363.35	1560.55
363.56	1554.41
363.78	1617.90
363.99	1574.89
364.20	1548.26
364.41	1519.59
364.62	1675.24
364.83	1566.70
365.04	1562.60
365.25	1462.25
365.46	1669.09
365.67	1558.50
365.88	1507.30
366.09	1476.59
366.30	1535.98
366.51	1527.78
366.72	1513.45
366.93	1544.17
367.14	1495.02
367.35	1632.23
367.56	1509.35
367.77	1607.66
367.98	1554.41
368.18	1581.03
368.39	1640.42
368.60	1550.31
368.81	1535.98
369.02	1556.46
369.23	1517.54
369.44	1552.36
369.65	1640.42
369.86	1556.46
370.07	1562.60
370.28	1478.63
370.49	1576.94
370.70	1570.79
370.91	1503.21
371.12	1517.54
371.33	1570.79
371.54	1441.77
371.75	1710.05
371.96	1433.58
372.17	1507.30
372.38	1531.88
372.59	1533.93
372.80	1542.12
373.01	1519.59
373.22	1427.43
373.43	1564.65
373.64	1509.35
373.85	1587.18
374.06	1572.84
374.26	1560.55
374.47	1548.26
374.68	1570.79
374.89	1615.85
375.10	1490.92
375.31	1574.89
375.52	1507.30
375.73	1527.78
375.94	1476.59
376.15	1665.00
376.36	1499.11
376.57	1560.55
376.78	1488.87
376.99	1554.41
377.20	1546.22
377.40	1519.59
377.61	1568.74
377.82	1560.55
378.03	1605.61
378.24	1560.55
378.45	1548.26
378.66	1576.94
378.87	1509.35
379.08	1392.62
379.29	1550.31
379.50	1589.22
379.71	1527.78
379.91	1488.87
380.12	1482.73
380.33	1591.27
380.54	1566.70
380.75	1478.63
380.96	1546.22
381.17	1570.79
381.38	1583.08
381.59	1581.03
381.80	1638.38
382.00	1615.85
382.21	1603.56
382.42	1683.43
382.63	1695.72
382.84	1599.46
383.05	1558.50
383.26	1599.46
383.47	1562.60
383.68	1558.50
383.88	1589.22
384.09	1513.45
384.30	1589.22
384.51	1566.70
384.72	1486.83
384.93	1445.87
385.14	1574.89
385.35	1644.52
385.55	1460.20
385.76	1632.23
385.97	1535.98
386.18	1462.25
386.39	1550.31
386.60	1546.22
386.81	1497.07
387.02	1531.88
387.22	1556.46
387.43	1671.14
387.64	1699.81
387.85	1816.55
388.06	3123.15
388.27	7157.65
388.48	10614.62
388.68	12453.70
388.89	13965.10
389.10	12857.15
389.31	10133.35
389.52	8875.90
389.73	7843.72
389.93	7241.62
390.14	6733.72
390.35	6131.62
390.56	5425.07
390.77	4573.11
390.98	3588.04
391.18	2740.18
391.39	2136.03
391.60	1861.60
391.81	1718.25
392.02	1581.03
392.23	1587.18
392.43	1558.50
392.64	1603.56
392.85	1667.05
393.06	1675.24
393.27	1505.26
393.47	1517.54
393.68	1587.18
393.89	1511.40
394.10	1697.77
394.31	1492.97
394.52	1435.63
394.72	1556.46
394.93	1603.56
395.14	1492.97
395.35	1632.23
395.56	1503.21
395.76	1634.28
395.97	1734.63
396.18	1687.53
396.39	1697.77
396.60	1920.99
396.80	1791.97
397.01	1667.05
397.22	1644.52
397.43	1648.61
397.64	1531.88
397.84	1705.96
398.05	1728.49
398.26	1626.09
398.47	1568.74
398.67	1599.46
398.88	1458.15
399.09	1599.46
399.30	1456.11
399.51	1523.69
399.71	1511.40
399.92	1501.16
400.13	1525.74
400.34	1615.85
400.54	1552.36
400.75	1589.22
400.96	1560.55
401.17	1603.56
401.37	1585.13
401.58	1507.30
401.79	1578.98
402.00	1841.12
402.21	1923.04
402.41	1875.94
402.62	1964.00
402.83	1976.29
403.04	1847.27
403.24	1947.62
403.45	1687.53
403.66	1724.39
403.87	1785.83
404.07	1675.24
404.28	1722.34
404.49	1701.86
404.70	1585.13
404.90	1638.38
405.11	1484.78
405.32	1581.03
405.52	1519.59
405.73	1511.40
405.94	1507.30
406.15	1574.89
406.35	1572.84
406.56	1576.94
406.77	1568.74
406.98	1552.36
407.18	1505.26
407.39	1669.09
407.60	1458.15
407.80	1492.97
408.01	1460.20
408.22	1560.55
408.43	1546.22
408.63	1599.46
408.84	1583.08
409.05	1558.50
409.25	1474.54
409.46	1505.26
409.67	1540.07
409.88	1517.54
410.08	1589.22
410.29	1544.17
410.50	1591.27
410.70	1564.65
410.91	1458.15
411.12	1509.35
411.32	1546.22
411.53	1529.83
411.74	1662.95
411.95	1648.61
412.15	1613.80
412.36	1644.52
412.57	1548.26
412.77	1644.52
412.98	1554.41
413.19	1550.31
413.39	1624.04
413.60	1599.46
413.81	1650.66
414.01	1480.68
414.22	1628.14
414.43	1638.38
414.63	1535.98
414.84	1667.05
415.05	1611.75
415.25	1589.22
415.46	1611.75
415.67	1468.39
415.87	1548.26
416.08	1591.27
416.29	1495.02
416.49	1585.13
416.70	1523.69
416.91	1521.64
417.11	1581.03
417.32	1587.18
417.53	1560.55
417.73	1607.66
417.94	1507.30
418.15	1558.50
418.35	1568.74
418.56	1535.98
418.77	1613.80
418.97	1525.74
419.18	1538.02
419.38	1411.05
419.59	1544.17
419.80	1660.90
420.00	1505.26
420.21	1615.85
420.42	1538.02
420.62	1572.84
420.83	1607.66
421.04	1542.12
421.24	1486.83
421.45	1587.18
421.65	1540.07
421.86	1533.93
422.07	1556.46
422.27	1544.17
422.48	1562.60
422.69	1566.70
422.89	1437.67
423.10	1511.40
423.30	1466.35
423.51	1523.69
423.72	1597.42
423.92	1578.98
424.13	1517.54
424.33	1538.02
424.54	1570.79
424.75	1478.63
424.95	1591.27
425.16	1515.50
425.36	1538.02
425.57	1570.79
425.78	1552.36
425.98	1566.70
426.19	1499.11
426.39	1443.82
426.60	1521.64
426.81	1527.78
427.01	1538.02
427.22	1554.41
427.42	1472.49
427.63	1548.26
427.83	1630.18
428.04	1615.85
428.25	1619.94
428.45	1576.94
428.66	1527.78
428.86	1574.89
429.07	1570.79
429.28	1538.02
429.48	1548.26
429.69	1472.49
429.89	1595.37
430.10	1517.54
430.30	1492.97
430.51	1583.08
430.71	1484.78
430.92	1538.02
431.13	1490.92
431.33	1501.16
431.54	1597.42
431.74	1638.38
431.95	1583.08
432.15	1501.16
432.36	1558.50
432.56	1593.32
432.77	1628.14
432.98	1583.08
433.18	1646.57
433.39	1593.32
433.59	1554.41
433.80	1628.14
434.00	1687.53
434.21	1478.63
434.41	1505.26
434.62	1638.38
434.82	1478.63
435.03	1495.02
435.23	1507.30
435.44	1460.20
435.64	1601.51
435.85	1568.74
436.06	1587.18
436.26	1525.74
436.47	1488.87
436.67	1521.64
436.88	1546.22
437.08	1560.55
437.29	1656.81
437.49	1607.66
437.70	1572.84
437.90	1591.27
438.11	1691.62
438.31	1652.71
438.52	1705.96
438.72	1740.77
438.93	1722.34
439.13	1609.70
439.34	1665.00
439.54	1587.18
439.75	1583.08
439.95	1640.42
440.16	1566.70
440.36	1607.66
440.57	1568.74
440.77	1587.18
440.98	1589.22
441.18	1568.74
441.39	1501.16
441.59	1462.25
441.80	1624.04
442.00	1515.50
442.21	1560.55
442.41	1437.67
442.62	1599.46
442.82	1521.64
443.02	1595.37
443.23	1607.66
443.43	1587.18
443.64	1695.72
443.84	1474.54
444.05	1615.85
444.25	1574.89
444.46	1568.74
444.66	1443.82
444.87	1613.80
445.07	1501.16
445.28	1574.89
445.48	1589.22
445.69	1615.85
445.89	1667.05
446.09	1646.57
446.30	2033.63
446.50	3018.71
446.71	4462.52
446.91	5316.53
447.12	5732.26
447.32	5566.38
447.53	4626.36
447.73	4100.03
447.93	3608.52
448.14	3362.76
448.34	3301.33
448.55	2936.79
448.75	2856.92
448.96	2836.44
449.16	2459.61
449.36	2209.76
449.57	1914.85
449.77	1865.70
449.98	1591.27
450.18	1685.48
450.39	1658.85
450.59	1568.74
450.79	1566.70
451.00	1552.36
451.20	1488.87
451.41	1558.50
451.61	1542.12
451.81	1519.59
452.02	1525.74
452.22	1486.83
452.43	1554.41
452.63	1535.98
452.84	1527.78
453.04	1527.78
453.24	1525.74
453.45	1527.78
453.65	1523.69
453.86	1591.27
454.06	1554.41
454.26	1456.11
454.47	1527.78
454.67	1558.50
454.87	1589.22
455.08	1484.78
455.28	1576.94
455.49	1603.56
455.69	1511.40
455.89	1574.89
456.10	1601.51
456.30	1525.74
456.51	1492.97
456.71	1486.83
456.91	1642.47
457.12	1566.70
457.32	1599.46
457.52	1415.15
457.73	1581.03
457.93	1591.27
458.14	1578.98
458.34	1456.11
458.54	1466.35
458.75	1480.68
458.95	1572.84
459.15	1550.31
459.36	1535.98
459.56	1581.03
459.76	1581.03
459.97	1509.35
460.17	1531.88
460.37	1574.89
460.58	1449.96
460.78	1570.79
460.99	1509.35
461.19	1503.21
461.39	1497.07
461.60	1503.21
461.80	1542.12
462.00	1538.02
462.21	1509.35
462.41	1525.74
462.61	1466.35
462.82	1509.35
463.02	1548.26
463.22	1589.22
463.43	1599.46
463.63	1576.94
463.83	1538.02
464.04	1587.18
464.24	1562.60
464.44	1476.59
464.64	1560.55
464.85	1597.42
465.05	1587.18
465.25	1589.22
465.46	1478.63
465.66	1605.61
465.86	1634.28
466.07	1591.27
466.27	1595.37
466.47	1404.91
466.68	1492.97
466.88	1648.61
467.08	1519.59
467.29	1509.35
467.49	1599.46
467.69	1509.35
467.89	1552.36
468.10	1558.50
468.30	1591.27
468.50	1671.14
468.71	1601.51
468.91	1527.78
469.11	1626.09
469.31	1538.02
469.52	1417.19
469.72	1648.61
469.92	1691.62
470.13	1544.17
470.33	1546.22
470.53	1626.09
470.73	1951.71
470.94	2346.97
471.14	2441.18
471.34	2611.16
471.54	2377.69
471.75	2166.75
471.95	1937.38
472.15	1904.61
472.36	2009.06
472.56	1953.76
472.76	1918.95
472.96	1869.80
473.17	1824.74
473.37	1837.03
473.57	1679.33
473.77	1642.47
473.98	1603.56
474.18	1556.46
474.38	1722.34
474.58	1519.59
474.79	1495.02
474.99	1646.57
475.19	1576.94
475.39	1531.88
475.60	1535.98
475.80	1486.83
476.00	1578.98
476.20	1507.30
476.41	1576.94
476.61	1675.24
476.81	1583.08
477.01	1568.74
477.21	1621.99
477.42	1636.33
477.62	1499.11
477.82	1527.78
478.02	1538.02
478.23	1583.08
478.43	1589.22
478.63	1527.78
478.83	1609.70
479.03	1597.42
479.24	1613.80
479.44	1662.95
479.64	1513.45
479.84	1515.50
480.04	1402.86
480.25	1599.46
480.45	1501.16
480.65	1460.20
480.85	1560.55
481.06	1562.60
481.26	1542.12
481.46	1554.41
481.66	1566.70
481.86	1452.01
482.06	1568.74
482.27	1464.30
482.47	1566.70
482.67	1634.28
482.87	1435.63
483.07	1621.99
483.28	1535.98
483.48	1462.25
483.68	1531.88
483.88	1587.18
484.08	1400.81
484.29	1492.97
484.49	1587.18
484.69	1507.30
484.89	1587.18
485.09	1570.79
485.29	1568.74
485.50	1607.66
485.70	1546.22
485.90	1544.17
486.10	1517.54
486.30	1605.61
486.50	1562.60
486.71	1521.64
486.91	1572.84
487.11	1568.74
487.31	1578.98
487.51	1521.64
487.71	1470.44
487.91	1560.55
488.12	1484.78
488.32	1447.91
488.52	1542.12
488.72	1445.87
488.92	1591.27
489.12	1591.27
489.32	1656.81
489.53	1568.74
489.73	1441.77
489.93	1626.09
490.13	1449.96
490.33	1484.78
490.53	1589.22
490.73	1628.14
490.94	1454.06
491.14	1568.74
491.34	1677.29
491.54	2215.90
491.74	2645.98
491.94	2996.18
492.14	3188.69
492.34	3186.64
492.54	2807.77
492.75	2521.05
492.95	2371.55
493.15	2330.59
493.35	2273.25
493.55	2033.63
493.75	2093.02
493.95	1994.72
494.15	1914.85
494.35	1882.08
494.56	1683.43
494.76	1695.72
494.96	1619.94
495.16	1714.15
495.36	1572.84
495.56	1583.08
495.76	1513.45
495.96	1568.74
496.16	1505.26
496.36	1581.03
496.56	1546.22
496.77	1507.30
496.97	1550.31
497.17	1673.19
497.37	1572.84
497.57	1652.71
497.77	1560.55
497.97	1445.87
498.17	1583.08
498.37	1529.83
498.57	1583.08
498.77	1572.84
498.97	1574.89
499.17	1605.61
499.38	1546.22
499.58	1527.78
499.78	1583.08
499.98	1611.75
500.18	1583.08
500.38	1585.13
500.58	1804.26
500.78	2605.02
500.98	5193.65
501.18	6711.19
501.38	8179.59
501.58	8849.27
501.78	7856.01
501.98	6152.10
502.18	5296.05
502.38	4638.65
502.58	4149.18
502.78	3911.62
502.98	3721.16
503.18	3542.99
503.38	3332.05
503.59	2947.03
503.79	2846.68
503.99	2506.71
504.19	2344.92
504.39	2189.28
504.59	2107.36
504.79	2074.59
504.99	1992.67
505.19	1832.93
505.39	1767.40
505.59	1681.38
505.79	1646.57
505.99	1685.48
506.19	1652.71
506.39	1660.90
506.59	1589.22
506.79	1630.18
506.99	1587.18
507.19	1566.70
507.39	1591.27
507.59	1497.07
507.79	1488.87
507.99	1492.97
508.19	1583.08
508.39	1548.26
508.59	1519.59
508.79	1558.50
508.99	1611.75
509.19	1533.93
509.39	1603.56
509.59	1531.88
509.79	1501.16
509.99	1460.20
510.19	1519.59
510.39	1589.22
510.59	1527.78
510.79	1562.60
510.99	1402.86
511.19	1542.12
511.39	1675.24
511.59	1626.09
511.79	1599.46
511.99	1587.18
512.19	1673.19
512.38	1540.07
512.58	1587.18
512.78	1507.30
512.98	1611.75
513.18	1591.27
513.38	1482.73
513.58	1589.22
513.78	1519.59
513.98	1587.18
514.18	1501.16
514.38	1605.61
514.58	1617.90
514.78	1587.18
514.98	1517.54
515.18	1550.31
515.38	1525.74
515.58	1628.14
515.78	1525.74
515.98	1578.98
516.18	1581.03
516.38	1568.74
516.57	1513.45
516.77	1556.46
516.97	1611.75
517.17	1509.35
517.37	1458.15
517.57	1624.04
517.77	1492.97
517.97	1468.39
518.17	1517.54
518.37	1501.16
518.57	1435.63
518.77	1525.74
518.97	1605.61
519.16	1558.50
519.36	1546.22
519.56	1435.63
519.76	1544.17
519.96	1564.65
520.16	1589.22
520.36	1480.68
520.56	1525.74
520.76	1554.41
520.96	1517.54
521.16	1617.90
521.35	1595.37
521.55	1626.09
521.75	1544.17
521.95	1519.59
522.15	1519.59
522.35	1445.87
522.55	1462.25
522.75	1638.38
522.95	1552.36
523.14	1460.20
523.34	1525.74
523.54	1535.98
523.74	1585.13
523.94	1595.37
524.14	1458.15
524.34	1544.17
524.54	1529.83
524.73	1464.30
524.93	1574.89
525.13	1540.07
525.33	1454.06
525.53	1673.19
525.73	1538.02
525.93	1538.02
526.13	1497.07
526.32	1495.02
526.52	1566.70
526.72	1566.70
526.92	1533.93
527.12	1540.07
527.32	1484.78
527.52	1570.79
527.71	1587.18
527.91	1509.35
528.11	1421.29
528.31	1470.44
528.51	1497.07
528.71	1511.40
528.90	1576.94
529.10	1542.12
529.30	1607.66
529.50	1503.21
529.70	1574.89
529.90	1476.59
530.09	1529.83
530.29	1560.55
530.49	1566.70
530.69	1640.42
530.89	1605.61
531.09	1556.46
531.28	1556.46
531.48	1558.50
531.68	1603.56
531.88	1544.17
532.08	1650.66
532.28	1482.73
532.47	1560.55
532.67	1538.02
532.87	1574.89
533.07	1605.61
533.27	1607.66
533.46	1601.51
533.66	1597.42
533.86	1576.94
534.06	1619.94
534.26	1605.61
534.45	1533.93
534.65	1599.46
534.85	1540.07
535.05	1554.41
535.25	1613.80
535.44	1468.39
535.64	1515.50
535.84	1562.60
536.04	1542.12
536.24	1488.87
536.43	1513.45
536.63	1632.23
536.83	1533.93
537.03	1509.35
537.22	1425.39
537.42	1458.15
537.62	1648.61
537.82	1501.16
538.02	1601.51
538.21	1591.27
538.41	1632.23
538.61	1564.65
538.81	1413.10
539.00	1609.70
539.20	1480.68
539.40	1433.58
539.60	1497.07
539.79	1470.44
539.99	1497.07
540.19	1525.74
540.39	1552.36
540.58	1486.83
540.78	1589.22
540.98	1560.55
541.18	1533.93
541.37	1560.55
541.57	1505.26
541.77	1552.36
541.97	1538.02
542.16	1546.22
542.36	1482.73
542.56	1578.98
542.76	1640.42
542.95	1607.66
543.15	1597.42
543.35	1525.74
543.54	1572.84
543.74	1505.26
543.94	1538.02
544.14	1566.70
544.33	1630.18
544.53	1593.32
544.73	1550.31
544.93	1492.97
545.12	1503.21
545.32	1540.07
545.52	1531.88
545.71	1544.17
545.91	1552.36
546.11	1523.69
546.30	1523.69
546.50	1501.16
546.70	1574.89
546.90	1570.79
547.09	1484.78
547.29	1544.17
547.49	1560.55
547.68	1597.42
547.88	1474.54
548.08	1589.22
548.27	1865.70
548.47	1548.26
548.67	1513.45
548.87	1595.37
549.06	1517.54
549.26	1517.54
549.46	1546.22
549.65	1544.17
549.85	1527.78
550.05	1581.03
550.24	1427.43
550.44	1550.31
550.64	1554.41
550.83	1517.54
551.03	1597.42
551.23	1609.70
551.42	1558.50
551.62	1509.35
551.82	1509.35
552.01	1525.74
552.21	1578.98
552.41	1499.11
552.60	1615.85
552.80	1597.42
553.00	1538.02
553.19	1591.27
553.39	1665.00
553.59	1484.78
553.78	1605.61
553.98	1501.16
554.17	1505.26
554.37	1476.59
554.57	1601.51
554.76	1519.59
554.96	1554.41
555.16	1556.46
555.35	1535.98
555.55	1552.36
555.75	1517.54
555.94	1619.94
556.14	1505.26
556.33	1587.18
556.53	1462.25
556.73	1544.17
556.92	1605.61
557.12	1603.56
557.32	1662.95
557.51	1570.79
557.71	1546.22
557.90	1576.94
558.10	1585.13
558.30	1501.16
558.49	1540.07
558.69	1525.74
558.88	1527.78
559.08	1546.22
559.28	1464.30
559.47	1550.31
559.67	1484.78
559.86	1603.56
560.06	1525.74
560.26	1591.27
560.45	1517.54
560.65	1556.46
560.84	1677.29
561.04	1574.89
561.24	1599.46
561.43	1470.44
561.63	1595.37
561.82	1529.83
562.02	1548.26
562.22	1474.54
562.41	1474.54
562.61	1636.33
562.80	1478.63
563.00	1558.50
563.19	1511.40
563.39	1578.98
563.59	1490.92
563.78	1474.54
563.98	1406.95
564.17	1488.87
564.37	1396.71
564.56	1439.72
564.76	1523.69
564.96	1587.18
565.15	1564.65
565.35	1626.09
565.54	1556.46
565.74	1552.36
565.93	1529.83
566.13	1519.59
566.32	1564.65
566.52	1599.46
566.71	1636.33
566.91	1576.94
567.11	1587.18
567.30	1558.50
567.50	1566.70
567.69	1583.08
567.89	1564.65
568.08	1486.83
568.28	1519.59
568.47	1464.30
568.67	1599.46
568.86	1511.40
569.06	1574.89
569.25	1550.31
569.45	1495.02
569.64	1542.12
569.84	1554.41
570.04	1583.08
570.23	1550.31
570.43	1535.98
570.62	1511.40
570.82	1562.60
571.01	1548.26
571.21	1540.07
571.40	1449.96
571.60	1566.70
571.79	1511.40
571.99	1560.55
572.18	1515.50
572.38	1550.31
572.57	1583.08
572.77	1656.81
572.96	1679.33
573.16	1568.74
573.35	1587.18
573.55	1652.71
573.74	1527.78
573.94	1564.65
574.13	1517.54
574.33	1595.37
574.52	1615.85
574.71	1560.55
574.91	1605.61
575.10	1474.54
575.30	1615.85
575.49	1488.87
575.69	1578.98
575.88	1626.09
576.08	1566.70
576.27	1648.61
576.47	1679.33
576.66	1634.28
576.86	1644.52
577.05	1562.60
577.25	1564.65
577.44	1669.09
577.64	1546.22
577.83	1673.19
578.02	1546.22
578.22	1626.09
578.41	1591.27
578.61	1486.83
578.80	1615.85
579.00	1581.03
579.19	1585.13
579.39	1513.45
579.58	1562.60
579.77	1585.13
579.97	1626.09
580.16	1656.81
580.36	1650.66
580.55	1679.33
580.75	1578.98
580.94	1574.89
581.13	1615.85
581.33	1605.61
581.52	1593.32
581.72	1683.43
581.91	1658.85
582.11	1562.60
582.30	1628.14
582.49	1603.56
582.69	1712.10
582.88	1621.99
583.08	1613.80
583.27	1531.88
583.47	1542.12
583.66	1581.03
583.85	1552.36
584.05	1554.41
584.24	1632.23
584.44	1689.57
584.63	1662.95
584.82	1642.47
585.02	1685.48
585.21	1763.30
585.41	1669.09
585.60	1783.78
585.79	1851.36
585.99	1914.85
586.18	1818.60
586.37	2090.98
586.57	3123.15
586.76	9627.50
586.96	27348.57
587.15	43617.64
587.34	54432.96
587.54	61355.10
587.73	59382.90
587.93	43586.92
588.12	32484.88
588.31	26068.59
588.51	22027.95
588.70	19805.91
588.89	18259.69
589.09	16963.33
589.28	15243.03
589.47	13098.81
589.67	11308.88
589.86	8845.18
590.06	6817.69
590.25	5095.35
590.44	3831.75
590.64	2965.46
590.83	2332.64
591.02	2043.87
591.22	1920.99
591.41	1806.31
591.60	1767.40
591.80	1738.73
591.99	1540.07
592.18	1603.56
592.38	1687.53
592.57	1609.70
592.76	1652.71
592.96	1624.04
593.15	1605.61
593.34	1632.23
593.54	1574.89
593.73	1566.70
593.92	1621.99
594.12	1667.05
594.31	1624.04
594.50	1689.57
594.70	1640.42
594.89	1753.06
595.08	1583.08
595.28	1595.37
595.47	1660.90
595.66	1624.04
595.86	1589.22
596.05	1619.94
596.24	1519.59
596.43	1681.38
596.63	1628.14
596.82	1572.84
597.01	1597.42
597.21	1552.36
597.40	1556.46
597.59	1654.76
597.79	1546.22
597.98	1576.94
598.17	1607.66
598.36	1638.38
598.56	1638.38
598.75	1540.07
598.94	1613.80
599.14	1626.09
599.33	1544.17
599.52	1591.27
599.71	1560.55
599.91	1589.22
600.10	1574.89
600.29	1538.02
600.48	1509.35
600.68	1634.28
600.87	1621.99
601.06	1525.74
601.26	1591.27
601.45	1589.22
601.64	1513.45
601.83	1621.99
602.03	1538.02
602.22	1591.27
602.41	1587.18
602.60	1695.72
602.80	1624.04
602.99	1490.92
603.18	1511.40
603.37	1554.41
603.57	1568.74
603.76	1609.70
603.95	1550.31
604.14	1480.68
604.34	1562.60
604.53	1544.17
604.72	1550.31
604.91	1583.08
605.10	1574.89
605.30	1497.07
605.49	1689.57
605.68	1599.46
605.87	1572.84
606.07	1544.17
606.26	1542.12
606.45	1593.32
606.64	1599.46
606.84	1585.13
607.03	1587.18
607.22	1583.08
607.41	1556.46
607.60	1591.27
607.80	1701.86
607.99	1533.93
608.18	1583.08
608.37	1597.42
608.56	1607.66
608.76	1603.56
608.95	1697.77
609.14	1556.46
609.33	1669.09
609.52	1642.47
609.72	1642.47
609.91	1683.43
610.10	1660.90
610.29	1642.47
610.48	1593.32
610.68	1574.89
610.87	1554.41
611.06	1511.40
611.25	1511.40
611.44	1599.46
611.63	1490.92
611.83	1552.36
612.02	1492.97
612.21	1576.94
612.40	1550.31
612.59	1404.91
612.79	1531.88
612.98	1521.64
613.17	1681.38
613.36	1593.32
613.55	1634.28
613.74	1644.52
613.93	1714.15
614.13	1839.08
614.32	1716.20
614.51	1701.86
614.70	1703.91
614.89	1654.76
615.08	1605.61
615.28	1845.22
615.47	1601.51
615.66	1607.66
615.85	1667.05
616.04	1716.20
616.23	1568.74
616.42	1605.61
616.62	1581.03
616.81	1644.52
617.00	1558.50
617.19	1589.22
617.38	1519.59
617.57	1576.94
617.76	1568.74
617.95	1591.27
618.15	1497.07
618.34	1607.66
618.53	1470.44
618.72	1546.22
618.91	1621.99
619.10	1621.99
619.29	1576.94
619.48	1611.75
619.68	1497.07
619.87	1566.70
620.06	1429.48
620.25	1585.13
620.44	1519.59
620.63	1558.50
620.82	1572.84
621.01	1607.66
621.20	1519.59
621.39	1603.56
621.59	1556.46
621.78	1601.51
621.97	1523.69
622.16	1533.93
622.35	1529.83
622.54	1626.09
622.73	1619.94
622.92	1509.35
623.11	1583.08
623.30	1574.89
623.49	1574.89
623.68	1560.55
623.88	1621.99
624.07	1535.98
624.26	1560.55
624.45	1595.37
624.64	1452.01
624.83	1515.50
625.02	1482.73
625.21	1486.83
625.40	1583.08
625.59	1527.78
625.78	1505.26
625.97	1568.74
626.16	1636.33
626.35	1560.55
626.54	1601.51
626.74	1648.61
626.93	1566.70
627.12	1562.60
627.31	1585.13
627.50	1538.02
627.69	1517.54
627.88	1525.74
628.07	1476.59
628.26	1490.92
628.45	1492.97
628.64	1484.78
628.83	1566.70
629.02	1511.40
629.21	1511.40
629.40	1626.09
629.59	1505.26
629.78	1505.26
629.97	1542.12
630.16	1548.26
630.35	1486.83
630.54	1556.46
630.73	1605.61
630.92	1519.59
631.11	1474.54
631.30	1619.94
631.49	1628.14
631.68	1523.69
631.87	1517.54
632.06	1525.74
632.25	1665.00
632.44	1550.31
632.63	1634.28
632.82	1593.32
633.01	1554.41
633.20	1599.46
633.39	1665.00
633.58	1552.36
633.77	1667.05
633.96	1572.84
634.15	1589.22
634.34	1626.09
634.53	1566.70
634.72	1501.16
634.91	1556.46
635.10	1562.60
635.29	1615.85
635.48	1581.03
635.67	1531.88
635.86	1435.63
636.05	1597.42
636.24	1548.26
636.43	1585.13
636.62	1591.27
636.81	1417.19
637.00	1556.46
637.19	1531.88
637.38	1521.64
637.57	1456.11
637.76	1554.41
637.95	1626.09
638.14	1566.70
638.33	1630.18
638.52	1677.29
638.71	1589.22
638.89	1542.12
639.08	1781.73
639.27	1638.38
639.46	1595.37
639.65	1900.52
639.84	2041.82
640.03	2109.41
640.22	2074.59
640.41	2201.57
640.60	1976.29
640.79	1945.57
640.98	1755.11
641.17	1771.49
641.36	1761.25
641.55	1699.81
641.74	1640.42
641.92	1615.85
642.11	1593.32
642.30	1595.37
642.49	1570.79
642.68	1578.98
642.87	1517.54
643.06	1544.17
643.25	1566.70
643.44	1507.30
643.63	1527.78
643.82	1615.85
644.00	1478.63
644.19	1548.26
644.38	1544.17
644.57	1490.92
644.76	1568.74
644.95	1562.60
645.14	1578.98
645.33	1576.94
645.52	1597.42
645.71	1578.98
645.89	1484.78
646.08	1538.02
646.27	1495.02
646.46	1593.32
646.65	1486.83
646.84	1585.13
647.03	1495.02
647.22	1660.90
647.40	1570.79
647.59	1488.87
647.78	1511.40
647.97	1419.24
648.16	1505.26
648.35	1646.57
648.54	1613.80
648.73	1548.26
648.91	1603.56
649.10	1566.70
649.29	1470.44
649.48	1538.02
649.67	1548.26
649.86	1538.02
650.05	1601.51
650.23	1638.38
650.42	1660.90
650.61	1755.11
650.80	1775.59
650.99	1697.77
651.18	1689.57
651.36	1675.24
651.55	1578.98
651.74	1607.66
651.93	1583.08
652.12	1544.17
652.31	1615.85
652.49	1566.70
652.68	1583.08
652.87	1658.85
653.06	1490.92
653.25	1630.18
653.44	1589.22
653.62	1656.81
653.81	1638.38
654.00	1517.54
654.19	1552.36
654.38	1687.53
654.56	1591.27
654.75	1495.02
654.94	1644.52
655.13	1585.13
655.32	1578.98
655.51	1632.23
655.69	1554.41
655.88	1548.26
656.07	1515.50
656.26	1615.85
656.45	1474.54
656.63	1605.61
656.82	1501.16
657.01	1527.78
657.20	1495.02
657.38	1609.70
657.57	1503.21
657.76	1519.59
657.95	1587.18
658.14	1544.17
658.32	1560.55
658.51	1515.50
658.70	1546.22
658.89	1540.07
659.08	1581.03
659.26	1642.47
659.45	1511.40
659.64	1685.48
659.83	1578.98
660.01	1728.49
660.20	1583.08
660.39	1613.80
660.58	1417.19
660.76	1591.27
660.95	1449.96
661.14	1581.03
661.33	1546.22
661.51	1492.97
661.70	1652.71
661.89	1609.70
662.08	1587.18
662.26	1456.11
662.45	1558.50
662.64	1624.04
662.83	1638.38
663.01	1525.74
663.20	1476.59
663.39	1642.47
663.58	1587.18
663.76	1587.18
663.95	1621.99
664.14	1542.12
664.32	1476.59
664.51	1538.02
664.70	1452.01
664.89	1546.22
665.07	1521.64
665.26	1599.46
665.45	1462.25
665.64	1585.13
665.82	1509.35
666.01	1554.41
666.20	1546.22
666.38	1722.34
666.57	1540.07
666.76	1787.88
666.95	2908.12
667.13	7653.26
667.32	15578.90
667.51	20129.48
667.69	23375.52
667.88	25366.14
668.07	22382.25
668.25	15521.56
668.44	12478.27
668.63	9883.50
668.81	8695.68
669.00	7663.50
669.19	7122.84
669.38	6330.27
669.56	5707.69
669.75	4751.29
669.94	4136.90
670.12	3346.38
670.31	2914.26
670.50	2392.03
670.68	2154.46
670.87	1877.99
671.06	1804.26
671.24	1722.34
671.43	1673.19
671.62	1642.47
671.80	1638.38
671.99	1646.57
672.18	1669.09
672.36	1591.27
672.55	1542.12
672.74	1576.94
672.92	1624.04
673.11	1626.09
673.29	1556.46
673.48	1632.23
673.67	1648.61
673.85	1593.32
674.04	1495.02
674.23	1572.84
674.41	1566.70
674.60	1521.64
674.79	1472.49
674.97	1509.35
675.16	1548.26
675.34	1648.61
675.53	1544.17
675.72	1589.22
675.90	1521.64
676.09	1556.46
676.28	1535.98
676.46	1425.39
676.65	1535.98
676.83	1572.84
677.02	1556.46
677.21	1523.69
677.39	1550.31
677.58	1521.64
677.77	1507.30
677.95	1474.54
678.14	1490.92
678.32	1515.50
678.51	1509.35
678.70	1562.60
678.88	1505.26
679.07	1570.79
679.25	1540.07
679.44	1605.61
679.63	1472.49
679.81	1540.07
680.00	1564.65
680.18	1529.83
680.37	1574.89
680.55	1562.60
680.74	1519.59
680.93	1478.63
681.11	1533.93
681.30	1564.65
681.48	1507.30
681.67	1466.35
681.85	1566.70
682.04	1556.46
682.23	1511.40
682.41	1558.50
682.60	1433.58
682.78	1527.78
682.97	1484.78
683.15	1525.74
683.34	1523.69
683.53	1605.61
683.71	1509.35
683.90	1746.92
684.08	1574.89
684.27	1560.55
684.45	1548.26
684.64	1591.27
684.82	1497.07
685.01	1621.99
685.19	1556.46
685.38	1673.19
685.57	1562.60
685.75	1517.54
685.94	1558.50
686.12	1466.35
686.31	1441.77
686.49	1624.04
686.68	1472.49
686.86	1562.60
687.05	1468.39
687.23	1624.04
687.42	1462.25
687.60	1503.21
687.79	1531.88
687.97	1558.50
688.16	1566.70
688.34	1617.90
688.53	1486.83
688.71	1585.13
688.90	1556.46
689.08	1568.74
689.27	1447.91
689.45	1568.74
689.64	1538.02
689.82	1525.74
690.01	1599.46
690.19	1523.69
690.38	1574.89
690.56	1540.07
690.75	1476.59
690.93	1445.87
691.12	1505.26
691.30	1497.07
691.49	1538.02
691.67	1478.63
691.86	1630.18
692.04	1538.02
692.23	1509.35
692.41	1568.74
692.60	1642.47
692.78	1587.18
692.97	1595.37
693.15	1619.94
693.34	1708.01
693.52	1615.85
693.71	1544.17
693.89	1505.26
694.08	1490.92
694.26	1621.99
694.44	1583.08
694.63	1556.46
694.81	1544.17
695.00	1478.63
695.18	1548.26
695.37	1619.94
695.55	1605.61
695.74	1472.49
695.92	1519.59
696.10	1599.46
696.29	1513.45
696.47	1515.50
696.66	1484.78
696.84	1511.40
697.03	1542.12
697.21	1648.61
697.40	2011.11
697.58	1560.55
697.76	1505.26
697.95	1535.98
698.13	1509.35
698.32	1540.07
698.50	1505.26
698.68	1574.89
698.87	1540.07
699.05	1542.12
699.24	1568.74
699.42	1486.83
699.61	1591.27
699.79	1476.59
699.97	1624.04
700.16	1490.92
700.34	1531.88
700.53	1552.36
700.71	1685.48
700.89	1548.26
701.08	1564.65
701.26	1505.26
701.45	1920.99
701.63	1568.74
701.81	1574.89
702.00	1593.32
702.18	1544.17
702.37	1548.26
702.55	1605.61
702.73	1685.48
702.92	1685.48
703.10	1849.32
703.28	1765.35
703.47	1685.48
703.65	1757.16
703.84	1705.96
704.02	1726.44
704.20	1710.05
704.39	1650.66
704.57	1593.32
704.75	1683.43
704.94	1607.66
705.12	1581.03
705.30	1587.18
705.49	1777.64
705.67	2871.25
705.86	7219.09
706.04	14659.36
706.22	18743.01
706.41	21731.00
706.59	22660.77
706.77	20911.81
706.96	14653.22
707.14	11679.57
707.32	9891.69
707.51	8791.93
707.69	7548.81
707.87	6717.34
708.06	5810.09
708.24	4706.23
708.42	3606.47
708.61	3049.43
708.79	2226.14
708.97	1929.19
709.16	1900.52
709.34	1742.82
709.52	1683.43
709.71	1642.47
709.89	1652.71
710.07	1511.40
710.26	1531.88
710.44	1589.22
710.62	1607.66
710.80	1535.98
710.99	1568.74
711.17	1572.84
711.35	1503.21
711.54	1492.97
711.72	1548.26
711.90	1511.40
712.09	1497.07
712.27	1583.08
712.45	1642.47
712.63	1531.88
712.82	1562.60
713.00	1558.50
713.18	1581.03
713.37	1542.12
713.55	1554.41
713.73	1591.27
713.91	1626.09
714.10	1468.39
714.28	1550.31
714.46	1570.79
714.65	1576.94
714.83	1560.55
715.01	1542.12
715.19	1626.09
715.38	1513.45
715.56	1603.56
715.74	1460.20
715.92	1505.26
716.11	1593.32
716.29	1482.73
716.47	1558.50
716.65	1581.03
716.84	1505.26
717.02	1560.55
717.20	1472.49
717.38	1517.54
717.57	1609.70
717.75	1511.40
717.93	1527.78
718.11	1593.32
718.30	1527.78
718.48	1535.98
718.66	1544.17
718.84	1556.46
719.03	1542.12
719.21	1476.59
719.39	1632.23
719.57	1626.09
719.75	1568.74
719.94	1525.74
720.12	1503.21
720.30	1517.54
720.48	1605.61
720.67	1441.77
720.85	1560.55
721.03	1484.78
721.21	1476.59
721.39	1542.12
721.58	1574.89
721.76	1484.78
721.94	1595.37
722.12	1568.74
722.30	1652.71
722.49	1572.84
722.67	1585.13
722.85	1527.78
723.03	1472.49
723.21	1501.16
723.40	1574.89
723.58	1589.22
723.76	1540.07
723.94	1665.00
724.12	1572.84
724.30	1603.56
724.49	1632.23
724.67	1521.64
724.85	1595.37
725.03	1558.50
725.21	1566.70
725.40	1611.75
725.58	1503.21
725.76	1546.22
725.94	1548.26
726.12	1572.84
726.30	1544.17
726.49	1505.26
726.67	1566.70
726.85	1562.60
727.03	1585.13
727.21	1697.77
727.39	2160.61
727.57	3293.13
727.76	4200.38
727.94	4806.58
728.12	5132.21
728.30	5097.39
728.48	4452.28
728.66	3504.07
728.84	3166.16
729.03	2889.68
729.21	2623.45
729.39	2361.31
729.57	2000.87
729.75	1834.98
729.93	1814.50
730.11	1650.66
730.30	1564.65
730.48	1603.56
730.66	1554.41
730.84	1595.37
731.02	1597.42
731.20	1484.78
731.38	1585.13
731.56	1527.78
731.74	1452.01
731.93	1626.09
732.11	1591.27
732.29	1470.44
732.47	1581.03
732.65	1601.51
732.83	1611.75
733.01	1599.46
733.19	1517.54
733.37	1603.56
733.56	1626.09
733.74	1529.83
733.92	1615.85
734.10	1558.50
734.28	1574.89
734.46	1437.67
734.64	1554.41
734.82	1484.78
735.00	1449.96
735.18	1503.21
735.36	1527.78
735.54	1556.46
735.73	1578.98
735.91	1427.43
736.09	1593.32
736.27	1542.12
736.45	1597.42
736.63	1458.15
736.81	1529.83
736.99	1587.18
737.17	1583.08
737.35	1546.22
737.53	1597.42
737.71	1542.12
737.89	1609.70
738.07	1505.26
738.25	1527.78
738.43	1456.11
738.61	1484.78
738.80	1505.26
738.98	1382.38
739.16	1492.97
739.34	1556.46
739.52	1480.68
739.70	1542.12
739.88	1542.12
740.06	1642.47
740.24	1429.48
740.42	1556.46
740.60	1538.02
740.78	1470.44
740.96	1441.77
741.14	1544.17
741.32	1585.13
741.50	1480.68
741.68	1640.42
741.86	1578.98
742.04	1464.30
742.22	1515.50
742.40	1570.79
742.58	1605.61
742.76	1470.44
742.94	1562.60
743.12	1488.87
743.30	1671.14
743.48	1568.74
743.66	1499.11
743.84	1566.70
744.02	1529.83
744.20	1531.88
744.38	1521.64
744.56	1511.40
744.74	1630.18
744.92	1560.55
745.10	1652.71
745.28	1552.36
745.46	1695.72
745.64	1521.64
745.82	1585.13
746.00	1587.18
746.18	1484.78
746.36	1470.44
746.54	1523.69
746.72	1540.07
746.90	1511.40
747.08	1619.94
747.26	1525.74
747.44	1499.11
747.62	1578.98
747.80	1519.59
747.98	1665.00
748.15	1605.61
748.33	1669.09
748.51	1517.54
748.69	1507.30
748.87	1527.78
749.05	1552.36
749.23	1544.17
749.41	1621.99
749.59	1501.16
749.77	1546.22
749.95	1462.25
750.13	1507.30
750.31	1581.03
750.49	1466.35
750.67	1632.23
750.85	1595.37
751.03	1570.79
751.20	1656.81
751.38	1515.50
751.56	1486.83
751.74	1570.79
751.92	1507.30
752.10	1511.40
752.28	1591.27
752.46	1542.12
752.64	1511.40
752.82	1558.50
753.00	1619.94
753.18	1519.59
753.35	1531.88
753.53	1449.96
753.71	1490.92
753.89	1597.42
754.07	1583.08
754.25	1630.18
754.43	1566.70
754.61	1576.94
754.79	1601.51
754.97	1519.59
755.14	1617.90
755.32	1505.26
755.50	1550.31
755.68	1585.13
755.86	1492.97
756.04	1519.59
756.22	1509.35
756.40	1667.05
756.57	1599.46
756.75	1492.97
756.93	1660.90
757.11	1552.36
757.29	1503.21
757.47	1503.21
757.65	1488.87
757.82	1472.49
758.00	1499.11
758.18	1535.98
758.36	1505.26
758.54	1691.62
758.72	1452.01
758.90	1572.84
759.07	1558.50
759.25	1480.68
759.43	1531.88
759.61	1521.64
759.79	1959.91
759.97	1581.03
760.15	1515.50
760.32	1615.85
760.50	1484.78
760.68	1595.37
760.86	1427.43
761.04	1605.61
761.22	1574.89
761.39	1492.97
761.57	1566.70
761.75	1525.74
761.93	1533.93
762.11	1482.73
762.28	1548.26
762.46	1503.21
762.64	1550.31
762.82	1564.65
763.00	1523.69
763.18	1572.84
763.35	1492.97
763.53	1609.70
763.71	1482.73
763.89	1523.69
764.07	1581.03
764.24	1603.56
764.42	1607.66
764.60	1492.97
764.78	1564.65
764.96	1587.18
765.13	1615.85
765.31	1499.11
765.49	1619.94
765.67	1443.82
765.84	1495.02
766.02	1486.83
766.20	1447.91
766.38	1513.45
766.56	1554.41
766.73	1533.93
766.91	1540.07
767.09	1628.14
767.27	1540.07
767.44	1488.87
767.62	1558.50
767.80	1525.74
767.98	1480.68
768.15	1480.68
768.33	1544.17
768.51	1597.42
768.69	1505.26
768.87	1599.46
769.04	1527.78
769.22	1611.75
769.40	1613.80
769.58	1730.53
769.75	1581.03
769.93	1632.23
770.11	1566.70
770.28	1480.68
770.46	1595.37
770.64	1460.20
770.82	1523.69
770.99	1599.46
771.17	1531.88
771.35	1501.16
771.53	1535.98
771.70	1583.08
771.88	1517.54
772.06	1533.93
772.23	1544.17
772.41	1556.46
772.59	1583.08
772.77	1480.68
772.94	1503.21
773.12	1607.66
773.30	1468.39
773.47	1490.92
773.65	1490.92
773.83	1570.79
774.01	1454.06
774.18	1437.67
774.36	1425.39
774.54	1413.10
774.71	1554.41
774.89	1427.43
775.07	1392.62
775.24	1507.30
775.42	1511.40
775.60	1617.90
775.78	1392.62
775.95	1521.64
776.13	1499.11
776.31	1445.87
776.48	1628.14
776.66	1570.79
776.84	1589.22
777.01	1535.98
777.19	1552.36
777.37	1511.40
777.54	1531.88
777.72	1554.41
777.90	1556.46
778.07	1490.92
778.25	1687.53
778.43	1591.27
778.60	1548.26
778.78	1533.93
778.96	1595.37
779.13	1511.40
779.31	1593.32
779.49	1521.64
779.66	1578.98
779.84	1492.97
780.01	1492.97
780.19	1511.40
780.37	1576.94
780.54	1505.26
780.72	1511.40
780.90	1482.73
781.07	1452.01
781.25	1486.83
781.43	1574.89
781.60	1527.78
781.78	1675.24
781.95	1542.12
782.13	1574.89
782.31	1478.63
782.48	1431.53
782.66	1505.26
782.83	1576.94
783.01	1503.21
783.19	1576.94
783.36	1495.02
783.54	1505.26
783.72	1583.08
783.89	1470.44
784.07	1521.64
784.24	1593.32
784.42	1624.04
784.60	1488.87
784.77	1517.54
784.95	1492.97
785.12	1519.59
785.30	1589.22
785.47	1476.59
785.65	1472.49
785.83	1525.74
786.00	1527.78
786.18	1535.98
786.35	1454.06
786.53	1531.88
786.71	1599.46
786.88	1546.22
787.06	1482.73
787.23	1505.26
787.41	1437.67
787.58	1585.13
787.76	1540.07
787.94	1525.74
788.11	1564.65
788.29	1525.74
788.46	1439.72
788.64	1505.26
788.81	1437.67
788.99	1488.87
789.16	1445.87
789.34	1548.26
789.52	1509.35
789.69	1472.49
789.87	1402.86
790.04	1548.26
790.22	1488.87
790.39	1550.31
790.57	1470.44
790.74	1509.35
790.92	1519.59
791.09	1476.59
791.27	1507.30
791.44	1568.74
791.62	1603.56
791.79	1540.07
791.97	1552.36
792.15	1665.00
792.32	1581.03
792.50	1542.12
792.67	1601.51
792.85	1572.84
793.02	1513.45
793.20	1492.97
793.37	1497.07
793.55	1488.87
793.72	1478.63
793.90	1552.36
794.07	1503.21
794.25	1542.12
794.42	1548.26
794.60	1574.89
794.77	1572.84
794.95	1540.07
795.12	1617.90
795.30	1546.22
795.47	1542.12
795.65	1656.81
795.82	1542.12
796.00	1464.30
796.17	1546.22
796.34	1523.69
796.52	1556.46
796.69	1630.18
796.87	1589.22
797.04	1583.08
797.22	1562.60
797.39	1507.30
797.57	1538.02
797.74	1488.87
797.92	1533.93
798.09	1490.92
798.27	1568.74
798.44	1564.65
798.62	1470.44
798.79	1576.94
798.96	1517.54
799.14	1445.87
799.31	1667.05
799.49	1542.12
799.66	1439.72
799.84	1542.12
800.01	1503.21
800.19	1542.12
800.36	1472.49
800.53	1583.08
800.71	1519.59
800.88	1675.24
801.06	1486.83
801.23	1413.10
801.41	1474.54
801.58	1472.49
801.75	1552.36
801.93	1535.98
802.10	1560.55
802.28	1556.46
802.45	1466.35
802.63	1529.83
802.80	1628.14
802.97	1472.49
803.15	1509.35
803.32	1544.17
803.50	1480.68
803.67	1507.30
803.84	1443.82
804.02	1585.13
804.19	1558.50
804.37	1460.20
804.54	1538.02
804.71	1533.93
804.89	1454.06
805.06	1423.34
805.24	1503.21
805.41	1456.11
805.58	1495.02
805.76	1654.76
805.93	1501.16
806.10	1617.90
806.28	1605.61
806.45	1441.77
806.63	1525.74
806.80	1554.41
806.97	1607.66
807.15	1544.17
807.32	1583.08
807.49	1542.12
807.67	1462.25
807.84	1546.22
808.01	1519.59
808.19	1576.94
808.36	1662.95
808.54	1517.54
808.71	1542.12
808.88	1550.31
809.06	1576.94
809.23	1601.51
809.40	1478.63
809.58	1462.25
809.75	1517.54
809.92	1480.68
810.10	1660.90
810.27	1501.16
810.44	1468.39
810.62	1509.35
810.79	1589.22
810.96	1578.98
811.14	1548.26
811.31	1525.74
811.48	1615.85
811.66	1566.70
811.83	1568.74
812.00	1621.99
812.18	1591.27
812.35	1705.96
812.52	1486.83
812.69	1601.51
812.87	1527.78
813.04	1484.78
813.21	1482.73
813.39	1538.02
813.56	1519.59
813.73	1593.32
813.91	1454.06
814.08	1570.79
814.25	1480.68
814.42	1499.11
814.60	1503.21
814.77	1548.26
814.94	1595.37
815.12	1435.63
815.29	1585.13
815.46	1413.10
815.63	1597.42
815.81	1558.50
815.98	1501.16
816.15	1525.74
816.33	1474.54
816.50	1564.65
816.67	1554.41
816.84	1423.34
817.02	1533.93
817.19	1492.97
817.36	1523.69
817.53	1548.26
817.71	1505.26
817.88	1531.88
818.05	1538.02
818.22	1470.44
818.40	1621.99
818.57	1568.74
818.74	1562.60
818.91	1585.13
819.09	1564.65
819.26	1578.98
819.43	1515.50
819.60	1478.63
819.78	1576.94
819.95	1609.70
820.12	1497.07
820.29	1644.52
820.47	1607.66
820.64	1456.11
820.81	1486.83
820.98	1509.35
821.15	1509.35
821.33	1593.32
821.50	1476.59
821.67	1675.24
821.84	1521.64
822.02	1548.26
822.19	1517.54
822.36	1495.02
822.53	1519.59
822.70	1533.93
822.88	1476.59
823.05	1492.97
823.22	1533.93
823.39	1601.51
823.56	1542.12
823.74	1589.22
823.91	1478.63
824.08	1492.97
824.25	1431.53
824.42	1564.65
824.60	1492.97
824.77	1517.54
824.94	1511.40
825.11	1550.31
825.28	1452.01
825.45	1538.02
825.63	1554.41
825.80	1425.39
825.97	1507.30
826.14	1521.64
826.31	1552.36
826.48	1587.18
826.66	1484.78
826.83	1509.35
827.00	1437.67
827.17	1423.34
827.34	1513.45
827.51	1560.55
827.69	1560.55
827.86	1521.64
828.03	1560.55
828.20	1540.07
828.37	1511.40
828.54	1458.15
828.71	1523.69
828.89	1617.90
829.06	1490.92
829.23	1665.00
829.40	1525.74
829.57	1488.87
829.74	1558.50
829.91	1562.60
830.09	1519.59
830.26	1599.46
830.43	1574.89
830.60	1546.22
830.77	1478.63
830.94	1564.65
831.11	1572.84
831.28	1482.73
831.46	1519.59
831.63	1484.78
831.80	1613.80
831.97	1540.07
832.14	1521.64
832.31	1513.45
832.48	1495.02
832.65	1607.66
832.82	1566.70
832.99	1484.78
833.17	1495.02
833.34	1626.09
833.51	1470.44
833.68	1478.63
833.85	1511.40
834.02	1476.59
834.19	1441.77
834.36	1517.54
834.53	1492.97
834.70	1638.38
834.87	1603.56
835.04	1574.89
835.22	1548.26
835.39	1515.50
835.56	1447.91
835.73	1519.59
835.90	1521.64
836.07	1505.26
836.24	1554.41
836.41	1542.12
836.58	1462.25
836.75	1576.94
836.92	1456.11
837.09	1511.40
837.26	1595.37
837.43	1533.93
837.60	1556.46
837.77	1523.69
837.94	1568.74
838.12	1556.46
838.29	1578.98
838.46	1470.44
838.63	1538.02
838.80	1552.36
838.97	1599.46
839.14	1488.87
839.31	1460.20
839.48	1495.02
839.65	1421.29
839.82	1583.08
839.99	1601.51
840.16	1566.70
840.33	1538.02
840.50	1452.01
840.67	1531.88
840.84	1452.01
841.01	1509.35
841.18	1509.35
841.35	1554.41
841.52	1544.17
841.69	1681.38
841.86	1548.26
842.03	1517.54
842.20	1617.90
842.37	1556.46
842.54	1558.50
842.71	1533.93
842.88	1441.77
843.05	1550.31
843.22	1517.54
843.39	1542.12
843.56	1546.22
843.73	1533.93
843.90	1542.12
844.07	1533.93
844.24	1599.46
844.41	1568.74
844.58	1609.70
844.75	1542.12
844.92	1535.98
845.09	1546.22
845.26	1497.07
845.43	1499.11
845.60	1517.54
845.77	1624.04
845.94	1527.78
846.10	1589.22
846.27	1447.91
846.44	1511.40
846.61	1474.54
846.78	1505.26
846.95	1576.94
847.12	1589.22
847.29	1554.41
847.46	1511.40
847.63	1509.35
847.80	1505.26
847.97	1548.26
848.14	1667.05
848.31	1476.59
848.48	1476.59
848.65	1554.41
848.82	1527.78
848.98	1634.28
849.15	1572.84
849.32	1501.16
849.49	1636.33
849.66	1521.64
849.83	1638.38
850.00	1492.97
850.17	1529.83
850.34	1517.54
850.51	1501.16
850.68	1478.63
850.85	1632.23
851.01	1484.78
851.18	1613.80
851.35	1611.75
851.52	1546.22
851.69	1542.12
851.86	1466.35
852.03	1574.89
852.20	1603.56
852.37	1558.50
852.53	1462.25
852.70	1621.99
852.87	1468.39
853.04	1560.55
853.21	1564.65
853.38	1621.99
853.55	1615.85
853.72	1570.79
853.89	1535.98
854.05	1488.87
854.22	1466.35
854.39	1519.59
854.56	1525.74
854.73	1562.60
854.90	1427.43
855.07	1484.78
855.23	1456.11
855.40	1521.64
855.57	1435.63
855.74	1435.63
855.91	1751.01
856.08	1443.82
856.25	1546.22
856.41	1560.55
856.58	1544.17
856.75	1546.22
856.92	1521.64
857.09	1535.98
857.26	1507.30
857.42	1505.26
857.59	1511.40
857.76	1499.11
857.93	1517.54
858.10	1558.50
858.27	1386.47
858.43	1505.26
858.60	1445.87
858.77	1492.97
858.94	1495.02
859.11	1609.70
859.27	1486.83
859.44	1544.17
859.61	1552.36
859.78	1595.37
859.95	1488.87
860.12	1587.18
860.28	1607.66
860.45	1624.04
860.62	1497.07
860.79	1615.85
860.95	1538.02
861.12	1468.39
861.29	1517.54
861.46	1470.44
861.63	1544.17
861.79	1495.02
861.96	1529.83
862.13	1501.16
862.30	1662.95
862.47	1535.98
862.63	1484.78
862.80	1572.84
862.97	1570.79
863.14	1552.36
863.30	1505.26
863.47	1478.63
863.64	1681.38
863.81	1527.78
863.97	1535.98
864.14	1511.40
864.31	1509.35
864.48	1529.83
864.65	1581.03
864.81	1546.22
864.98	1503.21
865.15	1560.55
865.32	1560.55
865.48	1611.75
865.65	1533.93
865.82	1492.97
865.98	1542.12
866.15	1640.42
866.32	1523.69
866.49	1574.89
866.65	1546.22
866.82	1480.68
866.99	1566.70
867.16	1548.26
867.32	1550.31
867.49	1519.59
867.66	1538.02
867.83	1593.32
867.99	1474.54
868.16	1501.16
868.33	1466.35
868.49	1572.84
868.66	1613.80
868.83	1593.32
868.99	1560.55
869.16	1578.98
869.33	1646.57
869.50	1540.07
869.66	1566.70
869.83	1519.59
870.00	1445.87
870.16	1578.98
870.33	1542.12
870.50	1554.41
870.66	1535.98
870.83	1617.90
871.00	1562.60
871.17	1601.51
871.33	1599.46
871.50	1509.35
871.67	1505.26
871.83	1462.25
872.00	1615.85
872.17	1521.64
872.33	1585.13
872.50	1578.98
872.67	1597.42
872.83	1480.68
873.00	1546.22
873.17	1552.36
873.33	1585.13
873.50	1558.50
873.67	1468.39
873.83	1505.26
874.00	1505.26
874.16	1591.27
874.33	1595.37
874.50	1533.93
874.66	1525.74
874.83	1558.50
875.00	1636.33
875.16	1589.22
875.33	1576.94
875.50	1509.35
875.66	1595.37
875.83	1587.18
875.99	1538.02
876.16	1544.17
876.33	1447.91
876.49	1544.17
876.66	1507.30
876.83	1488.87
876.99	1374.19
877.16	1538.02
877.32	1521.64
877.49	1538.02
877.66	1550.31
877.82	1595.37
877.99	1560.55
878.15	1560.55
878.32	1621.99
878.49	1497.07
878.65	1468.39
878.82	1599.46
878.98	1587.18
879.15	1581.03
879.32	1634.28
879.48	1517.54
879.65	1519.59
879.81	1513.45
879.98	1513.45
880.15	1587.18
880.31	1523.69
880.48	1482.73
880.64	1601.51
880.81	1564.65
880.97	1693.67
881.14	1609.70
881.31	1447.91
881.47	1679.33
881.64	1560.55
881.80	1529.83
881.97	1603.56
882.13	1593.32
882.30	1517.54
882.47	1511.40
882.63	1486.83
882.80	1466.35
882.96	1599.46
883.13	1701.86
883.29	1531.88
883.46	1540.07
883.62	1681.38
883.79	1529.83
883.95	1581.03
884.12	1535.98
884.29	1546.22
884.45	1499.11
884.62	1542.12
884.78	1513.45
884.95	1581.03
885.11	1509.35
885.28	1626.09
885.44	1484.78
885.61	1583.08
885.77	1562.60
885.94	1546.22
886.10	1484.78
886.27	1576.94
886.43	1615.85
886.60	1574.89
886.76	1490.92
886.93	1464.30
887.09	1550.31
887.26	1443.82
887.42	1505.26
887.59	1476.59
887.75	1615.85
887.92	1576.94
888.08	1650.66
888.25	1656.81
888.41	1615.85
888.58	1527.78
888.74	1462.25
888.91	1538.02
>>>>>End Processed Spectral Data<<<<<
