SpectraSuite Data File
++++++++++++++++++++++++++++++++++++
Date: Tue May 03 12:55:23 CEST 2016
User: root
Dark Spectrum Present: No
Reference Spectrum Present: No
Number of Sampled Component Spectra: 1
Spectrometers: USB4C02835
Integration Time (usec): 100000 (USB4C02835)
Spectra Averaged: 1 (USB4C02835)
Boxcar Smoothing: 0 (USB4C02835)
Correct for Electrical Dark: No (USB4C02835)
Strobe/Lamp Enabled: No (USB4C02835)
Correct for Detector Non-linearity: No (USB4C02835)
Correct for Stray Light: No (USB4C02835)
Number of Pixels in Processed Spectrum: 3648
>>>>>Begin Processed Spectral Data<<<<<
177.47	1357.80
177.69	1357.80
177.91	1357.80
178.13	1415.15
178.36	1333.23
178.58	1531.88
178.80	1460.20
179.02	1527.78
179.24	1454.06
179.46	1540.07
179.68	1583.08
179.90	1486.83
180.13	1501.16
180.35	1482.73
180.57	1591.27
180.79	1558.50
181.01	1546.22
181.23	1597.42
181.45	1556.46
181.67	1535.98
181.90	1558.50
182.12	1488.87
182.34	1521.64
182.56	1599.46
182.78	1591.27
183.00	1521.64
183.22	1529.83
183.44	1497.07
183.66	1593.32
183.89	1568.74
184.11	1599.46
184.33	1566.70
184.55	1513.45
184.77	1607.66
184.99	1640.42
185.21	1542.12
185.43	1660.90
185.65	1466.35
185.87	1572.84
186.10	1611.75
186.32	1712.10
186.54	1574.89
186.76	1501.16
186.98	1572.84
187.20	1578.98
187.42	1527.78
187.64	1527.78
187.86	1544.17
188.08	1576.94
188.30	1587.18
188.52	1587.18
188.75	1544.17
188.97	1589.22
189.19	1544.17
189.41	1572.84
189.63	1554.41
189.85	1488.87
190.07	1515.50
190.29	1462.25
190.51	1556.46
190.73	1505.26
190.95	1531.88
191.17	1535.98
191.39	1417.19
191.61	1564.65
191.84	1527.78
192.06	1576.94
192.28	1470.44
192.50	1675.24
192.72	1515.50
192.94	1495.02
193.16	1617.90
193.38	1443.82
193.60	1578.98
193.82	1540.07
194.04	1542.12
194.26	1576.94
194.48	1521.64
194.70	1521.64
194.92	1462.25
195.14	1540.07
195.36	1529.83
195.58	1531.88
195.80	1550.31
196.02	1593.32
196.24	1566.70
196.46	1619.94
196.69	1505.26
196.91	1701.86
197.13	1474.54
197.35	1505.26
197.57	1548.26
197.79	1517.54
198.01	1542.12
198.23	1648.61
198.45	1583.08
198.67	1480.68
198.89	1583.08
199.11	1566.70
199.33	1490.92
199.55	1443.82
199.77	1525.74
199.99	1521.64
200.21	1499.11
200.43	1546.22
200.65	1425.39
200.87	1480.68
201.09	1478.63
201.31	1486.83
201.53	1566.70
201.75	1542.12
201.97	1552.36
202.19	1513.45
202.41	1476.59
202.63	1619.94
202.85	1501.16
203.07	1597.42
203.29	1552.36
203.51	1509.35
203.73	1472.49
203.95	1679.33
204.17	1507.30
204.39	1593.32
204.61	1538.02
204.83	1495.02
205.05	1492.97
205.27	1576.94
205.49	1490.92
205.71	1554.41
205.93	1486.83
206.15	1531.88
206.37	1548.26
206.59	1546.22
206.81	1447.91
207.03	1435.63
207.25	1523.69
207.47	1583.08
207.69	1521.64
207.91	1566.70
208.13	1638.38
208.34	1492.97
208.56	1482.73
208.78	1609.70
209.00	1476.59
209.22	1540.07
209.44	1495.02
209.66	1560.55
209.88	1544.17
210.10	1546.22
210.32	1476.59
210.54	1562.60
210.76	1583.08
210.98	1603.56
211.20	1433.58
211.42	1492.97
211.64	1585.13
211.86	1556.46
212.08	1593.32
212.30	1662.95
212.52	1515.50
212.74	1513.45
212.96	1529.83
213.17	1576.94
213.39	1486.83
213.61	1687.53
213.83	1581.03
214.05	1519.59
214.27	1605.61
214.49	1511.40
214.71	1517.54
214.93	1585.13
215.15	1519.59
215.37	1568.74
215.59	1470.44
215.81	1558.50
216.03	1650.66
216.24	1538.02
216.46	1554.41
216.68	1548.26
216.90	1548.26
217.12	1544.17
217.34	1515.50
217.56	1531.88
217.78	1597.42
218.00	1560.55
218.22	1517.54
218.44	1576.94
218.66	1574.89
218.87	1521.64
219.09	1521.64
219.31	1566.70
219.53	1578.98
219.75	1452.01
219.97	1570.79
220.19	1558.50
220.41	1607.66
220.63	1621.99
220.85	1562.60
221.06	1533.93
221.28	1615.85
221.50	1550.31
221.72	1566.70
221.94	1572.84
222.16	1556.46
222.38	1619.94
222.60	1564.65
222.82	1515.50
223.03	1677.29
223.25	1538.02
223.47	1597.42
223.69	1628.14
223.91	1554.41
224.13	1566.70
224.35	1525.74
224.57	1601.51
224.78	1525.74
225.00	1472.49
225.22	1535.98
225.44	1525.74
225.66	1578.98
225.88	1466.35
226.10	1552.36
226.32	1621.99
226.53	1597.42
226.75	1548.26
226.97	1538.02
227.19	1521.64
227.41	1478.63
227.63	1560.55
227.85	1402.86
228.06	1519.59
228.28	1572.84
228.50	1581.03
228.72	1452.01
228.94	1478.63
229.16	1419.24
229.37	1486.83
229.59	1495.02
229.81	1531.88
230.03	1476.59
230.25	1488.87
230.47	1476.59
230.69	1486.83
230.90	1540.07
231.12	1497.07
231.34	1535.98
231.56	1597.42
231.78	1554.41
232.00	1581.03
232.21	1505.26
232.43	1499.11
232.65	1445.87
232.87	1601.51
233.09	1533.93
233.30	1511.40
233.52	1574.89
233.74	1558.50
233.96	1519.59
234.18	1501.16
234.40	1525.74
234.61	1597.42
234.83	1503.21
235.05	1517.54
235.27	1609.70
235.49	1615.85
235.70	1642.47
235.92	1538.02
236.14	1540.07
236.36	1662.95
236.58	1490.92
236.79	1581.03
237.01	1492.97
237.23	1509.35
237.45	1570.79
237.67	1476.59
237.88	1562.60
238.10	1695.72
238.32	1540.07
238.54	1527.78
238.76	1488.87
238.97	1495.02
239.19	1548.26
239.41	1576.94
239.63	1527.78
239.85	1523.69
240.06	1470.44
240.28	1556.46
240.50	1617.90
240.72	1476.59
240.93	1538.02
241.15	1591.27
241.37	1626.09
241.59	1538.02
241.81	1427.43
242.02	1589.22
242.24	1632.23
242.46	1550.31
242.68	1501.16
242.89	1572.84
243.11	1572.84
243.33	1576.94
243.55	1634.28
243.76	1630.18
243.98	1509.35
244.20	1540.07
244.42	1546.22
244.64	1552.36
244.85	1503.21
245.07	1497.07
245.29	1492.97
245.51	1572.84
245.72	1550.31
245.94	1587.18
246.16	1476.59
246.38	1570.79
246.59	1505.26
246.81	1517.54
247.03	1521.64
247.24	1513.45
247.46	1462.25
247.68	1519.59
247.90	1488.87
248.11	1460.20
248.33	1601.51
248.55	1525.74
248.77	1540.07
248.98	1646.57
249.20	1609.70
249.42	1505.26
249.64	1495.02
249.85	1558.50
250.07	1517.54
250.29	1581.03
250.50	1525.74
250.72	1378.28
250.94	1501.16
251.16	1648.61
251.37	1605.61
251.59	1570.79
251.81	1574.89
252.02	1515.50
252.24	1484.78
252.46	1617.90
252.68	1531.88
252.89	1523.69
253.11	1505.26
253.33	1609.70
253.54	1638.38
253.76	1484.78
253.98	1398.76
254.20	1535.98
254.41	1466.35
254.63	1517.54
254.85	1499.11
255.06	1566.70
255.28	1593.32
255.50	1533.93
255.71	1458.15
255.93	1413.10
256.15	1513.45
256.36	1468.39
256.58	1529.83
256.80	1523.69
257.02	1542.12
257.23	1505.26
257.45	1486.83
257.67	1566.70
257.88	1488.87
258.10	1548.26
258.32	1615.85
258.53	1480.68
258.75	1656.81
258.97	1570.79
259.18	1542.12
259.40	1511.40
259.62	1568.74
259.83	1533.93
260.05	1572.84
260.27	1714.15
260.48	1550.31
260.70	1527.78
260.92	1535.98
261.13	1611.75
261.35	1615.85
261.57	1564.65
261.78	1499.11
262.00	1513.45
262.22	1540.07
262.43	1466.35
262.65	1521.64
262.86	1472.49
263.08	1615.85
263.30	1566.70
263.51	1613.80
263.73	1460.20
263.95	1628.14
264.16	1519.59
264.38	1521.64
264.60	1574.89
264.81	1556.46
265.03	1509.35
265.25	1523.69
265.46	1591.27
265.68	1562.60
265.89	1521.64
266.11	1458.15
266.33	1562.60
266.54	1581.03
266.76	1511.40
266.98	1497.07
267.19	1599.46
267.41	1533.93
267.62	1449.96
267.84	1433.58
268.06	1566.70
268.27	1640.42
268.49	1601.51
268.70	1624.04
268.92	1527.78
269.14	1550.31
269.35	1495.02
269.57	1517.54
269.79	1568.74
270.00	1486.83
270.22	1669.09
270.43	1527.78
270.65	1507.30
270.87	1568.74
271.08	1589.22
271.30	1626.09
271.51	1595.37
271.73	1513.45
271.95	1581.03
272.16	1542.12
272.38	1576.94
272.59	1603.56
272.81	1544.17
273.02	1566.70
273.24	1497.07
273.46	1642.47
273.67	1484.78
273.89	1540.07
274.10	1501.16
274.32	1517.54
274.54	1529.83
274.75	1585.13
274.97	1552.36
275.18	1560.55
275.40	1535.98
275.61	1535.98
275.83	1525.74
276.05	1513.45
276.26	1599.46
276.48	1560.55
276.69	1550.31
276.91	1492.97
277.12	1568.74
277.34	1568.74
277.55	1691.62
277.77	1511.40
277.99	1484.78
278.20	1470.44
278.42	1558.50
278.63	1484.78
278.85	1572.84
279.06	1523.69
279.28	1535.98
279.49	1517.54
279.71	1568.74
279.93	1486.83
280.14	1581.03
280.36	1542.12
280.57	1687.53
280.79	1542.12
281.00	1464.30
281.22	1505.26
281.43	1605.61
281.65	1486.83
281.86	1568.74
282.08	1626.09
282.29	1566.70
282.51	1466.35
282.73	1460.20
282.94	1542.12
283.16	1535.98
283.37	1605.61
283.59	1568.74
283.80	1492.97
284.02	1562.60
284.23	1548.26
284.45	1515.50
284.66	1425.39
284.88	1462.25
285.09	1593.32
285.31	1585.13
285.52	1533.93
285.74	1488.87
285.95	1587.18
286.17	1570.79
286.38	1507.30
286.60	1452.01
286.81	1458.15
287.03	1542.12
287.24	1484.78
287.46	1515.50
287.67	1482.73
287.89	1583.08
288.10	1495.02
288.32	1515.50
288.53	1644.52
288.75	1605.61
288.96	1535.98
289.18	1576.94
289.39	1581.03
289.61	1554.41
289.82	1654.76
290.04	1593.32
290.25	1544.17
290.47	1480.68
290.68	1544.17
290.90	1599.46
291.11	1427.43
291.33	1574.89
291.54	1449.96
291.76	1576.94
291.97	1525.74
292.18	1568.74
292.40	1497.07
292.61	1570.79
292.83	1611.75
293.04	1552.36
293.26	1576.94
293.47	1624.04
293.69	1511.40
293.90	1482.73
294.12	1587.18
294.33	1560.55
294.55	1538.02
294.76	1517.54
294.97	1566.70
295.19	1542.12
295.40	1509.35
295.62	1576.94
295.83	1574.89
296.05	1464.30
296.26	1578.98
296.48	1492.97
296.69	1495.02
296.90	1568.74
297.12	1583.08
297.33	1609.70
297.55	1611.75
297.76	1611.75
297.98	1581.03
298.19	1574.89
298.41	1576.94
298.62	1533.93
298.83	1613.80
299.05	1558.50
299.26	1495.02
299.48	1447.91
299.69	1611.75
299.90	1554.41
300.12	1486.83
300.33	1648.61
300.55	1478.63
300.76	1538.02
300.98	1570.79
301.19	1550.31
301.40	1519.59
301.62	1538.02
301.83	1560.55
302.05	1599.46
302.26	1529.83
302.47	1527.78
302.69	1415.15
302.90	1497.07
303.12	1456.11
303.33	1599.46
303.54	1722.34
303.76	1429.48
303.97	1550.31
304.19	1597.42
304.40	1505.26
304.61	1470.44
304.83	1636.33
305.04	1591.27
305.26	1525.74
305.47	1478.63
305.68	1513.45
305.90	1484.78
306.11	1570.79
306.33	1544.17
306.54	1570.79
306.75	1492.97
306.97	1460.20
307.18	1531.88
307.39	1497.07
307.61	1497.07
307.82	1521.64
308.04	1570.79
308.25	1517.54
308.46	1519.59
308.68	1519.59
308.89	1443.82
309.10	1566.70
309.32	1470.44
309.53	1523.69
309.74	1542.12
309.96	1513.45
310.17	1480.68
310.39	1578.98
310.60	1531.88
310.81	1492.97
311.03	1486.83
311.24	1576.94
311.45	1601.51
311.67	1656.81
311.88	1540.07
312.09	1564.65
312.31	1470.44
312.52	1568.74
312.73	1542.12
312.95	1509.35
313.16	1503.21
313.37	1529.83
313.59	1595.37
313.80	1585.13
314.01	1585.13
314.23	1546.22
314.44	1513.45
314.65	1521.64
314.87	1556.46
315.08	1519.59
315.29	1513.45
315.51	1519.59
315.72	1468.39
315.93	1611.75
316.15	1613.80
316.36	1509.35
316.57	1560.55
316.79	1564.65
317.00	1505.26
317.21	1533.93
317.43	1587.18
317.64	1509.35
317.85	1495.02
318.07	1550.31
318.28	1679.33
318.49	1669.09
318.70	1812.45
318.92	1771.49
319.13	1765.35
319.34	1708.01
319.56	1742.82
319.77	1720.29
319.98	1589.22
320.20	1572.84
320.41	1599.46
320.62	1603.56
320.83	1492.97
321.05	1646.57
321.26	1568.74
321.47	1552.36
321.69	1671.14
321.90	1507.30
322.11	1535.98
322.32	1521.64
322.54	1630.18
322.75	1523.69
322.96	1673.19
323.18	1517.54
323.39	1460.20
323.60	1538.02
323.81	1546.22
324.03	1433.58
324.24	1542.12
324.45	1497.07
324.66	1636.33
324.88	1540.07
325.09	1603.56
325.30	1529.83
325.52	1492.97
325.73	1591.27
325.94	1431.53
326.15	1406.95
326.37	1552.36
326.58	1585.13
326.79	1609.70
327.00	1484.78
327.22	1591.27
327.43	1519.59
327.64	1443.82
327.85	1564.65
328.07	1570.79
328.28	1591.27
328.49	1576.94
328.70	1615.85
328.92	1531.88
329.13	1484.78
329.34	1507.30
329.55	1513.45
329.76	1554.41
329.98	1517.54
330.19	1640.42
330.40	1624.04
330.61	1531.88
330.83	1611.75
331.04	1476.59
331.25	1490.92
331.46	1509.35
331.68	1492.97
331.89	1638.38
332.10	1546.22
332.31	1417.19
332.52	1501.16
332.74	1593.32
332.95	1523.69
333.16	1601.51
333.37	1492.97
333.58	1531.88
333.80	1445.87
334.01	1501.16
334.22	1538.02
334.43	1495.02
334.64	1478.63
334.86	1511.40
335.07	1513.45
335.28	1566.70
335.49	1492.97
335.70	1615.85
335.92	1624.04
336.13	1665.00
336.34	1513.45
336.55	1564.65
336.76	1538.02
336.98	1431.53
337.19	1509.35
337.40	1601.51
337.61	1601.51
337.82	1525.74
338.04	1642.47
338.25	1486.83
338.46	1492.97
338.67	1550.31
338.88	1486.83
339.09	1458.15
339.31	1509.35
339.52	1382.38
339.73	1499.11
339.94	1515.50
340.15	1628.14
340.36	1484.78
340.58	1566.70
340.79	1519.59
341.00	1601.51
341.21	1478.63
341.42	1621.99
341.63	1576.94
341.85	1531.88
342.06	1521.64
342.27	1509.35
342.48	1546.22
342.69	1513.45
342.90	1495.02
343.12	1515.50
343.33	1525.74
343.54	1507.30
343.75	1572.84
343.96	1556.46
344.17	1519.59
344.38	1513.45
344.60	1538.02
344.81	1533.93
345.02	1472.49
345.23	1585.13
345.44	1669.09
345.65	1572.84
345.86	1603.56
346.07	1523.69
346.29	1509.35
346.50	1599.46
346.71	1599.46
346.92	1644.52
347.13	1572.84
347.34	1554.41
347.55	1585.13
347.76	1607.66
347.98	1396.71
348.19	1521.64
348.40	1574.89
348.61	1527.78
348.82	1665.00
349.03	1544.17
349.24	1554.41
349.45	1591.27
349.66	1449.96
349.88	1513.45
350.09	1419.24
350.30	1642.47
350.51	1587.18
350.72	1591.27
350.93	1529.83
351.14	1519.59
351.35	1576.94
351.56	1564.65
351.77	1554.41
351.99	1564.65
352.20	1652.71
352.41	1488.87
352.62	1503.21
352.83	1484.78
353.04	1587.18
353.25	1452.01
353.46	1593.32
353.67	1544.17
353.88	1478.63
354.09	1542.12
354.30	1511.40
354.52	1619.94
354.73	1490.92
354.94	1460.20
355.15	1525.74
355.36	1638.38
355.57	1535.98
355.78	1544.17
355.99	1439.72
356.20	1540.07
356.41	1617.90
356.62	1546.22
356.83	1497.07
357.04	1570.79
357.25	1419.24
357.46	1546.22
357.68	1482.73
357.89	1409.00
358.10	1503.21
358.31	1576.94
358.52	1480.68
358.73	1533.93
358.94	1413.10
359.15	1558.50
359.36	1642.47
359.57	1492.97
359.78	1535.98
359.99	1574.89
360.20	1501.16
360.41	1509.35
360.62	1583.08
360.83	1621.99
361.04	1566.70
361.25	1509.35
361.46	1564.65
361.67	1570.79
361.88	1558.50
362.09	1585.13
362.30	1503.21
362.51	1624.04
362.72	1499.11
362.93	1583.08
363.14	1607.66
363.35	1519.59
363.56	1554.41
363.78	1490.92
363.99	1552.36
364.20	1564.65
364.41	1515.50
364.62	1583.08
364.83	1538.02
365.04	1490.92
365.25	1568.74
365.46	1617.90
365.67	1511.40
365.88	1527.78
366.09	1509.35
366.30	1492.97
366.51	1548.26
366.72	1490.92
366.93	1607.66
367.14	1609.70
367.35	1632.23
367.56	1546.22
367.77	1607.66
367.98	1544.17
368.18	1589.22
368.39	1564.65
368.60	1449.96
368.81	1542.12
369.02	1513.45
369.23	1564.65
369.44	1560.55
369.65	1511.40
369.86	1587.18
370.07	1591.27
370.28	1546.22
370.49	1540.07
370.70	1599.46
370.91	1552.36
371.12	1503.21
371.33	1574.89
371.54	1574.89
371.75	1656.81
371.96	1505.26
372.17	1564.65
372.38	1517.54
372.59	1521.64
372.80	1570.79
373.01	1568.74
373.22	1589.22
373.43	1558.50
373.64	1470.44
373.85	1568.74
374.06	1644.52
374.26	1589.22
374.47	1511.40
374.68	1544.17
374.89	1560.55
375.10	1513.45
375.31	1693.67
375.52	1521.64
375.73	1611.75
375.94	1513.45
376.15	1529.83
376.36	1460.20
376.57	1456.11
376.78	1523.69
376.99	1562.60
377.20	1652.71
377.40	1533.93
377.61	1572.84
377.82	1419.24
378.03	1609.70
378.24	1601.51
378.45	1556.46
378.66	1558.50
378.87	1531.88
379.08	1462.25
379.29	1550.31
379.50	1572.84
379.71	1529.83
379.91	1572.84
380.12	1605.61
380.33	1503.21
380.54	1527.78
380.75	1554.41
380.96	1525.74
381.17	1542.12
381.38	1544.17
381.59	1597.42
381.80	1587.18
382.00	1697.77
382.21	1687.53
382.42	1648.61
382.63	1679.33
382.84	1576.94
383.05	1619.94
383.26	1544.17
383.47	1546.22
383.68	1607.66
383.88	1581.03
384.09	1470.44
384.30	1630.18
384.51	1478.63
384.72	1529.83
384.93	1513.45
385.14	1585.13
385.35	1593.32
385.55	1454.06
385.76	1607.66
385.97	1599.46
386.18	1558.50
386.39	1462.25
386.60	1593.32
386.81	1578.98
387.02	1501.16
387.22	1576.94
387.43	1677.29
387.64	1673.19
387.85	1830.88
388.06	3139.54
388.27	7372.69
388.48	10862.43
388.68	12642.11
388.89	14036.78
389.10	13057.85
389.31	10127.21
389.52	8955.77
389.73	7917.45
389.93	7448.46
390.14	6811.54
390.35	6209.44
390.56	5713.83
390.77	4806.58
390.98	3762.12
391.18	2803.67
391.39	2205.66
391.60	1775.59
391.81	1722.34
392.02	1560.55
392.23	1691.62
392.43	1587.18
392.64	1665.00
392.85	1531.88
393.06	1677.29
393.27	1609.70
393.47	1572.84
393.68	1511.40
393.89	1550.31
394.10	1599.46
394.31	1482.73
394.52	1490.92
394.72	1505.26
394.93	1587.18
395.14	1533.93
395.35	1560.55
395.56	1546.22
395.76	1585.13
395.97	1718.25
396.18	1665.00
396.39	1761.25
396.60	1933.28
396.80	1671.14
397.01	1691.62
397.22	1679.33
397.43	1722.34
397.64	1595.37
397.84	1662.95
398.05	1669.09
398.26	1519.59
398.47	1587.18
398.67	1581.03
398.88	1562.60
399.09	1621.99
399.30	1556.46
399.51	1581.03
399.71	1445.87
399.92	1527.78
400.13	1626.09
400.34	1562.60
400.54	1499.11
400.75	1605.61
400.96	1546.22
401.17	1617.90
401.37	1603.56
401.58	1609.70
401.79	1591.27
402.00	1816.55
402.21	1900.52
402.41	1877.99
402.62	2035.68
402.83	2000.87
403.04	1941.47
403.24	1851.36
403.45	1695.72
403.66	1701.86
403.87	1714.15
404.07	1777.64
404.28	1742.82
404.49	1718.25
404.70	1673.19
404.90	1609.70
405.11	1558.50
405.32	1578.98
405.52	1519.59
405.73	1492.97
405.94	1499.11
406.15	1499.11
406.35	1597.42
406.56	1535.98
406.77	1544.17
406.98	1542.12
407.18	1527.78
407.39	1511.40
407.60	1566.70
407.80	1572.84
408.01	1486.83
408.22	1603.56
408.43	1443.82
408.63	1554.41
408.84	1517.54
409.05	1621.99
409.25	1468.39
409.46	1511.40
409.67	1581.03
409.88	1538.02
410.08	1548.26
410.29	1495.02
410.50	1544.17
410.70	1542.12
410.91	1531.88
411.12	1587.18
411.32	1652.71
411.53	1492.97
411.74	1652.71
411.95	1603.56
412.15	1695.72
412.36	1572.84
412.57	1550.31
412.77	1595.37
412.98	1533.93
413.19	1505.26
413.39	1538.02
413.60	1558.50
413.81	1564.65
414.01	1572.84
414.22	1564.65
414.43	1626.09
414.63	1527.78
414.84	1574.89
415.05	1570.79
415.25	1505.26
415.46	1570.79
415.67	1552.36
415.87	1544.17
416.08	1544.17
416.29	1482.73
416.49	1554.41
416.70	1529.83
416.91	1531.88
417.11	1472.49
417.32	1505.26
417.53	1548.26
417.73	1525.74
417.94	1562.60
418.15	1486.83
418.35	1568.74
418.56	1521.64
418.77	1595.37
418.97	1517.54
419.18	1538.02
419.38	1462.25
419.59	1554.41
419.80	1658.85
420.00	1499.11
420.21	1587.18
420.42	1621.99
420.62	1499.11
420.83	1452.01
421.04	1486.83
421.24	1490.92
421.45	1576.94
421.65	1552.36
421.86	1515.50
422.07	1548.26
422.27	1507.30
422.48	1542.12
422.69	1531.88
422.89	1556.46
423.10	1517.54
423.30	1353.71
423.51	1587.18
423.72	1507.30
423.92	1607.66
424.13	1554.41
424.33	1501.16
424.54	1595.37
424.75	1632.23
424.95	1587.18
425.16	1593.32
425.36	1529.83
425.57	1550.31
425.78	1581.03
425.98	1597.42
426.19	1542.12
426.39	1550.31
426.60	1505.26
426.81	1634.28
427.01	1568.74
427.22	1492.97
427.42	1452.01
427.63	1578.98
427.83	1535.98
428.04	1736.68
428.25	1658.85
428.45	1570.79
428.66	1533.93
428.86	1556.46
429.07	1609.70
429.28	1531.88
429.48	1501.16
429.69	1517.54
429.89	1484.78
430.10	1513.45
430.30	1574.89
430.51	1603.56
430.71	1507.30
430.92	1533.93
431.13	1482.73
431.33	1578.98
431.54	1660.90
431.74	1640.42
431.95	1593.32
432.15	1462.25
432.36	1562.60
432.56	1585.13
432.77	1550.31
432.98	1667.05
433.18	1556.46
433.39	1578.98
433.59	1533.93
433.80	1558.50
434.00	1605.61
434.21	1515.50
434.41	1507.30
434.62	1619.94
434.82	1454.06
435.03	1486.83
435.23	1597.42
435.44	1460.20
435.64	1521.64
435.85	1578.98
436.06	1558.50
436.26	1585.13
436.47	1562.60
436.67	1617.90
436.88	1503.21
437.08	1581.03
437.29	1626.09
437.49	1621.99
437.70	1570.79
437.90	1542.12
438.11	1671.14
438.31	1679.33
438.52	1732.58
438.72	1771.49
438.93	1755.11
439.13	1576.94
439.34	1675.24
439.54	1560.55
439.75	1648.61
439.95	1644.52
440.16	1540.07
440.36	1560.55
440.57	1603.56
440.77	1554.41
440.98	1583.08
441.18	1552.36
441.39	1529.83
441.59	1554.41
441.80	1644.52
442.00	1636.33
442.21	1589.22
442.41	1521.64
442.62	1533.93
442.82	1503.21
443.02	1644.52
443.23	1447.91
443.43	1609.70
443.64	1634.28
443.84	1523.69
444.05	1634.28
444.25	1505.26
444.46	1556.46
444.66	1570.79
444.87	1665.00
445.07	1492.97
445.28	1542.12
445.48	1566.70
445.69	1597.42
445.89	1597.42
446.09	1667.05
446.30	2021.35
446.50	3227.60
446.71	4505.53
446.91	5310.38
447.12	5742.50
447.32	5724.07
447.53	4515.77
447.73	4007.87
447.93	3753.93
448.14	3391.44
448.34	3215.31
448.55	2971.60
448.75	2789.33
448.96	2822.10
449.16	2494.43
449.36	2340.83
449.57	2062.30
449.77	1818.60
449.98	1701.86
450.18	1701.86
450.39	1638.38
450.59	1675.24
450.79	1476.59
451.00	1558.50
451.20	1644.52
451.41	1599.46
451.61	1507.30
451.81	1505.26
452.02	1509.35
452.22	1548.26
452.43	1550.31
452.63	1507.30
452.84	1515.50
453.04	1560.55
453.24	1470.44
453.45	1572.84
453.65	1529.83
453.86	1546.22
454.06	1523.69
454.26	1589.22
454.47	1531.88
454.67	1705.96
454.87	1576.94
455.08	1568.74
455.28	1619.94
455.49	1617.90
455.69	1546.22
455.89	1619.94
456.10	1572.84
456.30	1468.39
456.51	1548.26
456.71	1527.78
456.91	1478.63
457.12	1501.16
457.32	1583.08
457.52	1429.48
457.73	1517.54
457.93	1492.97
458.14	1542.12
458.34	1501.16
458.54	1519.59
458.75	1521.64
458.95	1554.41
459.15	1538.02
459.36	1495.02
459.56	1529.83
459.76	1642.47
459.97	1501.16
460.17	1482.73
460.37	1656.81
460.58	1574.89
460.78	1624.04
460.99	1499.11
461.19	1511.40
461.39	1495.02
461.60	1511.40
461.80	1517.54
462.00	1535.98
462.21	1578.98
462.41	1529.83
462.61	1517.54
462.82	1523.69
463.02	1554.41
463.22	1507.30
463.43	1585.13
463.63	1554.41
463.83	1640.42
464.04	1572.84
464.24	1552.36
464.44	1558.50
464.64	1503.21
464.85	1619.94
465.05	1589.22
465.25	1527.78
465.46	1521.64
465.66	1550.31
465.86	1615.85
466.07	1533.93
466.27	1583.08
466.47	1503.21
466.68	1513.45
466.88	1609.70
467.08	1587.18
467.29	1615.85
467.49	1595.37
467.69	1533.93
467.89	1519.59
468.10	1535.98
468.30	1558.50
468.50	1517.54
468.71	1578.98
468.91	1503.21
469.11	1587.18
469.31	1517.54
469.52	1421.29
469.72	1615.85
469.92	1646.57
470.13	1593.32
470.33	1509.35
470.53	1705.96
470.73	2172.89
470.94	2297.82
471.14	2353.12
471.34	2658.26
471.54	2445.27
471.75	2193.37
471.95	2088.93
472.15	2013.15
472.36	1927.14
472.56	1982.43
472.76	1927.14
472.96	1916.90
473.17	1810.40
473.37	1837.03
473.57	1628.14
473.77	1718.25
473.98	1585.13
474.18	1480.68
474.38	1701.86
474.58	1443.82
474.79	1503.21
474.99	1554.41
475.19	1619.94
475.39	1482.73
475.60	1513.45
475.80	1585.13
476.00	1511.40
476.20	1480.68
476.41	1538.02
476.61	1632.23
476.81	1652.71
477.01	1525.74
477.21	1708.01
477.42	1634.28
477.62	1503.21
477.82	1533.93
478.02	1648.61
478.23	1583.08
478.43	1495.02
478.63	1513.45
478.83	1597.42
479.03	1484.78
479.24	1568.74
479.44	1638.38
479.64	1411.05
479.84	1468.39
480.04	1558.50
480.25	1501.16
480.45	1546.22
480.65	1519.59
480.85	1646.57
481.06	1556.46
481.26	1613.80
481.46	1595.37
481.66	1642.47
481.86	1513.45
482.06	1617.90
482.27	1560.55
482.47	1503.21
482.67	1603.56
482.87	1488.87
483.07	1529.83
483.28	1544.17
483.48	1515.50
483.68	1587.18
483.88	1511.40
484.08	1484.78
484.29	1511.40
484.49	1548.26
484.69	1513.45
484.89	1656.81
485.09	1617.90
485.29	1560.55
485.50	1574.89
485.70	1470.44
485.90	1605.61
486.10	1523.69
486.30	1576.94
486.50	1605.61
486.71	1542.12
486.91	1540.07
487.11	1591.27
487.31	1517.54
487.51	1591.27
487.71	1519.59
487.91	1509.35
488.12	1472.49
488.32	1433.58
488.52	1523.69
488.72	1499.11
488.92	1574.89
489.12	1603.56
489.32	1554.41
489.53	1599.46
489.73	1484.78
489.93	1621.99
490.13	1503.21
490.33	1454.06
490.53	1519.59
490.73	1513.45
490.94	1478.63
491.14	1552.36
491.34	1738.73
491.54	2160.61
491.74	2697.17
491.94	3055.57
492.14	3383.24
492.34	3272.65
492.54	2887.64
492.75	2478.04
492.95	2371.55
493.15	2273.25
493.35	2166.75
493.55	2144.22
493.75	2025.44
493.95	2121.70
494.15	1982.43
494.35	1863.65
494.56	1769.44
494.76	1601.51
494.96	1636.33
495.16	1597.42
495.36	1605.61
495.56	1556.46
495.76	1540.07
495.96	1554.41
496.16	1548.26
496.36	1626.09
496.56	1519.59
496.77	1558.50
496.97	1609.70
497.17	1554.41
497.37	1464.30
497.57	1544.17
497.77	1626.09
497.97	1476.59
498.17	1587.18
498.37	1578.98
498.57	1548.26
498.77	1621.99
498.97	1527.78
499.17	1611.75
499.38	1556.46
499.58	1568.74
499.78	1611.75
499.98	1628.14
500.18	1581.03
500.38	1558.50
500.58	1714.15
500.78	2684.89
500.98	5121.97
501.18	6803.35
501.38	8279.94
501.58	8783.74
501.78	7980.93
501.98	6272.93
502.18	5404.59
502.38	4782.01
502.58	4249.54
502.78	3928.00
502.98	3860.42
503.18	3688.39
503.38	3448.78
503.59	3063.76
503.79	2746.33
503.99	2596.82
504.19	2310.11
504.39	2127.84
504.59	2097.12
504.79	2068.45
504.99	1916.90
505.19	1804.26
505.39	1710.05
505.59	1769.44
505.79	1767.40
505.99	1681.38
506.19	1681.38
506.39	1777.64
506.59	1658.85
506.79	1527.78
506.99	1617.90
507.19	1531.88
507.39	1669.09
507.59	1566.70
507.79	1492.97
507.99	1589.22
508.19	1533.93
508.39	1527.78
508.59	1566.70
508.79	1603.56
508.99	1640.42
509.19	1529.83
509.39	1621.99
509.59	1521.64
509.79	1484.78
509.99	1484.78
510.19	1546.22
510.39	1540.07
510.59	1544.17
510.79	1578.98
510.99	1550.31
511.19	1615.85
511.39	1585.13
511.59	1566.70
511.79	1642.47
511.99	1585.13
512.19	1634.28
512.38	1478.63
512.58	1548.26
512.78	1486.83
512.98	1540.07
513.18	1648.61
513.38	1484.78
513.58	1544.17
513.78	1603.56
513.98	1499.11
514.18	1646.57
514.38	1574.89
514.58	1597.42
514.78	1593.32
514.98	1597.42
515.18	1519.59
515.38	1505.26
515.58	1634.28
515.78	1482.73
515.98	1574.89
516.18	1515.50
516.38	1490.92
516.57	1513.45
516.77	1480.68
516.97	1578.98
517.17	1576.94
517.37	1431.53
517.57	1554.41
517.77	1574.89
517.97	1556.46
518.17	1581.03
518.37	1527.78
518.57	1521.64
518.77	1605.61
518.97	1560.55
519.16	1607.66
519.36	1495.02
519.56	1501.16
519.76	1587.18
519.96	1544.17
520.16	1607.66
520.36	1497.07
520.56	1564.65
520.76	1523.69
520.96	1507.30
521.16	1609.70
521.35	1597.42
521.55	1636.33
521.75	1488.87
521.95	1558.50
522.15	1533.93
522.35	1503.21
522.55	1521.64
522.75	1634.28
522.95	1585.13
523.14	1488.87
523.34	1560.55
523.54	1550.31
523.74	1505.26
523.94	1533.93
524.14	1433.58
524.34	1464.30
524.54	1562.60
524.73	1490.92
524.93	1558.50
525.13	1562.60
525.33	1452.01
525.53	1642.47
525.73	1552.36
525.93	1525.74
526.13	1468.39
526.32	1513.45
526.52	1556.46
526.72	1572.84
526.92	1507.30
527.12	1505.26
527.32	1437.67
527.52	1619.94
527.71	1533.93
527.91	1611.75
528.11	1560.55
528.31	1497.07
528.51	1484.78
528.71	1566.70
528.90	1574.89
529.10	1538.02
529.30	1581.03
529.50	1419.24
529.70	1505.26
529.90	1511.40
530.09	1544.17
530.29	1488.87
530.49	1486.83
530.69	1630.18
530.89	1599.46
531.09	1638.38
531.28	1552.36
531.48	1615.85
531.68	1503.21
531.88	1535.98
532.08	1562.60
532.28	1581.03
532.47	1525.74
532.67	1585.13
532.87	1564.65
533.07	1456.11
533.27	1564.65
533.46	1611.75
533.66	1544.17
533.86	1527.78
534.06	1546.22
534.26	1560.55
534.45	1593.32
534.65	1540.07
534.85	1605.61
535.05	1544.17
535.25	1638.38
535.44	1497.07
535.64	1587.18
535.84	1452.01
536.04	1527.78
536.24	1527.78
536.43	1492.97
536.63	1511.40
536.83	1531.88
537.03	1558.50
537.22	1511.40
537.42	1468.39
537.62	1548.26
537.82	1544.17
538.02	1632.23
538.21	1480.68
538.41	1658.85
538.61	1589.22
538.81	1550.31
539.00	1562.60
539.20	1452.01
539.40	1562.60
539.60	1527.78
539.79	1624.04
539.99	1447.91
540.19	1525.74
540.39	1474.54
540.58	1642.47
540.78	1576.94
540.98	1533.93
541.18	1540.07
541.37	1624.04
541.57	1556.46
541.77	1581.03
541.97	1482.73
542.16	1462.25
542.36	1546.22
542.56	1544.17
542.76	1619.94
542.95	1574.89
543.15	1552.36
543.35	1538.02
543.54	1558.50
543.74	1511.40
543.94	1527.78
544.14	1548.26
544.33	1570.79
544.53	1562.60
544.73	1519.59
544.93	1546.22
545.12	1482.73
545.32	1552.36
545.52	1540.07
545.71	1466.35
545.91	1554.41
546.11	1550.31
546.30	1443.82
546.50	1638.38
546.70	1517.54
546.90	1587.18
547.09	1382.38
547.29	1611.75
547.49	1562.60
547.68	1527.78
547.88	1505.26
548.08	1529.83
548.27	1882.08
548.47	1503.21
548.67	1511.40
548.87	1548.26
549.06	1527.78
549.26	1535.98
549.46	1554.41
549.65	1527.78
549.85	1535.98
550.05	1599.46
550.24	1525.74
550.44	1509.35
550.64	1560.55
550.83	1517.54
551.03	1581.03
551.23	1581.03
551.42	1558.50
551.62	1538.02
551.82	1560.55
552.01	1464.30
552.21	1529.83
552.41	1576.94
552.60	1630.18
552.80	1519.59
553.00	1581.03
553.19	1544.17
553.39	1589.22
553.59	1443.82
553.78	1560.55
553.98	1597.42
554.17	1542.12
554.37	1533.93
554.57	1538.02
554.76	1490.92
554.96	1560.55
555.16	1533.93
555.35	1533.93
555.55	1546.22
555.75	1535.98
555.94	1554.41
556.14	1509.35
556.33	1603.56
556.53	1525.74
556.73	1562.60
556.92	1562.60
557.12	1634.28
557.32	1593.32
557.51	1589.22
557.71	1554.41
557.90	1599.46
558.10	1574.89
558.30	1492.97
558.49	1533.93
558.69	1509.35
558.88	1546.22
559.08	1527.78
559.28	1564.65
559.47	1603.56
559.67	1519.59
559.86	1593.32
560.06	1497.07
560.26	1542.12
560.45	1527.78
560.65	1540.07
560.84	1583.08
561.04	1562.60
561.24	1544.17
561.43	1484.78
561.63	1585.13
561.82	1486.83
562.02	1460.20
562.22	1523.69
562.41	1525.74
562.61	1521.64
562.80	1427.43
563.00	1632.23
563.19	1587.18
563.39	1595.37
563.59	1626.09
563.78	1550.31
563.98	1472.49
564.17	1591.27
564.37	1409.00
564.56	1583.08
564.76	1488.87
564.96	1566.70
565.15	1574.89
565.35	1654.76
565.54	1509.35
565.74	1570.79
565.93	1611.75
566.13	1542.12
566.32	1546.22
566.52	1617.90
566.71	1556.46
566.91	1648.61
567.11	1570.79
567.30	1535.98
567.50	1538.02
567.69	1624.04
567.89	1542.12
568.08	1550.31
568.28	1511.40
568.47	1544.17
568.67	1548.26
568.86	1527.78
569.06	1609.70
569.25	1554.41
569.45	1490.92
569.64	1521.64
569.84	1519.59
570.04	1601.51
570.23	1501.16
570.43	1546.22
570.62	1562.60
570.82	1591.27
571.01	1507.30
571.21	1497.07
571.40	1595.37
571.60	1568.74
571.79	1644.52
571.99	1531.88
572.18	1456.11
572.38	1548.26
572.57	1585.13
572.77	1560.55
572.96	1687.53
573.16	1499.11
573.35	1472.49
573.55	1605.61
573.74	1603.56
573.94	1531.88
574.13	1540.07
574.33	1554.41
574.52	1564.65
574.71	1558.50
574.91	1587.18
575.10	1572.84
575.30	1593.32
575.49	1558.50
575.69	1542.12
575.88	1611.75
576.08	1634.28
576.27	1646.57
576.47	1662.95
576.66	1650.66
576.86	1677.29
577.05	1562.60
577.25	1574.89
577.44	1699.81
577.64	1636.33
577.83	1601.51
578.02	1501.16
578.22	1652.71
578.41	1710.05
578.61	1548.26
578.80	1454.06
579.00	1568.74
579.19	1527.78
579.39	1558.50
579.58	1568.74
579.77	1591.27
579.97	1621.99
580.16	1628.14
580.36	1638.38
580.55	1611.75
580.75	1566.70
580.94	1560.55
581.13	1613.80
581.33	1609.70
581.52	1613.80
581.72	1718.25
581.91	1685.48
582.11	1634.28
582.30	1656.81
582.49	1544.17
582.69	1667.05
582.88	1634.28
583.08	1611.75
583.27	1621.99
583.47	1601.51
583.66	1544.17
583.85	1509.35
584.05	1601.51
584.24	1746.92
584.44	1593.32
584.63	1712.10
584.82	1759.21
585.02	1738.73
585.21	1722.34
585.41	1718.25
585.60	1810.40
585.79	1728.49
585.99	1763.30
586.18	1830.88
586.37	2025.44
586.57	3219.41
586.76	9539.44
586.96	27919.96
587.15	44092.77
587.34	54846.65
587.54	61916.24
587.73	60308.58
587.93	43836.77
588.12	32724.49
588.31	26226.29
588.51	22515.37
588.70	19762.90
588.89	18570.98
589.09	17233.66
589.28	15367.96
589.47	13322.04
589.67	11374.42
589.86	9076.60
590.06	6930.33
590.25	4951.99
590.44	3776.45
590.64	2897.88
590.83	2367.45
591.02	2107.36
591.22	1869.80
591.41	1798.12
591.60	1714.15
591.80	1705.96
591.99	1630.18
592.18	1601.51
592.38	1714.15
592.57	1621.99
592.76	1611.75
592.96	1554.41
593.15	1550.31
593.34	1617.90
593.54	1560.55
593.73	1613.80
593.92	1689.57
594.12	1589.22
594.31	1630.18
594.50	1683.43
594.70	1720.29
594.89	1771.49
595.08	1564.65
595.28	1509.35
595.47	1732.58
595.66	1646.57
595.86	1529.83
596.05	1611.75
596.24	1609.70
596.43	1595.37
596.63	1648.61
596.82	1613.80
597.01	1566.70
597.21	1685.48
597.40	1617.90
597.59	1599.46
597.79	1566.70
597.98	1626.09
598.17	1642.47
598.36	1513.45
598.56	1595.37
598.75	1574.89
598.94	1531.88
599.14	1478.63
599.33	1519.59
599.52	1585.13
599.71	1658.85
599.91	1550.31
600.10	1640.42
600.29	1505.26
600.48	1538.02
600.68	1624.04
600.87	1542.12
601.06	1556.46
601.26	1607.66
601.45	1538.02
601.64	1589.22
601.83	1566.70
602.03	1452.01
602.22	1454.06
602.41	1576.94
602.60	1665.00
602.80	1595.37
602.99	1624.04
603.18	1513.45
603.37	1576.94
603.57	1587.18
603.76	1576.94
603.95	1595.37
604.14	1542.12
604.34	1576.94
604.53	1468.39
604.72	1595.37
604.91	1591.27
605.10	1576.94
605.30	1495.02
605.49	1654.76
605.68	1568.74
605.87	1529.83
606.07	1513.45
606.26	1576.94
606.45	1578.98
606.64	1599.46
606.84	1581.03
607.03	1636.33
607.22	1634.28
607.41	1501.16
607.60	1626.09
607.80	1650.66
607.99	1566.70
608.18	1583.08
608.37	1513.45
608.56	1556.46
608.76	1593.32
608.95	1654.76
609.14	1609.70
609.33	1617.90
609.52	1656.81
609.72	1632.23
609.91	1640.42
610.10	1615.85
610.29	1693.67
610.48	1615.85
610.68	1609.70
610.87	1544.17
611.06	1531.88
611.25	1564.65
611.44	1654.76
611.63	1531.88
611.83	1626.09
612.02	1558.50
612.21	1648.61
612.40	1529.83
612.59	1484.78
612.79	1503.21
612.98	1562.60
613.17	1578.98
613.36	1525.74
613.55	1636.33
613.74	1605.61
613.93	1642.47
614.13	1673.19
614.32	1841.12
614.51	1810.40
614.70	1675.24
614.89	1609.70
615.08	1724.39
615.28	1869.80
615.47	1535.98
615.66	1630.18
615.85	1619.94
616.04	1763.30
616.23	1603.56
616.42	1628.14
616.62	1607.66
616.81	1572.84
617.00	1570.79
617.19	1611.75
617.38	1492.97
617.57	1603.56
617.76	1578.98
617.95	1538.02
618.15	1581.03
618.34	1640.42
618.53	1482.73
618.72	1568.74
618.91	1611.75
619.10	1626.09
619.29	1566.70
619.48	1538.02
619.68	1468.39
619.87	1519.59
620.06	1466.35
620.25	1609.70
620.44	1517.54
620.63	1542.12
620.82	1574.89
621.01	1562.60
621.20	1538.02
621.39	1605.61
621.59	1529.83
621.78	1558.50
621.97	1538.02
622.16	1609.70
622.35	1546.22
622.54	1601.51
622.73	1611.75
622.92	1431.53
623.11	1587.18
623.30	1544.17
623.49	1626.09
623.68	1511.40
623.88	1595.37
624.07	1533.93
624.26	1509.35
624.45	1484.78
624.64	1531.88
624.83	1587.18
625.02	1585.13
625.21	1548.26
625.40	1556.46
625.59	1519.59
625.78	1523.69
625.97	1583.08
626.16	1558.50
626.35	1716.20
626.54	1679.33
626.74	1693.67
626.93	1652.71
627.12	1533.93
627.31	1648.61
627.50	1660.90
627.69	1589.22
627.88	1517.54
628.07	1529.83
628.26	1476.59
628.45	1454.06
628.64	1484.78
628.83	1540.07
629.02	1472.49
629.21	1566.70
629.40	1556.46
629.59	1552.36
629.78	1581.03
629.97	1583.08
630.16	1558.50
630.35	1570.79
630.54	1585.13
630.73	1546.22
630.92	1607.66
631.11	1521.64
631.30	1548.26
631.49	1587.18
631.68	1535.98
631.87	1511.40
632.06	1554.41
632.25	1658.85
632.44	1486.83
632.63	1566.70
632.82	1601.51
633.01	1626.09
633.20	1636.33
633.39	1630.18
633.58	1601.51
633.77	1667.05
633.96	1587.18
634.15	1511.40
634.34	1630.18
634.53	1544.17
634.72	1562.60
634.91	1511.40
635.10	1535.98
635.29	1562.60
635.48	1511.40
635.67	1533.93
635.86	1591.27
636.05	1593.32
636.24	1552.36
636.43	1587.18
636.62	1640.42
636.81	1411.05
637.00	1548.26
637.19	1558.50
637.38	1538.02
637.57	1523.69
637.76	1644.52
637.95	1642.47
638.14	1597.42
638.33	1624.04
638.52	1650.66
638.71	1615.85
638.89	1544.17
639.08	1712.10
639.27	1628.14
639.46	1621.99
639.65	1953.76
639.84	2080.74
640.03	2189.28
640.22	2160.61
640.41	2217.95
640.60	1955.81
640.79	1857.51
640.98	1710.05
641.17	1787.88
641.36	1665.00
641.55	1755.11
641.74	1669.09
641.92	1609.70
642.11	1597.42
642.30	1642.47
642.49	1484.78
642.68	1552.36
642.87	1558.50
643.06	1556.46
643.25	1538.02
643.44	1505.26
643.63	1550.31
643.82	1632.23
644.00	1460.20
644.19	1566.70
644.38	1466.35
644.57	1591.27
644.76	1589.22
644.95	1486.83
645.14	1490.92
645.33	1474.54
645.52	1521.64
645.71	1517.54
645.89	1452.01
646.08	1542.12
646.27	1546.22
646.46	1636.33
646.65	1505.26
646.84	1578.98
647.03	1482.73
647.22	1634.28
647.40	1548.26
647.59	1554.41
647.78	1521.64
647.97	1509.35
648.16	1525.74
648.35	1644.52
648.54	1632.23
648.73	1546.22
648.91	1599.46
649.10	1509.35
649.29	1492.97
649.48	1572.84
649.67	1542.12
649.86	1470.44
650.05	1570.79
650.23	1744.87
650.42	1675.24
650.61	1718.25
650.80	1667.05
650.99	1740.77
651.18	1621.99
651.36	1701.86
651.55	1583.08
651.74	1650.66
651.93	1521.64
652.12	1601.51
652.31	1488.87
652.49	1544.17
652.68	1548.26
652.87	1724.39
653.06	1609.70
653.25	1658.85
653.44	1554.41
653.62	1624.04
653.81	1601.51
654.00	1544.17
654.19	1585.13
654.38	1669.09
654.56	1562.60
654.75	1519.59
654.94	1576.94
655.13	1564.65
655.32	1552.36
655.51	1626.09
655.69	1503.21
655.88	1527.78
656.07	1548.26
656.26	1589.22
656.45	1490.92
656.63	1562.60
656.82	1513.45
657.01	1617.90
657.20	1447.91
657.38	1669.09
657.57	1550.31
657.76	1523.69
657.95	1517.54
658.14	1492.97
658.32	1562.60
658.51	1550.31
658.70	1566.70
658.89	1560.55
659.08	1646.57
659.26	1525.74
659.45	1519.59
659.64	1599.46
659.83	1562.60
660.01	1679.33
660.20	1617.90
660.39	1699.81
660.58	1476.59
660.76	1630.18
660.95	1505.26
661.14	1548.26
661.33	1511.40
661.51	1550.31
661.70	1572.84
661.89	1570.79
662.08	1544.17
662.26	1517.54
662.45	1531.88
662.64	1613.80
662.83	1474.54
663.01	1525.74
663.20	1497.07
663.39	1531.88
663.58	1499.11
663.76	1533.93
663.95	1558.50
664.14	1591.27
664.32	1523.69
664.51	1529.83
664.70	1517.54
664.89	1566.70
665.07	1531.88
665.26	1595.37
665.45	1517.54
665.64	1632.23
665.82	1556.46
666.01	1566.70
666.20	1548.26
666.38	1619.94
666.57	1656.81
666.76	1839.08
666.95	2975.70
667.13	7645.07
667.32	15677.20
667.51	20178.64
667.69	23922.32
667.88	25622.14
668.07	22541.99
668.25	15800.08
668.44	12644.16
668.63	10028.90
668.81	8685.44
669.00	7780.23
669.19	7264.15
669.38	6332.32
669.56	5584.81
669.75	4943.80
669.94	4145.09
670.12	3479.50
670.31	2846.68
670.50	2416.60
670.68	2119.65
670.87	1918.95
671.06	1789.92
671.24	1753.06
671.43	1714.15
671.62	1669.09
671.80	1630.18
671.99	1708.01
672.18	1589.22
672.36	1599.46
672.55	1628.14
672.74	1554.41
672.92	1568.74
673.11	1607.66
673.29	1525.74
673.48	1581.03
673.67	1544.17
673.85	1601.51
674.04	1513.45
674.23	1576.94
674.41	1642.47
674.60	1527.78
674.79	1443.82
674.97	1527.78
675.16	1644.52
675.34	1615.85
675.53	1476.59
675.72	1660.90
675.90	1681.38
676.09	1499.11
676.28	1540.07
676.46	1439.72
676.65	1662.95
676.83	1572.84
677.02	1587.18
677.21	1550.31
677.39	1535.98
677.58	1576.94
677.77	1519.59
677.95	1535.98
678.14	1581.03
678.32	1566.70
678.51	1497.07
678.70	1705.96
678.88	1521.64
679.07	1609.70
679.25	1562.60
679.44	1587.18
679.63	1513.45
679.81	1574.89
680.00	1638.38
680.18	1503.21
680.37	1583.08
680.55	1470.44
680.74	1497.07
680.93	1507.30
681.11	1603.56
681.30	1529.83
681.48	1521.64
681.67	1501.16
681.85	1556.46
682.04	1548.26
682.23	1540.07
682.41	1519.59
682.60	1490.92
682.78	1593.32
682.97	1495.02
683.15	1605.61
683.34	1513.45
683.53	1566.70
683.71	1486.83
683.90	1538.02
684.08	1615.85
684.27	1527.78
684.45	1587.18
684.64	1578.98
684.82	1548.26
685.01	1511.40
685.19	1484.78
685.38	1585.13
685.57	1531.88
685.75	1574.89
685.94	1513.45
686.12	1495.02
686.31	1525.74
686.49	1599.46
686.68	1495.02
686.86	1507.30
687.05	1564.65
687.23	1597.42
687.42	1566.70
687.60	1515.50
687.79	1544.17
687.97	1566.70
688.16	1630.18
688.34	1540.07
688.53	1456.11
688.71	1519.59
688.90	1599.46
689.08	1576.94
689.27	1499.11
689.45	1544.17
689.64	1476.59
689.82	1593.32
690.01	1544.17
690.19	1566.70
690.38	1486.83
690.56	1562.60
690.75	1464.30
690.93	1605.61
691.12	1458.15
691.30	1503.21
691.49	1550.31
691.67	1521.64
691.86	1542.12
692.04	1548.26
692.23	1462.25
692.41	1572.84
692.60	1761.25
692.78	1624.04
692.97	1626.09
693.15	1642.47
693.34	1685.48
693.52	1572.84
693.71	1529.83
693.89	1644.52
694.08	1531.88
694.26	1615.85
694.44	1515.50
694.63	1617.90
694.81	1525.74
695.00	1550.31
695.18	1572.84
695.37	1642.47
695.55	1609.70
695.74	1533.93
695.92	1478.63
696.10	1634.28
696.29	1482.73
696.47	1509.35
696.66	1466.35
696.84	1566.70
697.03	1523.69
697.21	1658.85
697.40	1937.38
697.58	1591.27
697.76	1527.78
697.95	1583.08
698.13	1513.45
698.32	1521.64
698.50	1511.40
698.68	1538.02
698.87	1595.37
699.05	1697.77
699.24	1509.35
699.42	1490.92
699.61	1499.11
699.79	1574.89
699.97	1527.78
700.16	1574.89
700.34	1501.16
700.53	1568.74
700.71	1656.81
700.89	1578.98
701.08	1499.11
701.26	1599.46
701.45	1812.45
701.63	1550.31
701.81	1492.97
702.00	1466.35
702.18	1540.07
702.37	1531.88
702.55	1591.27
702.73	1742.82
702.92	1712.10
703.10	1804.26
703.28	1794.02
703.47	1687.53
703.65	1734.63
703.84	1648.61
704.02	1665.00
704.20	1775.59
704.39	1630.18
704.57	1613.80
704.75	1732.58
704.94	1628.14
705.12	1593.32
705.30	1587.18
705.49	1791.97
705.67	2906.07
705.86	7403.41
706.04	14550.82
706.22	18822.88
706.41	21649.08
706.59	23324.32
706.77	21096.13
706.96	14790.43
707.14	11956.04
707.32	9926.50
707.51	8712.06
707.69	7557.00
707.87	6764.44
708.06	5863.33
708.24	4939.70
708.42	3774.41
708.61	2901.97
708.79	2310.11
708.97	1964.00
709.16	1849.32
709.34	1791.97
709.52	1646.57
709.71	1683.43
709.89	1587.18
710.07	1554.41
710.26	1449.96
710.44	1574.89
710.62	1556.46
710.80	1544.17
710.99	1632.23
711.17	1578.98
711.35	1552.36
711.54	1501.16
711.72	1605.61
711.90	1568.74
712.09	1525.74
712.27	1525.74
712.45	1636.33
712.63	1523.69
712.82	1576.94
713.00	1578.98
713.18	1570.79
713.37	1521.64
713.55	1628.14
713.73	1548.26
713.91	1585.13
714.10	1521.64
714.28	1550.31
714.46	1605.61
714.65	1558.50
714.83	1511.40
715.01	1542.12
715.19	1511.40
715.38	1480.68
715.56	1560.55
715.74	1478.63
715.92	1492.97
716.11	1634.28
716.29	1484.78
716.47	1574.89
716.65	1535.98
716.84	1435.63
717.02	1576.94
717.20	1492.97
717.38	1443.82
717.57	1529.83
717.75	1511.40
717.93	1511.40
718.11	1599.46
718.30	1492.97
718.48	1550.31
718.66	1626.09
718.84	1515.50
719.03	1544.17
719.21	1538.02
719.39	1638.38
719.57	1689.57
719.75	1609.70
719.94	1509.35
720.12	1603.56
720.30	1546.22
720.48	1603.56
720.67	1515.50
720.85	1568.74
721.03	1495.02
721.21	1507.30
721.39	1562.60
721.58	1566.70
721.76	1509.35
721.94	1566.70
722.12	1515.50
722.30	1566.70
722.49	1511.40
722.67	1587.18
722.85	1542.12
723.03	1548.26
723.21	1519.59
723.40	1546.22
723.58	1574.89
723.76	1638.38
723.94	1609.70
724.12	1566.70
724.30	1695.72
724.49	1613.80
724.67	1544.17
724.85	1648.61
725.03	1544.17
725.21	1570.79
725.40	1636.33
725.58	1617.90
725.76	1615.85
725.94	1517.54
726.12	1509.35
726.30	1554.41
726.49	1507.30
726.67	1515.50
726.85	1576.94
727.03	1527.78
727.21	1705.96
727.39	2168.80
727.57	3284.94
727.76	4421.56
727.94	4853.69
728.12	5242.80
728.30	5195.70
728.48	4282.30
728.66	3534.79
728.84	3313.61
729.03	2928.60
729.21	2678.74
729.39	2359.26
729.57	1988.58
729.75	1839.08
729.93	1828.84
730.11	1632.23
730.30	1566.70
730.48	1540.07
730.66	1552.36
730.84	1630.18
731.02	1550.31
731.20	1619.94
731.38	1521.64
731.56	1542.12
731.74	1505.26
731.93	1525.74
732.11	1519.59
732.29	1568.74
732.47	1505.26
732.65	1540.07
732.83	1497.07
733.01	1574.89
733.19	1490.92
733.37	1480.68
733.56	1570.79
733.74	1558.50
733.92	1570.79
734.10	1476.59
734.28	1511.40
734.46	1492.97
734.64	1423.34
734.82	1521.64
735.00	1488.87
735.18	1542.12
735.36	1535.98
735.54	1468.39
735.73	1517.54
735.91	1519.59
736.09	1550.31
736.27	1568.74
736.45	1531.88
736.63	1505.26
736.81	1507.30
736.99	1607.66
737.17	1619.94
737.35	1482.73
737.53	1570.79
737.71	1509.35
737.89	1574.89
738.07	1544.17
738.25	1503.21
738.43	1462.25
738.61	1554.41
738.80	1476.59
738.98	1501.16
739.16	1515.50
739.34	1452.01
739.52	1556.46
739.70	1525.74
739.88	1642.47
740.06	1605.61
740.24	1542.12
740.42	1515.50
740.60	1468.39
740.78	1533.93
740.96	1464.30
741.14	1511.40
741.32	1544.17
741.50	1462.25
741.68	1621.99
741.86	1615.85
742.04	1472.49
742.22	1507.30
742.40	1654.76
742.58	1535.98
742.76	1474.54
742.94	1568.74
743.12	1484.78
743.30	1552.36
743.48	1574.89
743.66	1488.87
743.84	1558.50
744.02	1513.45
744.20	1452.01
744.38	1525.74
744.56	1503.21
744.74	1697.77
744.92	1554.41
745.10	1619.94
745.28	1540.07
745.46	1591.27
745.64	1558.50
745.82	1556.46
746.00	1507.30
746.18	1556.46
746.36	1445.87
746.54	1538.02
746.72	1495.02
746.90	1558.50
747.08	1597.42
747.26	1554.41
747.44	1611.75
747.62	1546.22
747.80	1599.46
747.98	1601.51
748.15	1544.17
748.33	1640.42
748.51	1538.02
748.69	1630.18
748.87	1538.02
749.05	1513.45
749.23	1583.08
749.41	1572.84
749.59	1529.83
749.77	1585.13
749.95	1568.74
750.13	1525.74
750.31	1548.26
750.49	1535.98
750.67	1492.97
750.85	1589.22
751.03	1507.30
751.20	1574.89
751.38	1558.50
751.56	1535.98
751.74	1517.54
751.92	1576.94
752.10	1437.67
752.28	1589.22
752.46	1472.49
752.64	1517.54
752.82	1509.35
753.00	1605.61
753.18	1509.35
753.35	1523.69
753.53	1603.56
753.71	1568.74
753.89	1601.51
754.07	1484.78
754.25	1544.17
754.43	1544.17
754.61	1527.78
754.79	1533.93
754.97	1519.59
755.14	1658.85
755.32	1468.39
755.50	1488.87
755.68	1533.93
755.86	1505.26
756.04	1523.69
756.22	1429.48
756.40	1509.35
756.57	1568.74
756.75	1566.70
756.93	1552.36
757.11	1650.66
757.29	1511.40
757.47	1495.02
757.65	1447.91
757.82	1478.63
758.00	1478.63
758.18	1550.31
758.36	1515.50
758.54	1599.46
758.72	1529.83
758.90	1566.70
759.07	1607.66
759.25	1423.34
759.43	1589.22
759.61	1509.35
759.79	1974.24
759.97	1587.18
760.15	1464.30
760.32	1538.02
760.50	1546.22
760.68	1665.00
760.86	1492.97
761.04	1566.70
761.22	1568.74
761.39	1564.65
761.57	1574.89
761.75	1544.17
761.93	1585.13
762.11	1542.12
762.28	1542.12
762.46	1540.07
762.64	1564.65
762.82	1507.30
763.00	1542.12
763.18	1568.74
763.35	1515.50
763.53	1589.22
763.71	1523.69
763.89	1490.92
764.07	1544.17
764.24	1638.38
764.42	1550.31
764.60	1593.32
764.78	1538.02
764.96	1552.36
765.13	1615.85
765.31	1533.93
765.49	1527.78
765.67	1452.01
765.84	1499.11
766.02	1462.25
766.20	1449.96
766.38	1517.54
766.56	1609.70
766.73	1525.74
766.91	1497.07
767.09	1558.50
767.27	1513.45
767.44	1464.30
767.62	1605.61
767.80	1562.60
767.98	1480.68
768.15	1548.26
768.33	1585.13
768.51	1546.22
768.69	1552.36
768.87	1533.93
769.04	1564.65
769.22	1605.61
769.40	1550.31
769.58	1705.96
769.75	1509.35
769.93	1527.78
770.11	1548.26
770.28	1566.70
770.46	1568.74
770.64	1542.12
770.82	1460.20
770.99	1484.78
771.17	1599.46
771.35	1474.54
771.53	1509.35
771.70	1495.02
771.88	1556.46
772.06	1566.70
772.23	1540.07
772.41	1527.78
772.59	1527.78
772.77	1495.02
772.94	1554.41
773.12	1533.93
773.30	1501.16
773.47	1533.93
773.65	1443.82
773.83	1550.31
774.01	1492.97
774.18	1431.53
774.36	1546.22
774.54	1521.64
774.71	1535.98
774.89	1472.49
775.07	1497.07
775.24	1517.54
775.42	1511.40
775.60	1615.85
775.78	1482.73
775.95	1519.59
776.13	1525.74
776.31	1460.20
776.48	1591.27
776.66	1619.94
776.84	1566.70
777.01	1550.31
777.19	1548.26
777.37	1527.78
777.54	1574.89
777.72	1665.00
777.90	1529.83
778.07	1525.74
778.25	1703.91
778.43	1529.83
778.60	1517.54
778.78	1529.83
778.96	1576.94
779.13	1542.12
779.31	1601.51
779.49	1472.49
779.66	1488.87
779.84	1486.83
780.01	1544.17
780.19	1449.96
780.37	1542.12
780.54	1535.98
780.72	1505.26
780.90	1607.66
781.07	1488.87
781.25	1566.70
781.43	1605.61
781.60	1495.02
781.78	1632.23
781.95	1564.65
782.13	1535.98
782.31	1517.54
782.48	1409.00
782.66	1540.07
782.83	1699.81
783.01	1542.12
783.19	1523.69
783.36	1505.26
783.54	1535.98
783.72	1632.23
783.89	1533.93
784.07	1542.12
784.24	1585.13
784.42	1648.61
784.60	1517.54
784.77	1517.54
784.95	1423.34
785.12	1558.50
785.30	1550.31
785.47	1505.26
785.65	1544.17
785.83	1552.36
786.00	1421.29
786.18	1497.07
786.35	1476.59
786.53	1464.30
786.71	1609.70
786.88	1554.41
787.06	1556.46
787.23	1507.30
787.41	1415.15
787.58	1593.32
787.76	1548.26
787.94	1564.65
788.11	1513.45
788.29	1474.54
788.46	1482.73
788.64	1556.46
788.81	1529.83
788.99	1454.06
789.16	1468.39
789.34	1513.45
789.52	1456.11
789.69	1533.93
789.87	1458.15
790.04	1497.07
790.22	1570.79
790.39	1597.42
790.57	1488.87
790.74	1497.07
790.92	1560.55
791.09	1437.67
791.27	1472.49
791.44	1626.09
791.62	1540.07
791.79	1507.30
791.97	1519.59
792.15	1665.00
792.32	1603.56
792.50	1544.17
792.67	1656.81
792.85	1617.90
793.02	1581.03
793.20	1513.45
793.37	1445.87
793.55	1462.25
793.72	1492.97
793.90	1529.83
794.07	1443.82
794.25	1460.20
794.42	1484.78
794.60	1460.20
794.77	1472.49
794.95	1554.41
795.12	1495.02
795.30	1525.74
795.47	1505.26
795.65	1621.99
795.82	1595.37
796.00	1521.64
796.17	1511.40
796.34	1601.51
796.52	1503.21
796.69	1501.16
796.87	1597.42
797.04	1570.79
797.22	1511.40
797.39	1572.84
797.57	1535.98
797.74	1562.60
797.92	1554.41
798.09	1538.02
798.27	1533.93
798.44	1525.74
798.62	1497.07
798.79	1599.46
798.96	1523.69
799.14	1544.17
799.31	1564.65
799.49	1511.40
799.66	1456.11
799.84	1562.60
800.01	1429.48
800.19	1548.26
800.36	1421.29
800.53	1535.98
800.71	1507.30
800.88	1601.51
801.06	1495.02
801.23	1513.45
801.41	1581.03
801.58	1564.65
801.75	1517.54
801.93	1525.74
802.10	1503.21
802.28	1480.68
802.45	1435.63
802.63	1615.85
802.80	1621.99
802.97	1564.65
803.15	1552.36
803.32	1495.02
803.50	1544.17
803.67	1449.96
803.84	1535.98
804.02	1570.79
804.19	1499.11
804.37	1503.21
804.54	1435.63
804.71	1540.07
804.89	1497.07
805.06	1447.91
805.24	1570.79
805.41	1515.50
805.58	1462.25
805.76	1636.33
805.93	1499.11
806.10	1562.60
806.28	1611.75
806.45	1560.55
806.63	1495.02
806.80	1531.88
806.97	1603.56
807.15	1538.02
807.32	1490.92
807.49	1572.84
807.67	1495.02
807.84	1621.99
808.01	1445.87
808.19	1712.10
808.36	1617.90
808.54	1513.45
808.71	1456.11
808.88	1468.39
809.06	1560.55
809.23	1607.66
809.40	1507.30
809.58	1572.84
809.75	1492.97
809.92	1462.25
810.10	1646.57
810.27	1558.50
810.44	1480.68
810.62	1558.50
810.79	1492.97
810.96	1497.07
811.14	1470.44
811.31	1507.30
811.48	1548.26
811.66	1556.46
811.83	1548.26
812.00	1558.50
812.18	1542.12
812.35	1642.47
812.52	1527.78
812.69	1482.73
812.87	1538.02
813.04	1464.30
813.21	1488.87
813.39	1538.02
813.56	1521.64
813.73	1658.85
813.91	1513.45
814.08	1560.55
814.25	1572.84
814.42	1402.86
814.60	1525.74
814.77	1462.25
814.94	1542.12
815.12	1495.02
815.29	1572.84
815.46	1443.82
815.63	1538.02
815.81	1546.22
815.98	1570.79
816.15	1540.07
816.33	1533.93
816.50	1544.17
816.67	1523.69
816.84	1515.50
817.02	1533.93
817.19	1441.77
817.36	1558.50
817.53	1517.54
817.71	1533.93
817.88	1527.78
818.05	1468.39
818.22	1443.82
818.40	1615.85
818.57	1499.11
818.74	1578.98
818.91	1509.35
819.09	1595.37
819.26	1589.22
819.43	1492.97
819.60	1558.50
819.78	1578.98
819.95	1603.56
820.12	1515.50
820.29	1538.02
820.47	1558.50
820.64	1419.24
820.81	1587.18
820.98	1466.35
821.15	1499.11
821.33	1538.02
821.50	1462.25
821.67	1589.22
821.84	1449.96
822.02	1566.70
822.19	1660.90
822.36	1501.16
822.53	1456.11
822.70	1482.73
822.88	1542.12
823.05	1583.08
823.22	1484.78
823.39	1568.74
823.56	1554.41
823.74	1613.80
823.91	1548.26
824.08	1464.30
824.25	1515.50
824.42	1570.79
824.60	1445.87
824.77	1511.40
824.94	1409.00
825.11	1523.69
825.28	1472.49
825.45	1527.78
825.63	1599.46
825.80	1482.73
825.97	1527.78
826.14	1533.93
826.31	1464.30
826.48	1492.97
826.66	1454.06
826.83	1546.22
827.00	1507.30
827.17	1556.46
827.34	1535.98
827.51	1587.18
827.69	1480.68
827.86	1409.00
828.03	1566.70
828.20	1564.65
828.37	1462.25
828.54	1619.94
828.71	1460.20
828.89	1583.08
829.06	1617.90
829.23	1595.37
829.40	1505.26
829.57	1474.54
829.74	1562.60
829.91	1443.82
830.09	1509.35
830.26	1578.98
830.43	1593.32
830.60	1531.88
830.77	1578.98
830.94	1542.12
831.11	1636.33
831.28	1525.74
831.46	1538.02
831.63	1464.30
831.80	1568.74
831.97	1546.22
832.14	1554.41
832.31	1550.31
832.48	1566.70
832.65	1560.55
832.82	1636.33
832.99	1593.32
833.17	1464.30
833.34	1581.03
833.51	1570.79
833.68	1439.72
833.85	1556.46
834.02	1472.49
834.19	1574.89
834.36	1484.78
834.53	1544.17
834.70	1558.50
834.87	1540.07
835.04	1550.31
835.22	1515.50
835.39	1476.59
835.56	1505.26
835.73	1497.07
835.90	1517.54
836.07	1538.02
836.24	1554.41
836.41	1484.78
836.58	1484.78
836.75	1609.70
836.92	1593.32
837.09	1562.60
837.26	1611.75
837.43	1513.45
837.60	1548.26
837.77	1515.50
837.94	1601.51
838.12	1624.04
838.29	1535.98
838.46	1462.25
838.63	1531.88
838.80	1626.09
838.97	1640.42
839.14	1511.40
839.31	1488.87
839.48	1558.50
839.65	1439.72
839.82	1544.17
839.99	1542.12
840.16	1533.93
840.33	1486.83
840.50	1568.74
840.67	1454.06
840.84	1380.33
841.01	1595.37
841.18	1482.73
841.35	1560.55
841.52	1566.70
841.69	1591.27
841.86	1511.40
842.03	1554.41
842.20	1560.55
842.37	1492.97
842.54	1523.69
842.71	1576.94
842.88	1447.91
843.05	1542.12
843.22	1533.93
843.39	1525.74
843.56	1542.12
843.73	1480.68
843.90	1583.08
844.07	1560.55
844.24	1552.36
844.41	1615.85
844.58	1615.85
844.75	1497.07
844.92	1595.37
845.09	1521.64
845.26	1484.78
845.43	1585.13
845.60	1497.07
845.77	1554.41
845.94	1605.61
846.10	1662.95
846.27	1452.01
846.44	1507.30
846.61	1472.49
846.78	1564.65
846.95	1597.42
847.12	1511.40
847.29	1507.30
847.46	1533.93
847.63	1527.78
847.80	1554.41
847.97	1505.26
848.14	1617.90
848.31	1542.12
848.48	1542.12
848.65	1529.83
848.82	1474.54
848.98	1626.09
849.15	1552.36
849.32	1525.74
849.49	1527.78
849.66	1550.31
849.83	1601.51
850.00	1566.70
850.17	1570.79
850.34	1484.78
850.51	1470.44
850.68	1535.98
850.85	1615.85
851.01	1490.92
851.18	1521.64
851.35	1538.02
851.52	1581.03
851.69	1576.94
851.86	1490.92
852.03	1552.36
852.20	1546.22
852.37	1495.02
852.53	1501.16
852.70	1535.98
852.87	1507.30
853.04	1554.41
853.21	1550.31
853.38	1591.27
853.55	1587.18
853.72	1621.99
853.89	1503.21
854.05	1492.97
854.22	1533.93
854.39	1484.78
854.56	1556.46
854.73	1583.08
854.90	1492.97
855.07	1527.78
855.23	1529.83
855.40	1560.55
855.57	1552.36
855.74	1517.54
855.91	1665.00
856.08	1468.39
856.25	1474.54
856.41	1550.31
856.58	1476.59
856.75	1581.03
856.92	1501.16
857.09	1607.66
857.26	1468.39
857.42	1527.78
857.59	1562.60
857.76	1552.36
857.93	1531.88
858.10	1548.26
858.27	1533.93
858.43	1568.74
858.60	1488.87
858.77	1400.81
858.94	1570.79
859.11	1546.22
859.27	1581.03
859.44	1515.50
859.61	1578.98
859.78	1587.18
859.95	1560.55
860.12	1574.89
860.28	1521.64
860.45	1673.19
860.62	1525.74
860.79	1544.17
860.95	1544.17
861.12	1458.15
861.29	1527.78
861.46	1464.30
861.63	1462.25
861.79	1621.99
861.96	1531.88
862.13	1546.22
862.30	1621.99
862.47	1480.68
862.63	1564.65
862.80	1576.94
862.97	1609.70
863.14	1497.07
863.30	1525.74
863.47	1529.83
863.64	1521.64
863.81	1603.56
863.97	1562.60
864.14	1523.69
864.31	1462.25
864.48	1558.50
864.65	1554.41
864.81	1538.02
864.98	1583.08
865.15	1507.30
865.32	1533.93
865.48	1595.37
865.65	1548.26
865.82	1531.88
865.98	1576.94
866.15	1648.61
866.32	1566.70
866.49	1511.40
866.65	1576.94
866.82	1505.26
866.99	1452.01
867.16	1492.97
867.32	1546.22
867.49	1503.21
867.66	1501.16
867.83	1519.59
867.99	1535.98
868.16	1468.39
868.33	1476.59
868.49	1452.01
868.66	1492.97
868.83	1591.27
868.99	1566.70
869.16	1609.70
869.33	1552.36
869.50	1599.46
869.66	1525.74
869.83	1460.20
870.00	1538.02
870.16	1495.02
870.33	1468.39
870.50	1558.50
870.66	1599.46
870.83	1576.94
871.00	1568.74
871.17	1599.46
871.33	1552.36
871.50	1544.17
871.67	1556.46
871.83	1445.87
872.00	1591.27
872.17	1544.17
872.33	1599.46
872.50	1624.04
872.67	1472.49
872.83	1587.18
873.00	1552.36
873.17	1538.02
873.33	1521.64
873.50	1554.41
873.67	1458.15
873.83	1480.68
874.00	1458.15
874.16	1654.76
874.33	1593.32
874.50	1478.63
874.66	1476.59
874.83	1492.97
875.00	1542.12
875.16	1568.74
875.33	1626.09
875.50	1439.72
875.66	1470.44
875.83	1525.74
875.99	1538.02
876.16	1587.18
876.33	1480.68
876.49	1583.08
876.66	1593.32
876.83	1511.40
876.99	1476.59
877.16	1511.40
877.32	1503.21
877.49	1560.55
877.66	1525.74
877.82	1615.85
877.99	1574.89
878.15	1542.12
878.32	1495.02
878.49	1462.25
878.65	1468.39
878.82	1683.43
878.98	1480.68
879.15	1613.80
879.32	1576.94
879.48	1540.07
879.65	1486.83
879.81	1505.26
879.98	1550.31
880.15	1515.50
880.31	1529.83
880.48	1535.98
880.64	1548.26
880.81	1591.27
880.97	1550.31
881.14	1550.31
881.31	1482.73
881.47	1624.04
881.64	1572.84
881.80	1452.01
881.97	1550.31
882.13	1611.75
882.30	1550.31
882.47	1521.64
882.63	1511.40
882.80	1480.68
882.96	1476.59
883.13	1632.23
883.29	1529.83
883.46	1513.45
883.62	1632.23
883.79	1505.26
883.95	1533.93
884.12	1509.35
884.29	1535.98
884.45	1519.59
884.62	1574.89
884.78	1527.78
884.95	1556.46
885.11	1449.96
885.28	1583.08
885.44	1556.46
885.61	1558.50
885.77	1599.46
885.94	1574.89
886.10	1527.78
886.27	1503.21
886.43	1638.38
886.60	1615.85
886.76	1523.69
886.93	1439.72
887.09	1535.98
887.26	1542.12
887.42	1548.26
887.59	1599.46
887.75	1554.41
887.92	1542.12
888.08	1558.50
888.25	1597.42
888.41	1615.85
888.58	1560.55
888.74	1470.44
888.91	1492.97
>>>>>End Processed Spectral Data<<<<<
