SpectraSuite Data File
++++++++++++++++++++++++++++++++++++
Date: Tue May 03 12:55:22 CEST 2016
User: root
Dark Spectrum Present: No
Reference Spectrum Present: No
Number of Sampled Component Spectra: 1
Spectrometers: USB4C02835
Integration Time (usec): 100000 (USB4C02835)
Spectra Averaged: 1 (USB4C02835)
Boxcar Smoothing: 0 (USB4C02835)
Correct for Electrical Dark: No (USB4C02835)
Strobe/Lamp Enabled: No (USB4C02835)
Correct for Detector Non-linearity: No (USB4C02835)
Correct for Stray Light: No (USB4C02835)
Number of Pixels in Processed Spectrum: 3648
>>>>>Begin Processed Spectral Data<<<<<
177.47	1361.90
177.69	1361.90
177.91	1361.90
178.13	1374.19
178.36	1335.28
178.58	1439.72
178.80	1523.69
179.02	1495.02
179.24	1488.87
179.46	1564.65
179.68	1531.88
179.90	1480.68
180.13	1517.54
180.35	1474.54
180.57	1507.30
180.79	1617.90
181.01	1511.40
181.23	1511.40
181.45	1591.27
181.67	1560.55
181.90	1495.02
182.12	1515.50
182.34	1476.59
182.56	1480.68
182.78	1501.16
183.00	1595.37
183.22	1593.32
183.44	1480.68
183.66	1679.33
183.89	1601.51
184.11	1550.31
184.33	1562.60
184.55	1591.27
184.77	1601.51
184.99	1597.42
185.21	1472.49
185.43	1708.01
185.65	1495.02
185.87	1492.97
186.10	1652.71
186.32	1699.81
186.54	1519.59
186.76	1546.22
186.98	1646.57
187.20	1488.87
187.42	1542.12
187.64	1499.11
187.86	1550.31
188.08	1560.55
188.30	1542.12
188.52	1558.50
188.75	1546.22
188.97	1607.66
189.19	1497.07
189.41	1576.94
189.63	1572.84
189.85	1546.22
190.07	1452.01
190.29	1466.35
190.51	1587.18
190.73	1499.11
190.95	1517.54
191.17	1548.26
191.39	1501.16
191.61	1484.78
191.84	1509.35
192.06	1572.84
192.28	1447.91
192.50	1665.00
192.72	1581.03
192.94	1527.78
193.16	1570.79
193.38	1511.40
193.60	1480.68
193.82	1544.17
194.04	1525.74
194.26	1564.65
194.48	1560.55
194.70	1542.12
194.92	1505.26
195.14	1644.52
195.36	1544.17
195.58	1544.17
195.80	1488.87
196.02	1495.02
196.24	1566.70
196.46	1554.41
196.69	1519.59
196.91	1660.90
197.13	1449.96
197.35	1546.22
197.57	1495.02
197.79	1578.98
198.01	1576.94
198.23	1548.26
198.45	1509.35
198.67	1464.30
198.89	1538.02
199.11	1591.27
199.33	1540.07
199.55	1388.52
199.77	1523.69
199.99	1595.37
200.21	1484.78
200.43	1480.68
200.65	1505.26
200.87	1406.95
201.09	1570.79
201.31	1535.98
201.53	1540.07
201.75	1509.35
201.97	1566.70
202.19	1568.74
202.41	1574.89
202.63	1578.98
202.85	1515.50
203.07	1591.27
203.29	1445.87
203.51	1525.74
203.73	1476.59
203.95	1705.96
204.17	1497.07
204.39	1581.03
204.61	1593.32
204.83	1515.50
205.05	1595.37
205.27	1560.55
205.49	1587.18
205.71	1583.08
205.93	1468.39
206.15	1517.54
206.37	1546.22
206.59	1501.16
206.81	1460.20
207.03	1495.02
207.25	1574.89
207.47	1509.35
207.69	1544.17
207.91	1583.08
208.13	1617.90
208.34	1497.07
208.56	1468.39
208.78	1601.51
209.00	1529.83
209.22	1568.74
209.44	1509.35
209.66	1511.40
209.88	1611.75
210.10	1509.35
210.32	1460.20
210.54	1617.90
210.76	1511.40
210.98	1581.03
211.20	1458.15
211.42	1576.94
211.64	1548.26
211.86	1601.51
212.08	1566.70
212.30	1546.22
212.52	1490.92
212.74	1527.78
212.96	1503.21
213.17	1597.42
213.39	1562.60
213.61	1611.75
213.83	1593.32
214.05	1558.50
214.27	1540.07
214.49	1507.30
214.71	1480.68
214.93	1542.12
215.15	1492.97
215.37	1503.21
215.59	1447.91
215.81	1535.98
216.03	1566.70
216.24	1556.46
216.46	1523.69
216.68	1550.31
216.90	1542.12
217.12	1589.22
217.34	1562.60
217.56	1507.30
217.78	1578.98
218.00	1546.22
218.22	1540.07
218.44	1583.08
218.66	1478.63
218.87	1611.75
219.09	1550.31
219.31	1562.60
219.53	1595.37
219.75	1578.98
219.97	1589.22
220.19	1558.50
220.41	1507.30
220.63	1652.71
220.85	1511.40
221.06	1562.60
221.28	1619.94
221.50	1550.31
221.72	1546.22
221.94	1607.66
222.16	1495.02
222.38	1599.46
222.60	1558.50
222.82	1443.82
223.03	1583.08
223.25	1474.54
223.47	1521.64
223.69	1583.08
223.91	1572.84
224.13	1517.54
224.35	1527.78
224.57	1560.55
224.78	1609.70
225.00	1527.78
225.22	1570.79
225.44	1535.98
225.66	1552.36
225.88	1535.98
226.10	1621.99
226.32	1492.97
226.53	1593.32
226.75	1497.07
226.97	1570.79
227.19	1544.17
227.41	1501.16
227.63	1517.54
227.85	1499.11
228.06	1482.73
228.28	1535.98
228.50	1501.16
228.72	1523.69
228.94	1501.16
229.16	1462.25
229.37	1513.45
229.59	1472.49
229.81	1675.24
230.03	1517.54
230.25	1449.96
230.47	1478.63
230.69	1456.11
230.90	1544.17
231.12	1521.64
231.34	1576.94
231.56	1615.85
231.78	1591.27
232.00	1542.12
232.21	1558.50
232.43	1560.55
232.65	1431.53
232.87	1566.70
233.09	1503.21
233.30	1558.50
233.52	1611.75
233.74	1544.17
233.96	1560.55
234.18	1525.74
234.40	1523.69
234.61	1662.95
234.83	1497.07
235.05	1462.25
235.27	1658.85
235.49	1578.98
235.70	1601.51
235.92	1626.09
236.14	1533.93
236.36	1751.01
236.58	1458.15
236.79	1589.22
237.01	1484.78
237.23	1488.87
237.45	1591.27
237.67	1533.93
237.88	1546.22
238.10	1658.85
238.32	1476.59
238.54	1476.59
238.76	1538.02
238.97	1511.40
239.19	1544.17
239.41	1550.31
239.63	1648.61
239.85	1492.97
240.06	1615.85
240.28	1497.07
240.50	1538.02
240.72	1538.02
240.93	1538.02
241.15	1589.22
241.37	1558.50
241.59	1591.27
241.81	1505.26
242.02	1492.97
242.24	1558.50
242.46	1609.70
242.68	1488.87
242.89	1544.17
243.11	1624.04
243.33	1486.83
243.55	1546.22
243.76	1484.78
243.98	1560.55
244.20	1544.17
244.42	1576.94
244.64	1607.66
244.85	1382.38
245.07	1544.17
245.29	1527.78
245.51	1531.88
245.72	1505.26
245.94	1587.18
246.16	1517.54
246.38	1601.51
246.59	1462.25
246.81	1480.68
247.03	1499.11
247.24	1404.91
247.46	1470.44
247.68	1548.26
247.90	1517.54
248.11	1552.36
248.33	1544.17
248.55	1490.92
248.77	1517.54
248.98	1603.56
249.20	1562.60
249.42	1578.98
249.64	1574.89
249.85	1488.87
250.07	1454.06
250.29	1585.13
250.50	1509.35
250.72	1513.45
250.94	1497.07
251.16	1576.94
251.37	1636.33
251.59	1550.31
251.81	1572.84
252.02	1570.79
252.24	1460.20
252.46	1587.18
252.68	1513.45
252.89	1529.83
253.11	1472.49
253.33	1603.56
253.54	1632.23
253.76	1435.63
253.98	1574.89
254.20	1513.45
254.41	1511.40
254.63	1445.87
254.85	1525.74
255.06	1538.02
255.28	1527.78
255.50	1583.08
255.71	1548.26
255.93	1478.63
256.15	1550.31
256.36	1544.17
256.58	1566.70
256.80	1599.46
257.02	1476.59
257.23	1435.63
257.45	1544.17
257.67	1648.61
257.88	1552.36
258.10	1529.83
258.32	1570.79
258.53	1538.02
258.75	1564.65
258.97	1517.54
259.18	1527.78
259.40	1566.70
259.62	1589.22
259.83	1609.70
260.05	1548.26
260.27	1763.30
260.48	1564.65
260.70	1548.26
260.92	1574.89
261.13	1603.56
261.35	1509.35
261.57	1544.17
261.78	1462.25
262.00	1488.87
262.22	1566.70
262.43	1449.96
262.65	1470.44
262.86	1495.02
263.08	1578.98
263.30	1574.89
263.51	1443.82
263.73	1583.08
263.95	1550.31
264.16	1443.82
264.38	1486.83
264.60	1585.13
264.81	1540.07
265.03	1597.42
265.25	1554.41
265.46	1521.64
265.68	1685.48
265.89	1603.56
266.11	1484.78
266.33	1566.70
266.54	1615.85
266.76	1490.92
266.98	1576.94
267.19	1568.74
267.41	1533.93
267.62	1515.50
267.84	1552.36
268.06	1554.41
268.27	1552.36
268.49	1570.79
268.70	1589.22
268.92	1490.92
269.14	1482.73
269.35	1556.46
269.57	1460.20
269.79	1527.78
270.00	1587.18
270.22	1595.37
270.43	1480.68
270.65	1449.96
270.87	1517.54
271.08	1601.51
271.30	1589.22
271.51	1533.93
271.73	1527.78
271.95	1601.51
272.16	1560.55
272.38	1542.12
272.59	1560.55
272.81	1476.59
273.02	1587.18
273.24	1538.02
273.46	1593.32
273.67	1533.93
273.89	1486.83
274.10	1488.87
274.32	1550.31
274.54	1568.74
274.75	1548.26
274.97	1501.16
275.18	1585.13
275.40	1535.98
275.61	1507.30
275.83	1546.22
276.05	1515.50
276.26	1525.74
276.48	1499.11
276.69	1533.93
276.91	1564.65
277.12	1603.56
277.34	1605.61
277.55	1568.74
277.77	1509.35
277.99	1550.31
278.20	1390.57
278.42	1476.59
278.63	1495.02
278.85	1492.97
279.06	1454.06
279.28	1576.94
279.49	1570.79
279.71	1570.79
279.93	1513.45
280.14	1495.02
280.36	1509.35
280.57	1562.60
280.79	1568.74
281.00	1527.78
281.22	1632.23
281.43	1605.61
281.65	1507.30
281.86	1449.96
282.08	1548.26
282.29	1599.46
282.51	1509.35
282.73	1556.46
282.94	1476.59
283.16	1599.46
283.37	1568.74
283.59	1456.11
283.80	1542.12
284.02	1542.12
284.23	1544.17
284.45	1495.02
284.66	1456.11
284.88	1542.12
285.09	1550.31
285.31	1640.42
285.52	1574.89
285.74	1468.39
285.95	1611.75
286.17	1558.50
286.38	1578.98
286.60	1415.15
286.81	1462.25
287.03	1523.69
287.24	1525.74
287.46	1593.32
287.67	1495.02
287.89	1738.73
288.10	1509.35
288.32	1587.18
288.53	1578.98
288.75	1521.64
288.96	1564.65
289.18	1527.78
289.39	1535.98
289.61	1499.11
289.82	1558.50
290.04	1613.80
290.25	1486.83
290.47	1466.35
290.68	1523.69
290.90	1570.79
291.11	1392.62
291.33	1581.03
291.54	1415.15
291.76	1509.35
291.97	1556.46
292.18	1566.70
292.40	1499.11
292.61	1550.31
292.83	1621.99
293.04	1542.12
293.26	1544.17
293.47	1546.22
293.69	1445.87
293.90	1531.88
294.12	1533.93
294.33	1540.07
294.55	1525.74
294.76	1566.70
294.97	1525.74
295.19	1642.47
295.40	1488.87
295.62	1554.41
295.83	1560.55
296.05	1501.16
296.26	1535.98
296.48	1513.45
296.69	1568.74
296.90	1478.63
297.12	1552.36
297.33	1581.03
297.55	1548.26
297.76	1599.46
297.98	1554.41
298.19	1521.64
298.41	1427.43
298.62	1443.82
298.83	1587.18
299.05	1513.45
299.26	1511.40
299.48	1476.59
299.69	1578.98
299.90	1624.04
300.12	1484.78
300.33	1540.07
300.55	1492.97
300.76	1544.17
300.98	1476.59
301.19	1527.78
301.40	1568.74
301.62	1499.11
301.83	1519.59
302.05	1525.74
302.26	1480.68
302.47	1581.03
302.69	1484.78
302.90	1558.50
303.12	1492.97
303.33	1587.18
303.54	1597.42
303.76	1468.39
303.97	1552.36
304.19	1613.80
304.40	1505.26
304.61	1511.40
304.83	1632.23
305.04	1578.98
305.26	1542.12
305.47	1554.41
305.68	1562.60
305.90	1482.73
306.11	1615.85
306.33	1593.32
306.54	1566.70
306.75	1517.54
306.97	1484.78
307.18	1515.50
307.39	1492.97
307.61	1525.74
307.82	1585.13
308.04	1574.89
308.25	1538.02
308.46	1546.22
308.68	1550.31
308.89	1542.12
309.10	1585.13
309.32	1626.09
309.53	1505.26
309.74	1554.41
309.96	1568.74
310.17	1517.54
310.39	1501.16
310.60	1550.31
310.81	1617.90
311.03	1425.39
311.24	1523.69
311.45	1478.63
311.67	1572.84
311.88	1595.37
312.09	1517.54
312.31	1544.17
312.52	1517.54
312.73	1472.49
312.95	1411.05
313.16	1499.11
313.37	1691.62
313.59	1626.09
313.80	1611.75
314.01	1638.38
314.23	1472.49
314.44	1542.12
314.65	1456.11
314.87	1574.89
315.08	1574.89
315.29	1570.79
315.51	1486.83
315.72	1509.35
315.93	1652.71
316.15	1566.70
316.36	1513.45
316.57	1505.26
316.79	1558.50
317.00	1470.44
317.21	1542.12
317.43	1552.36
317.64	1499.11
317.85	1556.46
318.07	1619.94
318.28	1697.77
318.49	1650.66
318.70	1730.53
318.92	1808.36
319.13	1701.86
319.34	1734.63
319.56	1601.51
319.77	1632.23
319.98	1581.03
320.20	1583.08
320.41	1601.51
320.62	1617.90
320.83	1511.40
321.05	1638.38
321.26	1581.03
321.47	1566.70
321.69	1533.93
321.90	1492.97
322.11	1550.31
322.32	1533.93
322.54	1665.00
322.75	1482.73
322.96	1646.57
323.18	1445.87
323.39	1488.87
323.60	1480.68
323.81	1542.12
324.03	1505.26
324.24	1492.97
324.45	1535.98
324.66	1511.40
324.88	1603.56
325.09	1554.41
325.30	1519.59
325.52	1595.37
325.73	1517.54
325.94	1478.63
326.15	1454.06
326.37	1574.89
326.58	1550.31
326.79	1609.70
327.00	1495.02
327.22	1552.36
327.43	1486.83
327.64	1482.73
327.85	1570.79
328.07	1527.78
328.28	1636.33
328.49	1533.93
328.70	1511.40
328.92	1546.22
329.13	1484.78
329.34	1574.89
329.55	1644.52
329.76	1628.14
329.98	1505.26
330.19	1585.13
330.40	1546.22
330.61	1615.85
330.83	1521.64
331.04	1546.22
331.25	1533.93
331.46	1572.84
331.68	1515.50
331.89	1607.66
332.10	1552.36
332.31	1531.88
332.52	1513.45
332.74	1654.76
332.95	1419.24
333.16	1517.54
333.37	1603.56
333.58	1540.07
333.80	1556.46
334.01	1460.20
334.22	1497.07
334.43	1538.02
334.64	1460.20
334.86	1503.21
335.07	1527.78
335.28	1566.70
335.49	1423.34
335.70	1585.13
335.92	1564.65
336.13	1632.23
336.34	1572.84
336.55	1509.35
336.76	1585.13
336.98	1435.63
337.19	1523.69
337.40	1564.65
337.61	1605.61
337.82	1574.89
338.04	1624.04
338.25	1439.72
338.46	1548.26
338.67	1497.07
338.88	1492.97
339.09	1523.69
339.31	1546.22
339.52	1546.22
339.73	1476.59
339.94	1568.74
340.15	1556.46
340.36	1548.26
340.58	1529.83
340.79	1505.26
341.00	1544.17
341.21	1474.54
341.42	1658.85
341.63	1509.35
341.85	1544.17
342.06	1501.16
342.27	1486.83
342.48	1566.70
342.69	1480.68
342.90	1525.74
343.12	1529.83
343.33	1484.78
343.54	1591.27
343.75	1578.98
343.96	1452.01
344.17	1517.54
344.38	1472.49
344.60	1499.11
344.81	1513.45
345.02	1566.70
345.23	1603.56
345.44	1617.90
345.65	1546.22
345.86	1495.02
346.07	1535.98
346.29	1540.07
346.50	1468.39
346.71	1519.59
346.92	1615.85
347.13	1656.81
347.34	1468.39
347.55	1488.87
347.76	1574.89
347.98	1484.78
348.19	1570.79
348.40	1617.90
348.61	1480.68
348.82	1605.61
349.03	1572.84
349.24	1464.30
349.45	1632.23
349.66	1507.30
349.88	1521.64
350.09	1468.39
350.30	1593.32
350.51	1621.99
350.72	1566.70
350.93	1599.46
351.14	1454.06
351.35	1546.22
351.56	1533.93
351.77	1554.41
351.99	1513.45
352.20	1570.79
352.41	1585.13
352.62	1468.39
352.83	1495.02
353.04	1542.12
353.25	1447.91
353.46	1607.66
353.67	1638.38
353.88	1443.82
354.09	1546.22
354.30	1544.17
354.52	1576.94
354.73	1562.60
354.94	1556.46
355.15	1501.16
355.36	1576.94
355.57	1509.35
355.78	1583.08
355.99	1478.63
356.20	1578.98
356.41	1599.46
356.62	1566.70
356.83	1517.54
357.04	1621.99
357.25	1423.34
357.46	1501.16
357.68	1433.58
357.89	1544.17
358.10	1497.07
358.31	1574.89
358.52	1585.13
358.73	1486.83
358.94	1449.96
359.15	1564.65
359.36	1501.16
359.57	1507.30
359.78	1437.67
359.99	1552.36
360.20	1468.39
360.41	1466.35
360.62	1546.22
360.83	1570.79
361.04	1540.07
361.25	1564.65
361.46	1705.96
361.67	1507.30
361.88	1542.12
362.09	1605.61
362.30	1587.18
362.51	1531.88
362.72	1556.46
362.93	1558.50
363.14	1648.61
363.35	1503.21
363.56	1544.17
363.78	1538.02
363.99	1640.42
364.20	1570.79
364.41	1566.70
364.62	1566.70
364.83	1648.61
365.04	1535.98
365.25	1503.21
365.46	1665.00
365.67	1490.92
365.88	1478.63
366.09	1576.94
366.30	1517.54
366.51	1458.15
366.72	1492.97
366.93	1501.16
367.14	1529.83
367.35	1570.79
367.56	1503.21
367.77	1603.56
367.98	1552.36
368.18	1503.21
368.39	1597.42
368.60	1507.30
368.81	1679.33
369.02	1574.89
369.23	1484.78
369.44	1441.77
369.65	1501.16
369.86	1564.65
370.07	1542.12
370.28	1499.11
370.49	1611.75
370.70	1599.46
370.91	1454.06
371.12	1456.11
371.33	1513.45
371.54	1521.64
371.75	1568.74
371.96	1452.01
372.17	1538.02
372.38	1548.26
372.59	1542.12
372.80	1480.68
373.01	1529.83
373.22	1507.30
373.43	1544.17
373.64	1476.59
373.85	1583.08
374.06	1607.66
374.26	1519.59
374.47	1632.23
374.68	1564.65
374.89	1556.46
375.10	1535.98
375.31	1632.23
375.52	1472.49
375.73	1556.46
375.94	1484.78
376.15	1589.22
376.36	1523.69
376.57	1542.12
376.78	1468.39
376.99	1546.22
377.20	1605.61
377.40	1609.70
377.61	1632.23
377.82	1546.22
378.03	1595.37
378.24	1554.41
378.45	1617.90
378.66	1564.65
378.87	1482.73
379.08	1542.12
379.29	1476.59
379.50	1587.18
379.71	1572.84
379.91	1589.22
380.12	1503.21
380.33	1585.13
380.54	1468.39
380.75	1511.40
380.96	1611.75
381.17	1484.78
381.38	1603.56
381.59	1593.32
381.80	1531.88
382.00	1613.80
382.21	1607.66
382.42	1685.48
382.63	1693.67
382.84	1601.51
383.05	1568.74
383.26	1658.85
383.47	1621.99
383.68	1601.51
383.88	1505.26
384.09	1533.93
384.30	1660.90
384.51	1595.37
384.72	1589.22
384.93	1488.87
385.14	1566.70
385.35	1632.23
385.55	1445.87
385.76	1595.37
385.97	1560.55
386.18	1501.16
386.39	1529.83
386.60	1540.07
386.81	1482.73
387.02	1519.59
387.22	1550.31
387.43	1671.14
387.64	1650.66
387.85	1898.47
388.06	3094.48
388.27	7122.84
388.48	10708.83
388.68	12461.89
388.89	13713.20
389.10	12846.91
389.31	10252.13
389.52	8841.08
389.73	7825.29
389.93	7210.90
390.14	6799.26
390.35	6076.32
390.56	5490.60
390.77	4704.18
390.98	3588.04
391.18	2772.95
391.39	2197.47
391.60	1726.44
391.81	1691.62
392.02	1538.02
392.23	1695.72
392.43	1574.89
392.64	1601.51
392.85	1542.12
393.06	1648.61
393.27	1484.78
393.47	1480.68
393.68	1595.37
393.89	1554.41
394.10	1624.04
394.31	1546.22
394.52	1519.59
394.72	1511.40
394.93	1495.02
395.14	1560.55
395.35	1533.93
395.56	1507.30
395.76	1609.70
395.97	1689.57
396.18	1804.26
396.39	1716.20
396.60	1857.51
396.80	1753.06
397.01	1683.43
397.22	1708.01
397.43	1669.09
397.64	1593.32
397.84	1624.04
398.05	1658.85
398.26	1599.46
398.47	1732.58
398.67	1660.90
398.88	1570.79
399.09	1599.46
399.30	1535.98
399.51	1558.50
399.71	1519.59
399.92	1593.32
400.13	1572.84
400.34	1521.64
400.54	1474.54
400.75	1525.74
400.96	1583.08
401.17	1603.56
401.37	1554.41
401.58	1521.64
401.79	1597.42
402.00	1771.49
402.21	1877.99
402.41	1890.28
402.62	1951.71
402.83	1966.05
403.04	1908.71
403.24	1892.32
403.45	1673.19
403.66	1826.79
403.87	1677.29
404.07	1748.97
404.28	1753.06
404.49	1708.01
404.70	1628.14
404.90	1523.69
405.11	1675.24
405.32	1591.27
405.52	1542.12
405.73	1548.26
405.94	1476.59
406.15	1476.59
406.35	1556.46
406.56	1544.17
406.77	1578.98
406.98	1630.18
407.18	1505.26
407.39	1615.85
407.60	1482.73
407.80	1511.40
408.01	1509.35
408.22	1597.42
408.43	1439.72
408.63	1517.54
408.84	1607.66
409.05	1542.12
409.25	1591.27
409.46	1495.02
409.67	1474.54
409.88	1525.74
410.08	1560.55
410.29	1429.48
410.50	1556.46
410.70	1595.37
410.91	1505.26
411.12	1576.94
411.32	1527.78
411.53	1632.23
411.74	1632.23
411.95	1667.05
412.15	1609.70
412.36	1652.71
412.57	1521.64
412.77	1636.33
412.98	1583.08
413.19	1484.78
413.39	1675.24
413.60	1578.98
413.81	1605.61
414.01	1488.87
414.22	1603.56
414.43	1624.04
414.63	1583.08
414.84	1605.61
415.05	1591.27
415.25	1474.54
415.46	1531.88
415.67	1566.70
415.87	1570.79
416.08	1583.08
416.29	1458.15
416.49	1587.18
416.70	1515.50
416.91	1529.83
417.11	1578.98
417.32	1568.74
417.53	1599.46
417.73	1511.40
417.94	1497.07
418.15	1550.31
418.35	1568.74
418.56	1517.54
418.77	1685.48
418.97	1499.11
419.18	1533.93
419.38	1447.91
419.59	1474.54
419.80	1566.70
420.00	1517.54
420.21	1535.98
420.42	1665.00
420.62	1566.70
420.83	1488.87
421.04	1435.63
421.24	1523.69
421.45	1503.21
421.65	1626.09
421.86	1519.59
422.07	1533.93
422.27	1574.89
422.48	1538.02
422.69	1535.98
422.89	1546.22
423.10	1552.36
423.30	1501.16
423.51	1544.17
423.72	1513.45
423.92	1560.55
424.13	1476.59
424.33	1529.83
424.54	1566.70
424.75	1570.79
424.95	1607.66
425.16	1587.18
425.36	1525.74
425.57	1546.22
425.78	1464.30
425.98	1585.13
426.19	1585.13
426.39	1427.43
426.60	1558.50
426.81	1626.09
427.01	1535.98
427.22	1478.63
427.42	1490.92
427.63	1525.74
427.83	1556.46
428.04	1628.14
428.25	1542.12
428.45	1609.70
428.66	1613.80
428.86	1581.03
429.07	1595.37
429.28	1452.01
429.48	1552.36
429.69	1554.41
429.89	1566.70
430.10	1474.54
430.30	1671.14
430.51	1564.65
430.71	1505.26
430.92	1505.26
431.13	1517.54
431.33	1531.88
431.54	1589.22
431.74	1660.90
431.95	1681.38
432.15	1476.59
432.36	1478.63
432.56	1628.14
432.77	1581.03
432.98	1566.70
433.18	1523.69
433.39	1558.50
433.59	1486.83
433.80	1624.04
434.00	1673.19
434.21	1482.73
434.41	1454.06
434.62	1619.94
434.82	1521.64
435.03	1505.26
435.23	1552.36
435.44	1503.21
435.64	1519.59
435.85	1523.69
436.06	1515.50
436.26	1544.17
436.47	1564.65
436.67	1478.63
436.88	1492.97
437.08	1595.37
437.29	1572.84
437.49	1621.99
437.70	1662.95
437.90	1527.78
438.11	1722.34
438.31	1710.05
438.52	1673.19
438.72	1738.73
438.93	1710.05
439.13	1656.81
439.34	1603.56
439.54	1535.98
439.75	1583.08
439.95	1574.89
440.16	1515.50
440.36	1587.18
440.57	1599.46
440.77	1669.09
440.98	1511.40
441.18	1624.04
441.39	1542.12
441.59	1513.45
441.80	1632.23
442.00	1566.70
442.21	1540.07
442.41	1544.17
442.62	1550.31
442.82	1540.07
443.02	1626.09
443.23	1566.70
443.43	1527.78
443.64	1574.89
443.84	1521.64
444.05	1654.76
444.25	1578.98
444.46	1474.54
444.66	1499.11
444.87	1632.23
445.07	1490.92
445.28	1503.21
445.48	1615.85
445.69	1574.89
445.89	1681.38
446.09	1591.27
446.30	2068.45
446.50	3033.04
446.71	4442.04
446.91	5181.36
447.12	5627.82
447.32	5488.56
447.53	4595.64
447.73	3993.54
447.93	3672.01
448.14	3315.66
448.34	3237.84
448.55	2893.78
448.75	2895.83
448.96	2762.71
449.16	2500.57
449.36	2269.15
449.57	1964.00
449.77	1732.58
449.98	1675.24
450.18	1687.53
450.39	1681.38
450.59	1603.56
450.79	1574.89
451.00	1503.21
451.20	1447.91
451.41	1562.60
451.61	1628.14
451.81	1501.16
452.02	1525.74
452.22	1531.88
452.43	1458.15
452.63	1495.02
452.84	1593.32
453.04	1560.55
453.24	1558.50
453.45	1495.02
453.65	1562.60
453.86	1581.03
454.06	1552.36
454.26	1540.07
454.47	1474.54
454.67	1658.85
454.87	1511.40
455.08	1546.22
455.28	1621.99
455.49	1550.31
455.69	1488.87
455.89	1597.42
456.10	1607.66
456.30	1568.74
456.51	1585.13
456.71	1531.88
456.91	1587.18
457.12	1533.93
457.32	1562.60
457.52	1544.17
457.73	1501.16
457.93	1544.17
458.14	1470.44
458.34	1581.03
458.54	1568.74
458.75	1470.44
458.95	1634.28
459.15	1554.41
459.36	1542.12
459.56	1574.89
459.76	1615.85
459.97	1525.74
460.17	1578.98
460.37	1499.11
460.58	1568.74
460.78	1509.35
460.99	1576.94
461.19	1607.66
461.39	1540.07
461.60	1478.63
461.80	1597.42
462.00	1544.17
462.21	1560.55
462.41	1527.78
462.61	1464.30
462.82	1554.41
463.02	1515.50
463.22	1542.12
463.43	1574.89
463.63	1599.46
463.83	1593.32
464.04	1609.70
464.24	1525.74
464.44	1581.03
464.64	1531.88
464.85	1621.99
465.05	1568.74
465.25	1556.46
465.46	1527.78
465.66	1544.17
465.86	1523.69
466.07	1495.02
466.27	1525.74
466.47	1517.54
466.68	1511.40
466.88	1624.04
467.08	1591.27
467.29	1650.66
467.49	1511.40
467.69	1544.17
467.89	1544.17
468.10	1525.74
468.30	1540.07
468.50	1617.90
468.71	1484.78
468.91	1492.97
469.11	1613.80
469.31	1630.18
469.52	1456.11
469.72	1533.93
469.92	1714.15
470.13	1468.39
470.33	1597.42
470.53	1695.72
470.73	2127.84
470.94	2328.54
471.14	2484.19
471.34	2648.02
471.54	2551.77
471.75	2133.98
471.95	2068.45
472.15	1869.80
472.36	1994.72
472.56	1949.67
472.76	1949.67
472.96	1920.99
473.17	1820.64
473.37	1781.73
473.57	1687.53
473.77	1605.61
473.98	1593.32
474.18	1574.89
474.38	1712.10
474.58	1566.70
474.79	1513.45
474.99	1558.50
475.19	1607.66
475.39	1507.30
475.60	1519.59
475.80	1550.31
476.00	1601.51
476.20	1531.88
476.41	1597.42
476.61	1591.27
476.81	1570.79
477.01	1568.74
477.21	1624.04
477.42	1601.51
477.62	1509.35
477.82	1632.23
478.02	1456.11
478.23	1568.74
478.43	1445.87
478.63	1490.92
478.83	1595.37
479.03	1484.78
479.24	1550.31
479.44	1615.85
479.64	1513.45
479.84	1431.53
480.04	1517.54
480.25	1558.50
480.45	1515.50
480.65	1503.21
480.85	1589.22
481.06	1488.87
481.26	1570.79
481.46	1538.02
481.66	1597.42
481.86	1503.21
482.06	1587.18
482.27	1556.46
482.47	1507.30
482.67	1576.94
482.87	1544.17
483.07	1599.46
483.28	1488.87
483.48	1505.26
483.68	1558.50
483.88	1521.64
484.08	1380.33
484.29	1525.74
484.49	1503.21
484.69	1421.29
484.89	1589.22
485.09	1603.56
485.29	1605.61
485.50	1558.50
485.70	1484.78
485.90	1556.46
486.10	1554.41
486.30	1517.54
486.50	1521.64
486.71	1505.26
486.91	1535.98
487.11	1607.66
487.31	1484.78
487.51	1609.70
487.71	1595.37
487.91	1474.54
488.12	1552.36
488.32	1452.01
488.52	1570.79
488.72	1439.72
488.92	1554.41
489.12	1578.98
489.32	1566.70
489.53	1546.22
489.73	1468.39
489.93	1599.46
490.13	1478.63
490.33	1509.35
490.53	1523.69
490.73	1562.60
490.94	1490.92
491.14	1535.98
491.34	1677.29
491.54	2158.56
491.74	2727.89
491.94	3139.54
492.14	3375.05
492.34	3258.32
492.54	2813.91
492.75	2469.85
492.95	2394.08
493.15	2199.52
493.35	2224.09
493.55	2127.84
493.75	2082.78
493.95	1990.63
494.15	1966.05
494.35	1853.41
494.56	1699.81
494.76	1695.72
494.96	1640.42
495.16	1566.70
495.36	1538.02
495.56	1521.64
495.76	1505.26
495.96	1517.54
496.16	1578.98
496.36	1689.57
496.56	1484.78
496.77	1581.03
496.97	1574.89
497.17	1589.22
497.37	1509.35
497.57	1650.66
497.77	1554.41
497.97	1503.21
498.17	1576.94
498.37	1495.02
498.57	1562.60
498.77	1558.50
498.97	1603.56
499.17	1615.85
499.38	1513.45
499.58	1581.03
499.78	1560.55
499.98	1568.74
500.18	1566.70
500.38	1564.65
500.58	1759.21
500.78	2590.68
500.98	5015.48
501.18	6721.43
501.38	8073.09
501.58	8779.64
501.78	7845.77
501.98	5986.21
502.18	5478.32
502.38	4761.53
502.58	4360.13
502.78	3946.44
502.98	3655.62
503.18	3704.78
503.38	3366.86
503.59	3014.61
503.79	2836.44
503.99	2535.39
504.19	2318.30
504.39	2060.26
504.59	2043.87
504.79	2076.64
504.99	1984.48
505.19	1728.49
505.39	1726.44
505.59	1818.60
505.79	1681.38
505.99	1763.30
506.19	1642.47
506.39	1720.29
506.59	1560.55
506.79	1523.69
506.99	1703.91
507.19	1593.32
507.39	1597.42
507.59	1497.07
507.79	1533.93
507.99	1488.87
508.19	1554.41
508.39	1552.36
508.59	1558.50
508.79	1660.90
508.99	1615.85
509.19	1415.15
509.39	1552.36
509.59	1476.59
509.79	1488.87
509.99	1572.84
510.19	1544.17
510.39	1570.79
510.59	1546.22
510.79	1488.87
510.99	1529.83
511.19	1601.51
511.39	1548.26
511.59	1619.94
511.79	1558.50
511.99	1550.31
512.19	1626.09
512.38	1597.42
512.58	1525.74
512.78	1548.26
512.98	1599.46
513.18	1599.46
513.38	1468.39
513.58	1578.98
513.78	1527.78
513.98	1558.50
514.18	1472.49
514.38	1435.63
514.58	1566.70
514.78	1538.02
514.98	1517.54
515.18	1544.17
515.38	1472.49
515.58	1603.56
515.78	1519.59
515.98	1613.80
516.18	1566.70
516.38	1634.28
516.57	1472.49
516.77	1544.17
516.97	1550.31
517.17	1554.41
517.37	1419.24
517.57	1607.66
517.77	1505.26
517.97	1513.45
518.17	1611.75
518.37	1540.07
518.57	1501.16
518.77	1488.87
518.97	1597.42
519.16	1554.41
519.36	1607.66
519.56	1517.54
519.76	1525.74
519.96	1535.98
520.16	1523.69
520.36	1548.26
520.56	1583.08
520.76	1460.20
520.96	1484.78
521.16	1591.27
521.35	1669.09
521.55	1626.09
521.75	1558.50
521.95	1550.31
522.15	1527.78
522.35	1437.67
522.55	1578.98
522.75	1527.78
522.95	1576.94
523.14	1525.74
523.34	1519.59
523.54	1525.74
523.74	1566.70
523.94	1517.54
524.14	1411.05
524.34	1544.17
524.54	1591.27
524.73	1538.02
524.93	1572.84
525.13	1609.70
525.33	1521.64
525.53	1669.09
525.73	1546.22
525.93	1525.74
526.13	1509.35
526.32	1525.74
526.52	1576.94
526.72	1621.99
526.92	1538.02
527.12	1495.02
527.32	1529.83
527.52	1525.74
527.71	1576.94
527.91	1472.49
528.11	1558.50
528.31	1556.46
528.51	1562.60
528.71	1568.74
528.90	1609.70
529.10	1591.27
529.30	1607.66
529.50	1499.11
529.70	1505.26
529.90	1505.26
530.09	1476.59
530.29	1503.21
530.49	1509.35
530.69	1708.01
530.89	1540.07
531.09	1576.94
531.28	1576.94
531.48	1611.75
531.68	1519.59
531.88	1578.98
532.08	1652.71
532.28	1531.88
532.47	1507.30
532.67	1595.37
532.87	1611.75
533.07	1564.65
533.27	1652.71
533.46	1542.12
533.66	1595.37
533.86	1560.55
534.06	1581.03
534.26	1538.02
534.45	1511.40
534.65	1652.71
534.85	1546.22
535.05	1562.60
535.25	1587.18
535.44	1529.83
535.64	1550.31
535.84	1572.84
536.04	1523.69
536.24	1591.27
536.43	1486.83
536.63	1550.31
536.83	1576.94
537.03	1550.31
537.22	1462.25
537.42	1421.29
537.62	1521.64
537.82	1529.83
538.02	1538.02
538.21	1607.66
538.41	1658.85
538.61	1583.08
538.81	1574.89
539.00	1605.61
539.20	1511.40
539.40	1517.54
539.60	1574.89
539.79	1634.28
539.99	1497.07
540.19	1480.68
540.39	1509.35
540.58	1517.54
540.78	1585.13
540.98	1484.78
541.18	1560.55
541.37	1619.94
541.57	1515.50
541.77	1542.12
541.97	1490.92
542.16	1474.54
542.36	1486.83
542.56	1642.47
542.76	1595.37
542.95	1624.04
543.15	1572.84
543.35	1519.59
543.54	1472.49
543.74	1472.49
543.94	1640.42
544.14	1439.72
544.33	1581.03
544.53	1546.22
544.73	1617.90
544.93	1550.31
545.12	1554.41
545.32	1527.78
545.52	1495.02
545.71	1519.59
545.91	1492.97
546.11	1533.93
546.30	1456.11
546.50	1560.55
546.70	1572.84
546.90	1509.35
547.09	1429.48
547.29	1527.78
547.49	1585.13
547.68	1538.02
547.88	1529.83
548.08	1542.12
548.27	1902.56
548.47	1501.16
548.67	1538.02
548.87	1546.22
549.06	1454.06
549.26	1570.79
549.46	1566.70
549.65	1478.63
549.85	1538.02
550.05	1550.31
550.24	1527.78
550.44	1540.07
550.64	1566.70
550.83	1540.07
551.03	1560.55
551.23	1615.85
551.42	1564.65
551.62	1492.97
551.82	1593.32
552.01	1462.25
552.21	1585.13
552.41	1527.78
552.60	1562.60
552.80	1509.35
553.00	1544.17
553.19	1466.35
553.39	1617.90
553.59	1511.40
553.78	1570.79
553.98	1583.08
554.17	1456.11
554.37	1542.12
554.57	1646.57
554.76	1497.07
554.96	1572.84
555.16	1513.45
555.35	1540.07
555.55	1527.78
555.75	1597.42
555.94	1634.28
556.14	1449.96
556.33	1570.79
556.53	1542.12
556.73	1464.30
556.92	1619.94
557.12	1607.66
557.32	1634.28
557.51	1585.13
557.71	1583.08
557.90	1632.23
558.10	1630.18
558.30	1572.84
558.49	1589.22
558.69	1509.35
558.88	1566.70
559.08	1513.45
559.28	1581.03
559.47	1517.54
559.67	1603.56
559.86	1617.90
560.06	1525.74
560.26	1546.22
560.45	1564.65
560.65	1515.50
560.84	1617.90
561.04	1466.35
561.24	1509.35
561.43	1597.42
561.63	1630.18
561.82	1468.39
562.02	1556.46
562.22	1480.68
562.41	1495.02
562.61	1509.35
562.80	1509.35
563.00	1667.05
563.19	1556.46
563.39	1560.55
563.59	1621.99
563.78	1476.59
563.98	1488.87
564.17	1515.50
564.37	1439.72
564.56	1552.36
564.76	1542.12
564.96	1564.65
565.15	1568.74
565.35	1665.00
565.54	1492.97
565.74	1572.84
565.93	1587.18
566.13	1578.98
566.32	1529.83
566.52	1533.93
566.71	1550.31
566.91	1560.55
567.11	1591.27
567.30	1519.59
567.50	1544.17
567.69	1527.78
567.89	1568.74
568.08	1509.35
568.28	1558.50
568.47	1497.07
568.67	1574.89
568.86	1525.74
569.06	1638.38
569.25	1548.26
569.45	1621.99
569.64	1566.70
569.84	1495.02
570.04	1517.54
570.23	1443.82
570.43	1558.50
570.62	1509.35
570.82	1611.75
571.01	1478.63
571.21	1458.15
571.40	1492.97
571.60	1675.24
571.79	1599.46
571.99	1509.35
572.18	1517.54
572.38	1619.94
572.57	1611.75
572.77	1574.89
572.96	1642.47
573.16	1552.36
573.35	1521.64
573.55	1626.09
573.74	1550.31
573.94	1544.17
574.13	1525.74
574.33	1642.47
574.52	1675.24
574.71	1533.93
574.91	1583.08
575.10	1523.69
575.30	1566.70
575.49	1511.40
575.69	1540.07
575.88	1591.27
576.08	1607.66
576.27	1572.84
576.47	1599.46
576.66	1712.10
576.86	1587.18
577.05	1585.13
577.25	1640.42
577.44	1716.20
577.64	1472.49
577.83	1605.61
578.02	1564.65
578.22	1527.78
578.41	1642.47
578.61	1513.45
578.80	1478.63
579.00	1523.69
579.19	1593.32
579.39	1490.92
579.58	1595.37
579.77	1566.70
579.97	1667.05
580.16	1634.28
580.36	1599.46
580.55	1644.52
580.75	1572.84
580.94	1611.75
581.13	1695.72
581.33	1646.57
581.52	1619.94
581.72	1722.34
581.91	1621.99
582.11	1595.37
582.30	1615.85
582.49	1685.48
582.69	1667.05
582.88	1624.04
583.08	1558.50
583.27	1591.27
583.47	1597.42
583.66	1533.93
583.85	1611.75
584.05	1548.26
584.24	1648.61
584.44	1648.61
584.63	1746.92
584.82	1656.81
585.02	1736.68
585.21	1771.49
585.41	1699.81
585.60	1685.48
585.79	1777.64
585.99	1806.31
586.18	1845.22
586.37	2035.68
586.57	3121.10
586.76	9467.76
586.96	27250.27
587.15	43117.93
587.34	53712.08
587.54	61164.63
587.73	59288.70
587.93	43345.26
588.12	32042.52
588.31	25761.40
588.51	21937.84
588.70	19662.55
588.89	18204.39
589.09	16881.41
589.28	15318.81
589.47	13295.41
589.67	11140.95
589.86	8998.77
590.06	6641.56
590.25	5050.29
590.44	3864.52
590.64	3069.91
590.83	2361.31
591.02	2088.93
591.22	1904.61
591.41	1742.82
591.60	1652.71
591.80	1808.36
591.99	1603.56
592.18	1562.60
592.38	1634.28
592.57	1568.74
592.76	1566.70
592.96	1601.51
593.15	1562.60
593.34	1677.29
593.54	1603.56
593.73	1646.57
593.92	1630.18
594.12	1662.95
594.31	1669.09
594.50	1656.81
594.70	1681.38
594.89	1708.01
595.08	1554.41
595.28	1640.42
595.47	1720.29
595.66	1599.46
595.86	1474.54
596.05	1556.46
596.24	1636.33
596.43	1687.53
596.63	1695.72
596.82	1619.94
597.01	1572.84
597.21	1634.28
597.40	1615.85
597.59	1566.70
597.79	1566.70
597.98	1583.08
598.17	1617.90
598.36	1570.79
598.56	1583.08
598.75	1531.88
598.94	1548.26
599.14	1564.65
599.33	1505.26
599.52	1601.51
599.71	1601.51
599.91	1597.42
600.10	1589.22
600.29	1517.54
600.48	1531.88
600.68	1595.37
600.87	1531.88
601.06	1511.40
601.26	1523.69
601.45	1599.46
601.64	1574.89
601.83	1542.12
602.03	1546.22
602.22	1521.64
602.41	1576.94
602.60	1687.53
602.80	1611.75
602.99	1574.89
603.18	1515.50
603.37	1589.22
603.57	1613.80
603.76	1595.37
603.95	1585.13
604.14	1552.36
604.34	1478.63
604.53	1525.74
604.72	1587.18
604.91	1593.32
605.10	1568.74
605.30	1488.87
605.49	1589.22
605.68	1599.46
605.87	1667.05
606.07	1527.78
606.26	1562.60
606.45	1634.28
606.64	1574.89
606.84	1558.50
607.03	1609.70
607.22	1656.81
607.41	1572.84
607.60	1554.41
607.80	1660.90
607.99	1556.46
608.18	1492.97
608.37	1525.74
608.56	1531.88
608.76	1595.37
608.95	1619.94
609.14	1619.94
609.33	1611.75
609.52	1697.77
609.72	1617.90
609.91	1597.42
610.10	1654.76
610.29	1650.66
610.48	1613.80
610.68	1527.78
610.87	1515.50
611.06	1589.22
611.25	1564.65
611.44	1601.51
611.63	1535.98
611.83	1660.90
612.02	1486.83
612.21	1626.09
612.40	1505.26
612.59	1478.63
612.79	1540.07
612.98	1552.36
613.17	1695.72
613.36	1542.12
613.55	1665.00
613.74	1687.53
613.93	1665.00
614.13	1710.05
614.32	1800.16
614.51	1718.25
614.70	1638.38
614.89	1665.00
615.08	1581.03
615.28	1830.88
615.47	1544.17
615.66	1626.09
615.85	1636.33
616.04	1679.33
616.23	1603.56
616.42	1605.61
616.62	1587.18
616.81	1642.47
617.00	1535.98
617.19	1595.37
617.38	1548.26
617.57	1626.09
617.76	1556.46
617.95	1599.46
618.15	1607.66
618.34	1652.71
618.53	1581.03
618.72	1613.80
618.91	1591.27
619.10	1613.80
619.29	1509.35
619.48	1521.64
619.68	1560.55
619.87	1542.12
620.06	1484.78
620.25	1568.74
620.44	1570.79
620.63	1540.07
620.82	1527.78
621.01	1533.93
621.20	1517.54
621.39	1576.94
621.59	1556.46
621.78	1624.04
621.97	1613.80
622.16	1562.60
622.35	1447.91
622.54	1681.38
622.73	1599.46
622.92	1480.68
623.11	1509.35
623.30	1525.74
623.49	1617.90
623.68	1521.64
623.88	1599.46
624.07	1572.84
624.26	1445.87
624.45	1486.83
624.64	1488.87
624.83	1611.75
625.02	1527.78
625.21	1546.22
625.40	1552.36
625.59	1583.08
625.78	1574.89
625.97	1568.74
626.16	1583.08
626.35	1626.09
626.54	1603.56
626.74	1720.29
626.93	1654.76
627.12	1554.41
627.31	1644.52
627.50	1558.50
627.69	1636.33
627.88	1550.31
628.07	1525.74
628.26	1474.54
628.45	1597.42
628.64	1535.98
628.83	1574.89
629.02	1460.20
629.21	1605.61
629.40	1548.26
629.59	1525.74
629.78	1513.45
629.97	1578.98
630.16	1550.31
630.35	1562.60
630.54	1591.27
630.73	1570.79
630.92	1492.97
631.11	1458.15
631.30	1570.79
631.49	1542.12
631.68	1523.69
631.87	1611.75
632.06	1513.45
632.25	1662.95
632.44	1570.79
632.63	1583.08
632.82	1574.89
633.01	1578.98
633.20	1630.18
633.39	1638.38
633.58	1648.61
633.77	1587.18
633.96	1591.27
634.15	1617.90
634.34	1570.79
634.53	1542.12
634.72	1505.26
634.91	1509.35
635.10	1525.74
635.29	1552.36
635.48	1556.46
635.67	1521.64
635.86	1484.78
636.05	1650.66
636.24	1486.83
636.43	1521.64
636.62	1615.85
636.81	1478.63
637.00	1544.17
637.19	1507.30
637.38	1533.93
637.57	1542.12
637.76	1529.83
637.95	1642.47
638.14	1621.99
638.33	1611.75
638.52	1591.27
638.71	1587.18
638.89	1583.08
639.08	1644.52
639.27	1591.27
639.46	1710.05
639.65	1994.72
639.84	2072.54
640.03	2207.71
640.22	2152.42
640.41	2273.25
640.60	1927.14
640.79	1796.07
640.98	1675.24
641.17	1751.01
641.36	1787.88
641.55	1658.85
641.74	1673.19
641.92	1675.24
642.11	1634.28
642.30	1652.71
642.49	1638.38
642.68	1591.27
642.87	1578.98
643.06	1597.42
643.25	1554.41
643.44	1576.94
643.63	1558.50
643.82	1628.14
644.00	1499.11
644.19	1531.88
644.38	1601.51
644.57	1556.46
644.76	1519.59
644.95	1601.51
645.14	1574.89
645.33	1556.46
645.52	1568.74
645.71	1527.78
645.89	1480.68
646.08	1632.23
646.27	1570.79
646.46	1581.03
646.65	1503.21
646.84	1519.59
647.03	1538.02
647.22	1601.51
647.40	1603.56
647.59	1566.70
647.78	1435.63
647.97	1513.45
648.16	1570.79
648.35	1581.03
648.54	1562.60
648.73	1566.70
648.91	1546.22
649.10	1542.12
649.29	1599.46
649.48	1601.51
649.67	1593.32
649.86	1544.17
650.05	1636.33
650.23	1646.57
650.42	1673.19
650.61	1714.15
650.80	1683.43
650.99	1708.01
651.18	1669.09
651.36	1587.18
651.55	1521.64
651.74	1685.48
651.93	1533.93
652.12	1593.32
652.31	1509.35
652.49	1568.74
652.68	1554.41
652.87	1587.18
653.06	1665.00
653.25	1681.38
653.44	1540.07
653.62	1669.09
653.81	1581.03
654.00	1523.69
654.19	1589.22
654.38	1636.33
654.56	1595.37
654.75	1560.55
654.94	1640.42
655.13	1531.88
655.32	1585.13
655.51	1521.64
655.69	1525.74
655.88	1550.31
656.07	1470.44
656.26	1632.23
656.45	1503.21
656.63	1570.79
656.82	1591.27
657.01	1658.85
657.20	1556.46
657.38	1593.32
657.57	1517.54
657.76	1521.64
657.95	1511.40
658.14	1509.35
658.32	1492.97
658.51	1558.50
658.70	1609.70
658.89	1507.30
659.08	1562.60
659.26	1603.56
659.45	1535.98
659.64	1589.22
659.83	1511.40
660.01	1744.87
660.20	1589.22
660.39	1609.70
660.58	1544.17
660.76	1648.61
660.95	1529.83
661.14	1628.14
661.33	1454.06
661.51	1632.23
661.70	1523.69
661.89	1499.11
662.08	1525.74
662.26	1531.88
662.45	1480.68
662.64	1660.90
662.83	1603.56
663.01	1507.30
663.20	1556.46
663.39	1595.37
663.58	1464.30
663.76	1558.50
663.95	1546.22
664.14	1566.70
664.32	1556.46
664.51	1488.87
664.70	1503.21
664.89	1495.02
665.07	1523.69
665.26	1617.90
665.45	1576.94
665.64	1558.50
665.82	1488.87
666.01	1548.26
666.20	1581.03
666.38	1564.65
666.57	1626.09
666.76	1830.88
666.95	2924.50
667.13	7548.81
667.32	15570.71
667.51	19766.99
667.69	23533.21
667.88	25263.74
668.07	22277.80
668.25	15613.71
668.44	12490.56
668.63	9926.50
668.81	8595.32
669.00	7739.27
669.19	7108.50
669.38	6428.57
669.56	5713.83
669.75	4777.91
669.94	4251.58
670.12	3379.15
670.31	2721.75
670.50	2441.18
670.68	2152.42
670.87	1904.61
671.06	1746.92
671.24	1757.16
671.43	1681.38
671.62	1683.43
671.80	1597.42
671.99	1675.24
672.18	1595.37
672.36	1566.70
672.55	1562.60
672.74	1554.41
672.92	1613.80
673.11	1640.42
673.29	1480.68
673.48	1597.42
673.67	1585.13
673.85	1609.70
674.04	1533.93
674.23	1587.18
674.41	1660.90
674.60	1529.83
674.79	1472.49
674.97	1495.02
675.16	1511.40
675.34	1548.26
675.53	1476.59
675.72	1517.54
675.90	1619.94
676.09	1562.60
676.28	1583.08
676.46	1484.78
676.65	1554.41
676.83	1554.41
677.02	1574.89
677.21	1552.36
677.39	1656.81
677.58	1462.25
677.77	1558.50
677.95	1554.41
678.14	1607.66
678.32	1482.73
678.51	1509.35
678.70	1638.38
678.88	1527.78
679.07	1611.75
679.25	1507.30
679.44	1519.59
679.63	1468.39
679.81	1593.32
680.00	1595.37
680.18	1576.94
680.37	1609.70
680.55	1558.50
680.74	1552.36
680.93	1529.83
681.11	1578.98
681.30	1550.31
681.48	1554.41
681.67	1511.40
681.85	1482.73
682.04	1533.93
682.23	1521.64
682.41	1535.98
682.60	1583.08
682.78	1550.31
682.97	1511.40
683.15	1552.36
683.34	1578.98
683.53	1624.04
683.71	1419.24
683.90	1605.61
684.08	1621.99
684.27	1603.56
684.45	1560.55
684.64	1681.38
684.82	1572.84
685.01	1556.46
685.19	1476.59
685.38	1656.81
685.57	1472.49
685.75	1525.74
685.94	1501.16
686.12	1425.39
686.31	1533.93
686.49	1607.66
686.68	1406.95
686.86	1558.50
687.05	1480.68
687.23	1619.94
687.42	1556.46
687.60	1527.78
687.79	1613.80
687.97	1538.02
688.16	1490.92
688.34	1550.31
688.53	1431.53
688.71	1576.94
688.90	1509.35
689.08	1468.39
689.27	1452.01
689.45	1576.94
689.64	1595.37
689.82	1544.17
690.01	1572.84
690.19	1595.37
690.38	1499.11
690.56	1613.80
690.75	1497.07
690.93	1511.40
691.12	1544.17
691.30	1484.78
691.49	1556.46
691.67	1533.93
691.86	1640.42
692.04	1554.41
692.23	1439.72
692.41	1583.08
692.60	1671.14
692.78	1632.23
692.97	1626.09
693.15	1628.14
693.34	1767.40
693.52	1591.27
693.71	1562.60
693.89	1535.98
694.08	1540.07
694.26	1619.94
694.44	1572.84
694.63	1615.85
694.81	1484.78
695.00	1535.98
695.18	1619.94
695.37	1601.51
695.55	1552.36
695.74	1542.12
695.92	1480.68
696.10	1613.80
696.29	1490.92
696.47	1460.20
696.66	1521.64
696.84	1509.35
697.03	1511.40
697.21	1624.04
697.40	1986.53
697.58	1593.32
697.76	1470.44
697.95	1497.07
698.13	1460.20
698.32	1570.79
698.50	1501.16
698.68	1511.40
698.87	1476.59
699.05	1566.70
699.24	1544.17
699.42	1482.73
699.61	1527.78
699.79	1589.22
699.97	1521.64
700.16	1548.26
700.34	1548.26
700.53	1560.55
700.71	1603.56
700.89	1619.94
701.08	1529.83
701.26	1535.98
701.45	1837.03
701.63	1495.02
701.81	1560.55
702.00	1503.21
702.18	1519.59
702.37	1517.54
702.55	1552.36
702.73	1730.53
702.92	1650.66
703.10	1748.97
703.28	1820.64
703.47	1767.40
703.65	1757.16
703.84	1681.38
704.02	1570.79
704.20	1693.67
704.39	1581.03
704.57	1560.55
704.75	1695.72
704.94	1671.14
705.12	1619.94
705.30	1601.51
705.49	1810.40
705.67	2787.29
705.86	7374.74
706.04	14360.36
706.22	18495.21
706.41	21391.03
706.59	22591.14
706.77	20592.33
706.96	14851.87
707.14	11431.76
707.32	9656.17
707.51	8531.84
707.69	7505.81
707.87	6801.30
708.06	5867.43
708.24	4718.52
708.42	3688.39
708.61	2865.11
708.79	2324.44
708.97	1966.05
709.16	1808.36
709.34	1732.58
709.52	1636.33
709.71	1581.03
709.89	1605.61
710.07	1513.45
710.26	1595.37
710.44	1488.87
710.62	1654.76
710.80	1538.02
710.99	1599.46
711.17	1566.70
711.35	1552.36
711.54	1542.12
711.72	1585.13
711.90	1523.69
712.09	1564.65
712.27	1464.30
712.45	1628.14
712.63	1554.41
712.82	1509.35
713.00	1501.16
713.18	1626.09
713.37	1548.26
713.55	1554.41
713.73	1550.31
713.91	1570.79
714.10	1517.54
714.28	1572.84
714.46	1523.69
714.65	1509.35
714.83	1574.89
715.01	1538.02
715.19	1519.59
715.38	1470.44
715.56	1509.35
715.74	1505.26
715.92	1431.53
716.11	1583.08
716.29	1464.30
716.47	1527.78
716.65	1542.12
716.84	1507.30
717.02	1587.18
717.20	1443.82
717.38	1492.97
717.57	1564.65
717.75	1574.89
717.93	1517.54
718.11	1511.40
718.30	1509.35
718.48	1662.95
718.66	1482.73
718.84	1560.55
719.03	1540.07
719.21	1421.29
719.39	1624.04
719.57	1617.90
719.75	1585.13
719.94	1462.25
720.12	1501.16
720.30	1525.74
720.48	1578.98
720.67	1550.31
720.85	1488.87
721.03	1574.89
721.21	1566.70
721.39	1533.93
721.58	1560.55
721.76	1497.07
721.94	1574.89
722.12	1560.55
722.30	1662.95
722.49	1456.11
722.67	1597.42
722.85	1591.27
723.03	1470.44
723.21	1521.64
723.40	1535.98
723.58	1554.41
723.76	1556.46
723.94	1562.60
724.12	1665.00
724.30	1619.94
724.49	1642.47
724.67	1566.70
724.85	1667.05
725.03	1609.70
725.21	1546.22
725.40	1624.04
725.58	1611.75
725.76	1572.84
725.94	1626.09
726.12	1427.43
726.30	1603.56
726.49	1591.27
726.67	1488.87
726.85	1538.02
727.03	1589.22
727.21	1734.63
727.39	2021.35
727.57	3209.17
727.76	4231.10
727.94	4769.72
728.12	4970.42
728.30	4894.65
728.48	4356.03
728.66	3450.83
728.84	3237.84
729.03	2942.93
729.21	2596.82
729.39	2467.80
729.57	1945.57
729.75	1851.36
729.93	1796.07
730.11	1617.90
730.30	1665.00
730.48	1529.83
730.66	1660.90
730.84	1624.04
731.02	1505.26
731.20	1533.93
731.38	1542.12
731.56	1439.72
731.74	1468.39
731.93	1550.31
732.11	1503.21
732.29	1517.54
732.47	1538.02
732.65	1593.32
732.83	1589.22
733.01	1490.92
733.19	1482.73
733.37	1603.56
733.56	1470.44
733.74	1517.54
733.92	1589.22
734.10	1527.78
734.28	1587.18
734.46	1482.73
734.64	1552.36
734.82	1544.17
735.00	1554.41
735.18	1509.35
735.36	1501.16
735.54	1449.96
735.73	1466.35
735.91	1488.87
736.09	1535.98
736.27	1535.98
736.45	1578.98
736.63	1519.59
736.81	1540.07
736.99	1615.85
737.17	1527.78
737.35	1525.74
737.53	1611.75
737.71	1492.97
737.89	1570.79
738.07	1527.78
738.25	1474.54
738.43	1468.39
738.61	1427.43
738.80	1478.63
738.98	1468.39
739.16	1507.30
739.34	1548.26
739.52	1634.28
739.70	1591.27
739.88	1550.31
740.06	1544.17
740.24	1460.20
740.42	1525.74
740.60	1406.95
740.78	1511.40
740.96	1531.88
741.14	1527.78
741.32	1501.16
741.50	1519.59
741.68	1705.96
741.86	1607.66
742.04	1540.07
742.22	1472.49
742.40	1560.55
742.58	1554.41
742.76	1492.97
742.94	1558.50
743.12	1490.92
743.30	1615.85
743.48	1587.18
743.66	1499.11
743.84	1556.46
744.02	1576.94
744.20	1574.89
744.38	1535.98
744.56	1529.83
744.74	1613.80
744.92	1550.31
745.10	1538.02
745.28	1671.14
745.46	1601.51
745.64	1503.21
745.82	1576.94
746.00	1527.78
746.18	1560.55
746.36	1490.92
746.54	1513.45
746.72	1554.41
746.90	1456.11
747.08	1611.75
747.26	1505.26
747.44	1632.23
747.62	1470.44
747.80	1533.93
747.98	1513.45
748.15	1601.51
748.33	1632.23
748.51	1478.63
748.69	1617.90
748.87	1509.35
749.05	1511.40
749.23	1544.17
749.41	1501.16
749.59	1564.65
749.77	1568.74
749.95	1554.41
750.13	1521.64
750.31	1593.32
750.49	1548.26
750.67	1609.70
750.85	1617.90
751.03	1572.84
751.20	1601.51
751.38	1572.84
751.56	1585.13
751.74	1511.40
751.92	1560.55
752.10	1474.54
752.28	1601.51
752.46	1519.59
752.64	1581.03
752.82	1527.78
753.00	1650.66
753.18	1554.41
753.35	1538.02
753.53	1546.22
753.71	1531.88
753.89	1603.56
754.07	1529.83
754.25	1621.99
754.43	1540.07
754.61	1452.01
754.79	1497.07
754.97	1540.07
755.14	1599.46
755.32	1542.12
755.50	1458.15
755.68	1626.09
755.86	1443.82
756.04	1572.84
756.22	1472.49
756.40	1572.84
756.57	1595.37
756.75	1597.42
756.93	1644.52
757.11	1574.89
757.29	1443.82
757.47	1490.92
757.65	1476.59
757.82	1495.02
758.00	1392.62
758.18	1527.78
758.36	1480.68
758.54	1546.22
758.72	1472.49
758.90	1644.52
759.07	1576.94
759.25	1525.74
759.43	1538.02
759.61	1482.73
759.79	1951.71
759.97	1599.46
760.15	1486.83
760.32	1468.39
760.50	1581.03
760.68	1601.51
760.86	1540.07
761.04	1583.08
761.22	1570.79
761.39	1583.08
761.57	1603.56
761.75	1544.17
761.93	1572.84
762.11	1441.77
762.28	1626.09
762.46	1581.03
762.64	1609.70
762.82	1441.77
763.00	1495.02
763.18	1558.50
763.35	1490.92
763.53	1642.47
763.71	1517.54
763.89	1562.60
764.07	1486.83
764.24	1470.44
764.42	1665.00
764.60	1540.07
764.78	1611.75
764.96	1572.84
765.13	1546.22
765.31	1605.61
765.49	1568.74
765.67	1558.50
765.84	1495.02
766.02	1511.40
766.20	1431.53
766.38	1509.35
766.56	1558.50
766.73	1560.55
766.91	1560.55
767.09	1599.46
767.27	1615.85
767.44	1566.70
767.62	1562.60
767.80	1542.12
767.98	1462.25
768.15	1535.98
768.33	1525.74
768.51	1626.09
768.69	1626.09
768.87	1583.08
769.04	1503.21
769.22	1642.47
769.40	1574.89
769.58	1652.71
769.75	1499.11
769.93	1583.08
770.11	1544.17
770.28	1460.20
770.46	1558.50
770.64	1535.98
770.82	1527.78
770.99	1533.93
771.17	1503.21
771.35	1525.74
771.53	1517.54
771.70	1482.73
771.88	1607.66
772.06	1521.64
772.23	1554.41
772.41	1486.83
772.59	1566.70
772.77	1529.83
772.94	1525.74
773.12	1525.74
773.30	1531.88
773.47	1542.12
773.65	1495.02
773.83	1634.28
774.01	1613.80
774.18	1529.83
774.36	1517.54
774.54	1427.43
774.71	1535.98
774.89	1540.07
775.07	1523.69
775.24	1517.54
775.42	1472.49
775.60	1581.03
775.78	1484.78
775.95	1495.02
776.13	1421.29
776.31	1431.53
776.48	1562.60
776.66	1632.23
776.84	1568.74
777.01	1495.02
777.19	1503.21
777.37	1517.54
777.54	1562.60
777.72	1568.74
777.90	1484.78
778.07	1495.02
778.25	1646.57
778.43	1570.79
778.60	1470.44
778.78	1482.73
778.96	1648.61
779.13	1484.78
779.31	1599.46
779.49	1595.37
779.66	1544.17
779.84	1603.56
780.01	1497.07
780.19	1517.54
780.37	1560.55
780.54	1611.75
780.72	1480.68
780.90	1507.30
781.07	1556.46
781.25	1484.78
781.43	1581.03
781.60	1525.74
781.78	1587.18
781.95	1521.64
782.13	1556.46
782.31	1533.93
782.48	1486.83
782.66	1505.26
782.83	1605.61
783.01	1533.93
783.19	1611.75
783.36	1517.54
783.54	1433.58
783.72	1609.70
783.89	1544.17
784.07	1548.26
784.24	1540.07
784.42	1570.79
784.60	1529.83
784.77	1558.50
784.95	1578.98
785.12	1517.54
785.30	1509.35
785.47	1523.69
785.65	1484.78
785.83	1519.59
786.00	1402.86
786.18	1525.74
786.35	1454.06
786.53	1525.74
786.71	1566.70
786.88	1552.36
787.06	1480.68
787.23	1566.70
787.41	1443.82
787.58	1554.41
787.76	1517.54
787.94	1581.03
788.11	1527.78
788.29	1482.73
788.46	1564.65
788.64	1488.87
788.81	1499.11
788.99	1497.07
789.16	1419.24
789.34	1535.98
789.52	1425.39
789.69	1490.92
789.87	1449.96
790.04	1509.35
790.22	1492.97
790.39	1632.23
790.57	1519.59
790.74	1462.25
790.92	1472.49
791.09	1484.78
791.27	1535.98
791.44	1515.50
791.62	1599.46
791.79	1568.74
791.97	1605.61
792.15	1632.23
792.32	1507.30
792.50	1533.93
792.67	1638.38
792.85	1605.61
793.02	1484.78
793.20	1503.21
793.37	1429.48
793.55	1566.70
793.72	1468.39
793.90	1570.79
794.07	1462.25
794.25	1482.73
794.42	1570.79
794.60	1533.93
794.77	1550.31
794.95	1533.93
795.12	1562.60
795.30	1454.06
795.47	1384.43
795.65	1644.52
795.82	1492.97
796.00	1527.78
796.17	1531.88
796.34	1525.74
796.52	1482.73
796.69	1550.31
796.87	1587.18
797.04	1511.40
797.22	1566.70
797.39	1558.50
797.57	1531.88
797.74	1558.50
797.92	1574.89
798.09	1540.07
798.27	1595.37
798.44	1566.70
798.62	1511.40
798.79	1509.35
798.96	1540.07
799.14	1462.25
799.31	1658.85
799.49	1533.93
799.66	1519.59
799.84	1527.78
800.01	1538.02
800.19	1632.23
800.36	1492.97
800.53	1570.79
800.71	1544.17
800.88	1650.66
801.06	1560.55
801.23	1460.20
801.41	1550.31
801.58	1478.63
801.75	1484.78
801.93	1595.37
802.10	1615.85
802.28	1472.49
802.45	1462.25
802.63	1583.08
802.80	1511.40
802.97	1552.36
803.15	1505.26
803.32	1525.74
803.50	1499.11
803.67	1478.63
803.84	1441.77
804.02	1603.56
804.19	1507.30
804.37	1425.39
804.54	1501.16
804.71	1466.35
804.89	1517.54
805.06	1445.87
805.24	1460.20
805.41	1484.78
805.58	1425.39
805.76	1636.33
805.93	1527.78
806.10	1617.90
806.28	1568.74
806.45	1478.63
806.63	1495.02
806.80	1499.11
806.97	1531.88
807.15	1546.22
807.32	1550.31
807.49	1564.65
807.67	1558.50
807.84	1595.37
808.01	1531.88
808.19	1650.66
808.36	1636.33
808.54	1525.74
808.71	1527.78
808.88	1548.26
809.06	1531.88
809.23	1558.50
809.40	1433.58
809.58	1583.08
809.75	1603.56
809.92	1581.03
810.10	1597.42
810.27	1492.97
810.44	1566.70
810.62	1589.22
810.79	1552.36
810.96	1497.07
811.14	1421.29
811.31	1615.85
811.48	1572.84
811.66	1488.87
811.83	1531.88
812.00	1560.55
812.18	1548.26
812.35	1624.04
812.52	1556.46
812.69	1544.17
812.87	1464.30
813.04	1456.11
813.21	1505.26
813.39	1478.63
813.56	1505.26
813.73	1634.28
813.91	1478.63
814.08	1556.46
814.25	1474.54
814.42	1423.34
814.60	1525.74
814.77	1574.89
814.94	1470.44
815.12	1552.36
815.29	1527.78
815.46	1492.97
815.63	1581.03
815.81	1484.78
815.98	1560.55
816.15	1505.26
816.33	1511.40
816.50	1572.84
816.67	1572.84
816.84	1535.98
817.02	1462.25
817.19	1437.67
817.36	1581.03
817.53	1574.89
817.71	1529.83
817.88	1576.94
818.05	1497.07
818.22	1523.69
818.40	1589.22
818.57	1509.35
818.74	1521.64
818.91	1478.63
819.09	1509.35
819.26	1519.59
819.43	1472.49
819.60	1497.07
819.78	1574.89
819.95	1578.98
820.12	1439.72
820.29	1570.79
820.47	1495.02
820.64	1474.54
820.81	1480.68
820.98	1560.55
821.15	1542.12
821.33	1550.31
821.50	1445.87
821.67	1540.07
821.84	1519.59
822.02	1550.31
822.19	1589.22
822.36	1509.35
822.53	1505.26
822.70	1497.07
822.88	1544.17
823.05	1527.78
823.22	1464.30
823.39	1607.66
823.56	1574.89
823.74	1607.66
823.91	1486.83
824.08	1413.10
824.25	1497.07
824.42	1558.50
824.60	1435.63
824.77	1544.17
824.94	1527.78
825.11	1527.78
825.28	1566.70
825.45	1593.32
825.63	1499.11
825.80	1511.40
825.97	1513.45
826.14	1529.83
826.31	1529.83
826.48	1527.78
826.66	1486.83
826.83	1538.02
827.00	1533.93
827.17	1517.54
827.34	1521.64
827.51	1484.78
827.69	1540.07
827.86	1501.16
828.03	1515.50
828.20	1552.36
828.37	1476.59
828.54	1576.94
828.71	1423.34
828.89	1617.90
829.06	1517.54
829.23	1599.46
829.40	1546.22
829.57	1552.36
829.74	1570.79
829.91	1478.63
830.09	1628.14
830.26	1628.14
830.43	1585.13
830.60	1511.40
830.77	1505.26
830.94	1576.94
831.11	1564.65
831.28	1533.93
831.46	1617.90
831.63	1492.97
831.80	1605.61
831.97	1480.68
832.14	1474.54
832.31	1552.36
832.48	1558.50
832.65	1529.83
832.82	1515.50
832.99	1503.21
833.17	1501.16
833.34	1587.18
833.51	1529.83
833.68	1439.72
833.85	1548.26
834.02	1476.59
834.19	1576.94
834.36	1503.21
834.53	1495.02
834.70	1613.80
834.87	1599.46
835.04	1578.98
835.22	1519.59
835.39	1495.02
835.56	1470.44
835.73	1490.92
835.90	1568.74
836.07	1476.59
836.24	1558.50
836.41	1482.73
836.58	1515.50
836.75	1591.27
836.92	1439.72
837.09	1495.02
837.26	1542.12
837.43	1548.26
837.60	1560.55
837.77	1581.03
837.94	1564.65
838.12	1587.18
838.29	1548.26
838.46	1527.78
838.63	1527.78
838.80	1550.31
838.97	1550.31
839.14	1566.70
839.31	1507.30
839.48	1585.13
839.65	1564.65
839.82	1669.09
839.99	1476.59
840.16	1533.93
840.33	1484.78
840.50	1609.70
840.67	1460.20
840.84	1370.09
841.01	1515.50
841.18	1523.69
841.35	1509.35
841.52	1527.78
841.69	1624.04
841.86	1529.83
842.03	1533.93
842.20	1587.18
842.37	1507.30
842.54	1558.50
842.71	1492.97
842.88	1425.39
843.05	1597.42
843.22	1535.98
843.39	1488.87
843.56	1394.67
843.73	1511.40
843.90	1597.42
844.07	1476.59
844.24	1542.12
844.41	1566.70
844.58	1521.64
844.75	1544.17
844.92	1568.74
845.09	1509.35
845.26	1478.63
845.43	1554.41
845.60	1490.92
845.77	1595.37
845.94	1531.88
846.10	1564.65
846.27	1447.91
846.44	1462.25
846.61	1447.91
846.78	1531.88
846.95	1568.74
847.12	1507.30
847.29	1529.83
847.46	1525.74
847.63	1480.68
847.80	1572.84
847.97	1583.08
848.14	1624.04
848.31	1540.07
848.48	1460.20
848.65	1560.55
848.82	1499.11
848.98	1621.99
849.15	1458.15
849.32	1597.42
849.49	1564.65
849.66	1558.50
849.83	1538.02
850.00	1525.74
850.17	1558.50
850.34	1550.31
850.51	1490.92
850.68	1449.96
850.85	1574.89
851.01	1554.41
851.18	1548.26
851.35	1521.64
851.52	1519.59
851.69	1607.66
851.86	1484.78
852.03	1533.93
852.20	1589.22
852.37	1630.18
852.53	1466.35
852.70	1535.98
852.87	1570.79
853.04	1535.98
853.21	1499.11
853.38	1574.89
853.55	1617.90
853.72	1546.22
853.89	1533.93
854.05	1441.77
854.22	1462.25
854.39	1503.21
854.56	1482.73
854.73	1605.61
854.90	1527.78
855.07	1511.40
855.23	1482.73
855.40	1501.16
855.57	1456.11
855.74	1495.02
855.91	1667.05
856.08	1511.40
856.25	1454.06
856.41	1556.46
856.58	1513.45
856.75	1544.17
856.92	1497.07
857.09	1556.46
857.26	1431.53
857.42	1484.78
857.59	1574.89
857.76	1519.59
857.93	1548.26
858.10	1456.11
858.27	1433.58
858.43	1581.03
858.60	1488.87
858.77	1431.53
858.94	1505.26
859.11	1517.54
859.27	1521.64
859.44	1538.02
859.61	1634.28
859.78	1527.78
859.95	1495.02
860.12	1472.49
860.28	1607.66
860.45	1654.76
860.62	1482.73
860.79	1558.50
860.95	1488.87
861.12	1503.21
861.29	1492.97
861.46	1513.45
861.63	1490.92
861.79	1476.59
861.96	1480.68
862.13	1531.88
862.30	1599.46
862.47	1501.16
862.63	1517.54
862.80	1533.93
862.97	1558.50
863.14	1601.51
863.30	1613.80
863.47	1601.51
863.64	1548.26
863.81	1497.07
863.97	1490.92
864.14	1548.26
864.31	1497.07
864.48	1503.21
864.65	1540.07
864.81	1585.13
864.98	1529.83
865.15	1583.08
865.32	1525.74
865.48	1527.78
865.65	1578.98
865.82	1472.49
865.98	1554.41
866.15	1568.74
866.32	1507.30
866.49	1533.93
866.65	1583.08
866.82	1484.78
866.99	1566.70
867.16	1398.76
867.32	1560.55
867.49	1564.65
867.66	1538.02
867.83	1527.78
867.99	1484.78
868.16	1454.06
868.33	1484.78
868.49	1513.45
868.66	1521.64
868.83	1648.61
868.99	1484.78
869.16	1542.12
869.33	1624.04
869.50	1617.90
869.66	1503.21
869.83	1472.49
870.00	1415.15
870.16	1554.41
870.33	1546.22
870.50	1619.94
870.66	1464.30
870.83	1640.42
871.00	1513.45
871.17	1593.32
871.33	1578.98
871.50	1540.07
871.67	1484.78
871.83	1435.63
872.00	1593.32
872.17	1470.44
872.33	1574.89
872.50	1591.27
872.67	1533.93
872.83	1540.07
873.00	1568.74
873.17	1564.65
873.33	1556.46
873.50	1607.66
873.67	1460.20
873.83	1474.54
874.00	1519.59
874.16	1576.94
874.33	1454.06
874.50	1464.30
874.66	1507.30
874.83	1488.87
875.00	1615.85
875.16	1621.99
875.33	1609.70
875.50	1464.30
875.66	1474.54
875.83	1519.59
875.99	1492.97
876.16	1529.83
876.33	1404.91
876.49	1521.64
876.66	1509.35
876.83	1556.46
876.99	1411.05
877.16	1478.63
877.32	1476.59
877.49	1576.94
877.66	1517.54
877.82	1509.35
877.99	1521.64
878.15	1572.84
878.32	1679.33
878.49	1525.74
878.65	1495.02
878.82	1636.33
878.98	1564.65
879.15	1556.46
879.32	1538.02
879.48	1525.74
879.65	1517.54
879.81	1488.87
879.98	1509.35
880.15	1507.30
880.31	1560.55
880.48	1470.44
880.64	1540.07
880.81	1521.64
880.97	1662.95
881.14	1638.38
881.31	1466.35
881.47	1609.70
881.64	1552.36
881.80	1439.72
881.97	1574.89
882.13	1546.22
882.30	1456.11
882.47	1503.21
882.63	1562.60
882.80	1523.69
882.96	1585.13
883.13	1632.23
883.29	1488.87
883.46	1542.12
883.62	1572.84
883.79	1521.64
883.95	1595.37
884.12	1576.94
884.29	1624.04
884.45	1527.78
884.62	1507.30
884.78	1476.59
884.95	1628.14
885.11	1509.35
885.28	1611.75
885.44	1529.83
885.61	1507.30
885.77	1593.32
885.94	1621.99
886.10	1531.88
886.27	1615.85
886.43	1667.05
886.60	1599.46
886.76	1523.69
886.93	1499.11
887.09	1525.74
887.26	1505.26
887.42	1529.83
887.59	1619.94
887.75	1615.85
887.92	1599.46
888.08	1583.08
888.25	1632.23
888.41	1521.64
888.58	1521.64
888.74	1511.40
888.91	1535.98
>>>>>End Processed Spectral Data<<<<<
