SpectraSuite Data File
++++++++++++++++++++++++++++++++++++
Date: Tue May 03 12:55:29 CEST 2016
User: root
Dark Spectrum Present: No
Reference Spectrum Present: No
Number of Sampled Component Spectra: 1
Spectrometers: USB4C02835
Integration Time (usec): 100000 (USB4C02835)
Spectra Averaged: 1 (USB4C02835)
Boxcar Smoothing: 0 (USB4C02835)
Correct for Electrical Dark: No (USB4C02835)
Strobe/Lamp Enabled: No (USB4C02835)
Correct for Detector Non-linearity: No (USB4C02835)
Correct for Stray Light: No (USB4C02835)
Number of Pixels in Processed Spectrum: 3648
>>>>>Begin Processed Spectral Data<<<<<
177.47	1357.80
177.69	1357.80
177.91	1357.80
178.13	1361.90
178.36	1339.37
178.58	1437.67
178.80	1591.27
179.02	1488.87
179.24	1523.69
179.46	1552.36
179.68	1599.46
179.90	1587.18
180.13	1511.40
180.35	1478.63
180.57	1554.41
180.79	1552.36
181.01	1529.83
181.23	1560.55
181.45	1552.36
181.67	1554.41
181.90	1515.50
182.12	1492.97
182.34	1456.11
182.56	1578.98
182.78	1521.64
183.00	1509.35
183.22	1492.97
183.44	1452.01
183.66	1669.09
183.89	1601.51
184.11	1548.26
184.33	1554.41
184.55	1566.70
184.77	1617.90
184.99	1562.60
185.21	1572.84
185.43	1654.76
185.65	1533.93
185.87	1527.78
186.10	1593.32
186.32	1529.83
186.54	1570.79
186.76	1544.17
186.98	1572.84
187.20	1435.63
187.42	1482.73
187.64	1544.17
187.86	1509.35
188.08	1650.66
188.30	1544.17
188.52	1449.96
188.75	1540.07
188.97	1599.46
189.19	1490.92
189.41	1497.07
189.63	1562.60
189.85	1503.21
190.07	1484.78
190.29	1484.78
190.51	1570.79
190.73	1470.44
190.95	1601.51
191.17	1495.02
191.39	1495.02
191.61	1544.17
191.84	1556.46
192.06	1560.55
192.28	1411.05
192.50	1681.38
192.72	1638.38
192.94	1574.89
193.16	1650.66
193.38	1613.80
193.60	1538.02
193.82	1507.30
194.04	1589.22
194.26	1554.41
194.48	1562.60
194.70	1595.37
194.92	1492.97
195.14	1560.55
195.36	1488.87
195.58	1556.46
195.80	1576.94
196.02	1519.59
196.24	1626.09
196.46	1509.35
196.69	1542.12
196.91	1609.70
197.13	1488.87
197.35	1497.07
197.57	1576.94
197.79	1535.98
198.01	1546.22
198.23	1533.93
198.45	1531.88
198.67	1486.83
198.89	1538.02
199.11	1601.51
199.33	1472.49
199.55	1433.58
199.77	1546.22
199.99	1613.80
200.21	1513.45
200.43	1570.79
200.65	1447.91
200.87	1452.01
201.09	1578.98
201.31	1517.54
201.53	1523.69
201.75	1556.46
201.97	1548.26
202.19	1609.70
202.41	1564.65
202.63	1624.04
202.85	1613.80
203.07	1544.17
203.29	1523.69
203.51	1517.54
203.73	1531.88
203.95	1624.04
204.17	1533.93
204.39	1595.37
204.61	1503.21
204.83	1558.50
205.05	1583.08
205.27	1554.41
205.49	1626.09
205.71	1554.41
205.93	1431.53
206.15	1470.44
206.37	1523.69
206.59	1452.01
206.81	1519.59
207.03	1462.25
207.25	1535.98
207.47	1589.22
207.69	1570.79
207.91	1607.66
208.13	1595.37
208.34	1503.21
208.56	1583.08
208.78	1574.89
209.00	1558.50
209.22	1482.73
209.44	1525.74
209.66	1550.31
209.88	1499.11
210.10	1523.69
210.32	1495.02
210.54	1607.66
210.76	1495.02
210.98	1619.94
211.20	1490.92
211.42	1544.17
211.64	1634.28
211.86	1535.98
212.08	1560.55
212.30	1558.50
212.52	1503.21
212.74	1533.93
212.96	1624.04
213.17	1638.38
213.39	1558.50
213.61	1585.13
213.83	1652.71
214.05	1589.22
214.27	1572.84
214.49	1447.91
214.71	1513.45
214.93	1591.27
215.15	1550.31
215.37	1554.41
215.59	1454.06
215.81	1556.46
216.03	1574.89
216.24	1523.69
216.46	1550.31
216.68	1552.36
216.90	1535.98
217.12	1624.04
217.34	1509.35
217.56	1464.30
217.78	1603.56
218.00	1589.22
218.22	1560.55
218.44	1544.17
218.66	1570.79
218.87	1656.81
219.09	1503.21
219.31	1546.22
219.53	1497.07
219.75	1533.93
219.97	1550.31
220.19	1542.12
220.41	1523.69
220.63	1550.31
220.85	1613.80
221.06	1501.16
221.28	1564.65
221.50	1517.54
221.72	1576.94
221.94	1574.89
222.16	1552.36
222.38	1556.46
222.60	1566.70
222.82	1509.35
223.03	1576.94
223.25	1449.96
223.47	1535.98
223.69	1617.90
223.91	1583.08
224.13	1615.85
224.35	1548.26
224.57	1517.54
224.78	1550.31
225.00	1540.07
225.22	1507.30
225.44	1495.02
225.66	1538.02
225.88	1531.88
226.10	1566.70
226.32	1560.55
226.53	1630.18
226.75	1552.36
226.97	1574.89
227.19	1570.79
227.41	1474.54
227.63	1495.02
227.85	1431.53
228.06	1478.63
228.28	1464.30
228.50	1497.07
228.72	1523.69
228.94	1499.11
229.16	1429.48
229.37	1503.21
229.59	1529.83
229.81	1591.27
230.03	1554.41
230.25	1497.07
230.47	1501.16
230.69	1509.35
230.90	1548.26
231.12	1474.54
231.34	1556.46
231.56	1654.76
231.78	1431.53
232.00	1519.59
232.21	1531.88
232.43	1509.35
232.65	1490.92
232.87	1538.02
233.09	1454.06
233.30	1492.97
233.52	1576.94
233.74	1574.89
233.96	1490.92
234.18	1519.59
234.40	1535.98
234.61	1605.61
234.83	1554.41
235.05	1517.54
235.27	1609.70
235.49	1574.89
235.70	1581.03
235.92	1599.46
236.14	1527.78
236.36	1595.37
236.58	1533.93
236.79	1558.50
237.01	1558.50
237.23	1533.93
237.45	1660.90
237.67	1476.59
237.88	1560.55
238.10	1595.37
238.32	1556.46
238.54	1576.94
238.76	1601.51
238.97	1542.12
239.19	1499.11
239.41	1550.31
239.63	1570.79
239.85	1568.74
240.06	1458.15
240.28	1472.49
240.50	1621.99
240.72	1515.50
240.93	1509.35
241.15	1599.46
241.37	1460.20
241.59	1531.88
241.81	1476.59
242.02	1497.07
242.24	1554.41
242.46	1535.98
242.68	1542.12
242.89	1605.61
243.11	1535.98
243.33	1527.78
243.55	1542.12
243.76	1574.89
243.98	1462.25
244.20	1513.45
244.42	1523.69
244.64	1593.32
244.85	1466.35
245.07	1511.40
245.29	1560.55
245.51	1583.08
245.72	1578.98
245.94	1605.61
246.16	1533.93
246.38	1578.98
246.59	1562.60
246.81	1525.74
247.03	1542.12
247.24	1454.06
247.46	1566.70
247.68	1513.45
247.90	1540.07
248.11	1558.50
248.33	1593.32
248.55	1503.21
248.77	1552.36
248.98	1609.70
249.20	1595.37
249.42	1443.82
249.64	1548.26
249.85	1576.94
250.07	1435.63
250.29	1554.41
250.50	1488.87
250.72	1490.92
250.94	1617.90
251.16	1581.03
251.37	1585.13
251.59	1560.55
251.81	1523.69
252.02	1626.09
252.24	1511.40
252.46	1662.95
252.68	1519.59
252.89	1554.41
253.11	1474.54
253.33	1646.57
253.54	1679.33
253.76	1476.59
253.98	1505.26
254.20	1472.49
254.41	1464.30
254.63	1611.75
254.85	1470.44
255.06	1525.74
255.28	1531.88
255.50	1581.03
255.71	1511.40
255.93	1478.63
256.15	1490.92
256.36	1671.14
256.58	1540.07
256.80	1474.54
257.02	1501.16
257.23	1576.94
257.45	1472.49
257.67	1560.55
257.88	1454.06
258.10	1482.73
258.32	1474.54
258.53	1607.66
258.75	1615.85
258.97	1578.98
259.18	1513.45
259.40	1558.50
259.62	1628.14
259.83	1568.74
260.05	1531.88
260.27	1806.31
260.48	1556.46
260.70	1533.93
260.92	1562.60
261.13	1511.40
261.35	1509.35
261.57	1591.27
261.78	1452.01
262.00	1505.26
262.22	1533.93
262.43	1513.45
262.65	1452.01
262.86	1578.98
263.08	1585.13
263.30	1593.32
263.51	1464.30
263.73	1542.12
263.95	1591.27
264.16	1478.63
264.38	1507.30
264.60	1583.08
264.81	1443.82
265.03	1519.59
265.25	1460.20
265.46	1544.17
265.68	1535.98
265.89	1611.75
266.11	1472.49
266.33	1581.03
266.54	1564.65
266.76	1572.84
266.98	1581.03
267.19	1607.66
267.41	1595.37
267.62	1548.26
267.84	1435.63
268.06	1568.74
268.27	1503.21
268.49	1544.17
268.70	1566.70
268.92	1568.74
269.14	1509.35
269.35	1509.35
269.57	1523.69
269.79	1527.78
270.00	1480.68
270.22	1564.65
270.43	1513.45
270.65	1449.96
270.87	1574.89
271.08	1607.66
271.30	1634.28
271.51	1562.60
271.73	1519.59
271.95	1570.79
272.16	1581.03
272.38	1523.69
272.59	1488.87
272.81	1556.46
273.02	1550.31
273.24	1585.13
273.46	1589.22
273.67	1458.15
273.89	1550.31
274.10	1540.07
274.32	1521.64
274.54	1595.37
274.75	1546.22
274.97	1470.44
275.18	1591.27
275.40	1538.02
275.61	1546.22
275.83	1574.89
276.05	1370.09
276.26	1587.18
276.48	1595.37
276.69	1495.02
276.91	1474.54
277.12	1497.07
277.34	1574.89
277.55	1550.31
277.77	1497.07
277.99	1454.06
278.20	1517.54
278.42	1490.92
278.63	1533.93
278.85	1464.30
279.06	1521.64
279.28	1531.88
279.49	1591.27
279.71	1611.75
279.93	1550.31
280.14	1572.84
280.36	1556.46
280.57	1705.96
280.79	1644.52
281.00	1595.37
281.22	1519.59
281.43	1607.66
281.65	1478.63
281.86	1458.15
282.08	1482.73
282.29	1566.70
282.51	1421.29
282.73	1511.40
282.94	1466.35
283.16	1566.70
283.37	1662.95
283.59	1529.83
283.80	1591.27
284.02	1609.70
284.23	1546.22
284.45	1519.59
284.66	1476.59
284.88	1523.69
285.09	1499.11
285.31	1603.56
285.52	1568.74
285.74	1478.63
285.95	1593.32
286.17	1535.98
286.38	1583.08
286.60	1468.39
286.81	1515.50
287.03	1507.30
287.24	1497.07
287.46	1624.04
287.67	1523.69
287.89	1603.56
288.10	1521.64
288.32	1507.30
288.53	1644.52
288.75	1560.55
288.96	1568.74
289.18	1503.21
289.39	1505.26
289.61	1669.09
289.82	1621.99
290.04	1603.56
290.25	1509.35
290.47	1480.68
290.68	1513.45
290.90	1601.51
291.11	1484.78
291.33	1568.74
291.54	1535.98
291.76	1486.83
291.97	1558.50
292.18	1568.74
292.40	1513.45
292.61	1488.87
292.83	1613.80
293.04	1550.31
293.26	1583.08
293.47	1546.22
293.69	1443.82
293.90	1509.35
294.12	1581.03
294.33	1550.31
294.55	1599.46
294.76	1550.31
294.97	1570.79
295.19	1611.75
295.40	1531.88
295.62	1583.08
295.83	1531.88
296.05	1499.11
296.26	1542.12
296.48	1486.83
296.69	1501.16
296.90	1576.94
297.12	1585.13
297.33	1673.19
297.55	1546.22
297.76	1501.16
297.98	1533.93
298.19	1574.89
298.41	1466.35
298.62	1462.25
298.83	1640.42
299.05	1552.36
299.26	1470.44
299.48	1449.96
299.69	1560.55
299.90	1595.37
300.12	1466.35
300.33	1593.32
300.55	1578.98
300.76	1599.46
300.98	1554.41
301.19	1544.17
301.40	1566.70
301.62	1574.89
301.83	1499.11
302.05	1535.98
302.26	1503.21
302.47	1564.65
302.69	1447.91
302.90	1632.23
303.12	1452.01
303.33	1562.60
303.54	1554.41
303.76	1495.02
303.97	1595.37
304.19	1527.78
304.40	1507.30
304.61	1583.08
304.83	1615.85
305.04	1570.79
305.26	1515.50
305.47	1546.22
305.68	1486.83
305.90	1509.35
306.11	1632.23
306.33	1517.54
306.54	1488.87
306.75	1523.69
306.97	1437.67
307.18	1474.54
307.39	1511.40
307.61	1591.27
307.82	1550.31
308.04	1525.74
308.25	1519.59
308.46	1515.50
308.68	1452.01
308.89	1476.59
309.10	1603.56
309.32	1558.50
309.53	1550.31
309.74	1589.22
309.96	1540.07
310.17	1554.41
310.39	1466.35
310.60	1636.33
310.81	1542.12
311.03	1464.30
311.24	1535.98
311.45	1480.68
311.67	1564.65
311.88	1486.83
312.09	1583.08
312.31	1515.50
312.52	1429.48
312.73	1613.80
312.95	1486.83
313.16	1544.17
313.37	1619.94
313.59	1619.94
313.80	1644.52
314.01	1601.51
314.23	1550.31
314.44	1449.96
314.65	1437.67
314.87	1466.35
315.08	1517.54
315.29	1443.82
315.51	1472.49
315.72	1492.97
315.93	1630.18
316.15	1589.22
316.36	1513.45
316.57	1601.51
316.79	1615.85
317.00	1533.93
317.21	1470.44
317.43	1476.59
317.64	1488.87
317.85	1462.25
318.07	1636.33
318.28	1652.71
318.49	1671.14
318.70	1759.21
318.92	1718.25
319.13	1730.53
319.34	1650.66
319.56	1673.19
319.77	1656.81
319.98	1554.41
320.20	1689.57
320.41	1574.89
320.62	1568.74
320.83	1595.37
321.05	1634.28
321.26	1568.74
321.47	1527.78
321.69	1554.41
321.90	1341.42
322.11	1542.12
322.32	1556.46
322.54	1626.09
322.75	1578.98
322.96	1552.36
323.18	1513.45
323.39	1488.87
323.60	1482.73
323.81	1578.98
324.03	1568.74
324.24	1527.78
324.45	1544.17
324.66	1548.26
324.88	1605.61
325.09	1591.27
325.30	1527.78
325.52	1513.45
325.73	1619.94
325.94	1490.92
326.15	1415.15
326.37	1525.74
326.58	1595.37
326.79	1619.94
327.00	1505.26
327.22	1601.51
327.43	1538.02
327.64	1540.07
327.85	1554.41
328.07	1513.45
328.28	1656.81
328.49	1505.26
328.70	1523.69
328.92	1542.12
329.13	1429.48
329.34	1544.17
329.55	1634.28
329.76	1605.61
329.98	1484.78
330.19	1538.02
330.40	1540.07
330.61	1480.68
330.83	1630.18
331.04	1470.44
331.25	1587.18
331.46	1452.01
331.68	1558.50
331.89	1576.94
332.10	1517.54
332.31	1435.63
332.52	1529.83
332.74	1566.70
332.95	1454.06
333.16	1546.22
333.37	1607.66
333.58	1482.73
333.80	1497.07
334.01	1460.20
334.22	1505.26
334.43	1515.50
334.64	1572.84
334.86	1603.56
335.07	1527.78
335.28	1615.85
335.49	1429.48
335.70	1552.36
335.92	1601.51
336.13	1648.61
336.34	1564.65
336.55	1515.50
336.76	1585.13
336.98	1497.07
337.19	1515.50
337.40	1640.42
337.61	1626.09
337.82	1554.41
338.04	1454.06
338.25	1441.77
338.46	1490.92
338.67	1529.83
338.88	1538.02
339.09	1564.65
339.31	1499.11
339.52	1533.93
339.73	1482.73
339.94	1538.02
340.15	1613.80
340.36	1472.49
340.58	1497.07
340.79	1525.74
341.00	1558.50
341.21	1517.54
341.42	1636.33
341.63	1468.39
341.85	1644.52
342.06	1550.31
342.27	1495.02
342.48	1605.61
342.69	1499.11
342.90	1546.22
343.12	1560.55
343.33	1486.83
343.54	1515.50
343.75	1603.56
343.96	1589.22
344.17	1521.64
344.38	1517.54
344.60	1505.26
344.81	1452.01
345.02	1554.41
345.23	1556.46
345.44	1593.32
345.65	1517.54
345.86	1568.74
346.07	1538.02
346.29	1497.07
346.50	1556.46
346.71	1523.69
346.92	1615.85
347.13	1675.24
347.34	1587.18
347.55	1556.46
347.76	1587.18
347.98	1538.02
348.19	1509.35
348.40	1568.74
348.61	1564.65
348.82	1566.70
349.03	1542.12
349.24	1478.63
349.45	1636.33
349.66	1474.54
349.88	1560.55
350.09	1482.73
350.30	1576.94
350.51	1609.70
350.72	1538.02
350.93	1558.50
351.14	1558.50
351.35	1576.94
351.56	1507.30
351.77	1570.79
351.99	1535.98
352.20	1595.37
352.41	1568.74
352.62	1462.25
352.83	1495.02
353.04	1486.83
353.25	1568.74
353.46	1525.74
353.67	1562.60
353.88	1486.83
354.09	1486.83
354.30	1558.50
354.52	1587.18
354.73	1574.89
354.94	1499.11
355.15	1642.47
355.36	1583.08
355.57	1624.04
355.78	1570.79
355.99	1480.68
356.20	1458.15
356.41	1597.42
356.62	1525.74
356.83	1597.42
357.04	1529.83
357.25	1497.07
357.46	1492.97
357.68	1470.44
357.89	1519.59
358.10	1511.40
358.31	1546.22
358.52	1525.74
358.73	1456.11
358.94	1546.22
359.15	1421.29
359.36	1576.94
359.57	1566.70
359.78	1515.50
359.99	1501.16
360.20	1552.36
360.41	1542.12
360.62	1550.31
360.83	1564.65
361.04	1566.70
361.25	1636.33
361.46	1599.46
361.67	1601.51
361.88	1613.80
362.09	1593.32
362.30	1607.66
362.51	1482.73
362.72	1572.84
362.93	1578.98
363.14	1560.55
363.35	1556.46
363.56	1507.30
363.78	1558.50
363.99	1603.56
364.20	1490.92
364.41	1560.55
364.62	1632.23
364.83	1554.41
365.04	1542.12
365.25	1478.63
365.46	1556.46
365.67	1484.78
365.88	1513.45
366.09	1601.51
366.30	1505.26
366.51	1597.42
366.72	1425.39
366.93	1540.07
367.14	1499.11
367.35	1585.13
367.56	1554.41
367.77	1603.56
367.98	1595.37
368.18	1585.13
368.39	1540.07
368.60	1501.16
368.81	1578.98
369.02	1525.74
369.23	1497.07
369.44	1517.54
369.65	1511.40
369.86	1560.55
370.07	1505.26
370.28	1417.19
370.49	1529.83
370.70	1492.97
370.91	1437.67
371.12	1495.02
371.33	1570.79
371.54	1480.68
371.75	1624.04
371.96	1511.40
372.17	1595.37
372.38	1552.36
372.59	1607.66
372.80	1544.17
373.01	1468.39
373.22	1562.60
373.43	1554.41
373.64	1439.72
373.85	1519.59
374.06	1591.27
374.26	1521.64
374.47	1578.98
374.68	1597.42
374.89	1535.98
375.10	1511.40
375.31	1585.13
375.52	1538.02
375.73	1533.93
375.94	1509.35
376.15	1626.09
376.36	1497.07
376.57	1533.93
376.78	1533.93
376.99	1566.70
377.20	1492.97
377.40	1546.22
377.61	1619.94
377.82	1474.54
378.03	1589.22
378.24	1529.83
378.45	1560.55
378.66	1558.50
378.87	1505.26
379.08	1462.25
379.29	1529.83
379.50	1611.75
379.71	1554.41
379.91	1562.60
380.12	1566.70
380.33	1585.13
380.54	1556.46
380.75	1548.26
380.96	1511.40
381.17	1591.27
381.38	1531.88
381.59	1581.03
381.80	1574.89
382.00	1679.33
382.21	1593.32
382.42	1728.49
382.63	1746.92
382.84	1583.08
383.05	1593.32
383.26	1697.77
383.47	1529.83
383.68	1648.61
383.88	1591.27
384.09	1558.50
384.30	1660.90
384.51	1607.66
384.72	1478.63
384.93	1476.59
385.14	1595.37
385.35	1585.13
385.55	1423.34
385.76	1632.23
385.97	1546.22
386.18	1404.91
386.39	1511.40
386.60	1490.92
386.81	1492.97
387.02	1472.49
387.22	1599.46
387.43	1593.32
387.64	1740.77
387.85	1945.57
388.06	3190.74
388.27	7274.38
388.48	10602.33
388.68	12451.65
388.89	13956.91
389.10	12900.16
389.31	10276.71
389.52	8890.23
389.73	7792.52
389.93	7280.53
390.14	6791.06
390.35	6303.65
390.56	5574.57
390.77	4685.75
390.98	3551.18
391.18	2766.81
391.39	2222.05
391.60	1820.64
391.81	1716.20
392.02	1601.51
392.23	1722.34
392.43	1632.23
392.64	1593.32
392.85	1540.07
393.06	1611.75
393.27	1558.50
393.47	1519.59
393.68	1544.17
393.89	1507.30
394.10	1585.13
394.31	1593.32
394.52	1527.78
394.72	1548.26
394.93	1570.79
395.14	1472.49
395.35	1597.42
395.56	1531.88
395.76	1648.61
395.97	1699.81
396.18	1763.30
396.39	1771.49
396.60	1943.52
396.80	1753.06
397.01	1808.36
397.22	1642.47
397.43	1679.33
397.64	1611.75
397.84	1703.91
398.05	1730.53
398.26	1619.94
398.47	1693.67
398.67	1605.61
398.88	1499.11
399.09	1535.98
399.30	1441.77
399.51	1574.89
399.71	1531.88
399.92	1535.98
400.13	1550.31
400.34	1478.63
400.54	1585.13
400.75	1632.23
400.96	1601.51
401.17	1656.81
401.37	1562.60
401.58	1556.46
401.79	1599.46
402.00	1755.11
402.21	1865.70
402.41	1839.08
402.62	1978.34
402.83	2021.35
403.04	1843.17
403.24	1947.62
403.45	1697.77
403.66	1701.86
403.87	1720.29
404.07	1746.92
404.28	1812.45
404.49	1765.35
404.70	1589.22
404.90	1599.46
405.11	1634.28
405.32	1583.08
405.52	1492.97
405.73	1558.50
405.94	1433.58
406.15	1531.88
406.35	1523.69
406.56	1636.33
406.77	1607.66
406.98	1597.42
407.18	1495.02
407.39	1583.08
407.60	1509.35
407.80	1593.32
408.01	1535.98
408.22	1568.74
408.43	1566.70
408.63	1540.07
408.84	1578.98
409.05	1556.46
409.25	1417.19
409.46	1535.98
409.67	1505.26
409.88	1505.26
410.08	1548.26
410.29	1517.54
410.50	1589.22
410.70	1527.78
410.91	1540.07
411.12	1548.26
411.32	1478.63
411.53	1564.65
411.74	1693.67
411.95	1640.42
412.15	1648.61
412.36	1595.37
412.57	1589.22
412.77	1609.70
412.98	1525.74
413.19	1486.83
413.39	1599.46
413.60	1527.78
413.81	1648.61
414.01	1533.93
414.22	1599.46
414.43	1662.95
414.63	1603.56
414.84	1595.37
415.05	1546.22
415.25	1497.07
415.46	1566.70
415.67	1535.98
415.87	1554.41
416.08	1581.03
416.29	1583.08
416.49	1531.88
416.70	1566.70
416.91	1554.41
417.11	1499.11
417.32	1583.08
417.53	1564.65
417.73	1521.64
417.94	1538.02
418.15	1683.43
418.35	1505.26
418.56	1509.35
418.77	1585.13
418.97	1523.69
419.18	1540.07
419.38	1513.45
419.59	1447.91
419.80	1617.90
420.00	1544.17
420.21	1515.50
420.42	1570.79
420.62	1605.61
420.83	1503.21
421.04	1513.45
421.24	1466.35
421.45	1652.71
421.65	1603.56
421.86	1480.68
422.07	1617.90
422.27	1525.74
422.48	1595.37
422.69	1474.54
422.89	1542.12
423.10	1531.88
423.30	1460.20
423.51	1464.30
423.72	1546.22
423.92	1546.22
424.13	1517.54
424.33	1535.98
424.54	1599.46
424.75	1560.55
424.95	1609.70
425.16	1562.60
425.36	1454.06
425.57	1533.93
425.78	1521.64
425.98	1611.75
426.19	1546.22
426.39	1445.87
426.60	1574.89
426.81	1591.27
427.01	1499.11
427.22	1576.94
427.42	1454.06
427.63	1566.70
427.83	1505.26
428.04	1574.89
428.25	1609.70
428.45	1656.81
428.66	1654.76
428.86	1501.16
429.07	1578.98
429.28	1601.51
429.48	1548.26
429.69	1484.78
429.89	1566.70
430.10	1490.92
430.30	1554.41
430.51	1550.31
430.71	1480.68
430.92	1542.12
431.13	1527.78
431.33	1550.31
431.54	1548.26
431.74	1591.27
431.95	1583.08
432.15	1564.65
432.36	1519.59
432.56	1609.70
432.77	1632.23
432.98	1615.85
433.18	1488.87
433.39	1548.26
433.59	1599.46
433.80	1607.66
434.00	1716.20
434.21	1564.65
434.41	1488.87
434.62	1533.93
434.82	1452.01
435.03	1492.97
435.23	1497.07
435.44	1460.20
435.64	1574.89
435.85	1521.64
436.06	1503.21
436.26	1550.31
436.47	1617.90
436.67	1509.35
436.88	1564.65
437.08	1550.31
437.29	1591.27
437.49	1527.78
437.70	1634.28
437.90	1578.98
438.11	1685.48
438.31	1628.14
438.52	1710.05
438.72	1724.39
438.93	1777.64
439.13	1624.04
439.34	1656.81
439.54	1630.18
439.75	1652.71
439.95	1628.14
440.16	1613.80
440.36	1609.70
440.57	1615.85
440.77	1576.94
440.98	1529.83
441.18	1638.38
441.39	1490.92
441.59	1509.35
441.80	1638.38
442.00	1519.59
442.21	1669.09
442.41	1484.78
442.62	1628.14
442.82	1509.35
443.02	1548.26
443.23	1509.35
443.43	1576.94
443.64	1615.85
443.84	1505.26
444.05	1628.14
444.25	1533.93
444.46	1529.83
444.66	1587.18
444.87	1609.70
445.07	1478.63
445.28	1566.70
445.48	1585.13
445.69	1632.23
445.89	1595.37
446.09	1587.18
446.30	2025.44
446.50	3145.68
446.71	4540.35
446.91	5447.60
447.12	5818.28
447.32	5527.47
447.53	4589.50
447.73	4108.23
447.93	3567.56
448.14	3358.67
448.34	3229.65
448.55	2904.02
448.75	2914.26
448.96	2781.14
449.16	2574.30
449.36	2312.16
449.57	2060.26
449.77	1808.36
449.98	1574.89
450.18	1613.80
450.39	1583.08
450.59	1585.13
450.79	1576.94
451.00	1503.21
451.20	1574.89
451.41	1476.59
451.61	1624.04
451.81	1544.17
452.02	1552.36
452.22	1456.11
452.43	1511.40
452.63	1505.26
452.84	1542.12
453.04	1554.41
453.24	1574.89
453.45	1513.45
453.65	1601.51
453.86	1581.03
454.06	1576.94
454.26	1542.12
454.47	1527.78
454.67	1583.08
454.87	1519.59
455.08	1568.74
455.28	1669.09
455.49	1495.02
455.69	1460.20
455.89	1662.95
456.10	1583.08
456.30	1478.63
456.51	1638.38
456.71	1593.32
456.91	1505.26
457.12	1501.16
457.32	1587.18
457.52	1574.89
457.73	1609.70
457.93	1587.18
458.14	1497.07
458.34	1437.67
458.54	1531.88
458.75	1509.35
458.95	1613.80
459.15	1511.40
459.36	1511.40
459.56	1570.79
459.76	1613.80
459.97	1527.78
460.17	1531.88
460.37	1533.93
460.58	1570.79
460.78	1605.61
460.99	1482.73
461.19	1546.22
461.39	1523.69
461.60	1540.07
461.80	1607.66
462.00	1503.21
462.21	1484.78
462.41	1482.73
462.61	1517.54
462.82	1425.39
463.02	1521.64
463.22	1519.59
463.43	1611.75
463.63	1556.46
463.83	1572.84
464.04	1572.84
464.24	1529.83
464.44	1566.70
464.64	1595.37
464.85	1576.94
465.05	1638.38
465.25	1533.93
465.46	1443.82
465.66	1533.93
465.86	1638.38
466.07	1517.54
466.27	1521.64
466.47	1447.91
466.68	1505.26
466.88	1632.23
467.08	1523.69
467.29	1488.87
467.49	1585.13
467.69	1470.44
467.89	1570.79
468.10	1517.54
468.30	1525.74
468.50	1660.90
468.71	1603.56
468.91	1429.48
469.11	1525.74
469.31	1591.27
469.52	1449.96
469.72	1626.09
469.92	1603.56
470.13	1519.59
470.33	1550.31
470.53	1714.15
470.73	2076.64
470.94	2375.64
471.14	2402.27
471.34	2674.65
471.54	2553.82
471.75	2115.55
471.95	2131.94
472.15	2004.96
472.36	1939.43
472.56	1955.81
472.76	1939.43
472.96	1853.41
473.17	1822.69
473.37	1798.12
473.57	1669.09
473.77	1712.10
473.98	1566.70
474.18	1497.07
474.38	1652.71
474.58	1538.02
474.79	1503.21
474.99	1587.18
475.19	1613.80
475.39	1503.21
475.60	1556.46
475.80	1521.64
476.00	1572.84
476.20	1556.46
476.41	1548.26
476.61	1609.70
476.81	1638.38
477.01	1490.92
477.21	1642.47
477.42	1654.76
477.62	1474.54
477.82	1558.50
478.02	1560.55
478.23	1488.87
478.43	1523.69
478.63	1546.22
478.83	1540.07
479.03	1550.31
479.24	1554.41
479.44	1621.99
479.64	1572.84
479.84	1484.78
480.04	1538.02
480.25	1587.18
480.45	1468.39
480.65	1501.16
480.85	1552.36
481.06	1529.83
481.26	1576.94
481.46	1574.89
481.66	1605.61
481.86	1501.16
482.06	1626.09
482.27	1576.94
482.47	1507.30
482.67	1511.40
482.87	1523.69
483.07	1621.99
483.28	1525.74
483.48	1556.46
483.68	1570.79
483.88	1464.30
484.08	1433.58
484.29	1447.91
484.49	1523.69
484.69	1538.02
484.89	1671.14
485.09	1621.99
485.29	1538.02
485.50	1570.79
485.70	1574.89
485.90	1517.54
486.10	1535.98
486.30	1593.32
486.50	1538.02
486.71	1583.08
486.91	1644.52
487.11	1599.46
487.31	1490.92
487.51	1556.46
487.71	1574.89
487.91	1480.68
488.12	1468.39
488.32	1406.95
488.52	1462.25
488.72	1540.07
488.92	1523.69
489.12	1564.65
489.32	1597.42
489.53	1585.13
489.73	1404.91
489.93	1609.70
490.13	1601.51
490.33	1454.06
490.53	1554.41
490.73	1658.85
490.94	1578.98
491.14	1632.23
491.34	1783.78
491.54	2138.08
491.74	2566.10
491.94	3049.43
492.14	3254.22
492.34	3252.17
492.54	2838.48
492.75	2426.84
492.95	2314.20
493.15	2226.14
493.35	2158.56
493.55	2115.55
493.75	2074.59
493.95	2058.21
494.15	1937.38
494.35	1882.08
494.56	1781.73
494.76	1591.27
494.96	1693.67
495.16	1589.22
495.36	1599.46
495.56	1550.31
495.76	1499.11
495.96	1546.22
496.16	1501.16
496.36	1564.65
496.56	1613.80
496.77	1570.79
496.97	1564.65
497.17	1613.80
497.37	1441.77
497.57	1572.84
497.77	1552.36
497.97	1517.54
498.17	1533.93
498.37	1572.84
498.57	1535.98
498.77	1581.03
498.97	1607.66
499.17	1617.90
499.38	1578.98
499.58	1599.46
499.78	1560.55
499.98	1560.55
500.18	1597.42
500.38	1433.58
500.58	1751.01
500.78	2668.50
500.98	5173.17
501.18	6741.91
501.38	8302.47
501.58	8900.47
501.78	7937.93
501.98	6227.87
502.18	5447.60
502.38	4700.09
502.58	4356.03
502.78	3774.41
502.98	3672.01
503.18	3694.54
503.38	3299.28
503.59	3033.04
503.79	2760.66
503.99	2529.24
504.19	2338.78
504.39	2176.99
504.59	2078.69
504.79	1980.39
504.99	1902.56
505.19	1822.69
505.39	1753.06
505.59	1847.27
505.79	1744.87
505.99	1636.33
506.19	1734.63
506.39	1699.81
506.59	1589.22
506.79	1550.31
506.99	1609.70
507.19	1589.22
507.39	1548.26
507.59	1515.50
507.79	1503.21
507.99	1511.40
508.19	1564.65
508.39	1464.30
508.59	1574.89
508.79	1648.61
508.99	1611.75
509.19	1533.93
509.39	1648.61
509.59	1574.89
509.79	1546.22
509.99	1490.92
510.19	1634.28
510.39	1656.81
510.59	1570.79
510.79	1492.97
510.99	1484.78
511.19	1624.04
511.39	1634.28
511.59	1550.31
511.79	1554.41
511.99	1517.54
512.19	1587.18
512.38	1595.37
512.58	1533.93
512.78	1503.21
512.98	1554.41
513.18	1554.41
513.38	1550.31
513.58	1572.84
513.78	1550.31
513.98	1548.26
514.18	1515.50
514.38	1576.94
514.58	1470.44
514.78	1466.35
514.98	1515.50
515.18	1576.94
515.38	1490.92
515.58	1591.27
515.78	1560.55
515.98	1564.65
516.18	1523.69
516.38	1484.78
516.57	1495.02
516.77	1507.30
516.97	1574.89
517.17	1476.59
517.37	1456.11
517.57	1605.61
517.77	1556.46
517.97	1519.59
518.17	1535.98
518.37	1478.63
518.57	1505.26
518.77	1572.84
518.97	1535.98
519.16	1619.94
519.36	1652.71
519.56	1484.78
519.76	1476.59
519.96	1585.13
520.16	1615.85
520.36	1503.21
520.56	1570.79
520.76	1525.74
520.96	1484.78
521.16	1568.74
521.35	1542.12
521.55	1595.37
521.75	1533.93
521.95	1515.50
522.15	1576.94
522.35	1458.15
522.55	1458.15
522.75	1642.47
522.95	1548.26
523.14	1548.26
523.34	1511.40
523.54	1505.26
523.74	1556.46
523.94	1540.07
524.14	1482.73
524.34	1546.22
524.54	1595.37
524.73	1597.42
524.93	1574.89
525.13	1538.02
525.33	1462.25
525.53	1605.61
525.73	1566.70
525.93	1552.36
526.13	1515.50
526.32	1560.55
526.52	1621.99
526.72	1593.32
526.92	1490.92
527.12	1603.56
527.32	1456.11
527.52	1513.45
527.71	1535.98
527.91	1462.25
528.11	1490.92
528.31	1548.26
528.51	1529.83
528.71	1583.08
528.90	1568.74
529.10	1478.63
529.30	1497.07
529.50	1406.95
529.70	1552.36
529.90	1454.06
530.09	1617.90
530.29	1525.74
530.49	1474.54
530.69	1566.70
530.89	1521.64
531.09	1533.93
531.28	1456.11
531.48	1568.74
531.68	1458.15
531.88	1572.84
532.08	1628.14
532.28	1591.27
532.47	1548.26
532.67	1591.27
532.87	1591.27
533.07	1521.64
533.27	1667.05
533.46	1568.74
533.66	1591.27
533.86	1607.66
534.06	1525.74
534.26	1576.94
534.45	1501.16
534.65	1538.02
534.85	1607.66
535.05	1431.53
535.25	1550.31
535.44	1544.17
535.64	1578.98
535.84	1531.88
536.04	1472.49
536.24	1538.02
536.43	1535.98
536.63	1546.22
536.83	1525.74
537.03	1517.54
537.22	1486.83
537.42	1490.92
537.62	1589.22
537.82	1490.92
538.02	1669.09
538.21	1621.99
538.41	1671.14
538.61	1599.46
538.81	1495.02
539.00	1644.52
539.20	1501.16
539.40	1470.44
539.60	1587.18
539.79	1644.52
539.99	1484.78
540.19	1548.26
540.39	1540.07
540.58	1585.13
540.78	1597.42
540.98	1490.92
541.18	1581.03
541.37	1529.83
541.57	1538.02
541.77	1597.42
541.97	1523.69
542.16	1423.34
542.36	1511.40
542.56	1624.04
542.76	1644.52
542.95	1611.75
543.15	1607.66
543.35	1486.83
543.54	1499.11
543.74	1509.35
543.94	1540.07
544.14	1552.36
544.33	1603.56
544.53	1521.64
544.73	1484.78
544.93	1538.02
545.12	1535.98
545.32	1599.46
545.52	1619.94
545.71	1542.12
545.91	1454.06
546.11	1527.78
546.30	1452.01
546.50	1484.78
546.70	1591.27
546.90	1531.88
547.09	1533.93
547.29	1552.36
547.49	1548.26
547.68	1544.17
547.88	1507.30
548.08	1488.87
548.27	1796.07
548.47	1593.32
548.67	1501.16
548.87	1486.83
549.06	1525.74
549.26	1519.59
549.46	1558.50
549.65	1542.12
549.85	1542.12
550.05	1624.04
550.24	1505.26
550.44	1554.41
550.64	1611.75
550.83	1458.15
551.03	1583.08
551.23	1675.24
551.42	1497.07
551.62	1484.78
551.82	1591.27
552.01	1515.50
552.21	1568.74
552.41	1572.84
552.60	1576.94
552.80	1548.26
553.00	1521.64
553.19	1558.50
553.39	1615.85
553.59	1503.21
553.78	1568.74
553.98	1531.88
554.17	1456.11
554.37	1587.18
554.57	1556.46
554.76	1454.06
554.96	1476.59
555.16	1585.13
555.35	1552.36
555.55	1591.27
555.75	1576.94
555.94	1529.83
556.14	1558.50
556.33	1570.79
556.53	1574.89
556.73	1511.40
556.92	1542.12
557.12	1665.00
557.32	1576.94
557.51	1605.61
557.71	1626.09
557.90	1644.52
558.10	1589.22
558.30	1535.98
558.49	1581.03
558.69	1570.79
558.88	1548.26
559.08	1568.74
559.28	1603.56
559.47	1519.59
559.67	1552.36
559.86	1619.94
560.06	1591.27
560.26	1495.02
560.45	1593.32
560.65	1470.44
560.84	1601.51
561.04	1495.02
561.24	1570.79
561.43	1462.25
561.63	1593.32
561.82	1550.31
562.02	1562.60
562.22	1499.11
562.41	1454.06
562.61	1554.41
562.80	1495.02
563.00	1722.34
563.19	1613.80
563.39	1558.50
563.59	1540.07
563.78	1517.54
563.98	1470.44
564.17	1525.74
564.37	1478.63
564.56	1587.18
564.76	1482.73
564.96	1599.46
565.15	1566.70
565.35	1632.23
565.54	1533.93
565.74	1581.03
565.93	1626.09
566.13	1462.25
566.32	1558.50
566.52	1601.51
566.71	1488.87
566.91	1554.41
567.11	1619.94
567.30	1525.74
567.50	1591.27
567.69	1576.94
567.89	1552.36
568.08	1488.87
568.28	1550.31
568.47	1511.40
568.67	1531.88
568.86	1505.26
569.06	1619.94
569.25	1546.22
569.45	1486.83
569.64	1538.02
569.84	1527.78
570.04	1570.79
570.23	1499.11
570.43	1548.26
570.62	1544.17
570.82	1658.85
571.01	1531.88
571.21	1511.40
571.40	1527.78
571.60	1599.46
571.79	1503.21
571.99	1574.89
572.18	1533.93
572.38	1535.98
572.57	1503.21
572.77	1607.66
572.96	1591.27
573.16	1540.07
573.35	1578.98
573.55	1642.47
573.74	1572.84
573.94	1513.45
574.13	1509.35
574.33	1540.07
574.52	1581.03
574.71	1570.79
574.91	1544.17
575.10	1484.78
575.30	1484.78
575.49	1501.16
575.69	1466.35
575.88	1589.22
576.08	1488.87
576.27	1691.62
576.47	1605.61
576.66	1687.53
576.86	1648.61
577.05	1632.23
577.25	1603.56
577.44	1665.00
577.64	1533.93
577.83	1587.18
578.02	1617.90
578.22	1568.74
578.41	1591.27
578.61	1560.55
578.80	1501.16
579.00	1632.23
579.19	1591.27
579.39	1626.09
579.58	1650.66
579.77	1521.64
579.97	1693.67
580.16	1683.43
580.36	1669.09
580.55	1681.38
580.75	1585.13
580.94	1636.33
581.13	1601.51
581.33	1656.81
581.52	1675.24
581.72	1638.38
581.91	1685.48
582.11	1566.70
582.30	1603.56
582.49	1642.47
582.69	1705.96
582.88	1609.70
583.08	1603.56
583.27	1665.00
583.47	1591.27
583.66	1535.98
583.85	1531.88
584.05	1505.26
584.24	1683.43
584.44	1615.85
584.63	1671.14
584.82	1769.44
585.02	1800.16
585.21	1789.92
585.41	1708.01
585.60	1728.49
585.79	1826.79
585.99	1806.31
586.18	1783.78
586.37	2086.88
586.57	3135.44
586.76	9619.31
586.96	27729.50
587.15	43646.31
587.34	54514.88
587.54	61408.34
587.73	59710.58
587.93	44080.48
588.12	32572.94
588.31	26029.68
588.51	22218.41
588.70	19805.91
588.89	18075.37
589.09	16953.09
589.28	15204.12
589.47	13190.97
589.67	11374.42
589.86	9002.87
590.06	6893.46
590.25	5119.92
590.44	3928.00
590.64	2895.83
590.83	2373.60
591.02	2129.89
591.22	1814.50
591.41	1761.25
591.60	1714.15
591.80	1740.77
591.99	1527.78
592.18	1595.37
592.38	1669.09
592.57	1595.37
592.76	1609.70
592.96	1650.66
593.15	1570.79
593.34	1656.81
593.54	1490.92
593.73	1599.46
593.92	1572.84
594.12	1529.83
594.31	1667.05
594.50	1671.14
594.70	1658.85
594.89	1697.77
595.08	1538.02
595.28	1626.09
595.47	1751.01
595.66	1748.97
595.86	1576.94
596.05	1564.65
596.24	1589.22
596.43	1697.77
596.63	1705.96
596.82	1585.13
597.01	1605.61
597.21	1677.29
597.40	1611.75
597.59	1617.90
597.79	1574.89
597.98	1621.99
598.17	1652.71
598.36	1552.36
598.56	1527.78
598.75	1509.35
598.94	1576.94
599.14	1585.13
599.33	1542.12
599.52	1591.27
599.71	1535.98
599.91	1685.48
600.10	1626.09
600.29	1523.69
600.48	1611.75
600.68	1638.38
600.87	1585.13
601.06	1505.26
601.26	1531.88
601.45	1574.89
601.64	1609.70
601.83	1540.07
602.03	1601.51
602.22	1501.16
602.41	1587.18
602.60	1638.38
602.80	1595.37
602.99	1587.18
603.18	1574.89
603.37	1513.45
603.57	1585.13
603.76	1630.18
603.95	1562.60
604.14	1542.12
604.34	1466.35
604.53	1552.36
604.72	1515.50
604.91	1599.46
605.10	1587.18
605.30	1515.50
605.49	1587.18
605.68	1583.08
605.87	1523.69
606.07	1585.13
606.26	1605.61
606.45	1576.94
606.64	1560.55
606.84	1595.37
607.03	1619.94
607.22	1656.81
607.41	1513.45
607.60	1478.63
607.80	1554.41
607.99	1654.76
608.18	1531.88
608.37	1492.97
608.56	1550.31
608.76	1609.70
608.95	1646.57
609.14	1607.66
609.33	1636.33
609.52	1681.38
609.72	1607.66
609.91	1607.66
610.10	1550.31
610.29	1638.38
610.48	1669.09
610.68	1628.14
610.87	1552.36
611.06	1581.03
611.25	1581.03
611.44	1638.38
611.63	1562.60
611.83	1560.55
612.02	1488.87
612.21	1595.37
612.40	1484.78
612.59	1478.63
612.79	1515.50
612.98	1554.41
613.17	1572.84
613.36	1538.02
613.55	1675.24
613.74	1603.56
613.93	1652.71
614.13	1667.05
614.32	1783.78
614.51	1724.39
614.70	1558.50
614.89	1607.66
615.08	1607.66
615.28	1851.36
615.47	1564.65
615.66	1550.31
615.85	1525.74
616.04	1677.29
616.23	1560.55
616.42	1566.70
616.62	1652.71
616.81	1650.66
617.00	1521.64
617.19	1634.28
617.38	1509.35
617.57	1550.31
617.76	1597.42
617.95	1585.13
618.15	1523.69
618.34	1724.39
618.53	1503.21
618.72	1601.51
618.91	1617.90
619.10	1619.94
619.29	1527.78
619.48	1538.02
619.68	1476.59
619.87	1554.41
620.06	1497.07
620.25	1583.08
620.44	1505.26
620.63	1562.60
620.82	1581.03
621.01	1542.12
621.20	1564.65
621.39	1546.22
621.59	1630.18
621.78	1445.87
621.97	1546.22
622.16	1581.03
622.35	1540.07
622.54	1619.94
622.73	1581.03
622.92	1509.35
623.11	1550.31
623.30	1562.60
623.49	1621.99
623.68	1587.18
623.88	1597.42
624.07	1554.41
624.26	1525.74
624.45	1609.70
624.64	1566.70
624.83	1587.18
625.02	1486.83
625.21	1523.69
625.40	1503.21
625.59	1505.26
625.78	1607.66
625.97	1570.79
626.16	1648.61
626.35	1542.12
626.54	1656.81
626.74	1775.59
626.93	1558.50
627.12	1634.28
627.31	1611.75
627.50	1589.22
627.69	1642.47
627.88	1497.07
628.07	1509.35
628.26	1550.31
628.45	1535.98
628.64	1544.17
628.83	1609.70
629.02	1497.07
629.21	1630.18
629.40	1591.27
629.59	1501.16
629.78	1521.64
629.97	1540.07
630.16	1566.70
630.35	1576.94
630.54	1560.55
630.73	1519.59
630.92	1535.98
631.11	1509.35
631.30	1554.41
631.49	1552.36
631.68	1583.08
631.87	1499.11
632.06	1503.21
632.25	1697.77
632.44	1574.89
632.63	1562.60
632.82	1503.21
633.01	1548.26
633.20	1648.61
633.39	1601.51
633.58	1591.27
633.77	1611.75
633.96	1681.38
634.15	1624.04
634.34	1650.66
634.53	1540.07
634.72	1546.22
634.91	1517.54
635.10	1599.46
635.29	1560.55
635.48	1599.46
635.67	1527.78
635.86	1581.03
636.05	1556.46
636.24	1486.83
636.43	1564.65
636.62	1624.04
636.81	1478.63
637.00	1533.93
637.19	1519.59
637.38	1538.02
637.57	1492.97
637.76	1578.98
637.95	1685.48
638.14	1572.84
638.33	1638.38
638.52	1638.38
638.71	1564.65
638.89	1591.27
639.08	1691.62
639.27	1607.66
639.46	1671.14
639.65	1980.39
639.84	2076.64
640.03	2189.28
640.22	2209.76
640.41	2172.89
640.60	1849.32
640.79	1949.67
640.98	1759.21
641.17	1697.77
641.36	1693.67
641.55	1673.19
641.74	1634.28
641.92	1662.95
642.11	1609.70
642.30	1675.24
642.49	1607.66
642.68	1566.70
642.87	1634.28
643.06	1560.55
643.25	1527.78
643.44	1478.63
643.63	1497.07
643.82	1578.98
644.00	1542.12
644.19	1535.98
644.38	1531.88
644.57	1607.66
644.76	1611.75
644.95	1507.30
645.14	1499.11
645.33	1523.69
645.52	1519.59
645.71	1507.30
645.89	1458.15
646.08	1558.50
646.27	1554.41
646.46	1619.94
646.65	1462.25
646.84	1495.02
647.03	1435.63
647.22	1593.32
647.40	1550.31
647.59	1544.17
647.78	1472.49
647.97	1538.02
648.16	1482.73
648.35	1560.55
648.54	1550.31
648.73	1490.92
648.91	1597.42
649.10	1564.65
649.29	1409.00
649.48	1540.07
649.67	1497.07
649.86	1535.98
650.05	1662.95
650.23	1722.34
650.42	1685.48
650.61	1697.77
650.80	1708.01
650.99	1769.44
651.18	1687.53
651.36	1665.00
651.55	1576.94
651.74	1593.32
651.93	1513.45
652.12	1589.22
652.31	1615.85
652.49	1558.50
652.68	1585.13
652.87	1566.70
653.06	1630.18
653.25	1644.52
653.44	1607.66
653.62	1642.47
653.81	1527.78
654.00	1619.94
654.19	1527.78
654.38	1609.70
654.56	1542.12
654.75	1445.87
654.94	1576.94
655.13	1599.46
655.32	1525.74
655.51	1542.12
655.69	1527.78
655.88	1535.98
656.07	1525.74
656.26	1507.30
656.45	1550.31
656.63	1562.60
656.82	1585.13
657.01	1624.04
657.20	1521.64
657.38	1581.03
657.57	1484.78
657.76	1495.02
657.95	1554.41
658.14	1515.50
658.32	1558.50
658.51	1452.01
658.70	1519.59
658.89	1587.18
659.08	1656.81
659.26	1685.48
659.45	1624.04
659.64	1665.00
659.83	1499.11
660.01	1701.86
660.20	1609.70
660.39	1591.27
660.58	1544.17
660.76	1576.94
660.95	1531.88
661.14	1564.65
661.33	1529.83
661.51	1527.78
661.70	1546.22
661.89	1658.85
662.08	1595.37
662.26	1527.78
662.45	1478.63
662.64	1646.57
662.83	1542.12
663.01	1583.08
663.20	1552.36
663.39	1609.70
663.58	1472.49
663.76	1554.41
663.95	1603.56
664.14	1509.35
664.32	1501.16
664.51	1501.16
664.70	1519.59
664.89	1585.13
665.07	1443.82
665.26	1617.90
665.45	1552.36
665.64	1617.90
665.82	1595.37
666.01	1583.08
666.20	1581.03
666.38	1642.47
666.57	1609.70
666.76	1791.97
666.95	2918.36
667.13	7610.25
667.32	15505.17
667.51	20033.23
667.69	23592.60
667.88	25386.62
668.07	22257.32
668.25	15398.68
668.44	12670.78
668.63	10063.72
668.81	8609.66
669.00	7761.80
669.19	7090.07
669.38	6455.20
669.56	5711.78
669.75	4968.37
669.94	4366.27
670.12	3416.01
670.31	2811.86
670.50	2445.27
670.68	2133.98
670.87	1886.18
671.06	1787.88
671.24	1744.87
671.43	1746.92
671.62	1642.47
671.80	1632.23
671.99	1681.38
672.18	1656.81
672.36	1576.94
672.55	1576.94
672.74	1523.69
672.92	1538.02
673.11	1621.99
673.29	1585.13
673.48	1562.60
673.67	1535.98
673.85	1591.27
674.04	1501.16
674.23	1533.93
674.41	1640.42
674.60	1548.26
674.79	1419.24
674.97	1515.50
675.16	1570.79
675.34	1591.27
675.53	1486.83
675.72	1558.50
675.90	1652.71
676.09	1513.45
676.28	1533.93
676.46	1495.02
676.65	1535.98
676.83	1474.54
677.02	1538.02
677.21	1562.60
677.39	1560.55
677.58	1509.35
677.77	1544.17
677.95	1482.73
678.14	1492.97
678.32	1607.66
678.51	1529.83
678.70	1626.09
678.88	1542.12
679.07	1476.59
679.25	1525.74
679.44	1566.70
679.63	1521.64
679.81	1591.27
680.00	1607.66
680.18	1558.50
680.37	1628.14
680.55	1535.98
680.74	1564.65
680.93	1531.88
681.11	1558.50
681.30	1529.83
681.48	1564.65
681.67	1519.59
681.85	1550.31
682.04	1497.07
682.23	1538.02
682.41	1593.32
682.60	1585.13
682.78	1550.31
682.97	1492.97
683.15	1517.54
683.34	1513.45
683.53	1658.85
683.71	1535.98
683.90	1632.23
684.08	1609.70
684.27	1501.16
684.45	1542.12
684.64	1626.09
684.82	1486.83
685.01	1531.88
685.19	1529.83
685.38	1538.02
685.57	1548.26
685.75	1529.83
685.94	1472.49
686.12	1517.54
686.31	1486.83
686.49	1642.47
686.68	1511.40
686.86	1587.18
687.05	1533.93
687.23	1656.81
687.42	1550.31
687.60	1517.54
687.79	1591.27
687.97	1558.50
688.16	1591.27
688.34	1525.74
688.53	1470.44
688.71	1548.26
688.90	1615.85
689.08	1501.16
689.27	1433.58
689.45	1560.55
689.64	1658.85
689.82	1583.08
690.01	1597.42
690.19	1542.12
690.38	1531.88
690.56	1583.08
690.75	1531.88
690.93	1478.63
691.12	1468.39
691.30	1501.16
691.49	1531.88
691.67	1472.49
691.86	1628.14
692.04	1525.74
692.23	1431.53
692.41	1607.66
692.60	1724.39
692.78	1677.29
692.97	1535.98
693.15	1669.09
693.34	1636.33
693.52	1595.37
693.71	1492.97
693.89	1558.50
694.08	1484.78
694.26	1591.27
694.44	1533.93
694.63	1583.08
694.81	1466.35
695.00	1511.40
695.18	1607.66
695.37	1570.79
695.55	1568.74
695.74	1519.59
695.92	1550.31
696.10	1615.85
696.29	1542.12
696.47	1542.12
696.66	1486.83
696.84	1525.74
697.03	1601.51
697.21	1611.75
697.40	2045.92
697.58	1546.22
697.76	1511.40
697.95	1531.88
698.13	1474.54
698.32	1556.46
698.50	1576.94
698.68	1554.41
698.87	1478.63
699.05	1611.75
699.24	1527.78
699.42	1497.07
699.61	1556.46
699.79	1544.17
699.97	1552.36
700.16	1529.83
700.34	1527.78
700.53	1515.50
700.71	1691.62
700.89	1548.26
701.08	1566.70
701.26	1525.74
701.45	1957.86
701.63	1527.78
701.81	1527.78
702.00	1521.64
702.18	1540.07
702.37	1533.93
702.55	1722.34
702.73	1673.19
702.92	1632.23
703.10	1701.86
703.28	1761.25
703.47	1757.16
703.65	1675.24
703.84	1652.71
704.02	1624.04
704.20	1656.81
704.39	1607.66
704.57	1556.46
704.75	1566.70
704.94	1634.28
705.12	1581.03
705.30	1669.09
705.49	1908.71
705.67	2861.01
705.86	7272.34
706.04	14554.91
706.22	18740.96
706.41	21872.31
706.59	22820.52
706.77	21034.69
706.96	14837.53
707.14	11779.92
707.32	9830.25
707.51	8652.67
707.69	7704.46
707.87	6762.39
708.06	5781.42
708.24	4636.60
708.42	3758.02
708.61	3008.47
708.79	2346.97
708.97	1990.63
709.16	1810.40
709.34	1800.16
709.52	1642.47
709.71	1617.90
709.89	1603.56
710.07	1587.18
710.26	1583.08
710.44	1576.94
710.62	1568.74
710.80	1554.41
710.99	1533.93
711.17	1560.55
711.35	1589.22
711.54	1621.99
711.72	1665.00
711.90	1566.70
712.09	1591.27
712.27	1589.22
712.45	1597.42
712.63	1452.01
712.82	1550.31
713.00	1474.54
713.18	1642.47
713.37	1615.85
713.55	1572.84
713.73	1570.79
713.91	1570.79
714.10	1458.15
714.28	1564.65
714.46	1613.80
714.65	1566.70
714.83	1503.21
715.01	1525.74
715.19	1501.16
715.38	1505.26
715.56	1599.46
715.74	1513.45
715.92	1478.63
716.11	1662.95
716.29	1470.44
716.47	1443.82
716.65	1654.76
716.84	1519.59
717.02	1619.94
717.20	1470.44
717.38	1533.93
717.57	1558.50
717.75	1544.17
717.93	1486.83
718.11	1585.13
718.30	1435.63
718.48	1632.23
718.66	1611.75
718.84	1581.03
719.03	1495.02
719.21	1490.92
719.39	1533.93
719.57	1511.40
719.75	1574.89
719.94	1437.67
720.12	1470.44
720.30	1576.94
720.48	1617.90
720.67	1595.37
720.85	1472.49
721.03	1482.73
721.21	1531.88
721.39	1611.75
721.58	1669.09
721.76	1583.08
721.94	1585.13
722.12	1527.78
722.30	1687.53
722.49	1486.83
722.67	1585.13
722.85	1624.04
723.03	1511.40
723.21	1509.35
723.40	1597.42
723.58	1632.23
723.76	1527.78
723.94	1642.47
724.12	1595.37
724.30	1685.48
724.49	1652.71
724.67	1581.03
724.85	1712.10
725.03	1546.22
725.21	1634.28
725.40	1591.27
725.58	1542.12
725.76	1609.70
725.94	1529.83
726.12	1486.83
726.30	1505.26
726.49	1566.70
726.67	1538.02
726.85	1484.78
727.03	1595.37
727.21	1730.53
727.39	2029.54
727.57	3213.26
727.76	4270.01
727.94	4933.56
728.12	5066.67
728.30	5115.83
728.48	4358.08
728.66	3536.84
728.84	3176.40
729.03	2877.40
729.21	2600.92
729.39	2287.58
729.57	2025.44
729.75	1828.84
729.93	1746.92
730.11	1662.95
730.30	1581.03
730.48	1542.12
730.66	1558.50
730.84	1576.94
731.02	1505.26
731.20	1509.35
731.38	1570.79
731.56	1525.74
731.74	1515.50
731.93	1501.16
732.11	1542.12
732.29	1513.45
732.47	1572.84
732.65	1560.55
732.83	1570.79
733.01	1585.13
733.19	1535.98
733.37	1560.55
733.56	1558.50
733.74	1576.94
733.92	1636.33
734.10	1462.25
734.28	1578.98
734.46	1486.83
734.64	1624.04
734.82	1587.18
735.00	1474.54
735.18	1544.17
735.36	1550.31
735.54	1564.65
735.73	1484.78
735.91	1552.36
736.09	1568.74
736.27	1556.46
736.45	1525.74
736.63	1429.48
736.81	1554.41
736.99	1550.31
737.17	1603.56
737.35	1552.36
737.53	1484.78
737.71	1503.21
737.89	1542.12
738.07	1507.30
738.25	1470.44
738.43	1425.39
738.61	1554.41
738.80	1505.26
738.98	1445.87
739.16	1476.59
739.34	1484.78
739.52	1558.50
739.70	1578.98
739.88	1574.89
740.06	1558.50
740.24	1480.68
740.42	1525.74
740.60	1445.87
740.78	1476.59
740.96	1486.83
741.14	1474.54
741.32	1585.13
741.50	1470.44
741.68	1583.08
741.86	1603.56
742.04	1540.07
742.22	1441.77
742.40	1560.55
742.58	1634.28
742.76	1470.44
742.94	1558.50
743.12	1462.25
743.30	1509.35
743.48	1542.12
743.66	1466.35
743.84	1458.15
744.02	1509.35
744.20	1542.12
744.38	1566.70
744.56	1509.35
744.74	1718.25
744.92	1574.89
745.10	1624.04
745.28	1535.98
745.46	1640.42
745.64	1503.21
745.82	1597.42
746.00	1609.70
746.18	1542.12
746.36	1488.87
746.54	1523.69
746.72	1566.70
746.90	1525.74
747.08	1642.47
747.26	1552.36
747.44	1560.55
747.62	1542.12
747.80	1517.54
747.98	1527.78
748.15	1542.12
748.33	1574.89
748.51	1583.08
748.69	1587.18
748.87	1574.89
749.05	1560.55
749.23	1515.50
749.41	1595.37
749.59	1542.12
749.77	1548.26
749.95	1497.07
750.13	1521.64
750.31	1517.54
750.49	1497.07
750.67	1521.64
750.85	1628.14
751.03	1535.98
751.20	1593.32
751.38	1542.12
751.56	1529.83
751.74	1495.02
751.92	1533.93
752.10	1503.21
752.28	1517.54
752.46	1480.68
752.64	1499.11
752.82	1562.60
753.00	1517.54
753.18	1613.80
753.35	1570.79
753.53	1544.17
753.71	1505.26
753.89	1630.18
754.07	1546.22
754.25	1619.94
754.43	1550.31
754.61	1454.06
754.79	1542.12
754.97	1540.07
755.14	1574.89
755.32	1501.16
755.50	1505.26
755.68	1546.22
755.86	1423.34
756.04	1490.92
756.22	1388.52
756.40	1601.51
756.57	1695.72
756.75	1472.49
756.93	1583.08
757.11	1587.18
757.29	1486.83
757.47	1535.98
757.65	1449.96
757.82	1437.67
758.00	1482.73
758.18	1484.78
758.36	1519.59
758.54	1595.37
758.72	1462.25
758.90	1603.56
759.07	1574.89
759.25	1519.59
759.43	1517.54
759.61	1523.69
759.79	1927.14
759.97	1533.93
760.15	1527.78
760.32	1527.78
760.50	1574.89
760.68	1585.13
760.86	1515.50
761.04	1591.27
761.22	1607.66
761.39	1535.98
761.57	1523.69
761.75	1482.73
761.93	1513.45
762.11	1570.79
762.28	1603.56
762.46	1505.26
762.64	1619.94
762.82	1454.06
763.00	1527.78
763.18	1628.14
763.35	1425.39
763.53	1583.08
763.71	1509.35
763.89	1531.88
764.07	1468.39
764.24	1554.41
764.42	1589.22
764.60	1523.69
764.78	1554.41
764.96	1509.35
765.13	1632.23
765.31	1486.83
765.49	1554.41
765.67	1497.07
765.84	1468.39
766.02	1550.31
766.20	1492.97
766.38	1562.60
766.56	1527.78
766.73	1550.31
766.91	1521.64
767.09	1538.02
767.27	1648.61
767.44	1529.83
767.62	1529.83
767.80	1503.21
767.98	1505.26
768.15	1509.35
768.33	1544.17
768.51	1562.60
768.69	1556.46
768.87	1556.46
769.04	1527.78
769.22	1603.56
769.40	1595.37
769.58	1654.76
769.75	1576.94
769.93	1583.08
770.11	1566.70
770.28	1523.69
770.46	1603.56
770.64	1568.74
770.82	1566.70
770.99	1566.70
771.17	1511.40
771.35	1495.02
771.53	1570.79
771.70	1603.56
771.88	1574.89
772.06	1529.83
772.23	1490.92
772.41	1566.70
772.59	1548.26
772.77	1482.73
772.94	1538.02
773.12	1538.02
773.30	1480.68
773.47	1505.26
773.65	1517.54
773.83	1583.08
774.01	1531.88
774.18	1445.87
774.36	1515.50
774.54	1501.16
774.71	1556.46
774.89	1423.34
775.07	1482.73
775.24	1515.50
775.42	1443.82
775.60	1562.60
775.78	1415.15
775.95	1509.35
776.13	1505.26
776.31	1437.67
776.48	1490.92
776.66	1570.79
776.84	1488.87
777.01	1452.01
777.19	1523.69
777.37	1527.78
777.54	1644.52
777.72	1585.13
777.90	1583.08
778.07	1515.50
778.25	1677.29
778.43	1519.59
778.60	1495.02
778.78	1478.63
778.96	1599.46
779.13	1449.96
779.31	1552.36
779.49	1574.89
779.66	1572.84
779.84	1501.16
780.01	1441.77
780.19	1538.02
780.37	1628.14
780.54	1613.80
780.72	1583.08
780.90	1523.69
781.07	1509.35
781.25	1488.87
781.43	1683.43
781.60	1486.83
781.78	1595.37
781.95	1529.83
782.13	1566.70
782.31	1507.30
782.48	1492.97
782.66	1535.98
782.83	1550.31
783.01	1521.64
783.19	1574.89
783.36	1505.26
783.54	1482.73
783.72	1607.66
783.89	1478.63
784.07	1544.17
784.24	1509.35
784.42	1621.99
784.60	1544.17
784.77	1574.89
784.95	1460.20
785.12	1452.01
785.30	1556.46
785.47	1452.01
785.65	1503.21
785.83	1517.54
786.00	1501.16
786.18	1513.45
786.35	1490.92
786.53	1554.41
786.71	1511.40
786.88	1542.12
787.06	1585.13
787.23	1624.04
787.41	1454.06
787.58	1550.31
787.76	1507.30
787.94	1548.26
788.11	1501.16
788.29	1531.88
788.46	1488.87
788.64	1460.20
788.81	1509.35
788.99	1390.57
789.16	1488.87
789.34	1495.02
789.52	1521.64
789.69	1495.02
789.87	1480.68
790.04	1488.87
790.22	1499.11
790.39	1681.38
790.57	1548.26
790.74	1511.40
790.92	1535.98
791.09	1482.73
791.27	1570.79
791.44	1636.33
791.62	1466.35
791.79	1578.98
791.97	1560.55
792.15	1660.90
792.32	1576.94
792.50	1523.69
792.67	1667.05
792.85	1591.27
793.02	1560.55
793.20	1488.87
793.37	1419.24
793.55	1591.27
793.72	1470.44
793.90	1544.17
794.07	1472.49
794.25	1513.45
794.42	1552.36
794.60	1511.40
794.77	1566.70
794.95	1525.74
795.12	1521.64
795.30	1509.35
795.47	1443.82
795.65	1617.90
795.82	1492.97
796.00	1476.59
796.17	1519.59
796.34	1523.69
796.52	1505.26
796.69	1505.26
796.87	1548.26
797.04	1513.45
797.22	1560.55
797.39	1615.85
797.57	1546.22
797.74	1544.17
797.92	1572.84
798.09	1468.39
798.27	1581.03
798.44	1488.87
798.62	1538.02
798.79	1619.94
798.96	1515.50
799.14	1515.50
799.31	1621.99
799.49	1554.41
799.66	1484.78
799.84	1611.75
800.01	1503.21
800.19	1497.07
800.36	1488.87
800.53	1538.02
800.71	1560.55
800.88	1566.70
801.06	1562.60
801.23	1538.02
801.41	1501.16
801.58	1525.74
801.75	1406.95
801.93	1525.74
802.10	1552.36
802.28	1560.55
802.45	1583.08
802.63	1619.94
802.80	1609.70
802.97	1482.73
803.15	1515.50
803.32	1535.98
803.50	1482.73
803.67	1544.17
803.84	1505.26
804.02	1535.98
804.19	1482.73
804.37	1486.83
804.54	1507.30
804.71	1472.49
804.89	1540.07
805.06	1480.68
805.24	1546.22
805.41	1482.73
805.58	1480.68
805.76	1656.81
805.93	1548.26
806.10	1581.03
806.28	1566.70
806.45	1560.55
806.63	1519.59
806.80	1552.36
806.97	1519.59
807.15	1501.16
807.32	1495.02
807.49	1583.08
807.67	1501.16
807.84	1542.12
808.01	1433.58
808.19	1542.12
808.36	1548.26
808.54	1560.55
808.71	1478.63
808.88	1554.41
809.06	1544.17
809.23	1583.08
809.40	1497.07
809.58	1632.23
809.75	1540.07
809.92	1509.35
810.10	1662.95
810.27	1570.79
810.44	1523.69
810.62	1632.23
810.79	1578.98
810.96	1497.07
811.14	1488.87
811.31	1521.64
811.48	1540.07
811.66	1523.69
811.83	1560.55
812.00	1601.51
812.18	1566.70
812.35	1640.42
812.52	1454.06
812.69	1525.74
812.87	1544.17
813.04	1482.73
813.21	1527.78
813.39	1486.83
813.56	1495.02
813.73	1554.41
813.91	1472.49
814.08	1574.89
814.25	1556.46
814.42	1548.26
814.60	1542.12
814.77	1495.02
814.94	1542.12
815.12	1503.21
815.29	1638.38
815.46	1376.24
815.63	1523.69
815.81	1589.22
815.98	1544.17
816.15	1560.55
816.33	1529.83
816.50	1568.74
816.67	1548.26
816.84	1533.93
817.02	1511.40
817.19	1497.07
817.36	1585.13
817.53	1619.94
817.71	1550.31
817.88	1589.22
818.05	1503.21
818.22	1544.17
818.40	1587.18
818.57	1556.46
818.74	1595.37
818.91	1548.26
819.09	1611.75
819.26	1615.85
819.43	1505.26
819.60	1482.73
819.78	1589.22
819.95	1626.09
820.12	1439.72
820.29	1685.48
820.47	1632.23
820.64	1462.25
820.81	1445.87
820.98	1449.96
821.15	1527.78
821.33	1527.78
821.50	1452.01
821.67	1511.40
821.84	1499.11
822.02	1544.17
822.19	1562.60
822.36	1437.67
822.53	1558.50
822.70	1468.39
822.88	1521.64
823.05	1617.90
823.22	1566.70
823.39	1619.94
823.56	1550.31
823.74	1624.04
823.91	1529.83
824.08	1570.79
824.25	1415.15
824.42	1671.14
824.60	1429.48
824.77	1525.74
824.94	1503.21
825.11	1576.94
825.28	1499.11
825.45	1515.50
825.63	1570.79
825.80	1521.64
825.97	1552.36
826.14	1570.79
826.31	1505.26
826.48	1566.70
826.66	1556.46
826.83	1484.78
827.00	1564.65
827.17	1556.46
827.34	1495.02
827.51	1558.50
827.69	1515.50
827.86	1486.83
828.03	1568.74
828.20	1576.94
828.37	1517.54
828.54	1533.93
828.71	1411.05
828.89	1597.42
829.06	1628.14
829.23	1544.17
829.40	1538.02
829.57	1519.59
829.74	1587.18
829.91	1535.98
830.09	1525.74
830.26	1587.18
830.43	1535.98
830.60	1535.98
830.77	1572.84
830.94	1601.51
831.11	1593.32
831.28	1544.17
831.46	1464.30
831.63	1562.60
831.80	1480.68
831.97	1509.35
832.14	1495.02
832.31	1576.94
832.48	1505.26
832.65	1507.30
832.82	1546.22
832.99	1523.69
833.17	1484.78
833.34	1617.90
833.51	1597.42
833.68	1449.96
833.85	1544.17
834.02	1486.83
834.19	1490.92
834.36	1525.74
834.53	1509.35
834.70	1533.93
834.87	1529.83
835.04	1525.74
835.22	1478.63
835.39	1429.48
835.56	1480.68
835.73	1609.70
835.90	1574.89
836.07	1460.20
836.24	1581.03
836.41	1554.41
836.58	1478.63
836.75	1515.50
836.92	1550.31
837.09	1454.06
837.26	1654.76
837.43	1519.59
837.60	1540.07
837.77	1560.55
837.94	1564.65
838.12	1535.98
838.29	1554.41
838.46	1495.02
838.63	1419.24
838.80	1660.90
838.97	1525.74
839.14	1550.31
839.31	1533.93
839.48	1601.51
839.65	1548.26
839.82	1509.35
839.99	1591.27
840.16	1585.13
840.33	1513.45
840.50	1531.88
840.67	1515.50
840.84	1380.33
841.01	1548.26
841.18	1503.21
841.35	1589.22
841.52	1552.36
841.69	1656.81
841.86	1542.12
842.03	1581.03
842.20	1703.91
842.37	1566.70
842.54	1517.54
842.71	1550.31
842.88	1583.08
843.05	1513.45
843.22	1566.70
843.39	1519.59
843.56	1490.92
843.73	1525.74
843.90	1501.16
844.07	1585.13
844.24	1583.08
844.41	1562.60
844.58	1566.70
844.75	1531.88
844.92	1564.65
845.09	1585.13
845.26	1538.02
845.43	1503.21
845.60	1513.45
845.77	1595.37
845.94	1605.61
846.10	1621.99
846.27	1474.54
846.44	1427.43
846.61	1607.66
846.78	1572.84
846.95	1589.22
847.12	1499.11
847.29	1568.74
847.46	1486.83
847.63	1556.46
847.80	1531.88
847.97	1560.55
848.14	1589.22
848.31	1544.17
848.48	1472.49
848.65	1517.54
848.82	1458.15
848.98	1591.27
849.15	1533.93
849.32	1556.46
849.49	1562.60
849.66	1497.07
849.83	1533.93
850.00	1538.02
850.17	1636.33
850.34	1492.97
850.51	1505.26
850.68	1495.02
850.85	1654.76
851.01	1585.13
851.18	1531.88
851.35	1488.87
851.52	1505.26
851.69	1589.22
851.86	1554.41
852.03	1523.69
852.20	1540.07
852.37	1484.78
852.53	1515.50
852.70	1542.12
852.87	1488.87
853.04	1619.94
853.21	1535.98
853.38	1484.78
853.55	1511.40
853.72	1624.04
853.89	1535.98
854.05	1468.39
854.22	1509.35
854.39	1515.50
854.56	1544.17
854.73	1560.55
854.90	1556.46
855.07	1533.93
855.23	1589.22
855.40	1540.07
855.57	1478.63
855.74	1468.39
855.91	1710.05
856.08	1503.21
856.25	1484.78
856.41	1572.84
856.58	1503.21
856.75	1566.70
856.92	1490.92
857.09	1501.16
857.26	1441.77
857.42	1544.17
857.59	1550.31
857.76	1538.02
857.93	1603.56
858.10	1574.89
858.27	1398.76
858.43	1525.74
858.60	1476.59
858.77	1486.83
858.94	1443.82
859.11	1570.79
859.27	1562.60
859.44	1558.50
859.61	1583.08
859.78	1621.99
859.95	1527.78
860.12	1468.39
860.28	1662.95
860.45	1552.36
860.62	1497.07
860.79	1546.22
860.95	1521.64
861.12	1505.26
861.29	1501.16
861.46	1538.02
861.63	1480.68
861.79	1550.31
861.96	1492.97
862.13	1495.02
862.30	1611.75
862.47	1499.11
862.63	1458.15
862.80	1597.42
862.97	1468.39
863.14	1468.39
863.30	1562.60
863.47	1495.02
863.64	1564.65
863.81	1554.41
863.97	1597.42
864.14	1560.55
864.31	1435.63
864.48	1470.44
864.65	1566.70
864.81	1550.31
864.98	1517.54
865.15	1554.41
865.32	1554.41
865.48	1566.70
865.65	1556.46
865.82	1558.50
865.98	1546.22
866.15	1636.33
866.32	1568.74
866.49	1538.02
866.65	1560.55
866.82	1452.01
866.99	1560.55
867.16	1552.36
867.32	1538.02
867.49	1480.68
867.66	1486.83
867.83	1546.22
867.99	1488.87
868.16	1519.59
868.33	1505.26
868.49	1490.92
868.66	1566.70
868.83	1648.61
868.99	1505.26
869.16	1517.54
869.33	1581.03
869.50	1599.46
869.66	1503.21
869.83	1558.50
870.00	1413.10
870.16	1574.89
870.33	1484.78
870.50	1533.93
870.66	1548.26
870.83	1644.52
871.00	1554.41
871.17	1646.57
871.33	1562.60
871.50	1540.07
871.67	1558.50
871.83	1411.05
872.00	1603.56
872.17	1542.12
872.33	1589.22
872.50	1550.31
872.67	1437.67
872.83	1492.97
873.00	1634.28
873.17	1591.27
873.33	1607.66
873.50	1603.56
873.67	1472.49
873.83	1519.59
874.00	1523.69
874.16	1607.66
874.33	1576.94
874.50	1458.15
874.66	1564.65
874.83	1529.83
875.00	1574.89
875.16	1521.64
875.33	1613.80
875.50	1404.91
875.66	1503.21
875.83	1576.94
875.99	1605.61
876.16	1568.74
876.33	1386.47
876.49	1538.02
876.66	1552.36
876.83	1462.25
876.99	1454.06
877.16	1548.26
877.32	1527.78
877.49	1433.58
877.66	1492.97
877.82	1609.70
877.99	1544.17
878.15	1599.46
878.32	1652.71
878.49	1535.98
878.65	1527.78
878.82	1525.74
878.98	1466.35
879.15	1517.54
879.32	1503.21
879.48	1527.78
879.65	1429.48
879.81	1509.35
879.98	1470.44
880.15	1460.20
880.31	1552.36
880.48	1509.35
880.64	1591.27
880.81	1552.36
880.97	1609.70
881.14	1597.42
881.31	1511.40
881.47	1640.42
881.64	1556.46
881.80	1460.20
881.97	1603.56
882.13	1578.98
882.30	1464.30
882.47	1509.35
882.63	1400.81
882.80	1507.30
882.96	1511.40
883.13	1667.05
883.29	1531.88
883.46	1525.74
883.62	1570.79
883.79	1515.50
883.95	1529.83
884.12	1499.11
884.29	1568.74
884.45	1490.92
884.62	1519.59
884.78	1525.74
884.95	1607.66
885.11	1458.15
885.28	1476.59
885.44	1574.89
885.61	1599.46
885.77	1548.26
885.94	1513.45
886.10	1544.17
886.27	1521.64
886.43	1609.70
886.60	1599.46
886.76	1546.22
886.93	1480.68
887.09	1615.85
887.26	1468.39
887.42	1535.98
887.59	1538.02
887.75	1669.09
887.92	1531.88
888.08	1646.57
888.25	1570.79
888.41	1533.93
888.58	1544.17
888.74	1447.91
888.91	1529.83
>>>>>End Processed Spectral Data<<<<<
