SpectraSuite Data File
++++++++++++++++++++++++++++++++++++
Date: Tue May 03 12:55:26 CEST 2016
User: root
Dark Spectrum Present: No
Reference Spectrum Present: No
Number of Sampled Component Spectra: 1
Spectrometers: USB4C02835
Integration Time (usec): 100000 (USB4C02835)
Spectra Averaged: 1 (USB4C02835)
Boxcar Smoothing: 0 (USB4C02835)
Correct for Electrical Dark: No (USB4C02835)
Strobe/Lamp Enabled: No (USB4C02835)
Correct for Detector Non-linearity: No (USB4C02835)
Correct for Stray Light: No (USB4C02835)
Number of Pixels in Processed Spectrum: 3648
>>>>>Begin Processed Spectral Data<<<<<
177.47	1361.90
177.69	1361.90
177.91	1361.90
178.13	1243.12
178.36	1259.50
178.58	1466.35
178.80	1605.61
179.02	1443.82
179.24	1492.97
179.46	1480.68
179.68	1568.74
179.90	1480.68
180.13	1521.64
180.35	1574.89
180.57	1505.26
180.79	1513.45
181.01	1550.31
181.23	1595.37
181.45	1587.18
181.67	1578.98
181.90	1656.81
182.12	1492.97
182.34	1505.26
182.56	1544.17
182.78	1482.73
183.00	1466.35
183.22	1535.98
183.44	1460.20
183.66	1644.52
183.89	1626.09
184.11	1603.56
184.33	1503.21
184.55	1527.78
184.77	1560.55
184.99	1509.35
185.21	1495.02
185.43	1615.85
185.65	1462.25
185.87	1519.59
186.10	1574.89
186.32	1689.57
186.54	1609.70
186.76	1593.32
186.98	1591.27
187.20	1552.36
187.42	1521.64
187.64	1505.26
187.86	1468.39
188.08	1581.03
188.30	1540.07
188.52	1599.46
188.75	1529.83
188.97	1665.00
189.19	1517.54
189.41	1540.07
189.63	1636.33
189.85	1470.44
190.07	1429.48
190.29	1521.64
190.51	1548.26
190.73	1460.20
190.95	1658.85
191.17	1515.50
191.39	1452.01
191.61	1550.31
191.84	1509.35
192.06	1548.26
192.28	1474.54
192.50	1617.90
192.72	1556.46
192.94	1476.59
193.16	1581.03
193.38	1544.17
193.60	1488.87
193.82	1554.41
194.04	1658.85
194.26	1472.49
194.48	1515.50
194.70	1503.21
194.92	1562.60
195.14	1542.12
195.36	1560.55
195.58	1515.50
195.80	1566.70
196.02	1445.87
196.24	1576.94
196.46	1597.42
196.69	1574.89
196.91	1662.95
197.13	1503.21
197.35	1484.78
197.57	1535.98
197.79	1581.03
198.01	1581.03
198.23	1615.85
198.45	1515.50
198.67	1542.12
198.89	1552.36
199.11	1558.50
199.33	1521.64
199.55	1458.15
199.77	1501.16
199.99	1587.18
200.21	1499.11
200.43	1529.83
200.65	1507.30
200.87	1482.73
201.09	1466.35
201.31	1517.54
201.53	1548.26
201.75	1636.33
201.97	1527.78
202.19	1626.09
202.41	1535.98
202.63	1632.23
202.85	1617.90
203.07	1560.55
203.29	1589.22
203.51	1523.69
203.73	1521.64
203.95	1699.81
204.17	1484.78
204.39	1560.55
204.61	1540.07
204.83	1535.98
205.05	1540.07
205.27	1599.46
205.49	1644.52
205.71	1591.27
205.93	1443.82
206.15	1527.78
206.37	1597.42
206.59	1542.12
206.81	1486.83
207.03	1556.46
207.25	1531.88
207.47	1554.41
207.69	1570.79
207.91	1603.56
208.13	1540.07
208.34	1495.02
208.56	1429.48
208.78	1478.63
209.00	1507.30
209.22	1445.87
209.44	1458.15
209.66	1548.26
209.88	1482.73
210.10	1525.74
210.32	1472.49
210.54	1609.70
210.76	1519.59
210.98	1583.08
211.20	1423.34
211.42	1619.94
211.64	1601.51
211.86	1558.50
212.08	1544.17
212.30	1593.32
212.52	1535.98
212.74	1531.88
212.96	1546.22
213.17	1525.74
213.39	1609.70
213.61	1660.90
213.83	1546.22
214.05	1568.74
214.27	1509.35
214.49	1468.39
214.71	1519.59
214.93	1581.03
215.15	1531.88
215.37	1626.09
215.59	1503.21
215.81	1642.47
216.03	1675.24
216.24	1542.12
216.46	1554.41
216.68	1552.36
216.90	1531.88
217.12	1501.16
217.34	1609.70
217.56	1597.42
217.78	1634.28
218.00	1562.60
218.22	1538.02
218.44	1482.73
218.66	1554.41
218.87	1603.56
219.09	1548.26
219.31	1585.13
219.53	1445.87
219.75	1501.16
219.97	1521.64
220.19	1554.41
220.41	1480.68
220.63	1665.00
220.85	1560.55
221.06	1517.54
221.28	1570.79
221.50	1605.61
221.72	1558.50
221.94	1540.07
222.16	1515.50
222.38	1603.56
222.60	1697.77
222.82	1554.41
223.03	1566.70
223.25	1484.78
223.47	1615.85
223.69	1607.66
223.91	1535.98
224.13	1470.44
224.35	1501.16
224.57	1595.37
224.78	1523.69
225.00	1484.78
225.22	1554.41
225.44	1550.31
225.66	1603.56
225.88	1452.01
226.10	1548.26
226.32	1525.74
226.53	1644.52
226.75	1521.64
226.97	1595.37
227.19	1462.25
227.41	1492.97
227.63	1495.02
227.85	1429.48
228.06	1527.78
228.28	1513.45
228.50	1576.94
228.72	1533.93
228.94	1538.02
229.16	1544.17
229.37	1474.54
229.59	1546.22
229.81	1613.80
230.03	1480.68
230.25	1466.35
230.47	1531.88
230.69	1411.05
230.90	1638.38
231.12	1488.87
231.34	1529.83
231.56	1556.46
231.78	1468.39
232.00	1550.31
232.21	1495.02
232.43	1521.64
232.65	1460.20
232.87	1562.60
233.09	1544.17
233.30	1540.07
233.52	1495.02
233.74	1581.03
233.96	1583.08
234.18	1505.26
234.40	1564.65
234.61	1574.89
234.83	1456.11
235.05	1435.63
235.27	1558.50
235.49	1621.99
235.70	1583.08
235.92	1556.46
236.14	1601.51
236.36	1619.94
236.58	1458.15
236.79	1554.41
237.01	1488.87
237.23	1499.11
237.45	1632.23
237.67	1523.69
237.88	1566.70
238.10	1642.47
238.32	1466.35
238.54	1466.35
238.76	1470.44
238.97	1507.30
239.19	1572.84
239.41	1562.60
239.63	1591.27
239.85	1482.73
240.06	1499.11
240.28	1525.74
240.50	1523.69
240.72	1562.60
240.93	1597.42
241.15	1542.12
241.37	1562.60
241.59	1591.27
241.81	1492.97
242.02	1574.89
242.24	1568.74
242.46	1617.90
242.68	1533.93
242.89	1585.13
243.11	1597.42
243.33	1499.11
243.55	1619.94
243.76	1599.46
243.98	1460.20
244.20	1595.37
244.42	1490.92
244.64	1542.12
244.85	1490.92
245.07	1505.26
245.29	1593.32
245.51	1470.44
245.72	1644.52
245.94	1597.42
246.16	1591.27
246.38	1656.81
246.59	1546.22
246.81	1511.40
247.03	1503.21
247.24	1421.29
247.46	1460.20
247.68	1527.78
247.90	1630.18
248.11	1501.16
248.33	1523.69
248.55	1492.97
248.77	1550.31
248.98	1624.04
249.20	1605.61
249.42	1542.12
249.64	1521.64
249.85	1533.93
250.07	1495.02
250.29	1595.37
250.50	1517.54
250.72	1427.43
250.94	1570.79
251.16	1593.32
251.37	1581.03
251.59	1525.74
251.81	1535.98
252.02	1599.46
252.24	1535.98
252.46	1619.94
252.68	1517.54
252.89	1499.11
253.11	1417.19
253.33	1675.24
253.54	1601.51
253.76	1523.69
253.98	1486.83
254.20	1529.83
254.41	1542.12
254.63	1474.54
254.85	1429.48
255.06	1601.51
255.28	1507.30
255.50	1505.26
255.71	1497.07
255.93	1464.30
256.15	1486.83
256.36	1505.26
256.58	1581.03
256.80	1542.12
257.02	1443.82
257.23	1568.74
257.45	1503.21
257.67	1570.79
257.88	1509.35
258.10	1497.07
258.32	1533.93
258.53	1552.36
258.75	1624.04
258.97	1492.97
259.18	1603.56
259.40	1480.68
259.62	1607.66
259.83	1574.89
260.05	1566.70
260.27	1816.55
260.48	1574.89
260.70	1441.77
260.92	1583.08
261.13	1578.98
261.35	1513.45
261.57	1468.39
261.78	1533.93
262.00	1398.76
262.22	1546.22
262.43	1470.44
262.65	1406.95
262.86	1484.78
263.08	1525.74
263.30	1576.94
263.51	1525.74
263.73	1525.74
263.95	1609.70
264.16	1507.30
264.38	1527.78
264.60	1546.22
264.81	1533.93
265.03	1613.80
265.25	1542.12
265.46	1474.54
265.68	1550.31
265.89	1632.23
266.11	1525.74
266.33	1533.93
266.54	1593.32
266.76	1492.97
266.98	1542.12
267.19	1607.66
267.41	1593.32
267.62	1517.54
267.84	1466.35
268.06	1544.17
268.27	1583.08
268.49	1624.04
268.70	1605.61
268.92	1560.55
269.14	1460.20
269.35	1525.74
269.57	1533.93
269.79	1607.66
270.00	1484.78
270.22	1589.22
270.43	1529.83
270.65	1415.15
270.87	1529.83
271.08	1511.40
271.30	1597.42
271.51	1503.21
271.73	1558.50
271.95	1603.56
272.16	1480.68
272.38	1552.36
272.59	1490.92
272.81	1488.87
273.02	1468.39
273.24	1540.07
273.46	1513.45
273.67	1417.19
273.89	1546.22
274.10	1462.25
274.32	1570.79
274.54	1574.89
274.75	1517.54
274.97	1482.73
275.18	1574.89
275.40	1568.74
275.61	1517.54
275.83	1542.12
276.05	1486.83
276.26	1439.72
276.48	1587.18
276.69	1572.84
276.91	1425.39
277.12	1513.45
277.34	1576.94
277.55	1617.90
277.77	1515.50
277.99	1513.45
278.20	1478.63
278.42	1454.06
278.63	1462.25
278.85	1578.98
279.06	1517.54
279.28	1558.50
279.49	1599.46
279.71	1529.83
279.93	1538.02
280.14	1538.02
280.36	1441.77
280.57	1540.07
280.79	1497.07
281.00	1550.31
281.22	1431.53
281.43	1585.13
281.65	1409.00
281.86	1492.97
282.08	1540.07
282.29	1599.46
282.51	1486.83
282.73	1435.63
282.94	1527.78
283.16	1660.90
283.37	1595.37
283.59	1509.35
283.80	1587.18
284.02	1509.35
284.23	1554.41
284.45	1513.45
284.66	1503.21
284.88	1546.22
285.09	1591.27
285.31	1615.85
285.52	1513.45
285.74	1435.63
285.95	1591.27
286.17	1626.09
286.38	1619.94
286.60	1544.17
286.81	1476.59
287.03	1478.63
287.24	1542.12
287.46	1544.17
287.67	1562.60
287.89	1624.04
288.10	1554.41
288.32	1560.55
288.53	1638.38
288.75	1525.74
288.96	1613.80
289.18	1560.55
289.39	1517.54
289.61	1607.66
289.82	1550.31
290.04	1617.90
290.25	1552.36
290.47	1505.26
290.68	1507.30
290.90	1597.42
291.11	1445.87
291.33	1505.26
291.54	1431.53
291.76	1443.82
291.97	1517.54
292.18	1560.55
292.40	1517.54
292.61	1533.93
292.83	1626.09
293.04	1564.65
293.26	1546.22
293.47	1482.73
293.69	1505.26
293.90	1583.08
294.12	1540.07
294.33	1501.16
294.55	1507.30
294.76	1533.93
294.97	1630.18
295.19	1628.14
295.40	1499.11
295.62	1624.04
295.83	1585.13
296.05	1503.21
296.26	1628.14
296.48	1431.53
296.69	1517.54
296.90	1470.44
297.12	1548.26
297.33	1587.18
297.55	1449.96
297.76	1515.50
297.98	1558.50
298.19	1548.26
298.41	1503.21
298.62	1452.01
298.83	1562.60
299.05	1550.31
299.26	1566.70
299.48	1511.40
299.69	1515.50
299.90	1544.17
300.12	1509.35
300.33	1572.84
300.55	1523.69
300.76	1576.94
300.98	1480.68
301.19	1554.41
301.40	1517.54
301.62	1546.22
301.83	1544.17
302.05	1554.41
302.26	1529.83
302.47	1605.61
302.69	1542.12
302.90	1550.31
303.12	1396.71
303.33	1550.31
303.54	1648.61
303.76	1441.77
303.97	1558.50
304.19	1634.28
304.40	1452.01
304.61	1515.50
304.83	1613.80
305.04	1621.99
305.26	1550.31
305.47	1538.02
305.68	1556.46
305.90	1566.70
306.11	1533.93
306.33	1488.87
306.54	1519.59
306.75	1501.16
306.97	1480.68
307.18	1517.54
307.39	1476.59
307.61	1556.46
307.82	1589.22
308.04	1509.35
308.25	1441.77
308.46	1591.27
308.68	1521.64
308.89	1562.60
309.10	1656.81
309.32	1583.08
309.53	1474.54
309.74	1509.35
309.96	1599.46
310.17	1484.78
310.39	1529.83
310.60	1542.12
310.81	1538.02
311.03	1562.60
311.24	1544.17
311.45	1556.46
311.67	1587.18
311.88	1470.44
312.09	1525.74
312.31	1486.83
312.52	1548.26
312.73	1591.27
312.95	1492.97
313.16	1521.64
313.37	1640.42
313.59	1478.63
313.80	1615.85
314.01	1599.46
314.23	1505.26
314.44	1531.88
314.65	1484.78
314.87	1441.77
315.08	1535.98
315.29	1501.16
315.51	1550.31
315.72	1497.07
315.93	1595.37
316.15	1574.89
316.36	1480.68
316.57	1544.17
316.79	1499.11
317.00	1433.58
317.21	1615.85
317.43	1507.30
317.64	1497.07
317.85	1462.25
318.07	1572.84
318.28	1669.09
318.49	1699.81
318.70	1787.88
318.92	1712.10
319.13	1687.53
319.34	1755.11
319.56	1656.81
319.77	1642.47
319.98	1585.13
320.20	1636.33
320.41	1599.46
320.62	1683.43
320.83	1476.59
321.05	1617.90
321.26	1515.50
321.47	1454.06
321.69	1576.94
321.90	1499.11
322.11	1583.08
322.32	1589.22
322.54	1617.90
322.75	1513.45
322.96	1544.17
323.18	1495.02
323.39	1472.49
323.60	1411.05
323.81	1593.32
324.03	1482.73
324.24	1519.59
324.45	1529.83
324.66	1558.50
324.88	1603.56
325.09	1542.12
325.30	1482.73
325.52	1558.50
325.73	1576.94
325.94	1517.54
326.15	1517.54
326.37	1523.69
326.58	1630.18
326.79	1486.83
327.00	1460.20
327.22	1535.98
327.43	1476.59
327.64	1503.21
327.85	1591.27
328.07	1558.50
328.28	1634.28
328.49	1523.69
328.70	1525.74
328.92	1470.44
329.13	1583.08
329.34	1576.94
329.55	1638.38
329.76	1544.17
329.98	1480.68
330.19	1529.83
330.40	1593.32
330.61	1509.35
330.83	1593.32
331.04	1548.26
331.25	1538.02
331.46	1499.11
331.68	1462.25
331.89	1562.60
332.10	1515.50
332.31	1437.67
332.52	1583.08
332.74	1583.08
332.95	1480.68
333.16	1570.79
333.37	1570.79
333.58	1495.02
333.80	1497.07
334.01	1435.63
334.22	1458.15
334.43	1560.55
334.64	1521.64
334.86	1527.78
335.07	1480.68
335.28	1613.80
335.49	1474.54
335.70	1611.75
335.92	1591.27
336.13	1646.57
336.34	1570.79
336.55	1538.02
336.76	1535.98
336.98	1495.02
337.19	1574.89
337.40	1679.33
337.61	1617.90
337.82	1556.46
338.04	1533.93
338.25	1462.25
338.46	1624.04
338.67	1468.39
338.88	1488.87
339.09	1509.35
339.31	1490.92
339.52	1464.30
339.73	1482.73
339.94	1535.98
340.15	1566.70
340.36	1476.59
340.58	1533.93
340.79	1484.78
341.00	1591.27
341.21	1517.54
341.42	1601.51
341.63	1505.26
341.85	1609.70
342.06	1531.88
342.27	1433.58
342.48	1591.27
342.69	1458.15
342.90	1583.08
343.12	1517.54
343.33	1480.68
343.54	1503.21
343.75	1648.61
343.96	1538.02
344.17	1452.01
344.38	1501.16
344.60	1576.94
344.81	1552.36
345.02	1484.78
345.23	1626.09
345.44	1595.37
345.65	1564.65
345.86	1533.93
346.07	1527.78
346.29	1447.91
346.50	1560.55
346.71	1550.31
346.92	1544.17
347.13	1562.60
347.34	1495.02
347.55	1511.40
347.76	1560.55
347.98	1454.06
348.19	1527.78
348.40	1632.23
348.61	1466.35
348.82	1509.35
349.03	1601.51
349.24	1560.55
349.45	1660.90
349.66	1490.92
349.88	1544.17
350.09	1542.12
350.30	1497.07
350.51	1624.04
350.72	1544.17
350.93	1521.64
351.14	1533.93
351.35	1517.54
351.56	1566.70
351.77	1558.50
351.99	1523.69
352.20	1601.51
352.41	1595.37
352.62	1470.44
352.83	1413.10
353.04	1619.94
353.25	1492.97
353.46	1589.22
353.67	1523.69
353.88	1452.01
354.09	1535.98
354.30	1509.35
354.52	1581.03
354.73	1517.54
354.94	1554.41
355.15	1527.78
355.36	1581.03
355.57	1509.35
355.78	1544.17
355.99	1538.02
356.20	1531.88
356.41	1607.66
356.62	1540.07
356.83	1548.26
357.04	1624.04
357.25	1419.24
357.46	1542.12
357.68	1456.11
357.89	1533.93
358.10	1605.61
358.31	1597.42
358.52	1525.74
358.73	1484.78
358.94	1560.55
359.15	1454.06
359.36	1568.74
359.57	1554.41
359.78	1499.11
359.99	1540.07
360.20	1521.64
360.41	1488.87
360.62	1583.08
360.83	1581.03
361.04	1505.26
361.25	1570.79
361.46	1599.46
361.67	1562.60
361.88	1576.94
362.09	1525.74
362.30	1513.45
362.51	1513.45
362.72	1597.42
362.93	1558.50
363.14	1599.46
363.35	1605.61
363.56	1501.16
363.78	1632.23
363.99	1597.42
364.20	1556.46
364.41	1556.46
364.62	1646.57
364.83	1572.84
365.04	1531.88
365.25	1507.30
365.46	1632.23
365.67	1605.61
365.88	1609.70
366.09	1535.98
366.30	1495.02
366.51	1509.35
366.72	1523.69
366.93	1511.40
367.14	1546.22
367.35	1576.94
367.56	1607.66
367.77	1597.42
367.98	1566.70
368.18	1591.27
368.39	1568.74
368.60	1511.40
368.81	1558.50
369.02	1495.02
369.23	1474.54
369.44	1501.16
369.65	1558.50
369.86	1533.93
370.07	1613.80
370.28	1564.65
370.49	1619.94
370.70	1624.04
370.91	1476.59
371.12	1466.35
371.33	1544.17
371.54	1538.02
371.75	1515.50
371.96	1462.25
372.17	1566.70
372.38	1550.31
372.59	1546.22
372.80	1527.78
373.01	1562.60
373.22	1511.40
373.43	1449.96
373.64	1472.49
373.85	1558.50
374.06	1593.32
374.26	1548.26
374.47	1538.02
374.68	1671.14
374.89	1435.63
375.10	1550.31
375.31	1560.55
375.52	1546.22
375.73	1576.94
375.94	1540.07
376.15	1587.18
376.36	1462.25
376.57	1445.87
376.78	1542.12
376.99	1458.15
377.20	1542.12
377.40	1511.40
377.61	1581.03
377.82	1503.21
378.03	1558.50
378.24	1574.89
378.45	1548.26
378.66	1632.23
378.87	1429.48
379.08	1509.35
379.29	1525.74
379.50	1535.98
379.71	1511.40
379.91	1574.89
380.12	1482.73
380.33	1515.50
380.54	1478.63
380.75	1499.11
380.96	1517.54
381.17	1714.15
381.38	1548.26
381.59	1656.81
381.80	1611.75
382.00	1611.75
382.21	1564.65
382.42	1689.57
382.63	1728.49
382.84	1607.66
383.05	1595.37
383.26	1609.70
383.47	1550.31
383.68	1566.70
383.88	1603.56
384.09	1517.54
384.30	1628.14
384.51	1542.12
384.72	1568.74
384.93	1460.20
385.14	1566.70
385.35	1689.57
385.55	1554.41
385.76	1628.14
385.97	1509.35
386.18	1519.59
386.39	1599.46
386.60	1552.36
386.81	1617.90
387.02	1511.40
387.22	1593.32
387.43	1615.85
387.64	1662.95
387.85	1875.94
388.06	3186.64
388.27	7268.24
388.48	10884.95
388.68	12465.99
388.89	14090.02
389.10	13068.09
389.31	10192.74
389.52	8914.81
389.73	7833.48
389.93	7360.40
390.14	6918.04
390.35	6373.28
390.56	5703.59
390.77	4628.41
390.98	3549.13
391.18	2846.68
391.39	2189.28
391.60	1763.30
391.81	1728.49
392.02	1624.04
392.23	1703.91
392.43	1619.94
392.64	1628.14
392.85	1607.66
393.06	1685.48
393.27	1566.70
393.47	1546.22
393.68	1568.74
393.89	1554.41
394.10	1650.66
394.31	1507.30
394.52	1513.45
394.72	1615.85
394.93	1585.13
395.14	1468.39
395.35	1550.31
395.56	1474.54
395.76	1634.28
395.97	1673.19
396.18	1771.49
396.39	1695.72
396.60	1871.84
396.80	1703.91
397.01	1685.48
397.22	1669.09
397.43	1705.96
397.64	1605.61
397.84	1669.09
398.05	1681.38
398.26	1605.61
398.47	1636.33
398.67	1570.79
398.88	1566.70
399.09	1558.50
399.30	1546.22
399.51	1525.74
399.71	1542.12
399.92	1470.44
400.13	1531.88
400.34	1525.74
400.54	1529.83
400.75	1560.55
400.96	1554.41
401.17	1621.99
401.37	1527.78
401.58	1589.22
401.79	1609.70
402.00	1773.54
402.21	1961.95
402.41	1845.22
402.62	1947.62
402.83	1910.75
403.04	1857.51
403.24	1853.41
403.45	1753.06
403.66	1681.38
403.87	1740.77
404.07	1726.44
404.28	1701.86
404.49	1714.15
404.70	1609.70
404.90	1546.22
405.11	1556.46
405.32	1548.26
405.52	1529.83
405.73	1497.07
405.94	1478.63
406.15	1497.07
406.35	1538.02
406.56	1593.32
406.77	1501.16
406.98	1593.32
407.18	1476.59
407.39	1542.12
407.60	1468.39
407.80	1583.08
408.01	1521.64
408.22	1632.23
408.43	1515.50
408.63	1556.46
408.84	1499.11
409.05	1583.08
409.25	1476.59
409.46	1544.17
409.67	1531.88
409.88	1546.22
410.08	1615.85
410.29	1449.96
410.50	1621.99
410.70	1558.50
410.91	1509.35
411.12	1581.03
411.32	1560.55
411.53	1546.22
411.74	1642.47
411.95	1581.03
412.15	1656.81
412.36	1662.95
412.57	1650.66
412.77	1689.57
412.98	1515.50
413.19	1652.71
413.39	1591.27
413.60	1568.74
413.81	1581.03
414.01	1550.31
414.22	1542.12
414.43	1566.70
414.63	1560.55
414.84	1568.74
415.05	1533.93
415.25	1511.40
415.46	1636.33
415.67	1513.45
415.87	1570.79
416.08	1570.79
416.29	1456.11
416.49	1572.84
416.70	1548.26
416.91	1550.31
417.11	1574.89
417.32	1587.18
417.53	1533.93
417.73	1544.17
417.94	1484.78
418.15	1531.88
418.35	1533.93
418.56	1576.94
418.77	1658.85
418.97	1464.30
419.18	1452.01
419.38	1452.01
419.59	1538.02
419.80	1601.51
420.00	1456.11
420.21	1490.92
420.42	1619.94
420.62	1544.17
420.83	1570.79
421.04	1527.78
421.24	1490.92
421.45	1552.36
421.65	1540.07
421.86	1599.46
422.07	1521.64
422.27	1548.26
422.48	1499.11
422.69	1503.21
422.89	1441.77
423.10	1564.65
423.30	1482.73
423.51	1578.98
423.72	1554.41
423.92	1634.28
424.13	1482.73
424.33	1581.03
424.54	1597.42
424.75	1519.59
424.95	1630.18
425.16	1542.12
425.36	1519.59
425.57	1570.79
425.78	1533.93
425.98	1544.17
426.19	1511.40
426.39	1396.71
426.60	1523.69
426.81	1560.55
427.01	1546.22
427.22	1458.15
427.42	1503.21
427.63	1529.83
427.83	1548.26
428.04	1609.70
428.25	1648.61
428.45	1619.94
428.66	1591.27
428.86	1583.08
429.07	1538.02
429.28	1531.88
429.48	1583.08
429.69	1546.22
429.89	1538.02
430.10	1470.44
430.30	1583.08
430.51	1533.93
430.71	1570.79
430.92	1515.50
431.13	1427.43
431.33	1482.73
431.54	1615.85
431.74	1611.75
431.95	1710.05
432.15	1521.64
432.36	1636.33
432.56	1593.32
432.77	1619.94
432.98	1583.08
433.18	1578.98
433.39	1583.08
433.59	1552.36
433.80	1591.27
434.00	1585.13
434.21	1523.69
434.41	1519.59
434.62	1669.09
434.82	1525.74
435.03	1525.74
435.23	1605.61
435.44	1386.47
435.64	1478.63
435.85	1495.02
436.06	1595.37
436.26	1566.70
436.47	1462.25
436.67	1497.07
436.88	1558.50
437.08	1591.27
437.29	1669.09
437.49	1509.35
437.70	1634.28
437.90	1550.31
438.11	1705.96
438.31	1624.04
438.52	1732.58
438.72	1724.39
438.93	1730.53
439.13	1685.48
439.34	1595.37
439.54	1613.80
439.75	1703.91
439.95	1667.05
440.16	1550.31
440.36	1556.46
440.57	1574.89
440.77	1628.14
440.98	1509.35
441.18	1599.46
441.39	1558.50
441.59	1484.78
441.80	1583.08
442.00	1609.70
442.21	1607.66
442.41	1517.54
442.62	1636.33
442.82	1515.50
443.02	1572.84
443.23	1665.00
443.43	1587.18
443.64	1626.09
443.84	1552.36
444.05	1593.32
444.25	1466.35
444.46	1535.98
444.66	1529.83
444.87	1556.46
445.07	1495.02
445.28	1615.85
445.48	1558.50
445.69	1576.94
445.89	1658.85
446.09	1544.17
446.30	2000.87
446.50	3209.17
446.71	4442.04
446.91	5353.39
447.12	5859.24
447.32	5627.82
447.53	4683.70
447.73	4024.26
447.93	3647.43
448.14	3420.11
448.34	3180.50
448.55	2957.27
448.75	2926.55
448.96	2715.61
449.16	2541.53
449.36	2240.48
449.57	1988.58
449.77	1781.73
449.98	1669.09
450.18	1626.09
450.39	1681.38
450.59	1531.88
450.79	1542.12
451.00	1572.84
451.20	1542.12
451.41	1566.70
451.61	1431.53
451.81	1525.74
452.02	1488.87
452.22	1460.20
452.43	1458.15
452.63	1583.08
452.84	1531.88
453.04	1554.41
453.24	1519.59
453.45	1560.55
453.65	1513.45
453.86	1513.45
454.06	1562.60
454.26	1527.78
454.47	1497.07
454.67	1576.94
454.87	1619.94
455.08	1460.20
455.28	1572.84
455.49	1572.84
455.69	1533.93
455.89	1656.81
456.10	1576.94
456.30	1531.88
456.51	1572.84
456.71	1564.65
456.91	1570.79
457.12	1527.78
457.32	1617.90
457.52	1533.93
457.73	1574.89
457.93	1540.07
458.14	1505.26
458.34	1464.30
458.54	1507.30
458.75	1488.87
458.95	1570.79
459.15	1568.74
459.36	1495.02
459.56	1599.46
459.76	1626.09
459.97	1535.98
460.17	1546.22
460.37	1605.61
460.58	1667.05
460.78	1581.03
460.99	1554.41
461.19	1509.35
461.39	1544.17
461.60	1540.07
461.80	1538.02
462.00	1550.31
462.21	1507.30
462.41	1525.74
462.61	1521.64
462.82	1427.43
463.02	1585.13
463.22	1476.59
463.43	1640.42
463.63	1525.74
463.83	1523.69
464.04	1568.74
464.24	1523.69
464.44	1437.67
464.64	1535.98
464.85	1578.98
465.05	1640.42
465.25	1529.83
465.46	1478.63
465.66	1667.05
465.86	1576.94
466.07	1476.59
466.27	1527.78
466.47	1499.11
466.68	1503.21
466.88	1658.85
467.08	1554.41
467.29	1564.65
467.49	1581.03
467.69	1513.45
467.89	1560.55
468.10	1560.55
468.30	1535.98
468.50	1581.03
468.71	1671.14
468.91	1482.73
469.11	1640.42
469.31	1589.22
469.52	1558.50
469.72	1576.94
469.92	1683.43
470.13	1554.41
470.33	1550.31
470.53	1714.15
470.73	2111.46
470.94	2303.96
471.14	2494.43
471.34	2623.45
471.54	2310.11
471.75	2234.33
471.95	2084.83
472.15	1972.19
472.36	1941.47
472.56	1933.28
472.76	1888.23
472.96	1855.46
473.17	1806.31
473.37	1746.92
473.57	1626.09
473.77	1734.63
473.98	1652.71
474.18	1542.12
474.38	1662.95
474.58	1542.12
474.79	1527.78
474.99	1587.18
475.19	1546.22
475.39	1452.01
475.60	1566.70
475.80	1521.64
476.00	1615.85
476.20	1495.02
476.41	1542.12
476.61	1595.37
476.81	1546.22
477.01	1550.31
477.21	1677.29
477.42	1576.94
477.62	1472.49
477.82	1578.98
478.02	1597.42
478.23	1566.70
478.43	1501.16
478.63	1529.83
478.83	1597.42
479.03	1540.07
479.24	1611.75
479.44	1595.37
479.64	1570.79
479.84	1456.11
480.04	1478.63
480.25	1632.23
480.45	1535.98
480.65	1521.64
480.85	1619.94
481.06	1548.26
481.26	1552.36
481.46	1619.94
481.66	1540.07
481.86	1544.17
482.06	1533.93
482.27	1499.11
482.47	1472.49
482.67	1552.36
482.87	1527.78
483.07	1585.13
483.28	1509.35
483.48	1527.78
483.68	1566.70
483.88	1511.40
484.08	1398.76
484.29	1505.26
484.49	1527.78
484.69	1495.02
484.89	1630.18
485.09	1531.88
485.29	1574.89
485.50	1556.46
485.70	1603.56
485.90	1583.08
486.10	1529.83
486.30	1601.51
486.50	1576.94
486.71	1660.90
486.91	1626.09
487.11	1574.89
487.31	1482.73
487.51	1554.41
487.71	1456.11
487.91	1568.74
488.12	1458.15
488.32	1478.63
488.52	1505.26
488.72	1468.39
488.92	1574.89
489.12	1632.23
489.32	1568.74
489.53	1511.40
489.73	1478.63
489.93	1605.61
490.13	1531.88
490.33	1417.19
490.53	1525.74
490.73	1640.42
490.94	1464.30
491.14	1587.18
491.34	1730.53
491.54	2217.95
491.74	2660.31
491.94	3135.44
492.14	3280.85
492.34	3303.37
492.54	2832.34
492.75	2562.01
492.95	2353.12
493.15	2213.85
493.35	2187.23
493.55	2101.22
493.75	2056.16
493.95	2031.58
494.15	1920.99
494.35	1798.12
494.56	1777.64
494.76	1693.67
494.96	1665.00
495.16	1591.27
495.36	1562.60
495.56	1521.64
495.76	1556.46
495.96	1595.37
496.16	1609.70
496.36	1621.99
496.56	1531.88
496.77	1576.94
496.97	1484.78
497.17	1587.18
497.37	1482.73
497.57	1638.38
497.77	1578.98
497.97	1443.82
498.17	1521.64
498.37	1519.59
498.57	1556.46
498.77	1587.18
498.97	1562.60
499.17	1640.42
499.38	1533.93
499.58	1560.55
499.78	1587.18
499.98	1570.79
500.18	1550.31
500.38	1585.13
500.58	1837.03
500.78	2543.58
500.98	5126.07
501.18	6862.74
501.38	8345.47
501.58	8759.16
501.78	8054.66
501.98	6221.73
502.18	5394.35
502.38	4810.68
502.58	4233.15
502.78	3880.90
502.98	3690.44
503.18	3598.28
503.38	3330.00
503.59	2975.70
503.79	2813.91
503.99	2508.76
504.19	2344.92
504.39	2152.42
504.59	2187.23
504.79	1978.34
504.99	1900.52
505.19	1843.17
505.39	1724.39
505.59	1769.44
505.79	1683.43
505.99	1652.71
506.19	1648.61
506.39	1710.05
506.59	1488.87
506.79	1634.28
506.99	1671.14
507.19	1574.89
507.39	1544.17
507.59	1558.50
507.79	1507.30
507.99	1523.69
508.19	1544.17
508.39	1583.08
508.59	1478.63
508.79	1589.22
508.99	1626.09
509.19	1472.49
509.39	1546.22
509.59	1509.35
509.79	1556.46
509.99	1572.84
510.19	1490.92
510.39	1576.94
510.59	1607.66
510.79	1607.66
510.99	1531.88
511.19	1482.73
511.39	1615.85
511.59	1560.55
511.79	1566.70
511.99	1550.31
512.19	1587.18
512.38	1599.46
512.58	1525.74
512.78	1624.04
512.98	1517.54
513.18	1572.84
513.38	1486.83
513.58	1564.65
513.78	1533.93
513.98	1523.69
514.18	1511.40
514.38	1550.31
514.58	1517.54
514.78	1570.79
514.98	1533.93
515.18	1558.50
515.38	1464.30
515.58	1634.28
515.78	1570.79
515.98	1550.31
516.18	1546.22
516.38	1501.16
516.57	1507.30
516.77	1546.22
516.97	1587.18
517.17	1529.83
517.37	1470.44
517.57	1509.35
517.77	1597.42
517.97	1472.49
518.17	1560.55
518.37	1470.44
518.57	1538.02
518.77	1523.69
518.97	1484.78
519.16	1593.32
519.36	1546.22
519.56	1517.54
519.76	1425.39
519.96	1501.16
520.16	1650.66
520.36	1554.41
520.56	1593.32
520.76	1464.30
520.96	1497.07
521.16	1587.18
521.35	1599.46
521.55	1599.46
521.75	1556.46
521.95	1542.12
522.15	1548.26
522.35	1492.97
522.55	1460.20
522.75	1544.17
522.95	1527.78
523.14	1550.31
523.34	1503.21
523.54	1509.35
523.74	1546.22
523.94	1558.50
524.14	1560.55
524.34	1560.55
524.54	1613.80
524.73	1560.55
524.93	1560.55
525.13	1558.50
525.33	1527.78
525.53	1599.46
525.73	1513.45
525.93	1486.83
526.13	1525.74
526.32	1533.93
526.52	1638.38
526.72	1544.17
526.92	1480.68
527.12	1542.12
527.32	1519.59
527.52	1617.90
527.71	1531.88
527.91	1492.97
528.11	1527.78
528.31	1566.70
528.51	1409.00
528.71	1515.50
528.90	1562.60
529.10	1568.74
529.30	1646.57
529.50	1435.63
529.70	1589.22
529.90	1548.26
530.09	1568.74
530.29	1486.83
530.49	1531.88
530.69	1581.03
530.89	1515.50
531.09	1562.60
531.28	1478.63
531.48	1554.41
531.68	1591.27
531.88	1607.66
532.08	1578.98
532.28	1595.37
532.47	1609.70
532.67	1619.94
532.87	1591.27
533.07	1511.40
533.27	1636.33
533.46	1542.12
533.66	1669.09
533.86	1570.79
534.06	1544.17
534.26	1607.66
534.45	1566.70
534.65	1593.32
534.85	1533.93
535.05	1511.40
535.25	1603.56
535.44	1538.02
535.64	1488.87
535.84	1495.02
536.04	1574.89
536.24	1517.54
536.43	1556.46
536.63	1550.31
536.83	1546.22
537.03	1503.21
537.22	1478.63
537.42	1513.45
537.62	1535.98
537.82	1452.01
538.02	1572.84
538.21	1556.46
538.41	1599.46
538.61	1601.51
538.81	1548.26
539.00	1495.02
539.20	1521.64
539.40	1511.40
539.60	1538.02
539.79	1566.70
539.99	1484.78
540.19	1527.78
540.39	1529.83
540.58	1492.97
540.78	1560.55
540.98	1560.55
541.18	1486.83
541.37	1550.31
541.57	1599.46
541.77	1525.74
541.97	1443.82
542.16	1511.40
542.36	1515.50
542.56	1566.70
542.76	1708.01
542.95	1550.31
543.15	1624.04
543.35	1613.80
543.54	1415.15
543.74	1531.88
543.94	1605.61
544.14	1509.35
544.33	1531.88
544.53	1546.22
544.73	1501.16
544.93	1488.87
545.12	1527.78
545.32	1585.13
545.52	1636.33
545.71	1425.39
545.91	1527.78
546.11	1472.49
546.30	1560.55
546.50	1484.78
546.70	1540.07
546.90	1527.78
547.09	1454.06
547.29	1515.50
547.49	1509.35
547.68	1556.46
547.88	1492.97
548.08	1605.61
548.27	1923.04
548.47	1529.83
548.67	1495.02
548.87	1529.83
549.06	1531.88
549.26	1521.64
549.46	1501.16
549.65	1558.50
549.85	1492.97
550.05	1593.32
550.24	1466.35
550.44	1484.78
550.64	1507.30
550.83	1527.78
551.03	1578.98
551.23	1570.79
551.42	1525.74
551.62	1421.29
551.82	1523.69
552.01	1540.07
552.21	1669.09
552.41	1568.74
552.60	1611.75
552.80	1568.74
553.00	1472.49
553.19	1548.26
553.39	1601.51
553.59	1525.74
553.78	1628.14
553.98	1509.35
554.17	1429.48
554.37	1531.88
554.57	1542.12
554.76	1480.68
554.96	1472.49
555.16	1495.02
555.35	1558.50
555.55	1583.08
555.75	1505.26
555.94	1576.94
556.14	1505.26
556.33	1601.51
556.53	1540.07
556.73	1523.69
556.92	1634.28
557.12	1560.55
557.32	1685.48
557.51	1603.56
557.71	1542.12
557.90	1587.18
558.10	1591.27
558.30	1562.60
558.49	1521.64
558.69	1533.93
558.88	1585.13
559.08	1550.31
559.28	1445.87
559.47	1544.17
559.67	1609.70
559.86	1597.42
560.06	1578.98
560.26	1497.07
560.45	1597.42
560.65	1462.25
560.84	1566.70
561.04	1499.11
561.24	1505.26
561.43	1507.30
561.63	1603.56
561.82	1529.83
562.02	1630.18
562.22	1511.40
562.41	1587.18
562.61	1513.45
562.80	1533.93
563.00	1656.81
563.19	1484.78
563.39	1558.50
563.59	1624.04
563.78	1456.11
563.98	1445.87
564.17	1556.46
564.37	1519.59
564.56	1517.54
564.76	1517.54
564.96	1611.75
565.15	1533.93
565.35	1667.05
565.54	1535.98
565.74	1560.55
565.93	1638.38
566.13	1550.31
566.32	1558.50
566.52	1513.45
566.71	1583.08
566.91	1621.99
567.11	1587.18
567.30	1476.59
567.50	1581.03
567.69	1593.32
567.89	1558.50
568.08	1495.02
568.28	1546.22
568.47	1583.08
568.67	1542.12
568.86	1462.25
569.06	1531.88
569.25	1501.16
569.45	1513.45
569.64	1544.17
569.84	1503.21
570.04	1552.36
570.23	1443.82
570.43	1589.22
570.62	1603.56
570.82	1671.14
571.01	1452.01
571.21	1525.74
571.40	1474.54
571.60	1660.90
571.79	1593.32
571.99	1490.92
572.18	1499.11
572.38	1560.55
572.57	1560.55
572.77	1566.70
572.96	1669.09
573.16	1564.65
573.35	1535.98
573.55	1640.42
573.74	1587.18
573.94	1578.98
574.13	1583.08
574.33	1644.52
574.52	1587.18
574.71	1570.79
574.91	1558.50
575.10	1443.82
575.30	1562.60
575.49	1595.37
575.69	1501.16
575.88	1578.98
576.08	1568.74
576.27	1673.19
576.47	1656.81
576.66	1656.81
576.86	1578.98
577.05	1554.41
577.25	1611.75
577.44	1730.53
577.64	1550.31
577.83	1572.84
578.02	1587.18
578.22	1695.72
578.41	1619.94
578.61	1531.88
578.80	1554.41
579.00	1574.89
579.19	1589.22
579.39	1632.23
579.58	1656.81
579.77	1601.51
579.97	1654.76
580.16	1581.03
580.36	1574.89
580.55	1646.57
580.75	1562.60
580.94	1603.56
581.13	1665.00
581.33	1652.71
581.52	1583.08
581.72	1751.01
581.91	1646.57
582.11	1593.32
582.30	1617.90
582.49	1595.37
582.69	1708.01
582.88	1636.33
583.08	1671.14
583.27	1640.42
583.47	1542.12
583.66	1538.02
583.85	1509.35
584.05	1619.94
584.24	1615.85
584.44	1626.09
584.63	1675.24
584.82	1701.86
585.02	1757.16
585.21	1685.48
585.41	1787.88
585.60	1740.77
585.79	1773.54
585.99	1806.31
586.18	1808.36
586.37	2105.31
586.57	3145.68
586.76	9619.31
586.96	27911.77
587.15	44350.81
587.34	55182.52
587.54	61656.15
587.73	60525.67
587.93	44242.27
588.12	32701.96
588.31	26152.56
588.51	22410.92
588.70	19910.35
588.89	18775.78
589.09	17071.87
589.28	15253.27
589.47	13387.57
589.67	11143.00
589.86	8998.77
590.06	6684.57
590.25	5099.44
590.44	3975.11
590.64	2914.26
590.83	2389.98
591.02	2052.06
591.22	1841.12
591.41	1736.68
591.60	1730.53
591.80	1710.05
591.99	1630.18
592.18	1583.08
592.38	1621.99
592.57	1558.50
592.76	1662.95
592.96	1660.90
593.15	1538.02
593.34	1544.17
593.54	1607.66
593.73	1552.36
593.92	1628.14
594.12	1650.66
594.31	1558.50
594.50	1722.34
594.70	1732.58
594.89	1771.49
595.08	1568.74
595.28	1644.52
595.47	1757.16
595.66	1597.42
595.86	1542.12
596.05	1570.79
596.24	1581.03
596.43	1632.23
596.63	1562.60
596.82	1648.61
597.01	1626.09
597.21	1691.62
597.40	1656.81
597.59	1599.46
597.79	1585.13
597.98	1642.47
598.17	1628.14
598.36	1615.85
598.56	1638.38
598.75	1583.08
598.94	1552.36
599.14	1634.28
599.33	1499.11
599.52	1521.64
599.71	1609.70
599.91	1669.09
600.10	1597.42
600.29	1576.94
600.48	1550.31
600.68	1609.70
600.87	1609.70
601.06	1486.83
601.26	1578.98
601.45	1548.26
601.64	1505.26
601.83	1581.03
602.03	1630.18
602.22	1509.35
602.41	1630.18
602.60	1640.42
602.80	1599.46
602.99	1597.42
603.18	1574.89
603.37	1619.94
603.57	1540.07
603.76	1624.04
603.95	1552.36
604.14	1523.69
604.34	1513.45
604.53	1511.40
604.72	1576.94
604.91	1535.98
605.10	1597.42
605.30	1578.98
605.49	1652.71
605.68	1562.60
605.87	1554.41
606.07	1597.42
606.26	1550.31
606.45	1599.46
606.64	1572.84
606.84	1523.69
607.03	1605.61
607.22	1654.76
607.41	1566.70
607.60	1624.04
607.80	1638.38
607.99	1617.90
608.18	1611.75
608.37	1564.65
608.56	1513.45
608.76	1570.79
608.95	1652.71
609.14	1638.38
609.33	1640.42
609.52	1728.49
609.72	1548.26
609.91	1665.00
610.10	1585.13
610.29	1599.46
610.48	1628.14
610.68	1601.51
610.87	1521.64
611.06	1593.32
611.25	1449.96
611.44	1681.38
611.63	1517.54
611.83	1523.69
612.02	1472.49
612.21	1630.18
612.40	1482.73
612.59	1499.11
612.79	1505.26
612.98	1556.46
613.17	1576.94
613.36	1560.55
613.55	1763.30
613.74	1609.70
613.93	1636.33
614.13	1740.77
614.32	1755.11
614.51	1755.11
614.70	1728.49
614.89	1621.99
615.08	1689.57
615.28	1898.47
615.47	1558.50
615.66	1669.09
615.85	1605.61
616.04	1669.09
616.23	1581.03
616.42	1681.38
616.62	1624.04
616.81	1550.31
617.00	1646.57
617.19	1576.94
617.38	1521.64
617.57	1515.50
617.76	1638.38
617.95	1587.18
618.15	1605.61
618.34	1667.05
618.53	1507.30
618.72	1632.23
618.91	1576.94
619.10	1626.09
619.29	1568.74
619.48	1562.60
619.68	1544.17
619.87	1603.56
620.06	1501.16
620.25	1562.60
620.44	1501.16
620.63	1419.24
620.82	1548.26
621.01	1554.41
621.20	1484.78
621.39	1527.78
621.59	1611.75
621.78	1519.59
621.97	1630.18
622.16	1607.66
622.35	1558.50
622.54	1574.89
622.73	1644.52
622.92	1521.64
623.11	1607.66
623.30	1562.60
623.49	1552.36
623.68	1564.65
623.88	1533.93
624.07	1558.50
624.26	1591.27
624.45	1601.51
624.64	1501.16
624.83	1558.50
625.02	1490.92
625.21	1505.26
625.40	1507.30
625.59	1609.70
625.78	1501.16
625.97	1673.19
626.16	1630.18
626.35	1574.89
626.54	1566.70
626.74	1636.33
626.93	1548.26
627.12	1601.51
627.31	1617.90
627.50	1576.94
627.69	1607.66
627.88	1585.13
628.07	1509.35
628.26	1540.07
628.45	1572.84
628.64	1611.75
628.83	1517.54
629.02	1480.68
629.21	1535.98
629.40	1607.66
629.59	1523.69
629.78	1593.32
629.97	1550.31
630.16	1609.70
630.35	1523.69
630.54	1587.18
630.73	1540.07
630.92	1564.65
631.11	1525.74
631.30	1531.88
631.49	1665.00
631.68	1505.26
631.87	1544.17
632.06	1546.22
632.25	1679.33
632.44	1658.85
632.63	1558.50
632.82	1583.08
633.01	1585.13
633.20	1644.52
633.39	1558.50
633.58	1544.17
633.77	1615.85
633.96	1581.03
634.15	1621.99
634.34	1599.46
634.53	1554.41
634.72	1595.37
634.91	1476.59
635.10	1607.66
635.29	1546.22
635.48	1634.28
635.67	1533.93
635.86	1523.69
636.05	1609.70
636.24	1558.50
636.43	1538.02
636.62	1521.64
636.81	1404.91
637.00	1566.70
637.19	1515.50
637.38	1626.09
637.57	1515.50
637.76	1544.17
637.95	1621.99
638.14	1624.04
638.33	1642.47
638.52	1675.24
638.71	1538.02
638.89	1466.35
639.08	1718.25
639.27	1697.77
639.46	1656.81
639.65	1937.38
639.84	1968.10
640.03	2183.13
640.22	2213.85
640.41	2254.81
640.60	1923.04
640.79	1902.56
640.98	1783.78
641.17	1755.11
641.36	1726.44
641.55	1697.77
641.74	1646.57
641.92	1621.99
642.11	1595.37
642.30	1574.89
642.49	1587.18
642.68	1535.98
642.87	1568.74
643.06	1525.74
643.25	1521.64
643.44	1540.07
643.63	1542.12
643.82	1570.79
644.00	1640.42
644.19	1583.08
644.38	1597.42
644.57	1525.74
644.76	1566.70
644.95	1531.88
645.14	1585.13
645.33	1550.31
645.52	1615.85
645.71	1488.87
645.89	1437.67
646.08	1546.22
646.27	1558.50
646.46	1615.85
646.65	1454.06
646.84	1595.37
647.03	1540.07
647.22	1538.02
647.40	1523.69
647.59	1542.12
647.78	1474.54
647.97	1486.83
648.16	1513.45
648.35	1589.22
648.54	1609.70
648.73	1503.21
648.91	1566.70
649.10	1531.88
649.29	1511.40
649.48	1515.50
649.67	1523.69
649.86	1576.94
650.05	1566.70
650.23	1728.49
650.42	1667.05
650.61	1705.96
650.80	1683.43
650.99	1775.59
651.18	1621.99
651.36	1703.91
651.55	1603.56
651.74	1583.08
651.93	1593.32
652.12	1501.16
652.31	1572.84
652.49	1540.07
652.68	1521.64
652.87	1667.05
653.06	1640.42
653.25	1693.67
653.44	1585.13
653.62	1683.43
653.81	1587.18
654.00	1560.55
654.19	1615.85
654.38	1644.52
654.56	1533.93
654.75	1505.26
654.94	1566.70
655.13	1525.74
655.32	1581.03
655.51	1603.56
655.69	1437.67
655.88	1535.98
656.07	1509.35
656.26	1578.98
656.45	1476.59
656.63	1601.51
656.82	1531.88
657.01	1544.17
657.20	1554.41
657.38	1603.56
657.57	1533.93
657.76	1445.87
657.95	1568.74
658.14	1482.73
658.32	1624.04
658.51	1578.98
658.70	1533.93
658.89	1546.22
659.08	1550.31
659.26	1683.43
659.45	1488.87
659.64	1607.66
659.83	1552.36
660.01	1734.63
660.20	1538.02
660.39	1652.71
660.58	1464.30
660.76	1720.29
660.95	1472.49
661.14	1527.78
661.33	1492.97
661.51	1511.40
661.70	1529.83
661.89	1583.08
662.08	1634.28
662.26	1556.46
662.45	1495.02
662.64	1646.57
662.83	1552.36
663.01	1511.40
663.20	1558.50
663.39	1624.04
663.58	1447.91
663.76	1546.22
663.95	1535.98
664.14	1497.07
664.32	1574.89
664.51	1558.50
664.70	1517.54
664.89	1591.27
665.07	1531.88
665.26	1587.18
665.45	1609.70
665.64	1554.41
665.82	1595.37
666.01	1574.89
666.20	1525.74
666.38	1640.42
666.57	1636.33
666.76	1824.74
666.95	3016.66
667.13	7614.35
667.32	15767.31
667.51	20104.91
667.69	23768.73
667.88	25667.19
668.07	22476.46
668.25	15935.24
668.44	12752.70
668.63	10102.63
668.81	8609.66
669.00	7833.48
669.19	7188.37
669.38	6277.02
669.56	5656.49
669.75	4880.31
669.94	4163.52
670.12	3454.92
670.31	2818.00
670.50	2349.02
670.68	2129.89
670.87	1943.52
671.06	1732.58
671.24	1765.35
671.43	1775.59
671.62	1724.39
671.80	1650.66
671.99	1671.14
672.18	1605.61
672.36	1648.61
672.55	1621.99
672.74	1550.31
672.92	1540.07
673.11	1607.66
673.29	1538.02
673.48	1599.46
673.67	1550.31
673.85	1607.66
674.04	1574.89
674.23	1540.07
674.41	1599.46
674.60	1550.31
674.79	1482.73
674.97	1495.02
675.16	1591.27
675.34	1632.23
675.53	1470.44
675.72	1609.70
675.90	1511.40
676.09	1538.02
676.28	1515.50
676.46	1478.63
676.65	1550.31
676.83	1497.07
677.02	1507.30
677.21	1581.03
677.39	1529.83
677.58	1550.31
677.77	1552.36
677.95	1525.74
678.14	1519.59
678.32	1583.08
678.51	1492.97
678.70	1597.42
678.88	1474.54
679.07	1521.64
679.25	1576.94
679.44	1576.94
679.63	1492.97
679.81	1540.07
680.00	1593.32
680.18	1597.42
680.37	1628.14
680.55	1548.26
680.74	1519.59
680.93	1517.54
681.11	1599.46
681.30	1607.66
681.48	1570.79
681.67	1523.69
681.85	1535.98
682.04	1468.39
682.23	1495.02
682.41	1540.07
682.60	1509.35
682.78	1497.07
682.97	1472.49
683.15	1619.94
683.34	1576.94
683.53	1644.52
683.71	1449.96
683.90	1609.70
684.08	1652.71
684.27	1531.88
684.45	1617.90
684.64	1656.81
684.82	1535.98
685.01	1546.22
685.19	1550.31
685.38	1630.18
685.57	1503.21
685.75	1542.12
685.94	1441.77
686.12	1587.18
686.31	1505.26
686.49	1601.51
686.68	1462.25
686.86	1564.65
687.05	1542.12
687.23	1667.05
687.42	1640.42
687.60	1535.98
687.79	1576.94
687.97	1574.89
688.16	1564.65
688.34	1607.66
688.53	1445.87
688.71	1527.78
688.90	1660.90
689.08	1558.50
689.27	1492.97
689.45	1591.27
689.64	1581.03
689.82	1501.16
690.01	1517.54
690.19	1525.74
690.38	1578.98
690.56	1538.02
690.75	1503.21
690.93	1501.16
691.12	1556.46
691.30	1505.26
691.49	1568.74
691.67	1484.78
691.86	1605.61
692.04	1531.88
692.23	1529.83
692.41	1544.17
692.60	1728.49
692.78	1693.67
692.97	1613.80
693.15	1695.72
693.34	1681.38
693.52	1589.22
693.71	1515.50
693.89	1566.70
694.08	1468.39
694.26	1640.42
694.44	1624.04
694.63	1605.61
694.81	1578.98
695.00	1548.26
695.18	1607.66
695.37	1681.38
695.55	1619.94
695.74	1576.94
695.92	1527.78
696.10	1583.08
696.29	1505.26
696.47	1482.73
696.66	1484.78
696.84	1533.93
697.03	1572.84
697.21	1607.66
697.40	2017.25
697.58	1615.85
697.76	1527.78
697.95	1501.16
698.13	1476.59
698.32	1560.55
698.50	1515.50
698.68	1599.46
698.87	1458.15
699.05	1578.98
699.24	1492.97
699.42	1501.16
699.61	1611.75
699.79	1593.32
699.97	1548.26
700.16	1519.59
700.34	1447.91
700.53	1535.98
700.71	1589.22
700.89	1585.13
701.08	1560.55
701.26	1550.31
701.45	1800.16
701.63	1538.02
701.81	1546.22
702.00	1589.22
702.18	1552.36
702.37	1476.59
702.55	1669.09
702.73	1626.09
702.92	1732.58
703.10	1781.73
703.28	1830.88
703.47	1699.81
703.65	1757.16
703.84	1693.67
704.02	1607.66
704.20	1677.29
704.39	1591.27
704.57	1607.66
704.75	1640.42
704.94	1611.75
705.12	1662.95
705.30	1667.05
705.49	1927.14
705.67	2791.38
705.86	7370.64
706.04	14444.32
706.22	18738.91
706.41	21876.40
706.59	23035.55
706.77	21120.70
706.96	14880.54
707.14	11956.04
707.32	9723.76
707.51	8664.96
707.69	7507.85
707.87	6786.97
708.06	5844.90
708.24	4798.39
708.42	3794.89
708.61	2924.50
708.79	2314.20
708.97	2029.54
709.16	1800.16
709.34	1765.35
709.52	1597.42
709.71	1660.90
709.89	1669.09
710.07	1402.86
710.26	1554.41
710.44	1587.18
710.62	1603.56
710.80	1505.26
710.99	1560.55
711.17	1560.55
711.35	1525.74
711.54	1533.93
711.72	1617.90
711.90	1593.32
712.09	1513.45
712.27	1538.02
712.45	1644.52
712.63	1542.12
712.82	1556.46
713.00	1587.18
713.18	1613.80
713.37	1570.79
713.55	1562.60
713.73	1574.89
713.91	1599.46
714.10	1550.31
714.28	1546.22
714.46	1591.27
714.65	1519.59
714.83	1449.96
715.01	1597.42
715.19	1523.69
715.38	1529.83
715.56	1566.70
715.74	1529.83
715.92	1523.69
716.11	1617.90
716.29	1507.30
716.47	1548.26
716.65	1558.50
716.84	1413.10
717.02	1615.85
717.20	1495.02
717.38	1566.70
717.57	1611.75
717.75	1605.61
717.93	1484.78
718.11	1581.03
718.30	1495.02
718.48	1587.18
718.66	1564.65
718.84	1562.60
719.03	1495.02
719.21	1468.39
719.39	1636.33
719.57	1587.18
719.75	1589.22
719.94	1499.11
720.12	1589.22
720.30	1591.27
720.48	1621.99
720.67	1437.67
720.85	1546.22
721.03	1523.69
721.21	1525.74
721.39	1505.26
721.58	1566.70
721.76	1517.54
721.94	1550.31
722.12	1570.79
722.30	1576.94
722.49	1554.41
722.67	1611.75
722.85	1587.18
723.03	1486.83
723.21	1492.97
723.40	1599.46
723.58	1544.17
723.76	1562.60
723.94	1552.36
724.12	1599.46
724.30	1658.85
724.49	1677.29
724.67	1540.07
724.85	1683.43
725.03	1513.45
725.21	1556.46
725.40	1599.46
725.58	1486.83
725.76	1644.52
725.94	1593.32
726.12	1515.50
726.30	1638.38
726.49	1535.98
726.67	1566.70
726.85	1515.50
727.03	1542.12
727.21	1779.68
727.39	2176.99
727.57	3256.27
727.76	4448.19
727.94	4820.92
728.12	5050.29
728.30	5107.63
728.48	4405.18
728.66	3469.26
728.84	3205.07
729.03	2949.08
729.21	2686.94
729.39	2351.07
729.57	2019.30
729.75	1886.18
729.93	1726.44
730.11	1720.29
730.30	1632.23
730.48	1576.94
730.66	1617.90
730.84	1583.08
731.02	1546.22
731.20	1497.07
731.38	1583.08
731.56	1449.96
731.74	1474.54
731.93	1574.89
732.11	1507.30
732.29	1564.65
732.47	1552.36
732.65	1509.35
732.83	1564.65
733.01	1527.78
733.19	1558.50
733.37	1609.70
733.56	1581.03
733.74	1503.21
733.92	1595.37
734.10	1509.35
734.28	1472.49
734.46	1476.59
734.64	1587.18
734.82	1589.22
735.00	1572.84
735.18	1511.40
735.36	1525.74
735.54	1546.22
735.73	1548.26
735.91	1613.80
736.09	1595.37
736.27	1552.36
736.45	1624.04
736.63	1470.44
736.81	1478.63
736.99	1675.24
737.17	1599.46
737.35	1538.02
737.53	1630.18
737.71	1511.40
737.89	1613.80
738.07	1560.55
738.25	1546.22
738.43	1507.30
738.61	1564.65
738.80	1505.26
738.98	1429.48
739.16	1525.74
739.34	1533.93
739.52	1595.37
739.70	1499.11
739.88	1574.89
740.06	1576.94
740.24	1468.39
740.42	1611.75
740.60	1492.97
740.78	1564.65
740.96	1462.25
741.14	1501.16
741.32	1548.26
741.50	1523.69
741.68	1615.85
741.86	1562.60
742.04	1538.02
742.22	1558.50
742.40	1525.74
742.58	1525.74
742.76	1501.16
742.94	1595.37
743.12	1470.44
743.30	1535.98
743.48	1591.27
743.66	1501.16
743.84	1601.51
744.02	1544.17
744.20	1513.45
744.38	1413.10
744.56	1431.53
744.74	1638.38
744.92	1533.93
745.10	1613.80
745.28	1595.37
745.46	1617.90
745.64	1486.83
745.82	1515.50
746.00	1562.60
746.18	1550.31
746.36	1478.63
746.54	1626.09
746.72	1593.32
746.90	1544.17
747.08	1605.61
747.26	1511.40
747.44	1533.93
747.62	1581.03
747.80	1609.70
747.98	1572.84
748.15	1484.78
748.33	1570.79
748.51	1445.87
748.69	1644.52
748.87	1515.50
749.05	1533.93
749.23	1513.45
749.41	1566.70
749.59	1476.59
749.77	1583.08
749.95	1597.42
750.13	1509.35
750.31	1529.83
750.49	1503.21
750.67	1595.37
750.85	1632.23
751.03	1558.50
751.20	1595.37
751.38	1482.73
751.56	1497.07
751.74	1560.55
751.92	1564.65
752.10	1490.92
752.28	1558.50
752.46	1560.55
752.64	1542.12
752.82	1525.74
753.00	1599.46
753.18	1609.70
753.35	1511.40
753.53	1560.55
753.71	1566.70
753.89	1540.07
754.07	1531.88
754.25	1599.46
754.43	1531.88
754.61	1445.87
754.79	1581.03
754.97	1452.01
755.14	1689.57
755.32	1454.06
755.50	1556.46
755.68	1482.73
755.86	1509.35
756.04	1482.73
756.22	1548.26
756.40	1605.61
756.57	1683.43
756.75	1540.07
756.93	1570.79
757.11	1568.74
757.29	1486.83
757.47	1527.78
757.65	1472.49
757.82	1439.72
758.00	1425.39
758.18	1566.70
758.36	1533.93
758.54	1581.03
758.72	1456.11
758.90	1587.18
759.07	1589.22
759.25	1476.59
759.43	1550.31
759.61	1562.60
759.79	1939.43
759.97	1572.84
760.15	1503.21
760.32	1542.12
760.50	1540.07
760.68	1650.66
760.86	1460.20
761.04	1576.94
761.22	1609.70
761.39	1558.50
761.57	1626.09
761.75	1470.44
761.93	1542.12
762.11	1503.21
762.28	1507.30
762.46	1468.39
762.64	1546.22
762.82	1484.78
763.00	1517.54
763.18	1593.32
763.35	1527.78
763.53	1525.74
763.71	1511.40
763.89	1605.61
764.07	1531.88
764.24	1591.27
764.42	1525.74
764.60	1474.54
764.78	1609.70
764.96	1583.08
765.13	1587.18
765.31	1550.31
765.49	1632.23
765.67	1460.20
765.84	1533.93
766.02	1472.49
766.20	1507.30
766.38	1576.94
766.56	1544.17
766.73	1581.03
766.91	1538.02
767.09	1558.50
767.27	1529.83
767.44	1513.45
767.62	1519.59
767.80	1513.45
767.98	1509.35
768.15	1601.51
768.33	1603.56
768.51	1607.66
768.69	1566.70
768.87	1619.94
769.04	1587.18
769.22	1626.09
769.40	1644.52
769.58	1632.23
769.75	1531.88
769.93	1640.42
770.11	1499.11
770.28	1542.12
770.46	1533.93
770.64	1540.07
770.82	1433.58
770.99	1507.30
771.17	1576.94
771.35	1470.44
771.53	1501.16
771.70	1484.78
771.88	1490.92
772.06	1583.08
772.23	1449.96
772.41	1538.02
772.59	1499.11
772.77	1480.68
772.94	1517.54
773.12	1615.85
773.30	1521.64
773.47	1527.78
773.65	1517.54
773.83	1605.61
774.01	1476.59
774.18	1454.06
774.36	1476.59
774.54	1474.54
774.71	1538.02
774.89	1464.30
775.07	1484.78
775.24	1482.73
775.42	1519.59
775.60	1617.90
775.78	1542.12
775.95	1501.16
776.13	1458.15
776.31	1421.29
776.48	1527.78
776.66	1554.41
776.84	1566.70
777.01	1507.30
777.19	1488.87
777.37	1482.73
777.54	1531.88
777.72	1640.42
777.90	1560.55
778.07	1521.64
778.25	1695.72
778.43	1540.07
778.60	1535.98
778.78	1624.04
778.96	1576.94
779.13	1542.12
779.31	1517.54
779.49	1513.45
779.66	1505.26
779.84	1488.87
780.01	1490.92
780.19	1470.44
780.37	1542.12
780.54	1470.44
780.72	1501.16
780.90	1562.60
781.07	1458.15
781.25	1492.97
781.43	1531.88
781.60	1488.87
781.78	1495.02
781.95	1591.27
782.13	1519.59
782.31	1570.79
782.48	1466.35
782.66	1523.69
782.83	1595.37
783.01	1552.36
783.19	1517.54
783.36	1624.04
783.54	1392.62
783.72	1607.66
783.89	1464.30
784.07	1619.94
784.24	1621.99
784.42	1576.94
784.60	1617.90
784.77	1572.84
784.95	1443.82
785.12	1531.88
785.30	1576.94
785.47	1525.74
785.65	1433.58
785.83	1550.31
786.00	1560.55
786.18	1581.03
786.35	1429.48
786.53	1595.37
786.71	1595.37
786.88	1603.56
787.06	1519.59
787.23	1525.74
787.41	1462.25
787.58	1507.30
787.76	1542.12
787.94	1581.03
788.11	1611.75
788.29	1619.94
788.46	1445.87
788.64	1474.54
788.81	1507.30
788.99	1466.35
789.16	1470.44
789.34	1581.03
789.52	1480.68
789.69	1488.87
789.87	1423.34
790.04	1495.02
790.22	1517.54
790.39	1634.28
790.57	1548.26
790.74	1435.63
790.92	1603.56
791.09	1435.63
791.27	1495.02
791.44	1583.08
791.62	1546.22
791.79	1525.74
791.97	1587.18
792.15	1644.52
792.32	1550.31
792.50	1540.07
792.67	1570.79
792.85	1544.17
793.02	1538.02
793.20	1509.35
793.37	1517.54
793.55	1566.70
793.72	1497.07
793.90	1656.81
794.07	1556.46
794.25	1527.78
794.42	1550.31
794.60	1488.87
794.77	1486.83
794.95	1595.37
795.12	1624.04
795.30	1558.50
795.47	1439.72
795.65	1613.80
795.82	1574.89
796.00	1363.95
796.17	1535.98
796.34	1495.02
796.52	1578.98
796.69	1597.42
796.87	1574.89
797.04	1538.02
797.22	1632.23
797.39	1603.56
797.57	1540.07
797.74	1562.60
797.92	1576.94
798.09	1523.69
798.27	1601.51
798.44	1550.31
798.62	1521.64
798.79	1556.46
798.96	1521.64
799.14	1535.98
799.31	1613.80
799.49	1603.56
799.66	1562.60
799.84	1497.07
800.01	1429.48
800.19	1548.26
800.36	1513.45
800.53	1568.74
800.71	1552.36
800.88	1554.41
801.06	1523.69
801.23	1513.45
801.41	1552.36
801.58	1558.50
801.75	1488.87
801.93	1566.70
802.10	1568.74
802.28	1529.83
802.45	1499.11
802.63	1503.21
802.80	1593.32
802.97	1509.35
803.15	1525.74
803.32	1564.65
803.50	1529.83
803.67	1527.78
803.84	1435.63
804.02	1527.78
804.19	1490.92
804.37	1470.44
804.54	1511.40
804.71	1509.35
804.89	1511.40
805.06	1558.50
805.24	1480.68
805.41	1495.02
805.58	1429.48
805.76	1656.81
805.93	1492.97
806.10	1568.74
806.28	1646.57
806.45	1525.74
806.63	1480.68
806.80	1560.55
806.97	1556.46
807.15	1591.27
807.32	1538.02
807.49	1476.59
807.67	1509.35
807.84	1533.93
808.01	1466.35
808.19	1611.75
808.36	1779.68
808.54	1443.82
808.71	1482.73
808.88	1503.21
809.06	1568.74
809.23	1566.70
809.40	1490.92
809.58	1642.47
809.75	1550.31
809.92	1507.30
810.10	1652.71
810.27	1511.40
810.44	1593.32
810.62	1652.71
810.79	1568.74
810.96	1447.91
811.14	1492.97
811.31	1525.74
811.48	1535.98
811.66	1445.87
811.83	1574.89
812.00	1501.16
812.18	1564.65
812.35	1656.81
812.52	1566.70
812.69	1523.69
812.87	1564.65
813.04	1535.98
813.21	1560.55
813.39	1546.22
813.56	1490.92
813.73	1646.57
813.91	1447.91
814.08	1517.54
814.25	1527.78
814.42	1538.02
814.60	1556.46
814.77	1495.02
814.94	1507.30
815.12	1517.54
815.29	1634.28
815.46	1488.87
815.63	1474.54
815.81	1439.72
815.98	1486.83
816.15	1540.07
816.33	1554.41
816.50	1449.96
816.67	1521.64
816.84	1542.12
817.02	1521.64
817.19	1480.68
817.36	1626.09
817.53	1591.27
817.71	1525.74
817.88	1511.40
818.05	1523.69
818.22	1542.12
818.40	1701.86
818.57	1540.07
818.74	1566.70
818.91	1540.07
819.09	1613.80
819.26	1638.38
819.43	1474.54
819.60	1509.35
819.78	1538.02
819.95	1665.00
820.12	1464.30
820.29	1593.32
820.47	1552.36
820.64	1476.59
820.81	1394.67
820.98	1525.74
821.15	1478.63
821.33	1568.74
821.50	1470.44
821.67	1538.02
821.84	1533.93
822.02	1642.47
822.19	1464.30
822.36	1550.31
822.53	1544.17
822.70	1433.58
822.88	1554.41
823.05	1574.89
823.22	1556.46
823.39	1509.35
823.56	1556.46
823.74	1632.23
823.91	1464.30
824.08	1503.21
824.25	1476.59
824.42	1609.70
824.60	1529.83
824.77	1515.50
824.94	1544.17
825.11	1583.08
825.28	1474.54
825.45	1578.98
825.63	1533.93
825.80	1513.45
825.97	1556.46
826.14	1495.02
826.31	1476.59
826.48	1509.35
826.66	1476.59
826.83	1382.38
827.00	1542.12
827.17	1427.43
827.34	1540.07
827.51	1488.87
827.69	1515.50
827.86	1527.78
828.03	1476.59
828.20	1542.12
828.37	1540.07
828.54	1554.41
828.71	1490.92
828.89	1540.07
829.06	1574.89
829.23	1617.90
829.40	1417.19
829.57	1535.98
829.74	1624.04
829.91	1574.89
830.09	1533.93
830.26	1535.98
830.43	1515.50
830.60	1609.70
830.77	1589.22
830.94	1560.55
831.11	1576.94
831.28	1554.41
831.46	1640.42
831.63	1550.31
831.80	1550.31
831.97	1529.83
832.14	1558.50
832.31	1583.08
832.48	1503.21
832.65	1511.40
832.82	1515.50
832.99	1462.25
833.17	1488.87
833.34	1601.51
833.51	1615.85
833.68	1529.83
833.85	1525.74
834.02	1546.22
834.19	1507.30
834.36	1503.21
834.53	1462.25
834.70	1515.50
834.87	1556.46
835.04	1513.45
835.22	1480.68
835.39	1482.73
835.56	1511.40
835.73	1521.64
835.90	1624.04
836.07	1464.30
836.24	1583.08
836.41	1439.72
836.58	1476.59
836.75	1601.51
836.92	1591.27
837.09	1476.59
837.26	1566.70
837.43	1576.94
837.60	1583.08
837.77	1583.08
837.94	1505.26
838.12	1671.14
838.29	1531.88
838.46	1556.46
838.63	1445.87
838.80	1583.08
838.97	1550.31
839.14	1525.74
839.31	1511.40
839.48	1517.54
839.65	1515.50
839.82	1550.31
839.99	1564.65
840.16	1581.03
840.33	1513.45
840.50	1578.98
840.67	1476.59
840.84	1470.44
841.01	1513.45
841.18	1454.06
841.35	1535.98
841.52	1511.40
841.69	1660.90
841.86	1497.07
842.03	1495.02
842.20	1619.94
842.37	1513.45
842.54	1542.12
842.71	1511.40
842.88	1480.68
843.05	1648.61
843.22	1593.32
843.39	1603.56
843.56	1472.49
843.73	1535.98
843.90	1552.36
844.07	1544.17
844.24	1531.88
844.41	1509.35
844.58	1499.11
844.75	1486.83
844.92	1529.83
845.09	1482.73
845.26	1456.11
845.43	1533.93
845.60	1556.46
845.77	1519.59
845.94	1499.11
846.10	1599.46
846.27	1515.50
846.44	1523.69
846.61	1527.78
846.78	1484.78
846.95	1587.18
847.12	1499.11
847.29	1585.13
847.46	1525.74
847.63	1570.79
847.80	1499.11
847.97	1576.94
848.14	1628.14
848.31	1581.03
848.48	1482.73
848.65	1607.66
848.82	1515.50
848.98	1665.00
849.15	1521.64
849.32	1564.65
849.49	1515.50
849.66	1587.18
849.83	1562.60
850.00	1576.94
850.17	1570.79
850.34	1558.50
850.51	1540.07
850.68	1443.82
850.85	1652.71
851.01	1531.88
851.18	1566.70
851.35	1542.12
851.52	1583.08
851.69	1546.22
851.86	1449.96
852.03	1527.78
852.20	1554.41
852.37	1533.93
852.53	1490.92
852.70	1548.26
852.87	1558.50
853.04	1503.21
853.21	1542.12
853.38	1574.89
853.55	1587.18
853.72	1581.03
853.89	1484.78
854.05	1535.98
854.22	1519.59
854.39	1501.16
854.56	1509.35
854.73	1601.51
854.90	1554.41
855.07	1611.75
855.23	1519.59
855.40	1452.01
855.57	1505.26
855.74	1421.29
855.91	1720.29
856.08	1427.43
856.25	1527.78
856.41	1533.93
856.58	1437.67
856.75	1531.88
856.92	1460.20
857.09	1546.22
857.26	1433.58
857.42	1595.37
857.59	1519.59
857.76	1533.93
857.93	1566.70
858.10	1562.60
858.27	1507.30
858.43	1515.50
858.60	1568.74
858.77	1429.48
858.94	1556.46
859.11	1574.89
859.27	1488.87
859.44	1505.26
859.61	1624.04
859.78	1566.70
859.95	1570.79
860.12	1505.26
860.28	1589.22
860.45	1593.32
860.62	1492.97
860.79	1578.98
860.95	1552.36
861.12	1521.64
861.29	1462.25
861.46	1515.50
861.63	1535.98
861.79	1589.22
861.96	1462.25
862.13	1607.66
862.30	1521.64
862.47	1542.12
862.63	1515.50
862.80	1646.57
862.97	1603.56
863.14	1466.35
863.30	1570.79
863.47	1542.12
863.64	1533.93
863.81	1540.07
863.97	1507.30
864.14	1531.88
864.31	1548.26
864.48	1558.50
864.65	1505.26
864.81	1533.93
864.98	1513.45
865.15	1523.69
865.32	1578.98
865.48	1568.74
865.65	1560.55
865.82	1538.02
865.98	1578.98
866.15	1544.17
866.32	1468.39
866.49	1544.17
866.65	1593.32
866.82	1507.30
866.99	1519.59
867.16	1464.30
867.32	1574.89
867.49	1544.17
867.66	1554.41
867.83	1509.35
867.99	1488.87
868.16	1484.78
868.33	1480.68
868.49	1566.70
868.66	1484.78
868.83	1574.89
868.99	1523.69
869.16	1544.17
869.33	1546.22
869.50	1542.12
869.66	1564.65
869.83	1474.54
870.00	1454.06
870.16	1564.65
870.33	1484.78
870.50	1546.22
870.66	1560.55
870.83	1603.56
871.00	1546.22
871.17	1558.50
871.33	1538.02
871.50	1544.17
871.67	1488.87
871.83	1488.87
872.00	1585.13
872.17	1529.83
872.33	1603.56
872.50	1607.66
872.67	1521.64
872.83	1474.54
873.00	1529.83
873.17	1550.31
873.33	1603.56
873.50	1595.37
873.67	1417.19
873.83	1507.30
874.00	1593.32
874.16	1583.08
874.33	1556.46
874.50	1427.43
874.66	1548.26
874.83	1490.92
875.00	1542.12
875.16	1566.70
875.33	1634.28
875.50	1460.20
875.66	1460.20
875.83	1538.02
875.99	1542.12
876.16	1558.50
876.33	1550.31
876.49	1576.94
876.66	1564.65
876.83	1521.64
876.99	1431.53
877.16	1521.64
877.32	1535.98
877.49	1599.46
877.66	1615.85
877.82	1626.09
877.99	1513.45
878.15	1628.14
878.32	1515.50
878.49	1427.43
878.65	1572.84
878.82	1574.89
878.98	1445.87
879.15	1560.55
879.32	1548.26
879.48	1560.55
879.65	1515.50
879.81	1480.68
879.98	1529.83
880.15	1472.49
880.31	1581.03
880.48	1460.20
880.64	1568.74
880.81	1519.59
880.97	1636.33
881.14	1560.55
881.31	1515.50
881.47	1572.84
881.64	1509.35
881.80	1433.58
881.97	1486.83
882.13	1605.61
882.30	1542.12
882.47	1533.93
882.63	1454.06
882.80	1558.50
882.96	1402.86
883.13	1599.46
883.29	1484.78
883.46	1523.69
883.62	1599.46
883.79	1480.68
883.95	1521.64
884.12	1505.26
884.29	1554.41
884.45	1519.59
884.62	1607.66
884.78	1523.69
884.95	1560.55
885.11	1439.72
885.28	1538.02
885.44	1533.93
885.61	1660.90
885.77	1611.75
885.94	1587.18
886.10	1527.78
886.27	1490.92
886.43	1589.22
886.60	1595.37
886.76	1480.68
886.93	1470.44
887.09	1574.89
887.26	1511.40
887.42	1538.02
887.59	1599.46
887.75	1599.46
887.92	1636.33
888.08	1564.65
888.25	1599.46
888.41	1628.14
888.58	1550.31
888.74	1558.50
888.91	1529.83
>>>>>End Processed Spectral Data<<<<<
