SpectraSuite Data File
++++++++++++++++++++++++++++++++++++
Date: Tue May 03 12:55:28 CEST 2016
User: root
Dark Spectrum Present: No
Reference Spectrum Present: No
Number of Sampled Component Spectra: 1
Spectrometers: USB4C02835
Integration Time (usec): 100000 (USB4C02835)
Spectra Averaged: 1 (USB4C02835)
Boxcar Smoothing: 0 (USB4C02835)
Correct for Electrical Dark: No (USB4C02835)
Strobe/Lamp Enabled: No (USB4C02835)
Correct for Detector Non-linearity: No (USB4C02835)
Correct for Stray Light: No (USB4C02835)
Number of Pixels in Processed Spectrum: 3648
>>>>>Begin Processed Spectral Data<<<<<
177.47	1302.51
177.69	1302.51
177.91	1302.51
178.13	1320.94
178.36	1355.76
178.58	1548.26
178.80	1548.26
179.02	1454.06
179.24	1540.07
179.46	1490.92
179.68	1566.70
179.90	1480.68
180.13	1488.87
180.35	1474.54
180.57	1511.40
180.79	1517.54
181.01	1593.32
181.23	1503.21
181.45	1617.90
181.67	1519.59
181.90	1552.36
182.12	1525.74
182.34	1421.29
182.56	1568.74
182.78	1591.27
183.00	1591.27
183.22	1626.09
183.44	1437.67
183.66	1642.47
183.89	1642.47
184.11	1640.42
184.33	1554.41
184.55	1587.18
184.77	1554.41
184.99	1585.13
185.21	1492.97
185.43	1617.90
185.65	1564.65
185.87	1540.07
186.10	1603.56
186.32	1675.24
186.54	1542.12
186.76	1581.03
186.98	1578.98
187.20	1564.65
187.42	1468.39
187.64	1509.35
187.86	1558.50
188.08	1626.09
188.30	1550.31
188.52	1488.87
188.75	1564.65
188.97	1615.85
189.19	1562.60
189.41	1609.70
189.63	1550.31
189.85	1550.31
190.07	1527.78
190.29	1472.49
190.51	1531.88
190.73	1515.50
190.95	1574.89
191.17	1595.37
191.39	1507.30
191.61	1558.50
191.84	1478.63
192.06	1558.50
192.28	1421.29
192.50	1673.19
192.72	1550.31
192.94	1544.17
193.16	1529.83
193.38	1535.98
193.60	1478.63
193.82	1523.69
194.04	1554.41
194.26	1552.36
194.48	1544.17
194.70	1589.22
194.92	1540.07
195.14	1552.36
195.36	1458.15
195.58	1564.65
195.80	1505.26
196.02	1527.78
196.24	1630.18
196.46	1505.26
196.69	1456.11
196.91	1621.99
197.13	1511.40
197.35	1462.25
197.57	1546.22
197.79	1568.74
198.01	1533.93
198.23	1568.74
198.45	1593.32
198.67	1488.87
198.89	1509.35
199.11	1583.08
199.33	1515.50
199.55	1476.59
199.77	1595.37
199.99	1542.12
200.21	1468.39
200.43	1624.04
200.65	1533.93
200.87	1449.96
201.09	1464.30
201.31	1558.50
201.53	1648.61
201.75	1607.66
201.97	1462.25
202.19	1544.17
202.41	1581.03
202.63	1640.42
202.85	1554.41
203.07	1509.35
203.29	1490.92
203.51	1486.83
203.73	1550.31
203.95	1652.71
204.17	1646.57
204.39	1527.78
204.61	1574.89
204.83	1529.83
205.05	1632.23
205.27	1566.70
205.49	1652.71
205.71	1540.07
205.93	1531.88
206.15	1490.92
206.37	1464.30
206.59	1495.02
206.81	1472.49
207.03	1503.21
207.25	1433.58
207.47	1576.94
207.69	1503.21
207.91	1605.61
208.13	1603.56
208.34	1501.16
208.56	1466.35
208.78	1560.55
209.00	1533.93
209.22	1497.07
209.44	1517.54
209.66	1499.11
209.88	1476.59
210.10	1591.27
210.32	1480.68
210.54	1642.47
210.76	1509.35
210.98	1538.02
211.20	1431.53
211.42	1495.02
211.64	1654.76
211.86	1517.54
212.08	1587.18
212.30	1609.70
212.52	1501.16
212.74	1593.32
212.96	1574.89
213.17	1648.61
213.39	1591.27
213.61	1624.04
213.83	1544.17
214.05	1486.83
214.27	1564.65
214.49	1523.69
214.71	1466.35
214.93	1601.51
215.15	1462.25
215.37	1634.28
215.59	1509.35
215.81	1613.80
216.03	1529.83
216.24	1501.16
216.46	1558.50
216.68	1531.88
216.90	1572.84
217.12	1595.37
217.34	1523.69
217.56	1560.55
217.78	1654.76
218.00	1525.74
218.22	1566.70
218.44	1546.22
218.66	1486.83
218.87	1558.50
219.09	1564.65
219.31	1621.99
219.53	1546.22
219.75	1495.02
219.97	1562.60
220.19	1501.16
220.41	1501.16
220.63	1564.65
220.85	1533.93
221.06	1517.54
221.28	1583.08
221.50	1548.26
221.72	1529.83
221.94	1492.97
222.16	1583.08
222.38	1589.22
222.60	1572.84
222.82	1554.41
223.03	1589.22
223.25	1482.73
223.47	1626.09
223.69	1677.29
223.91	1660.90
224.13	1570.79
224.35	1523.69
224.57	1599.46
224.78	1558.50
225.00	1437.67
225.22	1480.68
225.44	1519.59
225.66	1609.70
225.88	1507.30
226.10	1607.66
226.32	1546.22
226.53	1589.22
226.75	1587.18
226.97	1521.64
227.19	1572.84
227.41	1542.12
227.63	1513.45
227.85	1449.96
228.06	1523.69
228.28	1548.26
228.50	1599.46
228.72	1505.26
228.94	1550.31
229.16	1499.11
229.37	1544.17
229.59	1552.36
229.81	1568.74
230.03	1466.35
230.25	1427.43
230.47	1464.30
230.69	1497.07
230.90	1624.04
231.12	1515.50
231.34	1552.36
231.56	1488.87
231.78	1505.26
232.00	1585.13
232.21	1515.50
232.43	1492.97
232.65	1431.53
232.87	1542.12
233.09	1499.11
233.30	1443.82
233.52	1466.35
233.74	1619.94
233.96	1554.41
234.18	1449.96
234.40	1503.21
234.61	1574.89
234.83	1513.45
235.05	1447.91
235.27	1607.66
235.49	1558.50
235.70	1519.59
235.92	1673.19
236.14	1548.26
236.36	1587.18
236.58	1476.59
236.79	1531.88
237.01	1509.35
237.23	1533.93
237.45	1589.22
237.67	1501.16
237.88	1564.65
238.10	1632.23
238.32	1472.49
238.54	1509.35
238.76	1576.94
238.97	1443.82
239.19	1513.45
239.41	1599.46
239.63	1626.09
239.85	1492.97
240.06	1552.36
240.28	1501.16
240.50	1564.65
240.72	1519.59
240.93	1519.59
241.15	1628.14
241.37	1509.35
241.59	1540.07
241.81	1542.12
242.02	1525.74
242.24	1505.26
242.46	1587.18
242.68	1511.40
242.89	1583.08
243.11	1554.41
243.33	1609.70
243.55	1578.98
243.76	1566.70
243.98	1533.93
244.20	1607.66
244.42	1581.03
244.64	1585.13
244.85	1456.11
245.07	1546.22
245.29	1527.78
245.51	1527.78
245.72	1550.31
245.94	1605.61
246.16	1544.17
246.38	1550.31
246.59	1599.46
246.81	1488.87
247.03	1591.27
247.24	1447.91
247.46	1468.39
247.68	1583.08
247.90	1511.40
248.11	1495.02
248.33	1546.22
248.55	1540.07
248.77	1568.74
248.98	1587.18
249.20	1626.09
249.42	1490.92
249.64	1636.33
249.85	1533.93
250.07	1538.02
250.29	1593.32
250.50	1589.22
250.72	1482.73
250.94	1566.70
251.16	1630.18
251.37	1566.70
251.59	1501.16
251.81	1564.65
252.02	1609.70
252.24	1464.30
252.46	1701.86
252.68	1415.15
252.89	1476.59
253.11	1460.20
253.33	1585.13
253.54	1609.70
253.76	1478.63
253.98	1470.44
254.20	1533.93
254.41	1394.67
254.63	1507.30
254.85	1443.82
255.06	1544.17
255.28	1517.54
255.50	1615.85
255.71	1570.79
255.93	1452.01
256.15	1554.41
256.36	1548.26
256.58	1554.41
256.80	1599.46
257.02	1452.01
257.23	1538.02
257.45	1482.73
257.67	1546.22
257.88	1462.25
258.10	1574.89
258.32	1548.26
258.53	1499.11
258.75	1576.94
258.97	1476.59
259.18	1558.50
259.40	1574.89
259.62	1540.07
259.83	1603.56
260.05	1570.79
260.27	1783.78
260.48	1505.26
260.70	1572.84
260.92	1497.07
261.13	1531.88
261.35	1495.02
261.57	1613.80
261.78	1513.45
262.00	1527.78
262.22	1523.69
262.43	1566.70
262.65	1523.69
262.86	1535.98
263.08	1652.71
263.30	1562.60
263.51	1458.15
263.73	1472.49
263.95	1617.90
264.16	1501.16
264.38	1501.16
264.60	1554.41
264.81	1533.93
265.03	1554.41
265.25	1693.67
265.46	1550.31
265.68	1560.55
265.89	1511.40
266.11	1497.07
266.33	1626.09
266.54	1650.66
266.76	1591.27
266.98	1509.35
267.19	1636.33
267.41	1609.70
267.62	1560.55
267.84	1507.30
268.06	1495.02
268.27	1546.22
268.49	1552.36
268.70	1583.08
268.92	1533.93
269.14	1521.64
269.35	1509.35
269.57	1566.70
269.79	1609.70
270.00	1464.30
270.22	1595.37
270.43	1495.02
270.65	1435.63
270.87	1673.19
271.08	1619.94
271.30	1554.41
271.51	1591.27
271.73	1519.59
271.95	1667.05
272.16	1587.18
272.38	1560.55
272.59	1497.07
272.81	1517.54
273.02	1513.45
273.24	1568.74
273.46	1546.22
273.67	1429.48
273.89	1449.96
274.10	1544.17
274.32	1638.38
274.54	1558.50
274.75	1568.74
274.97	1564.65
275.18	1501.16
275.40	1574.89
275.61	1548.26
275.83	1542.12
276.05	1505.26
276.26	1525.74
276.48	1624.04
276.69	1587.18
276.91	1529.83
277.12	1564.65
277.34	1572.84
277.55	1624.04
277.77	1540.07
277.99	1486.83
278.20	1464.30
278.42	1423.34
278.63	1492.97
278.85	1519.59
279.06	1443.82
279.28	1564.65
279.49	1542.12
279.71	1572.84
279.93	1550.31
280.14	1495.02
280.36	1556.46
280.57	1531.88
280.79	1646.57
281.00	1452.01
281.22	1513.45
281.43	1593.32
281.65	1363.95
281.86	1564.65
282.08	1540.07
282.29	1675.24
282.51	1521.64
282.73	1495.02
282.94	1505.26
283.16	1513.45
283.37	1576.94
283.59	1513.45
283.80	1507.30
284.02	1495.02
284.23	1566.70
284.45	1560.55
284.66	1505.26
284.88	1519.59
285.09	1529.83
285.31	1527.78
285.52	1527.78
285.74	1431.53
285.95	1513.45
286.17	1523.69
286.38	1527.78
286.60	1556.46
286.81	1554.41
287.03	1509.35
287.24	1574.89
287.46	1587.18
287.67	1513.45
287.89	1687.53
288.10	1552.36
288.32	1521.64
288.53	1677.29
288.75	1548.26
288.96	1535.98
289.18	1527.78
289.39	1540.07
289.61	1578.98
289.82	1587.18
290.04	1550.31
290.25	1476.59
290.47	1554.41
290.68	1509.35
290.90	1550.31
291.11	1439.72
291.33	1587.18
291.54	1462.25
291.76	1488.87
291.97	1550.31
292.18	1558.50
292.40	1482.73
292.61	1474.54
292.83	1611.75
293.04	1652.71
293.26	1570.79
293.47	1509.35
293.69	1497.07
293.90	1509.35
294.12	1490.92
294.33	1533.93
294.55	1525.74
294.76	1609.70
294.97	1474.54
295.19	1550.31
295.40	1552.36
295.62	1611.75
295.83	1619.94
296.05	1544.17
296.26	1554.41
296.48	1521.64
296.69	1527.78
296.90	1542.12
297.12	1552.36
297.33	1632.23
297.55	1556.46
297.76	1568.74
297.98	1638.38
298.19	1509.35
298.41	1482.73
298.62	1511.40
298.83	1583.08
299.05	1540.07
299.26	1482.73
299.48	1488.87
299.69	1558.50
299.90	1542.12
300.12	1443.82
300.33	1585.13
300.55	1566.70
300.76	1533.93
300.98	1535.98
301.19	1634.28
301.40	1492.97
301.62	1464.30
301.83	1550.31
302.05	1591.27
302.26	1576.94
302.47	1552.36
302.69	1517.54
302.90	1599.46
303.12	1404.91
303.33	1601.51
303.54	1611.75
303.76	1554.41
303.97	1593.32
304.19	1636.33
304.40	1474.54
304.61	1538.02
304.83	1628.14
305.04	1581.03
305.26	1548.26
305.47	1460.20
305.68	1574.89
305.90	1429.48
306.11	1509.35
306.33	1566.70
306.54	1511.40
306.75	1443.82
306.97	1427.43
307.18	1562.60
307.39	1556.46
307.61	1562.60
307.82	1486.83
308.04	1583.08
308.25	1484.78
308.46	1544.17
308.68	1503.21
308.89	1456.11
309.10	1628.14
309.32	1587.18
309.53	1501.16
309.74	1519.59
309.96	1560.55
310.17	1628.14
310.39	1527.78
310.60	1556.46
310.81	1515.50
311.03	1437.67
311.24	1509.35
311.45	1527.78
311.67	1665.00
311.88	1564.65
312.09	1589.22
312.31	1527.78
312.52	1568.74
312.73	1511.40
312.95	1460.20
313.16	1433.58
313.37	1632.23
313.59	1517.54
313.80	1564.65
314.01	1652.71
314.23	1538.02
314.44	1607.66
314.65	1447.91
314.87	1490.92
315.08	1470.44
315.29	1456.11
315.51	1458.15
315.72	1464.30
315.93	1626.09
316.15	1546.22
316.36	1509.35
316.57	1552.36
316.79	1560.55
317.00	1550.31
317.21	1642.47
317.43	1521.64
317.64	1509.35
317.85	1570.79
318.07	1515.50
318.28	1595.37
318.49	1708.01
318.70	1794.02
318.92	1728.49
319.13	1650.66
319.34	1679.33
319.56	1628.14
319.77	1693.67
319.98	1667.05
320.20	1636.33
320.41	1564.65
320.62	1578.98
320.83	1538.02
321.05	1662.95
321.26	1560.55
321.47	1505.26
321.69	1587.18
321.90	1419.24
322.11	1548.26
322.32	1556.46
322.54	1597.42
322.75	1499.11
322.96	1574.89
323.18	1490.92
323.39	1550.31
323.60	1490.92
323.81	1587.18
324.03	1495.02
324.24	1544.17
324.45	1503.21
324.66	1527.78
324.88	1521.64
325.09	1550.31
325.30	1523.69
325.52	1517.54
325.73	1552.36
325.94	1488.87
326.15	1452.01
326.37	1488.87
326.58	1591.27
326.79	1644.52
327.00	1503.21
327.22	1595.37
327.43	1462.25
327.64	1478.63
327.85	1531.88
328.07	1572.84
328.28	1589.22
328.49	1521.64
328.70	1521.64
328.92	1521.64
329.13	1480.68
329.34	1570.79
329.55	1599.46
329.76	1630.18
329.98	1533.93
330.19	1597.42
330.40	1474.54
330.61	1515.50
330.83	1617.90
331.04	1435.63
331.25	1525.74
331.46	1511.40
331.68	1443.82
331.89	1560.55
332.10	1529.83
332.31	1542.12
332.52	1578.98
332.74	1611.75
332.95	1507.30
333.16	1603.56
333.37	1566.70
333.58	1503.21
333.80	1560.55
334.01	1509.35
334.22	1490.92
334.43	1523.69
334.64	1552.36
334.86	1501.16
335.07	1486.83
335.28	1513.45
335.49	1460.20
335.70	1552.36
335.92	1529.83
336.13	1630.18
336.34	1535.98
336.55	1476.59
336.76	1615.85
336.98	1525.74
337.19	1587.18
337.40	1597.42
337.61	1603.56
337.82	1525.74
338.04	1621.99
338.25	1441.77
338.46	1511.40
338.67	1492.97
338.88	1497.07
339.09	1554.41
339.31	1538.02
339.52	1497.07
339.73	1480.68
339.94	1593.32
340.15	1593.32
340.36	1509.35
340.58	1591.27
340.79	1482.73
341.00	1591.27
341.21	1501.16
341.42	1595.37
341.63	1484.78
341.85	1503.21
342.06	1574.89
342.27	1490.92
342.48	1619.94
342.69	1544.17
342.90	1599.46
343.12	1550.31
343.33	1544.17
343.54	1495.02
343.75	1601.51
343.96	1529.83
344.17	1488.87
344.38	1458.15
344.60	1497.07
344.81	1554.41
345.02	1421.29
345.23	1523.69
345.44	1681.38
345.65	1617.90
345.86	1525.74
346.07	1462.25
346.29	1583.08
346.50	1484.78
346.71	1587.18
346.92	1652.71
347.13	1599.46
347.34	1552.36
347.55	1523.69
347.76	1566.70
347.98	1470.44
348.19	1540.07
348.40	1636.33
348.61	1521.64
348.82	1630.18
349.03	1570.79
349.24	1527.78
349.45	1660.90
349.66	1505.26
349.88	1568.74
350.09	1423.34
350.30	1611.75
350.51	1566.70
350.72	1529.83
350.93	1531.88
351.14	1472.49
351.35	1558.50
351.56	1538.02
351.77	1576.94
351.99	1589.22
352.20	1574.89
352.41	1535.98
352.62	1523.69
352.83	1544.17
353.04	1599.46
353.25	1486.83
353.46	1576.94
353.67	1568.74
353.88	1445.87
354.09	1591.27
354.30	1525.74
354.52	1538.02
354.73	1597.42
354.94	1552.36
355.15	1568.74
355.36	1568.74
355.57	1509.35
355.78	1521.64
355.99	1480.68
356.20	1468.39
356.41	1562.60
356.62	1562.60
356.83	1529.83
357.04	1554.41
357.25	1470.44
357.46	1460.20
357.68	1595.37
357.89	1519.59
358.10	1538.02
358.31	1517.54
358.52	1535.98
358.73	1499.11
358.94	1560.55
359.15	1558.50
359.36	1626.09
359.57	1517.54
359.78	1484.78
359.99	1497.07
360.20	1443.82
360.41	1611.75
360.62	1630.18
360.83	1548.26
361.04	1507.30
361.25	1527.78
361.46	1603.56
361.67	1589.22
361.88	1581.03
362.09	1605.61
362.30	1568.74
362.51	1458.15
362.72	1507.30
362.93	1515.50
363.14	1554.41
363.35	1587.18
363.56	1593.32
363.78	1609.70
363.99	1558.50
364.20	1505.26
364.41	1517.54
364.62	1615.85
364.83	1554.41
365.04	1619.94
365.25	1542.12
365.46	1636.33
365.67	1495.02
365.88	1587.18
366.09	1515.50
366.30	1490.92
366.51	1589.22
366.72	1572.84
366.93	1533.93
367.14	1560.55
367.35	1607.66
367.56	1566.70
367.77	1642.47
367.98	1495.02
368.18	1540.07
368.39	1540.07
368.60	1540.07
368.81	1648.61
369.02	1548.26
369.23	1519.59
369.44	1482.73
369.65	1505.26
369.86	1499.11
370.07	1511.40
370.28	1562.60
370.49	1492.97
370.70	1513.45
370.91	1503.21
371.12	1409.00
371.33	1523.69
371.54	1533.93
371.75	1546.22
371.96	1519.59
372.17	1505.26
372.38	1486.83
372.59	1552.36
372.80	1554.41
373.01	1525.74
373.22	1548.26
373.43	1599.46
373.64	1517.54
373.85	1558.50
374.06	1611.75
374.26	1540.07
374.47	1619.94
374.68	1591.27
374.89	1525.74
375.10	1476.59
375.31	1515.50
375.52	1533.93
375.73	1535.98
375.94	1427.43
376.15	1624.04
376.36	1425.39
376.57	1587.18
376.78	1546.22
376.99	1509.35
377.20	1662.95
377.40	1503.21
377.61	1570.79
377.82	1421.29
378.03	1603.56
378.24	1511.40
378.45	1544.17
378.66	1454.06
378.87	1511.40
379.08	1443.82
379.29	1492.97
379.50	1533.93
379.71	1497.07
379.91	1570.79
380.12	1566.70
380.33	1546.22
380.54	1546.22
380.75	1513.45
380.96	1462.25
381.17	1587.18
381.38	1509.35
381.59	1603.56
381.80	1642.47
382.00	1697.77
382.21	1566.70
382.42	1615.85
382.63	1689.57
382.84	1585.13
383.05	1562.60
383.26	1658.85
383.47	1564.65
383.68	1603.56
383.88	1660.90
384.09	1529.83
384.30	1609.70
384.51	1554.41
384.72	1466.35
384.93	1525.74
385.14	1523.69
385.35	1560.55
385.55	1488.87
385.76	1626.09
385.97	1464.30
386.18	1486.83
386.39	1492.97
386.60	1554.41
386.81	1525.74
387.02	1548.26
387.22	1552.36
387.43	1665.00
387.64	1677.29
387.85	1818.60
388.06	3252.17
388.27	7141.27
388.48	10661.73
388.68	12652.35
388.89	13913.90
389.10	13031.23
389.31	10352.48
389.52	8847.22
389.73	7792.52
389.93	7262.10
390.14	6662.04
390.35	6254.50
390.56	5601.19
390.77	4605.88
390.98	3723.21
391.18	2811.86
391.39	2211.81
391.60	1722.34
391.81	1693.67
392.02	1540.07
392.23	1669.09
392.43	1509.35
392.64	1632.23
392.85	1566.70
393.06	1624.04
393.27	1542.12
393.47	1589.22
393.68	1462.25
393.89	1562.60
394.10	1605.61
394.31	1488.87
394.52	1564.65
394.72	1521.64
394.93	1570.79
395.14	1488.87
395.35	1624.04
395.56	1589.22
395.76	1636.33
395.97	1636.33
396.18	1796.07
396.39	1710.05
396.60	1898.47
396.80	1718.25
397.01	1712.10
397.22	1634.28
397.43	1648.61
397.64	1607.66
397.84	1576.94
398.05	1585.13
398.26	1605.61
398.47	1683.43
398.67	1621.99
398.88	1509.35
399.09	1525.74
399.30	1578.98
399.51	1511.40
399.71	1558.50
399.92	1486.83
400.13	1564.65
400.34	1515.50
400.54	1542.12
400.75	1591.27
400.96	1509.35
401.17	1640.42
401.37	1558.50
401.58	1609.70
401.79	1605.61
402.00	1877.99
402.21	1935.33
402.41	1966.05
402.62	1992.67
402.83	1935.33
403.04	1769.44
403.24	1861.60
403.45	1783.78
403.66	1757.16
403.87	1755.11
404.07	1667.05
404.28	1708.01
404.49	1722.34
404.70	1583.08
404.90	1556.46
405.11	1624.04
405.32	1544.17
405.52	1576.94
405.73	1519.59
405.94	1435.63
406.15	1558.50
406.35	1521.64
406.56	1669.09
406.77	1603.56
406.98	1546.22
407.18	1490.92
407.39	1628.14
407.60	1548.26
407.80	1597.42
408.01	1513.45
408.22	1538.02
408.43	1556.46
408.63	1474.54
408.84	1677.29
409.05	1605.61
409.25	1474.54
409.46	1519.59
409.67	1615.85
409.88	1507.30
410.08	1583.08
410.29	1632.23
410.50	1566.70
410.70	1538.02
410.91	1460.20
411.12	1533.93
411.32	1578.98
411.53	1558.50
411.74	1648.61
411.95	1654.76
412.15	1566.70
412.36	1699.81
412.57	1601.51
412.77	1652.71
412.98	1540.07
413.19	1529.83
413.39	1595.37
413.60	1535.98
413.81	1581.03
414.01	1583.08
414.22	1544.17
414.43	1656.81
414.63	1574.89
414.84	1513.45
415.05	1540.07
415.25	1443.82
415.46	1492.97
415.67	1492.97
415.87	1585.13
416.08	1544.17
416.29	1513.45
416.49	1497.07
416.70	1474.54
416.91	1476.59
417.11	1587.18
417.32	1568.74
417.53	1638.38
417.73	1570.79
417.94	1507.30
418.15	1568.74
418.35	1548.26
418.56	1558.50
418.77	1638.38
418.97	1503.21
419.18	1515.50
419.38	1462.25
419.59	1544.17
419.80	1552.36
420.00	1583.08
420.21	1527.78
420.42	1607.66
420.62	1583.08
420.83	1488.87
421.04	1535.98
421.24	1523.69
421.45	1529.83
421.65	1564.65
421.86	1480.68
422.07	1517.54
422.27	1624.04
422.48	1499.11
422.69	1527.78
422.89	1533.93
423.10	1538.02
423.30	1503.21
423.51	1452.01
423.72	1554.41
423.92	1542.12
424.13	1468.39
424.33	1546.22
424.54	1624.04
424.75	1495.02
424.95	1748.97
425.16	1564.65
425.36	1505.26
425.57	1585.13
425.78	1574.89
425.98	1585.13
426.19	1540.07
426.39	1552.36
426.60	1546.22
426.81	1587.18
427.01	1521.64
427.22	1542.12
427.42	1484.78
427.63	1554.41
427.83	1634.28
428.04	1615.85
428.25	1669.09
428.45	1587.18
428.66	1562.60
428.86	1535.98
429.07	1495.02
429.28	1517.54
429.48	1525.74
429.69	1525.74
429.89	1556.46
430.10	1490.92
430.30	1624.04
430.51	1562.60
430.71	1478.63
430.92	1533.93
431.13	1552.36
431.33	1540.07
431.54	1554.41
431.74	1652.71
431.95	1619.94
432.15	1501.16
432.36	1538.02
432.56	1548.26
432.77	1607.66
432.98	1640.42
433.18	1529.83
433.39	1525.74
433.59	1574.89
433.80	1574.89
434.00	1660.90
434.21	1501.16
434.41	1546.22
434.62	1617.90
434.82	1437.67
435.03	1535.98
435.23	1574.89
435.44	1470.44
435.64	1613.80
435.85	1535.98
436.06	1617.90
436.26	1531.88
436.47	1517.54
436.67	1566.70
436.88	1550.31
437.08	1560.55
437.29	1595.37
437.49	1564.65
437.70	1587.18
437.90	1558.50
438.11	1693.67
438.31	1626.09
438.52	1724.39
438.72	1755.11
438.93	1814.50
439.13	1564.65
439.34	1652.71
439.54	1574.89
439.75	1652.71
439.95	1660.90
440.16	1550.31
440.36	1642.47
440.57	1609.70
440.77	1583.08
440.98	1609.70
441.18	1517.54
441.39	1517.54
441.59	1509.35
441.80	1568.74
442.00	1531.88
442.21	1611.75
442.41	1550.31
442.62	1527.78
442.82	1554.41
443.02	1564.65
443.23	1570.79
443.43	1525.74
443.64	1638.38
443.84	1507.30
444.05	1558.50
444.25	1552.36
444.46	1599.46
444.66	1525.74
444.87	1705.96
445.07	1492.97
445.28	1480.68
445.48	1552.36
445.69	1509.35
445.89	1640.42
446.09	1628.14
446.30	2047.97
446.50	3211.22
446.71	4495.29
446.91	5302.19
447.12	5947.30
447.32	5619.63
447.53	4644.79
447.73	4003.78
447.93	3653.58
448.14	3418.06
448.34	3184.59
448.55	2918.36
448.75	2938.84
448.96	2766.81
449.16	2486.23
449.36	2293.72
449.57	1937.38
449.77	1753.06
449.98	1689.57
450.18	1703.91
450.39	1636.33
450.59	1533.93
450.79	1605.61
451.00	1482.73
451.20	1515.50
451.41	1540.07
451.61	1628.14
451.81	1490.92
452.02	1527.78
452.22	1492.97
452.43	1511.40
452.63	1523.69
452.84	1550.31
453.04	1566.70
453.24	1529.83
453.45	1445.87
453.65	1523.69
453.86	1583.08
454.06	1599.46
454.26	1550.31
454.47	1525.74
454.67	1521.64
454.87	1488.87
455.08	1599.46
455.28	1566.70
455.49	1585.13
455.69	1476.59
455.89	1640.42
456.10	1589.22
456.30	1454.06
456.51	1572.84
456.71	1583.08
456.91	1603.56
457.12	1576.94
457.32	1589.22
457.52	1497.07
457.73	1484.78
457.93	1511.40
458.14	1482.73
458.34	1445.87
458.54	1564.65
458.75	1540.07
458.95	1607.66
459.15	1587.18
459.36	1572.84
459.56	1611.75
459.76	1609.70
459.97	1546.22
460.17	1503.21
460.37	1585.13
460.58	1529.83
460.78	1581.03
460.99	1535.98
461.19	1482.73
461.39	1503.21
461.60	1525.74
461.80	1665.00
462.00	1511.40
462.21	1562.60
462.41	1486.83
462.61	1497.07
462.82	1464.30
463.02	1540.07
463.22	1544.17
463.43	1593.32
463.63	1566.70
463.83	1615.85
464.04	1626.09
464.24	1572.84
464.44	1501.16
464.64	1529.83
464.85	1652.71
465.05	1523.69
465.25	1554.41
465.46	1503.21
465.66	1570.79
465.86	1558.50
466.07	1540.07
466.27	1566.70
466.47	1462.25
466.68	1509.35
466.88	1632.23
467.08	1587.18
467.29	1615.85
467.49	1587.18
467.69	1599.46
467.89	1566.70
468.10	1517.54
468.30	1546.22
468.50	1630.18
468.71	1605.61
468.91	1519.59
469.11	1640.42
469.31	1550.31
469.52	1562.60
469.72	1554.41
469.92	1671.14
470.13	1501.16
470.33	1605.61
470.53	1673.19
470.73	2119.65
470.94	2375.64
471.14	2455.51
471.34	2600.92
471.54	2459.61
471.75	2191.33
471.95	2064.35
472.15	2088.93
472.36	1933.28
472.56	1912.80
472.76	1972.19
472.96	1869.80
473.17	1777.64
473.37	1753.06
473.57	1738.73
473.77	1662.95
473.98	1572.84
474.18	1486.83
474.38	1634.28
474.58	1566.70
474.79	1525.74
474.99	1572.84
475.19	1572.84
475.39	1468.39
475.60	1550.31
475.80	1591.27
476.00	1581.03
476.20	1570.79
476.41	1540.07
476.61	1583.08
476.81	1626.09
477.01	1478.63
477.21	1593.32
477.42	1681.38
477.62	1478.63
477.82	1595.37
478.02	1501.16
478.23	1566.70
478.43	1464.30
478.63	1570.79
478.83	1607.66
479.03	1542.12
479.24	1626.09
479.44	1583.08
479.64	1464.30
479.84	1503.21
480.04	1437.67
480.25	1626.09
480.45	1497.07
480.65	1599.46
480.85	1626.09
481.06	1568.74
481.26	1546.22
481.46	1617.90
481.66	1550.31
481.86	1566.70
482.06	1568.74
482.27	1527.78
482.47	1531.88
482.67	1640.42
482.87	1603.56
483.07	1630.18
483.28	1554.41
483.48	1470.44
483.68	1554.41
483.88	1468.39
484.08	1513.45
484.29	1519.59
484.49	1527.78
484.69	1445.87
484.89	1599.46
485.09	1570.79
485.29	1560.55
485.50	1517.54
485.70	1517.54
485.90	1658.85
486.10	1533.93
486.30	1601.51
486.50	1593.32
486.71	1552.36
486.91	1576.94
487.11	1581.03
487.31	1476.59
487.51	1570.79
487.71	1492.97
487.91	1564.65
488.12	1474.54
488.32	1425.39
488.52	1540.07
488.72	1603.56
488.92	1546.22
489.12	1591.27
489.32	1542.12
489.53	1535.98
489.73	1505.26
489.93	1615.85
490.13	1531.88
490.33	1443.82
490.53	1529.83
490.73	1562.60
490.94	1552.36
491.14	1619.94
491.34	1642.47
491.54	2197.47
491.74	2627.54
491.94	3090.38
492.14	3354.57
492.34	3313.61
492.54	2799.57
492.75	2572.25
492.95	2400.22
493.15	2240.48
493.35	2131.94
493.55	2228.19
493.75	2072.54
493.95	2064.35
494.15	1880.04
494.35	1804.26
494.56	1740.77
494.76	1669.09
494.96	1550.31
495.16	1619.94
495.36	1542.12
495.56	1525.74
495.76	1644.52
495.96	1542.12
496.16	1540.07
496.36	1667.05
496.56	1566.70
496.77	1521.64
496.97	1544.17
497.17	1574.89
497.37	1480.68
497.57	1574.89
497.77	1540.07
497.97	1468.39
498.17	1511.40
498.37	1533.93
498.57	1605.61
498.77	1533.93
498.97	1589.22
499.17	1630.18
499.38	1546.22
499.58	1644.52
499.78	1611.75
499.98	1556.46
500.18	1535.98
500.38	1482.73
500.58	1761.25
500.78	2748.37
500.98	5195.70
501.18	6678.43
501.38	8353.66
501.58	8851.32
501.78	7958.41
501.98	5889.96
502.18	5453.74
502.38	4642.75
502.58	4267.97
502.78	3866.56
502.98	3778.50
503.18	3573.71
503.38	3354.57
503.59	3098.58
503.79	2869.20
503.99	2482.14
504.19	2357.21
504.39	2181.09
504.59	2115.55
504.79	2062.30
504.99	1941.47
505.19	1658.85
505.39	1740.77
505.59	1736.68
505.79	1714.15
505.99	1619.94
506.19	1701.86
506.39	1669.09
506.59	1634.28
506.79	1601.51
506.99	1585.13
507.19	1648.61
507.39	1570.79
507.59	1515.50
507.79	1517.54
507.99	1589.22
508.19	1617.90
508.39	1562.60
508.59	1511.40
508.79	1683.43
508.99	1656.81
509.19	1492.97
509.39	1562.60
509.59	1476.59
509.79	1615.85
509.99	1566.70
510.19	1531.88
510.39	1583.08
510.59	1535.98
510.79	1533.93
510.99	1550.31
511.19	1525.74
511.39	1634.28
511.59	1644.52
511.79	1591.27
511.99	1589.22
512.19	1570.79
512.38	1570.79
512.58	1503.21
512.78	1523.69
512.98	1566.70
513.18	1574.89
513.38	1495.02
513.58	1609.70
513.78	1566.70
513.98	1521.64
514.18	1517.54
514.38	1533.93
514.58	1593.32
514.78	1601.51
514.98	1544.17
515.18	1521.64
515.38	1495.02
515.58	1621.99
515.78	1548.26
515.98	1558.50
516.18	1525.74
516.38	1521.64
516.57	1435.63
516.77	1587.18
516.97	1531.88
517.17	1560.55
517.37	1490.92
517.57	1542.12
517.77	1593.32
517.97	1544.17
518.17	1599.46
518.37	1456.11
518.57	1556.46
518.77	1511.40
518.97	1492.97
519.16	1581.03
519.36	1675.24
519.56	1505.26
519.76	1499.11
519.96	1533.93
520.16	1609.70
520.36	1517.54
520.56	1554.41
520.76	1531.88
520.96	1519.59
521.16	1572.84
521.35	1642.47
521.55	1607.66
521.75	1609.70
521.95	1546.22
522.15	1558.50
522.35	1488.87
522.55	1507.30
522.75	1546.22
522.95	1554.41
523.14	1460.20
523.34	1558.50
523.54	1458.15
523.74	1646.57
523.94	1599.46
524.14	1458.15
524.34	1560.55
524.54	1619.94
524.73	1533.93
524.93	1495.02
525.13	1552.36
525.33	1548.26
525.53	1671.14
525.73	1574.89
525.93	1535.98
526.13	1464.30
526.32	1521.64
526.52	1593.32
526.72	1619.94
526.92	1566.70
527.12	1492.97
527.32	1470.44
527.52	1531.88
527.71	1474.54
527.91	1511.40
528.11	1478.63
528.31	1535.98
528.51	1486.83
528.71	1560.55
528.90	1544.17
529.10	1656.81
529.30	1607.66
529.50	1468.39
529.70	1593.32
529.90	1507.30
530.09	1611.75
530.29	1462.25
530.49	1544.17
530.69	1619.94
530.89	1572.84
531.09	1566.70
531.28	1501.16
531.48	1568.74
531.68	1488.87
531.88	1587.18
532.08	1632.23
532.28	1517.54
532.47	1515.50
532.67	1507.30
532.87	1558.50
533.07	1492.97
533.27	1685.48
533.46	1527.78
533.66	1509.35
533.86	1568.74
534.06	1636.33
534.26	1570.79
534.45	1546.22
534.65	1583.08
534.85	1581.03
535.05	1550.31
535.25	1583.08
535.44	1499.11
535.64	1529.83
535.84	1568.74
536.04	1525.74
536.24	1564.65
536.43	1523.69
536.63	1593.32
536.83	1511.40
537.03	1587.18
537.22	1492.97
537.42	1464.30
537.62	1585.13
537.82	1554.41
538.02	1683.43
538.21	1652.71
538.41	1720.29
538.61	1511.40
538.81	1472.49
539.00	1542.12
539.20	1501.16
539.40	1486.83
539.60	1552.36
539.79	1576.94
539.99	1439.72
540.19	1572.84
540.39	1535.98
540.58	1583.08
540.78	1613.80
540.98	1566.70
541.18	1656.81
541.37	1607.66
541.57	1587.18
541.77	1595.37
541.97	1578.98
542.16	1425.39
542.36	1511.40
542.56	1607.66
542.76	1546.22
542.95	1599.46
543.15	1597.42
543.35	1566.70
543.54	1470.44
543.74	1507.30
543.94	1550.31
544.14	1550.31
544.33	1544.17
544.53	1542.12
544.73	1542.12
544.93	1564.65
545.12	1490.92
545.32	1513.45
545.52	1521.64
545.71	1439.72
545.91	1472.49
546.11	1570.79
546.30	1564.65
546.50	1546.22
546.70	1535.98
546.90	1566.70
547.09	1435.63
547.29	1556.46
547.49	1628.14
547.68	1556.46
547.88	1533.93
548.08	1527.78
548.27	1871.84
548.47	1525.74
548.67	1509.35
548.87	1552.36
549.06	1525.74
549.26	1490.92
549.46	1581.03
549.65	1509.35
549.85	1552.36
550.05	1597.42
550.24	1531.88
550.44	1548.26
550.64	1556.46
550.83	1509.35
551.03	1673.19
551.23	1628.14
551.42	1566.70
551.62	1501.16
551.82	1562.60
552.01	1525.74
552.21	1632.23
552.41	1585.13
552.60	1609.70
552.80	1527.78
553.00	1560.55
553.19	1462.25
553.39	1669.09
553.59	1486.83
553.78	1566.70
553.98	1570.79
554.17	1490.92
554.37	1535.98
554.57	1599.46
554.76	1437.67
554.96	1484.78
555.16	1552.36
555.35	1484.78
555.55	1587.18
555.75	1658.85
555.94	1564.65
556.14	1437.67
556.33	1642.47
556.53	1562.60
556.73	1615.85
556.92	1619.94
557.12	1636.33
557.32	1566.70
557.51	1560.55
557.71	1482.73
557.90	1587.18
558.10	1570.79
558.30	1486.83
558.49	1554.41
558.69	1578.98
558.88	1566.70
559.08	1546.22
559.28	1501.16
559.47	1609.70
559.67	1497.07
559.86	1546.22
560.06	1505.26
560.26	1595.37
560.45	1497.07
560.65	1503.21
560.84	1617.90
561.04	1529.83
561.24	1548.26
561.43	1476.59
561.63	1591.27
561.82	1576.94
562.02	1556.46
562.22	1501.16
562.41	1509.35
562.61	1501.16
562.80	1486.83
563.00	1566.70
563.19	1554.41
563.39	1615.85
563.59	1568.74
563.78	1488.87
563.98	1452.01
564.17	1578.98
564.37	1497.07
564.56	1503.21
564.76	1478.63
564.96	1599.46
565.15	1660.90
565.35	1632.23
565.54	1597.42
565.74	1538.02
565.93	1472.49
566.13	1587.18
566.32	1648.61
566.52	1617.90
566.71	1517.54
566.91	1550.31
567.11	1544.17
567.30	1527.78
567.50	1576.94
567.69	1595.37
567.89	1568.74
568.08	1511.40
568.28	1581.03
568.47	1497.07
568.67	1603.56
568.86	1572.84
569.06	1554.41
569.25	1591.27
569.45	1480.68
569.64	1515.50
569.84	1566.70
570.04	1583.08
570.23	1556.46
570.43	1544.17
570.62	1519.59
570.82	1695.72
571.01	1437.67
571.21	1552.36
571.40	1486.83
571.60	1566.70
571.79	1576.94
571.99	1605.61
572.18	1546.22
572.38	1552.36
572.57	1607.66
572.77	1611.75
572.96	1617.90
573.16	1597.42
573.35	1593.32
573.55	1662.95
573.74	1626.09
573.94	1568.74
574.13	1554.41
574.33	1626.09
574.52	1642.47
574.71	1566.70
574.91	1585.13
575.10	1560.55
575.30	1585.13
575.49	1548.26
575.69	1564.65
575.88	1570.79
576.08	1523.69
576.27	1632.23
576.47	1605.61
576.66	1687.53
576.86	1638.38
577.05	1595.37
577.25	1546.22
577.44	1683.43
577.64	1562.60
577.83	1589.22
578.02	1562.60
578.22	1658.85
578.41	1634.28
578.61	1564.65
578.80	1589.22
579.00	1626.09
579.19	1558.50
579.39	1587.18
579.58	1595.37
579.77	1609.70
579.97	1644.52
580.16	1693.67
580.36	1609.70
580.55	1636.33
580.75	1566.70
580.94	1470.44
581.13	1687.53
581.33	1654.76
581.52	1607.66
581.72	1658.85
581.91	1621.99
582.11	1613.80
582.30	1642.47
582.49	1619.94
582.69	1665.00
582.88	1667.05
583.08	1607.66
583.27	1587.18
583.47	1634.28
583.66	1548.26
583.85	1542.12
584.05	1603.56
584.24	1621.99
584.44	1656.81
584.63	1667.05
584.82	1669.09
585.02	1701.86
585.21	1802.21
585.41	1773.54
585.60	1787.88
585.79	1818.60
585.99	1851.36
586.18	1853.41
586.37	2054.11
586.57	3129.30
586.76	9566.06
586.96	27248.22
587.15	43808.10
587.34	54338.75
587.54	61619.28
587.73	59526.26
587.93	43988.32
588.12	32529.94
588.31	25886.32
588.51	21935.79
588.70	20002.51
588.89	18403.05
589.09	17108.73
589.28	15425.30
589.47	13332.28
589.67	11183.96
589.86	8935.29
590.06	6784.92
590.25	5150.64
590.44	3885.00
590.64	2854.87
590.83	2297.82
591.02	2070.50
591.22	1886.18
591.41	1783.78
591.60	1701.86
591.80	1787.88
591.99	1607.66
592.18	1605.61
592.38	1607.66
592.57	1576.94
592.76	1564.65
592.96	1609.70
593.15	1587.18
593.34	1609.70
593.54	1603.56
593.73	1656.81
593.92	1617.90
594.12	1617.90
594.31	1589.22
594.50	1718.25
594.70	1714.15
594.89	1724.39
595.08	1525.74
595.28	1628.14
595.47	1693.67
595.66	1529.83
595.86	1525.74
596.05	1624.04
596.24	1513.45
596.43	1583.08
596.63	1642.47
596.82	1609.70
597.01	1665.00
597.21	1632.23
597.40	1710.05
597.59	1599.46
597.79	1583.08
597.98	1576.94
598.17	1595.37
598.36	1556.46
598.56	1628.14
598.75	1509.35
598.94	1566.70
599.14	1546.22
599.33	1497.07
599.52	1617.90
599.71	1667.05
599.91	1615.85
600.10	1566.70
600.29	1517.54
600.48	1546.22
600.68	1619.94
600.87	1509.35
601.06	1558.50
601.26	1540.07
601.45	1556.46
601.64	1497.07
601.83	1621.99
602.03	1505.26
602.22	1456.11
602.41	1611.75
602.60	1669.09
602.80	1599.46
602.99	1529.83
603.18	1595.37
603.37	1601.51
603.57	1550.31
603.76	1654.76
603.95	1662.95
604.14	1531.88
604.34	1554.41
604.53	1529.83
604.72	1525.74
604.91	1595.37
605.10	1601.51
605.30	1535.98
605.49	1648.61
605.68	1621.99
605.87	1578.98
606.07	1517.54
606.26	1550.31
606.45	1527.78
606.64	1523.69
606.84	1574.89
607.03	1613.80
607.22	1603.56
607.41	1650.66
607.60	1642.47
607.80	1650.66
607.99	1626.09
608.18	1574.89
608.37	1527.78
608.56	1540.07
608.76	1658.85
608.95	1632.23
609.14	1619.94
609.33	1669.09
609.52	1644.52
609.72	1697.77
609.91	1621.99
610.10	1644.52
610.29	1576.94
610.48	1538.02
610.68	1593.32
610.87	1585.13
611.06	1640.42
611.25	1548.26
611.44	1619.94
611.63	1509.35
611.83	1556.46
612.02	1519.59
612.21	1662.95
612.40	1497.07
612.59	1515.50
612.79	1476.59
612.98	1546.22
613.17	1650.66
613.36	1505.26
613.55	1648.61
613.74	1673.19
613.93	1687.53
614.13	1732.58
614.32	1742.82
614.51	1763.30
614.70	1660.90
614.89	1636.33
615.08	1683.43
615.28	1851.36
615.47	1566.70
615.66	1675.24
615.85	1621.99
616.04	1718.25
616.23	1578.98
616.42	1548.26
616.62	1605.61
616.81	1609.70
617.00	1523.69
617.19	1593.32
617.38	1533.93
617.57	1581.03
617.76	1609.70
617.95	1638.38
618.15	1630.18
618.34	1652.71
618.53	1648.61
618.72	1634.28
618.91	1550.31
619.10	1628.14
619.29	1488.87
619.48	1550.31
619.68	1531.88
619.87	1525.74
620.06	1464.30
620.25	1624.04
620.44	1480.68
620.63	1488.87
620.82	1533.93
621.01	1495.02
621.20	1527.78
621.39	1550.31
621.59	1525.74
621.78	1568.74
621.97	1581.03
622.16	1601.51
622.35	1511.40
622.54	1544.17
622.73	1564.65
622.92	1488.87
623.11	1550.31
623.30	1464.30
623.49	1560.55
623.68	1509.35
623.88	1572.84
624.07	1431.53
624.26	1564.65
624.45	1576.94
624.64	1449.96
624.83	1542.12
625.02	1460.20
625.21	1548.26
625.40	1556.46
625.59	1624.04
625.78	1615.85
625.97	1605.61
626.16	1689.57
626.35	1689.57
626.54	1671.14
626.74	1630.18
626.93	1634.28
627.12	1607.66
627.31	1640.42
627.50	1615.85
627.69	1583.08
627.88	1540.07
628.07	1523.69
628.26	1478.63
628.45	1466.35
628.64	1538.02
628.83	1601.51
629.02	1490.92
629.21	1533.93
629.40	1589.22
629.59	1546.22
629.78	1474.54
629.97	1578.98
630.16	1546.22
630.35	1542.12
630.54	1589.22
630.73	1462.25
630.92	1533.93
631.11	1507.30
631.30	1501.16
631.49	1556.46
631.68	1523.69
631.87	1521.64
632.06	1476.59
632.25	1679.33
632.44	1533.93
632.63	1589.22
632.82	1615.85
633.01	1650.66
633.20	1656.81
633.39	1603.56
633.58	1648.61
633.77	1652.71
633.96	1634.28
634.15	1603.56
634.34	1562.60
634.53	1583.08
634.72	1554.41
634.91	1501.16
635.10	1533.93
635.29	1595.37
635.48	1550.31
635.67	1611.75
635.86	1486.83
636.05	1593.32
636.24	1462.25
636.43	1531.88
636.62	1607.66
636.81	1363.95
637.00	1574.89
637.19	1542.12
637.38	1511.40
637.57	1480.68
637.76	1531.88
637.95	1683.43
638.14	1665.00
638.33	1634.28
638.52	1619.94
638.71	1667.05
638.89	1542.12
639.08	1728.49
639.27	1636.33
639.46	1660.90
639.65	1978.34
639.84	2050.02
640.03	2187.23
640.22	2152.42
640.41	2248.67
640.60	1894.37
640.79	1818.60
640.98	1796.07
641.17	1767.40
641.36	1789.92
641.55	1708.01
641.74	1578.98
641.92	1591.27
642.11	1644.52
642.30	1634.28
642.49	1638.38
642.68	1603.56
642.87	1591.27
643.06	1538.02
643.25	1533.93
643.44	1466.35
643.63	1581.03
643.82	1593.32
644.00	1452.01
644.19	1607.66
644.38	1509.35
644.57	1513.45
644.76	1533.93
644.95	1533.93
645.14	1458.15
645.33	1503.21
645.52	1570.79
645.71	1474.54
645.89	1499.11
646.08	1503.21
646.27	1540.07
646.46	1665.00
646.65	1409.00
646.84	1591.27
647.03	1515.50
647.22	1572.84
647.40	1576.94
647.59	1529.83
647.78	1452.01
647.97	1529.83
648.16	1427.43
648.35	1548.26
648.54	1564.65
648.73	1556.46
648.91	1634.28
649.10	1519.59
649.29	1501.16
649.48	1609.70
649.67	1515.50
649.86	1492.97
650.05	1538.02
650.23	1675.24
650.42	1640.42
650.61	1722.34
650.80	1810.40
650.99	1730.53
651.18	1681.38
651.36	1568.74
651.55	1578.98
651.74	1685.48
651.93	1585.13
652.12	1595.37
652.31	1533.93
652.49	1566.70
652.68	1593.32
652.87	1609.70
653.06	1548.26
653.25	1646.57
653.44	1482.73
653.62	1634.28
653.81	1626.09
654.00	1626.09
654.19	1544.17
654.38	1781.73
654.56	1603.56
654.75	1429.48
654.94	1605.61
655.13	1591.27
655.32	1554.41
655.51	1605.61
655.69	1533.93
655.88	1460.20
656.07	1523.69
656.26	1521.64
656.45	1460.20
656.63	1519.59
656.82	1562.60
657.01	1550.31
657.20	1546.22
657.38	1644.52
657.57	1576.94
657.76	1468.39
657.95	1560.55
658.14	1517.54
658.32	1564.65
658.51	1499.11
658.70	1568.74
658.89	1560.55
659.08	1499.11
659.26	1656.81
659.45	1552.36
659.64	1523.69
659.83	1597.42
660.01	1742.82
660.20	1585.13
660.39	1660.90
660.58	1519.59
660.76	1546.22
660.95	1429.48
661.14	1519.59
661.33	1546.22
661.51	1562.60
661.70	1585.13
661.89	1552.36
662.08	1531.88
662.26	1562.60
662.45	1437.67
662.64	1611.75
662.83	1581.03
663.01	1501.16
663.20	1566.70
663.39	1556.46
663.58	1562.60
663.76	1564.65
663.95	1585.13
664.14	1501.16
664.32	1523.69
664.51	1509.35
664.70	1540.07
664.89	1619.94
665.07	1497.07
665.26	1540.07
665.45	1521.64
665.64	1560.55
665.82	1624.04
666.01	1630.18
666.20	1535.98
666.38	1624.04
666.57	1607.66
666.76	1814.50
666.95	2858.96
667.13	7659.40
667.32	15642.39
667.51	20186.83
667.69	23537.30
667.88	25536.12
668.07	22374.06
668.25	16035.60
668.44	12642.11
668.63	10026.86
668.81	8646.52
669.00	7778.19
669.19	7163.79
669.38	6444.96
669.56	5668.78
669.75	4831.16
669.94	4126.66
670.12	3330.00
670.31	2836.44
670.50	2424.80
670.68	2115.55
670.87	1824.74
671.06	1753.06
671.24	1722.34
671.43	1753.06
671.62	1724.39
671.80	1566.70
671.99	1669.09
672.18	1615.85
672.36	1636.33
672.55	1626.09
672.74	1615.85
672.92	1568.74
673.11	1585.13
673.29	1509.35
673.48	1593.32
673.67	1527.78
673.85	1611.75
674.04	1531.88
674.23	1656.81
674.41	1671.14
674.60	1486.83
674.79	1513.45
674.97	1492.97
675.16	1589.22
675.34	1609.70
675.53	1507.30
675.72	1554.41
675.90	1632.23
676.09	1544.17
676.28	1564.65
676.46	1503.21
676.65	1632.23
676.83	1574.89
677.02	1511.40
677.21	1523.69
677.39	1589.22
677.58	1437.67
677.77	1486.83
677.95	1480.68
678.14	1490.92
678.32	1535.98
678.51	1499.11
678.70	1585.13
678.88	1566.70
679.07	1583.08
679.25	1548.26
679.44	1562.60
679.63	1486.83
679.81	1509.35
680.00	1562.60
680.18	1581.03
680.37	1632.23
680.55	1583.08
680.74	1452.01
680.93	1435.63
681.11	1560.55
681.30	1519.59
681.48	1560.55
681.67	1605.61
681.85	1560.55
682.04	1525.74
682.23	1585.13
682.41	1472.49
682.60	1492.97
682.78	1595.37
682.97	1552.36
683.15	1615.85
683.34	1507.30
683.53	1578.98
683.71	1484.78
683.90	1560.55
684.08	1624.04
684.27	1527.78
684.45	1550.31
684.64	1540.07
684.82	1507.30
685.01	1495.02
685.19	1546.22
685.38	1548.26
685.57	1521.64
685.75	1542.12
685.94	1474.54
686.12	1517.54
686.31	1484.78
686.49	1648.61
686.68	1445.87
686.86	1490.92
687.05	1607.66
687.23	1626.09
687.42	1452.01
687.60	1495.02
687.79	1542.12
687.97	1601.51
688.16	1578.98
688.34	1642.47
688.53	1484.78
688.71	1591.27
688.90	1566.70
689.08	1531.88
689.27	1521.64
689.45	1574.89
689.64	1581.03
689.82	1501.16
690.01	1576.94
690.19	1568.74
690.38	1529.83
690.56	1581.03
690.75	1515.50
690.93	1499.11
691.12	1474.54
691.30	1527.78
691.49	1564.65
691.67	1542.12
691.86	1658.85
692.04	1558.50
692.23	1560.55
692.41	1599.46
692.60	1712.10
692.78	1583.08
692.97	1574.89
693.15	1636.33
693.34	1665.00
693.52	1578.98
693.71	1550.31
693.89	1501.16
694.08	1521.64
694.26	1630.18
694.44	1595.37
694.63	1599.46
694.81	1546.22
695.00	1458.15
695.18	1486.83
695.37	1619.94
695.55	1550.31
695.74	1556.46
695.92	1503.21
696.10	1619.94
696.29	1480.68
696.47	1538.02
696.66	1456.11
696.84	1533.93
697.03	1476.59
697.21	1673.19
697.40	2000.87
697.58	1544.17
697.76	1488.87
697.95	1497.07
698.13	1538.02
698.32	1503.21
698.50	1574.89
698.68	1597.42
698.87	1546.22
699.05	1570.79
699.24	1552.36
699.42	1572.84
699.61	1554.41
699.79	1550.31
699.97	1560.55
700.16	1484.78
700.34	1591.27
700.53	1601.51
700.71	1611.75
700.89	1632.23
701.08	1562.60
701.26	1564.65
701.45	1802.21
701.63	1468.39
701.81	1501.16
702.00	1509.35
702.18	1591.27
702.37	1503.21
702.55	1624.04
702.73	1708.01
702.92	1726.44
703.10	1763.30
703.28	1755.11
703.47	1724.39
703.65	1935.33
703.84	1716.20
704.02	1576.94
704.20	1675.24
704.39	1593.32
704.57	1634.28
704.75	1662.95
704.94	1562.60
705.12	1562.60
705.30	1656.81
705.49	1816.55
705.67	2740.18
705.86	7337.87
706.04	14636.83
706.22	18364.14
706.41	21472.95
706.59	22906.53
706.77	21034.69
706.96	15040.28
707.14	11669.33
707.32	9912.17
707.51	8628.09
707.69	7647.12
707.87	6791.06
708.06	5859.24
708.24	4745.14
708.42	3698.63
708.61	2967.51
708.79	2336.73
708.97	2027.49
709.16	1890.28
709.34	1734.63
709.52	1603.56
709.71	1632.23
709.89	1697.77
710.07	1599.46
710.26	1476.59
710.44	1585.13
710.62	1603.56
710.80	1581.03
710.99	1673.19
711.17	1589.22
711.35	1554.41
711.54	1597.42
711.72	1535.98
711.90	1583.08
712.09	1589.22
712.27	1533.93
712.45	1525.74
712.63	1503.21
712.82	1503.21
713.00	1597.42
713.18	1564.65
713.37	1607.66
713.55	1548.26
713.73	1574.89
713.91	1527.78
714.10	1511.40
714.28	1497.07
714.46	1533.93
714.65	1593.32
714.83	1581.03
715.01	1597.42
715.19	1439.72
715.38	1492.97
715.56	1574.89
715.74	1533.93
715.92	1495.02
716.11	1589.22
716.29	1439.72
716.47	1513.45
716.65	1572.84
716.84	1486.83
717.02	1591.27
717.20	1470.44
717.38	1515.50
717.57	1597.42
717.75	1552.36
717.93	1517.54
718.11	1599.46
718.30	1576.94
718.48	1660.90
718.66	1617.90
718.84	1613.80
719.03	1560.55
719.21	1492.97
719.39	1564.65
719.57	1560.55
719.75	1591.27
719.94	1540.07
720.12	1507.30
720.30	1519.59
720.48	1554.41
720.67	1525.74
720.85	1564.65
721.03	1511.40
721.21	1599.46
721.39	1648.61
721.58	1562.60
721.76	1529.83
721.94	1587.18
722.12	1529.83
722.30	1589.22
722.49	1533.93
722.67	1562.60
722.85	1554.41
723.03	1462.25
723.21	1495.02
723.40	1599.46
723.58	1601.51
723.76	1540.07
723.94	1665.00
724.12	1589.22
724.30	1650.66
724.49	1603.56
724.67	1560.55
724.85	1650.66
725.03	1550.31
725.21	1609.70
725.40	1599.46
725.58	1484.78
725.76	1595.37
725.94	1531.88
726.12	1529.83
726.30	1599.46
726.49	1587.18
726.67	1517.54
726.85	1531.88
727.03	1591.27
727.21	1781.73
727.39	2082.78
727.57	3364.81
727.76	4343.74
727.94	4822.97
728.12	5132.21
728.30	5171.12
728.48	4327.36
728.66	3438.54
728.84	3262.41
729.03	2854.87
729.21	2656.22
729.39	2273.25
729.57	2082.78
729.75	1892.32
729.93	1871.84
730.11	1656.81
730.30	1570.79
730.48	1576.94
730.66	1591.27
730.84	1667.05
731.02	1517.54
731.20	1505.26
731.38	1531.88
731.56	1398.76
731.74	1581.03
731.93	1503.21
732.11	1529.83
732.29	1550.31
732.47	1499.11
732.65	1587.18
732.83	1626.09
733.01	1568.74
733.19	1423.34
733.37	1671.14
733.56	1550.31
733.74	1460.20
733.92	1591.27
734.10	1497.07
734.28	1476.59
734.46	1460.20
734.64	1546.22
734.82	1480.68
735.00	1492.97
735.18	1562.60
735.36	1542.12
735.54	1511.40
735.73	1554.41
735.91	1607.66
736.09	1533.93
736.27	1552.36
736.45	1535.98
736.63	1472.49
736.81	1503.21
736.99	1556.46
737.17	1572.84
737.35	1558.50
737.53	1546.22
737.71	1562.60
737.89	1630.18
738.07	1538.02
738.25	1490.92
738.43	1445.87
738.61	1558.50
738.80	1531.88
738.98	1525.74
739.16	1521.64
739.34	1548.26
739.52	1636.33
739.70	1482.73
739.88	1578.98
740.06	1615.85
740.24	1388.52
740.42	1552.36
740.60	1413.10
740.78	1484.78
740.96	1406.95
741.14	1544.17
741.32	1568.74
741.50	1517.54
741.68	1660.90
741.86	1589.22
742.04	1507.30
742.22	1507.30
742.40	1533.93
742.58	1488.87
742.76	1460.20
742.94	1597.42
743.12	1411.05
743.30	1538.02
743.48	1495.02
743.66	1554.41
743.84	1566.70
744.02	1544.17
744.20	1515.50
744.38	1523.69
744.56	1566.70
744.74	1587.18
744.92	1568.74
745.10	1662.95
745.28	1609.70
745.46	1667.05
745.64	1540.07
745.82	1591.27
746.00	1570.79
746.18	1617.90
746.36	1599.46
746.54	1503.21
746.72	1583.08
746.90	1560.55
747.08	1554.41
747.26	1554.41
747.44	1574.89
747.62	1482.73
747.80	1599.46
747.98	1550.31
748.15	1538.02
748.33	1619.94
748.51	1511.40
748.69	1578.98
748.87	1533.93
749.05	1478.63
749.23	1607.66
749.41	1495.02
749.59	1478.63
749.77	1595.37
749.95	1578.98
750.13	1505.26
750.31	1540.07
750.49	1597.42
750.67	1593.32
750.85	1603.56
751.03	1595.37
751.20	1591.27
751.38	1583.08
751.56	1533.93
751.74	1484.78
751.92	1597.42
752.10	1484.78
752.28	1548.26
752.46	1591.27
752.64	1556.46
752.82	1533.93
753.00	1523.69
753.18	1570.79
753.35	1525.74
753.53	1560.55
753.71	1538.02
753.89	1566.70
754.07	1525.74
754.25	1587.18
754.43	1581.03
754.61	1529.83
754.79	1552.36
754.97	1501.16
755.14	1583.08
755.32	1495.02
755.50	1497.07
755.68	1669.09
755.86	1476.59
756.04	1517.54
756.22	1540.07
756.40	1554.41
756.57	1720.29
756.75	1482.73
756.93	1566.70
757.11	1542.12
757.29	1499.11
757.47	1474.54
757.65	1361.90
757.82	1429.48
758.00	1538.02
758.18	1464.30
758.36	1511.40
758.54	1519.59
758.72	1495.02
758.90	1576.94
759.07	1456.11
759.25	1486.83
759.43	1515.50
759.61	1433.58
759.79	1943.52
759.97	1597.42
760.15	1513.45
760.32	1519.59
760.50	1499.11
760.68	1615.85
760.86	1476.59
761.04	1548.26
761.22	1581.03
761.39	1535.98
761.57	1587.18
761.75	1533.93
761.93	1509.35
762.11	1447.91
762.28	1538.02
762.46	1441.77
762.64	1517.54
762.82	1474.54
763.00	1535.98
763.18	1599.46
763.35	1531.88
763.53	1585.13
763.71	1591.27
763.89	1509.35
764.07	1583.08
764.24	1556.46
764.42	1587.18
764.60	1472.49
764.78	1570.79
764.96	1642.47
765.13	1572.84
765.31	1550.31
765.49	1558.50
765.67	1556.46
765.84	1503.21
766.02	1564.65
766.20	1435.63
766.38	1515.50
766.56	1587.18
766.73	1646.57
766.91	1546.22
767.09	1460.20
767.27	1560.55
767.44	1519.59
767.62	1628.14
767.80	1564.65
767.98	1587.18
768.15	1507.30
768.33	1554.41
768.51	1591.27
768.69	1585.13
768.87	1589.22
769.04	1429.48
769.22	1609.70
769.40	1632.23
769.58	1699.81
769.75	1562.60
769.93	1574.89
770.11	1490.92
770.28	1550.31
770.46	1550.31
770.64	1570.79
770.82	1546.22
770.99	1519.59
771.17	1562.60
771.35	1509.35
771.53	1556.46
771.70	1538.02
771.88	1636.33
772.06	1488.87
772.23	1552.36
772.41	1568.74
772.59	1593.32
772.77	1437.67
772.94	1550.31
773.12	1558.50
773.30	1617.90
773.47	1581.03
773.65	1462.25
773.83	1605.61
774.01	1535.98
774.18	1406.95
774.36	1544.17
774.54	1499.11
774.71	1486.83
774.89	1515.50
775.07	1509.35
775.24	1501.16
775.42	1529.83
775.60	1585.13
775.78	1538.02
775.95	1484.78
776.13	1460.20
776.31	1452.01
776.48	1552.36
776.66	1603.56
776.84	1492.97
777.01	1460.20
777.19	1503.21
777.37	1445.87
777.54	1587.18
777.72	1673.19
777.90	1499.11
778.07	1533.93
778.25	1761.25
778.43	1626.09
778.60	1519.59
778.78	1572.84
778.96	1550.31
779.13	1499.11
779.31	1533.93
779.49	1552.36
779.66	1599.46
779.84	1462.25
780.01	1611.75
780.19	1478.63
780.37	1525.74
780.54	1546.22
780.72	1544.17
780.90	1495.02
781.07	1501.16
781.25	1542.12
781.43	1609.70
781.60	1560.55
781.78	1540.07
781.95	1570.79
782.13	1460.20
782.31	1484.78
782.48	1413.10
782.66	1544.17
782.83	1568.74
783.01	1593.32
783.19	1525.74
783.36	1497.07
783.54	1447.91
783.72	1624.04
783.89	1560.55
784.07	1499.11
784.24	1550.31
784.42	1609.70
784.60	1509.35
784.77	1581.03
784.95	1445.87
785.12	1525.74
785.30	1529.83
785.47	1466.35
785.65	1554.41
785.83	1472.49
786.00	1515.50
786.18	1538.02
786.35	1535.98
786.53	1456.11
786.71	1476.59
786.88	1591.27
787.06	1538.02
787.23	1521.64
787.41	1554.41
787.58	1468.39
787.76	1529.83
787.94	1601.51
788.11	1525.74
788.29	1470.44
788.46	1499.11
788.64	1402.86
788.81	1562.60
788.99	1540.07
789.16	1464.30
789.34	1533.93
789.52	1517.54
789.69	1472.49
789.87	1476.59
790.04	1550.31
790.22	1583.08
790.39	1613.80
790.57	1517.54
790.74	1476.59
790.92	1574.89
791.09	1495.02
791.27	1472.49
791.44	1624.04
791.62	1521.64
791.79	1572.84
791.97	1540.07
792.15	1710.05
792.32	1574.89
792.50	1566.70
792.67	1609.70
792.85	1544.17
793.02	1564.65
793.20	1554.41
793.37	1517.54
793.55	1578.98
793.72	1507.30
793.90	1595.37
794.07	1484.78
794.25	1497.07
794.42	1556.46
794.60	1404.91
794.77	1568.74
794.95	1554.41
795.12	1546.22
795.30	1474.54
795.47	1509.35
795.65	1685.48
795.82	1505.26
796.00	1583.08
796.17	1466.35
796.34	1499.11
796.52	1521.64
796.69	1560.55
796.87	1554.41
797.04	1587.18
797.22	1556.46
797.39	1574.89
797.57	1583.08
797.74	1558.50
797.92	1572.84
798.09	1486.83
798.27	1654.76
798.44	1468.39
798.62	1513.45
798.79	1544.17
798.96	1630.18
799.14	1566.70
799.31	1667.05
799.49	1482.73
799.66	1538.02
799.84	1552.36
800.01	1495.02
800.19	1595.37
800.36	1474.54
800.53	1593.32
800.71	1542.12
800.88	1650.66
801.06	1540.07
801.23	1570.79
801.41	1517.54
801.58	1519.59
801.75	1490.92
801.93	1558.50
802.10	1460.20
802.28	1544.17
802.45	1490.92
802.63	1615.85
802.80	1638.38
802.97	1591.27
803.15	1521.64
803.32	1542.12
803.50	1505.26
803.67	1464.30
803.84	1488.87
804.02	1548.26
804.19	1497.07
804.37	1501.16
804.54	1476.59
804.71	1492.97
804.89	1525.74
805.06	1480.68
805.24	1550.31
805.41	1462.25
805.58	1435.63
805.76	1619.94
805.93	1597.42
806.10	1615.85
806.28	1626.09
806.45	1492.97
806.63	1538.02
806.80	1517.54
806.97	1464.30
807.15	1521.64
807.32	1538.02
807.49	1560.55
807.67	1499.11
807.84	1646.57
808.01	1533.93
808.19	1611.75
808.36	1585.13
808.54	1611.75
808.71	1515.50
808.88	1576.94
809.06	1578.98
809.23	1589.22
809.40	1472.49
809.58	1542.12
809.75	1511.40
809.92	1474.54
810.10	1613.80
810.27	1519.59
810.44	1574.89
810.62	1572.84
810.79	1497.07
810.96	1550.31
811.14	1509.35
811.31	1538.02
811.48	1517.54
811.66	1538.02
811.83	1581.03
812.00	1533.93
812.18	1470.44
812.35	1626.09
812.52	1456.11
812.69	1542.12
812.87	1531.88
813.04	1505.26
813.21	1583.08
813.39	1548.26
813.56	1466.35
813.73	1642.47
813.91	1398.76
814.08	1542.12
814.25	1431.53
814.42	1511.40
814.60	1546.22
814.77	1560.55
814.94	1529.83
815.12	1527.78
815.29	1613.80
815.46	1460.20
815.63	1599.46
815.81	1538.02
815.98	1505.26
816.15	1562.60
816.33	1503.21
816.50	1556.46
816.67	1542.12
816.84	1501.16
817.02	1495.02
817.19	1560.55
817.36	1556.46
817.53	1521.64
817.71	1452.01
817.88	1556.46
818.05	1529.83
818.22	1501.16
818.40	1572.84
818.57	1548.26
818.74	1558.50
818.91	1517.54
819.09	1529.83
819.26	1583.08
819.43	1535.98
819.60	1542.12
819.78	1515.50
819.95	1546.22
820.12	1499.11
820.29	1603.56
820.47	1572.84
820.64	1495.02
820.81	1507.30
820.98	1484.78
821.15	1523.69
821.33	1593.32
821.50	1478.63
821.67	1533.93
821.84	1486.83
822.02	1605.61
822.19	1630.18
822.36	1556.46
822.53	1476.59
822.70	1445.87
822.88	1535.98
823.05	1589.22
823.22	1511.40
823.39	1578.98
823.56	1521.64
823.74	1607.66
823.91	1509.35
824.08	1486.83
824.25	1470.44
824.42	1550.31
824.60	1546.22
824.77	1558.50
824.94	1570.79
825.11	1587.18
825.28	1435.63
825.45	1552.36
825.63	1587.18
825.80	1478.63
825.97	1535.98
826.14	1544.17
826.31	1480.68
826.48	1525.74
826.66	1495.02
826.83	1447.91
827.00	1525.74
827.17	1499.11
827.34	1452.01
827.51	1486.83
827.69	1488.87
827.86	1521.64
828.03	1513.45
828.20	1542.12
828.37	1570.79
828.54	1595.37
828.71	1531.88
828.89	1646.57
829.06	1558.50
829.23	1595.37
829.40	1445.87
829.57	1574.89
829.74	1554.41
829.91	1517.54
830.09	1505.26
830.26	1572.84
830.43	1624.04
830.60	1566.70
830.77	1548.26
830.94	1585.13
831.11	1583.08
831.28	1445.87
831.46	1562.60
831.63	1540.07
831.80	1599.46
831.97	1466.35
832.14	1466.35
832.31	1521.64
832.48	1544.17
832.65	1568.74
832.82	1599.46
832.99	1601.51
833.17	1468.39
833.34	1601.51
833.51	1564.65
833.68	1482.73
833.85	1607.66
834.02	1552.36
834.19	1533.93
834.36	1509.35
834.53	1544.17
834.70	1576.94
834.87	1507.30
835.04	1503.21
835.22	1503.21
835.39	1509.35
835.56	1470.44
835.73	1517.54
835.90	1558.50
836.07	1544.17
836.24	1544.17
836.41	1509.35
836.58	1492.97
836.75	1517.54
836.92	1585.13
837.09	1476.59
837.26	1593.32
837.43	1619.94
837.60	1515.50
837.77	1562.60
837.94	1556.46
838.12	1589.22
838.29	1566.70
838.46	1421.29
838.63	1540.07
838.80	1603.56
838.97	1601.51
839.14	1581.03
839.31	1503.21
839.48	1583.08
839.65	1560.55
839.82	1523.69
839.99	1560.55
840.16	1513.45
840.33	1452.01
840.50	1560.55
840.67	1484.78
840.84	1396.71
841.01	1548.26
841.18	1546.22
841.35	1576.94
841.52	1560.55
841.69	1554.41
841.86	1517.54
842.03	1552.36
842.20	1519.59
842.37	1513.45
842.54	1533.93
842.71	1560.55
842.88	1503.21
843.05	1652.71
843.22	1517.54
843.39	1601.51
843.56	1445.87
843.73	1521.64
843.90	1542.12
844.07	1574.89
844.24	1593.32
844.41	1583.08
844.58	1492.97
844.75	1529.83
844.92	1538.02
845.09	1538.02
845.26	1445.87
845.43	1589.22
845.60	1533.93
845.77	1550.31
845.94	1513.45
846.10	1531.88
846.27	1474.54
846.44	1406.95
846.61	1462.25
846.78	1576.94
846.95	1572.84
847.12	1523.69
847.29	1554.41
847.46	1497.07
847.63	1640.42
847.80	1535.98
847.97	1468.39
848.14	1615.85
848.31	1515.50
848.48	1538.02
848.65	1529.83
848.82	1521.64
848.98	1626.09
849.15	1564.65
849.32	1619.94
849.49	1589.22
849.66	1585.13
849.83	1581.03
850.00	1492.97
850.17	1564.65
850.34	1624.04
850.51	1478.63
850.68	1445.87
850.85	1630.18
851.01	1478.63
851.18	1556.46
851.35	1478.63
851.52	1597.42
851.69	1617.90
851.86	1464.30
852.03	1538.02
852.20	1515.50
852.37	1525.74
852.53	1499.11
852.70	1503.21
852.87	1527.78
853.04	1658.85
853.21	1523.69
853.38	1513.45
853.55	1546.22
853.72	1587.18
853.89	1519.59
854.05	1585.13
854.22	1445.87
854.39	1550.31
854.56	1552.36
854.73	1593.32
854.90	1513.45
855.07	1531.88
855.23	1488.87
855.40	1523.69
855.57	1511.40
855.74	1484.78
855.91	1626.09
856.08	1488.87
856.25	1509.35
856.41	1495.02
856.58	1548.26
856.75	1452.01
856.92	1542.12
857.09	1562.60
857.26	1490.92
857.42	1478.63
857.59	1552.36
857.76	1458.15
857.93	1587.18
858.10	1562.60
858.27	1413.10
858.43	1535.98
858.60	1519.59
858.77	1470.44
858.94	1546.22
859.11	1607.66
859.27	1480.68
859.44	1570.79
859.61	1634.28
859.78	1578.98
859.95	1466.35
860.12	1505.26
860.28	1595.37
860.45	1552.36
860.62	1474.54
860.79	1542.12
860.95	1595.37
861.12	1441.77
861.29	1521.64
861.46	1470.44
861.63	1624.04
861.79	1552.36
861.96	1392.62
862.13	1464.30
862.30	1638.38
862.47	1523.69
862.63	1439.72
862.80	1535.98
862.97	1544.17
863.14	1597.42
863.30	1546.22
863.47	1566.70
863.64	1538.02
863.81	1601.51
863.97	1452.01
864.14	1548.26
864.31	1578.98
864.48	1538.02
864.65	1452.01
864.81	1513.45
864.98	1525.74
865.15	1509.35
865.32	1591.27
865.48	1656.81
865.65	1642.47
865.82	1509.35
865.98	1583.08
866.15	1595.37
866.32	1587.18
866.49	1507.30
866.65	1531.88
866.82	1449.96
866.99	1581.03
867.16	1544.17
867.32	1546.22
867.49	1456.11
867.66	1583.08
867.83	1560.55
867.99	1433.58
868.16	1560.55
868.33	1482.73
868.49	1521.64
868.66	1533.93
868.83	1564.65
868.99	1501.16
869.16	1562.60
869.33	1597.42
869.50	1628.14
869.66	1560.55
869.83	1554.41
870.00	1501.16
870.16	1574.89
870.33	1540.07
870.50	1574.89
870.66	1572.84
870.83	1617.90
871.00	1574.89
871.17	1495.02
871.33	1521.64
871.50	1513.45
871.67	1474.54
871.83	1509.35
872.00	1591.27
872.17	1538.02
872.33	1613.80
872.50	1609.70
872.67	1501.16
872.83	1607.66
873.00	1517.54
873.17	1490.92
873.33	1572.84
873.50	1617.90
873.67	1519.59
873.83	1452.01
874.00	1521.64
874.16	1583.08
874.33	1452.01
874.50	1519.59
874.66	1574.89
874.83	1472.49
875.00	1581.03
875.16	1605.61
875.33	1538.02
875.50	1460.20
875.66	1550.31
875.83	1576.94
875.99	1576.94
876.16	1501.16
876.33	1509.35
876.49	1505.26
876.66	1527.78
876.83	1492.97
876.99	1476.59
877.16	1570.79
877.32	1517.54
877.49	1452.01
877.66	1535.98
877.82	1599.46
877.99	1511.40
878.15	1658.85
878.32	1581.03
878.49	1560.55
878.65	1542.12
878.82	1544.17
878.98	1548.26
879.15	1624.04
879.32	1650.66
879.48	1511.40
879.65	1540.07
879.81	1468.39
879.98	1576.94
880.15	1466.35
880.31	1554.41
880.48	1538.02
880.64	1572.84
880.81	1525.74
880.97	1564.65
881.14	1626.09
881.31	1441.77
881.47	1562.60
881.64	1578.98
881.80	1445.87
881.97	1515.50
882.13	1632.23
882.30	1499.11
882.47	1542.12
882.63	1527.78
882.80	1495.02
882.96	1474.54
883.13	1599.46
883.29	1511.40
883.46	1570.79
883.62	1636.33
883.79	1568.74
883.95	1495.02
884.12	1492.97
884.29	1589.22
884.45	1521.64
884.62	1552.36
884.78	1521.64
884.95	1583.08
885.11	1497.07
885.28	1578.98
885.44	1445.87
885.61	1591.27
885.77	1581.03
885.94	1589.22
886.10	1556.46
886.27	1550.31
886.43	1656.81
886.60	1613.80
886.76	1486.83
886.93	1492.97
887.09	1542.12
887.26	1390.57
887.42	1503.21
887.59	1501.16
887.75	1607.66
887.92	1589.22
888.08	1529.83
888.25	1654.76
888.41	1511.40
888.58	1535.98
888.74	1540.07
888.91	1558.50
>>>>>End Processed Spectral Data<<<<<
