SpectraSuite Data File
++++++++++++++++++++++++++++++++++++
Date: Tue May 03 12:55:27 CEST 2016
User: root
Dark Spectrum Present: No
Reference Spectrum Present: No
Number of Sampled Component Spectra: 1
Spectrometers: USB4C02835
Integration Time (usec): 100000 (USB4C02835)
Spectra Averaged: 1 (USB4C02835)
Boxcar Smoothing: 0 (USB4C02835)
Correct for Electrical Dark: No (USB4C02835)
Strobe/Lamp Enabled: No (USB4C02835)
Correct for Detector Non-linearity: No (USB4C02835)
Correct for Stray Light: No (USB4C02835)
Number of Pixels in Processed Spectrum: 3648
>>>>>Begin Processed Spectral Data<<<<<
177.47	1267.69
177.69	1267.69
177.91	1267.69
178.13	1357.80
178.36	1355.76
178.58	1499.11
178.80	1656.81
179.02	1460.20
179.24	1474.54
179.46	1501.16
179.68	1593.32
179.90	1499.11
180.13	1628.14
180.35	1527.78
180.57	1595.37
180.79	1533.93
181.01	1499.11
181.23	1632.23
181.45	1658.85
181.67	1552.36
181.90	1601.51
182.12	1533.93
182.34	1406.95
182.56	1519.59
182.78	1566.70
183.00	1613.80
183.22	1550.31
183.44	1476.59
183.66	1671.14
183.89	1638.38
184.11	1519.59
184.33	1468.39
184.55	1611.75
184.77	1564.65
184.99	1576.94
185.21	1513.45
185.43	1634.28
185.65	1464.30
185.87	1603.56
186.10	1648.61
186.32	1640.42
186.54	1564.65
186.76	1583.08
186.98	1595.37
187.20	1511.40
187.42	1490.92
187.64	1540.07
187.86	1478.63
188.08	1560.55
188.30	1513.45
188.52	1513.45
188.75	1603.56
188.97	1607.66
189.19	1501.16
189.41	1535.98
189.63	1550.31
189.85	1568.74
190.07	1540.07
190.29	1492.97
190.51	1544.17
190.73	1423.34
190.95	1650.66
191.17	1546.22
191.39	1411.05
191.61	1468.39
191.84	1490.92
192.06	1617.90
192.28	1507.30
192.50	1677.29
192.72	1558.50
192.94	1433.58
193.16	1601.51
193.38	1593.32
193.60	1507.30
193.82	1495.02
194.04	1570.79
194.26	1476.59
194.48	1497.07
194.70	1482.73
194.92	1535.98
195.14	1562.60
195.36	1533.93
195.58	1525.74
195.80	1546.22
196.02	1480.68
196.24	1544.17
196.46	1556.46
196.69	1533.93
196.91	1689.57
197.13	1546.22
197.35	1486.83
197.57	1654.76
197.79	1519.59
198.01	1632.23
198.23	1562.60
198.45	1513.45
198.67	1515.50
198.89	1529.83
199.11	1546.22
199.33	1468.39
199.55	1470.44
199.77	1540.07
199.99	1611.75
200.21	1544.17
200.43	1613.80
200.65	1427.43
200.87	1533.93
201.09	1468.39
201.31	1576.94
201.53	1529.83
201.75	1583.08
201.97	1497.07
202.19	1531.88
202.41	1492.97
202.63	1613.80
202.85	1521.64
203.07	1515.50
203.29	1544.17
203.51	1517.54
203.73	1538.02
203.95	1732.58
204.17	1548.26
204.39	1626.09
204.61	1542.12
204.83	1462.25
205.05	1540.07
205.27	1548.26
205.49	1603.56
205.71	1542.12
205.93	1552.36
206.15	1513.45
206.37	1578.98
206.59	1501.16
206.81	1482.73
207.03	1544.17
207.25	1542.12
207.47	1570.79
207.69	1599.46
207.91	1529.83
208.13	1609.70
208.34	1427.43
208.56	1490.92
208.78	1564.65
209.00	1490.92
209.22	1472.49
209.44	1574.89
209.66	1578.98
209.88	1486.83
210.10	1562.60
210.32	1472.49
210.54	1611.75
210.76	1544.17
210.98	1640.42
211.20	1437.67
211.42	1533.93
211.64	1578.98
211.86	1517.54
212.08	1533.93
212.30	1554.41
212.52	1519.59
212.74	1542.12
212.96	1503.21
213.17	1552.36
213.39	1556.46
213.61	1576.94
213.83	1556.46
214.05	1423.34
214.27	1619.94
214.49	1402.86
214.71	1490.92
214.93	1597.42
215.15	1533.93
215.37	1583.08
215.59	1476.59
215.81	1562.60
216.03	1566.70
216.24	1513.45
216.46	1521.64
216.68	1562.60
216.90	1550.31
217.12	1595.37
217.34	1515.50
217.56	1597.42
217.78	1613.80
218.00	1560.55
218.22	1615.85
218.44	1540.07
218.66	1531.88
218.87	1554.41
219.09	1501.16
219.31	1574.89
219.53	1546.22
219.75	1550.31
219.97	1472.49
220.19	1550.31
220.41	1583.08
220.63	1595.37
220.85	1501.16
221.06	1515.50
221.28	1587.18
221.50	1550.31
221.72	1581.03
221.94	1513.45
222.16	1542.12
222.38	1583.08
222.60	1576.94
222.82	1497.07
223.03	1527.78
223.25	1517.54
223.47	1574.89
223.69	1648.61
223.91	1593.32
224.13	1482.73
224.35	1552.36
224.57	1591.27
224.78	1562.60
225.00	1525.74
225.22	1548.26
225.44	1607.66
225.66	1511.40
225.88	1540.07
226.10	1593.32
226.32	1607.66
226.53	1591.27
226.75	1478.63
226.97	1529.83
227.19	1535.98
227.41	1581.03
227.63	1480.68
227.85	1490.92
228.06	1542.12
228.28	1519.59
228.50	1621.99
228.72	1431.53
228.94	1550.31
229.16	1499.11
229.37	1517.54
229.59	1576.94
229.81	1552.36
230.03	1495.02
230.25	1468.39
230.47	1470.44
230.69	1441.77
230.90	1605.61
231.12	1480.68
231.34	1624.04
231.56	1597.42
231.78	1404.91
232.00	1443.82
232.21	1501.16
232.43	1454.06
232.65	1409.00
232.87	1560.55
233.09	1556.46
233.30	1513.45
233.52	1538.02
233.74	1519.59
233.96	1578.98
234.18	1484.78
234.40	1476.59
234.61	1683.43
234.83	1492.97
235.05	1472.49
235.27	1585.13
235.49	1568.74
235.70	1566.70
235.92	1562.60
236.14	1499.11
236.36	1626.09
236.58	1458.15
236.79	1525.74
237.01	1533.93
237.23	1503.21
237.45	1597.42
237.67	1523.69
237.88	1527.78
238.10	1619.94
238.32	1476.59
238.54	1628.14
238.76	1511.40
238.97	1554.41
239.19	1525.74
239.41	1538.02
239.63	1550.31
239.85	1503.21
240.06	1521.64
240.28	1472.49
240.50	1595.37
240.72	1507.30
240.93	1460.20
241.15	1554.41
241.37	1525.74
241.59	1503.21
241.81	1476.59
242.02	1566.70
242.24	1605.61
242.46	1443.82
242.68	1540.07
242.89	1490.92
243.11	1599.46
243.33	1497.07
243.55	1619.94
243.76	1583.08
243.98	1452.01
244.20	1511.40
244.42	1677.29
244.64	1519.59
244.85	1441.77
245.07	1509.35
245.29	1527.78
245.51	1445.87
245.72	1505.26
245.94	1578.98
246.16	1581.03
246.38	1572.84
246.59	1560.55
246.81	1476.59
247.03	1478.63
247.24	1474.54
247.46	1517.54
247.68	1533.93
247.90	1482.73
248.11	1591.27
248.33	1564.65
248.55	1552.36
248.77	1585.13
248.98	1617.90
249.20	1546.22
249.42	1552.36
249.64	1533.93
249.85	1464.30
250.07	1499.11
250.29	1472.49
250.50	1617.90
250.72	1517.54
250.94	1624.04
251.16	1599.46
251.37	1613.80
251.59	1591.27
251.81	1552.36
252.02	1601.51
252.24	1523.69
252.46	1642.47
252.68	1581.03
252.89	1490.92
253.11	1454.06
253.33	1648.61
253.54	1628.14
253.76	1492.97
253.98	1585.13
254.20	1511.40
254.41	1497.07
254.63	1509.35
254.85	1511.40
255.06	1542.12
255.28	1609.70
255.50	1509.35
255.71	1564.65
255.93	1515.50
256.15	1484.78
256.36	1535.98
256.58	1533.93
256.80	1552.36
257.02	1488.87
257.23	1562.60
257.45	1613.80
257.67	1544.17
257.88	1464.30
258.10	1554.41
258.32	1529.83
258.53	1607.66
258.75	1558.50
258.97	1517.54
259.18	1517.54
259.40	1517.54
259.62	1568.74
259.83	1542.12
260.05	1595.37
260.27	1751.01
260.48	1564.65
260.70	1521.64
260.92	1466.35
261.13	1492.97
261.35	1554.41
261.57	1515.50
261.78	1427.43
262.00	1478.63
262.22	1601.51
262.43	1607.66
262.65	1501.16
262.86	1497.07
263.08	1595.37
263.30	1495.02
263.51	1458.15
263.73	1490.92
263.95	1572.84
264.16	1484.78
264.38	1529.83
264.60	1535.98
264.81	1574.89
265.03	1548.26
265.25	1519.59
265.46	1505.26
265.68	1570.79
265.89	1636.33
266.11	1484.78
266.33	1556.46
266.54	1642.47
266.76	1511.40
266.98	1570.79
267.19	1656.81
267.41	1542.12
267.62	1499.11
267.84	1454.06
268.06	1495.02
268.27	1511.40
268.49	1572.84
268.70	1499.11
268.92	1511.40
269.14	1546.22
269.35	1456.11
269.57	1478.63
269.79	1531.88
270.00	1499.11
270.22	1578.98
270.43	1607.66
270.65	1429.48
270.87	1501.16
271.08	1570.79
271.30	1472.49
271.51	1501.16
271.73	1519.59
271.95	1566.70
272.16	1462.25
272.38	1593.32
272.59	1482.73
272.81	1548.26
273.02	1503.21
273.24	1529.83
273.46	1515.50
273.67	1429.48
273.89	1597.42
274.10	1458.15
274.32	1554.41
274.54	1566.70
274.75	1527.78
274.97	1484.78
275.18	1542.12
275.40	1535.98
275.61	1533.93
275.83	1554.41
276.05	1452.01
276.26	1531.88
276.48	1597.42
276.69	1566.70
276.91	1542.12
277.12	1638.38
277.34	1558.50
277.55	1652.71
277.77	1615.85
277.99	1488.87
278.20	1492.97
278.42	1558.50
278.63	1456.11
278.85	1503.21
279.06	1441.77
279.28	1566.70
279.49	1535.98
279.71	1550.31
279.93	1527.78
280.14	1511.40
280.36	1517.54
280.57	1591.27
280.79	1513.45
281.00	1511.40
281.22	1460.20
281.43	1488.87
281.65	1478.63
281.86	1456.11
282.08	1554.41
282.29	1615.85
282.51	1562.60
282.73	1468.39
282.94	1445.87
283.16	1605.61
283.37	1566.70
283.59	1521.64
283.80	1535.98
284.02	1495.02
284.23	1578.98
284.45	1527.78
284.66	1445.87
284.88	1470.44
285.09	1501.16
285.31	1517.54
285.52	1511.40
285.74	1507.30
285.95	1638.38
286.17	1591.27
286.38	1574.89
286.60	1462.25
286.81	1492.97
287.03	1554.41
287.24	1558.50
287.46	1587.18
287.67	1548.26
287.89	1603.56
288.10	1464.30
288.32	1583.08
288.53	1646.57
288.75	1433.58
288.96	1531.88
289.18	1509.35
289.39	1484.78
289.61	1548.26
289.82	1578.98
290.04	1658.85
290.25	1490.92
290.47	1574.89
290.68	1527.78
290.90	1566.70
291.11	1488.87
291.33	1619.94
291.54	1458.15
291.76	1558.50
291.97	1589.22
292.18	1468.39
292.40	1484.78
292.61	1593.32
292.83	1607.66
293.04	1615.85
293.26	1466.35
293.47	1499.11
293.69	1435.63
293.90	1525.74
294.12	1576.94
294.33	1566.70
294.55	1558.50
294.76	1574.89
294.97	1529.83
295.19	1597.42
295.40	1574.89
295.62	1535.98
295.83	1552.36
296.05	1542.12
296.26	1562.60
296.48	1531.88
296.69	1529.83
296.90	1544.17
297.12	1525.74
297.33	1597.42
297.55	1480.68
297.76	1574.89
297.98	1550.31
298.19	1552.36
298.41	1574.89
298.62	1499.11
298.83	1638.38
299.05	1486.83
299.26	1513.45
299.48	1476.59
299.69	1497.07
299.90	1544.17
300.12	1540.07
300.33	1521.64
300.55	1519.59
300.76	1562.60
300.98	1548.26
301.19	1535.98
301.40	1492.97
301.62	1445.87
301.83	1566.70
302.05	1511.40
302.26	1503.21
302.47	1572.84
302.69	1503.21
302.90	1505.26
303.12	1464.30
303.33	1583.08
303.54	1638.38
303.76	1513.45
303.97	1566.70
304.19	1640.42
304.40	1525.74
304.61	1570.79
304.83	1601.51
305.04	1646.57
305.26	1499.11
305.47	1587.18
305.68	1591.27
305.90	1488.87
306.11	1484.78
306.33	1478.63
306.54	1470.44
306.75	1546.22
306.97	1415.15
307.18	1566.70
307.39	1480.68
307.61	1572.84
307.82	1517.54
308.04	1550.31
308.25	1576.94
308.46	1603.56
308.68	1509.35
308.89	1495.02
309.10	1503.21
309.32	1535.98
309.53	1513.45
309.74	1525.74
309.96	1503.21
310.17	1632.23
310.39	1452.01
310.60	1525.74
310.81	1568.74
311.03	1486.83
311.24	1576.94
311.45	1546.22
311.67	1626.09
311.88	1525.74
312.09	1480.68
312.31	1492.97
312.52	1583.08
312.73	1570.79
312.95	1509.35
313.16	1525.74
313.37	1609.70
313.59	1595.37
313.80	1548.26
314.01	1576.94
314.23	1527.78
314.44	1521.64
314.65	1439.72
314.87	1503.21
315.08	1525.74
315.29	1535.98
315.51	1511.40
315.72	1533.93
315.93	1568.74
316.15	1529.83
316.36	1515.50
316.57	1523.69
316.79	1572.84
317.00	1595.37
317.21	1525.74
317.43	1574.89
317.64	1538.02
317.85	1499.11
318.07	1521.64
318.28	1671.14
318.49	1714.15
318.70	1820.64
318.92	1759.21
319.13	1669.09
319.34	1660.90
319.56	1654.76
319.77	1636.33
319.98	1611.75
320.20	1658.85
320.41	1558.50
320.62	1615.85
320.83	1468.39
321.05	1642.47
321.26	1560.55
321.47	1517.54
321.69	1527.78
321.90	1425.39
322.11	1484.78
322.32	1595.37
322.54	1529.83
322.75	1517.54
322.96	1570.79
323.18	1435.63
323.39	1519.59
323.60	1443.82
323.81	1603.56
324.03	1525.74
324.24	1441.77
324.45	1540.07
324.66	1456.11
324.88	1538.02
325.09	1613.80
325.30	1521.64
325.52	1499.11
325.73	1605.61
325.94	1540.07
326.15	1419.24
326.37	1460.20
326.58	1587.18
326.79	1621.99
327.00	1486.83
327.22	1517.54
327.43	1447.91
327.64	1542.12
327.85	1533.93
328.07	1548.26
328.28	1583.08
328.49	1517.54
328.70	1464.30
328.92	1495.02
329.13	1550.31
329.34	1603.56
329.55	1626.09
329.76	1540.07
329.98	1583.08
330.19	1607.66
330.40	1533.93
330.61	1613.80
330.83	1515.50
331.04	1495.02
331.25	1556.46
331.46	1550.31
331.68	1441.77
331.89	1523.69
332.10	1507.30
332.31	1527.78
332.52	1509.35
332.74	1640.42
332.95	1548.26
333.16	1544.17
333.37	1472.49
333.58	1517.54
333.80	1523.69
334.01	1478.63
334.22	1511.40
334.43	1546.22
334.64	1480.68
334.86	1355.76
335.07	1454.06
335.28	1665.00
335.49	1435.63
335.70	1562.60
335.92	1611.75
336.13	1665.00
336.34	1552.36
336.55	1646.57
336.76	1482.73
336.98	1484.78
337.19	1486.83
337.40	1538.02
337.61	1632.23
337.82	1497.07
338.04	1621.99
338.25	1484.78
338.46	1503.21
338.67	1515.50
338.88	1544.17
339.09	1439.72
339.31	1501.16
339.52	1533.93
339.73	1521.64
339.94	1484.78
340.15	1652.71
340.36	1554.41
340.58	1519.59
340.79	1509.35
341.00	1570.79
341.21	1495.02
341.42	1626.09
341.63	1460.20
341.85	1566.70
342.06	1517.54
342.27	1523.69
342.48	1531.88
342.69	1548.26
342.90	1501.16
343.12	1599.46
343.33	1538.02
343.54	1509.35
343.75	1658.85
343.96	1566.70
344.17	1507.30
344.38	1531.88
344.60	1488.87
344.81	1413.10
345.02	1546.22
345.23	1538.02
345.44	1683.43
345.65	1546.22
345.86	1554.41
346.07	1527.78
346.29	1525.74
346.50	1568.74
346.71	1630.18
346.92	1578.98
347.13	1673.19
347.34	1423.34
347.55	1562.60
347.76	1585.13
347.98	1460.20
348.19	1533.93
348.40	1560.55
348.61	1445.87
348.82	1564.65
349.03	1558.50
349.24	1507.30
349.45	1595.37
349.66	1468.39
349.88	1560.55
350.09	1513.45
350.30	1589.22
350.51	1538.02
350.72	1519.59
350.93	1538.02
351.14	1619.94
351.35	1599.46
351.56	1529.83
351.77	1488.87
351.99	1607.66
352.20	1589.22
352.41	1576.94
352.62	1472.49
352.83	1554.41
353.04	1607.66
353.25	1497.07
353.46	1525.74
353.67	1660.90
353.88	1488.87
354.09	1558.50
354.30	1544.17
354.52	1546.22
354.73	1538.02
354.94	1538.02
355.15	1587.18
355.36	1603.56
355.57	1478.63
355.78	1492.97
355.99	1474.54
356.20	1509.35
356.41	1540.07
356.62	1517.54
356.83	1581.03
357.04	1562.60
357.25	1445.87
357.46	1550.31
357.68	1486.83
357.89	1470.44
358.10	1525.74
358.31	1564.65
358.52	1556.46
358.73	1460.20
358.94	1538.02
359.15	1556.46
359.36	1574.89
359.57	1554.41
359.78	1515.50
359.99	1540.07
360.20	1509.35
360.41	1452.01
360.62	1578.98
360.83	1531.88
361.04	1523.69
361.25	1542.12
361.46	1615.85
361.67	1636.33
361.88	1566.70
362.09	1554.41
362.30	1535.98
362.51	1472.49
362.72	1564.65
362.93	1624.04
363.14	1552.36
363.35	1578.98
363.56	1521.64
363.78	1613.80
363.99	1538.02
364.20	1556.46
364.41	1560.55
364.62	1531.88
364.83	1529.83
365.04	1505.26
365.25	1507.30
365.46	1605.61
365.67	1482.73
365.88	1583.08
366.09	1562.60
366.30	1515.50
366.51	1535.98
366.72	1441.77
366.93	1576.94
367.14	1562.60
367.35	1595.37
367.56	1572.84
367.77	1564.65
367.98	1492.97
368.18	1570.79
368.39	1544.17
368.60	1468.39
368.81	1574.89
369.02	1542.12
369.23	1439.72
369.44	1437.67
369.65	1535.98
369.86	1519.59
370.07	1566.70
370.28	1484.78
370.49	1511.40
370.70	1642.47
370.91	1474.54
371.12	1452.01
371.33	1560.55
371.54	1499.11
371.75	1566.70
371.96	1411.05
372.17	1501.16
372.38	1517.54
372.59	1558.50
372.80	1525.74
373.01	1574.89
373.22	1550.31
373.43	1556.46
373.64	1482.73
373.85	1585.13
374.06	1628.14
374.26	1601.51
374.47	1540.07
374.68	1607.66
374.89	1546.22
375.10	1480.68
375.31	1540.07
375.52	1630.18
375.73	1583.08
375.94	1540.07
376.15	1601.51
376.36	1540.07
376.57	1538.02
376.78	1490.92
376.99	1566.70
377.20	1497.07
377.40	1503.21
377.61	1578.98
377.82	1533.93
378.03	1619.94
378.24	1540.07
378.45	1538.02
378.66	1462.25
378.87	1435.63
379.08	1425.39
379.29	1533.93
379.50	1566.70
379.71	1511.40
379.91	1615.85
380.12	1523.69
380.33	1605.61
380.54	1470.44
380.75	1492.97
380.96	1546.22
381.17	1574.89
381.38	1581.03
381.59	1675.24
381.80	1576.94
382.00	1691.62
382.21	1581.03
382.42	1609.70
382.63	1626.09
382.84	1509.35
383.05	1558.50
383.26	1609.70
383.47	1525.74
383.68	1583.08
383.88	1476.59
384.09	1525.74
384.30	1574.89
384.51	1574.89
384.72	1513.45
384.93	1513.45
385.14	1550.31
385.35	1593.32
385.55	1462.25
385.76	1576.94
385.97	1542.12
386.18	1509.35
386.39	1562.60
386.60	1495.02
386.81	1599.46
387.02	1505.26
387.22	1523.69
387.43	1599.46
387.64	1640.42
387.85	1867.75
388.06	3092.43
388.27	7333.78
388.48	10704.73
388.68	12414.79
388.89	13956.91
389.10	12808.00
389.31	10264.42
389.52	8804.22
389.73	7716.75
389.93	7217.04
390.14	6764.44
390.35	6244.26
390.56	5554.09
390.77	4585.40
390.98	3569.61
391.18	2701.27
391.39	2082.78
391.60	1773.54
391.81	1708.01
392.02	1607.66
392.23	1626.09
392.43	1593.32
392.64	1636.33
392.85	1564.65
393.06	1572.84
393.27	1628.14
393.47	1515.50
393.68	1544.17
393.89	1478.63
394.10	1624.04
394.31	1501.16
394.52	1449.96
394.72	1552.36
394.93	1636.33
395.14	1484.78
395.35	1611.75
395.56	1464.30
395.76	1652.71
395.97	1703.91
396.18	1771.49
396.39	1673.19
396.60	1896.42
396.80	1748.97
397.01	1755.11
397.22	1712.10
397.43	1673.19
397.64	1601.51
397.84	1636.33
398.05	1677.29
398.26	1595.37
398.47	1601.51
398.67	1660.90
398.88	1546.22
399.09	1591.27
399.30	1542.12
399.51	1568.74
399.71	1398.76
399.92	1548.26
400.13	1533.93
400.34	1478.63
400.54	1523.69
400.75	1574.89
400.96	1595.37
401.17	1619.94
401.37	1570.79
401.58	1521.64
401.79	1591.27
402.00	1746.92
402.21	1976.29
402.41	1927.14
402.62	1949.67
402.83	1923.04
403.04	1865.70
403.24	1935.33
403.45	1767.40
403.66	1722.34
403.87	1710.05
404.07	1720.29
404.28	1728.49
404.49	1730.53
404.70	1697.77
404.90	1615.85
405.11	1548.26
405.32	1675.24
405.52	1560.55
405.73	1554.41
405.94	1552.36
406.15	1552.36
406.35	1558.50
406.56	1521.64
406.77	1492.97
406.98	1527.78
407.18	1517.54
407.39	1552.36
407.60	1538.02
407.80	1583.08
408.01	1535.98
408.22	1478.63
408.43	1472.49
408.63	1595.37
408.84	1517.54
409.05	1609.70
409.25	1521.64
409.46	1527.78
409.67	1509.35
409.88	1484.78
410.08	1538.02
410.29	1564.65
410.50	1490.92
410.70	1587.18
410.91	1542.12
411.12	1554.41
411.32	1505.26
411.53	1531.88
411.74	1632.23
411.95	1626.09
412.15	1617.90
412.36	1656.81
412.57	1548.26
412.77	1636.33
412.98	1613.80
413.19	1607.66
413.39	1535.98
413.60	1619.94
413.81	1619.94
414.01	1513.45
414.22	1634.28
414.43	1593.32
414.63	1525.74
414.84	1593.32
415.05	1533.93
415.25	1458.15
415.46	1550.31
415.67	1468.39
415.87	1630.18
416.08	1576.94
416.29	1533.93
416.49	1515.50
416.70	1521.64
416.91	1495.02
417.11	1486.83
417.32	1523.69
417.53	1535.98
417.73	1570.79
417.94	1535.98
418.15	1517.54
418.35	1576.94
418.56	1611.75
418.77	1638.38
418.97	1495.02
419.18	1634.28
419.38	1482.73
419.59	1587.18
419.80	1640.42
420.00	1613.80
420.21	1527.78
420.42	1611.75
420.62	1548.26
420.83	1609.70
421.04	1468.39
421.24	1554.41
421.45	1548.26
421.65	1566.70
421.86	1492.97
422.07	1611.75
422.27	1538.02
422.48	1609.70
422.69	1445.87
422.89	1595.37
423.10	1589.22
423.30	1525.74
423.51	1544.17
423.72	1476.59
423.92	1527.78
424.13	1497.07
424.33	1576.94
424.54	1540.07
424.75	1554.41
424.95	1578.98
425.16	1566.70
425.36	1533.93
425.57	1568.74
425.78	1595.37
425.98	1597.42
426.19	1595.37
426.39	1470.44
426.60	1480.68
426.81	1583.08
427.01	1603.56
427.22	1517.54
427.42	1474.54
427.63	1488.87
427.83	1595.37
428.04	1640.42
428.25	1621.99
428.45	1574.89
428.66	1593.32
428.86	1505.26
429.07	1507.30
429.28	1482.73
429.48	1527.78
429.69	1593.32
429.89	1548.26
430.10	1460.20
430.30	1566.70
430.51	1523.69
430.71	1531.88
430.92	1576.94
431.13	1501.16
431.33	1497.07
431.54	1619.94
431.74	1603.56
431.95	1638.38
432.15	1482.73
432.36	1505.26
432.56	1589.22
432.77	1599.46
432.98	1646.57
433.18	1650.66
433.39	1519.59
433.59	1558.50
433.80	1523.69
434.00	1638.38
434.21	1517.54
434.41	1509.35
434.62	1652.71
434.82	1525.74
435.03	1435.63
435.23	1564.65
435.44	1521.64
435.64	1538.02
435.85	1589.22
436.06	1542.12
436.26	1636.33
436.47	1521.64
436.67	1546.22
436.88	1564.65
437.08	1495.02
437.29	1609.70
437.49	1499.11
437.70	1519.59
437.90	1509.35
438.11	1667.05
438.31	1687.53
438.52	1712.10
438.72	1753.06
438.93	1740.77
439.13	1665.00
439.34	1634.28
439.54	1595.37
439.75	1673.19
439.95	1552.36
440.16	1490.92
440.36	1615.85
440.57	1568.74
440.77	1591.27
440.98	1626.09
441.18	1593.32
441.39	1538.02
441.59	1472.49
441.80	1595.37
442.00	1556.46
442.21	1552.36
442.41	1437.67
442.62	1595.37
442.82	1533.93
443.02	1533.93
443.23	1495.02
443.43	1501.16
443.64	1652.71
443.84	1515.50
444.05	1665.00
444.25	1570.79
444.46	1587.18
444.66	1605.61
444.87	1660.90
445.07	1378.28
445.28	1562.60
445.48	1617.90
445.69	1634.28
445.89	1562.60
446.09	1650.66
446.30	1984.48
446.50	3164.11
446.71	4550.59
446.91	5222.32
447.12	5762.98
447.32	5685.16
447.53	4661.18
447.73	4040.64
447.93	3561.42
448.14	3356.62
448.34	3164.11
448.55	2904.02
448.75	2916.31
448.96	2738.13
449.16	2488.28
449.36	2273.25
449.57	2002.91
449.77	1789.92
449.98	1644.52
450.18	1640.42
450.39	1611.75
450.59	1564.65
450.79	1488.87
451.00	1519.59
451.20	1540.07
451.41	1554.41
451.61	1466.35
451.81	1542.12
452.02	1581.03
452.22	1562.60
452.43	1507.30
452.63	1568.74
452.84	1497.07
453.04	1527.78
453.24	1525.74
453.45	1490.92
453.65	1540.07
453.86	1482.73
454.06	1581.03
454.26	1501.16
454.47	1550.31
454.67	1576.94
454.87	1595.37
455.08	1480.68
455.28	1683.43
455.49	1566.70
455.69	1503.21
455.89	1701.86
456.10	1513.45
456.30	1574.89
456.51	1486.83
456.71	1546.22
456.91	1564.65
457.12	1628.14
457.32	1589.22
457.52	1472.49
457.73	1581.03
457.93	1558.50
458.14	1511.40
458.34	1480.68
458.54	1421.29
458.75	1542.12
458.95	1578.98
459.15	1550.31
459.36	1593.32
459.56	1533.93
459.76	1574.89
459.97	1501.16
460.17	1533.93
460.37	1607.66
460.58	1568.74
460.78	1640.42
460.99	1480.68
461.19	1595.37
461.39	1486.83
461.60	1540.07
461.80	1570.79
462.00	1447.91
462.21	1529.83
462.41	1593.32
462.61	1515.50
462.82	1482.73
463.02	1589.22
463.22	1535.98
463.43	1621.99
463.63	1495.02
463.83	1570.79
464.04	1566.70
464.24	1566.70
464.44	1546.22
464.64	1544.17
464.85	1525.74
465.05	1544.17
465.25	1607.66
465.46	1564.65
465.66	1550.31
465.86	1583.08
466.07	1533.93
466.27	1617.90
466.47	1472.49
466.68	1552.36
466.88	1576.94
467.08	1587.18
467.29	1603.56
467.49	1538.02
467.69	1556.46
467.89	1542.12
468.10	1546.22
468.30	1550.31
468.50	1497.07
468.71	1540.07
468.91	1535.98
469.11	1603.56
469.31	1535.98
469.52	1458.15
469.72	1634.28
469.92	1603.56
470.13	1529.83
470.33	1542.12
470.53	1837.03
470.73	2062.30
470.94	2332.64
471.14	2469.85
471.34	2639.83
471.54	2451.42
471.75	2164.70
471.95	2058.21
472.15	1992.67
472.36	1968.10
472.56	1937.38
472.76	1916.90
472.96	1943.52
473.17	1820.64
473.37	1763.30
473.57	1593.32
473.77	1705.96
473.98	1564.65
474.18	1466.35
474.38	1658.85
474.58	1521.64
474.79	1492.97
474.99	1624.04
475.19	1624.04
475.39	1517.54
475.60	1587.18
475.80	1525.74
476.00	1535.98
476.20	1529.83
476.41	1533.93
476.61	1538.02
476.81	1597.42
477.01	1476.59
477.21	1632.23
477.42	1558.50
477.62	1503.21
477.82	1589.22
478.02	1468.39
478.23	1466.35
478.43	1499.11
478.63	1509.35
478.83	1562.60
479.03	1540.07
479.24	1617.90
479.44	1589.22
479.64	1609.70
479.84	1462.25
480.04	1482.73
480.25	1560.55
480.45	1511.40
480.65	1486.83
480.85	1531.88
481.06	1503.21
481.26	1546.22
481.46	1538.02
481.66	1523.69
481.86	1505.26
482.06	1599.46
482.27	1509.35
482.47	1509.35
482.67	1583.08
482.87	1564.65
483.07	1581.03
483.28	1538.02
483.48	1495.02
483.68	1499.11
483.88	1497.07
484.08	1513.45
484.29	1495.02
484.49	1595.37
484.69	1595.37
484.89	1591.27
485.09	1564.65
485.29	1568.74
485.50	1585.13
485.70	1507.30
485.90	1581.03
486.10	1513.45
486.30	1560.55
486.50	1564.65
486.71	1538.02
486.91	1636.33
487.11	1568.74
487.31	1488.87
487.51	1515.50
487.71	1519.59
487.91	1562.60
488.12	1476.59
488.32	1462.25
488.52	1523.69
488.72	1443.82
488.92	1548.26
489.12	1497.07
489.32	1568.74
489.53	1558.50
489.73	1474.54
489.93	1595.37
490.13	1576.94
490.33	1499.11
490.53	1535.98
490.73	1617.90
490.94	1466.35
491.14	1570.79
491.34	1742.82
491.54	2142.18
491.74	2594.78
491.94	3170.26
492.14	3356.62
492.34	3229.65
492.54	2818.00
492.75	2504.67
492.95	2392.03
493.15	2287.58
493.35	2113.50
493.55	2105.31
493.75	2052.06
493.95	2054.11
494.15	1939.43
494.35	1755.11
494.56	1759.21
494.76	1591.27
494.96	1601.51
495.16	1683.43
495.36	1595.37
495.56	1474.54
495.76	1572.84
495.96	1538.02
496.16	1495.02
496.36	1615.85
496.56	1538.02
496.77	1552.36
496.97	1564.65
497.17	1595.37
497.37	1458.15
497.57	1554.41
497.77	1550.31
497.97	1470.44
498.17	1490.92
498.37	1574.89
498.57	1572.84
498.77	1603.56
498.97	1572.84
499.17	1681.38
499.38	1531.88
499.58	1599.46
499.78	1658.85
499.98	1630.18
500.18	1578.98
500.38	1591.27
500.58	1734.63
500.78	2680.79
500.98	5013.43
501.18	6813.59
501.38	8152.96
501.58	8923.00
501.78	7931.78
501.98	6037.41
502.18	5373.87
502.38	4671.42
502.58	4343.74
502.78	3837.89
502.98	3745.73
503.18	3454.92
503.38	3416.01
503.59	2955.22
503.79	2783.19
503.99	2492.38
504.19	2287.58
504.39	2176.99
504.59	2156.51
504.79	2039.78
504.99	1939.43
505.19	1808.36
505.39	1791.97
505.59	1746.92
505.79	1693.67
505.99	1652.71
506.19	1632.23
506.39	1683.43
506.59	1589.22
506.79	1607.66
506.99	1535.98
507.19	1615.85
507.39	1478.63
507.59	1542.12
507.79	1466.35
507.99	1531.88
508.19	1599.46
508.39	1609.70
508.59	1490.92
508.79	1646.57
508.99	1640.42
509.19	1570.79
509.39	1648.61
509.59	1560.55
509.79	1474.54
509.99	1624.04
510.19	1505.26
510.39	1593.32
510.59	1552.36
510.79	1535.98
510.99	1513.45
511.19	1533.93
511.39	1636.33
511.59	1640.42
511.79	1550.31
511.99	1589.22
512.19	1609.70
512.38	1492.97
512.58	1519.59
512.78	1533.93
512.98	1683.43
513.18	1515.50
513.38	1466.35
513.58	1599.46
513.78	1544.17
513.98	1540.07
514.18	1581.03
514.38	1531.88
514.58	1515.50
514.78	1515.50
514.98	1548.26
515.18	1517.54
515.38	1474.54
515.58	1636.33
515.78	1492.97
515.98	1495.02
516.18	1568.74
516.38	1492.97
516.57	1505.26
516.77	1535.98
516.97	1552.36
517.17	1517.54
517.37	1449.96
517.57	1531.88
517.77	1519.59
517.97	1515.50
518.17	1617.90
518.37	1511.40
518.57	1497.07
518.77	1621.99
518.97	1527.78
519.16	1585.13
519.36	1638.38
519.56	1554.41
519.76	1492.97
519.96	1476.59
520.16	1581.03
520.36	1435.63
520.56	1673.19
520.76	1509.35
520.96	1560.55
521.16	1611.75
521.35	1603.56
521.55	1613.80
521.75	1482.73
521.95	1576.94
522.15	1458.15
522.35	1503.21
522.55	1529.83
522.75	1564.65
522.95	1554.41
523.14	1470.44
523.34	1603.56
523.54	1505.26
523.74	1603.56
523.94	1478.63
524.14	1513.45
524.34	1581.03
524.54	1556.46
524.73	1583.08
524.93	1523.69
525.13	1662.95
525.33	1464.30
525.53	1648.61
525.73	1540.07
525.93	1583.08
526.13	1550.31
526.32	1605.61
526.52	1652.71
526.72	1564.65
526.92	1501.16
527.12	1482.73
527.32	1456.11
527.52	1492.97
527.71	1611.75
527.91	1523.69
528.11	1445.87
528.31	1535.98
528.51	1499.11
528.71	1560.55
528.90	1595.37
529.10	1593.32
529.30	1644.52
529.50	1490.92
529.70	1538.02
529.90	1503.21
530.09	1544.17
530.29	1527.78
530.49	1460.20
530.69	1650.66
530.89	1554.41
531.09	1607.66
531.28	1458.15
531.48	1595.37
531.68	1490.92
531.88	1515.50
532.08	1581.03
532.28	1480.68
532.47	1535.98
532.67	1619.94
532.87	1538.02
533.07	1574.89
533.27	1574.89
533.46	1621.99
533.66	1605.61
533.86	1490.92
534.06	1480.68
534.26	1574.89
534.45	1521.64
534.65	1570.79
534.85	1564.65
535.05	1583.08
535.25	1533.93
535.44	1574.89
535.64	1669.09
535.84	1554.41
536.04	1554.41
536.24	1535.98
536.43	1474.54
536.63	1544.17
536.83	1519.59
537.03	1519.59
537.22	1409.00
537.42	1505.26
537.62	1550.31
537.82	1511.40
538.02	1581.03
538.21	1542.12
538.41	1662.95
538.61	1574.89
538.81	1525.74
539.00	1621.99
539.20	1419.24
539.40	1495.02
539.60	1558.50
539.79	1560.55
539.99	1558.50
540.19	1544.17
540.39	1574.89
540.58	1503.21
540.78	1599.46
540.98	1533.93
541.18	1615.85
541.37	1556.46
541.57	1525.74
541.77	1527.78
541.97	1462.25
542.16	1466.35
542.36	1460.20
542.56	1595.37
542.76	1720.29
542.95	1542.12
543.15	1513.45
543.35	1632.23
543.54	1538.02
543.74	1576.94
543.94	1669.09
544.14	1533.93
544.33	1642.47
544.53	1538.02
544.73	1509.35
544.93	1525.74
545.12	1542.12
545.32	1611.75
545.52	1474.54
545.71	1468.39
545.91	1509.35
546.11	1566.70
546.30	1478.63
546.50	1495.02
546.70	1621.99
546.90	1591.27
547.09	1540.07
547.29	1499.11
547.49	1552.36
547.68	1480.68
547.88	1501.16
548.08	1466.35
548.27	1935.33
548.47	1540.07
548.67	1490.92
548.87	1642.47
549.06	1554.41
549.26	1591.27
549.46	1503.21
549.65	1495.02
549.85	1540.07
550.05	1644.52
550.24	1566.70
550.44	1595.37
550.64	1560.55
550.83	1566.70
551.03	1628.14
551.23	1613.80
551.42	1560.55
551.62	1538.02
551.82	1511.40
552.01	1546.22
552.21	1566.70
552.41	1484.78
552.60	1609.70
552.80	1523.69
553.00	1482.73
553.19	1566.70
553.39	1595.37
553.59	1449.96
553.78	1523.69
553.98	1497.07
554.17	1593.32
554.37	1562.60
554.57	1525.74
554.76	1531.88
554.96	1581.03
555.16	1482.73
555.35	1449.96
555.55	1591.27
555.75	1492.97
555.94	1583.08
556.14	1556.46
556.33	1601.51
556.53	1540.07
556.73	1548.26
556.92	1640.42
557.12	1644.52
557.32	1591.27
557.51	1615.85
557.71	1533.93
557.90	1626.09
558.10	1654.76
558.30	1509.35
558.49	1521.64
558.69	1562.60
558.88	1611.75
559.08	1488.87
559.28	1550.31
559.47	1505.26
559.67	1505.26
559.86	1585.13
560.06	1611.75
560.26	1523.69
560.45	1617.90
560.65	1501.16
560.84	1568.74
561.04	1474.54
561.24	1607.66
561.43	1490.92
561.63	1656.81
561.82	1548.26
562.02	1619.94
562.22	1581.03
562.41	1519.59
562.61	1519.59
562.80	1468.39
563.00	1697.77
563.19	1540.07
563.39	1587.18
563.59	1533.93
563.78	1513.45
563.98	1462.25
564.17	1544.17
564.37	1435.63
564.56	1593.32
564.76	1490.92
564.96	1548.26
565.15	1456.11
565.35	1560.55
565.54	1521.64
565.74	1570.79
565.93	1529.83
566.13	1568.74
566.32	1550.31
566.52	1611.75
566.71	1523.69
566.91	1507.30
567.11	1552.36
567.30	1538.02
567.50	1505.26
567.69	1558.50
567.89	1517.54
568.08	1552.36
568.28	1525.74
568.47	1478.63
568.67	1538.02
568.86	1527.78
569.06	1583.08
569.25	1558.50
569.45	1466.35
569.64	1476.59
569.84	1560.55
570.04	1535.98
570.23	1478.63
570.43	1517.54
570.62	1570.79
570.82	1632.23
571.01	1492.97
571.21	1533.93
571.40	1523.69
571.60	1642.47
571.79	1538.02
571.99	1568.74
572.18	1495.02
572.38	1558.50
572.57	1484.78
572.77	1560.55
572.96	1576.94
573.16	1619.94
573.35	1538.02
573.55	1615.85
573.74	1628.14
573.94	1525.74
574.13	1540.07
574.33	1566.70
574.52	1626.09
574.71	1585.13
574.91	1505.26
575.10	1533.93
575.30	1556.46
575.49	1617.90
575.69	1505.26
575.88	1607.66
576.08	1542.12
576.27	1662.95
576.47	1605.61
576.66	1710.05
576.86	1589.22
577.05	1644.52
577.25	1734.63
577.44	1708.01
577.64	1593.32
577.83	1574.89
578.02	1591.27
578.22	1585.13
578.41	1632.23
578.61	1576.94
578.80	1511.40
579.00	1605.61
579.19	1632.23
579.39	1697.77
579.58	1638.38
579.77	1615.85
579.97	1646.57
580.16	1656.81
580.36	1626.09
580.55	1603.56
580.75	1679.33
580.94	1572.84
581.13	1595.37
581.33	1656.81
581.52	1574.89
581.72	1685.48
581.91	1658.85
582.11	1624.04
582.30	1634.28
582.49	1585.13
582.69	1642.47
582.88	1628.14
583.08	1646.57
583.27	1699.81
583.47	1646.57
583.66	1529.83
583.85	1546.22
584.05	1624.04
584.24	1619.94
584.44	1642.47
584.63	1697.77
584.82	1656.81
585.02	1685.48
585.21	1724.39
585.41	1748.97
585.60	1757.16
585.79	1724.39
585.99	1783.78
586.18	1789.92
586.37	2037.73
586.57	3149.78
586.76	9670.51
586.96	27416.16
587.15	43717.99
587.34	54435.01
587.54	61264.99
587.73	59120.76
587.93	43732.32
588.12	32292.37
588.31	26044.02
588.51	21950.13
588.70	19799.76
588.89	18269.93
589.09	16662.27
589.28	15081.24
589.47	13074.23
589.67	11112.28
589.86	8974.20
590.06	6645.66
590.25	4984.76
590.44	3723.21
590.64	2928.60
590.83	2324.44
591.02	2138.08
591.22	1929.19
591.41	1812.45
591.60	1697.77
591.80	1787.88
591.99	1552.36
592.18	1587.18
592.38	1621.99
592.57	1581.03
592.76	1607.66
592.96	1654.76
593.15	1585.13
593.34	1607.66
593.54	1601.51
593.73	1601.51
593.92	1677.29
594.12	1665.00
594.31	1601.51
594.50	1693.67
594.70	1712.10
594.89	1675.24
595.08	1482.73
595.28	1671.14
595.47	1705.96
595.66	1630.18
595.86	1570.79
596.05	1478.63
596.24	1574.89
596.43	1654.76
596.63	1613.80
596.82	1636.33
597.01	1578.98
597.21	1732.58
597.40	1617.90
597.59	1646.57
597.79	1611.75
597.98	1593.32
598.17	1617.90
598.36	1548.26
598.56	1615.85
598.75	1511.40
598.94	1552.36
599.14	1546.22
599.33	1607.66
599.52	1531.88
599.71	1607.66
599.91	1613.80
600.10	1554.41
600.29	1529.83
600.48	1609.70
600.68	1525.74
600.87	1589.22
601.06	1509.35
601.26	1611.75
601.45	1589.22
601.64	1511.40
601.83	1611.75
602.03	1525.74
602.22	1535.98
602.41	1595.37
602.60	1667.05
602.80	1652.71
602.99	1525.74
603.18	1601.51
603.37	1587.18
603.57	1533.93
603.76	1560.55
603.95	1617.90
604.14	1599.46
604.34	1527.78
604.53	1511.40
604.72	1581.03
604.91	1558.50
605.10	1550.31
605.30	1492.97
605.49	1640.42
605.68	1609.70
605.87	1546.22
606.07	1515.50
606.26	1460.20
606.45	1562.60
606.64	1546.22
606.84	1540.07
607.03	1550.31
607.22	1697.77
607.41	1609.70
607.60	1619.94
607.80	1578.98
607.99	1538.02
608.18	1546.22
608.37	1501.16
608.56	1476.59
608.76	1601.51
608.95	1634.28
609.14	1599.46
609.33	1669.09
609.52	1669.09
609.72	1599.46
609.91	1757.16
610.10	1574.89
610.29	1583.08
610.48	1566.70
610.68	1535.98
610.87	1581.03
611.06	1607.66
611.25	1554.41
611.44	1611.75
611.63	1558.50
611.83	1585.13
612.02	1544.17
612.21	1669.09
612.40	1495.02
612.59	1556.46
612.79	1554.41
612.98	1566.70
613.17	1640.42
613.36	1562.60
613.55	1654.76
613.74	1705.96
613.93	1722.34
614.13	1787.88
614.32	1736.68
614.51	1796.07
614.70	1724.39
614.89	1558.50
615.08	1689.57
615.28	1880.04
615.47	1544.17
615.66	1656.81
615.85	1599.46
616.04	1658.85
616.23	1691.62
616.42	1572.84
616.62	1626.09
616.81	1650.66
617.00	1615.85
617.19	1611.75
617.38	1585.13
617.57	1603.56
617.76	1591.27
617.95	1619.94
618.15	1644.52
618.34	1656.81
618.53	1542.12
618.72	1589.22
618.91	1605.61
619.10	1665.00
619.29	1558.50
619.48	1540.07
619.68	1490.92
619.87	1533.93
620.06	1478.63
620.25	1556.46
620.44	1585.13
620.63	1550.31
620.82	1564.65
621.01	1619.94
621.20	1599.46
621.39	1607.66
621.59	1640.42
621.78	1587.18
621.97	1544.17
622.16	1564.65
622.35	1560.55
622.54	1570.79
622.73	1562.60
622.92	1501.16
623.11	1511.40
623.30	1560.55
623.49	1617.90
623.68	1474.54
623.88	1587.18
624.07	1564.65
624.26	1597.42
624.45	1624.04
624.64	1490.92
624.83	1581.03
625.02	1488.87
625.21	1529.83
625.40	1458.15
625.59	1648.61
625.78	1562.60
625.97	1640.42
626.16	1603.56
626.35	1640.42
626.54	1542.12
626.74	1716.20
626.93	1576.94
627.12	1644.52
627.31	1660.90
627.50	1611.75
627.69	1734.63
627.88	1570.79
628.07	1515.50
628.26	1523.69
628.45	1542.12
628.64	1581.03
628.83	1566.70
629.02	1517.54
629.21	1591.27
629.40	1603.56
629.59	1595.37
629.78	1552.36
629.97	1568.74
630.16	1558.50
630.35	1605.61
630.54	1529.83
630.73	1578.98
630.92	1533.93
631.11	1570.79
631.30	1566.70
631.49	1599.46
631.68	1478.63
631.87	1535.98
632.06	1554.41
632.25	1681.38
632.44	1535.98
632.63	1576.94
632.82	1482.73
633.01	1552.36
633.20	1662.95
633.39	1624.04
633.58	1638.38
633.77	1546.22
633.96	1568.74
634.15	1636.33
634.34	1589.22
634.53	1587.18
634.72	1578.98
634.91	1495.02
635.10	1505.26
635.29	1550.31
635.48	1595.37
635.67	1617.90
635.86	1525.74
636.05	1609.70
636.24	1583.08
636.43	1546.22
636.62	1605.61
636.81	1533.93
637.00	1519.59
637.19	1497.07
637.38	1515.50
637.57	1595.37
637.76	1566.70
637.95	1652.71
638.14	1626.09
638.33	1609.70
638.52	1613.80
638.71	1550.31
638.89	1519.59
639.08	1642.47
639.27	1595.37
639.46	1748.97
639.65	1888.23
639.84	1968.10
640.03	2162.66
640.22	2207.71
640.41	2166.75
640.60	1964.00
640.79	1859.56
640.98	1785.83
641.17	1751.01
641.36	1714.15
641.55	1767.40
641.74	1679.33
641.92	1650.66
642.11	1554.41
642.30	1568.74
642.49	1548.26
642.68	1548.26
642.87	1603.56
643.06	1486.83
643.25	1562.60
643.44	1585.13
643.63	1560.55
643.82	1634.28
644.00	1505.26
644.19	1566.70
644.38	1421.29
644.57	1572.84
644.76	1492.97
644.95	1519.59
645.14	1525.74
645.33	1517.54
645.52	1535.98
645.71	1509.35
645.89	1456.11
646.08	1628.14
646.27	1529.83
646.46	1568.74
646.65	1490.92
646.84	1564.65
647.03	1531.88
647.22	1540.07
647.40	1517.54
647.59	1595.37
647.78	1406.95
647.97	1550.31
648.16	1527.78
648.35	1626.09
648.54	1531.88
648.73	1578.98
648.91	1574.89
649.10	1578.98
649.29	1568.74
649.48	1585.13
649.67	1523.69
649.86	1499.11
650.05	1593.32
650.23	1765.35
650.42	1681.38
650.61	1763.30
650.80	1705.96
650.99	1791.97
651.18	1667.05
651.36	1652.71
651.55	1601.51
651.74	1648.61
651.93	1542.12
652.12	1515.50
652.31	1529.83
652.49	1564.65
652.68	1527.78
652.87	1636.33
653.06	1554.41
653.25	1638.38
653.44	1556.46
653.62	1634.28
653.81	1505.26
654.00	1474.54
654.19	1609.70
654.38	1644.52
654.56	1538.02
654.75	1458.15
654.94	1601.51
655.13	1558.50
655.32	1499.11
655.51	1585.13
655.69	1560.55
655.88	1564.65
656.07	1486.83
656.26	1585.13
656.45	1488.87
656.63	1544.17
656.82	1538.02
657.01	1593.32
657.20	1544.17
657.38	1617.90
657.57	1605.61
657.76	1517.54
657.95	1591.27
658.14	1511.40
658.32	1542.12
658.51	1531.88
658.70	1566.70
658.89	1550.31
659.08	1576.94
659.26	1578.98
659.45	1515.50
659.64	1609.70
659.83	1531.88
660.01	1755.11
660.20	1617.90
660.39	1640.42
660.58	1486.83
660.76	1595.37
660.95	1538.02
661.14	1570.79
661.33	1435.63
661.51	1562.60
661.70	1560.55
661.89	1587.18
662.08	1554.41
662.26	1486.83
662.45	1464.30
662.64	1570.79
662.83	1576.94
663.01	1482.73
663.20	1538.02
663.39	1628.14
663.58	1478.63
663.76	1601.51
663.95	1578.98
664.14	1497.07
664.32	1509.35
664.51	1474.54
664.70	1478.63
664.89	1495.02
665.07	1533.93
665.26	1624.04
665.45	1576.94
665.64	1591.27
665.82	1628.14
666.01	1611.75
666.20	1562.60
666.38	1585.13
666.57	1587.18
666.76	1740.77
666.95	2883.54
667.13	7571.34
667.32	15554.32
667.51	20031.18
667.69	23363.23
667.88	25570.94
668.07	22023.86
668.25	15507.22
668.44	12316.48
668.63	9922.41
668.81	8519.55
669.00	7765.90
669.19	7204.75
669.38	6371.23
669.56	5750.70
669.75	4827.06
669.94	4239.30
670.12	3383.24
670.31	2766.81
670.50	2471.90
670.68	2131.94
670.87	1906.66
671.06	1712.10
671.24	1701.86
671.43	1722.34
671.62	1693.67
671.80	1617.90
671.99	1615.85
672.18	1546.22
672.36	1593.32
672.55	1560.55
672.74	1634.28
672.92	1566.70
673.11	1574.89
673.29	1505.26
673.48	1550.31
673.67	1578.98
673.85	1552.36
674.04	1464.30
674.23	1576.94
674.41	1654.76
674.60	1525.74
674.79	1425.39
674.97	1470.44
675.16	1556.46
675.34	1587.18
675.53	1531.88
675.72	1546.22
675.90	1679.33
676.09	1523.69
676.28	1501.16
676.46	1423.34
676.65	1576.94
676.83	1482.73
677.02	1544.17
677.21	1615.85
677.39	1527.78
677.58	1468.39
677.77	1499.11
677.95	1472.49
678.14	1515.50
678.32	1490.92
678.51	1548.26
678.70	1638.38
678.88	1511.40
679.07	1560.55
679.25	1552.36
679.44	1556.46
679.63	1511.40
679.81	1593.32
680.00	1624.04
680.18	1611.75
680.37	1609.70
680.55	1529.83
680.74	1464.30
680.93	1482.73
681.11	1570.79
681.30	1544.17
681.48	1638.38
681.67	1511.40
681.85	1572.84
682.04	1542.12
682.23	1509.35
682.41	1591.27
682.60	1542.12
682.78	1552.36
682.97	1538.02
683.15	1603.56
683.34	1511.40
683.53	1587.18
683.71	1509.35
683.90	1724.39
684.08	1628.14
684.27	1499.11
684.45	1546.22
684.64	1574.89
684.82	1552.36
685.01	1599.46
685.19	1611.75
685.38	1570.79
685.57	1517.54
685.75	1472.49
685.94	1544.17
686.12	1511.40
686.31	1460.20
686.49	1535.98
686.68	1574.89
686.86	1566.70
687.05	1558.50
687.23	1589.22
687.42	1529.83
687.60	1449.96
687.79	1564.65
687.97	1642.47
688.16	1511.40
688.34	1595.37
688.53	1429.48
688.71	1607.66
688.90	1538.02
689.08	1507.30
689.27	1509.35
689.45	1533.93
689.64	1538.02
689.82	1576.94
690.01	1462.25
690.19	1591.27
690.38	1525.74
690.56	1656.81
690.75	1513.45
690.93	1441.77
691.12	1533.93
691.30	1570.79
691.49	1523.69
691.67	1605.61
691.86	1554.41
692.04	1509.35
692.23	1517.54
692.41	1560.55
692.60	1650.66
692.78	1681.38
692.97	1593.32
693.15	1667.05
693.34	1648.61
693.52	1638.38
693.71	1572.84
693.89	1603.56
694.08	1523.69
694.26	1558.50
694.44	1603.56
694.63	1632.23
694.81	1505.26
695.00	1503.21
695.18	1572.84
695.37	1638.38
695.55	1552.36
695.74	1544.17
695.92	1548.26
696.10	1517.54
696.29	1515.50
696.47	1486.83
696.66	1468.39
696.84	1542.12
697.03	1503.21
697.21	1607.66
697.40	1984.48
697.58	1660.90
697.76	1495.02
697.95	1529.83
698.13	1492.97
698.32	1556.46
698.50	1533.93
698.68	1554.41
698.87	1505.26
699.05	1568.74
699.24	1585.13
699.42	1468.39
699.61	1468.39
699.79	1568.74
699.97	1542.12
700.16	1470.44
700.34	1443.82
700.53	1462.25
700.71	1648.61
700.89	1540.07
701.08	1484.78
701.26	1603.56
701.45	1929.19
701.63	1597.42
701.81	1642.47
702.00	1517.54
702.18	1503.21
702.37	1533.93
702.55	1617.90
702.73	1685.48
702.92	1705.96
703.10	1785.83
703.28	1796.07
703.47	1744.87
703.65	1714.15
703.84	1677.29
704.02	1693.67
704.20	1634.28
704.39	1578.98
704.57	1576.94
704.75	1624.04
704.94	1634.28
705.12	1585.13
705.30	1701.86
705.49	1800.16
705.67	2688.98
705.86	7477.13
706.04	14223.14
706.22	18689.76
706.41	21216.96
706.59	22644.39
706.77	20858.56
706.96	14606.11
707.14	11652.94
707.32	9764.72
707.51	8654.72
707.69	7491.47
707.87	6655.90
708.06	5865.38
708.24	4677.56
708.42	3680.20
708.61	3030.99
708.79	2328.54
708.97	1990.63
709.16	1927.14
709.34	1771.49
709.52	1652.71
709.71	1603.56
709.89	1660.90
710.07	1527.78
710.26	1538.02
710.44	1505.26
710.62	1570.79
710.80	1576.94
710.99	1593.32
711.17	1619.94
711.35	1566.70
711.54	1474.54
711.72	1599.46
711.90	1583.08
712.09	1515.50
712.27	1538.02
712.45	1542.12
712.63	1480.68
712.82	1554.41
713.00	1574.89
713.18	1572.84
713.37	1558.50
713.55	1542.12
713.73	1615.85
713.91	1572.84
714.10	1495.02
714.28	1470.44
714.46	1552.36
714.65	1562.60
714.83	1554.41
715.01	1529.83
715.19	1466.35
715.38	1538.02
715.56	1583.08
715.74	1546.22
715.92	1464.30
716.11	1695.72
716.29	1460.20
716.47	1578.98
716.65	1548.26
716.84	1429.48
717.02	1556.46
717.20	1452.01
717.38	1495.02
717.57	1593.32
717.75	1517.54
717.93	1476.59
718.11	1468.39
718.30	1476.59
718.48	1640.42
718.66	1578.98
718.84	1615.85
719.03	1538.02
719.21	1478.63
719.39	1601.51
719.57	1556.46
719.75	1603.56
719.94	1484.78
720.12	1554.41
720.30	1591.27
720.48	1501.16
720.67	1478.63
720.85	1503.21
721.03	1570.79
721.21	1538.02
721.39	1611.75
721.58	1525.74
721.76	1538.02
721.94	1576.94
722.12	1554.41
722.30	1640.42
722.49	1583.08
722.67	1552.36
722.85	1574.89
723.03	1517.54
723.21	1554.41
723.40	1593.32
723.58	1548.26
723.76	1546.22
723.94	1595.37
724.12	1683.43
724.30	1665.00
724.49	1593.32
724.67	1587.18
724.85	1656.81
725.03	1472.49
725.21	1587.18
725.40	1581.03
725.58	1597.42
725.76	1615.85
725.94	1546.22
726.12	1538.02
726.30	1509.35
726.49	1509.35
726.67	1429.48
726.85	1511.40
727.03	1599.46
727.21	1781.73
727.39	2152.42
727.57	3248.08
727.76	4331.45
727.94	4681.66
728.12	5099.44
728.30	5050.29
728.48	4128.70
728.66	3545.03
728.84	3108.82
729.03	2914.26
729.21	2666.46
729.39	2432.99
729.57	2041.82
729.75	1873.89
729.93	1775.59
730.11	1648.61
730.30	1515.50
730.48	1585.13
730.66	1581.03
730.84	1621.99
731.02	1566.70
731.20	1583.08
731.38	1546.22
731.56	1482.73
731.74	1525.74
731.93	1527.78
732.11	1587.18
732.29	1542.12
732.47	1525.74
732.65	1611.75
732.83	1621.99
733.01	1560.55
733.19	1445.87
733.37	1501.16
733.56	1572.84
733.74	1495.02
733.92	1591.27
734.10	1515.50
734.28	1593.32
734.46	1540.07
734.64	1490.92
734.82	1466.35
735.00	1452.01
735.18	1519.59
735.36	1607.66
735.54	1624.04
735.73	1615.85
735.91	1488.87
736.09	1480.68
736.27	1505.26
736.45	1581.03
736.63	1470.44
736.81	1478.63
736.99	1609.70
737.17	1564.65
737.35	1562.60
737.53	1591.27
737.71	1499.11
737.89	1574.89
738.07	1509.35
738.25	1497.07
738.43	1490.92
738.61	1509.35
738.80	1515.50
738.98	1468.39
739.16	1499.11
739.34	1542.12
739.52	1609.70
739.70	1525.74
739.88	1490.92
740.06	1564.65
740.24	1480.68
740.42	1648.61
740.60	1443.82
740.78	1497.07
740.96	1372.14
741.14	1556.46
741.32	1554.41
741.50	1519.59
741.68	1687.53
741.86	1572.84
742.04	1517.54
742.22	1443.82
742.40	1583.08
742.58	1513.45
742.76	1468.39
742.94	1615.85
743.12	1515.50
743.30	1564.65
743.48	1542.12
743.66	1470.44
743.84	1533.93
744.02	1546.22
744.20	1535.98
744.38	1480.68
744.56	1540.07
744.74	1667.05
744.92	1544.17
745.10	1572.84
745.28	1562.60
745.46	1550.31
745.64	1501.16
745.82	1570.79
746.00	1548.26
746.18	1615.85
746.36	1497.07
746.54	1583.08
746.72	1527.78
746.90	1546.22
747.08	1533.93
747.26	1505.26
747.44	1595.37
747.62	1521.64
747.80	1542.12
747.98	1601.51
748.15	1519.59
748.33	1558.50
748.51	1562.60
748.69	1607.66
748.87	1484.78
749.05	1495.02
749.23	1527.78
749.41	1595.37
749.59	1521.64
749.77	1585.13
749.95	1509.35
750.13	1529.83
750.31	1609.70
750.49	1509.35
750.67	1597.42
750.85	1578.98
751.03	1531.88
751.20	1617.90
751.38	1486.83
751.56	1529.83
751.74	1624.04
751.92	1429.48
752.10	1560.55
752.28	1617.90
752.46	1443.82
752.64	1449.96
752.82	1538.02
753.00	1585.13
753.18	1525.74
753.35	1576.94
753.53	1566.70
753.71	1552.36
753.89	1542.12
754.07	1583.08
754.25	1601.51
754.43	1554.41
754.61	1488.87
754.79	1603.56
754.97	1505.26
755.14	1554.41
755.32	1495.02
755.50	1529.83
755.68	1492.97
755.86	1542.12
756.04	1550.31
756.22	1454.06
756.40	1558.50
756.57	1679.33
756.75	1472.49
756.93	1548.26
757.11	1632.23
757.29	1447.91
757.47	1443.82
757.65	1511.40
757.82	1447.91
758.00	1503.21
758.18	1490.92
758.36	1505.26
758.54	1595.37
758.72	1472.49
758.90	1482.73
759.07	1499.11
759.25	1525.74
759.43	1630.18
759.61	1501.16
759.79	1974.24
759.97	1613.80
760.15	1540.07
760.32	1552.36
760.50	1583.08
760.68	1617.90
760.86	1499.11
761.04	1642.47
761.22	1611.75
761.39	1538.02
761.57	1660.90
761.75	1501.16
761.93	1525.74
762.11	1554.41
762.28	1527.78
762.46	1554.41
762.64	1564.65
762.82	1527.78
763.00	1464.30
763.18	1585.13
763.35	1437.67
763.53	1550.31
763.71	1533.93
763.89	1462.25
764.07	1576.94
764.24	1550.31
764.42	1544.17
764.60	1486.83
764.78	1542.12
764.96	1552.36
765.13	1583.08
765.31	1562.60
765.49	1538.02
765.67	1413.10
765.84	1546.22
766.02	1535.98
766.20	1439.72
766.38	1523.69
766.56	1572.84
766.73	1542.12
766.91	1525.74
767.09	1533.93
767.27	1585.13
767.44	1484.78
767.62	1513.45
767.80	1568.74
767.98	1470.44
768.15	1488.87
768.33	1568.74
768.51	1527.78
768.69	1617.90
768.87	1525.74
769.04	1533.93
769.22	1628.14
769.40	1607.66
769.58	1642.47
769.75	1603.56
769.93	1609.70
770.11	1527.78
770.28	1466.35
770.46	1550.31
770.64	1529.83
770.82	1542.12
770.99	1574.89
771.17	1599.46
771.35	1535.98
771.53	1484.78
771.70	1497.07
771.88	1538.02
772.06	1490.92
772.23	1535.98
772.41	1533.93
772.59	1552.36
772.77	1515.50
772.94	1523.69
773.12	1558.50
773.30	1544.17
773.47	1503.21
773.65	1447.91
773.83	1642.47
774.01	1476.59
774.18	1529.83
774.36	1527.78
774.54	1474.54
774.71	1466.35
774.89	1427.43
775.07	1521.64
775.24	1497.07
775.42	1540.07
775.60	1538.02
775.78	1535.98
775.95	1550.31
776.13	1484.78
776.31	1423.34
776.48	1472.49
776.66	1574.89
776.84	1544.17
777.01	1574.89
777.19	1535.98
777.37	1519.59
777.54	1605.61
777.72	1658.85
777.90	1554.41
778.07	1474.54
778.25	1660.90
778.43	1521.64
778.60	1505.26
778.78	1517.54
778.96	1593.32
779.13	1482.73
779.31	1583.08
779.49	1505.26
779.66	1462.25
779.84	1499.11
780.01	1495.02
780.19	1544.17
780.37	1527.78
780.54	1601.51
780.72	1540.07
780.90	1521.64
781.07	1488.87
781.25	1511.40
781.43	1556.46
781.60	1538.02
781.78	1570.79
781.95	1492.97
782.13	1497.07
782.31	1544.17
782.48	1452.01
782.66	1621.99
782.83	1642.47
783.01	1562.60
783.19	1554.41
783.36	1515.50
783.54	1486.83
783.72	1581.03
783.89	1560.55
784.07	1554.41
784.24	1525.74
784.42	1626.09
784.60	1488.87
784.77	1570.79
784.95	1382.38
785.12	1482.73
785.30	1484.78
785.47	1523.69
785.65	1503.21
785.83	1513.45
786.00	1511.40
786.18	1562.60
786.35	1456.11
786.53	1519.59
786.71	1636.33
786.88	1619.94
787.06	1574.89
787.23	1521.64
787.41	1413.10
787.58	1531.88
787.76	1452.01
787.94	1509.35
788.11	1523.69
788.29	1482.73
788.46	1499.11
788.64	1472.49
788.81	1609.70
788.99	1478.63
789.16	1482.73
789.34	1574.89
789.52	1497.07
789.69	1484.78
789.87	1505.26
790.04	1644.52
790.22	1546.22
790.39	1591.27
790.57	1361.90
790.74	1484.78
790.92	1644.52
791.09	1488.87
791.27	1550.31
791.44	1585.13
791.62	1574.89
791.79	1509.35
791.97	1568.74
792.15	1624.04
792.32	1611.75
792.50	1568.74
792.67	1630.18
792.85	1589.22
793.02	1435.63
793.20	1517.54
793.37	1501.16
793.55	1513.45
793.72	1568.74
793.90	1488.87
794.07	1513.45
794.25	1501.16
794.42	1564.65
794.60	1480.68
794.77	1619.94
794.95	1593.32
795.12	1593.32
795.30	1595.37
795.47	1460.20
795.65	1632.23
795.82	1492.97
796.00	1511.40
796.17	1497.07
796.34	1468.39
796.52	1560.55
796.69	1570.79
796.87	1546.22
797.04	1566.70
797.22	1486.83
797.39	1556.46
797.57	1574.89
797.74	1601.51
797.92	1578.98
798.09	1546.22
798.27	1583.08
798.44	1507.30
798.62	1421.29
798.79	1583.08
798.96	1484.78
799.14	1576.94
799.31	1679.33
799.49	1527.78
799.66	1499.11
799.84	1550.31
800.01	1482.73
800.19	1568.74
800.36	1505.26
800.53	1550.31
800.71	1595.37
800.88	1669.09
801.06	1552.36
801.23	1501.16
801.41	1478.63
801.58	1499.11
801.75	1515.50
801.93	1621.99
802.10	1578.98
802.28	1583.08
802.45	1570.79
802.63	1558.50
802.80	1665.00
802.97	1472.49
803.15	1550.31
803.32	1540.07
803.50	1456.11
803.67	1482.73
803.84	1509.35
804.02	1515.50
804.19	1648.61
804.37	1419.24
804.54	1486.83
804.71	1497.07
804.89	1560.55
805.06	1533.93
805.24	1409.00
805.41	1466.35
805.58	1495.02
805.76	1613.80
805.93	1562.60
806.10	1578.98
806.28	1552.36
806.45	1574.89
806.63	1544.17
806.80	1527.78
806.97	1570.79
807.15	1556.46
807.32	1499.11
807.49	1570.79
807.67	1476.59
807.84	1587.18
808.01	1437.67
808.19	1642.47
808.36	1656.81
808.54	1462.25
808.71	1521.64
808.88	1486.83
809.06	1470.44
809.23	1611.75
809.40	1464.30
809.58	1533.93
809.75	1542.12
809.92	1476.59
810.10	1581.03
810.27	1599.46
810.44	1566.70
810.62	1533.93
810.79	1490.92
810.96	1519.59
811.14	1535.98
811.31	1548.26
811.48	1599.46
811.66	1564.65
811.83	1572.84
812.00	1529.83
812.18	1576.94
812.35	1570.79
812.52	1515.50
812.69	1470.44
812.87	1509.35
813.04	1527.78
813.21	1482.73
813.39	1546.22
813.56	1421.29
813.73	1558.50
813.91	1423.34
814.08	1495.02
814.25	1513.45
814.42	1419.24
814.60	1540.07
814.77	1546.22
814.94	1619.94
815.12	1560.55
815.29	1593.32
815.46	1441.77
815.63	1519.59
815.81	1544.17
815.98	1531.88
816.15	1505.26
816.33	1466.35
816.50	1564.65
816.67	1499.11
816.84	1505.26
817.02	1523.69
817.19	1521.64
817.36	1556.46
817.53	1576.94
817.71	1495.02
817.88	1566.70
818.05	1560.55
818.22	1578.98
818.40	1538.02
818.57	1470.44
818.74	1542.12
818.91	1456.11
819.09	1513.45
819.26	1605.61
819.43	1593.32
819.60	1458.15
819.78	1495.02
819.95	1644.52
820.12	1486.83
820.29	1669.09
820.47	1521.64
820.64	1535.98
820.81	1460.20
820.98	1495.02
821.15	1507.30
821.33	1593.32
821.50	1464.30
821.67	1552.36
821.84	1476.59
822.02	1523.69
822.19	1632.23
822.36	1480.68
822.53	1488.87
822.70	1495.02
822.88	1542.12
823.05	1576.94
823.22	1462.25
823.39	1640.42
823.56	1535.98
823.74	1570.79
823.91	1511.40
824.08	1495.02
824.25	1468.39
824.42	1583.08
824.60	1490.92
824.77	1501.16
824.94	1517.54
825.11	1531.88
825.28	1452.01
825.45	1472.49
825.63	1562.60
825.80	1437.67
825.97	1562.60
826.14	1531.88
826.31	1423.34
826.48	1642.47
826.66	1427.43
826.83	1497.07
827.00	1542.12
827.17	1531.88
827.34	1486.83
827.51	1581.03
827.69	1517.54
827.86	1478.63
828.03	1583.08
828.20	1566.70
828.37	1519.59
828.54	1546.22
828.71	1488.87
828.89	1626.09
829.06	1497.07
829.23	1564.65
829.40	1523.69
829.57	1486.83
829.74	1581.03
829.91	1544.17
830.09	1554.41
830.26	1443.82
830.43	1667.05
830.60	1558.50
830.77	1495.02
830.94	1568.74
831.11	1521.64
831.28	1478.63
831.46	1585.13
831.63	1482.73
831.80	1499.11
831.97	1427.43
832.14	1595.37
832.31	1572.84
832.48	1484.78
832.65	1591.27
832.82	1452.01
832.99	1581.03
833.17	1558.50
833.34	1591.27
833.51	1597.42
833.68	1400.81
833.85	1595.37
834.02	1542.12
834.19	1503.21
834.36	1501.16
834.53	1568.74
834.70	1550.31
834.87	1574.89
835.04	1574.89
835.22	1554.41
835.39	1513.45
835.56	1484.78
835.73	1525.74
835.90	1560.55
836.07	1507.30
836.24	1609.70
836.41	1523.69
836.58	1501.16
836.75	1538.02
836.92	1615.85
837.09	1421.29
837.26	1499.11
837.43	1552.36
837.60	1558.50
837.77	1529.83
837.94	1574.89
838.12	1576.94
838.29	1671.14
838.46	1435.63
838.63	1519.59
838.80	1665.00
838.97	1495.02
839.14	1583.08
839.31	1591.27
839.48	1521.64
839.65	1603.56
839.82	1601.51
839.99	1544.17
840.16	1523.69
840.33	1505.26
840.50	1490.92
840.67	1501.16
840.84	1413.10
841.01	1447.91
841.18	1583.08
841.35	1550.31
841.52	1542.12
841.69	1630.18
841.86	1531.88
842.03	1505.26
842.20	1548.26
842.37	1505.26
842.54	1527.78
842.71	1482.73
842.88	1546.22
843.05	1619.94
843.22	1505.26
843.39	1544.17
843.56	1521.64
843.73	1501.16
843.90	1486.83
844.07	1529.83
844.24	1589.22
844.41	1621.99
844.58	1566.70
844.75	1574.89
844.92	1583.08
845.09	1490.92
845.26	1488.87
845.43	1603.56
845.60	1570.79
845.77	1576.94
845.94	1542.12
846.10	1603.56
846.27	1470.44
846.44	1525.74
846.61	1495.02
846.78	1638.38
846.95	1554.41
847.12	1468.39
847.29	1472.49
847.46	1511.40
847.63	1515.50
847.80	1468.39
847.97	1529.83
848.14	1640.42
848.31	1552.36
848.48	1490.92
848.65	1521.64
848.82	1511.40
848.98	1695.72
849.15	1581.03
849.32	1642.47
849.49	1570.79
849.66	1554.41
849.83	1529.83
850.00	1425.39
850.17	1550.31
850.34	1605.61
850.51	1599.46
850.68	1488.87
850.85	1599.46
851.01	1492.97
851.18	1552.36
851.35	1484.78
851.52	1486.83
851.69	1626.09
851.86	1486.83
852.03	1550.31
852.20	1542.12
852.37	1484.78
852.53	1490.92
852.70	1611.75
852.87	1570.79
853.04	1603.56
853.21	1540.07
853.38	1531.88
853.55	1617.90
853.72	1564.65
853.89	1497.07
854.05	1468.39
854.22	1462.25
854.39	1515.50
854.56	1527.78
854.73	1626.09
854.90	1519.59
855.07	1503.21
855.23	1540.07
855.40	1513.45
855.57	1492.97
855.74	1417.19
855.91	1644.52
856.08	1476.59
856.25	1480.68
856.41	1470.44
856.58	1517.54
856.75	1505.26
856.92	1505.26
857.09	1527.78
857.26	1484.78
857.42	1572.84
857.59	1552.36
857.76	1511.40
857.93	1517.54
858.10	1521.64
858.27	1497.07
858.43	1535.98
858.60	1529.83
858.77	1462.25
858.94	1470.44
859.11	1589.22
859.27	1585.13
859.44	1525.74
859.61	1605.61
859.78	1566.70
859.95	1513.45
860.12	1472.49
860.28	1662.95
860.45	1554.41
860.62	1533.93
860.79	1519.59
860.95	1505.26
861.12	1560.55
861.29	1486.83
861.46	1525.74
861.63	1515.50
861.79	1583.08
861.96	1521.64
862.13	1429.48
862.30	1585.13
862.47	1538.02
862.63	1527.78
862.80	1562.60
862.97	1636.33
863.14	1525.74
863.30	1529.83
863.47	1505.26
863.64	1570.79
863.81	1554.41
863.97	1558.50
864.14	1531.88
864.31	1464.30
864.48	1554.41
864.65	1513.45
864.81	1544.17
864.98	1492.97
865.15	1574.89
865.32	1601.51
865.48	1464.30
865.65	1540.07
865.82	1441.77
865.98	1519.59
866.15	1552.36
866.32	1548.26
866.49	1574.89
866.65	1548.26
866.82	1523.69
866.99	1507.30
867.16	1452.01
867.32	1476.59
867.49	1501.16
867.66	1497.07
867.83	1531.88
867.99	1431.53
868.16	1501.16
868.33	1521.64
868.49	1525.74
868.66	1531.88
868.83	1546.22
868.99	1554.41
869.16	1566.70
869.33	1566.70
869.50	1523.69
869.66	1490.92
869.83	1503.21
870.00	1470.44
870.16	1533.93
870.33	1589.22
870.50	1566.70
870.66	1517.54
870.83	1554.41
871.00	1558.50
871.17	1624.04
871.33	1546.22
871.50	1521.64
871.67	1503.21
871.83	1513.45
872.00	1570.79
872.17	1470.44
872.33	1552.36
872.50	1587.18
872.67	1505.26
872.83	1517.54
873.00	1488.87
873.17	1492.97
873.33	1568.74
873.50	1560.55
873.67	1507.30
873.83	1517.54
874.00	1482.73
874.16	1640.42
874.33	1552.36
874.50	1527.78
874.66	1560.55
874.83	1527.78
875.00	1546.22
875.16	1538.02
875.33	1544.17
875.50	1384.43
875.66	1503.21
875.83	1521.64
875.99	1552.36
876.16	1538.02
876.33	1509.35
876.49	1578.98
876.66	1583.08
876.83	1540.07
876.99	1492.97
877.16	1509.35
877.32	1509.35
877.49	1452.01
877.66	1540.07
877.82	1593.32
877.99	1517.54
878.15	1595.37
878.32	1568.74
878.49	1593.32
878.65	1449.96
878.82	1566.70
878.98	1552.36
879.15	1581.03
879.32	1605.61
879.48	1544.17
879.65	1474.54
879.81	1472.49
879.98	1556.46
880.15	1511.40
880.31	1480.68
880.48	1548.26
880.64	1558.50
880.81	1540.07
880.97	1640.42
881.14	1535.98
881.31	1517.54
881.47	1642.47
881.64	1527.78
881.80	1413.10
881.97	1529.83
882.13	1658.85
882.30	1570.79
882.47	1488.87
882.63	1437.67
882.80	1511.40
882.96	1456.11
883.13	1523.69
883.29	1535.98
883.46	1535.98
883.62	1576.94
883.79	1458.15
883.95	1578.98
884.12	1529.83
884.29	1607.66
884.45	1515.50
884.62	1556.46
884.78	1574.89
884.95	1562.60
885.11	1476.59
885.28	1544.17
885.44	1482.73
885.61	1656.81
885.77	1546.22
885.94	1591.27
886.10	1538.02
886.27	1621.99
886.43	1650.66
886.60	1546.22
886.76	1562.60
886.93	1480.68
887.09	1576.94
887.26	1558.50
887.42	1486.83
887.59	1613.80
887.75	1566.70
887.92	1529.83
888.08	1642.47
888.25	1607.66
888.41	1619.94
888.58	1456.11
888.74	1574.89
888.91	1484.78
>>>>>End Processed Spectral Data<<<<<
