SpectraSuite Data File
++++++++++++++++++++++++++++++++++++
Date: Tue May 03 12:55:25 CEST 2016
User: root
Dark Spectrum Present: No
Reference Spectrum Present: No
Number of Sampled Component Spectra: 1
Spectrometers: USB4C02835
Integration Time (usec): 100000 (USB4C02835)
Spectra Averaged: 1 (USB4C02835)
Boxcar Smoothing: 0 (USB4C02835)
Correct for Electrical Dark: No (USB4C02835)
Strobe/Lamp Enabled: No (USB4C02835)
Correct for Detector Non-linearity: No (USB4C02835)
Correct for Stray Light: No (USB4C02835)
Number of Pixels in Processed Spectrum: 3648
>>>>>Begin Processed Spectral Data<<<<<
177.47	1361.90
177.69	1361.90
177.91	1361.90
178.13	1249.26
178.36	1372.14
178.58	1439.72
178.80	1542.12
179.02	1466.35
179.24	1525.74
179.46	1523.69
179.68	1607.66
179.90	1566.70
180.13	1550.31
180.35	1538.02
180.57	1542.12
180.79	1576.94
181.01	1560.55
181.23	1587.18
181.45	1527.78
181.67	1523.69
181.90	1648.61
182.12	1421.29
182.34	1566.70
182.56	1587.18
182.78	1544.17
183.00	1484.78
183.22	1470.44
183.44	1511.40
183.66	1597.42
183.89	1525.74
184.11	1533.93
184.33	1546.22
184.55	1640.42
184.77	1601.51
184.99	1576.94
185.21	1519.59
185.43	1605.61
185.65	1515.50
185.87	1476.59
186.10	1654.76
186.32	1644.52
186.54	1591.27
186.76	1607.66
186.98	1517.54
187.20	1517.54
187.42	1464.30
187.64	1542.12
187.86	1601.51
188.08	1560.55
188.30	1564.65
188.52	1591.27
188.75	1583.08
188.97	1605.61
189.19	1544.17
189.41	1505.26
189.63	1523.69
189.85	1464.30
190.07	1482.73
190.29	1499.11
190.51	1519.59
190.73	1501.16
190.95	1574.89
191.17	1509.35
191.39	1441.77
191.61	1492.97
191.84	1503.21
192.06	1566.70
192.28	1525.74
192.50	1648.61
192.72	1513.45
192.94	1507.30
193.16	1615.85
193.38	1480.68
193.60	1552.36
193.82	1488.87
194.04	1595.37
194.26	1519.59
194.48	1576.94
194.70	1568.74
194.92	1552.36
195.14	1564.65
195.36	1398.76
195.58	1619.94
195.80	1476.59
196.02	1421.29
196.24	1548.26
196.46	1568.74
196.69	1431.53
196.91	1724.39
197.13	1509.35
197.35	1521.64
197.57	1603.56
197.79	1548.26
198.01	1589.22
198.23	1601.51
198.45	1619.94
198.67	1468.39
198.89	1544.17
199.11	1562.60
199.33	1521.64
199.55	1490.92
199.77	1564.65
199.99	1648.61
200.21	1531.88
200.43	1578.98
200.65	1435.63
200.87	1482.73
201.09	1546.22
201.31	1466.35
201.53	1638.38
201.75	1482.73
201.97	1554.41
202.19	1591.27
202.41	1511.40
202.63	1632.23
202.85	1501.16
203.07	1531.88
203.29	1464.30
203.51	1509.35
203.73	1505.26
203.95	1665.00
204.17	1546.22
204.39	1513.45
204.61	1495.02
204.83	1488.87
205.05	1554.41
205.27	1597.42
205.49	1693.67
205.71	1595.37
205.93	1486.83
206.15	1525.74
206.37	1591.27
206.59	1542.12
206.81	1529.83
207.03	1486.83
207.25	1535.98
207.47	1476.59
207.69	1519.59
207.91	1599.46
208.13	1609.70
208.34	1562.60
208.56	1437.67
208.78	1558.50
209.00	1593.32
209.22	1445.87
209.44	1511.40
209.66	1492.97
209.88	1509.35
210.10	1574.89
210.32	1478.63
210.54	1611.75
210.76	1521.64
210.98	1650.66
211.20	1474.54
211.42	1552.36
211.64	1607.66
211.86	1576.94
212.08	1599.46
212.30	1562.60
212.52	1509.35
212.74	1589.22
212.96	1505.26
213.17	1519.59
213.39	1599.46
213.61	1601.51
213.83	1685.48
214.05	1511.40
214.27	1593.32
214.49	1462.25
214.71	1517.54
214.93	1464.30
215.15	1533.93
215.37	1634.28
215.59	1409.00
215.81	1609.70
216.03	1529.83
216.24	1513.45
216.46	1583.08
216.68	1505.26
216.90	1517.54
217.12	1603.56
217.34	1540.07
217.56	1556.46
217.78	1609.70
218.00	1593.32
218.22	1648.61
218.44	1509.35
218.66	1591.27
218.87	1660.90
219.09	1574.89
219.31	1609.70
219.53	1562.60
219.75	1492.97
219.97	1501.16
220.19	1617.90
220.41	1480.68
220.63	1617.90
220.85	1548.26
221.06	1431.53
221.28	1574.89
221.50	1509.35
221.72	1527.78
221.94	1517.54
222.16	1538.02
222.38	1535.98
222.60	1503.21
222.82	1484.78
223.03	1564.65
223.25	1550.31
223.47	1613.80
223.69	1675.24
223.91	1595.37
224.13	1517.54
224.35	1589.22
224.57	1597.42
224.78	1630.18
225.00	1560.55
225.22	1499.11
225.44	1533.93
225.66	1538.02
225.88	1470.44
226.10	1564.65
226.32	1468.39
226.53	1619.94
226.75	1497.07
226.97	1466.35
227.19	1538.02
227.41	1560.55
227.63	1468.39
227.85	1464.30
228.06	1501.16
228.28	1505.26
228.50	1554.41
228.72	1619.94
228.94	1550.31
229.16	1460.20
229.37	1525.74
229.59	1560.55
229.81	1556.46
230.03	1533.93
230.25	1458.15
230.47	1501.16
230.69	1468.39
230.90	1581.03
231.12	1482.73
231.34	1601.51
231.56	1615.85
231.78	1488.87
232.00	1566.70
232.21	1550.31
232.43	1464.30
232.65	1417.19
232.87	1552.36
233.09	1468.39
233.30	1449.96
233.52	1591.27
233.74	1527.78
233.96	1527.78
234.18	1501.16
234.40	1562.60
234.61	1644.52
234.83	1533.93
235.05	1521.64
235.27	1667.05
235.49	1640.42
235.70	1511.40
235.92	1583.08
236.14	1589.22
236.36	1701.86
236.58	1531.88
236.79	1523.69
237.01	1505.26
237.23	1484.78
237.45	1675.24
237.67	1517.54
237.88	1542.12
238.10	1595.37
238.32	1462.25
238.54	1509.35
238.76	1501.16
238.97	1462.25
239.19	1525.74
239.41	1562.60
239.63	1587.18
239.85	1505.26
240.06	1535.98
240.28	1421.29
240.50	1535.98
240.72	1597.42
240.93	1574.89
241.15	1595.37
241.37	1548.26
241.59	1593.32
241.81	1552.36
242.02	1454.06
242.24	1589.22
242.46	1562.60
242.68	1492.97
242.89	1476.59
243.11	1597.42
243.33	1548.26
243.55	1564.65
243.76	1525.74
243.98	1585.13
244.20	1601.51
244.42	1515.50
244.64	1529.83
244.85	1464.30
245.07	1503.21
245.29	1531.88
245.51	1548.26
245.72	1517.54
245.94	1646.57
246.16	1601.51
246.38	1535.98
246.59	1542.12
246.81	1449.96
247.03	1542.12
247.24	1492.97
247.46	1445.87
247.68	1540.07
247.90	1507.30
248.11	1497.07
248.33	1595.37
248.55	1484.78
248.77	1509.35
248.98	1585.13
249.20	1671.14
249.42	1548.26
249.64	1515.50
249.85	1466.35
250.07	1468.39
250.29	1599.46
250.50	1630.18
250.72	1503.21
250.94	1550.31
251.16	1619.94
251.37	1628.14
251.59	1488.87
251.81	1548.26
252.02	1587.18
252.24	1554.41
252.46	1576.94
252.68	1566.70
252.89	1447.91
253.11	1460.20
253.33	1671.14
253.54	1540.07
253.76	1484.78
253.98	1552.36
254.20	1507.30
254.41	1490.92
254.63	1511.40
254.85	1497.07
255.06	1558.50
255.28	1552.36
255.50	1540.07
255.71	1517.54
255.93	1462.25
256.15	1550.31
256.36	1538.02
256.58	1599.46
256.80	1593.32
257.02	1488.87
257.23	1527.78
257.45	1566.70
257.67	1578.98
257.88	1482.73
258.10	1550.31
258.32	1482.73
258.53	1546.22
258.75	1546.22
258.97	1482.73
259.18	1544.17
259.40	1599.46
259.62	1617.90
259.83	1560.55
260.05	1484.78
260.27	1740.77
260.48	1546.22
260.70	1548.26
260.92	1550.31
261.13	1535.98
261.35	1583.08
261.57	1540.07
261.78	1462.25
262.00	1486.83
262.22	1570.79
262.43	1566.70
262.65	1486.83
262.86	1546.22
263.08	1535.98
263.30	1527.78
263.51	1447.91
263.73	1515.50
263.95	1558.50
264.16	1525.74
264.38	1605.61
264.60	1601.51
264.81	1511.40
265.03	1558.50
265.25	1515.50
265.46	1505.26
265.68	1599.46
265.89	1521.64
266.11	1482.73
266.33	1552.36
266.54	1640.42
266.76	1593.32
266.98	1574.89
267.19	1525.74
267.41	1581.03
267.62	1527.78
267.84	1503.21
268.06	1558.50
268.27	1548.26
268.49	1630.18
268.70	1685.48
268.92	1533.93
269.14	1492.97
269.35	1495.02
269.57	1560.55
269.79	1556.46
270.00	1517.54
270.22	1613.80
270.43	1519.59
270.65	1495.02
270.87	1523.69
271.08	1521.64
271.30	1519.59
271.51	1482.73
271.73	1521.64
271.95	1499.11
272.16	1572.84
272.38	1521.64
272.59	1583.08
272.81	1556.46
273.02	1560.55
273.24	1566.70
273.46	1585.13
273.67	1472.49
273.89	1527.78
274.10	1495.02
274.32	1531.88
274.54	1484.78
274.75	1576.94
274.97	1492.97
275.18	1538.02
275.40	1570.79
275.61	1521.64
275.83	1611.75
276.05	1488.87
276.26	1443.82
276.48	1497.07
276.69	1591.27
276.91	1509.35
277.12	1533.93
277.34	1599.46
277.55	1636.33
277.77	1546.22
277.99	1464.30
278.20	1486.83
278.42	1470.44
278.63	1515.50
278.85	1505.26
279.06	1589.22
279.28	1552.36
279.49	1552.36
279.71	1593.32
279.93	1585.13
280.14	1538.02
280.36	1538.02
280.57	1570.79
280.79	1548.26
281.00	1460.20
281.22	1478.63
281.43	1566.70
281.65	1445.87
281.86	1462.25
282.08	1574.89
282.29	1597.42
282.51	1486.83
282.73	1538.02
282.94	1488.87
283.16	1564.65
283.37	1595.37
283.59	1478.63
283.80	1542.12
284.02	1576.94
284.23	1624.04
284.45	1515.50
284.66	1492.97
284.88	1507.30
285.09	1568.74
285.31	1499.11
285.52	1550.31
285.74	1468.39
285.95	1560.55
286.17	1576.94
286.38	1689.57
286.60	1480.68
286.81	1503.21
287.03	1552.36
287.24	1443.82
287.46	1525.74
287.67	1558.50
287.89	1591.27
288.10	1562.60
288.32	1519.59
288.53	1601.51
288.75	1540.07
288.96	1574.89
289.18	1480.68
289.39	1505.26
289.61	1548.26
289.82	1597.42
290.04	1597.42
290.25	1492.97
290.47	1484.78
290.68	1574.89
290.90	1517.54
291.11	1458.15
291.33	1621.99
291.54	1488.87
291.76	1482.73
291.97	1568.74
292.18	1509.35
292.40	1525.74
292.61	1490.92
292.83	1636.33
293.04	1650.66
293.26	1613.80
293.47	1476.59
293.69	1449.96
293.90	1488.87
294.12	1681.38
294.33	1615.85
294.55	1486.83
294.76	1556.46
294.97	1556.46
295.19	1626.09
295.40	1542.12
295.62	1533.93
295.83	1603.56
296.05	1578.98
296.26	1603.56
296.48	1617.90
296.69	1495.02
296.90	1576.94
297.12	1542.12
297.33	1607.66
297.55	1574.89
297.76	1554.41
297.98	1599.46
298.19	1609.70
298.41	1556.46
298.62	1540.07
298.83	1550.31
299.05	1519.59
299.26	1552.36
299.48	1429.48
299.69	1601.51
299.90	1585.13
300.12	1519.59
300.33	1550.31
300.55	1544.17
300.76	1503.21
300.98	1474.54
301.19	1591.27
301.40	1466.35
301.62	1474.54
301.83	1519.59
302.05	1611.75
302.26	1542.12
302.47	1550.31
302.69	1535.98
302.90	1538.02
303.12	1472.49
303.33	1503.21
303.54	1638.38
303.76	1437.67
303.97	1603.56
304.19	1652.71
304.40	1492.97
304.61	1572.84
304.83	1593.32
305.04	1525.74
305.26	1560.55
305.47	1492.97
305.68	1501.16
305.90	1480.68
306.11	1562.60
306.33	1595.37
306.54	1538.02
306.75	1441.77
306.97	1525.74
307.18	1544.17
307.39	1535.98
307.61	1525.74
307.82	1499.11
308.04	1558.50
308.25	1566.70
308.46	1552.36
308.68	1529.83
308.89	1535.98
309.10	1558.50
309.32	1523.69
309.53	1525.74
309.74	1568.74
309.96	1525.74
310.17	1560.55
310.39	1396.71
310.60	1662.95
310.81	1585.13
311.03	1525.74
311.24	1525.74
311.45	1513.45
311.67	1634.28
311.88	1460.20
312.09	1552.36
312.31	1517.54
312.52	1554.41
312.73	1503.21
312.95	1474.54
313.16	1484.78
313.37	1621.99
313.59	1570.79
313.80	1581.03
314.01	1558.50
314.23	1546.22
314.44	1523.69
314.65	1490.92
314.87	1476.59
315.08	1554.41
315.29	1566.70
315.51	1519.59
315.72	1517.54
315.93	1667.05
316.15	1583.08
316.36	1476.59
316.57	1492.97
316.79	1521.64
317.00	1540.07
317.21	1556.46
317.43	1542.12
317.64	1492.97
317.85	1503.21
318.07	1470.44
318.28	1630.18
318.49	1656.81
318.70	1832.93
318.92	1736.68
319.13	1714.15
319.34	1720.29
319.56	1660.90
319.77	1648.61
319.98	1665.00
320.20	1636.33
320.41	1603.56
320.62	1538.02
320.83	1525.74
321.05	1665.00
321.26	1578.98
321.47	1556.46
321.69	1601.51
321.90	1425.39
322.11	1546.22
322.32	1601.51
322.54	1576.94
322.75	1449.96
322.96	1636.33
323.18	1472.49
323.39	1447.91
323.60	1595.37
323.81	1589.22
324.03	1564.65
324.24	1560.55
324.45	1597.42
324.66	1533.93
324.88	1572.84
325.09	1589.22
325.30	1484.78
325.52	1595.37
325.73	1570.79
325.94	1546.22
326.15	1472.49
326.37	1497.07
326.58	1560.55
326.79	1607.66
327.00	1538.02
327.22	1482.73
327.43	1546.22
327.64	1525.74
327.85	1525.74
328.07	1572.84
328.28	1572.84
328.49	1578.98
328.70	1456.11
328.92	1552.36
329.13	1556.46
329.34	1599.46
329.55	1546.22
329.76	1558.50
329.98	1542.12
330.19	1603.56
330.40	1585.13
330.61	1499.11
330.83	1529.83
331.04	1509.35
331.25	1605.61
331.46	1562.60
331.68	1415.15
331.89	1566.70
332.10	1525.74
332.31	1531.88
332.52	1486.83
332.74	1488.87
332.95	1495.02
333.16	1501.16
333.37	1566.70
333.58	1525.74
333.80	1552.36
334.01	1480.68
334.22	1511.40
334.43	1533.93
334.64	1576.94
334.86	1427.43
335.07	1378.28
335.28	1572.84
335.49	1517.54
335.70	1488.87
335.92	1521.64
336.13	1595.37
336.34	1607.66
336.55	1609.70
336.76	1607.66
336.98	1476.59
337.19	1601.51
337.40	1617.90
337.61	1669.09
337.82	1513.45
338.04	1423.34
338.25	1445.87
338.46	1503.21
338.67	1628.14
338.88	1476.59
339.09	1441.77
339.31	1511.40
339.52	1452.01
339.73	1538.02
339.94	1509.35
340.15	1570.79
340.36	1548.26
340.58	1495.02
340.79	1486.83
341.00	1523.69
341.21	1423.34
341.42	1648.61
341.63	1556.46
341.85	1574.89
342.06	1488.87
342.27	1499.11
342.48	1550.31
342.69	1441.77
342.90	1542.12
343.12	1583.08
343.33	1540.07
343.54	1499.11
343.75	1566.70
343.96	1525.74
344.17	1503.21
344.38	1490.92
344.60	1517.54
344.81	1447.91
345.02	1515.50
345.23	1556.46
345.44	1619.94
345.65	1615.85
345.86	1599.46
346.07	1495.02
346.29	1568.74
346.50	1523.69
346.71	1566.70
346.92	1568.74
347.13	1603.56
347.34	1572.84
347.55	1490.92
347.76	1476.59
347.98	1552.36
348.19	1554.41
348.40	1576.94
348.61	1515.50
348.82	1640.42
349.03	1492.97
349.24	1503.21
349.45	1685.48
349.66	1511.40
349.88	1560.55
350.09	1574.89
350.30	1638.38
350.51	1566.70
350.72	1558.50
350.93	1652.71
351.14	1564.65
351.35	1591.27
351.56	1587.18
351.77	1507.30
351.99	1574.89
352.20	1591.27
352.41	1597.42
352.62	1480.68
352.83	1550.31
353.04	1529.83
353.25	1511.40
353.46	1624.04
353.67	1605.61
353.88	1478.63
354.09	1572.84
354.30	1550.31
354.52	1538.02
354.73	1478.63
354.94	1466.35
355.15	1497.07
355.36	1638.38
355.57	1460.20
355.78	1460.20
355.99	1429.48
356.20	1562.60
356.41	1599.46
356.62	1558.50
356.83	1525.74
357.04	1529.83
357.25	1486.83
357.46	1538.02
357.68	1495.02
357.89	1480.68
358.10	1509.35
358.31	1538.02
358.52	1535.98
358.73	1533.93
358.94	1525.74
359.15	1495.02
359.36	1611.75
359.57	1531.88
359.78	1525.74
359.99	1595.37
360.20	1484.78
360.41	1556.46
360.62	1581.03
360.83	1556.46
361.04	1564.65
361.25	1564.65
361.46	1558.50
361.67	1570.79
361.88	1492.97
362.09	1558.50
362.30	1609.70
362.51	1468.39
362.72	1505.26
362.93	1529.83
363.14	1558.50
363.35	1521.64
363.56	1531.88
363.78	1599.46
363.99	1535.98
364.20	1560.55
364.41	1554.41
364.62	1681.38
364.83	1566.70
365.04	1560.55
365.25	1488.87
365.46	1636.33
365.67	1548.26
365.88	1501.16
366.09	1538.02
366.30	1560.55
366.51	1570.79
366.72	1437.67
366.93	1515.50
367.14	1550.31
367.35	1583.08
367.56	1511.40
367.77	1544.17
367.98	1591.27
368.18	1609.70
368.39	1572.84
368.60	1484.78
368.81	1540.07
369.02	1595.37
369.23	1558.50
369.44	1478.63
369.65	1511.40
369.86	1601.51
370.07	1519.59
370.28	1556.46
370.49	1515.50
370.70	1558.50
370.91	1507.30
371.12	1492.97
371.33	1544.17
371.54	1554.41
371.75	1513.45
371.96	1433.58
372.17	1556.46
372.38	1533.93
372.59	1593.32
372.80	1527.78
373.01	1525.74
373.22	1437.67
373.43	1531.88
373.64	1423.34
373.85	1636.33
374.06	1570.79
374.26	1568.74
374.47	1552.36
374.68	1550.31
374.89	1550.31
375.10	1490.92
375.31	1603.56
375.52	1587.18
375.73	1564.65
375.94	1449.96
376.15	1642.47
376.36	1583.08
376.57	1572.84
376.78	1583.08
376.99	1552.36
377.20	1624.04
377.40	1523.69
377.61	1611.75
377.82	1437.67
378.03	1599.46
378.24	1556.46
378.45	1495.02
378.66	1574.89
378.87	1402.86
379.08	1533.93
379.29	1507.30
379.50	1626.09
379.71	1562.60
379.91	1607.66
380.12	1533.93
380.33	1535.98
380.54	1540.07
380.75	1527.78
380.96	1519.59
381.17	1497.07
381.38	1595.37
381.59	1646.57
381.80	1505.26
382.00	1740.77
382.21	1591.27
382.42	1681.38
382.63	1703.91
382.84	1576.94
383.05	1540.07
383.26	1591.27
383.47	1570.79
383.68	1597.42
383.88	1562.60
384.09	1527.78
384.30	1605.61
384.51	1599.46
384.72	1560.55
384.93	1525.74
385.14	1595.37
385.35	1599.46
385.55	1460.20
385.76	1648.61
385.97	1542.12
386.18	1443.82
386.39	1521.64
386.60	1542.12
386.81	1617.90
387.02	1558.50
387.22	1488.87
387.43	1615.85
387.64	1712.10
387.85	1839.08
388.06	3096.53
388.27	7184.27
388.48	10588.00
388.68	12425.03
388.89	13823.79
389.10	12889.92
389.31	10104.68
389.52	9103.22
389.73	7905.16
389.93	7317.39
390.14	6844.31
390.35	6309.79
390.56	5408.69
390.77	4589.50
390.98	3624.90
391.18	2842.58
391.39	2254.81
391.60	1771.49
391.81	1718.25
392.02	1564.65
392.23	1781.73
392.43	1544.17
392.64	1578.98
392.85	1570.79
393.06	1603.56
393.27	1509.35
393.47	1527.78
393.68	1515.50
393.89	1564.65
394.10	1632.23
394.31	1554.41
394.52	1482.73
394.72	1552.36
394.93	1621.99
395.14	1523.69
395.35	1593.32
395.56	1492.97
395.76	1605.61
395.97	1648.61
396.18	1761.25
396.39	1740.77
396.60	1855.46
396.80	1814.50
397.01	1660.90
397.22	1638.38
397.43	1685.48
397.64	1544.17
397.84	1595.37
398.05	1675.24
398.26	1570.79
398.47	1613.80
398.67	1607.66
398.88	1531.88
399.09	1648.61
399.30	1574.89
399.51	1619.94
399.71	1439.72
399.92	1533.93
400.13	1497.07
400.34	1507.30
400.54	1574.89
400.75	1568.74
400.96	1556.46
401.17	1558.50
401.37	1499.11
401.58	1574.89
401.79	1593.32
402.00	1744.87
402.21	1951.71
402.41	1898.47
402.62	1966.05
402.83	1976.29
403.04	1744.87
403.24	1959.91
403.45	1685.48
403.66	1736.68
403.87	1734.63
404.07	1738.73
404.28	1828.84
404.49	1722.34
404.70	1626.09
404.90	1552.36
405.11	1576.94
405.32	1591.27
405.52	1574.89
405.73	1529.83
405.94	1517.54
406.15	1517.54
406.35	1562.60
406.56	1587.18
406.77	1525.74
406.98	1507.30
407.18	1515.50
407.39	1673.19
407.60	1515.50
407.80	1581.03
408.01	1472.49
408.22	1540.07
408.43	1501.16
408.63	1466.35
408.84	1558.50
409.05	1640.42
409.25	1439.72
409.46	1466.35
409.67	1492.97
409.88	1517.54
410.08	1603.56
410.29	1435.63
410.50	1574.89
410.70	1615.85
410.91	1470.44
411.12	1570.79
411.32	1529.83
411.53	1486.83
411.74	1642.47
411.95	1521.64
412.15	1624.04
412.36	1599.46
412.57	1634.28
412.77	1572.84
412.98	1576.94
413.19	1613.80
413.39	1556.46
413.60	1607.66
413.81	1642.47
414.01	1511.40
414.22	1650.66
414.43	1638.38
414.63	1529.83
414.84	1595.37
415.05	1542.12
415.25	1531.88
415.46	1576.94
415.67	1525.74
415.87	1495.02
416.08	1566.70
416.29	1513.45
416.49	1644.52
416.70	1511.40
416.91	1538.02
417.11	1542.12
417.32	1626.09
417.53	1574.89
417.73	1495.02
417.94	1583.08
418.15	1523.69
418.35	1490.92
418.56	1560.55
418.77	1632.23
418.97	1542.12
419.18	1533.93
419.38	1458.15
419.59	1576.94
419.80	1560.55
420.00	1550.31
420.21	1482.73
420.42	1529.83
420.62	1632.23
420.83	1445.87
421.04	1583.08
421.24	1490.92
421.45	1560.55
421.65	1513.45
421.86	1523.69
422.07	1566.70
422.27	1527.78
422.48	1601.51
422.69	1468.39
422.89	1552.36
423.10	1486.83
423.30	1480.68
423.51	1488.87
423.72	1568.74
423.92	1568.74
424.13	1437.67
424.33	1531.88
424.54	1572.84
424.75	1574.89
424.95	1505.26
425.16	1599.46
425.36	1476.59
425.57	1607.66
425.78	1574.89
425.98	1601.51
426.19	1507.30
426.39	1468.39
426.60	1515.50
426.81	1562.60
427.01	1484.78
427.22	1513.45
427.42	1423.34
427.63	1595.37
427.83	1566.70
428.04	1585.13
428.25	1644.52
428.45	1636.33
428.66	1650.66
428.86	1503.21
429.07	1513.45
429.28	1542.12
429.48	1552.36
429.69	1490.92
429.89	1544.17
430.10	1411.05
430.30	1499.11
430.51	1613.80
430.71	1515.50
430.92	1550.31
431.13	1564.65
431.33	1495.02
431.54	1527.78
431.74	1658.85
431.95	1564.65
432.15	1550.31
432.36	1525.74
432.56	1636.33
432.77	1619.94
432.98	1568.74
433.18	1529.83
433.39	1443.82
433.59	1535.98
433.80	1648.61
434.00	1578.98
434.21	1525.74
434.41	1525.74
434.62	1640.42
434.82	1505.26
435.03	1478.63
435.23	1497.07
435.44	1556.46
435.64	1462.25
435.85	1560.55
436.06	1552.36
436.26	1568.74
436.47	1550.31
436.67	1488.87
436.88	1566.70
437.08	1585.13
437.29	1595.37
437.49	1527.78
437.70	1583.08
437.90	1513.45
438.11	1673.19
438.31	1689.57
438.52	1673.19
438.72	1773.54
438.93	1720.29
439.13	1642.47
439.34	1634.28
439.54	1542.12
439.75	1593.32
439.95	1660.90
440.16	1581.03
440.36	1509.35
440.57	1599.46
440.77	1615.85
440.98	1548.26
441.18	1554.41
441.39	1503.21
441.59	1542.12
441.80	1566.70
442.00	1552.36
442.21	1636.33
442.41	1476.59
442.62	1628.14
442.82	1554.41
443.02	1544.17
443.23	1554.41
443.43	1507.30
443.64	1589.22
443.84	1460.20
444.05	1640.42
444.25	1615.85
444.46	1482.73
444.66	1554.41
444.87	1619.94
445.07	1468.39
445.28	1556.46
445.48	1613.80
445.69	1691.62
445.89	1642.47
446.09	1658.85
446.30	1961.95
446.50	3180.50
446.71	4505.53
446.91	5240.75
447.12	5918.63
447.32	5638.06
447.53	4687.80
447.73	4038.59
447.93	3717.06
448.14	3268.56
448.34	3231.69
448.55	2973.65
448.75	2875.35
448.96	2697.17
449.16	2422.75
449.36	2252.77
449.57	2031.58
449.77	1785.83
449.98	1708.01
450.18	1634.28
450.39	1642.47
450.59	1609.70
450.79	1544.17
451.00	1470.44
451.20	1593.32
451.41	1583.08
451.61	1531.88
451.81	1568.74
452.02	1525.74
452.22	1521.64
452.43	1531.88
452.63	1601.51
452.84	1478.63
453.04	1517.54
453.24	1513.45
453.45	1486.83
453.65	1525.74
453.86	1558.50
454.06	1519.59
454.26	1515.50
454.47	1611.75
454.67	1581.03
454.87	1562.60
455.08	1495.02
455.28	1648.61
455.49	1519.59
455.69	1562.60
455.89	1576.94
456.10	1519.59
456.30	1554.41
456.51	1560.55
456.71	1566.70
456.91	1497.07
457.12	1568.74
457.32	1574.89
457.52	1521.64
457.73	1593.32
457.93	1535.98
458.14	1550.31
458.34	1417.19
458.54	1542.12
458.75	1495.02
458.95	1613.80
459.15	1589.22
459.36	1578.98
459.56	1585.13
459.76	1679.33
459.97	1529.83
460.17	1538.02
460.37	1554.41
460.58	1495.02
460.78	1636.33
460.99	1507.30
461.19	1574.89
461.39	1492.97
461.60	1576.94
461.80	1540.07
462.00	1513.45
462.21	1617.90
462.41	1558.50
462.61	1546.22
462.82	1499.11
463.02	1542.12
463.22	1544.17
463.43	1646.57
463.63	1554.41
463.83	1654.76
464.04	1574.89
464.24	1591.27
464.44	1525.74
464.64	1484.78
464.85	1591.27
465.05	1542.12
465.25	1601.51
465.46	1527.78
465.66	1652.71
465.86	1531.88
466.07	1591.27
466.27	1570.79
466.47	1521.64
466.68	1476.59
466.88	1560.55
467.08	1628.14
467.29	1542.12
467.49	1572.84
467.69	1550.31
467.89	1533.93
468.10	1525.74
468.30	1595.37
468.50	1578.98
468.71	1572.84
468.91	1468.39
469.11	1591.27
469.31	1478.63
469.52	1501.16
469.72	1527.78
469.92	1658.85
470.13	1574.89
470.33	1564.65
470.53	1759.21
470.73	2019.30
470.94	2416.60
471.14	2416.60
471.34	2711.51
471.54	2394.08
471.75	2191.33
471.95	2097.12
472.15	2019.30
472.36	1986.53
472.56	1894.37
472.76	1949.67
472.96	1918.95
473.17	1925.09
473.37	1767.40
473.57	1626.09
473.77	1699.81
473.98	1673.19
474.18	1570.79
474.38	1712.10
474.58	1462.25
474.79	1515.50
474.99	1599.46
475.19	1607.66
475.39	1499.11
475.60	1568.74
475.80	1593.32
476.00	1499.11
476.20	1501.16
476.41	1535.98
476.61	1566.70
476.81	1619.94
477.01	1492.97
477.21	1607.66
477.42	1558.50
477.62	1484.78
477.82	1478.63
478.02	1515.50
478.23	1511.40
478.43	1460.20
478.63	1501.16
478.83	1533.93
479.03	1505.26
479.24	1628.14
479.44	1673.19
479.64	1511.40
479.84	1458.15
480.04	1558.50
480.25	1583.08
480.45	1550.31
480.65	1570.79
480.85	1673.19
481.06	1531.88
481.26	1478.63
481.46	1570.79
481.66	1548.26
481.86	1544.17
482.06	1521.64
482.27	1544.17
482.47	1480.68
482.67	1497.07
482.87	1554.41
483.07	1626.09
483.28	1501.16
483.48	1511.40
483.68	1499.11
483.88	1478.63
484.08	1423.34
484.29	1488.87
484.49	1550.31
484.69	1515.50
484.89	1544.17
485.09	1566.70
485.29	1601.51
485.50	1605.61
485.70	1542.12
485.90	1630.18
486.10	1511.40
486.30	1644.52
486.50	1613.80
486.71	1519.59
486.91	1572.84
487.11	1621.99
487.31	1447.91
487.51	1560.55
487.71	1468.39
487.91	1509.35
488.12	1511.40
488.32	1415.15
488.52	1550.31
488.72	1445.87
488.92	1554.41
489.12	1665.00
489.32	1583.08
489.53	1560.55
489.73	1519.59
489.93	1619.94
490.13	1560.55
490.33	1505.26
490.53	1591.27
490.73	1542.12
490.94	1476.59
491.14	1554.41
491.34	1710.05
491.54	2125.79
491.74	2580.44
491.94	3137.49
492.14	3354.57
492.34	3336.14
492.54	2838.48
492.75	2553.82
492.95	2367.45
493.15	2340.83
493.35	2172.89
493.55	2140.13
493.75	1988.58
493.95	1916.90
494.15	1931.23
494.35	1845.22
494.56	1718.25
494.76	1714.15
494.96	1593.32
495.16	1591.27
495.36	1564.65
495.56	1550.31
495.76	1482.73
495.96	1525.74
496.16	1599.46
496.36	1624.04
496.56	1519.59
496.77	1599.46
496.97	1574.89
497.17	1585.13
497.37	1480.68
497.57	1593.32
497.77	1490.92
497.97	1454.06
498.17	1589.22
498.37	1470.44
498.57	1538.02
498.77	1511.40
498.97	1605.61
499.17	1578.98
499.38	1552.36
499.58	1560.55
499.78	1589.22
499.98	1581.03
500.18	1566.70
500.38	1505.26
500.58	1767.40
500.78	2676.70
500.98	5232.56
501.18	6772.63
501.38	8179.59
501.58	8658.81
501.78	7958.41
501.98	6137.76
502.18	5345.20
502.38	4612.03
502.58	4239.30
502.78	3932.10
502.98	3833.80
503.18	3575.75
503.38	3387.34
503.59	2983.89
503.79	2772.95
503.99	2533.34
504.19	2240.48
504.39	2154.46
504.59	2064.35
504.79	2072.54
504.99	1945.57
505.19	1769.44
505.39	1675.24
505.59	1751.01
505.79	1730.53
505.99	1621.99
506.19	1581.03
506.39	1691.62
506.59	1581.03
506.79	1568.74
506.99	1697.77
507.19	1632.23
507.39	1566.70
507.59	1517.54
507.79	1552.36
507.99	1454.06
508.19	1546.22
508.39	1548.26
508.59	1529.83
508.79	1665.00
508.99	1601.51
509.19	1572.84
509.39	1603.56
509.59	1443.82
509.79	1529.83
509.99	1488.87
510.19	1656.81
510.39	1519.59
510.59	1599.46
510.79	1587.18
510.99	1617.90
511.19	1560.55
511.39	1617.90
511.59	1634.28
511.79	1619.94
511.99	1552.36
512.19	1638.38
512.38	1501.16
512.58	1507.30
512.78	1566.70
512.98	1630.18
513.18	1648.61
513.38	1517.54
513.58	1568.74
513.78	1581.03
513.98	1495.02
514.18	1439.72
514.38	1556.46
514.58	1540.07
514.78	1527.78
514.98	1445.87
515.18	1558.50
515.38	1507.30
515.58	1665.00
515.78	1576.94
515.98	1566.70
516.18	1609.70
516.38	1640.42
516.57	1593.32
516.77	1552.36
516.97	1544.17
517.17	1466.35
517.37	1454.06
517.57	1542.12
517.77	1550.31
517.97	1511.40
518.17	1667.05
518.37	1509.35
518.57	1546.22
518.77	1574.89
518.97	1497.07
519.16	1542.12
519.36	1538.02
519.56	1511.40
519.76	1568.74
519.96	1576.94
520.16	1650.66
520.36	1468.39
520.56	1689.57
520.76	1490.92
520.96	1611.75
521.16	1617.90
521.35	1581.03
521.55	1613.80
521.75	1527.78
521.95	1507.30
522.15	1540.07
522.35	1478.63
522.55	1503.21
522.75	1585.13
522.95	1519.59
523.14	1478.63
523.34	1597.42
523.54	1550.31
523.74	1607.66
523.94	1589.22
524.14	1411.05
524.34	1499.11
524.54	1599.46
524.73	1558.50
524.93	1501.16
525.13	1587.18
525.33	1509.35
525.53	1658.85
525.73	1505.26
525.93	1527.78
526.13	1521.64
526.32	1501.16
526.52	1605.61
526.72	1560.55
526.92	1531.88
527.12	1525.74
527.32	1478.63
527.52	1515.50
527.71	1538.02
527.91	1511.40
528.11	1550.31
528.31	1429.48
528.51	1452.01
528.71	1662.95
528.90	1626.09
529.10	1562.60
529.30	1572.84
529.50	1374.19
529.70	1490.92
529.90	1538.02
530.09	1519.59
530.29	1413.10
530.49	1507.30
530.69	1630.18
530.89	1538.02
531.09	1591.27
531.28	1515.50
531.48	1581.03
531.68	1548.26
531.88	1542.12
532.08	1474.54
532.28	1558.50
532.47	1613.80
532.67	1574.89
532.87	1632.23
533.07	1517.54
533.27	1552.36
533.46	1673.19
533.66	1574.89
533.86	1568.74
534.06	1527.78
534.26	1566.70
534.45	1556.46
534.65	1621.99
534.85	1531.88
535.05	1576.94
535.25	1626.09
535.44	1460.20
535.64	1546.22
535.84	1632.23
536.04	1499.11
536.24	1507.30
536.43	1490.92
536.63	1574.89
536.83	1480.68
537.03	1611.75
537.22	1527.78
537.42	1478.63
537.62	1603.56
537.82	1535.98
538.02	1554.41
538.21	1644.52
538.41	1619.94
538.61	1574.89
538.81	1525.74
539.00	1566.70
539.20	1542.12
539.40	1572.84
539.60	1605.61
539.79	1667.05
539.99	1564.65
540.19	1509.35
540.39	1476.59
540.58	1570.79
540.78	1558.50
540.98	1535.98
541.18	1554.41
541.37	1621.99
541.57	1492.97
541.77	1509.35
541.97	1538.02
542.16	1480.68
542.36	1550.31
542.56	1560.55
542.76	1609.70
542.95	1587.18
543.15	1607.66
543.35	1519.59
543.54	1492.97
543.74	1523.69
543.94	1597.42
544.14	1550.31
544.33	1587.18
544.53	1525.74
544.73	1527.78
544.93	1454.06
545.12	1564.65
545.32	1507.30
545.52	1540.07
545.71	1583.08
545.91	1535.98
546.11	1447.91
546.30	1527.78
546.50	1533.93
546.70	1523.69
546.90	1472.49
547.09	1507.30
547.29	1443.82
547.49	1566.70
547.68	1572.84
547.88	1495.02
548.08	1556.46
548.27	1945.57
548.47	1501.16
548.67	1562.60
548.87	1591.27
549.06	1501.16
549.26	1558.50
549.46	1544.17
549.65	1535.98
549.85	1626.09
550.05	1527.78
550.24	1439.72
550.44	1433.58
550.64	1595.37
550.83	1529.83
551.03	1574.89
551.23	1605.61
551.42	1597.42
551.62	1593.32
551.82	1550.31
552.01	1583.08
552.21	1574.89
552.41	1529.83
552.60	1650.66
552.80	1554.41
553.00	1447.91
553.19	1476.59
553.39	1587.18
553.59	1495.02
553.78	1568.74
553.98	1464.30
554.17	1521.64
554.37	1523.69
554.57	1560.55
554.76	1527.78
554.96	1478.63
555.16	1566.70
555.35	1511.40
555.55	1564.65
555.75	1566.70
555.94	1574.89
556.14	1511.40
556.33	1558.50
556.53	1497.07
556.73	1533.93
556.92	1613.80
557.12	1556.46
557.32	1613.80
557.51	1648.61
557.71	1597.42
557.90	1591.27
558.10	1611.75
558.30	1544.17
558.49	1603.56
558.69	1581.03
558.88	1566.70
559.08	1521.64
559.28	1538.02
559.47	1589.22
559.67	1572.84
559.86	1585.13
560.06	1568.74
560.26	1554.41
560.45	1570.79
560.65	1499.11
560.84	1558.50
561.04	1550.31
561.24	1566.70
561.43	1568.74
561.63	1611.75
561.82	1576.94
562.02	1560.55
562.22	1538.02
562.41	1525.74
562.61	1578.98
562.80	1480.68
563.00	1642.47
563.19	1488.87
563.39	1533.93
563.59	1566.70
563.78	1540.07
563.98	1452.01
564.17	1540.07
564.37	1499.11
564.56	1495.02
564.76	1482.73
564.96	1564.65
565.15	1568.74
565.35	1615.85
565.54	1566.70
565.74	1617.90
565.93	1435.63
566.13	1621.99
566.32	1578.98
566.52	1558.50
566.71	1456.11
566.91	1615.85
567.11	1546.22
567.30	1568.74
567.50	1572.84
567.69	1509.35
567.89	1619.94
568.08	1466.35
568.28	1546.22
568.47	1546.22
568.67	1650.66
568.86	1484.78
569.06	1525.74
569.25	1458.15
569.45	1538.02
569.64	1513.45
569.84	1517.54
570.04	1597.42
570.23	1533.93
570.43	1566.70
570.62	1638.38
570.82	1714.15
571.01	1433.58
571.21	1517.54
571.40	1515.50
571.60	1578.98
571.79	1595.37
571.99	1630.18
572.18	1509.35
572.38	1595.37
572.57	1531.88
572.77	1617.90
572.96	1617.90
573.16	1519.59
573.35	1495.02
573.55	1691.62
573.74	1615.85
573.94	1497.07
574.13	1503.21
574.33	1535.98
574.52	1603.56
574.71	1556.46
574.91	1640.42
575.10	1478.63
575.30	1572.84
575.49	1568.74
575.69	1517.54
575.88	1597.42
576.08	1597.42
576.27	1644.52
576.47	1615.85
576.66	1710.05
576.86	1658.85
577.05	1599.46
577.25	1583.08
577.44	1656.81
577.64	1597.42
577.83	1597.42
578.02	1556.46
578.22	1619.94
578.41	1705.96
578.61	1570.79
578.80	1464.30
579.00	1650.66
579.19	1521.64
579.39	1632.23
579.58	1669.09
579.77	1605.61
579.97	1687.53
580.16	1646.57
580.36	1681.38
580.55	1679.33
580.75	1626.09
580.94	1628.14
581.13	1683.43
581.33	1677.29
581.52	1619.94
581.72	1683.43
581.91	1632.23
582.11	1615.85
582.30	1523.69
582.49	1597.42
582.69	1685.48
582.88	1587.18
583.08	1484.78
583.27	1720.29
583.47	1521.64
583.66	1585.13
583.85	1593.32
584.05	1558.50
584.24	1605.61
584.44	1691.62
584.63	1675.24
584.82	1693.67
585.02	1667.05
585.21	1673.19
585.41	1689.57
585.60	1798.12
585.79	1845.22
585.99	1810.40
586.18	1853.41
586.37	2101.22
586.57	3225.55
586.76	9500.53
586.96	27387.49
587.15	43744.61
587.34	54402.24
587.54	61226.07
587.73	59624.56
587.93	43771.24
588.12	32269.84
588.31	25695.86
588.51	22337.20
588.70	19910.35
588.89	18364.14
589.09	16854.78
589.28	15177.50
589.47	13358.90
589.67	11304.79
589.86	8963.96
590.06	6760.34
590.25	5058.48
590.44	3815.37
590.64	2924.50
590.83	2318.30
591.02	2068.45
591.22	1880.04
591.41	1740.77
591.60	1689.57
591.80	1773.54
591.99	1595.37
592.18	1568.74
592.38	1593.32
592.57	1621.99
592.76	1591.27
592.96	1595.37
593.15	1632.23
593.34	1591.27
593.54	1515.50
593.73	1527.78
593.92	1593.32
594.12	1630.18
594.31	1677.29
594.50	1697.77
594.70	1595.37
594.89	1726.44
595.08	1589.22
595.28	1605.61
595.47	1740.77
595.66	1572.84
595.86	1480.68
596.05	1566.70
596.24	1550.31
596.43	1642.47
596.63	1636.33
596.82	1535.98
597.01	1583.08
597.21	1730.53
597.40	1677.29
597.59	1593.32
597.79	1597.42
597.98	1576.94
598.17	1607.66
598.36	1544.17
598.56	1574.89
598.75	1576.94
598.94	1570.79
599.14	1560.55
599.33	1585.13
599.52	1634.28
599.71	1585.13
599.91	1527.78
600.10	1609.70
600.29	1556.46
600.48	1517.54
600.68	1601.51
600.87	1474.54
601.06	1533.93
601.26	1574.89
601.45	1617.90
601.64	1519.59
601.83	1605.61
602.03	1558.50
602.22	1550.31
602.41	1572.84
602.60	1710.05
602.80	1628.14
602.99	1515.50
603.18	1484.78
603.37	1576.94
603.57	1597.42
603.76	1546.22
603.95	1626.09
604.14	1435.63
604.34	1558.50
604.53	1535.98
604.72	1607.66
604.91	1558.50
605.10	1535.98
605.30	1488.87
605.49	1642.47
605.68	1576.94
605.87	1503.21
606.07	1519.59
606.26	1615.85
606.45	1546.22
606.64	1529.83
606.84	1544.17
607.03	1646.57
607.22	1638.38
607.41	1513.45
607.60	1648.61
607.80	1626.09
607.99	1607.66
608.18	1599.46
608.37	1538.02
608.56	1490.92
608.76	1650.66
608.95	1687.53
609.14	1523.69
609.33	1740.77
609.52	1714.15
609.72	1708.01
609.91	1767.40
610.10	1619.94
610.29	1646.57
610.48	1572.84
610.68	1574.89
610.87	1564.65
611.06	1562.60
611.25	1478.63
611.44	1679.33
611.63	1486.83
611.83	1683.43
612.02	1505.26
612.21	1607.66
612.40	1484.78
612.59	1519.59
612.79	1486.83
612.98	1509.35
613.17	1652.71
613.36	1443.82
613.55	1691.62
613.74	1630.18
613.93	1718.25
614.13	1765.35
614.32	1763.30
614.51	1679.33
614.70	1751.01
614.89	1652.71
615.08	1712.10
615.28	1888.23
615.47	1535.98
615.66	1595.37
615.85	1681.38
616.04	1665.00
616.23	1613.80
616.42	1650.66
616.62	1638.38
616.81	1562.60
617.00	1566.70
617.19	1660.90
617.38	1585.13
617.57	1550.31
617.76	1593.32
617.95	1568.74
618.15	1550.31
618.34	1660.90
618.53	1525.74
618.72	1583.08
618.91	1560.55
619.10	1587.18
619.29	1513.45
619.48	1581.03
619.68	1503.21
619.87	1445.87
620.06	1421.29
620.25	1560.55
620.44	1476.59
620.63	1568.74
620.82	1509.35
621.01	1509.35
621.20	1533.93
621.39	1615.85
621.59	1558.50
621.78	1576.94
621.97	1548.26
622.16	1548.26
622.35	1570.79
622.54	1568.74
622.73	1642.47
622.92	1476.59
623.11	1538.02
623.30	1578.98
623.49	1603.56
623.68	1535.98
623.88	1589.22
624.07	1578.98
624.26	1505.26
624.45	1507.30
624.64	1468.39
624.83	1554.41
625.02	1480.68
625.21	1546.22
625.40	1585.13
625.59	1578.98
625.78	1511.40
625.97	1599.46
626.16	1640.42
626.35	1587.18
626.54	1609.70
626.74	1683.43
626.93	1583.08
627.12	1570.79
627.31	1660.90
627.50	1574.89
627.69	1517.54
627.88	1576.94
628.07	1611.75
628.26	1495.02
628.45	1517.54
628.64	1484.78
628.83	1642.47
629.02	1472.49
629.21	1523.69
629.40	1615.85
629.59	1464.30
629.78	1531.88
629.97	1566.70
630.16	1550.31
630.35	1533.93
630.54	1535.98
630.73	1591.27
630.92	1546.22
631.11	1611.75
631.30	1517.54
631.49	1552.36
631.68	1509.35
631.87	1533.93
632.06	1521.64
632.25	1605.61
632.44	1562.60
632.63	1574.89
632.82	1538.02
633.01	1538.02
633.20	1667.05
633.39	1595.37
633.58	1593.32
633.77	1607.66
633.96	1546.22
634.15	1572.84
634.34	1578.98
634.53	1558.50
634.72	1630.18
634.91	1462.25
635.10	1578.98
635.29	1535.98
635.48	1484.78
635.67	1548.26
635.86	1406.95
636.05	1621.99
636.24	1611.75
636.43	1527.78
636.62	1685.48
636.81	1404.91
637.00	1595.37
637.19	1630.18
637.38	1550.31
637.57	1519.59
637.76	1638.38
637.95	1669.09
638.14	1642.47
638.33	1677.29
638.52	1626.09
638.71	1603.56
638.89	1517.54
639.08	1699.81
639.27	1673.19
639.46	1667.05
639.65	1908.71
639.84	2004.96
640.03	2103.26
640.22	2107.36
640.41	2285.53
640.60	1996.77
640.79	1902.56
640.98	1734.63
641.17	1783.78
641.36	1677.29
641.55	1806.31
641.74	1564.65
641.92	1599.46
642.11	1558.50
642.30	1568.74
642.49	1656.81
642.68	1523.69
642.87	1566.70
643.06	1542.12
643.25	1497.07
643.44	1511.40
643.63	1519.59
643.82	1601.51
644.00	1527.78
644.19	1544.17
644.38	1507.30
644.57	1603.56
644.76	1548.26
644.95	1540.07
645.14	1576.94
645.33	1560.55
645.52	1535.98
645.71	1509.35
645.89	1478.63
646.08	1574.89
646.27	1533.93
646.46	1634.28
646.65	1519.59
646.84	1523.69
647.03	1470.44
647.22	1658.85
647.40	1558.50
647.59	1568.74
647.78	1456.11
647.97	1581.03
648.16	1478.63
648.35	1675.24
648.54	1648.61
648.73	1495.02
648.91	1599.46
649.10	1531.88
649.29	1576.94
649.48	1540.07
649.67	1515.50
649.86	1519.59
650.05	1585.13
650.23	1634.28
650.42	1607.66
650.61	1773.54
650.80	1728.49
650.99	1810.40
651.18	1650.66
651.36	1718.25
651.55	1576.94
651.74	1613.80
651.93	1605.61
652.12	1568.74
652.31	1570.79
652.49	1576.94
652.68	1538.02
652.87	1581.03
653.06	1605.61
653.25	1705.96
653.44	1589.22
653.62	1617.90
653.81	1583.08
654.00	1554.41
654.19	1593.32
654.38	1605.61
654.56	1546.22
654.75	1558.50
654.94	1621.99
655.13	1558.50
655.32	1574.89
655.51	1519.59
655.69	1497.07
655.88	1572.84
656.07	1470.44
656.26	1581.03
656.45	1464.30
656.63	1607.66
656.82	1574.89
657.01	1507.30
657.20	1542.12
657.38	1613.80
657.57	1554.41
657.76	1503.21
657.95	1587.18
658.14	1511.40
658.32	1535.98
658.51	1527.78
658.70	1531.88
658.89	1503.21
659.08	1531.88
659.26	1648.61
659.45	1611.75
659.64	1642.47
659.83	1611.75
660.01	1763.30
660.20	1564.65
660.39	1621.99
660.58	1478.63
660.76	1578.98
660.95	1437.67
661.14	1593.32
661.33	1517.54
661.51	1554.41
661.70	1492.97
661.89	1624.04
662.08	1576.94
662.26	1533.93
662.45	1495.02
662.64	1624.04
662.83	1607.66
663.01	1437.67
663.20	1517.54
663.39	1624.04
663.58	1540.07
663.76	1544.17
663.95	1611.75
664.14	1533.93
664.32	1554.41
664.51	1558.50
664.70	1497.07
664.89	1560.55
665.07	1535.98
665.26	1609.70
665.45	1472.49
665.64	1658.85
665.82	1585.13
666.01	1632.23
666.20	1509.35
666.38	1595.37
666.57	1673.19
666.76	1910.75
666.95	3010.51
667.13	7622.54
667.32	15333.14
667.51	19947.22
667.69	23762.58
667.88	25446.01
668.07	22148.78
668.25	15769.36
668.44	12521.28
668.63	9981.80
668.81	8626.04
669.00	7804.81
669.19	7112.60
669.38	6311.84
669.56	5726.12
669.75	4911.03
669.94	4020.16
670.12	3456.97
670.31	2844.63
670.50	2410.46
670.68	2099.17
670.87	1912.80
671.06	1791.97
671.24	1662.95
671.43	1716.20
671.62	1615.85
671.80	1626.09
671.99	1574.89
672.18	1652.71
672.36	1564.65
672.55	1595.37
672.74	1640.42
672.92	1540.07
673.11	1490.92
673.29	1497.07
673.48	1570.79
673.67	1538.02
673.85	1646.57
674.04	1523.69
674.23	1591.27
674.41	1662.95
674.60	1495.02
674.79	1384.43
674.97	1576.94
675.16	1595.37
675.34	1597.42
675.53	1513.45
675.72	1544.17
675.90	1611.75
676.09	1488.87
676.28	1533.93
676.46	1484.78
676.65	1515.50
676.83	1466.35
677.02	1523.69
677.21	1572.84
677.39	1529.83
677.58	1488.87
677.77	1513.45
677.95	1570.79
678.14	1503.21
678.32	1601.51
678.51	1578.98
678.70	1581.03
678.88	1495.02
679.07	1564.65
679.25	1501.16
679.44	1609.70
679.63	1445.87
679.81	1554.41
680.00	1642.47
680.18	1646.57
680.37	1613.80
680.55	1505.26
680.74	1517.54
680.93	1509.35
681.11	1468.39
681.30	1437.67
681.48	1640.42
681.67	1535.98
681.85	1486.83
682.04	1484.78
682.23	1544.17
682.41	1562.60
682.60	1501.16
682.78	1507.30
682.97	1499.11
683.15	1488.87
683.34	1523.69
683.53	1650.66
683.71	1435.63
683.90	1574.89
684.08	1634.28
684.27	1449.96
684.45	1517.54
684.64	1568.74
684.82	1538.02
685.01	1572.84
685.19	1472.49
685.38	1568.74
685.57	1501.16
685.75	1468.39
685.94	1488.87
686.12	1470.44
686.31	1568.74
686.49	1632.23
686.68	1439.72
686.86	1535.98
687.05	1558.50
687.23	1609.70
687.42	1515.50
687.60	1476.59
687.79	1601.51
687.97	1572.84
688.16	1570.79
688.34	1581.03
688.53	1460.20
688.71	1458.15
688.90	1562.60
689.08	1511.40
689.27	1484.78
689.45	1554.41
689.64	1548.26
689.82	1540.07
690.01	1613.80
690.19	1542.12
690.38	1560.55
690.56	1574.89
690.75	1525.74
690.93	1519.59
691.12	1462.25
691.30	1544.17
691.49	1478.63
691.67	1548.26
691.86	1548.26
692.04	1486.83
692.23	1519.59
692.41	1591.27
692.60	1697.77
692.78	1640.42
692.97	1642.47
693.15	1665.00
693.34	1738.73
693.52	1599.46
693.71	1607.66
693.89	1607.66
694.08	1538.02
694.26	1630.18
694.44	1556.46
694.63	1650.66
694.81	1556.46
695.00	1615.85
695.18	1611.75
695.37	1654.76
695.55	1431.53
695.74	1478.63
695.92	1538.02
696.10	1697.77
696.29	1511.40
696.47	1505.26
696.66	1470.44
696.84	1558.50
697.03	1601.51
697.21	1591.27
697.40	2070.50
697.58	1562.60
697.76	1535.98
697.95	1542.12
698.13	1513.45
698.32	1495.02
698.50	1595.37
698.68	1568.74
698.87	1540.07
699.05	1533.93
699.24	1505.26
699.42	1538.02
699.61	1478.63
699.79	1554.41
699.97	1566.70
700.16	1546.22
700.34	1460.20
700.53	1552.36
700.71	1607.66
700.89	1572.84
701.08	1519.59
701.26	1542.12
701.45	1812.45
701.63	1466.35
701.81	1570.79
702.00	1566.70
702.18	1529.83
702.37	1529.83
702.55	1603.56
702.73	1730.53
702.92	1755.11
703.10	1771.49
703.28	1791.97
703.47	1642.47
703.65	1755.11
703.84	1767.40
704.02	1626.09
704.20	1675.24
704.39	1550.31
704.57	1542.12
704.75	1697.77
704.94	1667.05
705.12	1597.42
705.30	1607.66
705.49	1888.23
705.67	2875.35
705.86	7346.06
706.04	14438.18
706.22	18689.76
706.41	21397.18
706.59	22834.85
706.77	20825.79
706.96	14884.64
707.14	11798.35
707.32	9908.07
707.51	8632.19
707.69	7548.81
707.87	6776.73
708.06	5863.33
708.24	4736.95
708.42	3633.10
708.61	3008.47
708.79	2234.33
708.97	2047.97
709.16	1851.36
709.34	1755.11
709.52	1632.23
709.71	1576.94
709.89	1632.23
710.07	1564.65
710.26	1552.36
710.44	1583.08
710.62	1583.08
710.80	1538.02
710.99	1558.50
711.17	1583.08
711.35	1589.22
711.54	1419.24
711.72	1546.22
711.90	1507.30
712.09	1601.51
712.27	1509.35
712.45	1540.07
712.63	1511.40
712.82	1488.87
713.00	1513.45
713.18	1544.17
713.37	1566.70
713.55	1560.55
713.73	1595.37
713.91	1548.26
714.10	1511.40
714.28	1583.08
714.46	1488.87
714.65	1550.31
714.83	1550.31
715.01	1583.08
715.19	1507.30
715.38	1492.97
715.56	1558.50
715.74	1468.39
715.92	1583.08
716.11	1611.75
716.29	1411.05
716.47	1505.26
716.65	1497.07
716.84	1423.34
717.02	1615.85
717.20	1417.19
717.38	1525.74
717.57	1617.90
717.75	1583.08
717.93	1507.30
718.11	1568.74
718.30	1431.53
718.48	1583.08
718.66	1572.84
718.84	1558.50
719.03	1480.68
719.21	1531.88
719.39	1556.46
719.57	1552.36
719.75	1548.26
719.94	1542.12
720.12	1464.30
720.30	1570.79
720.48	1619.94
720.67	1488.87
720.85	1531.88
721.03	1499.11
721.21	1540.07
721.39	1558.50
721.58	1578.98
721.76	1548.26
721.94	1538.02
722.12	1509.35
722.30	1507.30
722.49	1505.26
722.67	1538.02
722.85	1527.78
723.03	1535.98
723.21	1503.21
723.40	1574.89
723.58	1585.13
723.76	1564.65
723.94	1591.27
724.12	1587.18
724.30	1675.24
724.49	1630.18
724.67	1558.50
724.85	1624.04
725.03	1564.65
725.21	1531.88
725.40	1615.85
725.58	1570.79
725.76	1656.81
725.94	1501.16
726.12	1456.11
726.30	1531.88
726.49	1525.74
726.67	1468.39
726.85	1568.74
727.03	1617.90
727.21	1761.25
727.39	2101.22
727.57	3266.51
727.76	4356.03
727.94	4812.73
728.12	5038.00
728.30	5105.59
728.48	4329.41
728.66	3598.28
728.84	3221.45
729.03	2977.75
729.21	2576.34
729.39	2310.11
729.57	2084.83
729.75	1839.08
729.93	1849.32
730.11	1605.61
730.30	1587.18
730.48	1570.79
730.66	1632.23
730.84	1550.31
731.02	1476.59
731.20	1503.21
731.38	1599.46
731.56	1452.01
731.74	1505.26
731.93	1495.02
732.11	1511.40
732.29	1558.50
732.47	1507.30
732.65	1501.16
732.83	1597.42
733.01	1648.61
733.19	1523.69
733.37	1583.08
733.56	1581.03
733.74	1501.16
733.92	1609.70
734.10	1531.88
734.28	1521.64
734.46	1470.44
734.64	1515.50
734.82	1593.32
735.00	1527.78
735.18	1421.29
735.36	1603.56
735.54	1570.79
735.73	1554.41
735.91	1535.98
736.09	1611.75
736.27	1517.54
736.45	1529.83
736.63	1474.54
736.81	1454.06
736.99	1624.04
737.17	1640.42
737.35	1519.59
737.53	1480.68
737.71	1470.44
737.89	1572.84
738.07	1501.16
738.25	1519.59
738.43	1533.93
738.61	1531.88
738.80	1447.91
738.98	1519.59
739.16	1558.50
739.34	1527.78
739.52	1636.33
739.70	1523.69
739.88	1554.41
740.06	1544.17
740.24	1468.39
740.42	1607.66
740.60	1488.87
740.78	1562.60
740.96	1392.62
741.14	1495.02
741.32	1515.50
741.50	1478.63
741.68	1597.42
741.86	1615.85
742.04	1533.93
742.22	1505.26
742.40	1521.64
742.58	1632.23
742.76	1454.06
742.94	1669.09
743.12	1423.34
743.30	1558.50
743.48	1527.78
743.66	1480.68
743.84	1566.70
744.02	1513.45
744.20	1531.88
744.38	1548.26
744.56	1509.35
744.74	1595.37
744.92	1497.07
745.10	1632.23
745.28	1513.45
745.46	1529.83
745.64	1503.21
745.82	1519.59
746.00	1574.89
746.18	1581.03
746.36	1509.35
746.54	1621.99
746.72	1470.44
746.90	1415.15
747.08	1517.54
747.26	1570.79
747.44	1558.50
747.62	1601.51
747.80	1640.42
747.98	1587.18
748.15	1544.17
748.33	1665.00
748.51	1576.94
748.69	1466.35
748.87	1445.87
749.05	1550.31
749.23	1501.16
749.41	1636.33
749.59	1546.22
749.77	1583.08
749.95	1570.79
750.13	1544.17
750.31	1611.75
750.49	1519.59
750.67	1587.18
750.85	1581.03
751.03	1544.17
751.20	1640.42
751.38	1546.22
751.56	1501.16
751.74	1589.22
751.92	1578.98
752.10	1460.20
752.28	1599.46
752.46	1464.30
752.64	1527.78
752.82	1552.36
753.00	1574.89
753.18	1529.83
753.35	1617.90
753.53	1542.12
753.71	1466.35
753.89	1589.22
754.07	1589.22
754.25	1558.50
754.43	1527.78
754.61	1509.35
754.79	1599.46
754.97	1503.21
755.14	1556.46
755.32	1495.02
755.50	1581.03
755.68	1511.40
755.86	1560.55
756.04	1542.12
756.22	1519.59
756.40	1558.50
756.57	1636.33
756.75	1550.31
756.93	1632.23
757.11	1566.70
757.29	1523.69
757.47	1576.94
757.65	1470.44
757.82	1462.25
758.00	1517.54
758.18	1503.21
758.36	1503.21
758.54	1656.81
758.72	1476.59
758.90	1492.97
759.07	1486.83
759.25	1574.89
759.43	1527.78
759.61	1511.40
759.79	1957.86
759.97	1574.89
760.15	1464.30
760.32	1529.83
760.50	1554.41
760.68	1554.41
760.86	1486.83
761.04	1583.08
761.22	1501.16
761.39	1490.92
761.57	1521.64
761.75	1546.22
761.93	1568.74
762.11	1599.46
762.28	1519.59
762.46	1519.59
762.64	1546.22
762.82	1417.19
763.00	1517.54
763.18	1662.95
763.35	1499.11
763.53	1562.60
763.71	1466.35
763.89	1562.60
764.07	1540.07
764.24	1523.69
764.42	1525.74
764.60	1531.88
764.78	1509.35
764.96	1578.98
765.13	1595.37
765.31	1523.69
765.49	1507.30
765.67	1554.41
765.84	1519.59
766.02	1460.20
766.20	1499.11
766.38	1572.84
766.56	1644.52
766.73	1630.18
766.91	1482.73
767.09	1517.54
767.27	1519.59
767.44	1470.44
767.62	1546.22
767.80	1558.50
767.98	1548.26
768.15	1544.17
768.33	1535.98
768.51	1609.70
768.69	1558.50
768.87	1558.50
769.04	1525.74
769.22	1671.14
769.40	1638.38
769.58	1665.00
769.75	1529.83
769.93	1574.89
770.11	1484.78
770.28	1443.82
770.46	1488.87
770.64	1542.12
770.82	1531.88
770.99	1544.17
771.17	1566.70
771.35	1509.35
771.53	1515.50
771.70	1546.22
771.88	1572.84
772.06	1581.03
772.23	1490.92
772.41	1601.51
772.59	1529.83
772.77	1460.20
772.94	1544.17
773.12	1552.36
773.30	1533.93
773.47	1466.35
773.65	1492.97
773.83	1603.56
774.01	1581.03
774.18	1429.48
774.36	1535.98
774.54	1507.30
774.71	1548.26
774.89	1542.12
775.07	1466.35
775.24	1556.46
775.42	1572.84
775.60	1570.79
775.78	1535.98
775.95	1452.01
776.13	1466.35
776.31	1497.07
776.48	1515.50
776.66	1552.36
776.84	1521.64
777.01	1564.65
777.19	1499.11
777.37	1452.01
777.54	1572.84
777.72	1574.89
777.90	1585.13
778.07	1634.28
778.25	1673.19
778.43	1538.02
778.60	1538.02
778.78	1568.74
778.96	1628.14
779.13	1411.05
779.31	1492.97
779.49	1562.60
779.66	1523.69
779.84	1495.02
780.01	1619.94
780.19	1431.53
780.37	1495.02
780.54	1542.12
780.72	1519.59
780.90	1550.31
781.07	1564.65
781.25	1466.35
781.43	1617.90
781.60	1499.11
781.78	1587.18
781.95	1470.44
782.13	1486.83
782.31	1550.31
782.48	1525.74
782.66	1554.41
782.83	1568.74
783.01	1560.55
783.19	1599.46
783.36	1515.50
783.54	1497.07
783.72	1583.08
783.89	1583.08
784.07	1531.88
784.24	1540.07
784.42	1591.27
784.60	1581.03
784.77	1533.93
784.95	1419.24
785.12	1472.49
785.30	1523.69
785.47	1454.06
785.65	1529.83
785.83	1558.50
786.00	1525.74
786.18	1544.17
786.35	1466.35
786.53	1554.41
786.71	1542.12
786.88	1587.18
787.06	1535.98
787.23	1595.37
787.41	1466.35
787.58	1529.83
787.76	1529.83
787.94	1566.70
788.11	1501.16
788.29	1478.63
788.46	1486.83
788.64	1517.54
788.81	1566.70
788.99	1470.44
789.16	1468.39
789.34	1560.55
789.52	1466.35
789.69	1568.74
789.87	1449.96
790.04	1521.64
790.22	1550.31
790.39	1583.08
790.57	1531.88
790.74	1507.30
790.92	1591.27
791.09	1523.69
791.27	1492.97
791.44	1544.17
791.62	1548.26
791.79	1646.57
791.97	1482.73
792.15	1673.19
792.32	1609.70
792.50	1585.13
792.67	1544.17
792.85	1626.09
793.02	1546.22
793.20	1495.02
793.37	1503.21
793.55	1505.26
793.72	1505.26
793.90	1621.99
794.07	1456.11
794.25	1529.83
794.42	1568.74
794.60	1468.39
794.77	1529.83
794.95	1531.88
795.12	1531.88
795.30	1540.07
795.47	1542.12
795.65	1701.86
795.82	1517.54
796.00	1421.29
796.17	1527.78
796.34	1593.32
796.52	1492.97
796.69	1650.66
796.87	1566.70
797.04	1540.07
797.22	1560.55
797.39	1419.24
797.57	1533.93
797.74	1550.31
797.92	1509.35
798.09	1497.07
798.27	1583.08
798.44	1585.13
798.62	1525.74
798.79	1507.30
798.96	1507.30
799.14	1437.67
799.31	1675.24
799.49	1507.30
799.66	1558.50
799.84	1578.98
800.01	1476.59
800.19	1525.74
800.36	1556.46
800.53	1515.50
800.71	1558.50
800.88	1632.23
801.06	1505.26
801.23	1521.64
801.41	1497.07
801.58	1542.12
801.75	1492.97
801.93	1548.26
802.10	1538.02
802.28	1621.99
802.45	1511.40
802.63	1492.97
802.80	1597.42
802.97	1468.39
803.15	1505.26
803.32	1490.92
803.50	1470.44
803.67	1501.16
803.84	1458.15
804.02	1556.46
804.19	1550.31
804.37	1499.11
804.54	1492.97
804.71	1515.50
804.89	1486.83
805.06	1527.78
805.24	1472.49
805.41	1456.11
805.58	1509.35
805.76	1665.00
805.93	1574.89
806.10	1626.09
806.28	1576.94
806.45	1540.07
806.63	1576.94
806.80	1470.44
806.97	1533.93
807.15	1558.50
807.32	1486.83
807.49	1529.83
807.67	1454.06
807.84	1511.40
808.01	1581.03
808.19	1656.81
808.36	1667.05
808.54	1501.16
808.71	1568.74
808.88	1482.73
809.06	1578.98
809.23	1634.28
809.40	1562.60
809.58	1558.50
809.75	1523.69
809.92	1525.74
810.10	1626.09
810.27	1472.49
810.44	1558.50
810.62	1499.11
810.79	1503.21
810.96	1511.40
811.14	1515.50
811.31	1540.07
811.48	1527.78
811.66	1505.26
811.83	1564.65
812.00	1587.18
812.18	1574.89
812.35	1605.61
812.52	1515.50
812.69	1513.45
812.87	1501.16
813.04	1456.11
813.21	1574.89
813.39	1474.54
813.56	1574.89
813.73	1566.70
813.91	1439.72
814.08	1511.40
814.25	1529.83
814.42	1466.35
814.60	1507.30
814.77	1570.79
814.94	1505.26
815.12	1507.30
815.29	1552.36
815.46	1505.26
815.63	1544.17
815.81	1556.46
815.98	1495.02
816.15	1605.61
816.33	1548.26
816.50	1529.83
816.67	1581.03
816.84	1435.63
817.02	1458.15
817.19	1556.46
817.36	1462.25
817.53	1531.88
817.71	1495.02
817.88	1562.60
818.05	1556.46
818.22	1544.17
818.40	1601.51
818.57	1538.02
818.74	1529.83
818.91	1550.31
819.09	1572.84
819.26	1535.98
819.43	1503.21
819.60	1419.24
819.78	1566.70
819.95	1492.97
820.12	1501.16
820.29	1474.54
820.47	1533.93
820.64	1521.64
820.81	1443.82
820.98	1464.30
821.15	1556.46
821.33	1581.03
821.50	1427.43
821.67	1458.15
821.84	1486.83
822.02	1495.02
822.19	1538.02
822.36	1527.78
822.53	1548.26
822.70	1501.16
822.88	1593.32
823.05	1597.42
823.22	1476.59
823.39	1531.88
823.56	1583.08
823.74	1697.77
823.91	1476.59
824.08	1486.83
824.25	1470.44
824.42	1583.08
824.60	1480.68
824.77	1486.83
824.94	1544.17
825.11	1527.78
825.28	1456.11
825.45	1554.41
825.63	1505.26
825.80	1484.78
825.97	1619.94
826.14	1527.78
826.31	1556.46
826.48	1495.02
826.66	1507.30
826.83	1589.22
827.00	1525.74
827.17	1482.73
827.34	1527.78
827.51	1488.87
827.69	1572.84
827.86	1474.54
828.03	1509.35
828.20	1513.45
828.37	1529.83
828.54	1544.17
828.71	1443.82
828.89	1697.77
829.06	1597.42
829.23	1591.27
829.40	1505.26
829.57	1501.16
829.74	1578.98
829.91	1511.40
830.09	1505.26
830.26	1542.12
830.43	1619.94
830.60	1550.31
830.77	1558.50
830.94	1562.60
831.11	1564.65
831.28	1556.46
831.46	1609.70
831.63	1499.11
831.80	1566.70
831.97	1540.07
832.14	1519.59
832.31	1603.56
832.48	1499.11
832.65	1570.79
832.82	1560.55
832.99	1542.12
833.17	1425.39
833.34	1613.80
833.51	1581.03
833.68	1488.87
833.85	1564.65
834.02	1503.21
834.19	1490.92
834.36	1468.39
834.53	1574.89
834.70	1533.93
834.87	1581.03
835.04	1515.50
835.22	1456.11
835.39	1585.13
835.56	1466.35
835.73	1441.77
835.90	1611.75
836.07	1517.54
836.24	1552.36
836.41	1546.22
836.58	1482.73
836.75	1591.27
836.92	1593.32
837.09	1495.02
837.26	1578.98
837.43	1597.42
837.60	1538.02
837.77	1464.30
837.94	1593.32
838.12	1572.84
838.29	1585.13
838.46	1482.73
838.63	1486.83
838.80	1595.37
838.97	1585.13
839.14	1525.74
839.31	1521.64
839.48	1568.74
839.65	1488.87
839.82	1529.83
839.99	1523.69
840.16	1542.12
840.33	1529.83
840.50	1523.69
840.67	1427.43
840.84	1386.47
841.01	1560.55
841.18	1509.35
841.35	1515.50
841.52	1583.08
841.69	1646.57
841.86	1517.54
842.03	1542.12
842.20	1576.94
842.37	1621.99
842.54	1476.59
842.71	1533.93
842.88	1431.53
843.05	1556.46
843.22	1513.45
843.39	1607.66
843.56	1529.83
843.73	1525.74
843.90	1533.93
844.07	1535.98
844.24	1556.46
844.41	1519.59
844.58	1558.50
844.75	1462.25
844.92	1462.25
845.09	1441.77
845.26	1540.07
845.43	1554.41
845.60	1562.60
845.77	1578.98
845.94	1591.27
846.10	1570.79
846.27	1429.48
846.44	1409.00
846.61	1472.49
846.78	1589.22
846.95	1605.61
847.12	1626.09
847.29	1527.78
847.46	1538.02
847.63	1658.85
847.80	1470.44
847.97	1558.50
848.14	1603.56
848.31	1492.97
848.48	1458.15
848.65	1490.92
848.82	1560.55
848.98	1591.27
849.15	1576.94
849.32	1601.51
849.49	1609.70
849.66	1583.08
849.83	1556.46
850.00	1447.91
850.17	1578.98
850.34	1480.68
850.51	1556.46
850.68	1517.54
850.85	1607.66
851.01	1519.59
851.18	1511.40
851.35	1525.74
851.52	1531.88
851.69	1564.65
851.86	1486.83
852.03	1556.46
852.20	1535.98
852.37	1546.22
852.53	1499.11
852.70	1599.46
852.87	1437.67
853.04	1511.40
853.21	1566.70
853.38	1624.04
853.55	1556.46
853.72	1603.56
853.89	1517.54
854.05	1480.68
854.22	1533.93
854.39	1533.93
854.56	1558.50
854.73	1619.94
854.90	1519.59
855.07	1527.78
855.23	1499.11
855.40	1509.35
855.57	1476.59
855.74	1400.81
855.91	1683.43
856.08	1488.87
856.25	1435.63
856.41	1468.39
856.58	1566.70
856.75	1535.98
856.92	1439.72
857.09	1527.78
857.26	1490.92
857.42	1464.30
857.59	1562.60
857.76	1480.68
857.93	1566.70
858.10	1607.66
858.27	1591.27
858.43	1605.61
858.60	1554.41
858.77	1466.35
858.94	1515.50
859.11	1562.60
859.27	1527.78
859.44	1560.55
859.61	1652.71
859.78	1597.42
859.95	1578.98
860.12	1495.02
860.28	1576.94
860.45	1535.98
860.62	1501.16
860.79	1546.22
860.95	1472.49
861.12	1452.01
861.29	1490.92
861.46	1544.17
861.63	1525.74
861.79	1501.16
861.96	1511.40
862.13	1513.45
862.30	1599.46
862.47	1472.49
862.63	1431.53
862.80	1581.03
862.97	1609.70
863.14	1550.31
863.30	1566.70
863.47	1439.72
863.64	1593.32
863.81	1607.66
863.97	1535.98
864.14	1476.59
864.31	1538.02
864.48	1591.27
864.65	1472.49
864.81	1587.18
864.98	1501.16
865.15	1587.18
865.32	1615.85
865.48	1525.74
865.65	1646.57
865.82	1509.35
865.98	1499.11
866.15	1619.94
866.32	1529.83
866.49	1460.20
866.65	1646.57
866.82	1568.74
866.99	1562.60
867.16	1503.21
867.32	1499.11
867.49	1490.92
867.66	1531.88
867.83	1476.59
867.99	1484.78
868.16	1503.21
868.33	1482.73
868.49	1554.41
868.66	1521.64
868.83	1550.31
868.99	1574.89
869.16	1548.26
869.33	1546.22
869.50	1542.12
869.66	1570.79
869.83	1585.13
870.00	1447.91
870.16	1558.50
870.33	1605.61
870.50	1570.79
870.66	1505.26
870.83	1628.14
871.00	1511.40
871.17	1554.41
871.33	1538.02
871.50	1468.39
871.67	1495.02
871.83	1466.35
872.00	1552.36
872.17	1460.20
872.33	1624.04
872.50	1642.47
872.67	1484.78
872.83	1527.78
873.00	1497.07
873.17	1464.30
873.33	1490.92
873.50	1562.60
873.67	1468.39
873.83	1558.50
874.00	1583.08
874.16	1564.65
874.33	1615.85
874.50	1439.72
874.66	1535.98
874.83	1560.55
875.00	1554.41
875.16	1597.42
875.33	1632.23
875.50	1439.72
875.66	1525.74
875.83	1521.64
875.99	1574.89
876.16	1503.21
876.33	1466.35
876.49	1495.02
876.66	1511.40
876.83	1544.17
876.99	1447.91
877.16	1484.78
877.32	1568.74
877.49	1572.84
877.66	1583.08
877.82	1662.95
877.99	1495.02
878.15	1554.41
878.32	1568.74
878.49	1583.08
878.65	1527.78
878.82	1617.90
878.98	1521.64
879.15	1628.14
879.32	1607.66
879.48	1521.64
879.65	1574.89
879.81	1538.02
879.98	1486.83
880.15	1509.35
880.31	1574.89
880.48	1529.83
880.64	1638.38
880.81	1521.64
880.97	1578.98
881.14	1587.18
881.31	1507.30
881.47	1675.24
881.64	1566.70
881.80	1521.64
881.97	1572.84
882.13	1562.60
882.30	1458.15
882.47	1484.78
882.63	1490.92
882.80	1556.46
882.96	1462.25
883.13	1556.46
883.29	1527.78
883.46	1544.17
883.62	1621.99
883.79	1595.37
883.95	1490.92
884.12	1484.78
884.29	1599.46
884.45	1552.36
884.62	1505.26
884.78	1447.91
884.95	1574.89
885.11	1515.50
885.28	1615.85
885.44	1546.22
885.61	1535.98
885.77	1556.46
885.94	1525.74
886.10	1527.78
886.27	1505.26
886.43	1597.42
886.60	1560.55
886.76	1486.83
886.93	1511.40
887.09	1595.37
887.26	1396.71
887.42	1538.02
887.59	1509.35
887.75	1564.65
887.92	1603.56
888.08	1595.37
888.25	1566.70
888.41	1497.07
888.58	1546.22
888.74	1480.68
888.91	1449.96
>>>>>End Processed Spectral Data<<<<<
