SpectraSuite Data File
++++++++++++++++++++++++++++++++++++
Date: Tue May 03 12:55:24 CEST 2016
User: root
Dark Spectrum Present: No
Reference Spectrum Present: No
Number of Sampled Component Spectra: 1
Spectrometers: USB4C02835
Integration Time (usec): 100000 (USB4C02835)
Spectra Averaged: 1 (USB4C02835)
Boxcar Smoothing: 0 (USB4C02835)
Correct for Electrical Dark: No (USB4C02835)
Strobe/Lamp Enabled: No (USB4C02835)
Correct for Detector Non-linearity: No (USB4C02835)
Correct for Stray Light: No (USB4C02835)
Number of Pixels in Processed Spectrum: 3648
>>>>>Begin Processed Spectral Data<<<<<
177.47	1363.95
177.69	1363.95
177.91	1363.95
178.13	1308.65
178.36	1370.09
178.58	1488.87
178.80	1544.17
179.02	1497.07
179.24	1535.98
179.46	1566.70
179.68	1587.18
179.90	1529.83
180.13	1564.65
180.35	1513.45
180.57	1546.22
180.79	1499.11
181.01	1486.83
181.23	1605.61
181.45	1558.50
181.67	1603.56
181.90	1560.55
182.12	1523.69
182.34	1523.69
182.56	1609.70
182.78	1574.89
183.00	1499.11
183.22	1640.42
183.44	1492.97
183.66	1529.83
183.89	1669.09
184.11	1497.07
184.33	1621.99
184.55	1605.61
184.77	1578.98
184.99	1662.95
185.21	1538.02
185.43	1599.46
185.65	1492.97
185.87	1503.21
186.10	1562.60
186.32	1583.08
186.54	1542.12
186.76	1558.50
186.98	1564.65
187.20	1490.92
187.42	1478.63
187.64	1513.45
187.86	1578.98
188.08	1562.60
188.30	1478.63
188.52	1546.22
188.75	1599.46
188.97	1593.32
189.19	1509.35
189.41	1492.97
189.63	1613.80
189.85	1501.16
190.07	1499.11
190.29	1452.01
190.51	1517.54
190.73	1501.16
190.95	1574.89
191.17	1544.17
191.39	1419.24
191.61	1542.12
191.84	1556.46
192.06	1544.17
192.28	1462.25
192.50	1710.05
192.72	1542.12
192.94	1472.49
193.16	1513.45
193.38	1509.35
193.60	1513.45
193.82	1492.97
194.04	1581.03
194.26	1542.12
194.48	1513.45
194.70	1474.54
194.92	1581.03
195.14	1519.59
195.36	1558.50
195.58	1523.69
195.80	1550.31
196.02	1521.64
196.24	1495.02
196.46	1554.41
196.69	1566.70
196.91	1615.85
197.13	1538.02
197.35	1556.46
197.57	1638.38
197.79	1562.60
198.01	1521.64
198.23	1621.99
198.45	1462.25
198.67	1517.54
198.89	1566.70
199.11	1566.70
199.33	1466.35
199.55	1460.20
199.77	1556.46
199.99	1544.17
200.21	1587.18
200.43	1507.30
200.65	1474.54
200.87	1490.92
201.09	1550.31
201.31	1452.01
201.53	1574.89
201.75	1593.32
201.97	1546.22
202.19	1482.73
202.41	1499.11
202.63	1667.05
202.85	1615.85
203.07	1558.50
203.29	1568.74
203.51	1527.78
203.73	1470.44
203.95	1685.48
204.17	1660.90
204.39	1550.31
204.61	1490.92
204.83	1574.89
205.05	1613.80
205.27	1564.65
205.49	1583.08
205.71	1531.88
205.93	1486.83
206.15	1540.07
206.37	1529.83
206.59	1499.11
206.81	1507.30
207.03	1437.67
207.25	1464.30
207.47	1605.61
207.69	1484.78
207.91	1574.89
208.13	1589.22
208.34	1478.63
208.56	1515.50
208.78	1538.02
209.00	1495.02
209.22	1556.46
209.44	1583.08
209.66	1574.89
209.88	1533.93
210.10	1533.93
210.32	1433.58
210.54	1601.51
210.76	1538.02
210.98	1568.74
211.20	1423.34
211.42	1515.50
211.64	1505.26
211.86	1529.83
212.08	1546.22
212.30	1544.17
212.52	1517.54
212.74	1525.74
212.96	1542.12
213.17	1550.31
213.39	1535.98
213.61	1650.66
213.83	1550.31
214.05	1538.02
214.27	1595.37
214.49	1435.63
214.71	1464.30
214.93	1613.80
215.15	1564.65
215.37	1587.18
215.59	1519.59
215.81	1562.60
216.03	1570.79
216.24	1499.11
216.46	1570.79
216.68	1585.13
216.90	1552.36
217.12	1538.02
217.34	1550.31
217.56	1529.83
217.78	1615.85
218.00	1566.70
218.22	1507.30
218.44	1513.45
218.66	1564.65
218.87	1632.23
219.09	1503.21
219.31	1581.03
219.53	1550.31
219.75	1495.02
219.97	1472.49
220.19	1515.50
220.41	1566.70
220.63	1617.90
220.85	1550.31
221.06	1538.02
221.28	1574.89
221.50	1495.02
221.72	1443.82
221.94	1468.39
222.16	1562.60
222.38	1587.18
222.60	1572.84
222.82	1574.89
223.03	1572.84
223.25	1503.21
223.47	1554.41
223.69	1609.70
223.91	1538.02
224.13	1562.60
224.35	1523.69
224.57	1632.23
224.78	1509.35
225.00	1490.92
225.22	1521.64
225.44	1566.70
225.66	1525.74
225.88	1505.26
226.10	1507.30
226.32	1599.46
226.53	1593.32
226.75	1458.15
226.97	1507.30
227.19	1519.59
227.41	1470.44
227.63	1542.12
227.85	1445.87
228.06	1550.31
228.28	1529.83
228.50	1538.02
228.72	1538.02
228.94	1533.93
229.16	1458.15
229.37	1519.59
229.59	1464.30
229.81	1640.42
230.03	1501.16
230.25	1521.64
230.47	1486.83
230.69	1486.83
230.90	1564.65
231.12	1521.64
231.34	1533.93
231.56	1581.03
231.78	1509.35
232.00	1533.93
232.21	1558.50
232.43	1488.87
232.65	1476.59
232.87	1546.22
233.09	1505.26
233.30	1501.16
233.52	1499.11
233.74	1576.94
233.96	1480.68
234.18	1576.94
234.40	1570.79
234.61	1693.67
234.83	1464.30
235.05	1456.11
235.27	1662.95
235.49	1626.09
235.70	1495.02
235.92	1572.84
236.14	1585.13
236.36	1650.66
236.58	1529.83
236.79	1595.37
237.01	1517.54
237.23	1499.11
237.45	1576.94
237.67	1411.05
237.88	1587.18
238.10	1615.85
238.32	1482.73
238.54	1484.78
238.76	1533.93
238.97	1515.50
239.19	1501.16
239.41	1583.08
239.63	1464.30
239.85	1497.07
240.06	1558.50
240.28	1574.89
240.50	1576.94
240.72	1470.44
240.93	1560.55
241.15	1572.84
241.37	1593.32
241.59	1609.70
241.81	1521.64
242.02	1581.03
242.24	1544.17
242.46	1615.85
242.68	1519.59
242.89	1548.26
243.11	1587.18
243.33	1587.18
243.55	1595.37
243.76	1578.98
243.98	1511.40
244.20	1525.74
244.42	1548.26
244.64	1609.70
244.85	1478.63
245.07	1521.64
245.29	1546.22
245.51	1499.11
245.72	1548.26
245.94	1619.94
246.16	1527.78
246.38	1570.79
246.59	1540.07
246.81	1513.45
247.03	1603.56
247.24	1470.44
247.46	1558.50
247.68	1495.02
247.90	1546.22
248.11	1538.02
248.33	1564.65
248.55	1601.51
248.77	1542.12
248.98	1517.54
249.20	1554.41
249.42	1503.21
249.64	1507.30
249.85	1556.46
250.07	1527.78
250.29	1552.36
250.50	1626.09
250.72	1468.39
250.94	1609.70
251.16	1646.57
251.37	1535.98
251.59	1595.37
251.81	1570.79
252.02	1587.18
252.24	1548.26
252.46	1583.08
252.68	1497.07
252.89	1552.36
253.11	1402.86
253.33	1607.66
253.54	1591.27
253.76	1445.87
253.98	1556.46
254.20	1519.59
254.41	1464.30
254.63	1521.64
254.85	1490.92
255.06	1546.22
255.28	1626.09
255.50	1513.45
255.71	1505.26
255.93	1470.44
256.15	1527.78
256.36	1501.16
256.58	1599.46
256.80	1548.26
257.02	1554.41
257.23	1544.17
257.45	1533.93
257.67	1554.41
257.88	1482.73
258.10	1476.59
258.32	1488.87
258.53	1546.22
258.75	1652.71
258.97	1583.08
259.18	1492.97
259.40	1521.64
259.62	1583.08
259.83	1601.51
260.05	1632.23
260.27	1753.06
260.48	1595.37
260.70	1460.20
260.92	1566.70
261.13	1476.59
261.35	1501.16
261.57	1542.12
261.78	1503.21
262.00	1535.98
262.22	1550.31
262.43	1466.35
262.65	1560.55
262.86	1490.92
263.08	1607.66
263.30	1621.99
263.51	1427.43
263.73	1505.26
263.95	1636.33
264.16	1435.63
264.38	1595.37
264.60	1581.03
264.81	1480.68
265.03	1535.98
265.25	1591.27
265.46	1556.46
265.68	1609.70
265.89	1556.46
266.11	1478.63
266.33	1523.69
266.54	1648.61
266.76	1558.50
266.98	1587.18
267.19	1558.50
267.41	1560.55
267.62	1548.26
267.84	1464.30
268.06	1576.94
268.27	1570.79
268.49	1605.61
268.70	1613.80
268.92	1495.02
269.14	1476.59
269.35	1492.97
269.57	1517.54
269.79	1527.78
270.00	1513.45
270.22	1519.59
270.43	1585.13
270.65	1476.59
270.87	1626.09
271.08	1603.56
271.30	1589.22
271.51	1484.78
271.73	1628.14
271.95	1626.09
272.16	1587.18
272.38	1597.42
272.59	1476.59
272.81	1572.84
273.02	1568.74
273.24	1576.94
273.46	1507.30
273.67	1550.31
273.89	1474.54
274.10	1509.35
274.32	1679.33
274.54	1507.30
274.75	1529.83
274.97	1556.46
275.18	1572.84
275.40	1595.37
275.61	1544.17
275.83	1468.39
276.05	1449.96
276.26	1474.54
276.48	1621.99
276.69	1525.74
276.91	1576.94
277.12	1511.40
277.34	1576.94
277.55	1587.18
277.77	1544.17
277.99	1468.39
278.20	1501.16
278.42	1523.69
278.63	1413.10
278.85	1503.21
279.06	1527.78
279.28	1626.09
279.49	1560.55
279.71	1552.36
279.93	1515.50
280.14	1495.02
280.36	1464.30
280.57	1591.27
280.79	1568.74
281.00	1558.50
281.22	1447.91
281.43	1669.09
281.65	1505.26
281.86	1490.92
282.08	1607.66
282.29	1675.24
282.51	1515.50
282.73	1511.40
282.94	1574.89
283.16	1626.09
283.37	1665.00
283.59	1509.35
283.80	1544.17
284.02	1513.45
284.23	1634.28
284.45	1462.25
284.66	1417.19
284.88	1435.63
285.09	1574.89
285.31	1505.26
285.52	1562.60
285.74	1529.83
285.95	1624.04
286.17	1519.59
286.38	1587.18
286.60	1552.36
286.81	1523.69
287.03	1591.27
287.24	1527.78
287.46	1550.31
287.67	1527.78
287.89	1626.09
288.10	1589.22
288.32	1554.41
288.53	1597.42
288.75	1538.02
288.96	1587.18
289.18	1476.59
289.39	1456.11
289.61	1613.80
289.82	1640.42
290.04	1593.32
290.25	1476.59
290.47	1558.50
290.68	1542.12
290.90	1501.16
291.11	1495.02
291.33	1572.84
291.54	1507.30
291.76	1443.82
291.97	1513.45
292.18	1550.31
292.40	1585.13
292.61	1488.87
292.83	1642.47
293.04	1497.07
293.26	1507.30
293.47	1523.69
293.69	1507.30
293.90	1566.70
294.12	1572.84
294.33	1445.87
294.55	1525.74
294.76	1521.64
294.97	1542.12
295.19	1665.00
295.40	1490.92
295.62	1581.03
295.83	1542.12
296.05	1505.26
296.26	1601.51
296.48	1476.59
296.69	1585.13
296.90	1540.07
297.12	1507.30
297.33	1607.66
297.55	1527.78
297.76	1581.03
297.98	1601.51
298.19	1519.59
298.41	1546.22
298.62	1517.54
298.83	1566.70
299.05	1511.40
299.26	1497.07
299.48	1562.60
299.69	1533.93
299.90	1517.54
300.12	1495.02
300.33	1636.33
300.55	1574.89
300.76	1648.61
300.98	1499.11
301.19	1552.36
301.40	1591.27
301.62	1552.36
301.83	1603.56
302.05	1497.07
302.26	1519.59
302.47	1521.64
302.69	1474.54
302.90	1531.88
303.12	1449.96
303.33	1554.41
303.54	1626.09
303.76	1572.84
303.97	1476.59
304.19	1574.89
304.40	1456.11
304.61	1558.50
304.83	1673.19
305.04	1593.32
305.26	1583.08
305.47	1476.59
305.68	1535.98
305.90	1460.20
306.11	1615.85
306.33	1628.14
306.54	1583.08
306.75	1490.92
306.97	1490.92
307.18	1505.26
307.39	1472.49
307.61	1617.90
307.82	1533.93
308.04	1544.17
308.25	1562.60
308.46	1562.60
308.68	1523.69
308.89	1560.55
309.10	1482.73
309.32	1548.26
309.53	1533.93
309.74	1497.07
309.96	1525.74
310.17	1595.37
310.39	1486.83
310.60	1552.36
310.81	1511.40
311.03	1521.64
311.24	1538.02
311.45	1540.07
311.67	1687.53
311.88	1505.26
312.09	1550.31
312.31	1515.50
312.52	1554.41
312.73	1583.08
312.95	1503.21
313.16	1527.78
313.37	1523.69
313.59	1505.26
313.80	1615.85
314.01	1570.79
314.23	1507.30
314.44	1472.49
314.65	1495.02
314.87	1546.22
315.08	1544.17
315.29	1544.17
315.51	1540.07
315.72	1460.20
315.93	1597.42
316.15	1587.18
316.36	1501.16
316.57	1540.07
316.79	1556.46
317.00	1583.08
317.21	1578.98
317.43	1501.16
317.64	1556.46
317.85	1523.69
318.07	1484.78
318.28	1652.71
318.49	1714.15
318.70	1816.55
318.92	1685.48
319.13	1626.09
319.34	1740.77
319.56	1613.80
319.77	1701.86
319.98	1544.17
320.20	1615.85
320.41	1566.70
320.62	1609.70
320.83	1495.02
321.05	1716.20
321.26	1605.61
321.47	1480.68
321.69	1603.56
321.90	1464.30
322.11	1554.41
322.32	1609.70
322.54	1578.98
322.75	1486.83
322.96	1656.81
323.18	1486.83
323.39	1423.34
323.60	1525.74
323.81	1626.09
324.03	1550.31
324.24	1480.68
324.45	1589.22
324.66	1452.01
324.88	1630.18
325.09	1589.22
325.30	1550.31
325.52	1566.70
325.73	1554.41
325.94	1476.59
326.15	1433.58
326.37	1552.36
326.58	1535.98
326.79	1632.23
327.00	1511.40
327.22	1558.50
327.43	1578.98
327.64	1501.16
327.85	1550.31
328.07	1535.98
328.28	1638.38
328.49	1497.07
328.70	1517.54
328.92	1529.83
329.13	1456.11
329.34	1554.41
329.55	1552.36
329.76	1624.04
329.98	1576.94
330.19	1644.52
330.40	1517.54
330.61	1480.68
330.83	1544.17
331.04	1535.98
331.25	1517.54
331.46	1533.93
331.68	1478.63
331.89	1556.46
332.10	1554.41
332.31	1501.16
332.52	1583.08
332.74	1595.37
332.95	1605.61
333.16	1525.74
333.37	1558.50
333.58	1542.12
333.80	1607.66
334.01	1542.12
334.22	1503.21
334.43	1488.87
334.64	1492.97
334.86	1486.83
335.07	1492.97
335.28	1542.12
335.49	1441.77
335.70	1560.55
335.92	1568.74
336.13	1634.28
336.34	1513.45
336.55	1560.55
336.76	1558.50
336.98	1347.56
337.19	1576.94
337.40	1552.36
337.61	1708.01
337.82	1495.02
338.04	1581.03
338.25	1480.68
338.46	1552.36
338.67	1466.35
338.88	1519.59
339.09	1474.54
339.31	1511.40
339.52	1531.88
339.73	1495.02
339.94	1554.41
340.15	1558.50
340.36	1540.07
340.58	1454.06
340.79	1511.40
341.00	1564.65
341.21	1470.44
341.42	1597.42
341.63	1482.73
341.85	1564.65
342.06	1617.90
342.27	1470.44
342.48	1617.90
342.69	1486.83
342.90	1540.07
343.12	1591.27
343.33	1480.68
343.54	1513.45
343.75	1566.70
343.96	1591.27
344.17	1495.02
344.38	1517.54
344.60	1505.26
344.81	1466.35
345.02	1470.44
345.23	1499.11
345.44	1654.76
345.65	1535.98
345.86	1564.65
346.07	1533.93
346.29	1583.08
346.50	1554.41
346.71	1515.50
346.92	1609.70
347.13	1589.22
347.34	1531.88
347.55	1556.46
347.76	1511.40
347.98	1427.43
348.19	1527.78
348.40	1667.05
348.61	1492.97
348.82	1609.70
349.03	1632.23
349.24	1486.83
349.45	1613.80
349.66	1499.11
349.88	1484.78
350.09	1492.97
350.30	1581.03
350.51	1576.94
350.72	1581.03
350.93	1560.55
351.14	1490.92
351.35	1548.26
351.56	1519.59
351.77	1621.99
351.99	1550.31
352.20	1628.14
352.41	1550.31
352.62	1486.83
352.83	1535.98
353.04	1554.41
353.25	1574.89
353.46	1535.98
353.67	1511.40
353.88	1507.30
354.09	1556.46
354.30	1529.83
354.52	1566.70
354.73	1484.78
354.94	1501.16
355.15	1521.64
355.36	1646.57
355.57	1476.59
355.78	1546.22
355.99	1517.54
356.20	1517.54
356.41	1581.03
356.62	1548.26
356.83	1531.88
357.04	1552.36
357.25	1486.83
357.46	1427.43
357.68	1411.05
357.89	1509.35
358.10	1605.61
358.31	1488.87
358.52	1527.78
358.73	1511.40
358.94	1511.40
359.15	1486.83
359.36	1593.32
359.57	1624.04
359.78	1560.55
359.99	1607.66
360.20	1501.16
360.41	1550.31
360.62	1615.85
360.83	1570.79
361.04	1564.65
361.25	1552.36
361.46	1615.85
361.67	1550.31
361.88	1560.55
362.09	1523.69
362.30	1531.88
362.51	1509.35
362.72	1576.94
362.93	1585.13
363.14	1564.65
363.35	1495.02
363.56	1484.78
363.78	1568.74
363.99	1566.70
364.20	1507.30
364.41	1554.41
364.62	1605.61
364.83	1558.50
365.04	1538.02
365.25	1581.03
365.46	1538.02
365.67	1462.25
365.88	1533.93
366.09	1484.78
366.30	1503.21
366.51	1503.21
366.72	1458.15
366.93	1605.61
367.14	1523.69
367.35	1595.37
367.56	1484.78
367.77	1560.55
367.98	1533.93
368.18	1492.97
368.39	1535.98
368.60	1495.02
368.81	1566.70
369.02	1525.74
369.23	1548.26
369.44	1517.54
369.65	1538.02
369.86	1495.02
370.07	1583.08
370.28	1464.30
370.49	1591.27
370.70	1583.08
370.91	1488.87
371.12	1452.01
371.33	1634.28
371.54	1581.03
371.75	1581.03
371.96	1429.48
372.17	1449.96
372.38	1552.36
372.59	1519.59
372.80	1554.41
373.01	1525.74
373.22	1542.12
373.43	1468.39
373.64	1415.15
373.85	1638.38
374.06	1581.03
374.26	1581.03
374.47	1578.98
374.68	1605.61
374.89	1480.68
375.10	1486.83
375.31	1615.85
375.52	1581.03
375.73	1570.79
375.94	1581.03
376.15	1617.90
376.36	1535.98
376.57	1495.02
376.78	1490.92
376.99	1572.84
377.20	1556.46
377.40	1525.74
377.61	1630.18
377.82	1495.02
378.03	1484.78
378.24	1517.54
378.45	1519.59
378.66	1458.15
378.87	1423.34
379.08	1454.06
379.29	1507.30
379.50	1601.51
379.71	1523.69
379.91	1599.46
380.12	1550.31
380.33	1587.18
380.54	1523.69
380.75	1597.42
380.96	1513.45
381.17	1609.70
381.38	1593.32
381.59	1644.52
381.80	1617.90
382.00	1646.57
382.21	1652.71
382.42	1599.46
382.63	1642.47
382.84	1603.56
383.05	1607.66
383.26	1652.71
383.47	1585.13
383.68	1542.12
383.88	1523.69
384.09	1519.59
384.30	1632.23
384.51	1486.83
384.72	1538.02
384.93	1441.77
385.14	1490.92
385.35	1609.70
385.55	1447.91
385.76	1601.51
385.97	1564.65
386.18	1478.63
386.39	1556.46
386.60	1624.04
386.81	1519.59
387.02	1449.96
387.22	1527.78
387.43	1570.79
387.64	1685.48
387.85	1902.56
388.06	3024.85
388.27	7268.24
388.48	10506.08
388.68	12406.59
388.89	13989.67
389.10	12857.15
389.31	10231.65
389.52	8863.61
389.73	7798.66
389.93	7235.47
390.14	6786.97
390.35	6326.18
390.56	5527.47
390.77	4630.46
390.98	3479.50
391.18	2738.13
391.39	2127.84
391.60	1746.92
391.81	1753.06
392.02	1535.98
392.23	1687.53
392.43	1607.66
392.64	1548.26
392.85	1548.26
393.06	1495.02
393.27	1544.17
393.47	1544.17
393.68	1544.17
393.89	1523.69
394.10	1603.56
394.31	1466.35
394.52	1511.40
394.72	1505.26
394.93	1681.38
395.14	1462.25
395.35	1574.89
395.56	1535.98
395.76	1566.70
395.97	1669.09
396.18	1751.01
396.39	1773.54
396.60	1910.75
396.80	1812.45
397.01	1695.72
397.22	1613.80
397.43	1710.05
397.64	1640.42
397.84	1601.51
398.05	1712.10
398.26	1607.66
398.47	1634.28
398.67	1603.56
398.88	1568.74
399.09	1529.83
399.30	1556.46
399.51	1581.03
399.71	1488.87
399.92	1478.63
400.13	1521.64
400.34	1523.69
400.54	1556.46
400.75	1599.46
400.96	1581.03
401.17	1603.56
401.37	1554.41
401.58	1538.02
401.79	1648.61
402.00	1746.92
402.21	1882.08
402.41	1931.23
402.62	1912.80
402.83	1984.48
403.04	1832.93
403.24	1839.08
403.45	1734.63
403.66	1765.35
403.87	1789.92
404.07	1738.73
404.28	1742.82
404.49	1710.05
404.70	1665.00
404.90	1603.56
405.11	1558.50
405.32	1650.66
405.52	1583.08
405.73	1476.59
405.94	1578.98
406.15	1634.28
406.35	1558.50
406.56	1554.41
406.77	1454.06
406.98	1546.22
407.18	1484.78
407.39	1687.53
407.60	1515.50
407.80	1578.98
408.01	1509.35
408.22	1544.17
408.43	1550.31
408.63	1601.51
408.84	1546.22
409.05	1552.36
409.25	1499.11
409.46	1470.44
409.67	1507.30
409.88	1603.56
410.08	1607.66
410.29	1492.97
410.50	1560.55
410.70	1595.37
410.91	1497.07
411.12	1507.30
411.32	1609.70
411.53	1574.89
411.74	1632.23
411.95	1581.03
412.15	1607.66
412.36	1619.94
412.57	1648.61
412.77	1648.61
412.98	1554.41
413.19	1558.50
413.39	1583.08
413.60	1540.07
413.81	1564.65
414.01	1550.31
414.22	1626.09
414.43	1570.79
414.63	1597.42
414.84	1656.81
415.05	1544.17
415.25	1550.31
415.46	1597.42
415.67	1540.07
415.87	1560.55
416.08	1542.12
416.29	1564.65
416.49	1583.08
416.70	1490.92
416.91	1574.89
417.11	1552.36
417.32	1591.27
417.53	1583.08
417.73	1560.55
417.94	1499.11
418.15	1525.74
418.35	1525.74
418.56	1560.55
418.77	1552.36
418.97	1511.40
419.18	1484.78
419.38	1486.83
419.59	1521.64
419.80	1558.50
420.00	1578.98
420.21	1562.60
420.42	1621.99
420.62	1466.35
420.83	1548.26
421.04	1533.93
421.24	1499.11
421.45	1499.11
421.65	1591.27
421.86	1542.12
422.07	1689.57
422.27	1544.17
422.48	1525.74
422.69	1507.30
422.89	1445.87
423.10	1544.17
423.30	1447.91
423.51	1509.35
423.72	1544.17
423.92	1576.94
424.13	1417.19
424.33	1583.08
424.54	1562.60
424.75	1552.36
424.95	1544.17
425.16	1644.52
425.36	1574.89
425.57	1538.02
425.78	1578.98
425.98	1540.07
426.19	1538.02
426.39	1478.63
426.60	1576.94
426.81	1650.66
427.01	1529.83
427.22	1435.63
427.42	1507.30
427.63	1521.64
427.83	1583.08
428.04	1583.08
428.25	1615.85
428.45	1624.04
428.66	1564.65
428.86	1546.22
429.07	1482.73
429.28	1523.69
429.48	1538.02
429.69	1468.39
429.89	1507.30
430.10	1464.30
430.30	1591.27
430.51	1615.85
430.71	1454.06
430.92	1558.50
431.13	1558.50
431.33	1572.84
431.54	1556.46
431.74	1646.57
431.95	1638.38
432.15	1480.68
432.36	1454.06
432.56	1548.26
432.77	1669.09
432.98	1599.46
433.18	1556.46
433.39	1488.87
433.59	1560.55
433.80	1642.47
434.00	1660.90
434.21	1525.74
434.41	1449.96
434.62	1685.48
434.82	1576.94
435.03	1472.49
435.23	1484.78
435.44	1529.83
435.64	1570.79
435.85	1550.31
436.06	1640.42
436.26	1593.32
436.47	1562.60
436.67	1542.12
436.88	1589.22
437.08	1527.78
437.29	1658.85
437.49	1554.41
437.70	1607.66
437.90	1495.02
438.11	1615.85
438.31	1611.75
438.52	1632.23
438.72	1699.81
438.93	1769.44
439.13	1685.48
439.34	1695.72
439.54	1609.70
439.75	1607.66
439.95	1603.56
440.16	1554.41
440.36	1566.70
440.57	1648.61
440.77	1550.31
440.98	1546.22
441.18	1597.42
441.39	1507.30
441.59	1501.16
441.80	1681.38
442.00	1507.30
442.21	1619.94
442.41	1513.45
442.62	1587.18
442.82	1476.59
443.02	1550.31
443.23	1632.23
443.43	1583.08
443.64	1585.13
443.84	1548.26
444.05	1644.52
444.25	1570.79
444.46	1521.64
444.66	1519.59
444.87	1660.90
445.07	1538.02
445.28	1619.94
445.48	1720.29
445.69	1611.75
445.89	1660.90
446.09	1650.66
446.30	2123.74
446.50	3196.88
446.71	4585.40
446.91	5203.89
447.12	5869.48
447.32	5609.39
447.53	4710.33
447.73	4106.18
447.93	3702.73
448.14	3344.33
448.34	3217.36
448.55	2942.93
448.75	2787.29
448.96	2740.18
449.16	2461.66
449.36	2197.47
449.57	1988.58
449.77	1802.21
449.98	1591.27
450.18	1603.56
450.39	1585.13
450.59	1591.27
450.79	1480.68
451.00	1564.65
451.20	1595.37
451.41	1497.07
451.61	1597.42
451.81	1585.13
452.02	1501.16
452.22	1521.64
452.43	1576.94
452.63	1492.97
452.84	1583.08
453.04	1558.50
453.24	1521.64
453.45	1529.83
453.65	1540.07
453.86	1581.03
454.06	1515.50
454.26	1533.93
454.47	1454.06
454.67	1568.74
454.87	1583.08
455.08	1533.93
455.28	1665.00
455.49	1554.41
455.69	1490.92
455.89	1695.72
456.10	1636.33
456.30	1464.30
456.51	1591.27
456.71	1517.54
456.91	1552.36
457.12	1521.64
457.32	1626.09
457.52	1501.16
457.73	1497.07
457.93	1613.80
458.14	1462.25
458.34	1558.50
458.54	1525.74
458.75	1548.26
458.95	1538.02
459.15	1566.70
459.36	1529.83
459.56	1566.70
459.76	1621.99
459.97	1648.61
460.17	1607.66
460.37	1562.60
460.58	1572.84
460.78	1550.31
460.99	1499.11
461.19	1576.94
461.39	1554.41
461.60	1595.37
461.80	1626.09
462.00	1480.68
462.21	1527.78
462.41	1470.44
462.61	1476.59
462.82	1462.25
463.02	1585.13
463.22	1605.61
463.43	1578.98
463.63	1525.74
463.83	1599.46
464.04	1527.78
464.24	1511.40
464.44	1468.39
464.64	1568.74
464.85	1599.46
465.05	1515.50
465.25	1533.93
465.46	1497.07
465.66	1603.56
465.86	1587.18
466.07	1576.94
466.27	1527.78
466.47	1490.92
466.68	1460.20
466.88	1583.08
467.08	1538.02
467.29	1617.90
467.49	1552.36
467.69	1658.85
467.89	1560.55
468.10	1607.66
468.30	1470.44
468.50	1542.12
468.71	1576.94
468.91	1538.02
469.11	1681.38
469.31	1468.39
469.52	1523.69
469.72	1609.70
469.92	1605.61
470.13	1542.12
470.33	1542.12
470.53	1697.77
470.73	2119.65
470.94	2260.96
471.14	2457.56
471.34	2578.39
471.54	2445.27
471.75	2144.22
471.95	2144.22
472.15	1976.29
472.36	1972.19
472.56	1968.10
472.76	1943.52
472.96	1882.08
473.17	1789.92
473.37	1775.59
473.57	1669.09
473.77	1628.14
473.98	1626.09
474.18	1454.06
474.38	1617.90
474.58	1505.26
474.79	1513.45
474.99	1511.40
475.19	1646.57
475.39	1503.21
475.60	1585.13
475.80	1517.54
476.00	1507.30
476.20	1562.60
476.41	1548.26
476.61	1638.38
476.81	1546.22
477.01	1576.94
477.21	1642.47
477.42	1581.03
477.62	1513.45
477.82	1611.75
478.02	1583.08
478.23	1527.78
478.43	1509.35
478.63	1576.94
478.83	1542.12
479.03	1558.50
479.24	1607.66
479.44	1570.79
479.64	1515.50
479.84	1480.68
480.04	1525.74
480.25	1503.21
480.45	1488.87
480.65	1605.61
480.85	1578.98
481.06	1531.88
481.26	1511.40
481.46	1503.21
481.66	1521.64
481.86	1517.54
482.06	1599.46
482.27	1552.36
482.47	1550.31
482.67	1632.23
482.87	1470.44
483.07	1533.93
483.28	1437.67
483.48	1437.67
483.68	1562.60
483.88	1505.26
484.08	1394.67
484.29	1478.63
484.49	1509.35
484.69	1470.44
484.89	1689.57
485.09	1562.60
485.29	1617.90
485.50	1538.02
485.70	1581.03
485.90	1589.22
486.10	1507.30
486.30	1558.50
486.50	1540.07
486.71	1497.07
486.91	1611.75
487.11	1609.70
487.31	1441.77
487.51	1566.70
487.71	1527.78
487.91	1587.18
488.12	1460.20
488.32	1464.30
488.52	1560.55
488.72	1478.63
488.92	1515.50
489.12	1564.65
489.32	1589.22
489.53	1519.59
489.73	1454.06
489.93	1558.50
490.13	1497.07
490.33	1540.07
490.53	1554.41
490.73	1546.22
490.94	1454.06
491.14	1656.81
491.34	1730.53
491.54	2133.98
491.74	2693.08
491.94	3051.47
492.14	3313.61
492.34	3229.65
492.54	2842.58
492.75	2531.29
492.95	2357.21
493.15	2205.66
493.35	2215.90
493.55	2179.04
493.75	2035.68
493.95	2041.82
494.15	1828.84
494.35	1822.69
494.56	1755.11
494.76	1640.42
494.96	1621.99
495.16	1654.76
495.36	1576.94
495.56	1570.79
495.76	1525.74
495.96	1578.98
496.16	1554.41
496.36	1656.81
496.56	1535.98
496.77	1535.98
496.97	1601.51
497.17	1611.75
497.37	1396.71
497.57	1581.03
497.77	1538.02
497.97	1542.12
498.17	1523.69
498.37	1587.18
498.57	1517.54
498.77	1583.08
498.97	1578.98
499.17	1669.09
499.38	1546.22
499.58	1587.18
499.78	1566.70
499.98	1617.90
500.18	1468.39
500.38	1591.27
500.58	1863.65
500.78	2639.83
500.98	5216.18
501.18	6961.05
501.38	8099.72
501.58	8845.18
501.78	7882.63
501.98	6102.95
502.18	5425.07
502.38	4630.46
502.58	4388.80
502.78	3921.86
502.98	3692.49
503.18	3723.21
503.38	3307.47
503.59	2985.94
503.79	2750.42
503.99	2516.95
504.19	2283.49
504.39	2254.81
504.59	2099.17
504.79	2035.68
504.99	1988.58
505.19	1783.78
505.39	1728.49
505.59	1787.88
505.79	1771.49
505.99	1705.96
506.19	1644.52
506.39	1705.96
506.59	1595.37
506.79	1576.94
506.99	1650.66
507.19	1601.51
507.39	1515.50
507.59	1554.41
507.79	1527.78
507.99	1566.70
508.19	1505.26
508.39	1533.93
508.59	1535.98
508.79	1650.66
508.99	1642.47
509.19	1503.21
509.39	1548.26
509.59	1472.49
509.79	1515.50
509.99	1585.13
510.19	1591.27
510.39	1599.46
510.59	1548.26
510.79	1495.02
510.99	1490.92
511.19	1523.69
511.39	1576.94
511.59	1593.32
511.79	1617.90
511.99	1554.41
512.19	1644.52
512.38	1517.54
512.58	1509.35
512.78	1585.13
512.98	1574.89
513.18	1576.94
513.38	1425.39
513.58	1558.50
513.78	1574.89
513.98	1576.94
514.18	1533.93
514.38	1513.45
514.58	1601.51
514.78	1443.82
514.98	1585.13
515.18	1525.74
515.38	1409.00
515.58	1609.70
515.78	1515.50
515.98	1564.65
516.18	1583.08
516.38	1474.54
516.57	1542.12
516.77	1497.07
516.97	1550.31
517.17	1492.97
517.37	1476.59
517.57	1581.03
517.77	1542.12
517.97	1556.46
518.17	1511.40
518.37	1460.20
518.57	1554.41
518.77	1488.87
518.97	1542.12
519.16	1556.46
519.36	1544.17
519.56	1558.50
519.76	1568.74
519.96	1533.93
520.16	1611.75
520.36	1488.87
520.56	1689.57
520.76	1488.87
520.96	1523.69
521.16	1624.04
521.35	1626.09
521.55	1621.99
521.75	1566.70
521.95	1548.26
522.15	1470.44
522.35	1462.25
522.55	1462.25
522.75	1550.31
522.95	1535.98
523.14	1533.93
523.34	1495.02
523.54	1503.21
523.74	1560.55
523.94	1509.35
524.14	1509.35
524.34	1591.27
524.54	1595.37
524.73	1527.78
524.93	1560.55
525.13	1486.83
525.33	1523.69
525.53	1730.53
525.73	1615.85
525.93	1490.92
526.13	1566.70
526.32	1576.94
526.52	1585.13
526.72	1609.70
526.92	1630.18
527.12	1535.98
527.32	1466.35
527.52	1525.74
527.71	1505.26
527.91	1542.12
528.11	1468.39
528.31	1564.65
528.51	1472.49
528.71	1578.98
528.90	1533.93
529.10	1640.42
529.30	1605.61
529.50	1488.87
529.70	1581.03
529.90	1535.98
530.09	1589.22
530.29	1495.02
530.49	1564.65
530.69	1699.81
530.89	1515.50
531.09	1578.98
531.28	1464.30
531.48	1628.14
531.68	1595.37
531.88	1619.94
532.08	1595.37
532.28	1554.41
532.47	1578.98
532.67	1642.47
532.87	1615.85
533.07	1501.16
533.27	1617.90
533.46	1578.98
533.66	1615.85
533.86	1605.61
534.06	1538.02
534.26	1591.27
534.45	1513.45
534.65	1544.17
534.85	1583.08
535.05	1521.64
535.25	1546.22
535.44	1488.87
535.64	1562.60
535.84	1595.37
536.04	1476.59
536.24	1572.84
536.43	1513.45
536.63	1587.18
536.83	1576.94
537.03	1521.64
537.22	1472.49
537.42	1521.64
537.62	1619.94
537.82	1581.03
538.02	1615.85
538.21	1550.31
538.41	1673.19
538.61	1566.70
538.81	1525.74
539.00	1542.12
539.20	1519.59
539.40	1574.89
539.60	1529.83
539.79	1607.66
539.99	1517.54
540.19	1472.49
540.39	1519.59
540.58	1499.11
540.78	1509.35
540.98	1505.26
541.18	1562.60
541.37	1587.18
541.57	1527.78
541.77	1607.66
541.97	1482.73
542.16	1486.83
542.36	1527.78
542.56	1630.18
542.76	1599.46
542.95	1540.07
543.15	1593.32
543.35	1585.13
543.54	1486.83
543.74	1544.17
543.94	1626.09
544.14	1603.56
544.33	1628.14
544.53	1560.55
544.73	1513.45
544.93	1587.18
545.12	1503.21
545.32	1560.55
545.52	1564.65
545.71	1490.92
545.91	1515.50
546.11	1562.60
546.30	1509.35
546.50	1558.50
546.70	1566.70
546.90	1556.46
547.09	1476.59
547.29	1503.21
547.49	1558.50
547.68	1583.08
547.88	1499.11
548.08	1517.54
548.27	1865.70
548.47	1593.32
548.67	1546.22
548.87	1613.80
549.06	1509.35
549.26	1560.55
549.46	1632.23
549.65	1527.78
549.85	1581.03
550.05	1533.93
550.24	1564.65
550.44	1531.88
550.64	1501.16
550.83	1535.98
551.03	1595.37
551.23	1568.74
551.42	1574.89
551.62	1515.50
551.82	1558.50
552.01	1572.84
552.21	1597.42
552.41	1605.61
552.60	1572.84
552.80	1564.65
553.00	1574.89
553.19	1544.17
553.39	1548.26
553.59	1507.30
553.78	1560.55
553.98	1544.17
554.17	1517.54
554.37	1578.98
554.57	1626.09
554.76	1425.39
554.96	1550.31
555.16	1595.37
555.35	1507.30
555.55	1595.37
555.75	1611.75
555.94	1585.13
556.14	1488.87
556.33	1560.55
556.53	1497.07
556.73	1466.35
556.92	1538.02
557.12	1619.94
557.32	1662.95
557.51	1587.18
557.71	1519.59
557.90	1505.26
558.10	1683.43
558.30	1585.13
558.49	1560.55
558.69	1527.78
558.88	1595.37
559.08	1535.98
559.28	1488.87
559.47	1619.94
559.67	1544.17
559.86	1591.27
560.06	1544.17
560.26	1511.40
560.45	1576.94
560.65	1501.16
560.84	1587.18
561.04	1548.26
561.24	1599.46
561.43	1509.35
561.63	1558.50
561.82	1495.02
562.02	1531.88
562.22	1511.40
562.41	1550.31
562.61	1560.55
562.80	1591.27
563.00	1650.66
563.19	1511.40
563.39	1658.85
563.59	1626.09
563.78	1445.87
563.98	1472.49
564.17	1476.59
564.37	1497.07
564.56	1478.63
564.76	1460.20
564.96	1652.71
565.15	1621.99
565.35	1718.25
565.54	1542.12
565.74	1556.46
565.93	1552.36
566.13	1525.74
566.32	1619.94
566.52	1521.64
566.71	1548.26
566.91	1603.56
567.11	1554.41
567.30	1533.93
567.50	1529.83
567.69	1509.35
567.89	1572.84
568.08	1527.78
568.28	1535.98
568.47	1513.45
568.67	1603.56
568.86	1542.12
569.06	1595.37
569.25	1472.49
569.45	1499.11
569.64	1517.54
569.84	1505.26
570.04	1503.21
570.23	1495.02
570.43	1501.16
570.62	1595.37
570.82	1638.38
571.01	1447.91
571.21	1488.87
571.40	1505.26
571.60	1587.18
571.79	1603.56
571.99	1603.56
572.18	1548.26
572.38	1488.87
572.57	1517.54
572.77	1538.02
572.96	1660.90
573.16	1533.93
573.35	1593.32
573.55	1626.09
573.74	1619.94
573.94	1568.74
574.13	1546.22
574.33	1638.38
574.52	1587.18
574.71	1562.60
574.91	1562.60
575.10	1570.79
575.30	1556.46
575.49	1544.17
575.69	1558.50
575.88	1544.17
576.08	1603.56
576.27	1660.90
576.47	1570.79
576.66	1660.90
576.86	1630.18
577.05	1617.90
577.25	1652.71
577.44	1703.91
577.64	1578.98
577.83	1654.76
578.02	1472.49
578.22	1665.00
578.41	1687.53
578.61	1603.56
578.80	1585.13
579.00	1542.12
579.19	1578.98
579.39	1644.52
579.58	1576.94
579.77	1613.80
579.97	1669.09
580.16	1662.95
580.36	1628.14
580.55	1593.32
580.75	1568.74
580.94	1570.79
581.13	1636.33
581.33	1718.25
581.52	1562.60
581.72	1697.77
581.91	1632.23
582.11	1566.70
582.30	1609.70
582.49	1591.27
582.69	1660.90
582.88	1619.94
583.08	1640.42
583.27	1605.61
583.47	1566.70
583.66	1597.42
583.85	1570.79
584.05	1576.94
584.24	1572.84
584.44	1722.34
584.63	1591.27
584.82	1699.81
585.02	1720.29
585.21	1740.77
585.41	1669.09
585.60	1847.27
585.79	1744.87
585.99	1820.64
586.18	1812.45
586.37	2035.68
586.57	3151.82
586.76	9412.46
586.96	27332.19
587.15	44154.21
587.34	54336.71
587.54	61209.69
587.73	59415.67
587.93	43646.31
588.12	32124.44
588.31	25548.41
588.51	21817.01
588.70	19635.92
588.89	18392.81
589.09	17053.44
589.28	15120.15
589.47	13246.26
589.67	11194.20
589.86	8982.39
590.06	6797.21
590.25	5023.67
590.44	3764.17
590.64	2885.59
590.83	2326.49
591.02	2019.30
591.22	1877.99
591.41	1794.02
591.60	1710.05
591.80	1685.48
591.99	1556.46
592.18	1679.33
592.38	1640.42
592.57	1605.61
592.76	1669.09
592.96	1615.85
593.15	1617.90
593.34	1638.38
593.54	1564.65
593.73	1671.14
593.92	1626.09
594.12	1593.32
594.31	1562.60
594.50	1689.57
594.70	1630.18
594.89	1665.00
595.08	1605.61
595.28	1611.75
595.47	1650.66
595.66	1599.46
595.86	1581.03
596.05	1583.08
596.24	1591.27
596.43	1640.42
596.63	1628.14
596.82	1632.23
597.01	1605.61
597.21	1665.00
597.40	1624.04
597.59	1570.79
597.79	1572.84
597.98	1550.31
598.17	1538.02
598.36	1544.17
598.56	1591.27
598.75	1527.78
598.94	1574.89
599.14	1533.93
599.33	1527.78
599.52	1585.13
599.71	1490.92
599.91	1564.65
600.10	1599.46
600.29	1599.46
600.48	1591.27
600.68	1640.42
600.87	1603.56
601.06	1488.87
601.26	1554.41
601.45	1568.74
601.64	1519.59
601.83	1626.09
602.03	1513.45
602.22	1535.98
602.41	1615.85
602.60	1699.81
602.80	1599.46
602.99	1595.37
603.18	1562.60
603.37	1585.13
603.57	1705.96
603.76	1640.42
603.95	1628.14
604.14	1521.64
604.34	1581.03
604.53	1581.03
604.72	1509.35
604.91	1587.18
605.10	1546.22
605.30	1509.35
605.49	1591.27
605.68	1533.93
605.87	1474.54
606.07	1533.93
606.26	1619.94
606.45	1574.89
606.64	1535.98
606.84	1568.74
607.03	1626.09
607.22	1628.14
607.41	1556.46
607.60	1624.04
607.80	1648.61
607.99	1638.38
608.18	1574.89
608.37	1599.46
608.56	1546.22
608.76	1624.04
608.95	1712.10
609.14	1542.12
609.33	1624.04
609.52	1730.53
609.72	1656.81
609.91	1658.85
610.10	1538.02
610.29	1701.86
610.48	1542.12
610.68	1609.70
610.87	1611.75
611.06	1642.47
611.25	1611.75
611.44	1636.33
611.63	1527.78
611.83	1591.27
612.02	1480.68
612.21	1613.80
612.40	1466.35
612.59	1492.97
612.79	1501.16
612.98	1562.60
613.17	1611.75
613.36	1554.41
613.55	1552.36
613.74	1619.94
613.93	1619.94
614.13	1757.16
614.32	1798.12
614.51	1798.12
614.70	1689.57
614.89	1677.29
615.08	1665.00
615.28	1877.99
615.47	1572.84
615.66	1665.00
615.85	1529.83
616.04	1718.25
616.23	1607.66
616.42	1656.81
616.62	1613.80
616.81	1628.14
617.00	1515.50
617.19	1583.08
617.38	1552.36
617.57	1583.08
617.76	1587.18
617.95	1595.37
618.15	1658.85
618.34	1638.38
618.53	1486.83
618.72	1556.46
618.91	1613.80
619.10	1597.42
619.29	1535.98
619.48	1574.89
619.68	1550.31
619.87	1515.50
620.06	1466.35
620.25	1572.84
620.44	1458.15
620.63	1548.26
620.82	1511.40
621.01	1495.02
621.20	1624.04
621.39	1593.32
621.59	1593.32
621.78	1554.41
621.97	1550.31
622.16	1521.64
622.35	1538.02
622.54	1591.27
622.73	1562.60
622.92	1406.95
623.11	1583.08
623.30	1492.97
623.49	1548.26
623.68	1482.73
623.88	1589.22
624.07	1519.59
624.26	1482.73
624.45	1548.26
624.64	1517.54
624.83	1542.12
625.02	1492.97
625.21	1576.94
625.40	1519.59
625.59	1677.29
625.78	1503.21
625.97	1636.33
626.16	1638.38
626.35	1650.66
626.54	1544.17
626.74	1789.92
626.93	1597.42
627.12	1535.98
627.31	1583.08
627.50	1642.47
627.69	1656.81
627.88	1578.98
628.07	1574.89
628.26	1509.35
628.45	1554.41
628.64	1470.44
628.83	1583.08
629.02	1423.34
629.21	1552.36
629.40	1484.78
629.59	1576.94
629.78	1558.50
629.97	1533.93
630.16	1644.52
630.35	1538.02
630.54	1628.14
630.73	1501.16
630.92	1562.60
631.11	1456.11
631.30	1554.41
631.49	1583.08
631.68	1566.70
631.87	1611.75
632.06	1431.53
632.25	1689.57
632.44	1546.22
632.63	1626.09
632.82	1554.41
633.01	1523.69
633.20	1675.24
633.39	1611.75
633.58	1550.31
633.77	1665.00
633.96	1597.42
634.15	1679.33
634.34	1548.26
634.53	1595.37
634.72	1538.02
634.91	1490.92
635.10	1552.36
635.29	1566.70
635.48	1583.08
635.67	1470.44
635.86	1447.91
636.05	1671.14
636.24	1578.98
636.43	1521.64
636.62	1570.79
636.81	1413.10
637.00	1560.55
637.19	1505.26
637.38	1517.54
637.57	1546.22
637.76	1585.13
637.95	1656.81
638.14	1738.73
638.33	1683.43
638.52	1624.04
638.71	1572.84
638.89	1578.98
639.08	1673.19
639.27	1613.80
639.46	1712.10
639.65	1925.09
639.84	1986.53
640.03	2064.35
640.22	2105.31
640.41	2226.14
640.60	1953.76
640.79	1877.99
640.98	1765.35
641.17	1761.25
641.36	1734.63
641.55	1665.00
641.74	1599.46
641.92	1630.18
642.11	1503.21
642.30	1658.85
642.49	1624.04
642.68	1535.98
642.87	1613.80
643.06	1560.55
643.25	1509.35
643.44	1542.12
643.63	1546.22
643.82	1597.42
644.00	1533.93
644.19	1464.30
644.38	1499.11
644.57	1552.36
644.76	1505.26
644.95	1538.02
645.14	1478.63
645.33	1525.74
645.52	1511.40
645.71	1490.92
645.89	1519.59
646.08	1497.07
646.27	1576.94
646.46	1722.34
646.65	1417.19
646.84	1538.02
647.03	1583.08
647.22	1605.61
647.40	1587.18
647.59	1587.18
647.78	1492.97
647.97	1558.50
648.16	1550.31
648.35	1560.55
648.54	1669.09
648.73	1505.26
648.91	1576.94
649.10	1527.78
649.29	1488.87
649.48	1470.44
649.67	1560.55
649.86	1550.31
650.05	1599.46
650.23	1658.85
650.42	1644.52
650.61	1712.10
650.80	1761.25
650.99	1806.31
651.18	1724.39
651.36	1634.28
651.55	1630.18
651.74	1632.23
651.93	1523.69
652.12	1552.36
652.31	1550.31
652.49	1585.13
652.68	1572.84
652.87	1693.67
653.06	1595.37
653.25	1632.23
653.44	1601.51
653.62	1595.37
653.81	1460.20
654.00	1568.74
654.19	1597.42
654.38	1753.06
654.56	1587.18
654.75	1540.07
654.94	1617.90
655.13	1589.22
655.32	1554.41
655.51	1574.89
655.69	1507.30
655.88	1505.26
656.07	1441.77
656.26	1533.93
656.45	1490.92
656.63	1568.74
656.82	1538.02
657.01	1599.46
657.20	1505.26
657.38	1576.94
657.57	1548.26
657.76	1517.54
657.95	1603.56
658.14	1482.73
658.32	1535.98
658.51	1560.55
658.70	1570.79
658.89	1486.83
659.08	1550.31
659.26	1650.66
659.45	1523.69
659.64	1705.96
659.83	1501.16
660.01	1736.68
660.20	1607.66
660.39	1652.71
660.58	1478.63
660.76	1546.22
660.95	1445.87
661.14	1501.16
661.33	1486.83
661.51	1558.50
661.70	1566.70
661.89	1560.55
662.08	1492.97
662.26	1476.59
662.45	1527.78
662.64	1581.03
662.83	1587.18
663.01	1466.35
663.20	1449.96
663.39	1630.18
663.58	1550.31
663.76	1538.02
663.95	1632.23
664.14	1464.30
664.32	1482.73
664.51	1468.39
664.70	1480.68
664.89	1607.66
665.07	1462.25
665.26	1542.12
665.45	1578.98
665.64	1613.80
665.82	1538.02
666.01	1513.45
666.20	1513.45
666.38	1656.81
666.57	1654.76
666.76	1796.07
666.95	3043.28
667.13	7546.76
667.32	15533.84
667.51	20104.91
667.69	23471.77
667.88	25171.58
668.07	22214.32
668.25	15789.84
668.44	12531.52
668.63	10002.28
668.81	8449.92
669.00	7544.72
669.19	7032.72
669.38	6262.69
669.56	5584.81
669.75	4843.45
669.94	4083.65
670.12	3418.06
670.31	2758.61
670.50	2504.67
670.68	2095.07
670.87	1980.39
671.06	1802.21
671.24	1673.19
671.43	1703.91
671.62	1658.85
671.80	1581.03
671.99	1720.29
672.18	1558.50
672.36	1609.70
672.55	1591.27
672.74	1689.57
672.92	1515.50
673.11	1587.18
673.29	1519.59
673.48	1619.94
673.67	1513.45
673.85	1583.08
674.04	1583.08
674.23	1566.70
674.41	1593.32
674.60	1531.88
674.79	1449.96
674.97	1527.78
675.16	1554.41
675.34	1593.32
675.53	1568.74
675.72	1589.22
675.90	1617.90
676.09	1507.30
676.28	1486.83
676.46	1423.34
676.65	1546.22
676.83	1544.17
677.02	1554.41
677.21	1456.11
677.39	1540.07
677.58	1490.92
677.77	1542.12
677.95	1560.55
678.14	1511.40
678.32	1562.60
678.51	1542.12
678.70	1644.52
678.88	1523.69
679.07	1589.22
679.25	1538.02
679.44	1486.83
679.63	1507.30
679.81	1591.27
680.00	1558.50
680.18	1478.63
680.37	1595.37
680.55	1468.39
680.74	1460.20
680.93	1503.21
681.11	1615.85
681.30	1593.32
681.48	1535.98
681.67	1558.50
681.85	1525.74
682.04	1458.15
682.23	1611.75
682.41	1581.03
682.60	1517.54
682.78	1542.12
682.97	1583.08
683.15	1607.66
683.34	1558.50
683.53	1538.02
683.71	1480.68
683.90	1595.37
684.08	1624.04
684.27	1484.78
684.45	1595.37
684.64	1527.78
684.82	1472.49
685.01	1544.17
685.19	1591.27
685.38	1599.46
685.57	1495.02
685.75	1548.26
685.94	1513.45
686.12	1495.02
686.31	1501.16
686.49	1632.23
686.68	1486.83
686.86	1535.98
687.05	1621.99
687.23	1601.51
687.42	1447.91
687.60	1509.35
687.79	1589.22
687.97	1628.14
688.16	1578.98
688.34	1574.89
688.53	1417.19
688.71	1542.12
688.90	1630.18
689.08	1529.83
689.27	1542.12
689.45	1589.22
689.64	1564.65
689.82	1511.40
690.01	1624.04
690.19	1566.70
690.38	1591.27
690.56	1605.61
690.75	1499.11
690.93	1460.20
691.12	1509.35
691.30	1574.89
691.49	1495.02
691.67	1538.02
691.86	1570.79
692.04	1550.31
692.23	1538.02
692.41	1632.23
692.60	1691.62
692.78	1628.14
692.97	1615.85
693.15	1632.23
693.34	1658.85
693.52	1605.61
693.71	1556.46
693.89	1542.12
694.08	1480.68
694.26	1591.27
694.44	1611.75
694.63	1597.42
694.81	1486.83
695.00	1507.30
695.18	1603.56
695.37	1697.77
695.55	1568.74
695.74	1515.50
695.92	1531.88
696.10	1517.54
696.29	1505.26
696.47	1533.93
696.66	1396.71
696.84	1429.48
697.03	1570.79
697.21	1665.00
697.40	2013.15
697.58	1568.74
697.76	1525.74
697.95	1576.94
698.13	1509.35
698.32	1525.74
698.50	1495.02
698.68	1583.08
698.87	1550.31
699.05	1583.08
699.24	1482.73
699.42	1484.78
699.61	1589.22
699.79	1566.70
699.97	1550.31
700.16	1501.16
700.34	1558.50
700.53	1585.13
700.71	1679.33
700.89	1556.46
701.08	1566.70
701.26	1546.22
701.45	1923.04
701.63	1519.59
701.81	1507.30
702.00	1552.36
702.18	1527.78
702.37	1527.78
702.55	1630.18
702.73	1742.82
702.92	1683.43
703.10	1822.69
703.28	1886.18
703.47	1724.39
703.65	1705.96
703.84	1667.05
704.02	1650.66
704.20	1632.23
704.39	1540.07
704.57	1613.80
704.75	1626.09
704.94	1634.28
705.12	1531.88
705.30	1650.66
705.49	1806.31
705.67	2854.87
705.86	7399.31
706.04	14407.46
706.22	18394.86
706.41	21649.08
706.59	22841.00
706.77	20809.41
706.96	14774.05
707.14	11741.00
707.32	9627.50
707.51	8677.24
707.69	7561.10
707.87	6752.15
708.06	5607.34
708.24	4712.38
708.42	3637.19
708.61	2990.03
708.79	2271.20
708.97	2045.92
709.16	1859.56
709.34	1724.39
709.52	1621.99
709.71	1609.70
709.89	1609.70
710.07	1525.74
710.26	1538.02
710.44	1587.18
710.62	1603.56
710.80	1558.50
710.99	1640.42
711.17	1533.93
711.35	1531.88
711.54	1542.12
711.72	1671.14
711.90	1521.64
712.09	1634.28
712.27	1619.94
712.45	1615.85
712.63	1517.54
712.82	1507.30
713.00	1490.92
713.18	1615.85
713.37	1615.85
713.55	1560.55
713.73	1552.36
713.91	1544.17
714.10	1550.31
714.28	1552.36
714.46	1525.74
714.65	1609.70
714.83	1490.92
715.01	1564.65
715.19	1505.26
715.38	1449.96
715.56	1605.61
715.74	1517.54
715.92	1486.83
716.11	1574.89
716.29	1484.78
716.47	1523.69
716.65	1525.74
716.84	1486.83
717.02	1521.64
717.20	1466.35
717.38	1495.02
717.57	1562.60
717.75	1535.98
717.93	1490.92
718.11	1597.42
718.30	1564.65
718.48	1626.09
718.66	1581.03
718.84	1535.98
719.03	1501.16
719.21	1519.59
719.39	1578.98
719.57	1578.98
719.75	1632.23
719.94	1517.54
720.12	1501.16
720.30	1544.17
720.48	1576.94
720.67	1523.69
720.85	1538.02
721.03	1521.64
721.21	1503.21
721.39	1587.18
721.58	1527.78
721.76	1599.46
721.94	1564.65
722.12	1576.94
722.30	1574.89
722.49	1527.78
722.67	1548.26
722.85	1603.56
723.03	1480.68
723.21	1521.64
723.40	1601.51
723.58	1605.61
723.76	1533.93
723.94	1652.71
724.12	1576.94
724.30	1636.33
724.49	1720.29
724.67	1560.55
724.85	1640.42
725.03	1552.36
725.21	1595.37
725.40	1656.81
725.58	1535.98
725.76	1599.46
725.94	1560.55
726.12	1566.70
726.30	1486.83
726.49	1540.07
726.67	1538.02
726.85	1509.35
727.03	1650.66
727.21	1822.69
727.39	2195.42
727.57	3235.79
727.76	4472.76
727.94	4818.87
728.12	5009.33
728.30	4915.12
728.48	4138.94
728.66	3620.81
728.84	3205.07
729.03	2871.25
729.21	2619.35
729.39	2414.56
729.57	2015.20
729.75	1843.17
729.93	1728.49
730.11	1652.71
730.30	1568.74
730.48	1609.70
730.66	1628.14
730.84	1566.70
731.02	1517.54
731.20	1531.88
731.38	1572.84
731.56	1507.30
731.74	1560.55
731.93	1574.89
732.11	1542.12
732.29	1488.87
732.47	1585.13
732.65	1538.02
732.83	1595.37
733.01	1497.07
733.19	1544.17
733.37	1585.13
733.56	1583.08
733.74	1484.78
733.92	1609.70
734.10	1544.17
734.28	1583.08
734.46	1499.11
734.64	1470.44
734.82	1529.83
735.00	1556.46
735.18	1439.72
735.36	1617.90
735.54	1566.70
735.73	1611.75
735.91	1593.32
736.09	1597.42
736.27	1527.78
736.45	1480.68
736.63	1437.67
736.81	1511.40
736.99	1589.22
737.17	1523.69
737.35	1558.50
737.53	1519.59
737.71	1535.98
737.89	1578.98
738.07	1529.83
738.25	1478.63
738.43	1490.92
738.61	1519.59
738.80	1492.97
738.98	1366.00
739.16	1480.68
739.34	1542.12
739.52	1560.55
739.70	1538.02
739.88	1607.66
740.06	1572.84
740.24	1509.35
740.42	1640.42
740.60	1484.78
740.78	1474.54
740.96	1458.15
741.14	1449.96
741.32	1638.38
741.50	1495.02
741.68	1681.38
741.86	1675.24
742.04	1470.44
742.22	1470.44
742.40	1550.31
742.58	1558.50
742.76	1521.64
742.94	1597.42
743.12	1435.63
743.30	1503.21
743.48	1546.22
743.66	1544.17
743.84	1556.46
744.02	1574.89
744.20	1583.08
744.38	1550.31
744.56	1509.35
744.74	1662.95
744.92	1583.08
745.10	1703.91
745.28	1564.65
745.46	1609.70
745.64	1499.11
745.82	1609.70
746.00	1488.87
746.18	1593.32
746.36	1437.67
746.54	1525.74
746.72	1509.35
746.90	1505.26
747.08	1542.12
747.26	1525.74
747.44	1607.66
747.62	1552.36
747.80	1560.55
747.98	1597.42
748.15	1603.56
748.33	1656.81
748.51	1535.98
748.69	1665.00
748.87	1599.46
749.05	1568.74
749.23	1550.31
749.41	1544.17
749.59	1484.78
749.77	1556.46
749.95	1484.78
750.13	1484.78
750.31	1626.09
750.49	1556.46
750.67	1511.40
750.85	1585.13
751.03	1535.98
751.20	1599.46
751.38	1560.55
751.56	1556.46
751.74	1538.02
751.92	1439.72
752.10	1460.20
752.28	1576.94
752.46	1511.40
752.64	1578.98
752.82	1454.06
753.00	1591.27
753.18	1589.22
753.35	1511.40
753.53	1550.31
753.71	1497.07
753.89	1617.90
754.07	1576.94
754.25	1611.75
754.43	1548.26
754.61	1466.35
754.79	1503.21
754.97	1595.37
755.14	1542.12
755.32	1497.07
755.50	1591.27
755.68	1599.46
755.86	1540.07
756.04	1452.01
756.22	1449.96
756.40	1554.41
756.57	1601.51
756.75	1419.24
756.93	1535.98
757.11	1605.61
757.29	1499.11
757.47	1533.93
757.65	1484.78
757.82	1413.10
758.00	1466.35
758.18	1456.11
758.36	1511.40
758.54	1595.37
758.72	1390.57
758.90	1646.57
759.07	1452.01
759.25	1525.74
759.43	1566.70
759.61	1529.83
759.79	1939.43
759.97	1458.15
760.15	1474.54
760.32	1515.50
760.50	1583.08
760.68	1591.27
760.86	1392.62
761.04	1634.28
761.22	1535.98
761.39	1523.69
761.57	1591.27
761.75	1538.02
761.93	1589.22
762.11	1349.61
762.28	1568.74
762.46	1515.50
762.64	1607.66
762.82	1501.16
763.00	1517.54
763.18	1538.02
763.35	1531.88
763.53	1615.85
763.71	1568.74
763.89	1572.84
764.07	1484.78
764.24	1562.60
764.42	1572.84
764.60	1540.07
764.78	1529.83
764.96	1595.37
765.13	1578.98
765.31	1517.54
765.49	1583.08
765.67	1540.07
765.84	1505.26
766.02	1488.87
766.20	1472.49
766.38	1607.66
766.56	1554.41
766.73	1597.42
766.91	1517.54
767.09	1507.30
767.27	1587.18
767.44	1488.87
767.62	1578.98
767.80	1578.98
767.98	1566.70
768.15	1441.77
768.33	1572.84
768.51	1527.78
768.69	1533.93
768.87	1595.37
769.04	1535.98
769.22	1640.42
769.40	1552.36
769.58	1730.53
769.75	1535.98
769.93	1642.47
770.11	1484.78
770.28	1515.50
770.46	1591.27
770.64	1548.26
770.82	1564.65
770.99	1511.40
771.17	1546.22
771.35	1591.27
771.53	1509.35
771.70	1578.98
771.88	1546.22
772.06	1531.88
772.23	1601.51
772.41	1523.69
772.59	1501.16
772.77	1480.68
772.94	1488.87
773.12	1605.61
773.30	1507.30
773.47	1535.98
773.65	1470.44
773.83	1566.70
774.01	1523.69
774.18	1492.97
774.36	1501.16
774.54	1546.22
774.71	1472.49
774.89	1515.50
775.07	1511.40
775.24	1468.39
775.42	1546.22
775.60	1599.46
775.78	1515.50
775.95	1511.40
776.13	1454.06
776.31	1370.09
776.48	1529.83
776.66	1593.32
776.84	1566.70
777.01	1527.78
777.19	1474.54
777.37	1636.33
777.54	1527.78
777.72	1601.51
777.90	1550.31
778.07	1513.45
778.25	1619.94
778.43	1601.51
778.60	1462.25
778.78	1490.92
778.96	1572.84
779.13	1519.59
779.31	1615.85
779.49	1503.21
779.66	1544.17
779.84	1574.89
780.01	1548.26
780.19	1484.78
780.37	1636.33
780.54	1542.12
780.72	1552.36
780.90	1509.35
781.07	1560.55
781.25	1462.25
781.43	1503.21
781.60	1554.41
781.78	1632.23
781.95	1572.84
782.13	1533.93
782.31	1511.40
782.48	1415.15
782.66	1533.93
782.83	1619.94
783.01	1562.60
783.19	1482.73
783.36	1509.35
783.54	1507.30
783.72	1560.55
783.89	1593.32
784.07	1544.17
784.24	1615.85
784.42	1558.50
784.60	1507.30
784.77	1535.98
784.95	1429.48
785.12	1519.59
785.30	1546.22
785.47	1538.02
785.65	1439.72
785.83	1562.60
786.00	1472.49
786.18	1515.50
786.35	1507.30
786.53	1554.41
786.71	1507.30
786.88	1519.59
787.06	1503.21
787.23	1568.74
787.41	1478.63
787.58	1456.11
787.76	1523.69
787.94	1492.97
788.11	1529.83
788.29	1505.26
788.46	1595.37
788.64	1480.68
788.81	1527.78
788.99	1581.03
789.16	1503.21
789.34	1492.97
789.52	1505.26
789.69	1501.16
789.87	1531.88
790.04	1509.35
790.22	1615.85
790.39	1650.66
790.57	1454.06
790.74	1515.50
790.92	1540.07
791.09	1499.11
791.27	1531.88
791.44	1556.46
791.62	1558.50
791.79	1646.57
791.97	1560.55
792.15	1716.20
792.32	1552.36
792.50	1572.84
792.67	1564.65
792.85	1583.08
793.02	1558.50
793.20	1542.12
793.37	1470.44
793.55	1490.92
793.72	1474.54
793.90	1542.12
794.07	1478.63
794.25	1511.40
794.42	1572.84
794.60	1503.21
794.77	1611.75
794.95	1560.55
795.12	1605.61
795.30	1492.97
795.47	1503.21
795.65	1697.77
795.82	1486.83
796.00	1486.83
796.17	1556.46
796.34	1564.65
796.52	1492.97
796.69	1585.13
796.87	1540.07
797.04	1497.07
797.22	1574.89
797.39	1572.84
797.57	1478.63
797.74	1505.26
797.92	1517.54
798.09	1452.01
798.27	1572.84
798.44	1521.64
798.62	1540.07
798.79	1556.46
798.96	1525.74
799.14	1601.51
799.31	1568.74
799.49	1540.07
799.66	1507.30
799.84	1486.83
800.01	1544.17
800.19	1556.46
800.36	1429.48
800.53	1609.70
800.71	1546.22
800.88	1576.94
801.06	1542.12
801.23	1505.26
801.41	1529.83
801.58	1556.46
801.75	1501.16
801.93	1523.69
802.10	1595.37
802.28	1505.26
802.45	1429.48
802.63	1560.55
802.80	1656.81
802.97	1558.50
803.15	1548.26
803.32	1550.31
803.50	1458.15
803.67	1476.59
803.84	1478.63
804.02	1556.46
804.19	1499.11
804.37	1398.76
804.54	1515.50
804.71	1497.07
804.89	1523.69
805.06	1525.74
805.24	1417.19
805.41	1486.83
805.58	1460.20
805.76	1658.85
805.93	1558.50
806.10	1660.90
806.28	1511.40
806.45	1538.02
806.63	1452.01
806.80	1540.07
806.97	1488.87
807.15	1497.07
807.32	1552.36
807.49	1593.32
807.67	1466.35
807.84	1591.27
808.01	1449.96
808.19	1615.85
808.36	1652.71
808.54	1511.40
808.71	1488.87
808.88	1525.74
809.06	1611.75
809.23	1628.14
809.40	1460.20
809.58	1595.37
809.75	1488.87
809.92	1441.77
810.10	1660.90
810.27	1535.98
810.44	1509.35
810.62	1546.22
810.79	1628.14
810.96	1527.78
811.14	1456.11
811.31	1564.65
811.48	1568.74
811.66	1538.02
811.83	1585.13
812.00	1531.88
812.18	1527.78
812.35	1671.14
812.52	1566.70
812.69	1495.02
812.87	1511.40
813.04	1533.93
813.21	1572.84
813.39	1492.97
813.56	1558.50
813.73	1572.84
813.91	1466.35
814.08	1505.26
814.25	1550.31
814.42	1449.96
814.60	1576.94
814.77	1550.31
814.94	1535.98
815.12	1581.03
815.29	1591.27
815.46	1540.07
815.63	1613.80
815.81	1544.17
815.98	1505.26
816.15	1556.46
816.33	1572.84
816.50	1503.21
816.67	1585.13
816.84	1546.22
817.02	1503.21
817.19	1505.26
817.36	1611.75
817.53	1533.93
817.71	1447.91
817.88	1548.26
818.05	1521.64
818.22	1503.21
818.40	1617.90
818.57	1503.21
818.74	1542.12
818.91	1462.25
819.09	1527.78
819.26	1574.89
819.43	1460.20
819.60	1525.74
819.78	1490.92
819.95	1544.17
820.12	1488.87
820.29	1599.46
820.47	1593.32
820.64	1482.73
820.81	1558.50
820.98	1490.92
821.15	1513.45
821.33	1490.92
821.50	1497.07
821.67	1601.51
821.84	1474.54
822.02	1558.50
822.19	1609.70
822.36	1519.59
822.53	1505.26
822.70	1521.64
822.88	1484.78
823.05	1667.05
823.22	1540.07
823.39	1495.02
823.56	1478.63
823.74	1644.52
823.91	1503.21
824.08	1437.67
824.25	1523.69
824.42	1554.41
824.60	1466.35
824.77	1570.79
824.94	1523.69
825.11	1560.55
825.28	1550.31
825.45	1501.16
825.63	1564.65
825.80	1519.59
825.97	1517.54
826.14	1486.83
826.31	1515.50
826.48	1564.65
826.66	1441.77
826.83	1587.18
827.00	1613.80
827.17	1419.24
827.34	1589.22
827.51	1509.35
827.69	1542.12
827.86	1517.54
828.03	1486.83
828.20	1507.30
828.37	1517.54
828.54	1568.74
828.71	1527.78
828.89	1583.08
829.06	1488.87
829.23	1568.74
829.40	1525.74
829.57	1540.07
829.74	1517.54
829.91	1476.59
830.09	1466.35
830.26	1560.55
830.43	1611.75
830.60	1591.27
830.77	1552.36
830.94	1568.74
831.11	1521.64
831.28	1525.74
831.46	1587.18
831.63	1538.02
831.80	1560.55
831.97	1531.88
832.14	1488.87
832.31	1587.18
832.48	1552.36
832.65	1542.12
832.82	1568.74
832.99	1525.74
833.17	1486.83
833.34	1628.14
833.51	1550.31
833.68	1544.17
833.85	1628.14
834.02	1527.78
834.19	1519.59
834.36	1478.63
834.53	1558.50
834.70	1550.31
834.87	1628.14
835.04	1484.78
835.22	1490.92
835.39	1474.54
835.56	1421.29
835.73	1470.44
835.90	1523.69
836.07	1503.21
836.24	1550.31
836.41	1568.74
836.58	1419.24
836.75	1558.50
836.92	1611.75
837.09	1523.69
837.26	1636.33
837.43	1544.17
837.60	1499.11
837.77	1497.07
837.94	1613.80
838.12	1628.14
838.29	1583.08
838.46	1499.11
838.63	1480.68
838.80	1593.32
838.97	1591.27
839.14	1474.54
839.31	1566.70
839.48	1546.22
839.65	1517.54
839.82	1501.16
839.99	1474.54
840.16	1505.26
840.33	1427.43
840.50	1511.40
840.67	1515.50
840.84	1441.77
841.01	1581.03
841.18	1538.02
841.35	1415.15
841.52	1589.22
841.69	1607.66
841.86	1550.31
842.03	1535.98
842.20	1585.13
842.37	1499.11
842.54	1542.12
842.71	1535.98
842.88	1427.43
843.05	1550.31
843.22	1523.69
843.39	1521.64
843.56	1492.97
843.73	1566.70
843.90	1593.32
844.07	1505.26
844.24	1558.50
844.41	1562.60
844.58	1572.84
844.75	1540.07
844.92	1540.07
845.09	1519.59
845.26	1527.78
845.43	1632.23
845.60	1470.44
845.77	1568.74
845.94	1523.69
846.10	1591.27
846.27	1472.49
846.44	1447.91
846.61	1501.16
846.78	1576.94
846.95	1570.79
847.12	1509.35
847.29	1558.50
847.46	1544.17
847.63	1548.26
847.80	1488.87
847.97	1531.88
848.14	1601.51
848.31	1595.37
848.48	1505.26
848.65	1619.94
848.82	1488.87
848.98	1642.47
849.15	1574.89
849.32	1607.66
849.49	1544.17
849.66	1511.40
849.83	1517.54
850.00	1497.07
850.17	1544.17
850.34	1560.55
850.51	1433.58
850.68	1492.97
850.85	1662.95
851.01	1564.65
851.18	1560.55
851.35	1507.30
851.52	1490.92
851.69	1599.46
851.86	1449.96
852.03	1503.21
852.20	1589.22
852.37	1568.74
852.53	1554.41
852.70	1538.02
852.87	1603.56
853.04	1423.34
853.21	1636.33
853.38	1587.18
853.55	1538.02
853.72	1587.18
853.89	1556.46
854.05	1511.40
854.22	1560.55
854.39	1497.07
854.56	1605.61
854.73	1587.18
854.90	1529.83
855.07	1546.22
855.23	1527.78
855.40	1550.31
855.57	1472.49
855.74	1445.87
855.91	1708.01
856.08	1511.40
856.25	1462.25
856.41	1511.40
856.58	1570.79
856.75	1560.55
856.92	1546.22
857.09	1624.04
857.26	1441.77
857.42	1525.74
857.59	1515.50
857.76	1554.41
857.93	1531.88
858.10	1574.89
858.27	1511.40
858.43	1501.16
858.60	1476.59
858.77	1415.15
858.94	1497.07
859.11	1581.03
859.27	1513.45
859.44	1540.07
859.61	1589.22
859.78	1558.50
859.95	1542.12
860.12	1501.16
860.28	1669.09
860.45	1628.14
860.62	1527.78
860.79	1595.37
860.95	1492.97
861.12	1490.92
861.29	1482.73
861.46	1472.49
861.63	1509.35
861.79	1585.13
861.96	1531.88
862.13	1535.98
862.30	1574.89
862.47	1558.50
862.63	1486.83
862.80	1544.17
862.97	1546.22
863.14	1558.50
863.30	1519.59
863.47	1501.16
863.64	1576.94
863.81	1599.46
863.97	1443.82
864.14	1525.74
864.31	1544.17
864.48	1548.26
864.65	1531.88
864.81	1599.46
864.98	1529.83
865.15	1648.61
865.32	1581.03
865.48	1564.65
865.65	1581.03
865.82	1527.78
865.98	1527.78
866.15	1542.12
866.32	1511.40
866.49	1517.54
866.65	1632.23
866.82	1460.20
866.99	1509.35
867.16	1490.92
867.32	1482.73
867.49	1495.02
867.66	1538.02
867.83	1482.73
867.99	1464.30
868.16	1538.02
868.33	1540.07
868.49	1558.50
868.66	1544.17
868.83	1566.70
868.99	1529.83
869.16	1560.55
869.33	1617.90
869.50	1597.42
869.66	1605.61
869.83	1515.50
870.00	1507.30
870.16	1587.18
870.33	1497.07
870.50	1632.23
870.66	1480.68
870.83	1689.57
871.00	1476.59
871.17	1572.84
871.33	1560.55
871.50	1507.30
871.67	1562.60
871.83	1478.63
872.00	1595.37
872.17	1468.39
872.33	1644.52
872.50	1511.40
872.67	1476.59
872.83	1511.40
873.00	1531.88
873.17	1529.83
873.33	1517.54
873.50	1533.93
873.67	1437.67
873.83	1458.15
874.00	1482.73
874.16	1591.27
874.33	1640.42
874.50	1482.73
874.66	1556.46
874.83	1566.70
875.00	1587.18
875.16	1640.42
875.33	1636.33
875.50	1439.72
875.66	1595.37
875.83	1595.37
875.99	1552.36
876.16	1517.54
876.33	1550.31
876.49	1548.26
876.66	1560.55
876.83	1499.11
876.99	1406.95
877.16	1472.49
877.32	1562.60
877.49	1452.01
877.66	1560.55
877.82	1591.27
877.99	1546.22
878.15	1566.70
878.32	1460.20
878.49	1597.42
878.65	1478.63
878.82	1578.98
878.98	1511.40
879.15	1632.23
879.32	1624.04
879.48	1529.83
879.65	1421.29
879.81	1517.54
879.98	1558.50
880.15	1566.70
880.31	1607.66
880.48	1519.59
880.64	1605.61
880.81	1529.83
880.97	1556.46
881.14	1581.03
881.31	1499.11
881.47	1597.42
881.64	1589.22
881.80	1566.70
881.97	1552.36
882.13	1595.37
882.30	1515.50
882.47	1560.55
882.63	1505.26
882.80	1488.87
882.96	1527.78
883.13	1550.31
883.29	1466.35
883.46	1593.32
883.62	1669.09
883.79	1501.16
883.95	1509.35
884.12	1566.70
884.29	1576.94
884.45	1570.79
884.62	1562.60
884.78	1470.44
884.95	1560.55
885.11	1538.02
885.28	1558.50
885.44	1525.74
885.61	1527.78
885.77	1535.98
885.94	1552.36
886.10	1544.17
886.27	1570.79
886.43	1636.33
886.60	1613.80
886.76	1478.63
886.93	1540.07
887.09	1501.16
887.26	1439.72
887.42	1531.88
887.59	1578.98
887.75	1564.65
887.92	1550.31
888.08	1552.36
888.25	1607.66
888.41	1558.50
888.58	1597.42
888.74	1454.06
888.91	1503.21
>>>>>End Processed Spectral Data<<<<<
