SpectraSuite Data File
++++++++++++++++++++++++++++++++++++
Date: Tue May 03 12:55:30 CEST 2016
User: root
Dark Spectrum Present: No
Reference Spectrum Present: No
Number of Sampled Component Spectra: 1
Spectrometers: USB4C02835
Integration Time (usec): 100000 (USB4C02835)
Spectra Averaged: 1 (USB4C02835)
Boxcar Smoothing: 0 (USB4C02835)
Correct for Electrical Dark: No (USB4C02835)
Strobe/Lamp Enabled: No (USB4C02835)
Correct for Detector Non-linearity: No (USB4C02835)
Correct for Stray Light: No (USB4C02835)
Number of Pixels in Processed Spectrum: 3648
>>>>>Begin Processed Spectral Data<<<<<
177.47	1386.47
177.69	1386.47
177.91	1386.47
178.13	1302.51
178.36	1288.17
178.58	1511.40
178.80	1548.26
179.02	1454.06
179.24	1454.06
179.46	1488.87
179.68	1517.54
179.90	1542.12
180.13	1519.59
180.35	1509.35
180.57	1505.26
180.79	1535.98
181.01	1535.98
181.23	1619.94
181.45	1574.89
181.67	1525.74
181.90	1544.17
182.12	1509.35
182.34	1503.21
182.56	1521.64
182.78	1591.27
183.00	1550.31
183.22	1562.60
183.44	1484.78
183.66	1675.24
183.89	1617.90
184.11	1519.59
184.33	1619.94
184.55	1599.46
184.77	1572.84
184.99	1566.70
185.21	1505.26
185.43	1642.47
185.65	1519.59
185.87	1495.02
186.10	1638.38
186.32	1621.99
186.54	1630.18
186.76	1568.74
186.98	1562.60
187.20	1492.97
187.42	1525.74
187.64	1560.55
187.86	1478.63
188.08	1572.84
188.30	1560.55
188.52	1542.12
188.75	1572.84
188.97	1558.50
189.19	1495.02
189.41	1556.46
189.63	1533.93
189.85	1521.64
190.07	1492.97
190.29	1454.06
190.51	1581.03
190.73	1501.16
190.95	1595.37
191.17	1585.13
191.39	1486.83
191.61	1527.78
191.84	1578.98
192.06	1535.98
192.28	1468.39
192.50	1652.71
192.72	1482.73
192.94	1556.46
193.16	1495.02
193.38	1591.27
193.60	1525.74
193.82	1484.78
194.04	1542.12
194.26	1646.57
194.48	1507.30
194.70	1464.30
194.92	1521.64
195.14	1595.37
195.36	1511.40
195.58	1540.07
195.80	1486.83
196.02	1490.92
196.24	1529.83
196.46	1550.31
196.69	1503.21
196.91	1640.42
197.13	1517.54
197.35	1468.39
197.57	1593.32
197.79	1531.88
198.01	1617.90
198.23	1492.97
198.45	1511.40
198.67	1439.72
198.89	1523.69
199.11	1550.31
199.33	1470.44
199.55	1456.11
199.77	1568.74
199.99	1525.74
200.21	1462.25
200.43	1550.31
200.65	1533.93
200.87	1458.15
201.09	1517.54
201.31	1490.92
201.53	1552.36
201.75	1581.03
201.97	1540.07
202.19	1445.87
202.41	1581.03
202.63	1658.85
202.85	1523.69
203.07	1581.03
203.29	1501.16
203.51	1587.18
203.73	1492.97
203.95	1621.99
204.17	1558.50
204.39	1525.74
204.61	1495.02
204.83	1550.31
205.05	1531.88
205.27	1568.74
205.49	1568.74
205.71	1478.63
205.93	1454.06
206.15	1474.54
206.37	1544.17
206.59	1492.97
206.81	1531.88
207.03	1466.35
207.25	1574.89
207.47	1638.38
207.69	1542.12
207.91	1587.18
208.13	1583.08
208.34	1564.65
208.56	1449.96
208.78	1593.32
209.00	1548.26
209.22	1585.13
209.44	1517.54
209.66	1601.51
209.88	1576.94
210.10	1497.07
210.32	1578.98
210.54	1574.89
210.76	1554.41
210.98	1581.03
211.20	1501.16
211.42	1509.35
211.64	1533.93
211.86	1570.79
212.08	1597.42
212.30	1558.50
212.52	1517.54
212.74	1601.51
212.96	1529.83
213.17	1554.41
213.39	1566.70
213.61	1560.55
213.83	1517.54
214.05	1523.69
214.27	1540.07
214.49	1468.39
214.71	1501.16
214.93	1521.64
215.15	1535.98
215.37	1550.31
215.59	1464.30
215.81	1591.27
216.03	1589.22
216.24	1538.02
216.46	1523.69
216.68	1613.80
216.90	1572.84
217.12	1513.45
217.34	1564.65
217.56	1621.99
217.78	1679.33
218.00	1546.22
218.22	1599.46
218.44	1476.59
218.66	1527.78
218.87	1601.51
219.09	1495.02
219.31	1562.60
219.53	1550.31
219.75	1511.40
219.97	1492.97
220.19	1546.22
220.41	1503.21
220.63	1560.55
220.85	1550.31
221.06	1419.24
221.28	1634.28
221.50	1505.26
221.72	1562.60
221.94	1527.78
222.16	1533.93
222.38	1624.04
222.60	1570.79
222.82	1533.93
223.03	1613.80
223.25	1476.59
223.47	1636.33
223.69	1642.47
223.91	1540.07
224.13	1538.02
224.35	1523.69
224.57	1542.12
224.78	1576.94
225.00	1466.35
225.22	1556.46
225.44	1542.12
225.66	1550.31
225.88	1554.41
226.10	1597.42
226.32	1587.18
226.53	1585.13
226.75	1533.93
226.97	1589.22
227.19	1544.17
227.41	1456.11
227.63	1538.02
227.85	1497.07
228.06	1538.02
228.28	1507.30
228.50	1548.26
228.72	1458.15
228.94	1574.89
229.16	1470.44
229.37	1492.97
229.59	1492.97
229.81	1587.18
230.03	1505.26
230.25	1429.48
230.47	1443.82
230.69	1556.46
230.90	1654.76
231.12	1552.36
231.34	1484.78
231.56	1566.70
231.78	1517.54
232.00	1523.69
232.21	1531.88
232.43	1548.26
232.65	1421.29
232.87	1593.32
233.09	1454.06
233.30	1529.83
233.52	1638.38
233.74	1488.87
233.96	1452.01
234.18	1554.41
234.40	1558.50
234.61	1630.18
234.83	1517.54
235.05	1460.20
235.27	1667.05
235.49	1591.27
235.70	1634.28
235.92	1558.50
236.14	1540.07
236.36	1646.57
236.58	1558.50
236.79	1540.07
237.01	1517.54
237.23	1587.18
237.45	1626.09
237.67	1441.77
237.88	1509.35
238.10	1546.22
238.32	1456.11
238.54	1593.32
238.76	1599.46
238.97	1523.69
239.19	1529.83
239.41	1515.50
239.63	1568.74
239.85	1550.31
240.06	1527.78
240.28	1515.50
240.50	1611.75
240.72	1474.54
240.93	1531.88
241.15	1507.30
241.37	1472.49
241.59	1578.98
241.81	1501.16
242.02	1538.02
242.24	1566.70
242.46	1601.51
242.68	1583.08
242.89	1642.47
243.11	1486.83
243.33	1564.65
243.55	1531.88
243.76	1554.41
243.98	1464.30
244.20	1542.12
244.42	1542.12
244.64	1519.59
244.85	1456.11
245.07	1480.68
245.29	1548.26
245.51	1497.07
245.72	1525.74
245.94	1556.46
246.16	1505.26
246.38	1511.40
246.59	1468.39
246.81	1474.54
247.03	1548.26
247.24	1472.49
247.46	1470.44
247.68	1546.22
247.90	1550.31
248.11	1587.18
248.33	1513.45
248.55	1550.31
248.77	1488.87
248.98	1621.99
249.20	1533.93
249.42	1529.83
249.64	1572.84
249.85	1441.77
250.07	1443.82
250.29	1609.70
250.50	1619.94
250.72	1490.92
250.94	1556.46
251.16	1611.75
251.37	1570.79
251.59	1599.46
251.81	1591.27
252.02	1693.67
252.24	1550.31
252.46	1570.79
252.68	1535.98
252.89	1542.12
253.11	1460.20
253.33	1607.66
253.54	1538.02
253.76	1525.74
253.98	1523.69
254.20	1531.88
254.41	1601.51
254.63	1480.68
254.85	1449.96
255.06	1558.50
255.28	1460.20
255.50	1570.79
255.71	1558.50
255.93	1499.11
256.15	1593.32
256.36	1535.98
256.58	1521.64
256.80	1527.78
257.02	1564.65
257.23	1525.74
257.45	1593.32
257.67	1523.69
257.88	1587.18
258.10	1484.78
258.32	1495.02
258.53	1519.59
258.75	1578.98
258.97	1470.44
259.18	1527.78
259.40	1621.99
259.62	1597.42
259.83	1540.07
260.05	1533.93
260.27	1716.20
260.48	1542.12
260.70	1519.59
260.92	1546.22
261.13	1527.78
261.35	1497.07
261.57	1548.26
261.78	1449.96
262.00	1507.30
262.22	1578.98
262.43	1476.59
262.65	1452.01
262.86	1558.50
263.08	1603.56
263.30	1562.60
263.51	1419.24
263.73	1509.35
263.95	1609.70
264.16	1480.68
264.38	1538.02
264.60	1583.08
264.81	1472.49
265.03	1546.22
265.25	1533.93
265.46	1568.74
265.68	1669.09
265.89	1533.93
266.11	1435.63
266.33	1568.74
266.54	1611.75
266.76	1568.74
266.98	1535.98
267.19	1572.84
267.41	1589.22
267.62	1474.54
267.84	1507.30
268.06	1550.31
268.27	1495.02
268.49	1548.26
268.70	1576.94
268.92	1525.74
269.14	1392.62
269.35	1423.34
269.57	1529.83
269.79	1578.98
270.00	1572.84
270.22	1624.04
270.43	1634.28
270.65	1476.59
270.87	1515.50
271.08	1644.52
271.30	1578.98
271.51	1570.79
271.73	1564.65
271.95	1589.22
272.16	1572.84
272.38	1570.79
272.59	1529.83
272.81	1542.12
273.02	1566.70
273.24	1554.41
273.46	1550.31
273.67	1542.12
273.89	1542.12
274.10	1560.55
274.32	1558.50
274.54	1562.60
274.75	1544.17
274.97	1421.29
275.18	1585.13
275.40	1531.88
275.61	1507.30
275.83	1529.83
276.05	1472.49
276.26	1538.02
276.48	1497.07
276.69	1517.54
276.91	1499.11
277.12	1570.79
277.34	1548.26
277.55	1609.70
277.77	1527.78
277.99	1535.98
278.20	1466.35
278.42	1517.54
278.63	1464.30
278.85	1560.55
279.06	1529.83
279.28	1505.26
279.49	1599.46
279.71	1476.59
279.93	1509.35
280.14	1566.70
280.36	1533.93
280.57	1550.31
280.79	1603.56
281.00	1478.63
281.22	1527.78
281.43	1501.16
281.65	1439.72
281.86	1492.97
282.08	1531.88
282.29	1662.95
282.51	1523.69
282.73	1513.45
282.94	1462.25
283.16	1515.50
283.37	1603.56
283.59	1581.03
283.80	1515.50
284.02	1538.02
284.23	1572.84
284.45	1437.67
284.66	1499.11
284.88	1497.07
285.09	1591.27
285.31	1554.41
285.52	1515.50
285.74	1437.67
285.95	1509.35
286.17	1570.79
286.38	1566.70
286.60	1429.48
286.81	1517.54
287.03	1533.93
287.24	1560.55
287.46	1574.89
287.67	1523.69
287.89	1673.19
288.10	1570.79
288.32	1486.83
288.53	1566.70
288.75	1562.60
288.96	1509.35
289.18	1472.49
289.39	1587.18
289.61	1560.55
289.82	1578.98
290.04	1585.13
290.25	1542.12
290.47	1558.50
290.68	1470.44
290.90	1605.61
291.11	1505.26
291.33	1535.98
291.54	1458.15
291.76	1523.69
291.97	1572.84
292.18	1542.12
292.40	1540.07
292.61	1560.55
292.83	1650.66
293.04	1495.02
293.26	1564.65
293.47	1443.82
293.69	1482.73
293.90	1546.22
294.12	1593.32
294.33	1492.97
294.55	1511.40
294.76	1656.81
294.97	1583.08
295.19	1656.81
295.40	1570.79
295.62	1511.40
295.83	1488.87
296.05	1578.98
296.26	1568.74
296.48	1476.59
296.69	1585.13
296.90	1558.50
297.12	1624.04
297.33	1605.61
297.55	1548.26
297.76	1570.79
297.98	1626.09
298.19	1595.37
298.41	1486.83
298.62	1466.35
298.83	1597.42
299.05	1562.60
299.26	1503.21
299.48	1484.78
299.69	1513.45
299.90	1570.79
300.12	1482.73
300.33	1599.46
300.55	1527.78
300.76	1519.59
300.98	1413.10
301.19	1583.08
301.40	1460.20
301.62	1540.07
301.83	1523.69
302.05	1544.17
302.26	1531.88
302.47	1591.27
302.69	1464.30
302.90	1554.41
303.12	1513.45
303.33	1628.14
303.54	1619.94
303.76	1478.63
303.97	1552.36
304.19	1626.09
304.40	1501.16
304.61	1603.56
304.83	1595.37
305.04	1593.32
305.26	1515.50
305.47	1462.25
305.68	1474.54
305.90	1474.54
306.11	1576.94
306.33	1511.40
306.54	1523.69
306.75	1490.92
306.97	1468.39
307.18	1568.74
307.39	1492.97
307.61	1490.92
307.82	1531.88
308.04	1550.31
308.25	1515.50
308.46	1576.94
308.68	1533.93
308.89	1550.31
309.10	1593.32
309.32	1533.93
309.53	1525.74
309.74	1560.55
309.96	1517.54
310.17	1630.18
310.39	1513.45
310.60	1564.65
310.81	1554.41
311.03	1429.48
311.24	1576.94
311.45	1495.02
311.67	1583.08
311.88	1449.96
312.09	1490.92
312.31	1464.30
312.52	1507.30
312.73	1517.54
312.95	1456.11
313.16	1507.30
313.37	1544.17
313.59	1507.30
313.80	1531.88
314.01	1648.61
314.23	1499.11
314.44	1492.97
314.65	1484.78
314.87	1476.59
315.08	1460.20
315.29	1515.50
315.51	1525.74
315.72	1544.17
315.93	1652.71
316.15	1542.12
316.36	1474.54
316.57	1525.74
316.79	1615.85
317.00	1443.82
317.21	1484.78
317.43	1511.40
317.64	1480.68
317.85	1468.39
318.07	1593.32
318.28	1683.43
318.49	1671.14
318.70	1779.68
318.92	1738.73
319.13	1701.86
319.34	1728.49
319.56	1619.94
319.77	1597.42
319.98	1587.18
320.20	1607.66
320.41	1603.56
320.62	1624.04
320.83	1511.40
321.05	1617.90
321.26	1566.70
321.47	1554.41
321.69	1503.21
321.90	1554.41
322.11	1548.26
322.32	1538.02
322.54	1587.18
322.75	1488.87
322.96	1671.14
323.18	1484.78
323.39	1456.11
323.60	1550.31
323.81	1574.89
324.03	1538.02
324.24	1593.32
324.45	1550.31
324.66	1480.68
324.88	1538.02
325.09	1554.41
325.30	1486.83
325.52	1529.83
325.73	1550.31
325.94	1540.07
326.15	1482.73
326.37	1480.68
326.58	1644.52
326.79	1591.27
327.00	1417.19
327.22	1570.79
327.43	1519.59
327.64	1445.87
327.85	1593.32
328.07	1591.27
328.28	1617.90
328.49	1533.93
328.70	1499.11
328.92	1521.64
329.13	1538.02
329.34	1581.03
329.55	1574.89
329.76	1570.79
329.98	1501.16
330.19	1542.12
330.40	1517.54
330.61	1599.46
330.83	1570.79
331.04	1472.49
331.25	1562.60
331.46	1554.41
331.68	1402.86
331.89	1615.85
332.10	1517.54
332.31	1519.59
332.52	1423.34
332.74	1609.70
332.95	1462.25
333.16	1570.79
333.37	1558.50
333.58	1546.22
333.80	1468.39
334.01	1468.39
334.22	1552.36
334.43	1476.59
334.64	1576.94
334.86	1486.83
335.07	1464.30
335.28	1591.27
335.49	1462.25
335.70	1591.27
335.92	1605.61
336.13	1656.81
336.34	1566.70
336.55	1525.74
336.76	1607.66
336.98	1497.07
337.19	1527.78
337.40	1556.46
337.61	1683.43
337.82	1570.79
338.04	1505.26
338.25	1517.54
338.46	1484.78
338.67	1568.74
338.88	1454.06
339.09	1527.78
339.31	1490.92
339.52	1488.87
339.73	1535.98
339.94	1495.02
340.15	1519.59
340.36	1560.55
340.58	1509.35
340.79	1460.20
341.00	1591.27
341.21	1519.59
341.42	1585.13
341.63	1527.78
341.85	1611.75
342.06	1611.75
342.27	1544.17
342.48	1556.46
342.69	1443.82
342.90	1570.79
343.12	1552.36
343.33	1480.68
343.54	1576.94
343.75	1669.09
343.96	1540.07
344.17	1601.51
344.38	1486.83
344.60	1517.54
344.81	1478.63
345.02	1548.26
345.23	1558.50
345.44	1560.55
345.65	1652.71
345.86	1538.02
346.07	1570.79
346.29	1527.78
346.50	1576.94
346.71	1562.60
346.92	1611.75
347.13	1662.95
347.34	1476.59
347.55	1503.21
347.76	1533.93
347.98	1499.11
348.19	1564.65
348.40	1550.31
348.61	1521.64
348.82	1574.89
349.03	1576.94
349.24	1409.00
349.45	1714.15
349.66	1533.93
349.88	1521.64
350.09	1511.40
350.30	1566.70
350.51	1617.90
350.72	1515.50
350.93	1529.83
351.14	1464.30
351.35	1568.74
351.56	1517.54
351.77	1540.07
351.99	1552.36
352.20	1609.70
352.41	1593.32
352.62	1492.97
352.83	1531.88
353.04	1552.36
353.25	1480.68
353.46	1523.69
353.67	1613.80
353.88	1443.82
354.09	1562.60
354.30	1548.26
354.52	1533.93
354.73	1492.97
354.94	1566.70
355.15	1578.98
355.36	1556.46
355.57	1501.16
355.78	1570.79
355.99	1515.50
356.20	1552.36
356.41	1609.70
356.62	1613.80
356.83	1486.83
357.04	1568.74
357.25	1476.59
357.46	1505.26
357.68	1454.06
357.89	1533.93
358.10	1552.36
358.31	1513.45
358.52	1550.31
358.73	1460.20
358.94	1490.92
359.15	1429.48
359.36	1535.98
359.57	1607.66
359.78	1589.22
359.99	1599.46
360.20	1511.40
360.41	1503.21
360.62	1558.50
360.83	1533.93
361.04	1554.41
361.25	1607.66
361.46	1591.27
361.67	1609.70
361.88	1533.93
362.09	1595.37
362.30	1546.22
362.51	1583.08
362.72	1456.11
362.93	1517.54
363.14	1587.18
363.35	1570.79
363.56	1517.54
363.78	1531.88
363.99	1636.33
364.20	1499.11
364.41	1509.35
364.62	1624.04
364.83	1527.78
365.04	1482.73
365.25	1589.22
365.46	1636.33
365.67	1531.88
365.88	1515.50
366.09	1535.98
366.30	1566.70
366.51	1503.21
366.72	1474.54
366.93	1603.56
367.14	1470.44
367.35	1605.61
367.56	1495.02
367.77	1564.65
367.98	1544.17
368.18	1484.78
368.39	1513.45
368.60	1468.39
368.81	1542.12
369.02	1570.79
369.23	1472.49
369.44	1529.83
369.65	1568.74
369.86	1533.93
370.07	1638.38
370.28	1445.87
370.49	1568.74
370.70	1564.65
370.91	1529.83
371.12	1466.35
371.33	1605.61
371.54	1540.07
371.75	1568.74
371.96	1388.52
372.17	1538.02
372.38	1468.39
372.59	1572.84
372.80	1460.20
373.01	1474.54
373.22	1603.56
373.43	1511.40
373.64	1540.07
373.85	1595.37
374.06	1632.23
374.26	1648.61
374.47	1550.31
374.68	1495.02
374.89	1601.51
375.10	1507.30
375.31	1554.41
375.52	1507.30
375.73	1492.97
375.94	1550.31
376.15	1568.74
376.36	1466.35
376.57	1490.92
376.78	1456.11
376.99	1533.93
377.20	1638.38
377.40	1492.97
377.61	1554.41
377.82	1558.50
378.03	1601.51
378.24	1595.37
378.45	1521.64
378.66	1521.64
378.87	1388.52
379.08	1476.59
379.29	1474.54
379.50	1558.50
379.71	1488.87
379.91	1544.17
380.12	1576.94
380.33	1499.11
380.54	1593.32
380.75	1599.46
380.96	1560.55
381.17	1587.18
381.38	1552.36
381.59	1656.81
381.80	1568.74
382.00	1697.77
382.21	1574.89
382.42	1648.61
382.63	1628.14
382.84	1595.37
383.05	1542.12
383.26	1615.85
383.47	1574.89
383.68	1560.55
383.88	1572.84
384.09	1529.83
384.30	1583.08
384.51	1583.08
384.72	1511.40
384.93	1517.54
385.14	1558.50
385.35	1624.04
385.55	1476.59
385.76	1591.27
385.97	1667.05
386.18	1501.16
386.39	1531.88
386.60	1572.84
386.81	1583.08
387.02	1597.42
387.22	1568.74
387.43	1642.47
387.64	1611.75
387.85	1859.56
388.06	3133.39
388.27	7327.63
388.48	10542.94
388.68	12646.21
388.89	13981.48
389.10	13057.85
389.31	10188.64
389.52	9127.80
389.73	7915.40
389.93	7270.29
390.14	6813.59
390.35	6191.01
390.56	5664.68
390.77	4726.71
390.98	3729.35
391.18	2828.24
391.39	2164.70
391.60	1814.50
391.81	1681.38
392.02	1607.66
392.23	1685.48
392.43	1603.56
392.64	1665.00
392.85	1552.36
393.06	1621.99
393.27	1585.13
393.47	1480.68
393.68	1499.11
393.89	1585.13
394.10	1593.32
394.31	1497.07
394.52	1503.21
394.72	1505.26
394.93	1687.53
395.14	1435.63
395.35	1630.18
395.56	1454.06
395.76	1609.70
395.97	1630.18
396.18	1699.81
396.39	1759.21
396.60	1871.84
396.80	1751.01
397.01	1634.28
397.22	1751.01
397.43	1681.38
397.64	1597.42
397.84	1566.70
398.05	1695.72
398.26	1552.36
398.47	1667.05
398.67	1640.42
398.88	1523.69
399.09	1662.95
399.30	1558.50
399.51	1605.61
399.71	1421.29
399.92	1550.31
400.13	1564.65
400.34	1564.65
400.54	1566.70
400.75	1634.28
400.96	1621.99
401.17	1628.14
401.37	1597.42
401.58	1495.02
401.79	1533.93
402.00	1900.52
402.21	1986.53
402.41	1912.80
402.62	1875.94
402.83	1949.67
403.04	1826.79
403.24	1951.71
403.45	1689.57
403.66	1796.07
403.87	1722.34
404.07	1746.92
404.28	1818.60
404.49	1730.53
404.70	1675.24
404.90	1576.94
405.11	1550.31
405.32	1583.08
405.52	1492.97
405.73	1511.40
405.94	1492.97
406.15	1578.98
406.35	1523.69
406.56	1503.21
406.77	1538.02
406.98	1576.94
407.18	1513.45
407.39	1601.51
407.60	1464.30
407.80	1511.40
408.01	1495.02
408.22	1576.94
408.43	1452.01
408.63	1581.03
408.84	1585.13
409.05	1560.55
409.25	1595.37
409.46	1544.17
409.67	1523.69
409.88	1507.30
410.08	1529.83
410.29	1513.45
410.50	1509.35
410.70	1525.74
410.91	1468.39
411.12	1593.32
411.32	1583.08
411.53	1527.78
411.74	1595.37
411.95	1660.90
412.15	1638.38
412.36	1675.24
412.57	1617.90
412.77	1644.52
412.98	1527.78
413.19	1499.11
413.39	1632.23
413.60	1595.37
413.81	1595.37
414.01	1525.74
414.22	1546.22
414.43	1607.66
414.63	1624.04
414.84	1601.51
415.05	1507.30
415.25	1470.44
415.46	1613.80
415.67	1515.50
415.87	1546.22
416.08	1492.97
416.29	1527.78
416.49	1566.70
416.70	1486.83
416.91	1476.59
417.11	1429.48
417.32	1587.18
417.53	1576.94
417.73	1568.74
417.94	1540.07
418.15	1599.46
418.35	1566.70
418.56	1550.31
418.77	1605.61
418.97	1574.89
419.18	1474.54
419.38	1456.11
419.59	1523.69
419.80	1640.42
420.00	1484.78
420.21	1611.75
420.42	1568.74
420.62	1570.79
420.83	1519.59
421.04	1501.16
421.24	1495.02
421.45	1497.07
421.65	1509.35
421.86	1523.69
422.07	1476.59
422.27	1523.69
422.48	1501.16
422.69	1513.45
422.89	1466.35
423.10	1527.78
423.30	1419.24
423.51	1509.35
423.72	1546.22
423.92	1523.69
424.13	1492.97
424.33	1529.83
424.54	1636.33
424.75	1562.60
424.95	1587.18
425.16	1560.55
425.36	1503.21
425.57	1560.55
425.78	1564.65
425.98	1628.14
426.19	1517.54
426.39	1474.54
426.60	1568.74
426.81	1683.43
427.01	1523.69
427.22	1509.35
427.42	1517.54
427.63	1529.83
427.83	1574.89
428.04	1621.99
428.25	1560.55
428.45	1632.23
428.66	1613.80
428.86	1492.97
429.07	1513.45
429.28	1509.35
429.48	1546.22
429.69	1482.73
429.89	1564.65
430.10	1480.68
430.30	1597.42
430.51	1607.66
430.71	1556.46
430.92	1546.22
431.13	1509.35
431.33	1525.74
431.54	1593.32
431.74	1624.04
431.95	1601.51
432.15	1507.30
432.36	1525.74
432.56	1554.41
432.77	1615.85
432.98	1603.56
433.18	1599.46
433.39	1521.64
433.59	1581.03
433.80	1603.56
434.00	1636.33
434.21	1527.78
434.41	1501.16
434.62	1646.57
434.82	1472.49
435.03	1456.11
435.23	1509.35
435.44	1456.11
435.64	1570.79
435.85	1566.70
436.06	1589.22
436.26	1548.26
436.47	1433.58
436.67	1509.35
436.88	1519.59
437.08	1638.38
437.29	1587.18
437.49	1523.69
437.70	1568.74
437.90	1576.94
438.11	1587.18
438.31	1578.98
438.52	1740.77
438.72	1722.34
438.93	1808.36
439.13	1593.32
439.34	1632.23
439.54	1595.37
439.75	1650.66
439.95	1654.76
440.16	1552.36
440.36	1574.89
440.57	1574.89
440.77	1562.60
440.98	1564.65
441.18	1593.32
441.39	1560.55
441.59	1464.30
441.80	1658.85
442.00	1525.74
442.21	1617.90
442.41	1515.50
442.62	1478.63
442.82	1507.30
443.02	1595.37
443.23	1562.60
443.43	1509.35
443.64	1574.89
443.84	1511.40
444.05	1658.85
444.25	1542.12
444.46	1521.64
444.66	1521.64
444.87	1652.71
445.07	1466.35
445.28	1572.84
445.48	1665.00
445.69	1482.73
445.89	1757.16
446.09	1511.40
446.30	1992.67
446.50	3145.68
446.71	4530.11
446.91	5242.80
447.12	5822.38
447.32	5578.67
447.53	4655.03
447.73	3968.96
447.93	3723.21
448.14	3395.53
448.34	3168.21
448.55	3053.52
448.75	2893.78
448.96	2678.74
449.16	2473.95
449.36	2263.01
449.57	1927.14
449.77	1777.64
449.98	1636.33
450.18	1603.56
450.39	1646.57
450.59	1630.18
450.79	1484.78
451.00	1527.78
451.20	1566.70
451.41	1542.12
451.61	1552.36
451.81	1665.00
452.02	1533.93
452.22	1497.07
452.43	1507.30
452.63	1501.16
452.84	1593.32
453.04	1513.45
453.24	1587.18
453.45	1538.02
453.65	1540.07
453.86	1529.83
454.06	1552.36
454.26	1552.36
454.47	1495.02
454.67	1681.38
454.87	1613.80
455.08	1503.21
455.28	1626.09
455.49	1624.04
455.69	1454.06
455.89	1595.37
456.10	1591.27
456.30	1509.35
456.51	1576.94
456.71	1576.94
456.91	1542.12
457.12	1480.68
457.32	1568.74
457.52	1558.50
457.73	1566.70
457.93	1593.32
458.14	1509.35
458.34	1525.74
458.54	1519.59
458.75	1615.85
458.95	1603.56
459.15	1585.13
459.36	1654.76
459.56	1574.89
459.76	1617.90
459.97	1556.46
460.17	1531.88
460.37	1564.65
460.58	1466.35
460.78	1617.90
460.99	1519.59
461.19	1527.78
461.39	1556.46
461.60	1558.50
461.80	1597.42
462.00	1587.18
462.21	1554.41
462.41	1433.58
462.61	1441.77
462.82	1464.30
463.02	1548.26
463.22	1511.40
463.43	1529.83
463.63	1576.94
463.83	1589.22
464.04	1613.80
464.24	1636.33
464.44	1503.21
464.64	1554.41
464.85	1521.64
465.05	1595.37
465.25	1535.98
465.46	1417.19
465.66	1568.74
465.86	1595.37
466.07	1484.78
466.27	1525.74
466.47	1525.74
466.68	1550.31
466.88	1632.23
467.08	1544.17
467.29	1550.31
467.49	1509.35
467.69	1478.63
467.89	1540.07
468.10	1529.83
468.30	1638.38
468.50	1656.81
468.71	1648.61
468.91	1472.49
469.11	1607.66
469.31	1542.12
469.52	1523.69
469.72	1648.61
469.92	1585.13
470.13	1445.87
470.33	1556.46
470.53	1755.11
470.73	2029.54
470.94	2238.43
471.14	2437.08
471.34	2721.75
471.54	2361.31
471.75	2156.51
471.95	2035.68
472.15	1970.15
472.36	1931.23
472.56	2019.30
472.76	1957.86
472.96	1910.75
473.17	1869.80
473.37	1818.60
473.57	1619.94
473.77	1669.09
473.98	1609.70
474.18	1519.59
474.38	1679.33
474.58	1540.07
474.79	1474.54
474.99	1634.28
475.19	1638.38
475.39	1525.74
475.60	1548.26
475.80	1583.08
476.00	1554.41
476.20	1515.50
476.41	1556.46
476.61	1593.32
476.81	1615.85
477.01	1492.97
477.21	1632.23
477.42	1495.02
477.62	1578.98
477.82	1550.31
478.02	1525.74
478.23	1566.70
478.43	1499.11
478.63	1503.21
478.83	1599.46
479.03	1578.98
479.24	1519.59
479.44	1585.13
479.64	1480.68
479.84	1423.34
480.04	1513.45
480.25	1597.42
480.45	1482.73
480.65	1587.18
480.85	1572.84
481.06	1581.03
481.26	1548.26
481.46	1658.85
481.66	1593.32
481.86	1519.59
482.06	1603.56
482.27	1658.85
482.47	1478.63
482.67	1576.94
482.87	1472.49
483.07	1576.94
483.28	1490.92
483.48	1540.07
483.68	1581.03
483.88	1488.87
484.08	1366.00
484.29	1503.21
484.49	1542.12
484.69	1527.78
484.89	1578.98
485.09	1544.17
485.29	1628.14
485.50	1523.69
485.70	1558.50
485.90	1564.65
486.10	1544.17
486.30	1589.22
486.50	1605.61
486.71	1562.60
486.91	1583.08
487.11	1585.13
487.31	1484.78
487.51	1574.89
487.71	1542.12
487.91	1468.39
488.12	1501.16
488.32	1427.43
488.52	1548.26
488.72	1513.45
488.92	1511.40
489.12	1550.31
489.32	1644.52
489.53	1615.85
489.73	1492.97
489.93	1578.98
490.13	1591.27
490.33	1501.16
490.53	1636.33
490.73	1621.99
490.94	1476.59
491.14	1624.04
491.34	1697.77
491.54	2129.89
491.74	2742.23
491.94	3121.10
492.14	3262.41
492.34	3241.93
492.54	2822.10
492.75	2469.85
492.95	2361.31
493.15	2285.53
493.35	2181.09
493.55	2076.64
493.75	2050.02
493.95	1982.43
494.15	1914.85
494.35	1785.83
494.56	1779.68
494.76	1591.27
494.96	1621.99
495.16	1714.15
495.36	1550.31
495.56	1574.89
495.76	1513.45
495.96	1578.98
496.16	1484.78
496.36	1642.47
496.56	1558.50
496.77	1540.07
496.97	1521.64
497.17	1599.46
497.37	1492.97
497.57	1578.98
497.77	1597.42
497.97	1486.83
498.17	1558.50
498.37	1624.04
498.57	1587.18
498.77	1533.93
498.97	1595.37
499.17	1634.28
499.38	1562.60
499.58	1538.02
499.78	1609.70
499.98	1574.89
500.18	1519.59
500.38	1525.74
500.58	1736.68
500.78	2680.79
500.98	5087.15
501.18	6772.63
501.38	8335.23
501.58	8689.53
501.78	8140.68
501.98	6039.46
502.18	5455.79
502.38	4618.17
502.58	4227.01
502.78	3876.80
502.98	3772.36
503.18	3723.21
503.38	3258.32
503.59	3102.67
503.79	2918.36
503.99	2607.06
504.19	2258.91
504.39	2113.50
504.59	2023.39
504.79	2093.02
504.99	1953.76
505.19	1802.21
505.39	1771.49
505.59	1753.06
505.79	1722.34
505.99	1667.05
506.19	1587.18
506.39	1708.01
506.59	1599.46
506.79	1665.00
506.99	1718.25
507.19	1660.90
507.39	1544.17
507.59	1511.40
507.79	1468.39
507.99	1529.83
508.19	1527.78
508.39	1488.87
508.59	1472.49
508.79	1591.27
508.99	1693.67
509.19	1468.39
509.39	1560.55
509.59	1513.45
509.79	1535.98
509.99	1601.51
510.19	1560.55
510.39	1597.42
510.59	1574.89
510.79	1560.55
510.99	1562.60
511.19	1599.46
511.39	1632.23
511.59	1570.79
511.79	1572.84
511.99	1599.46
512.19	1613.80
512.38	1595.37
512.58	1478.63
512.78	1558.50
512.98	1619.94
513.18	1656.81
513.38	1452.01
513.58	1601.51
513.78	1454.06
513.98	1554.41
514.18	1482.73
514.38	1525.74
514.58	1542.12
514.78	1548.26
514.98	1497.07
515.18	1511.40
515.38	1486.83
515.58	1542.12
515.78	1497.07
515.98	1572.84
516.18	1560.55
516.38	1527.78
516.57	1546.22
516.77	1484.78
516.97	1550.31
517.17	1490.92
517.37	1484.78
517.57	1529.83
517.77	1527.78
517.97	1523.69
518.17	1587.18
518.37	1523.69
518.57	1544.17
518.77	1523.69
518.97	1505.26
519.16	1617.90
519.36	1572.84
519.56	1523.69
519.76	1552.36
519.96	1515.50
520.16	1591.27
520.36	1540.07
520.56	1640.42
520.76	1523.69
520.96	1570.79
521.16	1640.42
521.35	1482.73
521.55	1615.85
521.75	1572.84
521.95	1441.77
522.15	1572.84
522.35	1437.67
522.55	1538.02
522.75	1517.54
522.95	1511.40
523.14	1501.16
523.34	1560.55
523.54	1501.16
523.74	1578.98
523.94	1554.41
524.14	1511.40
524.34	1607.66
524.54	1576.94
524.73	1548.26
524.93	1558.50
525.13	1544.17
525.33	1415.15
525.53	1658.85
525.73	1511.40
525.93	1546.22
526.13	1521.64
526.32	1439.72
526.52	1515.50
526.72	1607.66
526.92	1626.09
527.12	1517.54
527.32	1515.50
527.52	1568.74
527.71	1570.79
527.91	1585.13
528.11	1425.39
528.31	1554.41
528.51	1501.16
528.71	1550.31
528.90	1644.52
529.10	1601.51
529.30	1644.52
529.50	1533.93
529.70	1593.32
529.90	1535.98
530.09	1533.93
530.29	1492.97
530.49	1503.21
530.69	1615.85
530.89	1607.66
531.09	1599.46
531.28	1546.22
531.48	1552.36
531.68	1527.78
531.88	1540.07
532.08	1648.61
532.28	1554.41
532.47	1513.45
532.67	1630.18
532.87	1495.02
533.07	1497.07
533.27	1560.55
533.46	1607.66
533.66	1568.74
533.86	1576.94
534.06	1603.56
534.26	1574.89
534.45	1499.11
534.65	1671.14
534.85	1552.36
535.05	1515.50
535.25	1630.18
535.44	1503.21
535.64	1609.70
535.84	1585.13
536.04	1460.20
536.24	1542.12
536.43	1454.06
536.63	1519.59
536.83	1550.31
537.03	1560.55
537.22	1501.16
537.42	1478.63
537.62	1544.17
537.82	1544.17
538.02	1544.17
538.21	1624.04
538.41	1667.05
538.61	1480.68
538.81	1519.59
539.00	1529.83
539.20	1550.31
539.40	1525.74
539.60	1554.41
539.79	1576.94
539.99	1492.97
540.19	1478.63
540.39	1566.70
540.58	1548.26
540.78	1581.03
540.98	1501.16
541.18	1574.89
541.37	1587.18
541.57	1548.26
541.77	1626.09
541.97	1562.60
542.16	1484.78
542.36	1478.63
542.56	1587.18
542.76	1683.43
542.95	1644.52
543.15	1497.07
543.35	1601.51
543.54	1583.08
543.74	1556.46
543.94	1630.18
544.14	1505.26
544.33	1564.65
544.53	1492.97
544.73	1419.24
544.93	1533.93
545.12	1435.63
545.32	1542.12
545.52	1488.87
545.71	1456.11
545.91	1560.55
546.11	1513.45
546.30	1474.54
546.50	1591.27
546.70	1599.46
546.90	1558.50
547.09	1509.35
547.29	1480.68
547.49	1572.84
547.68	1578.98
547.88	1495.02
548.08	1535.98
548.27	1961.95
548.47	1554.41
548.67	1497.07
548.87	1593.32
549.06	1527.78
549.26	1550.31
549.46	1566.70
549.65	1538.02
549.85	1501.16
550.05	1527.78
550.24	1501.16
550.44	1562.60
550.64	1552.36
550.83	1478.63
551.03	1587.18
551.23	1490.92
551.42	1587.18
551.62	1576.94
551.82	1554.41
552.01	1495.02
552.21	1513.45
552.41	1554.41
552.60	1642.47
552.80	1570.79
553.00	1515.50
553.19	1585.13
553.39	1570.79
553.59	1497.07
553.78	1554.41
553.98	1542.12
554.17	1462.25
554.37	1646.57
554.57	1554.41
554.76	1476.59
554.96	1492.97
555.16	1503.21
555.35	1630.18
555.55	1609.70
555.75	1517.54
555.94	1607.66
556.14	1578.98
556.33	1601.51
556.53	1570.79
556.73	1566.70
556.92	1558.50
557.12	1566.70
557.32	1611.75
557.51	1617.90
557.71	1550.31
557.90	1632.23
558.10	1619.94
558.30	1480.68
558.49	1486.83
558.69	1560.55
558.88	1574.89
559.08	1558.50
559.28	1531.88
559.47	1556.46
559.67	1511.40
559.86	1603.56
560.06	1538.02
560.26	1505.26
560.45	1562.60
560.65	1540.07
560.84	1572.84
561.04	1497.07
561.24	1583.08
561.43	1511.40
561.63	1609.70
561.82	1525.74
562.02	1533.93
562.22	1517.54
562.41	1509.35
562.61	1484.78
562.80	1531.88
563.00	1646.57
563.19	1552.36
563.39	1497.07
563.59	1523.69
563.78	1507.30
563.98	1472.49
564.17	1511.40
564.37	1476.59
564.56	1540.07
564.76	1540.07
564.96	1624.04
565.15	1540.07
565.35	1654.76
565.54	1546.22
565.74	1554.41
565.93	1599.46
566.13	1538.02
566.32	1611.75
566.52	1621.99
566.71	1552.36
566.91	1628.14
567.11	1550.31
567.30	1439.72
567.50	1550.31
567.69	1490.92
567.89	1480.68
568.08	1488.87
568.28	1529.83
568.47	1509.35
568.67	1554.41
568.86	1574.89
569.06	1611.75
569.25	1523.69
569.45	1499.11
569.64	1550.31
569.84	1513.45
570.04	1583.08
570.23	1589.22
570.43	1550.31
570.62	1497.07
570.82	1624.04
571.01	1501.16
571.21	1488.87
571.40	1552.36
571.60	1615.85
571.79	1617.90
571.99	1599.46
572.18	1492.97
572.38	1531.88
572.57	1529.83
572.77	1566.70
572.96	1708.01
573.16	1497.07
573.35	1581.03
573.55	1552.36
573.74	1632.23
573.94	1490.92
574.13	1525.74
574.33	1546.22
574.52	1611.75
574.71	1566.70
574.91	1570.79
575.10	1482.73
575.30	1564.65
575.49	1517.54
575.69	1472.49
575.88	1611.75
576.08	1546.22
576.27	1595.37
576.47	1626.09
576.66	1755.11
576.86	1646.57
577.05	1624.04
577.25	1570.79
577.44	1642.47
577.64	1527.78
577.83	1609.70
578.02	1581.03
578.22	1675.24
578.41	1665.00
578.61	1562.60
578.80	1523.69
579.00	1685.48
579.19	1611.75
579.39	1593.32
579.58	1607.66
579.77	1495.02
579.97	1632.23
580.16	1640.42
580.36	1679.33
580.55	1624.04
580.75	1546.22
580.94	1609.70
581.13	1650.66
581.33	1748.97
581.52	1574.89
581.72	1689.57
581.91	1697.77
582.11	1591.27
582.30	1644.52
582.49	1583.08
582.69	1632.23
582.88	1673.19
583.08	1632.23
583.27	1638.38
583.47	1593.32
583.66	1609.70
583.85	1462.25
584.05	1603.56
584.24	1617.90
584.44	1624.04
584.63	1665.00
584.82	1656.81
585.02	1755.11
585.21	1826.79
585.41	1734.63
585.60	1671.14
585.79	1871.84
585.99	1800.16
586.18	1753.06
586.37	2080.74
586.57	3162.06
586.76	9555.82
586.96	27645.53
587.15	43674.98
587.34	54586.56
587.54	61502.55
587.73	59497.59
587.93	43732.32
588.12	32497.17
588.31	26064.50
588.51	22232.75
588.70	19853.01
588.89	18417.38
589.09	16852.73
589.28	15283.99
589.47	13100.86
589.67	11206.48
589.86	9011.06
590.06	6813.59
590.25	5060.53
590.44	3887.04
590.64	3000.27
590.83	2414.56
591.02	2021.35
591.22	1847.27
591.41	1834.98
591.60	1703.91
591.80	1658.85
591.99	1578.98
592.18	1576.94
592.38	1628.14
592.57	1562.60
592.76	1650.66
592.96	1554.41
593.15	1492.97
593.34	1626.09
593.54	1589.22
593.73	1665.00
593.92	1687.53
594.12	1658.85
594.31	1644.52
594.50	1695.72
594.70	1746.92
594.89	1761.25
595.08	1560.55
595.28	1581.03
595.47	1679.33
595.66	1634.28
595.86	1609.70
596.05	1521.64
596.24	1576.94
596.43	1587.18
596.63	1677.29
596.82	1542.12
597.01	1589.22
597.21	1624.04
597.40	1693.67
597.59	1568.74
597.79	1591.27
597.98	1613.80
598.17	1640.42
598.36	1583.08
598.56	1578.98
598.75	1619.94
598.94	1640.42
599.14	1632.23
599.33	1558.50
599.52	1535.98
599.71	1603.56
599.91	1632.23
600.10	1591.27
600.29	1568.74
600.48	1548.26
600.68	1583.08
600.87	1538.02
601.06	1619.94
601.26	1538.02
601.45	1470.44
601.64	1505.26
601.83	1603.56
602.03	1581.03
602.22	1476.59
602.41	1578.98
602.60	1671.14
602.80	1574.89
602.99	1613.80
603.18	1605.61
603.37	1652.71
603.57	1572.84
603.76	1589.22
603.95	1605.61
604.14	1525.74
604.34	1515.50
604.53	1525.74
604.72	1558.50
604.91	1601.51
605.10	1595.37
605.30	1468.39
605.49	1617.90
605.68	1578.98
605.87	1601.51
606.07	1495.02
606.26	1529.83
606.45	1550.31
606.64	1644.52
606.84	1550.31
607.03	1585.13
607.22	1714.15
607.41	1646.57
607.60	1531.88
607.80	1583.08
607.99	1574.89
608.18	1568.74
608.37	1562.60
608.56	1544.17
608.76	1689.57
608.95	1525.74
609.14	1685.48
609.33	1613.80
609.52	1640.42
609.72	1714.15
609.91	1671.14
610.10	1621.99
610.29	1642.47
610.48	1589.22
610.68	1632.23
610.87	1599.46
611.06	1564.65
611.25	1554.41
611.44	1552.36
611.63	1501.16
611.83	1628.14
612.02	1533.93
612.21	1662.95
612.40	1482.73
612.59	1533.93
612.79	1544.17
612.98	1574.89
613.17	1619.94
613.36	1556.46
613.55	1628.14
613.74	1722.34
613.93	1685.48
614.13	1685.48
614.32	1830.88
614.51	1689.57
614.70	1714.15
614.89	1609.70
615.08	1642.47
615.28	1863.65
615.47	1560.55
615.66	1687.53
615.85	1611.75
616.04	1701.86
616.23	1630.18
616.42	1558.50
616.62	1570.79
616.81	1599.46
617.00	1572.84
617.19	1605.61
617.38	1542.12
617.57	1634.28
617.76	1607.66
617.95	1595.37
618.15	1593.32
618.34	1531.88
618.53	1505.26
618.72	1595.37
618.91	1650.66
619.10	1634.28
619.29	1609.70
619.48	1599.46
619.68	1572.84
619.87	1492.97
620.06	1486.83
620.25	1599.46
620.44	1509.35
620.63	1581.03
620.82	1552.36
621.01	1574.89
621.20	1515.50
621.39	1472.49
621.59	1583.08
621.78	1576.94
621.97	1601.51
622.16	1607.66
622.35	1466.35
622.54	1611.75
622.73	1566.70
622.92	1515.50
623.11	1566.70
623.30	1544.17
623.49	1662.95
623.68	1538.02
623.88	1546.22
624.07	1472.49
624.26	1605.61
624.45	1525.74
624.64	1523.69
624.83	1599.46
625.02	1505.26
625.21	1570.79
625.40	1517.54
625.59	1636.33
625.78	1540.07
625.97	1609.70
626.16	1513.45
626.35	1701.86
626.54	1630.18
626.74	1716.20
626.93	1599.46
627.12	1576.94
627.31	1583.08
627.50	1564.65
627.69	1609.70
627.88	1482.73
628.07	1599.46
628.26	1513.45
628.45	1523.69
628.64	1490.92
628.83	1562.60
629.02	1550.31
629.21	1621.99
629.40	1552.36
629.59	1601.51
629.78	1576.94
629.97	1529.83
630.16	1546.22
630.35	1486.83
630.54	1566.70
630.73	1468.39
630.92	1476.59
631.11	1560.55
631.30	1533.93
631.49	1572.84
631.68	1562.60
631.87	1556.46
632.06	1452.01
632.25	1722.34
632.44	1558.50
632.63	1607.66
632.82	1546.22
633.01	1562.60
633.20	1626.09
633.39	1621.99
633.58	1611.75
633.77	1646.57
633.96	1599.46
634.15	1599.46
634.34	1570.79
634.53	1630.18
634.72	1556.46
634.91	1452.01
635.10	1503.21
635.29	1566.70
635.48	1601.51
635.67	1515.50
635.86	1488.87
636.05	1607.66
636.24	1554.41
636.43	1486.83
636.62	1560.55
636.81	1435.63
637.00	1515.50
637.19	1515.50
637.38	1509.35
637.57	1509.35
637.76	1640.42
637.95	1578.98
638.14	1673.19
638.33	1548.26
638.52	1677.29
638.71	1677.29
638.89	1511.40
639.08	1660.90
639.27	1626.09
639.46	1591.27
639.65	1898.47
639.84	2086.88
640.03	2166.75
640.22	2181.09
640.41	2224.09
640.60	1906.66
640.79	1892.32
640.98	1812.45
641.17	1789.92
641.36	1630.18
641.55	1740.77
641.74	1587.18
641.92	1591.27
642.11	1503.21
642.30	1624.04
642.49	1562.60
642.68	1578.98
642.87	1546.22
643.06	1544.17
643.25	1548.26
643.44	1533.93
643.63	1546.22
643.82	1574.89
644.00	1474.54
644.19	1554.41
644.38	1505.26
644.57	1673.19
644.76	1581.03
644.95	1550.31
645.14	1531.88
645.33	1542.12
645.52	1538.02
645.71	1478.63
645.89	1546.22
646.08	1521.64
646.27	1480.68
646.46	1642.47
646.65	1441.77
646.84	1468.39
647.03	1490.92
647.22	1617.90
647.40	1544.17
647.59	1495.02
647.78	1419.24
647.97	1531.88
648.16	1503.21
648.35	1583.08
648.54	1640.42
648.73	1566.70
648.91	1503.21
649.10	1497.07
649.29	1552.36
649.48	1568.74
649.67	1552.36
649.86	1509.35
650.05	1562.60
650.23	1740.77
650.42	1638.38
650.61	1757.16
650.80	1753.06
650.99	1769.44
651.18	1683.43
651.36	1650.66
651.55	1558.50
651.74	1683.43
651.93	1540.07
652.12	1587.18
652.31	1593.32
652.49	1503.21
652.68	1501.16
652.87	1685.48
653.06	1609.70
653.25	1652.71
653.44	1646.57
653.62	1720.29
653.81	1593.32
654.00	1511.40
654.19	1576.94
654.38	1662.95
654.56	1505.26
654.75	1519.59
654.94	1597.42
655.13	1556.46
655.32	1542.12
655.51	1591.27
655.69	1503.21
655.88	1542.12
656.07	1519.59
656.26	1560.55
656.45	1519.59
656.63	1546.22
656.82	1523.69
657.01	1585.13
657.20	1480.68
657.38	1652.71
657.57	1499.11
657.76	1474.54
657.95	1589.22
658.14	1490.92
658.32	1521.64
658.51	1523.69
658.70	1523.69
658.89	1548.26
659.08	1472.49
659.26	1699.81
659.45	1478.63
659.64	1605.61
659.83	1509.35
660.01	1771.49
660.20	1484.78
660.39	1695.72
660.58	1517.54
660.76	1585.13
660.95	1535.98
661.14	1570.79
661.33	1529.83
661.51	1501.16
661.70	1509.35
661.89	1525.74
662.08	1474.54
662.26	1538.02
662.45	1540.07
662.64	1640.42
662.83	1570.79
663.01	1509.35
663.20	1560.55
663.39	1654.76
663.58	1583.08
663.76	1529.83
663.95	1546.22
664.14	1503.21
664.32	1488.87
664.51	1497.07
664.70	1505.26
664.89	1544.17
665.07	1484.78
665.26	1548.26
665.45	1585.13
665.64	1527.78
665.82	1544.17
666.01	1552.36
666.20	1552.36
666.38	1605.61
666.57	1626.09
666.76	1900.52
666.95	3008.47
667.13	7407.50
667.32	15671.06
667.51	20160.20
667.69	23371.42
667.88	25337.47
668.07	22152.88
668.25	15697.68
668.44	12588.86
668.63	10151.78
668.81	8712.06
669.00	7819.14
669.19	7010.20
669.38	6401.95
669.56	5724.07
669.75	4747.19
669.94	4235.20
670.12	3426.25
670.31	2815.96
670.50	2508.76
670.68	2111.46
670.87	1884.13
671.06	1685.48
671.24	1730.53
671.43	1730.53
671.62	1724.39
671.80	1624.04
671.99	1617.90
672.18	1566.70
672.36	1648.61
672.55	1544.17
672.74	1574.89
672.92	1527.78
673.11	1568.74
673.29	1540.07
673.48	1581.03
673.67	1566.70
673.85	1585.13
674.04	1548.26
674.23	1535.98
674.41	1621.99
674.60	1474.54
674.79	1449.96
674.97	1492.97
675.16	1535.98
675.34	1642.47
675.53	1560.55
675.72	1535.98
675.90	1548.26
676.09	1533.93
676.28	1535.98
676.46	1445.87
676.65	1587.18
676.83	1513.45
677.02	1591.27
677.21	1501.16
677.39	1538.02
677.58	1576.94
677.77	1509.35
677.95	1468.39
678.14	1542.12
678.32	1542.12
678.51	1544.17
678.70	1644.52
678.88	1499.11
679.07	1523.69
679.25	1503.21
679.44	1529.83
679.63	1531.88
679.81	1503.21
680.00	1601.51
680.18	1619.94
680.37	1550.31
680.55	1613.80
680.74	1525.74
680.93	1540.07
681.11	1533.93
681.30	1546.22
681.48	1607.66
681.67	1509.35
681.85	1484.78
682.04	1509.35
682.23	1542.12
682.41	1529.83
682.60	1527.78
682.78	1458.15
682.97	1488.87
683.15	1535.98
683.34	1578.98
683.53	1662.95
683.71	1439.72
683.90	1474.54
684.08	1597.42
684.27	1495.02
684.45	1583.08
684.64	1640.42
684.82	1507.30
685.01	1609.70
685.19	1599.46
685.38	1603.56
685.57	1519.59
685.75	1519.59
685.94	1591.27
686.12	1581.03
686.31	1525.74
686.49	1593.32
686.68	1484.78
686.86	1554.41
687.05	1470.44
687.23	1628.14
687.42	1443.82
687.60	1566.70
687.79	1597.42
687.97	1607.66
688.16	1599.46
688.34	1626.09
688.53	1454.06
688.71	1576.94
688.90	1531.88
689.08	1531.88
689.27	1505.26
689.45	1589.22
689.64	1585.13
689.82	1533.93
690.01	1572.84
690.19	1589.22
690.38	1578.98
690.56	1595.37
690.75	1495.02
690.93	1468.39
691.12	1484.78
691.30	1550.31
691.49	1519.59
691.67	1617.90
691.86	1650.66
692.04	1554.41
692.23	1535.98
692.41	1564.65
692.60	1656.81
692.78	1660.90
692.97	1595.37
693.15	1615.85
693.34	1621.99
693.52	1644.52
693.71	1544.17
693.89	1595.37
694.08	1544.17
694.26	1583.08
694.44	1556.46
694.63	1548.26
694.81	1488.87
695.00	1511.40
695.18	1533.93
695.37	1607.66
695.55	1558.50
695.74	1535.98
695.92	1529.83
696.10	1544.17
696.29	1533.93
696.47	1542.12
696.66	1454.06
696.84	1525.74
697.03	1490.92
697.21	1570.79
697.40	2043.87
697.58	1576.94
697.76	1599.46
697.95	1527.78
698.13	1464.30
698.32	1478.63
698.50	1585.13
698.68	1576.94
698.87	1527.78
699.05	1540.07
699.24	1605.61
699.42	1488.87
699.61	1642.47
699.79	1626.09
699.97	1517.54
700.16	1542.12
700.34	1525.74
700.53	1566.70
700.71	1640.42
700.89	1599.46
701.08	1484.78
701.26	1581.03
701.45	1884.13
701.63	1474.54
701.81	1521.64
702.00	1466.35
702.18	1558.50
702.37	1550.31
702.55	1652.71
702.73	1660.90
702.92	1722.34
703.10	1830.88
703.28	1673.19
703.47	1681.38
703.65	1853.41
703.84	1705.96
704.02	1578.98
704.20	1767.40
704.39	1660.90
704.57	1583.08
704.75	1550.31
704.94	1644.52
705.12	1613.80
705.30	1660.90
705.49	1804.26
705.67	2834.39
705.86	7468.94
706.04	14354.21
706.22	18814.69
706.41	21636.79
706.59	23078.56
706.77	21302.97
706.96	14679.84
707.14	11769.68
707.32	9795.43
707.51	8572.80
707.69	7503.76
707.87	6623.13
708.06	5814.18
708.24	4859.83
708.42	3700.68
708.61	2955.22
708.79	2258.91
708.97	2009.06
709.16	1828.84
709.34	1697.77
709.52	1640.42
709.71	1587.18
709.89	1718.25
710.07	1593.32
710.26	1556.46
710.44	1652.71
710.62	1570.79
710.80	1560.55
710.99	1619.94
711.17	1574.89
711.35	1531.88
711.54	1556.46
711.72	1576.94
711.90	1558.50
712.09	1492.97
712.27	1562.60
712.45	1538.02
712.63	1488.87
712.82	1583.08
713.00	1605.61
713.18	1490.92
713.37	1540.07
713.55	1533.93
713.73	1599.46
713.91	1497.07
714.10	1548.26
714.28	1509.35
714.46	1591.27
714.65	1574.89
714.83	1611.75
715.01	1535.98
715.19	1507.30
715.38	1548.26
715.56	1511.40
715.74	1525.74
715.92	1552.36
716.11	1585.13
716.29	1503.21
716.47	1535.98
716.65	1611.75
716.84	1468.39
717.02	1521.64
717.20	1509.35
717.38	1552.36
717.57	1533.93
717.75	1564.65
717.93	1484.78
718.11	1576.94
718.30	1449.96
718.48	1544.17
718.66	1544.17
718.84	1628.14
719.03	1529.83
719.21	1454.06
719.39	1619.94
719.57	1521.64
719.75	1562.60
719.94	1527.78
720.12	1552.36
720.30	1581.03
720.48	1578.98
720.67	1486.83
720.85	1517.54
721.03	1517.54
721.21	1499.11
721.39	1658.85
721.58	1480.68
721.76	1525.74
721.94	1548.26
722.12	1515.50
722.30	1632.23
722.49	1558.50
722.67	1556.46
722.85	1585.13
723.03	1484.78
723.21	1544.17
723.40	1593.32
723.58	1560.55
723.76	1525.74
723.94	1662.95
724.12	1646.57
724.30	1658.85
724.49	1671.14
724.67	1581.03
724.85	1650.66
725.03	1609.70
725.21	1603.56
725.40	1587.18
725.58	1497.07
725.76	1609.70
725.94	1576.94
726.12	1472.49
726.30	1525.74
726.49	1607.66
726.67	1515.50
726.85	1572.84
727.03	1628.14
727.21	1759.21
727.39	2115.55
727.57	3325.90
727.76	4343.74
727.94	4851.64
728.12	5121.97
728.30	5138.35
728.48	4315.07
728.66	3479.50
728.84	3114.96
729.03	2916.31
729.21	2605.02
729.39	2328.54
729.57	1943.52
729.75	1861.60
729.93	1755.11
730.11	1660.90
730.30	1656.81
730.48	1576.94
730.66	1689.57
730.84	1564.65
731.02	1576.94
731.20	1560.55
731.38	1544.17
731.56	1542.12
731.74	1449.96
731.93	1507.30
732.11	1540.07
732.29	1562.60
732.47	1615.85
732.65	1585.13
732.83	1570.79
733.01	1599.46
733.19	1492.97
733.37	1544.17
733.56	1474.54
733.74	1519.59
733.92	1578.98
734.10	1464.30
734.28	1521.64
734.46	1492.97
734.64	1472.49
734.82	1478.63
735.00	1523.69
735.18	1546.22
735.36	1529.83
735.54	1529.83
735.73	1507.30
735.91	1603.56
736.09	1576.94
736.27	1480.68
736.45	1576.94
736.63	1495.02
736.81	1509.35
736.99	1531.88
737.17	1617.90
737.35	1527.78
737.53	1505.26
737.71	1550.31
737.89	1642.47
738.07	1515.50
738.25	1517.54
738.43	1515.50
738.61	1437.67
738.80	1449.96
738.98	1488.87
739.16	1525.74
739.34	1525.74
739.52	1527.78
739.70	1478.63
739.88	1525.74
740.06	1564.65
740.24	1495.02
740.42	1593.32
740.60	1488.87
740.78	1464.30
740.96	1484.78
741.14	1452.01
741.32	1542.12
741.50	1447.91
741.68	1689.57
741.86	1595.37
742.04	1501.16
742.22	1476.59
742.40	1544.17
742.58	1585.13
742.76	1525.74
742.94	1558.50
743.12	1474.54
743.30	1484.78
743.48	1558.50
743.66	1626.09
743.84	1583.08
744.02	1509.35
744.20	1601.51
744.38	1566.70
744.56	1472.49
744.74	1626.09
744.92	1572.84
745.10	1626.09
745.28	1675.24
745.46	1529.83
745.64	1570.79
745.82	1544.17
746.00	1499.11
746.18	1533.93
746.36	1529.83
746.54	1470.44
746.72	1548.26
746.90	1503.21
747.08	1615.85
747.26	1560.55
747.44	1593.32
747.62	1581.03
747.80	1552.36
747.98	1501.16
748.15	1466.35
748.33	1662.95
748.51	1538.02
748.69	1540.07
748.87	1554.41
749.05	1566.70
749.23	1593.32
749.41	1568.74
749.59	1550.31
749.77	1611.75
749.95	1548.26
750.13	1439.72
750.31	1607.66
750.49	1513.45
750.67	1568.74
750.85	1669.09
751.03	1497.07
751.20	1624.04
751.38	1587.18
751.56	1570.79
751.74	1562.60
751.92	1556.46
752.10	1495.02
752.28	1626.09
752.46	1538.02
752.64	1542.12
752.82	1533.93
753.00	1556.46
753.18	1480.68
753.35	1503.21
753.53	1511.40
753.71	1482.73
753.89	1589.22
754.07	1486.83
754.25	1531.88
754.43	1603.56
754.61	1480.68
754.79	1513.45
754.97	1411.05
755.14	1593.32
755.32	1564.65
755.50	1560.55
755.68	1570.79
755.86	1462.25
756.04	1533.93
756.22	1361.90
756.40	1626.09
756.57	1679.33
756.75	1509.35
756.93	1597.42
757.11	1570.79
757.29	1535.98
757.47	1497.07
757.65	1570.79
757.82	1439.72
758.00	1439.72
758.18	1499.11
758.36	1472.49
758.54	1615.85
758.72	1466.35
758.90	1535.98
759.07	1617.90
759.25	1421.29
759.43	1535.98
759.61	1497.07
759.79	1873.89
759.97	1593.32
760.15	1544.17
760.32	1501.16
760.50	1533.93
760.68	1636.33
760.86	1456.11
761.04	1640.42
761.22	1601.51
761.39	1505.26
761.57	1583.08
761.75	1462.25
761.93	1511.40
762.11	1550.31
762.28	1546.22
762.46	1517.54
762.64	1558.50
762.82	1411.05
763.00	1495.02
763.18	1566.70
763.35	1529.83
763.53	1562.60
763.71	1519.59
763.89	1609.70
764.07	1535.98
764.24	1552.36
764.42	1572.84
764.60	1591.27
764.78	1535.98
764.96	1552.36
765.13	1613.80
765.31	1472.49
765.49	1570.79
765.67	1433.58
765.84	1538.02
766.02	1505.26
766.20	1472.49
766.38	1523.69
766.56	1525.74
766.73	1564.65
766.91	1478.63
767.09	1568.74
767.27	1544.17
767.44	1533.93
767.62	1581.03
767.80	1583.08
767.98	1464.30
768.15	1587.18
768.33	1527.78
768.51	1585.13
768.69	1632.23
768.87	1540.07
769.04	1513.45
769.22	1613.80
769.40	1691.62
769.58	1662.95
769.75	1556.46
769.93	1587.18
770.11	1544.17
770.28	1523.69
770.46	1550.31
770.64	1581.03
770.82	1542.12
770.99	1572.84
771.17	1556.46
771.35	1443.82
771.53	1509.35
771.70	1488.87
771.88	1576.94
772.06	1492.97
772.23	1589.22
772.41	1517.54
772.59	1574.89
772.77	1511.40
772.94	1519.59
773.12	1533.93
773.30	1519.59
773.47	1554.41
773.65	1542.12
773.83	1519.59
774.01	1529.83
774.18	1406.95
774.36	1501.16
774.54	1488.87
774.71	1478.63
774.89	1433.58
775.07	1495.02
775.24	1484.78
775.42	1628.14
775.60	1538.02
775.78	1554.41
775.95	1462.25
776.13	1443.82
776.31	1345.52
776.48	1542.12
776.66	1556.46
776.84	1564.65
777.01	1492.97
777.19	1519.59
777.37	1476.59
777.54	1562.60
777.72	1648.61
777.90	1570.79
778.07	1497.07
778.25	1703.91
778.43	1591.27
778.60	1460.20
778.78	1619.94
778.96	1581.03
779.13	1501.16
779.31	1591.27
779.49	1470.44
779.66	1546.22
779.84	1521.64
780.01	1542.12
780.19	1509.35
780.37	1597.42
780.54	1521.64
780.72	1462.25
780.90	1525.74
781.07	1566.70
781.25	1535.98
781.43	1581.03
781.60	1509.35
781.78	1544.17
781.95	1517.54
782.13	1538.02
782.31	1484.78
782.48	1452.01
782.66	1470.44
782.83	1609.70
783.01	1578.98
783.19	1527.78
783.36	1525.74
783.54	1554.41
783.72	1595.37
783.89	1531.88
784.07	1634.28
784.24	1486.83
784.42	1624.04
784.60	1556.46
784.77	1617.90
784.95	1470.44
785.12	1529.83
785.30	1564.65
785.47	1531.88
785.65	1552.36
785.83	1531.88
786.00	1535.98
786.18	1517.54
786.35	1497.07
786.53	1505.26
786.71	1550.31
786.88	1525.74
787.06	1531.88
787.23	1542.12
787.41	1495.02
787.58	1535.98
787.76	1531.88
787.94	1478.63
788.11	1587.18
788.29	1419.24
788.46	1546.22
788.64	1474.54
788.81	1449.96
788.99	1488.87
789.16	1466.35
789.34	1462.25
789.52	1435.63
789.69	1511.40
789.87	1437.67
790.04	1509.35
790.22	1558.50
790.39	1558.50
790.57	1529.83
790.74	1488.87
790.92	1621.99
791.09	1492.97
791.27	1523.69
791.44	1572.84
791.62	1517.54
791.79	1562.60
791.97	1503.21
792.15	1652.71
792.32	1542.12
792.50	1521.64
792.67	1636.33
792.85	1595.37
793.02	1542.12
793.20	1437.67
793.37	1492.97
793.55	1517.54
793.72	1466.35
793.90	1595.37
794.07	1480.68
794.25	1484.78
794.42	1583.08
794.60	1480.68
794.77	1509.35
794.95	1535.98
795.12	1562.60
795.30	1501.16
795.47	1476.59
795.65	1632.23
795.82	1517.54
796.00	1578.98
796.17	1499.11
796.34	1515.50
796.52	1454.06
796.69	1570.79
796.87	1531.88
797.04	1527.78
797.22	1544.17
797.39	1562.60
797.57	1458.15
797.74	1497.07
797.92	1591.27
798.09	1509.35
798.27	1488.87
798.44	1562.60
798.62	1484.78
798.79	1566.70
798.96	1554.41
799.14	1558.50
799.31	1574.89
799.49	1503.21
799.66	1501.16
799.84	1583.08
800.01	1396.71
800.19	1527.78
800.36	1538.02
800.53	1531.88
800.71	1478.63
800.88	1617.90
801.06	1503.21
801.23	1513.45
801.41	1474.54
801.58	1517.54
801.75	1517.54
801.93	1482.73
802.10	1492.97
802.28	1488.87
802.45	1523.69
802.63	1585.13
802.80	1585.13
802.97	1435.63
803.15	1581.03
803.32	1478.63
803.50	1499.11
803.67	1499.11
803.84	1505.26
804.02	1540.07
804.19	1503.21
804.37	1419.24
804.54	1445.87
804.71	1527.78
804.89	1521.64
805.06	1517.54
805.24	1406.95
805.41	1454.06
805.58	1566.70
805.76	1619.94
805.93	1503.21
806.10	1572.84
806.28	1562.60
806.45	1490.92
806.63	1589.22
806.80	1509.35
806.97	1484.78
807.15	1517.54
807.32	1535.98
807.49	1527.78
807.67	1431.53
807.84	1519.59
808.01	1523.69
808.19	1658.85
808.36	1744.87
808.54	1552.36
808.71	1531.88
808.88	1505.26
809.06	1589.22
809.23	1566.70
809.40	1464.30
809.58	1589.22
809.75	1431.53
809.92	1531.88
810.10	1603.56
810.27	1591.27
810.44	1560.55
810.62	1546.22
810.79	1570.79
810.96	1505.26
811.14	1503.21
811.31	1589.22
811.48	1601.51
811.66	1560.55
811.83	1533.93
812.00	1509.35
812.18	1619.94
812.35	1599.46
812.52	1519.59
812.69	1484.78
812.87	1552.36
813.04	1509.35
813.21	1558.50
813.39	1488.87
813.56	1421.29
813.73	1570.79
813.91	1413.10
814.08	1540.07
814.25	1525.74
814.42	1431.53
814.60	1558.50
814.77	1523.69
814.94	1513.45
815.12	1535.98
815.29	1566.70
815.46	1492.97
815.63	1490.92
815.81	1587.18
815.98	1581.03
816.15	1597.42
816.33	1517.54
816.50	1490.92
816.67	1542.12
816.84	1583.08
817.02	1558.50
817.19	1544.17
817.36	1581.03
817.53	1548.26
817.71	1499.11
817.88	1535.98
818.05	1533.93
818.22	1503.21
818.40	1632.23
818.57	1484.78
818.74	1497.07
818.91	1505.26
819.09	1591.27
819.26	1626.09
819.43	1452.01
819.60	1513.45
819.78	1556.46
819.95	1630.18
820.12	1550.31
820.29	1599.46
820.47	1548.26
820.64	1443.82
820.81	1458.15
820.98	1484.78
821.15	1511.40
821.33	1560.55
821.50	1499.11
821.67	1511.40
821.84	1449.96
822.02	1540.07
822.19	1589.22
822.36	1429.48
822.53	1517.54
822.70	1470.44
822.88	1552.36
823.05	1615.85
823.22	1480.68
823.39	1560.55
823.56	1562.60
823.74	1632.23
823.91	1550.31
824.08	1427.43
824.25	1492.97
824.42	1589.22
824.60	1458.15
824.77	1529.83
824.94	1488.87
825.11	1531.88
825.28	1488.87
825.45	1589.22
825.63	1650.66
825.80	1476.59
825.97	1492.97
826.14	1488.87
826.31	1466.35
826.48	1527.78
826.66	1478.63
826.83	1574.89
827.00	1550.31
827.17	1505.26
827.34	1488.87
827.51	1583.08
827.69	1603.56
827.86	1443.82
828.03	1513.45
828.20	1521.64
828.37	1501.16
828.54	1544.17
828.71	1472.49
828.89	1523.69
829.06	1458.15
829.23	1671.14
829.40	1523.69
829.57	1472.49
829.74	1529.83
829.91	1470.44
830.09	1544.17
830.26	1615.85
830.43	1613.80
830.60	1560.55
830.77	1548.26
830.94	1538.02
831.11	1560.55
831.28	1533.93
831.46	1574.89
831.63	1429.48
831.80	1607.66
831.97	1521.64
832.14	1572.84
832.31	1527.78
832.48	1568.74
832.65	1533.93
832.82	1478.63
832.99	1546.22
833.17	1488.87
833.34	1589.22
833.51	1521.64
833.68	1452.01
833.85	1529.83
834.02	1558.50
834.19	1505.26
834.36	1435.63
834.53	1452.01
834.70	1464.30
834.87	1527.78
835.04	1464.30
835.22	1458.15
835.39	1513.45
835.56	1517.54
835.73	1468.39
835.90	1558.50
836.07	1552.36
836.24	1562.60
836.41	1521.64
836.58	1529.83
836.75	1558.50
836.92	1593.32
837.09	1495.02
837.26	1615.85
837.43	1492.97
837.60	1470.44
837.77	1474.54
837.94	1501.16
838.12	1558.50
838.29	1538.02
838.46	1443.82
838.63	1468.39
838.80	1603.56
838.97	1515.50
839.14	1521.64
839.31	1628.14
839.48	1533.93
839.65	1525.74
839.82	1587.18
839.99	1583.08
840.16	1562.60
840.33	1480.68
840.50	1560.55
840.67	1523.69
840.84	1429.48
841.01	1552.36
841.18	1505.26
841.35	1499.11
841.52	1591.27
841.69	1654.76
841.86	1607.66
842.03	1482.73
842.20	1595.37
842.37	1546.22
842.54	1480.68
842.71	1509.35
842.88	1550.31
843.05	1538.02
843.22	1566.70
843.39	1476.59
843.56	1548.26
843.73	1497.07
843.90	1492.97
844.07	1554.41
844.24	1607.66
844.41	1542.12
844.58	1607.66
844.75	1581.03
844.92	1566.70
845.09	1486.83
845.26	1527.78
845.43	1507.30
845.60	1501.16
845.77	1525.74
845.94	1593.32
846.10	1609.70
846.27	1509.35
846.44	1476.59
846.61	1460.20
846.78	1556.46
846.95	1519.59
847.12	1556.46
847.29	1585.13
847.46	1464.30
847.63	1652.71
847.80	1488.87
847.97	1591.27
848.14	1662.95
848.31	1527.78
848.48	1445.87
848.65	1550.31
848.82	1495.02
848.98	1611.75
849.15	1478.63
849.32	1667.05
849.49	1568.74
849.66	1439.72
849.83	1599.46
850.00	1488.87
850.17	1480.68
850.34	1464.30
850.51	1527.78
850.68	1529.83
850.85	1642.47
851.01	1497.07
851.18	1581.03
851.35	1488.87
851.52	1492.97
851.69	1634.28
851.86	1466.35
852.03	1456.11
852.20	1558.50
852.37	1515.50
852.53	1411.05
852.70	1490.92
852.87	1552.36
853.04	1603.56
853.21	1593.32
853.38	1613.80
853.55	1605.61
853.72	1550.31
853.89	1540.07
854.05	1435.63
854.22	1452.01
854.39	1474.54
854.56	1564.65
854.73	1574.89
854.90	1480.68
855.07	1519.59
855.23	1482.73
855.40	1529.83
855.57	1544.17
855.74	1466.35
855.91	1699.81
856.08	1468.39
856.25	1439.72
856.41	1611.75
856.58	1503.21
856.75	1492.97
856.92	1472.49
857.09	1562.60
857.26	1517.54
857.42	1597.42
857.59	1468.39
857.76	1488.87
857.93	1607.66
858.10	1554.41
858.27	1476.59
858.43	1470.44
858.60	1478.63
858.77	1462.25
858.94	1486.83
859.11	1605.61
859.27	1529.83
859.44	1521.64
859.61	1560.55
859.78	1529.83
859.95	1554.41
860.12	1458.15
860.28	1597.42
860.45	1540.07
860.62	1521.64
860.79	1560.55
860.95	1591.27
861.12	1540.07
861.29	1593.32
861.46	1417.19
861.63	1470.44
861.79	1574.89
861.96	1470.44
862.13	1564.65
862.30	1613.80
862.47	1568.74
862.63	1447.91
862.80	1486.83
862.97	1462.25
863.14	1589.22
863.30	1617.90
863.47	1511.40
863.64	1535.98
863.81	1548.26
863.97	1595.37
864.14	1591.27
864.31	1517.54
864.48	1525.74
864.65	1538.02
864.81	1566.70
864.98	1470.44
865.15	1583.08
865.32	1546.22
865.48	1583.08
865.65	1634.28
865.82	1515.50
865.98	1497.07
866.15	1607.66
866.32	1576.94
866.49	1531.88
866.65	1564.65
866.82	1554.41
866.99	1507.30
867.16	1542.12
867.32	1474.54
867.49	1480.68
867.66	1492.97
867.83	1544.17
867.99	1482.73
868.16	1533.93
868.33	1515.50
868.49	1517.54
868.66	1585.13
868.83	1542.12
868.99	1558.50
869.16	1525.74
869.33	1525.74
869.50	1478.63
869.66	1527.78
869.83	1482.73
870.00	1570.79
870.16	1583.08
870.33	1552.36
870.50	1609.70
870.66	1540.07
870.83	1636.33
871.00	1560.55
871.17	1521.64
871.33	1566.70
871.50	1503.21
871.67	1535.98
871.83	1495.02
872.00	1636.33
872.17	1550.31
872.33	1615.85
872.50	1583.08
872.67	1521.64
872.83	1552.36
873.00	1538.02
873.17	1560.55
873.33	1669.09
873.50	1570.79
873.67	1474.54
873.83	1535.98
874.00	1527.78
874.16	1521.64
874.33	1542.12
874.50	1460.20
874.66	1515.50
874.83	1497.07
875.00	1587.18
875.16	1550.31
875.33	1560.55
875.50	1456.11
875.66	1497.07
875.83	1511.40
875.99	1581.03
876.16	1495.02
876.33	1531.88
876.49	1488.87
876.66	1574.89
876.83	1513.45
876.99	1400.81
877.16	1529.83
877.32	1572.84
877.49	1517.54
877.66	1609.70
877.82	1517.54
877.99	1583.08
878.15	1578.98
878.32	1568.74
878.49	1601.51
878.65	1548.26
878.82	1525.74
878.98	1566.70
879.15	1558.50
879.32	1587.18
879.48	1542.12
879.65	1482.73
879.81	1460.20
879.98	1544.17
880.15	1558.50
880.31	1527.78
880.48	1513.45
880.64	1572.84
880.81	1615.85
880.97	1480.68
881.14	1564.65
881.31	1470.44
881.47	1658.85
881.64	1562.60
881.80	1578.98
881.97	1529.83
882.13	1554.41
882.30	1497.07
882.47	1507.30
882.63	1425.39
882.80	1538.02
882.96	1476.59
883.13	1648.61
883.29	1533.93
883.46	1454.06
883.62	1607.66
883.79	1576.94
883.95	1597.42
884.12	1499.11
884.29	1531.88
884.45	1576.94
884.62	1513.45
884.78	1542.12
884.95	1589.22
885.11	1452.01
885.28	1603.56
885.44	1505.26
885.61	1517.54
885.77	1527.78
885.94	1646.57
886.10	1533.93
886.27	1556.46
886.43	1650.66
886.60	1601.51
886.76	1462.25
886.93	1482.73
887.09	1583.08
887.26	1566.70
887.42	1529.83
887.59	1574.89
887.75	1689.57
887.92	1558.50
888.08	1613.80
888.25	1591.27
888.41	1581.03
888.58	1531.88
888.74	1449.96
888.91	1478.63
>>>>>End Processed Spectral Data<<<<<
