SpectraSuite Data File
++++++++++++++++++++++++++++++++++++
Date: Tue May 03 12:55:39 CEST 2016
User: root
Dark Spectrum Present: No
Reference Spectrum Present: No
Number of Sampled Component Spectra: 1
Spectrometers: USB4C02835
Integration Time (usec): 100000 (USB4C02835)
Spectra Averaged: 1 (USB4C02835)
Boxcar Smoothing: 0 (USB4C02835)
Correct for Electrical Dark: No (USB4C02835)
Strobe/Lamp Enabled: No (USB4C02835)
Correct for Detector Non-linearity: No (USB4C02835)
Correct for Stray Light: No (USB4C02835)
Number of Pixels in Processed Spectrum: 3648
>>>>>Begin Processed Spectral Data<<<<<
177.47	1345.52
177.69	1345.52
177.91	1345.52
178.13	1368.04
178.36	1304.56
178.58	1456.11
178.80	1535.98
179.02	1521.64
179.24	1529.83
179.46	1497.07
179.68	1603.56
179.90	1478.63
180.13	1525.74
180.35	1503.21
180.57	1570.79
180.79	1546.22
181.01	1507.30
181.23	1581.03
181.45	1656.81
181.67	1564.65
181.90	1599.46
182.12	1511.40
182.34	1509.35
182.56	1587.18
182.78	1578.98
183.00	1513.45
183.22	1636.33
183.44	1492.97
183.66	1615.85
183.89	1591.27
184.11	1515.50
184.33	1531.88
184.55	1554.41
184.77	1517.54
184.99	1535.98
185.21	1478.63
185.43	1705.96
185.65	1447.91
185.87	1587.18
186.10	1576.94
186.32	1705.96
186.54	1523.69
186.76	1527.78
186.98	1572.84
187.20	1535.98
187.42	1460.20
187.64	1619.94
187.86	1515.50
188.08	1591.27
188.30	1554.41
188.52	1591.27
188.75	1562.60
188.97	1599.46
189.19	1509.35
189.41	1495.02
189.63	1544.17
189.85	1501.16
190.07	1515.50
190.29	1462.25
190.51	1558.50
190.73	1484.78
190.95	1542.12
191.17	1560.55
191.39	1513.45
191.61	1505.26
191.84	1544.17
192.06	1576.94
192.28	1501.16
192.50	1695.72
192.72	1589.22
192.94	1574.89
193.16	1599.46
193.38	1578.98
193.60	1474.54
193.82	1454.06
194.04	1552.36
194.26	1533.93
194.48	1591.27
194.70	1546.22
194.92	1538.02
195.14	1591.27
195.36	1552.36
195.58	1484.78
195.80	1527.78
196.02	1456.11
196.24	1574.89
196.46	1576.94
196.69	1513.45
196.91	1660.90
197.13	1529.83
197.35	1544.17
197.57	1591.27
197.79	1546.22
198.01	1609.70
198.23	1642.47
198.45	1472.49
198.67	1445.87
198.89	1523.69
199.11	1548.26
199.33	1509.35
199.55	1480.68
199.77	1499.11
199.99	1560.55
200.21	1454.06
200.43	1546.22
200.65	1400.81
200.87	1376.24
201.09	1488.87
201.31	1495.02
201.53	1572.84
201.75	1525.74
201.97	1562.60
202.19	1513.45
202.41	1488.87
202.63	1640.42
202.85	1566.70
203.07	1556.46
203.29	1492.97
203.51	1449.96
203.73	1544.17
203.95	1634.28
204.17	1599.46
204.39	1603.56
204.61	1527.78
204.83	1572.84
205.05	1609.70
205.27	1540.07
205.49	1587.18
205.71	1533.93
205.93	1445.87
206.15	1509.35
206.37	1546.22
206.59	1595.37
206.81	1464.30
207.03	1466.35
207.25	1458.15
207.47	1572.84
207.69	1490.92
207.91	1652.71
208.13	1566.70
208.34	1583.08
208.56	1460.20
208.78	1630.18
209.00	1542.12
209.22	1513.45
209.44	1517.54
209.66	1439.72
209.88	1488.87
210.10	1568.74
210.32	1523.69
210.54	1671.14
210.76	1542.12
210.98	1630.18
211.20	1462.25
211.42	1642.47
211.64	1607.66
211.86	1558.50
212.08	1589.22
212.30	1511.40
212.52	1486.83
212.74	1531.88
212.96	1589.22
213.17	1554.41
213.39	1488.87
213.61	1593.32
213.83	1591.27
214.05	1499.11
214.27	1630.18
214.49	1533.93
214.71	1542.12
214.93	1550.31
215.15	1628.14
215.37	1531.88
215.59	1441.77
215.81	1566.70
216.03	1568.74
216.24	1544.17
216.46	1521.64
216.68	1529.83
216.90	1599.46
217.12	1554.41
217.34	1478.63
217.56	1521.64
217.78	1597.42
218.00	1624.04
218.22	1515.50
218.44	1482.73
218.66	1449.96
218.87	1615.85
219.09	1515.50
219.31	1585.13
219.53	1501.16
219.75	1525.74
219.97	1556.46
220.19	1488.87
220.41	1476.59
220.63	1564.65
220.85	1558.50
221.06	1529.83
221.28	1578.98
221.50	1538.02
221.72	1544.17
221.94	1484.78
222.16	1558.50
222.38	1568.74
222.60	1603.56
222.82	1546.22
223.03	1605.61
223.25	1480.68
223.47	1601.51
223.69	1665.00
223.91	1599.46
224.13	1554.41
224.35	1533.93
224.57	1568.74
224.78	1568.74
225.00	1538.02
225.22	1550.31
225.44	1546.22
225.66	1570.79
225.88	1519.59
226.10	1636.33
226.32	1558.50
226.53	1554.41
226.75	1574.89
226.97	1523.69
227.19	1574.89
227.41	1554.41
227.63	1474.54
227.85	1503.21
228.06	1660.90
228.28	1564.65
228.50	1535.98
228.72	1445.87
228.94	1497.07
229.16	1476.59
229.37	1501.16
229.59	1460.20
229.81	1603.56
230.03	1445.87
230.25	1501.16
230.47	1495.02
230.69	1441.77
230.90	1548.26
231.12	1505.26
231.34	1540.07
231.56	1542.12
231.78	1470.44
232.00	1544.17
232.21	1576.94
232.43	1466.35
232.65	1443.82
232.87	1531.88
233.09	1552.36
233.30	1423.34
233.52	1511.40
233.74	1585.13
233.96	1480.68
234.18	1533.93
234.40	1492.97
234.61	1574.89
234.83	1474.54
235.05	1478.63
235.27	1589.22
235.49	1581.03
235.70	1583.08
235.92	1673.19
236.14	1578.98
236.36	1679.33
236.58	1513.45
236.79	1509.35
237.01	1464.30
237.23	1470.44
237.45	1685.48
237.67	1511.40
237.88	1648.61
238.10	1665.00
238.32	1513.45
238.54	1529.83
238.76	1476.59
238.97	1535.98
239.19	1505.26
239.41	1585.13
239.63	1554.41
239.85	1527.78
240.06	1552.36
240.28	1540.07
240.50	1570.79
240.72	1519.59
240.93	1603.56
241.15	1634.28
241.37	1589.22
241.59	1499.11
241.81	1462.25
242.02	1585.13
242.24	1562.60
242.46	1576.94
242.68	1503.21
242.89	1517.54
243.11	1621.99
243.33	1492.97
243.55	1548.26
243.76	1587.18
243.98	1499.11
244.20	1456.11
244.42	1535.98
244.64	1521.64
244.85	1452.01
245.07	1460.20
245.29	1511.40
245.51	1560.55
245.72	1525.74
245.94	1595.37
246.16	1570.79
246.38	1544.17
246.59	1519.59
246.81	1609.70
247.03	1472.49
247.24	1447.91
247.46	1521.64
247.68	1583.08
247.90	1556.46
248.11	1497.07
248.33	1566.70
248.55	1570.79
248.77	1445.87
248.98	1550.31
249.20	1619.94
249.42	1499.11
249.64	1583.08
249.85	1583.08
250.07	1517.54
250.29	1503.21
250.50	1601.51
250.72	1458.15
250.94	1611.75
251.16	1617.90
251.37	1679.33
251.59	1576.94
251.81	1484.78
252.02	1550.31
252.24	1507.30
252.46	1578.98
252.68	1466.35
252.89	1521.64
253.11	1503.21
253.33	1595.37
253.54	1570.79
253.76	1468.39
253.98	1538.02
254.20	1488.87
254.41	1454.06
254.63	1523.69
254.85	1472.49
255.06	1587.18
255.28	1505.26
255.50	1544.17
255.71	1478.63
255.93	1574.89
256.15	1492.97
256.36	1538.02
256.58	1509.35
256.80	1642.47
257.02	1503.21
257.23	1568.74
257.45	1515.50
257.67	1667.05
257.88	1554.41
258.10	1505.26
258.32	1556.46
258.53	1568.74
258.75	1589.22
258.97	1468.39
259.18	1527.78
259.40	1617.90
259.62	1638.38
259.83	1621.99
260.05	1601.51
260.27	1656.81
260.48	1566.70
260.70	1513.45
260.92	1482.73
261.13	1538.02
261.35	1546.22
261.57	1593.32
261.78	1488.87
262.00	1470.44
262.22	1538.02
262.43	1480.68
262.65	1542.12
262.86	1527.78
263.08	1632.23
263.30	1513.45
263.51	1501.16
263.73	1560.55
263.95	1621.99
264.16	1460.20
264.38	1568.74
264.60	1558.50
264.81	1476.59
265.03	1619.94
265.25	1585.13
265.46	1482.73
265.68	1542.12
265.89	1558.50
266.11	1525.74
266.33	1570.79
266.54	1636.33
266.76	1540.07
266.98	1607.66
267.19	1566.70
267.41	1609.70
267.62	1478.63
267.84	1519.59
268.06	1552.36
268.27	1574.89
268.49	1562.60
268.70	1578.98
268.92	1583.08
269.14	1486.83
269.35	1509.35
269.57	1556.46
269.79	1560.55
270.00	1525.74
270.22	1617.90
270.43	1488.87
270.65	1443.82
270.87	1519.59
271.08	1583.08
271.30	1613.80
271.51	1511.40
271.73	1505.26
271.95	1548.26
272.16	1568.74
272.38	1564.65
272.59	1603.56
272.81	1521.64
273.02	1552.36
273.24	1599.46
273.46	1507.30
273.67	1476.59
273.89	1542.12
274.10	1486.83
274.32	1595.37
274.54	1609.70
274.75	1609.70
274.97	1558.50
275.18	1621.99
275.40	1511.40
275.61	1495.02
275.83	1525.74
276.05	1527.78
276.26	1529.83
276.48	1613.80
276.69	1501.16
276.91	1529.83
277.12	1613.80
277.34	1615.85
277.55	1576.94
277.77	1509.35
277.99	1472.49
278.20	1540.07
278.42	1486.83
278.63	1501.16
278.85	1503.21
279.06	1558.50
279.28	1603.56
279.49	1585.13
279.71	1544.17
279.93	1572.84
280.14	1554.41
280.36	1544.17
280.57	1548.26
280.79	1568.74
281.00	1599.46
281.22	1472.49
281.43	1521.64
281.65	1503.21
281.86	1456.11
282.08	1495.02
282.29	1562.60
282.51	1503.21
282.73	1511.40
282.94	1433.58
283.16	1525.74
283.37	1535.98
283.59	1495.02
283.80	1490.92
284.02	1525.74
284.23	1538.02
284.45	1456.11
284.66	1519.59
284.88	1517.54
285.09	1540.07
285.31	1535.98
285.52	1562.60
285.74	1527.78
285.95	1562.60
286.17	1570.79
286.38	1613.80
286.60	1447.91
286.81	1597.42
287.03	1523.69
287.24	1517.54
287.46	1601.51
287.67	1476.59
287.89	1656.81
288.10	1558.50
288.32	1423.34
288.53	1640.42
288.75	1585.13
288.96	1619.94
289.18	1476.59
289.39	1517.54
289.61	1560.55
289.82	1652.71
290.04	1662.95
290.25	1542.12
290.47	1533.93
290.68	1554.41
290.90	1628.14
291.11	1466.35
291.33	1550.31
291.54	1445.87
291.76	1509.35
291.97	1552.36
292.18	1515.50
292.40	1540.07
292.61	1540.07
292.83	1667.05
293.04	1556.46
293.26	1529.83
293.47	1603.56
293.69	1458.15
293.90	1495.02
294.12	1583.08
294.33	1554.41
294.55	1529.83
294.76	1533.93
294.97	1542.12
295.19	1578.98
295.40	1511.40
295.62	1535.98
295.83	1492.97
296.05	1484.78
296.26	1611.75
296.48	1505.26
296.69	1513.45
296.90	1509.35
297.12	1566.70
297.33	1621.99
297.55	1535.98
297.76	1513.45
297.98	1593.32
298.19	1505.26
298.41	1542.12
298.62	1529.83
298.83	1527.78
299.05	1501.16
299.26	1552.36
299.48	1478.63
299.69	1509.35
299.90	1531.88
300.12	1499.11
300.33	1478.63
300.55	1460.20
300.76	1566.70
300.98	1501.16
301.19	1517.54
301.40	1538.02
301.62	1540.07
301.83	1548.26
302.05	1560.55
302.26	1505.26
302.47	1552.36
302.69	1542.12
302.90	1578.98
303.12	1419.24
303.33	1533.93
303.54	1617.90
303.76	1509.35
303.97	1615.85
304.19	1599.46
304.40	1531.88
304.61	1531.88
304.83	1607.66
305.04	1611.75
305.26	1523.69
305.47	1484.78
305.68	1589.22
305.90	1484.78
306.11	1634.28
306.33	1478.63
306.54	1519.59
306.75	1570.79
306.97	1417.19
307.18	1484.78
307.39	1503.21
307.61	1589.22
307.82	1497.07
308.04	1501.16
308.25	1492.97
308.46	1542.12
308.68	1560.55
308.89	1509.35
309.10	1576.94
309.32	1564.65
309.53	1519.59
309.74	1568.74
309.96	1538.02
310.17	1601.51
310.39	1505.26
310.60	1501.16
310.81	1585.13
311.03	1468.39
311.24	1693.67
311.45	1490.92
311.67	1552.36
311.88	1562.60
312.09	1447.91
312.31	1490.92
312.52	1519.59
312.73	1515.50
312.95	1515.50
313.16	1427.43
313.37	1560.55
313.59	1564.65
313.80	1462.25
314.01	1548.26
314.23	1501.16
314.44	1558.50
314.65	1435.63
314.87	1490.92
315.08	1595.37
315.29	1495.02
315.51	1507.30
315.72	1466.35
315.93	1640.42
316.15	1540.07
316.36	1527.78
316.57	1519.59
316.79	1540.07
317.00	1492.97
317.21	1566.70
317.43	1533.93
317.64	1554.41
317.85	1540.07
318.07	1585.13
318.28	1705.96
318.49	1710.05
318.70	1771.49
318.92	1677.29
319.13	1638.38
319.34	1675.24
319.56	1640.42
319.77	1615.85
319.98	1626.09
320.20	1624.04
320.41	1591.27
320.62	1609.70
320.83	1527.78
321.05	1683.43
321.26	1511.40
321.47	1503.21
321.69	1593.32
321.90	1519.59
322.11	1521.64
322.32	1572.84
322.54	1585.13
322.75	1538.02
322.96	1597.42
323.18	1519.59
323.39	1452.01
323.60	1511.40
323.81	1671.14
324.03	1535.98
324.24	1529.83
324.45	1466.35
324.66	1523.69
324.88	1601.51
325.09	1605.61
325.30	1492.97
325.52	1568.74
325.73	1591.27
325.94	1484.78
326.15	1535.98
326.37	1533.93
326.58	1662.95
326.79	1513.45
327.00	1390.57
327.22	1542.12
327.43	1511.40
327.64	1505.26
327.85	1597.42
328.07	1531.88
328.28	1550.31
328.49	1443.82
328.70	1550.31
328.92	1570.79
329.13	1527.78
329.34	1566.70
329.55	1701.86
329.76	1548.26
329.98	1554.41
330.19	1630.18
330.40	1570.79
330.61	1589.22
330.83	1607.66
331.04	1519.59
331.25	1529.83
331.46	1499.11
331.68	1431.53
331.89	1581.03
332.10	1525.74
332.31	1570.79
332.52	1531.88
332.74	1523.69
332.95	1560.55
333.16	1566.70
333.37	1615.85
333.58	1501.16
333.80	1529.83
334.01	1509.35
334.22	1523.69
334.43	1488.87
334.64	1511.40
334.86	1443.82
335.07	1495.02
335.28	1624.04
335.49	1449.96
335.70	1517.54
335.92	1548.26
336.13	1626.09
336.34	1544.17
336.55	1601.51
336.76	1535.98
336.98	1435.63
337.19	1527.78
337.40	1591.27
337.61	1624.04
337.82	1566.70
338.04	1531.88
338.25	1497.07
338.46	1490.92
338.67	1533.93
338.88	1501.16
339.09	1488.87
339.31	1486.83
339.52	1533.93
339.73	1435.63
339.94	1497.07
340.15	1574.89
340.36	1535.98
340.58	1515.50
340.79	1525.74
341.00	1525.74
341.21	1468.39
341.42	1624.04
341.63	1572.84
341.85	1507.30
342.06	1570.79
342.27	1525.74
342.48	1570.79
342.69	1492.97
342.90	1593.32
343.12	1556.46
343.33	1603.56
343.54	1574.89
343.75	1669.09
343.96	1607.66
344.17	1521.64
344.38	1550.31
344.60	1527.78
344.81	1460.20
345.02	1488.87
345.23	1597.42
345.44	1621.99
345.65	1595.37
345.86	1605.61
346.07	1538.02
346.29	1452.01
346.50	1503.21
346.71	1624.04
346.92	1581.03
347.13	1609.70
347.34	1423.34
347.55	1544.17
347.76	1576.94
347.98	1468.39
348.19	1447.91
348.40	1578.98
348.61	1544.17
348.82	1540.07
349.03	1560.55
349.24	1542.12
349.45	1605.61
349.66	1529.83
349.88	1558.50
350.09	1566.70
350.30	1556.46
350.51	1591.27
350.72	1570.79
350.93	1585.13
351.14	1509.35
351.35	1560.55
351.56	1574.89
351.77	1578.98
351.99	1587.18
352.20	1540.07
352.41	1638.38
352.62	1497.07
352.83	1531.88
353.04	1497.07
353.25	1589.22
353.46	1609.70
353.67	1480.68
353.88	1429.48
354.09	1595.37
354.30	1515.50
354.52	1572.84
354.73	1609.70
354.94	1488.87
355.15	1527.78
355.36	1636.33
355.57	1509.35
355.78	1538.02
355.99	1501.16
356.20	1505.26
356.41	1581.03
356.62	1499.11
356.83	1476.59
357.04	1624.04
357.25	1441.77
357.46	1546.22
357.68	1523.69
357.89	1492.97
358.10	1466.35
358.31	1560.55
358.52	1595.37
358.73	1503.21
358.94	1501.16
359.15	1523.69
359.36	1613.80
359.57	1523.69
359.78	1556.46
359.99	1478.63
360.20	1515.50
360.41	1499.11
360.62	1570.79
360.83	1535.98
361.04	1540.07
361.25	1591.27
361.46	1724.39
361.67	1542.12
361.88	1505.26
362.09	1572.84
362.30	1476.59
362.51	1533.93
362.72	1626.09
362.93	1591.27
363.14	1595.37
363.35	1581.03
363.56	1452.01
363.78	1560.55
363.99	1585.13
364.20	1515.50
364.41	1511.40
364.62	1574.89
364.83	1583.08
365.04	1511.40
365.25	1538.02
365.46	1621.99
365.67	1503.21
365.88	1581.03
366.09	1503.21
366.30	1546.22
366.51	1517.54
366.72	1497.07
366.93	1576.94
367.14	1581.03
367.35	1605.61
367.56	1509.35
367.77	1630.18
367.98	1488.87
368.18	1546.22
368.39	1593.32
368.60	1525.74
368.81	1615.85
369.02	1554.41
369.23	1540.07
369.44	1576.94
369.65	1470.44
369.86	1605.61
370.07	1566.70
370.28	1488.87
370.49	1570.79
370.70	1628.14
370.91	1527.78
371.12	1511.40
371.33	1574.89
371.54	1568.74
371.75	1720.29
371.96	1523.69
372.17	1558.50
372.38	1566.70
372.59	1626.09
372.80	1511.40
373.01	1566.70
373.22	1554.41
373.43	1589.22
373.64	1515.50
373.85	1583.08
374.06	1679.33
374.26	1572.84
374.47	1578.98
374.68	1548.26
374.89	1583.08
375.10	1560.55
375.31	1601.51
375.52	1589.22
375.73	1503.21
375.94	1550.31
376.15	1634.28
376.36	1533.93
376.57	1550.31
376.78	1552.36
376.99	1632.23
377.20	1611.75
377.40	1464.30
377.61	1564.65
377.82	1513.45
378.03	1538.02
378.24	1562.60
378.45	1566.70
378.66	1523.69
378.87	1431.53
379.08	1439.72
379.29	1462.25
379.50	1611.75
379.71	1484.78
379.91	1552.36
380.12	1568.74
380.33	1531.88
380.54	1560.55
380.75	1529.83
380.96	1515.50
381.17	1609.70
381.38	1646.57
381.59	1562.60
381.80	1538.02
382.00	1667.05
382.21	1597.42
382.42	1746.92
382.63	1665.00
382.84	1636.33
383.05	1576.94
383.26	1593.32
383.47	1533.93
383.68	1632.23
383.88	1634.28
384.09	1550.31
384.30	1624.04
384.51	1556.46
384.72	1513.45
384.93	1509.35
385.14	1581.03
385.35	1574.89
385.55	1458.15
385.76	1540.07
385.97	1583.08
386.18	1460.20
386.39	1507.30
386.60	1632.23
386.81	1540.07
387.02	1572.84
387.22	1542.12
387.43	1630.18
387.64	1691.62
387.85	1759.21
388.06	3080.14
388.27	7061.40
388.48	10520.42
388.68	12496.71
388.89	14024.49
389.10	12937.02
389.31	10409.83
389.52	8920.95
389.73	7931.78
389.93	7303.06
390.14	6797.21
390.35	6205.35
390.56	5535.66
390.77	4765.62
390.98	3626.95
391.18	2822.10
391.39	2181.09
391.60	1763.30
391.81	1681.38
392.02	1560.55
392.23	1658.85
392.43	1574.89
392.64	1644.52
392.85	1603.56
393.06	1578.98
393.27	1554.41
393.47	1449.96
393.68	1589.22
393.89	1497.07
394.10	1638.38
394.31	1546.22
394.52	1605.61
394.72	1628.14
394.93	1558.50
395.14	1525.74
395.35	1558.50
395.56	1574.89
395.76	1576.94
395.97	1759.21
396.18	1785.83
396.39	1691.62
396.60	1890.28
396.80	1712.10
397.01	1628.14
397.22	1691.62
397.43	1751.01
397.64	1519.59
397.84	1650.66
398.05	1642.47
398.26	1572.84
398.47	1605.61
398.67	1576.94
398.88	1574.89
399.09	1527.78
399.30	1562.60
399.51	1583.08
399.71	1581.03
399.92	1574.89
400.13	1578.98
400.34	1460.20
400.54	1507.30
400.75	1591.27
400.96	1665.00
401.17	1652.71
401.37	1585.13
401.58	1599.46
401.79	1550.31
402.00	1712.10
402.21	1845.22
402.41	1939.43
402.62	2000.87
402.83	1972.19
403.04	1861.60
403.24	1834.98
403.45	1755.11
403.66	1767.40
403.87	1712.10
404.07	1765.35
404.28	1691.62
404.49	1742.82
404.70	1677.29
404.90	1638.38
405.11	1615.85
405.32	1603.56
405.52	1505.26
405.73	1527.78
405.94	1484.78
406.15	1562.60
406.35	1566.70
406.56	1511.40
406.77	1538.02
406.98	1609.70
407.18	1492.97
407.39	1630.18
407.60	1605.61
407.80	1505.26
408.01	1519.59
408.22	1511.40
408.43	1538.02
408.63	1521.64
408.84	1525.74
409.05	1540.07
409.25	1472.49
409.46	1447.91
409.67	1531.88
409.88	1470.44
410.08	1595.37
410.29	1423.34
410.50	1515.50
410.70	1558.50
410.91	1511.40
411.12	1529.83
411.32	1562.60
411.53	1615.85
411.74	1679.33
411.95	1546.22
412.15	1521.64
412.36	1658.85
412.57	1564.65
412.77	1570.79
412.98	1554.41
413.19	1527.78
413.39	1576.94
413.60	1558.50
413.81	1658.85
414.01	1581.03
414.22	1597.42
414.43	1638.38
414.63	1595.37
414.84	1562.60
415.05	1572.84
415.25	1552.36
415.46	1542.12
415.67	1544.17
415.87	1566.70
416.08	1583.08
416.29	1531.88
416.49	1576.94
416.70	1501.16
416.91	1554.41
417.11	1578.98
417.32	1527.78
417.53	1603.56
417.73	1556.46
417.94	1513.45
418.15	1548.26
418.35	1503.21
418.56	1495.02
418.77	1640.42
418.97	1525.74
419.18	1540.07
419.38	1468.39
419.59	1538.02
419.80	1542.12
420.00	1560.55
420.21	1507.30
420.42	1538.02
420.62	1640.42
420.83	1439.72
421.04	1486.83
421.24	1507.30
421.45	1542.12
421.65	1558.50
421.86	1480.68
422.07	1570.79
422.27	1562.60
422.48	1503.21
422.69	1431.53
422.89	1556.46
423.10	1519.59
423.30	1503.21
423.51	1572.84
423.72	1540.07
423.92	1531.88
424.13	1460.20
424.33	1578.98
424.54	1583.08
424.75	1550.31
424.95	1605.61
425.16	1517.54
425.36	1495.02
425.57	1570.79
425.78	1583.08
425.98	1619.94
426.19	1490.92
426.39	1462.25
426.60	1550.31
426.81	1576.94
427.01	1619.94
427.22	1490.92
427.42	1468.39
427.63	1519.59
427.83	1630.18
428.04	1609.70
428.25	1570.79
428.45	1609.70
428.66	1632.23
428.86	1611.75
429.07	1533.93
429.28	1630.18
429.48	1562.60
429.69	1527.78
429.89	1601.51
430.10	1503.21
430.30	1609.70
430.51	1613.80
430.71	1556.46
430.92	1497.07
431.13	1505.26
431.33	1601.51
431.54	1574.89
431.74	1535.98
431.95	1691.62
432.15	1468.39
432.36	1605.61
432.56	1566.70
432.77	1607.66
432.98	1609.70
433.18	1585.13
433.39	1441.77
433.59	1525.74
433.80	1595.37
434.00	1656.81
434.21	1468.39
434.41	1449.96
434.62	1644.52
434.82	1456.11
435.03	1472.49
435.23	1482.73
435.44	1466.35
435.64	1570.79
435.85	1599.46
436.06	1538.02
436.26	1613.80
436.47	1542.12
436.67	1544.17
436.88	1460.20
437.08	1578.98
437.29	1599.46
437.49	1538.02
437.70	1519.59
437.90	1599.46
438.11	1681.38
438.31	1603.56
438.52	1712.10
438.72	1716.20
438.93	1658.85
439.13	1697.77
439.34	1677.29
439.54	1531.88
439.75	1574.89
439.95	1691.62
440.16	1550.31
440.36	1513.45
440.57	1634.28
440.77	1544.17
440.98	1585.13
441.18	1630.18
441.39	1501.16
441.59	1503.21
441.80	1574.89
442.00	1576.94
442.21	1603.56
442.41	1509.35
442.62	1572.84
442.82	1554.41
443.02	1531.88
443.23	1544.17
443.43	1515.50
443.64	1574.89
443.84	1484.78
444.05	1556.46
444.25	1540.07
444.46	1527.78
444.66	1603.56
444.87	1611.75
445.07	1466.35
445.28	1613.80
445.48	1593.32
445.69	1603.56
445.89	1675.24
446.09	1624.04
446.30	2062.30
446.50	3039.19
446.71	4585.40
446.91	5339.05
447.12	5767.08
447.32	5658.54
447.53	4683.70
447.73	4018.11
447.93	3606.47
448.14	3401.68
448.34	3215.31
448.55	2944.98
448.75	2920.40
448.96	2787.29
449.16	2547.67
449.36	2283.49
449.57	1994.72
449.77	1771.49
449.98	1734.63
450.18	1632.23
450.39	1619.94
450.59	1570.79
450.79	1585.13
451.00	1460.20
451.20	1621.99
451.41	1519.59
451.61	1521.64
451.81	1607.66
452.02	1511.40
452.22	1546.22
452.43	1511.40
452.63	1527.78
452.84	1505.26
453.04	1478.63
453.24	1613.80
453.45	1511.40
453.65	1558.50
453.86	1511.40
454.06	1576.94
454.26	1529.83
454.47	1458.15
454.67	1660.90
454.87	1669.09
455.08	1482.73
455.28	1640.42
455.49	1595.37
455.69	1576.94
455.89	1632.23
456.10	1581.03
456.30	1480.68
456.51	1521.64
456.71	1460.20
456.91	1603.56
457.12	1474.54
457.32	1558.50
457.52	1525.74
457.73	1546.22
457.93	1619.94
458.14	1546.22
458.34	1509.35
458.54	1474.54
458.75	1548.26
458.95	1619.94
459.15	1556.46
459.36	1585.13
459.56	1640.42
459.76	1693.67
459.97	1492.97
460.17	1566.70
460.37	1626.09
460.58	1531.88
460.78	1585.13
460.99	1556.46
461.19	1656.81
461.39	1474.54
461.60	1511.40
461.80	1583.08
462.00	1488.87
462.21	1515.50
462.41	1525.74
462.61	1548.26
462.82	1513.45
463.02	1595.37
463.22	1501.16
463.43	1591.27
463.63	1525.74
463.83	1607.66
464.04	1648.61
464.24	1472.49
464.44	1521.64
464.64	1556.46
464.85	1566.70
465.05	1650.66
465.25	1509.35
465.46	1525.74
465.66	1558.50
465.86	1570.79
466.07	1484.78
466.27	1542.12
466.47	1478.63
466.68	1546.22
466.88	1576.94
467.08	1574.89
467.29	1597.42
467.49	1591.27
467.69	1554.41
467.89	1503.21
468.10	1636.33
468.30	1599.46
468.50	1564.65
468.71	1505.26
468.91	1490.92
469.11	1521.64
469.31	1583.08
469.52	1486.83
469.72	1626.09
469.92	1634.28
470.13	1509.35
470.33	1583.08
470.53	1742.82
470.73	2088.93
470.94	2287.58
471.14	2430.94
471.34	2598.87
471.54	2521.05
471.75	2226.14
471.95	2119.65
472.15	1927.14
472.36	1968.10
472.56	1941.47
472.76	1945.57
472.96	1923.04
473.17	1779.68
473.37	1757.16
473.57	1703.91
473.77	1662.95
473.98	1581.03
474.18	1568.74
474.38	1689.57
474.58	1538.02
474.79	1531.88
474.99	1581.03
475.19	1597.42
475.39	1460.20
475.60	1564.65
475.80	1548.26
476.00	1540.07
476.20	1576.94
476.41	1611.75
476.61	1648.61
476.81	1544.17
477.01	1443.82
477.21	1605.61
477.42	1673.19
477.62	1480.68
477.82	1607.66
478.02	1585.13
478.23	1609.70
478.43	1492.97
478.63	1501.16
478.83	1470.44
479.03	1560.55
479.24	1574.89
479.44	1640.42
479.64	1523.69
479.84	1517.54
480.04	1519.59
480.25	1562.60
480.45	1535.98
480.65	1595.37
480.85	1574.89
481.06	1554.41
481.26	1574.89
481.46	1509.35
481.66	1552.36
481.86	1503.21
482.06	1593.32
482.27	1548.26
482.47	1593.32
482.67	1470.44
482.87	1529.83
483.07	1593.32
483.28	1570.79
483.48	1435.63
483.68	1488.87
483.88	1531.88
484.08	1456.11
484.29	1462.25
484.49	1613.80
484.69	1474.54
484.89	1558.50
485.09	1533.93
485.29	1632.23
485.50	1632.23
485.70	1570.79
485.90	1574.89
486.10	1542.12
486.30	1607.66
486.50	1511.40
486.71	1550.31
486.91	1523.69
487.11	1578.98
487.31	1472.49
487.51	1535.98
487.71	1556.46
487.91	1558.50
488.12	1509.35
488.32	1429.48
488.52	1544.17
488.72	1435.63
488.92	1593.32
489.12	1599.46
489.32	1550.31
489.53	1576.94
489.73	1495.02
489.93	1583.08
490.13	1462.25
490.33	1478.63
490.53	1546.22
490.73	1568.74
490.94	1480.68
491.14	1574.89
491.34	1722.34
491.54	2111.46
491.74	2559.96
491.94	3117.01
492.14	3293.13
492.34	3231.69
492.54	2879.44
492.75	2549.72
492.95	2361.31
493.15	2217.95
493.35	2205.66
493.55	2097.12
493.75	2070.50
493.95	2066.40
494.15	1984.48
494.35	1806.31
494.56	1691.62
494.76	1671.14
494.96	1628.14
495.16	1605.61
495.36	1511.40
495.56	1574.89
495.76	1550.31
495.96	1593.32
496.16	1509.35
496.36	1654.76
496.56	1515.50
496.77	1533.93
496.97	1525.74
497.17	1634.28
497.37	1519.59
497.57	1591.27
497.77	1531.88
497.97	1544.17
498.17	1538.02
498.37	1615.85
498.57	1578.98
498.77	1591.27
498.97	1562.60
499.17	1626.09
499.38	1634.28
499.58	1576.94
499.78	1669.09
499.98	1609.70
500.18	1552.36
500.38	1556.46
500.58	1796.07
500.78	2625.50
500.98	5189.55
501.18	6743.96
501.38	8206.21
501.58	8785.79
501.78	7952.26
501.98	5990.31
502.18	5361.58
502.38	4691.90
502.58	4274.11
502.78	3944.39
502.98	3868.61
503.18	3581.90
503.38	3413.96
503.59	3035.09
503.79	2836.44
503.99	2514.91
504.19	2412.51
504.39	2185.18
504.59	2154.46
504.79	2027.49
504.99	1978.34
505.19	1816.55
505.39	1818.60
505.59	1789.92
505.79	1718.25
505.99	1654.76
506.19	1615.85
506.39	1667.05
506.59	1593.32
506.79	1535.98
506.99	1640.42
507.19	1640.42
507.39	1624.04
507.59	1540.07
507.79	1601.51
507.99	1527.78
508.19	1544.17
508.39	1574.89
508.59	1527.78
508.79	1628.14
508.99	1630.18
509.19	1572.84
509.39	1628.14
509.59	1466.35
509.79	1531.88
509.99	1581.03
510.19	1576.94
510.39	1566.70
510.59	1509.35
510.79	1501.16
510.99	1497.07
511.19	1476.59
511.39	1677.29
511.59	1619.94
511.79	1593.32
511.99	1490.92
512.19	1591.27
512.38	1576.94
512.58	1587.18
512.78	1509.35
512.98	1550.31
513.18	1628.14
513.38	1511.40
513.58	1542.12
513.78	1531.88
513.98	1523.69
514.18	1505.26
514.38	1533.93
514.58	1554.41
514.78	1458.15
514.98	1458.15
515.18	1585.13
515.38	1447.91
515.58	1570.79
515.78	1566.70
515.98	1601.51
516.18	1581.03
516.38	1503.21
516.57	1593.32
516.77	1480.68
516.97	1576.94
517.17	1570.79
517.37	1472.49
517.57	1529.83
517.77	1511.40
517.97	1474.54
518.17	1576.94
518.37	1521.64
518.57	1525.74
518.77	1468.39
518.97	1603.56
519.16	1525.74
519.36	1638.38
519.56	1540.07
519.76	1488.87
519.96	1538.02
520.16	1566.70
520.36	1517.54
520.56	1632.23
520.76	1486.83
520.96	1511.40
521.16	1585.13
521.35	1607.66
521.55	1644.52
521.75	1538.02
521.95	1542.12
522.15	1548.26
522.35	1527.78
522.55	1562.60
522.75	1632.23
522.95	1505.26
523.14	1492.97
523.34	1527.78
523.54	1538.02
523.74	1564.65
523.94	1581.03
524.14	1556.46
524.34	1523.69
524.54	1583.08
524.73	1560.55
524.93	1554.41
525.13	1527.78
525.33	1548.26
525.53	1708.01
525.73	1499.11
525.93	1564.65
526.13	1503.21
526.32	1488.87
526.52	1482.73
526.72	1599.46
526.92	1523.69
527.12	1554.41
527.32	1468.39
527.52	1470.44
527.71	1431.53
527.91	1535.98
528.11	1423.34
528.31	1517.54
528.51	1527.78
528.71	1546.22
528.90	1583.08
529.10	1603.56
529.30	1574.89
529.50	1544.17
529.70	1624.04
529.90	1492.97
530.09	1519.59
530.29	1517.54
530.49	1452.01
530.69	1642.47
530.89	1556.46
531.09	1644.52
531.28	1511.40
531.48	1609.70
531.68	1490.92
531.88	1540.07
532.08	1568.74
532.28	1609.70
532.47	1535.98
532.67	1677.29
532.87	1564.65
533.07	1521.64
533.27	1671.14
533.46	1597.42
533.66	1581.03
533.86	1624.04
534.06	1519.59
534.26	1552.36
534.45	1538.02
534.65	1597.42
534.85	1542.12
535.05	1540.07
535.25	1583.08
535.44	1445.87
535.64	1581.03
535.84	1499.11
536.04	1542.12
536.24	1570.79
536.43	1644.52
536.63	1552.36
536.83	1591.27
537.03	1578.98
537.22	1454.06
537.42	1507.30
537.62	1540.07
537.82	1550.31
538.02	1613.80
538.21	1578.98
538.41	1660.90
538.61	1597.42
538.81	1646.57
539.00	1519.59
539.20	1443.82
539.40	1482.73
539.60	1589.22
539.79	1646.57
539.99	1546.22
540.19	1492.97
540.39	1413.10
540.58	1576.94
540.78	1603.56
540.98	1607.66
541.18	1535.98
541.37	1576.94
541.57	1601.51
541.77	1550.31
541.97	1507.30
542.16	1501.16
542.36	1525.74
542.56	1581.03
542.76	1693.67
542.95	1556.46
543.15	1501.16
543.35	1619.94
543.54	1509.35
543.74	1519.59
543.94	1544.17
544.14	1447.91
544.33	1564.65
544.53	1591.27
544.73	1505.26
544.93	1560.55
545.12	1503.21
545.32	1552.36
545.52	1511.40
545.71	1464.30
545.91	1538.02
546.11	1525.74
546.30	1529.83
546.50	1628.14
546.70	1603.56
546.90	1566.70
547.09	1472.49
547.29	1615.85
547.49	1591.27
547.68	1484.78
547.88	1552.36
548.08	1601.51
548.27	1976.29
548.47	1480.68
548.67	1503.21
548.87	1562.60
549.06	1511.40
549.26	1603.56
549.46	1554.41
549.65	1460.20
549.85	1554.41
550.05	1585.13
550.24	1482.73
550.44	1484.78
550.64	1501.16
550.83	1490.92
551.03	1576.94
551.23	1544.17
551.42	1587.18
551.62	1552.36
551.82	1521.64
552.01	1535.98
552.21	1585.13
552.41	1449.96
552.60	1572.84
552.80	1558.50
553.00	1576.94
553.19	1533.93
553.39	1619.94
553.59	1556.46
553.78	1525.74
553.98	1544.17
554.17	1519.59
554.37	1601.51
554.57	1593.32
554.76	1515.50
554.96	1429.48
555.16	1572.84
555.35	1566.70
555.55	1521.64
555.75	1605.61
555.94	1597.42
556.14	1470.44
556.33	1568.74
556.53	1540.07
556.73	1646.57
556.92	1574.89
557.12	1509.35
557.32	1626.09
557.51	1562.60
557.71	1556.46
557.90	1669.09
558.10	1556.46
558.30	1499.11
558.49	1607.66
558.69	1568.74
558.88	1558.50
559.08	1529.83
559.28	1601.51
559.47	1550.31
559.67	1583.08
559.86	1634.28
560.06	1535.98
560.26	1574.89
560.45	1599.46
560.65	1492.97
560.84	1578.98
561.04	1546.22
561.24	1574.89
561.43	1454.06
561.63	1589.22
561.82	1591.27
562.02	1593.32
562.22	1599.46
562.41	1484.78
562.61	1558.50
562.80	1437.67
563.00	1644.52
563.19	1540.07
563.39	1576.94
563.59	1589.22
563.78	1533.93
563.98	1454.06
564.17	1535.98
564.37	1527.78
564.56	1492.97
564.76	1538.02
564.96	1497.07
565.15	1533.93
565.35	1636.33
565.54	1486.83
565.74	1585.13
565.93	1560.55
566.13	1581.03
566.32	1499.11
566.52	1605.61
566.71	1558.50
566.91	1566.70
567.11	1550.31
567.30	1568.74
567.50	1562.60
567.69	1585.13
567.89	1593.32
568.08	1505.26
568.28	1492.97
568.47	1492.97
568.67	1624.04
568.86	1513.45
569.06	1628.14
569.25	1538.02
569.45	1515.50
569.64	1554.41
569.84	1597.42
570.04	1564.65
570.23	1515.50
570.43	1490.92
570.62	1585.13
570.82	1593.32
571.01	1509.35
571.21	1488.87
571.40	1462.25
571.60	1648.61
571.79	1628.14
571.99	1626.09
572.18	1478.63
572.38	1560.55
572.57	1595.37
572.77	1603.56
572.96	1665.00
573.16	1554.41
573.35	1550.31
573.55	1626.09
573.74	1599.46
573.94	1581.03
574.13	1519.59
574.33	1634.28
574.52	1628.14
574.71	1628.14
574.91	1578.98
575.10	1544.17
575.30	1525.74
575.49	1517.54
575.69	1538.02
575.88	1548.26
576.08	1650.66
576.27	1755.11
576.47	1599.46
576.66	1665.00
576.86	1621.99
577.05	1585.13
577.25	1578.98
577.44	1656.81
577.64	1591.27
577.83	1615.85
578.02	1648.61
578.22	1652.71
578.41	1703.91
578.61	1593.32
578.80	1509.35
579.00	1621.99
579.19	1581.03
579.39	1497.07
579.58	1644.52
579.77	1589.22
579.97	1617.90
580.16	1638.38
580.36	1615.85
580.55	1656.81
580.75	1558.50
580.94	1548.26
581.13	1681.38
581.33	1646.57
581.52	1601.51
581.72	1665.00
581.91	1607.66
582.11	1595.37
582.30	1501.16
582.49	1617.90
582.69	1644.52
582.88	1581.03
583.08	1583.08
583.27	1648.61
583.47	1558.50
583.66	1540.07
583.85	1681.38
584.05	1505.26
584.24	1624.04
584.44	1607.66
584.63	1673.19
584.82	1718.25
585.02	1712.10
585.21	1740.77
585.41	1765.35
585.60	1755.11
585.79	1845.22
585.99	1837.03
586.18	1730.53
586.37	2174.94
586.57	3112.91
586.76	9568.11
586.96	27563.61
587.15	43965.79
587.34	54658.24
587.54	61803.60
587.73	59843.69
587.93	43724.13
588.12	32626.19
588.31	26125.94
588.51	22030.00
588.70	19908.30
588.89	18507.49
589.09	16973.56
589.28	15494.93
589.47	13305.65
589.67	11206.48
589.86	8877.94
590.06	6770.58
590.25	5099.44
590.44	3764.17
590.64	2918.36
590.83	2359.26
591.02	2056.16
591.22	1888.23
591.41	1861.60
591.60	1658.85
591.80	1730.53
591.99	1607.66
592.18	1695.72
592.38	1607.66
592.57	1591.27
592.76	1617.90
592.96	1589.22
593.15	1613.80
593.34	1624.04
593.54	1574.89
593.73	1566.70
593.92	1695.72
594.12	1605.61
594.31	1648.61
594.50	1695.72
594.70	1632.23
594.89	1701.86
595.08	1548.26
595.28	1628.14
595.47	1699.81
595.66	1572.84
595.86	1540.07
596.05	1605.61
596.24	1621.99
596.43	1697.77
596.63	1626.09
596.82	1611.75
597.01	1640.42
597.21	1660.90
597.40	1626.09
597.59	1599.46
597.79	1552.36
597.98	1626.09
598.17	1585.13
598.36	1550.31
598.56	1554.41
598.75	1632.23
598.94	1601.51
599.14	1665.00
599.33	1525.74
599.52	1624.04
599.71	1642.47
599.91	1669.09
600.10	1570.79
600.29	1560.55
600.48	1525.74
600.68	1587.18
600.87	1593.32
601.06	1554.41
601.26	1601.51
601.45	1542.12
601.64	1599.46
601.83	1574.89
602.03	1554.41
602.22	1568.74
602.41	1626.09
602.60	1732.58
602.80	1595.37
602.99	1601.51
603.18	1564.65
603.37	1499.11
603.57	1617.90
603.76	1556.46
603.95	1540.07
604.14	1558.50
604.34	1566.70
604.53	1531.88
604.72	1507.30
604.91	1576.94
605.10	1595.37
605.30	1490.92
605.49	1640.42
605.68	1511.40
605.87	1611.75
606.07	1583.08
606.26	1513.45
606.45	1554.41
606.64	1505.26
606.84	1591.27
607.03	1634.28
607.22	1630.18
607.41	1642.47
607.60	1480.68
607.80	1574.89
607.99	1556.46
608.18	1576.94
608.37	1501.16
608.56	1626.09
608.76	1554.41
608.95	1662.95
609.14	1605.61
609.33	1679.33
609.52	1763.30
609.72	1656.81
609.91	1689.57
610.10	1628.14
610.29	1609.70
610.48	1581.03
610.68	1581.03
610.87	1601.51
611.06	1646.57
611.25	1546.22
611.44	1572.84
611.63	1527.78
611.83	1599.46
612.02	1480.68
612.21	1599.46
612.40	1505.26
612.59	1509.35
612.79	1525.74
612.98	1499.11
613.17	1583.08
613.36	1591.27
613.55	1667.05
613.74	1593.32
613.93	1746.92
614.13	1845.22
614.32	1681.38
614.51	1736.68
614.70	1697.77
614.89	1636.33
615.08	1619.94
615.28	1839.08
615.47	1533.93
615.66	1607.66
615.85	1646.57
616.04	1683.43
616.23	1681.38
616.42	1527.78
616.62	1613.80
616.81	1587.18
617.00	1548.26
617.19	1595.37
617.38	1634.28
617.57	1640.42
617.76	1605.61
617.95	1525.74
618.15	1583.08
618.34	1638.38
618.53	1533.93
618.72	1591.27
618.91	1669.09
619.10	1685.48
619.29	1556.46
619.48	1583.08
619.68	1515.50
619.87	1554.41
620.06	1548.26
620.25	1578.98
620.44	1566.70
620.63	1554.41
620.82	1562.60
621.01	1576.94
621.20	1662.95
621.39	1597.42
621.59	1554.41
621.78	1511.40
621.97	1503.21
622.16	1556.46
622.35	1527.78
622.54	1560.55
622.73	1591.27
622.92	1454.06
623.11	1546.22
623.30	1525.74
623.49	1572.84
623.68	1595.37
623.88	1603.56
624.07	1533.93
624.26	1527.78
624.45	1615.85
624.64	1476.59
624.83	1503.21
625.02	1578.98
625.21	1554.41
625.40	1570.79
625.59	1572.84
625.78	1464.30
625.97	1611.75
626.16	1708.01
626.35	1630.18
626.54	1673.19
626.74	1652.71
626.93	1615.85
627.12	1591.27
627.31	1597.42
627.50	1585.13
627.69	1630.18
627.88	1617.90
628.07	1609.70
628.26	1511.40
628.45	1568.74
628.64	1525.74
628.83	1595.37
629.02	1452.01
629.21	1562.60
629.40	1619.94
629.59	1517.54
629.78	1517.54
629.97	1568.74
630.16	1558.50
630.35	1605.61
630.54	1554.41
630.73	1458.15
630.92	1585.13
631.11	1503.21
631.30	1542.12
631.49	1558.50
631.68	1552.36
631.87	1599.46
632.06	1509.35
632.25	1638.38
632.44	1593.32
632.63	1619.94
632.82	1628.14
633.01	1552.36
633.20	1615.85
633.39	1609.70
633.58	1640.42
633.77	1591.27
633.96	1638.38
634.15	1642.47
634.34	1617.90
634.53	1576.94
634.72	1523.69
634.91	1517.54
635.10	1484.78
635.29	1638.38
635.48	1585.13
635.67	1484.78
635.86	1484.78
636.05	1546.22
636.24	1511.40
636.43	1574.89
636.62	1540.07
636.81	1382.38
637.00	1562.60
637.19	1482.73
637.38	1564.65
637.57	1507.30
637.76	1619.94
637.95	1679.33
638.14	1591.27
638.33	1662.95
638.52	1593.32
638.71	1513.45
638.89	1527.78
639.08	1677.29
639.27	1671.14
639.46	1712.10
639.65	1974.24
639.84	2093.02
640.03	2148.32
640.22	2138.08
640.41	2228.19
640.60	1974.24
640.79	1859.56
640.98	1812.45
641.17	1875.94
641.36	1720.29
641.55	1740.77
641.74	1574.89
641.92	1564.65
642.11	1628.14
642.30	1636.33
642.49	1595.37
642.68	1554.41
642.87	1617.90
643.06	1636.33
643.25	1552.36
643.44	1492.97
643.63	1568.74
643.82	1599.46
644.00	1439.72
644.19	1619.94
644.38	1419.24
644.57	1550.31
644.76	1570.79
644.95	1476.59
645.14	1556.46
645.33	1538.02
645.52	1529.83
645.71	1427.43
645.89	1474.54
646.08	1552.36
646.27	1507.30
646.46	1665.00
646.65	1490.92
646.84	1581.03
647.03	1554.41
647.22	1621.99
647.40	1599.46
647.59	1523.69
647.78	1527.78
647.97	1540.07
648.16	1505.26
648.35	1605.61
648.54	1523.69
648.73	1525.74
648.91	1607.66
649.10	1556.46
649.29	1544.17
649.48	1544.17
649.67	1546.22
649.86	1617.90
650.05	1617.90
650.23	1746.92
650.42	1615.85
650.61	1742.82
650.80	1738.73
650.99	1814.50
651.18	1675.24
651.36	1648.61
651.55	1542.12
651.74	1687.53
651.93	1511.40
652.12	1578.98
652.31	1638.38
652.49	1634.28
652.68	1503.21
652.87	1695.72
653.06	1593.32
653.25	1607.66
653.44	1611.75
653.62	1712.10
653.81	1546.22
654.00	1562.60
654.19	1531.88
654.38	1683.43
654.56	1562.60
654.75	1529.83
654.94	1542.12
655.13	1572.84
655.32	1517.54
655.51	1556.46
655.69	1527.78
655.88	1595.37
656.07	1546.22
656.26	1517.54
656.45	1527.78
656.63	1552.36
656.82	1544.17
657.01	1593.32
657.20	1540.07
657.38	1648.61
657.57	1482.73
657.76	1527.78
657.95	1583.08
658.14	1449.96
658.32	1505.26
658.51	1497.07
658.70	1636.33
658.89	1599.46
659.08	1542.12
659.26	1513.45
659.45	1593.32
659.64	1621.99
659.83	1529.83
660.01	1697.77
660.20	1603.56
660.39	1634.28
660.58	1439.72
660.76	1605.61
660.95	1486.83
661.14	1535.98
661.33	1517.54
661.51	1558.50
661.70	1460.20
661.89	1538.02
662.08	1562.60
662.26	1546.22
662.45	1460.20
662.64	1624.04
662.83	1540.07
663.01	1413.10
663.20	1562.60
663.39	1648.61
663.58	1519.59
663.76	1529.83
663.95	1533.93
664.14	1447.91
664.32	1560.55
664.51	1509.35
664.70	1570.79
664.89	1601.51
665.07	1458.15
665.26	1613.80
665.45	1503.21
665.64	1615.85
665.82	1546.22
666.01	1652.71
666.20	1521.64
666.38	1671.14
666.57	1648.61
666.76	1863.65
666.95	3004.37
667.13	7690.12
667.32	15677.20
667.51	20174.54
667.69	23430.81
667.88	25218.69
668.07	22111.92
668.25	15669.01
668.44	12349.25
668.63	10047.33
668.81	8667.00
669.00	7720.84
669.19	7239.57
669.38	6541.21
669.56	5664.68
669.75	4859.83
669.94	4122.56
670.12	3368.91
670.31	2711.51
670.50	2484.19
670.68	2154.46
670.87	1943.52
671.06	1748.97
671.24	1757.16
671.43	1751.01
671.62	1675.24
671.80	1564.65
671.99	1658.85
672.18	1570.79
672.36	1636.33
672.55	1509.35
672.74	1607.66
672.92	1595.37
673.11	1599.46
673.29	1476.59
673.48	1546.22
673.67	1503.21
673.85	1578.98
674.04	1478.63
674.23	1556.46
674.41	1640.42
674.60	1556.46
674.79	1515.50
674.97	1501.16
675.16	1591.27
675.34	1619.94
675.53	1486.83
675.72	1609.70
675.90	1656.81
676.09	1503.21
676.28	1501.16
676.46	1501.16
676.65	1626.09
676.83	1474.54
677.02	1560.55
677.21	1523.69
677.39	1462.25
677.58	1548.26
677.77	1505.26
677.95	1505.26
678.14	1585.13
678.32	1517.54
678.51	1533.93
678.70	1593.32
678.88	1548.26
679.07	1591.27
679.25	1593.32
679.44	1560.55
679.63	1511.40
679.81	1574.89
680.00	1550.31
680.18	1564.65
680.37	1626.09
680.55	1476.59
680.74	1472.49
680.93	1411.05
681.11	1525.74
681.30	1503.21
681.48	1511.40
681.67	1560.55
681.85	1648.61
682.04	1515.50
682.23	1562.60
682.41	1523.69
682.60	1548.26
682.78	1560.55
682.97	1501.16
683.15	1507.30
683.34	1589.22
683.53	1660.90
683.71	1501.16
683.90	1597.42
684.08	1581.03
684.27	1486.83
684.45	1591.27
684.64	1589.22
684.82	1458.15
685.01	1583.08
685.19	1513.45
685.38	1617.90
685.57	1533.93
685.75	1544.17
685.94	1574.89
686.12	1548.26
686.31	1578.98
686.49	1609.70
686.68	1499.11
686.86	1521.64
687.05	1468.39
687.23	1544.17
687.42	1495.02
687.60	1484.78
687.79	1531.88
687.97	1648.61
688.16	1609.70
688.34	1624.04
688.53	1406.95
688.71	1507.30
688.90	1630.18
689.08	1546.22
689.27	1458.15
689.45	1558.50
689.64	1529.83
689.82	1540.07
690.01	1589.22
690.19	1492.97
690.38	1538.02
690.56	1558.50
690.75	1560.55
690.93	1435.63
691.12	1507.30
691.30	1511.40
691.49	1560.55
691.67	1509.35
691.86	1669.09
692.04	1478.63
692.23	1562.60
692.41	1544.17
692.60	1701.86
692.78	1552.36
692.97	1677.29
693.15	1587.18
693.34	1673.19
693.52	1605.61
693.71	1560.55
693.89	1531.88
694.08	1472.49
694.26	1646.57
694.44	1613.80
694.63	1576.94
694.81	1505.26
695.00	1591.27
695.18	1535.98
695.37	1671.14
695.55	1519.59
695.74	1589.22
695.92	1562.60
696.10	1630.18
696.29	1447.91
696.47	1558.50
696.66	1443.82
696.84	1462.25
697.03	1554.41
697.21	1681.38
697.40	2031.58
697.58	1552.36
697.76	1492.97
697.95	1597.42
698.13	1527.78
698.32	1515.50
698.50	1466.35
698.68	1611.75
698.87	1501.16
699.05	1646.57
699.24	1558.50
699.42	1468.39
699.61	1595.37
699.79	1525.74
699.97	1576.94
700.16	1519.59
700.34	1472.49
700.53	1574.89
700.71	1513.45
700.89	1531.88
701.08	1482.73
701.26	1552.36
701.45	1796.07
701.63	1574.89
701.81	1515.50
702.00	1531.88
702.18	1540.07
702.37	1378.28
702.55	1591.27
702.73	1697.77
702.92	1675.24
703.10	1820.64
703.28	1779.68
703.47	1734.63
703.65	1718.25
703.84	1728.49
704.02	1564.65
704.20	1654.76
704.39	1583.08
704.57	1619.94
704.75	1650.66
704.94	1574.89
705.12	1626.09
705.30	1703.91
705.49	1861.60
705.67	2834.39
705.86	7348.11
706.04	14554.91
706.22	18712.29
706.41	21878.45
706.59	23121.57
706.77	20969.15
706.96	14735.14
707.14	11618.13
707.32	9703.28
707.51	8738.68
707.69	7577.48
707.87	6696.86
708.06	5760.94
708.24	4788.15
708.42	3704.78
708.61	2959.31
708.79	2285.53
708.97	1994.72
709.16	1894.37
709.34	1826.79
709.52	1669.09
709.71	1593.32
709.89	1660.90
710.07	1570.79
710.26	1583.08
710.44	1634.28
710.62	1683.43
710.80	1581.03
710.99	1560.55
711.17	1628.14
711.35	1578.98
711.54	1501.16
711.72	1609.70
711.90	1525.74
712.09	1550.31
712.27	1513.45
712.45	1613.80
712.63	1603.56
712.82	1576.94
713.00	1527.78
713.18	1540.07
713.37	1550.31
713.55	1546.22
713.73	1601.51
713.91	1585.13
714.10	1517.54
714.28	1535.98
714.46	1542.12
714.65	1585.13
714.83	1529.83
715.01	1525.74
715.19	1540.07
715.38	1472.49
715.56	1634.28
715.74	1492.97
715.92	1468.39
716.11	1646.57
716.29	1554.41
716.47	1521.64
716.65	1499.11
716.84	1449.96
717.02	1621.99
717.20	1519.59
717.38	1511.40
717.57	1558.50
717.75	1566.70
717.93	1519.59
718.11	1605.61
718.30	1468.39
718.48	1515.50
718.66	1527.78
718.84	1593.32
719.03	1576.94
719.21	1560.55
719.39	1675.24
719.57	1501.16
719.75	1576.94
719.94	1538.02
720.12	1460.20
720.30	1574.89
720.48	1554.41
720.67	1492.97
720.85	1507.30
721.03	1554.41
721.21	1429.48
721.39	1648.61
721.58	1505.26
721.76	1564.65
721.94	1562.60
722.12	1517.54
722.30	1560.55
722.49	1484.78
722.67	1482.73
722.85	1572.84
723.03	1449.96
723.21	1544.17
723.40	1576.94
723.58	1505.26
723.76	1624.04
723.94	1605.61
724.12	1621.99
724.30	1609.70
724.49	1628.14
724.67	1576.94
724.85	1599.46
725.03	1621.99
725.21	1495.02
725.40	1626.09
725.58	1527.78
725.76	1640.42
725.94	1476.59
726.12	1589.22
726.30	1566.70
726.49	1550.31
726.67	1562.60
726.85	1542.12
727.03	1595.37
727.21	1798.12
727.39	2150.37
727.57	3235.79
727.76	4198.34
727.94	4714.42
728.12	5181.36
728.30	5111.73
728.48	4370.37
728.66	3448.78
728.84	3241.93
729.03	2838.48
729.21	2611.16
729.39	2279.39
729.57	2013.15
729.75	1861.60
729.93	1861.60
730.11	1615.85
730.30	1650.66
730.48	1517.54
730.66	1662.95
730.84	1556.46
731.02	1552.36
731.20	1517.54
731.38	1632.23
731.56	1525.74
731.74	1499.11
731.93	1519.59
732.11	1589.22
732.29	1535.98
732.47	1597.42
732.65	1519.59
732.83	1599.46
733.01	1570.79
733.19	1503.21
733.37	1462.25
733.56	1568.74
733.74	1538.02
733.92	1669.09
734.10	1550.31
734.28	1568.74
734.46	1404.91
734.64	1497.07
734.82	1482.73
735.00	1544.17
735.18	1560.55
735.36	1542.12
735.54	1495.02
735.73	1513.45
735.91	1591.27
736.09	1609.70
736.27	1542.12
736.45	1550.31
736.63	1466.35
736.81	1509.35
736.99	1538.02
737.17	1540.07
737.35	1548.26
737.53	1544.17
737.71	1574.89
737.89	1581.03
738.07	1521.64
738.25	1517.54
738.43	1452.01
738.61	1505.26
738.80	1503.21
738.98	1556.46
739.16	1474.54
739.34	1521.64
739.52	1609.70
739.70	1576.94
739.88	1611.75
740.06	1652.71
740.24	1490.92
740.42	1665.00
740.60	1531.88
740.78	1507.30
740.96	1474.54
741.14	1552.36
741.32	1593.32
741.50	1484.78
741.68	1601.51
741.86	1619.94
742.04	1517.54
742.22	1513.45
742.40	1564.65
742.58	1570.79
742.76	1546.22
742.94	1523.69
743.12	1525.74
743.30	1570.79
743.48	1593.32
743.66	1521.64
743.84	1632.23
744.02	1603.56
744.20	1546.22
744.38	1538.02
744.56	1486.83
744.74	1574.89
744.92	1509.35
745.10	1632.23
745.28	1560.55
745.46	1640.42
745.64	1513.45
745.82	1636.33
746.00	1607.66
746.18	1570.79
746.36	1497.07
746.54	1503.21
746.72	1556.46
746.90	1533.93
747.08	1613.80
747.26	1490.92
747.44	1576.94
747.62	1531.88
747.80	1550.31
747.98	1554.41
748.15	1624.04
748.33	1519.59
748.51	1615.85
748.69	1560.55
748.87	1587.18
749.05	1544.17
749.23	1519.59
749.41	1521.64
749.59	1535.98
749.77	1642.47
749.95	1603.56
750.13	1546.22
750.31	1540.07
750.49	1572.84
750.67	1591.27
750.85	1552.36
751.03	1550.31
751.20	1621.99
751.38	1521.64
751.56	1587.18
751.74	1509.35
751.92	1556.46
752.10	1542.12
752.28	1646.57
752.46	1509.35
752.64	1517.54
752.82	1517.54
753.00	1544.17
753.18	1544.17
753.35	1488.87
753.53	1570.79
753.71	1480.68
753.89	1595.37
754.07	1560.55
754.25	1560.55
754.43	1540.07
754.61	1445.87
754.79	1533.93
754.97	1513.45
755.14	1605.61
755.32	1509.35
755.50	1554.41
755.68	1513.45
755.86	1499.11
756.04	1501.16
756.22	1472.49
756.40	1646.57
756.57	1538.02
756.75	1566.70
756.93	1593.32
757.11	1572.84
757.29	1511.40
757.47	1429.48
757.65	1529.83
757.82	1427.43
758.00	1474.54
758.18	1480.68
758.36	1452.01
758.54	1605.61
758.72	1517.54
758.90	1644.52
759.07	1601.51
759.25	1462.25
759.43	1531.88
759.61	1591.27
759.79	1943.52
759.97	1525.74
760.15	1445.87
760.32	1576.94
760.50	1533.93
760.68	1619.94
760.86	1503.21
761.04	1603.56
761.22	1570.79
761.39	1646.57
761.57	1603.56
761.75	1609.70
761.93	1552.36
762.11	1574.89
762.28	1603.56
762.46	1458.15
762.64	1626.09
762.82	1482.73
763.00	1533.93
763.18	1611.75
763.35	1470.44
763.53	1538.02
763.71	1556.46
763.89	1566.70
764.07	1583.08
764.24	1546.22
764.42	1626.09
764.60	1513.45
764.78	1529.83
764.96	1572.84
765.13	1572.84
765.31	1509.35
765.49	1574.89
765.67	1474.54
765.84	1505.26
766.02	1519.59
766.20	1466.35
766.38	1611.75
766.56	1476.59
766.73	1617.90
766.91	1538.02
767.09	1490.92
767.27	1589.22
767.44	1503.21
767.62	1495.02
767.80	1449.96
767.98	1515.50
768.15	1513.45
768.33	1513.45
768.51	1560.55
768.69	1492.97
768.87	1583.08
769.04	1488.87
769.22	1619.94
769.40	1542.12
769.58	1650.66
769.75	1527.78
769.93	1546.22
770.11	1507.30
770.28	1529.83
770.46	1533.93
770.64	1574.89
770.82	1544.17
770.99	1550.31
771.17	1585.13
771.35	1529.83
771.53	1581.03
771.70	1542.12
771.88	1515.50
772.06	1558.50
772.23	1503.21
772.41	1492.97
772.59	1527.78
772.77	1525.74
772.94	1499.11
773.12	1540.07
773.30	1476.59
773.47	1583.08
773.65	1509.35
773.83	1581.03
774.01	1542.12
774.18	1431.53
774.36	1578.98
774.54	1476.59
774.71	1607.66
774.89	1527.78
775.07	1476.59
775.24	1552.36
775.42	1505.26
775.60	1570.79
775.78	1464.30
775.95	1492.97
776.13	1396.71
776.31	1454.06
776.48	1519.59
776.66	1591.27
776.84	1462.25
777.01	1538.02
777.19	1517.54
777.37	1458.15
777.54	1560.55
777.72	1593.32
777.90	1505.26
778.07	1513.45
778.25	1570.79
778.43	1554.41
778.60	1558.50
778.78	1599.46
778.96	1552.36
779.13	1511.40
779.31	1603.56
779.49	1560.55
779.66	1476.59
779.84	1507.30
780.01	1652.71
780.19	1482.73
780.37	1599.46
780.54	1552.36
780.72	1574.89
780.90	1492.97
781.07	1597.42
781.25	1550.31
781.43	1576.94
781.60	1527.78
781.78	1638.38
781.95	1607.66
782.13	1509.35
782.31	1542.12
782.48	1515.50
782.66	1476.59
782.83	1599.46
783.01	1507.30
783.19	1531.88
783.36	1462.25
783.54	1474.54
783.72	1505.26
783.89	1476.59
784.07	1576.94
784.24	1492.97
784.42	1589.22
784.60	1529.83
784.77	1503.21
784.95	1480.68
785.12	1554.41
785.30	1519.59
785.47	1480.68
785.65	1513.45
785.83	1525.74
786.00	1486.83
786.18	1474.54
786.35	1478.63
786.53	1503.21
786.71	1603.56
786.88	1615.85
787.06	1497.07
787.23	1619.94
787.41	1490.92
787.58	1499.11
787.76	1515.50
787.94	1538.02
788.11	1511.40
788.29	1505.26
788.46	1529.83
788.64	1523.69
788.81	1624.04
788.99	1509.35
789.16	1578.98
789.34	1589.22
789.52	1497.07
789.69	1570.79
789.87	1464.30
790.04	1591.27
790.22	1544.17
790.39	1568.74
790.57	1517.54
790.74	1556.46
790.92	1550.31
791.09	1439.72
791.27	1505.26
791.44	1527.78
791.62	1542.12
791.79	1538.02
791.97	1529.83
792.15	1665.00
792.32	1603.56
792.50	1605.61
792.67	1648.61
792.85	1572.84
793.02	1511.40
793.20	1466.35
793.37	1439.72
793.55	1556.46
793.72	1443.82
793.90	1550.31
794.07	1480.68
794.25	1449.96
794.42	1560.55
794.60	1517.54
794.77	1515.50
794.95	1560.55
795.12	1531.88
795.30	1527.78
795.47	1515.50
795.65	1644.52
795.82	1578.98
796.00	1497.07
796.17	1550.31
796.34	1562.60
796.52	1468.39
796.69	1568.74
796.87	1572.84
797.04	1574.89
797.22	1544.17
797.39	1599.46
797.57	1492.97
797.74	1535.98
797.92	1503.21
798.09	1570.79
798.27	1581.03
798.44	1454.06
798.62	1505.26
798.79	1519.59
798.96	1589.22
799.14	1558.50
799.31	1636.33
799.49	1544.17
799.66	1474.54
799.84	1603.56
800.01	1525.74
800.19	1613.80
800.36	1441.77
800.53	1542.12
800.71	1525.74
800.88	1568.74
801.06	1525.74
801.23	1525.74
801.41	1443.82
801.58	1501.16
801.75	1495.02
801.93	1519.59
802.10	1626.09
802.28	1492.97
802.45	1437.67
802.63	1564.65
802.80	1554.41
802.97	1486.83
803.15	1468.39
803.32	1505.26
803.50	1562.60
803.67	1458.15
803.84	1511.40
804.02	1548.26
804.19	1488.87
804.37	1456.11
804.54	1540.07
804.71	1558.50
804.89	1613.80
805.06	1517.54
805.24	1544.17
805.41	1464.30
805.58	1454.06
805.76	1583.08
805.93	1544.17
806.10	1535.98
806.28	1546.22
806.45	1593.32
806.63	1599.46
806.80	1533.93
806.97	1591.27
807.15	1562.60
807.32	1497.07
807.49	1615.85
807.67	1490.92
807.84	1554.41
808.01	1441.77
808.19	1640.42
808.36	1683.43
808.54	1523.69
808.71	1511.40
808.88	1517.54
809.06	1570.79
809.23	1613.80
809.40	1560.55
809.58	1646.57
809.75	1566.70
809.92	1495.02
810.10	1642.47
810.27	1535.98
810.44	1552.36
810.62	1603.56
810.79	1509.35
810.96	1589.22
811.14	1533.93
811.31	1546.22
811.48	1546.22
811.66	1505.26
811.83	1611.75
812.00	1544.17
812.18	1609.70
812.35	1550.31
812.52	1544.17
812.69	1544.17
812.87	1499.11
813.04	1490.92
813.21	1507.30
813.39	1548.26
813.56	1472.49
813.73	1525.74
813.91	1431.53
814.08	1585.13
814.25	1609.70
814.42	1468.39
814.60	1507.30
814.77	1546.22
814.94	1603.56
815.12	1617.90
815.29	1595.37
815.46	1509.35
815.63	1523.69
815.81	1560.55
815.98	1562.60
816.15	1507.30
816.33	1509.35
816.50	1558.50
816.67	1505.26
816.84	1535.98
817.02	1531.88
817.19	1460.20
817.36	1535.98
817.53	1529.83
817.71	1517.54
817.88	1587.18
818.05	1556.46
818.22	1531.88
818.40	1601.51
818.57	1482.73
818.74	1482.73
818.91	1566.70
819.09	1511.40
819.26	1492.97
819.43	1495.02
819.60	1523.69
819.78	1562.60
819.95	1636.33
820.12	1554.41
820.29	1591.27
820.47	1568.74
820.64	1521.64
820.81	1470.44
820.98	1468.39
821.15	1490.92
821.33	1574.89
821.50	1464.30
821.67	1591.27
821.84	1490.92
822.02	1521.64
822.19	1540.07
822.36	1456.11
822.53	1468.39
822.70	1585.13
822.88	1511.40
823.05	1607.66
823.22	1574.89
823.39	1488.87
823.56	1535.98
823.74	1535.98
823.91	1452.01
824.08	1482.73
824.25	1474.54
824.42	1562.60
824.60	1507.30
824.77	1546.22
824.94	1540.07
825.11	1529.83
825.28	1501.16
825.45	1560.55
825.63	1568.74
825.80	1460.20
825.97	1529.83
826.14	1542.12
826.31	1523.69
826.48	1531.88
826.66	1497.07
826.83	1540.07
827.00	1509.35
827.17	1464.30
827.34	1538.02
827.51	1521.64
827.69	1492.97
827.86	1421.29
828.03	1599.46
828.20	1550.31
828.37	1488.87
828.54	1556.46
828.71	1456.11
828.89	1591.27
829.06	1527.78
829.23	1568.74
829.40	1488.87
829.57	1458.15
829.74	1583.08
829.91	1535.98
830.09	1525.74
830.26	1566.70
830.43	1574.89
830.60	1531.88
830.77	1599.46
830.94	1607.66
831.11	1548.26
831.28	1511.40
831.46	1599.46
831.63	1560.55
831.80	1583.08
831.97	1529.83
832.14	1538.02
832.31	1621.99
832.48	1474.54
832.65	1581.03
832.82	1525.74
832.99	1517.54
833.17	1497.07
833.34	1667.05
833.51	1601.51
833.68	1449.96
833.85	1597.42
834.02	1382.38
834.19	1490.92
834.36	1470.44
834.53	1617.90
834.70	1642.47
834.87	1517.54
835.04	1556.46
835.22	1538.02
835.39	1535.98
835.56	1488.87
835.73	1550.31
835.90	1585.13
836.07	1482.73
836.24	1587.18
836.41	1501.16
836.58	1525.74
836.75	1630.18
836.92	1609.70
837.09	1449.96
837.26	1603.56
837.43	1615.85
837.60	1570.79
837.77	1554.41
837.94	1523.69
838.12	1488.87
838.29	1595.37
838.46	1529.83
838.63	1482.73
838.80	1626.09
838.97	1624.04
839.14	1511.40
839.31	1609.70
839.48	1603.56
839.65	1540.07
839.82	1544.17
839.99	1554.41
840.16	1568.74
840.33	1519.59
840.50	1562.60
840.67	1433.58
840.84	1437.67
841.01	1527.78
841.18	1492.97
841.35	1531.88
841.52	1576.94
841.69	1662.95
841.86	1503.21
842.03	1495.02
842.20	1587.18
842.37	1540.07
842.54	1550.31
842.71	1540.07
842.88	1523.69
843.05	1591.27
843.22	1439.72
843.39	1533.93
843.56	1503.21
843.73	1556.46
843.90	1540.07
844.07	1476.59
844.24	1538.02
844.41	1626.09
844.58	1617.90
844.75	1515.50
844.92	1593.32
845.09	1583.08
845.26	1511.40
845.43	1556.46
845.60	1535.98
845.77	1599.46
845.94	1578.98
846.10	1566.70
846.27	1464.30
846.44	1484.78
846.61	1382.38
846.78	1495.02
846.95	1505.26
847.12	1519.59
847.29	1476.59
847.46	1456.11
847.63	1572.84
847.80	1505.26
847.97	1556.46
848.14	1566.70
848.31	1521.64
848.48	1480.68
848.65	1568.74
848.82	1531.88
848.98	1675.24
849.15	1527.78
849.32	1501.16
849.49	1576.94
849.66	1552.36
849.83	1490.92
850.00	1476.59
850.17	1564.65
850.34	1527.78
850.51	1439.72
850.68	1515.50
850.85	1615.85
851.01	1542.12
851.18	1603.56
851.35	1591.27
851.52	1540.07
851.69	1546.22
851.86	1517.54
852.03	1462.25
852.20	1544.17
852.37	1605.61
852.53	1474.54
852.70	1503.21
852.87	1509.35
853.04	1544.17
853.21	1525.74
853.38	1503.21
853.55	1624.04
853.72	1593.32
853.89	1503.21
854.05	1456.11
854.22	1599.46
854.39	1503.21
854.56	1538.02
854.73	1570.79
854.90	1511.40
855.07	1509.35
855.23	1544.17
855.40	1474.54
855.57	1531.88
855.74	1482.73
855.91	1681.38
856.08	1472.49
856.25	1445.87
856.41	1474.54
856.58	1468.39
856.75	1548.26
856.92	1445.87
857.09	1554.41
857.26	1486.83
857.42	1507.30
857.59	1525.74
857.76	1441.77
857.93	1497.07
858.10	1558.50
858.27	1447.91
858.43	1652.71
858.60	1501.16
858.77	1445.87
858.94	1576.94
859.11	1521.64
859.27	1458.15
859.44	1523.69
859.61	1617.90
859.78	1495.02
859.95	1558.50
860.12	1546.22
860.28	1665.00
860.45	1636.33
860.62	1558.50
860.79	1554.41
860.95	1529.83
861.12	1511.40
861.29	1529.83
861.46	1540.07
861.63	1462.25
861.79	1482.73
861.96	1486.83
862.13	1509.35
862.30	1601.51
862.47	1488.87
862.63	1484.78
862.80	1552.36
862.97	1556.46
863.14	1626.09
863.30	1593.32
863.47	1583.08
863.64	1667.05
863.81	1474.54
863.97	1533.93
864.14	1517.54
864.31	1501.16
864.48	1587.18
864.65	1521.64
864.81	1636.33
864.98	1527.78
865.15	1546.22
865.32	1718.25
865.48	1544.17
865.65	1636.33
865.82	1454.06
865.98	1513.45
866.15	1662.95
866.32	1519.59
866.49	1525.74
866.65	1538.02
866.82	1452.01
866.99	1554.41
867.16	1468.39
867.32	1517.54
867.49	1544.17
867.66	1550.31
867.83	1437.67
867.99	1511.40
868.16	1499.11
868.33	1366.00
868.49	1568.74
868.66	1478.63
868.83	1538.02
868.99	1525.74
869.16	1515.50
869.33	1521.64
869.50	1544.17
869.66	1525.74
869.83	1499.11
870.00	1476.59
870.16	1589.22
870.33	1429.48
870.50	1566.70
870.66	1531.88
870.83	1589.22
871.00	1495.02
871.17	1552.36
871.33	1523.69
871.50	1527.78
871.67	1554.41
871.83	1480.68
872.00	1595.37
872.17	1495.02
872.33	1574.89
872.50	1566.70
872.67	1525.74
872.83	1538.02
873.00	1538.02
873.17	1544.17
873.33	1570.79
873.50	1585.13
873.67	1513.45
873.83	1474.54
874.00	1585.13
874.16	1542.12
874.33	1503.21
874.50	1568.74
874.66	1548.26
874.83	1511.40
875.00	1523.69
875.16	1570.79
875.33	1599.46
875.50	1466.35
875.66	1540.07
875.83	1533.93
875.99	1656.81
876.16	1535.98
876.33	1492.97
876.49	1542.12
876.66	1583.08
876.83	1492.97
876.99	1464.30
877.16	1556.46
877.32	1486.83
877.49	1507.30
877.66	1535.98
877.82	1607.66
877.99	1544.17
878.15	1556.46
878.32	1517.54
878.49	1499.11
878.65	1482.73
878.82	1593.32
878.98	1497.07
879.15	1621.99
879.32	1632.23
879.48	1568.74
879.65	1466.35
879.81	1525.74
879.98	1531.88
880.15	1564.65
880.31	1509.35
880.48	1454.06
880.64	1570.79
880.81	1548.26
880.97	1601.51
881.14	1611.75
881.31	1499.11
881.47	1615.85
881.64	1499.11
881.80	1492.97
881.97	1576.94
882.13	1548.26
882.30	1386.47
882.47	1402.86
882.63	1505.26
882.80	1542.12
882.96	1484.78
883.13	1613.80
883.29	1562.60
883.46	1609.70
883.62	1628.14
883.79	1583.08
883.95	1566.70
884.12	1642.47
884.29	1570.79
884.45	1533.93
884.62	1609.70
884.78	1478.63
884.95	1564.65
885.11	1501.16
885.28	1505.26
885.44	1519.59
885.61	1495.02
885.77	1611.75
885.94	1495.02
886.10	1576.94
886.27	1458.15
886.43	1595.37
886.60	1540.07
886.76	1523.69
886.93	1492.97
887.09	1513.45
887.26	1443.82
887.42	1509.35
887.59	1662.95
887.75	1601.51
887.92	1609.70
888.08	1609.70
888.25	1554.41
888.41	1521.64
888.58	1513.45
888.74	1490.92
888.91	1476.59
>>>>>End Processed Spectral Data<<<<<
