SpectraSuite Data File
++++++++++++++++++++++++++++++++++++
Date: Tue May 03 12:55:38 CEST 2016
User: root
Dark Spectrum Present: No
Reference Spectrum Present: No
Number of Sampled Component Spectra: 1
Spectrometers: USB4C02835
Integration Time (usec): 100000 (USB4C02835)
Spectra Averaged: 1 (USB4C02835)
Boxcar Smoothing: 0 (USB4C02835)
Correct for Electrical Dark: No (USB4C02835)
Strobe/Lamp Enabled: No (USB4C02835)
Correct for Detector Non-linearity: No (USB4C02835)
Correct for Stray Light: No (USB4C02835)
Number of Pixels in Processed Spectrum: 3648
>>>>>Begin Processed Spectral Data<<<<<
177.47	1325.04
177.69	1325.04
177.91	1325.04
178.13	1353.71
178.36	1368.04
178.58	1441.77
178.80	1619.94
179.02	1464.30
179.24	1484.78
179.46	1511.40
179.68	1578.98
179.90	1615.85
180.13	1538.02
180.35	1568.74
180.57	1497.07
180.79	1593.32
181.01	1429.48
181.23	1636.33
181.45	1585.13
181.67	1599.46
181.90	1527.78
182.12	1552.36
182.34	1468.39
182.56	1548.26
182.78	1505.26
183.00	1531.88
183.22	1513.45
183.44	1449.96
183.66	1734.63
183.89	1662.95
184.11	1550.31
184.33	1452.01
184.55	1572.84
184.77	1540.07
184.99	1550.31
185.21	1468.39
185.43	1624.04
185.65	1511.40
185.87	1570.79
186.10	1640.42
186.32	1683.43
186.54	1542.12
186.76	1560.55
186.98	1533.93
187.20	1548.26
187.42	1533.93
187.64	1546.22
187.86	1603.56
188.08	1607.66
188.30	1538.02
188.52	1503.21
188.75	1560.55
188.97	1630.18
189.19	1576.94
189.41	1544.17
189.63	1574.89
189.85	1558.50
190.07	1517.54
190.29	1421.29
190.51	1439.72
190.73	1566.70
190.95	1597.42
191.17	1486.83
191.39	1474.54
191.61	1544.17
191.84	1538.02
192.06	1665.00
192.28	1472.49
192.50	1714.15
192.72	1550.31
192.94	1576.94
193.16	1519.59
193.38	1509.35
193.60	1507.30
193.82	1525.74
194.04	1560.55
194.26	1583.08
194.48	1515.50
194.70	1505.26
194.92	1509.35
195.14	1626.09
195.36	1484.78
195.58	1439.72
195.80	1572.84
196.02	1535.98
196.24	1581.03
196.46	1501.16
196.69	1484.78
196.91	1667.05
197.13	1603.56
197.35	1497.07
197.57	1597.42
197.79	1492.97
198.01	1624.04
198.23	1529.83
198.45	1609.70
198.67	1468.39
198.89	1490.92
199.11	1531.88
199.33	1478.63
199.55	1433.58
199.77	1501.16
199.99	1568.74
200.21	1505.26
200.43	1544.17
200.65	1535.98
200.87	1441.77
201.09	1503.21
201.31	1615.85
201.53	1574.89
201.75	1519.59
201.97	1574.89
202.19	1503.21
202.41	1572.84
202.63	1613.80
202.85	1517.54
203.07	1525.74
203.29	1568.74
203.51	1411.05
203.73	1439.72
203.95	1716.20
204.17	1486.83
204.39	1533.93
204.61	1523.69
204.83	1509.35
205.05	1511.40
205.27	1626.09
205.49	1486.83
205.71	1445.87
205.93	1488.87
206.15	1497.07
206.37	1513.45
206.59	1638.38
206.81	1492.97
207.03	1511.40
207.25	1394.67
207.47	1558.50
207.69	1486.83
207.91	1617.90
208.13	1673.19
208.34	1517.54
208.56	1548.26
208.78	1574.89
209.00	1464.30
209.22	1566.70
209.44	1538.02
209.66	1511.40
209.88	1486.83
210.10	1523.69
210.32	1492.97
210.54	1685.48
210.76	1492.97
210.98	1564.65
211.20	1439.72
211.42	1527.78
211.64	1611.75
211.86	1517.54
212.08	1509.35
212.30	1593.32
212.52	1540.07
212.74	1529.83
212.96	1562.60
213.17	1544.17
213.39	1511.40
213.61	1525.74
213.83	1591.27
214.05	1591.27
214.27	1527.78
214.49	1495.02
214.71	1490.92
214.93	1607.66
215.15	1517.54
215.37	1560.55
215.59	1478.63
215.81	1624.04
216.03	1566.70
216.24	1456.11
216.46	1525.74
216.68	1478.63
216.90	1583.08
217.12	1552.36
217.34	1513.45
217.56	1513.45
217.78	1599.46
218.00	1560.55
218.22	1560.55
218.44	1499.11
218.66	1519.59
218.87	1595.37
219.09	1554.41
219.31	1538.02
219.53	1554.41
219.75	1484.78
219.97	1505.26
220.19	1535.98
220.41	1527.78
220.63	1621.99
220.85	1562.60
221.06	1572.84
221.28	1558.50
221.50	1599.46
221.72	1554.41
221.94	1562.60
222.16	1576.94
222.38	1597.42
222.60	1609.70
222.82	1552.36
223.03	1570.79
223.25	1449.96
223.47	1636.33
223.69	1652.71
223.91	1603.56
224.13	1519.59
224.35	1507.30
224.57	1560.55
224.78	1634.28
225.00	1474.54
225.22	1535.98
225.44	1591.27
225.66	1540.07
225.88	1492.97
226.10	1617.90
226.32	1501.16
226.53	1542.12
226.75	1415.15
226.97	1566.70
227.19	1587.18
227.41	1482.73
227.63	1468.39
227.85	1505.26
228.06	1556.46
228.28	1599.46
228.50	1560.55
228.72	1492.97
228.94	1462.25
229.16	1427.43
229.37	1509.35
229.59	1509.35
229.81	1619.94
230.03	1499.11
230.25	1462.25
230.47	1509.35
230.69	1472.49
230.90	1587.18
231.12	1429.48
231.34	1554.41
231.56	1603.56
231.78	1501.16
232.00	1482.73
232.21	1449.96
232.43	1515.50
232.65	1437.67
232.87	1538.02
233.09	1572.84
233.30	1501.16
233.52	1558.50
233.74	1519.59
233.96	1535.98
234.18	1548.26
234.40	1527.78
234.61	1609.70
234.83	1542.12
235.05	1458.15
235.27	1628.14
235.49	1671.14
235.70	1478.63
235.92	1626.09
236.14	1587.18
236.36	1615.85
236.58	1525.74
236.79	1529.83
237.01	1492.97
237.23	1431.53
237.45	1626.09
237.67	1439.72
237.88	1527.78
238.10	1689.57
238.32	1443.82
238.54	1544.17
238.76	1593.32
238.97	1466.35
239.19	1521.64
239.41	1585.13
239.63	1550.31
239.85	1509.35
240.06	1578.98
240.28	1495.02
240.50	1566.70
240.72	1507.30
240.93	1564.65
241.15	1578.98
241.37	1484.78
241.59	1632.23
241.81	1597.42
242.02	1578.98
242.24	1515.50
242.46	1503.21
242.68	1538.02
242.89	1568.74
243.11	1572.84
243.33	1484.78
243.55	1441.77
243.76	1540.07
243.98	1497.07
244.20	1599.46
244.42	1585.13
244.64	1560.55
244.85	1482.73
245.07	1474.54
245.29	1578.98
245.51	1517.54
245.72	1548.26
245.94	1550.31
246.16	1492.97
246.38	1587.18
246.59	1486.83
246.81	1439.72
247.03	1542.12
247.24	1486.83
247.46	1523.69
247.68	1560.55
247.90	1544.17
248.11	1550.31
248.33	1605.61
248.55	1527.78
248.77	1521.64
248.98	1630.18
249.20	1548.26
249.42	1519.59
249.64	1564.65
249.85	1554.41
250.07	1421.29
250.29	1568.74
250.50	1583.08
250.72	1490.92
250.94	1474.54
251.16	1695.72
251.37	1591.27
251.59	1570.79
251.81	1478.63
252.02	1568.74
252.24	1490.92
252.46	1597.42
252.68	1476.59
252.89	1423.34
253.11	1525.74
253.33	1617.90
253.54	1599.46
253.76	1429.48
253.98	1505.26
254.20	1464.30
254.41	1435.63
254.63	1521.64
254.85	1423.34
255.06	1513.45
255.28	1527.78
255.50	1478.63
255.71	1544.17
255.93	1425.39
256.15	1513.45
256.36	1601.51
256.58	1480.68
256.80	1607.66
257.02	1656.81
257.23	1492.97
257.45	1531.88
257.67	1574.89
257.88	1474.54
258.10	1546.22
258.32	1562.60
258.53	1566.70
258.75	1585.13
258.97	1492.97
259.18	1583.08
259.40	1452.01
259.62	1728.49
259.83	1564.65
260.05	1531.88
260.27	1708.01
260.48	1509.35
260.70	1411.05
260.92	1513.45
261.13	1572.84
261.35	1550.31
261.57	1564.65
261.78	1492.97
262.00	1527.78
262.22	1613.80
262.43	1413.10
262.65	1548.26
262.86	1593.32
263.08	1638.38
263.30	1505.26
263.51	1433.58
263.73	1503.21
263.95	1626.09
264.16	1488.87
264.38	1505.26
264.60	1574.89
264.81	1533.93
265.03	1634.28
265.25	1576.94
265.46	1558.50
265.68	1544.17
265.89	1632.23
266.11	1540.07
266.33	1619.94
266.54	1527.78
266.76	1583.08
266.98	1521.64
267.19	1607.66
267.41	1607.66
267.62	1523.69
267.84	1517.54
268.06	1538.02
268.27	1570.79
268.49	1525.74
268.70	1587.18
268.92	1515.50
269.14	1468.39
269.35	1472.49
269.57	1472.49
269.79	1603.56
270.00	1515.50
270.22	1640.42
270.43	1542.12
270.65	1460.20
270.87	1544.17
271.08	1574.89
271.30	1542.12
271.51	1515.50
271.73	1572.84
271.95	1593.32
272.16	1646.57
272.38	1542.12
272.59	1482.73
272.81	1597.42
273.02	1562.60
273.24	1566.70
273.46	1591.27
273.67	1482.73
273.89	1484.78
274.10	1562.60
274.32	1658.85
274.54	1529.83
274.75	1585.13
274.97	1554.41
275.18	1603.56
275.40	1511.40
275.61	1570.79
275.83	1511.40
276.05	1462.25
276.26	1554.41
276.48	1542.12
276.69	1531.88
276.91	1540.07
277.12	1589.22
277.34	1613.80
277.55	1607.66
277.77	1560.55
277.99	1513.45
278.20	1513.45
278.42	1490.92
278.63	1507.30
278.85	1529.83
279.06	1492.97
279.28	1554.41
279.49	1595.37
279.71	1550.31
279.93	1591.27
280.14	1542.12
280.36	1525.74
280.57	1568.74
280.79	1648.61
281.00	1478.63
281.22	1474.54
281.43	1513.45
281.65	1447.91
281.86	1454.06
282.08	1480.68
282.29	1554.41
282.51	1548.26
282.73	1439.72
282.94	1482.73
283.16	1550.31
283.37	1570.79
283.59	1495.02
283.80	1546.22
284.02	1550.31
284.23	1503.21
284.45	1529.83
284.66	1486.83
284.88	1538.02
285.09	1515.50
285.31	1609.70
285.52	1517.54
285.74	1499.11
285.95	1550.31
286.17	1523.69
286.38	1525.74
286.60	1478.63
286.81	1558.50
287.03	1468.39
287.24	1568.74
287.46	1523.69
287.67	1533.93
287.89	1665.00
288.10	1476.59
288.32	1546.22
288.53	1578.98
288.75	1472.49
288.96	1544.17
289.18	1419.24
289.39	1603.56
289.61	1533.93
289.82	1665.00
290.04	1585.13
290.25	1550.31
290.47	1607.66
290.68	1445.87
290.90	1546.22
291.11	1517.54
291.33	1515.50
291.54	1499.11
291.76	1529.83
291.97	1585.13
292.18	1556.46
292.40	1556.46
292.61	1538.02
292.83	1570.79
293.04	1621.99
293.26	1511.40
293.47	1550.31
293.69	1509.35
293.90	1521.64
294.12	1533.93
294.33	1484.78
294.55	1445.87
294.76	1564.65
294.97	1611.75
295.19	1615.85
295.40	1540.07
295.62	1570.79
295.83	1599.46
296.05	1486.83
296.26	1597.42
296.48	1507.30
296.69	1572.84
296.90	1482.73
297.12	1595.37
297.33	1587.18
297.55	1529.83
297.76	1533.93
297.98	1593.32
298.19	1521.64
298.41	1517.54
298.62	1490.92
298.83	1587.18
299.05	1542.12
299.26	1550.31
299.48	1509.35
299.69	1570.79
299.90	1550.31
300.12	1517.54
300.33	1535.98
300.55	1523.69
300.76	1562.60
300.98	1454.06
301.19	1535.98
301.40	1556.46
301.62	1515.50
301.83	1548.26
302.05	1583.08
302.26	1558.50
302.47	1533.93
302.69	1449.96
302.90	1529.83
303.12	1464.30
303.33	1486.83
303.54	1599.46
303.76	1560.55
303.97	1529.83
304.19	1626.09
304.40	1488.87
304.61	1617.90
304.83	1615.85
305.04	1589.22
305.26	1484.78
305.47	1556.46
305.68	1562.60
305.90	1484.78
306.11	1597.42
306.33	1562.60
306.54	1533.93
306.75	1495.02
306.97	1550.31
307.18	1538.02
307.39	1599.46
307.61	1505.26
307.82	1544.17
308.04	1554.41
308.25	1593.32
308.46	1499.11
308.68	1515.50
308.89	1535.98
309.10	1525.74
309.32	1630.18
309.53	1570.79
309.74	1593.32
309.96	1578.98
310.17	1564.65
310.39	1597.42
310.60	1548.26
310.81	1609.70
311.03	1499.11
311.24	1546.22
311.45	1476.59
311.67	1708.01
311.88	1576.94
312.09	1556.46
312.31	1503.21
312.52	1495.02
312.73	1445.87
312.95	1429.48
313.16	1478.63
313.37	1628.14
313.59	1527.78
313.80	1511.40
314.01	1585.13
314.23	1540.07
314.44	1544.17
314.65	1488.87
314.87	1527.78
315.08	1431.53
315.29	1558.50
315.51	1445.87
315.72	1572.84
315.93	1617.90
316.15	1566.70
316.36	1466.35
316.57	1597.42
316.79	1572.84
317.00	1468.39
317.21	1578.98
317.43	1615.85
317.64	1505.26
317.85	1486.83
318.07	1601.51
318.28	1611.75
318.49	1685.48
318.70	1740.77
318.92	1689.57
319.13	1687.53
319.34	1714.15
319.56	1630.18
319.77	1632.23
319.98	1589.22
320.20	1660.90
320.41	1621.99
320.62	1601.51
320.83	1482.73
321.05	1609.70
321.26	1564.65
321.47	1519.59
321.69	1640.42
321.90	1529.83
322.11	1505.26
322.32	1468.39
322.54	1621.99
322.75	1581.03
322.96	1644.52
323.18	1452.01
323.39	1439.72
323.60	1503.21
323.81	1607.66
324.03	1513.45
324.24	1525.74
324.45	1544.17
324.66	1499.11
324.88	1585.13
325.09	1705.96
325.30	1572.84
325.52	1556.46
325.73	1478.63
325.94	1409.00
326.15	1458.15
326.37	1548.26
326.58	1552.36
326.79	1624.04
327.00	1513.45
327.22	1585.13
327.43	1497.07
327.64	1505.26
327.85	1560.55
328.07	1529.83
328.28	1712.10
328.49	1519.59
328.70	1499.11
328.92	1554.41
329.13	1503.21
329.34	1554.41
329.55	1624.04
329.76	1546.22
329.98	1495.02
330.19	1638.38
330.40	1574.89
330.61	1449.96
330.83	1583.08
331.04	1452.01
331.25	1560.55
331.46	1513.45
331.68	1513.45
331.89	1574.89
332.10	1462.25
332.31	1427.43
332.52	1542.12
332.74	1599.46
332.95	1404.91
333.16	1542.12
333.37	1505.26
333.58	1509.35
333.80	1505.26
334.01	1476.59
334.22	1558.50
334.43	1515.50
334.64	1519.59
334.86	1542.12
335.07	1460.20
335.28	1593.32
335.49	1482.73
335.70	1556.46
335.92	1597.42
336.13	1607.66
336.34	1562.60
336.55	1525.74
336.76	1503.21
336.98	1429.48
337.19	1531.88
337.40	1636.33
337.61	1621.99
337.82	1470.44
338.04	1636.33
338.25	1519.59
338.46	1531.88
338.67	1495.02
338.88	1544.17
339.09	1544.17
339.31	1572.84
339.52	1478.63
339.73	1486.83
339.94	1552.36
340.15	1560.55
340.36	1470.44
340.58	1495.02
340.79	1458.15
341.00	1554.41
341.21	1509.35
341.42	1576.94
341.63	1540.07
341.85	1517.54
342.06	1589.22
342.27	1515.50
342.48	1609.70
342.69	1521.64
342.90	1572.84
343.12	1587.18
343.33	1519.59
343.54	1538.02
343.75	1607.66
343.96	1529.83
344.17	1548.26
344.38	1505.26
344.60	1462.25
344.81	1501.16
345.02	1533.93
345.23	1531.88
345.44	1708.01
345.65	1568.74
345.86	1597.42
346.07	1554.41
346.29	1529.83
346.50	1517.54
346.71	1572.84
346.92	1556.46
347.13	1677.29
347.34	1552.36
347.55	1517.54
347.76	1597.42
347.98	1445.87
348.19	1544.17
348.40	1542.12
348.61	1490.92
348.82	1513.45
349.03	1478.63
349.24	1501.16
349.45	1585.13
349.66	1484.78
349.88	1515.50
350.09	1562.60
350.30	1617.90
350.51	1634.28
350.72	1560.55
350.93	1581.03
351.14	1488.87
351.35	1525.74
351.56	1566.70
351.77	1548.26
351.99	1554.41
352.20	1544.17
352.41	1574.89
352.62	1478.63
352.83	1572.84
353.04	1632.23
353.25	1540.07
353.46	1540.07
353.67	1613.80
353.88	1454.06
354.09	1476.59
354.30	1521.64
354.52	1564.65
354.73	1527.78
354.94	1581.03
355.15	1517.54
355.36	1542.12
355.57	1499.11
355.78	1552.36
355.99	1507.30
356.20	1527.78
356.41	1556.46
356.62	1519.59
356.83	1566.70
357.04	1636.33
357.25	1499.11
357.46	1527.78
357.68	1488.87
357.89	1456.11
358.10	1603.56
358.31	1466.35
358.52	1441.77
358.73	1495.02
358.94	1474.54
359.15	1519.59
359.36	1624.04
359.57	1505.26
359.78	1427.43
359.99	1538.02
360.20	1437.67
360.41	1517.54
360.62	1587.18
360.83	1484.78
361.04	1546.22
361.25	1603.56
361.46	1613.80
361.67	1617.90
361.88	1521.64
362.09	1499.11
362.30	1576.94
362.51	1492.97
362.72	1488.87
362.93	1642.47
363.14	1595.37
363.35	1570.79
363.56	1486.83
363.78	1562.60
363.99	1607.66
364.20	1513.45
364.41	1581.03
364.62	1642.47
364.83	1519.59
365.04	1609.70
365.25	1503.21
365.46	1644.52
365.67	1523.69
365.88	1456.11
366.09	1509.35
366.30	1501.16
366.51	1464.30
366.72	1404.91
366.93	1529.83
367.14	1533.93
367.35	1576.94
367.56	1562.60
367.77	1626.09
367.98	1589.22
368.18	1599.46
368.39	1607.66
368.60	1566.70
368.81	1587.18
369.02	1548.26
369.23	1468.39
369.44	1478.63
369.65	1556.46
369.86	1585.13
370.07	1546.22
370.28	1488.87
370.49	1548.26
370.70	1558.50
370.91	1538.02
371.12	1554.41
371.33	1593.32
371.54	1572.84
371.75	1609.70
371.96	1402.86
372.17	1546.22
372.38	1511.40
372.59	1540.07
372.80	1521.64
373.01	1538.02
373.22	1505.26
373.43	1462.25
373.64	1439.72
373.85	1525.74
374.06	1601.51
374.26	1570.79
374.47	1509.35
374.68	1621.99
374.89	1589.22
375.10	1458.15
375.31	1613.80
375.52	1501.16
375.73	1533.93
375.94	1550.31
376.15	1583.08
376.36	1503.21
376.57	1566.70
376.78	1513.45
376.99	1605.61
377.20	1597.42
377.40	1566.70
377.61	1656.81
377.82	1429.48
378.03	1550.31
378.24	1468.39
378.45	1525.74
378.66	1609.70
378.87	1488.87
379.08	1544.17
379.29	1452.01
379.50	1597.42
379.71	1515.50
379.91	1574.89
380.12	1544.17
380.33	1533.93
380.54	1552.36
380.75	1576.94
380.96	1476.59
381.17	1576.94
381.38	1574.89
381.59	1611.75
381.80	1546.22
382.00	1576.94
382.21	1568.74
382.42	1683.43
382.63	1712.10
382.84	1626.09
383.05	1613.80
383.26	1671.14
383.47	1578.98
383.68	1587.18
383.88	1597.42
384.09	1566.70
384.30	1652.71
384.51	1538.02
384.72	1462.25
384.93	1466.35
385.14	1560.55
385.35	1619.94
385.55	1540.07
385.76	1546.22
385.97	1607.66
386.18	1460.20
386.39	1517.54
386.60	1544.17
386.81	1665.00
387.02	1523.69
387.22	1546.22
387.43	1652.71
387.64	1695.72
387.85	1877.99
388.06	3123.15
388.27	7210.90
388.48	10344.29
388.68	12597.06
388.89	13956.91
389.10	12861.24
389.31	10030.95
389.52	8859.51
389.73	7864.20
389.93	7143.32
390.14	6707.10
390.35	6141.86
390.56	5582.76
390.77	4630.46
390.98	3573.71
391.18	2889.68
391.39	2217.95
391.60	1822.69
391.81	1710.05
392.02	1574.89
392.23	1662.95
392.43	1564.65
392.64	1640.42
392.85	1529.83
393.06	1615.85
393.27	1566.70
393.47	1525.74
393.68	1525.74
393.89	1501.16
394.10	1552.36
394.31	1503.21
394.52	1495.02
394.72	1517.54
394.93	1595.37
395.14	1495.02
395.35	1607.66
395.56	1527.78
395.76	1632.23
395.97	1722.34
396.18	1734.63
396.39	1740.77
396.60	1939.43
396.80	1822.69
397.01	1701.86
397.22	1671.14
397.43	1691.62
397.64	1609.70
397.84	1599.46
398.05	1665.00
398.26	1617.90
398.47	1566.70
398.67	1665.00
398.88	1484.78
399.09	1572.84
399.30	1523.69
399.51	1574.89
399.71	1538.02
399.92	1562.60
400.13	1574.89
400.34	1546.22
400.54	1517.54
400.75	1603.56
400.96	1589.22
401.17	1587.18
401.37	1544.17
401.58	1527.78
401.79	1599.46
402.00	1863.65
402.21	1904.61
402.41	1914.85
402.62	2031.58
402.83	1968.10
403.04	1839.08
403.24	1892.32
403.45	1732.58
403.66	1742.82
403.87	1734.63
404.07	1810.40
404.28	1730.53
404.49	1703.91
404.70	1705.96
404.90	1613.80
405.11	1648.61
405.32	1542.12
405.52	1503.21
405.73	1542.12
405.94	1472.49
406.15	1521.64
406.35	1572.84
406.56	1601.51
406.77	1492.97
406.98	1599.46
407.18	1486.83
407.39	1624.04
407.60	1445.87
407.80	1535.98
408.01	1474.54
408.22	1591.27
408.43	1538.02
408.63	1591.27
408.84	1527.78
409.05	1562.60
409.25	1517.54
409.46	1523.69
409.67	1462.25
409.88	1492.97
410.08	1558.50
410.29	1525.74
410.50	1556.46
410.70	1593.32
410.91	1492.97
411.12	1578.98
411.32	1554.41
411.53	1568.74
411.74	1628.14
411.95	1626.09
412.15	1667.05
412.36	1679.33
412.57	1578.98
412.77	1656.81
412.98	1527.78
413.19	1548.26
413.39	1583.08
413.60	1548.26
413.81	1570.79
414.01	1495.02
414.22	1511.40
414.43	1613.80
414.63	1538.02
414.84	1617.90
415.05	1581.03
415.25	1517.54
415.46	1501.16
415.67	1517.54
415.87	1570.79
416.08	1617.90
416.29	1521.64
416.49	1562.60
416.70	1556.46
416.91	1443.82
417.11	1486.83
417.32	1599.46
417.53	1597.42
417.73	1531.88
417.94	1503.21
418.15	1578.98
418.35	1474.54
418.56	1558.50
418.77	1626.09
418.97	1462.25
419.18	1529.83
419.38	1443.82
419.59	1558.50
419.80	1546.22
420.00	1523.69
420.21	1587.18
420.42	1587.18
420.62	1538.02
420.83	1402.86
421.04	1517.54
421.24	1519.59
421.45	1552.36
421.65	1560.55
421.86	1484.78
422.07	1611.75
422.27	1619.94
422.48	1495.02
422.69	1558.50
422.89	1531.88
423.10	1538.02
423.30	1454.06
423.51	1478.63
423.72	1529.83
423.92	1525.74
424.13	1511.40
424.33	1521.64
424.54	1595.37
424.75	1568.74
424.95	1634.28
425.16	1548.26
425.36	1548.26
425.57	1587.18
425.78	1601.51
425.98	1591.27
426.19	1495.02
426.39	1470.44
426.60	1572.84
426.81	1669.09
427.01	1583.08
427.22	1447.91
427.42	1517.54
427.63	1449.96
427.83	1544.17
428.04	1611.75
428.25	1572.84
428.45	1554.41
428.66	1542.12
428.86	1552.36
429.07	1568.74
429.28	1626.09
429.48	1593.32
429.69	1466.35
429.89	1583.08
430.10	1486.83
430.30	1566.70
430.51	1533.93
430.71	1509.35
430.92	1509.35
431.13	1544.17
431.33	1525.74
431.54	1570.79
431.74	1640.42
431.95	1544.17
432.15	1505.26
432.36	1527.78
432.56	1626.09
432.77	1568.74
432.98	1615.85
433.18	1529.83
433.39	1456.11
433.59	1472.49
433.80	1578.98
434.00	1650.66
434.21	1566.70
434.41	1456.11
434.62	1648.61
434.82	1484.78
435.03	1488.87
435.23	1542.12
435.44	1458.15
435.64	1507.30
435.85	1570.79
436.06	1505.26
436.26	1507.30
436.47	1447.91
436.67	1525.74
436.88	1462.25
437.08	1611.75
437.29	1611.75
437.49	1458.15
437.70	1556.46
437.90	1611.75
438.11	1652.71
438.31	1648.61
438.52	1665.00
438.72	1671.14
438.93	1753.06
439.13	1566.70
439.34	1628.14
439.54	1521.64
439.75	1544.17
439.95	1603.56
440.16	1509.35
440.36	1652.71
440.57	1615.85
440.77	1593.32
440.98	1583.08
441.18	1634.28
441.39	1529.83
441.59	1484.78
441.80	1628.14
442.00	1589.22
442.21	1650.66
442.41	1460.20
442.62	1554.41
442.82	1517.54
443.02	1531.88
443.23	1568.74
443.43	1572.84
443.64	1652.71
443.84	1529.83
444.05	1564.65
444.25	1583.08
444.46	1531.88
444.66	1560.55
444.87	1630.18
445.07	1466.35
445.28	1435.63
445.48	1621.99
445.69	1630.18
445.89	1558.50
446.09	1566.70
446.30	1992.67
446.50	3188.69
446.71	4405.18
446.91	5214.13
447.12	5717.93
447.32	5627.82
447.53	4597.69
447.73	3979.20
447.93	3569.61
448.14	3405.77
448.34	3213.26
448.55	2813.91
448.75	2904.02
448.96	2740.18
449.16	2506.71
449.36	2312.16
449.57	1972.19
449.77	1820.64
449.98	1548.26
450.18	1601.51
450.39	1597.42
450.59	1574.89
450.79	1570.79
451.00	1519.59
451.20	1589.22
451.41	1595.37
451.61	1626.09
451.81	1621.99
452.02	1511.40
452.22	1519.59
452.43	1458.15
452.63	1460.20
452.84	1570.79
453.04	1568.74
453.24	1515.50
453.45	1517.54
453.65	1501.16
453.86	1554.41
454.06	1548.26
454.26	1585.13
454.47	1484.78
454.67	1654.76
454.87	1544.17
455.08	1486.83
455.28	1540.07
455.49	1562.60
455.69	1486.83
455.89	1574.89
456.10	1574.89
456.30	1558.50
456.51	1658.85
456.71	1484.78
456.91	1554.41
457.12	1601.51
457.32	1474.54
457.52	1511.40
457.73	1634.28
457.93	1525.74
458.14	1482.73
458.34	1411.05
458.54	1564.65
458.75	1605.61
458.95	1564.65
459.15	1509.35
459.36	1574.89
459.56	1482.73
459.76	1619.94
459.97	1548.26
460.17	1587.18
460.37	1595.37
460.58	1531.88
460.78	1560.55
460.99	1544.17
461.19	1517.54
461.39	1542.12
461.60	1542.12
461.80	1540.07
462.00	1529.83
462.21	1554.41
462.41	1445.87
462.61	1458.15
462.82	1523.69
463.02	1554.41
463.22	1607.66
463.43	1574.89
463.63	1570.79
463.83	1640.42
464.04	1495.02
464.24	1517.54
464.44	1447.91
464.64	1578.98
464.85	1564.65
465.05	1564.65
465.25	1566.70
465.46	1445.87
465.66	1552.36
465.86	1552.36
466.07	1527.78
466.27	1488.87
466.47	1490.92
466.68	1464.30
466.88	1595.37
467.08	1552.36
467.29	1652.71
467.49	1587.18
467.69	1495.02
467.89	1517.54
468.10	1476.59
468.30	1566.70
468.50	1658.85
468.71	1540.07
468.91	1409.00
469.11	1603.56
469.31	1613.80
469.52	1421.29
469.72	1689.57
469.92	1626.09
470.13	1583.08
470.33	1542.12
470.53	1710.05
470.73	2023.39
470.94	2328.54
471.14	2428.89
471.34	2627.54
471.54	2545.63
471.75	2195.42
471.95	2068.45
472.15	2000.87
472.36	2033.63
472.56	1910.75
472.76	1910.75
472.96	1845.22
473.17	1812.45
473.37	1849.32
473.57	1677.29
473.77	1609.70
473.98	1615.85
474.18	1523.69
474.38	1654.76
474.58	1603.56
474.79	1488.87
474.99	1560.55
475.19	1546.22
475.39	1490.92
475.60	1611.75
475.80	1525.74
476.00	1476.59
476.20	1427.43
476.41	1505.26
476.61	1570.79
476.81	1640.42
477.01	1570.79
477.21	1611.75
477.42	1615.85
477.62	1456.11
477.82	1593.32
478.02	1464.30
478.23	1525.74
478.43	1507.30
478.63	1470.44
478.83	1535.98
479.03	1507.30
479.24	1587.18
479.44	1632.23
479.64	1529.83
479.84	1458.15
480.04	1492.97
480.25	1503.21
480.45	1560.55
480.65	1599.46
480.85	1570.79
481.06	1568.74
481.26	1617.90
481.46	1576.94
481.66	1581.03
481.86	1505.26
482.06	1566.70
482.27	1583.08
482.47	1474.54
482.67	1562.60
482.87	1462.25
483.07	1624.04
483.28	1511.40
483.48	1474.54
483.68	1517.54
483.88	1447.91
484.08	1454.06
484.29	1462.25
484.49	1535.98
484.69	1540.07
484.89	1593.32
485.09	1601.51
485.29	1581.03
485.50	1540.07
485.70	1535.98
485.90	1624.04
486.10	1562.60
486.30	1619.94
486.50	1611.75
486.71	1548.26
486.91	1626.09
487.11	1521.64
487.31	1429.48
487.51	1492.97
487.71	1562.60
487.91	1542.12
488.12	1525.74
488.32	1390.57
488.52	1492.97
488.72	1474.54
488.92	1570.79
489.12	1574.89
489.32	1591.27
489.53	1681.38
489.73	1452.01
489.93	1593.32
490.13	1548.26
490.33	1470.44
490.53	1538.02
490.73	1570.79
490.94	1468.39
491.14	1607.66
491.34	1798.12
491.54	2107.36
491.74	2740.18
491.94	3084.24
492.14	3254.22
492.34	3327.95
492.54	2818.00
492.75	2570.20
492.95	2297.82
493.15	2254.81
493.35	2185.18
493.55	2146.27
493.75	1951.71
493.95	2011.11
494.15	2015.20
494.35	1761.25
494.56	1699.81
494.76	1646.57
494.96	1689.57
495.16	1560.55
495.36	1546.22
495.56	1648.61
495.76	1527.78
495.96	1511.40
496.16	1554.41
496.36	1632.23
496.56	1488.87
496.77	1574.89
496.97	1492.97
497.17	1509.35
497.37	1464.30
497.57	1591.27
497.77	1589.22
497.97	1511.40
498.17	1538.02
498.37	1507.30
498.57	1568.74
498.77	1583.08
498.97	1642.47
499.17	1701.86
499.38	1542.12
499.58	1554.41
499.78	1568.74
499.98	1585.13
500.18	1578.98
500.38	1556.46
500.58	1814.50
500.78	2680.79
500.98	5068.72
501.18	6621.08
501.38	8294.27
501.58	8654.72
501.78	7931.78
501.98	6191.01
502.18	5361.58
502.38	4599.74
502.58	4167.62
502.78	3950.53
502.98	3737.54
503.18	3553.23
503.38	3258.32
503.59	3049.43
503.79	2873.30
503.99	2498.52
504.19	2263.01
504.39	2133.98
504.59	2066.40
504.79	2019.30
504.99	1949.67
505.19	1810.40
505.39	1658.85
505.59	1757.16
505.79	1738.73
505.99	1669.09
506.19	1603.56
506.39	1648.61
506.59	1638.38
506.79	1632.23
506.99	1595.37
507.19	1615.85
507.39	1583.08
507.59	1519.59
507.79	1499.11
507.99	1521.64
508.19	1527.78
508.39	1599.46
508.59	1560.55
508.79	1615.85
508.99	1675.24
509.19	1538.02
509.39	1564.65
509.59	1593.32
509.79	1531.88
509.99	1540.07
510.19	1609.70
510.39	1566.70
510.59	1484.78
510.79	1423.34
510.99	1521.64
511.19	1460.20
511.39	1632.23
511.59	1574.89
511.79	1511.40
511.99	1548.26
512.19	1574.89
512.38	1531.88
512.58	1495.02
512.78	1535.98
512.98	1568.74
513.18	1613.80
513.38	1492.97
513.58	1562.60
513.78	1523.69
513.98	1542.12
514.18	1527.78
514.38	1505.26
514.58	1583.08
514.78	1464.30
514.98	1509.35
515.18	1525.74
515.38	1474.54
515.58	1609.70
515.78	1466.35
515.98	1495.02
516.18	1605.61
516.38	1587.18
516.57	1572.84
516.77	1544.17
516.97	1550.31
517.17	1587.18
517.37	1458.15
517.57	1486.83
517.77	1564.65
517.97	1513.45
518.17	1624.04
518.37	1544.17
518.57	1488.87
518.77	1480.68
518.97	1585.13
519.16	1617.90
519.36	1634.28
519.56	1525.74
519.76	1570.79
519.96	1583.08
520.16	1634.28
520.36	1515.50
520.56	1626.09
520.76	1531.88
520.96	1587.18
521.16	1589.22
521.35	1497.07
521.55	1576.94
521.75	1605.61
521.95	1550.31
522.15	1527.78
522.35	1476.59
522.55	1585.13
522.75	1589.22
522.95	1538.02
523.14	1472.49
523.34	1499.11
523.54	1429.48
523.74	1583.08
523.94	1488.87
524.14	1452.01
524.34	1562.60
524.54	1626.09
524.73	1529.83
524.93	1492.97
525.13	1546.22
525.33	1445.87
525.53	1669.09
525.73	1511.40
525.93	1560.55
526.13	1525.74
526.32	1472.49
526.52	1499.11
526.72	1566.70
526.92	1503.21
527.12	1513.45
527.32	1460.20
527.52	1503.21
527.71	1585.13
527.91	1542.12
528.11	1574.89
528.31	1556.46
528.51	1562.60
528.71	1560.55
528.90	1538.02
529.10	1593.32
529.30	1533.93
529.50	1462.25
529.70	1589.22
529.90	1527.78
530.09	1585.13
530.29	1447.91
530.49	1505.26
530.69	1662.95
530.89	1441.77
531.09	1550.31
531.28	1449.96
531.48	1570.79
531.68	1535.98
531.88	1538.02
532.08	1560.55
532.28	1538.02
532.47	1595.37
532.67	1540.07
532.87	1495.02
533.07	1570.79
533.27	1642.47
533.46	1574.89
533.66	1638.38
533.86	1566.70
534.06	1583.08
534.26	1587.18
534.45	1570.79
534.65	1646.57
534.85	1646.57
535.05	1564.65
535.25	1591.27
535.44	1515.50
535.64	1626.09
535.84	1527.78
536.04	1523.69
536.24	1449.96
536.43	1587.18
536.63	1611.75
536.83	1515.50
537.03	1546.22
537.22	1474.54
537.42	1509.35
537.62	1511.40
537.82	1519.59
538.02	1550.31
538.21	1630.18
538.41	1689.57
538.61	1632.23
538.81	1492.97
539.00	1576.94
539.20	1515.50
539.40	1472.49
539.60	1568.74
539.79	1552.36
539.99	1509.35
540.19	1548.26
540.39	1523.69
540.58	1486.83
540.78	1529.83
540.98	1583.08
541.18	1533.93
541.37	1566.70
541.57	1511.40
541.77	1595.37
541.97	1492.97
542.16	1558.50
542.36	1505.26
542.56	1558.50
542.76	1648.61
542.95	1515.50
543.15	1535.98
543.35	1497.07
543.54	1509.35
543.74	1503.21
543.94	1593.32
544.14	1552.36
544.33	1529.83
544.53	1519.59
544.73	1505.26
544.93	1507.30
545.12	1589.22
545.32	1589.22
545.52	1472.49
545.71	1495.02
545.91	1505.26
546.11	1505.26
546.30	1443.82
546.50	1544.17
546.70	1542.12
546.90	1599.46
547.09	1445.87
547.29	1548.26
547.49	1540.07
547.68	1599.46
547.88	1548.26
548.08	1486.83
548.27	1828.84
548.47	1593.32
548.67	1521.64
548.87	1564.65
549.06	1540.07
549.26	1544.17
549.46	1517.54
549.65	1558.50
549.85	1583.08
550.05	1587.18
550.24	1476.59
550.44	1564.65
550.64	1554.41
550.83	1560.55
551.03	1617.90
551.23	1581.03
551.42	1527.78
551.62	1503.21
551.82	1517.54
552.01	1550.31
552.21	1501.16
552.41	1607.66
552.60	1648.61
552.80	1556.46
553.00	1527.78
553.19	1599.46
553.39	1632.23
553.59	1581.03
553.78	1513.45
553.98	1535.98
554.17	1462.25
554.37	1468.39
554.57	1611.75
554.76	1456.11
554.96	1470.44
555.16	1513.45
555.35	1517.54
555.55	1550.31
555.75	1533.93
555.94	1581.03
556.14	1499.11
556.33	1519.59
556.53	1574.89
556.73	1624.04
556.92	1607.66
557.12	1533.93
557.32	1581.03
557.51	1607.66
557.71	1523.69
557.90	1611.75
558.10	1669.09
558.30	1544.17
558.49	1595.37
558.69	1501.16
558.88	1583.08
559.08	1482.73
559.28	1499.11
559.47	1574.89
559.67	1527.78
559.86	1656.81
560.06	1601.51
560.26	1566.70
560.45	1566.70
560.65	1527.78
560.84	1619.94
561.04	1548.26
561.24	1544.17
561.43	1509.35
561.63	1634.28
561.82	1507.30
562.02	1576.94
562.22	1456.11
562.41	1523.69
562.61	1470.44
562.80	1558.50
563.00	1705.96
563.19	1624.04
563.39	1572.84
563.59	1552.36
563.78	1511.40
563.98	1527.78
564.17	1478.63
564.37	1460.20
564.56	1505.26
564.76	1490.92
564.96	1656.81
565.15	1556.46
565.35	1634.28
565.54	1583.08
565.74	1554.41
565.93	1654.76
566.13	1572.84
566.32	1542.12
566.52	1568.74
566.71	1574.89
566.91	1570.79
567.11	1411.05
567.30	1550.31
567.50	1583.08
567.69	1515.50
567.89	1564.65
568.08	1464.30
568.28	1552.36
568.47	1495.02
568.67	1542.12
568.86	1511.40
569.06	1583.08
569.25	1535.98
569.45	1427.43
569.64	1505.26
569.84	1503.21
570.04	1587.18
570.23	1581.03
570.43	1511.40
570.62	1509.35
570.82	1574.89
571.01	1560.55
571.21	1519.59
571.40	1525.74
571.60	1640.42
571.79	1593.32
571.99	1548.26
572.18	1556.46
572.38	1581.03
572.57	1542.12
572.77	1589.22
572.96	1746.92
573.16	1560.55
573.35	1556.46
573.55	1595.37
573.74	1542.12
573.94	1538.02
574.13	1566.70
574.33	1560.55
574.52	1583.08
574.71	1591.27
574.91	1546.22
575.10	1525.74
575.30	1587.18
575.49	1550.31
575.69	1513.45
575.88	1570.79
576.08	1650.66
576.27	1640.42
576.47	1628.14
576.66	1644.52
576.86	1646.57
577.05	1542.12
577.25	1634.28
577.44	1687.53
577.64	1546.22
577.83	1568.74
578.02	1531.88
578.22	1677.29
578.41	1636.33
578.61	1650.66
578.80	1488.87
579.00	1540.07
579.19	1568.74
579.39	1619.94
579.58	1677.29
579.77	1581.03
579.97	1628.14
580.16	1609.70
580.36	1601.51
580.55	1624.04
580.75	1597.42
580.94	1578.98
581.13	1656.81
581.33	1646.57
581.52	1624.04
581.72	1720.29
581.91	1685.48
582.11	1611.75
582.30	1589.22
582.49	1587.18
582.69	1722.34
582.88	1652.71
583.08	1619.94
583.27	1662.95
583.47	1538.02
583.66	1640.42
583.85	1515.50
584.05	1658.85
584.24	1621.99
584.44	1640.42
584.63	1613.80
584.82	1687.53
585.02	1681.38
585.21	1757.16
585.41	1759.21
585.60	1740.77
585.79	1843.17
585.99	1796.07
586.18	1771.49
586.37	2101.22
586.57	3098.58
586.76	9736.04
586.96	27410.01
587.15	43584.87
587.34	54383.81
587.54	61297.75
587.73	59303.03
587.93	43572.58
588.12	32030.23
588.31	25970.29
588.51	21954.22
588.70	19936.98
588.89	18327.27
589.09	16948.99
589.28	15447.83
589.47	13199.16
589.67	11167.57
589.86	9103.22
590.06	6836.12
590.25	4976.56
590.44	3882.95
590.64	2901.97
590.83	2392.03
591.02	2066.40
591.22	1929.19
591.41	1830.88
591.60	1646.57
591.80	1755.11
591.99	1570.79
592.18	1669.09
592.38	1652.71
592.57	1570.79
592.76	1687.53
592.96	1671.14
593.15	1591.27
593.34	1621.99
593.54	1626.09
593.73	1576.94
593.92	1591.27
594.12	1624.04
594.31	1605.61
594.50	1693.67
594.70	1624.04
594.89	1744.87
595.08	1552.36
595.28	1568.74
595.47	1685.48
595.66	1634.28
595.86	1533.93
596.05	1595.37
596.24	1587.18
596.43	1724.39
596.63	1689.57
596.82	1576.94
597.01	1538.02
597.21	1650.66
597.40	1652.71
597.59	1683.43
597.79	1527.78
597.98	1566.70
598.17	1521.64
598.36	1603.56
598.56	1576.94
598.75	1554.41
598.94	1548.26
599.14	1599.46
599.33	1609.70
599.52	1597.42
599.71	1572.84
599.91	1597.42
600.10	1556.46
600.29	1525.74
600.48	1556.46
600.68	1566.70
600.87	1595.37
601.06	1474.54
601.26	1581.03
601.45	1544.17
601.64	1566.70
601.83	1554.41
602.03	1529.83
602.22	1544.17
602.41	1558.50
602.60	1681.38
602.80	1595.37
602.99	1552.36
603.18	1511.40
603.37	1591.27
603.57	1515.50
603.76	1605.61
603.95	1632.23
604.14	1492.97
604.34	1511.40
604.53	1533.93
604.72	1560.55
604.91	1558.50
605.10	1578.98
605.30	1544.17
605.49	1570.79
605.68	1525.74
605.87	1552.36
606.07	1550.31
606.26	1615.85
606.45	1591.27
606.64	1566.70
606.84	1554.41
607.03	1554.41
607.22	1611.75
607.41	1566.70
607.60	1544.17
607.80	1650.66
607.99	1589.22
608.18	1517.54
608.37	1482.73
608.56	1517.54
608.76	1497.07
608.95	1697.77
609.14	1636.33
609.33	1714.15
609.52	1740.77
609.72	1652.71
609.91	1671.14
610.10	1574.89
610.29	1640.42
610.48	1683.43
610.68	1601.51
610.87	1505.26
611.06	1572.84
611.25	1566.70
611.44	1607.66
611.63	1521.64
611.83	1632.23
612.02	1492.97
612.21	1619.94
612.40	1550.31
612.59	1587.18
612.79	1488.87
612.98	1574.89
613.17	1585.13
613.36	1587.18
613.55	1695.72
613.74	1636.33
613.93	1689.57
614.13	1736.68
614.32	1740.77
614.51	1714.15
614.70	1703.91
614.89	1568.74
615.08	1662.95
615.28	1902.56
615.47	1581.03
615.66	1648.61
615.85	1568.74
616.04	1609.70
616.23	1658.85
616.42	1589.22
616.62	1695.72
616.81	1626.09
617.00	1640.42
617.19	1615.85
617.38	1546.22
617.57	1566.70
617.76	1593.32
617.95	1626.09
618.15	1529.83
618.34	1597.42
618.53	1490.92
618.72	1593.32
618.91	1652.71
619.10	1640.42
619.29	1550.31
619.48	1486.83
619.68	1535.98
619.87	1591.27
620.06	1478.63
620.25	1624.04
620.44	1466.35
620.63	1572.84
620.82	1501.16
621.01	1495.02
621.20	1564.65
621.39	1609.70
621.59	1587.18
621.78	1560.55
621.97	1599.46
622.16	1570.79
622.35	1554.41
622.54	1552.36
622.73	1632.23
622.92	1503.21
623.11	1523.69
623.30	1535.98
623.49	1624.04
623.68	1511.40
623.88	1583.08
624.07	1626.09
624.26	1505.26
624.45	1478.63
624.64	1466.35
624.83	1667.05
625.02	1458.15
625.21	1566.70
625.40	1568.74
625.59	1544.17
625.78	1572.84
625.97	1599.46
626.16	1640.42
626.35	1568.74
626.54	1595.37
626.74	1722.34
626.93	1605.61
627.12	1564.65
627.31	1578.98
627.50	1572.84
627.69	1599.46
627.88	1558.50
628.07	1632.23
628.26	1540.07
628.45	1501.16
628.64	1478.63
628.83	1628.14
629.02	1566.70
629.21	1552.36
629.40	1484.78
629.59	1458.15
629.78	1535.98
629.97	1589.22
630.16	1615.85
630.35	1593.32
630.54	1550.31
630.73	1503.21
630.92	1576.94
631.11	1527.78
631.30	1519.59
631.49	1548.26
631.68	1560.55
631.87	1634.28
632.06	1525.74
632.25	1611.75
632.44	1501.16
632.63	1533.93
632.82	1644.52
633.01	1609.70
633.20	1656.81
633.39	1642.47
633.58	1597.42
633.77	1654.76
633.96	1681.38
634.15	1589.22
634.34	1544.17
634.53	1570.79
634.72	1529.83
634.91	1484.78
635.10	1515.50
635.29	1617.90
635.48	1527.78
635.67	1529.83
635.86	1488.87
636.05	1523.69
636.24	1560.55
636.43	1546.22
636.62	1552.36
636.81	1458.15
637.00	1624.04
637.19	1482.73
637.38	1521.64
637.57	1548.26
637.76	1576.94
637.95	1581.03
638.14	1667.05
638.33	1624.04
638.52	1570.79
638.71	1566.70
638.89	1566.70
639.08	1638.38
639.27	1621.99
639.46	1705.96
639.65	1986.53
639.84	2082.78
640.03	2133.98
640.22	2179.04
640.41	2172.89
640.60	1972.19
640.79	1853.41
640.98	1757.16
641.17	1824.74
641.36	1708.01
641.55	1755.11
641.74	1697.77
641.92	1601.51
642.11	1595.37
642.30	1609.70
642.49	1568.74
642.68	1542.12
642.87	1552.36
643.06	1587.18
643.25	1501.16
643.44	1486.83
643.63	1607.66
643.82	1576.94
644.00	1501.16
644.19	1591.27
644.38	1548.26
644.57	1509.35
644.76	1535.98
644.95	1503.21
645.14	1523.69
645.33	1521.64
645.52	1597.42
645.71	1554.41
645.89	1482.73
646.08	1525.74
646.27	1505.26
646.46	1660.90
646.65	1517.54
646.84	1495.02
647.03	1554.41
647.22	1517.54
647.40	1546.22
647.59	1540.07
647.78	1533.93
647.97	1495.02
648.16	1548.26
648.35	1535.98
648.54	1624.04
648.73	1558.50
648.91	1581.03
649.10	1527.78
649.29	1521.64
649.48	1507.30
649.67	1607.66
649.86	1556.46
650.05	1595.37
650.23	1724.39
650.42	1695.72
650.61	1720.29
650.80	1777.64
650.99	1748.97
651.18	1660.90
651.36	1642.47
651.55	1560.55
651.74	1671.14
651.93	1599.46
652.12	1517.54
652.31	1578.98
652.49	1538.02
652.68	1597.42
652.87	1587.18
653.06	1619.94
653.25	1648.61
653.44	1583.08
653.62	1597.42
653.81	1550.31
654.00	1644.52
654.19	1562.60
654.38	1669.09
654.56	1558.50
654.75	1560.55
654.94	1646.57
655.13	1572.84
655.32	1593.32
655.51	1640.42
655.69	1529.83
655.88	1634.28
656.07	1538.02
656.26	1634.28
656.45	1447.91
656.63	1578.98
656.82	1599.46
657.01	1529.83
657.20	1570.79
657.38	1576.94
657.57	1486.83
657.76	1519.59
657.95	1621.99
658.14	1574.89
658.32	1517.54
658.51	1533.93
658.70	1564.65
658.89	1533.93
659.08	1497.07
659.26	1578.98
659.45	1482.73
659.64	1642.47
659.83	1650.66
660.01	1804.26
660.20	1601.51
660.39	1632.23
660.58	1531.88
660.76	1558.50
660.95	1585.13
661.14	1521.64
661.33	1519.59
661.51	1497.07
661.70	1556.46
661.89	1519.59
662.08	1521.64
662.26	1533.93
662.45	1490.92
662.64	1644.52
662.83	1572.84
663.01	1482.73
663.20	1482.73
663.39	1632.23
663.58	1478.63
663.76	1519.59
663.95	1630.18
664.14	1538.02
664.32	1552.36
664.51	1550.31
664.70	1535.98
664.89	1521.64
665.07	1513.45
665.26	1630.18
665.45	1546.22
665.64	1603.56
665.82	1521.64
666.01	1566.70
666.20	1501.16
666.38	1591.27
666.57	1669.09
666.76	1794.02
666.95	2979.79
667.13	7659.40
667.32	15605.52
667.51	20254.41
667.69	23381.66
667.88	25290.37
668.07	22220.46
668.25	15587.09
668.44	12474.18
668.63	10225.51
668.81	8789.88
669.00	7718.79
669.19	7024.53
669.38	6285.22
669.56	5535.66
669.75	4683.70
669.94	4140.99
670.12	3309.52
670.31	2887.64
670.50	2449.37
670.68	2170.85
670.87	1904.61
671.06	1808.36
671.24	1726.44
671.43	1683.43
671.62	1654.76
671.80	1650.66
671.99	1587.18
672.18	1640.42
672.36	1665.00
672.55	1562.60
672.74	1597.42
672.92	1570.79
673.11	1613.80
673.29	1533.93
673.48	1587.18
673.67	1499.11
673.85	1611.75
674.04	1554.41
674.23	1570.79
674.41	1669.09
674.60	1513.45
674.79	1509.35
674.97	1497.07
675.16	1605.61
675.34	1587.18
675.53	1523.69
675.72	1570.79
675.90	1566.70
676.09	1550.31
676.28	1603.56
676.46	1525.74
676.65	1570.79
676.83	1460.20
677.02	1486.83
677.21	1546.22
677.39	1548.26
677.58	1538.02
677.77	1515.50
677.95	1542.12
678.14	1503.21
678.32	1464.30
678.51	1562.60
678.70	1710.05
678.88	1542.12
679.07	1507.30
679.25	1495.02
679.44	1533.93
679.63	1544.17
679.81	1544.17
680.00	1581.03
680.18	1658.85
680.37	1630.18
680.55	1595.37
680.74	1482.73
680.93	1464.30
681.11	1542.12
681.30	1552.36
681.48	1564.65
681.67	1562.60
681.85	1570.79
682.04	1527.78
682.23	1583.08
682.41	1568.74
682.60	1515.50
682.78	1576.94
682.97	1515.50
683.15	1576.94
683.34	1490.92
683.53	1603.56
683.71	1468.39
683.90	1642.47
684.08	1591.27
684.27	1425.39
684.45	1562.60
684.64	1611.75
684.82	1538.02
685.01	1636.33
685.19	1511.40
685.38	1589.22
685.57	1515.50
685.75	1523.69
685.94	1462.25
686.12	1507.30
686.31	1552.36
686.49	1605.61
686.68	1484.78
686.86	1587.18
687.05	1564.65
687.23	1648.61
687.42	1556.46
687.60	1480.68
687.79	1591.27
687.97	1617.90
688.16	1615.85
688.34	1624.04
688.53	1476.59
688.71	1535.98
688.90	1544.17
689.08	1531.88
689.27	1435.63
689.45	1546.22
689.64	1492.97
689.82	1535.98
690.01	1611.75
690.19	1607.66
690.38	1554.41
690.56	1658.85
690.75	1550.31
690.93	1587.18
691.12	1544.17
691.30	1492.97
691.49	1570.79
691.67	1484.78
691.86	1599.46
692.04	1505.26
692.23	1515.50
692.41	1566.70
692.60	1638.38
692.78	1630.18
692.97	1601.51
693.15	1570.79
693.34	1665.00
693.52	1683.43
693.71	1546.22
693.89	1529.83
694.08	1470.44
694.26	1583.08
694.44	1599.46
694.63	1605.61
694.81	1533.93
695.00	1585.13
695.18	1587.18
695.37	1621.99
695.55	1568.74
695.74	1490.92
695.92	1484.78
696.10	1640.42
696.29	1525.74
696.47	1550.31
696.66	1421.29
696.84	1454.06
697.03	1595.37
697.21	1632.23
697.40	1949.67
697.58	1548.26
697.76	1523.69
697.95	1552.36
698.13	1495.02
698.32	1540.07
698.50	1503.21
698.68	1527.78
698.87	1529.83
699.05	1632.23
699.24	1613.80
699.42	1538.02
699.61	1558.50
699.79	1564.65
699.97	1554.41
700.16	1529.83
700.34	1490.92
700.53	1587.18
700.71	1603.56
700.89	1638.38
701.08	1595.37
701.26	1538.02
701.45	1873.89
701.63	1488.87
701.81	1509.35
702.00	1558.50
702.18	1566.70
702.37	1458.15
702.55	1605.61
702.73	1660.90
702.92	1677.29
703.10	1837.03
703.28	1814.50
703.47	1716.20
703.65	1779.68
703.84	1869.80
704.02	1560.55
704.20	1662.95
704.39	1595.37
704.57	1669.09
704.75	1685.48
704.94	1558.50
705.12	1593.32
705.30	1609.70
705.49	1812.45
705.67	2854.87
705.86	7237.52
706.04	14677.79
706.22	18730.72
706.41	21589.69
706.59	22587.05
706.77	20930.24
706.96	14653.22
707.14	11802.44
707.32	9789.29
707.51	8683.39
707.69	7540.62
707.87	6778.78
708.06	5840.81
708.24	4677.56
708.42	3762.12
708.61	3057.62
708.79	2281.44
708.97	2011.11
709.16	1916.90
709.34	1710.05
709.52	1628.14
709.71	1687.53
709.89	1683.43
710.07	1574.89
710.26	1462.25
710.44	1511.40
710.62	1599.46
710.80	1525.74
710.99	1720.29
711.17	1593.32
711.35	1531.88
711.54	1527.78
711.72	1607.66
711.90	1599.46
712.09	1546.22
712.27	1538.02
712.45	1554.41
712.63	1515.50
712.82	1593.32
713.00	1599.46
713.18	1546.22
713.37	1642.47
713.55	1546.22
713.73	1591.27
713.91	1615.85
714.10	1468.39
714.28	1548.26
714.46	1538.02
714.65	1523.69
714.83	1535.98
715.01	1583.08
715.19	1533.93
715.38	1482.73
715.56	1566.70
715.74	1511.40
715.92	1515.50
716.11	1562.60
716.29	1439.72
716.47	1492.97
716.65	1542.12
716.84	1533.93
717.02	1644.52
717.20	1464.30
717.38	1542.12
717.57	1576.94
717.75	1558.50
717.93	1486.83
718.11	1576.94
718.30	1509.35
718.48	1572.84
718.66	1564.65
718.84	1544.17
719.03	1525.74
719.21	1511.40
719.39	1583.08
719.57	1566.70
719.75	1599.46
719.94	1511.40
720.12	1542.12
720.30	1615.85
720.48	1581.03
720.67	1535.98
720.85	1587.18
721.03	1462.25
721.21	1462.25
721.39	1617.90
721.58	1562.60
721.76	1585.13
721.94	1566.70
722.12	1583.08
722.30	1650.66
722.49	1527.78
722.67	1533.93
722.85	1656.81
723.03	1480.68
723.21	1454.06
723.40	1619.94
723.58	1578.98
723.76	1531.88
723.94	1640.42
724.12	1560.55
724.30	1695.72
724.49	1710.05
724.67	1583.08
724.85	1728.49
725.03	1509.35
725.21	1570.79
725.40	1546.22
725.58	1521.64
725.76	1601.51
725.94	1519.59
726.12	1441.77
726.30	1525.74
726.49	1492.97
726.67	1511.40
726.85	1490.92
727.03	1574.89
727.21	1800.16
727.39	2234.33
727.57	3239.89
727.76	4323.26
727.94	4812.73
728.12	5117.87
728.30	5074.87
728.48	4415.42
728.66	3434.44
728.84	3184.59
729.03	2871.25
729.21	2543.58
729.39	2340.83
729.57	2041.82
729.75	1863.65
729.93	1796.07
730.11	1640.42
730.30	1662.95
730.48	1601.51
730.66	1640.42
730.84	1560.55
731.02	1515.50
731.20	1533.93
731.38	1603.56
731.56	1533.93
731.74	1429.48
731.93	1503.21
732.11	1507.30
732.29	1581.03
732.47	1525.74
732.65	1568.74
732.83	1583.08
733.01	1558.50
733.19	1505.26
733.37	1628.14
733.56	1513.45
733.74	1497.07
733.92	1574.89
734.10	1511.40
734.28	1544.17
734.46	1388.52
734.64	1476.59
734.82	1624.04
735.00	1560.55
735.18	1511.40
735.36	1597.42
735.54	1511.40
735.73	1568.74
735.91	1554.41
736.09	1521.64
736.27	1503.21
736.45	1552.36
736.63	1437.67
736.81	1505.26
736.99	1550.31
737.17	1624.04
737.35	1495.02
737.53	1564.65
737.71	1591.27
737.89	1607.66
738.07	1466.35
738.25	1437.67
738.43	1472.49
738.61	1517.54
738.80	1558.50
738.98	1435.63
739.16	1533.93
739.34	1548.26
739.52	1593.32
739.70	1470.44
739.88	1550.31
740.06	1601.51
740.24	1462.25
740.42	1576.94
740.60	1409.00
740.78	1525.74
740.96	1368.04
741.14	1519.59
741.32	1558.50
741.50	1517.54
741.68	1675.24
741.86	1583.08
742.04	1452.01
742.22	1425.39
742.40	1484.78
742.58	1578.98
742.76	1554.41
742.94	1560.55
743.12	1413.10
743.30	1523.69
743.48	1597.42
743.66	1480.68
743.84	1587.18
744.02	1558.50
744.20	1511.40
744.38	1511.40
744.56	1449.96
744.74	1476.59
744.92	1540.07
745.10	1593.32
745.28	1607.66
745.46	1572.84
745.64	1576.94
745.82	1603.56
746.00	1605.61
746.18	1574.89
746.36	1523.69
746.54	1503.21
746.72	1587.18
746.90	1517.54
747.08	1585.13
747.26	1542.12
747.44	1558.50
747.62	1570.79
747.80	1593.32
747.98	1583.08
748.15	1468.39
748.33	1646.57
748.51	1554.41
748.69	1587.18
748.87	1484.78
749.05	1519.59
749.23	1533.93
749.41	1595.37
749.59	1560.55
749.77	1531.88
749.95	1511.40
750.13	1519.59
750.31	1583.08
750.49	1503.21
750.67	1603.56
750.85	1603.56
751.03	1546.22
751.20	1658.85
751.38	1513.45
751.56	1544.17
751.74	1556.46
751.92	1509.35
752.10	1478.63
752.28	1587.18
752.46	1501.16
752.64	1576.94
752.82	1564.65
753.00	1617.90
753.18	1523.69
753.35	1523.69
753.53	1495.02
753.71	1501.16
753.89	1626.09
754.07	1570.79
754.25	1560.55
754.43	1538.02
754.61	1468.39
754.79	1517.54
754.97	1495.02
755.14	1605.61
755.32	1562.60
755.50	1544.17
755.68	1482.73
755.86	1447.91
756.04	1497.07
756.22	1497.07
756.40	1609.70
756.57	1632.23
756.75	1505.26
756.93	1632.23
757.11	1511.40
757.29	1460.20
757.47	1505.26
757.65	1501.16
757.82	1433.58
758.00	1492.97
758.18	1497.07
758.36	1452.01
758.54	1611.75
758.72	1462.25
758.90	1626.09
759.07	1583.08
759.25	1527.78
759.43	1497.07
759.61	1562.60
759.79	1900.52
759.97	1566.70
760.15	1554.41
760.32	1468.39
760.50	1513.45
760.68	1624.04
760.86	1482.73
761.04	1583.08
761.22	1511.40
761.39	1552.36
761.57	1564.65
761.75	1560.55
761.93	1529.83
762.11	1501.16
762.28	1478.63
762.46	1531.88
762.64	1589.22
762.82	1513.45
763.00	1505.26
763.18	1535.98
763.35	1443.82
763.53	1507.30
763.71	1562.60
763.89	1478.63
764.07	1507.30
764.24	1544.17
764.42	1525.74
764.60	1517.54
764.78	1509.35
764.96	1533.93
765.13	1587.18
765.31	1601.51
765.49	1554.41
765.67	1501.16
765.84	1503.21
766.02	1578.98
766.20	1458.15
766.38	1554.41
766.56	1578.98
766.73	1632.23
766.91	1476.59
767.09	1533.93
767.27	1587.18
767.44	1533.93
767.62	1540.07
767.80	1517.54
767.98	1527.78
768.15	1529.83
768.33	1585.13
768.51	1578.98
768.69	1525.74
768.87	1583.08
769.04	1503.21
769.22	1630.18
769.40	1599.46
769.58	1652.71
769.75	1544.17
769.93	1615.85
770.11	1544.17
770.28	1542.12
770.46	1640.42
770.64	1650.66
770.82	1511.40
770.99	1566.70
771.17	1550.31
771.35	1585.13
771.53	1511.40
771.70	1519.59
771.88	1570.79
772.06	1566.70
772.23	1503.21
772.41	1630.18
772.59	1501.16
772.77	1519.59
772.94	1570.79
773.12	1523.69
773.30	1490.92
773.47	1572.84
773.65	1460.20
773.83	1560.55
774.01	1466.35
774.18	1462.25
774.36	1527.78
774.54	1445.87
774.71	1624.04
774.89	1347.56
775.07	1519.59
775.24	1533.93
775.42	1562.60
775.60	1611.75
775.78	1529.83
775.95	1521.64
776.13	1521.64
776.31	1409.00
776.48	1478.63
776.66	1548.26
776.84	1566.70
777.01	1542.12
777.19	1556.46
777.37	1527.78
777.54	1529.83
777.72	1621.99
777.90	1488.87
778.07	1507.30
778.25	1617.90
778.43	1574.89
778.60	1470.44
778.78	1658.85
778.96	1576.94
779.13	1443.82
779.31	1556.46
779.49	1523.69
779.66	1492.97
779.84	1503.21
780.01	1587.18
780.19	1486.83
780.37	1576.94
780.54	1558.50
780.72	1540.07
780.90	1546.22
781.07	1517.54
781.25	1495.02
781.43	1533.93
781.60	1447.91
781.78	1609.70
781.95	1558.50
782.13	1529.83
782.31	1509.35
782.48	1439.72
782.66	1476.59
782.83	1523.69
783.01	1568.74
783.19	1632.23
783.36	1517.54
783.54	1439.72
783.72	1669.09
783.89	1452.01
784.07	1589.22
784.24	1611.75
784.42	1685.48
784.60	1564.65
784.77	1544.17
784.95	1505.26
785.12	1466.35
785.30	1531.88
785.47	1552.36
785.65	1460.20
785.83	1515.50
786.00	1546.22
786.18	1576.94
786.35	1443.82
786.53	1468.39
786.71	1583.08
786.88	1634.28
787.06	1513.45
787.23	1480.68
787.41	1476.59
787.58	1492.97
787.76	1458.15
787.94	1574.89
788.11	1554.41
788.29	1509.35
788.46	1488.87
788.64	1411.05
788.81	1542.12
788.99	1507.30
789.16	1486.83
789.34	1486.83
789.52	1466.35
789.69	1556.46
789.87	1490.92
790.04	1529.83
790.22	1605.61
790.39	1546.22
790.57	1490.92
790.74	1513.45
790.92	1583.08
791.09	1464.30
791.27	1484.78
791.44	1574.89
791.62	1546.22
791.79	1556.46
791.97	1540.07
792.15	1601.51
792.32	1519.59
792.50	1511.40
792.67	1628.14
792.85	1642.47
793.02	1505.26
793.20	1460.20
793.37	1544.17
793.55	1576.94
793.72	1486.83
793.90	1529.83
794.07	1519.59
794.25	1458.15
794.42	1533.93
794.60	1486.83
794.77	1527.78
794.95	1531.88
795.12	1607.66
795.30	1460.20
795.47	1445.87
795.65	1685.48
795.82	1533.93
796.00	1492.97
796.17	1587.18
796.34	1564.65
796.52	1554.41
796.69	1632.23
796.87	1550.31
797.04	1570.79
797.22	1626.09
797.39	1589.22
797.57	1578.98
797.74	1525.74
797.92	1533.93
798.09	1484.78
798.27	1517.54
798.44	1505.26
798.62	1542.12
798.79	1593.32
798.96	1552.36
799.14	1511.40
799.31	1570.79
799.49	1595.37
799.66	1587.18
799.84	1589.22
800.01	1482.73
800.19	1591.27
800.36	1415.15
800.53	1583.08
800.71	1542.12
800.88	1562.60
801.06	1499.11
801.23	1468.39
801.41	1531.88
801.58	1507.30
801.75	1495.02
801.93	1533.93
802.10	1550.31
802.28	1480.68
802.45	1441.77
802.63	1611.75
802.80	1535.98
802.97	1544.17
803.15	1552.36
803.32	1548.26
803.50	1527.78
803.67	1460.20
803.84	1476.59
804.02	1490.92
804.19	1515.50
804.37	1505.26
804.54	1472.49
804.71	1556.46
804.89	1533.93
805.06	1492.97
805.24	1472.49
805.41	1533.93
805.58	1556.46
805.76	1642.47
805.93	1533.93
806.10	1609.70
806.28	1546.22
806.45	1484.78
806.63	1505.26
806.80	1556.46
806.97	1599.46
807.15	1591.27
807.32	1486.83
807.49	1544.17
807.67	1476.59
807.84	1603.56
808.01	1492.97
808.19	1581.03
808.36	1746.92
808.54	1562.60
808.71	1503.21
808.88	1535.98
809.06	1613.80
809.23	1558.50
809.40	1499.11
809.58	1578.98
809.75	1566.70
809.92	1462.25
810.10	1665.00
810.27	1525.74
810.44	1644.52
810.62	1544.17
810.79	1576.94
810.96	1486.83
811.14	1400.81
811.31	1535.98
811.48	1505.26
811.66	1527.78
811.83	1556.46
812.00	1593.32
812.18	1556.46
812.35	1626.09
812.52	1466.35
812.69	1443.82
812.87	1556.46
813.04	1495.02
813.21	1497.07
813.39	1478.63
813.56	1531.88
813.73	1544.17
813.91	1492.97
814.08	1556.46
814.25	1558.50
814.42	1466.35
814.60	1542.12
814.77	1495.02
814.94	1507.30
815.12	1587.18
815.29	1550.31
815.46	1478.63
815.63	1531.88
815.81	1497.07
815.98	1554.41
816.15	1488.87
816.33	1488.87
816.50	1521.64
816.67	1486.83
816.84	1499.11
817.02	1517.54
817.19	1472.49
817.36	1572.84
817.53	1533.93
817.71	1503.21
817.88	1574.89
818.05	1570.79
818.22	1507.30
818.40	1628.14
818.57	1519.59
818.74	1552.36
818.91	1585.13
819.09	1540.07
819.26	1527.78
819.43	1531.88
819.60	1525.74
819.78	1576.94
819.95	1585.13
820.12	1464.30
820.29	1587.18
820.47	1542.12
820.64	1578.98
820.81	1476.59
820.98	1456.11
821.15	1550.31
821.33	1550.31
821.50	1388.52
821.67	1486.83
821.84	1486.83
822.02	1601.51
822.19	1492.97
822.36	1546.22
822.53	1556.46
822.70	1507.30
822.88	1484.78
823.05	1509.35
823.22	1497.07
823.39	1527.78
823.56	1585.13
823.74	1681.38
823.91	1505.26
824.08	1521.64
824.25	1458.15
824.42	1550.31
824.60	1505.26
824.77	1452.01
824.94	1505.26
825.11	1581.03
825.28	1492.97
825.45	1558.50
825.63	1548.26
825.80	1519.59
825.97	1542.12
826.14	1503.21
826.31	1499.11
826.48	1587.18
826.66	1462.25
826.83	1492.97
827.00	1476.59
827.17	1572.84
827.34	1558.50
827.51	1503.21
827.69	1574.89
827.86	1513.45
828.03	1578.98
828.20	1509.35
828.37	1456.11
828.54	1482.73
828.71	1458.15
828.89	1599.46
829.06	1550.31
829.23	1638.38
829.40	1550.31
829.57	1554.41
829.74	1617.90
829.91	1544.17
830.09	1468.39
830.26	1615.85
830.43	1566.70
830.60	1499.11
830.77	1562.60
830.94	1521.64
831.11	1585.13
831.28	1544.17
831.46	1578.98
831.63	1544.17
831.80	1533.93
831.97	1509.35
832.14	1492.97
832.31	1562.60
832.48	1552.36
832.65	1593.32
832.82	1513.45
832.99	1499.11
833.17	1513.45
833.34	1589.22
833.51	1597.42
833.68	1460.20
833.85	1609.70
834.02	1429.48
834.19	1501.16
834.36	1476.59
834.53	1568.74
834.70	1568.74
834.87	1632.23
835.04	1613.80
835.22	1425.39
835.39	1540.07
835.56	1495.02
835.73	1437.67
835.90	1597.42
836.07	1533.93
836.24	1578.98
836.41	1638.38
836.58	1464.30
836.75	1564.65
836.92	1497.07
837.09	1515.50
837.26	1507.30
837.43	1529.83
837.60	1581.03
837.77	1495.02
837.94	1609.70
838.12	1560.55
838.29	1585.13
838.46	1452.01
838.63	1544.17
838.80	1603.56
838.97	1540.07
839.14	1538.02
839.31	1478.63
839.48	1505.26
839.65	1474.54
839.82	1558.50
839.99	1443.82
840.16	1542.12
840.33	1525.74
840.50	1507.30
840.67	1531.88
840.84	1443.82
841.01	1552.36
841.18	1562.60
841.35	1525.74
841.52	1574.89
841.69	1568.74
841.86	1515.50
842.03	1560.55
842.20	1535.98
842.37	1546.22
842.54	1525.74
842.71	1509.35
842.88	1421.29
843.05	1570.79
843.22	1560.55
843.39	1513.45
843.56	1509.35
843.73	1519.59
843.90	1632.23
844.07	1505.26
844.24	1533.93
844.41	1630.18
844.58	1521.64
844.75	1501.16
844.92	1583.08
845.09	1546.22
845.26	1566.70
845.43	1517.54
845.60	1484.78
845.77	1558.50
845.94	1517.54
846.10	1560.55
846.27	1468.39
846.44	1435.63
846.61	1466.35
846.78	1591.27
846.95	1525.74
847.12	1511.40
847.29	1548.26
847.46	1523.69
847.63	1544.17
847.80	1452.01
847.97	1611.75
848.14	1638.38
848.31	1535.98
848.48	1486.83
848.65	1533.93
848.82	1576.94
848.98	1685.48
849.15	1505.26
849.32	1570.79
849.49	1628.14
849.66	1560.55
849.83	1550.31
850.00	1591.27
850.17	1554.41
850.34	1572.84
850.51	1552.36
850.68	1513.45
850.85	1660.90
851.01	1517.54
851.18	1540.07
851.35	1495.02
851.52	1515.50
851.69	1642.47
851.86	1470.44
852.03	1505.26
852.20	1587.18
852.37	1492.97
852.53	1501.16
852.70	1509.35
852.87	1540.07
853.04	1550.31
853.21	1562.60
853.38	1560.55
853.55	1597.42
853.72	1628.14
853.89	1431.53
854.05	1509.35
854.22	1503.21
854.39	1550.31
854.56	1515.50
854.73	1658.85
854.90	1441.77
855.07	1603.56
855.23	1523.69
855.40	1476.59
855.57	1505.26
855.74	1505.26
855.91	1660.90
856.08	1474.54
856.25	1505.26
856.41	1570.79
856.58	1548.26
856.75	1560.55
856.92	1439.72
857.09	1566.70
857.26	1423.34
857.42	1466.35
857.59	1517.54
857.76	1482.73
857.93	1576.94
858.10	1535.98
858.27	1482.73
858.43	1511.40
858.60	1482.73
858.77	1437.67
858.94	1552.36
859.11	1578.98
859.27	1499.11
859.44	1617.90
859.61	1701.86
859.78	1538.02
859.95	1533.93
860.12	1509.35
860.28	1595.37
860.45	1558.50
860.62	1523.69
860.79	1490.92
860.95	1535.98
861.12	1531.88
861.29	1525.74
861.46	1499.11
861.63	1535.98
861.79	1533.93
861.96	1546.22
862.13	1433.58
862.30	1628.14
862.47	1527.78
862.63	1603.56
862.80	1607.66
862.97	1521.64
863.14	1535.98
863.30	1570.79
863.47	1552.36
863.64	1578.98
863.81	1609.70
863.97	1542.12
864.14	1540.07
864.31	1566.70
864.48	1515.50
864.65	1454.06
864.81	1566.70
864.98	1521.64
865.15	1513.45
865.32	1560.55
865.48	1609.70
865.65	1535.98
865.82	1587.18
865.98	1558.50
866.15	1585.13
866.32	1548.26
866.49	1478.63
866.65	1564.65
866.82	1507.30
866.99	1533.93
867.16	1550.31
867.32	1478.63
867.49	1521.64
867.66	1484.78
867.83	1492.97
867.99	1505.26
868.16	1511.40
868.33	1497.07
868.49	1497.07
868.66	1499.11
868.83	1583.08
868.99	1583.08
869.16	1517.54
869.33	1505.26
869.50	1562.60
869.66	1497.07
869.83	1548.26
870.00	1411.05
870.16	1495.02
870.33	1507.30
870.50	1601.51
870.66	1452.01
870.83	1636.33
871.00	1538.02
871.17	1507.30
871.33	1527.78
871.50	1519.59
871.67	1542.12
871.83	1480.68
872.00	1642.47
872.17	1417.19
872.33	1515.50
872.50	1570.79
872.67	1525.74
872.83	1472.49
873.00	1560.55
873.17	1484.78
873.33	1603.56
873.50	1574.89
873.67	1486.83
873.83	1517.54
874.00	1525.74
874.16	1605.61
874.33	1546.22
874.50	1411.05
874.66	1564.65
874.83	1587.18
875.00	1572.84
875.16	1585.13
875.33	1572.84
875.50	1495.02
875.66	1441.77
875.83	1517.54
875.99	1568.74
876.16	1535.98
876.33	1505.26
876.49	1568.74
876.66	1599.46
876.83	1538.02
876.99	1423.34
877.16	1529.83
877.32	1587.18
877.49	1560.55
877.66	1576.94
877.82	1593.32
877.99	1544.17
878.15	1552.36
878.32	1585.13
878.49	1525.74
878.65	1519.59
878.82	1572.84
878.98	1538.02
879.15	1591.27
879.32	1654.76
879.48	1523.69
879.65	1515.50
879.81	1519.59
879.98	1552.36
880.15	1560.55
880.31	1562.60
880.48	1595.37
880.64	1619.94
880.81	1505.26
880.97	1595.37
881.14	1587.18
881.31	1482.73
881.47	1681.38
881.64	1515.50
881.80	1445.87
881.97	1599.46
882.13	1574.89
882.30	1517.54
882.47	1525.74
882.63	1439.72
882.80	1488.87
882.96	1523.69
883.13	1611.75
883.29	1486.83
883.46	1601.51
883.62	1597.42
883.79	1517.54
883.95	1583.08
884.12	1566.70
884.29	1576.94
884.45	1570.79
884.62	1558.50
884.78	1486.83
884.95	1681.38
885.11	1558.50
885.28	1570.79
885.44	1511.40
885.61	1511.40
885.77	1574.89
885.94	1570.79
886.10	1517.54
886.27	1452.01
886.43	1566.70
886.60	1517.54
886.76	1507.30
886.93	1480.68
887.09	1507.30
887.26	1464.30
887.42	1521.64
887.59	1472.49
887.75	1732.58
887.92	1585.13
888.08	1636.33
888.25	1570.79
888.41	1513.45
888.58	1550.31
888.74	1497.07
888.91	1474.54
>>>>>End Processed Spectral Data<<<<<
