SpectraSuite Data File
++++++++++++++++++++++++++++++++++++
Date: Tue May 03 12:55:37 CEST 2016
User: root
Dark Spectrum Present: No
Reference Spectrum Present: No
Number of Sampled Component Spectra: 1
Spectrometers: USB4C02835
Integration Time (usec): 100000 (USB4C02835)
Spectra Averaged: 1 (USB4C02835)
Boxcar Smoothing: 0 (USB4C02835)
Correct for Electrical Dark: No (USB4C02835)
Strobe/Lamp Enabled: No (USB4C02835)
Correct for Detector Non-linearity: No (USB4C02835)
Correct for Stray Light: No (USB4C02835)
Number of Pixels in Processed Spectrum: 3648
>>>>>Begin Processed Spectral Data<<<<<
177.47	1341.42
177.69	1341.42
177.91	1341.42
178.13	1353.71
178.36	1370.09
178.58	1482.73
178.80	1550.31
179.02	1486.83
179.24	1437.67
179.46	1466.35
179.68	1538.02
179.90	1482.73
180.13	1570.79
180.35	1544.17
180.57	1531.88
180.79	1609.70
181.01	1452.01
181.23	1593.32
181.45	1544.17
181.67	1511.40
181.90	1552.36
182.12	1435.63
182.34	1492.97
182.56	1542.12
182.78	1576.94
183.00	1505.26
183.22	1544.17
183.44	1507.30
183.66	1566.70
183.89	1591.27
184.11	1484.78
184.33	1529.83
184.55	1626.09
184.77	1568.74
184.99	1521.64
185.21	1538.02
185.43	1667.05
185.65	1535.98
185.87	1546.22
186.10	1619.94
186.32	1689.57
186.54	1591.27
186.76	1570.79
186.98	1613.80
187.20	1546.22
187.42	1517.54
187.64	1525.74
187.86	1595.37
188.08	1544.17
188.30	1544.17
188.52	1568.74
188.75	1552.36
188.97	1603.56
189.19	1490.92
189.41	1439.72
189.63	1578.98
189.85	1542.12
190.07	1503.21
190.29	1433.58
190.51	1609.70
190.73	1472.49
190.95	1558.50
191.17	1544.17
191.39	1484.78
191.61	1525.74
191.84	1515.50
192.06	1574.89
192.28	1476.59
192.50	1697.77
192.72	1540.07
192.94	1519.59
193.16	1578.98
193.38	1591.27
193.60	1499.11
193.82	1581.03
194.04	1695.72
194.26	1568.74
194.48	1535.98
194.70	1468.39
194.92	1521.64
195.14	1511.40
195.36	1542.12
195.58	1529.83
195.80	1497.07
196.02	1503.21
196.24	1542.12
196.46	1527.78
196.69	1609.70
196.91	1648.61
197.13	1511.40
197.35	1449.96
197.57	1574.89
197.79	1617.90
198.01	1558.50
198.23	1605.61
198.45	1585.13
198.67	1478.63
198.89	1583.08
199.11	1560.55
199.33	1458.15
199.55	1462.25
199.77	1525.74
199.99	1564.65
200.21	1552.36
200.43	1570.79
200.65	1460.20
200.87	1427.43
201.09	1546.22
201.31	1525.74
201.53	1542.12
201.75	1550.31
201.97	1550.31
202.19	1517.54
202.41	1560.55
202.63	1642.47
202.85	1558.50
203.07	1501.16
203.29	1519.59
203.51	1472.49
203.73	1495.02
203.95	1648.61
204.17	1603.56
204.39	1519.59
204.61	1552.36
204.83	1509.35
205.05	1521.64
205.27	1521.64
205.49	1601.51
205.71	1607.66
205.93	1417.19
206.15	1482.73
206.37	1626.09
206.59	1497.07
206.81	1509.35
207.03	1503.21
207.25	1521.64
207.47	1576.94
207.69	1542.12
207.91	1572.84
208.13	1583.08
208.34	1535.98
208.56	1499.11
208.78	1560.55
209.00	1501.16
209.22	1488.87
209.44	1542.12
209.66	1492.97
209.88	1568.74
210.10	1552.36
210.32	1523.69
210.54	1570.79
210.76	1574.89
210.98	1603.56
211.20	1488.87
211.42	1538.02
211.64	1675.24
211.86	1540.07
212.08	1509.35
212.30	1568.74
212.52	1513.45
212.74	1570.79
212.96	1531.88
213.17	1597.42
213.39	1548.26
213.61	1544.17
213.83	1587.18
214.05	1462.25
214.27	1572.84
214.49	1515.50
214.71	1490.92
214.93	1597.42
215.15	1566.70
215.37	1665.00
215.59	1466.35
215.81	1505.26
216.03	1566.70
216.24	1583.08
216.46	1501.16
216.68	1581.03
216.90	1486.83
217.12	1675.24
217.34	1540.07
217.56	1560.55
217.78	1552.36
218.00	1595.37
218.22	1562.60
218.44	1585.13
218.66	1529.83
218.87	1615.85
219.09	1449.96
219.31	1550.31
219.53	1550.31
219.75	1531.88
219.97	1550.31
220.19	1529.83
220.41	1521.64
220.63	1609.70
220.85	1566.70
221.06	1470.44
221.28	1492.97
221.50	1538.02
221.72	1607.66
221.94	1456.11
222.16	1429.48
222.38	1603.56
222.60	1591.27
222.82	1495.02
223.03	1574.89
223.25	1511.40
223.47	1628.14
223.69	1617.90
223.91	1542.12
224.13	1599.46
224.35	1572.84
224.57	1560.55
224.78	1540.07
225.00	1419.24
225.22	1478.63
225.44	1523.69
225.66	1525.74
225.88	1535.98
226.10	1589.22
226.32	1535.98
226.53	1574.89
226.75	1548.26
226.97	1538.02
227.19	1513.45
227.41	1519.59
227.63	1513.45
227.85	1521.64
228.06	1529.83
228.28	1488.87
228.50	1533.93
228.72	1460.20
228.94	1470.44
229.16	1478.63
229.37	1449.96
229.59	1484.78
229.81	1603.56
230.03	1527.78
230.25	1486.83
230.47	1505.26
230.69	1447.91
230.90	1585.13
231.12	1519.59
231.34	1589.22
231.56	1570.79
231.78	1413.10
232.00	1585.13
232.21	1495.02
232.43	1480.68
232.65	1335.28
232.87	1581.03
233.09	1499.11
233.30	1507.30
233.52	1570.79
233.74	1452.01
233.96	1503.21
234.18	1527.78
234.40	1486.83
234.61	1703.91
234.83	1417.19
235.05	1468.39
235.27	1665.00
235.49	1583.08
235.70	1472.49
235.92	1597.42
236.14	1591.27
236.36	1652.71
236.58	1427.43
236.79	1613.80
237.01	1523.69
237.23	1581.03
237.45	1624.04
237.67	1576.94
237.88	1546.22
238.10	1581.03
238.32	1525.74
238.54	1472.49
238.76	1621.99
238.97	1515.50
239.19	1566.70
239.41	1570.79
239.63	1564.65
239.85	1562.60
240.06	1540.07
240.28	1519.59
240.50	1538.02
240.72	1626.09
240.93	1570.79
241.15	1609.70
241.37	1490.92
241.59	1671.14
241.81	1499.11
242.02	1583.08
242.24	1535.98
242.46	1507.30
242.68	1558.50
242.89	1554.41
243.11	1560.55
243.33	1497.07
243.55	1611.75
243.76	1597.42
243.98	1542.12
244.20	1527.78
244.42	1544.17
244.64	1578.98
244.85	1458.15
245.07	1468.39
245.29	1587.18
245.51	1566.70
245.72	1546.22
245.94	1578.98
246.16	1521.64
246.38	1470.44
246.59	1480.68
246.81	1499.11
247.03	1427.43
247.24	1501.16
247.46	1513.45
247.68	1560.55
247.90	1490.92
248.11	1499.11
248.33	1540.07
248.55	1497.07
248.77	1511.40
248.98	1515.50
249.20	1628.14
249.42	1509.35
249.64	1611.75
249.85	1521.64
250.07	1509.35
250.29	1564.65
250.50	1626.09
250.72	1460.20
250.94	1456.11
251.16	1558.50
251.37	1583.08
251.59	1531.88
251.81	1566.70
252.02	1605.61
252.24	1572.84
252.46	1599.46
252.68	1486.83
252.89	1554.41
253.11	1488.87
253.33	1628.14
253.54	1611.75
253.76	1480.68
253.98	1521.64
254.20	1460.20
254.41	1492.97
254.63	1558.50
254.85	1468.39
255.06	1550.31
255.28	1609.70
255.50	1574.89
255.71	1546.22
255.93	1495.02
256.15	1515.50
256.36	1574.89
256.58	1554.41
256.80	1558.50
257.02	1443.82
257.23	1486.83
257.45	1519.59
257.67	1607.66
257.88	1501.16
258.10	1552.36
258.32	1562.60
258.53	1597.42
258.75	1615.85
258.97	1431.53
259.18	1546.22
259.40	1538.02
259.62	1626.09
259.83	1597.42
260.05	1634.28
260.27	1746.92
260.48	1599.46
260.70	1529.83
260.92	1544.17
261.13	1607.66
261.35	1507.30
261.57	1519.59
261.78	1468.39
262.00	1460.20
262.22	1480.68
262.43	1495.02
262.65	1452.01
262.86	1550.31
263.08	1626.09
263.30	1566.70
263.51	1456.11
263.73	1476.59
263.95	1550.31
264.16	1538.02
264.38	1521.64
264.60	1540.07
264.81	1601.51
265.03	1587.18
265.25	1490.92
265.46	1597.42
265.68	1615.85
265.89	1585.13
266.11	1478.63
266.33	1589.22
266.54	1619.94
266.76	1574.89
266.98	1501.16
267.19	1656.81
267.41	1468.39
267.62	1515.50
267.84	1501.16
268.06	1546.22
268.27	1550.31
268.49	1568.74
268.70	1570.79
268.92	1535.98
269.14	1486.83
269.35	1484.78
269.57	1572.84
269.79	1560.55
270.00	1574.89
270.22	1574.89
270.43	1568.74
270.65	1427.43
270.87	1552.36
271.08	1570.79
271.30	1533.93
271.51	1566.70
271.73	1597.42
271.95	1591.27
272.16	1507.30
272.38	1556.46
272.59	1517.54
272.81	1521.64
273.02	1591.27
273.24	1554.41
273.46	1593.32
273.67	1523.69
273.89	1564.65
274.10	1527.78
274.32	1560.55
274.54	1564.65
274.75	1609.70
274.97	1501.16
275.18	1677.29
275.40	1529.83
275.61	1646.57
275.83	1523.69
276.05	1429.48
276.26	1558.50
276.48	1507.30
276.69	1509.35
276.91	1474.54
277.12	1607.66
277.34	1626.09
277.55	1578.98
277.77	1462.25
277.99	1591.27
278.20	1552.36
278.42	1533.93
278.63	1505.26
278.85	1503.21
279.06	1570.79
279.28	1550.31
279.49	1527.78
279.71	1597.42
279.93	1601.51
280.14	1492.97
280.36	1433.58
280.57	1552.36
280.79	1591.27
281.00	1515.50
281.22	1511.40
281.43	1636.33
281.65	1429.48
281.86	1515.50
282.08	1517.54
282.29	1525.74
282.51	1413.10
282.73	1452.01
282.94	1515.50
283.16	1607.66
283.37	1617.90
283.59	1527.78
283.80	1548.26
284.02	1556.46
284.23	1478.63
284.45	1542.12
284.66	1492.97
284.88	1456.11
285.09	1538.02
285.31	1538.02
285.52	1617.90
285.74	1437.67
285.95	1513.45
286.17	1667.05
286.38	1544.17
286.60	1517.54
286.81	1560.55
287.03	1558.50
287.24	1552.36
287.46	1552.36
287.67	1589.22
287.89	1613.80
288.10	1490.92
288.32	1478.63
288.53	1554.41
288.75	1615.85
288.96	1595.37
289.18	1505.26
289.39	1447.91
289.61	1607.66
289.82	1650.66
290.04	1656.81
290.25	1495.02
290.47	1589.22
290.68	1624.04
290.90	1607.66
291.11	1474.54
291.33	1478.63
291.54	1472.49
291.76	1517.54
291.97	1611.75
292.18	1566.70
292.40	1497.07
292.61	1484.78
292.83	1689.57
293.04	1546.22
293.26	1609.70
293.47	1529.83
293.69	1490.92
293.90	1472.49
294.12	1593.32
294.33	1540.07
294.55	1468.39
294.76	1595.37
294.97	1630.18
295.19	1697.77
295.40	1531.88
295.62	1603.56
295.83	1591.27
296.05	1474.54
296.26	1576.94
296.48	1570.79
296.69	1540.07
296.90	1529.83
297.12	1503.21
297.33	1626.09
297.55	1591.27
297.76	1497.07
297.98	1597.42
298.19	1542.12
298.41	1550.31
298.62	1533.93
298.83	1601.51
299.05	1597.42
299.26	1472.49
299.48	1546.22
299.69	1523.69
299.90	1458.15
300.12	1472.49
300.33	1509.35
300.55	1546.22
300.76	1509.35
300.98	1443.82
301.19	1546.22
301.40	1591.27
301.62	1550.31
301.83	1570.79
302.05	1529.83
302.26	1480.68
302.47	1513.45
302.69	1402.86
302.90	1517.54
303.12	1484.78
303.33	1519.59
303.54	1581.03
303.76	1566.70
303.97	1523.69
304.19	1599.46
304.40	1484.78
304.61	1517.54
304.83	1570.79
305.04	1550.31
305.26	1574.89
305.47	1583.08
305.68	1533.93
305.90	1480.68
306.11	1538.02
306.33	1542.12
306.54	1515.50
306.75	1544.17
306.97	1486.83
307.18	1501.16
307.39	1503.21
307.61	1558.50
307.82	1523.69
308.04	1550.31
308.25	1468.39
308.46	1533.93
308.68	1507.30
308.89	1544.17
309.10	1554.41
309.32	1574.89
309.53	1497.07
309.74	1554.41
309.96	1521.64
310.17	1626.09
310.39	1505.26
310.60	1505.26
310.81	1562.60
311.03	1525.74
311.24	1685.48
311.45	1470.44
311.67	1677.29
311.88	1550.31
312.09	1492.97
312.31	1540.07
312.52	1523.69
312.73	1523.69
312.95	1439.72
313.16	1488.87
313.37	1503.21
313.59	1583.08
313.80	1689.57
314.01	1617.90
314.23	1535.98
314.44	1488.87
314.65	1476.59
314.87	1492.97
315.08	1519.59
315.29	1523.69
315.51	1497.07
315.72	1492.97
315.93	1597.42
316.15	1572.84
316.36	1560.55
316.57	1525.74
316.79	1505.26
317.00	1605.61
317.21	1499.11
317.43	1558.50
317.64	1550.31
317.85	1515.50
318.07	1486.83
318.28	1607.66
318.49	1703.91
318.70	1798.12
318.92	1703.91
319.13	1695.72
319.34	1734.63
319.56	1705.96
319.77	1722.34
319.98	1552.36
320.20	1638.38
320.41	1552.36
320.62	1570.79
320.83	1519.59
321.05	1665.00
321.26	1626.09
321.47	1480.68
321.69	1566.70
321.90	1476.59
322.11	1492.97
322.32	1533.93
322.54	1583.08
322.75	1521.64
322.96	1615.85
323.18	1476.59
323.39	1525.74
323.60	1515.50
323.81	1581.03
324.03	1509.35
324.24	1638.38
324.45	1552.36
324.66	1482.73
324.88	1538.02
325.09	1611.75
325.30	1505.26
325.52	1513.45
325.73	1517.54
325.94	1523.69
326.15	1499.11
326.37	1486.83
326.58	1535.98
326.79	1591.27
327.00	1456.11
327.22	1538.02
327.43	1531.88
327.64	1521.64
327.85	1558.50
328.07	1562.60
328.28	1621.99
328.49	1478.63
328.70	1581.03
328.92	1550.31
329.13	1505.26
329.34	1509.35
329.55	1628.14
329.76	1558.50
329.98	1531.88
330.19	1583.08
330.40	1554.41
330.61	1513.45
330.83	1574.89
331.04	1466.35
331.25	1503.21
331.46	1529.83
331.68	1509.35
331.89	1591.27
332.10	1548.26
332.31	1490.92
332.52	1466.35
332.74	1595.37
332.95	1392.62
333.16	1521.64
333.37	1525.74
333.58	1501.16
333.80	1581.03
334.01	1458.15
334.22	1497.07
334.43	1505.26
334.64	1548.26
334.86	1470.44
335.07	1413.10
335.28	1591.27
335.49	1421.29
335.70	1656.81
335.92	1607.66
336.13	1548.26
336.34	1578.98
336.55	1535.98
336.76	1452.01
336.98	1503.21
337.19	1517.54
337.40	1595.37
337.61	1632.23
337.82	1511.40
338.04	1595.37
338.25	1445.87
338.46	1570.79
338.67	1495.02
338.88	1546.22
339.09	1531.88
339.31	1478.63
339.52	1458.15
339.73	1462.25
339.94	1572.84
340.15	1542.12
340.36	1509.35
340.58	1490.92
340.79	1523.69
341.00	1656.81
341.21	1492.97
341.42	1599.46
341.63	1501.16
341.85	1554.41
342.06	1517.54
342.27	1447.91
342.48	1644.52
342.69	1462.25
342.90	1511.40
343.12	1570.79
343.33	1472.49
343.54	1597.42
343.75	1529.83
343.96	1515.50
344.17	1503.21
344.38	1531.88
344.60	1462.25
344.81	1546.22
345.02	1581.03
345.23	1540.07
345.44	1658.85
345.65	1578.98
345.86	1542.12
346.07	1527.78
346.29	1525.74
346.50	1533.93
346.71	1562.60
346.92	1648.61
347.13	1609.70
347.34	1558.50
347.55	1542.12
347.76	1523.69
347.98	1474.54
348.19	1556.46
348.40	1615.85
348.61	1513.45
348.82	1486.83
349.03	1535.98
349.24	1574.89
349.45	1595.37
349.66	1525.74
349.88	1583.08
350.09	1495.02
350.30	1599.46
350.51	1558.50
350.72	1560.55
350.93	1544.17
351.14	1564.65
351.35	1538.02
351.56	1492.97
351.77	1544.17
351.99	1511.40
352.20	1652.71
352.41	1644.52
352.62	1423.34
352.83	1548.26
353.04	1505.26
353.25	1480.68
353.46	1564.65
353.67	1556.46
353.88	1492.97
354.09	1572.84
354.30	1497.07
354.52	1515.50
354.73	1560.55
354.94	1529.83
355.15	1568.74
355.36	1589.22
355.57	1519.59
355.78	1638.38
355.99	1454.06
356.20	1540.07
356.41	1542.12
356.62	1548.26
356.83	1538.02
357.04	1634.28
357.25	1468.39
357.46	1464.30
357.68	1437.67
357.89	1511.40
358.10	1507.30
358.31	1482.73
358.52	1509.35
358.73	1488.87
358.94	1499.11
359.15	1566.70
359.36	1611.75
359.57	1513.45
359.78	1593.32
359.99	1576.94
360.20	1464.30
360.41	1484.78
360.62	1560.55
360.83	1515.50
361.04	1527.78
361.25	1593.32
361.46	1603.56
361.67	1564.65
361.88	1546.22
362.09	1558.50
362.30	1529.83
362.51	1447.91
362.72	1599.46
362.93	1576.94
363.14	1552.36
363.35	1527.78
363.56	1517.54
363.78	1544.17
363.99	1546.22
364.20	1550.31
364.41	1509.35
364.62	1607.66
364.83	1560.55
365.04	1591.27
365.25	1587.18
365.46	1619.94
365.67	1488.87
365.88	1515.50
366.09	1562.60
366.30	1527.78
366.51	1564.65
366.72	1517.54
366.93	1478.63
367.14	1501.16
367.35	1615.85
367.56	1589.22
367.77	1593.32
367.98	1574.89
368.18	1550.31
368.39	1548.26
368.60	1427.43
368.81	1544.17
369.02	1560.55
369.23	1638.38
369.44	1472.49
369.65	1505.26
369.86	1515.50
370.07	1566.70
370.28	1550.31
370.49	1597.42
370.70	1503.21
370.91	1525.74
371.12	1423.34
371.33	1589.22
371.54	1529.83
371.75	1621.99
371.96	1433.58
372.17	1560.55
372.38	1605.61
372.59	1542.12
372.80	1535.98
373.01	1548.26
373.22	1503.21
373.43	1488.87
373.64	1495.02
373.85	1624.04
374.06	1671.14
374.26	1615.85
374.47	1495.02
374.68	1552.36
374.89	1468.39
375.10	1542.12
375.31	1560.55
375.52	1533.93
375.73	1550.31
375.94	1486.83
376.15	1578.98
376.36	1568.74
376.57	1492.97
376.78	1515.50
376.99	1568.74
377.20	1587.18
377.40	1470.44
377.61	1589.22
377.82	1503.21
378.03	1572.84
378.24	1587.18
378.45	1499.11
378.66	1529.83
378.87	1441.77
379.08	1462.25
379.29	1544.17
379.50	1558.50
379.71	1595.37
379.91	1519.59
380.12	1476.59
380.33	1554.41
380.54	1538.02
380.75	1552.36
380.96	1490.92
381.17	1624.04
381.38	1574.89
381.59	1525.74
381.80	1552.36
382.00	1730.53
382.21	1599.46
382.42	1644.52
382.63	1689.57
382.84	1548.26
383.05	1697.77
383.26	1648.61
383.47	1501.16
383.68	1583.08
383.88	1599.46
384.09	1578.98
384.30	1636.33
384.51	1605.61
384.72	1523.69
384.93	1497.07
385.14	1566.70
385.35	1576.94
385.55	1464.30
385.76	1593.32
385.97	1535.98
386.18	1482.73
386.39	1517.54
386.60	1540.07
386.81	1556.46
387.02	1544.17
387.22	1523.69
387.43	1634.28
387.64	1662.95
387.85	1861.60
388.06	3108.82
388.27	7323.54
388.48	10637.15
388.68	12449.60
388.89	13950.76
389.10	12797.76
389.31	10190.69
389.52	8988.53
389.73	7933.83
389.93	7073.68
390.14	6762.39
390.35	6098.85
390.56	5590.95
390.77	4630.46
390.98	3626.95
391.18	2846.68
391.39	2289.63
391.60	1794.02
391.81	1728.49
392.02	1509.35
392.23	1677.29
392.43	1578.98
392.64	1619.94
392.85	1529.83
393.06	1570.79
393.27	1460.20
393.47	1501.16
393.68	1544.17
393.89	1538.02
394.10	1552.36
394.31	1531.88
394.52	1435.63
394.72	1478.63
394.93	1570.79
395.14	1585.13
395.35	1583.08
395.56	1521.64
395.76	1644.52
395.97	1695.72
396.18	1777.64
396.39	1742.82
396.60	1800.16
396.80	1736.68
397.01	1675.24
397.22	1765.35
397.43	1656.81
397.64	1597.42
397.84	1624.04
398.05	1673.19
398.26	1587.18
398.47	1640.42
398.67	1550.31
398.88	1570.79
399.09	1628.14
399.30	1558.50
399.51	1611.75
399.71	1499.11
399.92	1576.94
400.13	1513.45
400.34	1552.36
400.54	1642.47
400.75	1751.01
400.96	1568.74
401.17	1595.37
401.37	1574.89
401.58	1628.14
401.79	1552.36
402.00	1753.06
402.21	1968.10
402.41	1953.76
402.62	1980.39
402.83	2035.68
403.04	1859.56
403.24	1826.79
403.45	1718.25
403.66	1714.15
403.87	1695.72
404.07	1796.07
404.28	1812.45
404.49	1718.25
404.70	1605.61
404.90	1538.02
405.11	1689.57
405.32	1525.74
405.52	1607.66
405.73	1562.60
405.94	1472.49
406.15	1486.83
406.35	1550.31
406.56	1556.46
406.77	1525.74
406.98	1513.45
407.18	1503.21
407.39	1576.94
407.60	1546.22
407.80	1550.31
408.01	1515.50
408.22	1619.94
408.43	1511.40
408.63	1587.18
408.84	1562.60
409.05	1527.78
409.25	1529.83
409.46	1505.26
409.67	1529.83
409.88	1523.69
410.08	1607.66
410.29	1556.46
410.50	1574.89
410.70	1521.64
410.91	1527.78
411.12	1548.26
411.32	1570.79
411.53	1597.42
411.74	1712.10
411.95	1746.92
412.15	1527.78
412.36	1630.18
412.57	1632.23
412.77	1708.01
412.98	1587.18
413.19	1595.37
413.39	1560.55
413.60	1531.88
413.81	1634.28
414.01	1488.87
414.22	1587.18
414.43	1640.42
414.63	1548.26
414.84	1576.94
415.05	1583.08
415.25	1470.44
415.46	1621.99
415.67	1415.15
415.87	1570.79
416.08	1540.07
416.29	1540.07
416.49	1568.74
416.70	1492.97
416.91	1578.98
417.11	1585.13
417.32	1525.74
417.53	1589.22
417.73	1552.36
417.94	1517.54
418.15	1484.78
418.35	1595.37
418.56	1499.11
418.77	1636.33
418.97	1558.50
419.18	1560.55
419.38	1441.77
419.59	1607.66
419.80	1667.05
420.00	1474.54
420.21	1574.89
420.42	1591.27
420.62	1566.70
420.83	1492.97
421.04	1525.74
421.24	1554.41
421.45	1570.79
421.65	1517.54
421.86	1560.55
422.07	1615.85
422.27	1538.02
422.48	1581.03
422.69	1589.22
422.89	1507.30
423.10	1517.54
423.30	1531.88
423.51	1607.66
423.72	1492.97
423.92	1607.66
424.13	1482.73
424.33	1640.42
424.54	1554.41
424.75	1581.03
424.95	1591.27
425.16	1540.07
425.36	1601.51
425.57	1554.41
425.78	1607.66
425.98	1558.50
426.19	1544.17
426.39	1538.02
426.60	1538.02
426.81	1572.84
427.01	1548.26
427.22	1445.87
427.42	1443.82
427.63	1527.78
427.83	1595.37
428.04	1630.18
428.25	1560.55
428.45	1531.88
428.66	1578.98
428.86	1562.60
429.07	1519.59
429.28	1560.55
429.48	1550.31
429.69	1454.06
429.89	1617.90
430.10	1460.20
430.30	1576.94
430.51	1585.13
430.71	1529.83
430.92	1533.93
431.13	1570.79
431.33	1572.84
431.54	1515.50
431.74	1646.57
431.95	1593.32
432.15	1492.97
432.36	1578.98
432.56	1535.98
432.77	1634.28
432.98	1624.04
433.18	1538.02
433.39	1511.40
433.59	1523.69
433.80	1640.42
434.00	1599.46
434.21	1523.69
434.41	1458.15
434.62	1626.09
434.82	1540.07
435.03	1447.91
435.23	1511.40
435.44	1429.48
435.64	1495.02
435.85	1585.13
436.06	1525.74
436.26	1531.88
436.47	1456.11
436.67	1497.07
436.88	1550.31
437.08	1562.60
437.29	1605.61
437.49	1550.31
437.70	1581.03
437.90	1589.22
438.11	1689.57
438.31	1619.94
438.52	1683.43
438.72	1658.85
438.93	1701.86
439.13	1564.65
439.34	1636.33
439.54	1601.51
439.75	1609.70
439.95	1619.94
440.16	1488.87
440.36	1517.54
440.57	1583.08
440.77	1589.22
440.98	1587.18
441.18	1495.02
441.39	1499.11
441.59	1507.30
441.80	1669.09
442.00	1515.50
442.21	1607.66
442.41	1486.83
442.62	1501.16
442.82	1495.02
443.02	1480.68
443.23	1601.51
443.43	1503.21
443.64	1619.94
443.84	1552.36
444.05	1609.70
444.25	1542.12
444.46	1486.83
444.66	1591.27
444.87	1650.66
445.07	1449.96
445.28	1556.46
445.48	1662.95
445.69	1619.94
445.89	1730.53
446.09	1632.23
446.30	2019.30
446.50	3194.83
446.71	4575.16
446.91	5371.82
447.12	5797.80
447.32	5531.56
447.53	4585.40
447.73	4081.60
447.93	3645.38
448.14	3239.89
448.34	3309.52
448.55	2983.89
448.75	2928.60
448.96	2801.62
449.16	2494.43
449.36	2328.54
449.57	2002.91
449.77	1757.16
449.98	1558.50
450.18	1638.38
450.39	1613.80
450.59	1574.89
450.79	1535.98
451.00	1515.50
451.20	1585.13
451.41	1523.69
451.61	1529.83
451.81	1574.89
452.02	1499.11
452.22	1578.98
452.43	1474.54
452.63	1476.59
452.84	1497.07
453.04	1507.30
453.24	1542.12
453.45	1499.11
453.65	1538.02
453.86	1603.56
454.06	1572.84
454.26	1587.18
454.47	1527.78
454.67	1681.38
454.87	1550.31
455.08	1462.25
455.28	1646.57
455.49	1556.46
455.69	1556.46
455.89	1568.74
456.10	1640.42
456.30	1402.86
456.51	1550.31
456.71	1595.37
456.91	1556.46
457.12	1513.45
457.32	1535.98
457.52	1490.92
457.73	1576.94
457.93	1542.12
458.14	1474.54
458.34	1443.82
458.54	1548.26
458.75	1558.50
458.95	1583.08
459.15	1531.88
459.36	1542.12
459.56	1566.70
459.76	1644.52
459.97	1501.16
460.17	1472.49
460.37	1621.99
460.58	1523.69
460.78	1576.94
460.99	1517.54
461.19	1548.26
461.39	1556.46
461.60	1509.35
461.80	1533.93
462.00	1443.82
462.21	1566.70
462.41	1509.35
462.61	1527.78
462.82	1470.44
463.02	1544.17
463.22	1509.35
463.43	1617.90
463.63	1517.54
463.83	1693.67
464.04	1648.61
464.24	1611.75
464.44	1529.83
464.64	1591.27
464.85	1562.60
465.05	1546.22
465.25	1513.45
465.46	1435.63
465.66	1593.32
465.86	1574.89
466.07	1505.26
466.27	1546.22
466.47	1503.21
466.68	1501.16
466.88	1511.40
467.08	1570.79
467.29	1564.65
467.49	1595.37
467.69	1552.36
467.89	1621.99
468.10	1507.30
468.30	1642.47
468.50	1574.89
468.71	1554.41
468.91	1480.68
469.11	1681.38
469.31	1501.16
469.52	1511.40
469.72	1669.09
469.92	1644.52
470.13	1511.40
470.33	1566.70
470.53	1730.53
470.73	2105.31
470.94	2301.92
471.14	2394.08
471.34	2672.60
471.54	2465.75
471.75	2189.28
471.95	2015.20
472.15	1953.76
472.36	1916.90
472.56	1933.28
472.76	1892.32
472.96	1863.65
473.17	1847.27
473.37	1738.73
473.57	1734.63
473.77	1650.66
473.98	1560.55
474.18	1513.45
474.38	1728.49
474.58	1509.35
474.79	1550.31
474.99	1585.13
475.19	1673.19
475.39	1583.08
475.60	1566.70
475.80	1603.56
476.00	1540.07
476.20	1597.42
476.41	1638.38
476.61	1640.42
476.81	1533.93
477.01	1626.09
477.21	1646.57
477.42	1624.04
477.62	1484.78
477.82	1587.18
478.02	1466.35
478.23	1568.74
478.43	1474.54
478.63	1544.17
478.83	1503.21
479.03	1558.50
479.24	1595.37
479.44	1609.70
479.64	1525.74
479.84	1427.43
480.04	1484.78
480.25	1599.46
480.45	1515.50
480.65	1523.69
480.85	1576.94
481.06	1462.25
481.26	1509.35
481.46	1607.66
481.66	1611.75
481.86	1435.63
482.06	1558.50
482.27	1554.41
482.47	1560.55
482.67	1585.13
482.87	1544.17
483.07	1587.18
483.28	1515.50
483.48	1495.02
483.68	1566.70
483.88	1511.40
484.08	1472.49
484.29	1480.68
484.49	1562.60
484.69	1542.12
484.89	1572.84
485.09	1675.24
485.29	1562.60
485.50	1593.32
485.70	1533.93
485.90	1613.80
486.10	1548.26
486.30	1566.70
486.50	1554.41
486.71	1558.50
486.91	1562.60
487.11	1650.66
487.31	1478.63
487.51	1574.89
487.71	1472.49
487.91	1515.50
488.12	1499.11
488.32	1380.33
488.52	1519.59
488.72	1517.54
488.92	1472.49
489.12	1533.93
489.32	1527.78
489.53	1556.46
489.73	1427.43
489.93	1597.42
490.13	1591.27
490.33	1505.26
490.53	1597.42
490.73	1648.61
490.94	1503.21
491.14	1603.56
491.34	1773.54
491.54	2107.36
491.74	2686.94
491.94	3178.45
492.14	3368.91
492.34	3164.11
492.54	2830.29
492.75	2496.47
492.95	2336.73
493.15	2109.41
493.35	2220.00
493.55	2066.40
493.75	2068.45
493.95	2045.92
494.15	1920.99
494.35	1839.08
494.56	1646.57
494.76	1583.08
494.96	1671.14
495.16	1632.23
495.36	1574.89
495.56	1542.12
495.76	1681.38
495.96	1503.21
496.16	1568.74
496.36	1642.47
496.56	1599.46
496.77	1544.17
496.97	1562.60
497.17	1560.55
497.37	1505.26
497.57	1599.46
497.77	1509.35
497.97	1583.08
498.17	1587.18
498.37	1525.74
498.57	1628.14
498.77	1521.64
498.97	1527.78
499.17	1677.29
499.38	1591.27
499.58	1589.22
499.78	1556.46
499.98	1607.66
500.18	1603.56
500.38	1542.12
500.58	1853.41
500.78	2662.36
500.98	5076.91
501.18	6770.58
501.38	8195.97
501.58	8824.70
501.78	7972.74
501.98	6156.19
502.18	5431.21
502.38	4614.07
502.58	4276.16
502.78	3839.94
502.98	3712.97
503.18	3661.77
503.38	3436.49
503.59	3012.56
503.79	2768.85
503.99	2445.27
504.19	2326.49
504.39	2142.18
504.59	2119.65
504.79	2013.15
504.99	1966.05
505.19	1773.54
505.39	1681.38
505.59	1783.78
505.79	1740.77
505.99	1687.53
506.19	1662.95
506.39	1720.29
506.59	1710.05
506.79	1607.66
506.99	1568.74
507.19	1630.18
507.39	1574.89
507.59	1515.50
507.79	1507.30
507.99	1570.79
508.19	1550.31
508.39	1581.03
508.59	1599.46
508.79	1587.18
508.99	1675.24
509.19	1544.17
509.39	1589.22
509.59	1529.83
509.79	1470.44
509.99	1570.79
510.19	1628.14
510.39	1609.70
510.59	1558.50
510.79	1517.54
510.99	1593.32
511.19	1513.45
511.39	1609.70
511.59	1632.23
511.79	1626.09
511.99	1626.09
512.19	1603.56
512.38	1472.49
512.58	1488.87
512.78	1558.50
512.98	1558.50
513.18	1617.90
513.38	1460.20
513.58	1636.33
513.78	1554.41
513.98	1542.12
514.18	1556.46
514.38	1576.94
514.58	1554.41
514.78	1546.22
514.98	1517.54
515.18	1521.64
515.38	1558.50
515.58	1705.96
515.78	1550.31
515.98	1497.07
516.18	1562.60
516.38	1560.55
516.57	1505.26
516.77	1558.50
516.97	1597.42
517.17	1533.93
517.37	1486.83
517.57	1593.32
517.77	1468.39
517.97	1517.54
518.17	1550.31
518.37	1558.50
518.57	1507.30
518.77	1427.43
518.97	1562.60
519.16	1583.08
519.36	1585.13
519.56	1540.07
519.76	1619.94
519.96	1578.98
520.16	1574.89
520.36	1531.88
520.56	1578.98
520.76	1548.26
520.96	1476.59
521.16	1642.47
521.35	1540.07
521.55	1601.51
521.75	1544.17
521.95	1513.45
522.15	1550.31
522.35	1556.46
522.55	1492.97
522.75	1535.98
522.95	1554.41
523.14	1511.40
523.34	1482.73
523.54	1521.64
523.74	1554.41
523.94	1554.41
524.14	1476.59
524.34	1527.78
524.54	1607.66
524.73	1511.40
524.93	1511.40
525.13	1480.68
525.33	1544.17
525.53	1720.29
525.73	1540.07
525.93	1619.94
526.13	1484.78
526.32	1611.75
526.52	1634.28
526.72	1578.98
526.92	1488.87
527.12	1572.84
527.32	1535.98
527.52	1511.40
527.71	1634.28
527.91	1593.32
528.11	1472.49
528.31	1490.92
528.51	1554.41
528.71	1550.31
528.90	1507.30
529.10	1642.47
529.30	1613.80
529.50	1482.73
529.70	1576.94
529.90	1519.59
530.09	1546.22
530.29	1501.16
530.49	1509.35
530.69	1576.94
530.89	1525.74
531.09	1632.23
531.28	1490.92
531.48	1583.08
531.68	1607.66
531.88	1599.46
532.08	1589.22
532.28	1523.69
532.47	1538.02
532.67	1654.76
532.87	1597.42
533.07	1544.17
533.27	1564.65
533.46	1566.70
533.66	1650.66
533.86	1544.17
534.06	1519.59
534.26	1544.17
534.45	1550.31
534.65	1581.03
534.85	1615.85
535.05	1552.36
535.25	1665.00
535.44	1574.89
535.64	1646.57
535.84	1576.94
536.04	1523.69
536.24	1480.68
536.43	1630.18
536.63	1576.94
536.83	1527.78
537.03	1517.54
537.22	1501.16
537.42	1423.34
537.62	1542.12
537.82	1513.45
538.02	1611.75
538.21	1652.71
538.41	1683.43
538.61	1499.11
538.81	1511.40
539.00	1638.38
539.20	1415.15
539.40	1562.60
539.60	1552.36
539.79	1593.32
539.99	1482.73
540.19	1462.25
540.39	1511.40
540.58	1503.21
540.78	1540.07
540.98	1564.65
541.18	1587.18
541.37	1585.13
541.57	1550.31
541.77	1630.18
541.97	1544.17
542.16	1517.54
542.36	1515.50
542.56	1601.51
542.76	1603.56
542.95	1566.70
543.15	1535.98
543.35	1523.69
543.54	1509.35
543.74	1531.88
543.94	1589.22
544.14	1525.74
544.33	1570.79
544.53	1490.92
544.73	1531.88
544.93	1447.91
545.12	1513.45
545.32	1511.40
545.52	1566.70
545.71	1454.06
545.91	1570.79
546.11	1562.60
546.30	1570.79
546.50	1587.18
546.70	1558.50
546.90	1632.23
547.09	1449.96
547.29	1566.70
547.49	1662.95
547.68	1523.69
547.88	1492.97
548.08	1597.42
548.27	1912.80
548.47	1538.02
548.67	1484.78
548.87	1552.36
549.06	1484.78
549.26	1540.07
549.46	1525.74
549.65	1574.89
549.85	1587.18
550.05	1550.31
550.24	1499.11
550.44	1509.35
550.64	1609.70
550.83	1535.98
551.03	1689.57
551.23	1583.08
551.42	1548.26
551.62	1535.98
551.82	1560.55
552.01	1509.35
552.21	1658.85
552.41	1505.26
552.60	1621.99
552.80	1560.55
553.00	1478.63
553.19	1568.74
553.39	1591.27
553.59	1488.87
553.78	1601.51
553.98	1550.31
554.17	1529.83
554.37	1527.78
554.57	1574.89
554.76	1554.41
554.96	1497.07
555.16	1609.70
555.35	1529.83
555.55	1497.07
555.75	1517.54
555.94	1589.22
556.14	1452.01
556.33	1609.70
556.53	1572.84
556.73	1501.16
556.92	1644.52
557.12	1683.43
557.32	1605.61
557.51	1550.31
557.71	1566.70
557.90	1648.61
558.10	1632.23
558.30	1544.17
558.49	1554.41
558.69	1574.89
558.88	1540.07
559.08	1552.36
559.28	1501.16
559.47	1529.83
559.67	1525.74
559.86	1634.28
560.06	1538.02
560.26	1615.85
560.45	1548.26
560.65	1597.42
560.84	1570.79
561.04	1507.30
561.24	1550.31
561.43	1476.59
561.63	1589.22
561.82	1574.89
562.02	1550.31
562.22	1472.49
562.41	1423.34
562.61	1535.98
562.80	1517.54
563.00	1695.72
563.19	1490.92
563.39	1642.47
563.59	1490.92
563.78	1503.21
563.98	1409.00
564.17	1515.50
564.37	1359.85
564.56	1609.70
564.76	1490.92
564.96	1609.70
565.15	1486.83
565.35	1568.74
565.54	1468.39
565.74	1540.07
565.93	1495.02
566.13	1538.02
566.32	1562.60
566.52	1585.13
566.71	1531.88
566.91	1570.79
567.11	1535.98
567.30	1599.46
567.50	1607.66
567.69	1628.14
567.89	1538.02
568.08	1452.01
568.28	1564.65
568.47	1564.65
568.67	1603.56
568.86	1509.35
569.06	1552.36
569.25	1507.30
569.45	1533.93
569.64	1497.07
569.84	1527.78
570.04	1640.42
570.23	1505.26
570.43	1566.70
570.62	1632.23
570.82	1570.79
571.01	1470.44
571.21	1548.26
571.40	1513.45
571.60	1589.22
571.79	1587.18
571.99	1550.31
572.18	1513.45
572.38	1605.61
572.57	1492.97
572.77	1650.66
572.96	1634.28
573.16	1538.02
573.35	1521.64
573.55	1636.33
573.74	1576.94
573.94	1554.41
574.13	1562.60
574.33	1572.84
574.52	1589.22
574.71	1662.95
574.91	1589.22
575.10	1544.17
575.30	1525.74
575.49	1495.02
575.69	1507.30
575.88	1572.84
576.08	1611.75
576.27	1611.75
576.47	1601.51
576.66	1609.70
576.86	1632.23
577.05	1548.26
577.25	1556.46
577.44	1654.76
577.64	1486.83
577.83	1581.03
578.02	1566.70
578.22	1685.48
578.41	1660.90
578.61	1538.02
578.80	1527.78
579.00	1556.46
579.19	1505.26
579.39	1550.31
579.58	1677.29
579.77	1550.31
579.97	1568.74
580.16	1628.14
580.36	1611.75
580.55	1714.15
580.75	1628.14
580.94	1509.35
581.13	1669.09
581.33	1597.42
581.52	1595.37
581.72	1650.66
581.91	1716.20
582.11	1626.09
582.30	1712.10
582.49	1609.70
582.69	1648.61
582.88	1638.38
583.08	1513.45
583.27	1695.72
583.47	1607.66
583.66	1642.47
583.85	1591.27
584.05	1574.89
584.24	1609.70
584.44	1640.42
584.63	1650.66
584.82	1675.24
585.02	1726.44
585.21	1607.66
585.41	1783.78
585.60	1697.77
585.79	1869.80
585.99	1806.31
586.18	1783.78
586.37	2050.02
586.57	3182.54
586.76	9641.84
586.96	27741.78
587.15	43828.58
587.34	54795.45
587.54	61744.21
587.73	60253.29
587.93	44019.04
588.12	32372.24
588.31	26183.28
588.51	22320.81
588.70	20178.64
588.89	18294.50
589.09	17075.96
589.28	15191.83
589.47	13393.72
589.67	11145.05
589.86	8898.42
590.06	6829.98
590.25	5121.97
590.44	3745.73
590.64	2940.88
590.83	2361.31
591.02	2017.25
591.22	1918.95
591.41	1773.54
591.60	1697.77
591.80	1765.35
591.99	1611.75
592.18	1613.80
592.38	1642.47
592.57	1599.46
592.76	1628.14
592.96	1542.12
593.15	1587.18
593.34	1624.04
593.54	1583.08
593.73	1654.76
593.92	1562.60
594.12	1691.62
594.31	1540.07
594.50	1685.48
594.70	1650.66
594.89	1712.10
595.08	1505.26
595.28	1646.57
595.47	1773.54
595.66	1609.70
595.86	1492.97
596.05	1591.27
596.24	1507.30
596.43	1652.71
596.63	1646.57
596.82	1568.74
597.01	1652.71
597.21	1648.61
597.40	1630.18
597.59	1646.57
597.79	1574.89
597.98	1619.94
598.17	1583.08
598.36	1585.13
598.56	1599.46
598.75	1507.30
598.94	1515.50
599.14	1603.56
599.33	1501.16
599.52	1562.60
599.71	1554.41
599.91	1583.08
600.10	1560.55
600.29	1540.07
600.48	1613.80
600.68	1583.08
600.87	1523.69
601.06	1574.89
601.26	1540.07
601.45	1587.18
601.64	1497.07
601.83	1628.14
602.03	1544.17
602.22	1501.16
602.41	1617.90
602.60	1665.00
602.80	1574.89
602.99	1646.57
603.18	1554.41
603.37	1644.52
603.57	1626.09
603.76	1574.89
603.95	1597.42
604.14	1492.97
604.34	1527.78
604.53	1568.74
604.72	1529.83
604.91	1609.70
605.10	1511.40
605.30	1566.70
605.49	1658.85
605.68	1560.55
605.87	1605.61
606.07	1556.46
606.26	1515.50
606.45	1570.79
606.64	1427.43
606.84	1558.50
607.03	1538.02
607.22	1626.09
607.41	1554.41
607.60	1497.07
607.80	1605.61
607.99	1456.11
608.18	1599.46
608.37	1583.08
608.56	1513.45
608.76	1587.18
608.95	1701.86
609.14	1556.46
609.33	1617.90
609.52	1656.81
609.72	1597.42
609.91	1607.66
610.10	1574.89
610.29	1597.42
610.48	1621.99
610.68	1658.85
610.87	1527.78
611.06	1546.22
611.25	1603.56
611.44	1583.08
611.63	1568.74
611.83	1607.66
612.02	1513.45
612.21	1593.32
612.40	1445.87
612.59	1564.65
612.79	1519.59
612.98	1544.17
613.17	1601.51
613.36	1570.79
613.55	1613.80
613.74	1630.18
613.93	1705.96
614.13	1742.82
614.32	1759.21
614.51	1742.82
614.70	1665.00
614.89	1677.29
615.08	1638.38
615.28	1894.37
615.47	1572.84
615.66	1644.52
615.85	1601.51
616.04	1712.10
616.23	1662.95
616.42	1652.71
616.62	1685.48
616.81	1589.22
617.00	1591.27
617.19	1566.70
617.38	1550.31
617.57	1521.64
617.76	1570.79
617.95	1568.74
618.15	1568.74
618.34	1681.38
618.53	1466.35
618.72	1595.37
618.91	1560.55
619.10	1636.33
619.29	1636.33
619.48	1558.50
619.68	1523.69
619.87	1527.78
620.06	1384.43
620.25	1572.84
620.44	1564.65
620.63	1523.69
620.82	1570.79
621.01	1556.46
621.20	1538.02
621.39	1572.84
621.59	1587.18
621.78	1574.89
621.97	1546.22
622.16	1560.55
622.35	1562.60
622.54	1621.99
622.73	1607.66
622.92	1468.39
623.11	1558.50
623.30	1533.93
623.49	1486.83
623.68	1511.40
623.88	1560.55
624.07	1447.91
624.26	1480.68
624.45	1544.17
624.64	1564.65
624.83	1609.70
625.02	1542.12
625.21	1546.22
625.40	1535.98
625.59	1632.23
625.78	1478.63
625.97	1607.66
626.16	1617.90
626.35	1644.52
626.54	1572.84
626.74	1667.05
626.93	1583.08
627.12	1671.14
627.31	1646.57
627.50	1578.98
627.69	1714.15
627.88	1566.70
628.07	1540.07
628.26	1552.36
628.45	1505.26
628.64	1542.12
628.83	1574.89
629.02	1501.16
629.21	1552.36
629.40	1552.36
629.59	1562.60
629.78	1523.69
629.97	1554.41
630.16	1529.83
630.35	1495.02
630.54	1531.88
630.73	1507.30
630.92	1585.13
631.11	1505.26
631.30	1576.94
631.49	1560.55
631.68	1621.99
631.87	1589.22
632.06	1521.64
632.25	1679.33
632.44	1449.96
632.63	1607.66
632.82	1595.37
633.01	1509.35
633.20	1630.18
633.39	1638.38
633.58	1540.07
633.77	1683.43
633.96	1689.57
634.15	1562.60
634.34	1644.52
634.53	1644.52
634.72	1527.78
634.91	1540.07
635.10	1564.65
635.29	1560.55
635.48	1603.56
635.67	1478.63
635.86	1439.72
636.05	1576.94
636.24	1617.90
636.43	1583.08
636.62	1558.50
636.81	1417.19
637.00	1611.75
637.19	1570.79
637.38	1458.15
637.57	1548.26
637.76	1595.37
637.95	1640.42
638.14	1660.90
638.33	1658.85
638.52	1695.72
638.71	1554.41
638.89	1603.56
639.08	1574.89
639.27	1640.42
639.46	1609.70
639.65	1918.95
639.84	2078.69
640.03	2191.33
640.22	2154.46
640.41	2277.34
640.60	1914.85
640.79	1806.31
640.98	1861.60
641.17	1818.60
641.36	1769.44
641.55	1800.16
641.74	1626.09
641.92	1660.90
642.11	1546.22
642.30	1558.50
642.49	1574.89
642.68	1615.85
642.87	1544.17
643.06	1515.50
643.25	1533.93
643.44	1607.66
643.63	1615.85
643.82	1595.37
644.00	1540.07
644.19	1484.78
644.38	1488.87
644.57	1583.08
644.76	1597.42
644.95	1564.65
645.14	1581.03
645.33	1468.39
645.52	1527.78
645.71	1462.25
645.89	1523.69
646.08	1492.97
646.27	1533.93
646.46	1572.84
646.65	1581.03
646.84	1488.87
647.03	1488.87
647.22	1601.51
647.40	1544.17
647.59	1615.85
647.78	1466.35
647.97	1517.54
648.16	1458.15
648.35	1636.33
648.54	1607.66
648.73	1474.54
648.91	1617.90
649.10	1488.87
649.29	1574.89
649.48	1546.22
649.67	1492.97
649.86	1578.98
650.05	1560.55
650.23	1671.14
650.42	1634.28
650.61	1773.54
650.80	1718.25
650.99	1767.40
651.18	1624.04
651.36	1679.33
651.55	1611.75
651.74	1673.19
651.93	1609.70
652.12	1548.26
652.31	1656.81
652.49	1550.31
652.68	1511.40
652.87	1660.90
653.06	1583.08
653.25	1669.09
653.44	1587.18
653.62	1677.29
653.81	1560.55
654.00	1607.66
654.19	1583.08
654.38	1624.04
654.56	1562.60
654.75	1581.03
654.94	1593.32
655.13	1617.90
655.32	1497.07
655.51	1564.65
655.69	1527.78
655.88	1540.07
656.07	1566.70
656.26	1538.02
656.45	1460.20
656.63	1554.41
656.82	1568.74
657.01	1544.17
657.20	1585.13
657.38	1710.05
657.57	1562.60
657.76	1460.20
657.95	1546.22
658.14	1458.15
658.32	1554.41
658.51	1521.64
658.70	1523.69
658.89	1568.74
659.08	1499.11
659.26	1624.04
659.45	1509.35
659.64	1607.66
659.83	1538.02
660.01	1710.05
660.20	1589.22
660.39	1673.19
660.58	1458.15
660.76	1615.85
660.95	1454.06
661.14	1587.18
661.33	1492.97
661.51	1550.31
661.70	1452.01
661.89	1503.21
662.08	1617.90
662.26	1503.21
662.45	1462.25
662.64	1634.28
662.83	1628.14
663.01	1474.54
663.20	1564.65
663.39	1646.57
663.58	1466.35
663.76	1560.55
663.95	1636.33
664.14	1503.21
664.32	1472.49
664.51	1495.02
664.70	1507.30
664.89	1449.96
665.07	1437.67
665.26	1640.42
665.45	1435.63
665.64	1585.13
665.82	1576.94
666.01	1626.09
666.20	1570.79
666.38	1648.61
666.57	1617.90
666.76	1818.60
666.95	2963.41
667.13	7643.02
667.32	15699.73
667.51	20264.65
667.69	23400.09
667.88	25372.28
668.07	22116.01
668.25	15656.72
668.44	12543.81
668.63	10071.91
668.81	8558.46
669.00	7817.10
669.19	7182.23
669.38	6379.42
669.56	5703.59
669.75	4935.60
669.94	4108.23
670.12	3340.24
670.31	2803.67
670.50	2439.13
670.68	2170.85
670.87	1843.17
671.06	1732.58
671.24	1701.86
671.43	1738.73
671.62	1697.77
671.80	1591.27
671.99	1650.66
672.18	1634.28
672.36	1646.57
672.55	1636.33
672.74	1581.03
672.92	1540.07
673.11	1609.70
673.29	1495.02
673.48	1544.17
673.67	1531.88
673.85	1611.75
674.04	1535.98
674.23	1626.09
674.41	1568.74
674.60	1503.21
674.79	1449.96
674.97	1478.63
675.16	1626.09
675.34	1507.30
675.53	1552.36
675.72	1566.70
675.90	1626.09
676.09	1488.87
676.28	1509.35
676.46	1447.91
676.65	1488.87
676.83	1531.88
677.02	1503.21
677.21	1574.89
677.39	1535.98
677.58	1452.01
677.77	1570.79
677.95	1523.69
678.14	1578.98
678.32	1511.40
678.51	1476.59
678.70	1587.18
678.88	1464.30
679.07	1503.21
679.25	1523.69
679.44	1591.27
679.63	1495.02
679.81	1533.93
680.00	1538.02
680.18	1558.50
680.37	1644.52
680.55	1531.88
680.74	1527.78
680.93	1578.98
681.11	1560.55
681.30	1589.22
681.48	1550.31
681.67	1525.74
681.85	1603.56
682.04	1511.40
682.23	1591.27
682.41	1597.42
682.60	1533.93
682.78	1486.83
682.97	1505.26
683.15	1470.44
683.34	1609.70
683.53	1615.85
683.71	1429.48
683.90	1568.74
684.08	1621.99
684.27	1519.59
684.45	1535.98
684.64	1615.85
684.82	1435.63
685.01	1583.08
685.19	1558.50
685.38	1640.42
685.57	1558.50
685.75	1529.83
685.94	1529.83
686.12	1509.35
686.31	1507.30
686.49	1605.61
686.68	1554.41
686.86	1576.94
687.05	1507.30
687.23	1613.80
687.42	1562.60
687.60	1437.67
687.79	1519.59
687.97	1560.55
688.16	1570.79
688.34	1615.85
688.53	1452.01
688.71	1570.79
688.90	1546.22
689.08	1492.97
689.27	1421.29
689.45	1484.78
689.64	1542.12
689.82	1554.41
690.01	1585.13
690.19	1630.18
690.38	1525.74
690.56	1517.54
690.75	1548.26
690.93	1447.91
691.12	1513.45
691.30	1570.79
691.49	1517.54
691.67	1476.59
691.86	1642.47
692.04	1544.17
692.23	1531.88
692.41	1523.69
692.60	1724.39
692.78	1597.42
692.97	1611.75
693.15	1619.94
693.34	1675.24
693.52	1613.80
693.71	1607.66
693.89	1497.07
694.08	1435.63
694.26	1540.07
694.44	1605.61
694.63	1560.55
694.81	1538.02
695.00	1531.88
695.18	1583.08
695.37	1599.46
695.55	1617.90
695.74	1497.07
695.92	1593.32
696.10	1624.04
696.29	1439.72
696.47	1517.54
696.66	1501.16
696.84	1531.88
697.03	1531.88
697.21	1595.37
697.40	1990.63
697.58	1634.28
697.76	1505.26
697.95	1566.70
698.13	1519.59
698.32	1517.54
698.50	1572.84
698.68	1570.79
698.87	1552.36
699.05	1587.18
699.24	1552.36
699.42	1482.73
699.61	1560.55
699.79	1550.31
699.97	1609.70
700.16	1503.21
700.34	1515.50
700.53	1482.73
700.71	1589.22
700.89	1591.27
701.08	1472.49
701.26	1544.17
701.45	1914.85
701.63	1576.94
701.81	1476.59
702.00	1511.40
702.18	1515.50
702.37	1507.30
702.55	1683.43
702.73	1705.96
702.92	1681.38
703.10	1814.50
703.28	1837.03
703.47	1724.39
703.65	1779.68
703.84	1720.29
704.02	1658.85
704.20	1708.01
704.39	1634.28
704.57	1638.38
704.75	1734.63
704.94	1656.81
705.12	1665.00
705.30	1687.53
705.49	1861.60
705.67	2844.63
705.86	7401.36
706.04	14712.61
706.22	18769.63
706.41	21767.86
706.59	22935.20
706.77	20864.71
706.96	14778.14
707.14	11880.27
707.32	9856.87
707.51	8652.67
707.69	7600.01
707.87	6860.70
708.06	5699.50
708.24	4730.81
708.42	3667.91
708.61	2975.70
708.79	2260.96
708.97	1927.14
709.16	1888.23
709.34	1767.40
709.52	1583.08
709.71	1638.38
709.89	1617.90
710.07	1558.50
710.26	1538.02
710.44	1560.55
710.62	1513.45
710.80	1591.27
710.99	1642.47
711.17	1648.61
711.35	1521.64
711.54	1544.17
711.72	1621.99
711.90	1521.64
712.09	1578.98
712.27	1478.63
712.45	1505.26
712.63	1533.93
712.82	1550.31
713.00	1560.55
713.18	1576.94
713.37	1593.32
713.55	1599.46
713.73	1585.13
713.91	1529.83
714.10	1492.97
714.28	1574.89
714.46	1503.21
714.65	1531.88
714.83	1646.57
715.01	1591.27
715.19	1624.04
715.38	1447.91
715.56	1593.32
715.74	1531.88
715.92	1566.70
716.11	1544.17
716.29	1517.54
716.47	1585.13
716.65	1511.40
716.84	1505.26
717.02	1570.79
717.20	1495.02
717.38	1540.07
717.57	1566.70
717.75	1591.27
717.93	1515.50
718.11	1544.17
718.30	1431.53
718.48	1552.36
718.66	1601.51
718.84	1656.81
719.03	1595.37
719.21	1558.50
719.39	1691.62
719.57	1595.37
719.75	1566.70
719.94	1529.83
720.12	1527.78
720.30	1583.08
720.48	1560.55
720.67	1488.87
720.85	1507.30
721.03	1519.59
721.21	1552.36
721.39	1630.18
721.58	1574.89
721.76	1585.13
721.94	1578.98
722.12	1570.79
722.30	1548.26
722.49	1509.35
722.67	1509.35
722.85	1558.50
723.03	1476.59
723.21	1607.66
723.40	1560.55
723.58	1578.98
723.76	1548.26
723.94	1601.51
724.12	1656.81
724.30	1650.66
724.49	1644.52
724.67	1603.56
724.85	1722.34
725.03	1509.35
725.21	1654.76
725.40	1632.23
725.58	1552.36
725.76	1576.94
725.94	1587.18
726.12	1486.83
726.30	1546.22
726.49	1452.01
726.67	1550.31
726.85	1556.46
727.03	1597.42
727.21	1699.81
727.39	2088.93
727.57	3227.60
727.76	4409.28
727.94	4712.38
728.12	5203.89
728.30	5003.19
728.48	4462.52
728.66	3524.55
728.84	3196.88
729.03	2766.81
729.21	2654.17
729.39	2306.01
729.57	2011.11
729.75	1875.94
729.93	1920.99
730.11	1636.33
730.30	1615.85
730.48	1576.94
730.66	1615.85
730.84	1603.56
731.02	1550.31
731.20	1570.79
731.38	1509.35
731.56	1478.63
731.74	1507.30
731.93	1564.65
732.11	1548.26
732.29	1460.20
732.47	1511.40
732.65	1576.94
732.83	1662.95
733.01	1495.02
733.19	1515.50
733.37	1611.75
733.56	1562.60
733.74	1538.02
733.92	1669.09
734.10	1525.74
734.28	1564.65
734.46	1488.87
734.64	1527.78
734.82	1595.37
735.00	1544.17
735.18	1523.69
735.36	1523.69
735.54	1452.01
735.73	1472.49
735.91	1609.70
736.09	1540.07
736.27	1497.07
736.45	1544.17
736.63	1435.63
736.81	1484.78
736.99	1566.70
737.17	1568.74
737.35	1464.30
737.53	1568.74
737.71	1509.35
737.89	1638.38
738.07	1552.36
738.25	1435.63
738.43	1400.81
738.61	1501.16
738.80	1466.35
738.98	1509.35
739.16	1449.96
739.34	1468.39
739.52	1597.42
739.70	1521.64
739.88	1617.90
740.06	1626.09
740.24	1443.82
740.42	1576.94
740.60	1486.83
740.78	1472.49
740.96	1468.39
741.14	1527.78
741.32	1607.66
741.50	1429.48
741.68	1632.23
741.86	1552.36
742.04	1519.59
742.22	1521.64
742.40	1527.78
742.58	1529.83
742.76	1533.93
742.94	1570.79
743.12	1527.78
743.30	1605.61
743.48	1658.85
743.66	1507.30
743.84	1568.74
744.02	1456.11
744.20	1497.07
744.38	1460.20
744.56	1472.49
744.74	1570.79
744.92	1486.83
745.10	1613.80
745.28	1554.41
745.46	1597.42
745.64	1535.98
745.82	1593.32
746.00	1511.40
746.18	1538.02
746.36	1542.12
746.54	1538.02
746.72	1587.18
746.90	1482.73
747.08	1615.85
747.26	1454.06
747.44	1517.54
747.62	1568.74
747.80	1558.50
747.98	1523.69
748.15	1521.64
748.33	1630.18
748.51	1497.07
748.69	1585.13
748.87	1640.42
749.05	1478.63
749.23	1593.32
749.41	1554.41
749.59	1527.78
749.77	1554.41
749.95	1521.64
750.13	1490.92
750.31	1576.94
750.49	1552.36
750.67	1597.42
750.85	1648.61
751.03	1591.27
751.20	1572.84
751.38	1505.26
751.56	1560.55
751.74	1527.78
751.92	1486.83
752.10	1429.48
752.28	1587.18
752.46	1427.43
752.64	1605.61
752.82	1587.18
753.00	1568.74
753.18	1638.38
753.35	1568.74
753.53	1556.46
753.71	1519.59
753.89	1599.46
754.07	1544.17
754.25	1552.36
754.43	1568.74
754.61	1488.87
754.79	1570.79
754.97	1599.46
755.14	1652.71
755.32	1517.54
755.50	1566.70
755.68	1529.83
755.86	1476.59
756.04	1511.40
756.22	1396.71
756.40	1589.22
756.57	1689.57
756.75	1558.50
756.93	1550.31
757.11	1564.65
757.29	1507.30
757.47	1531.88
757.65	1476.59
757.82	1421.29
758.00	1486.83
758.18	1509.35
758.36	1558.50
758.54	1583.08
758.72	1492.97
758.90	1542.12
759.07	1562.60
759.25	1552.36
759.43	1560.55
759.61	1470.44
759.79	1968.10
759.97	1523.69
760.15	1439.72
760.32	1554.41
760.50	1554.41
760.68	1599.46
760.86	1460.20
761.04	1503.21
761.22	1578.98
761.39	1562.60
761.57	1544.17
761.75	1576.94
761.93	1523.69
762.11	1507.30
762.28	1517.54
762.46	1538.02
762.64	1554.41
762.82	1511.40
763.00	1517.54
763.18	1576.94
763.35	1490.92
763.53	1560.55
763.71	1511.40
763.89	1525.74
764.07	1554.41
764.24	1542.12
764.42	1529.83
764.60	1564.65
764.78	1515.50
764.96	1560.55
765.13	1574.89
765.31	1525.74
765.49	1599.46
765.67	1402.86
765.84	1474.54
766.02	1497.07
766.20	1572.84
766.38	1501.16
766.56	1452.01
766.73	1527.78
766.91	1515.50
767.09	1513.45
767.27	1558.50
767.44	1535.98
767.62	1480.68
767.80	1517.54
767.98	1484.78
768.15	1499.11
768.33	1540.07
768.51	1542.12
768.69	1548.26
768.87	1556.46
769.04	1466.35
769.22	1615.85
769.40	1619.94
769.58	1646.57
769.75	1503.21
769.93	1650.66
770.11	1554.41
770.28	1558.50
770.46	1497.07
770.64	1597.42
770.82	1433.58
770.99	1554.41
771.17	1538.02
771.35	1521.64
771.53	1488.87
771.70	1558.50
771.88	1601.51
772.06	1480.68
772.23	1550.31
772.41	1544.17
772.59	1527.78
772.77	1517.54
772.94	1488.87
773.12	1535.98
773.30	1445.87
773.47	1570.79
773.65	1542.12
773.83	1566.70
774.01	1552.36
774.18	1456.11
774.36	1601.51
774.54	1484.78
774.71	1492.97
774.89	1476.59
775.07	1519.59
775.24	1488.87
775.42	1574.89
775.60	1632.23
775.78	1484.78
775.95	1435.63
776.13	1452.01
776.31	1409.00
776.48	1511.40
776.66	1648.61
776.84	1468.39
777.01	1499.11
777.19	1552.36
777.37	1509.35
777.54	1585.13
777.72	1609.70
777.90	1511.40
778.07	1454.06
778.25	1615.85
778.43	1585.13
778.60	1523.69
778.78	1542.12
778.96	1548.26
779.13	1443.82
779.31	1609.70
779.49	1464.30
779.66	1492.97
779.84	1525.74
780.01	1548.26
780.19	1488.87
780.37	1527.78
780.54	1624.04
780.72	1550.31
780.90	1540.07
781.07	1449.96
781.25	1492.97
781.43	1624.04
781.60	1492.97
781.78	1617.90
781.95	1492.97
782.13	1478.63
782.31	1519.59
782.48	1523.69
782.66	1542.12
782.83	1640.42
783.01	1558.50
783.19	1597.42
783.36	1497.07
783.54	1474.54
783.72	1619.94
783.89	1529.83
784.07	1484.78
784.24	1538.02
784.42	1675.24
784.60	1499.11
784.77	1517.54
784.95	1470.44
785.12	1587.18
785.30	1527.78
785.47	1560.55
785.65	1562.60
785.83	1521.64
786.00	1540.07
786.18	1568.74
786.35	1482.73
786.53	1603.56
786.71	1632.23
786.88	1529.83
787.06	1456.11
787.23	1517.54
787.41	1490.92
787.58	1519.59
787.76	1452.01
787.94	1585.13
788.11	1640.42
788.29	1456.11
788.46	1495.02
788.64	1495.02
788.81	1535.98
788.99	1474.54
789.16	1439.72
789.34	1515.50
789.52	1505.26
789.69	1542.12
789.87	1460.20
790.04	1478.63
790.22	1617.90
790.39	1527.78
790.57	1550.31
790.74	1474.54
790.92	1585.13
791.09	1531.88
791.27	1523.69
791.44	1630.18
791.62	1542.12
791.79	1548.26
791.97	1591.27
792.15	1646.57
792.32	1447.91
792.50	1589.22
792.67	1587.18
792.85	1652.71
793.02	1525.74
793.20	1509.35
793.37	1409.00
793.55	1519.59
793.72	1533.93
793.90	1552.36
794.07	1447.91
794.25	1474.54
794.42	1535.98
794.60	1546.22
794.77	1515.50
794.95	1566.70
795.12	1556.46
795.30	1519.59
795.47	1452.01
795.65	1687.53
795.82	1476.59
796.00	1507.30
796.17	1533.93
796.34	1527.78
796.52	1548.26
796.69	1527.78
796.87	1560.55
797.04	1646.57
797.22	1542.12
797.39	1593.32
797.57	1566.70
797.74	1581.03
797.92	1554.41
798.09	1449.96
798.27	1630.18
798.44	1564.65
798.62	1468.39
798.79	1578.98
798.96	1609.70
799.14	1535.98
799.31	1632.23
799.49	1521.64
799.66	1470.44
799.84	1628.14
800.01	1445.87
800.19	1544.17
800.36	1394.67
800.53	1523.69
800.71	1611.75
800.88	1585.13
801.06	1460.20
801.23	1535.98
801.41	1560.55
801.58	1548.26
801.75	1533.93
801.93	1501.16
802.10	1572.84
802.28	1509.35
802.45	1464.30
802.63	1542.12
802.80	1531.88
802.97	1583.08
803.15	1595.37
803.32	1593.32
803.50	1552.36
803.67	1581.03
803.84	1466.35
804.02	1548.26
804.19	1462.25
804.37	1452.01
804.54	1466.35
804.71	1476.59
804.89	1570.79
805.06	1517.54
805.24	1490.92
805.41	1531.88
805.58	1425.39
805.76	1591.27
805.93	1576.94
806.10	1589.22
806.28	1558.50
806.45	1525.74
806.63	1540.07
806.80	1529.83
806.97	1452.01
807.15	1587.18
807.32	1538.02
807.49	1421.29
807.67	1462.25
807.84	1550.31
808.01	1525.74
808.19	1607.66
808.36	1624.04
808.54	1529.83
808.71	1472.49
808.88	1511.40
809.06	1546.22
809.23	1656.81
809.40	1507.30
809.58	1611.75
809.75	1452.01
809.92	1435.63
810.10	1665.00
810.27	1474.54
810.44	1486.83
810.62	1535.98
810.79	1576.94
810.96	1503.21
811.14	1497.07
811.31	1581.03
811.48	1556.46
811.66	1552.36
811.83	1550.31
812.00	1562.60
812.18	1523.69
812.35	1630.18
812.52	1548.26
812.69	1521.64
812.87	1521.64
813.04	1507.30
813.21	1544.17
813.39	1533.93
813.56	1447.91
813.73	1603.56
813.91	1413.10
814.08	1560.55
814.25	1482.73
814.42	1470.44
814.60	1488.87
814.77	1519.59
814.94	1497.07
815.12	1587.18
815.29	1538.02
815.46	1509.35
815.63	1497.07
815.81	1531.88
815.98	1521.64
816.15	1548.26
816.33	1474.54
816.50	1548.26
816.67	1501.16
816.84	1452.01
817.02	1556.46
817.19	1488.87
817.36	1570.79
817.53	1574.89
817.71	1509.35
817.88	1511.40
818.05	1503.21
818.22	1478.63
818.40	1597.42
818.57	1550.31
818.74	1517.54
818.91	1484.78
819.09	1585.13
819.26	1527.78
819.43	1558.50
819.60	1525.74
819.78	1613.80
819.95	1568.74
820.12	1556.46
820.29	1540.07
820.47	1630.18
820.64	1544.17
820.81	1435.63
820.98	1509.35
821.15	1540.07
821.33	1533.93
821.50	1509.35
821.67	1566.70
821.84	1531.88
822.02	1570.79
822.19	1521.64
822.36	1550.31
822.53	1538.02
822.70	1529.83
822.88	1478.63
823.05	1595.37
823.22	1517.54
823.39	1574.89
823.56	1509.35
823.74	1533.93
823.91	1503.21
824.08	1480.68
824.25	1495.02
824.42	1634.28
824.60	1431.53
824.77	1443.82
824.94	1523.69
825.11	1556.46
825.28	1472.49
825.45	1585.13
825.63	1581.03
825.80	1492.97
825.97	1486.83
826.14	1447.91
826.31	1447.91
826.48	1538.02
826.66	1560.55
826.83	1538.02
827.00	1490.92
827.17	1443.82
827.34	1458.15
827.51	1566.70
827.69	1527.78
827.86	1517.54
828.03	1523.69
828.20	1480.68
828.37	1497.07
828.54	1513.45
828.71	1505.26
828.89	1640.42
829.06	1492.97
829.23	1513.45
829.40	1509.35
829.57	1437.67
829.74	1630.18
829.91	1443.82
830.09	1525.74
830.26	1632.23
830.43	1574.89
830.60	1505.26
830.77	1636.33
830.94	1548.26
831.11	1523.69
831.28	1468.39
831.46	1550.31
831.63	1554.41
831.80	1556.46
831.97	1497.07
832.14	1628.14
832.31	1562.60
832.48	1533.93
832.65	1644.52
832.82	1548.26
832.99	1544.17
833.17	1425.39
833.34	1609.70
833.51	1550.31
833.68	1488.87
833.85	1595.37
834.02	1525.74
834.19	1488.87
834.36	1558.50
834.53	1484.78
834.70	1656.81
834.87	1511.40
835.04	1462.25
835.22	1488.87
835.39	1538.02
835.56	1538.02
835.73	1499.11
835.90	1572.84
836.07	1527.78
836.24	1535.98
836.41	1503.21
836.58	1472.49
836.75	1480.68
836.92	1517.54
837.09	1538.02
837.26	1624.04
837.43	1535.98
837.60	1611.75
837.77	1548.26
837.94	1615.85
838.12	1603.56
838.29	1540.07
838.46	1544.17
838.63	1447.91
838.80	1648.61
838.97	1560.55
839.14	1556.46
839.31	1611.75
839.48	1515.50
839.65	1529.83
839.82	1540.07
839.99	1484.78
840.16	1552.36
840.33	1529.83
840.50	1546.22
840.67	1560.55
840.84	1486.83
841.01	1544.17
841.18	1519.59
841.35	1544.17
841.52	1568.74
841.69	1675.24
841.86	1624.04
842.03	1519.59
842.20	1595.37
842.37	1548.26
842.54	1578.98
842.71	1509.35
842.88	1511.40
843.05	1515.50
843.22	1501.16
843.39	1597.42
843.56	1468.39
843.73	1644.52
843.90	1542.12
844.07	1509.35
844.24	1578.98
844.41	1552.36
844.58	1572.84
844.75	1531.88
844.92	1609.70
845.09	1587.18
845.26	1544.17
845.43	1574.89
845.60	1460.20
845.77	1517.54
845.94	1535.98
846.10	1578.98
846.27	1497.07
846.44	1425.39
846.61	1546.22
846.78	1542.12
846.95	1583.08
847.12	1599.46
847.29	1402.86
847.46	1466.35
847.63	1490.92
847.80	1517.54
847.97	1621.99
848.14	1654.76
848.31	1505.26
848.48	1517.54
848.65	1533.93
848.82	1445.87
848.98	1624.04
849.15	1542.12
849.32	1611.75
849.49	1609.70
849.66	1570.79
849.83	1519.59
850.00	1513.45
850.17	1562.60
850.34	1529.83
850.51	1492.97
850.68	1505.26
850.85	1648.61
851.01	1538.02
851.18	1474.54
851.35	1458.15
851.52	1515.50
851.69	1630.18
851.86	1490.92
852.03	1538.02
852.20	1564.65
852.37	1507.30
852.53	1409.00
852.70	1529.83
852.87	1525.74
853.04	1517.54
853.21	1513.45
853.38	1581.03
853.55	1589.22
853.72	1525.74
853.89	1505.26
854.05	1501.16
854.22	1515.50
854.39	1525.74
854.56	1550.31
854.73	1583.08
854.90	1478.63
855.07	1527.78
855.23	1488.87
855.40	1495.02
855.57	1542.12
855.74	1460.20
855.91	1675.24
856.08	1447.91
856.25	1472.49
856.41	1466.35
856.58	1492.97
856.75	1492.97
856.92	1431.53
857.09	1462.25
857.26	1529.83
857.42	1542.12
857.59	1474.54
857.76	1513.45
857.93	1470.44
858.10	1523.69
858.27	1452.01
858.43	1593.32
858.60	1556.46
858.77	1499.11
858.94	1519.59
859.11	1601.51
859.27	1499.11
859.44	1607.66
859.61	1656.81
859.78	1544.17
859.95	1492.97
860.12	1478.63
860.28	1595.37
860.45	1566.70
860.62	1480.68
860.79	1558.50
860.95	1558.50
861.12	1464.30
861.29	1562.60
861.46	1478.63
861.63	1484.78
861.79	1601.51
861.96	1495.02
862.13	1558.50
862.30	1556.46
862.47	1460.20
862.63	1574.89
862.80	1519.59
862.97	1560.55
863.14	1624.04
863.30	1564.65
863.47	1464.30
863.64	1501.16
863.81	1583.08
863.97	1458.15
864.14	1535.98
864.31	1513.45
864.48	1540.07
864.65	1538.02
864.81	1615.85
864.98	1546.22
865.15	1578.98
865.32	1601.51
865.48	1660.90
865.65	1605.61
865.82	1535.98
865.98	1576.94
866.15	1574.89
866.32	1525.74
866.49	1509.35
866.65	1638.38
866.82	1521.64
866.99	1480.68
867.16	1511.40
867.32	1503.21
867.49	1497.07
867.66	1439.72
867.83	1492.97
867.99	1505.26
868.16	1540.07
868.33	1490.92
868.49	1576.94
868.66	1449.96
868.83	1531.88
868.99	1589.22
869.16	1542.12
869.33	1552.36
869.50	1581.03
869.66	1474.54
869.83	1554.41
870.00	1427.43
870.16	1583.08
870.33	1572.84
870.50	1591.27
870.66	1511.40
870.83	1648.61
871.00	1540.07
871.17	1535.98
871.33	1568.74
871.50	1535.98
871.67	1497.07
871.83	1462.25
872.00	1609.70
872.17	1546.22
872.33	1601.51
872.50	1529.83
872.67	1490.92
872.83	1523.69
873.00	1550.31
873.17	1562.60
873.33	1574.89
873.50	1486.83
873.67	1507.30
873.83	1425.39
874.00	1581.03
874.16	1640.42
874.33	1552.36
874.50	1517.54
874.66	1533.93
874.83	1587.18
875.00	1572.84
875.16	1603.56
875.33	1603.56
875.50	1511.40
875.66	1517.54
875.83	1562.60
875.99	1570.79
876.16	1546.22
876.33	1478.63
876.49	1495.02
876.66	1533.93
876.83	1550.31
876.99	1419.24
877.16	1546.22
877.32	1587.18
877.49	1544.17
877.66	1476.59
877.82	1632.23
877.99	1578.98
878.15	1566.70
878.32	1644.52
878.49	1546.22
878.65	1574.89
878.82	1599.46
878.98	1507.30
879.15	1535.98
879.32	1558.50
879.48	1554.41
879.65	1585.13
879.81	1527.78
879.98	1540.07
880.15	1548.26
880.31	1533.93
880.48	1519.59
880.64	1531.88
880.81	1576.94
880.97	1656.81
881.14	1566.70
881.31	1497.07
881.47	1583.08
881.64	1527.78
881.80	1523.69
881.97	1497.07
882.13	1566.70
882.30	1466.35
882.47	1527.78
882.63	1474.54
882.80	1509.35
882.96	1511.40
883.13	1523.69
883.29	1517.54
883.46	1605.61
883.62	1609.70
883.79	1513.45
883.95	1636.33
884.12	1497.07
884.29	1550.31
884.45	1476.59
884.62	1603.56
884.78	1497.07
884.95	1509.35
885.11	1533.93
885.28	1513.45
885.44	1562.60
885.61	1523.69
885.77	1542.12
885.94	1615.85
886.10	1542.12
886.27	1630.18
886.43	1566.70
886.60	1595.37
886.76	1533.93
886.93	1517.54
887.09	1525.74
887.26	1435.63
887.42	1458.15
887.59	1554.41
887.75	1681.38
887.92	1550.31
888.08	1581.03
888.25	1564.65
888.41	1593.32
888.58	1564.65
888.74	1540.07
888.91	1464.30
>>>>>End Processed Spectral Data<<<<<
