SpectraSuite Data File
++++++++++++++++++++++++++++++++++++
Date: Tue May 03 12:55:35 CEST 2016
User: root
Dark Spectrum Present: No
Reference Spectrum Present: No
Number of Sampled Component Spectra: 1
Spectrometers: USB4C02835
Integration Time (usec): 100000 (USB4C02835)
Spectra Averaged: 1 (USB4C02835)
Boxcar Smoothing: 0 (USB4C02835)
Correct for Electrical Dark: No (USB4C02835)
Strobe/Lamp Enabled: No (USB4C02835)
Correct for Detector Non-linearity: No (USB4C02835)
Correct for Stray Light: No (USB4C02835)
Number of Pixels in Processed Spectrum: 3648
>>>>>Begin Processed Spectral Data<<<<<
177.47	1325.04
177.69	1325.04
177.91	1325.04
178.13	1339.37
178.36	1345.52
178.58	1482.73
178.80	1533.93
179.02	1497.07
179.24	1429.48
179.46	1480.68
179.68	1642.47
179.90	1548.26
180.13	1486.83
180.35	1556.46
180.57	1587.18
180.79	1542.12
181.01	1490.92
181.23	1495.02
181.45	1642.47
181.67	1591.27
181.90	1546.22
182.12	1527.78
182.34	1509.35
182.56	1560.55
182.78	1548.26
183.00	1507.30
183.22	1503.21
183.44	1501.16
183.66	1646.57
183.89	1621.99
184.11	1568.74
184.33	1585.13
184.55	1593.32
184.77	1531.88
184.99	1538.02
185.21	1515.50
185.43	1691.62
185.65	1525.74
185.87	1515.50
186.10	1685.48
186.32	1689.57
186.54	1544.17
186.76	1560.55
186.98	1523.69
187.20	1578.98
187.42	1507.30
187.64	1591.27
187.86	1527.78
188.08	1554.41
188.30	1525.74
188.52	1521.64
188.75	1581.03
188.97	1601.51
189.19	1492.97
189.41	1562.60
189.63	1519.59
189.85	1533.93
190.07	1509.35
190.29	1517.54
190.51	1611.75
190.73	1445.87
190.95	1617.90
191.17	1591.27
191.39	1476.59
191.61	1525.74
191.84	1544.17
192.06	1576.94
192.28	1439.72
192.50	1671.14
192.72	1613.80
192.94	1499.11
193.16	1484.78
193.38	1603.56
193.60	1431.53
193.82	1593.32
194.04	1529.83
194.26	1548.26
194.48	1613.80
194.70	1525.74
194.92	1497.07
195.14	1515.50
195.36	1566.70
195.58	1515.50
195.80	1503.21
196.02	1546.22
196.24	1509.35
196.46	1556.46
196.69	1507.30
196.91	1705.96
197.13	1576.94
197.35	1507.30
197.57	1642.47
197.79	1525.74
198.01	1454.06
198.23	1560.55
198.45	1589.22
198.67	1531.88
198.89	1531.88
199.11	1572.84
199.33	1556.46
199.55	1470.44
199.77	1501.16
199.99	1611.75
200.21	1538.02
200.43	1574.89
200.65	1458.15
200.87	1462.25
201.09	1585.13
201.31	1531.88
201.53	1607.66
201.75	1527.78
201.97	1531.88
202.19	1533.93
202.41	1564.65
202.63	1609.70
202.85	1525.74
203.07	1550.31
203.29	1548.26
203.51	1572.84
203.73	1562.60
203.95	1728.49
204.17	1552.36
204.39	1554.41
204.61	1517.54
204.83	1542.12
205.05	1546.22
205.27	1589.22
205.49	1591.27
205.71	1574.89
205.93	1538.02
206.15	1585.13
206.37	1538.02
206.59	1531.88
206.81	1466.35
207.03	1488.87
207.25	1505.26
207.47	1593.32
207.69	1515.50
207.91	1554.41
208.13	1611.75
208.34	1521.64
208.56	1525.74
208.78	1495.02
209.00	1521.64
209.22	1552.36
209.44	1521.64
209.66	1550.31
209.88	1558.50
210.10	1480.68
210.32	1495.02
210.54	1572.84
210.76	1576.94
210.98	1578.98
211.20	1443.82
211.42	1540.07
211.64	1648.61
211.86	1540.07
212.08	1593.32
212.30	1550.31
212.52	1497.07
212.74	1617.90
212.96	1535.98
213.17	1505.26
213.39	1566.70
213.61	1665.00
213.83	1603.56
214.05	1548.26
214.27	1603.56
214.49	1468.39
214.71	1556.46
214.93	1544.17
215.15	1445.87
215.37	1587.18
215.59	1566.70
215.81	1615.85
216.03	1564.65
216.24	1495.02
216.46	1566.70
216.68	1583.08
216.90	1576.94
217.12	1542.12
217.34	1525.74
217.56	1593.32
217.78	1542.12
218.00	1548.26
218.22	1533.93
218.44	1568.74
218.66	1456.11
218.87	1585.13
219.09	1548.26
219.31	1505.26
219.53	1560.55
219.75	1533.93
219.97	1558.50
220.19	1574.89
220.41	1544.17
220.63	1615.85
220.85	1595.37
221.06	1542.12
221.28	1611.75
221.50	1585.13
221.72	1540.07
221.94	1548.26
222.16	1513.45
222.38	1560.55
222.60	1544.17
222.82	1462.25
223.03	1533.93
223.25	1490.92
223.47	1597.42
223.69	1728.49
223.91	1507.30
224.13	1501.16
224.35	1560.55
224.57	1619.94
224.78	1562.60
225.00	1449.96
225.22	1509.35
225.44	1566.70
225.66	1599.46
225.88	1533.93
226.10	1671.14
226.32	1601.51
226.53	1576.94
226.75	1519.59
226.97	1593.32
227.19	1581.03
227.41	1513.45
227.63	1495.02
227.85	1474.54
228.06	1558.50
228.28	1613.80
228.50	1527.78
228.72	1423.34
228.94	1550.31
229.16	1421.29
229.37	1597.42
229.59	1533.93
229.81	1531.88
230.03	1484.78
230.25	1484.78
230.47	1468.39
230.69	1538.02
230.90	1583.08
231.12	1460.20
231.34	1568.74
231.56	1589.22
231.78	1462.25
232.00	1558.50
232.21	1538.02
232.43	1447.91
232.65	1441.77
232.87	1564.65
233.09	1554.41
233.30	1554.41
233.52	1538.02
233.74	1501.16
233.96	1540.07
234.18	1566.70
234.40	1574.89
234.61	1669.09
234.83	1429.48
235.05	1519.59
235.27	1570.79
235.49	1492.97
235.70	1632.23
235.92	1617.90
236.14	1540.07
236.36	1724.39
236.58	1511.40
236.79	1568.74
237.01	1581.03
237.23	1486.83
237.45	1675.24
237.67	1527.78
237.88	1527.78
238.10	1689.57
238.32	1456.11
238.54	1587.18
238.76	1511.40
238.97	1490.92
239.19	1564.65
239.41	1574.89
239.63	1544.17
239.85	1521.64
240.06	1552.36
240.28	1499.11
240.50	1544.17
240.72	1517.54
240.93	1507.30
241.15	1626.09
241.37	1519.59
241.59	1562.60
241.81	1558.50
242.02	1566.70
242.24	1560.55
242.46	1595.37
242.68	1505.26
242.89	1587.18
243.11	1601.51
243.33	1578.98
243.55	1591.27
243.76	1574.89
243.98	1540.07
244.20	1513.45
244.42	1587.18
244.64	1558.50
244.85	1482.73
245.07	1472.49
245.29	1564.65
245.51	1540.07
245.72	1544.17
245.94	1576.94
246.16	1521.64
246.38	1513.45
246.59	1525.74
246.81	1437.67
247.03	1529.83
247.24	1449.96
247.46	1572.84
247.68	1511.40
247.90	1564.65
248.11	1531.88
248.33	1574.89
248.55	1472.49
248.77	1507.30
248.98	1554.41
249.20	1566.70
249.42	1574.89
249.64	1513.45
249.85	1517.54
250.07	1533.93
250.29	1560.55
250.50	1595.37
250.72	1492.97
250.94	1497.07
251.16	1609.70
251.37	1607.66
251.59	1464.30
251.81	1570.79
252.02	1540.07
252.24	1552.36
252.46	1574.89
252.68	1488.87
252.89	1521.64
253.11	1484.78
253.33	1732.58
253.54	1619.94
253.76	1525.74
253.98	1509.35
254.20	1521.64
254.41	1476.59
254.63	1499.11
254.85	1495.02
255.06	1486.83
255.28	1572.84
255.50	1533.93
255.71	1550.31
255.93	1509.35
256.15	1525.74
256.36	1591.27
256.58	1519.59
256.80	1558.50
257.02	1538.02
257.23	1492.97
257.45	1572.84
257.67	1556.46
257.88	1511.40
258.10	1550.31
258.32	1566.70
258.53	1611.75
258.75	1570.79
258.97	1527.78
259.18	1570.79
259.40	1593.32
259.62	1656.81
259.83	1624.04
260.05	1644.52
260.27	1714.15
260.48	1515.50
260.70	1474.54
260.92	1572.84
261.13	1568.74
261.35	1550.31
261.57	1529.83
261.78	1492.97
262.00	1464.30
262.22	1583.08
262.43	1517.54
262.65	1495.02
262.86	1589.22
263.08	1595.37
263.30	1574.89
263.51	1363.95
263.73	1484.78
263.95	1572.84
264.16	1476.59
264.38	1490.92
264.60	1572.84
264.81	1566.70
265.03	1578.98
265.25	1529.83
265.46	1560.55
265.68	1624.04
265.89	1562.60
266.11	1484.78
266.33	1574.89
266.54	1554.41
266.76	1540.07
266.98	1538.02
267.19	1720.29
267.41	1566.70
267.62	1503.21
267.84	1529.83
268.06	1464.30
268.27	1558.50
268.49	1617.90
268.70	1572.84
268.92	1566.70
269.14	1515.50
269.35	1544.17
269.57	1495.02
269.79	1501.16
270.00	1447.91
270.22	1619.94
270.43	1529.83
270.65	1406.95
270.87	1447.91
271.08	1529.83
271.30	1595.37
271.51	1624.04
271.73	1521.64
271.95	1552.36
272.16	1568.74
272.38	1665.00
272.59	1535.98
272.81	1517.54
273.02	1548.26
273.24	1515.50
273.46	1550.31
273.67	1529.83
273.89	1503.21
274.10	1550.31
274.32	1556.46
274.54	1540.07
274.75	1609.70
274.97	1548.26
275.18	1609.70
275.40	1626.09
275.61	1570.79
275.83	1527.78
276.05	1454.06
276.26	1437.67
276.48	1556.46
276.69	1542.12
276.91	1499.11
277.12	1652.71
277.34	1556.46
277.55	1607.66
277.77	1507.30
277.99	1497.07
278.20	1492.97
278.42	1468.39
278.63	1509.35
278.85	1492.97
279.06	1482.73
279.28	1544.17
279.49	1533.93
279.71	1601.51
279.93	1503.21
280.14	1519.59
280.36	1484.78
280.57	1548.26
280.79	1556.46
281.00	1464.30
281.22	1492.97
281.43	1546.22
281.65	1413.10
281.86	1576.94
282.08	1621.99
282.29	1634.28
282.51	1456.11
282.73	1497.07
282.94	1435.63
283.16	1550.31
283.37	1611.75
283.59	1531.88
283.80	1589.22
284.02	1505.26
284.23	1617.90
284.45	1521.64
284.66	1509.35
284.88	1558.50
285.09	1533.93
285.31	1646.57
285.52	1486.83
285.74	1505.26
285.95	1519.59
286.17	1474.54
286.38	1542.12
286.60	1576.94
286.81	1603.56
287.03	1589.22
287.24	1480.68
287.46	1437.67
287.67	1552.36
287.89	1683.43
288.10	1546.22
288.32	1548.26
288.53	1603.56
288.75	1511.40
288.96	1529.83
289.18	1449.96
289.39	1560.55
289.61	1583.08
289.82	1699.81
290.04	1601.51
290.25	1501.16
290.47	1497.07
290.68	1519.59
290.90	1667.05
291.11	1462.25
291.33	1634.28
291.54	1472.49
291.76	1572.84
291.97	1556.46
292.18	1564.65
292.40	1515.50
292.61	1525.74
292.83	1669.09
293.04	1566.70
293.26	1497.07
293.47	1556.46
293.69	1488.87
293.90	1540.07
294.12	1595.37
294.33	1429.48
294.55	1538.02
294.76	1548.26
294.97	1599.46
295.19	1626.09
295.40	1548.26
295.62	1540.07
295.83	1482.73
296.05	1445.87
296.26	1544.17
296.48	1513.45
296.69	1550.31
296.90	1503.21
297.12	1501.16
297.33	1617.90
297.55	1568.74
297.76	1540.07
297.98	1581.03
298.19	1540.07
298.41	1550.31
298.62	1501.16
298.83	1548.26
299.05	1533.93
299.26	1587.18
299.48	1535.98
299.69	1544.17
299.90	1540.07
300.12	1564.65
300.33	1562.60
300.55	1591.27
300.76	1572.84
300.98	1462.25
301.19	1599.46
301.40	1535.98
301.62	1535.98
301.83	1476.59
302.05	1511.40
302.26	1544.17
302.47	1591.27
302.69	1505.26
302.90	1566.70
303.12	1552.36
303.33	1617.90
303.54	1605.61
303.76	1527.78
303.97	1511.40
304.19	1671.14
304.40	1499.11
304.61	1611.75
304.83	1640.42
305.04	1621.99
305.26	1527.78
305.47	1495.02
305.68	1566.70
305.90	1464.30
306.11	1574.89
306.33	1488.87
306.54	1540.07
306.75	1445.87
306.97	1525.74
307.18	1439.72
307.39	1490.92
307.61	1515.50
307.82	1527.78
308.04	1542.12
308.25	1431.53
308.46	1572.84
308.68	1519.59
308.89	1542.12
309.10	1572.84
309.32	1507.30
309.53	1501.16
309.74	1597.42
309.96	1495.02
310.17	1667.05
310.39	1521.64
310.60	1544.17
310.81	1531.88
311.03	1482.73
311.24	1548.26
311.45	1509.35
311.67	1540.07
311.88	1581.03
312.09	1562.60
312.31	1562.60
312.52	1423.34
312.73	1511.40
312.95	1519.59
313.16	1535.98
313.37	1517.54
313.59	1507.30
313.80	1581.03
314.01	1550.31
314.23	1515.50
314.44	1490.92
314.65	1515.50
314.87	1517.54
315.08	1505.26
315.29	1439.72
315.51	1384.43
315.72	1486.83
315.93	1599.46
316.15	1560.55
316.36	1527.78
316.57	1574.89
316.79	1566.70
317.00	1517.54
317.21	1593.32
317.43	1538.02
317.64	1497.07
317.85	1492.97
318.07	1523.69
318.28	1607.66
318.49	1691.62
318.70	1765.35
318.92	1697.77
319.13	1708.01
319.34	1685.48
319.56	1656.81
319.77	1673.19
319.98	1671.14
320.20	1624.04
320.41	1634.28
320.62	1599.46
320.83	1486.83
321.05	1669.09
321.26	1621.99
321.47	1476.59
321.69	1583.08
321.90	1480.68
322.11	1527.78
322.32	1529.83
322.54	1605.61
322.75	1527.78
322.96	1658.85
323.18	1437.67
323.39	1452.01
323.60	1466.35
323.81	1589.22
324.03	1484.78
324.24	1490.92
324.45	1533.93
324.66	1535.98
324.88	1558.50
325.09	1540.07
325.30	1564.65
325.52	1550.31
325.73	1546.22
325.94	1472.49
326.15	1456.11
326.37	1552.36
326.58	1630.18
326.79	1609.70
327.00	1495.02
327.22	1630.18
327.43	1531.88
327.64	1495.02
327.85	1538.02
328.07	1570.79
328.28	1611.75
328.49	1484.78
328.70	1476.59
328.92	1552.36
329.13	1460.20
329.34	1556.46
329.55	1632.23
329.76	1607.66
329.98	1552.36
330.19	1591.27
330.40	1546.22
330.61	1535.98
330.83	1611.75
331.04	1576.94
331.25	1574.89
331.46	1562.60
331.68	1441.77
331.89	1630.18
332.10	1564.65
332.31	1486.83
332.52	1531.88
332.74	1650.66
332.95	1378.28
333.16	1546.22
333.37	1517.54
333.58	1626.09
333.80	1507.30
334.01	1490.92
334.22	1523.69
334.43	1497.07
334.64	1499.11
334.86	1488.87
335.07	1527.78
335.28	1546.22
335.49	1421.29
335.70	1574.89
335.92	1615.85
336.13	1652.71
336.34	1595.37
336.55	1452.01
336.76	1484.78
336.98	1431.53
337.19	1546.22
337.40	1554.41
337.61	1662.95
337.82	1542.12
338.04	1589.22
338.25	1492.97
338.46	1535.98
338.67	1589.22
338.88	1576.94
339.09	1515.50
339.31	1540.07
339.52	1466.35
339.73	1484.78
339.94	1564.65
340.15	1595.37
340.36	1509.35
340.58	1548.26
340.79	1519.59
341.00	1535.98
341.21	1445.87
341.42	1669.09
341.63	1554.41
341.85	1550.31
342.06	1601.51
342.27	1499.11
342.48	1517.54
342.69	1478.63
342.90	1527.78
343.12	1593.32
343.33	1509.35
343.54	1585.13
343.75	1566.70
343.96	1478.63
344.17	1501.16
344.38	1552.36
344.60	1499.11
344.81	1427.43
345.02	1576.94
345.23	1589.22
345.44	1665.00
345.65	1611.75
345.86	1560.55
346.07	1552.36
346.29	1558.50
346.50	1589.22
346.71	1484.78
346.92	1648.61
347.13	1597.42
347.34	1492.97
347.55	1599.46
347.76	1544.17
347.98	1449.96
348.19	1538.02
348.40	1591.27
348.61	1521.64
348.82	1566.70
349.03	1621.99
349.24	1560.55
349.45	1619.94
349.66	1429.48
349.88	1499.11
350.09	1525.74
350.30	1552.36
350.51	1601.51
350.72	1544.17
350.93	1591.27
351.14	1544.17
351.35	1587.18
351.56	1550.31
351.77	1560.55
351.99	1523.69
352.20	1615.85
352.41	1621.99
352.62	1480.68
352.83	1519.59
353.04	1490.92
353.25	1550.31
353.46	1630.18
353.67	1665.00
353.88	1484.78
354.09	1552.36
354.30	1540.07
354.52	1497.07
354.73	1476.59
354.94	1439.72
355.15	1542.12
355.36	1644.52
355.57	1542.12
355.78	1531.88
355.99	1495.02
356.20	1478.63
356.41	1578.98
356.62	1529.83
356.83	1509.35
357.04	1544.17
357.25	1525.74
357.46	1542.12
357.68	1452.01
357.89	1411.05
358.10	1527.78
358.31	1474.54
358.52	1540.07
358.73	1535.98
358.94	1495.02
359.15	1482.73
359.36	1527.78
359.57	1533.93
359.78	1593.32
359.99	1560.55
360.20	1587.18
360.41	1484.78
360.62	1564.65
360.83	1556.46
361.04	1583.08
361.25	1566.70
361.46	1613.80
361.67	1556.46
361.88	1613.80
362.09	1523.69
362.30	1583.08
362.51	1505.26
362.72	1619.94
362.93	1548.26
363.14	1525.74
363.35	1554.41
363.56	1466.35
363.78	1634.28
363.99	1535.98
364.20	1495.02
364.41	1613.80
364.62	1679.33
364.83	1564.65
365.04	1593.32
365.25	1511.40
365.46	1587.18
365.67	1511.40
365.88	1550.31
366.09	1529.83
366.30	1554.41
366.51	1587.18
366.72	1462.25
366.93	1503.21
367.14	1501.16
367.35	1591.27
367.56	1527.78
367.77	1669.09
367.98	1517.54
368.18	1488.87
368.39	1574.89
368.60	1564.65
368.81	1501.16
369.02	1550.31
369.23	1495.02
369.44	1488.87
369.65	1503.21
369.86	1517.54
370.07	1617.90
370.28	1517.54
370.49	1554.41
370.70	1527.78
370.91	1472.49
371.12	1515.50
371.33	1566.70
371.54	1519.59
371.75	1644.52
371.96	1449.96
372.17	1486.83
372.38	1593.32
372.59	1511.40
372.80	1507.30
373.01	1529.83
373.22	1599.46
373.43	1521.64
373.64	1486.83
373.85	1583.08
374.06	1535.98
374.26	1519.59
374.47	1615.85
374.68	1673.19
374.89	1566.70
375.10	1548.26
375.31	1632.23
375.52	1488.87
375.73	1497.07
375.94	1435.63
376.15	1603.56
376.36	1495.02
376.57	1509.35
376.78	1540.07
376.99	1509.35
377.20	1552.36
377.40	1474.54
377.61	1578.98
377.82	1585.13
378.03	1568.74
378.24	1525.74
378.45	1492.97
378.66	1615.85
378.87	1466.35
379.08	1525.74
379.29	1472.49
379.50	1617.90
379.71	1490.92
379.91	1525.74
380.12	1474.54
380.33	1542.12
380.54	1533.93
380.75	1576.94
380.96	1527.78
381.17	1544.17
381.38	1574.89
381.59	1599.46
381.80	1626.09
382.00	1673.19
382.21	1603.56
382.42	1751.01
382.63	1681.38
382.84	1574.89
383.05	1538.02
383.26	1605.61
383.47	1585.13
383.68	1624.04
383.88	1546.22
384.09	1593.32
384.30	1587.18
384.51	1568.74
384.72	1603.56
384.93	1509.35
385.14	1495.02
385.35	1638.38
385.55	1476.59
385.76	1576.94
385.97	1566.70
386.18	1468.39
386.39	1505.26
386.60	1503.21
386.81	1624.04
387.02	1533.93
387.22	1576.94
387.43	1595.37
387.64	1624.04
387.85	1886.18
388.06	3149.78
388.27	7278.48
388.48	10393.44
388.68	12437.31
388.89	13985.58
389.10	13215.54
389.31	10364.77
389.52	8980.34
389.73	7978.89
389.93	7374.74
390.14	6850.46
390.35	6119.33
390.56	5570.48
390.77	4722.62
390.98	3678.15
391.18	2713.56
391.39	2185.18
391.60	1789.92
391.81	1714.15
392.02	1640.42
392.23	1576.94
392.43	1488.87
392.64	1591.27
392.85	1601.51
393.06	1669.09
393.27	1550.31
393.47	1507.30
393.68	1613.80
393.89	1525.74
394.10	1560.55
394.31	1466.35
394.52	1507.30
394.72	1533.93
394.93	1626.09
395.14	1470.44
395.35	1597.42
395.56	1517.54
395.76	1587.18
395.97	1714.15
396.18	1689.57
396.39	1732.58
396.60	1863.65
396.80	1742.82
397.01	1753.06
397.22	1669.09
397.43	1660.90
397.64	1603.56
397.84	1667.05
398.05	1718.25
398.26	1552.36
398.47	1665.00
398.67	1593.32
398.88	1607.66
399.09	1558.50
399.30	1566.70
399.51	1570.79
399.71	1476.59
399.92	1578.98
400.13	1533.93
400.34	1599.46
400.54	1492.97
400.75	1691.62
400.96	1581.03
401.17	1556.46
401.37	1583.08
401.58	1591.27
401.79	1566.70
402.00	1775.59
402.21	1959.91
402.41	1902.56
402.62	1906.66
402.83	1886.18
403.04	1779.68
403.24	1882.08
403.45	1671.14
403.66	1802.21
403.87	1767.40
404.07	1697.77
404.28	1785.83
404.49	1755.11
404.70	1601.51
404.90	1609.70
405.11	1574.89
405.32	1558.50
405.52	1533.93
405.73	1452.01
405.94	1515.50
406.15	1542.12
406.35	1548.26
406.56	1550.31
406.77	1578.98
406.98	1566.70
407.18	1595.37
407.39	1566.70
407.60	1519.59
407.80	1644.52
408.01	1634.28
408.22	1570.79
408.43	1490.92
408.63	1515.50
408.84	1554.41
409.05	1650.66
409.25	1515.50
409.46	1552.36
409.67	1540.07
409.88	1492.97
410.08	1595.37
410.29	1509.35
410.50	1587.18
410.70	1554.41
410.91	1519.59
411.12	1544.17
411.32	1578.98
411.53	1519.59
411.74	1583.08
411.95	1685.48
412.15	1673.19
412.36	1626.09
412.57	1675.24
412.77	1679.33
412.98	1628.14
413.19	1544.17
413.39	1599.46
413.60	1611.75
413.81	1673.19
414.01	1509.35
414.22	1583.08
414.43	1605.61
414.63	1527.78
414.84	1589.22
415.05	1538.02
415.25	1560.55
415.46	1509.35
415.67	1566.70
415.87	1576.94
416.08	1525.74
416.29	1476.59
416.49	1578.98
416.70	1601.51
416.91	1501.16
417.11	1398.76
417.32	1595.37
417.53	1609.70
417.73	1554.41
417.94	1566.70
418.15	1544.17
418.35	1478.63
418.56	1497.07
418.77	1597.42
418.97	1447.91
419.18	1529.83
419.38	1452.01
419.59	1535.98
419.80	1603.56
420.00	1531.88
420.21	1574.89
420.42	1558.50
420.62	1544.17
420.83	1548.26
421.04	1572.84
421.24	1523.69
421.45	1535.98
421.65	1638.38
421.86	1472.49
422.07	1562.60
422.27	1556.46
422.48	1517.54
422.69	1501.16
422.89	1482.73
423.10	1554.41
423.30	1533.93
423.51	1583.08
423.72	1624.04
423.92	1572.84
424.13	1449.96
424.33	1517.54
424.54	1566.70
424.75	1476.59
424.95	1634.28
425.16	1566.70
425.36	1583.08
425.57	1535.98
425.78	1624.04
425.98	1544.17
426.19	1513.45
426.39	1521.64
426.60	1495.02
426.81	1636.33
427.01	1572.84
427.22	1492.97
427.42	1509.35
427.63	1531.88
427.83	1523.69
428.04	1578.98
428.25	1619.94
428.45	1599.46
428.66	1564.65
428.86	1533.93
429.07	1482.73
429.28	1419.24
429.48	1558.50
429.69	1482.73
429.89	1546.22
430.10	1476.59
430.30	1673.19
430.51	1591.27
430.71	1456.11
430.92	1501.16
431.13	1529.83
431.33	1544.17
431.54	1527.78
431.74	1544.17
431.95	1595.37
432.15	1525.74
432.36	1542.12
432.56	1566.70
432.77	1699.81
432.98	1605.61
433.18	1531.88
433.39	1585.13
433.59	1542.12
433.80	1597.42
434.00	1603.56
434.21	1497.07
434.41	1509.35
434.62	1673.19
434.82	1523.69
435.03	1484.78
435.23	1552.36
435.44	1492.97
435.64	1544.17
435.85	1550.31
436.06	1599.46
436.26	1607.66
436.47	1556.46
436.67	1511.40
436.88	1525.74
437.08	1550.31
437.29	1597.42
437.49	1456.11
437.70	1591.27
437.90	1560.55
438.11	1681.38
438.31	1607.66
438.52	1771.49
438.72	1767.40
438.93	1703.91
439.13	1585.13
439.34	1656.81
439.54	1593.32
439.75	1671.14
439.95	1621.99
440.16	1517.54
440.36	1595.37
440.57	1630.18
440.77	1607.66
440.98	1519.59
441.18	1540.07
441.39	1570.79
441.59	1445.87
441.80	1609.70
442.00	1513.45
442.21	1578.98
442.41	1445.87
442.62	1605.61
442.82	1535.98
443.02	1560.55
443.23	1490.92
443.43	1621.99
443.64	1593.32
443.84	1460.20
444.05	1599.46
444.25	1552.36
444.46	1501.16
444.66	1574.89
444.87	1628.14
445.07	1427.43
445.28	1576.94
445.48	1583.08
445.69	1626.09
445.89	1665.00
446.09	1624.04
446.30	2015.20
446.50	3174.35
446.71	4460.48
446.91	5330.86
447.12	5756.84
447.32	5695.40
447.53	4595.64
447.73	4093.89
447.93	3710.92
448.14	3399.63
448.34	3221.45
448.55	2940.88
448.75	2961.36
448.96	2791.38
449.16	2459.61
449.36	2201.57
449.57	1947.62
449.77	1828.84
449.98	1607.66
450.18	1624.04
450.39	1648.61
450.59	1603.56
450.79	1503.21
451.00	1538.02
451.20	1531.88
451.41	1517.54
451.61	1597.42
451.81	1542.12
452.02	1523.69
452.22	1484.78
452.43	1482.73
452.63	1495.02
452.84	1554.41
453.04	1585.13
453.24	1472.49
453.45	1456.11
453.65	1468.39
453.86	1574.89
454.06	1585.13
454.26	1454.06
454.47	1538.02
454.67	1607.66
454.87	1544.17
455.08	1570.79
455.28	1613.80
455.49	1548.26
455.69	1419.24
455.89	1607.66
456.10	1554.41
456.30	1540.07
456.51	1630.18
456.71	1568.74
456.91	1581.03
457.12	1517.54
457.32	1619.94
457.52	1441.77
457.73	1597.42
457.93	1540.07
458.14	1544.17
458.34	1540.07
458.54	1525.74
458.75	1578.98
458.95	1613.80
459.15	1533.93
459.36	1601.51
459.56	1689.57
459.76	1597.42
459.97	1566.70
460.17	1466.35
460.37	1548.26
460.58	1527.78
460.78	1587.18
460.99	1544.17
461.19	1445.87
461.39	1501.16
461.60	1560.55
461.80	1568.74
462.00	1476.59
462.21	1558.50
462.41	1484.78
462.61	1525.74
462.82	1452.01
463.02	1542.12
463.22	1499.11
463.43	1611.75
463.63	1574.89
463.83	1587.18
464.04	1601.51
464.24	1538.02
464.44	1523.69
464.64	1458.15
464.85	1581.03
465.05	1517.54
465.25	1535.98
465.46	1478.63
465.66	1513.45
465.86	1572.84
466.07	1570.79
466.27	1538.02
466.47	1513.45
466.68	1492.97
466.88	1548.26
467.08	1568.74
467.29	1540.07
467.49	1501.16
467.69	1560.55
467.89	1595.37
468.10	1495.02
468.30	1576.94
468.50	1583.08
468.71	1566.70
468.91	1478.63
469.11	1585.13
469.31	1574.89
469.52	1468.39
469.72	1638.38
469.92	1603.56
470.13	1576.94
470.33	1542.12
470.53	1753.06
470.73	2033.63
470.94	2437.08
471.14	2400.22
471.34	2654.17
471.54	2441.18
471.75	2289.63
471.95	1945.57
472.15	1910.75
472.36	1974.24
472.56	1939.43
472.76	1900.52
472.96	1863.65
473.17	1796.07
473.37	1828.84
473.57	1748.97
473.77	1677.29
473.98	1603.56
474.18	1535.98
474.38	1636.33
474.58	1527.78
474.79	1611.75
474.99	1574.89
475.19	1583.08
475.39	1484.78
475.60	1533.93
475.80	1546.22
476.00	1564.65
476.20	1548.26
476.41	1552.36
476.61	1587.18
476.81	1617.90
477.01	1462.25
477.21	1632.23
477.42	1568.74
477.62	1458.15
477.82	1560.55
478.02	1562.60
478.23	1509.35
478.43	1462.25
478.63	1591.27
478.83	1591.27
479.03	1488.87
479.24	1548.26
479.44	1609.70
479.64	1521.64
479.84	1466.35
480.04	1425.39
480.25	1585.13
480.45	1488.87
480.65	1531.88
480.85	1548.26
481.06	1480.68
481.26	1521.64
481.46	1540.07
481.66	1531.88
481.86	1490.92
482.06	1546.22
482.27	1595.37
482.47	1472.49
482.67	1550.31
482.87	1517.54
483.07	1538.02
483.28	1613.80
483.48	1501.16
483.68	1552.36
483.88	1525.74
484.08	1482.73
484.29	1499.11
484.49	1535.98
484.69	1515.50
484.89	1570.79
485.09	1603.56
485.29	1556.46
485.50	1613.80
485.70	1456.11
485.90	1634.28
486.10	1521.64
486.30	1562.60
486.50	1667.05
486.71	1560.55
486.91	1626.09
487.11	1593.32
487.31	1513.45
487.51	1497.07
487.71	1468.39
487.91	1581.03
488.12	1529.83
488.32	1415.15
488.52	1519.59
488.72	1503.21
488.92	1581.03
489.12	1589.22
489.32	1650.66
489.53	1544.17
489.73	1476.59
489.93	1638.38
490.13	1538.02
490.33	1513.45
490.53	1601.51
490.73	1509.35
490.94	1501.16
491.14	1615.85
491.34	1730.53
491.54	2109.41
491.74	2691.03
491.94	3016.66
492.14	3295.18
492.34	3272.65
492.54	2856.92
492.75	2488.28
492.95	2523.10
493.15	2191.33
493.35	2121.70
493.55	2133.98
493.75	2047.97
493.95	2072.54
494.15	1875.94
494.35	1753.06
494.56	1736.68
494.76	1693.67
494.96	1628.14
495.16	1660.90
495.36	1630.18
495.56	1611.75
495.76	1540.07
495.96	1488.87
496.16	1507.30
496.36	1646.57
496.56	1525.74
496.77	1517.54
496.97	1558.50
497.17	1587.18
497.37	1519.59
497.57	1574.89
497.77	1544.17
497.97	1538.02
498.17	1558.50
498.37	1490.92
498.57	1581.03
498.77	1505.26
498.97	1599.46
499.17	1642.47
499.38	1492.97
499.58	1527.78
499.78	1644.52
499.98	1634.28
500.18	1607.66
500.38	1550.31
500.58	1855.46
500.78	2635.74
500.98	5146.55
501.18	6682.52
501.38	8378.24
501.58	8879.99
501.78	8054.66
501.98	6229.92
502.18	5441.45
502.38	4644.79
502.58	4231.10
502.78	3917.76
502.98	3723.21
503.18	3700.68
503.38	3444.68
503.59	3110.86
503.79	2768.85
503.99	2559.96
504.19	2316.25
504.39	2144.22
504.59	1990.63
504.79	2002.91
504.99	1914.85
505.19	1753.06
505.39	1693.67
505.59	1769.44
505.79	1701.86
505.99	1662.95
506.19	1665.00
506.39	1665.00
506.59	1535.98
506.79	1609.70
506.99	1581.03
507.19	1599.46
507.39	1558.50
507.59	1499.11
507.79	1538.02
507.99	1556.46
508.19	1576.94
508.39	1462.25
508.59	1540.07
508.79	1599.46
508.99	1646.57
509.19	1519.59
509.39	1611.75
509.59	1527.78
509.79	1540.07
509.99	1544.17
510.19	1660.90
510.39	1587.18
510.59	1566.70
510.79	1521.64
510.99	1525.74
511.19	1564.65
511.39	1603.56
511.59	1638.38
511.79	1570.79
511.99	1656.81
512.19	1605.61
512.38	1527.78
512.58	1558.50
512.78	1574.89
512.98	1568.74
513.18	1697.77
513.38	1458.15
513.58	1593.32
513.78	1521.64
513.98	1626.09
514.18	1529.83
514.38	1529.83
514.58	1578.98
514.78	1519.59
514.98	1474.54
515.18	1544.17
515.38	1525.74
515.58	1574.89
515.78	1501.16
515.98	1495.02
516.18	1562.60
516.38	1507.30
516.57	1466.35
516.77	1529.83
516.97	1548.26
517.17	1476.59
517.37	1492.97
517.57	1531.88
517.77	1572.84
517.97	1544.17
518.17	1560.55
518.37	1470.44
518.57	1521.64
518.77	1523.69
518.97	1556.46
519.16	1581.03
519.36	1554.41
519.56	1482.73
519.76	1507.30
519.96	1533.93
520.16	1628.14
520.36	1478.63
520.56	1607.66
520.76	1452.01
520.96	1552.36
521.16	1572.84
521.35	1464.30
521.55	1511.40
521.75	1564.65
521.95	1492.97
522.15	1531.88
522.35	1478.63
522.55	1531.88
522.75	1576.94
522.95	1552.36
523.14	1523.69
523.34	1495.02
523.54	1605.61
523.74	1525.74
523.94	1533.93
524.14	1495.02
524.34	1548.26
524.54	1511.40
524.73	1560.55
524.93	1572.84
525.13	1501.16
525.33	1560.55
525.53	1636.33
525.73	1529.83
525.93	1533.93
526.13	1495.02
526.32	1566.70
526.52	1527.78
526.72	1556.46
526.92	1546.22
527.12	1517.54
527.32	1521.64
527.52	1591.27
527.71	1525.74
527.91	1548.26
528.11	1538.02
528.31	1576.94
528.51	1503.21
528.71	1556.46
528.90	1585.13
529.10	1593.32
529.30	1589.22
529.50	1443.82
529.70	1593.32
529.90	1486.83
530.09	1507.30
530.29	1511.40
530.49	1538.02
530.69	1634.28
530.89	1587.18
531.09	1556.46
531.28	1533.93
531.48	1538.02
531.68	1531.88
531.88	1611.75
532.08	1578.98
532.28	1533.93
532.47	1624.04
532.67	1595.37
532.87	1603.56
533.07	1513.45
533.27	1517.54
533.46	1576.94
533.66	1490.92
533.86	1560.55
534.06	1529.83
534.26	1574.89
534.45	1550.31
534.65	1601.51
534.85	1591.27
535.05	1495.02
535.25	1628.14
535.44	1464.30
535.64	1552.36
535.84	1488.87
536.04	1486.83
536.24	1464.30
536.43	1517.54
536.63	1648.61
536.83	1540.07
537.03	1564.65
537.22	1482.73
537.42	1521.64
537.62	1556.46
537.82	1482.73
538.02	1570.79
538.21	1591.27
538.41	1628.14
538.61	1509.35
538.81	1578.98
539.00	1535.98
539.20	1447.91
539.40	1472.49
539.60	1589.22
539.79	1621.99
539.99	1501.16
540.19	1609.70
540.39	1495.02
540.58	1531.88
540.78	1591.27
540.98	1533.93
541.18	1630.18
541.37	1603.56
541.57	1568.74
541.77	1568.74
541.97	1515.50
542.16	1464.30
542.36	1525.74
542.56	1550.31
542.76	1644.52
542.95	1570.79
543.15	1554.41
543.35	1533.93
543.54	1501.16
543.74	1499.11
543.94	1607.66
544.14	1548.26
544.33	1572.84
544.53	1492.97
544.73	1517.54
544.93	1558.50
545.12	1517.54
545.32	1513.45
545.52	1484.78
545.71	1503.21
545.91	1554.41
546.11	1517.54
546.30	1509.35
546.50	1548.26
546.70	1540.07
546.90	1578.98
547.09	1427.43
547.29	1523.69
547.49	1533.93
547.68	1566.70
547.88	1544.17
548.08	1515.50
548.27	1918.95
548.47	1517.54
548.67	1576.94
548.87	1509.35
549.06	1492.97
549.26	1578.98
549.46	1554.41
549.65	1495.02
549.85	1542.12
550.05	1548.26
550.24	1517.54
550.44	1527.78
550.64	1568.74
550.83	1525.74
551.03	1578.98
551.23	1544.17
551.42	1562.60
551.62	1495.02
551.82	1568.74
552.01	1529.83
552.21	1550.31
552.41	1550.31
552.60	1531.88
552.80	1603.56
553.00	1521.64
553.19	1564.65
553.39	1593.32
553.59	1478.63
553.78	1540.07
553.98	1525.74
554.17	1497.07
554.37	1576.94
554.57	1519.59
554.76	1513.45
554.96	1454.06
555.16	1529.83
555.35	1497.07
555.55	1597.42
555.75	1560.55
555.94	1648.61
556.14	1396.71
556.33	1634.28
556.53	1552.36
556.73	1513.45
556.92	1509.35
557.12	1576.94
557.32	1656.81
557.51	1591.27
557.71	1556.46
557.90	1593.32
558.10	1611.75
558.30	1617.90
558.49	1615.85
558.69	1486.83
558.88	1521.64
559.08	1626.09
559.28	1521.64
559.47	1583.08
559.67	1562.60
559.86	1636.33
560.06	1488.87
560.26	1474.54
560.45	1591.27
560.65	1585.13
560.84	1605.61
561.04	1499.11
561.24	1542.12
561.43	1462.25
561.63	1595.37
561.82	1574.89
562.02	1554.41
562.22	1566.70
562.41	1511.40
562.61	1515.50
562.80	1511.40
563.00	1652.71
563.19	1529.83
563.39	1599.46
563.59	1607.66
563.78	1452.01
563.98	1550.31
564.17	1507.30
564.37	1452.01
564.56	1525.74
564.76	1470.44
564.96	1599.46
565.15	1560.55
565.35	1638.38
565.54	1478.63
565.74	1538.02
565.93	1636.33
566.13	1566.70
566.32	1546.22
566.52	1624.04
566.71	1544.17
566.91	1531.88
567.11	1550.31
567.30	1519.59
567.50	1533.93
567.69	1554.41
567.89	1517.54
568.08	1478.63
568.28	1511.40
568.47	1552.36
568.67	1517.54
568.86	1558.50
569.06	1642.47
569.25	1601.51
569.45	1454.06
569.64	1517.54
569.84	1607.66
570.04	1554.41
570.23	1509.35
570.43	1538.02
570.62	1525.74
570.82	1599.46
571.01	1472.49
571.21	1521.64
571.40	1480.68
571.60	1591.27
571.79	1566.70
571.99	1525.74
572.18	1533.93
572.38	1587.18
572.57	1468.39
572.77	1556.46
572.96	1705.96
573.16	1523.69
573.35	1523.69
573.55	1667.05
573.74	1595.37
573.94	1574.89
574.13	1495.02
574.33	1538.02
574.52	1662.95
574.71	1511.40
574.91	1531.88
575.10	1585.13
575.30	1538.02
575.49	1503.21
575.69	1560.55
575.88	1667.05
576.08	1636.33
576.27	1640.42
576.47	1603.56
576.66	1662.95
576.86	1648.61
577.05	1570.79
577.25	1613.80
577.44	1759.21
577.64	1617.90
577.83	1478.63
578.02	1574.89
578.22	1632.23
578.41	1642.47
578.61	1445.87
578.80	1560.55
579.00	1615.85
579.19	1550.31
579.39	1574.89
579.58	1691.62
579.77	1601.51
579.97	1607.66
580.16	1650.66
580.36	1640.42
580.55	1646.57
580.75	1576.94
580.94	1607.66
581.13	1662.95
581.33	1662.95
581.52	1667.05
581.72	1679.33
581.91	1710.05
582.11	1607.66
582.30	1621.99
582.49	1667.05
582.69	1636.33
582.88	1626.09
583.08	1599.46
583.27	1665.00
583.47	1587.18
583.66	1525.74
583.85	1601.51
584.05	1519.59
584.24	1650.66
584.44	1574.89
584.63	1689.57
584.82	1669.09
585.02	1701.86
585.21	1701.86
585.41	1740.77
585.60	1728.49
585.79	1822.69
585.99	1769.44
586.18	1804.26
586.37	2074.59
586.57	3155.92
586.76	9768.81
586.96	27731.54
587.15	44578.14
587.34	55006.39
587.54	61682.77
587.73	60116.07
587.93	44172.64
588.12	32382.48
588.31	25933.43
588.51	22398.63
588.70	19906.26
588.89	18419.43
589.09	17174.27
589.28	15372.05
589.47	13311.80
589.67	11255.64
589.86	9179.00
590.06	6899.61
590.25	5035.96
590.44	3968.96
590.64	2963.41
590.83	2279.39
591.02	2035.68
591.22	1824.74
591.41	1712.10
591.60	1710.05
591.80	1755.11
591.99	1636.33
592.18	1613.80
592.38	1632.23
592.57	1568.74
592.76	1722.34
592.96	1542.12
593.15	1642.47
593.34	1615.85
593.54	1632.23
593.73	1587.18
593.92	1619.94
594.12	1568.74
594.31	1619.94
594.50	1716.20
594.70	1597.42
594.89	1667.05
595.08	1515.50
595.28	1591.27
595.47	1748.97
595.66	1558.50
595.86	1503.21
596.05	1607.66
596.24	1533.93
596.43	1644.52
596.63	1632.23
596.82	1556.46
597.01	1671.14
597.21	1697.77
597.40	1607.66
597.59	1521.64
597.79	1589.22
597.98	1632.23
598.17	1519.59
598.36	1576.94
598.56	1585.13
598.75	1478.63
598.94	1595.37
599.14	1591.27
599.33	1513.45
599.52	1619.94
599.71	1595.37
599.91	1587.18
600.10	1591.27
600.29	1564.65
600.48	1564.65
600.68	1548.26
600.87	1617.90
601.06	1593.32
601.26	1591.27
601.45	1570.79
601.64	1591.27
601.83	1632.23
602.03	1570.79
602.22	1556.46
602.41	1654.76
602.60	1660.90
602.80	1554.41
602.99	1560.55
603.18	1511.40
603.37	1519.59
603.57	1527.78
603.76	1495.02
603.95	1585.13
604.14	1560.55
604.34	1550.31
604.53	1503.21
604.72	1511.40
604.91	1560.55
605.10	1593.32
605.30	1456.11
605.49	1619.94
605.68	1675.24
605.87	1507.30
606.07	1447.91
606.26	1587.18
606.45	1591.27
606.64	1601.51
606.84	1570.79
607.03	1621.99
607.22	1636.33
607.41	1634.28
607.60	1562.60
607.80	1552.36
607.99	1509.35
608.18	1552.36
608.37	1640.42
608.56	1505.26
608.76	1671.14
608.95	1628.14
609.14	1593.32
609.33	1597.42
609.52	1716.20
609.72	1619.94
609.91	1681.38
610.10	1617.90
610.29	1644.52
610.48	1581.03
610.68	1630.18
610.87	1552.36
611.06	1601.51
611.25	1574.89
611.44	1615.85
611.63	1585.13
611.83	1601.51
612.02	1406.95
612.21	1619.94
612.40	1468.39
612.59	1497.07
612.79	1521.64
612.98	1574.89
613.17	1634.28
613.36	1611.75
613.55	1679.33
613.74	1613.80
613.93	1679.33
614.13	1761.25
614.32	1822.69
614.51	1779.68
614.70	1708.01
614.89	1634.28
615.08	1601.51
615.28	1896.42
615.47	1636.33
615.66	1589.22
615.85	1624.04
616.04	1630.18
616.23	1640.42
616.42	1605.61
616.62	1574.89
616.81	1634.28
617.00	1566.70
617.19	1566.70
617.38	1542.12
617.57	1605.61
617.76	1548.26
617.95	1583.08
618.15	1609.70
618.34	1609.70
618.53	1495.02
618.72	1624.04
618.91	1578.98
619.10	1611.75
619.29	1554.41
619.48	1581.03
619.68	1495.02
619.87	1511.40
620.06	1419.24
620.25	1601.51
620.44	1513.45
620.63	1609.70
620.82	1560.55
621.01	1587.18
621.20	1574.89
621.39	1578.98
621.59	1593.32
621.78	1583.08
621.97	1546.22
622.16	1554.41
622.35	1611.75
622.54	1619.94
622.73	1589.22
622.92	1497.07
623.11	1591.27
623.30	1546.22
623.49	1570.79
623.68	1484.78
623.88	1581.03
624.07	1480.68
624.26	1562.60
624.45	1566.70
624.64	1533.93
624.83	1564.65
625.02	1525.74
625.21	1509.35
625.40	1488.87
625.59	1595.37
625.78	1525.74
625.97	1605.61
626.16	1667.05
626.35	1589.22
626.54	1595.37
626.74	1759.21
626.93	1599.46
627.12	1628.14
627.31	1576.94
627.50	1621.99
627.69	1648.61
627.88	1529.83
628.07	1525.74
628.26	1429.48
628.45	1511.40
628.64	1449.96
628.83	1548.26
629.02	1566.70
629.21	1540.07
629.40	1574.89
629.59	1464.30
629.78	1585.13
629.97	1626.09
630.16	1595.37
630.35	1505.26
630.54	1574.89
630.73	1564.65
630.92	1527.78
631.11	1509.35
631.30	1542.12
631.49	1583.08
631.68	1581.03
631.87	1593.32
632.06	1476.59
632.25	1650.66
632.44	1546.22
632.63	1570.79
632.82	1544.17
633.01	1609.70
633.20	1714.15
633.39	1624.04
633.58	1677.29
633.77	1617.90
633.96	1619.94
634.15	1560.55
634.34	1658.85
634.53	1499.11
634.72	1484.78
634.91	1484.78
635.10	1558.50
635.29	1644.52
635.48	1589.22
635.67	1507.30
635.86	1499.11
636.05	1609.70
636.24	1523.69
636.43	1544.17
636.62	1603.56
636.81	1427.43
637.00	1609.70
637.19	1558.50
637.38	1564.65
637.57	1595.37
637.76	1683.43
637.95	1669.09
638.14	1591.27
638.33	1650.66
638.52	1619.94
638.71	1562.60
638.89	1525.74
639.08	1724.39
639.27	1609.70
639.46	1648.61
639.65	1900.52
639.84	2041.82
640.03	2185.18
640.22	2201.57
640.41	2215.90
640.60	1892.32
640.79	1882.08
640.98	1671.14
641.17	1777.64
641.36	1734.63
641.55	1763.30
641.74	1650.66
641.92	1619.94
642.11	1611.75
642.30	1574.89
642.49	1624.04
642.68	1617.90
642.87	1619.94
643.06	1542.12
643.25	1492.97
643.44	1505.26
643.63	1513.45
643.82	1603.56
644.00	1564.65
644.19	1540.07
644.38	1525.74
644.57	1601.51
644.76	1603.56
644.95	1556.46
645.14	1595.37
645.33	1568.74
645.52	1476.59
645.71	1464.30
645.89	1546.22
646.08	1527.78
646.27	1492.97
646.46	1599.46
646.65	1368.04
646.84	1599.46
647.03	1574.89
647.22	1611.75
647.40	1560.55
647.59	1511.40
647.78	1474.54
647.97	1538.02
648.16	1558.50
648.35	1609.70
648.54	1585.13
648.73	1484.78
648.91	1540.07
649.10	1587.18
649.29	1597.42
649.48	1515.50
649.67	1538.02
649.86	1576.94
650.05	1583.08
650.23	1726.44
650.42	1636.33
650.61	1705.96
650.80	1773.54
650.99	1740.77
651.18	1658.85
651.36	1628.14
651.55	1527.78
651.74	1617.90
651.93	1566.70
652.12	1550.31
652.31	1564.65
652.49	1531.88
652.68	1609.70
652.87	1566.70
653.06	1531.88
653.25	1695.72
653.44	1513.45
653.62	1648.61
653.81	1583.08
654.00	1568.74
654.19	1564.65
654.38	1656.81
654.56	1556.46
654.75	1554.41
654.94	1552.36
655.13	1538.02
655.32	1556.46
655.51	1564.65
655.69	1566.70
655.88	1574.89
656.07	1568.74
656.26	1583.08
656.45	1462.25
656.63	1535.98
656.82	1581.03
657.01	1550.31
657.20	1542.12
657.38	1603.56
657.57	1542.12
657.76	1505.26
657.95	1495.02
658.14	1482.73
658.32	1605.61
658.51	1497.07
658.70	1566.70
658.89	1550.31
659.08	1601.51
659.26	1642.47
659.45	1593.32
659.64	1603.56
659.83	1495.02
660.01	1796.07
660.20	1587.18
660.39	1650.66
660.58	1468.39
660.76	1595.37
660.95	1462.25
661.14	1624.04
661.33	1499.11
661.51	1568.74
661.70	1556.46
661.89	1609.70
662.08	1658.85
662.26	1509.35
662.45	1529.83
662.64	1587.18
662.83	1619.94
663.01	1572.84
663.20	1509.35
663.39	1619.94
663.58	1548.26
663.76	1531.88
663.95	1531.88
664.14	1531.88
664.32	1505.26
664.51	1470.44
664.70	1490.92
664.89	1605.61
665.07	1478.63
665.26	1624.04
665.45	1507.30
665.64	1593.32
665.82	1458.15
666.01	1585.13
666.20	1447.91
666.38	1609.70
666.57	1683.43
666.76	1794.02
666.95	3049.43
667.13	7769.99
667.32	15666.96
667.51	20487.88
667.69	23879.32
667.88	25513.59
668.07	22517.42
668.25	15730.45
668.44	12500.80
668.63	10200.93
668.81	8849.27
669.00	7747.47
669.19	7184.27
669.38	6512.54
669.56	5582.76
669.75	4880.31
669.94	4116.42
670.12	3364.81
670.31	2789.33
670.50	2467.80
670.68	2156.51
670.87	1810.40
671.06	1726.44
671.24	1755.11
671.43	1697.77
671.62	1675.24
671.80	1640.42
671.99	1660.90
672.18	1591.27
672.36	1533.93
672.55	1626.09
672.74	1546.22
672.92	1613.80
673.11	1585.13
673.29	1515.50
673.48	1601.51
673.67	1564.65
673.85	1615.85
674.04	1552.36
674.23	1521.64
674.41	1595.37
674.60	1525.74
674.79	1478.63
674.97	1507.30
675.16	1634.28
675.34	1609.70
675.53	1583.08
675.72	1595.37
675.90	1572.84
676.09	1423.34
676.28	1578.98
676.46	1535.98
676.65	1613.80
676.83	1495.02
677.02	1564.65
677.21	1574.89
677.39	1544.17
677.58	1517.54
677.77	1542.12
677.95	1535.98
678.14	1517.54
678.32	1535.98
678.51	1513.45
678.70	1689.57
678.88	1535.98
679.07	1509.35
679.25	1556.46
679.44	1497.07
679.63	1540.07
679.81	1583.08
680.00	1552.36
680.18	1615.85
680.37	1554.41
680.55	1509.35
680.74	1441.77
680.93	1509.35
681.11	1550.31
681.30	1558.50
681.48	1617.90
681.67	1570.79
681.85	1550.31
682.04	1482.73
682.23	1570.79
682.41	1515.50
682.60	1529.83
682.78	1583.08
682.97	1472.49
683.15	1560.55
683.34	1574.89
683.53	1599.46
683.71	1452.01
683.90	1585.13
684.08	1613.80
684.27	1509.35
684.45	1589.22
684.64	1585.13
684.82	1497.07
685.01	1572.84
685.19	1654.76
685.38	1619.94
685.57	1540.07
685.75	1464.30
685.94	1486.83
686.12	1509.35
686.31	1570.79
686.49	1603.56
686.68	1488.87
686.86	1593.32
687.05	1468.39
687.23	1556.46
687.42	1511.40
687.60	1523.69
687.79	1509.35
687.97	1673.19
688.16	1558.50
688.34	1556.46
688.53	1445.87
688.71	1552.36
688.90	1615.85
689.08	1509.35
689.27	1421.29
689.45	1564.65
689.64	1497.07
689.82	1519.59
690.01	1570.79
690.19	1595.37
690.38	1535.98
690.56	1640.42
690.75	1527.78
690.93	1478.63
691.12	1505.26
691.30	1634.28
691.49	1472.49
691.67	1517.54
691.86	1574.89
692.04	1529.83
692.23	1468.39
692.41	1558.50
692.60	1724.39
692.78	1638.38
692.97	1593.32
693.15	1646.57
693.34	1722.34
693.52	1632.23
693.71	1546.22
693.89	1556.46
694.08	1486.83
694.26	1576.94
694.44	1558.50
694.63	1619.94
694.81	1501.16
695.00	1507.30
695.18	1558.50
695.37	1753.06
695.55	1581.03
695.74	1570.79
695.92	1570.79
696.10	1605.61
696.29	1497.07
696.47	1546.22
696.66	1398.76
696.84	1529.83
697.03	1513.45
697.21	1576.94
697.40	2041.82
697.58	1640.42
697.76	1437.67
697.95	1505.26
698.13	1517.54
698.32	1497.07
698.50	1513.45
698.68	1615.85
698.87	1595.37
699.05	1619.94
699.24	1587.18
699.42	1499.11
699.61	1566.70
699.79	1529.83
699.97	1562.60
700.16	1552.36
700.34	1460.20
700.53	1523.69
700.71	1595.37
700.89	1554.41
701.08	1527.78
701.26	1490.92
701.45	1978.34
701.63	1490.92
701.81	1566.70
702.00	1560.55
702.18	1570.79
702.37	1509.35
702.55	1626.09
702.73	1699.81
702.92	1714.15
703.10	1826.79
703.28	1789.92
703.47	1753.06
703.65	1740.77
703.84	1759.21
704.02	1679.33
704.20	1654.76
704.39	1605.61
704.57	1583.08
704.75	1703.91
704.94	1650.66
705.12	1607.66
705.30	1607.66
705.49	1808.36
705.67	2899.92
705.86	7647.12
706.04	14800.67
706.22	18835.17
706.41	21583.54
706.59	23053.98
706.77	21239.48
706.96	14966.56
707.14	11718.48
707.32	9961.32
707.51	8613.76
707.69	7780.23
707.87	6897.56
708.06	5801.90
708.24	4798.39
708.42	3719.11
708.61	3010.51
708.79	2273.25
708.97	1972.19
709.16	1767.40
709.34	1730.53
709.52	1673.19
709.71	1718.25
709.89	1697.77
710.07	1542.12
710.26	1581.03
710.44	1529.83
710.62	1619.94
710.80	1562.60
710.99	1607.66
711.17	1578.98
711.35	1509.35
711.54	1566.70
711.72	1560.55
711.90	1542.12
712.09	1615.85
712.27	1505.26
712.45	1562.60
712.63	1501.16
712.82	1525.74
713.00	1595.37
713.18	1585.13
713.37	1515.50
713.55	1656.81
713.73	1574.89
713.91	1599.46
714.10	1521.64
714.28	1515.50
714.46	1566.70
714.65	1568.74
714.83	1576.94
715.01	1560.55
715.19	1558.50
715.38	1587.18
715.56	1533.93
715.74	1576.94
715.92	1495.02
716.11	1589.22
716.29	1452.01
716.47	1540.07
716.65	1544.17
716.84	1476.59
717.02	1531.88
717.20	1452.01
717.38	1603.56
717.57	1632.23
717.75	1544.17
717.93	1552.36
718.11	1497.07
718.30	1421.29
718.48	1550.31
718.66	1574.89
718.84	1572.84
719.03	1517.54
719.21	1505.26
719.39	1611.75
719.57	1599.46
719.75	1673.19
719.94	1468.39
720.12	1492.97
720.30	1529.83
720.48	1648.61
720.67	1583.08
720.85	1478.63
721.03	1531.88
721.21	1523.69
721.39	1583.08
721.58	1628.14
721.76	1515.50
721.94	1497.07
722.12	1642.47
722.30	1564.65
722.49	1576.94
722.67	1538.02
722.85	1525.74
723.03	1460.20
723.21	1439.72
723.40	1517.54
723.58	1574.89
723.76	1576.94
723.94	1656.81
724.12	1609.70
724.30	1667.05
724.49	1656.81
724.67	1552.36
724.85	1665.00
725.03	1550.31
725.21	1609.70
725.40	1634.28
725.58	1552.36
725.76	1626.09
725.94	1576.94
726.12	1544.17
726.30	1556.46
726.49	1546.22
726.67	1470.44
726.85	1509.35
727.03	1576.94
727.21	1628.14
727.39	2195.42
727.57	3340.24
727.76	4284.35
727.94	4900.79
728.12	5027.76
728.30	5058.48
728.48	4331.45
728.66	3590.09
728.84	3237.84
729.03	2858.96
729.21	2650.07
729.39	2334.68
729.57	2029.54
729.75	1882.08
729.93	1781.73
730.11	1718.25
730.30	1540.07
730.48	1538.02
730.66	1652.71
730.84	1564.65
731.02	1550.31
731.20	1490.92
731.38	1552.36
731.56	1460.20
731.74	1503.21
731.93	1564.65
732.11	1540.07
732.29	1513.45
732.47	1574.89
732.65	1519.59
732.83	1628.14
733.01	1583.08
733.19	1415.15
733.37	1593.32
733.56	1591.27
733.74	1482.73
733.92	1576.94
734.10	1511.40
734.28	1558.50
734.46	1413.10
734.64	1587.18
734.82	1527.78
735.00	1488.87
735.18	1560.55
735.36	1503.21
735.54	1533.93
735.73	1589.22
735.91	1560.55
736.09	1540.07
736.27	1560.55
736.45	1570.79
736.63	1449.96
736.81	1509.35
736.99	1503.21
737.17	1660.90
737.35	1495.02
737.53	1566.70
737.71	1531.88
737.89	1595.37
738.07	1513.45
738.25	1458.15
738.43	1476.59
738.61	1521.64
738.80	1411.05
738.98	1497.07
739.16	1499.11
739.34	1482.73
739.52	1560.55
739.70	1533.93
739.88	1560.55
740.06	1593.32
740.24	1443.82
740.42	1671.14
740.60	1445.87
740.78	1529.83
740.96	1427.43
741.14	1452.01
741.32	1523.69
741.50	1470.44
741.68	1560.55
741.86	1587.18
742.04	1523.69
742.22	1470.44
742.40	1542.12
742.58	1501.16
742.76	1556.46
742.94	1636.33
743.12	1452.01
743.30	1558.50
743.48	1605.61
743.66	1513.45
743.84	1576.94
744.02	1558.50
744.20	1544.17
744.38	1558.50
744.56	1464.30
744.74	1652.71
744.92	1509.35
745.10	1603.56
745.28	1583.08
745.46	1646.57
745.64	1556.46
745.82	1589.22
746.00	1538.02
746.18	1523.69
746.36	1509.35
746.54	1581.03
746.72	1581.03
746.90	1490.92
747.08	1558.50
747.26	1513.45
747.44	1599.46
747.62	1585.13
747.80	1581.03
747.98	1628.14
748.15	1544.17
748.33	1677.29
748.51	1595.37
748.69	1497.07
748.87	1554.41
749.05	1587.18
749.23	1542.12
749.41	1546.22
749.59	1519.59
749.77	1505.26
749.95	1474.54
750.13	1443.82
750.31	1574.89
750.49	1558.50
750.67	1554.41
750.85	1628.14
751.03	1632.23
751.20	1607.66
751.38	1548.26
751.56	1517.54
751.74	1507.30
751.92	1495.02
752.10	1462.25
752.28	1615.85
752.46	1499.11
752.64	1542.12
752.82	1525.74
753.00	1521.64
753.18	1486.83
753.35	1570.79
753.53	1511.40
753.71	1525.74
753.89	1615.85
754.07	1570.79
754.25	1570.79
754.43	1501.16
754.61	1482.73
754.79	1552.36
754.97	1509.35
755.14	1556.46
755.32	1501.16
755.50	1574.89
755.68	1497.07
755.86	1501.16
756.04	1538.02
756.22	1449.96
756.40	1562.60
756.57	1640.42
756.75	1497.07
756.93	1529.83
757.11	1550.31
757.29	1558.50
757.47	1511.40
757.65	1527.78
757.82	1419.24
758.00	1478.63
758.18	1585.13
758.36	1466.35
758.54	1542.12
758.72	1398.76
758.90	1656.81
759.07	1550.31
759.25	1468.39
759.43	1597.42
759.61	1484.78
759.79	1949.67
759.97	1605.61
760.15	1480.68
760.32	1576.94
760.50	1636.33
760.68	1689.57
760.86	1409.00
761.04	1574.89
761.22	1595.37
761.39	1535.98
761.57	1531.88
761.75	1535.98
761.93	1591.27
762.11	1552.36
762.28	1560.55
762.46	1456.11
762.64	1566.70
762.82	1482.73
763.00	1587.18
763.18	1554.41
763.35	1478.63
763.53	1550.31
763.71	1527.78
763.89	1492.97
764.07	1490.92
764.24	1548.26
764.42	1550.31
764.60	1525.74
764.78	1548.26
764.96	1585.13
765.13	1583.08
765.31	1456.11
765.49	1525.74
765.67	1474.54
765.84	1449.96
766.02	1472.49
766.20	1417.19
766.38	1566.70
766.56	1599.46
766.73	1562.60
766.91	1556.46
767.09	1564.65
767.27	1572.84
767.44	1538.02
767.62	1527.78
767.80	1552.36
767.98	1517.54
768.15	1548.26
768.33	1501.16
768.51	1525.74
768.69	1556.46
768.87	1527.78
769.04	1540.07
769.22	1656.81
769.40	1523.69
769.58	1589.22
769.75	1589.22
769.93	1591.27
770.11	1515.50
770.28	1538.02
770.46	1564.65
770.64	1492.97
770.82	1552.36
770.99	1509.35
771.17	1564.65
771.35	1546.22
771.53	1589.22
771.70	1458.15
771.88	1521.64
772.06	1568.74
772.23	1585.13
772.41	1527.78
772.59	1517.54
772.77	1435.63
772.94	1472.49
773.12	1605.61
773.30	1486.83
773.47	1542.12
773.65	1466.35
773.83	1595.37
774.01	1550.31
774.18	1427.43
774.36	1615.85
774.54	1540.07
774.71	1570.79
774.89	1521.64
775.07	1454.06
775.24	1513.45
775.42	1542.12
775.60	1607.66
775.78	1466.35
775.95	1468.39
776.13	1517.54
776.31	1400.81
776.48	1527.78
776.66	1574.89
776.84	1570.79
777.01	1499.11
777.19	1497.07
777.37	1458.15
777.54	1550.31
777.72	1574.89
777.90	1595.37
778.07	1478.63
778.25	1630.18
778.43	1560.55
778.60	1572.84
778.78	1513.45
778.96	1634.28
779.13	1501.16
779.31	1621.99
779.49	1593.32
779.66	1544.17
779.84	1546.22
780.01	1540.07
780.19	1517.54
780.37	1572.84
780.54	1566.70
780.72	1495.02
780.90	1593.32
781.07	1480.68
781.25	1480.68
781.43	1574.89
781.60	1540.07
781.78	1615.85
781.95	1499.11
782.13	1550.31
782.31	1603.56
782.48	1490.92
782.66	1570.79
782.83	1626.09
783.01	1544.17
783.19	1523.69
783.36	1474.54
783.54	1460.20
783.72	1662.95
783.89	1521.64
784.07	1527.78
784.24	1566.70
784.42	1640.42
784.60	1523.69
784.77	1609.70
784.95	1400.81
785.12	1511.40
785.30	1546.22
785.47	1478.63
785.65	1505.26
785.83	1525.74
786.00	1523.69
786.18	1523.69
786.35	1538.02
786.53	1452.01
786.71	1621.99
786.88	1533.93
787.06	1542.12
787.23	1572.84
787.41	1454.06
787.58	1535.98
787.76	1535.98
787.94	1560.55
788.11	1560.55
788.29	1519.59
788.46	1468.39
788.64	1560.55
788.81	1439.72
788.99	1525.74
789.16	1501.16
789.34	1519.59
789.52	1517.54
789.69	1546.22
789.87	1400.81
790.04	1478.63
790.22	1529.83
790.39	1597.42
790.57	1488.87
790.74	1486.83
790.92	1607.66
791.09	1435.63
791.27	1558.50
791.44	1587.18
791.62	1574.89
791.79	1525.74
791.97	1486.83
792.15	1718.25
792.32	1521.64
792.50	1576.94
792.67	1566.70
792.85	1648.61
793.02	1560.55
793.20	1486.83
793.37	1464.30
793.55	1525.74
793.72	1548.26
793.90	1609.70
794.07	1578.98
794.25	1566.70
794.42	1501.16
794.60	1523.69
794.77	1564.65
794.95	1581.03
795.12	1521.64
795.30	1488.87
795.47	1411.05
795.65	1658.85
795.82	1591.27
796.00	1521.64
796.17	1593.32
796.34	1568.74
796.52	1589.22
796.69	1609.70
796.87	1595.37
797.04	1558.50
797.22	1570.79
797.39	1583.08
797.57	1540.07
797.74	1492.97
797.92	1509.35
798.09	1511.40
798.27	1636.33
798.44	1509.35
798.62	1462.25
798.79	1562.60
798.96	1597.42
799.14	1517.54
799.31	1667.05
799.49	1476.59
799.66	1497.07
799.84	1462.25
800.01	1429.48
800.19	1621.99
800.36	1423.34
800.53	1538.02
800.71	1562.60
800.88	1570.79
801.06	1519.59
801.23	1581.03
801.41	1509.35
801.58	1554.41
801.75	1533.93
801.93	1521.64
802.10	1542.12
802.28	1533.93
802.45	1566.70
802.63	1589.22
802.80	1568.74
802.97	1527.78
803.15	1581.03
803.32	1523.69
803.50	1505.26
803.67	1488.87
803.84	1529.83
804.02	1486.83
804.19	1540.07
804.37	1421.29
804.54	1495.02
804.71	1521.64
804.89	1495.02
805.06	1574.89
805.24	1533.93
805.41	1476.59
805.58	1519.59
805.76	1703.91
805.93	1538.02
806.10	1619.94
806.28	1591.27
806.45	1486.83
806.63	1585.13
806.80	1556.46
806.97	1564.65
807.15	1550.31
807.32	1585.13
807.49	1466.35
807.67	1515.50
807.84	1509.35
808.01	1499.11
808.19	1605.61
808.36	1652.71
808.54	1572.84
808.71	1550.31
808.88	1609.70
809.06	1597.42
809.23	1585.13
809.40	1521.64
809.58	1544.17
809.75	1560.55
809.92	1449.96
810.10	1589.22
810.27	1495.02
810.44	1621.99
810.62	1550.31
810.79	1527.78
810.96	1544.17
811.14	1583.08
811.31	1607.66
811.48	1517.54
811.66	1542.12
811.83	1599.46
812.00	1566.70
812.18	1497.07
812.35	1544.17
812.52	1468.39
812.69	1548.26
812.87	1515.50
813.04	1447.91
813.21	1533.93
813.39	1452.01
813.56	1488.87
813.73	1609.70
813.91	1505.26
814.08	1548.26
814.25	1585.13
814.42	1513.45
814.60	1576.94
814.77	1517.54
814.94	1517.54
815.12	1538.02
815.29	1527.78
815.46	1435.63
815.63	1544.17
815.81	1517.54
815.98	1521.64
816.15	1613.80
816.33	1482.73
816.50	1503.21
816.67	1474.54
816.84	1490.92
817.02	1531.88
817.19	1533.93
817.36	1554.41
817.53	1509.35
817.71	1513.45
817.88	1609.70
818.05	1535.98
818.22	1546.22
818.40	1644.52
818.57	1488.87
818.74	1540.07
818.91	1538.02
819.09	1548.26
819.26	1527.78
819.43	1472.49
819.60	1550.31
819.78	1542.12
819.95	1650.66
820.12	1570.79
820.29	1552.36
820.47	1628.14
820.64	1478.63
820.81	1531.88
820.98	1538.02
821.15	1556.46
821.33	1607.66
821.50	1503.21
821.67	1540.07
821.84	1548.26
822.02	1626.09
822.19	1554.41
822.36	1607.66
822.53	1591.27
822.70	1492.97
822.88	1552.36
823.05	1558.50
823.22	1583.08
823.39	1566.70
823.56	1552.36
823.74	1716.20
823.91	1570.79
824.08	1562.60
824.25	1447.91
824.42	1593.32
824.60	1535.98
824.77	1552.36
824.94	1470.44
825.11	1525.74
825.28	1398.76
825.45	1535.98
825.63	1470.44
825.80	1511.40
825.97	1533.93
826.14	1562.60
826.31	1433.58
826.48	1531.88
826.66	1542.12
826.83	1546.22
827.00	1478.63
827.17	1482.73
827.34	1519.59
827.51	1501.16
827.69	1476.59
827.86	1445.87
828.03	1449.96
828.20	1513.45
828.37	1556.46
828.54	1576.94
828.71	1460.20
828.89	1642.47
829.06	1507.30
829.23	1550.31
829.40	1581.03
829.57	1503.21
829.74	1570.79
829.91	1472.49
830.09	1519.59
830.26	1599.46
830.43	1638.38
830.60	1542.12
830.77	1562.60
830.94	1591.27
831.11	1503.21
831.28	1497.07
831.46	1558.50
831.63	1509.35
831.80	1548.26
831.97	1458.15
832.14	1525.74
832.31	1560.55
832.48	1572.84
832.65	1591.27
832.82	1583.08
832.99	1554.41
833.17	1546.22
833.34	1535.98
833.51	1488.87
833.68	1511.40
833.85	1544.17
834.02	1552.36
834.19	1521.64
834.36	1529.83
834.53	1529.83
834.70	1583.08
834.87	1605.61
835.04	1552.36
835.22	1585.13
835.39	1542.12
835.56	1488.87
835.73	1490.92
835.90	1572.84
836.07	1486.83
836.24	1495.02
836.41	1488.87
836.58	1497.07
836.75	1552.36
836.92	1509.35
837.09	1531.88
837.26	1558.50
837.43	1619.94
837.60	1511.40
837.77	1552.36
837.94	1562.60
838.12	1642.47
838.29	1556.46
838.46	1490.92
838.63	1488.87
838.80	1574.89
838.97	1665.00
839.14	1554.41
839.31	1615.85
839.48	1525.74
839.65	1462.25
839.82	1591.27
839.99	1572.84
840.16	1558.50
840.33	1492.97
840.50	1525.74
840.67	1503.21
840.84	1495.02
841.01	1505.26
841.18	1460.20
841.35	1490.92
841.52	1640.42
841.69	1589.22
841.86	1544.17
842.03	1482.73
842.20	1509.35
842.37	1570.79
842.54	1568.74
842.71	1429.48
842.88	1435.63
843.05	1525.74
843.22	1560.55
843.39	1566.70
843.56	1484.78
843.73	1529.83
843.90	1585.13
844.07	1484.78
844.24	1619.94
844.41	1568.74
844.58	1560.55
844.75	1578.98
844.92	1611.75
845.09	1482.73
845.26	1546.22
845.43	1554.41
845.60	1511.40
845.77	1658.85
845.94	1517.54
846.10	1513.45
846.27	1492.97
846.44	1486.83
846.61	1509.35
846.78	1548.26
846.95	1507.30
847.12	1546.22
847.29	1466.35
847.46	1486.83
847.63	1572.84
847.80	1490.92
847.97	1572.84
848.14	1619.94
848.31	1519.59
848.48	1449.96
848.65	1572.84
848.82	1546.22
848.98	1714.15
849.15	1527.78
849.32	1591.27
849.49	1576.94
849.66	1583.08
849.83	1601.51
850.00	1517.54
850.17	1566.70
850.34	1562.60
850.51	1499.11
850.68	1464.30
850.85	1665.00
851.01	1558.50
851.18	1544.17
851.35	1558.50
851.52	1611.75
851.69	1542.12
851.86	1433.58
852.03	1507.30
852.20	1527.78
852.37	1617.90
852.53	1495.02
852.70	1529.83
852.87	1634.28
853.04	1564.65
853.21	1513.45
853.38	1624.04
853.55	1560.55
853.72	1583.08
853.89	1525.74
854.05	1476.59
854.22	1546.22
854.39	1538.02
854.56	1574.89
854.73	1581.03
854.90	1492.97
855.07	1552.36
855.23	1535.98
855.40	1515.50
855.57	1497.07
855.74	1425.39
855.91	1687.53
856.08	1431.53
856.25	1425.39
856.41	1464.30
856.58	1511.40
856.75	1527.78
856.92	1495.02
857.09	1583.08
857.26	1585.13
857.42	1509.35
857.59	1550.31
857.76	1499.11
857.93	1484.78
858.10	1495.02
858.27	1505.26
858.43	1542.12
858.60	1515.50
858.77	1501.16
858.94	1488.87
859.11	1558.50
859.27	1552.36
859.44	1533.93
859.61	1601.51
859.78	1546.22
859.95	1562.60
860.12	1511.40
860.28	1609.70
860.45	1615.85
860.62	1538.02
860.79	1523.69
860.95	1480.68
861.12	1462.25
861.29	1486.83
861.46	1468.39
861.63	1484.78
861.79	1570.79
861.96	1452.01
862.13	1517.54
862.30	1591.27
862.47	1470.44
862.63	1421.29
862.80	1566.70
862.97	1550.31
863.14	1542.12
863.30	1527.78
863.47	1581.03
863.64	1642.47
863.81	1574.89
863.97	1501.16
864.14	1433.58
864.31	1533.93
864.48	1554.41
864.65	1570.79
864.81	1566.70
864.98	1613.80
865.15	1529.83
865.32	1634.28
865.48	1523.69
865.65	1665.00
865.82	1480.68
865.98	1585.13
866.15	1568.74
866.32	1490.92
866.49	1552.36
866.65	1646.57
866.82	1511.40
866.99	1552.36
867.16	1525.74
867.32	1560.55
867.49	1495.02
867.66	1505.26
867.83	1480.68
867.99	1486.83
868.16	1519.59
868.33	1462.25
868.49	1515.50
868.66	1546.22
868.83	1495.02
868.99	1529.83
869.16	1550.31
869.33	1544.17
869.50	1609.70
869.66	1587.18
869.83	1568.74
870.00	1437.67
870.16	1480.68
870.33	1511.40
870.50	1511.40
870.66	1517.54
870.83	1640.42
871.00	1476.59
871.17	1587.18
871.33	1531.88
871.50	1595.37
871.67	1525.74
871.83	1511.40
872.00	1613.80
872.17	1482.73
872.33	1650.66
872.50	1568.74
872.67	1464.30
872.83	1576.94
873.00	1591.27
873.17	1503.21
873.33	1546.22
873.50	1578.98
873.67	1531.88
873.83	1529.83
874.00	1486.83
874.16	1593.32
874.33	1531.88
874.50	1464.30
874.66	1521.64
874.83	1572.84
875.00	1642.47
875.16	1593.32
875.33	1574.89
875.50	1411.05
875.66	1509.35
875.83	1544.17
875.99	1599.46
876.16	1495.02
876.33	1509.35
876.49	1476.59
876.66	1613.80
876.83	1517.54
876.99	1495.02
877.16	1570.79
877.32	1499.11
877.49	1470.44
877.66	1552.36
877.82	1542.12
877.99	1619.94
878.15	1583.08
878.32	1527.78
878.49	1568.74
878.65	1515.50
878.82	1554.41
878.98	1437.67
879.15	1554.41
879.32	1556.46
879.48	1542.12
879.65	1570.79
879.81	1433.58
879.98	1470.44
880.15	1503.21
880.31	1597.42
880.48	1527.78
880.64	1615.85
880.81	1585.13
880.97	1628.14
881.14	1603.56
881.31	1458.15
881.47	1681.38
881.64	1519.59
881.80	1388.52
881.97	1570.79
882.13	1558.50
882.30	1429.48
882.47	1478.63
882.63	1523.69
882.80	1488.87
882.96	1517.54
883.13	1585.13
883.29	1533.93
883.46	1583.08
883.62	1589.22
883.79	1570.79
883.95	1572.84
884.12	1542.12
884.29	1576.94
884.45	1538.02
884.62	1544.17
884.78	1437.67
884.95	1568.74
885.11	1452.01
885.28	1556.46
885.44	1574.89
885.61	1574.89
885.77	1609.70
885.94	1550.31
886.10	1546.22
886.27	1501.16
886.43	1542.12
886.60	1660.90
886.76	1556.46
886.93	1497.07
887.09	1591.27
887.26	1507.30
887.42	1603.56
887.59	1609.70
887.75	1636.33
887.92	1562.60
888.08	1583.08
888.25	1593.32
888.41	1556.46
888.58	1513.45
888.74	1486.83
888.91	1552.36
>>>>>End Processed Spectral Data<<<<<
