SpectraSuite Data File
++++++++++++++++++++++++++++++++++++
Date: Tue May 03 12:55:36 CEST 2016
User: root
Dark Spectrum Present: No
Reference Spectrum Present: No
Number of Sampled Component Spectra: 1
Spectrometers: USB4C02835
Integration Time (usec): 100000 (USB4C02835)
Spectra Averaged: 1 (USB4C02835)
Boxcar Smoothing: 0 (USB4C02835)
Correct for Electrical Dark: No (USB4C02835)
Strobe/Lamp Enabled: No (USB4C02835)
Correct for Detector Non-linearity: No (USB4C02835)
Correct for Stray Light: No (USB4C02835)
Number of Pixels in Processed Spectrum: 3648
>>>>>Begin Processed Spectral Data<<<<<
177.47	1357.80
177.69	1357.80
177.91	1357.80
178.13	1437.67
178.36	1331.18
178.58	1497.07
178.80	1597.42
179.02	1486.83
179.24	1486.83
179.46	1462.25
179.68	1640.42
179.90	1503.21
180.13	1529.83
180.35	1501.16
180.57	1562.60
180.79	1621.99
181.01	1466.35
181.23	1607.66
181.45	1564.65
181.67	1542.12
181.90	1562.60
182.12	1507.30
182.34	1495.02
182.56	1613.80
182.78	1503.21
183.00	1505.26
183.22	1501.16
183.44	1380.33
183.66	1681.38
183.89	1583.08
184.11	1564.65
184.33	1595.37
184.55	1558.50
184.77	1509.35
184.99	1552.36
185.21	1527.78
185.43	1718.25
185.65	1521.64
185.87	1566.70
186.10	1640.42
186.32	1601.51
186.54	1540.07
186.76	1570.79
186.98	1613.80
187.20	1509.35
187.42	1533.93
187.64	1574.89
187.86	1458.15
188.08	1585.13
188.30	1535.98
188.52	1611.75
188.75	1609.70
188.97	1632.23
189.19	1419.24
189.41	1507.30
189.63	1511.40
189.85	1492.97
190.07	1409.00
190.29	1460.20
190.51	1595.37
190.73	1460.20
190.95	1611.75
191.17	1535.98
191.39	1454.06
191.61	1556.46
191.84	1525.74
192.06	1566.70
192.28	1550.31
192.50	1699.81
192.72	1538.02
192.94	1515.50
193.16	1544.17
193.38	1503.21
193.60	1548.26
193.82	1476.59
194.04	1535.98
194.26	1492.97
194.48	1495.02
194.70	1409.00
194.92	1406.95
195.14	1525.74
195.36	1517.54
195.58	1552.36
195.80	1474.54
196.02	1556.46
196.24	1521.64
196.46	1560.55
196.69	1554.41
196.91	1638.38
197.13	1626.09
197.35	1411.05
197.57	1560.55
197.79	1535.98
198.01	1576.94
198.23	1558.50
198.45	1603.56
198.67	1521.64
198.89	1533.93
199.11	1601.51
199.33	1511.40
199.55	1443.82
199.77	1587.18
199.99	1548.26
200.21	1570.79
200.43	1562.60
200.65	1517.54
200.87	1411.05
201.09	1634.28
201.31	1552.36
201.53	1585.13
201.75	1484.78
201.97	1486.83
202.19	1538.02
202.41	1511.40
202.63	1634.28
202.85	1525.74
203.07	1595.37
203.29	1476.59
203.51	1478.63
203.73	1509.35
203.95	1640.42
204.17	1519.59
204.39	1515.50
204.61	1546.22
204.83	1587.18
205.05	1525.74
205.27	1552.36
205.49	1638.38
205.71	1542.12
205.93	1531.88
206.15	1533.93
206.37	1517.54
206.59	1509.35
206.81	1505.26
207.03	1458.15
207.25	1429.48
207.47	1529.83
207.69	1527.78
207.91	1595.37
208.13	1634.28
208.34	1509.35
208.56	1490.92
208.78	1533.93
209.00	1535.98
209.22	1523.69
209.44	1558.50
209.66	1454.06
209.88	1490.92
210.10	1513.45
210.32	1525.74
210.54	1605.61
210.76	1546.22
210.98	1552.36
211.20	1427.43
211.42	1497.07
211.64	1613.80
211.86	1513.45
212.08	1583.08
212.30	1533.93
212.52	1523.69
212.74	1585.13
212.96	1490.92
213.17	1566.70
213.39	1546.22
213.61	1570.79
213.83	1538.02
214.05	1519.59
214.27	1484.78
214.49	1458.15
214.71	1511.40
214.93	1558.50
215.15	1585.13
215.37	1542.12
215.59	1468.39
215.81	1550.31
216.03	1595.37
216.24	1542.12
216.46	1562.60
216.68	1560.55
216.90	1566.70
217.12	1593.32
217.34	1533.93
217.56	1544.17
217.78	1552.36
218.00	1509.35
218.22	1572.84
218.44	1531.88
218.66	1515.50
218.87	1630.18
219.09	1552.36
219.31	1552.36
219.53	1593.32
219.75	1603.56
219.97	1488.87
220.19	1593.32
220.41	1535.98
220.63	1624.04
220.85	1460.20
221.06	1564.65
221.28	1566.70
221.50	1492.97
221.72	1480.68
221.94	1560.55
222.16	1529.83
222.38	1509.35
222.60	1613.80
222.82	1517.54
223.03	1591.27
223.25	1519.59
223.47	1621.99
223.69	1634.28
223.91	1632.23
224.13	1585.13
224.35	1497.07
224.57	1554.41
224.78	1544.17
225.00	1505.26
225.22	1558.50
225.44	1527.78
225.66	1535.98
225.88	1447.91
226.10	1640.42
226.32	1566.70
226.53	1570.79
226.75	1542.12
226.97	1517.54
227.19	1519.59
227.41	1552.36
227.63	1501.16
227.85	1495.02
228.06	1519.59
228.28	1515.50
228.50	1566.70
228.72	1509.35
228.94	1527.78
229.16	1486.83
229.37	1449.96
229.59	1499.11
229.81	1531.88
230.03	1585.13
230.25	1452.01
230.47	1482.73
230.69	1460.20
230.90	1675.24
231.12	1486.83
231.34	1497.07
231.56	1538.02
231.78	1503.21
232.00	1535.98
232.21	1554.41
232.43	1480.68
232.65	1441.77
232.87	1570.79
233.09	1492.97
233.30	1533.93
233.52	1574.89
233.74	1517.54
233.96	1593.32
234.18	1507.30
234.40	1509.35
234.61	1570.79
234.83	1495.02
235.05	1419.24
235.27	1665.00
235.49	1525.74
235.70	1538.02
235.92	1665.00
236.14	1507.30
236.36	1779.68
236.58	1482.73
236.79	1513.45
237.01	1552.36
237.23	1578.98
237.45	1669.09
237.67	1443.82
237.88	1572.84
238.10	1671.14
238.32	1488.87
238.54	1527.78
238.76	1583.08
238.97	1468.39
239.19	1419.24
239.41	1587.18
239.63	1523.69
239.85	1511.40
240.06	1482.73
240.28	1556.46
240.50	1583.08
240.72	1546.22
240.93	1538.02
241.15	1552.36
241.37	1593.32
241.59	1560.55
241.81	1593.32
242.02	1525.74
242.24	1519.59
242.46	1509.35
242.68	1558.50
242.89	1581.03
243.11	1581.03
243.33	1468.39
243.55	1548.26
243.76	1556.46
243.98	1574.89
244.20	1501.16
244.42	1503.21
244.64	1505.26
244.85	1554.41
245.07	1517.54
245.29	1626.09
245.51	1480.68
245.72	1517.54
245.94	1554.41
246.16	1593.32
246.38	1542.12
246.59	1548.26
246.81	1550.31
247.03	1581.03
247.24	1517.54
247.46	1474.54
247.68	1550.31
247.90	1447.91
248.11	1515.50
248.33	1568.74
248.55	1593.32
248.77	1523.69
248.98	1587.18
249.20	1628.14
249.42	1554.41
249.64	1533.93
249.85	1564.65
250.07	1503.21
250.29	1548.26
250.50	1544.17
250.72	1513.45
250.94	1603.56
251.16	1611.75
251.37	1564.65
251.59	1601.51
251.81	1560.55
252.02	1652.71
252.24	1472.49
252.46	1591.27
252.68	1521.64
252.89	1445.87
253.11	1384.43
253.33	1603.56
253.54	1630.18
253.76	1476.59
253.98	1509.35
254.20	1566.70
254.41	1535.98
254.63	1468.39
254.85	1472.49
255.06	1533.93
255.28	1511.40
255.50	1433.58
255.71	1548.26
255.93	1521.64
256.15	1517.54
256.36	1552.36
256.58	1542.12
256.80	1587.18
257.02	1515.50
257.23	1542.12
257.45	1583.08
257.67	1527.78
257.88	1521.64
258.10	1599.46
258.32	1599.46
258.53	1517.54
258.75	1601.51
258.97	1523.69
259.18	1509.35
259.40	1556.46
259.62	1564.65
259.83	1599.46
260.05	1595.37
260.27	1708.01
260.48	1533.93
260.70	1501.16
260.92	1562.60
261.13	1578.98
261.35	1527.78
261.57	1542.12
261.78	1462.25
262.00	1513.45
262.22	1562.60
262.43	1460.20
262.65	1515.50
262.86	1527.78
263.08	1638.38
263.30	1585.13
263.51	1433.58
263.73	1439.72
263.95	1574.89
264.16	1431.53
264.38	1521.64
264.60	1556.46
264.81	1509.35
265.03	1550.31
265.25	1626.09
265.46	1437.67
265.68	1574.89
265.89	1552.36
266.11	1476.59
266.33	1605.61
266.54	1601.51
266.76	1517.54
266.98	1578.98
267.19	1665.00
267.41	1570.79
267.62	1523.69
267.84	1497.07
268.06	1529.83
268.27	1574.89
268.49	1599.46
268.70	1535.98
268.92	1538.02
269.14	1531.88
269.35	1460.20
269.57	1556.46
269.79	1615.85
270.00	1529.83
270.22	1540.07
270.43	1533.93
270.65	1499.11
270.87	1652.71
271.08	1535.98
271.30	1503.21
271.51	1597.42
271.73	1621.99
271.95	1619.94
272.16	1578.98
272.38	1599.46
272.59	1523.69
272.81	1587.18
273.02	1583.08
273.24	1581.03
273.46	1556.46
273.67	1501.16
273.89	1521.64
274.10	1474.54
274.32	1591.27
274.54	1525.74
274.75	1597.42
274.97	1562.60
275.18	1554.41
275.40	1562.60
275.61	1527.78
275.83	1550.31
276.05	1482.73
276.26	1581.03
276.48	1576.94
276.69	1529.83
276.91	1519.59
277.12	1613.80
277.34	1535.98
277.55	1640.42
277.77	1501.16
277.99	1562.60
278.20	1464.30
278.42	1517.54
278.63	1468.39
278.85	1513.45
279.06	1511.40
279.28	1566.70
279.49	1552.36
279.71	1572.84
279.93	1540.07
280.14	1546.22
280.36	1517.54
280.57	1533.93
280.79	1550.31
281.00	1484.78
281.22	1470.44
281.43	1587.18
281.65	1456.11
281.86	1474.54
282.08	1529.83
282.29	1599.46
282.51	1503.21
282.73	1495.02
282.94	1511.40
283.16	1681.38
283.37	1574.89
283.59	1599.46
283.80	1529.83
284.02	1495.02
284.23	1585.13
284.45	1544.17
284.66	1456.11
284.88	1533.93
285.09	1572.84
285.31	1599.46
285.52	1548.26
285.74	1499.11
285.95	1531.88
286.17	1548.26
286.38	1597.42
286.60	1525.74
286.81	1454.06
287.03	1527.78
287.24	1527.78
287.46	1492.97
287.67	1482.73
287.89	1675.24
288.10	1478.63
288.32	1531.88
288.53	1601.51
288.75	1492.97
288.96	1509.35
289.18	1492.97
289.39	1550.31
289.61	1673.19
289.82	1648.61
290.04	1613.80
290.25	1511.40
290.47	1566.70
290.68	1505.26
290.90	1538.02
291.11	1507.30
291.33	1556.46
291.54	1509.35
291.76	1484.78
291.97	1566.70
292.18	1615.85
292.40	1503.21
292.61	1523.69
292.83	1605.61
293.04	1554.41
293.26	1544.17
293.47	1505.26
293.69	1427.43
293.90	1550.31
294.12	1634.28
294.33	1509.35
294.55	1554.41
294.76	1591.27
294.97	1607.66
295.19	1656.81
295.40	1472.49
295.62	1552.36
295.83	1566.70
296.05	1476.59
296.26	1527.78
296.48	1552.36
296.69	1562.60
296.90	1513.45
297.12	1619.94
297.33	1527.78
297.55	1505.26
297.76	1476.59
297.98	1566.70
298.19	1515.50
298.41	1486.83
298.62	1509.35
298.83	1656.81
299.05	1548.26
299.26	1529.83
299.48	1480.68
299.69	1546.22
299.90	1550.31
300.12	1464.30
300.33	1515.50
300.55	1589.22
300.76	1531.88
300.98	1495.02
301.19	1535.98
301.40	1525.74
301.62	1492.97
301.83	1585.13
302.05	1484.78
302.26	1540.07
302.47	1546.22
302.69	1452.01
302.90	1503.21
303.12	1433.58
303.33	1527.78
303.54	1562.60
303.76	1505.26
303.97	1558.50
304.19	1601.51
304.40	1470.44
304.61	1568.74
304.83	1628.14
305.04	1597.42
305.26	1548.26
305.47	1495.02
305.68	1458.15
305.90	1597.42
306.11	1603.56
306.33	1404.91
306.54	1501.16
306.75	1499.11
306.97	1458.15
307.18	1531.88
307.39	1503.21
307.61	1503.21
307.82	1488.87
308.04	1570.79
308.25	1525.74
308.46	1519.59
308.68	1519.59
308.89	1503.21
309.10	1589.22
309.32	1533.93
309.53	1576.94
309.74	1552.36
309.96	1486.83
310.17	1636.33
310.39	1533.93
310.60	1535.98
310.81	1509.35
311.03	1484.78
311.24	1566.70
311.45	1576.94
311.67	1548.26
311.88	1570.79
312.09	1476.59
312.31	1552.36
312.52	1574.89
312.73	1517.54
312.95	1452.01
313.16	1552.36
313.37	1558.50
313.59	1531.88
313.80	1509.35
314.01	1593.32
314.23	1464.30
314.44	1554.41
314.65	1441.77
314.87	1456.11
315.08	1509.35
315.29	1509.35
315.51	1486.83
315.72	1478.63
315.93	1669.09
316.15	1583.08
316.36	1480.68
316.57	1540.07
316.79	1587.18
317.00	1550.31
317.21	1578.98
317.43	1593.32
317.64	1533.93
317.85	1581.03
318.07	1519.59
318.28	1732.58
318.49	1710.05
318.70	1808.36
318.92	1777.64
319.13	1597.42
319.34	1691.62
319.56	1585.13
319.77	1574.89
319.98	1609.70
320.20	1591.27
320.41	1658.85
320.62	1480.68
320.83	1484.78
321.05	1648.61
321.26	1507.30
321.47	1523.69
321.69	1566.70
321.90	1538.02
322.11	1566.70
322.32	1546.22
322.54	1626.09
322.75	1476.59
322.96	1548.26
323.18	1529.83
323.39	1527.78
323.60	1570.79
323.81	1572.84
324.03	1591.27
324.24	1599.46
324.45	1640.42
324.66	1533.93
324.88	1621.99
325.09	1599.46
325.30	1566.70
325.52	1605.61
325.73	1595.37
325.94	1523.69
326.15	1425.39
326.37	1458.15
326.58	1591.27
326.79	1636.33
327.00	1523.69
327.22	1495.02
327.43	1529.83
327.64	1562.60
327.85	1542.12
328.07	1501.16
328.28	1665.00
328.49	1531.88
328.70	1531.88
328.92	1558.50
329.13	1540.07
329.34	1521.64
329.55	1587.18
329.76	1562.60
329.98	1554.41
330.19	1656.81
330.40	1560.55
330.61	1495.02
330.83	1607.66
331.04	1535.98
331.25	1570.79
331.46	1542.12
331.68	1548.26
331.89	1593.32
332.10	1540.07
332.31	1460.20
332.52	1523.69
332.74	1587.18
332.95	1515.50
333.16	1525.74
333.37	1576.94
333.58	1490.92
333.80	1529.83
334.01	1478.63
334.22	1456.11
334.43	1466.35
334.64	1517.54
334.86	1443.82
335.07	1533.93
335.28	1609.70
335.49	1454.06
335.70	1587.18
335.92	1562.60
336.13	1660.90
336.34	1562.60
336.55	1597.42
336.76	1548.26
336.98	1519.59
337.19	1560.55
337.40	1583.08
337.61	1636.33
337.82	1533.93
338.04	1591.27
338.25	1445.87
338.46	1556.46
338.67	1546.22
338.88	1535.98
339.09	1452.01
339.31	1511.40
339.52	1402.86
339.73	1462.25
339.94	1499.11
340.15	1617.90
340.36	1521.64
340.58	1548.26
340.79	1505.26
341.00	1527.78
341.21	1443.82
341.42	1556.46
341.63	1576.94
341.85	1640.42
342.06	1529.83
342.27	1507.30
342.48	1546.22
342.69	1509.35
342.90	1603.56
343.12	1529.83
343.33	1521.64
343.54	1558.50
343.75	1535.98
343.96	1636.33
344.17	1497.07
344.38	1529.83
344.60	1443.82
344.81	1501.16
345.02	1476.59
345.23	1554.41
345.44	1675.24
345.65	1552.36
345.86	1609.70
346.07	1542.12
346.29	1556.46
346.50	1609.70
346.71	1548.26
346.92	1562.60
347.13	1607.66
347.34	1570.79
347.55	1566.70
347.76	1554.41
347.98	1533.93
348.19	1472.49
348.40	1578.98
348.61	1445.87
348.82	1468.39
349.03	1550.31
349.24	1449.96
349.45	1585.13
349.66	1460.20
349.88	1462.25
350.09	1490.92
350.30	1628.14
350.51	1632.23
350.72	1576.94
350.93	1511.40
351.14	1628.14
351.35	1609.70
351.56	1515.50
351.77	1568.74
351.99	1578.98
352.20	1574.89
352.41	1601.51
352.62	1445.87
352.83	1525.74
353.04	1544.17
353.25	1492.97
353.46	1544.17
353.67	1507.30
353.88	1452.01
354.09	1542.12
354.30	1544.17
354.52	1550.31
354.73	1503.21
354.94	1540.07
355.15	1458.15
355.36	1660.90
355.57	1499.11
355.78	1550.31
355.99	1437.67
356.20	1511.40
356.41	1566.70
356.62	1552.36
356.83	1548.26
357.04	1662.95
357.25	1452.01
357.46	1439.72
357.68	1511.40
357.89	1574.89
358.10	1540.07
358.31	1439.72
358.52	1521.64
358.73	1527.78
358.94	1531.88
359.15	1415.15
359.36	1544.17
359.57	1523.69
359.78	1511.40
359.99	1554.41
360.20	1492.97
360.41	1476.59
360.62	1560.55
360.83	1552.36
361.04	1558.50
361.25	1548.26
361.46	1609.70
361.67	1581.03
361.88	1544.17
362.09	1617.90
362.30	1558.50
362.51	1507.30
362.72	1581.03
362.93	1603.56
363.14	1505.26
363.35	1554.41
363.56	1501.16
363.78	1560.55
363.99	1585.13
364.20	1507.30
364.41	1607.66
364.62	1619.94
364.83	1609.70
365.04	1531.88
365.25	1546.22
365.46	1564.65
365.67	1497.07
365.88	1593.32
366.09	1523.69
366.30	1550.31
366.51	1609.70
366.72	1476.59
366.93	1509.35
367.14	1525.74
367.35	1630.18
367.56	1503.21
367.77	1570.79
367.98	1495.02
368.18	1589.22
368.39	1552.36
368.60	1548.26
368.81	1611.75
369.02	1533.93
369.23	1552.36
369.44	1474.54
369.65	1527.78
369.86	1595.37
370.07	1595.37
370.28	1556.46
370.49	1548.26
370.70	1615.85
370.91	1501.16
371.12	1578.98
371.33	1525.74
371.54	1476.59
371.75	1583.08
371.96	1538.02
372.17	1462.25
372.38	1550.31
372.59	1521.64
372.80	1517.54
373.01	1556.46
373.22	1591.27
373.43	1574.89
373.64	1456.11
373.85	1558.50
374.06	1562.60
374.26	1591.27
374.47	1562.60
374.68	1611.75
374.89	1533.93
375.10	1425.39
375.31	1554.41
375.52	1533.93
375.73	1511.40
375.94	1478.63
376.15	1650.66
376.36	1597.42
376.57	1509.35
376.78	1603.56
376.99	1540.07
377.20	1576.94
377.40	1464.30
377.61	1576.94
377.82	1501.16
378.03	1621.99
378.24	1578.98
378.45	1593.32
378.66	1533.93
378.87	1523.69
379.08	1495.02
379.29	1538.02
379.50	1642.47
379.71	1525.74
379.91	1613.80
380.12	1531.88
380.33	1558.50
380.54	1529.83
380.75	1550.31
380.96	1513.45
381.17	1615.85
381.38	1619.94
381.59	1605.61
381.80	1527.78
382.00	1611.75
382.21	1570.79
382.42	1660.90
382.63	1724.39
382.84	1665.00
383.05	1591.27
383.26	1583.08
383.47	1531.88
383.68	1556.46
383.88	1578.98
384.09	1603.56
384.30	1564.65
384.51	1591.27
384.72	1517.54
384.93	1472.49
385.14	1603.56
385.35	1671.14
385.55	1554.41
385.76	1566.70
385.97	1509.35
386.18	1513.45
386.39	1593.32
386.60	1492.97
386.81	1570.79
387.02	1525.74
387.22	1548.26
387.43	1626.09
387.64	1644.52
387.85	1861.60
388.06	3094.48
388.27	7298.96
388.48	10606.43
388.68	12412.74
388.89	13842.22
389.10	12840.76
389.31	9971.56
389.52	8843.13
389.73	7880.58
389.93	7245.71
390.14	6797.21
390.35	6231.97
390.56	5517.23
390.77	4646.84
390.98	3624.90
391.18	2731.99
391.39	2189.28
391.60	1802.21
391.81	1716.20
392.02	1585.13
392.23	1691.62
392.43	1556.46
392.64	1667.05
392.85	1562.60
393.06	1593.32
393.27	1505.26
393.47	1529.83
393.68	1544.17
393.89	1507.30
394.10	1619.94
394.31	1523.69
394.52	1490.92
394.72	1566.70
394.93	1624.04
395.14	1542.12
395.35	1568.74
395.56	1576.94
395.76	1615.85
395.97	1693.67
396.18	1740.77
396.39	1703.91
396.60	1904.61
396.80	1720.29
397.01	1671.14
397.22	1703.91
397.43	1615.85
397.64	1597.42
397.84	1685.48
398.05	1650.66
398.26	1607.66
398.47	1587.18
398.67	1667.05
398.88	1589.22
399.09	1642.47
399.30	1499.11
399.51	1638.38
399.71	1511.40
399.92	1501.16
400.13	1503.21
400.34	1501.16
400.54	1562.60
400.75	1683.43
400.96	1552.36
401.17	1574.89
401.37	1533.93
401.58	1458.15
401.79	1626.09
402.00	1794.02
402.21	1998.82
402.41	1920.99
402.62	1970.15
402.83	1968.10
403.04	1912.80
403.24	1966.05
403.45	1634.28
403.66	1738.73
403.87	1685.48
404.07	1730.53
404.28	1810.40
404.49	1714.15
404.70	1538.02
404.90	1576.94
405.11	1570.79
405.32	1644.52
405.52	1490.92
405.73	1517.54
405.94	1499.11
406.15	1665.00
406.35	1533.93
406.56	1552.36
406.77	1589.22
406.98	1476.59
407.18	1484.78
407.39	1648.61
407.60	1456.11
407.80	1544.17
408.01	1517.54
408.22	1548.26
408.43	1484.78
408.63	1492.97
408.84	1576.94
409.05	1548.26
409.25	1443.82
409.46	1550.31
409.67	1478.63
409.88	1554.41
410.08	1507.30
410.29	1435.63
410.50	1552.36
410.70	1609.70
410.91	1540.07
411.12	1529.83
411.32	1525.74
411.53	1572.84
411.74	1665.00
411.95	1601.51
412.15	1628.14
412.36	1644.52
412.57	1495.02
412.77	1644.52
412.98	1527.78
413.19	1503.21
413.39	1535.98
413.60	1597.42
413.81	1587.18
414.01	1509.35
414.22	1595.37
414.43	1675.24
414.63	1509.35
414.84	1505.26
415.05	1636.33
415.25	1441.77
415.46	1656.81
415.67	1595.37
415.87	1525.74
416.08	1552.36
416.29	1581.03
416.49	1554.41
416.70	1646.57
416.91	1517.54
417.11	1480.68
417.32	1609.70
417.53	1626.09
417.73	1495.02
417.94	1492.97
418.15	1544.17
418.35	1499.11
418.56	1591.27
418.77	1695.72
418.97	1564.65
419.18	1554.41
419.38	1437.67
419.59	1482.73
419.80	1601.51
420.00	1533.93
420.21	1495.02
420.42	1638.38
420.62	1599.46
420.83	1441.77
421.04	1445.87
421.24	1513.45
421.45	1556.46
421.65	1546.22
421.86	1523.69
422.07	1495.02
422.27	1607.66
422.48	1542.12
422.69	1564.65
422.89	1613.80
423.10	1529.83
423.30	1492.97
423.51	1570.79
423.72	1531.88
423.92	1595.37
424.13	1511.40
424.33	1576.94
424.54	1570.79
424.75	1554.41
424.95	1603.56
425.16	1576.94
425.36	1495.02
425.57	1538.02
425.78	1529.83
425.98	1550.31
426.19	1529.83
426.39	1484.78
426.60	1554.41
426.81	1576.94
427.01	1529.83
427.22	1525.74
427.42	1431.53
427.63	1488.87
427.83	1556.46
428.04	1640.42
428.25	1548.26
428.45	1558.50
428.66	1552.36
428.86	1554.41
429.07	1593.32
429.28	1562.60
429.48	1572.84
429.69	1474.54
429.89	1531.88
430.10	1529.83
430.30	1566.70
430.51	1558.50
430.71	1550.31
430.92	1566.70
431.13	1538.02
431.33	1499.11
431.54	1546.22
431.74	1599.46
431.95	1673.19
432.15	1546.22
432.36	1540.07
432.56	1523.69
432.77	1589.22
432.98	1601.51
433.18	1634.28
433.39	1531.88
433.59	1560.55
433.80	1544.17
434.00	1736.68
434.21	1501.16
434.41	1482.73
434.62	1615.85
434.82	1501.16
435.03	1499.11
435.23	1546.22
435.44	1507.30
435.64	1601.51
435.85	1462.25
436.06	1542.12
436.26	1589.22
436.47	1554.41
436.67	1511.40
436.88	1560.55
437.08	1613.80
437.29	1572.84
437.49	1560.55
437.70	1605.61
437.90	1609.70
438.11	1675.24
438.31	1650.66
438.52	1722.34
438.72	1689.57
438.93	1775.59
439.13	1665.00
439.34	1654.76
439.54	1556.46
439.75	1648.61
439.95	1673.19
440.16	1529.83
440.36	1609.70
440.57	1605.61
440.77	1585.13
440.98	1550.31
441.18	1599.46
441.39	1472.49
441.59	1435.63
441.80	1589.22
442.00	1552.36
442.21	1652.71
442.41	1519.59
442.62	1578.98
442.82	1535.98
443.02	1429.48
443.23	1566.70
443.43	1578.98
443.64	1621.99
443.84	1497.07
444.05	1619.94
444.25	1566.70
444.46	1486.83
444.66	1634.28
444.87	1615.85
445.07	1433.58
445.28	1509.35
445.48	1554.41
445.69	1656.81
445.89	1675.24
446.09	1587.18
446.30	1970.15
446.50	3057.62
446.71	4384.70
446.91	5253.04
447.12	5687.21
447.32	5560.24
447.53	4509.63
447.73	4046.79
447.93	3565.51
448.14	3325.90
448.34	3225.55
448.55	2889.68
448.75	2955.22
448.96	2701.27
449.16	2519.00
449.36	2394.08
449.57	2009.06
449.77	1810.40
449.98	1619.94
450.18	1671.14
450.39	1578.98
450.59	1576.94
450.79	1529.83
451.00	1484.78
451.20	1613.80
451.41	1521.64
451.61	1538.02
451.81	1607.66
452.02	1552.36
452.22	1599.46
452.43	1507.30
452.63	1533.93
452.84	1503.21
453.04	1519.59
453.24	1515.50
453.45	1556.46
453.65	1607.66
453.86	1607.66
454.06	1634.28
454.26	1581.03
454.47	1531.88
454.67	1587.18
454.87	1544.17
455.08	1542.12
455.28	1708.01
455.49	1603.56
455.69	1544.17
455.89	1660.90
456.10	1654.76
456.30	1566.70
456.51	1605.61
456.71	1550.31
456.91	1550.31
457.12	1587.18
457.32	1603.56
457.52	1523.69
457.73	1597.42
457.93	1585.13
458.14	1542.12
458.34	1484.78
458.54	1527.78
458.75	1593.32
458.95	1519.59
459.15	1529.83
459.36	1576.94
459.56	1568.74
459.76	1630.18
459.97	1578.98
460.17	1603.56
460.37	1566.70
460.58	1570.79
460.78	1609.70
460.99	1576.94
461.19	1591.27
461.39	1574.89
461.60	1509.35
461.80	1540.07
462.00	1466.35
462.21	1468.39
462.41	1480.68
462.61	1513.45
462.82	1501.16
463.02	1546.22
463.22	1529.83
463.43	1640.42
463.63	1568.74
463.83	1550.31
464.04	1583.08
464.24	1501.16
464.44	1454.06
464.64	1505.26
464.85	1552.36
465.05	1550.31
465.25	1605.61
465.46	1497.07
465.66	1548.26
465.86	1540.07
466.07	1558.50
466.27	1570.79
466.47	1488.87
466.68	1492.97
466.88	1615.85
467.08	1581.03
467.29	1609.70
467.49	1609.70
467.69	1556.46
467.89	1535.98
468.10	1564.65
468.30	1611.75
468.50	1628.14
468.71	1548.26
468.91	1472.49
469.11	1578.98
469.31	1482.73
469.52	1523.69
469.72	1566.70
469.92	1652.71
470.13	1495.02
470.33	1587.18
470.53	1714.15
470.73	2156.51
470.94	2342.88
471.14	2418.65
471.34	2650.07
471.54	2410.46
471.75	2121.70
471.95	2086.88
472.15	2019.30
472.36	1953.76
472.56	1888.23
472.76	1931.23
472.96	1845.22
473.17	1863.65
473.37	1847.27
473.57	1697.77
473.77	1701.86
473.98	1576.94
474.18	1636.33
474.38	1804.26
474.58	1535.98
474.79	1505.26
474.99	1603.56
475.19	1533.93
475.39	1507.30
475.60	1607.66
475.80	1593.32
476.00	1548.26
476.20	1560.55
476.41	1554.41
476.61	1576.94
476.81	1644.52
477.01	1495.02
477.21	1601.51
477.42	1593.32
477.62	1447.91
477.82	1650.66
478.02	1540.07
478.23	1540.07
478.43	1472.49
478.63	1447.91
478.83	1603.56
479.03	1560.55
479.24	1583.08
479.44	1660.90
479.64	1472.49
479.84	1476.59
480.04	1507.30
480.25	1574.89
480.45	1470.44
480.65	1544.17
480.85	1638.38
481.06	1533.93
481.26	1531.88
481.46	1533.93
481.66	1529.83
481.86	1509.35
482.06	1626.09
482.27	1585.13
482.47	1533.93
482.67	1595.37
482.87	1523.69
483.07	1544.17
483.28	1548.26
483.48	1525.74
483.68	1509.35
483.88	1495.02
484.08	1386.47
484.29	1572.84
484.49	1509.35
484.69	1480.68
484.89	1621.99
485.09	1564.65
485.29	1589.22
485.50	1550.31
485.70	1535.98
485.90	1550.31
486.10	1570.79
486.30	1656.81
486.50	1519.59
486.71	1611.75
486.91	1546.22
487.11	1611.75
487.31	1484.78
487.51	1562.60
487.71	1503.21
487.91	1511.40
488.12	1525.74
488.32	1478.63
488.52	1505.26
488.72	1521.64
488.92	1476.59
489.12	1603.56
489.32	1611.75
489.53	1589.22
489.73	1515.50
489.93	1558.50
490.13	1505.26
490.33	1486.83
490.53	1566.70
490.73	1554.41
490.94	1544.17
491.14	1650.66
491.34	1699.81
491.54	2099.17
491.74	2631.64
491.94	3074.00
492.14	3344.33
492.34	3239.89
492.54	2832.34
492.75	2441.18
492.95	2346.97
493.15	2248.67
493.35	2158.56
493.55	2172.89
493.75	1986.53
493.95	2019.30
494.15	1951.71
494.35	1789.92
494.56	1757.16
494.76	1660.90
494.96	1607.66
495.16	1595.37
495.36	1626.09
495.56	1542.12
495.76	1521.64
495.96	1548.26
496.16	1564.65
496.36	1609.70
496.56	1527.78
496.77	1550.31
496.97	1497.07
497.17	1535.98
497.37	1501.16
497.57	1607.66
497.77	1572.84
497.97	1560.55
498.17	1529.83
498.37	1476.59
498.57	1591.27
498.77	1538.02
498.97	1564.65
499.17	1673.19
499.38	1525.74
499.58	1611.75
499.78	1581.03
499.98	1630.18
500.18	1568.74
500.38	1632.23
500.58	1718.25
500.78	2594.78
500.98	5097.39
501.18	6735.77
501.38	8044.42
501.58	8707.96
501.78	7769.99
501.98	6055.84
502.18	5371.82
502.38	4650.94
502.58	4167.62
502.78	3866.56
502.98	3770.31
503.18	3581.90
503.38	3401.68
503.59	3045.33
503.79	2815.96
503.99	2586.58
504.19	2297.82
504.39	2138.08
504.59	2172.89
504.79	2017.25
504.99	1812.45
505.19	1779.68
505.39	1708.01
505.59	1804.26
505.79	1744.87
505.99	1697.77
506.19	1595.37
506.39	1669.09
506.59	1595.37
506.79	1587.18
506.99	1617.90
507.19	1642.47
507.39	1656.81
507.59	1521.64
507.79	1492.97
507.99	1560.55
508.19	1564.65
508.39	1501.16
508.59	1533.93
508.79	1593.32
508.99	1613.80
509.19	1538.02
509.39	1566.70
509.59	1462.25
509.79	1462.25
509.99	1511.40
510.19	1486.83
510.39	1619.94
510.59	1492.97
510.79	1488.87
510.99	1533.93
511.19	1601.51
511.39	1624.04
511.59	1601.51
511.79	1634.28
511.99	1574.89
512.19	1607.66
512.38	1464.30
512.58	1460.20
512.78	1540.07
512.98	1599.46
513.18	1550.31
513.38	1474.54
513.58	1609.70
513.78	1523.69
513.98	1470.44
514.18	1568.74
514.38	1527.78
514.58	1607.66
514.78	1558.50
514.98	1511.40
515.18	1507.30
515.38	1503.21
515.58	1603.56
515.78	1497.07
515.98	1576.94
516.18	1507.30
516.38	1507.30
516.57	1554.41
516.77	1480.68
516.97	1521.64
517.17	1535.98
517.37	1480.68
517.57	1578.98
517.77	1624.04
517.97	1511.40
518.17	1542.12
518.37	1521.64
518.57	1501.16
518.77	1597.42
518.97	1615.85
519.16	1546.22
519.36	1576.94
519.56	1492.97
519.76	1542.12
519.96	1615.85
520.16	1665.00
520.36	1460.20
520.56	1638.38
520.76	1566.70
520.96	1550.31
521.16	1538.02
521.35	1583.08
521.55	1607.66
521.75	1576.94
521.95	1505.26
522.15	1531.88
522.35	1550.31
522.55	1570.79
522.75	1599.46
522.95	1564.65
523.14	1529.83
523.34	1566.70
523.54	1511.40
523.74	1486.83
523.94	1525.74
524.14	1486.83
524.34	1527.78
524.54	1611.75
524.73	1589.22
524.93	1517.54
525.13	1601.51
525.33	1509.35
525.53	1607.66
525.73	1513.45
525.93	1544.17
526.13	1515.50
526.32	1619.94
526.52	1521.64
526.72	1548.26
526.92	1478.63
527.12	1488.87
527.32	1527.78
527.52	1533.93
527.71	1570.79
527.91	1505.26
528.11	1490.92
528.31	1488.87
528.51	1470.44
528.71	1576.94
528.90	1527.78
529.10	1609.70
529.30	1640.42
529.50	1411.05
529.70	1558.50
529.90	1560.55
530.09	1568.74
530.29	1552.36
530.49	1513.45
530.69	1632.23
530.89	1566.70
531.09	1570.79
531.28	1503.21
531.48	1570.79
531.68	1568.74
531.88	1535.98
532.08	1548.26
532.28	1511.40
532.47	1578.98
532.67	1599.46
532.87	1556.46
533.07	1527.78
533.27	1564.65
533.46	1527.78
533.66	1638.38
533.86	1615.85
534.06	1525.74
534.26	1578.98
534.45	1556.46
534.65	1531.88
534.85	1535.98
535.05	1550.31
535.25	1562.60
535.44	1480.68
535.64	1617.90
535.84	1535.98
536.04	1568.74
536.24	1513.45
536.43	1515.50
536.63	1560.55
536.83	1542.12
537.03	1490.92
537.22	1552.36
537.42	1429.48
537.62	1589.22
537.82	1542.12
538.02	1599.46
538.21	1511.40
538.41	1662.95
538.61	1599.46
538.81	1552.36
539.00	1599.46
539.20	1454.06
539.40	1513.45
539.60	1570.79
539.79	1609.70
539.99	1587.18
540.19	1509.35
540.39	1546.22
540.58	1544.17
540.78	1570.79
540.98	1476.59
541.18	1626.09
541.37	1601.51
541.57	1591.27
541.77	1552.36
541.97	1492.97
542.16	1503.21
542.36	1517.54
542.56	1597.42
542.76	1570.79
542.95	1617.90
543.15	1587.18
543.35	1636.33
543.54	1544.17
543.74	1556.46
543.94	1583.08
544.14	1437.67
544.33	1497.07
544.53	1523.69
544.73	1488.87
544.93	1497.07
545.12	1527.78
545.32	1501.16
545.52	1513.45
545.71	1474.54
545.91	1513.45
546.11	1533.93
546.30	1546.22
546.50	1546.22
546.70	1531.88
546.90	1562.60
547.09	1499.11
547.29	1597.42
547.49	1544.17
547.68	1470.44
547.88	1490.92
548.08	1603.56
548.27	1818.60
548.47	1486.83
548.67	1488.87
548.87	1570.79
549.06	1478.63
549.26	1507.30
549.46	1615.85
549.65	1562.60
549.85	1550.31
550.05	1572.84
550.24	1468.39
550.44	1546.22
550.64	1576.94
550.83	1546.22
551.03	1527.78
551.23	1632.23
551.42	1609.70
551.62	1464.30
551.82	1558.50
552.01	1519.59
552.21	1470.44
552.41	1558.50
552.60	1660.90
552.80	1568.74
553.00	1503.21
553.19	1525.74
553.39	1632.23
553.59	1538.02
553.78	1572.84
553.98	1554.41
554.17	1525.74
554.37	1499.11
554.57	1607.66
554.76	1495.02
554.96	1544.17
555.16	1521.64
555.35	1546.22
555.55	1527.78
555.75	1578.98
555.94	1601.51
556.14	1474.54
556.33	1501.16
556.53	1513.45
556.73	1560.55
556.92	1617.90
557.12	1566.70
557.32	1640.42
557.51	1589.22
557.71	1599.46
557.90	1578.98
558.10	1607.66
558.30	1558.50
558.49	1540.07
558.69	1499.11
558.88	1458.15
559.08	1578.98
559.28	1513.45
559.47	1570.79
559.67	1662.95
559.86	1587.18
560.06	1626.09
560.26	1519.59
560.45	1507.30
560.65	1470.44
560.84	1568.74
561.04	1468.39
561.24	1576.94
561.43	1572.84
561.63	1595.37
561.82	1591.27
562.02	1542.12
562.22	1542.12
562.41	1486.83
562.61	1540.07
562.80	1570.79
563.00	1603.56
563.19	1533.93
563.39	1572.84
563.59	1615.85
563.78	1492.97
563.98	1415.15
564.17	1626.09
564.37	1542.12
564.56	1552.36
564.76	1429.48
564.96	1621.99
565.15	1595.37
565.35	1642.47
565.54	1538.02
565.74	1589.22
565.93	1554.41
566.13	1562.60
566.32	1621.99
566.52	1566.70
566.71	1525.74
566.91	1638.38
567.11	1507.30
567.30	1556.46
567.50	1628.14
567.69	1550.31
567.89	1578.98
568.08	1476.59
568.28	1533.93
568.47	1480.68
568.67	1562.60
568.86	1486.83
569.06	1601.51
569.25	1492.97
569.45	1503.21
569.64	1560.55
569.84	1474.54
570.04	1521.64
570.23	1552.36
570.43	1581.03
570.62	1568.74
570.82	1609.70
571.01	1533.93
571.21	1515.50
571.40	1513.45
571.60	1574.89
571.79	1585.13
571.99	1648.61
572.18	1499.11
572.38	1619.94
572.57	1503.21
572.77	1617.90
572.96	1601.51
573.16	1585.13
573.35	1542.12
573.55	1658.85
573.74	1585.13
573.94	1578.98
574.13	1515.50
574.33	1607.66
574.52	1640.42
574.71	1591.27
574.91	1570.79
575.10	1587.18
575.30	1521.64
575.49	1533.93
575.69	1527.78
575.88	1632.23
576.08	1585.13
576.27	1630.18
576.47	1593.32
576.66	1656.81
576.86	1648.61
577.05	1660.90
577.25	1681.38
577.44	1705.96
577.64	1527.78
577.83	1609.70
578.02	1572.84
578.22	1654.76
578.41	1613.80
578.61	1611.75
578.80	1517.54
579.00	1568.74
579.19	1542.12
579.39	1505.26
579.58	1603.56
579.77	1599.46
579.97	1734.63
580.16	1621.99
580.36	1689.57
580.55	1589.22
580.75	1611.75
580.94	1538.02
581.13	1671.14
581.33	1648.61
581.52	1638.38
581.72	1632.23
581.91	1718.25
582.11	1624.04
582.30	1667.05
582.49	1587.18
582.69	1660.90
582.88	1591.27
583.08	1572.84
583.27	1685.48
583.47	1644.52
583.66	1525.74
583.85	1550.31
584.05	1581.03
584.24	1646.57
584.44	1585.13
584.63	1673.19
584.82	1691.62
585.02	1714.15
585.21	1712.10
585.41	1767.40
585.60	1671.14
585.79	1773.54
585.99	1865.70
586.18	1714.15
586.37	2097.12
586.57	3033.04
586.76	9578.35
586.96	27522.65
587.15	43847.01
587.34	54465.73
587.54	61406.30
587.73	59829.36
587.93	43644.26
588.12	32112.15
588.31	25806.45
588.51	21921.46
588.70	20066.00
588.89	18237.16
589.09	16977.66
589.28	15093.53
589.47	13004.60
589.67	11081.56
589.86	8849.27
590.06	6723.48
590.25	5138.35
590.44	3815.37
590.64	2904.02
590.83	2326.49
591.02	1984.48
591.22	1839.08
591.41	1783.78
591.60	1697.77
591.80	1771.49
591.99	1581.03
592.18	1576.94
592.38	1691.62
592.57	1535.98
592.76	1599.46
592.96	1533.93
593.15	1572.84
593.34	1626.09
593.54	1558.50
593.73	1595.37
593.92	1667.05
594.12	1632.23
594.31	1652.71
594.50	1691.62
594.70	1689.57
594.89	1652.71
595.08	1495.02
595.28	1638.38
595.47	1634.28
595.66	1646.57
595.86	1574.89
596.05	1636.33
596.24	1585.13
596.43	1652.71
596.63	1628.14
596.82	1632.23
597.01	1591.27
597.21	1730.53
597.40	1613.80
597.59	1572.84
597.79	1529.83
597.98	1611.75
598.17	1652.71
598.36	1632.23
598.56	1628.14
598.75	1533.93
598.94	1572.84
599.14	1603.56
599.33	1581.03
599.52	1558.50
599.71	1615.85
599.91	1658.85
600.10	1566.70
600.29	1591.27
600.48	1581.03
600.68	1509.35
600.87	1605.61
601.06	1542.12
601.26	1509.35
601.45	1509.35
601.64	1527.78
601.83	1550.31
602.03	1486.83
602.22	1503.21
602.41	1544.17
602.60	1669.09
602.80	1630.18
602.99	1546.22
603.18	1646.57
603.37	1601.51
603.57	1572.84
603.76	1652.71
603.95	1533.93
604.14	1472.49
604.34	1556.46
604.53	1548.26
604.72	1519.59
604.91	1595.37
605.10	1595.37
605.30	1486.83
605.49	1669.09
605.68	1548.26
605.87	1492.97
606.07	1521.64
606.26	1495.02
606.45	1568.74
606.64	1562.60
606.84	1572.84
607.03	1638.38
607.22	1562.60
607.41	1544.17
607.60	1548.26
607.80	1587.18
607.99	1476.59
608.18	1591.27
608.37	1497.07
608.56	1552.36
608.76	1624.04
608.95	1728.49
609.14	1624.04
609.33	1691.62
609.52	1681.38
609.72	1693.67
609.91	1636.33
610.10	1505.26
610.29	1642.47
610.48	1619.94
610.68	1609.70
610.87	1560.55
611.06	1578.98
611.25	1583.08
611.44	1609.70
611.63	1566.70
611.83	1675.24
612.02	1462.25
612.21	1605.61
612.40	1482.73
612.59	1507.30
612.79	1429.48
612.98	1578.98
613.17	1652.71
613.36	1574.89
613.55	1652.71
613.74	1613.80
613.93	1654.76
614.13	1685.48
614.32	1753.06
614.51	1720.29
614.70	1671.14
614.89	1583.08
615.08	1568.74
615.28	1837.03
615.47	1499.11
615.66	1642.47
615.85	1603.56
616.04	1677.29
616.23	1677.29
616.42	1611.75
616.62	1587.18
616.81	1609.70
617.00	1576.94
617.19	1683.43
617.38	1517.54
617.57	1601.51
617.76	1593.32
617.95	1574.89
618.15	1607.66
618.34	1609.70
618.53	1464.30
618.72	1660.90
618.91	1538.02
619.10	1597.42
619.29	1599.46
619.48	1486.83
619.68	1480.68
619.87	1550.31
620.06	1497.07
620.25	1619.94
620.44	1519.59
620.63	1566.70
620.82	1472.49
621.01	1581.03
621.20	1499.11
621.39	1527.78
621.59	1597.42
621.78	1560.55
621.97	1603.56
622.16	1535.98
622.35	1578.98
622.54	1568.74
622.73	1521.64
622.92	1476.59
623.11	1591.27
623.30	1554.41
623.49	1626.09
623.68	1476.59
623.88	1570.79
624.07	1552.36
624.26	1464.30
624.45	1562.60
624.64	1495.02
624.83	1574.89
625.02	1572.84
625.21	1476.59
625.40	1566.70
625.59	1607.66
625.78	1599.46
625.97	1679.33
626.16	1675.24
626.35	1683.43
626.54	1626.09
626.74	1730.53
626.93	1652.71
627.12	1499.11
627.31	1654.76
627.50	1566.70
627.69	1630.18
627.88	1587.18
628.07	1501.16
628.26	1497.07
628.45	1517.54
628.64	1503.21
628.83	1564.65
629.02	1456.11
629.21	1560.55
629.40	1556.46
629.59	1513.45
629.78	1554.41
629.97	1466.35
630.16	1550.31
630.35	1535.98
630.54	1572.84
630.73	1425.39
630.92	1601.51
631.11	1517.54
631.30	1634.28
631.49	1548.26
631.68	1509.35
631.87	1558.50
632.06	1533.93
632.25	1574.89
632.44	1564.65
632.63	1538.02
632.82	1613.80
633.01	1591.27
633.20	1624.04
633.39	1660.90
633.58	1550.31
633.77	1593.32
633.96	1562.60
634.15	1660.90
634.34	1652.71
634.53	1550.31
634.72	1480.68
634.91	1576.94
635.10	1603.56
635.29	1595.37
635.48	1519.59
635.67	1542.12
635.86	1501.16
636.05	1621.99
636.24	1521.64
636.43	1578.98
636.62	1568.74
636.81	1445.87
637.00	1544.17
637.19	1613.80
637.38	1517.54
637.57	1533.93
637.76	1599.46
637.95	1574.89
638.14	1671.14
638.33	1665.00
638.52	1669.09
638.71	1538.02
638.89	1509.35
639.08	1716.20
639.27	1617.90
639.46	1695.72
639.65	1927.14
639.84	2058.21
640.03	2103.26
640.22	2156.51
640.41	2271.20
640.60	2027.49
640.79	1877.99
640.98	1785.83
641.17	1796.07
641.36	1734.63
641.55	1675.24
641.74	1558.50
641.92	1652.71
642.11	1593.32
642.30	1603.56
642.49	1572.84
642.68	1509.35
642.87	1531.88
643.06	1554.41
643.25	1511.40
643.44	1544.17
643.63	1533.93
643.82	1576.94
644.00	1400.81
644.19	1519.59
644.38	1515.50
644.57	1566.70
644.76	1544.17
644.95	1542.12
645.14	1591.27
645.33	1599.46
645.52	1523.69
645.71	1519.59
645.89	1550.31
646.08	1519.59
646.27	1521.64
646.46	1665.00
646.65	1390.57
646.84	1544.17
647.03	1497.07
647.22	1583.08
647.40	1519.59
647.59	1509.35
647.78	1542.12
647.97	1458.15
648.16	1486.83
648.35	1624.04
648.54	1542.12
648.73	1492.97
648.91	1585.13
649.10	1527.78
649.29	1507.30
649.48	1576.94
649.67	1535.98
649.86	1560.55
650.05	1552.36
650.23	1693.67
650.42	1640.42
650.61	1734.63
650.80	1738.73
650.99	1757.16
651.18	1724.39
651.36	1660.90
651.55	1568.74
651.74	1621.99
651.93	1593.32
652.12	1562.60
652.31	1578.98
652.49	1513.45
652.68	1480.68
652.87	1703.91
653.06	1593.32
653.25	1724.39
653.44	1576.94
653.62	1619.94
653.81	1519.59
654.00	1624.04
654.19	1560.55
654.38	1656.81
654.56	1648.61
654.75	1558.50
654.94	1497.07
655.13	1597.42
655.32	1540.07
655.51	1564.65
655.69	1533.93
655.88	1535.98
656.07	1462.25
656.26	1511.40
656.45	1562.60
656.63	1509.35
656.82	1556.46
657.01	1662.95
657.20	1570.79
657.38	1617.90
657.57	1578.98
657.76	1480.68
657.95	1583.08
658.14	1574.89
658.32	1572.84
658.51	1507.30
658.70	1540.07
658.89	1609.70
659.08	1542.12
659.26	1626.09
659.45	1509.35
659.64	1570.79
659.83	1617.90
660.01	1738.73
660.20	1583.08
660.39	1630.18
660.58	1525.74
660.76	1593.32
660.95	1501.16
661.14	1558.50
661.33	1449.96
661.51	1583.08
661.70	1505.26
661.89	1593.32
662.08	1568.74
662.26	1497.07
662.45	1490.92
662.64	1583.08
662.83	1644.52
663.01	1513.45
663.20	1486.83
663.39	1595.37
663.58	1533.93
663.76	1568.74
663.95	1607.66
664.14	1456.11
664.32	1484.78
664.51	1517.54
664.70	1468.39
664.89	1515.50
665.07	1568.74
665.26	1615.85
665.45	1486.83
665.64	1621.99
665.82	1566.70
666.01	1599.46
666.20	1505.26
666.38	1628.14
666.57	1628.14
666.76	1767.40
666.95	3010.51
667.13	7540.62
667.32	15388.44
667.51	19971.79
667.69	23170.72
667.88	25386.62
668.07	21997.23
668.25	15697.68
668.44	12545.86
668.63	9971.56
668.81	8447.87
669.00	7677.83
669.19	7219.09
669.38	6324.13
669.56	5674.92
669.75	4865.97
669.94	4075.46
670.12	3381.20
670.31	2928.60
670.50	2299.87
670.68	2062.30
670.87	1837.03
671.06	1746.92
671.24	1730.53
671.43	1699.81
671.62	1634.28
671.80	1615.85
671.99	1624.04
672.18	1576.94
672.36	1619.94
672.55	1665.00
672.74	1595.37
672.92	1546.22
673.11	1630.18
673.29	1507.30
673.48	1544.17
673.67	1492.97
673.85	1611.75
674.04	1552.36
674.23	1615.85
674.41	1710.05
674.60	1542.12
674.79	1482.73
674.97	1589.22
675.16	1585.13
675.34	1542.12
675.53	1560.55
675.72	1583.08
675.90	1560.55
676.09	1478.63
676.28	1595.37
676.46	1517.54
676.65	1615.85
676.83	1513.45
677.02	1497.07
677.21	1568.74
677.39	1511.40
677.58	1511.40
677.77	1497.07
677.95	1484.78
678.14	1492.97
678.32	1509.35
678.51	1439.72
678.70	1599.46
678.88	1523.69
679.07	1540.07
679.25	1525.74
679.44	1507.30
679.63	1447.91
679.81	1583.08
680.00	1576.94
680.18	1527.78
680.37	1681.38
680.55	1515.50
680.74	1421.29
680.93	1400.81
681.11	1503.21
681.30	1484.78
681.48	1519.59
681.67	1462.25
681.85	1523.69
682.04	1478.63
682.23	1447.91
682.41	1558.50
682.60	1464.30
682.78	1527.78
682.97	1564.65
683.15	1556.46
683.34	1570.79
683.53	1658.85
683.71	1501.16
683.90	1587.18
684.08	1624.04
684.27	1482.73
684.45	1525.74
684.64	1607.66
684.82	1538.02
685.01	1613.80
685.19	1550.31
685.38	1560.55
685.57	1621.99
685.75	1544.17
685.94	1497.07
686.12	1542.12
686.31	1495.02
686.49	1621.99
686.68	1525.74
686.86	1554.41
687.05	1515.50
687.23	1585.13
687.42	1484.78
687.60	1554.41
687.79	1533.93
687.97	1574.89
688.16	1619.94
688.34	1566.70
688.53	1484.78
688.71	1505.26
688.90	1646.57
689.08	1513.45
689.27	1490.92
689.45	1597.42
689.64	1583.08
689.82	1542.12
690.01	1583.08
690.19	1490.92
690.38	1576.94
690.56	1593.32
690.75	1542.12
690.93	1501.16
691.12	1503.21
691.30	1583.08
691.49	1515.50
691.67	1568.74
691.86	1611.75
692.04	1570.79
692.23	1560.55
692.41	1540.07
692.60	1746.92
692.78	1652.71
692.97	1554.41
693.15	1597.42
693.34	1617.90
693.52	1640.42
693.71	1523.69
693.89	1550.31
694.08	1523.69
694.26	1574.89
694.44	1634.28
694.63	1548.26
694.81	1523.69
695.00	1529.83
695.18	1505.26
695.37	1632.23
695.55	1611.75
695.74	1456.11
695.92	1529.83
696.10	1642.47
696.29	1470.44
696.47	1503.21
696.66	1433.58
696.84	1529.83
697.03	1550.31
697.21	1691.62
697.40	2013.15
697.58	1626.09
697.76	1593.32
697.95	1525.74
698.13	1517.54
698.32	1511.40
698.50	1605.61
698.68	1517.54
698.87	1593.32
699.05	1564.65
699.24	1572.84
699.42	1495.02
699.61	1599.46
699.79	1546.22
699.97	1548.26
700.16	1488.87
700.34	1519.59
700.53	1581.03
700.71	1630.18
700.89	1562.60
701.08	1519.59
701.26	1531.88
701.45	2054.11
701.63	1517.54
701.81	1495.02
702.00	1583.08
702.18	1570.79
702.37	1546.22
702.55	1658.85
702.73	1705.96
702.92	1681.38
703.10	1845.22
703.28	1812.45
703.47	1691.62
703.65	1689.57
703.84	1751.01
704.02	1595.37
704.20	1742.82
704.39	1511.40
704.57	1550.31
704.75	1712.10
704.94	1624.04
705.12	1574.89
705.30	1667.05
705.49	1822.69
705.67	2846.68
705.86	7327.63
706.04	14264.10
706.22	18579.17
706.41	21657.27
706.59	23051.94
706.77	21008.06
706.96	14726.94
707.14	11747.15
707.32	9734.00
707.51	8583.04
707.69	7559.05
707.87	6793.11
708.06	5711.78
708.24	4775.86
708.42	3624.90
708.61	2951.12
708.79	2363.36
708.97	1925.09
709.16	1847.27
709.34	1740.77
709.52	1669.09
709.71	1613.80
709.89	1591.27
710.07	1517.54
710.26	1519.59
710.44	1566.70
710.62	1607.66
710.80	1546.22
710.99	1589.22
711.17	1517.54
711.35	1533.93
711.54	1505.26
711.72	1632.23
711.90	1597.42
712.09	1548.26
712.27	1540.07
712.45	1519.59
712.63	1568.74
712.82	1509.35
713.00	1628.14
713.18	1521.64
713.37	1587.18
713.55	1585.13
713.73	1497.07
713.91	1505.26
714.10	1566.70
714.28	1564.65
714.46	1544.17
714.65	1566.70
714.83	1527.78
715.01	1452.01
715.19	1492.97
715.38	1501.16
715.56	1624.04
715.74	1484.78
715.92	1431.53
716.11	1648.61
716.29	1386.47
716.47	1542.12
716.65	1472.49
716.84	1501.16
717.02	1636.33
717.20	1503.21
717.38	1462.25
717.57	1578.98
717.75	1593.32
717.93	1474.54
718.11	1558.50
718.30	1490.92
718.48	1560.55
718.66	1673.19
718.84	1585.13
719.03	1574.89
719.21	1519.59
719.39	1560.55
719.57	1570.79
719.75	1603.56
719.94	1511.40
720.12	1513.45
720.30	1544.17
720.48	1570.79
720.67	1515.50
720.85	1476.59
721.03	1503.21
721.21	1505.26
721.39	1538.02
721.58	1548.26
721.76	1611.75
721.94	1544.17
722.12	1472.49
722.30	1638.38
722.49	1525.74
722.67	1544.17
722.85	1591.27
723.03	1492.97
723.21	1509.35
723.40	1499.11
723.58	1568.74
723.76	1570.79
723.94	1501.16
724.12	1632.23
724.30	1624.04
724.49	1617.90
724.67	1542.12
724.85	1593.32
725.03	1564.65
725.21	1585.13
725.40	1593.32
725.58	1472.49
725.76	1621.99
725.94	1595.37
726.12	1503.21
726.30	1540.07
726.49	1486.83
726.67	1503.21
726.85	1558.50
727.03	1546.22
727.21	1740.77
727.39	2138.08
727.57	3389.39
727.76	4343.74
727.94	4835.25
728.12	4915.12
728.30	5107.63
728.48	4401.08
728.66	3545.03
728.84	3211.22
729.03	2889.68
729.21	2641.88
729.39	2330.59
729.57	2027.49
729.75	1880.04
729.93	1822.69
730.11	1681.38
730.30	1521.64
730.48	1574.89
730.66	1648.61
730.84	1583.08
731.02	1511.40
731.20	1531.88
731.38	1644.52
731.56	1505.26
731.74	1478.63
731.93	1535.98
732.11	1480.68
732.29	1509.35
732.47	1499.11
732.65	1550.31
732.83	1607.66
733.01	1583.08
733.19	1642.47
733.37	1552.36
733.56	1490.92
733.74	1570.79
733.92	1638.38
734.10	1554.41
734.28	1554.41
734.46	1478.63
734.64	1482.73
734.82	1570.79
735.00	1540.07
735.18	1583.08
735.36	1550.31
735.54	1587.18
735.73	1587.18
735.91	1607.66
736.09	1566.70
736.27	1509.35
736.45	1517.54
736.63	1476.59
736.81	1597.42
736.99	1677.29
737.17	1560.55
737.35	1519.59
737.53	1538.02
737.71	1583.08
737.89	1613.80
738.07	1476.59
738.25	1525.74
738.43	1445.87
738.61	1482.73
738.80	1474.54
738.98	1492.97
739.16	1472.49
739.34	1523.69
739.52	1658.85
739.70	1595.37
739.88	1593.32
740.06	1640.42
740.24	1486.83
740.42	1576.94
740.60	1529.83
740.78	1468.39
740.96	1456.11
741.14	1562.60
741.32	1542.12
741.50	1525.74
741.68	1621.99
741.86	1546.22
742.04	1499.11
742.22	1509.35
742.40	1578.98
742.58	1542.12
742.76	1433.58
742.94	1599.46
743.12	1464.30
743.30	1611.75
743.48	1488.87
743.66	1509.35
743.84	1634.28
744.02	1523.69
744.20	1505.26
744.38	1519.59
744.56	1535.98
744.74	1615.85
744.92	1554.41
745.10	1601.51
745.28	1578.98
745.46	1527.78
745.64	1454.06
745.82	1613.80
746.00	1533.93
746.18	1585.13
746.36	1505.26
746.54	1552.36
746.72	1535.98
746.90	1544.17
747.08	1562.60
747.26	1509.35
747.44	1492.97
747.62	1527.78
747.80	1484.78
747.98	1591.27
748.15	1538.02
748.33	1562.60
748.51	1458.15
748.69	1597.42
748.87	1488.87
749.05	1546.22
749.23	1546.22
749.41	1556.46
749.59	1531.88
749.77	1665.00
749.95	1478.63
750.13	1464.30
750.31	1513.45
750.49	1505.26
750.67	1544.17
750.85	1673.19
751.03	1497.07
751.20	1595.37
751.38	1544.17
751.56	1505.26
751.74	1533.93
751.92	1503.21
752.10	1486.83
752.28	1546.22
752.46	1433.58
752.64	1544.17
752.82	1636.33
753.00	1607.66
753.18	1572.84
753.35	1497.07
753.53	1517.54
753.71	1546.22
753.89	1609.70
754.07	1595.37
754.25	1636.33
754.43	1476.59
754.61	1515.50
754.79	1593.32
754.97	1517.54
755.14	1589.22
755.32	1503.21
755.50	1540.07
755.68	1576.94
755.86	1460.20
756.04	1587.18
756.22	1501.16
756.40	1535.98
756.57	1667.05
756.75	1574.89
756.93	1572.84
757.11	1578.98
757.29	1523.69
757.47	1486.83
757.65	1509.35
757.82	1470.44
758.00	1507.30
758.18	1492.97
758.36	1511.40
758.54	1679.33
758.72	1495.02
758.90	1566.70
759.07	1554.41
759.25	1488.87
759.43	1527.78
759.61	1531.88
759.79	1976.29
759.97	1521.64
760.15	1443.82
760.32	1492.97
760.50	1505.26
760.68	1605.61
760.86	1482.73
761.04	1572.84
761.22	1544.17
761.39	1503.21
761.57	1525.74
761.75	1587.18
761.93	1570.79
762.11	1560.55
762.28	1552.36
762.46	1474.54
762.64	1617.90
762.82	1419.24
763.00	1589.22
763.18	1513.45
763.35	1511.40
763.53	1597.42
763.71	1558.50
763.89	1587.18
764.07	1525.74
764.24	1591.27
764.42	1630.18
764.60	1458.15
764.78	1499.11
764.96	1570.79
765.13	1595.37
765.31	1468.39
765.49	1525.74
765.67	1544.17
765.84	1499.11
766.02	1484.78
766.20	1478.63
766.38	1562.60
766.56	1527.78
766.73	1552.36
766.91	1486.83
767.09	1495.02
767.27	1642.47
767.44	1509.35
767.62	1521.64
767.80	1583.08
767.98	1497.07
768.15	1544.17
768.33	1591.27
768.51	1585.13
768.69	1560.55
768.87	1578.98
769.04	1540.07
769.22	1630.18
769.40	1601.51
769.58	1714.15
769.75	1576.94
769.93	1558.50
770.11	1570.79
770.28	1527.78
770.46	1558.50
770.64	1464.30
770.82	1542.12
770.99	1527.78
771.17	1499.11
771.35	1568.74
771.53	1538.02
771.70	1511.40
771.88	1576.94
772.06	1540.07
772.23	1531.88
772.41	1560.55
772.59	1595.37
772.77	1468.39
772.94	1503.21
773.12	1558.50
773.30	1486.83
773.47	1552.36
773.65	1564.65
773.83	1552.36
774.01	1505.26
774.18	1509.35
774.36	1527.78
774.54	1638.38
774.71	1550.31
774.89	1488.87
775.07	1505.26
775.24	1587.18
775.42	1540.07
775.60	1638.38
775.78	1556.46
775.95	1435.63
776.13	1417.19
776.31	1435.63
776.48	1550.31
776.66	1556.46
776.84	1535.98
777.01	1505.26
777.19	1490.92
777.37	1472.49
777.54	1548.26
777.72	1701.86
777.90	1476.59
778.07	1476.59
778.25	1724.39
778.43	1538.02
778.60	1538.02
778.78	1589.22
778.96	1523.69
779.13	1458.15
779.31	1562.60
779.49	1535.98
779.66	1499.11
779.84	1558.50
780.01	1548.26
780.19	1513.45
780.37	1626.09
780.54	1550.31
780.72	1519.59
780.90	1550.31
781.07	1495.02
781.25	1540.07
781.43	1540.07
781.60	1527.78
781.78	1626.09
781.95	1527.78
782.13	1517.54
782.31	1591.27
782.48	1437.67
782.66	1478.63
782.83	1617.90
783.01	1529.83
783.19	1679.33
783.36	1546.22
783.54	1531.88
783.72	1560.55
783.89	1542.12
784.07	1511.40
784.24	1538.02
784.42	1646.57
784.60	1525.74
784.77	1519.59
784.95	1470.44
785.12	1527.78
785.30	1525.74
785.47	1503.21
785.65	1458.15
785.83	1499.11
786.00	1517.54
786.18	1531.88
786.35	1460.20
786.53	1400.81
786.71	1564.65
786.88	1568.74
787.06	1529.83
787.23	1523.69
787.41	1470.44
787.58	1589.22
787.76	1511.40
787.94	1472.49
788.11	1599.46
788.29	1626.09
788.46	1515.50
788.64	1488.87
788.81	1544.17
788.99	1542.12
789.16	1558.50
789.34	1607.66
789.52	1517.54
789.69	1521.64
789.87	1409.00
790.04	1570.79
790.22	1513.45
790.39	1595.37
790.57	1447.91
790.74	1427.43
790.92	1581.03
791.09	1419.24
791.27	1570.79
791.44	1654.76
791.62	1486.83
791.79	1572.84
791.97	1599.46
792.15	1718.25
792.32	1562.60
792.50	1572.84
792.67	1560.55
792.85	1554.41
793.02	1587.18
793.20	1507.30
793.37	1468.39
793.55	1546.22
793.72	1437.67
793.90	1660.90
794.07	1578.98
794.25	1513.45
794.42	1505.26
794.60	1501.16
794.77	1609.70
794.95	1538.02
795.12	1529.83
795.30	1501.16
795.47	1472.49
795.65	1699.81
795.82	1558.50
796.00	1427.43
796.17	1495.02
796.34	1503.21
796.52	1521.64
796.69	1652.71
796.87	1515.50
797.04	1476.59
797.22	1619.94
797.39	1478.63
797.57	1552.36
797.74	1505.26
797.92	1503.21
798.09	1480.68
798.27	1570.79
798.44	1464.30
798.62	1488.87
798.79	1511.40
798.96	1497.07
799.14	1595.37
799.31	1691.62
799.49	1507.30
799.66	1529.83
799.84	1507.30
800.01	1578.98
800.19	1445.87
800.36	1509.35
800.53	1626.09
800.71	1507.30
800.88	1615.85
801.06	1470.44
801.23	1527.78
801.41	1538.02
801.58	1550.31
801.75	1503.21
801.93	1568.74
802.10	1574.89
802.28	1544.17
802.45	1595.37
802.63	1587.18
802.80	1593.32
802.97	1597.42
803.15	1531.88
803.32	1568.74
803.50	1482.73
803.67	1423.34
803.84	1538.02
804.02	1585.13
804.19	1484.78
804.37	1409.00
804.54	1474.54
804.71	1552.36
804.89	1587.18
805.06	1488.87
805.24	1515.50
805.41	1554.41
805.58	1515.50
805.76	1652.71
805.93	1529.83
806.10	1558.50
806.28	1562.60
806.45	1566.70
806.63	1505.26
806.80	1570.79
806.97	1611.75
807.15	1525.74
807.32	1492.97
807.49	1548.26
807.67	1456.11
807.84	1621.99
808.01	1411.05
808.19	1632.23
808.36	1712.10
808.54	1482.73
808.71	1517.54
808.88	1599.46
809.06	1548.26
809.23	1558.50
809.40	1568.74
809.58	1609.70
809.75	1601.51
809.92	1495.02
810.10	1611.75
810.27	1626.09
810.44	1607.66
810.62	1640.42
810.79	1560.55
810.96	1535.98
811.14	1523.69
811.31	1591.27
811.48	1515.50
811.66	1486.83
811.83	1597.42
812.00	1533.93
812.18	1562.60
812.35	1691.62
812.52	1544.17
812.69	1445.87
812.87	1568.74
813.04	1546.22
813.21	1578.98
813.39	1443.82
813.56	1484.78
813.73	1548.26
813.91	1460.20
814.08	1517.54
814.25	1535.98
814.42	1452.01
814.60	1486.83
814.77	1556.46
814.94	1495.02
815.12	1540.07
815.29	1624.04
815.46	1542.12
815.63	1581.03
815.81	1630.18
815.98	1503.21
816.15	1482.73
816.33	1566.70
816.50	1521.64
816.67	1542.12
816.84	1507.30
817.02	1499.11
817.19	1492.97
817.36	1595.37
817.53	1533.93
817.71	1472.49
817.88	1564.65
818.05	1525.74
818.22	1523.69
818.40	1585.13
818.57	1447.91
818.74	1540.07
818.91	1529.83
819.09	1576.94
819.26	1609.70
819.43	1517.54
819.60	1531.88
819.78	1587.18
819.95	1566.70
820.12	1452.01
820.29	1599.46
820.47	1566.70
820.64	1503.21
820.81	1452.01
820.98	1468.39
821.15	1488.87
821.33	1628.14
821.50	1468.39
821.67	1544.17
821.84	1445.87
822.02	1497.07
822.19	1578.98
822.36	1490.92
822.53	1566.70
822.70	1540.07
822.88	1527.78
823.05	1640.42
823.22	1497.07
823.39	1562.60
823.56	1517.54
823.74	1642.47
823.91	1492.97
824.08	1437.67
824.25	1456.11
824.42	1593.32
824.60	1449.96
824.77	1568.74
824.94	1531.88
825.11	1546.22
825.28	1478.63
825.45	1542.12
825.63	1501.16
825.80	1558.50
825.97	1540.07
826.14	1527.78
826.31	1427.43
826.48	1519.59
826.66	1540.07
826.83	1548.26
827.00	1538.02
827.17	1533.93
827.34	1517.54
827.51	1515.50
827.69	1570.79
827.86	1454.06
828.03	1564.65
828.20	1552.36
828.37	1556.46
828.54	1630.18
828.71	1470.44
828.89	1662.95
829.06	1519.59
829.23	1589.22
829.40	1499.11
829.57	1535.98
829.74	1509.35
829.91	1492.97
830.09	1523.69
830.26	1607.66
830.43	1560.55
830.60	1533.93
830.77	1531.88
830.94	1542.12
831.11	1624.04
831.28	1556.46
831.46	1564.65
831.63	1531.88
831.80	1630.18
831.97	1511.40
832.14	1495.02
832.31	1572.84
832.48	1548.26
832.65	1576.94
832.82	1568.74
832.99	1585.13
833.17	1482.73
833.34	1585.13
833.51	1544.17
833.68	1456.11
833.85	1572.84
834.02	1583.08
834.19	1490.92
834.36	1495.02
834.53	1513.45
834.70	1546.22
834.87	1589.22
835.04	1527.78
835.22	1556.46
835.39	1509.35
835.56	1523.69
835.73	1552.36
835.90	1585.13
836.07	1488.87
836.24	1581.03
836.41	1599.46
836.58	1421.29
836.75	1613.80
836.92	1572.84
837.09	1490.92
837.26	1621.99
837.43	1529.83
837.60	1521.64
837.77	1462.25
837.94	1617.90
838.12	1619.94
838.29	1587.18
838.46	1538.02
838.63	1421.29
838.80	1609.70
838.97	1572.84
839.14	1486.83
839.31	1535.98
839.48	1583.08
839.65	1486.83
839.82	1538.02
839.99	1462.25
840.16	1574.89
840.33	1476.59
840.50	1533.93
840.67	1560.55
840.84	1495.02
841.01	1523.69
841.18	1462.25
841.35	1499.11
841.52	1578.98
841.69	1636.33
841.86	1540.07
842.03	1554.41
842.20	1589.22
842.37	1562.60
842.54	1509.35
842.71	1529.83
842.88	1497.07
843.05	1544.17
843.22	1495.02
843.39	1527.78
843.56	1386.47
843.73	1474.54
843.90	1558.50
844.07	1591.27
844.24	1531.88
844.41	1585.13
844.58	1538.02
844.75	1560.55
844.92	1589.22
845.09	1517.54
845.26	1505.26
845.43	1519.59
845.60	1505.26
845.77	1601.51
845.94	1552.36
846.10	1566.70
846.27	1501.16
846.44	1458.15
846.61	1509.35
846.78	1568.74
846.95	1538.02
847.12	1445.87
847.29	1546.22
847.46	1468.39
847.63	1550.31
847.80	1538.02
847.97	1566.70
848.14	1636.33
848.31	1511.40
848.48	1472.49
848.65	1525.74
848.82	1462.25
848.98	1658.85
849.15	1574.89
849.32	1546.22
849.49	1546.22
849.66	1538.02
849.83	1591.27
850.00	1564.65
850.17	1535.98
850.34	1554.41
850.51	1488.87
850.68	1435.63
850.85	1665.00
851.01	1564.65
851.18	1544.17
851.35	1564.65
851.52	1497.07
851.69	1583.08
851.86	1472.49
852.03	1572.84
852.20	1515.50
852.37	1490.92
852.53	1421.29
852.70	1607.66
852.87	1548.26
853.04	1550.31
853.21	1531.88
853.38	1613.80
853.55	1546.22
853.72	1634.28
853.89	1439.72
854.05	1538.02
854.22	1447.91
854.39	1495.02
854.56	1507.30
854.73	1550.31
854.90	1486.83
855.07	1480.68
855.23	1490.92
855.40	1476.59
855.57	1562.60
855.74	1470.44
855.91	1738.73
856.08	1492.97
856.25	1499.11
856.41	1511.40
856.58	1525.74
856.75	1554.41
856.92	1499.11
857.09	1505.26
857.26	1472.49
857.42	1433.58
857.59	1570.79
857.76	1562.60
857.93	1482.73
858.10	1542.12
858.27	1490.92
858.43	1505.26
858.60	1550.31
858.77	1458.15
858.94	1499.11
859.11	1607.66
859.27	1617.90
859.44	1566.70
859.61	1599.46
859.78	1585.13
859.95	1501.16
860.12	1499.11
860.28	1605.61
860.45	1564.65
860.62	1492.97
860.79	1468.39
860.95	1505.26
861.12	1478.63
861.29	1501.16
861.46	1452.01
861.63	1550.31
861.79	1476.59
861.96	1501.16
862.13	1452.01
862.30	1529.83
862.47	1544.17
862.63	1484.78
862.80	1581.03
862.97	1486.83
863.14	1564.65
863.30	1497.07
863.47	1513.45
863.64	1548.26
863.81	1552.36
863.97	1593.32
864.14	1589.22
864.31	1421.29
864.48	1533.93
864.65	1441.77
864.81	1509.35
864.98	1535.98
865.15	1587.18
865.32	1572.84
865.48	1560.55
865.65	1601.51
865.82	1587.18
865.98	1624.04
866.15	1554.41
866.32	1462.25
866.49	1558.50
866.65	1626.09
866.82	1466.35
866.99	1576.94
867.16	1480.68
867.32	1484.78
867.49	1517.54
867.66	1540.07
867.83	1497.07
867.99	1472.49
868.16	1449.96
868.33	1540.07
868.49	1488.87
868.66	1525.74
868.83	1529.83
868.99	1527.78
869.16	1482.73
869.33	1658.85
869.50	1515.50
869.66	1585.13
869.83	1521.64
870.00	1495.02
870.16	1511.40
870.33	1619.94
870.50	1546.22
870.66	1556.46
870.83	1550.31
871.00	1593.32
871.17	1486.83
871.33	1613.80
871.50	1492.97
871.67	1464.30
871.83	1411.05
872.00	1685.48
872.17	1509.35
872.33	1564.65
872.50	1554.41
872.67	1478.63
872.83	1566.70
873.00	1515.50
873.17	1585.13
873.33	1552.36
873.50	1490.92
873.67	1542.12
873.83	1511.40
874.00	1554.41
874.16	1576.94
874.33	1497.07
874.50	1464.30
874.66	1542.12
874.83	1484.78
875.00	1589.22
875.16	1660.90
875.33	1630.18
875.50	1437.67
875.66	1462.25
875.83	1566.70
875.99	1556.46
876.16	1441.77
876.33	1515.50
876.49	1503.21
876.66	1574.89
876.83	1564.65
876.99	1470.44
877.16	1556.46
877.32	1542.12
877.49	1529.83
877.66	1621.99
877.82	1611.75
877.99	1497.07
878.15	1572.84
878.32	1513.45
878.49	1558.50
878.65	1454.06
878.82	1578.98
878.98	1513.45
879.15	1593.32
879.32	1609.70
879.48	1558.50
879.65	1478.63
879.81	1427.43
879.98	1533.93
880.15	1574.89
880.31	1611.75
880.48	1538.02
880.64	1523.69
880.81	1601.51
880.97	1576.94
881.14	1605.61
881.31	1531.88
881.47	1603.56
881.64	1484.78
881.80	1400.81
881.97	1574.89
882.13	1542.12
882.30	1507.30
882.47	1484.78
882.63	1531.88
882.80	1517.54
882.96	1468.39
883.13	1617.90
883.29	1519.59
883.46	1558.50
883.62	1570.79
883.79	1615.85
883.95	1572.84
884.12	1476.59
884.29	1535.98
884.45	1550.31
884.62	1550.31
884.78	1435.63
884.95	1595.37
885.11	1505.26
885.28	1566.70
885.44	1472.49
885.61	1636.33
885.77	1619.94
885.94	1544.17
886.10	1464.30
886.27	1523.69
886.43	1591.27
886.60	1615.85
886.76	1525.74
886.93	1570.79
887.09	1609.70
887.26	1544.17
887.42	1501.16
887.59	1564.65
887.75	1550.31
887.92	1533.93
888.08	1597.42
888.25	1603.56
888.41	1568.74
888.58	1556.46
888.74	1468.39
888.91	1523.69
>>>>>End Processed Spectral Data<<<<<
