SpectraSuite Data File
++++++++++++++++++++++++++++++++++++
Date: Tue May 03 12:55:41 CEST 2016
User: root
Dark Spectrum Present: No
Reference Spectrum Present: No
Number of Sampled Component Spectra: 1
Spectrometers: USB4C02835
Integration Time (usec): 100000 (USB4C02835)
Spectra Averaged: 1 (USB4C02835)
Boxcar Smoothing: 0 (USB4C02835)
Correct for Electrical Dark: No (USB4C02835)
Strobe/Lamp Enabled: No (USB4C02835)
Correct for Detector Non-linearity: No (USB4C02835)
Correct for Stray Light: No (USB4C02835)
Number of Pixels in Processed Spectrum: 3648
>>>>>Begin Processed Spectral Data<<<<<
177.47	1396.71
177.69	1396.71
177.91	1396.71
178.13	1304.56
178.36	1329.13
178.58	1542.12
178.80	1480.68
179.02	1454.06
179.24	1404.91
179.46	1519.59
179.68	1599.46
179.90	1509.35
180.13	1495.02
180.35	1480.68
180.57	1578.98
180.79	1609.70
181.01	1540.07
181.23	1583.08
181.45	1652.71
181.67	1581.03
181.90	1626.09
182.12	1505.26
182.34	1497.07
182.56	1546.22
182.78	1488.87
183.00	1554.41
183.22	1626.09
183.44	1462.25
183.66	1595.37
183.89	1619.94
184.11	1601.51
184.33	1621.99
184.55	1595.37
184.77	1540.07
184.99	1544.17
185.21	1525.74
185.43	1621.99
185.65	1439.72
185.87	1511.40
186.10	1656.81
186.32	1687.53
186.54	1585.13
186.76	1482.73
186.98	1529.83
187.20	1517.54
187.42	1511.40
187.64	1540.07
187.86	1591.27
188.08	1572.84
188.30	1578.98
188.52	1462.25
188.75	1566.70
188.97	1609.70
189.19	1546.22
189.41	1546.22
189.63	1462.25
189.85	1562.60
190.07	1521.64
190.29	1499.11
190.51	1513.45
190.73	1409.00
190.95	1648.61
191.17	1538.02
191.39	1452.01
191.61	1509.35
191.84	1468.39
192.06	1589.22
192.28	1470.44
192.50	1605.61
192.72	1497.07
192.94	1505.26
193.16	1535.98
193.38	1548.26
193.60	1511.40
193.82	1552.36
194.04	1642.47
194.26	1533.93
194.48	1646.57
194.70	1572.84
194.92	1617.90
195.14	1583.08
195.36	1482.73
195.58	1593.32
195.80	1492.97
196.02	1497.07
196.24	1550.31
196.46	1583.08
196.69	1521.64
196.91	1658.85
197.13	1583.08
197.35	1449.96
197.57	1523.69
197.79	1574.89
198.01	1556.46
198.23	1597.42
198.45	1507.30
198.67	1449.96
198.89	1527.78
199.11	1546.22
199.33	1540.07
199.55	1411.05
199.77	1574.89
199.99	1587.18
200.21	1368.04
200.43	1591.27
200.65	1476.59
200.87	1462.25
201.09	1503.21
201.31	1468.39
201.53	1566.70
201.75	1570.79
201.97	1533.93
202.19	1452.01
202.41	1535.98
202.63	1619.94
202.85	1591.27
203.07	1611.75
203.29	1472.49
203.51	1490.92
203.73	1507.30
203.95	1708.01
204.17	1550.31
204.39	1552.36
204.61	1409.00
204.83	1492.97
205.05	1599.46
205.27	1566.70
205.49	1665.00
205.71	1503.21
205.93	1462.25
206.15	1542.12
206.37	1589.22
206.59	1519.59
206.81	1507.30
207.03	1624.04
207.25	1497.07
207.47	1523.69
207.69	1560.55
207.91	1585.13
208.13	1603.56
208.34	1507.30
208.56	1531.88
208.78	1548.26
209.00	1542.12
209.22	1515.50
209.44	1470.44
209.66	1535.98
209.88	1548.26
210.10	1492.97
210.32	1497.07
210.54	1589.22
210.76	1535.98
210.98	1617.90
211.20	1413.10
211.42	1576.94
211.64	1599.46
211.86	1556.46
212.08	1599.46
212.30	1505.26
212.52	1566.70
212.74	1589.22
212.96	1503.21
213.17	1581.03
213.39	1560.55
213.61	1529.83
213.83	1544.17
214.05	1538.02
214.27	1615.85
214.49	1482.73
214.71	1501.16
214.93	1654.76
215.15	1540.07
215.37	1558.50
215.59	1562.60
215.81	1603.56
216.03	1628.14
216.24	1538.02
216.46	1503.21
216.68	1486.83
216.90	1456.11
217.12	1628.14
217.34	1529.83
217.56	1624.04
217.78	1626.09
218.00	1556.46
218.22	1517.54
218.44	1521.64
218.66	1554.41
218.87	1583.08
219.09	1460.20
219.31	1568.74
219.53	1562.60
219.75	1574.89
219.97	1546.22
220.19	1538.02
220.41	1611.75
220.63	1574.89
220.85	1546.22
221.06	1495.02
221.28	1601.51
221.50	1560.55
221.72	1501.16
221.94	1521.64
222.16	1570.79
222.38	1583.08
222.60	1540.07
222.82	1511.40
223.03	1617.90
223.25	1519.59
223.47	1535.98
223.69	1605.61
223.91	1624.04
224.13	1558.50
224.35	1560.55
224.57	1583.08
224.78	1544.17
225.00	1501.16
225.22	1523.69
225.44	1480.68
225.66	1572.84
225.88	1558.50
226.10	1624.04
226.32	1568.74
226.53	1585.13
226.75	1517.54
226.97	1550.31
227.19	1568.74
227.41	1492.97
227.63	1519.59
227.85	1488.87
228.06	1535.98
228.28	1546.22
228.50	1527.78
228.72	1513.45
228.94	1535.98
229.16	1462.25
229.37	1527.78
229.59	1519.59
229.81	1550.31
230.03	1443.82
230.25	1484.78
230.47	1466.35
230.69	1449.96
230.90	1646.57
231.12	1517.54
231.34	1513.45
231.56	1591.27
231.78	1452.01
232.00	1542.12
232.21	1593.32
232.43	1517.54
232.65	1437.67
232.87	1474.54
233.09	1480.68
233.30	1548.26
233.52	1581.03
233.74	1515.50
233.96	1492.97
234.18	1527.78
234.40	1507.30
234.61	1632.23
234.83	1445.87
235.05	1513.45
235.27	1566.70
235.49	1591.27
235.70	1519.59
235.92	1617.90
236.14	1529.83
236.36	1677.29
236.58	1433.58
236.79	1681.38
237.01	1560.55
237.23	1548.26
237.45	1634.28
237.67	1468.39
237.88	1548.26
238.10	1597.42
238.32	1499.11
238.54	1535.98
238.76	1445.87
238.97	1527.78
239.19	1538.02
239.41	1624.04
239.63	1632.23
239.85	1525.74
240.06	1521.64
240.28	1497.07
240.50	1611.75
240.72	1578.98
240.93	1572.84
241.15	1542.12
241.37	1566.70
241.59	1626.09
241.81	1554.41
242.02	1519.59
242.24	1505.26
242.46	1572.84
242.68	1546.22
242.89	1554.41
243.11	1562.60
243.33	1566.70
243.55	1542.12
243.76	1597.42
243.98	1437.67
244.20	1456.11
244.42	1550.31
244.64	1574.89
244.85	1478.63
245.07	1488.87
245.29	1531.88
245.51	1558.50
245.72	1630.18
245.94	1538.02
246.16	1589.22
246.38	1601.51
246.59	1482.73
246.81	1462.25
247.03	1554.41
247.24	1558.50
247.46	1519.59
247.68	1527.78
247.90	1523.69
248.11	1554.41
248.33	1527.78
248.55	1558.50
248.77	1599.46
248.98	1562.60
249.20	1624.04
249.42	1564.65
249.64	1507.30
249.85	1568.74
250.07	1443.82
250.29	1554.41
250.50	1538.02
250.72	1488.87
250.94	1544.17
251.16	1613.80
251.37	1615.85
251.59	1574.89
251.81	1548.26
252.02	1599.46
252.24	1585.13
252.46	1497.07
252.68	1515.50
252.89	1419.24
253.11	1503.21
253.33	1624.04
253.54	1619.94
253.76	1470.44
253.98	1523.69
254.20	1519.59
254.41	1482.73
254.63	1605.61
254.85	1445.87
255.06	1601.51
255.28	1538.02
255.50	1574.89
255.71	1390.57
255.93	1478.63
256.15	1503.21
256.36	1574.89
256.58	1529.83
256.80	1603.56
257.02	1531.88
257.23	1574.89
257.45	1535.98
257.67	1562.60
257.88	1523.69
258.10	1576.94
258.32	1558.50
258.53	1519.59
258.75	1525.74
258.97	1484.78
259.18	1535.98
259.40	1529.83
259.62	1669.09
259.83	1638.38
260.05	1615.85
260.27	1779.68
260.48	1564.65
260.70	1499.11
260.92	1546.22
261.13	1572.84
261.35	1499.11
261.57	1589.22
261.78	1427.43
262.00	1521.64
262.22	1636.33
262.43	1513.45
262.65	1527.78
262.86	1581.03
263.08	1685.48
263.30	1550.31
263.51	1388.52
263.73	1560.55
263.95	1654.76
264.16	1466.35
264.38	1538.02
264.60	1558.50
264.81	1540.07
265.03	1572.84
265.25	1638.38
265.46	1624.04
265.68	1562.60
265.89	1640.42
266.11	1492.97
266.33	1564.65
266.54	1593.32
266.76	1521.64
266.98	1570.79
267.19	1617.90
267.41	1611.75
267.62	1562.60
267.84	1464.30
268.06	1527.78
268.27	1519.59
268.49	1527.78
268.70	1613.80
268.92	1449.96
269.14	1519.59
269.35	1439.72
269.57	1601.51
269.79	1509.35
270.00	1460.20
270.22	1605.61
270.43	1548.26
270.65	1400.81
270.87	1587.18
271.08	1595.37
271.30	1507.30
271.51	1533.93
271.73	1509.35
271.95	1648.61
272.16	1562.60
272.38	1525.74
272.59	1535.98
272.81	1576.94
273.02	1564.65
273.24	1576.94
273.46	1531.88
273.67	1515.50
273.89	1513.45
274.10	1560.55
274.32	1589.22
274.54	1591.27
274.75	1570.79
274.97	1521.64
275.18	1585.13
275.40	1501.16
275.61	1611.75
275.83	1503.21
276.05	1505.26
276.26	1533.93
276.48	1591.27
276.69	1484.78
276.91	1538.02
277.12	1558.50
277.34	1599.46
277.55	1490.92
277.77	1484.78
277.99	1517.54
278.20	1576.94
278.42	1525.74
278.63	1523.69
278.85	1533.93
279.06	1517.54
279.28	1511.40
279.49	1538.02
279.71	1638.38
279.93	1486.83
280.14	1529.83
280.36	1558.50
280.57	1583.08
280.79	1591.27
281.00	1546.22
281.22	1560.55
281.43	1501.16
281.65	1574.89
281.86	1576.94
282.08	1593.32
282.29	1617.90
282.51	1525.74
282.73	1486.83
282.94	1470.44
283.16	1470.44
283.37	1697.77
283.59	1468.39
283.80	1550.31
284.02	1548.26
284.23	1613.80
284.45	1476.59
284.66	1509.35
284.88	1525.74
285.09	1576.94
285.31	1574.89
285.52	1642.47
285.74	1495.02
285.95	1607.66
286.17	1617.90
286.38	1535.98
286.60	1492.97
286.81	1560.55
287.03	1521.64
287.24	1476.59
287.46	1601.51
287.67	1501.16
287.89	1570.79
288.10	1511.40
288.32	1619.94
288.53	1568.74
288.75	1581.03
288.96	1529.83
289.18	1595.37
289.39	1566.70
289.61	1628.14
289.82	1667.05
290.04	1601.51
290.25	1509.35
290.47	1519.59
290.68	1548.26
290.90	1597.42
291.11	1456.11
291.33	1531.88
291.54	1470.44
291.76	1535.98
291.97	1517.54
292.18	1628.14
292.40	1533.93
292.61	1546.22
292.83	1681.38
293.04	1611.75
293.26	1505.26
293.47	1527.78
293.69	1550.31
293.90	1533.93
294.12	1578.98
294.33	1482.73
294.55	1548.26
294.76	1556.46
294.97	1585.13
295.19	1652.71
295.40	1441.77
295.62	1554.41
295.83	1523.69
296.05	1511.40
296.26	1574.89
296.48	1476.59
296.69	1484.78
296.90	1533.93
297.12	1605.61
297.33	1527.78
297.55	1488.87
297.76	1558.50
297.98	1572.84
298.19	1568.74
298.41	1554.41
298.62	1456.11
298.83	1607.66
299.05	1591.27
299.26	1548.26
299.48	1525.74
299.69	1550.31
299.90	1554.41
300.12	1478.63
300.33	1603.56
300.55	1562.60
300.76	1538.02
300.98	1433.58
301.19	1529.83
301.40	1570.79
301.62	1490.92
301.83	1501.16
302.05	1529.83
302.26	1517.54
302.47	1529.83
302.69	1439.72
302.90	1505.26
303.12	1499.11
303.33	1517.54
303.54	1572.84
303.76	1542.12
303.97	1564.65
304.19	1599.46
304.40	1480.68
304.61	1490.92
304.83	1615.85
305.04	1632.23
305.26	1568.74
305.47	1443.82
305.68	1525.74
305.90	1492.97
306.11	1570.79
306.33	1484.78
306.54	1472.49
306.75	1607.66
306.97	1429.48
307.18	1513.45
307.39	1560.55
307.61	1593.32
307.82	1439.72
308.04	1589.22
308.25	1482.73
308.46	1517.54
308.68	1505.26
308.89	1546.22
309.10	1589.22
309.32	1499.11
309.53	1542.12
309.74	1572.84
309.96	1490.92
310.17	1640.42
310.39	1529.83
310.60	1533.93
310.81	1515.50
311.03	1499.11
311.24	1634.28
311.45	1576.94
311.67	1605.61
311.88	1492.97
312.09	1495.02
312.31	1519.59
312.52	1486.83
312.73	1529.83
312.95	1464.30
313.16	1470.44
313.37	1576.94
313.59	1548.26
313.80	1456.11
314.01	1624.04
314.23	1509.35
314.44	1589.22
314.65	1427.43
314.87	1490.92
315.08	1513.45
315.29	1464.30
315.51	1447.91
315.72	1505.26
315.93	1576.94
316.15	1593.32
316.36	1513.45
316.57	1517.54
316.79	1509.35
317.00	1468.39
317.21	1527.78
317.43	1554.41
317.64	1531.88
317.85	1497.07
318.07	1511.40
318.28	1619.94
318.49	1726.44
318.70	1812.45
318.92	1820.64
319.13	1708.01
319.34	1724.39
319.56	1656.81
319.77	1650.66
319.98	1671.14
320.20	1613.80
320.41	1576.94
320.62	1595.37
320.83	1593.32
321.05	1671.14
321.26	1523.69
321.47	1484.78
321.69	1581.03
321.90	1406.95
322.11	1499.11
322.32	1585.13
322.54	1603.56
322.75	1564.65
322.96	1673.19
323.18	1519.59
323.39	1396.71
323.60	1540.07
323.81	1564.65
324.03	1501.16
324.24	1535.98
324.45	1478.63
324.66	1572.84
324.88	1560.55
325.09	1611.75
325.30	1583.08
325.52	1599.46
325.73	1519.59
325.94	1495.02
326.15	1511.40
326.37	1630.18
326.58	1535.98
326.79	1593.32
327.00	1443.82
327.22	1540.07
327.43	1521.64
327.64	1437.67
327.85	1574.89
328.07	1503.21
328.28	1593.32
328.49	1474.54
328.70	1529.83
328.92	1574.89
329.13	1560.55
329.34	1593.32
329.55	1646.57
329.76	1552.36
329.98	1507.30
330.19	1650.66
330.40	1505.26
330.61	1531.88
330.83	1538.02
331.04	1521.64
331.25	1509.35
331.46	1562.60
331.68	1546.22
331.89	1562.60
332.10	1427.43
332.31	1527.78
332.52	1564.65
332.74	1558.50
332.95	1415.15
333.16	1589.22
333.37	1593.32
333.58	1460.20
333.80	1503.21
334.01	1437.67
334.22	1517.54
334.43	1535.98
334.64	1497.07
334.86	1472.49
335.07	1495.02
335.28	1636.33
335.49	1460.20
335.70	1624.04
335.92	1552.36
336.13	1572.84
336.34	1525.74
336.55	1566.70
336.76	1542.12
336.98	1421.29
337.19	1538.02
337.40	1599.46
337.61	1662.95
337.82	1523.69
338.04	1617.90
338.25	1486.83
338.46	1523.69
338.67	1476.59
338.88	1464.30
339.09	1447.91
339.31	1558.50
339.52	1509.35
339.73	1497.07
339.94	1578.98
340.15	1531.88
340.36	1531.88
340.58	1578.98
340.79	1488.87
341.00	1535.98
341.21	1544.17
341.42	1578.98
341.63	1548.26
341.85	1587.18
342.06	1513.45
342.27	1546.22
342.48	1613.80
342.69	1429.48
342.90	1538.02
343.12	1564.65
343.33	1529.83
343.54	1507.30
343.75	1550.31
343.96	1519.59
344.17	1535.98
344.38	1513.45
344.60	1552.36
344.81	1472.49
345.02	1527.78
345.23	1593.32
345.44	1722.34
345.65	1574.89
345.86	1626.09
346.07	1576.94
346.29	1589.22
346.50	1578.98
346.71	1550.31
346.92	1619.94
347.13	1601.51
347.34	1562.60
347.55	1499.11
347.76	1591.27
347.98	1503.21
348.19	1531.88
348.40	1533.93
348.61	1460.20
348.82	1574.89
349.03	1544.17
349.24	1517.54
349.45	1613.80
349.66	1486.83
349.88	1556.46
350.09	1486.83
350.30	1542.12
350.51	1587.18
350.72	1566.70
350.93	1568.74
351.14	1548.26
351.35	1533.93
351.56	1548.26
351.77	1513.45
351.99	1570.79
352.20	1546.22
352.41	1683.43
352.62	1513.45
352.83	1540.07
353.04	1542.12
353.25	1470.44
353.46	1626.09
353.67	1624.04
353.88	1456.11
354.09	1587.18
354.30	1529.83
354.52	1572.84
354.73	1517.54
354.94	1499.11
355.15	1554.41
355.36	1609.70
355.57	1476.59
355.78	1581.03
355.99	1478.63
356.20	1544.17
356.41	1609.70
356.62	1542.12
356.83	1464.30
357.04	1568.74
357.25	1398.76
357.46	1478.63
357.68	1501.16
357.89	1484.78
358.10	1562.60
358.31	1570.79
358.52	1488.87
358.73	1495.02
358.94	1474.54
359.15	1511.40
359.36	1615.85
359.57	1499.11
359.78	1513.45
359.99	1525.74
360.20	1529.83
360.41	1488.87
360.62	1523.69
360.83	1595.37
361.04	1542.12
361.25	1572.84
361.46	1609.70
361.67	1593.32
361.88	1703.91
362.09	1562.60
362.30	1517.54
362.51	1476.59
362.72	1548.26
362.93	1607.66
363.14	1566.70
363.35	1523.69
363.56	1484.78
363.78	1628.14
363.99	1540.07
364.20	1488.87
364.41	1499.11
364.62	1544.17
364.83	1544.17
365.04	1548.26
365.25	1538.02
365.46	1644.52
365.67	1562.60
365.88	1476.59
366.09	1509.35
366.30	1476.59
366.51	1527.78
366.72	1449.96
366.93	1548.26
367.14	1517.54
367.35	1576.94
367.56	1570.79
367.77	1673.19
367.98	1535.98
368.18	1523.69
368.39	1550.31
368.60	1462.25
368.81	1589.22
369.02	1509.35
369.23	1519.59
369.44	1478.63
369.65	1538.02
369.86	1560.55
370.07	1572.84
370.28	1492.97
370.49	1634.28
370.70	1611.75
370.91	1517.54
371.12	1472.49
371.33	1589.22
371.54	1615.85
371.75	1675.24
371.96	1406.95
372.17	1607.66
372.38	1509.35
372.59	1595.37
372.80	1544.17
373.01	1470.44
373.22	1599.46
373.43	1576.94
373.64	1423.34
373.85	1595.37
374.06	1597.42
374.26	1550.31
374.47	1560.55
374.68	1597.42
374.89	1554.41
375.10	1562.60
375.31	1576.94
375.52	1552.36
375.73	1533.93
375.94	1558.50
376.15	1558.50
376.36	1531.88
376.57	1484.78
376.78	1505.26
376.99	1525.74
377.20	1683.43
377.40	1521.64
377.61	1511.40
377.82	1535.98
378.03	1521.64
378.24	1503.21
378.45	1562.60
378.66	1648.61
378.87	1464.30
379.08	1468.39
379.29	1509.35
379.50	1562.60
379.71	1521.64
379.91	1624.04
380.12	1570.79
380.33	1495.02
380.54	1576.94
380.75	1544.17
380.96	1525.74
381.17	1634.28
381.38	1583.08
381.59	1591.27
381.80	1581.03
382.00	1656.81
382.21	1562.60
382.42	1615.85
382.63	1683.43
382.84	1595.37
383.05	1581.03
383.26	1562.60
383.47	1574.89
383.68	1587.18
383.88	1662.95
384.09	1576.94
384.30	1554.41
384.51	1511.40
384.72	1605.61
384.93	1478.63
385.14	1570.79
385.35	1621.99
385.55	1601.51
385.76	1583.08
385.97	1552.36
386.18	1490.92
386.39	1533.93
386.60	1607.66
386.81	1454.06
387.02	1615.85
387.22	1523.69
387.43	1599.46
387.64	1730.53
387.85	1843.17
388.06	3153.87
388.27	7174.03
388.48	10723.16
388.68	12666.69
388.89	13905.71
389.10	12963.64
389.31	10266.47
389.52	9011.06
389.73	7868.30
389.93	7270.29
390.14	6766.49
390.35	6274.98
390.56	5611.43
390.77	4683.70
390.98	3563.47
391.18	2856.92
391.39	2228.19
391.60	1812.45
391.81	1753.06
392.02	1572.84
392.23	1662.95
392.43	1640.42
392.64	1589.22
392.85	1492.97
393.06	1558.50
393.27	1568.74
393.47	1550.31
393.68	1497.07
393.89	1529.83
394.10	1556.46
394.31	1486.83
394.52	1468.39
394.72	1505.26
394.93	1572.84
395.14	1509.35
395.35	1578.98
395.56	1486.83
395.76	1599.46
395.97	1683.43
396.18	1722.34
396.39	1716.20
396.60	1875.94
396.80	1818.60
397.01	1720.29
397.22	1681.38
397.43	1650.66
397.64	1626.09
397.84	1632.23
398.05	1644.52
398.26	1677.29
398.47	1671.14
398.67	1599.46
398.88	1578.98
399.09	1603.56
399.30	1484.78
399.51	1628.14
399.71	1527.78
399.92	1552.36
400.13	1540.07
400.34	1548.26
400.54	1519.59
400.75	1671.14
400.96	1562.60
401.17	1621.99
401.37	1609.70
401.58	1517.54
401.79	1550.31
402.00	1767.40
402.21	1937.38
402.41	1982.43
402.62	2009.06
402.83	1984.48
403.04	1929.19
403.24	1880.04
403.45	1732.58
403.66	1746.92
403.87	1648.61
404.07	1753.06
404.28	1808.36
404.49	1701.86
404.70	1556.46
404.90	1585.13
405.11	1605.61
405.32	1632.23
405.52	1540.07
405.73	1517.54
405.94	1523.69
406.15	1511.40
406.35	1503.21
406.56	1626.09
406.77	1527.78
406.98	1501.16
407.18	1480.68
407.39	1552.36
407.60	1542.12
407.80	1488.87
408.01	1533.93
408.22	1538.02
408.43	1513.45
408.63	1572.84
408.84	1671.14
409.05	1511.40
409.25	1433.58
409.46	1497.07
409.67	1542.12
409.88	1490.92
410.08	1566.70
410.29	1517.54
410.50	1550.31
410.70	1572.84
410.91	1449.96
411.12	1538.02
411.32	1527.78
411.53	1515.50
411.74	1636.33
411.95	1632.23
412.15	1665.00
412.36	1609.70
412.57	1550.31
412.77	1624.04
412.98	1503.21
413.19	1601.51
413.39	1570.79
413.60	1595.37
413.81	1656.81
414.01	1523.69
414.22	1548.26
414.43	1589.22
414.63	1560.55
414.84	1574.89
415.05	1564.65
415.25	1593.32
415.46	1621.99
415.67	1445.87
415.87	1648.61
416.08	1568.74
416.29	1552.36
416.49	1488.87
416.70	1585.13
416.91	1413.10
417.11	1535.98
417.32	1556.46
417.53	1601.51
417.73	1568.74
417.94	1513.45
418.15	1542.12
418.35	1476.59
418.56	1548.26
418.77	1619.94
418.97	1599.46
419.18	1478.63
419.38	1423.34
419.59	1560.55
419.80	1665.00
420.00	1538.02
420.21	1509.35
420.42	1595.37
420.62	1634.28
420.83	1552.36
421.04	1603.56
421.24	1495.02
421.45	1605.61
421.65	1583.08
421.86	1578.98
422.07	1558.50
422.27	1673.19
422.48	1566.70
422.69	1492.97
422.89	1511.40
423.10	1546.22
423.30	1540.07
423.51	1521.64
423.72	1507.30
423.92	1548.26
424.13	1523.69
424.33	1587.18
424.54	1621.99
424.75	1486.83
424.95	1665.00
425.16	1519.59
425.36	1497.07
425.57	1488.87
425.78	1611.75
425.98	1562.60
426.19	1511.40
426.39	1492.97
426.60	1523.69
426.81	1599.46
427.01	1578.98
427.22	1495.02
427.42	1503.21
427.63	1511.40
427.83	1511.40
428.04	1642.47
428.25	1632.23
428.45	1601.51
428.66	1529.83
428.86	1564.65
429.07	1576.94
429.28	1587.18
429.48	1550.31
429.69	1464.30
429.89	1544.17
430.10	1499.11
430.30	1564.65
430.51	1544.17
430.71	1527.78
430.92	1552.36
431.13	1513.45
431.33	1521.64
431.54	1597.42
431.74	1673.19
431.95	1626.09
432.15	1601.51
432.36	1564.65
432.56	1617.90
432.77	1552.36
432.98	1609.70
433.18	1558.50
433.39	1597.42
433.59	1480.68
433.80	1669.09
434.00	1679.33
434.21	1513.45
434.41	1513.45
434.62	1605.61
434.82	1566.70
435.03	1470.44
435.23	1519.59
435.44	1435.63
435.64	1509.35
435.85	1572.84
436.06	1578.98
436.26	1535.98
436.47	1484.78
436.67	1490.92
436.88	1591.27
437.08	1599.46
437.29	1621.99
437.49	1564.65
437.70	1578.98
437.90	1638.38
438.11	1753.06
438.31	1683.43
438.52	1753.06
438.72	1822.69
438.93	1791.97
439.13	1609.70
439.34	1652.71
439.54	1611.75
439.75	1652.71
439.95	1574.89
440.16	1560.55
440.36	1558.50
440.57	1552.36
440.77	1560.55
440.98	1499.11
441.18	1638.38
441.39	1554.41
441.59	1511.40
441.80	1601.51
442.00	1535.98
442.21	1611.75
442.41	1480.68
442.62	1554.41
442.82	1462.25
443.02	1646.57
443.23	1554.41
443.43	1570.79
443.64	1613.80
443.84	1531.88
444.05	1669.09
444.25	1562.60
444.46	1507.30
444.66	1538.02
444.87	1568.74
445.07	1505.26
445.28	1509.35
445.48	1611.75
445.69	1566.70
445.89	1746.92
446.09	1566.70
446.30	2093.02
446.50	3198.93
446.71	4519.87
446.91	5441.45
447.12	5719.98
447.32	5607.34
447.53	4724.66
447.73	3999.68
447.93	3678.15
448.14	3284.94
448.34	3164.11
448.55	2805.72
448.75	2981.84
448.96	2731.99
449.16	2394.08
449.36	2306.01
449.57	2007.01
449.77	1767.40
449.98	1589.22
450.18	1585.13
450.39	1601.51
450.59	1593.32
450.79	1521.64
451.00	1535.98
451.20	1583.08
451.41	1564.65
451.61	1517.54
451.81	1533.93
452.02	1574.89
452.22	1568.74
452.43	1562.60
452.63	1552.36
452.84	1554.41
453.04	1521.64
453.24	1552.36
453.45	1576.94
453.65	1495.02
453.86	1630.18
454.06	1558.50
454.26	1591.27
454.47	1509.35
454.67	1574.89
454.87	1535.98
455.08	1546.22
455.28	1640.42
455.49	1624.04
455.69	1435.63
455.89	1609.70
456.10	1619.94
456.30	1578.98
456.51	1552.36
456.71	1560.55
456.91	1542.12
457.12	1568.74
457.32	1509.35
457.52	1519.59
457.73	1650.66
457.93	1568.74
458.14	1464.30
458.34	1476.59
458.54	1542.12
458.75	1574.89
458.95	1511.40
459.15	1587.18
459.36	1490.92
459.56	1591.27
459.76	1558.50
459.97	1525.74
460.17	1533.93
460.37	1611.75
460.58	1595.37
460.78	1525.74
460.99	1495.02
461.19	1495.02
461.39	1572.84
461.60	1527.78
461.80	1560.55
462.00	1470.44
462.21	1566.70
462.41	1531.88
462.61	1509.35
462.82	1509.35
463.02	1529.83
463.22	1572.84
463.43	1636.33
463.63	1544.17
463.83	1609.70
464.04	1554.41
464.24	1515.50
464.44	1492.97
464.64	1507.30
464.85	1615.85
465.05	1593.32
465.25	1552.36
465.46	1542.12
465.66	1640.42
465.86	1572.84
466.07	1538.02
466.27	1511.40
466.47	1585.13
466.68	1488.87
466.88	1558.50
467.08	1492.97
467.29	1527.78
467.49	1548.26
467.69	1511.40
467.89	1615.85
468.10	1540.07
468.30	1576.94
468.50	1560.55
468.71	1591.27
468.91	1501.16
469.11	1587.18
469.31	1601.51
469.52	1515.50
469.72	1624.04
469.92	1603.56
470.13	1552.36
470.33	1595.37
470.53	1693.67
470.73	2099.17
470.94	2369.50
471.14	2428.89
471.34	2623.45
471.54	2428.89
471.75	2125.79
471.95	2131.94
472.15	1996.77
472.36	1927.14
472.56	1841.12
472.76	1904.61
472.96	1880.04
473.17	1871.84
473.37	1777.64
473.57	1650.66
473.77	1642.47
473.98	1568.74
474.18	1488.87
474.38	1683.43
474.58	1511.40
474.79	1568.74
474.99	1578.98
475.19	1542.12
475.39	1525.74
475.60	1585.13
475.80	1519.59
476.00	1607.66
476.20	1531.88
476.41	1513.45
476.61	1587.18
476.81	1621.99
477.01	1505.26
477.21	1601.51
477.42	1581.03
477.62	1466.35
477.82	1550.31
478.02	1570.79
478.23	1542.12
478.43	1599.46
478.63	1462.25
478.83	1460.20
479.03	1593.32
479.24	1593.32
479.44	1560.55
479.64	1531.88
479.84	1449.96
480.04	1550.31
480.25	1617.90
480.45	1488.87
480.65	1501.16
480.85	1613.80
481.06	1490.92
481.26	1523.69
481.46	1533.93
481.66	1527.78
481.86	1544.17
482.06	1566.70
482.27	1480.68
482.47	1488.87
482.67	1624.04
482.87	1540.07
483.07	1581.03
483.28	1615.85
483.48	1509.35
483.68	1523.69
483.88	1540.07
484.08	1488.87
484.29	1456.11
484.49	1490.92
484.69	1542.12
484.89	1644.52
485.09	1585.13
485.29	1583.08
485.50	1566.70
485.70	1542.12
485.90	1667.05
486.10	1546.22
486.30	1566.70
486.50	1626.09
486.71	1597.42
486.91	1578.98
487.11	1587.18
487.31	1517.54
487.51	1564.65
487.71	1562.60
487.91	1527.78
488.12	1529.83
488.32	1503.21
488.52	1480.68
488.72	1478.63
488.92	1566.70
489.12	1619.94
489.32	1542.12
489.53	1521.64
489.73	1519.59
489.93	1499.11
490.13	1525.74
490.33	1452.01
490.53	1581.03
490.73	1558.50
490.94	1540.07
491.14	1595.37
491.34	1667.05
491.54	2146.27
491.74	2676.70
491.94	3143.63
492.14	3278.80
492.34	3188.69
492.54	2815.96
492.75	2373.60
492.95	2377.69
493.15	2248.67
493.35	2107.36
493.55	2181.09
493.75	1990.63
493.95	1976.29
494.15	1970.15
494.35	1824.74
494.56	1724.39
494.76	1611.75
494.96	1728.49
495.16	1656.81
495.36	1636.33
495.56	1554.41
495.76	1529.83
495.96	1599.46
496.16	1474.54
496.36	1667.05
496.56	1554.41
496.77	1544.17
496.97	1511.40
497.17	1609.70
497.37	1525.74
497.57	1593.32
497.77	1538.02
497.97	1535.98
498.17	1427.43
498.37	1560.55
498.57	1599.46
498.77	1558.50
498.97	1458.15
499.17	1675.24
499.38	1560.55
499.58	1533.93
499.78	1613.80
499.98	1626.09
500.18	1529.83
500.38	1624.04
500.58	1736.68
500.78	2662.36
500.98	5009.33
501.18	6653.85
501.38	8148.87
501.58	8781.69
501.78	8025.99
501.98	6121.38
502.18	5482.41
502.38	4628.41
502.58	4267.97
502.78	3833.80
502.98	3825.61
503.18	3518.41
503.38	3411.92
503.59	2977.75
503.79	2838.48
503.99	2523.10
504.19	2365.40
504.39	2176.99
504.59	2086.88
504.79	2027.49
504.99	1978.34
505.19	1814.50
505.39	1796.07
505.59	1753.06
505.79	1724.39
505.99	1656.81
506.19	1587.18
506.39	1716.20
506.59	1566.70
506.79	1564.65
506.99	1593.32
507.19	1583.08
507.39	1685.48
507.59	1503.21
507.79	1531.88
507.99	1501.16
508.19	1548.26
508.39	1523.69
508.59	1533.93
508.79	1669.09
508.99	1677.29
509.19	1460.20
509.39	1538.02
509.59	1562.60
509.79	1533.93
509.99	1548.26
510.19	1570.79
510.39	1519.59
510.59	1603.56
510.79	1566.70
510.99	1515.50
511.19	1548.26
511.39	1581.03
511.59	1540.07
511.79	1619.94
511.99	1533.93
512.19	1619.94
512.38	1566.70
512.58	1501.16
512.78	1544.17
512.98	1556.46
513.18	1654.76
513.38	1439.72
513.58	1550.31
513.78	1546.22
513.98	1505.26
514.18	1589.22
514.38	1411.05
514.58	1564.65
514.78	1515.50
514.98	1480.68
515.18	1511.40
515.38	1398.76
515.58	1615.85
515.78	1495.02
515.98	1515.50
516.18	1585.13
516.38	1517.54
516.57	1527.78
516.77	1505.26
516.97	1558.50
517.17	1583.08
517.37	1462.25
517.57	1648.61
517.77	1533.93
517.97	1566.70
518.17	1617.90
518.37	1511.40
518.57	1482.73
518.77	1486.83
518.97	1611.75
519.16	1650.66
519.36	1605.61
519.56	1574.89
519.76	1523.69
519.96	1603.56
520.16	1640.42
520.36	1521.64
520.56	1644.52
520.76	1538.02
520.96	1523.69
521.16	1597.42
521.35	1585.13
521.55	1574.89
521.75	1613.80
521.95	1558.50
522.15	1513.45
522.35	1488.87
522.55	1513.45
522.75	1517.54
522.95	1562.60
523.14	1509.35
523.34	1492.97
523.54	1550.31
523.74	1570.79
523.94	1593.32
524.14	1409.00
524.34	1599.46
524.54	1527.78
524.73	1515.50
524.93	1521.64
525.13	1558.50
525.33	1478.63
525.53	1628.14
525.73	1558.50
525.93	1564.65
526.13	1525.74
526.32	1497.07
526.52	1574.89
526.72	1605.61
526.92	1542.12
527.12	1568.74
527.32	1517.54
527.52	1593.32
527.71	1636.33
527.91	1517.54
528.11	1454.06
528.31	1531.88
528.51	1456.11
528.71	1607.66
528.90	1531.88
529.10	1626.09
529.30	1593.32
529.50	1513.45
529.70	1568.74
529.90	1478.63
530.09	1595.37
530.29	1521.64
530.49	1507.30
530.69	1685.48
530.89	1570.79
531.09	1556.46
531.28	1535.98
531.48	1595.37
531.68	1529.83
531.88	1495.02
532.08	1572.84
532.28	1525.74
532.47	1605.61
532.67	1630.18
532.87	1611.75
533.07	1560.55
533.27	1609.70
533.46	1587.18
533.66	1550.31
533.86	1589.22
534.06	1591.27
534.26	1609.70
534.45	1507.30
534.65	1587.18
534.85	1603.56
535.05	1556.46
535.25	1560.55
535.44	1535.98
535.64	1527.78
535.84	1525.74
536.04	1488.87
536.24	1554.41
536.43	1478.63
536.63	1546.22
536.83	1542.12
537.03	1587.18
537.22	1521.64
537.42	1531.88
537.62	1554.41
537.82	1517.54
538.02	1642.47
538.21	1597.42
538.41	1708.01
538.61	1546.22
538.81	1540.07
539.00	1613.80
539.20	1505.26
539.40	1574.89
539.60	1558.50
539.79	1564.65
539.99	1535.98
540.19	1476.59
540.39	1564.65
540.58	1517.54
540.78	1581.03
540.98	1560.55
541.18	1574.89
541.37	1634.28
541.57	1556.46
541.77	1621.99
541.97	1605.61
542.16	1454.06
542.36	1595.37
542.56	1490.92
542.76	1617.90
542.95	1570.79
543.15	1548.26
543.35	1578.98
543.54	1533.93
543.74	1468.39
543.94	1554.41
544.14	1535.98
544.33	1517.54
544.53	1556.46
544.73	1507.30
544.93	1544.17
545.12	1505.26
545.32	1517.54
545.52	1554.41
545.71	1386.47
545.91	1482.73
546.11	1591.27
546.30	1509.35
546.50	1523.69
546.70	1529.83
546.90	1556.46
547.09	1437.67
547.29	1564.65
547.49	1515.50
547.68	1501.16
547.88	1525.74
548.08	1521.64
548.27	1896.42
548.47	1556.46
548.67	1497.07
548.87	1576.94
549.06	1542.12
549.26	1572.84
549.46	1630.18
549.65	1490.92
549.85	1505.26
550.05	1525.74
550.24	1431.53
550.44	1544.17
550.64	1583.08
550.83	1509.35
551.03	1607.66
551.23	1638.38
551.42	1603.56
551.62	1538.02
551.82	1533.93
552.01	1478.63
552.21	1648.61
552.41	1581.03
552.60	1535.98
552.80	1593.32
553.00	1507.30
553.19	1511.40
553.39	1572.84
553.59	1492.97
553.78	1585.13
553.98	1552.36
554.17	1499.11
554.37	1570.79
554.57	1605.61
554.76	1525.74
554.96	1519.59
555.16	1619.94
555.35	1566.70
555.55	1597.42
555.75	1605.61
555.94	1585.13
556.14	1482.73
556.33	1599.46
556.53	1519.59
556.73	1593.32
556.92	1544.17
557.12	1560.55
557.32	1583.08
557.51	1511.40
557.71	1570.79
557.90	1609.70
558.10	1540.07
558.30	1583.08
558.49	1572.84
558.69	1566.70
558.88	1560.55
559.08	1634.28
559.28	1507.30
559.47	1478.63
559.67	1572.84
559.86	1632.23
560.06	1540.07
560.26	1503.21
560.45	1552.36
560.65	1552.36
560.84	1628.14
561.04	1476.59
561.24	1533.93
561.43	1499.11
561.63	1595.37
561.82	1540.07
562.02	1466.35
562.22	1581.03
562.41	1511.40
562.61	1544.17
562.80	1476.59
563.00	1603.56
563.19	1570.79
563.39	1581.03
563.59	1519.59
563.78	1527.78
563.98	1439.72
564.17	1505.26
564.37	1472.49
564.56	1624.04
564.76	1468.39
564.96	1554.41
565.15	1581.03
565.35	1605.61
565.54	1535.98
565.74	1601.51
565.93	1634.28
566.13	1540.07
566.32	1556.46
566.52	1554.41
566.71	1548.26
566.91	1603.56
567.11	1542.12
567.30	1497.07
567.50	1509.35
567.69	1554.41
567.89	1519.59
568.08	1519.59
568.28	1595.37
568.47	1562.60
568.67	1626.09
568.86	1447.91
569.06	1611.75
569.25	1482.73
569.45	1554.41
569.64	1497.07
569.84	1552.36
570.04	1585.13
570.23	1521.64
570.43	1556.46
570.62	1538.02
570.82	1642.47
571.01	1495.02
571.21	1486.83
571.40	1587.18
571.60	1578.98
571.79	1597.42
571.99	1505.26
572.18	1525.74
572.38	1591.27
572.57	1556.46
572.77	1558.50
572.96	1679.33
573.16	1609.70
573.35	1593.32
573.55	1593.32
573.74	1574.89
573.94	1593.32
574.13	1538.02
574.33	1564.65
574.52	1615.85
574.71	1513.45
574.91	1525.74
575.10	1511.40
575.30	1492.97
575.49	1492.97
575.69	1527.78
575.88	1626.09
576.08	1597.42
576.27	1609.70
576.47	1626.09
576.66	1693.67
576.86	1667.05
577.05	1591.27
577.25	1566.70
577.44	1693.67
577.64	1597.42
577.83	1626.09
578.02	1554.41
578.22	1585.13
578.41	1648.61
578.61	1548.26
578.80	1509.35
579.00	1587.18
579.19	1574.89
579.39	1652.71
579.58	1591.27
579.77	1601.51
579.97	1628.14
580.16	1658.85
580.36	1615.85
580.55	1732.58
580.75	1615.85
580.94	1615.85
581.13	1695.72
581.33	1648.61
581.52	1468.39
581.72	1716.20
581.91	1630.18
582.11	1591.27
582.30	1617.90
582.49	1558.50
582.69	1636.33
582.88	1626.09
583.08	1613.80
583.27	1650.66
583.47	1601.51
583.66	1599.46
583.85	1564.65
584.05	1601.51
584.24	1617.90
584.44	1658.85
584.63	1605.61
584.82	1708.01
585.02	1683.43
585.21	1779.68
585.41	1722.34
585.60	1744.87
585.79	1810.40
585.99	1812.45
586.18	1751.01
586.37	2035.68
586.57	3098.58
586.76	9779.05
586.96	27643.48
587.15	44119.39
587.34	54789.31
587.54	61279.32
587.73	59675.76
587.93	43779.43
588.12	32613.90
588.31	26072.69
588.51	22179.50
588.70	19984.08
588.89	18630.37
589.09	16815.87
589.28	15337.24
589.47	13309.75
589.67	11095.89
589.86	8945.53
590.06	6825.88
590.25	4982.71
590.44	3676.10
590.64	2914.26
590.83	2289.63
591.02	2068.45
591.22	1857.51
591.41	1824.74
591.60	1671.14
591.80	1773.54
591.99	1581.03
592.18	1587.18
592.38	1603.56
592.57	1617.90
592.76	1527.78
592.96	1611.75
593.15	1636.33
593.34	1544.17
593.54	1556.46
593.73	1630.18
593.92	1628.14
594.12	1617.90
594.31	1626.09
594.50	1652.71
594.70	1644.52
594.89	1689.57
595.08	1447.91
595.28	1710.05
595.47	1695.72
595.66	1624.04
595.86	1558.50
596.05	1540.07
596.24	1566.70
596.43	1740.77
596.63	1679.33
596.82	1667.05
597.01	1589.22
597.21	1662.95
597.40	1560.55
597.59	1605.61
597.79	1630.18
597.98	1628.14
598.17	1644.52
598.36	1591.27
598.56	1673.19
598.75	1558.50
598.94	1544.17
599.14	1574.89
599.33	1540.07
599.52	1591.27
599.71	1535.98
599.91	1654.76
600.10	1619.94
600.29	1583.08
600.48	1603.56
600.68	1599.46
600.87	1572.84
601.06	1546.22
601.26	1525.74
601.45	1531.88
601.64	1535.98
601.83	1648.61
602.03	1558.50
602.22	1488.87
602.41	1572.84
602.60	1683.43
602.80	1589.22
602.99	1601.51
603.18	1554.41
603.37	1681.38
603.57	1611.75
603.76	1650.66
603.95	1599.46
604.14	1480.68
604.34	1535.98
604.53	1527.78
604.72	1542.12
604.91	1585.13
605.10	1527.78
605.30	1535.98
605.49	1665.00
605.68	1572.84
605.87	1558.50
606.07	1517.54
606.26	1570.79
606.45	1601.51
606.64	1566.70
606.84	1591.27
607.03	1597.42
607.22	1593.32
607.41	1646.57
607.60	1548.26
607.80	1611.75
607.99	1470.44
608.18	1531.88
608.37	1546.22
608.56	1566.70
608.76	1656.81
608.95	1685.48
609.14	1587.18
609.33	1601.51
609.52	1683.43
609.72	1689.57
609.91	1640.42
610.10	1640.42
610.29	1632.23
610.48	1617.90
610.68	1611.75
610.87	1560.55
611.06	1581.03
611.25	1552.36
611.44	1538.02
611.63	1581.03
611.83	1605.61
612.02	1515.50
612.21	1630.18
612.40	1531.88
612.59	1447.91
612.79	1558.50
612.98	1497.07
613.17	1642.47
613.36	1562.60
613.55	1710.05
613.74	1675.24
613.93	1642.47
614.13	1775.59
614.32	1708.01
614.51	1806.31
614.70	1677.29
614.89	1632.23
615.08	1640.42
615.28	1925.09
615.47	1581.03
615.66	1634.28
615.85	1675.24
616.04	1742.82
616.23	1648.61
616.42	1679.33
616.62	1660.90
616.81	1607.66
617.00	1552.36
617.19	1624.04
617.38	1576.94
617.57	1591.27
617.76	1589.22
617.95	1558.50
618.15	1648.61
618.34	1574.89
618.53	1474.54
618.72	1583.08
618.91	1591.27
619.10	1601.51
619.29	1525.74
619.48	1607.66
619.68	1468.39
619.87	1583.08
620.06	1488.87
620.25	1568.74
620.44	1542.12
620.63	1503.21
620.82	1519.59
621.01	1511.40
621.20	1533.93
621.39	1630.18
621.59	1605.61
621.78	1568.74
621.97	1527.78
622.16	1581.03
622.35	1533.93
622.54	1568.74
622.73	1552.36
622.92	1615.85
623.11	1683.43
623.30	1480.68
623.49	1591.27
623.68	1521.64
623.88	1607.66
624.07	1531.88
624.26	1538.02
624.45	1578.98
624.64	1546.22
624.83	1554.41
625.02	1507.30
625.21	1507.30
625.40	1548.26
625.59	1591.27
625.78	1593.32
625.97	1638.38
626.16	1607.66
626.35	1560.55
626.54	1570.79
626.74	1667.05
626.93	1642.47
627.12	1531.88
627.31	1638.38
627.50	1669.09
627.69	1566.70
627.88	1515.50
628.07	1509.35
628.26	1495.02
628.45	1490.92
628.64	1533.93
628.83	1474.54
629.02	1531.88
629.21	1656.81
629.40	1564.65
629.59	1462.25
629.78	1488.87
629.97	1572.84
630.16	1488.87
630.35	1562.60
630.54	1581.03
630.73	1507.30
630.92	1603.56
631.11	1538.02
631.30	1572.84
631.49	1628.14
631.68	1566.70
631.87	1552.36
632.06	1488.87
632.25	1724.39
632.44	1540.07
632.63	1638.38
632.82	1621.99
633.01	1525.74
633.20	1636.33
633.39	1605.61
633.58	1638.38
633.77	1681.38
633.96	1640.42
634.15	1628.14
634.34	1644.52
634.53	1566.70
634.72	1621.99
634.91	1533.93
635.10	1558.50
635.29	1595.37
635.48	1583.08
635.67	1478.63
635.86	1531.88
636.05	1599.46
636.24	1605.61
636.43	1568.74
636.62	1511.40
636.81	1478.63
637.00	1595.37
637.19	1556.46
637.38	1495.02
637.57	1503.21
637.76	1564.65
637.95	1705.96
638.14	1605.61
638.33	1652.71
638.52	1685.48
638.71	1581.03
638.89	1574.89
639.08	1697.77
639.27	1589.22
639.46	1644.52
639.65	1918.95
639.84	2107.36
640.03	2131.94
640.22	2193.37
640.41	2191.33
640.60	1945.57
640.79	1871.84
640.98	1738.73
641.17	1781.73
641.36	1753.06
641.55	1781.73
641.74	1656.81
641.92	1613.80
642.11	1632.23
642.30	1624.04
642.49	1583.08
642.68	1527.78
642.87	1558.50
643.06	1585.13
643.25	1507.30
643.44	1667.05
643.63	1423.34
643.82	1593.32
644.00	1427.43
644.19	1560.55
644.38	1523.69
644.57	1581.03
644.76	1562.60
644.95	1492.97
645.14	1574.89
645.33	1550.31
645.52	1562.60
645.71	1480.68
645.89	1486.83
646.08	1464.30
646.27	1503.21
646.46	1675.24
646.65	1474.54
646.84	1570.79
647.03	1611.75
647.22	1626.09
647.40	1492.97
647.59	1521.64
647.78	1503.21
647.97	1566.70
648.16	1505.26
648.35	1585.13
648.54	1566.70
648.73	1519.59
648.91	1495.02
649.10	1546.22
649.29	1525.74
649.48	1562.60
649.67	1542.12
649.86	1544.17
650.05	1662.95
650.23	1626.09
650.42	1687.53
650.61	1716.20
650.80	1683.43
650.99	1810.40
651.18	1708.01
651.36	1687.53
651.55	1550.31
651.74	1597.42
651.93	1509.35
652.12	1574.89
652.31	1540.07
652.49	1574.89
652.68	1529.83
652.87	1667.05
653.06	1531.88
653.25	1660.90
653.44	1638.38
653.62	1583.08
653.81	1558.50
654.00	1603.56
654.19	1525.74
654.38	1675.24
654.56	1601.51
654.75	1511.40
654.94	1476.59
655.13	1556.46
655.32	1554.41
655.51	1548.26
655.69	1548.26
655.88	1558.50
656.07	1482.73
656.26	1587.18
656.45	1495.02
656.63	1638.38
656.82	1513.45
657.01	1535.98
657.20	1499.11
657.38	1636.33
657.57	1570.79
657.76	1521.64
657.95	1607.66
658.14	1546.22
658.32	1499.11
658.51	1488.87
658.70	1472.49
658.89	1568.74
659.08	1560.55
659.26	1699.81
659.45	1603.56
659.64	1566.70
659.83	1617.90
660.01	1701.86
660.20	1619.94
660.39	1648.61
660.58	1495.02
660.76	1576.94
660.95	1484.78
661.14	1599.46
661.33	1482.73
661.51	1548.26
661.70	1497.07
661.89	1564.65
662.08	1550.31
662.26	1484.78
662.45	1501.16
662.64	1626.09
662.83	1576.94
663.01	1523.69
663.20	1505.26
663.39	1656.81
663.58	1495.02
663.76	1546.22
663.95	1597.42
664.14	1472.49
664.32	1503.21
664.51	1585.13
664.70	1462.25
664.89	1595.37
665.07	1540.07
665.26	1599.46
665.45	1523.69
665.64	1603.56
665.82	1581.03
666.01	1621.99
666.20	1488.87
666.38	1609.70
666.57	1597.42
666.76	1791.97
666.95	2969.55
667.13	7694.22
667.32	15740.69
667.51	20342.47
667.69	23621.27
667.88	25321.09
668.07	22230.70
668.25	15787.79
668.44	12384.07
668.63	10129.25
668.81	8523.65
669.00	7636.88
669.19	7153.55
669.38	6352.80
669.56	5623.72
669.75	4847.54
669.94	4227.01
670.12	3459.02
670.31	2844.63
670.50	2394.08
670.68	2052.06
670.87	1916.90
671.06	1808.36
671.24	1769.44
671.43	1730.53
671.62	1656.81
671.80	1587.18
671.99	1638.38
672.18	1621.99
672.36	1621.99
672.55	1630.18
672.74	1525.74
672.92	1619.94
673.11	1546.22
673.29	1574.89
673.48	1605.61
673.67	1599.46
673.85	1656.81
674.04	1548.26
674.23	1609.70
674.41	1617.90
674.60	1615.85
674.79	1478.63
674.97	1507.30
675.16	1581.03
675.34	1636.33
675.53	1574.89
675.72	1511.40
675.90	1603.56
676.09	1581.03
676.28	1460.20
676.46	1466.35
676.65	1566.70
676.83	1490.92
677.02	1540.07
677.21	1511.40
677.39	1472.49
677.58	1540.07
677.77	1488.87
677.95	1466.35
678.14	1566.70
678.32	1566.70
678.51	1443.82
678.70	1640.42
678.88	1449.96
679.07	1488.87
679.25	1568.74
679.44	1488.87
679.63	1570.79
679.81	1538.02
680.00	1613.80
680.18	1630.18
680.37	1542.12
680.55	1558.50
680.74	1458.15
680.93	1392.62
681.11	1570.79
681.30	1507.30
681.48	1501.16
681.67	1576.94
681.85	1581.03
682.04	1505.26
682.23	1593.32
682.41	1574.89
682.60	1507.30
682.78	1478.63
682.97	1529.83
683.15	1511.40
683.34	1550.31
683.53	1538.02
683.71	1513.45
683.90	1642.47
684.08	1662.95
684.27	1531.88
684.45	1554.41
684.64	1617.90
684.82	1497.07
685.01	1554.41
685.19	1581.03
685.38	1624.04
685.57	1603.56
685.75	1474.54
685.94	1560.55
686.12	1572.84
686.31	1458.15
686.49	1611.75
686.68	1525.74
686.86	1615.85
687.05	1576.94
687.23	1642.47
687.42	1570.79
687.60	1472.49
687.79	1599.46
687.97	1613.80
688.16	1624.04
688.34	1626.09
688.53	1478.63
688.71	1583.08
688.90	1550.31
689.08	1554.41
689.27	1511.40
689.45	1550.31
689.64	1626.09
689.82	1652.71
690.01	1554.41
690.19	1556.46
690.38	1574.89
690.56	1650.66
690.75	1535.98
690.93	1517.54
691.12	1503.21
691.30	1560.55
691.49	1501.16
691.67	1533.93
691.86	1607.66
692.04	1578.98
692.23	1576.94
692.41	1572.84
692.60	1648.61
692.78	1626.09
692.97	1607.66
693.15	1632.23
693.34	1677.29
693.52	1669.09
693.71	1576.94
693.89	1562.60
694.08	1486.83
694.26	1552.36
694.44	1583.08
694.63	1626.09
694.81	1501.16
695.00	1560.55
695.18	1507.30
695.37	1636.33
695.55	1560.55
695.74	1626.09
695.92	1511.40
696.10	1550.31
696.29	1509.35
696.47	1574.89
696.66	1525.74
696.84	1542.12
697.03	1548.26
697.21	1597.42
697.40	2035.68
697.58	1628.14
697.76	1515.50
697.95	1585.13
698.13	1499.11
698.32	1523.69
698.50	1513.45
698.68	1601.51
698.87	1513.45
699.05	1644.52
699.24	1478.63
699.42	1511.40
699.61	1540.07
699.79	1517.54
699.97	1527.78
700.16	1515.50
700.34	1603.56
700.53	1517.54
700.71	1583.08
700.89	1578.98
701.08	1646.57
701.26	1480.68
701.45	1818.60
701.63	1466.35
701.81	1505.26
702.00	1531.88
702.18	1595.37
702.37	1578.98
702.55	1667.05
702.73	1642.47
702.92	1613.80
703.10	1724.39
703.28	1863.65
703.47	1710.05
703.65	1724.39
703.84	1773.54
704.02	1617.90
704.20	1634.28
704.39	1671.14
704.57	1634.28
704.75	1648.61
704.94	1621.99
705.12	1511.40
705.30	1638.38
705.49	1875.94
705.67	2873.30
705.86	7440.27
706.04	14485.28
706.22	18773.73
706.41	21726.90
706.59	23293.60
706.77	20893.38
706.96	14767.90
707.14	11702.09
707.32	9797.48
707.51	8636.28
707.69	7597.96
707.87	6834.07
708.06	5941.16
708.24	4765.62
708.42	3737.54
708.61	3002.32
708.79	2279.39
708.97	1933.28
709.16	1828.84
709.34	1732.58
709.52	1679.33
709.71	1619.94
709.89	1640.42
710.07	1597.42
710.26	1556.46
710.44	1519.59
710.62	1615.85
710.80	1564.65
710.99	1595.37
711.17	1570.79
711.35	1466.35
711.54	1554.41
711.72	1501.16
711.90	1640.42
712.09	1560.55
712.27	1513.45
712.45	1578.98
712.63	1572.84
712.82	1505.26
713.00	1552.36
713.18	1607.66
713.37	1607.66
713.55	1595.37
713.73	1595.37
713.91	1609.70
714.10	1492.97
714.28	1513.45
714.46	1587.18
714.65	1585.13
714.83	1548.26
715.01	1509.35
715.19	1566.70
715.38	1433.58
715.56	1458.15
715.74	1574.89
715.92	1492.97
716.11	1568.74
716.29	1497.07
716.47	1501.16
716.65	1542.12
716.84	1535.98
717.02	1591.27
717.20	1480.68
717.38	1570.79
717.57	1544.17
717.75	1495.02
717.93	1452.01
718.11	1560.55
718.30	1515.50
718.48	1568.74
718.66	1595.37
718.84	1591.27
719.03	1511.40
719.21	1476.59
719.39	1603.56
719.57	1560.55
719.75	1570.79
719.94	1468.39
720.12	1517.54
720.30	1492.97
720.48	1576.94
720.67	1523.69
720.85	1542.12
721.03	1523.69
721.21	1495.02
721.39	1587.18
721.58	1521.64
721.76	1601.51
721.94	1544.17
722.12	1566.70
722.30	1624.04
722.49	1560.55
722.67	1552.36
722.85	1521.64
723.03	1480.68
723.21	1540.07
723.40	1587.18
723.58	1540.07
723.76	1564.65
723.94	1589.22
724.12	1632.23
724.30	1654.76
724.49	1624.04
724.67	1607.66
724.85	1632.23
725.03	1535.98
725.21	1613.80
725.40	1533.93
725.58	1542.12
725.76	1572.84
725.94	1605.61
726.12	1480.68
726.30	1533.93
726.49	1484.78
726.67	1535.98
726.85	1513.45
727.03	1560.55
727.21	1845.22
727.39	2072.54
727.57	3280.85
727.76	4306.88
727.94	4802.49
728.12	4958.13
728.30	5136.31
728.48	4394.94
728.66	3526.60
728.84	3141.58
729.03	2947.03
729.21	2664.41
729.39	2367.45
729.57	1943.52
729.75	1886.18
729.93	1843.17
730.11	1644.52
730.30	1585.13
730.48	1572.84
730.66	1613.80
730.84	1566.70
731.02	1591.27
731.20	1521.64
731.38	1570.79
731.56	1529.83
731.74	1495.02
731.93	1501.16
732.11	1595.37
732.29	1550.31
732.47	1535.98
732.65	1513.45
732.83	1568.74
733.01	1562.60
733.19	1492.97
733.37	1599.46
733.56	1583.08
733.74	1572.84
733.92	1548.26
734.10	1544.17
734.28	1621.99
734.46	1472.49
734.64	1509.35
734.82	1546.22
735.00	1511.40
735.18	1560.55
735.36	1544.17
735.54	1480.68
735.73	1490.92
735.91	1544.17
736.09	1576.94
736.27	1556.46
736.45	1566.70
736.63	1499.11
736.81	1521.64
736.99	1521.64
737.17	1576.94
737.35	1482.73
737.53	1515.50
737.71	1495.02
737.89	1632.23
738.07	1484.78
738.25	1529.83
738.43	1488.87
738.61	1503.21
738.80	1497.07
738.98	1495.02
739.16	1513.45
739.34	1499.11
739.52	1581.03
739.70	1552.36
739.88	1576.94
740.06	1499.11
740.24	1484.78
740.42	1595.37
740.60	1427.43
740.78	1540.07
740.96	1529.83
741.14	1562.60
741.32	1599.46
741.50	1490.92
741.68	1644.52
741.86	1624.04
742.04	1519.59
742.22	1484.78
742.40	1495.02
742.58	1570.79
742.76	1519.59
742.94	1564.65
743.12	1511.40
743.30	1544.17
743.48	1568.74
743.66	1538.02
743.84	1531.88
744.02	1574.89
744.20	1556.46
744.38	1449.96
744.56	1533.93
744.74	1599.46
744.92	1558.50
745.10	1617.90
745.28	1611.75
745.46	1628.14
745.64	1560.55
745.82	1501.16
746.00	1568.74
746.18	1556.46
746.36	1509.35
746.54	1619.94
746.72	1517.54
746.90	1519.59
747.08	1572.84
747.26	1439.72
747.44	1550.31
747.62	1550.31
747.80	1521.64
747.98	1599.46
748.15	1429.48
748.33	1603.56
748.51	1517.54
748.69	1617.90
748.87	1529.83
749.05	1484.78
749.23	1550.31
749.41	1535.98
749.59	1562.60
749.77	1562.60
749.95	1544.17
750.13	1515.50
750.31	1566.70
750.49	1535.98
750.67	1556.46
750.85	1601.51
751.03	1460.20
751.20	1677.29
751.38	1468.39
751.56	1558.50
751.74	1595.37
751.92	1527.78
752.10	1540.07
752.28	1642.47
752.46	1634.28
752.64	1605.61
752.82	1519.59
753.00	1630.18
753.18	1488.87
753.35	1540.07
753.53	1484.78
753.71	1550.31
753.89	1531.88
754.07	1521.64
754.25	1607.66
754.43	1556.46
754.61	1474.54
754.79	1576.94
754.97	1566.70
755.14	1632.23
755.32	1519.59
755.50	1587.18
755.68	1527.78
755.86	1484.78
756.04	1474.54
756.22	1464.30
756.40	1581.03
756.57	1558.50
756.75	1505.26
756.93	1568.74
757.11	1488.87
757.29	1482.73
757.47	1540.07
757.65	1488.87
757.82	1386.47
758.00	1513.45
758.18	1505.26
758.36	1542.12
758.54	1632.23
758.72	1458.15
758.90	1603.56
759.07	1540.07
759.25	1542.12
759.43	1550.31
759.61	1562.60
759.79	1849.32
759.97	1517.54
760.15	1394.67
760.32	1429.48
760.50	1490.92
760.68	1601.51
760.86	1458.15
761.04	1566.70
761.22	1488.87
761.39	1456.11
761.57	1533.93
761.75	1548.26
761.93	1595.37
762.11	1538.02
762.28	1533.93
762.46	1531.88
762.64	1597.42
762.82	1470.44
763.00	1499.11
763.18	1624.04
763.35	1478.63
763.53	1595.37
763.71	1531.88
763.89	1511.40
764.07	1581.03
764.24	1562.60
764.42	1527.78
764.60	1533.93
764.78	1495.02
764.96	1603.56
765.13	1601.51
765.31	1468.39
765.49	1621.99
765.67	1484.78
765.84	1499.11
766.02	1490.92
766.20	1486.83
766.38	1533.93
766.56	1576.94
766.73	1599.46
766.91	1535.98
767.09	1621.99
767.27	1574.89
767.44	1499.11
767.62	1566.70
767.80	1593.32
767.98	1566.70
768.15	1497.07
768.33	1599.46
768.51	1546.22
768.69	1601.51
768.87	1538.02
769.04	1538.02
769.22	1576.94
769.40	1562.60
769.58	1656.81
769.75	1583.08
769.93	1644.52
770.11	1492.97
770.28	1492.97
770.46	1556.46
770.64	1544.17
770.82	1585.13
770.99	1556.46
771.17	1597.42
771.35	1519.59
771.53	1576.94
771.70	1533.93
771.88	1509.35
772.06	1568.74
772.23	1517.54
772.41	1603.56
772.59	1484.78
772.77	1484.78
772.94	1511.40
773.12	1562.60
773.30	1431.53
773.47	1492.97
773.65	1556.46
773.83	1630.18
774.01	1613.80
774.18	1505.26
774.36	1509.35
774.54	1521.64
774.71	1523.69
774.89	1421.29
775.07	1490.92
775.24	1538.02
775.42	1546.22
775.60	1685.48
775.78	1497.07
775.95	1462.25
776.13	1452.01
776.31	1484.78
776.48	1570.79
776.66	1617.90
776.84	1521.64
777.01	1572.84
777.19	1564.65
777.37	1544.17
777.54	1556.46
777.72	1705.96
777.90	1542.12
778.07	1427.43
778.25	1662.95
778.43	1542.12
778.60	1533.93
778.78	1587.18
778.96	1558.50
779.13	1527.78
779.31	1615.85
779.49	1515.50
779.66	1519.59
779.84	1562.60
780.01	1546.22
780.19	1501.16
780.37	1578.98
780.54	1572.84
780.72	1533.93
780.90	1474.54
781.07	1486.83
781.25	1550.31
781.43	1521.64
781.60	1484.78
781.78	1554.41
781.95	1523.69
782.13	1449.96
782.31	1480.68
782.48	1529.83
782.66	1472.49
782.83	1576.94
783.01	1632.23
783.19	1601.51
783.36	1523.69
783.54	1466.35
783.72	1581.03
783.89	1472.49
784.07	1544.17
784.24	1527.78
784.42	1578.98
784.60	1501.16
784.77	1538.02
784.95	1462.25
785.12	1529.83
785.30	1513.45
785.47	1449.96
785.65	1513.45
785.83	1513.45
786.00	1501.16
786.18	1468.39
786.35	1421.29
786.53	1486.83
786.71	1531.88
786.88	1576.94
787.06	1468.39
787.23	1490.92
787.41	1568.74
787.58	1503.21
787.76	1542.12
787.94	1617.90
788.11	1597.42
788.29	1523.69
788.46	1497.07
788.64	1564.65
788.81	1544.17
788.99	1478.63
789.16	1447.91
789.34	1560.55
789.52	1433.58
789.69	1452.01
789.87	1495.02
790.04	1509.35
790.22	1507.30
790.39	1601.51
790.57	1470.44
790.74	1507.30
790.92	1566.70
791.09	1501.16
791.27	1533.93
791.44	1599.46
791.62	1519.59
791.79	1591.27
791.97	1492.97
792.15	1697.77
792.32	1611.75
792.50	1533.93
792.67	1556.46
792.85	1535.98
793.02	1519.59
793.20	1599.46
793.37	1458.15
793.55	1568.74
793.72	1513.45
793.90	1464.30
794.07	1542.12
794.25	1435.63
794.42	1386.47
794.60	1550.31
794.77	1554.41
794.95	1511.40
795.12	1628.14
795.30	1454.06
795.47	1462.25
795.65	1679.33
795.82	1509.35
796.00	1497.07
796.17	1515.50
796.34	1544.17
796.52	1509.35
796.69	1578.98
796.87	1615.85
797.04	1554.41
797.22	1578.98
797.39	1540.07
797.57	1585.13
797.74	1511.40
797.92	1439.72
798.09	1501.16
798.27	1546.22
798.44	1540.07
798.62	1593.32
798.79	1589.22
798.96	1558.50
799.14	1554.41
799.31	1615.85
799.49	1488.87
799.66	1533.93
799.84	1552.36
800.01	1542.12
800.19	1554.41
800.36	1398.76
800.53	1558.50
800.71	1601.51
800.88	1544.17
801.06	1535.98
801.23	1449.96
801.41	1538.02
801.58	1544.17
801.75	1533.93
801.93	1554.41
802.10	1556.46
802.28	1538.02
802.45	1525.74
802.63	1566.70
802.80	1550.31
802.97	1527.78
803.15	1501.16
803.32	1525.74
803.50	1466.35
803.67	1476.59
803.84	1546.22
804.02	1585.13
804.19	1466.35
804.37	1382.38
804.54	1542.12
804.71	1486.83
804.89	1517.54
805.06	1468.39
805.24	1495.02
805.41	1478.63
805.58	1513.45
805.76	1621.99
805.93	1552.36
806.10	1611.75
806.28	1613.80
806.45	1599.46
806.63	1574.89
806.80	1568.74
806.97	1503.21
807.15	1613.80
807.32	1533.93
807.49	1531.88
807.67	1435.63
807.84	1617.90
808.01	1454.06
808.19	1660.90
808.36	1738.73
808.54	1533.93
808.71	1472.49
808.88	1523.69
809.06	1558.50
809.23	1566.70
809.40	1458.15
809.58	1628.14
809.75	1581.03
809.92	1456.11
810.10	1636.33
810.27	1466.35
810.44	1576.94
810.62	1638.38
810.79	1540.07
810.96	1486.83
811.14	1503.21
811.31	1529.83
811.48	1570.79
811.66	1540.07
811.83	1558.50
812.00	1558.50
812.18	1449.96
812.35	1648.61
812.52	1511.40
812.69	1527.78
812.87	1513.45
813.04	1486.83
813.21	1472.49
813.39	1517.54
813.56	1441.77
813.73	1662.95
813.91	1439.72
814.08	1587.18
814.25	1468.39
814.42	1406.95
814.60	1501.16
814.77	1468.39
814.94	1476.59
815.12	1574.89
815.29	1507.30
815.46	1550.31
815.63	1505.26
815.81	1572.84
815.98	1519.59
816.15	1503.21
816.33	1521.64
816.50	1519.59
816.67	1476.59
816.84	1581.03
817.02	1476.59
817.19	1566.70
817.36	1554.41
817.53	1572.84
817.71	1517.54
817.88	1570.79
818.05	1513.45
818.22	1521.64
818.40	1615.85
818.57	1503.21
818.74	1570.79
818.91	1460.20
819.09	1505.26
819.26	1634.28
819.43	1509.35
819.60	1449.96
819.78	1574.89
819.95	1621.99
820.12	1472.49
820.29	1556.46
820.47	1574.89
820.64	1529.83
820.81	1525.74
820.98	1443.82
821.15	1458.15
821.33	1550.31
821.50	1484.78
821.67	1527.78
821.84	1529.83
822.02	1576.94
822.19	1460.20
822.36	1552.36
822.53	1533.93
822.70	1443.82
822.88	1495.02
823.05	1570.79
823.22	1619.94
823.39	1550.31
823.56	1484.78
823.74	1640.42
823.91	1513.45
824.08	1480.68
824.25	1452.01
824.42	1634.28
824.60	1492.97
824.77	1593.32
824.94	1595.37
825.11	1574.89
825.28	1423.34
825.45	1486.83
825.63	1544.17
825.80	1501.16
825.97	1585.13
826.14	1634.28
826.31	1406.95
826.48	1517.54
826.66	1499.11
826.83	1576.94
827.00	1511.40
827.17	1490.92
827.34	1486.83
827.51	1464.30
827.69	1529.83
827.86	1484.78
828.03	1486.83
828.20	1576.94
828.37	1447.91
828.54	1578.98
828.71	1538.02
828.89	1595.37
829.06	1595.37
829.23	1589.22
829.40	1402.86
829.57	1572.84
829.74	1535.98
829.91	1474.54
830.09	1531.88
830.26	1443.82
830.43	1597.42
830.60	1601.51
830.77	1572.84
830.94	1587.18
831.11	1587.18
831.28	1501.16
831.46	1560.55
831.63	1474.54
831.80	1603.56
831.97	1560.55
832.14	1478.63
832.31	1533.93
832.48	1597.42
832.65	1574.89
832.82	1542.12
832.99	1574.89
833.17	1480.68
833.34	1613.80
833.51	1578.98
833.68	1462.25
833.85	1570.79
834.02	1484.78
834.19	1511.40
834.36	1456.11
834.53	1509.35
834.70	1615.85
834.87	1583.08
835.04	1548.26
835.22	1515.50
835.39	1495.02
835.56	1474.54
835.73	1603.56
835.90	1540.07
836.07	1472.49
836.24	1542.12
836.41	1468.39
836.58	1503.21
836.75	1550.31
836.92	1540.07
837.09	1488.87
837.26	1505.26
837.43	1531.88
837.60	1636.33
837.77	1535.98
837.94	1558.50
838.12	1658.85
838.29	1566.70
838.46	1400.81
838.63	1443.82
838.80	1630.18
838.97	1585.13
839.14	1574.89
839.31	1523.69
839.48	1607.66
839.65	1501.16
839.82	1626.09
839.99	1611.75
840.16	1646.57
840.33	1566.70
840.50	1562.60
840.67	1507.30
840.84	1476.59
841.01	1560.55
841.18	1609.70
841.35	1529.83
841.52	1535.98
841.69	1636.33
841.86	1515.50
842.03	1464.30
842.20	1658.85
842.37	1511.40
842.54	1525.74
842.71	1583.08
842.88	1511.40
843.05	1544.17
843.22	1540.07
843.39	1576.94
843.56	1431.53
843.73	1525.74
843.90	1585.13
844.07	1509.35
844.24	1568.74
844.41	1497.07
844.58	1554.41
844.75	1574.89
844.92	1538.02
845.09	1466.35
845.26	1478.63
845.43	1624.04
845.60	1531.88
845.77	1595.37
845.94	1523.69
846.10	1564.65
846.27	1460.20
846.44	1533.93
846.61	1517.54
846.78	1587.18
846.95	1619.94
847.12	1488.87
847.29	1497.07
847.46	1492.97
847.63	1640.42
847.80	1480.68
847.97	1529.83
848.14	1693.67
848.31	1419.24
848.48	1470.44
848.65	1490.92
848.82	1486.83
848.98	1626.09
849.15	1560.55
849.32	1617.90
849.49	1585.13
849.66	1533.93
849.83	1576.94
850.00	1509.35
850.17	1601.51
850.34	1509.35
850.51	1490.92
850.68	1497.07
850.85	1624.04
851.01	1517.54
851.18	1548.26
851.35	1599.46
851.52	1521.64
851.69	1552.36
851.86	1441.77
852.03	1499.11
852.20	1554.41
852.37	1495.02
852.53	1476.59
852.70	1529.83
852.87	1507.30
853.04	1552.36
853.21	1554.41
853.38	1535.98
853.55	1628.14
853.72	1607.66
853.89	1452.01
854.05	1523.69
854.22	1472.49
854.39	1535.98
854.56	1513.45
854.73	1564.65
854.90	1478.63
855.07	1535.98
855.23	1472.49
855.40	1595.37
855.57	1538.02
855.74	1513.45
855.91	1679.33
856.08	1472.49
856.25	1486.83
856.41	1456.11
856.58	1515.50
856.75	1546.22
856.92	1445.87
857.09	1576.94
857.26	1402.86
857.42	1529.83
857.59	1535.98
857.76	1574.89
857.93	1568.74
858.10	1566.70
858.27	1460.20
858.43	1558.50
858.60	1521.64
858.77	1490.92
858.94	1497.07
859.11	1521.64
859.27	1548.26
859.44	1533.93
859.61	1632.23
859.78	1517.54
859.95	1533.93
860.12	1513.45
860.28	1671.14
860.45	1564.65
860.62	1476.59
860.79	1550.31
860.95	1486.83
861.12	1505.26
861.29	1531.88
861.46	1484.78
861.63	1550.31
861.79	1533.93
861.96	1484.78
862.13	1540.07
862.30	1558.50
862.47	1443.82
862.63	1521.64
862.80	1603.56
862.97	1591.27
863.14	1544.17
863.30	1533.93
863.47	1505.26
863.64	1574.89
863.81	1507.30
863.97	1558.50
864.14	1533.93
864.31	1544.17
864.48	1527.78
864.65	1439.72
864.81	1572.84
864.98	1595.37
865.15	1599.46
865.32	1624.04
865.48	1515.50
865.65	1566.70
865.82	1517.54
865.98	1511.40
866.15	1533.93
866.32	1472.49
866.49	1507.30
866.65	1562.60
866.82	1486.83
866.99	1531.88
867.16	1480.68
867.32	1513.45
867.49	1558.50
867.66	1544.17
867.83	1525.74
867.99	1458.15
868.16	1552.36
868.33	1423.34
868.49	1484.78
868.66	1486.83
868.83	1597.42
868.99	1562.60
869.16	1492.97
869.33	1566.70
869.50	1527.78
869.66	1525.74
869.83	1474.54
870.00	1462.25
870.16	1515.50
870.33	1521.64
870.50	1621.99
870.66	1548.26
870.83	1648.61
871.00	1527.78
871.17	1630.18
871.33	1517.54
871.50	1531.88
871.67	1486.83
871.83	1554.41
872.00	1642.47
872.17	1587.18
872.33	1597.42
872.50	1595.37
872.67	1576.94
872.83	1550.31
873.00	1527.78
873.17	1515.50
873.33	1570.79
873.50	1540.07
873.67	1527.78
873.83	1531.88
874.00	1538.02
874.16	1595.37
874.33	1564.65
874.50	1515.50
874.66	1548.26
874.83	1566.70
875.00	1609.70
875.16	1660.90
875.33	1505.26
875.50	1495.02
875.66	1525.74
875.83	1568.74
875.99	1570.79
876.16	1554.41
876.33	1460.20
876.49	1568.74
876.66	1576.94
876.83	1499.11
876.99	1458.15
877.16	1421.29
877.32	1449.96
877.49	1503.21
877.66	1562.60
877.82	1628.14
877.99	1511.40
878.15	1529.83
878.32	1591.27
878.49	1544.17
878.65	1478.63
878.82	1566.70
878.98	1603.56
879.15	1626.09
879.32	1609.70
879.48	1458.15
879.65	1546.22
879.81	1535.98
879.98	1540.07
880.15	1550.31
880.31	1566.70
880.48	1460.20
880.64	1570.79
880.81	1525.74
880.97	1572.84
881.14	1562.60
881.31	1439.72
881.47	1636.33
881.64	1525.74
881.80	1517.54
881.97	1546.22
882.13	1531.88
882.30	1486.83
882.47	1546.22
882.63	1554.41
882.80	1515.50
882.96	1538.02
883.13	1607.66
883.29	1540.07
883.46	1521.64
883.62	1675.24
883.79	1593.32
883.95	1570.79
884.12	1480.68
884.29	1507.30
884.45	1544.17
884.62	1638.38
884.78	1556.46
884.95	1495.02
885.11	1433.58
885.28	1605.61
885.44	1447.91
885.61	1564.65
885.77	1585.13
885.94	1525.74
886.10	1460.20
886.27	1503.21
886.43	1495.02
886.60	1552.36
886.76	1566.70
886.93	1466.35
887.09	1603.56
887.26	1470.44
887.42	1568.74
887.59	1570.79
887.75	1621.99
887.92	1570.79
888.08	1566.70
888.25	1613.80
888.41	1597.42
888.58	1585.13
888.74	1495.02
888.91	1492.97
>>>>>End Processed Spectral Data<<<<<
