SpectraSuite Data File
++++++++++++++++++++++++++++++++++++
Date: Tue May 03 12:55:33 CEST 2016
User: root
Dark Spectrum Present: No
Reference Spectrum Present: No
Number of Sampled Component Spectra: 1
Spectrometers: USB4C02835
Integration Time (usec): 100000 (USB4C02835)
Spectra Averaged: 1 (USB4C02835)
Boxcar Smoothing: 0 (USB4C02835)
Correct for Electrical Dark: No (USB4C02835)
Strobe/Lamp Enabled: No (USB4C02835)
Correct for Detector Non-linearity: No (USB4C02835)
Correct for Stray Light: No (USB4C02835)
Number of Pixels in Processed Spectrum: 3648
>>>>>Begin Processed Spectral Data<<<<<
177.47	1370.09
177.69	1370.09
177.91	1370.09
178.13	1361.90
178.36	1337.32
178.58	1519.59
178.80	1646.57
179.02	1519.59
179.24	1513.45
179.46	1523.69
179.68	1548.26
179.90	1552.36
180.13	1564.65
180.35	1482.73
180.57	1519.59
180.79	1486.83
181.01	1527.78
181.23	1568.74
181.45	1607.66
181.67	1533.93
181.90	1538.02
182.12	1476.59
182.34	1492.97
182.56	1611.75
182.78	1593.32
183.00	1564.65
183.22	1540.07
183.44	1501.16
183.66	1677.29
183.89	1708.01
184.11	1574.89
184.33	1542.12
184.55	1615.85
184.77	1583.08
184.99	1517.54
185.21	1529.83
185.43	1603.56
185.65	1490.92
185.87	1626.09
186.10	1542.12
186.32	1644.52
186.54	1558.50
186.76	1593.32
186.98	1644.52
187.20	1540.07
187.42	1544.17
187.64	1589.22
187.86	1507.30
188.08	1597.42
188.30	1583.08
188.52	1589.22
188.75	1656.81
188.97	1615.85
189.19	1568.74
189.41	1544.17
189.63	1607.66
189.85	1519.59
190.07	1533.93
190.29	1433.58
190.51	1566.70
190.73	1511.40
190.95	1638.38
191.17	1550.31
191.39	1460.20
191.61	1581.03
191.84	1523.69
192.06	1538.02
192.28	1400.81
192.50	1611.75
192.72	1581.03
192.94	1482.73
193.16	1564.65
193.38	1538.02
193.60	1519.59
193.82	1560.55
194.04	1558.50
194.26	1533.93
194.48	1509.35
194.70	1486.83
194.92	1574.89
195.14	1572.84
195.36	1411.05
195.58	1544.17
195.80	1513.45
196.02	1472.49
196.24	1476.59
196.46	1578.98
196.69	1472.49
196.91	1662.95
197.13	1492.97
197.35	1527.78
197.57	1570.79
197.79	1548.26
198.01	1517.54
198.23	1632.23
198.45	1546.22
198.67	1495.02
198.89	1511.40
199.11	1540.07
199.33	1486.83
199.55	1439.72
199.77	1535.98
199.99	1564.65
200.21	1478.63
200.43	1492.97
200.65	1468.39
200.87	1503.21
201.09	1538.02
201.31	1527.78
201.53	1552.36
201.75	1503.21
201.97	1478.63
202.19	1515.50
202.41	1605.61
202.63	1683.43
202.85	1568.74
203.07	1511.40
203.29	1533.93
203.51	1441.77
203.73	1476.59
203.95	1665.00
204.17	1591.27
204.39	1548.26
204.61	1544.17
204.83	1521.64
205.05	1562.60
205.27	1601.51
205.49	1646.57
205.71	1468.39
205.93	1495.02
206.15	1486.83
206.37	1525.74
206.59	1538.02
206.81	1480.68
207.03	1449.96
207.25	1515.50
207.47	1546.22
207.69	1558.50
207.91	1572.84
208.13	1570.79
208.34	1558.50
208.56	1531.88
208.78	1556.46
209.00	1480.68
209.22	1443.82
209.44	1615.85
209.66	1503.21
209.88	1492.97
210.10	1484.78
210.32	1585.13
210.54	1544.17
210.76	1576.94
210.98	1550.31
211.20	1497.07
211.42	1497.07
211.64	1509.35
211.86	1583.08
212.08	1544.17
212.30	1535.98
212.52	1564.65
212.74	1642.47
212.96	1576.94
213.17	1540.07
213.39	1533.93
213.61	1560.55
213.83	1587.18
214.05	1492.97
214.27	1632.23
214.49	1527.78
214.71	1552.36
214.93	1570.79
215.15	1572.84
215.37	1507.30
215.59	1585.13
215.81	1540.07
216.03	1544.17
216.24	1617.90
216.46	1556.46
216.68	1601.51
216.90	1650.66
217.12	1490.92
217.34	1538.02
217.56	1593.32
217.78	1566.70
218.00	1652.71
218.22	1570.79
218.44	1587.18
218.66	1531.88
218.87	1650.66
219.09	1509.35
219.31	1652.71
219.53	1570.79
219.75	1470.44
219.97	1548.26
220.19	1619.94
220.41	1572.84
220.63	1585.13
220.85	1601.51
221.06	1558.50
221.28	1677.29
221.50	1525.74
221.72	1533.93
221.94	1552.36
222.16	1540.07
222.38	1578.98
222.60	1560.55
222.82	1550.31
223.03	1503.21
223.25	1581.03
223.47	1560.55
223.69	1587.18
223.91	1576.94
224.13	1566.70
224.35	1613.80
224.57	1607.66
224.78	1564.65
225.00	1476.59
225.22	1505.26
225.44	1540.07
225.66	1595.37
225.88	1499.11
226.10	1568.74
226.32	1564.65
226.53	1511.40
226.75	1570.79
226.97	1562.60
227.19	1548.26
227.41	1499.11
227.63	1488.87
227.85	1527.78
228.06	1517.54
228.28	1507.30
228.50	1632.23
228.72	1490.92
228.94	1472.49
229.16	1400.81
229.37	1439.72
229.59	1509.35
229.81	1540.07
230.03	1531.88
230.25	1517.54
230.47	1409.00
230.69	1497.07
230.90	1548.26
231.12	1447.91
231.34	1628.14
231.56	1601.51
231.78	1484.78
232.00	1529.83
232.21	1544.17
232.43	1466.35
232.65	1468.39
232.87	1521.64
233.09	1466.35
233.30	1554.41
233.52	1507.30
233.74	1517.54
233.96	1581.03
234.18	1478.63
234.40	1521.64
234.61	1624.04
234.83	1460.20
235.05	1484.78
235.27	1589.22
235.49	1597.42
235.70	1527.78
235.92	1636.33
236.14	1533.93
236.36	1587.18
236.58	1427.43
236.79	1519.59
237.01	1531.88
237.23	1533.93
237.45	1642.47
237.67	1490.92
237.88	1509.35
238.10	1601.51
238.32	1507.30
238.54	1517.54
238.76	1558.50
238.97	1427.43
239.19	1499.11
239.41	1593.32
239.63	1615.85
239.85	1470.44
240.06	1533.93
240.28	1472.49
240.50	1572.84
240.72	1607.66
240.93	1562.60
241.15	1597.42
241.37	1527.78
241.59	1589.22
241.81	1531.88
242.02	1511.40
242.24	1517.54
242.46	1513.45
242.68	1452.01
242.89	1597.42
243.11	1538.02
243.33	1517.54
243.55	1597.42
243.76	1546.22
243.98	1484.78
244.20	1513.45
244.42	1525.74
244.64	1544.17
244.85	1519.59
245.07	1447.91
245.29	1585.13
245.51	1578.98
245.72	1542.12
245.94	1595.37
246.16	1552.36
246.38	1550.31
246.59	1499.11
246.81	1464.30
247.03	1476.59
247.24	1421.29
247.46	1497.07
247.68	1589.22
247.90	1572.84
248.11	1472.49
248.33	1495.02
248.55	1499.11
248.77	1589.22
248.98	1560.55
249.20	1615.85
249.42	1578.98
249.64	1560.55
249.85	1503.21
250.07	1486.83
250.29	1509.35
250.50	1617.90
250.72	1490.92
250.94	1558.50
251.16	1585.13
251.37	1538.02
251.59	1624.04
251.81	1689.57
252.02	1603.56
252.24	1511.40
252.46	1591.27
252.68	1488.87
252.89	1497.07
253.11	1523.69
253.33	1644.52
253.54	1626.09
253.76	1546.22
253.98	1482.73
254.20	1542.12
254.41	1515.50
254.63	1456.11
254.85	1511.40
255.06	1542.12
255.28	1587.18
255.50	1460.20
255.71	1538.02
255.93	1472.49
256.15	1527.78
256.36	1538.02
256.58	1503.21
256.80	1636.33
257.02	1540.07
257.23	1478.63
257.45	1574.89
257.67	1593.32
257.88	1517.54
258.10	1552.36
258.32	1560.55
258.53	1585.13
258.75	1646.57
258.97	1497.07
259.18	1552.36
259.40	1542.12
259.62	1597.42
259.83	1601.51
260.05	1531.88
260.27	1656.81
260.48	1538.02
260.70	1550.31
260.92	1505.26
261.13	1427.43
261.35	1548.26
261.57	1603.56
261.78	1476.59
262.00	1558.50
262.22	1562.60
262.43	1458.15
262.65	1515.50
262.86	1538.02
263.08	1613.80
263.30	1544.17
263.51	1492.97
263.73	1570.79
263.95	1585.13
264.16	1445.87
264.38	1511.40
264.60	1527.78
264.81	1533.93
265.03	1630.18
265.25	1597.42
265.46	1529.83
265.68	1574.89
265.89	1583.08
266.11	1492.97
266.33	1638.38
266.54	1581.03
266.76	1572.84
266.98	1560.55
267.19	1587.18
267.41	1529.83
267.62	1513.45
267.84	1435.63
268.06	1564.65
268.27	1617.90
268.49	1568.74
268.70	1654.76
268.92	1552.36
269.14	1509.35
269.35	1480.68
269.57	1593.32
269.79	1581.03
270.00	1499.11
270.22	1572.84
270.43	1435.63
270.65	1470.44
270.87	1562.60
271.08	1531.88
271.30	1581.03
271.51	1495.02
271.73	1562.60
271.95	1640.42
272.16	1574.89
272.38	1535.98
272.59	1558.50
272.81	1505.26
273.02	1572.84
273.24	1601.51
273.46	1599.46
273.67	1523.69
273.89	1449.96
274.10	1445.87
274.32	1589.22
274.54	1511.40
274.75	1593.32
274.97	1439.72
275.18	1546.22
275.40	1486.83
275.61	1452.01
275.83	1601.51
276.05	1544.17
276.26	1482.73
276.48	1626.09
276.69	1542.12
276.91	1560.55
277.12	1560.55
277.34	1552.36
277.55	1581.03
277.77	1572.84
277.99	1554.41
278.20	1513.45
278.42	1492.97
278.63	1515.50
278.85	1497.07
279.06	1445.87
279.28	1550.31
279.49	1564.65
279.71	1581.03
279.93	1566.70
280.14	1513.45
280.36	1447.91
280.57	1495.02
280.79	1521.64
281.00	1525.74
281.22	1509.35
281.43	1574.89
281.65	1482.73
281.86	1542.12
282.08	1550.31
282.29	1595.37
282.51	1460.20
282.73	1466.35
282.94	1472.49
283.16	1546.22
283.37	1535.98
283.59	1605.61
283.80	1535.98
284.02	1591.27
284.23	1552.36
284.45	1472.49
284.66	1540.07
284.88	1513.45
285.09	1544.17
285.31	1585.13
285.52	1578.98
285.74	1509.35
285.95	1558.50
286.17	1601.51
286.38	1505.26
286.60	1486.83
286.81	1488.87
287.03	1488.87
287.24	1480.68
287.46	1583.08
287.67	1560.55
287.89	1634.28
288.10	1511.40
288.32	1480.68
288.53	1568.74
288.75	1540.07
288.96	1544.17
289.18	1495.02
289.39	1452.01
289.61	1570.79
289.82	1609.70
290.04	1544.17
290.25	1462.25
290.47	1511.40
290.68	1497.07
290.90	1638.38
291.11	1501.16
291.33	1558.50
291.54	1478.63
291.76	1488.87
291.97	1535.98
292.18	1511.40
292.40	1454.06
292.61	1490.92
292.83	1595.37
293.04	1638.38
293.26	1615.85
293.47	1497.07
293.69	1478.63
293.90	1521.64
294.12	1454.06
294.33	1525.74
294.55	1566.70
294.76	1566.70
294.97	1558.50
295.19	1628.14
295.40	1511.40
295.62	1529.83
295.83	1576.94
296.05	1470.44
296.26	1611.75
296.48	1484.78
296.69	1527.78
296.90	1482.73
297.12	1550.31
297.33	1550.31
297.55	1484.78
297.76	1529.83
297.98	1591.27
298.19	1560.55
298.41	1531.88
298.62	1519.59
298.83	1556.46
299.05	1556.46
299.26	1478.63
299.48	1456.11
299.69	1529.83
299.90	1480.68
300.12	1515.50
300.33	1570.79
300.55	1492.97
300.76	1593.32
300.98	1495.02
301.19	1501.16
301.40	1460.20
301.62	1544.17
301.83	1544.17
302.05	1585.13
302.26	1585.13
302.47	1468.39
302.69	1521.64
302.90	1611.75
303.12	1472.49
303.33	1595.37
303.54	1658.85
303.76	1509.35
303.97	1538.02
304.19	1630.18
304.40	1468.39
304.61	1574.89
304.83	1640.42
305.04	1630.18
305.26	1570.79
305.47	1542.12
305.68	1540.07
305.90	1560.55
306.11	1533.93
306.33	1540.07
306.54	1572.84
306.75	1462.25
306.97	1443.82
307.18	1443.82
307.39	1486.83
307.61	1507.30
307.82	1529.83
308.04	1488.87
308.25	1554.41
308.46	1570.79
308.68	1492.97
308.89	1566.70
309.10	1550.31
309.32	1574.89
309.53	1486.83
309.74	1525.74
309.96	1556.46
310.17	1572.84
310.39	1552.36
310.60	1558.50
310.81	1474.54
311.03	1525.74
311.24	1505.26
311.45	1548.26
311.67	1591.27
311.88	1576.94
312.09	1519.59
312.31	1468.39
312.52	1533.93
312.73	1492.97
312.95	1472.49
313.16	1599.46
313.37	1533.93
313.59	1544.17
313.80	1638.38
314.01	1650.66
314.23	1456.11
314.44	1552.36
314.65	1495.02
314.87	1531.88
315.08	1497.07
315.29	1492.97
315.51	1468.39
315.72	1437.67
315.93	1605.61
316.15	1525.74
316.36	1546.22
316.57	1566.70
316.79	1601.51
317.00	1452.01
317.21	1503.21
317.43	1497.07
317.64	1452.01
317.85	1574.89
318.07	1568.74
318.28	1671.14
318.49	1716.20
318.70	1847.27
318.92	1691.62
319.13	1744.87
319.34	1763.30
319.56	1591.27
319.77	1636.33
319.98	1624.04
320.20	1595.37
320.41	1646.57
320.62	1581.03
320.83	1568.74
321.05	1648.61
321.26	1572.84
321.47	1552.36
321.69	1587.18
321.90	1466.35
322.11	1511.40
322.32	1548.26
322.54	1632.23
322.75	1519.59
322.96	1673.19
323.18	1535.98
323.39	1503.21
323.60	1507.30
323.81	1605.61
324.03	1519.59
324.24	1560.55
324.45	1497.07
324.66	1503.21
324.88	1642.47
325.09	1581.03
325.30	1495.02
325.52	1449.96
325.73	1499.11
325.94	1454.06
326.15	1484.78
326.37	1488.87
326.58	1587.18
326.79	1640.42
327.00	1501.16
327.22	1609.70
327.43	1490.92
327.64	1501.16
327.85	1560.55
328.07	1556.46
328.28	1585.13
328.49	1441.77
328.70	1478.63
328.92	1589.22
329.13	1583.08
329.34	1517.54
329.55	1572.84
329.76	1611.75
329.98	1548.26
330.19	1624.04
330.40	1574.89
330.61	1531.88
330.83	1566.70
331.04	1470.44
331.25	1533.93
331.46	1519.59
331.68	1474.54
331.89	1658.85
332.10	1556.46
332.31	1525.74
332.52	1548.26
332.74	1644.52
332.95	1413.10
333.16	1521.64
333.37	1452.01
333.58	1495.02
333.80	1550.31
334.01	1527.78
334.22	1552.36
334.43	1515.50
334.64	1542.12
334.86	1499.11
335.07	1439.72
335.28	1501.16
335.49	1468.39
335.70	1587.18
335.92	1538.02
336.13	1605.61
336.34	1630.18
336.55	1542.12
336.76	1558.50
336.98	1495.02
337.19	1517.54
337.40	1667.05
337.61	1683.43
337.82	1525.74
338.04	1609.70
338.25	1472.49
338.46	1568.74
338.67	1552.36
338.88	1515.50
339.09	1480.68
339.31	1529.83
339.52	1509.35
339.73	1452.01
339.94	1538.02
340.15	1525.74
340.36	1552.36
340.58	1533.93
340.79	1447.91
341.00	1550.31
341.21	1486.83
341.42	1607.66
341.63	1511.40
341.85	1621.99
342.06	1519.59
342.27	1464.30
342.48	1611.75
342.69	1482.73
342.90	1550.31
343.12	1581.03
343.33	1488.87
343.54	1611.75
343.75	1578.98
343.96	1521.64
344.17	1466.35
344.38	1531.88
344.60	1443.82
344.81	1490.92
345.02	1505.26
345.23	1593.32
345.44	1689.57
345.65	1611.75
345.86	1566.70
346.07	1585.13
346.29	1499.11
346.50	1509.35
346.71	1617.90
346.92	1546.22
347.13	1531.88
347.34	1499.11
347.55	1527.78
347.76	1531.88
347.98	1517.54
348.19	1501.16
348.40	1576.94
348.61	1517.54
348.82	1529.83
349.03	1546.22
349.24	1564.65
349.45	1669.09
349.66	1490.92
349.88	1466.35
350.09	1529.83
350.30	1677.29
350.51	1607.66
350.72	1550.31
350.93	1621.99
351.14	1544.17
351.35	1589.22
351.56	1550.31
351.77	1523.69
351.99	1540.07
352.20	1642.47
352.41	1585.13
352.62	1456.11
352.83	1576.94
353.04	1533.93
353.25	1521.64
353.46	1640.42
353.67	1574.89
353.88	1515.50
354.09	1542.12
354.30	1556.46
354.52	1550.31
354.73	1521.64
354.94	1503.21
355.15	1550.31
355.36	1570.79
355.57	1525.74
355.78	1544.17
355.99	1501.16
356.20	1484.78
356.41	1585.13
356.62	1578.98
356.83	1511.40
357.04	1527.78
357.25	1394.67
357.46	1585.13
357.68	1478.63
357.89	1447.91
358.10	1497.07
358.31	1548.26
358.52	1572.84
358.73	1484.78
358.94	1478.63
359.15	1523.69
359.36	1480.68
359.57	1562.60
359.78	1517.54
359.99	1570.79
360.20	1495.02
360.41	1632.23
360.62	1599.46
360.83	1576.94
361.04	1499.11
361.25	1554.41
361.46	1599.46
361.67	1517.54
361.88	1542.12
362.09	1566.70
362.30	1521.64
362.51	1501.16
362.72	1517.54
362.93	1564.65
363.14	1554.41
363.35	1521.64
363.56	1540.07
363.78	1544.17
363.99	1564.65
364.20	1513.45
364.41	1593.32
364.62	1576.94
364.83	1591.27
365.04	1595.37
365.25	1587.18
365.46	1581.03
365.67	1474.54
365.88	1566.70
366.09	1540.07
366.30	1503.21
366.51	1540.07
366.72	1490.92
366.93	1519.59
367.14	1574.89
367.35	1519.59
367.56	1585.13
367.77	1558.50
367.98	1581.03
368.18	1574.89
368.39	1624.04
368.60	1585.13
368.81	1476.59
369.02	1523.69
369.23	1519.59
369.44	1523.69
369.65	1554.41
369.86	1566.70
370.07	1646.57
370.28	1495.02
370.49	1552.36
370.70	1558.50
370.91	1501.16
371.12	1495.02
371.33	1607.66
371.54	1478.63
371.75	1564.65
371.96	1529.83
372.17	1521.64
372.38	1552.36
372.59	1560.55
372.80	1603.56
373.01	1452.01
373.22	1527.78
373.43	1533.93
373.64	1470.44
373.85	1574.89
374.06	1650.66
374.26	1566.70
374.47	1538.02
374.68	1607.66
374.89	1482.73
375.10	1566.70
375.31	1515.50
375.52	1552.36
375.73	1550.31
375.94	1476.59
376.15	1613.80
376.36	1554.41
376.57	1564.65
376.78	1480.68
376.99	1558.50
377.20	1558.50
377.40	1509.35
377.61	1609.70
377.82	1492.97
378.03	1574.89
378.24	1497.07
378.45	1554.41
378.66	1613.80
378.87	1460.20
379.08	1527.78
379.29	1495.02
379.50	1634.28
379.71	1542.12
379.91	1566.70
380.12	1540.07
380.33	1605.61
380.54	1601.51
380.75	1519.59
380.96	1513.45
381.17	1574.89
381.38	1615.85
381.59	1619.94
381.80	1626.09
382.00	1689.57
382.21	1558.50
382.42	1671.14
382.63	1679.33
382.84	1626.09
383.05	1683.43
383.26	1650.66
383.47	1609.70
383.68	1662.95
383.88	1533.93
384.09	1605.61
384.30	1646.57
384.51	1533.93
384.72	1585.13
384.93	1470.44
385.14	1548.26
385.35	1640.42
385.55	1509.35
385.76	1554.41
385.97	1550.31
386.18	1484.78
386.39	1558.50
386.60	1544.17
386.81	1636.33
387.02	1574.89
387.22	1554.41
387.43	1581.03
387.64	1644.52
387.85	1880.04
388.06	3147.73
388.27	7104.40
388.48	10610.53
388.68	12435.27
388.89	14075.69
389.10	12826.43
389.31	10217.32
389.52	8941.43
389.73	7909.26
389.93	7120.79
390.14	6778.78
390.35	6166.43
390.56	5472.17
390.77	4644.79
390.98	3594.19
391.18	2805.72
391.39	2168.80
391.60	1777.64
391.81	1742.82
392.02	1558.50
392.23	1660.90
392.43	1615.85
392.64	1624.04
392.85	1519.59
393.06	1660.90
393.27	1542.12
393.47	1462.25
393.68	1533.93
393.89	1492.97
394.10	1591.27
394.31	1542.12
394.52	1525.74
394.72	1462.25
394.93	1689.57
395.14	1535.98
395.35	1599.46
395.56	1601.51
395.76	1624.04
395.97	1642.47
396.18	1775.59
396.39	1736.68
396.60	1828.84
396.80	1740.77
397.01	1675.24
397.22	1765.35
397.43	1765.35
397.64	1548.26
397.84	1642.47
398.05	1658.85
398.26	1615.85
398.47	1673.19
398.67	1671.14
398.88	1533.93
399.09	1615.85
399.30	1550.31
399.51	1525.74
399.71	1503.21
399.92	1533.93
400.13	1538.02
400.34	1581.03
400.54	1531.88
400.75	1687.53
400.96	1572.84
401.17	1615.85
401.37	1556.46
401.58	1554.41
401.79	1564.65
402.00	1773.54
402.21	2027.49
402.41	1951.71
402.62	1933.28
402.83	1972.19
403.04	1796.07
403.24	1882.08
403.45	1740.77
403.66	1755.11
403.87	1746.92
404.07	1763.30
404.28	1759.21
404.49	1693.67
404.70	1660.90
404.90	1605.61
405.11	1611.75
405.32	1658.85
405.52	1521.64
405.73	1492.97
405.94	1525.74
406.15	1503.21
406.35	1566.70
406.56	1568.74
406.77	1558.50
406.98	1558.50
407.18	1492.97
407.39	1640.42
407.60	1601.51
407.80	1611.75
408.01	1574.89
408.22	1605.61
408.43	1529.83
408.63	1544.17
408.84	1599.46
409.05	1552.36
409.25	1550.31
409.46	1478.63
409.67	1456.11
409.88	1570.79
410.08	1595.37
410.29	1578.98
410.50	1533.93
410.70	1564.65
410.91	1511.40
411.12	1550.31
411.32	1511.40
411.53	1474.54
411.74	1658.85
411.95	1705.96
412.15	1654.76
412.36	1685.48
412.57	1615.85
412.77	1677.29
412.98	1562.60
413.19	1531.88
413.39	1615.85
413.60	1599.46
413.81	1615.85
414.01	1492.97
414.22	1656.81
414.43	1634.28
414.63	1521.64
414.84	1556.46
415.05	1552.36
415.25	1497.07
415.46	1531.88
415.67	1525.74
415.87	1544.17
416.08	1550.31
416.29	1585.13
416.49	1658.85
416.70	1527.78
416.91	1505.26
417.11	1519.59
417.32	1544.17
417.53	1505.26
417.73	1558.50
417.94	1593.32
418.15	1521.64
418.35	1613.80
418.56	1538.02
418.77	1662.95
418.97	1462.25
419.18	1482.73
419.38	1449.96
419.59	1499.11
419.80	1626.09
420.00	1570.79
420.21	1484.78
420.42	1609.70
420.62	1533.93
420.83	1556.46
421.04	1521.64
421.24	1505.26
421.45	1560.55
421.65	1587.18
421.86	1560.55
422.07	1560.55
422.27	1550.31
422.48	1535.98
422.69	1523.69
422.89	1570.79
423.10	1495.02
423.30	1507.30
423.51	1591.27
423.72	1542.12
423.92	1554.41
424.13	1478.63
424.33	1523.69
424.54	1587.18
424.75	1521.64
424.95	1640.42
425.16	1603.56
425.36	1503.21
425.57	1609.70
425.78	1554.41
425.98	1572.84
426.19	1535.98
426.39	1488.87
426.60	1554.41
426.81	1615.85
427.01	1570.79
427.22	1554.41
427.42	1443.82
427.63	1578.98
427.83	1675.24
428.04	1642.47
428.25	1611.75
428.45	1509.35
428.66	1568.74
428.86	1544.17
429.07	1560.55
429.28	1542.12
429.48	1519.59
429.69	1533.93
429.89	1572.84
430.10	1470.44
430.30	1578.98
430.51	1634.28
430.71	1509.35
430.92	1519.59
431.13	1544.17
431.33	1560.55
431.54	1529.83
431.74	1646.57
431.95	1611.75
432.15	1562.60
432.36	1544.17
432.56	1517.54
432.77	1628.14
432.98	1615.85
433.18	1583.08
433.39	1507.30
433.59	1593.32
433.80	1609.70
434.00	1605.61
434.21	1480.68
434.41	1460.20
434.62	1630.18
434.82	1519.59
435.03	1484.78
435.23	1591.27
435.44	1427.43
435.64	1495.02
435.85	1605.61
436.06	1583.08
436.26	1486.83
436.47	1624.04
436.67	1533.93
436.88	1490.92
437.08	1591.27
437.29	1617.90
437.49	1546.22
437.70	1519.59
437.90	1554.41
438.11	1591.27
438.31	1658.85
438.52	1751.01
438.72	1708.01
438.93	1744.87
439.13	1673.19
439.34	1646.57
439.54	1585.13
439.75	1654.76
439.95	1742.82
440.16	1560.55
440.36	1587.18
440.57	1558.50
440.77	1587.18
440.98	1517.54
441.18	1554.41
441.39	1499.11
441.59	1546.22
441.80	1632.23
442.00	1515.50
442.21	1509.35
442.41	1488.87
442.62	1654.76
442.82	1521.64
443.02	1605.61
443.23	1533.93
443.43	1662.95
443.64	1611.75
443.84	1468.39
444.05	1519.59
444.25	1529.83
444.46	1470.44
444.66	1523.69
444.87	1576.94
445.07	1511.40
445.28	1546.22
445.48	1634.28
445.69	1572.84
445.89	1652.71
446.09	1613.80
446.30	1912.80
446.50	3125.20
446.71	4421.56
446.91	5326.77
447.12	5719.98
447.32	5476.27
447.53	4718.52
447.73	4126.66
447.93	3655.62
448.14	3375.05
448.34	3166.16
448.55	2901.97
448.75	2869.20
448.96	2775.00
449.16	2465.75
449.36	2226.14
449.57	2074.59
449.77	1798.12
449.98	1632.23
450.18	1609.70
450.39	1703.91
450.59	1636.33
450.79	1529.83
451.00	1519.59
451.20	1560.55
451.41	1589.22
451.61	1609.70
451.81	1595.37
452.02	1564.65
452.22	1527.78
452.43	1529.83
452.63	1474.54
452.84	1566.70
453.04	1589.22
453.24	1529.83
453.45	1527.78
453.65	1462.25
453.86	1562.60
454.06	1527.78
454.26	1595.37
454.47	1568.74
454.67	1611.75
454.87	1593.32
455.08	1556.46
455.28	1654.76
455.49	1527.78
455.69	1478.63
455.89	1642.47
456.10	1570.79
456.30	1578.98
456.51	1544.17
456.71	1490.92
456.91	1533.93
457.12	1499.11
457.32	1568.74
457.52	1503.21
457.73	1624.04
457.93	1587.18
458.14	1554.41
458.34	1484.78
458.54	1587.18
458.75	1527.78
458.95	1640.42
459.15	1591.27
459.36	1535.98
459.56	1562.60
459.76	1689.57
459.97	1593.32
460.17	1531.88
460.37	1640.42
460.58	1562.60
460.78	1601.51
460.99	1505.26
461.19	1521.64
461.39	1531.88
461.60	1505.26
461.80	1513.45
462.00	1538.02
462.21	1538.02
462.41	1624.04
462.61	1550.31
462.82	1523.69
463.02	1583.08
463.22	1587.18
463.43	1615.85
463.63	1515.50
463.83	1589.22
464.04	1564.65
464.24	1560.55
464.44	1474.54
464.64	1497.07
464.85	1560.55
465.05	1566.70
465.25	1525.74
465.46	1505.26
465.66	1581.03
465.86	1517.54
466.07	1544.17
466.27	1593.32
466.47	1548.26
466.68	1460.20
466.88	1609.70
467.08	1568.74
467.29	1630.18
467.49	1595.37
467.69	1523.69
467.89	1509.35
468.10	1513.45
468.30	1509.35
468.50	1574.89
468.71	1576.94
468.91	1478.63
469.11	1626.09
469.31	1527.78
469.52	1542.12
469.72	1609.70
469.92	1609.70
470.13	1521.64
470.33	1576.94
470.53	1771.49
470.73	2052.06
470.94	2369.50
471.14	2400.22
471.34	2680.79
471.54	2492.38
471.75	2191.33
471.95	2066.40
472.15	2013.15
472.36	2019.30
472.56	1937.38
472.76	1845.22
472.96	1865.70
473.17	1781.73
473.37	1826.79
473.57	1677.29
473.77	1656.81
473.98	1599.46
474.18	1490.92
474.38	1701.86
474.58	1476.59
474.79	1533.93
474.99	1531.88
475.19	1636.33
475.39	1501.16
475.60	1562.60
475.80	1568.74
476.00	1644.52
476.20	1546.22
476.41	1566.70
476.61	1585.13
476.81	1607.66
477.01	1492.97
477.21	1691.62
477.42	1558.50
477.62	1499.11
477.82	1583.08
478.02	1523.69
478.23	1503.21
478.43	1484.78
478.63	1560.55
478.83	1488.87
479.03	1519.59
479.24	1695.72
479.44	1628.14
479.64	1431.53
479.84	1419.24
480.04	1452.01
480.25	1605.61
480.45	1603.56
480.65	1568.74
480.85	1593.32
481.06	1499.11
481.26	1544.17
481.46	1605.61
481.66	1570.79
481.86	1488.87
482.06	1599.46
482.27	1515.50
482.47	1552.36
482.67	1568.74
482.87	1460.20
483.07	1599.46
483.28	1540.07
483.48	1484.78
483.68	1595.37
483.88	1505.26
484.08	1470.44
484.29	1497.07
484.49	1478.63
484.69	1544.17
484.89	1607.66
485.09	1533.93
485.29	1619.94
485.50	1531.88
485.70	1542.12
485.90	1581.03
486.10	1509.35
486.30	1581.03
486.50	1603.56
486.71	1533.93
486.91	1560.55
487.11	1578.98
487.31	1495.02
487.51	1501.16
487.71	1509.35
487.91	1497.07
488.12	1529.83
488.32	1466.35
488.52	1527.78
488.72	1458.15
488.92	1599.46
489.12	1607.66
489.32	1550.31
489.53	1548.26
489.73	1443.82
489.93	1609.70
490.13	1581.03
490.33	1439.72
490.53	1562.60
490.73	1587.18
490.94	1501.16
491.14	1640.42
491.34	1738.73
491.54	2072.54
491.74	2736.09
491.94	3114.96
492.14	3225.55
492.34	3246.03
492.54	2809.81
492.75	2379.74
492.95	2277.34
493.15	2209.76
493.35	2176.99
493.55	2109.41
493.75	2084.83
493.95	2074.59
494.15	1984.48
494.35	1816.55
494.56	1691.62
494.76	1607.66
494.96	1695.72
495.16	1638.38
495.36	1554.41
495.56	1597.42
495.76	1572.84
495.96	1503.21
496.16	1533.93
496.36	1601.51
496.56	1550.31
496.77	1538.02
496.97	1525.74
497.17	1593.32
497.37	1452.01
497.57	1597.42
497.77	1525.74
497.97	1535.98
498.17	1495.02
498.37	1488.87
498.57	1640.42
498.77	1529.83
498.97	1619.94
499.17	1681.38
499.38	1527.78
499.58	1673.19
499.78	1675.24
499.98	1562.60
500.18	1527.78
500.38	1564.65
500.58	1818.60
500.78	2568.15
500.98	5109.68
501.18	6979.48
501.38	8083.33
501.58	8920.95
501.78	8042.37
501.98	6217.63
502.18	5392.30
502.38	4671.42
502.58	4247.49
502.78	3860.42
502.98	3657.67
503.18	3549.13
503.38	3387.34
503.59	3018.71
503.79	2711.51
503.99	2486.23
504.19	2295.77
504.39	2142.18
504.59	2068.45
504.79	2133.98
504.99	1923.04
505.19	1804.26
505.39	1703.91
505.59	1808.36
505.79	1708.01
505.99	1736.68
506.19	1570.79
506.39	1724.39
506.59	1603.56
506.79	1599.46
506.99	1656.81
507.19	1570.79
507.39	1533.93
507.59	1492.97
507.79	1505.26
507.99	1517.54
508.19	1552.36
508.39	1570.79
508.59	1546.22
508.79	1556.46
508.99	1626.09
509.19	1527.78
509.39	1617.90
509.59	1515.50
509.79	1533.93
509.99	1521.64
510.19	1617.90
510.39	1538.02
510.59	1482.73
510.79	1464.30
510.99	1470.44
511.19	1558.50
511.39	1585.13
511.59	1656.81
511.79	1615.85
511.99	1583.08
512.19	1662.95
512.38	1533.93
512.58	1460.20
512.78	1570.79
512.98	1566.70
513.18	1554.41
513.38	1421.29
513.58	1540.07
513.78	1505.26
513.98	1562.60
514.18	1531.88
514.38	1556.46
514.58	1497.07
514.78	1501.16
514.98	1558.50
515.18	1517.54
515.38	1548.26
515.58	1656.81
515.78	1525.74
515.98	1607.66
516.18	1544.17
516.38	1558.50
516.57	1468.39
516.77	1445.87
516.97	1556.46
517.17	1490.92
517.37	1507.30
517.57	1519.59
517.77	1523.69
517.97	1521.64
518.17	1591.27
518.37	1517.54
518.57	1488.87
518.77	1511.40
518.97	1507.30
519.16	1576.94
519.36	1564.65
519.56	1578.98
519.76	1538.02
519.96	1564.65
520.16	1640.42
520.36	1523.69
520.56	1572.84
520.76	1548.26
520.96	1556.46
521.16	1570.79
521.35	1576.94
521.55	1671.14
521.75	1544.17
521.95	1511.40
522.15	1523.69
522.35	1490.92
522.55	1497.07
522.75	1597.42
522.95	1548.26
523.14	1456.11
523.34	1513.45
523.54	1544.17
523.74	1564.65
523.94	1611.75
524.14	1533.93
524.34	1458.15
524.54	1626.09
524.73	1535.98
524.93	1576.94
525.13	1554.41
525.33	1525.74
525.53	1667.05
525.73	1576.94
525.93	1527.78
526.13	1583.08
526.32	1509.35
526.52	1619.94
526.72	1595.37
526.92	1552.36
527.12	1554.41
527.32	1548.26
527.52	1531.88
527.71	1570.79
527.91	1560.55
528.11	1587.18
528.31	1558.50
528.51	1501.16
528.71	1497.07
528.90	1609.70
529.10	1621.99
529.30	1552.36
529.50	1427.43
529.70	1554.41
529.90	1525.74
530.09	1570.79
530.29	1503.21
530.49	1585.13
530.69	1566.70
530.89	1513.45
531.09	1542.12
531.28	1503.21
531.48	1587.18
531.68	1415.15
531.88	1603.56
532.08	1585.13
532.28	1556.46
532.47	1560.55
532.67	1595.37
532.87	1648.61
533.07	1452.01
533.27	1607.66
533.46	1574.89
533.66	1531.88
533.86	1505.26
534.06	1472.49
534.26	1566.70
534.45	1619.94
534.65	1636.33
534.85	1538.02
535.05	1574.89
535.25	1544.17
535.44	1505.26
535.64	1599.46
535.84	1589.22
536.04	1513.45
536.24	1533.93
536.43	1458.15
536.63	1558.50
536.83	1583.08
537.03	1484.78
537.22	1441.77
537.42	1523.69
537.62	1464.30
537.82	1503.21
538.02	1585.13
538.21	1585.13
538.41	1615.85
538.61	1587.18
538.81	1492.97
539.00	1609.70
539.20	1490.92
539.40	1492.97
539.60	1603.56
539.79	1542.12
539.99	1554.41
540.19	1497.07
540.39	1585.13
540.58	1589.22
540.78	1564.65
540.98	1578.98
541.18	1589.22
541.37	1562.60
541.57	1458.15
541.77	1521.64
541.97	1568.74
542.16	1433.58
542.36	1437.67
542.56	1591.27
542.76	1574.89
542.95	1548.26
543.15	1535.98
543.35	1554.41
543.54	1484.78
543.74	1480.68
543.94	1570.79
544.14	1492.97
544.33	1566.70
544.53	1558.50
544.73	1484.78
544.93	1470.44
545.12	1464.30
545.32	1548.26
545.52	1535.98
545.71	1503.21
545.91	1542.12
546.11	1490.92
546.30	1472.49
546.50	1525.74
546.70	1548.26
546.90	1660.90
547.09	1472.49
547.29	1601.51
547.49	1535.98
547.68	1507.30
547.88	1515.50
548.08	1513.45
548.27	1880.04
548.47	1499.11
548.67	1521.64
548.87	1560.55
549.06	1507.30
549.26	1515.50
549.46	1521.64
549.65	1527.78
549.85	1560.55
550.05	1583.08
550.24	1501.16
550.44	1574.89
550.64	1523.69
550.83	1517.54
551.03	1619.94
551.23	1601.51
551.42	1578.98
551.62	1476.59
551.82	1542.12
552.01	1621.99
552.21	1576.94
552.41	1517.54
552.60	1576.94
552.80	1540.07
553.00	1546.22
553.19	1652.71
553.39	1574.89
553.59	1523.69
553.78	1574.89
553.98	1566.70
554.17	1499.11
554.37	1556.46
554.57	1597.42
554.76	1456.11
554.96	1583.08
555.16	1560.55
555.35	1521.64
555.55	1550.31
555.75	1484.78
555.94	1634.28
556.14	1497.07
556.33	1609.70
556.53	1548.26
556.73	1443.82
556.92	1587.18
557.12	1673.19
557.32	1603.56
557.51	1587.18
557.71	1667.05
557.90	1630.18
558.10	1578.98
558.30	1533.93
558.49	1560.55
558.69	1540.07
558.88	1671.14
559.08	1583.08
559.28	1619.94
559.47	1503.21
559.67	1552.36
559.86	1621.99
560.06	1538.02
560.26	1495.02
560.45	1517.54
560.65	1558.50
560.84	1570.79
561.04	1556.46
561.24	1626.09
561.43	1507.30
561.63	1673.19
561.82	1564.65
562.02	1519.59
562.22	1525.74
562.41	1472.49
562.61	1513.45
562.80	1495.02
563.00	1683.43
563.19	1540.07
563.39	1585.13
563.59	1552.36
563.78	1501.16
563.98	1443.82
564.17	1521.64
564.37	1462.25
564.56	1611.75
564.76	1552.36
564.96	1576.94
565.15	1515.50
565.35	1710.05
565.54	1542.12
565.74	1576.94
565.93	1570.79
566.13	1521.64
566.32	1570.79
566.52	1632.23
566.71	1523.69
566.91	1624.04
567.11	1474.54
567.30	1515.50
567.50	1566.70
567.69	1523.69
567.89	1552.36
568.08	1529.83
568.28	1478.63
568.47	1548.26
568.67	1548.26
568.86	1511.40
569.06	1599.46
569.25	1601.51
569.45	1515.50
569.64	1583.08
569.84	1581.03
570.04	1632.23
570.23	1527.78
570.43	1533.93
570.62	1574.89
570.82	1523.69
571.01	1527.78
571.21	1511.40
571.40	1441.77
571.60	1558.50
571.79	1572.84
571.99	1613.80
572.18	1492.97
572.38	1540.07
572.57	1529.83
572.77	1628.14
572.96	1642.47
573.16	1658.85
573.35	1505.26
573.55	1673.19
573.74	1535.98
573.94	1583.08
574.13	1495.02
574.33	1595.37
574.52	1642.47
574.71	1568.74
574.91	1603.56
575.10	1538.02
575.30	1585.13
575.49	1540.07
575.69	1495.02
575.88	1591.27
576.08	1615.85
576.27	1724.39
576.47	1724.39
576.66	1705.96
576.86	1697.77
577.05	1667.05
577.25	1642.47
577.44	1785.83
577.64	1581.03
577.83	1615.85
578.02	1589.22
578.22	1665.00
578.41	1605.61
578.61	1572.84
578.80	1587.18
579.00	1535.98
579.19	1587.18
579.39	1585.13
579.58	1607.66
579.77	1589.22
579.97	1718.25
580.16	1605.61
580.36	1669.09
580.55	1673.19
580.75	1669.09
580.94	1531.88
581.13	1683.43
581.33	1685.48
581.52	1619.94
581.72	1708.01
581.91	1617.90
582.11	1603.56
582.30	1695.72
582.49	1634.28
582.69	1679.33
582.88	1667.05
583.08	1548.26
583.27	1671.14
583.47	1654.76
583.66	1578.98
583.85	1560.55
584.05	1607.66
584.24	1710.05
584.44	1691.62
584.63	1671.14
584.82	1689.57
585.02	1812.45
585.21	1730.53
585.41	1806.31
585.60	1708.01
585.79	1818.60
585.99	1847.27
586.18	1763.30
586.37	2074.59
586.57	3143.63
586.76	9572.21
586.96	27319.90
587.15	43756.90
587.34	54396.10
587.54	61385.82
587.73	59753.58
587.93	43705.70
588.12	32253.46
588.31	25687.67
588.51	22038.19
588.70	19617.49
588.89	18523.88
589.09	16779.01
589.28	15290.13
589.47	13299.51
589.67	10964.82
589.86	9092.98
590.06	6664.09
590.25	4968.37
590.44	3774.41
590.64	2963.41
590.83	2328.54
591.02	2058.21
591.22	1890.28
591.41	1816.55
591.60	1654.76
591.80	1736.68
591.99	1560.55
592.18	1736.68
592.38	1591.27
592.57	1593.32
592.76	1617.90
592.96	1605.61
593.15	1533.93
593.34	1615.85
593.54	1542.12
593.73	1515.50
593.92	1640.42
594.12	1636.33
594.31	1665.00
594.50	1593.32
594.70	1642.47
594.89	1722.34
595.08	1599.46
595.28	1601.51
595.47	1656.81
595.66	1634.28
595.86	1540.07
596.05	1607.66
596.24	1476.59
596.43	1724.39
596.63	1615.85
596.82	1554.41
597.01	1550.31
597.21	1683.43
597.40	1587.18
597.59	1505.26
597.79	1556.46
597.98	1683.43
598.17	1648.61
598.36	1626.09
598.56	1560.55
598.75	1517.54
598.94	1568.74
599.14	1615.85
599.33	1431.53
599.52	1550.31
599.71	1570.79
599.91	1605.61
600.10	1564.65
600.29	1509.35
600.48	1507.30
600.68	1607.66
600.87	1509.35
601.06	1505.26
601.26	1495.02
601.45	1601.51
601.64	1583.08
601.83	1599.46
602.03	1529.83
602.22	1533.93
602.41	1529.83
602.60	1619.94
602.80	1632.23
602.99	1542.12
603.18	1435.63
603.37	1634.28
603.57	1507.30
603.76	1593.32
603.95	1587.18
604.14	1535.98
604.34	1486.83
604.53	1484.78
604.72	1601.51
604.91	1626.09
605.10	1554.41
605.30	1535.98
605.49	1617.90
605.68	1613.80
605.87	1587.18
606.07	1609.70
606.26	1578.98
606.45	1609.70
606.64	1607.66
606.84	1525.74
607.03	1593.32
607.22	1613.80
607.41	1576.94
607.60	1593.32
607.80	1650.66
607.99	1624.04
608.18	1578.98
608.37	1519.59
608.56	1529.83
608.76	1538.02
608.95	1601.51
609.14	1599.46
609.33	1656.81
609.52	1677.29
609.72	1619.94
609.91	1669.09
610.10	1681.38
610.29	1593.32
610.48	1554.41
610.68	1591.27
610.87	1578.98
611.06	1660.90
611.25	1597.42
611.44	1583.08
611.63	1538.02
611.83	1574.89
612.02	1501.16
612.21	1636.33
612.40	1497.07
612.59	1480.68
612.79	1581.03
612.98	1550.31
613.17	1597.42
613.36	1589.22
613.55	1685.48
613.74	1574.89
613.93	1656.81
614.13	1759.21
614.32	1841.12
614.51	1814.50
614.70	1585.13
614.89	1644.52
615.08	1673.19
615.28	1908.71
615.47	1550.31
615.66	1572.84
615.85	1626.09
616.04	1789.92
616.23	1697.77
616.42	1576.94
616.62	1712.10
616.81	1626.09
617.00	1638.38
617.19	1578.98
617.38	1511.40
617.57	1628.14
617.76	1654.76
617.95	1519.59
618.15	1660.90
618.34	1708.01
618.53	1550.31
618.72	1517.54
618.91	1613.80
619.10	1583.08
619.29	1484.78
619.48	1521.64
619.68	1472.49
619.87	1542.12
620.06	1478.63
620.25	1509.35
620.44	1642.47
620.63	1587.18
620.82	1484.78
621.01	1560.55
621.20	1517.54
621.39	1525.74
621.59	1624.04
621.78	1585.13
621.97	1554.41
622.16	1605.61
622.35	1533.93
622.54	1615.85
622.73	1591.27
622.92	1488.87
623.11	1546.22
623.30	1484.78
623.49	1503.21
623.68	1544.17
623.88	1513.45
624.07	1576.94
624.26	1583.08
624.45	1470.44
624.64	1546.22
624.83	1554.41
625.02	1462.25
625.21	1515.50
625.40	1542.12
625.59	1613.80
625.78	1521.64
625.97	1556.46
626.16	1687.53
626.35	1585.13
626.54	1630.18
626.74	1632.23
626.93	1669.09
627.12	1546.22
627.31	1667.05
627.50	1568.74
627.69	1638.38
627.88	1503.21
628.07	1587.18
628.26	1476.59
628.45	1533.93
628.64	1535.98
628.83	1507.30
629.02	1544.17
629.21	1591.27
629.40	1527.78
629.59	1540.07
629.78	1587.18
629.97	1523.69
630.16	1554.41
630.35	1554.41
630.54	1587.18
630.73	1544.17
630.92	1533.93
631.11	1525.74
631.30	1511.40
631.49	1611.75
631.68	1587.18
631.87	1542.12
632.06	1511.40
632.25	1607.66
632.44	1546.22
632.63	1679.33
632.82	1544.17
633.01	1605.61
633.20	1562.60
633.39	1671.14
633.58	1560.55
633.77	1701.86
633.96	1650.66
634.15	1615.85
634.34	1634.28
634.53	1519.59
634.72	1593.32
634.91	1474.54
635.10	1529.83
635.29	1603.56
635.48	1576.94
635.67	1576.94
635.86	1482.73
636.05	1566.70
636.24	1523.69
636.43	1585.13
636.62	1611.75
636.81	1513.45
637.00	1544.17
637.19	1538.02
637.38	1609.70
637.57	1540.07
637.76	1599.46
637.95	1646.57
638.14	1652.71
638.33	1701.86
638.52	1665.00
638.71	1609.70
638.89	1552.36
639.08	1667.05
639.27	1628.14
639.46	1628.14
639.65	1935.33
639.84	2052.06
640.03	2203.61
640.22	2230.24
640.41	2256.86
640.60	1929.19
640.79	1908.71
640.98	1751.01
641.17	1802.21
641.36	1775.59
641.55	1722.34
641.74	1624.04
641.92	1583.08
642.11	1587.18
642.30	1591.27
642.49	1564.65
642.68	1617.90
642.87	1599.46
643.06	1566.70
643.25	1538.02
643.44	1523.69
643.63	1540.07
643.82	1548.26
644.00	1495.02
644.19	1558.50
644.38	1488.87
644.57	1544.17
644.76	1564.65
644.95	1462.25
645.14	1542.12
645.33	1495.02
645.52	1564.65
645.71	1562.60
645.89	1464.30
646.08	1595.37
646.27	1519.59
646.46	1650.66
646.65	1527.78
646.84	1562.60
647.03	1464.30
647.22	1556.46
647.40	1593.32
647.59	1568.74
647.78	1464.30
647.97	1488.87
648.16	1521.64
648.35	1673.19
648.54	1480.68
648.73	1495.02
648.91	1585.13
649.10	1523.69
649.29	1548.26
649.48	1521.64
649.67	1570.79
649.86	1548.26
650.05	1507.30
650.23	1726.44
650.42	1624.04
650.61	1605.61
650.80	1734.63
650.99	1773.54
651.18	1701.86
651.36	1662.95
651.55	1560.55
651.74	1701.86
651.93	1566.70
652.12	1634.28
652.31	1619.94
652.49	1605.61
652.68	1574.89
652.87	1693.67
653.06	1603.56
653.25	1693.67
653.44	1650.66
653.62	1656.81
653.81	1583.08
654.00	1570.79
654.19	1638.38
654.38	1744.87
654.56	1540.07
654.75	1562.60
654.94	1499.11
655.13	1615.85
655.32	1527.78
655.51	1576.94
655.69	1550.31
655.88	1615.85
656.07	1449.96
656.26	1515.50
656.45	1544.17
656.63	1593.32
656.82	1550.31
657.01	1581.03
657.20	1591.27
657.38	1628.14
657.57	1593.32
657.76	1542.12
657.95	1550.31
658.14	1447.91
658.32	1507.30
658.51	1566.70
658.70	1503.21
658.89	1566.70
659.08	1542.12
659.26	1630.18
659.45	1548.26
659.64	1648.61
659.83	1589.22
660.01	1779.68
660.20	1640.42
660.39	1675.24
660.58	1509.35
660.76	1552.36
660.95	1548.26
661.14	1535.98
661.33	1507.30
661.51	1546.22
661.70	1542.12
661.89	1548.26
662.08	1529.83
662.26	1486.83
662.45	1505.26
662.64	1621.99
662.83	1523.69
663.01	1540.07
663.20	1527.78
663.39	1609.70
663.58	1495.02
663.76	1462.25
663.95	1564.65
664.14	1470.44
664.32	1564.65
664.51	1609.70
664.70	1470.44
664.89	1574.89
665.07	1529.83
665.26	1538.02
665.45	1490.92
665.64	1642.47
665.82	1482.73
666.01	1617.90
666.20	1550.31
666.38	1626.09
666.57	1632.23
666.76	1796.07
666.95	2975.70
667.13	7624.59
667.32	15580.95
667.51	20121.29
667.69	23406.23
667.88	25519.74
668.07	22171.31
668.25	15542.03
668.44	12545.86
668.63	10145.64
668.81	8628.09
669.00	7786.38
669.19	7063.44
669.38	6160.29
669.56	5650.35
669.75	4933.56
669.94	4112.32
670.12	3416.01
670.31	2850.77
670.50	2402.27
670.68	2172.89
670.87	1910.75
671.06	1787.88
671.24	1763.30
671.43	1804.26
671.62	1691.62
671.80	1632.23
671.99	1619.94
672.18	1609.70
672.36	1648.61
672.55	1638.38
672.74	1560.55
672.92	1558.50
673.11	1621.99
673.29	1595.37
673.48	1587.18
673.67	1615.85
673.85	1583.08
674.04	1554.41
674.23	1574.89
674.41	1591.27
674.60	1519.59
674.79	1472.49
674.97	1554.41
675.16	1570.79
675.34	1607.66
675.53	1480.68
675.72	1554.41
675.90	1558.50
676.09	1564.65
676.28	1544.17
676.46	1476.59
676.65	1650.66
676.83	1437.67
677.02	1601.51
677.21	1550.31
677.39	1564.65
677.58	1554.41
677.77	1566.70
677.95	1503.21
678.14	1499.11
678.32	1626.09
678.51	1468.39
678.70	1667.05
678.88	1587.18
679.07	1605.61
679.25	1525.74
679.44	1607.66
679.63	1558.50
679.81	1587.18
680.00	1560.55
680.18	1540.07
680.37	1624.04
680.55	1490.92
680.74	1464.30
680.93	1443.82
681.11	1544.17
681.30	1535.98
681.48	1544.17
681.67	1478.63
681.85	1550.31
682.04	1495.02
682.23	1482.73
682.41	1634.28
682.60	1472.49
682.78	1488.87
682.97	1476.59
683.15	1578.98
683.34	1499.11
683.53	1538.02
683.71	1449.96
683.90	1646.57
684.08	1576.94
684.27	1568.74
684.45	1556.46
684.64	1523.69
684.82	1476.59
685.01	1564.65
685.19	1591.27
685.38	1560.55
685.57	1562.60
685.75	1542.12
685.94	1490.92
686.12	1488.87
686.31	1419.24
686.49	1636.33
686.68	1495.02
686.86	1599.46
687.05	1578.98
687.23	1525.74
687.42	1472.49
687.60	1505.26
687.79	1587.18
687.97	1603.56
688.16	1542.12
688.34	1603.56
688.53	1421.29
688.71	1636.33
688.90	1599.46
689.08	1542.12
689.27	1527.78
689.45	1607.66
689.64	1548.26
689.82	1533.93
690.01	1519.59
690.19	1564.65
690.38	1564.65
690.56	1660.90
690.75	1495.02
690.93	1550.31
691.12	1511.40
691.30	1544.17
691.49	1544.17
691.67	1533.93
691.86	1550.31
692.04	1505.26
692.23	1597.42
692.41	1601.51
692.60	1691.62
692.78	1712.10
692.97	1638.38
693.15	1654.76
693.34	1738.73
693.52	1583.08
693.71	1572.84
693.89	1578.98
694.08	1445.87
694.26	1599.46
694.44	1611.75
694.63	1640.42
694.81	1560.55
695.00	1566.70
695.18	1542.12
695.37	1710.05
695.55	1630.18
695.74	1626.09
695.92	1472.49
696.10	1583.08
696.29	1478.63
696.47	1511.40
696.66	1476.59
696.84	1562.60
697.03	1511.40
697.21	1599.46
697.40	2037.73
697.58	1552.36
697.76	1466.35
697.95	1570.79
698.13	1492.97
698.32	1525.74
698.50	1578.98
698.68	1624.04
698.87	1605.61
699.05	1638.38
699.24	1587.18
699.42	1544.17
699.61	1550.31
699.79	1501.16
699.97	1507.30
700.16	1560.55
700.34	1499.11
700.53	1554.41
700.71	1566.70
700.89	1607.66
701.08	1499.11
701.26	1540.07
701.45	1877.99
701.63	1517.54
701.81	1542.12
702.00	1566.70
702.18	1552.36
702.37	1458.15
702.55	1619.94
702.73	1763.30
702.92	1761.25
703.10	1779.68
703.28	1724.39
703.47	1722.34
703.65	1767.40
703.84	1718.25
704.02	1673.19
704.20	1720.29
704.39	1603.56
704.57	1632.23
704.75	1732.58
704.94	1632.23
705.12	1511.40
705.30	1605.61
705.49	1837.03
705.67	2850.77
705.86	7305.10
706.04	14386.98
706.22	18886.37
706.41	21855.92
706.59	22933.15
706.77	20864.71
706.96	14935.84
707.14	11706.19
707.32	9783.15
707.51	8675.20
707.69	7479.18
707.87	6565.79
708.06	5842.85
708.24	4728.76
708.42	3651.53
708.61	3033.04
708.79	2246.62
708.97	2007.01
709.16	1877.99
709.34	1617.90
709.52	1738.73
709.71	1619.94
709.89	1550.31
710.07	1538.02
710.26	1544.17
710.44	1560.55
710.62	1599.46
710.80	1544.17
710.99	1538.02
711.17	1667.05
711.35	1521.64
711.54	1523.69
711.72	1636.33
711.90	1576.94
712.09	1570.79
712.27	1544.17
712.45	1554.41
712.63	1654.76
712.82	1603.56
713.00	1511.40
713.18	1562.60
713.37	1568.74
713.55	1560.55
713.73	1538.02
713.91	1609.70
714.10	1503.21
714.28	1525.74
714.46	1615.85
714.65	1484.78
714.83	1501.16
715.01	1517.54
715.19	1531.88
715.38	1519.59
715.56	1544.17
715.74	1605.61
715.92	1464.30
716.11	1632.23
716.29	1435.63
716.47	1554.41
716.65	1443.82
716.84	1484.78
717.02	1607.66
717.20	1423.34
717.38	1583.08
717.57	1583.08
717.75	1472.49
717.93	1490.92
718.11	1527.78
718.30	1521.64
718.48	1454.06
718.66	1531.88
718.84	1572.84
719.03	1593.32
719.21	1435.63
719.39	1597.42
719.57	1552.36
719.75	1550.31
719.94	1441.77
720.12	1576.94
720.30	1523.69
720.48	1535.98
720.67	1562.60
720.85	1490.92
721.03	1554.41
721.21	1533.93
721.39	1593.32
721.58	1519.59
721.76	1550.31
721.94	1626.09
722.12	1503.21
722.30	1570.79
722.49	1458.15
722.67	1576.94
722.85	1562.60
723.03	1495.02
723.21	1507.30
723.40	1591.27
723.58	1544.17
723.76	1583.08
723.94	1632.23
724.12	1658.85
724.30	1634.28
724.49	1669.09
724.67	1538.02
724.85	1650.66
725.03	1632.23
725.21	1613.80
725.40	1572.84
725.58	1554.41
725.76	1624.04
725.94	1578.98
726.12	1642.47
726.30	1566.70
726.49	1587.18
726.67	1519.59
726.85	1603.56
727.03	1533.93
727.21	1730.53
727.39	2095.07
727.57	3303.37
727.76	4372.41
727.94	4851.64
728.12	5003.19
728.30	5068.72
728.48	4343.74
728.66	3600.33
728.84	3207.12
729.03	2869.20
729.21	2637.78
729.39	2363.36
729.57	1994.72
729.75	1820.64
729.93	1746.92
730.11	1583.08
730.30	1613.80
730.48	1564.65
730.66	1662.95
730.84	1595.37
731.02	1488.87
731.20	1435.63
731.38	1523.69
731.56	1509.35
731.74	1470.44
731.93	1523.69
732.11	1478.63
732.29	1548.26
732.47	1597.42
732.65	1499.11
732.83	1626.09
733.01	1560.55
733.19	1540.07
733.37	1544.17
733.56	1587.18
733.74	1484.78
733.92	1554.41
734.10	1562.60
734.28	1587.18
734.46	1433.58
734.64	1521.64
734.82	1517.54
735.00	1533.93
735.18	1535.98
735.36	1499.11
735.54	1576.94
735.73	1495.02
735.91	1482.73
736.09	1578.98
736.27	1472.49
736.45	1574.89
736.63	1443.82
736.81	1527.78
736.99	1535.98
737.17	1585.13
737.35	1499.11
737.53	1562.60
737.71	1548.26
737.89	1548.26
738.07	1460.20
738.25	1492.97
738.43	1495.02
738.61	1513.45
738.80	1468.39
738.98	1509.35
739.16	1497.07
739.34	1462.25
739.52	1615.85
739.70	1525.74
739.88	1599.46
740.06	1630.18
740.24	1425.39
740.42	1593.32
740.60	1456.11
740.78	1560.55
740.96	1484.78
741.14	1531.88
741.32	1558.50
741.50	1527.78
741.68	1658.85
741.86	1632.23
742.04	1533.93
742.22	1454.06
742.40	1568.74
742.58	1542.12
742.76	1486.83
742.94	1611.75
743.12	1460.20
743.30	1492.97
743.48	1603.56
743.66	1499.11
743.84	1619.94
744.02	1509.35
744.20	1544.17
744.38	1501.16
744.56	1593.32
744.74	1693.67
744.92	1533.93
745.10	1562.60
745.28	1599.46
745.46	1617.90
745.64	1540.07
745.82	1566.70
746.00	1574.89
746.18	1621.99
746.36	1468.39
746.54	1552.36
746.72	1503.21
746.90	1503.21
747.08	1601.51
747.26	1495.02
747.44	1644.52
747.62	1538.02
747.80	1509.35
747.98	1587.18
748.15	1484.78
748.33	1564.65
748.51	1576.94
748.69	1591.27
748.87	1480.68
749.05	1583.08
749.23	1546.22
749.41	1538.02
749.59	1460.20
749.77	1519.59
749.95	1628.14
750.13	1466.35
750.31	1601.51
750.49	1538.02
750.67	1587.18
750.85	1535.98
751.03	1609.70
751.20	1677.29
751.38	1503.21
751.56	1523.69
751.74	1576.94
751.92	1558.50
752.10	1468.39
752.28	1556.46
752.46	1523.69
752.64	1538.02
752.82	1533.93
753.00	1583.08
753.18	1525.74
753.35	1593.32
753.53	1462.25
753.71	1538.02
753.89	1615.85
754.07	1576.94
754.25	1587.18
754.43	1617.90
754.61	1454.06
754.79	1527.78
754.97	1546.22
755.14	1640.42
755.32	1460.20
755.50	1562.60
755.68	1546.22
755.86	1507.30
756.04	1476.59
756.22	1517.54
756.40	1605.61
756.57	1654.76
756.75	1535.98
756.93	1505.26
757.11	1603.56
757.29	1538.02
757.47	1538.02
757.65	1527.78
757.82	1425.39
758.00	1492.97
758.18	1546.22
758.36	1556.46
758.54	1542.12
758.72	1488.87
758.90	1621.99
759.07	1560.55
759.25	1505.26
759.43	1546.22
759.61	1509.35
759.79	1929.19
759.97	1640.42
760.15	1507.30
760.32	1560.55
760.50	1445.87
760.68	1607.66
760.86	1427.43
761.04	1593.32
761.22	1548.26
761.39	1501.16
761.57	1529.83
761.75	1558.50
761.93	1572.84
762.11	1507.30
762.28	1556.46
762.46	1554.41
762.64	1564.65
762.82	1568.74
763.00	1505.26
763.18	1574.89
763.35	1495.02
763.53	1593.32
763.71	1542.12
763.89	1589.22
764.07	1552.36
764.24	1515.50
764.42	1554.41
764.60	1574.89
764.78	1601.51
764.96	1585.13
765.13	1576.94
765.31	1558.50
765.49	1527.78
765.67	1497.07
765.84	1470.44
766.02	1544.17
766.20	1402.86
766.38	1540.07
766.56	1574.89
766.73	1570.79
766.91	1517.54
767.09	1605.61
767.27	1576.94
767.44	1497.07
767.62	1552.36
767.80	1538.02
767.98	1538.02
768.15	1523.69
768.33	1490.92
768.51	1605.61
768.69	1513.45
768.87	1513.45
769.04	1527.78
769.22	1593.32
769.40	1583.08
769.58	1691.62
769.75	1527.78
769.93	1552.36
770.11	1454.06
770.28	1552.36
770.46	1593.32
770.64	1542.12
770.82	1531.88
770.99	1519.59
771.17	1568.74
771.35	1507.30
771.53	1542.12
771.70	1523.69
771.88	1419.24
772.06	1513.45
772.23	1529.83
772.41	1538.02
772.59	1556.46
772.77	1476.59
772.94	1566.70
773.12	1515.50
773.30	1482.73
773.47	1589.22
773.65	1464.30
773.83	1607.66
774.01	1505.26
774.18	1513.45
774.36	1523.69
774.54	1533.93
774.71	1527.78
774.89	1478.63
775.07	1499.11
775.24	1503.21
775.42	1552.36
775.60	1587.18
775.78	1570.79
775.95	1460.20
776.13	1437.67
776.31	1427.43
776.48	1603.56
776.66	1626.09
776.84	1472.49
777.01	1452.01
777.19	1595.37
777.37	1476.59
777.54	1583.08
777.72	1662.95
777.90	1556.46
778.07	1509.35
778.25	1710.05
778.43	1611.75
778.60	1546.22
778.78	1597.42
778.96	1591.27
779.13	1482.73
779.31	1574.89
779.49	1480.68
779.66	1515.50
779.84	1538.02
780.01	1517.54
780.19	1505.26
780.37	1533.93
780.54	1581.03
780.72	1527.78
780.90	1542.12
781.07	1558.50
781.25	1492.97
781.43	1574.89
781.60	1519.59
781.78	1644.52
781.95	1546.22
782.13	1484.78
782.31	1486.83
782.48	1361.90
782.66	1595.37
782.83	1654.76
783.01	1554.41
783.19	1595.37
783.36	1546.22
783.54	1497.07
783.72	1538.02
783.89	1490.92
784.07	1529.83
784.24	1499.11
784.42	1578.98
784.60	1490.92
784.77	1507.30
784.95	1497.07
785.12	1505.26
785.30	1595.37
785.47	1474.54
785.65	1454.06
785.83	1529.83
786.00	1507.30
786.18	1525.74
786.35	1423.34
786.53	1562.60
786.71	1492.97
786.88	1603.56
787.06	1476.59
787.23	1523.69
787.41	1470.44
787.58	1499.11
787.76	1515.50
787.94	1564.65
788.11	1540.07
788.29	1535.98
788.46	1513.45
788.64	1419.24
788.81	1435.63
788.99	1585.13
789.16	1548.26
789.34	1591.27
789.52	1544.17
789.69	1546.22
789.87	1462.25
790.04	1548.26
790.22	1552.36
790.39	1640.42
790.57	1470.44
790.74	1462.25
790.92	1535.98
791.09	1486.83
791.27	1521.64
791.44	1566.70
791.62	1572.84
791.79	1583.08
791.97	1476.59
792.15	1689.57
792.32	1533.93
792.50	1568.74
792.67	1585.13
792.85	1679.33
793.02	1548.26
793.20	1552.36
793.37	1529.83
793.55	1597.42
793.72	1470.44
793.90	1581.03
794.07	1562.60
794.25	1468.39
794.42	1513.45
794.60	1488.87
794.77	1597.42
794.95	1538.02
795.12	1593.32
795.30	1583.08
795.47	1357.80
795.65	1746.92
795.82	1544.17
796.00	1495.02
796.17	1531.88
796.34	1607.66
796.52	1509.35
796.69	1558.50
796.87	1603.56
797.04	1632.23
797.22	1591.27
797.39	1568.74
797.57	1519.59
797.74	1486.83
797.92	1527.78
798.09	1525.74
798.27	1542.12
798.44	1505.26
798.62	1484.78
798.79	1521.64
798.96	1517.54
799.14	1462.25
799.31	1705.96
799.49	1589.22
799.66	1527.78
799.84	1509.35
800.01	1415.15
800.19	1519.59
800.36	1449.96
800.53	1521.64
800.71	1574.89
800.88	1597.42
801.06	1531.88
801.23	1564.65
801.41	1492.97
801.58	1495.02
801.75	1517.54
801.93	1589.22
802.10	1564.65
802.28	1517.54
802.45	1570.79
802.63	1583.08
802.80	1585.13
802.97	1542.12
803.15	1509.35
803.32	1525.74
803.50	1501.16
803.67	1552.36
803.84	1427.43
804.02	1544.17
804.19	1521.64
804.37	1349.61
804.54	1441.77
804.71	1460.20
804.89	1540.07
805.06	1476.59
805.24	1505.26
805.41	1529.83
805.58	1433.58
805.76	1701.86
805.93	1546.22
806.10	1574.89
806.28	1548.26
806.45	1540.07
806.63	1531.88
806.80	1572.84
806.97	1570.79
807.15	1595.37
807.32	1574.89
807.49	1527.78
807.67	1437.67
807.84	1552.36
808.01	1439.72
808.19	1652.71
808.36	1613.80
808.54	1497.07
808.71	1529.83
808.88	1535.98
809.06	1525.74
809.23	1566.70
809.40	1540.07
809.58	1540.07
809.75	1560.55
809.92	1576.94
810.10	1695.72
810.27	1544.17
810.44	1523.69
810.62	1585.13
810.79	1527.78
810.96	1517.54
811.14	1486.83
811.31	1511.40
811.48	1581.03
811.66	1550.31
811.83	1509.35
812.00	1630.18
812.18	1544.17
812.35	1615.85
812.52	1505.26
812.69	1497.07
812.87	1525.74
813.04	1488.87
813.21	1624.04
813.39	1513.45
813.56	1394.67
813.73	1505.26
813.91	1505.26
814.08	1505.26
814.25	1556.46
814.42	1488.87
814.60	1484.78
814.77	1595.37
814.94	1560.55
815.12	1540.07
815.29	1550.31
815.46	1544.17
815.63	1540.07
815.81	1572.84
815.98	1486.83
816.15	1523.69
816.33	1509.35
816.50	1533.93
816.67	1492.97
816.84	1517.54
817.02	1468.39
817.19	1589.22
817.36	1505.26
817.53	1599.46
817.71	1431.53
817.88	1673.19
818.05	1593.32
818.22	1548.26
818.40	1695.72
818.57	1490.92
818.74	1558.50
818.91	1550.31
819.09	1558.50
819.26	1560.55
819.43	1470.44
819.60	1562.60
819.78	1572.84
819.95	1517.54
820.12	1515.50
820.29	1509.35
820.47	1570.79
820.64	1546.22
820.81	1492.97
820.98	1492.97
821.15	1591.27
821.33	1583.08
821.50	1490.92
821.67	1566.70
821.84	1527.78
822.02	1626.09
822.19	1609.70
822.36	1550.31
822.53	1523.69
822.70	1435.63
822.88	1507.30
823.05	1591.27
823.22	1509.35
823.39	1568.74
823.56	1599.46
823.74	1626.09
823.91	1548.26
824.08	1523.69
824.25	1525.74
824.42	1589.22
824.60	1464.30
824.77	1490.92
824.94	1535.98
825.11	1535.98
825.28	1509.35
825.45	1509.35
825.63	1511.40
825.80	1509.35
825.97	1517.54
826.14	1550.31
826.31	1505.26
826.48	1576.94
826.66	1505.26
826.83	1523.69
827.00	1449.96
827.17	1474.54
827.34	1507.30
827.51	1519.59
827.69	1599.46
827.86	1499.11
828.03	1533.93
828.20	1558.50
828.37	1482.73
828.54	1515.50
828.71	1587.18
828.89	1617.90
829.06	1531.88
829.23	1576.94
829.40	1478.63
829.57	1544.17
829.74	1603.56
829.91	1523.69
830.09	1558.50
830.26	1574.89
830.43	1605.61
830.60	1509.35
830.77	1566.70
830.94	1603.56
831.11	1587.18
831.28	1503.21
831.46	1531.88
831.63	1431.53
831.80	1542.12
831.97	1576.94
832.14	1468.39
832.31	1601.51
832.48	1558.50
832.65	1640.42
832.82	1548.26
832.99	1632.23
833.17	1431.53
833.34	1642.47
833.51	1550.31
833.68	1435.63
833.85	1523.69
834.02	1517.54
834.19	1499.11
834.36	1429.48
834.53	1495.02
834.70	1599.46
834.87	1562.60
835.04	1560.55
835.22	1476.59
835.39	1585.13
835.56	1478.63
835.73	1501.16
835.90	1521.64
836.07	1589.22
836.24	1550.31
836.41	1492.97
836.58	1464.30
836.75	1650.66
836.92	1583.08
837.09	1435.63
837.26	1566.70
837.43	1521.64
837.60	1550.31
837.77	1583.08
837.94	1609.70
838.12	1583.08
838.29	1560.55
838.46	1480.68
838.63	1480.68
838.80	1574.89
838.97	1591.27
839.14	1517.54
839.31	1591.27
839.48	1515.50
839.65	1497.07
839.82	1576.94
839.99	1542.12
840.16	1550.31
840.33	1507.30
840.50	1609.70
840.67	1437.67
840.84	1439.72
841.01	1572.84
841.18	1472.49
841.35	1511.40
841.52	1603.56
841.69	1656.81
841.86	1495.02
842.03	1595.37
842.20	1509.35
842.37	1509.35
842.54	1509.35
842.71	1574.89
842.88	1525.74
843.05	1628.14
843.22	1599.46
843.39	1513.45
843.56	1519.59
843.73	1603.56
843.90	1531.88
844.07	1468.39
844.24	1570.79
844.41	1609.70
844.58	1566.70
844.75	1437.67
844.92	1509.35
845.09	1529.83
845.26	1495.02
845.43	1560.55
845.60	1525.74
845.77	1560.55
845.94	1540.07
846.10	1556.46
846.27	1501.16
846.44	1490.92
846.61	1525.74
846.78	1546.22
846.95	1595.37
847.12	1497.07
847.29	1533.93
847.46	1480.68
847.63	1646.57
847.80	1511.40
847.97	1523.69
848.14	1605.61
848.31	1589.22
848.48	1527.78
848.65	1454.06
848.82	1476.59
848.98	1660.90
849.15	1624.04
849.32	1540.07
849.49	1564.65
849.66	1581.03
849.83	1538.02
850.00	1558.50
850.17	1566.70
850.34	1538.02
850.51	1474.54
850.68	1509.35
850.85	1669.09
851.01	1578.98
851.18	1533.93
851.35	1468.39
851.52	1583.08
851.69	1644.52
851.86	1474.54
852.03	1435.63
852.20	1591.27
852.37	1583.08
852.53	1495.02
852.70	1443.82
852.87	1511.40
853.04	1562.60
853.21	1527.78
853.38	1638.38
853.55	1568.74
853.72	1601.51
853.89	1531.88
854.05	1499.11
854.22	1505.26
854.39	1581.03
854.56	1603.56
854.73	1603.56
854.90	1468.39
855.07	1570.79
855.23	1535.98
855.40	1540.07
855.57	1505.26
855.74	1452.01
855.91	1703.91
856.08	1454.06
856.25	1503.21
856.41	1515.50
856.58	1501.16
856.75	1544.17
856.92	1525.74
857.09	1497.07
857.26	1540.07
857.42	1474.54
857.59	1535.98
857.76	1527.78
857.93	1509.35
858.10	1507.30
858.27	1495.02
858.43	1595.37
858.60	1488.87
858.77	1456.11
858.94	1478.63
859.11	1603.56
859.27	1548.26
859.44	1531.88
859.61	1638.38
859.78	1607.66
859.95	1566.70
860.12	1552.36
860.28	1589.22
860.45	1714.15
860.62	1527.78
860.79	1531.88
860.95	1556.46
861.12	1470.44
861.29	1560.55
861.46	1480.68
861.63	1472.49
861.79	1495.02
861.96	1460.20
862.13	1499.11
862.30	1632.23
862.47	1550.31
862.63	1466.35
862.80	1581.03
862.97	1439.72
863.14	1548.26
863.30	1568.74
863.47	1517.54
863.64	1542.12
863.81	1533.93
863.97	1544.17
864.14	1611.75
864.31	1495.02
864.48	1544.17
864.65	1497.07
864.81	1572.84
864.98	1505.26
865.15	1495.02
865.32	1529.83
865.48	1601.51
865.65	1583.08
865.82	1503.21
865.98	1572.84
866.15	1599.46
866.32	1538.02
866.49	1388.52
866.65	1595.37
866.82	1501.16
866.99	1503.21
867.16	1503.21
867.32	1538.02
867.49	1509.35
867.66	1517.54
867.83	1517.54
867.99	1464.30
868.16	1495.02
868.33	1542.12
868.49	1509.35
868.66	1581.03
868.83	1533.93
868.99	1548.26
869.16	1519.59
869.33	1525.74
869.50	1593.32
869.66	1497.07
869.83	1482.73
870.00	1538.02
870.16	1529.83
870.33	1562.60
870.50	1593.32
870.66	1517.54
870.83	1624.04
871.00	1531.88
871.17	1578.98
871.33	1634.28
871.50	1552.36
871.67	1566.70
871.83	1497.07
872.00	1626.09
872.17	1445.87
872.33	1587.18
872.50	1640.42
872.67	1535.98
872.83	1499.11
873.00	1560.55
873.17	1583.08
873.33	1552.36
873.50	1558.50
873.67	1492.97
873.83	1476.59
874.00	1429.48
874.16	1607.66
874.33	1562.60
874.50	1505.26
874.66	1562.60
874.83	1486.83
875.00	1628.14
875.16	1619.94
875.33	1576.94
875.50	1499.11
875.66	1542.12
875.83	1550.31
875.99	1558.50
876.16	1492.97
876.33	1472.49
876.49	1521.64
876.66	1578.98
876.83	1490.92
876.99	1445.87
877.16	1550.31
877.32	1462.25
877.49	1505.26
877.66	1542.12
877.82	1669.09
877.99	1560.55
878.15	1535.98
878.32	1591.27
878.49	1607.66
878.65	1525.74
878.82	1564.65
878.98	1517.54
879.15	1521.64
879.32	1548.26
879.48	1574.89
879.65	1505.26
879.81	1492.97
879.98	1556.46
880.15	1542.12
880.31	1472.49
880.48	1517.54
880.64	1503.21
880.81	1583.08
880.97	1646.57
881.14	1599.46
881.31	1521.64
881.47	1675.24
881.64	1474.54
881.80	1554.41
881.97	1632.23
882.13	1591.27
882.30	1482.73
882.47	1460.20
882.63	1538.02
882.80	1484.78
882.96	1507.30
883.13	1718.25
883.29	1552.36
883.46	1624.04
883.62	1587.18
883.79	1511.40
883.95	1603.56
884.12	1531.88
884.29	1540.07
884.45	1585.13
884.62	1538.02
884.78	1462.25
884.95	1638.38
885.11	1464.30
885.28	1562.60
885.44	1525.74
885.61	1560.55
885.77	1621.99
885.94	1544.17
886.10	1574.89
886.27	1513.45
886.43	1595.37
886.60	1621.99
886.76	1497.07
886.93	1511.40
887.09	1531.88
887.26	1583.08
887.42	1519.59
887.59	1572.84
887.75	1566.70
887.92	1617.90
888.08	1568.74
888.25	1640.42
888.41	1552.36
888.58	1544.17
888.74	1474.54
888.91	1519.59
>>>>>End Processed Spectral Data<<<<<
