SpectraSuite Data File
++++++++++++++++++++++++++++++++++++
Date: Tue May 03 12:55:34 CEST 2016
User: root
Dark Spectrum Present: No
Reference Spectrum Present: No
Number of Sampled Component Spectra: 1
Spectrometers: USB4C02835
Integration Time (usec): 100000 (USB4C02835)
Spectra Averaged: 1 (USB4C02835)
Boxcar Smoothing: 0 (USB4C02835)
Correct for Electrical Dark: No (USB4C02835)
Strobe/Lamp Enabled: No (USB4C02835)
Correct for Detector Non-linearity: No (USB4C02835)
Correct for Stray Light: No (USB4C02835)
Number of Pixels in Processed Spectrum: 3648
>>>>>Begin Processed Spectral Data<<<<<
177.47	1322.99
177.69	1322.99
177.91	1322.99
178.13	1390.57
178.36	1406.95
178.58	1439.72
178.80	1538.02
179.02	1396.71
179.24	1437.67
179.46	1538.02
179.68	1607.66
179.90	1574.89
180.13	1542.12
180.35	1486.83
180.57	1546.22
180.79	1558.50
181.01	1535.98
181.23	1609.70
181.45	1599.46
181.67	1519.59
181.90	1507.30
182.12	1503.21
182.34	1464.30
182.56	1562.60
182.78	1542.12
183.00	1484.78
183.22	1542.12
183.44	1499.11
183.66	1683.43
183.89	1636.33
184.11	1529.83
184.33	1484.78
184.55	1642.47
184.77	1558.50
184.99	1578.98
185.21	1413.10
185.43	1640.42
185.65	1474.54
185.87	1587.18
186.10	1624.04
186.32	1605.61
186.54	1613.80
186.76	1591.27
186.98	1558.50
187.20	1554.41
187.42	1564.65
187.64	1609.70
187.86	1554.41
188.08	1546.22
188.30	1583.08
188.52	1572.84
188.75	1546.22
188.97	1617.90
189.19	1507.30
189.41	1527.78
189.63	1517.54
189.85	1525.74
190.07	1449.96
190.29	1460.20
190.51	1515.50
190.73	1495.02
190.95	1617.90
191.17	1560.55
191.39	1462.25
191.61	1509.35
191.84	1488.87
192.06	1495.02
192.28	1474.54
192.50	1650.66
192.72	1523.69
192.94	1562.60
193.16	1587.18
193.38	1576.94
193.60	1466.35
193.82	1484.78
194.04	1509.35
194.26	1544.17
194.48	1581.03
194.70	1535.98
194.92	1490.92
195.14	1505.26
195.36	1499.11
195.58	1603.56
195.80	1521.64
196.02	1517.54
196.24	1478.63
196.46	1478.63
196.69	1478.63
196.91	1544.17
197.13	1560.55
197.35	1554.41
197.57	1599.46
197.79	1535.98
198.01	1484.78
198.23	1527.78
198.45	1509.35
198.67	1464.30
198.89	1527.78
199.11	1607.66
199.33	1476.59
199.55	1501.16
199.77	1509.35
199.99	1595.37
200.21	1470.44
200.43	1556.46
200.65	1464.30
200.87	1433.58
201.09	1486.83
201.31	1495.02
201.53	1621.99
201.75	1601.51
201.97	1521.64
202.19	1556.46
202.41	1591.27
202.63	1638.38
202.85	1538.02
203.07	1562.60
203.29	1505.26
203.51	1472.49
203.73	1527.78
203.95	1640.42
204.17	1621.99
204.39	1492.97
204.61	1546.22
204.83	1472.49
205.05	1570.79
205.27	1556.46
205.49	1550.31
205.71	1519.59
205.93	1566.70
206.15	1570.79
206.37	1591.27
206.59	1581.03
206.81	1402.86
207.03	1507.30
207.25	1468.39
207.47	1576.94
207.69	1503.21
207.91	1613.80
208.13	1564.65
208.34	1552.36
208.56	1464.30
208.78	1605.61
209.00	1488.87
209.22	1492.97
209.44	1572.84
209.66	1544.17
209.88	1531.88
210.10	1519.59
210.32	1492.97
210.54	1605.61
210.76	1544.17
210.98	1556.46
211.20	1454.06
211.42	1462.25
211.64	1595.37
211.86	1593.32
212.08	1564.65
212.30	1535.98
212.52	1564.65
212.74	1550.31
212.96	1550.31
213.17	1558.50
213.39	1572.84
213.61	1597.42
213.83	1658.85
214.05	1566.70
214.27	1648.61
214.49	1515.50
214.71	1497.07
214.93	1607.66
215.15	1566.70
215.37	1576.94
215.59	1492.97
215.81	1642.47
216.03	1562.60
216.24	1476.59
216.46	1574.89
216.68	1472.49
216.90	1576.94
217.12	1589.22
217.34	1589.22
217.56	1517.54
217.78	1636.33
218.00	1570.79
218.22	1519.59
218.44	1562.60
218.66	1535.98
218.87	1607.66
219.09	1511.40
219.31	1574.89
219.53	1560.55
219.75	1535.98
219.97	1509.35
220.19	1605.61
220.41	1576.94
220.63	1535.98
220.85	1538.02
221.06	1456.11
221.28	1574.89
221.50	1523.69
221.72	1595.37
221.94	1552.36
222.16	1527.78
222.38	1591.27
222.60	1568.74
222.82	1556.46
223.03	1609.70
223.25	1488.87
223.47	1548.26
223.69	1593.32
223.91	1587.18
224.13	1497.07
224.35	1490.92
224.57	1654.76
224.78	1560.55
225.00	1462.25
225.22	1495.02
225.44	1535.98
225.66	1611.75
225.88	1542.12
226.10	1511.40
226.32	1583.08
226.53	1587.18
226.75	1490.92
226.97	1601.51
227.19	1621.99
227.41	1578.98
227.63	1470.44
227.85	1427.43
228.06	1521.64
228.28	1558.50
228.50	1538.02
228.72	1468.39
228.94	1556.46
229.16	1497.07
229.37	1540.07
229.59	1449.96
229.81	1607.66
230.03	1413.10
230.25	1460.20
230.47	1492.97
230.69	1523.69
230.90	1628.14
231.12	1480.68
231.34	1513.45
231.56	1562.60
231.78	1585.13
232.00	1529.83
232.21	1513.45
232.43	1529.83
232.65	1454.06
232.87	1505.26
233.09	1492.97
233.30	1570.79
233.52	1587.18
233.74	1535.98
233.96	1452.01
234.18	1521.64
234.40	1527.78
234.61	1665.00
234.83	1499.11
235.05	1443.82
235.27	1615.85
235.49	1617.90
235.70	1615.85
235.92	1533.93
236.14	1525.74
236.36	1630.18
236.58	1486.83
236.79	1640.42
237.01	1597.42
237.23	1558.50
237.45	1652.71
237.67	1593.32
237.88	1533.93
238.10	1691.62
238.32	1517.54
238.54	1449.96
238.76	1460.20
238.97	1505.26
239.19	1554.41
239.41	1566.70
239.63	1558.50
239.85	1490.92
240.06	1454.06
240.28	1535.98
240.50	1552.36
240.72	1550.31
240.93	1486.83
241.15	1583.08
241.37	1501.16
241.59	1560.55
241.81	1519.59
242.02	1486.83
242.24	1484.78
242.46	1576.94
242.68	1597.42
242.89	1581.03
243.11	1564.65
243.33	1558.50
243.55	1548.26
243.76	1519.59
243.98	1523.69
244.20	1511.40
244.42	1525.74
244.64	1601.51
244.85	1505.26
245.07	1513.45
245.29	1566.70
245.51	1495.02
245.72	1566.70
245.94	1601.51
246.16	1619.94
246.38	1626.09
246.59	1523.69
246.81	1560.55
247.03	1554.41
247.24	1505.26
247.46	1429.48
247.68	1603.56
247.90	1523.69
248.11	1501.16
248.33	1673.19
248.55	1548.26
248.77	1525.74
248.98	1578.98
249.20	1548.26
249.42	1556.46
249.64	1476.59
249.85	1495.02
250.07	1566.70
250.29	1558.50
250.50	1603.56
250.72	1452.01
250.94	1558.50
251.16	1646.57
251.37	1544.17
251.59	1570.79
251.81	1624.04
252.02	1624.04
252.24	1556.46
252.46	1632.23
252.68	1554.41
252.89	1519.59
253.11	1449.96
253.33	1542.12
253.54	1538.02
253.76	1423.34
253.98	1550.31
254.20	1462.25
254.41	1466.35
254.63	1490.92
254.85	1441.77
255.06	1552.36
255.28	1613.80
255.50	1490.92
255.71	1445.87
255.93	1542.12
256.15	1454.06
256.36	1646.57
256.58	1544.17
256.80	1626.09
257.02	1511.40
257.23	1517.54
257.45	1501.16
257.67	1591.27
257.88	1519.59
258.10	1566.70
258.32	1499.11
258.53	1480.68
258.75	1630.18
258.97	1488.87
259.18	1490.92
259.40	1529.83
259.62	1595.37
259.83	1595.37
260.05	1632.23
260.27	1710.05
260.48	1542.12
260.70	1527.78
260.92	1578.98
261.13	1583.08
261.35	1548.26
261.57	1529.83
261.78	1521.64
262.00	1478.63
262.22	1546.22
262.43	1597.42
262.65	1560.55
262.86	1527.78
263.08	1599.46
263.30	1552.36
263.51	1443.82
263.73	1521.64
263.95	1607.66
264.16	1538.02
264.38	1581.03
264.60	1531.88
264.81	1581.03
265.03	1556.46
265.25	1595.37
265.46	1525.74
265.68	1554.41
265.89	1560.55
266.11	1513.45
266.33	1642.47
266.54	1533.93
266.76	1447.91
266.98	1599.46
267.19	1656.81
267.41	1562.60
267.62	1593.32
267.84	1495.02
268.06	1552.36
268.27	1568.74
268.49	1630.18
268.70	1595.37
268.92	1486.83
269.14	1507.30
269.35	1462.25
269.57	1513.45
269.79	1550.31
270.00	1482.73
270.22	1626.09
270.43	1466.35
270.65	1445.87
270.87	1470.44
271.08	1581.03
271.30	1562.60
271.51	1572.84
271.73	1566.70
271.95	1535.98
272.16	1609.70
272.38	1554.41
272.59	1523.69
272.81	1529.83
273.02	1607.66
273.24	1542.12
273.46	1503.21
273.67	1556.46
273.89	1515.50
274.10	1488.87
274.32	1687.53
274.54	1581.03
274.75	1507.30
274.97	1517.54
275.18	1535.98
275.40	1515.50
275.61	1585.13
275.83	1495.02
276.05	1425.39
276.26	1607.66
276.48	1621.99
276.69	1486.83
276.91	1492.97
277.12	1578.98
277.34	1587.18
277.55	1447.91
277.77	1497.07
277.99	1413.10
278.20	1538.02
278.42	1503.21
278.63	1427.43
278.85	1527.78
279.06	1501.16
279.28	1474.54
279.49	1611.75
279.71	1599.46
279.93	1540.07
280.14	1589.22
280.36	1492.97
280.57	1568.74
280.79	1591.27
281.00	1515.50
281.22	1523.69
281.43	1701.86
281.65	1394.67
281.86	1449.96
282.08	1538.02
282.29	1634.28
282.51	1540.07
282.73	1468.39
282.94	1568.74
283.16	1591.27
283.37	1609.70
283.59	1488.87
283.80	1607.66
284.02	1554.41
284.23	1533.93
284.45	1566.70
284.66	1540.07
284.88	1531.88
285.09	1560.55
285.31	1599.46
285.52	1525.74
285.74	1509.35
285.95	1554.41
286.17	1587.18
286.38	1595.37
286.60	1486.83
286.81	1531.88
287.03	1505.26
287.24	1523.69
287.46	1607.66
287.67	1587.18
287.89	1576.94
288.10	1628.14
288.32	1533.93
288.53	1570.79
288.75	1527.78
288.96	1617.90
289.18	1400.81
289.39	1464.30
289.61	1609.70
289.82	1576.94
290.04	1605.61
290.25	1464.30
290.47	1535.98
290.68	1585.13
290.90	1581.03
291.11	1492.97
291.33	1519.59
291.54	1482.73
291.76	1470.44
291.97	1560.55
292.18	1566.70
292.40	1499.11
292.61	1515.50
292.83	1576.94
293.04	1570.79
293.26	1503.21
293.47	1554.41
293.69	1503.21
293.90	1581.03
294.12	1630.18
294.33	1527.78
294.55	1538.02
294.76	1562.60
294.97	1632.23
295.19	1640.42
295.40	1505.26
295.62	1556.46
295.83	1636.33
296.05	1519.59
296.26	1595.37
296.48	1535.98
296.69	1566.70
296.90	1540.07
297.12	1521.64
297.33	1589.22
297.55	1570.79
297.76	1583.08
297.98	1572.84
298.19	1454.06
298.41	1515.50
298.62	1476.59
298.83	1613.80
299.05	1603.56
299.26	1488.87
299.48	1507.30
299.69	1554.41
299.90	1513.45
300.12	1552.36
300.33	1570.79
300.55	1495.02
300.76	1587.18
300.98	1443.82
301.19	1626.09
301.40	1533.93
301.62	1497.07
301.83	1560.55
302.05	1552.36
302.26	1480.68
302.47	1486.83
302.69	1533.93
302.90	1542.12
303.12	1449.96
303.33	1513.45
303.54	1587.18
303.76	1560.55
303.97	1542.12
304.19	1587.18
304.40	1478.63
304.61	1495.02
304.83	1576.94
305.04	1667.05
305.26	1568.74
305.47	1505.26
305.68	1564.65
305.90	1525.74
306.11	1585.13
306.33	1499.11
306.54	1517.54
306.75	1466.35
306.97	1482.73
307.18	1443.82
307.39	1458.15
307.61	1583.08
307.82	1542.12
308.04	1558.50
308.25	1556.46
308.46	1591.27
308.68	1519.59
308.89	1554.41
309.10	1552.36
309.32	1581.03
309.53	1523.69
309.74	1507.30
309.96	1560.55
310.17	1646.57
310.39	1497.07
310.60	1607.66
310.81	1554.41
311.03	1470.44
311.24	1521.64
311.45	1587.18
311.67	1624.04
311.88	1583.08
312.09	1527.78
312.31	1521.64
312.52	1540.07
312.73	1589.22
312.95	1468.39
313.16	1490.92
313.37	1542.12
313.59	1486.83
313.80	1583.08
314.01	1638.38
314.23	1538.02
314.44	1595.37
314.65	1501.16
314.87	1531.88
315.08	1517.54
315.29	1470.44
315.51	1476.59
315.72	1480.68
315.93	1656.81
316.15	1472.49
316.36	1574.89
316.57	1533.93
316.79	1558.50
317.00	1552.36
317.21	1542.12
317.43	1564.65
317.64	1535.98
317.85	1525.74
318.07	1572.84
318.28	1658.85
318.49	1691.62
318.70	1767.40
318.92	1689.57
319.13	1771.49
319.34	1753.06
319.56	1632.23
319.77	1665.00
319.98	1730.53
320.20	1611.75
320.41	1615.85
320.62	1556.46
320.83	1478.63
321.05	1628.14
321.26	1595.37
321.47	1501.16
321.69	1644.52
321.90	1509.35
322.11	1503.21
322.32	1519.59
322.54	1677.29
322.75	1480.68
322.96	1617.90
323.18	1501.16
323.39	1435.63
323.60	1484.78
323.81	1595.37
324.03	1472.49
324.24	1525.74
324.45	1552.36
324.66	1452.01
324.88	1593.32
325.09	1544.17
325.30	1556.46
325.52	1552.36
325.73	1519.59
325.94	1546.22
326.15	1523.69
326.37	1544.17
326.58	1527.78
326.79	1673.19
327.00	1509.35
327.22	1495.02
327.43	1603.56
327.64	1456.11
327.85	1570.79
328.07	1552.36
328.28	1619.94
328.49	1527.78
328.70	1499.11
328.92	1552.36
329.13	1542.12
329.34	1554.41
329.55	1703.91
329.76	1621.99
329.98	1591.27
330.19	1628.14
330.40	1486.83
330.61	1521.64
330.83	1576.94
331.04	1519.59
331.25	1558.50
331.46	1576.94
331.68	1490.92
331.89	1556.46
332.10	1525.74
332.31	1521.64
332.52	1513.45
332.74	1642.47
332.95	1495.02
333.16	1503.21
333.37	1562.60
333.58	1447.91
333.80	1474.54
334.01	1380.33
334.22	1607.66
334.43	1445.87
334.64	1466.35
334.86	1470.44
335.07	1484.78
335.28	1556.46
335.49	1462.25
335.70	1531.88
335.92	1607.66
336.13	1628.14
336.34	1556.46
336.55	1480.68
336.76	1550.31
336.98	1441.77
337.19	1560.55
337.40	1646.57
337.61	1583.08
337.82	1470.44
338.04	1513.45
338.25	1460.20
338.46	1552.36
338.67	1568.74
338.88	1529.83
339.09	1505.26
339.31	1452.01
339.52	1490.92
339.73	1470.44
339.94	1574.89
340.15	1636.33
340.36	1527.78
340.58	1507.30
340.79	1474.54
341.00	1595.37
341.21	1527.78
341.42	1533.93
341.63	1560.55
341.85	1578.98
342.06	1583.08
342.27	1509.35
342.48	1525.74
342.69	1478.63
342.90	1470.44
343.12	1542.12
343.33	1568.74
343.54	1542.12
343.75	1540.07
343.96	1519.59
344.17	1517.54
344.38	1474.54
344.60	1495.02
344.81	1484.78
345.02	1585.13
345.23	1529.83
345.44	1652.71
345.65	1540.07
345.86	1550.31
346.07	1474.54
346.29	1445.87
346.50	1634.28
346.71	1552.36
346.92	1591.27
347.13	1673.19
347.34	1406.95
347.55	1542.12
347.76	1576.94
347.98	1460.20
348.19	1552.36
348.40	1507.30
348.61	1548.26
348.82	1507.30
349.03	1566.70
349.24	1519.59
349.45	1638.38
349.66	1497.07
349.88	1597.42
350.09	1478.63
350.30	1578.98
350.51	1611.75
350.72	1601.51
350.93	1568.74
351.14	1542.12
351.35	1538.02
351.56	1548.26
351.77	1501.16
351.99	1503.21
352.20	1583.08
352.41	1601.51
352.62	1404.91
352.83	1552.36
353.04	1542.12
353.25	1501.16
353.46	1560.55
353.67	1556.46
353.88	1492.97
354.09	1585.13
354.30	1513.45
354.52	1597.42
354.73	1495.02
354.94	1421.29
355.15	1470.44
355.36	1624.04
355.57	1531.88
355.78	1617.90
355.99	1607.66
356.20	1521.64
356.41	1597.42
356.62	1546.22
356.83	1535.98
357.04	1595.37
357.25	1468.39
357.46	1533.93
357.68	1509.35
357.89	1464.30
358.10	1595.37
358.31	1525.74
358.52	1535.98
358.73	1507.30
358.94	1538.02
359.15	1513.45
359.36	1495.02
359.57	1538.02
359.78	1521.64
359.99	1554.41
360.20	1531.88
360.41	1554.41
360.62	1544.17
360.83	1638.38
361.04	1474.54
361.25	1542.12
361.46	1624.04
361.67	1542.12
361.88	1593.32
362.09	1560.55
362.30	1529.83
362.51	1509.35
362.72	1538.02
362.93	1548.26
363.14	1609.70
363.35	1519.59
363.56	1523.69
363.78	1581.03
363.99	1513.45
364.20	1499.11
364.41	1619.94
364.62	1542.12
364.83	1533.93
365.04	1488.87
365.25	1486.83
365.46	1540.07
365.67	1554.41
365.88	1523.69
366.09	1533.93
366.30	1562.60
366.51	1583.08
366.72	1472.49
366.93	1509.35
367.14	1503.21
367.35	1531.88
367.56	1511.40
367.77	1619.94
367.98	1564.65
368.18	1531.88
368.39	1576.94
368.60	1521.64
368.81	1581.03
369.02	1515.50
369.23	1531.88
369.44	1513.45
369.65	1499.11
369.86	1533.93
370.07	1636.33
370.28	1519.59
370.49	1593.32
370.70	1583.08
370.91	1464.30
371.12	1470.44
371.33	1564.65
371.54	1609.70
371.75	1708.01
371.96	1411.05
372.17	1490.92
372.38	1538.02
372.59	1558.50
372.80	1449.96
373.01	1515.50
373.22	1503.21
373.43	1533.93
373.64	1419.24
373.85	1576.94
374.06	1595.37
374.26	1599.46
374.47	1574.89
374.68	1624.04
374.89	1568.74
375.10	1501.16
375.31	1576.94
375.52	1529.83
375.73	1535.98
375.94	1527.78
376.15	1640.42
376.36	1468.39
376.57	1452.01
376.78	1542.12
376.99	1542.12
377.20	1548.26
377.40	1501.16
377.61	1585.13
377.82	1472.49
378.03	1521.64
378.24	1525.74
378.45	1535.98
378.66	1570.79
378.87	1517.54
379.08	1460.20
379.29	1533.93
379.50	1589.22
379.71	1542.12
379.91	1613.80
380.12	1531.88
380.33	1488.87
380.54	1587.18
380.75	1554.41
380.96	1525.74
381.17	1624.04
381.38	1607.66
381.59	1578.98
381.80	1652.71
382.00	1568.74
382.21	1593.32
382.42	1681.38
382.63	1714.15
382.84	1607.66
383.05	1669.09
383.26	1601.51
383.47	1576.94
383.68	1581.03
383.88	1587.18
384.09	1560.55
384.30	1673.19
384.51	1492.97
384.72	1540.07
384.93	1458.15
385.14	1523.69
385.35	1587.18
385.55	1503.21
385.76	1566.70
385.97	1519.59
386.18	1521.64
386.39	1515.50
386.60	1583.08
386.81	1572.84
387.02	1490.92
387.22	1568.74
387.43	1572.84
387.64	1609.70
387.85	1886.18
388.06	3117.01
388.27	7284.62
388.48	10528.61
388.68	12580.67
388.89	13897.52
389.10	12840.76
389.31	10254.18
389.52	8802.17
389.73	7888.78
389.93	7214.99
390.14	6764.44
390.35	6197.15
390.56	5523.37
390.77	4706.23
390.98	3600.33
391.18	2824.15
391.39	2144.22
391.60	1808.36
391.81	1658.85
392.02	1523.69
392.23	1701.86
392.43	1658.85
392.64	1595.37
392.85	1521.64
393.06	1699.81
393.27	1497.07
393.47	1552.36
393.68	1665.00
393.89	1535.98
394.10	1607.66
394.31	1470.44
394.52	1548.26
394.72	1519.59
394.93	1624.04
395.14	1542.12
395.35	1576.94
395.56	1587.18
395.76	1685.48
395.97	1757.16
396.18	1738.73
396.39	1734.63
396.60	1912.80
396.80	1740.77
397.01	1728.49
397.22	1652.71
397.43	1656.81
397.64	1535.98
397.84	1634.28
398.05	1710.05
398.26	1599.46
398.47	1601.51
398.67	1636.33
398.88	1566.70
399.09	1542.12
399.30	1439.72
399.51	1535.98
399.71	1466.35
399.92	1535.98
400.13	1505.26
400.34	1492.97
400.54	1558.50
400.75	1570.79
400.96	1538.02
401.17	1578.98
401.37	1529.83
401.58	1548.26
401.79	1535.98
402.00	1728.49
402.21	1896.42
402.41	1908.71
402.62	1953.76
402.83	1894.37
403.04	1738.73
403.24	1861.60
403.45	1665.00
403.66	1667.05
403.87	1626.09
404.07	1751.01
404.28	1699.81
404.49	1783.78
404.70	1632.23
404.90	1640.42
405.11	1562.60
405.32	1558.50
405.52	1527.78
405.73	1597.42
405.94	1527.78
406.15	1533.93
406.35	1527.78
406.56	1535.98
406.77	1554.41
406.98	1554.41
407.18	1626.09
407.39	1605.61
407.60	1470.44
407.80	1572.84
408.01	1490.92
408.22	1552.36
408.43	1544.17
408.63	1599.46
408.84	1601.51
409.05	1630.18
409.25	1550.31
409.46	1495.02
409.67	1515.50
409.88	1607.66
410.08	1550.31
410.29	1578.98
410.50	1619.94
410.70	1591.27
410.91	1531.88
411.12	1509.35
411.32	1525.74
411.53	1562.60
411.74	1603.56
411.95	1568.74
412.15	1605.61
412.36	1609.70
412.57	1583.08
412.77	1624.04
412.98	1513.45
413.19	1581.03
413.39	1599.46
413.60	1617.90
413.81	1572.84
414.01	1535.98
414.22	1574.89
414.43	1589.22
414.63	1558.50
414.84	1605.61
415.05	1486.83
415.25	1517.54
415.46	1484.78
415.67	1558.50
415.87	1583.08
416.08	1572.84
416.29	1542.12
416.49	1566.70
416.70	1527.78
416.91	1542.12
417.11	1544.17
417.32	1568.74
417.53	1605.61
417.73	1542.12
417.94	1538.02
418.15	1439.72
418.35	1556.46
418.56	1574.89
418.77	1603.56
418.97	1542.12
419.18	1513.45
419.38	1484.78
419.59	1497.07
419.80	1609.70
420.00	1566.70
420.21	1566.70
420.42	1558.50
420.62	1542.12
420.83	1517.54
421.04	1533.93
421.24	1544.17
421.45	1566.70
421.65	1570.79
421.86	1513.45
422.07	1519.59
422.27	1566.70
422.48	1501.16
422.69	1540.07
422.89	1503.21
423.10	1462.25
423.30	1511.40
423.51	1556.46
423.72	1603.56
423.92	1529.83
424.13	1560.55
424.33	1533.93
424.54	1560.55
424.75	1546.22
424.95	1662.95
425.16	1601.51
425.36	1470.44
425.57	1613.80
425.78	1566.70
425.98	1624.04
426.19	1509.35
426.39	1552.36
426.60	1531.88
426.81	1597.42
427.01	1521.64
427.22	1476.59
427.42	1495.02
427.63	1544.17
427.83	1624.04
428.04	1652.71
428.25	1576.94
428.45	1603.56
428.66	1564.65
428.86	1431.53
429.07	1509.35
429.28	1558.50
429.48	1490.92
429.69	1531.88
429.89	1605.61
430.10	1533.93
430.30	1540.07
430.51	1675.24
430.71	1521.64
430.92	1599.46
431.13	1495.02
431.33	1564.65
431.54	1570.79
431.74	1587.18
431.95	1630.18
432.15	1525.74
432.36	1544.17
432.56	1519.59
432.77	1603.56
432.98	1615.85
433.18	1599.46
433.39	1507.30
433.59	1507.30
433.80	1660.90
434.00	1578.98
434.21	1492.97
434.41	1562.60
434.62	1695.72
434.82	1533.93
435.03	1452.01
435.23	1486.83
435.44	1482.73
435.64	1550.31
435.85	1540.07
436.06	1535.98
436.26	1589.22
436.47	1560.55
436.67	1544.17
436.88	1552.36
437.08	1552.36
437.29	1654.76
437.49	1638.38
437.70	1574.89
437.90	1546.22
438.11	1669.09
438.31	1697.77
438.52	1783.78
438.72	1736.68
438.93	1695.72
439.13	1636.33
439.34	1646.57
439.54	1634.28
439.75	1644.52
439.95	1636.33
440.16	1513.45
440.36	1603.56
440.57	1550.31
440.77	1607.66
440.98	1587.18
441.18	1540.07
441.39	1548.26
441.59	1456.11
441.80	1615.85
442.00	1568.74
442.21	1599.46
442.41	1546.22
442.62	1533.93
442.82	1458.15
443.02	1521.64
443.23	1581.03
443.43	1499.11
443.64	1605.61
443.84	1509.35
444.05	1529.83
444.25	1560.55
444.46	1513.45
444.66	1677.29
444.87	1552.36
445.07	1466.35
445.28	1538.02
445.48	1636.33
445.69	1578.98
445.89	1665.00
446.09	1708.01
446.30	2058.21
446.50	3192.78
446.71	4358.08
446.91	5259.18
447.12	5885.86
447.32	5699.50
447.53	4691.90
447.73	4106.18
447.93	3708.87
448.14	3282.89
448.34	3213.26
448.55	2953.17
448.75	2928.60
448.96	2772.95
449.16	2449.37
449.36	2312.16
449.57	1972.19
449.77	1699.81
449.98	1656.81
450.18	1585.13
450.39	1665.00
450.59	1558.50
450.79	1482.73
451.00	1566.70
451.20	1523.69
451.41	1503.21
451.61	1570.79
451.81	1546.22
452.02	1486.83
452.22	1568.74
452.43	1495.02
452.63	1527.78
452.84	1562.60
453.04	1544.17
453.24	1472.49
453.45	1478.63
453.65	1511.40
453.86	1556.46
454.06	1591.27
454.26	1591.27
454.47	1525.74
454.67	1593.32
454.87	1558.50
455.08	1548.26
455.28	1644.52
455.49	1540.07
455.69	1460.20
455.89	1630.18
456.10	1525.74
456.30	1568.74
456.51	1570.79
456.71	1533.93
456.91	1533.93
457.12	1542.12
457.32	1548.26
457.52	1521.64
457.73	1554.41
457.93	1595.37
458.14	1492.97
458.34	1445.87
458.54	1456.11
458.75	1558.50
458.95	1605.61
459.15	1566.70
459.36	1593.32
459.56	1599.46
459.76	1753.06
459.97	1556.46
460.17	1513.45
460.37	1617.90
460.58	1509.35
460.78	1535.98
460.99	1562.60
461.19	1544.17
461.39	1513.45
461.60	1447.91
461.80	1585.13
462.00	1468.39
462.21	1566.70
462.41	1443.82
462.61	1480.68
462.82	1484.78
463.02	1570.79
463.22	1554.41
463.43	1613.80
463.63	1581.03
463.83	1572.84
464.04	1581.03
464.24	1613.80
464.44	1562.60
464.64	1505.26
464.85	1574.89
465.05	1523.69
465.25	1611.75
465.46	1492.97
465.66	1544.17
465.86	1574.89
466.07	1624.04
466.27	1568.74
466.47	1411.05
466.68	1478.63
466.88	1589.22
467.08	1538.02
467.29	1662.95
467.49	1630.18
467.69	1544.17
467.89	1538.02
468.10	1505.26
468.30	1583.08
468.50	1652.71
468.71	1626.09
468.91	1495.02
469.11	1632.23
469.31	1542.12
469.52	1488.87
469.72	1595.37
469.92	1656.81
470.13	1652.71
470.33	1509.35
470.53	1736.68
470.73	2086.88
470.94	2377.69
471.14	2422.75
471.34	2609.11
471.54	2543.58
471.75	2242.53
471.95	2066.40
472.15	1953.76
472.36	1902.56
472.56	1964.00
472.76	1927.14
472.96	1904.61
473.17	1796.07
473.37	1824.74
473.57	1695.72
473.77	1658.85
473.98	1613.80
474.18	1591.27
474.38	1701.86
474.58	1560.55
474.79	1454.06
474.99	1574.89
475.19	1591.27
475.39	1464.30
475.60	1552.36
475.80	1486.83
476.00	1517.54
476.20	1488.87
476.41	1599.46
476.61	1574.89
476.81	1566.70
477.01	1464.30
477.21	1632.23
477.42	1619.94
477.62	1513.45
477.82	1540.07
478.02	1535.98
478.23	1470.44
478.43	1533.93
478.63	1382.38
478.83	1615.85
479.03	1478.63
479.24	1533.93
479.44	1624.04
479.64	1529.83
479.84	1548.26
480.04	1515.50
480.25	1583.08
480.45	1466.35
480.65	1527.78
480.85	1570.79
481.06	1540.07
481.26	1566.70
481.46	1576.94
481.66	1665.00
481.86	1507.30
482.06	1566.70
482.27	1593.32
482.47	1562.60
482.67	1546.22
482.87	1572.84
483.07	1591.27
483.28	1552.36
483.48	1449.96
483.68	1562.60
483.88	1490.92
484.08	1507.30
484.29	1523.69
484.49	1560.55
484.69	1474.54
484.89	1568.74
485.09	1636.33
485.29	1538.02
485.50	1525.74
485.70	1568.74
485.90	1597.42
486.10	1540.07
486.30	1593.32
486.50	1445.87
486.71	1560.55
486.91	1587.18
487.11	1601.51
487.31	1535.98
487.51	1542.12
487.71	1558.50
487.91	1484.78
488.12	1558.50
488.32	1382.38
488.52	1480.68
488.72	1413.10
488.92	1535.98
489.12	1628.14
489.32	1611.75
489.53	1591.27
489.73	1523.69
489.93	1552.36
490.13	1531.88
490.33	1345.52
490.53	1601.51
490.73	1615.85
490.94	1490.92
491.14	1648.61
491.34	1740.77
491.54	2097.12
491.74	2695.13
491.94	3160.02
492.14	3215.31
492.34	3286.99
492.54	2834.39
492.75	2502.62
492.95	2435.03
493.15	2303.96
493.35	2150.37
493.55	2138.08
493.75	1964.00
493.95	1984.48
494.15	1990.63
494.35	1880.04
494.56	1738.73
494.76	1681.38
494.96	1656.81
495.16	1712.10
495.36	1587.18
495.56	1566.70
495.76	1538.02
495.96	1531.88
496.16	1431.53
496.36	1576.94
496.56	1613.80
496.77	1581.03
496.97	1499.11
497.17	1490.92
497.37	1468.39
497.57	1617.90
497.77	1519.59
497.97	1509.35
498.17	1523.69
498.37	1601.51
498.57	1617.90
498.77	1419.24
498.97	1511.40
499.17	1562.60
499.38	1552.36
499.58	1558.50
499.78	1613.80
499.98	1642.47
500.18	1499.11
500.38	1642.47
500.58	1697.77
500.78	2662.36
500.98	5078.96
501.18	6764.44
501.38	8130.44
501.58	8728.44
501.78	8017.80
501.98	6068.13
502.18	5384.11
502.38	4734.90
502.58	4181.95
502.78	3923.91
502.98	3796.93
503.18	3635.14
503.38	3338.19
503.59	3028.95
503.79	2818.00
503.99	2605.02
504.19	2291.68
504.39	2183.13
504.59	2074.59
504.79	2090.98
504.99	1908.71
505.19	1775.59
505.39	1755.11
505.59	1765.35
505.79	1814.50
505.99	1685.48
506.19	1601.51
506.39	1669.09
506.59	1570.79
506.79	1568.74
506.99	1710.05
507.19	1626.09
507.39	1687.53
507.59	1490.92
507.79	1533.93
507.99	1443.82
508.19	1566.70
508.39	1570.79
508.59	1556.46
508.79	1665.00
508.99	1550.31
509.19	1540.07
509.39	1578.98
509.59	1437.67
509.79	1486.83
509.99	1492.97
510.19	1648.61
510.39	1568.74
510.59	1576.94
510.79	1574.89
510.99	1591.27
511.19	1538.02
511.39	1605.61
511.59	1648.61
511.79	1624.04
511.99	1574.89
512.19	1572.84
512.38	1601.51
512.58	1497.07
512.78	1583.08
512.98	1644.52
513.18	1654.76
513.38	1499.11
513.58	1626.09
513.78	1566.70
513.98	1597.42
514.18	1538.02
514.38	1495.02
514.58	1495.02
514.78	1511.40
514.98	1505.26
515.18	1531.88
515.38	1468.39
515.58	1642.47
515.78	1605.61
515.98	1572.84
516.18	1566.70
516.38	1505.26
516.57	1476.59
516.77	1515.50
516.97	1570.79
517.17	1566.70
517.37	1441.77
517.57	1521.64
517.77	1554.41
517.97	1583.08
518.17	1519.59
518.37	1456.11
518.57	1486.83
518.77	1511.40
518.97	1540.07
519.16	1538.02
519.36	1619.94
519.56	1527.78
519.76	1591.27
519.96	1578.98
520.16	1636.33
520.36	1488.87
520.56	1632.23
520.76	1490.92
520.96	1519.59
521.16	1558.50
521.35	1525.74
521.55	1566.70
521.75	1482.73
521.95	1538.02
522.15	1492.97
522.35	1445.87
522.55	1443.82
522.75	1617.90
522.95	1497.07
523.14	1484.78
523.34	1609.70
523.54	1550.31
523.74	1562.60
523.94	1554.41
524.14	1495.02
524.34	1662.95
524.54	1624.04
524.73	1464.30
524.93	1564.65
525.13	1605.61
525.33	1505.26
525.53	1673.19
525.73	1505.26
525.93	1507.30
526.13	1548.26
526.32	1501.16
526.52	1572.84
526.72	1515.50
526.92	1585.13
527.12	1550.31
527.32	1476.59
527.52	1542.12
527.71	1576.94
527.91	1515.50
528.11	1556.46
528.31	1546.22
528.51	1478.63
528.71	1529.83
528.90	1589.22
529.10	1501.16
529.30	1669.09
529.50	1441.77
529.70	1560.55
529.90	1486.83
530.09	1503.21
530.29	1507.30
530.49	1519.59
530.69	1570.79
530.89	1544.17
531.09	1542.12
531.28	1529.83
531.48	1632.23
531.68	1531.88
531.88	1480.68
532.08	1615.85
532.28	1554.41
532.47	1599.46
532.67	1574.89
532.87	1554.41
533.07	1544.17
533.27	1638.38
533.46	1603.56
533.66	1593.32
533.86	1548.26
534.06	1587.18
534.26	1542.12
534.45	1486.83
534.65	1560.55
534.85	1495.02
535.05	1558.50
535.25	1591.27
535.44	1542.12
535.64	1652.71
535.84	1509.35
536.04	1585.13
536.24	1527.78
536.43	1562.60
536.63	1546.22
536.83	1562.60
537.03	1521.64
537.22	1464.30
537.42	1413.10
537.62	1484.78
537.82	1564.65
538.02	1597.42
538.21	1564.65
538.41	1662.95
538.61	1568.74
538.81	1531.88
539.00	1554.41
539.20	1460.20
539.40	1542.12
539.60	1632.23
539.79	1517.54
539.99	1523.69
540.19	1542.12
540.39	1529.83
540.58	1550.31
540.78	1558.50
540.98	1523.69
541.18	1562.60
541.37	1576.94
541.57	1568.74
541.77	1634.28
541.97	1439.72
542.16	1441.77
542.36	1544.17
542.56	1591.27
542.76	1650.66
542.95	1538.02
543.15	1611.75
543.35	1570.79
543.54	1517.54
543.74	1472.49
543.94	1581.03
544.14	1531.88
544.33	1619.94
544.53	1517.54
544.73	1574.89
544.93	1507.30
545.12	1560.55
545.32	1591.27
545.52	1548.26
545.71	1505.26
545.91	1505.26
546.11	1523.69
546.30	1495.02
546.50	1546.22
546.70	1581.03
546.90	1576.94
547.09	1527.78
547.29	1533.93
547.49	1560.55
547.68	1544.17
547.88	1513.45
548.08	1617.90
548.27	1920.99
548.47	1515.50
548.67	1570.79
548.87	1523.69
549.06	1517.54
549.26	1550.31
549.46	1476.59
549.65	1531.88
549.85	1558.50
550.05	1656.81
550.24	1484.78
550.44	1578.98
550.64	1521.64
550.83	1589.22
551.03	1601.51
551.23	1548.26
551.42	1570.79
551.62	1611.75
551.82	1515.50
552.01	1478.63
552.21	1646.57
552.41	1538.02
552.60	1634.28
552.80	1615.85
553.00	1511.40
553.19	1495.02
553.39	1636.33
553.59	1505.26
553.78	1517.54
553.98	1562.60
554.17	1499.11
554.37	1531.88
554.57	1583.08
554.76	1495.02
554.96	1562.60
555.16	1595.37
555.35	1546.22
555.55	1566.70
555.75	1538.02
555.94	1593.32
556.14	1513.45
556.33	1591.27
556.53	1521.64
556.73	1501.16
556.92	1505.26
557.12	1726.44
557.32	1601.51
557.51	1589.22
557.71	1552.36
557.90	1624.04
558.10	1619.94
558.30	1484.78
558.49	1585.13
558.69	1603.56
558.88	1570.79
559.08	1495.02
559.28	1552.36
559.47	1519.59
559.67	1521.64
559.86	1656.81
560.06	1531.88
560.26	1472.49
560.45	1550.31
560.65	1558.50
560.84	1613.80
561.04	1593.32
561.24	1591.27
561.43	1511.40
561.63	1585.13
561.82	1519.59
562.02	1527.78
562.22	1454.06
562.41	1509.35
562.61	1533.93
562.80	1507.30
563.00	1640.42
563.19	1562.60
563.39	1527.78
563.59	1595.37
563.78	1556.46
563.98	1439.72
564.17	1501.16
564.37	1447.91
564.56	1546.22
564.76	1503.21
564.96	1550.31
565.15	1490.92
565.35	1648.61
565.54	1501.16
565.74	1660.90
565.93	1521.64
566.13	1540.07
566.32	1587.18
566.52	1538.02
566.71	1556.46
566.91	1656.81
567.11	1585.13
567.30	1576.94
567.50	1484.78
567.69	1570.79
567.89	1578.98
568.08	1466.35
568.28	1550.31
568.47	1501.16
568.67	1578.98
568.86	1556.46
569.06	1583.08
569.25	1552.36
569.45	1497.07
569.64	1542.12
569.84	1595.37
570.04	1587.18
570.23	1456.11
570.43	1538.02
570.62	1562.60
570.82	1603.56
571.01	1480.68
571.21	1558.50
571.40	1523.69
571.60	1615.85
571.79	1572.84
571.99	1546.22
572.18	1519.59
572.38	1521.64
572.57	1531.88
572.77	1611.75
572.96	1662.95
573.16	1568.74
573.35	1517.54
573.55	1540.07
573.74	1593.32
573.94	1566.70
574.13	1523.69
574.33	1624.04
574.52	1624.04
574.71	1607.66
574.91	1583.08
575.10	1488.87
575.30	1505.26
575.49	1488.87
575.69	1533.93
575.88	1646.57
576.08	1548.26
576.27	1609.70
576.47	1587.18
576.66	1701.86
576.86	1669.09
577.05	1593.32
577.25	1699.81
577.44	1703.91
577.64	1554.41
577.83	1607.66
578.02	1548.26
578.22	1642.47
578.41	1546.22
578.61	1503.21
578.80	1523.69
579.00	1533.93
579.19	1490.92
579.39	1587.18
579.58	1574.89
579.77	1574.89
579.97	1673.19
580.16	1734.63
580.36	1714.15
580.55	1681.38
580.75	1556.46
580.94	1505.26
581.13	1628.14
581.33	1632.23
581.52	1581.03
581.72	1658.85
581.91	1656.81
582.11	1597.42
582.30	1601.51
582.49	1634.28
582.69	1708.01
582.88	1638.38
583.08	1554.41
583.27	1595.37
583.47	1595.37
583.66	1601.51
583.85	1552.36
584.05	1570.79
584.24	1634.28
584.44	1560.55
584.63	1656.81
584.82	1642.47
585.02	1634.28
585.21	1783.78
585.41	1701.86
585.60	1685.48
585.79	1847.27
585.99	1839.08
586.18	1789.92
586.37	1982.43
586.57	3225.55
586.76	9559.92
586.96	27666.01
587.15	44240.22
587.34	54410.43
587.54	61348.95
587.73	59632.75
587.93	43558.25
588.12	32114.20
588.31	25910.90
588.51	22195.89
588.70	19930.83
588.89	18343.66
589.09	17082.11
589.28	15253.27
589.47	13311.80
589.67	11143.00
589.86	9017.21
590.06	6610.84
590.25	4943.80
590.44	3782.60
590.64	2901.97
590.83	2424.80
591.02	2058.21
591.22	1884.13
591.41	1728.49
591.60	1742.82
591.80	1722.34
591.99	1630.18
592.18	1566.70
592.38	1642.47
592.57	1605.61
592.76	1681.38
592.96	1642.47
593.15	1517.54
593.34	1650.66
593.54	1564.65
593.73	1642.47
593.92	1632.23
594.12	1542.12
594.31	1648.61
594.50	1673.19
594.70	1634.28
594.89	1751.01
595.08	1521.64
595.28	1589.22
595.47	1681.38
595.66	1578.98
595.86	1511.40
596.05	1454.06
596.24	1591.27
596.43	1624.04
596.63	1574.89
596.82	1546.22
597.01	1587.18
597.21	1626.09
597.40	1619.94
597.59	1613.80
597.79	1636.33
597.98	1576.94
598.17	1626.09
598.36	1566.70
598.56	1624.04
598.75	1542.12
598.94	1558.50
599.14	1601.51
599.33	1587.18
599.52	1654.76
599.71	1492.97
599.91	1562.60
600.10	1542.12
600.29	1552.36
600.48	1521.64
600.68	1560.55
600.87	1538.02
601.06	1468.39
601.26	1570.79
601.45	1546.22
601.64	1601.51
601.83	1630.18
602.03	1519.59
602.22	1476.59
602.41	1583.08
602.60	1746.92
602.80	1533.93
602.99	1544.17
603.18	1591.27
603.37	1570.79
603.57	1574.89
603.76	1595.37
603.95	1509.35
604.14	1568.74
604.34	1572.84
604.53	1533.93
604.72	1593.32
604.91	1542.12
605.10	1519.59
605.30	1464.30
605.49	1601.51
605.68	1634.28
605.87	1642.47
606.07	1589.22
606.26	1587.18
606.45	1568.74
606.64	1558.50
606.84	1501.16
607.03	1589.22
607.22	1611.75
607.41	1531.88
607.60	1617.90
607.80	1624.04
607.99	1554.41
608.18	1527.78
608.37	1619.94
608.56	1552.36
608.76	1617.90
608.95	1669.09
609.14	1564.65
609.33	1597.42
609.52	1722.34
609.72	1660.90
609.91	1624.04
610.10	1691.62
610.29	1626.09
610.48	1746.92
610.68	1550.31
610.87	1609.70
611.06	1605.61
611.25	1517.54
611.44	1578.98
611.63	1517.54
611.83	1638.38
612.02	1560.55
612.21	1624.04
612.40	1437.67
612.59	1538.02
612.79	1542.12
612.98	1501.16
613.17	1615.85
613.36	1632.23
613.55	1755.11
613.74	1552.36
613.93	1675.24
614.13	1689.57
614.32	1800.16
614.51	1794.02
614.70	1697.77
614.89	1665.00
615.08	1675.24
615.28	1828.84
615.47	1482.73
615.66	1652.71
615.85	1605.61
616.04	1634.28
616.23	1665.00
616.42	1634.28
616.62	1554.41
616.81	1646.57
617.00	1572.84
617.19	1503.21
617.38	1595.37
617.57	1589.22
617.76	1550.31
617.95	1597.42
618.15	1535.98
618.34	1583.08
618.53	1421.29
618.72	1613.80
618.91	1605.61
619.10	1548.26
619.29	1529.83
619.48	1593.32
619.68	1593.32
619.87	1533.93
620.06	1437.67
620.25	1589.22
620.44	1519.59
620.63	1531.88
620.82	1540.07
621.01	1572.84
621.20	1486.83
621.39	1511.40
621.59	1566.70
621.78	1621.99
621.97	1548.26
622.16	1630.18
622.35	1558.50
622.54	1665.00
622.73	1560.55
622.92	1505.26
623.11	1568.74
623.30	1521.64
623.49	1533.93
623.68	1533.93
623.88	1556.46
624.07	1542.12
624.26	1540.07
624.45	1605.61
624.64	1515.50
624.83	1558.50
625.02	1624.04
625.21	1525.74
625.40	1495.02
625.59	1566.70
625.78	1542.12
625.97	1566.70
626.16	1621.99
626.35	1714.15
626.54	1617.90
626.74	1689.57
626.93	1578.98
627.12	1533.93
627.31	1632.23
627.50	1607.66
627.69	1689.57
627.88	1525.74
628.07	1564.65
628.26	1533.93
628.45	1570.79
628.64	1533.93
628.83	1540.07
629.02	1503.21
629.21	1568.74
629.40	1497.07
629.59	1572.84
629.78	1568.74
629.97	1540.07
630.16	1646.57
630.35	1470.44
630.54	1599.46
630.73	1513.45
630.92	1507.30
631.11	1515.50
631.30	1513.45
631.49	1517.54
631.68	1490.92
631.87	1566.70
632.06	1517.54
632.25	1673.19
632.44	1523.69
632.63	1583.08
632.82	1558.50
633.01	1648.61
633.20	1677.29
633.39	1601.51
633.58	1572.84
633.77	1642.47
633.96	1679.33
634.15	1628.14
634.34	1611.75
634.53	1568.74
634.72	1556.46
634.91	1501.16
635.10	1587.18
635.29	1607.66
635.48	1550.31
635.67	1513.45
635.86	1548.26
636.05	1640.42
636.24	1609.70
636.43	1552.36
636.62	1560.55
636.81	1468.39
637.00	1583.08
637.19	1570.79
637.38	1456.11
637.57	1472.49
637.76	1587.18
637.95	1646.57
638.14	1656.81
638.33	1566.70
638.52	1576.94
638.71	1585.13
638.89	1515.50
639.08	1652.71
639.27	1691.62
639.46	1714.15
639.65	2009.06
639.84	1996.77
640.03	2203.61
640.22	2162.66
640.41	2258.91
640.60	1943.52
640.79	1918.95
640.98	1771.49
641.17	1683.43
641.36	1748.97
641.55	1761.25
641.74	1646.57
641.92	1589.22
642.11	1681.38
642.30	1554.41
642.49	1538.02
642.68	1527.78
642.87	1495.02
643.06	1507.30
643.25	1544.17
643.44	1452.01
643.63	1542.12
643.82	1566.70
644.00	1505.26
644.19	1593.32
644.38	1466.35
644.57	1552.36
644.76	1527.78
644.95	1564.65
645.14	1544.17
645.33	1499.11
645.52	1558.50
645.71	1488.87
645.89	1503.21
646.08	1542.12
646.27	1503.21
646.46	1568.74
646.65	1456.11
646.84	1523.69
647.03	1492.97
647.22	1552.36
647.40	1505.26
647.59	1495.02
647.78	1515.50
647.97	1495.02
648.16	1540.07
648.35	1572.84
648.54	1638.38
648.73	1527.78
648.91	1587.18
649.10	1511.40
649.29	1558.50
649.48	1535.98
649.67	1583.08
649.86	1628.14
650.05	1665.00
650.23	1710.05
650.42	1714.15
650.61	1732.58
650.80	1742.82
650.99	1734.63
651.18	1648.61
651.36	1574.89
651.55	1650.66
651.74	1689.57
651.93	1562.60
652.12	1517.54
652.31	1533.93
652.49	1525.74
652.68	1511.40
652.87	1599.46
653.06	1576.94
653.25	1665.00
653.44	1624.04
653.62	1521.64
653.81	1552.36
654.00	1558.50
654.19	1576.94
654.38	1691.62
654.56	1611.75
654.75	1538.02
654.94	1544.17
655.13	1587.18
655.32	1527.78
655.51	1585.13
655.69	1574.89
655.88	1560.55
656.07	1519.59
656.26	1583.08
656.45	1492.97
656.63	1523.69
656.82	1525.74
657.01	1585.13
657.20	1482.73
657.38	1652.71
657.57	1568.74
657.76	1484.78
657.95	1538.02
658.14	1519.59
658.32	1552.36
658.51	1480.68
658.70	1517.54
658.89	1556.46
659.08	1550.31
659.26	1632.23
659.45	1560.55
659.64	1638.38
659.83	1654.76
660.01	1800.16
660.20	1597.42
660.39	1652.71
660.58	1456.11
660.76	1669.09
660.95	1460.20
661.14	1495.02
661.33	1482.73
661.51	1525.74
661.70	1531.88
661.89	1574.89
662.08	1486.83
662.26	1490.92
662.45	1511.40
662.64	1669.09
662.83	1593.32
663.01	1501.16
663.20	1492.97
663.39	1595.37
663.58	1486.83
663.76	1462.25
663.95	1501.16
664.14	1533.93
664.32	1480.68
664.51	1540.07
664.70	1509.35
664.89	1550.31
665.07	1564.65
665.26	1593.32
665.45	1449.96
665.64	1578.98
665.82	1507.30
666.01	1603.56
666.20	1542.12
666.38	1621.99
666.57	1652.71
666.76	1773.54
666.95	2942.93
667.13	7577.48
667.32	15486.74
667.51	20293.32
667.69	23348.89
667.88	25015.94
668.07	22222.51
668.25	15433.49
668.44	12543.81
668.63	10159.97
668.81	8605.56
669.00	7704.46
669.19	6932.37
669.38	6430.62
669.56	5615.53
669.75	4833.21
669.94	4132.80
670.12	3352.52
670.31	2873.30
670.50	2424.80
670.68	2162.66
670.87	1880.04
671.06	1736.68
671.24	1697.77
671.43	1738.73
671.62	1714.15
671.80	1691.62
671.99	1691.62
672.18	1619.94
672.36	1597.42
672.55	1576.94
672.74	1533.93
672.92	1538.02
673.11	1562.60
673.29	1585.13
673.48	1554.41
673.67	1495.02
673.85	1613.80
674.04	1521.64
674.23	1564.65
674.41	1572.84
674.60	1529.83
674.79	1396.71
674.97	1501.16
675.16	1554.41
675.34	1468.39
675.53	1497.07
675.72	1556.46
675.90	1570.79
676.09	1531.88
676.28	1605.61
676.46	1568.74
676.65	1609.70
676.83	1429.48
677.02	1533.93
677.21	1585.13
677.39	1519.59
677.58	1519.59
677.77	1585.13
677.95	1529.83
678.14	1523.69
678.32	1535.98
678.51	1521.64
678.70	1640.42
678.88	1509.35
679.07	1603.56
679.25	1552.36
679.44	1552.36
679.63	1460.20
679.81	1521.64
680.00	1603.56
680.18	1566.70
680.37	1634.28
680.55	1476.59
680.74	1472.49
680.93	1482.73
681.11	1550.31
681.30	1583.08
681.48	1562.60
681.67	1421.29
681.85	1505.26
682.04	1501.16
682.23	1617.90
682.41	1495.02
682.60	1484.78
682.78	1560.55
682.97	1519.59
683.15	1558.50
683.34	1443.82
683.53	1597.42
683.71	1488.87
683.90	1675.24
684.08	1611.75
684.27	1564.65
684.45	1585.13
684.64	1658.85
684.82	1523.69
685.01	1533.93
685.19	1458.15
685.38	1628.14
685.57	1644.52
685.75	1423.34
685.94	1439.72
686.12	1501.16
686.31	1484.78
686.49	1599.46
686.68	1421.29
686.86	1603.56
687.05	1476.59
687.23	1613.80
687.42	1499.11
687.60	1460.20
687.79	1527.78
687.97	1611.75
688.16	1527.78
688.34	1611.75
688.53	1429.48
688.71	1583.08
688.90	1556.46
689.08	1525.74
689.27	1540.07
689.45	1576.94
689.64	1576.94
689.82	1572.84
690.01	1515.50
690.19	1466.35
690.38	1540.07
690.56	1665.00
690.75	1511.40
690.93	1509.35
691.12	1542.12
691.30	1562.60
691.49	1505.26
691.67	1533.93
691.86	1517.54
692.04	1521.64
692.23	1462.25
692.41	1597.42
692.60	1644.52
692.78	1691.62
692.97	1562.60
693.15	1630.18
693.34	1689.57
693.52	1621.99
693.71	1593.32
693.89	1540.07
694.08	1525.74
694.26	1578.98
694.44	1619.94
694.63	1560.55
694.81	1531.88
695.00	1468.39
695.18	1564.65
695.37	1566.70
695.55	1542.12
695.74	1507.30
695.92	1523.69
696.10	1525.74
696.29	1486.83
696.47	1495.02
696.66	1458.15
696.84	1519.59
697.03	1441.77
697.21	1679.33
697.40	2031.58
697.58	1509.35
697.76	1497.07
697.95	1542.12
698.13	1478.63
698.32	1535.98
698.50	1621.99
698.68	1556.46
698.87	1548.26
699.05	1628.14
699.24	1507.30
699.42	1548.26
699.61	1501.16
699.79	1538.02
699.97	1527.78
700.16	1550.31
700.34	1476.59
700.53	1576.94
700.71	1605.61
700.89	1660.90
701.08	1525.74
701.26	1566.70
701.45	1927.14
701.63	1501.16
701.81	1568.74
702.00	1495.02
702.18	1540.07
702.37	1574.89
702.55	1621.99
702.73	1722.34
702.92	1722.34
703.10	1773.54
703.28	1818.60
703.47	1691.62
703.65	1794.02
703.84	1714.15
704.02	1587.18
704.20	1751.01
704.39	1626.09
704.57	1615.85
704.75	1638.38
704.94	1687.53
705.12	1652.71
705.30	1732.58
705.49	1765.35
705.67	2854.87
705.86	7288.72
706.04	14470.95
706.22	18847.46
706.41	21857.97
706.59	22552.23
706.77	20924.10
706.96	14663.46
707.14	11646.80
707.32	9748.33
707.51	8578.94
707.69	7620.49
707.87	6834.07
708.06	5838.76
708.24	4814.77
708.42	3641.29
708.61	3010.51
708.79	2250.72
708.97	2041.82
709.16	1771.49
709.34	1730.53
709.52	1656.81
709.71	1691.62
709.89	1650.66
710.07	1540.07
710.26	1476.59
710.44	1605.61
710.62	1615.85
710.80	1542.12
710.99	1646.57
711.17	1652.71
711.35	1581.03
711.54	1529.83
711.72	1681.38
711.90	1552.36
712.09	1558.50
712.27	1523.69
712.45	1603.56
712.63	1566.70
712.82	1548.26
713.00	1509.35
713.18	1585.13
713.37	1521.64
713.55	1601.51
713.73	1521.64
713.91	1576.94
714.10	1513.45
714.28	1505.26
714.46	1554.41
714.65	1591.27
714.83	1550.31
715.01	1507.30
715.19	1533.93
715.38	1421.29
715.56	1525.74
715.74	1488.87
715.92	1511.40
716.11	1630.18
716.29	1544.17
716.47	1593.32
716.65	1458.15
716.84	1480.68
717.02	1570.79
717.20	1511.40
717.38	1513.45
717.57	1568.74
717.75	1632.23
717.93	1456.11
718.11	1550.31
718.30	1478.63
718.48	1470.44
718.66	1599.46
718.84	1581.03
719.03	1601.51
719.21	1562.60
719.39	1607.66
719.57	1609.70
719.75	1621.99
719.94	1529.83
720.12	1443.82
720.30	1492.97
720.48	1544.17
720.67	1472.49
720.85	1574.89
721.03	1531.88
721.21	1538.02
721.39	1597.42
721.58	1507.30
721.76	1599.46
721.94	1556.46
722.12	1570.79
722.30	1556.46
722.49	1550.31
722.67	1548.26
722.85	1544.17
723.03	1386.47
723.21	1511.40
723.40	1581.03
723.58	1597.42
723.76	1652.71
723.94	1585.13
724.12	1603.56
724.30	1671.14
724.49	1724.39
724.67	1544.17
724.85	1648.61
725.03	1568.74
725.21	1591.27
725.40	1681.38
725.58	1484.78
725.76	1570.79
725.94	1509.35
726.12	1480.68
726.30	1499.11
726.49	1527.78
726.67	1566.70
726.85	1607.66
727.03	1581.03
727.21	1607.66
727.39	2127.84
727.57	3344.33
727.76	4261.82
727.94	4726.71
728.12	5019.57
728.30	5083.06
728.48	4306.88
728.66	3508.17
728.84	3258.32
729.03	2836.44
729.21	2664.41
729.39	2295.77
729.57	2017.25
729.75	1900.52
729.93	1763.30
730.11	1607.66
730.30	1642.47
730.48	1593.32
730.66	1654.76
730.84	1587.18
731.02	1476.59
731.20	1558.50
731.38	1535.98
731.56	1476.59
731.74	1529.83
731.93	1615.85
732.11	1578.98
732.29	1452.01
732.47	1562.60
732.65	1595.37
732.83	1581.03
733.01	1527.78
733.19	1464.30
733.37	1544.17
733.56	1603.56
733.74	1576.94
733.92	1597.42
734.10	1499.11
734.28	1621.99
734.46	1468.39
734.64	1486.83
734.82	1519.59
735.00	1433.58
735.18	1613.80
735.36	1603.56
735.54	1542.12
735.73	1548.26
735.91	1568.74
736.09	1562.60
736.27	1511.40
736.45	1599.46
736.63	1454.06
736.81	1544.17
736.99	1535.98
737.17	1607.66
737.35	1558.50
737.53	1529.83
737.71	1542.12
737.89	1669.09
738.07	1503.21
738.25	1515.50
738.43	1458.15
738.61	1599.46
738.80	1445.87
738.98	1509.35
739.16	1529.83
739.34	1525.74
739.52	1542.12
739.70	1538.02
739.88	1554.41
740.06	1599.46
740.24	1515.50
740.42	1595.37
740.60	1431.53
740.78	1544.17
740.96	1550.31
741.14	1488.87
741.32	1562.60
741.50	1535.98
741.68	1595.37
741.86	1535.98
742.04	1468.39
742.22	1497.07
742.40	1591.27
742.58	1521.64
742.76	1454.06
742.94	1564.65
743.12	1486.83
743.30	1515.50
743.48	1447.91
743.66	1519.59
743.84	1576.94
744.02	1583.08
744.20	1542.12
744.38	1495.02
744.56	1560.55
744.74	1617.90
744.92	1566.70
745.10	1675.24
745.28	1568.74
745.46	1632.23
745.64	1566.70
745.82	1560.55
746.00	1560.55
746.18	1566.70
746.36	1478.63
746.54	1558.50
746.72	1546.22
746.90	1519.59
747.08	1611.75
747.26	1462.25
747.44	1597.42
747.62	1566.70
747.80	1511.40
747.98	1538.02
748.15	1478.63
748.33	1544.17
748.51	1458.15
748.69	1617.90
748.87	1552.36
749.05	1533.93
749.23	1554.41
749.41	1624.04
749.59	1554.41
749.77	1564.65
749.95	1570.79
750.13	1482.73
750.31	1609.70
750.49	1544.17
750.67	1574.89
750.85	1632.23
751.03	1550.31
751.20	1568.74
751.38	1533.93
751.56	1507.30
751.74	1554.41
751.92	1544.17
752.10	1499.11
752.28	1566.70
752.46	1525.74
752.64	1626.09
752.82	1576.94
753.00	1550.31
753.18	1511.40
753.35	1581.03
753.53	1544.17
753.71	1503.21
753.89	1621.99
754.07	1497.07
754.25	1552.36
754.43	1519.59
754.61	1615.85
754.79	1601.51
754.97	1511.40
755.14	1552.36
755.32	1445.87
755.50	1527.78
755.68	1628.14
755.86	1495.02
756.04	1437.67
756.22	1560.55
756.40	1568.74
756.57	1660.90
756.75	1552.36
756.93	1607.66
757.11	1497.07
757.29	1540.07
757.47	1470.44
757.65	1431.53
757.82	1447.91
758.00	1468.39
758.18	1560.55
758.36	1593.32
758.54	1581.03
758.72	1445.87
758.90	1599.46
759.07	1542.12
759.25	1542.12
759.43	1495.02
759.61	1517.54
759.79	1945.57
759.97	1546.22
760.15	1513.45
760.32	1517.54
760.50	1509.35
760.68	1646.57
760.86	1505.26
761.04	1599.46
761.22	1523.69
761.39	1482.73
761.57	1513.45
761.75	1535.98
761.93	1523.69
762.11	1388.52
762.28	1529.83
762.46	1548.26
762.64	1621.99
762.82	1566.70
763.00	1533.93
763.18	1619.94
763.35	1484.78
763.53	1589.22
763.71	1515.50
763.89	1501.16
764.07	1576.94
764.24	1595.37
764.42	1585.13
764.60	1554.41
764.78	1562.60
764.96	1560.55
765.13	1501.16
765.31	1574.89
765.49	1585.13
765.67	1484.78
765.84	1529.83
766.02	1490.92
766.20	1519.59
766.38	1550.31
766.56	1593.32
766.73	1568.74
766.91	1548.26
767.09	1527.78
767.27	1556.46
767.44	1480.68
767.62	1585.13
767.80	1540.07
767.98	1509.35
768.15	1497.07
768.33	1507.30
768.51	1603.56
768.69	1529.83
768.87	1589.22
769.04	1538.02
769.22	1615.85
769.40	1554.41
769.58	1634.28
769.75	1509.35
769.93	1595.37
770.11	1554.41
770.28	1456.11
770.46	1570.79
770.64	1521.64
770.82	1476.59
770.99	1523.69
771.17	1527.78
771.35	1556.46
771.53	1538.02
771.70	1517.54
771.88	1499.11
772.06	1509.35
772.23	1486.83
772.41	1484.78
772.59	1525.74
772.77	1492.97
772.94	1509.35
773.12	1513.45
773.30	1501.16
773.47	1589.22
773.65	1474.54
773.83	1607.66
774.01	1527.78
774.18	1478.63
774.36	1566.70
774.54	1445.87
774.71	1560.55
774.89	1497.07
775.07	1513.45
775.24	1533.93
775.42	1486.83
775.60	1595.37
775.78	1476.59
775.95	1484.78
776.13	1550.31
776.31	1470.44
776.48	1546.22
776.66	1599.46
776.84	1460.20
777.01	1509.35
777.19	1503.21
777.37	1427.43
777.54	1562.60
777.72	1589.22
777.90	1540.07
778.07	1470.44
778.25	1730.53
778.43	1607.66
778.60	1517.54
778.78	1583.08
778.96	1619.94
779.13	1429.48
779.31	1599.46
779.49	1548.26
779.66	1554.41
779.84	1566.70
780.01	1517.54
780.19	1488.87
780.37	1544.17
780.54	1525.74
780.72	1515.50
780.90	1499.11
781.07	1519.59
781.25	1468.39
781.43	1583.08
781.60	1538.02
781.78	1589.22
781.95	1558.50
782.13	1550.31
782.31	1554.41
782.48	1431.53
782.66	1560.55
782.83	1531.88
783.01	1601.51
783.19	1533.93
783.36	1538.02
783.54	1529.83
783.72	1591.27
783.89	1595.37
784.07	1503.21
784.24	1507.30
784.42	1535.98
784.60	1574.89
784.77	1509.35
784.95	1421.29
785.12	1425.39
785.30	1509.35
785.47	1527.78
785.65	1562.60
785.83	1570.79
786.00	1470.44
786.18	1495.02
786.35	1492.97
786.53	1544.17
786.71	1562.60
786.88	1556.46
787.06	1523.69
787.23	1523.69
787.41	1503.21
787.58	1480.68
787.76	1470.44
787.94	1564.65
788.11	1501.16
788.29	1554.41
788.46	1519.59
788.64	1476.59
788.81	1581.03
788.99	1460.20
789.16	1503.21
789.34	1486.83
789.52	1531.88
789.69	1466.35
789.87	1386.47
790.04	1566.70
790.22	1511.40
790.39	1583.08
790.57	1476.59
790.74	1509.35
790.92	1621.99
791.09	1488.87
791.27	1501.16
791.44	1550.31
791.62	1472.49
791.79	1521.64
791.97	1519.59
792.15	1705.96
792.32	1562.60
792.50	1533.93
792.67	1593.32
792.85	1578.98
793.02	1533.93
793.20	1535.98
793.37	1486.83
793.55	1523.69
793.72	1480.68
793.90	1535.98
794.07	1488.87
794.25	1495.02
794.42	1480.68
794.60	1550.31
794.77	1509.35
794.95	1527.78
795.12	1542.12
795.30	1505.26
795.47	1556.46
795.65	1683.43
795.82	1519.59
796.00	1497.07
796.17	1562.60
796.34	1445.87
796.52	1472.49
796.69	1535.98
796.87	1533.93
797.04	1511.40
797.22	1525.74
797.39	1517.54
797.57	1609.70
797.74	1544.17
797.92	1626.09
798.09	1546.22
798.27	1560.55
798.44	1523.69
798.62	1538.02
798.79	1511.40
798.96	1523.69
799.14	1484.78
799.31	1554.41
799.49	1587.18
799.66	1511.40
799.84	1572.84
800.01	1505.26
800.19	1529.83
800.36	1521.64
800.53	1597.42
800.71	1570.79
800.88	1642.47
801.06	1544.17
801.23	1519.59
801.41	1511.40
801.58	1501.16
801.75	1595.37
801.93	1544.17
802.10	1515.50
802.28	1517.54
802.45	1476.59
802.63	1566.70
802.80	1607.66
802.97	1578.98
803.15	1566.70
803.32	1581.03
803.50	1517.54
803.67	1509.35
803.84	1466.35
804.02	1552.36
804.19	1552.36
804.37	1433.58
804.54	1462.25
804.71	1517.54
804.89	1542.12
805.06	1492.97
805.24	1458.15
805.41	1503.21
805.58	1503.21
805.76	1691.62
805.93	1515.50
806.10	1535.98
806.28	1568.74
806.45	1578.98
806.63	1572.84
806.80	1591.27
806.97	1576.94
807.15	1593.32
807.32	1572.84
807.49	1517.54
807.67	1427.43
807.84	1570.79
808.01	1484.78
808.19	1607.66
808.36	1697.77
808.54	1505.26
808.71	1527.78
808.88	1529.83
809.06	1558.50
809.23	1585.13
809.40	1454.06
809.58	1568.74
809.75	1486.83
809.92	1488.87
810.10	1697.77
810.27	1511.40
810.44	1599.46
810.62	1589.22
810.79	1497.07
810.96	1531.88
811.14	1519.59
811.31	1497.07
811.48	1480.68
811.66	1505.26
811.83	1542.12
812.00	1552.36
812.18	1587.18
812.35	1650.66
812.52	1490.92
812.69	1554.41
812.87	1497.07
813.04	1501.16
813.21	1535.98
813.39	1492.97
813.56	1501.16
813.73	1533.93
813.91	1468.39
814.08	1501.16
814.25	1544.17
814.42	1433.58
814.60	1449.96
814.77	1544.17
814.94	1593.32
815.12	1511.40
815.29	1560.55
815.46	1542.12
815.63	1513.45
815.81	1597.42
815.98	1484.78
816.15	1535.98
816.33	1560.55
816.50	1558.50
816.67	1515.50
816.84	1513.45
817.02	1513.45
817.19	1501.16
817.36	1562.60
817.53	1570.79
817.71	1509.35
817.88	1540.07
818.05	1511.40
818.22	1523.69
818.40	1642.47
818.57	1490.92
818.74	1615.85
818.91	1525.74
819.09	1525.74
819.26	1531.88
819.43	1513.45
819.60	1470.44
819.78	1497.07
819.95	1605.61
820.12	1507.30
820.29	1601.51
820.47	1566.70
820.64	1492.97
820.81	1490.92
820.98	1495.02
821.15	1492.97
821.33	1554.41
821.50	1425.39
821.67	1544.17
821.84	1599.46
822.02	1601.51
822.19	1533.93
822.36	1562.60
822.53	1478.63
822.70	1517.54
822.88	1472.49
823.05	1548.26
823.22	1519.59
823.39	1550.31
823.56	1439.72
823.74	1564.65
823.91	1435.63
824.08	1460.20
824.25	1513.45
824.42	1595.37
824.60	1499.11
824.77	1603.56
824.94	1511.40
825.11	1544.17
825.28	1445.87
825.45	1550.31
825.63	1517.54
825.80	1472.49
825.97	1445.87
826.14	1583.08
826.31	1511.40
826.48	1595.37
826.66	1470.44
826.83	1535.98
827.00	1497.07
827.17	1519.59
827.34	1550.31
827.51	1464.30
827.69	1556.46
827.86	1513.45
828.03	1523.69
828.20	1529.83
828.37	1480.68
828.54	1482.73
828.71	1548.26
828.89	1587.18
829.06	1540.07
829.23	1626.09
829.40	1509.35
829.57	1445.87
829.74	1603.56
829.91	1554.41
830.09	1386.47
830.26	1521.64
830.43	1552.36
830.60	1484.78
830.77	1454.06
830.94	1525.74
831.11	1613.80
831.28	1495.02
831.46	1517.54
831.63	1501.16
831.80	1581.03
831.97	1511.40
832.14	1499.11
832.31	1585.13
832.48	1505.26
832.65	1523.69
832.82	1540.07
832.99	1552.36
833.17	1470.44
833.34	1566.70
833.51	1583.08
833.68	1466.35
833.85	1564.65
834.02	1562.60
834.19	1431.53
834.36	1513.45
834.53	1574.89
834.70	1667.05
834.87	1621.99
835.04	1535.98
835.22	1517.54
835.39	1574.89
835.56	1472.49
835.73	1574.89
835.90	1492.97
836.07	1521.64
836.24	1562.60
836.41	1525.74
836.58	1617.90
836.75	1550.31
836.92	1578.98
837.09	1558.50
837.26	1564.65
837.43	1544.17
837.60	1554.41
837.77	1535.98
837.94	1578.98
838.12	1615.85
838.29	1626.09
838.46	1445.87
838.63	1484.78
838.80	1654.76
838.97	1578.98
839.14	1636.33
839.31	1587.18
839.48	1550.31
839.65	1519.59
839.82	1640.42
839.99	1585.13
840.16	1503.21
840.33	1460.20
840.50	1583.08
840.67	1486.83
840.84	1439.72
841.01	1501.16
841.18	1521.64
841.35	1466.35
841.52	1583.08
841.69	1591.27
841.86	1527.78
842.03	1566.70
842.20	1591.27
842.37	1486.83
842.54	1497.07
842.71	1527.78
842.88	1507.30
843.05	1544.17
843.22	1574.89
843.39	1540.07
843.56	1581.03
843.73	1529.83
843.90	1554.41
844.07	1562.60
844.24	1499.11
844.41	1525.74
844.58	1468.39
844.75	1538.02
844.92	1593.32
845.09	1533.93
845.26	1495.02
845.43	1599.46
845.60	1542.12
845.77	1587.18
845.94	1533.93
846.10	1509.35
846.27	1466.35
846.44	1488.87
846.61	1501.16
846.78	1546.22
846.95	1550.31
847.12	1488.87
847.29	1468.39
847.46	1503.21
847.63	1581.03
847.80	1468.39
847.97	1476.59
848.14	1644.52
848.31	1542.12
848.48	1540.07
848.65	1605.61
848.82	1456.11
848.98	1660.90
849.15	1507.30
849.32	1601.51
849.49	1521.64
849.66	1521.64
849.83	1478.63
850.00	1519.59
850.17	1521.64
850.34	1574.89
850.51	1492.97
850.68	1437.67
850.85	1638.38
851.01	1562.60
851.18	1527.78
851.35	1515.50
851.52	1546.22
851.69	1642.47
851.86	1425.39
852.03	1535.98
852.20	1568.74
852.37	1521.64
852.53	1497.07
852.70	1490.92
852.87	1562.60
853.04	1560.55
853.21	1511.40
853.38	1615.85
853.55	1603.56
853.72	1617.90
853.89	1490.92
854.05	1476.59
854.22	1501.16
854.39	1587.18
854.56	1519.59
854.73	1572.84
854.90	1482.73
855.07	1495.02
855.23	1540.07
855.40	1501.16
855.57	1443.82
855.74	1480.68
855.91	1630.18
856.08	1511.40
856.25	1499.11
856.41	1484.78
856.58	1435.63
856.75	1550.31
856.92	1531.88
857.09	1628.14
857.26	1515.50
857.42	1478.63
857.59	1511.40
857.76	1511.40
857.93	1523.69
858.10	1605.61
858.27	1472.49
858.43	1564.65
858.60	1525.74
858.77	1435.63
858.94	1583.08
859.11	1591.27
859.27	1495.02
859.44	1562.60
859.61	1589.22
859.78	1617.90
859.95	1495.02
860.12	1503.21
860.28	1632.23
860.45	1619.94
860.62	1439.72
860.79	1544.17
860.95	1538.02
861.12	1482.73
861.29	1497.07
861.46	1474.54
861.63	1605.61
861.79	1542.12
861.96	1492.97
862.13	1544.17
862.30	1601.51
862.47	1501.16
862.63	1515.50
862.80	1562.60
862.97	1611.75
863.14	1544.17
863.30	1628.14
863.47	1544.17
863.64	1525.74
863.81	1589.22
863.97	1542.12
864.14	1642.47
864.31	1488.87
864.48	1523.69
864.65	1595.37
864.81	1621.99
864.98	1630.18
865.15	1568.74
865.32	1509.35
865.48	1492.97
865.65	1572.84
865.82	1492.97
865.98	1490.92
866.15	1658.85
866.32	1501.16
866.49	1503.21
866.65	1617.90
866.82	1464.30
866.99	1540.07
867.16	1515.50
867.32	1447.91
867.49	1505.26
867.66	1413.10
867.83	1445.87
867.99	1429.48
868.16	1523.69
868.33	1503.21
868.49	1570.79
868.66	1507.30
868.83	1574.89
868.99	1542.12
869.16	1566.70
869.33	1566.70
869.50	1531.88
869.66	1482.73
869.83	1472.49
870.00	1556.46
870.16	1564.65
870.33	1540.07
870.50	1521.64
870.66	1556.46
870.83	1624.04
871.00	1474.54
871.17	1589.22
871.33	1497.07
871.50	1564.65
871.67	1554.41
871.83	1484.78
872.00	1671.14
872.17	1540.07
872.33	1660.90
872.50	1556.46
872.67	1468.39
872.83	1478.63
873.00	1513.45
873.17	1509.35
873.33	1552.36
873.50	1527.78
873.67	1533.93
873.83	1484.78
874.00	1535.98
874.16	1554.41
874.33	1560.55
874.50	1464.30
874.66	1617.90
874.83	1490.92
875.00	1587.18
875.16	1607.66
875.33	1589.22
875.50	1406.95
875.66	1517.54
875.83	1492.97
875.99	1624.04
876.16	1517.54
876.33	1468.39
876.49	1593.32
876.66	1484.78
876.83	1499.11
876.99	1435.63
877.16	1509.35
877.32	1517.54
877.49	1501.16
877.66	1560.55
877.82	1597.42
877.99	1519.59
878.15	1597.42
878.32	1566.70
878.49	1503.21
878.65	1568.74
878.82	1583.08
878.98	1515.50
879.15	1585.13
879.32	1615.85
879.48	1593.32
879.65	1562.60
879.81	1554.41
879.98	1546.22
880.15	1527.78
880.31	1470.44
880.48	1486.83
880.64	1603.56
880.81	1613.80
880.97	1636.33
881.14	1568.74
881.31	1468.39
881.47	1679.33
881.64	1529.83
881.80	1542.12
881.97	1492.97
882.13	1648.61
882.30	1501.16
882.47	1564.65
882.63	1427.43
882.80	1468.39
882.96	1603.56
883.13	1601.51
883.29	1492.97
883.46	1615.85
883.62	1621.99
883.79	1527.78
883.95	1529.83
884.12	1488.87
884.29	1609.70
884.45	1560.55
884.62	1533.93
884.78	1535.98
884.95	1626.09
885.11	1519.59
885.28	1529.83
885.44	1488.87
885.61	1505.26
885.77	1587.18
885.94	1544.17
886.10	1591.27
886.27	1560.55
886.43	1552.36
886.60	1523.69
886.76	1529.83
886.93	1486.83
887.09	1607.66
887.26	1447.91
887.42	1497.07
887.59	1550.31
887.75	1628.14
887.92	1535.98
888.08	1556.46
888.25	1560.55
888.41	1587.18
888.58	1499.11
888.74	1523.69
888.91	1402.86
>>>>>End Processed Spectral Data<<<<<
