SpectraSuite Data File
++++++++++++++++++++++++++++++++++++
Date: Tue May 03 12:55:32 CEST 2016
User: root
Dark Spectrum Present: No
Reference Spectrum Present: No
Number of Sampled Component Spectra: 1
Spectrometers: USB4C02835
Integration Time (usec): 100000 (USB4C02835)
Spectra Averaged: 1 (USB4C02835)
Boxcar Smoothing: 0 (USB4C02835)
Correct for Electrical Dark: No (USB4C02835)
Strobe/Lamp Enabled: No (USB4C02835)
Correct for Detector Non-linearity: No (USB4C02835)
Correct for Stray Light: No (USB4C02835)
Number of Pixels in Processed Spectrum: 3648
>>>>>Begin Processed Spectral Data<<<<<
177.47	1353.71
177.69	1353.71
177.91	1353.71
178.13	1320.94
178.36	1310.70
178.58	1519.59
178.80	1527.78
179.02	1460.20
179.24	1490.92
179.46	1599.46
179.68	1501.16
179.90	1521.64
180.13	1617.90
180.35	1509.35
180.57	1468.39
180.79	1556.46
181.01	1511.40
181.23	1585.13
181.45	1574.89
181.67	1505.26
181.90	1634.28
182.12	1515.50
182.34	1525.74
182.56	1513.45
182.78	1490.92
183.00	1552.36
183.22	1515.50
183.44	1472.49
183.66	1652.71
183.89	1638.38
184.11	1550.31
184.33	1574.89
184.55	1578.98
184.77	1503.21
184.99	1527.78
185.21	1509.35
185.43	1665.00
185.65	1587.18
185.87	1533.93
186.10	1636.33
186.32	1558.50
186.54	1574.89
186.76	1535.98
186.98	1593.32
187.20	1535.98
187.42	1482.73
187.64	1458.15
187.86	1597.42
188.08	1554.41
188.30	1497.07
188.52	1490.92
188.75	1585.13
188.97	1589.22
189.19	1546.22
189.41	1525.74
189.63	1509.35
189.85	1499.11
190.07	1468.39
190.29	1492.97
190.51	1484.78
190.73	1495.02
190.95	1585.13
191.17	1552.36
191.39	1478.63
191.61	1587.18
191.84	1546.22
192.06	1527.78
192.28	1492.97
192.50	1626.09
192.72	1566.70
192.94	1509.35
193.16	1542.12
193.38	1632.23
193.60	1501.16
193.82	1484.78
194.04	1544.17
194.26	1636.33
194.48	1574.89
194.70	1523.69
194.92	1509.35
195.14	1603.56
195.36	1511.40
195.58	1564.65
195.80	1466.35
196.02	1568.74
196.24	1511.40
196.46	1595.37
196.69	1525.74
196.91	1732.58
197.13	1476.59
197.35	1525.74
197.57	1621.99
197.79	1515.50
198.01	1585.13
198.23	1548.26
198.45	1480.68
198.67	1443.82
198.89	1603.56
199.11	1517.54
199.33	1501.16
199.55	1460.20
199.77	1540.07
199.99	1556.46
200.21	1492.97
200.43	1558.50
200.65	1466.35
200.87	1398.76
201.09	1566.70
201.31	1527.78
201.53	1570.79
201.75	1576.94
201.97	1548.26
202.19	1550.31
202.41	1628.14
202.63	1648.61
202.85	1511.40
203.07	1585.13
203.29	1429.48
203.51	1468.39
203.73	1525.74
203.95	1671.14
204.17	1613.80
204.39	1548.26
204.61	1552.36
204.83	1574.89
205.05	1595.37
205.27	1585.13
205.49	1634.28
205.71	1570.79
205.93	1425.39
206.15	1484.78
206.37	1466.35
206.59	1527.78
206.81	1531.88
207.03	1554.41
207.25	1519.59
207.47	1583.08
207.69	1505.26
207.91	1554.41
208.13	1566.70
208.34	1492.97
208.56	1484.78
208.78	1595.37
209.00	1525.74
209.22	1611.75
209.44	1554.41
209.66	1513.45
209.88	1556.46
210.10	1540.07
210.32	1513.45
210.54	1576.94
210.76	1503.21
210.98	1568.74
211.20	1417.19
211.42	1562.60
211.64	1564.65
211.86	1597.42
212.08	1519.59
212.30	1476.59
212.52	1521.64
212.74	1542.12
212.96	1468.39
213.17	1542.12
213.39	1546.22
213.61	1628.14
213.83	1658.85
214.05	1499.11
214.27	1617.90
214.49	1497.07
214.71	1550.31
214.93	1595.37
215.15	1527.78
215.37	1583.08
215.59	1501.16
215.81	1589.22
216.03	1650.66
216.24	1572.84
216.46	1511.40
216.68	1519.59
216.90	1603.56
217.12	1607.66
217.34	1538.02
217.56	1503.21
217.78	1628.14
218.00	1568.74
218.22	1601.51
218.44	1562.60
218.66	1621.99
218.87	1683.43
219.09	1474.54
219.31	1566.70
219.53	1472.49
219.75	1529.83
219.97	1538.02
220.19	1624.04
220.41	1615.85
220.63	1578.98
220.85	1572.84
221.06	1550.31
221.28	1589.22
221.50	1540.07
221.72	1605.61
221.94	1544.17
222.16	1572.84
222.38	1576.94
222.60	1554.41
222.82	1595.37
223.03	1468.39
223.25	1570.79
223.47	1587.18
223.69	1656.81
223.91	1550.31
224.13	1515.50
224.35	1478.63
224.57	1601.51
224.78	1624.04
225.00	1488.87
225.22	1527.78
225.44	1511.40
225.66	1492.97
225.88	1509.35
226.10	1589.22
226.32	1533.93
226.53	1591.27
226.75	1544.17
226.97	1533.93
227.19	1542.12
227.41	1513.45
227.63	1490.92
227.85	1460.20
228.06	1560.55
228.28	1578.98
228.50	1550.31
228.72	1560.55
228.94	1527.78
229.16	1464.30
229.37	1511.40
229.59	1540.07
229.81	1535.98
230.03	1462.25
230.25	1437.67
230.47	1466.35
230.69	1540.07
230.90	1554.41
231.12	1488.87
231.34	1552.36
231.56	1544.17
231.78	1572.84
232.00	1429.48
232.21	1566.70
232.43	1621.99
232.65	1435.63
232.87	1525.74
233.09	1503.21
233.30	1578.98
233.52	1527.78
233.74	1521.64
233.96	1517.54
234.18	1476.59
234.40	1521.64
234.61	1665.00
234.83	1402.86
235.05	1480.68
235.27	1583.08
235.49	1619.94
235.70	1566.70
235.92	1587.18
236.14	1554.41
236.36	1652.71
236.58	1544.17
236.79	1578.98
237.01	1540.07
237.23	1517.54
237.45	1669.09
237.67	1566.70
237.88	1564.65
238.10	1603.56
238.32	1488.87
238.54	1468.39
238.76	1538.02
238.97	1527.78
239.19	1552.36
239.41	1538.02
239.63	1546.22
239.85	1568.74
240.06	1540.07
240.28	1445.87
240.50	1572.84
240.72	1507.30
240.93	1454.06
241.15	1626.09
241.37	1482.73
241.59	1626.09
241.81	1511.40
242.02	1511.40
242.24	1581.03
242.46	1558.50
242.68	1466.35
242.89	1546.22
243.11	1564.65
243.33	1607.66
243.55	1581.03
243.76	1589.22
243.98	1576.94
244.20	1652.71
244.42	1525.74
244.64	1624.04
244.85	1544.17
245.07	1468.39
245.29	1589.22
245.51	1630.18
245.72	1511.40
245.94	1581.03
246.16	1523.69
246.38	1488.87
246.59	1499.11
246.81	1490.92
247.03	1464.30
247.24	1488.87
247.46	1490.92
247.68	1568.74
247.90	1562.60
248.11	1503.21
248.33	1581.03
248.55	1515.50
248.77	1538.02
248.98	1560.55
249.20	1648.61
249.42	1548.26
249.64	1560.55
249.85	1585.13
250.07	1585.13
250.29	1574.89
250.50	1603.56
250.72	1544.17
250.94	1544.17
251.16	1662.95
251.37	1591.27
251.59	1581.03
251.81	1554.41
252.02	1662.95
252.24	1499.11
252.46	1599.46
252.68	1525.74
252.89	1468.39
253.11	1474.54
253.33	1695.72
253.54	1636.33
253.76	1456.11
253.98	1482.73
254.20	1542.12
254.41	1574.89
254.63	1484.78
254.85	1482.73
255.06	1478.63
255.28	1560.55
255.50	1394.67
255.71	1558.50
255.93	1511.40
256.15	1484.78
256.36	1578.98
256.58	1519.59
256.80	1628.14
257.02	1497.07
257.23	1513.45
257.45	1484.78
257.67	1535.98
257.88	1492.97
258.10	1550.31
258.32	1603.56
258.53	1550.31
258.75	1607.66
258.97	1517.54
259.18	1509.35
259.40	1583.08
259.62	1603.56
259.83	1656.81
260.05	1560.55
260.27	1779.68
260.48	1568.74
260.70	1552.36
260.92	1527.78
261.13	1656.81
261.35	1533.93
261.57	1519.59
261.78	1523.69
262.00	1449.96
262.22	1529.83
262.43	1361.90
262.65	1492.97
262.86	1611.75
263.08	1611.75
263.30	1488.87
263.51	1476.59
263.73	1492.97
263.95	1574.89
264.16	1505.26
264.38	1488.87
264.60	1609.70
264.81	1525.74
265.03	1589.22
265.25	1546.22
265.46	1521.64
265.68	1544.17
265.89	1562.60
266.11	1443.82
266.33	1552.36
266.54	1517.54
266.76	1624.04
266.98	1591.27
267.19	1628.14
267.41	1566.70
267.62	1540.07
267.84	1490.92
268.06	1538.02
268.27	1578.98
268.49	1581.03
268.70	1603.56
268.92	1568.74
269.14	1441.77
269.35	1527.78
269.57	1531.88
269.79	1533.93
270.00	1447.91
270.22	1585.13
270.43	1554.41
270.65	1466.35
270.87	1505.26
271.08	1591.27
271.30	1617.90
271.51	1578.98
271.73	1499.11
271.95	1583.08
272.16	1523.69
272.38	1517.54
272.59	1583.08
272.81	1605.61
273.02	1570.79
273.24	1560.55
273.46	1460.20
273.67	1515.50
273.89	1546.22
274.10	1552.36
274.32	1523.69
274.54	1538.02
274.75	1544.17
274.97	1509.35
275.18	1456.11
275.40	1552.36
275.61	1490.92
275.83	1525.74
276.05	1447.91
276.26	1533.93
276.48	1560.55
276.69	1499.11
276.91	1552.36
277.12	1562.60
277.34	1587.18
277.55	1603.56
277.77	1472.49
277.99	1497.07
278.20	1513.45
278.42	1468.39
278.63	1564.65
278.85	1550.31
279.06	1503.21
279.28	1587.18
279.49	1595.37
279.71	1507.30
279.93	1527.78
280.14	1488.87
280.36	1521.64
280.57	1595.37
280.79	1572.84
281.00	1427.43
281.22	1560.55
281.43	1652.71
281.65	1454.06
281.86	1501.16
282.08	1488.87
282.29	1617.90
282.51	1515.50
282.73	1495.02
282.94	1517.54
283.16	1523.69
283.37	1593.32
283.59	1583.08
283.80	1544.17
284.02	1482.73
284.23	1589.22
284.45	1538.02
284.66	1449.96
284.88	1611.75
285.09	1554.41
285.31	1486.83
285.52	1562.60
285.74	1501.16
285.95	1568.74
286.17	1525.74
286.38	1554.41
286.60	1527.78
286.81	1460.20
287.03	1556.46
287.24	1503.21
287.46	1542.12
287.67	1462.25
287.89	1646.57
288.10	1447.91
288.32	1533.93
288.53	1593.32
288.75	1564.65
288.96	1572.84
289.18	1525.74
289.39	1478.63
289.61	1507.30
289.82	1617.90
290.04	1611.75
290.25	1464.30
290.47	1599.46
290.68	1525.74
290.90	1607.66
291.11	1480.68
291.33	1585.13
291.54	1466.35
291.76	1599.46
291.97	1527.78
292.18	1572.84
292.40	1501.16
292.61	1521.64
292.83	1701.86
293.04	1468.39
293.26	1470.44
293.47	1570.79
293.69	1484.78
293.90	1542.12
294.12	1548.26
294.33	1599.46
294.55	1525.74
294.76	1585.13
294.97	1576.94
295.19	1624.04
295.40	1458.15
295.62	1589.22
295.83	1585.13
296.05	1482.73
296.26	1585.13
296.48	1503.21
296.69	1617.90
296.90	1554.41
297.12	1593.32
297.33	1607.66
297.55	1581.03
297.76	1581.03
297.98	1550.31
298.19	1562.60
298.41	1511.40
298.62	1546.22
298.83	1593.32
299.05	1576.94
299.26	1525.74
299.48	1515.50
299.69	1525.74
299.90	1495.02
300.12	1454.06
300.33	1566.70
300.55	1603.56
300.76	1564.65
300.98	1519.59
301.19	1552.36
301.40	1482.73
301.62	1503.21
301.83	1556.46
302.05	1531.88
302.26	1605.61
302.47	1560.55
302.69	1476.59
302.90	1587.18
303.12	1468.39
303.33	1542.12
303.54	1546.22
303.76	1445.87
303.97	1501.16
304.19	1617.90
304.40	1488.87
304.61	1617.90
304.83	1562.60
305.04	1624.04
305.26	1529.83
305.47	1513.45
305.68	1603.56
305.90	1505.26
306.11	1574.89
306.33	1507.30
306.54	1480.68
306.75	1542.12
306.97	1452.01
307.18	1521.64
307.39	1519.59
307.61	1599.46
307.82	1497.07
308.04	1476.59
308.25	1468.39
308.46	1529.83
308.68	1570.79
308.89	1519.59
309.10	1566.70
309.32	1513.45
309.53	1519.59
309.74	1517.54
309.96	1507.30
310.17	1564.65
310.39	1529.83
310.60	1544.17
310.81	1505.26
311.03	1566.70
311.24	1570.79
311.45	1535.98
311.67	1628.14
311.88	1521.64
312.09	1542.12
312.31	1495.02
312.52	1523.69
312.73	1546.22
312.95	1507.30
313.16	1521.64
313.37	1591.27
313.59	1548.26
313.80	1570.79
314.01	1665.00
314.23	1476.59
314.44	1531.88
314.65	1480.68
314.87	1587.18
315.08	1486.83
315.29	1476.59
315.51	1452.01
315.72	1468.39
315.93	1583.08
316.15	1615.85
316.36	1507.30
316.57	1568.74
316.79	1517.54
317.00	1544.17
317.21	1558.50
317.43	1488.87
317.64	1544.17
317.85	1550.31
318.07	1550.31
318.28	1701.86
318.49	1683.43
318.70	1794.02
318.92	1744.87
319.13	1673.19
319.34	1728.49
319.56	1617.90
319.77	1538.02
319.98	1681.38
320.20	1599.46
320.41	1531.88
320.62	1583.08
320.83	1529.83
321.05	1665.00
321.26	1517.54
321.47	1533.93
321.69	1535.98
321.90	1468.39
322.11	1484.78
322.32	1509.35
322.54	1585.13
322.75	1509.35
322.96	1533.93
323.18	1439.72
323.39	1441.77
323.60	1538.02
323.81	1527.78
324.03	1535.98
324.24	1466.35
324.45	1574.89
324.66	1509.35
324.88	1558.50
325.09	1611.75
325.30	1546.22
325.52	1583.08
325.73	1490.92
325.94	1515.50
326.15	1419.24
326.37	1570.79
326.58	1638.38
326.79	1599.46
327.00	1495.02
327.22	1474.54
327.43	1531.88
327.64	1552.36
327.85	1626.09
328.07	1667.05
328.28	1589.22
328.49	1542.12
328.70	1554.41
328.92	1519.59
329.13	1568.74
329.34	1554.41
329.55	1531.88
329.76	1574.89
329.98	1505.26
330.19	1611.75
330.40	1538.02
330.61	1568.74
330.83	1642.47
331.04	1546.22
331.25	1548.26
331.46	1509.35
331.68	1464.30
331.89	1562.60
332.10	1558.50
332.31	1486.83
332.52	1538.02
332.74	1558.50
332.95	1466.35
333.16	1478.63
333.37	1570.79
333.58	1591.27
333.80	1470.44
334.01	1466.35
334.22	1435.63
334.43	1521.64
334.64	1445.87
334.86	1517.54
335.07	1427.43
335.28	1548.26
335.49	1466.35
335.70	1632.23
335.92	1617.90
336.13	1636.33
336.34	1603.56
336.55	1482.73
336.76	1609.70
336.98	1435.63
337.19	1511.40
337.40	1519.59
337.61	1724.39
337.82	1560.55
338.04	1632.23
338.25	1456.11
338.46	1497.07
338.67	1636.33
338.88	1447.91
339.09	1460.20
339.31	1476.59
339.52	1503.21
339.73	1497.07
339.94	1523.69
340.15	1611.75
340.36	1540.07
340.58	1538.02
340.79	1501.16
341.00	1570.79
341.21	1421.29
341.42	1597.42
341.63	1521.64
341.85	1503.21
342.06	1507.30
342.27	1490.92
342.48	1542.12
342.69	1560.55
342.90	1464.30
343.12	1562.60
343.33	1542.12
343.54	1617.90
343.75	1556.46
343.96	1574.89
344.17	1521.64
344.38	1513.45
344.60	1507.30
344.81	1527.78
345.02	1566.70
345.23	1564.65
345.44	1658.85
345.65	1632.23
345.86	1581.03
346.07	1572.84
346.29	1523.69
346.50	1552.36
346.71	1511.40
346.92	1630.18
347.13	1697.77
347.34	1517.54
347.55	1591.27
347.76	1552.36
347.98	1495.02
348.19	1511.40
348.40	1566.70
348.61	1531.88
348.82	1560.55
349.03	1568.74
349.24	1425.39
349.45	1665.00
349.66	1460.20
349.88	1535.98
350.09	1406.95
350.30	1490.92
350.51	1624.04
350.72	1527.78
350.93	1574.89
351.14	1574.89
351.35	1533.93
351.56	1535.98
351.77	1476.59
351.99	1505.26
352.20	1574.89
352.41	1654.76
352.62	1456.11
352.83	1505.26
353.04	1529.83
353.25	1505.26
353.46	1587.18
353.67	1550.31
353.88	1417.19
354.09	1521.64
354.30	1527.78
354.52	1492.97
354.73	1466.35
354.94	1523.69
355.15	1540.07
355.36	1593.32
355.57	1552.36
355.78	1583.08
355.99	1535.98
356.20	1464.30
356.41	1562.60
356.62	1478.63
356.83	1568.74
357.04	1576.94
357.25	1470.44
357.46	1492.97
357.68	1472.49
357.89	1468.39
358.10	1550.31
358.31	1490.92
358.52	1556.46
358.73	1482.73
358.94	1472.49
359.15	1578.98
359.36	1566.70
359.57	1507.30
359.78	1523.69
359.99	1535.98
360.20	1556.46
360.41	1507.30
360.62	1515.50
360.83	1501.16
361.04	1523.69
361.25	1550.31
361.46	1574.89
361.67	1595.37
361.88	1595.37
362.09	1564.65
362.30	1531.88
362.51	1474.54
362.72	1503.21
362.93	1599.46
363.14	1587.18
363.35	1587.18
363.56	1517.54
363.78	1630.18
363.99	1595.37
364.20	1456.11
364.41	1544.17
364.62	1587.18
364.83	1529.83
365.04	1538.02
365.25	1525.74
365.46	1587.18
365.67	1478.63
365.88	1542.12
366.09	1554.41
366.30	1492.97
366.51	1542.12
366.72	1492.97
366.93	1529.83
367.14	1523.69
367.35	1560.55
367.56	1533.93
367.77	1531.88
367.98	1599.46
368.18	1535.98
368.39	1591.27
368.60	1554.41
368.81	1546.22
369.02	1611.75
369.23	1556.46
369.44	1454.06
369.65	1497.07
369.86	1501.16
370.07	1529.83
370.28	1507.30
370.49	1546.22
370.70	1560.55
370.91	1527.78
371.12	1531.88
371.33	1591.27
371.54	1546.22
371.75	1662.95
371.96	1435.63
372.17	1443.82
372.38	1466.35
372.59	1617.90
372.80	1474.54
373.01	1558.50
373.22	1558.50
373.43	1617.90
373.64	1423.34
373.85	1646.57
374.06	1654.76
374.26	1554.41
374.47	1572.84
374.68	1621.99
374.89	1554.41
375.10	1540.07
375.31	1521.64
375.52	1542.12
375.73	1476.59
375.94	1515.50
376.15	1665.00
376.36	1515.50
376.57	1511.40
376.78	1435.63
376.99	1464.30
377.20	1615.85
377.40	1503.21
377.61	1689.57
377.82	1486.83
378.03	1638.38
378.24	1538.02
378.45	1544.17
378.66	1544.17
378.87	1492.97
379.08	1486.83
379.29	1480.68
379.50	1556.46
379.71	1505.26
379.91	1615.85
380.12	1538.02
380.33	1527.78
380.54	1556.46
380.75	1583.08
380.96	1513.45
381.17	1562.60
381.38	1562.60
381.59	1658.85
381.80	1531.88
382.00	1667.05
382.21	1601.51
382.42	1705.96
382.63	1705.96
382.84	1566.70
383.05	1638.38
383.26	1632.23
383.47	1542.12
383.68	1552.36
383.88	1593.32
384.09	1560.55
384.30	1624.04
384.51	1630.18
384.72	1492.97
384.93	1517.54
385.14	1529.83
385.35	1585.13
385.55	1556.46
385.76	1638.38
385.97	1576.94
386.18	1480.68
386.39	1523.69
386.60	1540.07
386.81	1566.70
387.02	1533.93
387.22	1515.50
387.43	1642.47
387.64	1648.61
387.85	1787.88
388.06	3119.06
388.27	7178.13
388.48	10614.62
388.68	12650.30
388.89	13975.34
389.10	12875.58
389.31	10248.04
389.52	9019.25
389.73	7896.97
389.93	7341.97
390.14	6721.43
390.35	6225.82
390.56	5531.56
390.77	4671.42
390.98	3600.33
391.18	2963.41
391.39	2181.09
391.60	1824.74
391.81	1689.57
392.02	1624.04
392.23	1636.33
392.43	1619.94
392.64	1613.80
392.85	1505.26
393.06	1576.94
393.27	1560.55
393.47	1566.70
393.68	1484.78
393.89	1454.06
394.10	1589.22
394.31	1466.35
394.52	1533.93
394.72	1507.30
394.93	1593.32
395.14	1452.01
395.35	1583.08
395.56	1546.22
395.76	1482.73
395.97	1740.77
396.18	1732.58
396.39	1798.12
396.60	1830.88
396.80	1679.33
397.01	1640.42
397.22	1642.47
397.43	1769.44
397.64	1499.11
397.84	1701.86
398.05	1632.23
398.26	1630.18
398.47	1656.81
398.67	1607.66
398.88	1464.30
399.09	1535.98
399.30	1636.33
399.51	1638.38
399.71	1486.83
399.92	1558.50
400.13	1538.02
400.34	1626.09
400.54	1560.55
400.75	1550.31
400.96	1587.18
401.17	1617.90
401.37	1550.31
401.58	1560.55
401.79	1587.18
402.00	1828.84
402.21	1986.53
402.41	1994.72
402.62	1929.19
402.83	1955.81
403.04	1873.89
403.24	1992.67
403.45	1804.26
403.66	1785.83
403.87	1744.87
404.07	1703.91
404.28	1791.97
404.49	1736.68
404.70	1576.94
404.90	1626.09
405.11	1574.89
405.32	1519.59
405.52	1595.37
405.73	1464.30
405.94	1431.53
406.15	1507.30
406.35	1636.33
406.56	1550.31
406.77	1495.02
406.98	1566.70
407.18	1544.17
407.39	1535.98
407.60	1542.12
407.80	1552.36
408.01	1490.92
408.22	1630.18
408.43	1507.30
408.63	1587.18
408.84	1540.07
409.05	1529.83
409.25	1546.22
409.46	1505.26
409.67	1449.96
409.88	1501.16
410.08	1574.89
410.29	1476.59
410.50	1529.83
410.70	1544.17
410.91	1505.26
411.12	1634.28
411.32	1558.50
411.53	1568.74
411.74	1570.79
411.95	1673.19
412.15	1683.43
412.36	1619.94
412.57	1591.27
412.77	1628.14
412.98	1556.46
413.19	1617.90
413.39	1593.32
413.60	1525.74
413.81	1652.71
414.01	1527.78
414.22	1609.70
414.43	1648.61
414.63	1552.36
414.84	1632.23
415.05	1585.13
415.25	1529.83
415.46	1560.55
415.67	1533.93
415.87	1501.16
416.08	1566.70
416.29	1507.30
416.49	1554.41
416.70	1472.49
416.91	1519.59
417.11	1546.22
417.32	1552.36
417.53	1564.65
417.73	1613.80
417.94	1513.45
418.15	1568.74
418.35	1517.54
418.56	1648.61
418.77	1679.33
418.97	1458.15
419.18	1519.59
419.38	1435.63
419.59	1525.74
419.80	1650.66
420.00	1505.26
420.21	1495.02
420.42	1558.50
420.62	1533.93
420.83	1482.73
421.04	1495.02
421.24	1589.22
421.45	1509.35
421.65	1521.64
421.86	1501.16
422.07	1605.61
422.27	1529.83
422.48	1591.27
422.69	1527.78
422.89	1527.78
423.10	1490.92
423.30	1429.48
423.51	1517.54
423.72	1511.40
423.92	1542.12
424.13	1437.67
424.33	1531.88
424.54	1544.17
424.75	1556.46
424.95	1654.76
425.16	1595.37
425.36	1519.59
425.57	1562.60
425.78	1531.88
425.98	1591.27
426.19	1511.40
426.39	1499.11
426.60	1499.11
426.81	1587.18
427.01	1589.22
427.22	1568.74
427.42	1392.62
427.63	1572.84
427.83	1628.14
428.04	1587.18
428.25	1595.37
428.45	1607.66
428.66	1554.41
428.86	1560.55
429.07	1484.78
429.28	1646.57
429.48	1472.49
429.69	1521.64
429.89	1531.88
430.10	1474.54
430.30	1585.13
430.51	1554.41
430.71	1454.06
430.92	1492.97
431.13	1501.16
431.33	1595.37
431.54	1525.74
431.74	1619.94
431.95	1710.05
432.15	1486.83
432.36	1583.08
432.56	1624.04
432.77	1597.42
432.98	1609.70
433.18	1501.16
433.39	1527.78
433.59	1609.70
433.80	1581.03
434.00	1646.57
434.21	1511.40
434.41	1601.51
434.62	1621.99
434.82	1552.36
435.03	1542.12
435.23	1535.98
435.44	1421.29
435.64	1566.70
435.85	1560.55
436.06	1523.69
436.26	1533.93
436.47	1521.64
436.67	1519.59
436.88	1499.11
437.08	1605.61
437.29	1613.80
437.49	1474.54
437.70	1652.71
437.90	1542.12
438.11	1599.46
438.31	1650.66
438.52	1673.19
438.72	1685.48
438.93	1722.34
439.13	1607.66
439.34	1654.76
439.54	1589.22
439.75	1525.74
439.95	1613.80
440.16	1589.22
440.36	1605.61
440.57	1527.78
440.77	1589.22
440.98	1595.37
441.18	1566.70
441.39	1525.74
441.59	1492.97
441.80	1650.66
442.00	1574.89
442.21	1656.81
442.41	1513.45
442.62	1599.46
442.82	1470.44
443.02	1531.88
443.23	1542.12
443.43	1492.97
443.64	1578.98
443.84	1462.25
444.05	1589.22
444.25	1576.94
444.46	1535.98
444.66	1499.11
444.87	1628.14
445.07	1466.35
445.28	1599.46
445.48	1617.90
445.69	1460.20
445.89	1636.33
446.09	1699.81
446.30	2150.37
446.50	3190.74
446.71	4550.59
446.91	5263.28
447.12	5758.89
447.32	5482.41
447.53	4458.43
447.73	4042.69
447.93	3579.85
448.14	3274.70
448.34	3186.64
448.55	3010.51
448.75	2916.31
448.96	2770.90
449.16	2523.10
449.36	2230.24
449.57	2084.83
449.77	1705.96
449.98	1613.80
450.18	1656.81
450.39	1617.90
450.59	1591.27
450.79	1562.60
451.00	1560.55
451.20	1468.39
451.41	1550.31
451.61	1611.75
451.81	1583.08
452.02	1497.07
452.22	1552.36
452.43	1564.65
452.63	1583.08
452.84	1560.55
453.04	1570.79
453.24	1540.07
453.45	1480.68
453.65	1492.97
453.86	1585.13
454.06	1595.37
454.26	1591.27
454.47	1509.35
454.67	1578.98
454.87	1546.22
455.08	1517.54
455.28	1644.52
455.49	1533.93
455.69	1501.16
455.89	1681.38
456.10	1613.80
456.30	1560.55
456.51	1507.30
456.71	1570.79
456.91	1542.12
457.12	1607.66
457.32	1603.56
457.52	1501.16
457.73	1593.32
457.93	1533.93
458.14	1595.37
458.34	1581.03
458.54	1415.15
458.75	1523.69
458.95	1589.22
459.15	1523.69
459.36	1609.70
459.56	1503.21
459.76	1558.50
459.97	1484.78
460.17	1511.40
460.37	1607.66
460.58	1538.02
460.78	1581.03
460.99	1499.11
461.19	1519.59
461.39	1462.25
461.60	1538.02
461.80	1615.85
462.00	1499.11
462.21	1548.26
462.41	1525.74
462.61	1499.11
462.82	1476.59
463.02	1521.64
463.22	1558.50
463.43	1603.56
463.63	1478.63
463.83	1574.89
464.04	1593.32
464.24	1511.40
464.44	1564.65
464.64	1529.83
464.85	1511.40
465.05	1587.18
465.25	1492.97
465.46	1523.69
465.66	1630.18
465.86	1542.12
466.07	1495.02
466.27	1464.30
466.47	1503.21
466.68	1404.91
466.88	1646.57
467.08	1628.14
467.29	1527.78
467.49	1540.07
467.69	1548.26
467.89	1611.75
468.10	1517.54
468.30	1593.32
468.50	1646.57
468.71	1589.22
468.91	1517.54
469.11	1599.46
469.31	1523.69
469.52	1533.93
469.72	1570.79
469.92	1708.01
470.13	1566.70
470.33	1650.66
470.53	1705.96
470.73	2148.32
470.94	2371.55
471.14	2373.60
471.34	2643.93
471.54	2334.68
471.75	2131.94
471.95	2041.82
472.15	1970.15
472.36	1845.22
472.56	1902.56
472.76	1918.95
472.96	1867.75
473.17	1781.73
473.37	1751.01
473.57	1683.43
473.77	1652.71
473.98	1609.70
474.18	1572.84
474.38	1665.00
474.58	1552.36
474.79	1546.22
474.99	1560.55
475.19	1556.46
475.39	1574.89
475.60	1601.51
475.80	1605.61
476.00	1552.36
476.20	1599.46
476.41	1501.16
476.61	1607.66
476.81	1554.41
477.01	1523.69
477.21	1566.70
477.42	1603.56
477.62	1470.44
477.82	1562.60
478.02	1601.51
478.23	1548.26
478.43	1476.59
478.63	1525.74
478.83	1525.74
479.03	1527.78
479.24	1540.07
479.44	1642.47
479.64	1527.78
479.84	1402.86
480.04	1589.22
480.25	1542.12
480.45	1447.91
480.65	1595.37
480.85	1607.66
481.06	1462.25
481.26	1595.37
481.46	1527.78
481.66	1490.92
481.86	1482.73
482.06	1685.48
482.27	1443.82
482.47	1507.30
482.67	1558.50
482.87	1503.21
483.07	1583.08
483.28	1511.40
483.48	1460.20
483.68	1456.11
483.88	1519.59
484.08	1529.83
484.29	1460.20
484.49	1533.93
484.69	1482.73
484.89	1617.90
485.09	1578.98
485.29	1609.70
485.50	1521.64
485.70	1583.08
485.90	1591.27
486.10	1544.17
486.30	1558.50
486.50	1548.26
486.71	1495.02
486.91	1626.09
487.11	1646.57
487.31	1533.93
487.51	1656.81
487.71	1593.32
487.91	1501.16
488.12	1546.22
488.32	1566.70
488.52	1472.49
488.72	1413.10
488.92	1519.59
489.12	1581.03
489.32	1570.79
489.53	1566.70
489.73	1509.35
489.93	1615.85
490.13	1535.98
490.33	1497.07
490.53	1621.99
490.73	1615.85
490.94	1474.54
491.14	1581.03
491.34	1701.86
491.54	2123.74
491.74	2629.59
491.94	3196.88
492.14	3368.91
492.34	3071.95
492.54	2807.77
492.75	2441.18
492.95	2375.64
493.15	2205.66
493.35	2148.32
493.55	2148.32
493.75	2009.06
493.95	2054.11
494.15	1990.63
494.35	1855.46
494.56	1701.86
494.76	1677.29
494.96	1558.50
495.16	1593.32
495.36	1609.70
495.56	1589.22
495.76	1535.98
495.96	1474.54
496.16	1492.97
496.36	1660.90
496.56	1556.46
496.77	1587.18
496.97	1474.54
497.17	1632.23
497.37	1576.94
497.57	1535.98
497.77	1533.93
497.97	1529.83
498.17	1454.06
498.37	1495.02
498.57	1576.94
498.77	1472.49
498.97	1544.17
499.17	1705.96
499.38	1533.93
499.58	1523.69
499.78	1587.18
499.98	1613.80
500.18	1570.79
500.38	1511.40
500.58	1822.69
500.78	2555.86
500.98	5150.64
501.18	6772.63
501.38	8103.81
501.58	8755.07
501.78	7927.69
501.98	6244.26
502.18	5330.86
502.38	4644.79
502.58	4206.53
502.78	3735.50
502.98	3829.70
503.18	3674.06
503.38	3268.56
503.59	3010.51
503.79	2793.43
503.99	2545.63
504.19	2383.84
504.39	2174.94
504.59	2082.78
504.79	2039.78
504.99	1978.34
505.19	1800.16
505.39	1720.29
505.59	1732.58
505.79	1787.88
505.99	1683.43
506.19	1665.00
506.39	1720.29
506.59	1558.50
506.79	1642.47
506.99	1675.24
507.19	1597.42
507.39	1570.79
507.59	1501.16
507.79	1517.54
507.99	1466.35
508.19	1515.50
508.39	1570.79
508.59	1492.97
508.79	1712.10
508.99	1617.90
509.19	1525.74
509.39	1574.89
509.59	1460.20
509.79	1525.74
509.99	1540.07
510.19	1611.75
510.39	1548.26
510.59	1574.89
510.79	1572.84
510.99	1482.73
511.19	1605.61
511.39	1607.66
511.59	1578.98
511.79	1599.46
511.99	1587.18
512.19	1636.33
512.38	1562.60
512.58	1544.17
512.78	1599.46
512.98	1634.28
513.18	1628.14
513.38	1466.35
513.58	1550.31
513.78	1527.78
513.98	1533.93
514.18	1505.26
514.38	1535.98
514.58	1523.69
514.78	1509.35
514.98	1501.16
515.18	1513.45
515.38	1509.35
515.58	1533.93
515.78	1513.45
515.98	1544.17
516.18	1533.93
516.38	1533.93
516.57	1558.50
516.77	1507.30
516.97	1556.46
517.17	1492.97
517.37	1478.63
517.57	1593.32
517.77	1546.22
517.97	1511.40
518.17	1511.40
518.37	1476.59
518.57	1517.54
518.77	1525.74
518.97	1634.28
519.16	1634.28
519.36	1574.89
519.56	1556.46
519.76	1486.83
519.96	1505.26
520.16	1601.51
520.36	1501.16
520.56	1607.66
520.76	1488.87
520.96	1548.26
521.16	1507.30
521.35	1542.12
521.55	1613.80
521.75	1566.70
521.95	1544.17
522.15	1488.87
522.35	1476.59
522.55	1458.15
522.75	1630.18
522.95	1513.45
523.14	1552.36
523.34	1456.11
523.54	1527.78
523.74	1566.70
523.94	1578.98
524.14	1560.55
524.34	1585.13
524.54	1599.46
524.73	1542.12
524.93	1570.79
525.13	1501.16
525.33	1478.63
525.53	1665.00
525.73	1495.02
525.93	1599.46
526.13	1488.87
526.32	1507.30
526.52	1538.02
526.72	1593.32
526.92	1548.26
527.12	1460.20
527.32	1533.93
527.52	1548.26
527.71	1529.83
527.91	1535.98
528.11	1542.12
528.31	1568.74
528.51	1521.64
528.71	1634.28
528.90	1607.66
529.10	1558.50
529.30	1617.90
529.50	1437.67
529.70	1482.73
529.90	1552.36
530.09	1560.55
530.29	1486.83
530.49	1550.31
530.69	1564.65
530.89	1529.83
531.09	1611.75
531.28	1499.11
531.48	1570.79
531.68	1548.26
531.88	1552.36
532.08	1576.94
532.28	1507.30
532.47	1597.42
532.67	1605.61
532.87	1644.52
533.07	1505.26
533.27	1574.89
533.46	1564.65
533.66	1535.98
533.86	1583.08
534.06	1560.55
534.26	1492.97
534.45	1529.83
534.65	1658.85
534.85	1632.23
535.05	1525.74
535.25	1523.69
535.44	1466.35
535.64	1609.70
535.84	1572.84
536.04	1572.84
536.24	1468.39
536.43	1546.22
536.63	1591.27
536.83	1556.46
537.03	1474.54
537.22	1515.50
537.42	1443.82
537.62	1482.73
537.82	1497.07
538.02	1687.53
538.21	1632.23
538.41	1699.81
538.61	1605.61
538.81	1585.13
539.00	1554.41
539.20	1515.50
539.40	1523.69
539.60	1550.31
539.79	1646.57
539.99	1533.93
540.19	1509.35
540.39	1449.96
540.58	1533.93
540.78	1550.31
540.98	1503.21
541.18	1613.80
541.37	1542.12
541.57	1540.07
541.77	1525.74
541.97	1554.41
542.16	1486.83
542.36	1533.93
542.56	1581.03
542.76	1677.29
542.95	1521.64
543.15	1517.54
543.35	1501.16
543.54	1480.68
543.74	1503.21
543.94	1611.75
544.14	1517.54
544.33	1624.04
544.53	1490.92
544.73	1456.11
544.93	1488.87
545.12	1501.16
545.32	1544.17
545.52	1501.16
545.71	1503.21
545.91	1540.07
546.11	1562.60
546.30	1568.74
546.50	1488.87
546.70	1525.74
546.90	1529.83
547.09	1460.20
547.29	1499.11
547.49	1529.83
547.68	1492.97
547.88	1535.98
548.08	1591.27
548.27	1906.66
548.47	1570.79
548.67	1490.92
548.87	1550.31
549.06	1593.32
549.26	1572.84
549.46	1509.35
549.65	1427.43
549.85	1574.89
550.05	1615.85
550.24	1499.11
550.44	1449.96
550.64	1525.74
550.83	1501.16
551.03	1601.51
551.23	1611.75
551.42	1599.46
551.62	1554.41
551.82	1517.54
552.01	1527.78
552.21	1556.46
552.41	1544.17
552.60	1568.74
552.80	1554.41
553.00	1519.59
553.19	1562.60
553.39	1593.32
553.59	1560.55
553.78	1562.60
553.98	1566.70
554.17	1476.59
554.37	1515.50
554.57	1566.70
554.76	1507.30
554.96	1533.93
555.16	1583.08
555.35	1574.89
555.55	1583.08
555.75	1615.85
555.94	1490.92
556.14	1480.68
556.33	1542.12
556.53	1529.83
556.73	1583.08
556.92	1550.31
557.12	1601.51
557.32	1658.85
557.51	1646.57
557.71	1562.60
557.90	1562.60
558.10	1630.18
558.30	1603.56
558.49	1576.94
558.69	1525.74
558.88	1538.02
559.08	1529.83
559.28	1542.12
559.47	1445.87
559.67	1476.59
559.86	1626.09
560.06	1640.42
560.26	1509.35
560.45	1517.54
560.65	1550.31
560.84	1662.95
561.04	1519.59
561.24	1564.65
561.43	1505.26
561.63	1578.98
561.82	1505.26
562.02	1550.31
562.22	1464.30
562.41	1488.87
562.61	1566.70
562.80	1515.50
563.00	1646.57
563.19	1599.46
563.39	1568.74
563.59	1564.65
563.78	1529.83
563.98	1437.67
564.17	1503.21
564.37	1417.19
564.56	1503.21
564.76	1482.73
564.96	1533.93
565.15	1535.98
565.35	1511.40
565.54	1581.03
565.74	1636.33
565.93	1554.41
566.13	1503.21
566.32	1552.36
566.52	1546.22
566.71	1636.33
566.91	1628.14
567.11	1529.83
567.30	1452.01
567.50	1495.02
567.69	1593.32
567.89	1531.88
568.08	1542.12
568.28	1519.59
568.47	1511.40
568.67	1564.65
568.86	1486.83
569.06	1597.42
569.25	1531.88
569.45	1521.64
569.64	1511.40
569.84	1544.17
570.04	1605.61
570.23	1513.45
570.43	1511.40
570.62	1578.98
570.82	1667.05
571.01	1548.26
571.21	1511.40
571.40	1497.07
571.60	1626.09
571.79	1533.93
571.99	1511.40
572.18	1482.73
572.38	1531.88
572.57	1589.22
572.77	1566.70
572.96	1660.90
573.16	1595.37
573.35	1574.89
573.55	1640.42
573.74	1605.61
573.94	1585.13
574.13	1515.50
574.33	1558.50
574.52	1648.61
574.71	1560.55
574.91	1488.87
575.10	1550.31
575.30	1554.41
575.49	1540.07
575.69	1597.42
575.88	1581.03
576.08	1583.08
576.27	1615.85
576.47	1601.51
576.66	1665.00
576.86	1714.15
577.05	1544.17
577.25	1585.13
577.44	1734.63
577.64	1521.64
577.83	1621.99
578.02	1505.26
578.22	1626.09
578.41	1656.81
578.61	1523.69
578.80	1550.31
579.00	1519.59
579.19	1552.36
579.39	1687.53
579.58	1576.94
579.77	1576.94
579.97	1644.52
580.16	1648.61
580.36	1677.29
580.55	1665.00
580.75	1578.98
580.94	1617.90
581.13	1662.95
581.33	1679.33
581.52	1570.79
581.72	1691.62
581.91	1724.39
582.11	1562.60
582.30	1658.85
582.49	1652.71
582.69	1601.51
582.88	1621.99
583.08	1597.42
583.27	1667.05
583.47	1576.94
583.66	1533.93
583.85	1529.83
584.05	1636.33
584.24	1722.34
584.44	1685.48
584.63	1619.94
584.82	1728.49
585.02	1726.44
585.21	1783.78
585.41	1804.26
585.60	1714.15
585.79	1787.88
585.99	1849.32
586.18	1845.22
586.37	2058.21
586.57	3094.48
586.76	9629.55
586.96	27674.20
587.15	43918.69
587.34	54938.81
587.54	61795.41
587.73	59210.87
587.93	43799.91
588.12	32345.62
588.31	25833.08
588.51	22073.01
588.70	19812.05
588.89	18544.36
589.09	16944.89
589.28	15310.61
589.47	13158.20
589.67	11380.56
589.86	8957.82
590.06	7016.34
590.25	5035.96
590.44	3788.74
590.64	3002.32
590.83	2478.04
591.02	2097.12
591.22	1857.51
591.41	1775.59
591.60	1738.73
591.80	1771.49
591.99	1564.65
592.18	1648.61
592.38	1648.61
592.57	1535.98
592.76	1634.28
592.96	1673.19
593.15	1599.46
593.34	1714.15
593.54	1593.32
593.73	1574.89
593.92	1624.04
594.12	1609.70
594.31	1621.99
594.50	1722.34
594.70	1658.85
594.89	1689.57
595.08	1570.79
595.28	1634.28
595.47	1705.96
595.66	1605.61
595.86	1576.94
596.05	1531.88
596.24	1609.70
596.43	1669.09
596.63	1630.18
596.82	1595.37
597.01	1626.09
597.21	1638.38
597.40	1662.95
597.59	1615.85
597.79	1560.55
597.98	1562.60
598.17	1619.94
598.36	1599.46
598.56	1560.55
598.75	1497.07
598.94	1585.13
599.14	1574.89
599.33	1511.40
599.52	1564.65
599.71	1550.31
599.91	1652.71
600.10	1603.56
600.29	1492.97
600.48	1574.89
600.68	1484.78
600.87	1595.37
601.06	1533.93
601.26	1560.55
601.45	1511.40
601.64	1589.22
601.83	1642.47
602.03	1554.41
602.22	1521.64
602.41	1671.14
602.60	1654.76
602.80	1597.42
602.99	1585.13
603.18	1566.70
603.37	1560.55
603.57	1562.60
603.76	1619.94
603.95	1556.46
604.14	1546.22
604.34	1505.26
604.53	1554.41
604.72	1511.40
604.91	1521.64
605.10	1548.26
605.30	1452.01
605.49	1587.18
605.68	1599.46
605.87	1503.21
606.07	1558.50
606.26	1499.11
606.45	1566.70
606.64	1558.50
606.84	1492.97
607.03	1495.02
607.22	1599.46
607.41	1576.94
607.60	1581.03
607.80	1632.23
607.99	1605.61
608.18	1554.41
608.37	1581.03
608.56	1445.87
608.76	1593.32
608.95	1628.14
609.14	1599.46
609.33	1677.29
609.52	1681.38
609.72	1746.92
609.91	1648.61
610.10	1601.51
610.29	1660.90
610.48	1619.94
610.68	1624.04
610.87	1581.03
611.06	1574.89
611.25	1611.75
611.44	1603.56
611.63	1503.21
611.83	1652.71
612.02	1484.78
612.21	1634.28
612.40	1445.87
612.59	1443.82
612.79	1472.49
612.98	1607.66
613.17	1578.98
613.36	1544.17
613.55	1671.14
613.74	1593.32
613.93	1660.90
614.13	1669.09
614.32	1720.29
614.51	1769.44
614.70	1648.61
614.89	1675.24
615.08	1683.43
615.28	1888.23
615.47	1603.56
615.66	1681.38
615.85	1568.74
616.04	1724.39
616.23	1601.51
616.42	1634.28
616.62	1578.98
616.81	1634.28
617.00	1671.14
617.19	1628.14
617.38	1548.26
617.57	1619.94
617.76	1658.85
617.95	1482.73
618.15	1546.22
618.34	1605.61
618.53	1548.26
618.72	1591.27
618.91	1687.53
619.10	1619.94
619.29	1523.69
619.48	1472.49
619.68	1445.87
619.87	1554.41
620.06	1505.26
620.25	1624.04
620.44	1548.26
620.63	1593.32
620.82	1509.35
621.01	1595.37
621.20	1560.55
621.39	1591.27
621.59	1538.02
621.78	1482.73
621.97	1593.32
622.16	1560.55
622.35	1511.40
622.54	1550.31
622.73	1595.37
622.92	1535.98
623.11	1613.80
623.30	1554.41
623.49	1517.54
623.68	1550.31
623.88	1603.56
624.07	1566.70
624.26	1488.87
624.45	1566.70
624.64	1517.54
624.83	1511.40
625.02	1535.98
625.21	1542.12
625.40	1517.54
625.59	1558.50
625.78	1439.72
625.97	1624.04
626.16	1642.47
626.35	1634.28
626.54	1521.64
626.74	1734.63
626.93	1630.18
627.12	1550.31
627.31	1701.86
627.50	1599.46
627.69	1509.35
627.88	1441.77
628.07	1542.12
628.26	1550.31
628.45	1519.59
628.64	1458.15
628.83	1474.54
629.02	1517.54
629.21	1503.21
629.40	1513.45
629.59	1490.92
629.78	1544.17
629.97	1525.74
630.16	1595.37
630.35	1572.84
630.54	1638.38
630.73	1497.07
630.92	1505.26
631.11	1482.73
631.30	1525.74
631.49	1562.60
631.68	1542.12
631.87	1556.46
632.06	1591.27
632.25	1675.24
632.44	1513.45
632.63	1548.26
632.82	1665.00
633.01	1603.56
633.20	1675.24
633.39	1595.37
633.58	1568.74
633.77	1675.24
633.96	1587.18
634.15	1626.09
634.34	1583.08
634.53	1548.26
634.72	1540.07
634.91	1466.35
635.10	1558.50
635.29	1624.04
635.48	1589.22
635.67	1572.84
635.86	1488.87
636.05	1531.88
636.24	1495.02
636.43	1529.83
636.62	1552.36
636.81	1411.05
637.00	1527.78
637.19	1540.07
637.38	1546.22
637.57	1593.32
637.76	1656.81
637.95	1705.96
638.14	1619.94
638.33	1679.33
638.52	1675.24
638.71	1617.90
638.89	1515.50
639.08	1730.53
639.27	1583.08
639.46	1669.09
639.65	1939.43
639.84	1945.57
640.03	2125.79
640.22	2107.36
640.41	2201.57
640.60	1955.81
640.79	1886.18
640.98	1800.16
641.17	1748.97
641.36	1691.62
641.55	1703.91
641.74	1671.14
641.92	1609.70
642.11	1597.42
642.30	1538.02
642.49	1544.17
642.68	1488.87
642.87	1581.03
643.06	1628.14
643.25	1535.98
643.44	1583.08
643.63	1449.96
643.82	1538.02
644.00	1495.02
644.19	1640.42
644.38	1511.40
644.57	1509.35
644.76	1566.70
644.95	1513.45
645.14	1564.65
645.33	1452.01
645.52	1587.18
645.71	1511.40
645.89	1503.21
646.08	1531.88
646.27	1533.93
646.46	1669.09
646.65	1460.20
646.84	1564.65
647.03	1398.76
647.22	1472.49
647.40	1535.98
647.59	1501.16
647.78	1415.15
647.97	1535.98
648.16	1533.93
648.35	1574.89
648.54	1597.42
648.73	1593.32
648.91	1667.05
649.10	1595.37
649.29	1488.87
649.48	1480.68
649.67	1587.18
649.86	1611.75
650.05	1560.55
650.23	1675.24
650.42	1646.57
650.61	1736.68
650.80	1826.79
650.99	1751.01
651.18	1691.62
651.36	1652.71
651.55	1613.80
651.74	1605.61
651.93	1593.32
652.12	1589.22
652.31	1626.09
652.49	1583.08
652.68	1531.88
652.87	1693.67
653.06	1595.37
653.25	1628.14
653.44	1529.83
653.62	1593.32
653.81	1583.08
654.00	1544.17
654.19	1591.27
654.38	1619.94
654.56	1597.42
654.75	1548.26
654.94	1564.65
655.13	1595.37
655.32	1556.46
655.51	1619.94
655.69	1525.74
655.88	1585.13
656.07	1466.35
656.26	1603.56
656.45	1535.98
656.63	1589.22
656.82	1562.60
657.01	1495.02
657.20	1499.11
657.38	1634.28
657.57	1529.83
657.76	1509.35
657.95	1529.83
658.14	1538.02
658.32	1531.88
658.51	1419.24
658.70	1531.88
658.89	1613.80
659.08	1523.69
659.26	1632.23
659.45	1581.03
659.64	1607.66
659.83	1525.74
660.01	1777.64
660.20	1681.38
660.39	1665.00
660.58	1542.12
660.76	1597.42
660.95	1511.40
661.14	1550.31
661.33	1546.22
661.51	1503.21
661.70	1495.02
661.89	1544.17
662.08	1562.60
662.26	1619.94
662.45	1533.93
662.64	1611.75
662.83	1617.90
663.01	1501.16
663.20	1529.83
663.39	1630.18
663.58	1490.92
663.76	1515.50
663.95	1564.65
664.14	1556.46
664.32	1509.35
664.51	1505.26
664.70	1484.78
664.89	1558.50
665.07	1458.15
665.26	1591.27
665.45	1570.79
665.64	1574.89
665.82	1581.03
666.01	1570.79
666.20	1513.45
666.38	1634.28
666.57	1634.28
666.76	1800.16
666.95	2930.64
667.13	7583.63
667.32	15453.97
667.51	20149.96
667.69	23426.71
667.88	25421.44
668.07	22519.46
668.25	15683.34
668.44	12683.07
668.63	10090.34
668.81	8636.28
669.00	7679.88
669.19	7004.05
669.38	6487.96
669.56	5494.70
669.75	4798.39
669.94	4128.70
670.12	3377.10
670.31	2897.88
670.50	2437.08
670.68	2148.32
670.87	1902.56
671.06	1794.02
671.24	1687.53
671.43	1740.77
671.62	1583.08
671.80	1574.89
671.99	1566.70
672.18	1595.37
672.36	1611.75
672.55	1538.02
672.74	1566.70
672.92	1486.83
673.11	1601.51
673.29	1531.88
673.48	1550.31
673.67	1529.83
673.85	1556.46
674.04	1587.18
674.23	1562.60
674.41	1613.80
674.60	1521.64
674.79	1411.05
674.97	1513.45
675.16	1546.22
675.34	1558.50
675.53	1511.40
675.72	1486.83
675.90	1576.94
676.09	1581.03
676.28	1550.31
676.46	1460.20
676.65	1501.16
676.83	1517.54
677.02	1511.40
677.21	1513.45
677.39	1640.42
677.58	1540.07
677.77	1468.39
677.95	1556.46
678.14	1546.22
678.32	1574.89
678.51	1492.97
678.70	1632.23
678.88	1523.69
679.07	1478.63
679.25	1501.16
679.44	1589.22
679.63	1548.26
679.81	1470.44
680.00	1581.03
680.18	1509.35
680.37	1593.32
680.55	1562.60
680.74	1542.12
680.93	1472.49
681.11	1538.02
681.30	1540.07
681.48	1486.83
681.67	1544.17
681.85	1548.26
682.04	1476.59
682.23	1599.46
682.41	1525.74
682.60	1554.41
682.78	1533.93
682.97	1452.01
683.15	1560.55
683.34	1576.94
683.53	1578.98
683.71	1505.26
683.90	1617.90
684.08	1607.66
684.27	1619.94
684.45	1546.22
684.64	1621.99
684.82	1519.59
685.01	1492.97
685.19	1439.72
685.38	1601.51
685.57	1550.31
685.75	1552.36
685.94	1578.98
686.12	1470.44
686.31	1484.78
686.49	1652.71
686.68	1433.58
686.86	1636.33
687.05	1478.63
687.23	1564.65
687.42	1538.02
687.60	1495.02
687.79	1566.70
687.97	1609.70
688.16	1552.36
688.34	1574.89
688.53	1513.45
688.71	1630.18
688.90	1535.98
689.08	1488.87
689.27	1435.63
689.45	1560.55
689.64	1576.94
689.82	1591.27
690.01	1550.31
690.19	1515.50
690.38	1548.26
690.56	1605.61
690.75	1529.83
690.93	1542.12
691.12	1507.30
691.30	1531.88
691.49	1468.39
691.67	1505.26
691.86	1621.99
692.04	1546.22
692.23	1570.79
692.41	1642.47
692.60	1697.77
692.78	1642.47
692.97	1597.42
693.15	1621.99
693.34	1732.58
693.52	1621.99
693.71	1628.14
693.89	1581.03
694.08	1484.78
694.26	1615.85
694.44	1578.98
694.63	1556.46
694.81	1507.30
695.00	1495.02
695.18	1562.60
695.37	1621.99
695.55	1560.55
695.74	1517.54
695.92	1568.74
696.10	1599.46
696.29	1521.64
696.47	1593.32
696.66	1533.93
696.84	1527.78
697.03	1554.41
697.21	1714.15
697.40	2000.87
697.58	1628.14
697.76	1507.30
697.95	1562.60
698.13	1486.83
698.32	1542.12
698.50	1540.07
698.68	1599.46
698.87	1523.69
699.05	1568.74
699.24	1474.54
699.42	1419.24
699.61	1474.54
699.79	1550.31
699.97	1576.94
700.16	1533.93
700.34	1583.08
700.53	1544.17
700.71	1583.08
700.89	1544.17
701.08	1507.30
701.26	1552.36
701.45	1937.38
701.63	1572.84
701.81	1593.32
702.00	1578.98
702.18	1490.92
702.37	1497.07
702.55	1705.96
702.73	1648.61
702.92	1652.71
703.10	1771.49
703.28	1763.30
703.47	1740.77
703.65	1773.54
703.84	1695.72
704.02	1658.85
704.20	1660.90
704.39	1607.66
704.57	1675.24
704.75	1578.98
704.94	1648.61
705.12	1576.94
705.30	1681.38
705.49	1910.75
705.67	2850.77
705.86	7444.37
706.04	14436.13
706.22	18599.65
706.41	21743.28
706.59	22898.34
706.77	20991.68
706.96	14751.52
707.14	11759.44
707.32	9652.08
707.51	8689.53
707.69	7462.80
707.87	6639.51
708.06	5687.21
708.24	4745.14
708.42	3667.91
708.61	2932.69
708.79	2271.20
708.97	1931.23
709.16	1808.36
709.34	1783.78
709.52	1654.76
709.71	1667.05
709.89	1525.74
710.07	1478.63
710.26	1585.13
710.44	1617.90
710.62	1609.70
710.80	1556.46
710.99	1581.03
711.17	1677.29
711.35	1540.07
711.54	1552.36
711.72	1617.90
711.90	1601.51
712.09	1484.78
712.27	1562.60
712.45	1585.13
712.63	1517.54
712.82	1443.82
713.00	1591.27
713.18	1589.22
713.37	1640.42
713.55	1585.13
713.73	1609.70
713.91	1568.74
714.10	1507.30
714.28	1499.11
714.46	1574.89
714.65	1597.42
714.83	1564.65
715.01	1501.16
715.19	1570.79
715.38	1519.59
715.56	1527.78
715.74	1546.22
715.92	1509.35
716.11	1613.80
716.29	1529.83
716.47	1515.50
716.65	1527.78
716.84	1482.73
717.02	1607.66
717.20	1503.21
717.38	1525.74
717.57	1550.31
717.75	1486.83
717.93	1587.18
718.11	1519.59
718.30	1538.02
718.48	1552.36
718.66	1503.21
718.84	1589.22
719.03	1511.40
719.21	1441.77
719.39	1660.90
719.57	1527.78
719.75	1599.46
719.94	1468.39
720.12	1570.79
720.30	1544.17
720.48	1591.27
720.67	1529.83
720.85	1488.87
721.03	1468.39
721.21	1501.16
721.39	1671.14
721.58	1644.52
721.76	1552.36
721.94	1527.78
722.12	1519.59
722.30	1589.22
722.49	1527.78
722.67	1587.18
722.85	1495.02
723.03	1449.96
723.21	1501.16
723.40	1587.18
723.58	1636.33
723.76	1640.42
723.94	1648.61
724.12	1628.14
724.30	1720.29
724.49	1619.94
724.67	1574.89
724.85	1648.61
725.03	1513.45
725.21	1552.36
725.40	1603.56
725.58	1552.36
725.76	1603.56
725.94	1521.64
726.12	1497.07
726.30	1634.28
726.49	1619.94
726.67	1601.51
726.85	1538.02
727.03	1535.98
727.21	1687.53
727.39	2201.57
727.57	3266.51
727.76	4351.93
727.94	4732.86
728.12	5136.31
728.30	5105.59
728.48	4347.84
728.66	3522.51
728.84	3315.66
729.03	2895.83
729.21	2645.98
729.39	2217.95
729.57	2029.54
729.75	1867.75
729.93	1775.59
730.11	1630.18
730.30	1562.60
730.48	1615.85
730.66	1665.00
730.84	1636.33
731.02	1476.59
731.20	1533.93
731.38	1548.26
731.56	1554.41
731.74	1585.13
731.93	1497.07
732.11	1533.93
732.29	1495.02
732.47	1525.74
732.65	1535.98
732.83	1601.51
733.01	1538.02
733.19	1570.79
733.37	1585.13
733.56	1660.90
733.74	1437.67
733.92	1591.27
734.10	1525.74
734.28	1609.70
734.46	1501.16
734.64	1564.65
734.82	1611.75
735.00	1480.68
735.18	1490.92
735.36	1499.11
735.54	1486.83
735.73	1587.18
735.91	1503.21
736.09	1611.75
736.27	1591.27
736.45	1552.36
736.63	1466.35
736.81	1554.41
736.99	1628.14
737.17	1587.18
737.35	1535.98
737.53	1564.65
737.71	1554.41
737.89	1535.98
738.07	1419.24
738.25	1515.50
738.43	1466.35
738.61	1544.17
738.80	1521.64
738.98	1437.67
739.16	1521.64
739.34	1511.40
739.52	1583.08
739.70	1505.26
739.88	1607.66
740.06	1613.80
740.24	1458.15
740.42	1552.36
740.60	1376.24
740.78	1546.22
740.96	1488.87
741.14	1568.74
741.32	1482.73
741.50	1495.02
741.68	1687.53
741.86	1529.83
742.04	1525.74
742.22	1540.07
742.40	1509.35
742.58	1605.61
742.76	1509.35
742.94	1527.78
743.12	1484.78
743.30	1546.22
743.48	1476.59
743.66	1447.91
743.84	1578.98
744.02	1572.84
744.20	1572.84
744.38	1562.60
744.56	1437.67
744.74	1568.74
744.92	1531.88
745.10	1611.75
745.28	1593.32
745.46	1607.66
745.64	1556.46
745.82	1597.42
746.00	1562.60
746.18	1574.89
746.36	1445.87
746.54	1570.79
746.72	1615.85
746.90	1429.48
747.08	1615.85
747.26	1521.64
747.44	1578.98
747.62	1624.04
747.80	1509.35
747.98	1564.65
748.15	1601.51
748.33	1581.03
748.51	1617.90
748.69	1570.79
748.87	1523.69
749.05	1546.22
749.23	1581.03
749.41	1601.51
749.59	1558.50
749.77	1523.69
749.95	1505.26
750.13	1513.45
750.31	1552.36
750.49	1540.07
750.67	1568.74
750.85	1581.03
751.03	1523.69
751.20	1578.98
751.38	1538.02
751.56	1509.35
751.74	1542.12
751.92	1527.78
752.10	1570.79
752.28	1642.47
752.46	1556.46
752.64	1556.46
752.82	1546.22
753.00	1648.61
753.18	1556.46
753.35	1535.98
753.53	1542.12
753.71	1540.07
753.89	1570.79
754.07	1503.21
754.25	1574.89
754.43	1517.54
754.61	1597.42
754.79	1495.02
754.97	1576.94
755.14	1601.51
755.32	1515.50
755.50	1499.11
755.68	1550.31
755.86	1531.88
756.04	1538.02
756.22	1427.43
756.40	1456.11
756.57	1658.85
756.75	1472.49
756.93	1576.94
757.11	1538.02
757.29	1482.73
757.47	1503.21
757.65	1519.59
757.82	1464.30
758.00	1556.46
758.18	1552.36
758.36	1425.39
758.54	1558.50
758.72	1445.87
758.90	1601.51
759.07	1527.78
759.25	1503.21
759.43	1472.49
759.61	1449.96
759.79	1826.79
759.97	1515.50
760.15	1552.36
760.32	1503.21
760.50	1611.75
760.68	1589.22
760.86	1492.97
761.04	1587.18
761.22	1601.51
761.39	1521.64
761.57	1521.64
761.75	1581.03
761.93	1501.16
762.11	1488.87
762.28	1535.98
762.46	1468.39
762.64	1697.77
762.82	1468.39
763.00	1562.60
763.18	1656.81
763.35	1462.25
763.53	1581.03
763.71	1523.69
763.89	1486.83
764.07	1548.26
764.24	1550.31
764.42	1587.18
764.60	1497.07
764.78	1611.75
764.96	1619.94
765.13	1570.79
765.31	1617.90
765.49	1585.13
765.67	1445.87
765.84	1531.88
766.02	1525.74
766.20	1525.74
766.38	1560.55
766.56	1576.94
766.73	1544.17
766.91	1515.50
767.09	1474.54
767.27	1599.46
767.44	1513.45
767.62	1519.59
767.80	1601.51
767.98	1486.83
768.15	1525.74
768.33	1554.41
768.51	1603.56
768.69	1517.54
768.87	1492.97
769.04	1548.26
769.22	1673.19
769.40	1560.55
769.58	1681.38
769.75	1597.42
769.93	1583.08
770.11	1570.79
770.28	1552.36
770.46	1624.04
770.64	1589.22
770.82	1531.88
770.99	1490.92
771.17	1527.78
771.35	1468.39
771.53	1468.39
771.70	1484.78
771.88	1486.83
772.06	1507.30
772.23	1472.49
772.41	1578.98
772.59	1564.65
772.77	1497.07
772.94	1566.70
773.12	1523.69
773.30	1501.16
773.47	1552.36
773.65	1525.74
773.83	1607.66
774.01	1497.07
774.18	1470.44
774.36	1503.21
774.54	1456.11
774.71	1478.63
774.89	1527.78
775.07	1521.64
775.24	1472.49
775.42	1523.69
775.60	1589.22
775.78	1558.50
775.95	1466.35
776.13	1427.43
776.31	1464.30
776.48	1482.73
776.66	1603.56
776.84	1509.35
777.01	1480.68
777.19	1400.81
777.37	1626.09
777.54	1517.54
777.72	1648.61
777.90	1533.93
778.07	1533.93
778.25	1609.70
778.43	1591.27
778.60	1540.07
778.78	1576.94
778.96	1660.90
779.13	1511.40
779.31	1523.69
779.49	1558.50
779.66	1449.96
779.84	1531.88
780.01	1546.22
780.19	1472.49
780.37	1589.22
780.54	1646.57
780.72	1527.78
780.90	1466.35
781.07	1509.35
781.25	1544.17
781.43	1499.11
781.60	1503.21
781.78	1560.55
781.95	1617.90
782.13	1558.50
782.31	1572.84
782.48	1468.39
782.66	1591.27
782.83	1671.14
783.01	1544.17
783.19	1542.12
783.36	1554.41
783.54	1417.19
783.72	1603.56
783.89	1544.17
784.07	1564.65
784.24	1538.02
784.42	1593.32
784.60	1521.64
784.77	1542.12
784.95	1499.11
785.12	1576.94
785.30	1517.54
785.47	1568.74
785.65	1456.11
785.83	1511.40
786.00	1484.78
786.18	1566.70
786.35	1404.91
786.53	1523.69
786.71	1599.46
786.88	1521.64
787.06	1601.51
787.23	1505.26
787.41	1476.59
787.58	1564.65
787.76	1476.59
787.94	1476.59
788.11	1505.26
788.29	1521.64
788.46	1533.93
788.64	1460.20
788.81	1519.59
788.99	1507.30
789.16	1505.26
789.34	1542.12
789.52	1470.44
789.69	1517.54
789.87	1464.30
790.04	1468.39
790.22	1472.49
790.39	1675.24
790.57	1550.31
790.74	1501.16
790.92	1566.70
791.09	1505.26
791.27	1525.74
791.44	1548.26
791.62	1574.89
791.79	1640.42
791.97	1519.59
792.15	1669.09
792.32	1609.70
792.50	1560.55
792.67	1560.55
792.85	1576.94
793.02	1517.54
793.20	1636.33
793.37	1458.15
793.55	1552.36
793.72	1531.88
793.90	1478.63
794.07	1542.12
794.25	1472.49
794.42	1589.22
794.60	1527.78
794.77	1538.02
794.95	1570.79
795.12	1492.97
795.30	1556.46
795.47	1443.82
795.65	1615.85
795.82	1538.02
796.00	1482.73
796.17	1503.21
796.34	1511.40
796.52	1556.46
796.69	1607.66
796.87	1556.46
797.04	1597.42
797.22	1654.76
797.39	1540.07
797.57	1624.04
797.74	1568.74
797.92	1574.89
798.09	1552.36
798.27	1624.04
798.44	1548.26
798.62	1556.46
798.79	1552.36
798.96	1570.79
799.14	1554.41
799.31	1597.42
799.49	1519.59
799.66	1529.83
799.84	1492.97
800.01	1540.07
800.19	1478.63
800.36	1472.49
800.53	1525.74
800.71	1566.70
800.88	1552.36
801.06	1533.93
801.23	1501.16
801.41	1505.26
801.58	1480.68
801.75	1544.17
801.93	1501.16
802.10	1636.33
802.28	1599.46
802.45	1449.96
802.63	1587.18
802.80	1624.04
802.97	1409.00
803.15	1495.02
803.32	1476.59
803.50	1449.96
803.67	1488.87
803.84	1452.01
804.02	1437.67
804.19	1597.42
804.37	1449.96
804.54	1521.64
804.71	1521.64
804.89	1572.84
805.06	1497.07
805.24	1513.45
805.41	1525.74
805.58	1452.01
805.76	1624.04
805.93	1540.07
806.10	1576.94
806.28	1495.02
806.45	1558.50
806.63	1574.89
806.80	1548.26
806.97	1540.07
807.15	1560.55
807.32	1542.12
807.49	1501.16
807.67	1517.54
807.84	1585.13
808.01	1447.91
808.19	1550.31
808.36	1560.55
808.54	1560.55
808.71	1441.77
808.88	1585.13
809.06	1538.02
809.23	1570.79
809.40	1511.40
809.58	1574.89
809.75	1558.50
809.92	1396.71
810.10	1531.88
810.27	1533.93
810.44	1533.93
810.62	1560.55
810.79	1568.74
810.96	1495.02
811.14	1583.08
811.31	1615.85
811.48	1583.08
811.66	1533.93
811.83	1581.03
812.00	1511.40
812.18	1495.02
812.35	1665.00
812.52	1517.54
812.69	1492.97
812.87	1583.08
813.04	1574.89
813.21	1535.98
813.39	1521.64
813.56	1447.91
813.73	1585.13
813.91	1501.16
814.08	1503.21
814.25	1564.65
814.42	1492.97
814.60	1472.49
814.77	1533.93
814.94	1521.64
815.12	1546.22
815.29	1556.46
815.46	1460.20
815.63	1509.35
815.81	1525.74
815.98	1632.23
816.15	1529.83
816.33	1517.54
816.50	1419.24
816.67	1525.74
816.84	1515.50
817.02	1490.92
817.19	1546.22
817.36	1538.02
817.53	1527.78
817.71	1531.88
817.88	1533.93
818.05	1509.35
818.22	1552.36
818.40	1576.94
818.57	1550.31
818.74	1540.07
818.91	1511.40
819.09	1607.66
819.26	1576.94
819.43	1472.49
819.60	1572.84
819.78	1609.70
819.95	1667.05
820.12	1568.74
820.29	1556.46
820.47	1570.79
820.64	1484.78
820.81	1404.91
820.98	1456.11
821.15	1513.45
821.33	1607.66
821.50	1529.83
821.67	1593.32
821.84	1578.98
822.02	1560.55
822.19	1535.98
822.36	1521.64
822.53	1538.02
822.70	1445.87
822.88	1513.45
823.05	1632.23
823.22	1570.79
823.39	1525.74
823.56	1462.25
823.74	1613.80
823.91	1499.11
824.08	1531.88
824.25	1472.49
824.42	1593.32
824.60	1478.63
824.77	1513.45
824.94	1550.31
825.11	1568.74
825.28	1435.63
825.45	1572.84
825.63	1490.92
825.80	1578.98
825.97	1433.58
826.14	1581.03
826.31	1437.67
826.48	1550.31
826.66	1472.49
826.83	1478.63
827.00	1482.73
827.17	1501.16
827.34	1574.89
827.51	1519.59
827.69	1505.26
827.86	1535.98
828.03	1529.83
828.20	1521.64
828.37	1509.35
828.54	1583.08
828.71	1513.45
828.89	1593.32
829.06	1544.17
829.23	1628.14
829.40	1511.40
829.57	1587.18
829.74	1531.88
829.91	1531.88
830.09	1558.50
830.26	1562.60
830.43	1583.08
830.60	1488.87
830.77	1560.55
830.94	1572.84
831.11	1460.20
831.28	1568.74
831.46	1642.47
831.63	1495.02
831.80	1511.40
831.97	1476.59
832.14	1540.07
832.31	1550.31
832.48	1607.66
832.65	1556.46
832.82	1566.70
832.99	1480.68
833.17	1501.16
833.34	1652.71
833.51	1552.36
833.68	1497.07
833.85	1538.02
834.02	1445.87
834.19	1484.78
834.36	1466.35
834.53	1503.21
834.70	1517.54
834.87	1556.46
835.04	1515.50
835.22	1533.93
835.39	1548.26
835.56	1425.39
835.73	1525.74
835.90	1507.30
836.07	1474.54
836.24	1515.50
836.41	1554.41
836.58	1533.93
836.75	1562.60
836.92	1583.08
837.09	1517.54
837.26	1482.73
837.43	1548.26
837.60	1535.98
837.77	1454.06
837.94	1535.98
838.12	1607.66
838.29	1507.30
838.46	1501.16
838.63	1431.53
838.80	1654.76
838.97	1603.56
839.14	1490.92
839.31	1525.74
839.48	1607.66
839.65	1513.45
839.82	1636.33
839.99	1538.02
840.16	1501.16
840.33	1538.02
840.50	1550.31
840.67	1505.26
840.84	1466.35
841.01	1505.26
841.18	1492.97
841.35	1554.41
841.52	1558.50
841.69	1605.61
841.86	1566.70
842.03	1550.31
842.20	1617.90
842.37	1492.97
842.54	1406.95
842.71	1576.94
842.88	1511.40
843.05	1609.70
843.22	1558.50
843.39	1505.26
843.56	1538.02
843.73	1548.26
843.90	1638.38
844.07	1542.12
844.24	1495.02
844.41	1552.36
844.58	1570.79
844.75	1517.54
844.92	1562.60
845.09	1525.74
845.26	1495.02
845.43	1587.18
845.60	1544.17
845.77	1560.55
845.94	1515.50
846.10	1576.94
846.27	1431.53
846.44	1468.39
846.61	1495.02
846.78	1570.79
846.95	1601.51
847.12	1454.06
847.29	1464.30
847.46	1533.93
847.63	1554.41
847.80	1421.29
847.97	1474.54
848.14	1640.42
848.31	1486.83
848.48	1505.26
848.65	1560.55
848.82	1490.92
848.98	1632.23
849.15	1564.65
849.32	1593.32
849.49	1570.79
849.66	1529.83
849.83	1513.45
850.00	1425.39
850.17	1538.02
850.34	1499.11
850.51	1503.21
850.68	1560.55
850.85	1648.61
851.01	1585.13
851.18	1578.98
851.35	1472.49
851.52	1540.07
851.69	1501.16
851.86	1507.30
852.03	1490.92
852.20	1538.02
852.37	1585.13
852.53	1431.53
852.70	1540.07
852.87	1497.07
853.04	1583.08
853.21	1538.02
853.38	1576.94
853.55	1607.66
853.72	1564.65
853.89	1535.98
854.05	1501.16
854.22	1492.97
854.39	1542.12
854.56	1617.90
854.73	1601.51
854.90	1529.83
855.07	1488.87
855.23	1554.41
855.40	1499.11
855.57	1482.73
855.74	1427.43
855.91	1603.56
856.08	1495.02
856.25	1503.21
856.41	1521.64
856.58	1550.31
856.75	1544.17
856.92	1540.07
857.09	1634.28
857.26	1492.97
857.42	1531.88
857.59	1544.17
857.76	1570.79
857.93	1591.27
858.10	1581.03
858.27	1529.83
858.43	1607.66
858.60	1531.88
858.77	1538.02
858.94	1454.06
859.11	1548.26
859.27	1550.31
859.44	1492.97
859.61	1619.94
859.78	1544.17
859.95	1427.43
860.12	1478.63
860.28	1597.42
860.45	1630.18
860.62	1456.11
860.79	1587.18
860.95	1509.35
861.12	1556.46
861.29	1578.98
861.46	1460.20
861.63	1476.59
861.79	1515.50
861.96	1501.16
862.13	1486.83
862.30	1529.83
862.47	1458.15
862.63	1525.74
862.80	1538.02
862.97	1578.98
863.14	1572.84
863.30	1626.09
863.47	1531.88
863.64	1619.94
863.81	1521.64
863.97	1474.54
864.14	1578.98
864.31	1578.98
864.48	1521.64
864.65	1540.07
864.81	1599.46
864.98	1552.36
865.15	1525.74
865.32	1558.50
865.48	1630.18
865.65	1607.66
865.82	1566.70
865.98	1527.78
866.15	1656.81
866.32	1511.40
866.49	1523.69
866.65	1656.81
866.82	1515.50
866.99	1511.40
867.16	1593.32
867.32	1460.20
867.49	1499.11
867.66	1595.37
867.83	1529.83
867.99	1480.68
868.16	1470.44
868.33	1482.73
868.49	1529.83
868.66	1517.54
868.83	1624.04
868.99	1595.37
869.16	1507.30
869.33	1527.78
869.50	1593.32
869.66	1501.16
869.83	1533.93
870.00	1423.34
870.16	1599.46
870.33	1548.26
870.50	1632.23
870.66	1533.93
870.83	1544.17
871.00	1531.88
871.17	1566.70
871.33	1630.18
871.50	1568.74
871.67	1542.12
871.83	1495.02
872.00	1615.85
872.17	1492.97
872.33	1595.37
872.50	1611.75
872.67	1531.88
872.83	1554.41
873.00	1597.42
873.17	1535.98
873.33	1617.90
873.50	1576.94
873.67	1617.90
873.83	1458.15
874.00	1433.58
874.16	1601.51
874.33	1501.16
874.50	1550.31
874.66	1611.75
874.83	1542.12
875.00	1525.74
875.16	1599.46
875.33	1638.38
875.50	1382.38
875.66	1554.41
875.83	1538.02
875.99	1535.98
876.16	1505.26
876.33	1505.26
876.49	1517.54
876.66	1550.31
876.83	1464.30
876.99	1441.77
877.16	1488.87
877.32	1538.02
877.49	1599.46
877.66	1527.78
877.82	1568.74
877.99	1595.37
878.15	1531.88
878.32	1576.94
878.49	1587.18
878.65	1558.50
878.82	1550.31
878.98	1554.41
879.15	1576.94
879.32	1568.74
879.48	1601.51
879.65	1535.98
879.81	1511.40
879.98	1490.92
880.15	1535.98
880.31	1652.71
880.48	1581.03
880.64	1548.26
880.81	1542.12
880.97	1624.04
881.14	1583.08
881.31	1484.78
881.47	1673.19
881.64	1542.12
881.80	1460.20
881.97	1589.22
882.13	1615.85
882.30	1527.78
882.47	1525.74
882.63	1542.12
882.80	1531.88
882.96	1535.98
883.13	1609.70
883.29	1517.54
883.46	1576.94
883.62	1640.42
883.79	1521.64
883.95	1583.08
884.12	1499.11
884.29	1515.50
884.45	1591.27
884.62	1531.88
884.78	1587.18
884.95	1562.60
885.11	1507.30
885.28	1601.51
885.44	1484.78
885.61	1572.84
885.77	1531.88
885.94	1519.59
886.10	1529.83
886.27	1492.97
886.43	1613.80
886.60	1648.61
886.76	1521.64
886.93	1507.30
887.09	1535.98
887.26	1470.44
887.42	1511.40
887.59	1509.35
887.75	1718.25
887.92	1527.78
888.08	1556.46
888.25	1583.08
888.41	1572.84
888.58	1581.03
888.74	1431.53
888.91	1478.63
>>>>>End Processed Spectral Data<<<<<
