SpectraSuite Data File
++++++++++++++++++++++++++++++++++++
Date: Tue May 03 12:55:40 CEST 2016
User: root
Dark Spectrum Present: No
Reference Spectrum Present: No
Number of Sampled Component Spectra: 1
Spectrometers: USB4C02835
Integration Time (usec): 100000 (USB4C02835)
Spectra Averaged: 1 (USB4C02835)
Boxcar Smoothing: 0 (USB4C02835)
Correct for Electrical Dark: No (USB4C02835)
Strobe/Lamp Enabled: No (USB4C02835)
Correct for Detector Non-linearity: No (USB4C02835)
Correct for Stray Light: No (USB4C02835)
Number of Pixels in Processed Spectrum: 3648
>>>>>Begin Processed Spectral Data<<<<<
177.47	1310.70
177.69	1310.70
177.91	1310.70
178.13	1384.43
178.36	1345.52
178.58	1468.39
178.80	1560.55
179.02	1460.20
179.24	1521.64
179.46	1585.13
179.68	1615.85
179.90	1572.84
180.13	1542.12
180.35	1501.16
180.57	1515.50
180.79	1646.57
181.01	1468.39
181.23	1609.70
181.45	1542.12
181.67	1578.98
181.90	1658.85
182.12	1445.87
182.34	1456.11
182.56	1548.26
182.78	1468.39
183.00	1525.74
183.22	1527.78
183.44	1507.30
183.66	1665.00
183.89	1613.80
184.11	1472.49
184.33	1529.83
184.55	1566.70
184.77	1611.75
184.99	1497.07
185.21	1486.83
185.43	1677.29
185.65	1599.46
185.87	1538.02
186.10	1640.42
186.32	1615.85
186.54	1560.55
186.76	1607.66
186.98	1601.51
187.20	1519.59
187.42	1570.79
187.64	1509.35
187.86	1576.94
188.08	1568.74
188.30	1484.78
188.52	1538.02
188.75	1589.22
188.97	1529.83
189.19	1478.63
189.41	1503.21
189.63	1585.13
189.85	1460.20
190.07	1429.48
190.29	1550.31
190.51	1501.16
190.73	1566.70
190.95	1476.59
191.17	1525.74
191.39	1503.21
191.61	1484.78
191.84	1525.74
192.06	1505.26
192.28	1462.25
192.50	1578.98
192.72	1570.79
192.94	1525.74
193.16	1566.70
193.38	1542.12
193.60	1460.20
193.82	1472.49
194.04	1599.46
194.26	1497.07
194.48	1550.31
194.70	1484.78
194.92	1458.15
195.14	1538.02
195.36	1486.83
195.58	1587.18
195.80	1570.79
196.02	1509.35
196.24	1570.79
196.46	1564.65
196.69	1523.69
196.91	1601.51
197.13	1497.07
197.35	1470.44
197.57	1597.42
197.79	1558.50
198.01	1568.74
198.23	1576.94
198.45	1523.69
198.67	1429.48
198.89	1538.02
199.11	1593.32
199.33	1462.25
199.55	1400.81
199.77	1535.98
199.99	1591.27
200.21	1490.92
200.43	1617.90
200.65	1525.74
200.87	1411.05
201.09	1482.73
201.31	1445.87
201.53	1531.88
201.75	1650.66
201.97	1509.35
202.19	1548.26
202.41	1523.69
202.63	1695.72
202.85	1548.26
203.07	1583.08
203.29	1544.17
203.51	1458.15
203.73	1503.21
203.95	1669.09
204.17	1572.84
204.39	1576.94
204.61	1542.12
204.83	1458.15
205.05	1675.24
205.27	1595.37
205.49	1732.58
205.71	1595.37
205.93	1523.69
206.15	1529.83
206.37	1550.31
206.59	1480.68
206.81	1542.12
207.03	1486.83
207.25	1462.25
207.47	1564.65
207.69	1542.12
207.91	1566.70
208.13	1593.32
208.34	1544.17
208.56	1517.54
208.78	1548.26
209.00	1523.69
209.22	1538.02
209.44	1529.83
209.66	1519.59
209.88	1578.98
210.10	1462.25
210.32	1507.30
210.54	1595.37
210.76	1558.50
210.98	1486.83
211.20	1484.78
211.42	1519.59
211.64	1607.66
211.86	1556.46
212.08	1544.17
212.30	1640.42
212.52	1529.83
212.74	1556.46
212.96	1544.17
213.17	1583.08
213.39	1626.09
213.61	1591.27
213.83	1613.80
214.05	1517.54
214.27	1550.31
214.49	1427.43
214.71	1599.46
214.93	1585.13
215.15	1617.90
215.37	1566.70
215.59	1509.35
215.81	1615.85
216.03	1564.65
216.24	1587.18
216.46	1482.73
216.68	1578.98
216.90	1507.30
217.12	1599.46
217.34	1538.02
217.56	1517.54
217.78	1507.30
218.00	1591.27
218.22	1517.54
218.44	1538.02
218.66	1501.16
218.87	1589.22
219.09	1538.02
219.31	1640.42
219.53	1595.37
219.75	1550.31
219.97	1585.13
220.19	1607.66
220.41	1497.07
220.63	1562.60
220.85	1523.69
221.06	1535.98
221.28	1554.41
221.50	1589.22
221.72	1554.41
221.94	1583.08
222.16	1560.55
222.38	1552.36
222.60	1681.38
222.82	1517.54
223.03	1550.31
223.25	1454.06
223.47	1535.98
223.69	1687.53
223.91	1581.03
224.13	1505.26
224.35	1443.82
224.57	1595.37
224.78	1550.31
225.00	1521.64
225.22	1497.07
225.44	1484.78
225.66	1611.75
225.88	1515.50
226.10	1589.22
226.32	1482.73
226.53	1603.56
226.75	1449.96
226.97	1587.18
227.19	1589.22
227.41	1505.26
227.63	1513.45
227.85	1468.39
228.06	1499.11
228.28	1587.18
228.50	1619.94
228.72	1552.36
228.94	1560.55
229.16	1503.21
229.37	1474.54
229.59	1499.11
229.81	1583.08
230.03	1560.55
230.25	1445.87
230.47	1470.44
230.69	1427.43
230.90	1634.28
231.12	1507.30
231.34	1542.12
231.56	1599.46
231.78	1476.59
232.00	1535.98
232.21	1607.66
232.43	1505.26
232.65	1445.87
232.87	1519.59
233.09	1566.70
233.30	1538.02
233.52	1540.07
233.74	1433.58
233.96	1515.50
234.18	1492.97
234.40	1470.44
234.61	1613.80
234.83	1447.91
235.05	1525.74
235.27	1632.23
235.49	1585.13
235.70	1544.17
235.92	1591.27
236.14	1572.84
236.36	1583.08
236.58	1466.35
236.79	1562.60
237.01	1546.22
237.23	1511.40
237.45	1628.14
237.67	1505.26
237.88	1533.93
238.10	1648.61
238.32	1474.54
238.54	1507.30
238.76	1492.97
238.97	1564.65
239.19	1527.78
239.41	1615.85
239.63	1533.93
239.85	1529.83
240.06	1560.55
240.28	1540.07
240.50	1505.26
240.72	1587.18
240.93	1576.94
241.15	1626.09
241.37	1507.30
241.59	1544.17
241.81	1507.30
242.02	1566.70
242.24	1488.87
242.46	1632.23
242.68	1525.74
242.89	1470.44
243.11	1550.31
243.33	1519.59
243.55	1525.74
243.76	1535.98
243.98	1490.92
244.20	1509.35
244.42	1548.26
244.64	1550.31
244.85	1439.72
245.07	1519.59
245.29	1556.46
245.51	1503.21
245.72	1609.70
245.94	1603.56
246.16	1507.30
246.38	1578.98
246.59	1460.20
246.81	1550.31
247.03	1460.20
247.24	1476.59
247.46	1560.55
247.68	1599.46
247.90	1552.36
248.11	1515.50
248.33	1578.98
248.55	1525.74
248.77	1486.83
248.98	1546.22
249.20	1544.17
249.42	1511.40
249.64	1597.42
249.85	1511.40
250.07	1525.74
250.29	1587.18
250.50	1568.74
250.72	1533.93
250.94	1589.22
251.16	1564.65
251.37	1632.23
251.59	1556.46
251.81	1531.88
252.02	1535.98
252.24	1497.07
252.46	1638.38
252.68	1507.30
252.89	1521.64
253.11	1505.26
253.33	1613.80
253.54	1597.42
253.76	1484.78
253.98	1556.46
254.20	1533.93
254.41	1495.02
254.63	1581.03
254.85	1490.92
255.06	1554.41
255.28	1656.81
255.50	1525.74
255.71	1529.83
255.93	1513.45
256.15	1488.87
256.36	1525.74
256.58	1550.31
256.80	1529.83
257.02	1507.30
257.23	1601.51
257.45	1472.49
257.67	1621.99
257.88	1529.83
258.10	1499.11
258.32	1535.98
258.53	1542.12
258.75	1566.70
258.97	1460.20
259.18	1505.26
259.40	1556.46
259.62	1617.90
259.83	1546.22
260.05	1560.55
260.27	1734.63
260.48	1603.56
260.70	1501.16
260.92	1517.54
261.13	1480.68
261.35	1540.07
261.57	1595.37
261.78	1425.39
262.00	1497.07
262.22	1544.17
262.43	1560.55
262.65	1572.84
262.86	1544.17
263.08	1544.17
263.30	1626.09
263.51	1503.21
263.73	1517.54
263.95	1619.94
264.16	1519.59
264.38	1550.31
264.60	1599.46
264.81	1529.83
265.03	1540.07
265.25	1630.18
265.46	1529.83
265.68	1591.27
265.89	1615.85
266.11	1466.35
266.33	1542.12
266.54	1554.41
266.76	1519.59
266.98	1611.75
267.19	1621.99
267.41	1603.56
267.62	1507.30
267.84	1394.67
268.06	1550.31
268.27	1544.17
268.49	1595.37
268.70	1548.26
268.92	1603.56
269.14	1474.54
269.35	1458.15
269.57	1533.93
269.79	1540.07
270.00	1538.02
270.22	1691.62
270.43	1495.02
270.65	1452.01
270.87	1527.78
271.08	1544.17
271.30	1566.70
271.51	1533.93
271.73	1552.36
271.95	1554.41
272.16	1505.26
272.38	1529.83
272.59	1503.21
272.81	1535.98
273.02	1521.64
273.24	1566.70
273.46	1578.98
273.67	1462.25
273.89	1490.92
274.10	1535.98
274.32	1470.44
274.54	1460.20
274.75	1570.79
274.97	1605.61
275.18	1587.18
275.40	1574.89
275.61	1560.55
275.83	1607.66
276.05	1503.21
276.26	1517.54
276.48	1546.22
276.69	1515.50
276.91	1476.59
277.12	1519.59
277.34	1628.14
277.55	1560.55
277.77	1552.36
277.99	1509.35
278.20	1443.82
278.42	1501.16
278.63	1542.12
278.85	1535.98
279.06	1495.02
279.28	1583.08
279.49	1574.89
279.71	1533.93
279.93	1462.25
280.14	1564.65
280.36	1585.13
280.57	1576.94
280.79	1603.56
281.00	1492.97
281.22	1501.16
281.43	1550.31
281.65	1449.96
281.86	1458.15
282.08	1599.46
282.29	1669.09
282.51	1488.87
282.73	1529.83
282.94	1452.01
283.16	1521.64
283.37	1593.32
283.59	1599.46
283.80	1609.70
284.02	1521.64
284.23	1583.08
284.45	1521.64
284.66	1503.21
284.88	1564.65
285.09	1529.83
285.31	1615.85
285.52	1550.31
285.74	1472.49
285.95	1546.22
286.17	1593.32
286.38	1515.50
286.60	1490.92
286.81	1519.59
287.03	1505.26
287.24	1550.31
287.46	1511.40
287.67	1562.60
287.89	1665.00
288.10	1535.98
288.32	1507.30
288.53	1513.45
288.75	1484.78
288.96	1550.31
289.18	1552.36
289.39	1570.79
289.61	1638.38
289.82	1652.71
290.04	1558.50
290.25	1529.83
290.47	1533.93
290.68	1511.40
290.90	1589.22
291.11	1519.59
291.33	1513.45
291.54	1415.15
291.76	1591.27
291.97	1554.41
292.18	1507.30
292.40	1525.74
292.61	1466.35
292.83	1632.23
293.04	1517.54
293.26	1554.41
293.47	1544.17
293.69	1513.45
293.90	1570.79
294.12	1632.23
294.33	1525.74
294.55	1535.98
294.76	1558.50
294.97	1574.89
295.19	1554.41
295.40	1525.74
295.62	1556.46
295.83	1566.70
296.05	1564.65
296.26	1640.42
296.48	1468.39
296.69	1535.98
296.90	1501.16
297.12	1558.50
297.33	1540.07
297.55	1513.45
297.76	1527.78
297.98	1581.03
298.19	1492.97
298.41	1492.97
298.62	1478.63
298.83	1609.70
299.05	1554.41
299.26	1490.92
299.48	1484.78
299.69	1638.38
299.90	1521.64
300.12	1495.02
300.33	1581.03
300.55	1519.59
300.76	1564.65
300.98	1509.35
301.19	1587.18
301.40	1568.74
301.62	1501.16
301.83	1589.22
302.05	1499.11
302.26	1499.11
302.47	1564.65
302.69	1456.11
302.90	1548.26
303.12	1433.58
303.33	1583.08
303.54	1628.14
303.76	1509.35
303.97	1552.36
304.19	1619.94
304.40	1525.74
304.61	1464.30
304.83	1660.90
305.04	1583.08
305.26	1488.87
305.47	1503.21
305.68	1484.78
305.90	1411.05
306.11	1503.21
306.33	1472.49
306.54	1583.08
306.75	1492.97
306.97	1437.67
307.18	1452.01
307.39	1507.30
307.61	1597.42
307.82	1542.12
308.04	1540.07
308.25	1511.40
308.46	1585.13
308.68	1531.88
308.89	1464.30
309.10	1642.47
309.32	1503.21
309.53	1525.74
309.74	1599.46
309.96	1521.64
310.17	1492.97
310.39	1538.02
310.60	1597.42
310.81	1646.57
311.03	1488.87
311.24	1505.26
311.45	1572.84
311.67	1595.37
311.88	1599.46
312.09	1492.97
312.31	1527.78
312.52	1585.13
312.73	1566.70
312.95	1488.87
313.16	1548.26
313.37	1523.69
313.59	1568.74
313.80	1554.41
314.01	1632.23
314.23	1562.60
314.44	1535.98
314.65	1529.83
314.87	1558.50
315.08	1509.35
315.29	1499.11
315.51	1505.26
315.72	1476.59
315.93	1611.75
316.15	1572.84
316.36	1576.94
316.57	1497.07
316.79	1568.74
317.00	1632.23
317.21	1513.45
317.43	1468.39
317.64	1515.50
317.85	1519.59
318.07	1503.21
318.28	1646.57
318.49	1662.95
318.70	1740.77
318.92	1781.73
319.13	1634.28
319.34	1660.90
319.56	1624.04
319.77	1640.42
319.98	1613.80
320.20	1644.52
320.41	1652.71
320.62	1644.52
320.83	1558.50
321.05	1591.27
321.26	1570.79
321.47	1540.07
321.69	1640.42
321.90	1488.87
322.11	1587.18
322.32	1550.31
322.54	1591.27
322.75	1576.94
322.96	1624.04
323.18	1464.30
323.39	1476.59
323.60	1505.26
323.81	1607.66
324.03	1576.94
324.24	1564.65
324.45	1554.41
324.66	1503.21
324.88	1617.90
325.09	1609.70
325.30	1556.46
325.52	1535.98
325.73	1558.50
325.94	1468.39
326.15	1490.92
326.37	1501.16
326.58	1556.46
326.79	1578.98
327.00	1478.63
327.22	1533.93
327.43	1482.73
327.64	1503.21
327.85	1597.42
328.07	1558.50
328.28	1595.37
328.49	1488.87
328.70	1574.89
328.92	1460.20
329.13	1603.56
329.34	1488.87
329.55	1585.13
329.76	1546.22
329.98	1519.59
330.19	1609.70
330.40	1630.18
330.61	1593.32
330.83	1583.08
331.04	1429.48
331.25	1568.74
331.46	1607.66
331.68	1476.59
331.89	1552.36
332.10	1486.83
332.31	1431.53
332.52	1497.07
332.74	1562.60
332.95	1482.73
333.16	1507.30
333.37	1576.94
333.58	1529.83
333.80	1589.22
334.01	1437.67
334.22	1529.83
334.43	1521.64
334.64	1531.88
334.86	1439.72
335.07	1507.30
335.28	1566.70
335.49	1531.88
335.70	1472.49
335.92	1560.55
336.13	1621.99
336.34	1560.55
336.55	1470.44
336.76	1564.65
336.98	1513.45
337.19	1540.07
337.40	1583.08
337.61	1658.85
337.82	1413.10
338.04	1593.32
338.25	1417.19
338.46	1535.98
338.67	1497.07
338.88	1464.30
339.09	1574.89
339.31	1482.73
339.52	1533.93
339.73	1513.45
339.94	1523.69
340.15	1636.33
340.36	1552.36
340.58	1523.69
340.79	1492.97
341.00	1570.79
341.21	1492.97
341.42	1640.42
341.63	1505.26
341.85	1550.31
342.06	1589.22
342.27	1466.35
342.48	1630.18
342.69	1523.69
342.90	1564.65
343.12	1572.84
343.33	1552.36
343.54	1542.12
343.75	1564.65
343.96	1511.40
344.17	1554.41
344.38	1558.50
344.60	1509.35
344.81	1476.59
345.02	1554.41
345.23	1560.55
345.44	1617.90
345.65	1507.30
345.86	1552.36
346.07	1527.78
346.29	1521.64
346.50	1519.59
346.71	1476.59
346.92	1581.03
347.13	1652.71
347.34	1509.35
347.55	1507.30
347.76	1482.73
347.98	1546.22
348.19	1517.54
348.40	1556.46
348.61	1517.54
348.82	1621.99
349.03	1576.94
349.24	1538.02
349.45	1644.52
349.66	1521.64
349.88	1495.02
350.09	1452.01
350.30	1531.88
350.51	1513.45
350.72	1499.11
350.93	1624.04
351.14	1505.26
351.35	1542.12
351.56	1517.54
351.77	1554.41
351.99	1587.18
352.20	1669.09
352.41	1595.37
352.62	1531.88
352.83	1452.01
353.04	1615.85
353.25	1531.88
353.46	1521.64
353.67	1587.18
353.88	1456.11
354.09	1550.31
354.30	1531.88
354.52	1482.73
354.73	1665.00
354.94	1546.22
355.15	1540.07
355.36	1599.46
355.57	1542.12
355.78	1562.60
355.99	1517.54
356.20	1486.83
356.41	1558.50
356.62	1501.16
356.83	1505.26
357.04	1593.32
357.25	1540.07
357.46	1484.78
357.68	1513.45
357.89	1562.60
358.10	1527.78
358.31	1527.78
358.52	1560.55
358.73	1427.43
358.94	1538.02
359.15	1495.02
359.36	1589.22
359.57	1576.94
359.78	1466.35
359.99	1574.89
360.20	1570.79
360.41	1540.07
360.62	1513.45
360.83	1589.22
361.04	1544.17
361.25	1542.12
361.46	1624.04
361.67	1515.50
361.88	1595.37
362.09	1505.26
362.30	1574.89
362.51	1490.92
362.72	1581.03
362.93	1527.78
363.14	1667.05
363.35	1591.27
363.56	1484.78
363.78	1583.08
363.99	1558.50
364.20	1521.64
364.41	1578.98
364.62	1638.38
364.83	1501.16
365.04	1501.16
365.25	1570.79
365.46	1578.98
365.67	1472.49
365.88	1472.49
366.09	1533.93
366.30	1452.01
366.51	1556.46
366.72	1509.35
366.93	1578.98
367.14	1525.74
367.35	1597.42
367.56	1523.69
367.77	1650.66
367.98	1548.26
368.18	1527.78
368.39	1570.79
368.60	1521.64
368.81	1615.85
369.02	1578.98
369.23	1587.18
369.44	1456.11
369.65	1501.16
369.86	1574.89
370.07	1581.03
370.28	1482.73
370.49	1613.80
370.70	1533.93
370.91	1521.64
371.12	1484.78
371.33	1601.51
371.54	1478.63
371.75	1615.85
371.96	1454.06
372.17	1568.74
372.38	1548.26
372.59	1609.70
372.80	1609.70
373.01	1546.22
373.22	1525.74
373.43	1519.59
373.64	1578.98
373.85	1533.93
374.06	1626.09
374.26	1570.79
374.47	1527.78
374.68	1671.14
374.89	1480.68
375.10	1497.07
375.31	1484.78
375.52	1538.02
375.73	1554.41
375.94	1544.17
376.15	1605.61
376.36	1454.06
376.57	1576.94
376.78	1574.89
376.99	1535.98
377.20	1607.66
377.40	1425.39
377.61	1597.42
377.82	1533.93
378.03	1578.98
378.24	1587.18
378.45	1531.88
378.66	1554.41
378.87	1400.81
379.08	1527.78
379.29	1535.98
379.50	1656.81
379.71	1556.46
379.91	1560.55
380.12	1544.17
380.33	1572.84
380.54	1499.11
380.75	1521.64
380.96	1523.69
381.17	1607.66
381.38	1597.42
381.59	1626.09
381.80	1560.55
382.00	1648.61
382.21	1578.98
382.42	1701.86
382.63	1638.38
382.84	1521.64
383.05	1581.03
383.26	1599.46
383.47	1581.03
383.68	1574.89
383.88	1646.57
384.09	1576.94
384.30	1669.09
384.51	1581.03
384.72	1552.36
384.93	1495.02
385.14	1574.89
385.35	1652.71
385.55	1472.49
385.76	1648.61
385.97	1535.98
386.18	1558.50
386.39	1478.63
386.60	1578.98
386.81	1566.70
387.02	1552.36
387.22	1480.68
387.43	1677.29
387.64	1767.40
387.85	1767.40
388.06	3117.01
388.27	7253.91
388.48	10479.46
388.68	12121.93
388.89	13893.42
389.10	12803.90
389.31	9983.85
389.52	8769.40
389.73	7741.32
389.93	7337.87
390.14	6750.10
390.35	6115.23
390.56	5400.49
390.77	4564.92
390.98	3647.43
391.18	2746.33
391.39	2166.75
391.60	1734.63
391.81	1660.90
392.02	1591.27
392.23	1691.62
392.43	1535.98
392.64	1581.03
392.85	1538.02
393.06	1634.28
393.27	1595.37
393.47	1535.98
393.68	1581.03
393.89	1517.54
394.10	1607.66
394.31	1456.11
394.52	1583.08
394.72	1576.94
394.93	1615.85
395.14	1482.73
395.35	1556.46
395.56	1505.26
395.76	1570.79
395.97	1650.66
396.18	1685.48
396.39	1767.40
396.60	1964.00
396.80	1728.49
397.01	1632.23
397.22	1685.48
397.43	1617.90
397.64	1544.17
397.84	1654.76
398.05	1730.53
398.26	1585.13
398.47	1585.13
398.67	1697.77
398.88	1540.07
399.09	1576.94
399.30	1593.32
399.51	1634.28
399.71	1488.87
399.92	1581.03
400.13	1519.59
400.34	1509.35
400.54	1585.13
400.75	1665.00
400.96	1587.18
401.17	1613.80
401.37	1562.60
401.58	1511.40
401.79	1665.00
402.00	1822.69
402.21	1898.47
402.41	1941.47
402.62	1943.52
402.83	1988.58
403.04	1931.23
403.24	1914.85
403.45	1691.62
403.66	1834.98
403.87	1681.38
404.07	1665.00
404.28	1751.01
404.49	1714.15
404.70	1591.27
404.90	1628.14
405.11	1548.26
405.32	1591.27
405.52	1507.30
405.73	1554.41
405.94	1519.59
406.15	1566.70
406.35	1509.35
406.56	1470.44
406.77	1548.26
406.98	1570.79
407.18	1490.92
407.39	1585.13
407.60	1546.22
407.80	1603.56
408.01	1544.17
408.22	1589.22
408.43	1415.15
408.63	1546.22
408.84	1511.40
409.05	1578.98
409.25	1517.54
409.46	1476.59
409.67	1519.59
409.88	1509.35
410.08	1615.85
410.29	1488.87
410.50	1566.70
410.70	1529.83
410.91	1484.78
411.12	1546.22
411.32	1568.74
411.53	1576.94
411.74	1654.76
411.95	1632.23
412.15	1593.32
412.36	1644.52
412.57	1570.79
412.77	1638.38
412.98	1636.33
413.19	1519.59
413.39	1562.60
413.60	1527.78
413.81	1642.47
414.01	1484.78
414.22	1578.98
414.43	1556.46
414.63	1525.74
414.84	1527.78
415.05	1513.45
415.25	1480.68
415.46	1603.56
415.67	1523.69
415.87	1538.02
416.08	1665.00
416.29	1472.49
416.49	1566.70
416.70	1511.40
416.91	1556.46
417.11	1550.31
417.32	1601.51
417.53	1550.31
417.73	1499.11
417.94	1583.08
418.15	1560.55
418.35	1576.94
418.56	1611.75
418.77	1601.51
418.97	1558.50
419.18	1499.11
419.38	1419.24
419.59	1560.55
419.80	1613.80
420.00	1515.50
420.21	1552.36
420.42	1558.50
420.62	1560.55
420.83	1423.34
421.04	1535.98
421.24	1540.07
421.45	1576.94
421.65	1583.08
421.86	1525.74
422.07	1492.97
422.27	1515.50
422.48	1548.26
422.69	1505.26
422.89	1560.55
423.10	1499.11
423.30	1488.87
423.51	1517.54
423.72	1564.65
423.92	1523.69
424.13	1449.96
424.33	1558.50
424.54	1638.38
424.75	1529.83
424.95	1576.94
425.16	1503.21
425.36	1525.74
425.57	1556.46
425.78	1531.88
425.98	1546.22
426.19	1513.45
426.39	1454.06
426.60	1548.26
426.81	1638.38
427.01	1480.68
427.22	1495.02
427.42	1509.35
427.63	1531.88
427.83	1503.21
428.04	1632.23
428.25	1656.81
428.45	1593.32
428.66	1535.98
428.86	1601.51
429.07	1507.30
429.28	1562.60
429.48	1472.49
429.69	1503.21
429.89	1560.55
430.10	1492.97
430.30	1558.50
430.51	1636.33
430.71	1484.78
430.92	1552.36
431.13	1495.02
431.33	1656.81
431.54	1533.93
431.74	1589.22
431.95	1619.94
432.15	1542.12
432.36	1572.84
432.56	1527.78
432.77	1628.14
432.98	1578.98
433.18	1550.31
433.39	1550.31
433.59	1531.88
433.80	1669.09
434.00	1714.15
434.21	1529.83
434.41	1509.35
434.62	1691.62
434.82	1456.11
435.03	1533.93
435.23	1486.83
435.44	1462.25
435.64	1538.02
435.85	1630.18
436.06	1589.22
436.26	1521.64
436.47	1591.27
436.67	1501.16
436.88	1535.98
437.08	1568.74
437.29	1617.90
437.49	1583.08
437.70	1603.56
437.90	1560.55
438.11	1685.48
438.31	1699.81
438.52	1753.06
438.72	1726.44
438.93	1771.49
439.13	1648.61
439.34	1554.41
439.54	1548.26
439.75	1687.53
439.95	1673.19
440.16	1517.54
440.36	1624.04
440.57	1593.32
440.77	1587.18
440.98	1652.71
441.18	1607.66
441.39	1552.36
441.59	1497.07
441.80	1597.42
442.00	1535.98
442.21	1589.22
442.41	1449.96
442.62	1591.27
442.82	1542.12
443.02	1597.42
443.23	1566.70
443.43	1558.50
443.64	1667.05
443.84	1529.83
444.05	1603.56
444.25	1607.66
444.46	1521.64
444.66	1523.69
444.87	1626.09
445.07	1546.22
445.28	1624.04
445.48	1679.33
445.69	1544.17
445.89	1599.46
446.09	1640.42
446.30	1964.00
446.50	3117.01
446.71	4347.84
446.91	5312.43
447.12	5689.26
447.32	5468.08
447.53	4601.79
447.73	4126.66
447.93	3647.43
448.14	3364.81
448.34	3276.75
448.55	2869.20
448.75	2908.12
448.96	2617.30
449.16	2445.27
449.36	2263.01
449.57	1974.24
449.77	1775.59
449.98	1640.42
450.18	1566.70
450.39	1621.99
450.59	1542.12
450.79	1523.69
451.00	1609.70
451.20	1615.85
451.41	1511.40
451.61	1495.02
451.81	1519.59
452.02	1501.16
452.22	1540.07
452.43	1495.02
452.63	1552.36
452.84	1503.21
453.04	1507.30
453.24	1527.78
453.45	1497.07
453.65	1558.50
453.86	1540.07
454.06	1509.35
454.26	1576.94
454.47	1497.07
454.67	1552.36
454.87	1564.65
455.08	1527.78
455.28	1636.33
455.49	1542.12
455.69	1509.35
455.89	1636.33
456.10	1632.23
456.30	1658.85
456.51	1540.07
456.71	1517.54
456.91	1435.63
457.12	1583.08
457.32	1609.70
457.52	1413.10
457.73	1611.75
457.93	1509.35
458.14	1542.12
458.34	1478.63
458.54	1503.21
458.75	1533.93
458.95	1634.28
459.15	1523.69
459.36	1581.03
459.56	1533.93
459.76	1660.90
459.97	1556.46
460.17	1613.80
460.37	1574.89
460.58	1574.89
460.78	1538.02
460.99	1609.70
461.19	1554.41
461.39	1501.16
461.60	1568.74
461.80	1583.08
462.00	1486.83
462.21	1482.73
462.41	1503.21
462.61	1470.44
462.82	1439.72
463.02	1583.08
463.22	1460.20
463.43	1624.04
463.63	1591.27
463.83	1544.17
464.04	1640.42
464.24	1581.03
464.44	1468.39
464.64	1525.74
464.85	1621.99
465.05	1570.79
465.25	1576.94
465.46	1546.22
465.66	1642.47
465.86	1574.89
466.07	1533.93
466.27	1503.21
466.47	1445.87
466.68	1456.11
466.88	1615.85
467.08	1519.59
467.29	1550.31
467.49	1611.75
467.69	1574.89
467.89	1628.14
468.10	1517.54
468.30	1531.88
468.50	1605.61
468.71	1558.50
468.91	1535.98
469.11	1667.05
469.31	1585.13
469.52	1497.07
469.72	1683.43
469.92	1656.81
470.13	1564.65
470.33	1527.78
470.53	1732.58
470.73	2076.64
470.94	2365.40
471.14	2484.19
471.34	2625.50
471.54	2490.33
471.75	2154.46
471.95	2025.44
472.15	1931.23
472.36	1980.39
472.56	1980.39
472.76	1918.95
472.96	1873.89
473.17	1841.12
473.37	1736.68
473.57	1703.91
473.77	1689.57
473.98	1538.02
474.18	1595.37
474.38	1615.85
474.58	1564.65
474.79	1488.87
474.99	1546.22
475.19	1630.18
475.39	1523.69
475.60	1609.70
475.80	1540.07
476.00	1544.17
476.20	1495.02
476.41	1562.60
476.61	1585.13
476.81	1556.46
477.01	1423.34
477.21	1656.81
477.42	1718.25
477.62	1505.26
477.82	1572.84
478.02	1497.07
478.23	1591.27
478.43	1484.78
478.63	1544.17
478.83	1521.64
479.03	1480.68
479.24	1591.27
479.44	1742.82
479.64	1519.59
479.84	1452.01
480.04	1548.26
480.25	1533.93
480.45	1509.35
480.65	1562.60
480.85	1671.14
481.06	1529.83
481.26	1521.64
481.46	1587.18
481.66	1538.02
481.86	1509.35
482.06	1613.80
482.27	1544.17
482.47	1503.21
482.67	1519.59
482.87	1511.40
483.07	1638.38
483.28	1449.96
483.48	1470.44
483.68	1523.69
483.88	1548.26
484.08	1439.72
484.29	1503.21
484.49	1513.45
484.69	1560.55
484.89	1642.47
485.09	1595.37
485.29	1615.85
485.50	1605.61
485.70	1503.21
485.90	1605.61
486.10	1529.83
486.30	1540.07
486.50	1617.90
486.71	1560.55
486.91	1587.18
487.11	1587.18
487.31	1509.35
487.51	1552.36
487.71	1482.73
487.91	1542.12
488.12	1525.74
488.32	1392.62
488.52	1533.93
488.72	1511.40
488.92	1527.78
489.12	1531.88
489.32	1613.80
489.53	1630.18
489.73	1556.46
489.93	1624.04
490.13	1492.97
490.33	1472.49
490.53	1546.22
490.73	1556.46
490.94	1470.44
491.14	1589.22
491.34	1726.44
491.54	2095.07
491.74	2664.41
491.94	3063.76
492.14	3332.05
492.34	3209.17
492.54	2760.66
492.75	2435.03
492.95	2418.65
493.15	2217.95
493.35	2170.85
493.55	2176.99
493.75	2021.35
493.95	2017.25
494.15	1841.12
494.35	1708.01
494.56	1699.81
494.76	1665.00
494.96	1632.23
495.16	1632.23
495.36	1597.42
495.56	1572.84
495.76	1587.18
495.96	1527.78
496.16	1544.17
496.36	1656.81
496.56	1517.54
496.77	1511.40
496.97	1484.78
497.17	1519.59
497.37	1488.87
497.57	1519.59
497.77	1554.41
497.97	1488.87
498.17	1531.88
498.37	1464.30
498.57	1513.45
498.77	1515.50
498.97	1554.41
499.17	1603.56
499.38	1562.60
499.58	1617.90
499.78	1617.90
499.98	1636.33
500.18	1568.74
500.38	1583.08
500.58	1726.44
500.78	2695.13
500.98	5062.58
501.18	6690.71
501.38	8210.31
501.58	8646.52
501.78	7923.59
501.98	6125.47
502.18	5306.29
502.38	4571.07
502.58	4181.95
502.78	3966.92
502.98	3798.98
503.18	3542.99
503.38	3325.90
503.59	2975.70
503.79	2846.68
503.99	2602.97
504.19	2324.44
504.39	2127.84
504.59	2017.25
504.79	2041.82
504.99	1933.28
505.19	1798.12
505.39	1734.63
505.59	1851.36
505.79	1687.53
505.99	1695.72
506.19	1660.90
506.39	1693.67
506.59	1511.40
506.79	1613.80
506.99	1634.28
507.19	1554.41
507.39	1632.23
507.59	1486.83
507.79	1507.30
507.99	1617.90
508.19	1480.68
508.39	1490.92
508.59	1675.24
508.79	1609.70
508.99	1593.32
509.19	1480.68
509.39	1611.75
509.59	1513.45
509.79	1460.20
509.99	1572.84
510.19	1597.42
510.39	1554.41
510.59	1515.50
510.79	1505.26
510.99	1517.54
511.19	1538.02
511.39	1679.33
511.59	1509.35
511.79	1626.09
511.99	1570.79
512.19	1650.66
512.38	1578.98
512.58	1509.35
512.78	1540.07
512.98	1550.31
513.18	1658.85
513.38	1505.26
513.58	1533.93
513.78	1472.49
513.98	1517.54
514.18	1474.54
514.38	1533.93
514.58	1492.97
514.78	1574.89
514.98	1488.87
515.18	1495.02
515.38	1447.91
515.58	1650.66
515.78	1501.16
515.98	1548.26
516.18	1560.55
516.38	1429.48
516.57	1452.01
516.77	1525.74
516.97	1591.27
517.17	1513.45
517.37	1472.49
517.57	1632.23
517.77	1509.35
517.97	1501.16
518.17	1589.22
518.37	1495.02
518.57	1542.12
518.77	1511.40
518.97	1519.59
519.16	1556.46
519.36	1599.46
519.56	1499.11
519.76	1544.17
519.96	1587.18
520.16	1591.27
520.36	1456.11
520.56	1550.31
520.76	1538.02
520.96	1542.12
521.16	1554.41
521.35	1607.66
521.55	1574.89
521.75	1513.45
521.95	1525.74
522.15	1525.74
522.35	1439.72
522.55	1511.40
522.75	1585.13
522.95	1556.46
523.14	1454.06
523.34	1523.69
523.54	1533.93
523.74	1558.50
523.94	1548.26
524.14	1484.78
524.34	1550.31
524.54	1626.09
524.73	1525.74
524.93	1578.98
525.13	1544.17
525.33	1533.93
525.53	1644.52
525.73	1488.87
525.93	1527.78
526.13	1585.13
526.32	1562.60
526.52	1658.85
526.72	1556.46
526.92	1578.98
527.12	1525.74
527.32	1452.01
527.52	1546.22
527.71	1529.83
527.91	1519.59
528.11	1570.79
528.31	1480.68
528.51	1476.59
528.71	1585.13
528.90	1474.54
529.10	1630.18
529.30	1658.85
529.50	1497.07
529.70	1540.07
529.90	1531.88
530.09	1576.94
530.29	1503.21
530.49	1548.26
530.69	1632.23
530.89	1540.07
531.09	1638.38
531.28	1525.74
531.48	1642.47
531.68	1533.93
531.88	1533.93
532.08	1538.02
532.28	1468.39
532.47	1581.03
532.67	1644.52
532.87	1583.08
533.07	1535.98
533.27	1572.84
533.46	1574.89
533.66	1552.36
533.86	1603.56
534.06	1564.65
534.26	1574.89
534.45	1488.87
534.65	1634.28
534.85	1550.31
535.05	1454.06
535.25	1562.60
535.44	1474.54
535.64	1656.81
535.84	1585.13
536.04	1527.78
536.24	1503.21
536.43	1480.68
536.63	1560.55
536.83	1472.49
537.03	1544.17
537.22	1507.30
537.42	1511.40
537.62	1591.27
537.82	1542.12
538.02	1572.84
538.21	1527.78
538.41	1650.66
538.61	1568.74
538.81	1521.64
539.00	1644.52
539.20	1466.35
539.40	1478.63
539.60	1527.78
539.79	1570.79
539.99	1513.45
540.19	1511.40
540.39	1540.07
540.58	1497.07
540.78	1615.85
540.98	1542.12
541.18	1552.36
541.37	1519.59
541.57	1476.59
541.77	1574.89
541.97	1581.03
542.16	1497.07
542.36	1535.98
542.56	1550.31
542.76	1619.94
542.95	1669.09
543.15	1519.59
543.35	1572.84
543.54	1550.31
543.74	1538.02
543.94	1646.57
544.14	1570.79
544.33	1583.08
544.53	1486.83
544.73	1591.27
544.93	1529.83
545.12	1544.17
545.32	1574.89
545.52	1478.63
545.71	1492.97
545.91	1544.17
546.11	1529.83
546.30	1560.55
546.50	1566.70
546.70	1552.36
546.90	1476.59
547.09	1513.45
547.29	1462.25
547.49	1548.26
547.68	1550.31
547.88	1484.78
548.08	1581.03
548.27	1927.14
548.47	1505.26
548.67	1511.40
548.87	1511.40
549.06	1476.59
549.26	1554.41
549.46	1533.93
549.65	1531.88
549.85	1570.79
550.05	1587.18
550.24	1542.12
550.44	1495.02
550.64	1574.89
550.83	1456.11
551.03	1599.46
551.23	1603.56
551.42	1552.36
551.62	1583.08
551.82	1538.02
552.01	1538.02
552.21	1605.61
552.41	1484.78
552.60	1619.94
552.80	1509.35
553.00	1509.35
553.19	1535.98
553.39	1665.00
553.59	1540.07
553.78	1568.74
553.98	1542.12
554.17	1513.45
554.37	1572.84
554.57	1538.02
554.76	1538.02
554.96	1468.39
555.16	1587.18
555.35	1519.59
555.55	1583.08
555.75	1607.66
555.94	1607.66
556.14	1427.43
556.33	1554.41
556.53	1503.21
556.73	1527.78
556.92	1628.14
557.12	1574.89
557.32	1595.37
557.51	1642.47
557.71	1484.78
557.90	1699.81
558.10	1589.22
558.30	1574.89
558.49	1544.17
558.69	1544.17
558.88	1521.64
559.08	1527.78
559.28	1542.12
559.47	1546.22
559.67	1570.79
559.86	1603.56
560.06	1497.07
560.26	1593.32
560.45	1564.65
560.65	1527.78
560.84	1605.61
561.04	1490.92
561.24	1495.02
561.43	1517.54
561.63	1621.99
561.82	1574.89
562.02	1601.51
562.22	1599.46
562.41	1490.92
562.61	1521.64
562.80	1515.50
563.00	1640.42
563.19	1499.11
563.39	1601.51
563.59	1509.35
563.78	1431.53
563.98	1490.92
564.17	1531.88
564.37	1525.74
564.56	1552.36
564.76	1454.06
564.96	1607.66
565.15	1554.41
565.35	1589.22
565.54	1517.54
565.74	1548.26
565.93	1595.37
566.13	1533.93
566.32	1646.57
566.52	1558.50
566.71	1595.37
566.91	1560.55
567.11	1437.67
567.30	1476.59
567.50	1613.80
567.69	1654.76
567.89	1531.88
568.08	1509.35
568.28	1617.90
568.47	1476.59
568.67	1605.61
568.86	1583.08
569.06	1531.88
569.25	1558.50
569.45	1540.07
569.64	1558.50
569.84	1492.97
570.04	1665.00
570.23	1509.35
570.43	1497.07
570.62	1531.88
570.82	1669.09
571.01	1564.65
571.21	1423.34
571.40	1578.98
571.60	1603.56
571.79	1581.03
571.99	1554.41
572.18	1462.25
572.38	1531.88
572.57	1509.35
572.77	1531.88
572.96	1671.14
573.16	1568.74
573.35	1542.12
573.55	1570.79
573.74	1552.36
573.94	1501.16
574.13	1447.91
574.33	1544.17
574.52	1613.80
574.71	1554.41
574.91	1603.56
575.10	1574.89
575.30	1533.93
575.49	1507.30
575.69	1521.64
575.88	1546.22
576.08	1597.42
576.27	1730.53
576.47	1626.09
576.66	1679.33
576.86	1699.81
577.05	1591.27
577.25	1613.80
577.44	1658.85
577.64	1634.28
577.83	1636.33
578.02	1613.80
578.22	1699.81
578.41	1591.27
578.61	1462.25
578.80	1523.69
579.00	1603.56
579.19	1587.18
579.39	1603.56
579.58	1585.13
579.77	1478.63
579.97	1679.33
580.16	1652.71
580.36	1650.66
580.55	1665.00
580.75	1529.83
580.94	1597.42
581.13	1714.15
581.33	1630.18
581.52	1578.98
581.72	1677.29
581.91	1740.77
582.11	1542.12
582.30	1558.50
582.49	1542.12
582.69	1624.04
582.88	1615.85
583.08	1521.64
583.27	1621.99
583.47	1591.27
583.66	1578.98
583.85	1558.50
584.05	1552.36
584.24	1595.37
584.44	1650.66
584.63	1662.95
584.82	1642.47
585.02	1763.30
585.21	1722.34
585.41	1794.02
585.60	1742.82
585.79	1822.69
585.99	1771.49
586.18	1710.05
586.37	2066.40
586.57	3131.34
586.76	9363.31
586.96	27180.64
587.15	43033.97
587.34	53748.94
587.54	60660.83
587.73	59227.26
587.93	43277.68
588.12	31774.24
588.31	25515.64
588.51	21722.80
588.70	19644.12
588.89	18142.96
589.09	16752.38
589.28	15159.06
589.47	12889.92
589.67	11077.46
589.86	8875.90
590.06	6748.06
590.25	4919.22
590.44	3708.87
590.64	2877.40
590.83	2383.84
591.02	2078.69
591.22	1894.37
591.41	1826.79
591.60	1669.09
591.80	1708.01
591.99	1632.23
592.18	1603.56
592.38	1691.62
592.57	1558.50
592.76	1570.79
592.96	1667.05
593.15	1617.90
593.34	1566.70
593.54	1556.46
593.73	1642.47
593.92	1591.27
594.12	1617.90
594.31	1665.00
594.50	1605.61
594.70	1644.52
594.89	1703.91
595.08	1507.30
595.28	1544.17
595.47	1687.53
595.66	1630.18
595.86	1505.26
596.05	1511.40
596.24	1574.89
596.43	1648.61
596.63	1609.70
596.82	1593.32
597.01	1538.02
597.21	1667.05
597.40	1593.32
597.59	1597.42
597.79	1656.81
597.98	1589.22
598.17	1662.95
598.36	1558.50
598.56	1570.79
598.75	1488.87
598.94	1546.22
599.14	1574.89
599.33	1542.12
599.52	1550.31
599.71	1615.85
599.91	1615.85
600.10	1527.78
600.29	1548.26
600.48	1601.51
600.68	1617.90
600.87	1609.70
601.06	1531.88
601.26	1611.75
601.45	1671.14
601.64	1558.50
601.83	1591.27
602.03	1511.40
602.22	1458.15
602.41	1638.38
602.60	1634.28
602.80	1628.14
602.99	1619.94
603.18	1544.17
603.37	1626.09
603.57	1519.59
603.76	1523.69
603.95	1544.17
604.14	1572.84
604.34	1535.98
604.53	1513.45
604.72	1515.50
604.91	1566.70
605.10	1554.41
605.30	1497.07
605.49	1746.92
605.68	1587.18
605.87	1626.09
606.07	1431.53
606.26	1538.02
606.45	1591.27
606.64	1521.64
606.84	1529.83
607.03	1548.26
607.22	1699.81
607.41	1495.02
607.60	1583.08
607.80	1681.38
607.99	1513.45
608.18	1585.13
608.37	1583.08
608.56	1560.55
608.76	1574.89
608.95	1642.47
609.14	1650.66
609.33	1628.14
609.52	1656.81
609.72	1667.05
609.91	1658.85
610.10	1619.94
610.29	1617.90
610.48	1605.61
610.68	1681.38
610.87	1456.11
611.06	1587.18
611.25	1492.97
611.44	1640.42
611.63	1523.69
611.83	1624.04
612.02	1560.55
612.21	1568.74
612.40	1492.97
612.59	1525.74
612.79	1409.00
612.98	1609.70
613.17	1540.07
613.36	1519.59
613.55	1667.05
613.74	1597.42
613.93	1695.72
614.13	1742.82
614.32	1785.83
614.51	1732.58
614.70	1740.77
614.89	1648.61
615.08	1593.32
615.28	1834.98
615.47	1595.37
615.66	1656.81
615.85	1630.18
616.04	1665.00
616.23	1644.52
616.42	1628.14
616.62	1550.31
616.81	1535.98
617.00	1585.13
617.19	1591.27
617.38	1558.50
617.57	1570.79
617.76	1517.54
617.95	1576.94
618.15	1578.98
618.34	1609.70
618.53	1490.92
618.72	1703.91
618.91	1609.70
619.10	1611.75
619.29	1548.26
619.48	1552.36
619.68	1495.02
619.87	1527.78
620.06	1566.70
620.25	1654.76
620.44	1517.54
620.63	1546.22
620.82	1521.64
621.01	1513.45
621.20	1531.88
621.39	1587.18
621.59	1632.23
621.78	1460.20
621.97	1556.46
622.16	1617.90
622.35	1546.22
622.54	1503.21
622.73	1652.71
622.92	1535.98
623.11	1570.79
623.30	1525.74
623.49	1482.73
623.68	1566.70
623.88	1560.55
624.07	1603.56
624.26	1570.79
624.45	1542.12
624.64	1556.46
624.83	1619.94
625.02	1564.65
625.21	1560.55
625.40	1560.55
625.59	1574.89
625.78	1585.13
625.97	1599.46
626.16	1673.19
626.35	1619.94
626.54	1578.98
626.74	1765.35
626.93	1597.42
627.12	1517.54
627.31	1685.48
627.50	1619.94
627.69	1558.50
627.88	1499.11
628.07	1544.17
628.26	1509.35
628.45	1638.38
628.64	1464.30
628.83	1583.08
629.02	1517.54
629.21	1589.22
629.40	1583.08
629.59	1535.98
629.78	1574.89
629.97	1564.65
630.16	1642.47
630.35	1550.31
630.54	1540.07
630.73	1482.73
630.92	1574.89
631.11	1552.36
631.30	1525.74
631.49	1589.22
631.68	1519.59
631.87	1578.98
632.06	1458.15
632.25	1597.42
632.44	1511.40
632.63	1601.51
632.82	1601.51
633.01	1585.13
633.20	1650.66
633.39	1609.70
633.58	1574.89
633.77	1597.42
633.96	1669.09
634.15	1589.22
634.34	1568.74
634.53	1640.42
634.72	1605.61
634.91	1564.65
635.10	1511.40
635.29	1574.89
635.48	1593.32
635.67	1564.65
635.86	1501.16
636.05	1619.94
636.24	1546.22
636.43	1540.07
636.62	1521.64
636.81	1421.29
637.00	1611.75
637.19	1521.64
637.38	1533.93
637.57	1509.35
637.76	1665.00
637.95	1714.15
638.14	1675.24
638.33	1630.18
638.52	1667.05
638.71	1542.12
638.89	1480.68
639.08	1656.81
639.27	1593.32
639.46	1650.66
639.65	1947.62
639.84	2029.54
640.03	2207.71
640.22	2222.05
640.41	2195.42
640.60	1941.47
640.79	1923.04
640.98	1765.35
641.17	1785.83
641.36	1746.92
641.55	1759.21
641.74	1572.84
641.92	1617.90
642.11	1548.26
642.30	1603.56
642.49	1585.13
642.68	1619.94
642.87	1554.41
643.06	1495.02
643.25	1529.83
643.44	1546.22
643.63	1566.70
643.82	1552.36
644.00	1589.22
644.19	1505.26
644.38	1447.91
644.57	1511.40
644.76	1476.59
644.95	1540.07
645.14	1550.31
645.33	1552.36
645.52	1587.18
645.71	1509.35
645.89	1495.02
646.08	1488.87
646.27	1538.02
646.46	1605.61
646.65	1527.78
646.84	1542.12
647.03	1538.02
647.22	1558.50
647.40	1521.64
647.59	1509.35
647.78	1431.53
647.97	1509.35
648.16	1492.97
648.35	1509.35
648.54	1597.42
648.73	1599.46
648.91	1550.31
649.10	1533.93
649.29	1523.69
649.48	1540.07
649.67	1501.16
649.86	1558.50
650.05	1593.32
650.23	1751.01
650.42	1652.71
650.61	1751.01
650.80	1746.92
650.99	1808.36
651.18	1673.19
651.36	1634.28
651.55	1523.69
651.74	1634.28
651.93	1533.93
652.12	1603.56
652.31	1597.42
652.49	1591.27
652.68	1562.60
652.87	1597.42
653.06	1548.26
653.25	1675.24
653.44	1562.60
653.62	1562.60
653.81	1548.26
654.00	1538.02
654.19	1605.61
654.38	1732.58
654.56	1511.40
654.75	1535.98
654.94	1548.26
655.13	1533.93
655.32	1554.41
655.51	1583.08
655.69	1523.69
655.88	1531.88
656.07	1456.11
656.26	1591.27
656.45	1525.74
656.63	1650.66
656.82	1572.84
657.01	1507.30
657.20	1490.92
657.38	1619.94
657.57	1464.30
657.76	1570.79
657.95	1531.88
658.14	1535.98
658.32	1576.94
658.51	1482.73
658.70	1542.12
658.89	1595.37
659.08	1611.75
659.26	1665.00
659.45	1595.37
659.64	1632.23
659.83	1589.22
660.01	1716.20
660.20	1619.94
660.39	1685.48
660.58	1513.45
660.76	1566.70
660.95	1507.30
661.14	1630.18
661.33	1544.17
661.51	1529.83
661.70	1552.36
661.89	1601.51
662.08	1478.63
662.26	1454.06
662.45	1568.74
662.64	1591.27
662.83	1595.37
663.01	1472.49
663.20	1542.12
663.39	1636.33
663.58	1523.69
663.76	1566.70
663.95	1609.70
664.14	1472.49
664.32	1597.42
664.51	1509.35
664.70	1423.34
664.89	1626.09
665.07	1542.12
665.26	1546.22
665.45	1509.35
665.64	1564.65
665.82	1507.30
666.01	1589.22
666.20	1583.08
666.38	1619.94
666.57	1718.25
666.76	1853.41
666.95	2883.54
667.13	7425.93
667.32	15398.68
667.51	19857.10
667.69	23449.24
667.88	25097.86
668.07	21978.80
668.25	15335.19
668.44	12271.43
668.63	10112.87
668.81	8478.59
669.00	7694.22
669.19	7147.41
669.38	6350.75
669.56	5533.61
669.75	4925.36
669.94	4112.32
670.12	3340.24
670.31	2830.29
670.50	2441.18
670.68	2131.94
670.87	1869.80
671.06	1791.97
671.24	1712.10
671.43	1726.44
671.62	1718.25
671.80	1652.71
671.99	1654.76
672.18	1566.70
672.36	1681.38
672.55	1501.16
672.74	1605.61
672.92	1607.66
673.11	1595.37
673.29	1554.41
673.48	1624.04
673.67	1443.82
673.85	1585.13
674.04	1511.40
674.23	1673.19
674.41	1638.38
674.60	1533.93
674.79	1560.55
674.97	1542.12
675.16	1503.21
675.34	1628.14
675.53	1535.98
675.72	1564.65
675.90	1748.97
676.09	1546.22
676.28	1505.26
676.46	1404.91
676.65	1568.74
676.83	1513.45
677.02	1576.94
677.21	1542.12
677.39	1552.36
677.58	1540.07
677.77	1521.64
677.95	1535.98
678.14	1495.02
678.32	1574.89
678.51	1517.54
678.70	1640.42
678.88	1488.87
679.07	1562.60
679.25	1507.30
679.44	1624.04
679.63	1497.07
679.81	1419.24
680.00	1503.21
680.18	1562.60
680.37	1589.22
680.55	1581.03
680.74	1591.27
680.93	1544.17
681.11	1548.26
681.30	1486.83
681.48	1550.31
681.67	1519.59
681.85	1478.63
682.04	1468.39
682.23	1566.70
682.41	1615.85
682.60	1476.59
682.78	1621.99
682.97	1589.22
683.15	1599.46
683.34	1626.09
683.53	1497.07
683.71	1480.68
683.90	1593.32
684.08	1556.46
684.27	1525.74
684.45	1611.75
684.64	1609.70
684.82	1374.19
685.01	1519.59
685.19	1474.54
685.38	1642.47
685.57	1503.21
685.75	1468.39
685.94	1521.64
686.12	1517.54
686.31	1486.83
686.49	1568.74
686.68	1458.15
686.86	1535.98
687.05	1552.36
687.23	1626.09
687.42	1552.36
687.60	1429.48
687.79	1521.64
687.97	1578.98
688.16	1605.61
688.34	1615.85
688.53	1386.47
688.71	1587.18
688.90	1619.94
689.08	1421.29
689.27	1443.82
689.45	1560.55
689.64	1595.37
689.82	1533.93
690.01	1583.08
690.19	1544.17
690.38	1564.65
690.56	1613.80
690.75	1517.54
690.93	1587.18
691.12	1521.64
691.30	1560.55
691.49	1495.02
691.67	1517.54
691.86	1570.79
692.04	1503.21
692.23	1533.93
692.41	1550.31
692.60	1689.57
692.78	1675.24
692.97	1587.18
693.15	1662.95
693.34	1726.44
693.52	1564.65
693.71	1542.12
693.89	1503.21
694.08	1474.54
694.26	1578.98
694.44	1611.75
694.63	1626.09
694.81	1531.88
695.00	1630.18
695.18	1636.33
695.37	1613.80
695.55	1646.57
695.74	1509.35
695.92	1593.32
696.10	1572.84
696.29	1474.54
696.47	1490.92
696.66	1484.78
696.84	1478.63
697.03	1550.31
697.21	1638.38
697.40	2045.92
697.58	1581.03
697.76	1505.26
697.95	1486.83
698.13	1441.77
698.32	1501.16
698.50	1478.63
698.68	1550.31
698.87	1521.64
699.05	1626.09
699.24	1597.42
699.42	1533.93
699.61	1572.84
699.79	1554.41
699.97	1544.17
700.16	1503.21
700.34	1525.74
700.53	1544.17
700.71	1667.05
700.89	1521.64
701.08	1492.97
701.26	1542.12
701.45	1906.66
701.63	1544.17
701.81	1521.64
702.00	1585.13
702.18	1486.83
702.37	1490.92
702.55	1650.66
702.73	1691.62
702.92	1705.96
703.10	1675.24
703.28	1783.78
703.47	1773.54
703.65	1708.01
703.84	1730.53
704.02	1636.33
704.20	1722.34
704.39	1591.27
704.57	1593.32
704.75	1585.13
704.94	1636.33
705.12	1634.28
705.30	1681.38
705.49	1892.32
705.67	2828.24
705.86	7233.43
706.04	14077.74
706.22	18286.31
706.41	21268.16
706.59	22462.12
706.77	20553.41
706.96	14604.07
707.14	11773.77
707.32	9498.48
707.51	8550.27
707.69	7669.64
707.87	6719.39
708.06	5791.66
708.24	4685.75
708.42	3743.69
708.61	2895.83
708.79	2322.40
708.97	2052.06
709.16	1816.55
709.34	1634.28
709.52	1673.19
709.71	1675.24
709.89	1630.18
710.07	1552.36
710.26	1542.12
710.44	1566.70
710.62	1560.55
710.80	1632.23
710.99	1615.85
711.17	1566.70
711.35	1511.40
711.54	1591.27
711.72	1583.08
711.90	1552.36
712.09	1519.59
712.27	1560.55
712.45	1492.97
712.63	1454.06
712.82	1572.84
713.00	1583.08
713.18	1554.41
713.37	1621.99
713.55	1544.17
713.73	1578.98
713.91	1535.98
714.10	1497.07
714.28	1509.35
714.46	1501.16
714.65	1572.84
714.83	1619.94
715.01	1517.54
715.19	1499.11
715.38	1570.79
715.56	1574.89
715.74	1535.98
715.92	1501.16
716.11	1626.09
716.29	1406.95
716.47	1466.35
716.65	1566.70
716.84	1470.44
717.02	1576.94
717.20	1435.63
717.38	1492.97
717.57	1527.78
717.75	1519.59
717.93	1505.26
718.11	1587.18
718.30	1501.16
718.48	1578.98
718.66	1583.08
718.84	1585.13
719.03	1495.02
719.21	1560.55
719.39	1691.62
719.57	1591.27
719.75	1611.75
719.94	1560.55
720.12	1482.73
720.30	1540.07
720.48	1615.85
720.67	1576.94
720.85	1529.83
721.03	1533.93
721.21	1523.69
721.39	1615.85
721.58	1523.69
721.76	1478.63
721.94	1593.32
722.12	1515.50
722.30	1583.08
722.49	1513.45
722.67	1630.18
722.85	1550.31
723.03	1466.35
723.21	1484.78
723.40	1658.85
723.58	1507.30
723.76	1562.60
723.94	1615.85
724.12	1720.29
724.30	1665.00
724.49	1615.85
724.67	1566.70
724.85	1705.96
725.03	1531.88
725.21	1591.27
725.40	1591.27
725.58	1535.98
725.76	1581.03
725.94	1538.02
726.12	1501.16
726.30	1531.88
726.49	1611.75
726.67	1597.42
726.85	1550.31
727.03	1542.12
727.21	1751.01
727.39	2107.36
727.57	3313.61
727.76	4288.45
727.94	4784.06
728.12	5072.82
728.30	5040.05
728.48	4200.38
728.66	3499.98
728.84	3198.93
729.03	2920.40
729.21	2598.87
729.39	2254.81
729.57	2011.11
729.75	1798.12
729.93	1802.21
730.11	1626.09
730.30	1570.79
730.48	1523.69
730.66	1636.33
730.84	1611.75
731.02	1591.27
731.20	1535.98
731.38	1525.74
731.56	1482.73
731.74	1452.01
731.93	1523.69
732.11	1437.67
732.29	1515.50
732.47	1505.26
732.65	1638.38
732.83	1671.14
733.01	1540.07
733.19	1437.67
733.37	1589.22
733.56	1564.65
733.74	1523.69
733.92	1628.14
734.10	1527.78
734.28	1560.55
734.46	1435.63
734.64	1433.58
734.82	1538.02
735.00	1456.11
735.18	1521.64
735.36	1544.17
735.54	1566.70
735.73	1609.70
735.91	1533.93
736.09	1585.13
736.27	1509.35
736.45	1552.36
736.63	1495.02
736.81	1538.02
736.99	1558.50
737.17	1597.42
737.35	1509.35
737.53	1589.22
737.71	1552.36
737.89	1490.92
738.07	1521.64
738.25	1515.50
738.43	1464.30
738.61	1454.06
738.80	1509.35
738.98	1540.07
739.16	1492.97
739.34	1540.07
739.52	1585.13
739.70	1531.88
739.88	1554.41
740.06	1550.31
740.24	1468.39
740.42	1595.37
740.60	1513.45
740.78	1558.50
740.96	1486.83
741.14	1542.12
741.32	1564.65
741.50	1492.97
741.68	1699.81
741.86	1654.76
742.04	1492.97
742.22	1503.21
742.40	1617.90
742.58	1490.92
742.76	1497.07
742.94	1583.08
743.12	1456.11
743.30	1599.46
743.48	1505.26
743.66	1550.31
743.84	1607.66
744.02	1628.14
744.20	1572.84
744.38	1476.59
744.56	1509.35
744.74	1603.56
744.92	1572.84
745.10	1570.79
745.28	1550.31
745.46	1675.24
745.64	1527.78
745.82	1556.46
746.00	1482.73
746.18	1523.69
746.36	1525.74
746.54	1517.54
746.72	1505.26
746.90	1484.78
747.08	1638.38
747.26	1542.12
747.44	1540.07
747.62	1476.59
747.80	1578.98
747.98	1591.27
748.15	1476.59
748.33	1656.81
748.51	1587.18
748.69	1544.17
748.87	1546.22
749.05	1509.35
749.23	1443.82
749.41	1554.41
749.59	1542.12
749.77	1525.74
749.95	1511.40
750.13	1513.45
750.31	1529.83
750.49	1581.03
750.67	1529.83
750.85	1558.50
751.03	1501.16
751.20	1658.85
751.38	1535.98
751.56	1521.64
751.74	1589.22
751.92	1576.94
752.10	1429.48
752.28	1546.22
752.46	1546.22
752.64	1560.55
752.82	1566.70
753.00	1527.78
753.18	1560.55
753.35	1533.93
753.53	1460.20
753.71	1574.89
753.89	1570.79
754.07	1488.87
754.25	1593.32
754.43	1568.74
754.61	1511.40
754.79	1589.22
754.97	1519.59
755.14	1658.85
755.32	1572.84
755.50	1472.49
755.68	1540.07
755.86	1474.54
756.04	1560.55
756.22	1378.28
756.40	1554.41
756.57	1617.90
756.75	1572.84
756.93	1550.31
757.11	1546.22
757.29	1464.30
757.47	1523.69
757.65	1488.87
757.82	1431.53
758.00	1509.35
758.18	1515.50
758.36	1505.26
758.54	1605.61
758.72	1517.54
758.90	1503.21
759.07	1611.75
759.25	1484.78
759.43	1609.70
759.61	1558.50
759.79	1964.00
759.97	1544.17
760.15	1509.35
760.32	1492.97
760.50	1488.87
760.68	1595.37
760.86	1490.92
761.04	1574.89
761.22	1576.94
761.39	1529.83
761.57	1607.66
761.75	1523.69
761.93	1578.98
762.11	1488.87
762.28	1482.73
762.46	1476.59
762.64	1574.89
762.82	1449.96
763.00	1468.39
763.18	1589.22
763.35	1427.43
763.53	1552.36
763.71	1538.02
763.89	1558.50
764.07	1529.83
764.24	1562.60
764.42	1538.02
764.60	1521.64
764.78	1578.98
764.96	1601.51
765.13	1521.64
765.31	1560.55
765.49	1585.13
765.67	1529.83
765.84	1535.98
766.02	1538.02
766.20	1404.91
766.38	1527.78
766.56	1550.31
766.73	1540.07
766.91	1505.26
767.09	1509.35
767.27	1646.57
767.44	1431.53
767.62	1560.55
767.80	1507.30
767.98	1476.59
768.15	1499.11
768.33	1667.05
768.51	1509.35
768.69	1511.40
768.87	1503.21
769.04	1525.74
769.22	1662.95
769.40	1599.46
769.58	1671.14
769.75	1570.79
769.93	1603.56
770.11	1507.30
770.28	1523.69
770.46	1564.65
770.64	1587.18
770.82	1574.89
770.99	1480.68
771.17	1566.70
771.35	1460.20
771.53	1486.83
771.70	1468.39
771.88	1513.45
772.06	1531.88
772.23	1519.59
772.41	1630.18
772.59	1525.74
772.77	1499.11
772.94	1566.70
773.12	1591.27
773.30	1525.74
773.47	1456.11
773.65	1454.06
773.83	1636.33
774.01	1597.42
774.18	1515.50
774.36	1564.65
774.54	1542.12
774.71	1570.79
774.89	1480.68
775.07	1533.93
775.24	1517.54
775.42	1581.03
775.60	1642.47
775.78	1484.78
775.95	1466.35
776.13	1486.83
776.31	1355.76
776.48	1601.51
776.66	1570.79
776.84	1533.93
777.01	1476.59
777.19	1476.59
777.37	1515.50
777.54	1597.42
777.72	1587.18
777.90	1558.50
778.07	1468.39
778.25	1642.47
778.43	1572.84
778.60	1527.78
778.78	1599.46
778.96	1599.46
779.13	1435.63
779.31	1603.56
779.49	1517.54
779.66	1574.89
779.84	1542.12
780.01	1544.17
780.19	1474.54
780.37	1599.46
780.54	1583.08
780.72	1468.39
780.90	1462.25
781.07	1462.25
781.25	1542.12
781.43	1531.88
781.60	1474.54
781.78	1621.99
781.95	1560.55
782.13	1515.50
782.31	1488.87
782.48	1425.39
782.66	1558.50
782.83	1495.02
783.01	1605.61
783.19	1566.70
783.36	1554.41
783.54	1595.37
783.72	1562.60
783.89	1449.96
784.07	1542.12
784.24	1591.27
784.42	1621.99
784.60	1519.59
784.77	1591.27
784.95	1458.15
785.12	1525.74
785.30	1529.83
785.47	1538.02
785.65	1460.20
785.83	1507.30
786.00	1538.02
786.18	1550.31
786.35	1454.06
786.53	1519.59
786.71	1517.54
786.88	1517.54
787.06	1587.18
787.23	1501.16
787.41	1497.07
787.58	1599.46
787.76	1595.37
787.94	1628.14
788.11	1513.45
788.29	1460.20
788.46	1558.50
788.64	1488.87
788.81	1548.26
788.99	1601.51
789.16	1495.02
789.34	1535.98
789.52	1503.21
789.69	1482.73
789.87	1402.86
790.04	1550.31
790.22	1533.93
790.39	1589.22
790.57	1492.97
790.74	1476.59
790.92	1564.65
791.09	1456.11
791.27	1626.09
791.44	1542.12
791.62	1574.89
791.79	1662.95
791.97	1542.12
792.15	1673.19
792.32	1636.33
792.50	1513.45
792.67	1646.57
792.85	1640.42
793.02	1542.12
793.20	1548.26
793.37	1468.39
793.55	1552.36
793.72	1433.58
793.90	1583.08
794.07	1507.30
794.25	1435.63
794.42	1519.59
794.60	1558.50
794.77	1492.97
794.95	1552.36
795.12	1624.04
795.30	1544.17
795.47	1482.73
795.65	1681.38
795.82	1581.03
796.00	1544.17
796.17	1544.17
796.34	1488.87
796.52	1495.02
796.69	1566.70
796.87	1572.84
797.04	1533.93
797.22	1617.90
797.39	1484.78
797.57	1535.98
797.74	1554.41
797.92	1531.88
798.09	1509.35
798.27	1558.50
798.44	1503.21
798.62	1562.60
798.79	1578.98
798.96	1484.78
799.14	1535.98
799.31	1685.48
799.49	1564.65
799.66	1443.82
799.84	1593.32
800.01	1492.97
800.19	1578.98
800.36	1501.16
800.53	1564.65
800.71	1572.84
800.88	1613.80
801.06	1517.54
801.23	1505.26
801.41	1490.92
801.58	1519.59
801.75	1484.78
801.93	1564.65
802.10	1605.61
802.28	1548.26
802.45	1538.02
802.63	1601.51
802.80	1570.79
802.97	1548.26
803.15	1531.88
803.32	1523.69
803.50	1484.78
803.67	1546.22
803.84	1386.47
804.02	1531.88
804.19	1503.21
804.37	1476.59
804.54	1533.93
804.71	1474.54
804.89	1617.90
805.06	1490.92
805.24	1546.22
805.41	1417.19
805.58	1525.74
805.76	1673.19
805.93	1673.19
806.10	1560.55
806.28	1574.89
806.45	1529.83
806.63	1482.73
806.80	1517.54
806.97	1574.89
807.15	1589.22
807.32	1591.27
807.49	1501.16
807.67	1562.60
807.84	1558.50
808.01	1429.48
808.19	1603.56
808.36	1662.95
808.54	1423.34
808.71	1597.42
808.88	1488.87
809.06	1617.90
809.23	1566.70
809.40	1458.15
809.58	1572.84
809.75	1533.93
809.92	1474.54
810.10	1652.71
810.27	1589.22
810.44	1533.93
810.62	1603.56
810.79	1566.70
810.96	1533.93
811.14	1542.12
811.31	1519.59
811.48	1470.44
811.66	1488.87
811.83	1550.31
812.00	1542.12
812.18	1593.32
812.35	1681.38
812.52	1525.74
812.69	1470.44
812.87	1578.98
813.04	1427.43
813.21	1560.55
813.39	1570.79
813.56	1462.25
813.73	1562.60
813.91	1501.16
814.08	1484.78
814.25	1574.89
814.42	1488.87
814.60	1427.43
814.77	1452.01
814.94	1550.31
815.12	1503.21
815.29	1636.33
815.46	1509.35
815.63	1480.68
815.81	1533.93
815.98	1556.46
816.15	1495.02
816.33	1488.87
816.50	1525.74
816.67	1550.31
816.84	1589.22
817.02	1521.64
817.19	1452.01
817.36	1472.49
817.53	1576.94
817.71	1486.83
817.88	1601.51
818.05	1531.88
818.22	1511.40
818.40	1630.18
818.57	1497.07
818.74	1519.59
818.91	1525.74
819.09	1558.50
819.26	1615.85
819.43	1505.26
819.60	1515.50
819.78	1495.02
819.95	1615.85
820.12	1495.02
820.29	1550.31
820.47	1533.93
820.64	1560.55
820.81	1509.35
820.98	1578.98
821.15	1484.78
821.33	1535.98
821.50	1484.78
821.67	1556.46
821.84	1460.20
822.02	1517.54
822.19	1540.07
822.36	1501.16
822.53	1480.68
822.70	1439.72
822.88	1495.02
823.05	1599.46
823.22	1546.22
823.39	1552.36
823.56	1503.21
823.74	1617.90
823.91	1538.02
824.08	1488.87
824.25	1556.46
824.42	1603.56
824.60	1464.30
824.77	1560.55
824.94	1540.07
825.11	1542.12
825.28	1488.87
825.45	1607.66
825.63	1515.50
825.80	1464.30
825.97	1546.22
826.14	1531.88
826.31	1456.11
826.48	1556.46
826.66	1507.30
826.83	1478.63
827.00	1478.63
827.17	1492.97
827.34	1521.64
827.51	1538.02
827.69	1513.45
827.86	1462.25
828.03	1554.41
828.20	1554.41
828.37	1521.64
828.54	1566.70
828.71	1486.83
828.89	1603.56
829.06	1468.39
829.23	1554.41
829.40	1492.97
829.57	1472.49
829.74	1538.02
829.91	1495.02
830.09	1509.35
830.26	1509.35
830.43	1501.16
830.60	1546.22
830.77	1585.13
830.94	1599.46
831.11	1615.85
831.28	1556.46
831.46	1572.84
831.63	1511.40
831.80	1572.84
831.97	1550.31
832.14	1464.30
832.31	1511.40
832.48	1505.26
832.65	1566.70
832.82	1501.16
832.99	1525.74
833.17	1521.64
833.34	1591.27
833.51	1589.22
833.68	1429.48
833.85	1492.97
834.02	1550.31
834.19	1472.49
834.36	1499.11
834.53	1533.93
834.70	1589.22
834.87	1505.26
835.04	1527.78
835.22	1433.58
835.39	1521.64
835.56	1499.11
835.73	1519.59
835.90	1568.74
836.07	1501.16
836.24	1589.22
836.41	1490.92
836.58	1470.44
836.75	1611.75
836.92	1574.89
837.09	1495.02
837.26	1535.98
837.43	1638.38
837.60	1531.88
837.77	1488.87
837.94	1560.55
838.12	1646.57
838.29	1568.74
838.46	1519.59
838.63	1482.73
838.80	1589.22
838.97	1595.37
839.14	1531.88
839.31	1525.74
839.48	1519.59
839.65	1503.21
839.82	1570.79
839.99	1533.93
840.16	1521.64
840.33	1585.13
840.50	1482.73
840.67	1505.26
840.84	1386.47
841.01	1482.73
841.18	1562.60
841.35	1523.69
841.52	1538.02
841.69	1587.18
841.86	1464.30
842.03	1595.37
842.20	1542.12
842.37	1476.59
842.54	1517.54
842.71	1513.45
842.88	1474.54
843.05	1558.50
843.22	1558.50
843.39	1495.02
843.56	1572.84
843.73	1538.02
843.90	1511.40
844.07	1562.60
844.24	1638.38
844.41	1607.66
844.58	1552.36
844.75	1542.12
844.92	1515.50
845.09	1515.50
845.26	1503.21
845.43	1544.17
845.60	1486.83
845.77	1665.00
845.94	1593.32
846.10	1519.59
846.27	1535.98
846.44	1437.67
846.61	1544.17
846.78	1652.71
846.95	1660.90
847.12	1529.83
847.29	1521.64
847.46	1458.15
847.63	1595.37
847.80	1447.91
847.97	1562.60
848.14	1583.08
848.31	1503.21
848.48	1472.49
848.65	1576.94
848.82	1513.45
848.98	1665.00
849.15	1574.89
849.32	1578.98
849.49	1552.36
849.66	1509.35
849.83	1587.18
850.00	1517.54
850.17	1568.74
850.34	1509.35
850.51	1538.02
850.68	1533.93
850.85	1660.90
851.01	1574.89
851.18	1495.02
851.35	1484.78
851.52	1562.60
851.69	1517.54
851.86	1503.21
852.03	1554.41
852.20	1585.13
852.37	1566.70
852.53	1433.58
852.70	1529.83
852.87	1556.46
853.04	1484.78
853.21	1556.46
853.38	1544.17
853.55	1617.90
853.72	1562.60
853.89	1523.69
854.05	1521.64
854.22	1433.58
854.39	1587.18
854.56	1587.18
854.73	1558.50
854.90	1521.64
855.07	1572.84
855.23	1554.41
855.40	1456.11
855.57	1484.78
855.74	1513.45
855.91	1654.76
856.08	1525.74
856.25	1443.82
856.41	1462.25
856.58	1529.83
856.75	1517.54
856.92	1513.45
857.09	1585.13
857.26	1482.73
857.42	1570.79
857.59	1533.93
857.76	1505.26
857.93	1509.35
858.10	1515.50
858.27	1511.40
858.43	1576.94
858.60	1507.30
858.77	1435.63
858.94	1490.92
859.11	1558.50
859.27	1486.83
859.44	1468.39
859.61	1673.19
859.78	1607.66
859.95	1531.88
860.12	1503.21
860.28	1574.89
860.45	1525.74
860.62	1513.45
860.79	1558.50
860.95	1497.07
861.12	1521.64
861.29	1505.26
861.46	1511.40
861.63	1511.40
861.79	1533.93
861.96	1474.54
862.13	1542.12
862.30	1554.41
862.47	1531.88
862.63	1478.63
862.80	1517.54
862.97	1511.40
863.14	1607.66
863.30	1628.14
863.47	1476.59
863.64	1574.89
863.81	1523.69
863.97	1478.63
864.14	1597.42
864.31	1523.69
864.48	1558.50
864.65	1605.61
864.81	1570.79
864.98	1515.50
865.15	1525.74
865.32	1574.89
865.48	1587.18
865.65	1632.23
865.82	1503.21
865.98	1576.94
866.15	1574.89
866.32	1554.41
866.49	1509.35
866.65	1613.80
866.82	1513.45
866.99	1423.34
867.16	1511.40
867.32	1556.46
867.49	1554.41
867.66	1509.35
867.83	1492.97
867.99	1531.88
868.16	1556.46
868.33	1443.82
868.49	1517.54
868.66	1492.97
868.83	1581.03
868.99	1546.22
869.16	1583.08
869.33	1634.28
869.50	1525.74
869.66	1550.31
869.83	1560.55
870.00	1538.02
870.16	1503.21
870.33	1531.88
870.50	1566.70
870.66	1554.41
870.83	1599.46
871.00	1499.11
871.17	1499.11
871.33	1492.97
871.50	1593.32
871.67	1474.54
871.83	1429.48
872.00	1617.90
872.17	1511.40
872.33	1595.37
872.50	1507.30
872.67	1484.78
872.83	1507.30
873.00	1527.78
873.17	1583.08
873.33	1527.78
873.50	1574.89
873.67	1527.78
873.83	1470.44
874.00	1445.87
874.16	1621.99
874.33	1519.59
874.50	1480.68
874.66	1527.78
874.83	1503.21
875.00	1613.80
875.16	1570.79
875.33	1636.33
875.50	1540.07
875.66	1480.68
875.83	1544.17
875.99	1562.60
876.16	1566.70
876.33	1501.16
876.49	1548.26
876.66	1533.93
876.83	1490.92
876.99	1476.59
877.16	1621.99
877.32	1505.26
877.49	1540.07
877.66	1546.22
877.82	1533.93
877.99	1501.16
878.15	1613.80
878.32	1515.50
878.49	1513.45
878.65	1560.55
878.82	1568.74
878.98	1449.96
879.15	1523.69
879.32	1607.66
879.48	1533.93
879.65	1439.72
879.81	1484.78
879.98	1480.68
880.15	1406.95
880.31	1535.98
880.48	1417.19
880.64	1513.45
880.81	1525.74
880.97	1583.08
881.14	1701.86
881.31	1466.35
881.47	1593.32
881.64	1566.70
881.80	1454.06
881.97	1533.93
882.13	1601.51
882.30	1402.86
882.47	1521.64
882.63	1505.26
882.80	1540.07
882.96	1583.08
883.13	1560.55
883.29	1497.07
883.46	1558.50
883.62	1615.85
883.79	1546.22
883.95	1533.93
884.12	1417.19
884.29	1515.50
884.45	1542.12
884.62	1697.77
884.78	1472.49
884.95	1566.70
885.11	1443.82
885.28	1578.98
885.44	1535.98
885.61	1581.03
885.77	1611.75
885.94	1578.98
886.10	1486.83
886.27	1572.84
886.43	1593.32
886.60	1603.56
886.76	1505.26
886.93	1456.11
887.09	1558.50
887.26	1468.39
887.42	1497.07
887.59	1581.03
887.75	1644.52
887.92	1681.38
888.08	1574.89
888.25	1615.85
888.41	1560.55
888.58	1568.74
888.74	1488.87
888.91	1517.54
>>>>>End Processed Spectral Data<<<<<
