SpectraSuite Data File
++++++++++++++++++++++++++++++++++++
Date: Tue May 03 12:55:51 CEST 2016
User: root
Dark Spectrum Present: No
Reference Spectrum Present: No
Number of Sampled Component Spectra: 1
Spectrometers: USB4C02835
Integration Time (usec): 100000 (USB4C02835)
Spectra Averaged: 1 (USB4C02835)
Boxcar Smoothing: 0 (USB4C02835)
Correct for Electrical Dark: No (USB4C02835)
Strobe/Lamp Enabled: No (USB4C02835)
Correct for Detector Non-linearity: No (USB4C02835)
Correct for Stray Light: No (USB4C02835)
Number of Pixels in Processed Spectrum: 3648
>>>>>Begin Processed Spectral Data<<<<<
177.47	1404.91
177.69	1404.91
177.91	1404.91
178.13	1368.04
178.36	1411.05
178.58	1492.97
178.80	1492.97
179.02	1460.20
179.24	1470.44
179.46	1509.35
179.68	1648.61
179.90	1511.40
180.13	1527.78
180.35	1476.59
180.57	1556.46
180.79	1492.97
181.01	1503.21
181.23	1581.03
181.45	1566.70
181.67	1529.83
181.90	1578.98
182.12	1449.96
182.34	1519.59
182.56	1513.45
182.78	1495.02
183.00	1515.50
183.22	1601.51
183.44	1478.63
183.66	1665.00
183.89	1619.94
184.11	1566.70
184.33	1495.02
184.55	1517.54
184.77	1621.99
184.99	1613.80
185.21	1456.11
185.43	1640.42
185.65	1486.83
185.87	1617.90
186.10	1595.37
186.32	1621.99
186.54	1570.79
186.76	1581.03
186.98	1486.83
187.20	1521.64
187.42	1472.49
187.64	1486.83
187.86	1601.51
188.08	1507.30
188.30	1519.59
188.52	1509.35
188.75	1652.71
188.97	1595.37
189.19	1585.13
189.41	1593.32
189.63	1568.74
189.85	1439.72
190.07	1523.69
190.29	1583.08
190.51	1521.64
190.73	1437.67
190.95	1609.70
191.17	1517.54
191.39	1503.21
191.61	1501.16
191.84	1568.74
192.06	1492.97
192.28	1517.54
192.50	1656.81
192.72	1585.13
192.94	1585.13
193.16	1572.84
193.38	1572.84
193.60	1441.77
193.82	1486.83
194.04	1544.17
194.26	1495.02
194.48	1533.93
194.70	1533.93
194.92	1462.25
195.14	1609.70
195.36	1406.95
195.58	1566.70
195.80	1492.97
196.02	1558.50
196.24	1568.74
196.46	1556.46
196.69	1490.92
196.91	1634.28
197.13	1533.93
197.35	1470.44
197.57	1476.59
197.79	1615.85
198.01	1443.82
198.23	1626.09
198.45	1533.93
198.67	1495.02
198.89	1583.08
199.11	1499.11
199.33	1521.64
199.55	1433.58
199.77	1507.30
199.99	1503.21
200.21	1542.12
200.43	1544.17
200.65	1454.06
200.87	1466.35
201.09	1492.97
201.31	1517.54
201.53	1497.07
201.75	1578.98
201.97	1568.74
202.19	1564.65
202.41	1542.12
202.63	1591.27
202.85	1550.31
203.07	1525.74
203.29	1480.68
203.51	1454.06
203.73	1476.59
203.95	1703.91
204.17	1544.17
204.39	1593.32
204.61	1542.12
204.83	1488.87
205.05	1665.00
205.27	1617.90
205.49	1589.22
205.71	1497.07
205.93	1521.64
206.15	1525.74
206.37	1564.65
206.59	1605.61
206.81	1476.59
207.03	1447.91
207.25	1439.72
207.47	1560.55
207.69	1548.26
207.91	1642.47
208.13	1624.04
208.34	1515.50
208.56	1540.07
208.78	1511.40
209.00	1462.25
209.22	1482.73
209.44	1554.41
209.66	1492.97
209.88	1486.83
210.10	1419.24
210.32	1484.78
210.54	1609.70
210.76	1523.69
210.98	1527.78
211.20	1423.34
211.42	1578.98
211.64	1499.11
211.86	1626.09
212.08	1578.98
212.30	1607.66
212.52	1538.02
212.74	1525.74
212.96	1468.39
213.17	1656.81
213.39	1621.99
213.61	1697.77
213.83	1595.37
214.05	1548.26
214.27	1585.13
214.49	1488.87
214.71	1462.25
214.93	1599.46
215.15	1560.55
215.37	1560.55
215.59	1480.68
215.81	1560.55
216.03	1605.61
216.24	1509.35
216.46	1470.44
216.68	1562.60
216.90	1572.84
217.12	1538.02
217.34	1566.70
217.56	1572.84
217.78	1568.74
218.00	1581.03
218.22	1527.78
218.44	1535.98
218.66	1505.26
218.87	1624.04
219.09	1454.06
219.31	1617.90
219.53	1546.22
219.75	1540.07
219.97	1505.26
220.19	1546.22
220.41	1560.55
220.63	1650.66
220.85	1544.17
221.06	1560.55
221.28	1570.79
221.50	1517.54
221.72	1538.02
221.94	1527.78
222.16	1566.70
222.38	1587.18
222.60	1595.37
222.82	1542.12
223.03	1531.88
223.25	1517.54
223.47	1519.59
223.69	1701.86
223.91	1562.60
224.13	1476.59
224.35	1519.59
224.57	1533.93
224.78	1572.84
225.00	1439.72
225.22	1550.31
225.44	1591.27
225.66	1599.46
225.88	1501.16
226.10	1626.09
226.32	1640.42
226.53	1538.02
226.75	1497.07
226.97	1638.38
227.19	1527.78
227.41	1529.83
227.63	1533.93
227.85	1497.07
228.06	1566.70
228.28	1542.12
228.50	1535.98
228.72	1478.63
228.94	1515.50
229.16	1431.53
229.37	1517.54
229.59	1513.45
229.81	1640.42
230.03	1509.35
230.25	1505.26
230.47	1544.17
230.69	1495.02
230.90	1611.75
231.12	1447.91
231.34	1578.98
231.56	1630.18
231.78	1417.19
232.00	1556.46
232.21	1499.11
232.43	1546.22
232.65	1449.96
232.87	1548.26
233.09	1517.54
233.30	1578.98
233.52	1542.12
233.74	1499.11
233.96	1468.39
234.18	1540.07
234.40	1486.83
234.61	1621.99
234.83	1546.22
235.05	1492.97
235.27	1667.05
235.49	1540.07
235.70	1568.74
235.92	1576.94
236.14	1556.46
236.36	1685.48
236.58	1519.59
236.79	1603.56
237.01	1515.50
237.23	1574.89
237.45	1609.70
237.67	1501.16
237.88	1552.36
238.10	1591.27
238.32	1472.49
238.54	1529.83
238.76	1535.98
238.97	1556.46
239.19	1540.07
239.41	1558.50
239.63	1673.19
239.85	1550.31
240.06	1529.83
240.28	1550.31
240.50	1548.26
240.72	1585.13
240.93	1576.94
241.15	1560.55
241.37	1562.60
241.59	1560.55
241.81	1521.64
242.02	1525.74
242.24	1648.61
242.46	1525.74
242.68	1499.11
242.89	1523.69
243.11	1581.03
243.33	1564.65
243.55	1570.79
243.76	1597.42
243.98	1538.02
244.20	1525.74
244.42	1564.65
244.64	1548.26
244.85	1488.87
245.07	1519.59
245.29	1607.66
245.51	1578.98
245.72	1615.85
245.94	1574.89
246.16	1529.83
246.38	1615.85
246.59	1562.60
246.81	1488.87
247.03	1566.70
247.24	1427.43
247.46	1593.32
247.68	1490.92
247.90	1480.68
248.11	1501.16
248.33	1560.55
248.55	1472.49
248.77	1517.54
248.98	1566.70
249.20	1613.80
249.42	1533.93
249.64	1531.88
249.85	1511.40
250.07	1497.07
250.29	1650.66
250.50	1583.08
250.72	1490.92
250.94	1519.59
251.16	1634.28
251.37	1587.18
251.59	1552.36
251.81	1566.70
252.02	1691.62
252.24	1533.93
252.46	1613.80
252.68	1484.78
252.89	1560.55
253.11	1409.00
253.33	1566.70
253.54	1599.46
253.76	1505.26
253.98	1566.70
254.20	1515.50
254.41	1460.20
254.63	1535.98
254.85	1556.46
255.06	1517.54
255.28	1523.69
255.50	1576.94
255.71	1525.74
255.93	1429.48
256.15	1519.59
256.36	1468.39
256.58	1499.11
256.80	1505.26
257.02	1486.83
257.23	1591.27
257.45	1474.54
257.67	1499.11
257.88	1470.44
258.10	1503.21
258.32	1581.03
258.53	1542.12
258.75	1603.56
258.97	1505.26
259.18	1578.98
259.40	1576.94
259.62	1638.38
259.83	1597.42
260.05	1589.22
260.27	1781.73
260.48	1607.66
260.70	1490.92
260.92	1552.36
261.13	1495.02
261.35	1535.98
261.57	1591.27
261.78	1429.48
262.00	1478.63
262.22	1570.79
262.43	1462.25
262.65	1449.96
262.86	1468.39
263.08	1687.53
263.30	1570.79
263.51	1521.64
263.73	1521.64
263.95	1574.89
264.16	1554.41
264.38	1554.41
264.60	1509.35
264.81	1472.49
265.03	1617.90
265.25	1558.50
265.46	1538.02
265.68	1538.02
265.89	1609.70
266.11	1519.59
266.33	1566.70
266.54	1572.84
266.76	1554.41
266.98	1540.07
267.19	1603.56
267.41	1593.32
267.62	1576.94
267.84	1533.93
268.06	1583.08
268.27	1566.70
268.49	1480.68
268.70	1591.27
268.92	1482.73
269.14	1554.41
269.35	1513.45
269.57	1542.12
269.79	1581.03
270.00	1585.13
270.22	1662.95
270.43	1548.26
270.65	1445.87
270.87	1546.22
271.08	1619.94
271.30	1546.22
271.51	1449.96
271.73	1523.69
271.95	1581.03
272.16	1546.22
272.38	1535.98
272.59	1519.59
272.81	1488.87
273.02	1615.85
273.24	1581.03
273.46	1562.60
273.67	1470.44
273.89	1478.63
274.10	1464.30
274.32	1576.94
274.54	1576.94
274.75	1558.50
274.97	1519.59
275.18	1552.36
275.40	1578.98
275.61	1501.16
275.83	1548.26
276.05	1417.19
276.26	1574.89
276.48	1497.07
276.69	1511.40
276.91	1492.97
277.12	1636.33
277.34	1595.37
277.55	1583.08
277.77	1515.50
277.99	1503.21
278.20	1472.49
278.42	1464.30
278.63	1454.06
278.85	1535.98
279.06	1505.26
279.28	1560.55
279.49	1515.50
279.71	1517.54
279.93	1550.31
280.14	1511.40
280.36	1433.58
280.57	1593.32
280.79	1535.98
281.00	1413.10
281.22	1482.73
281.43	1566.70
281.65	1499.11
281.86	1480.68
282.08	1593.32
282.29	1648.61
282.51	1521.64
282.73	1441.77
282.94	1427.43
283.16	1538.02
283.37	1613.80
283.59	1568.74
283.80	1538.02
284.02	1421.29
284.23	1538.02
284.45	1488.87
284.66	1495.02
284.88	1472.49
285.09	1542.12
285.31	1603.56
285.52	1525.74
285.74	1533.93
285.95	1480.68
286.17	1505.26
286.38	1572.84
286.60	1517.54
286.81	1525.74
287.03	1513.45
287.24	1538.02
287.46	1550.31
287.67	1513.45
287.89	1595.37
288.10	1554.41
288.32	1548.26
288.53	1554.41
288.75	1540.07
288.96	1552.36
289.18	1488.87
289.39	1615.85
289.61	1556.46
289.82	1572.84
290.04	1564.65
290.25	1464.30
290.47	1521.64
290.68	1511.40
290.90	1566.70
291.11	1478.63
291.33	1591.27
291.54	1576.94
291.76	1558.50
291.97	1515.50
292.18	1513.45
292.40	1531.88
292.61	1466.35
292.83	1681.38
293.04	1513.45
293.26	1525.74
293.47	1564.65
293.69	1521.64
293.90	1503.21
294.12	1578.98
294.33	1499.11
294.55	1527.78
294.76	1615.85
294.97	1638.38
295.19	1603.56
295.40	1529.83
295.62	1468.39
295.83	1558.50
296.05	1478.63
296.26	1550.31
296.48	1568.74
296.69	1531.88
296.90	1515.50
297.12	1589.22
297.33	1554.41
297.55	1570.79
297.76	1533.93
297.98	1576.94
298.19	1687.53
298.41	1564.65
298.62	1470.44
298.83	1626.09
299.05	1535.98
299.26	1398.76
299.48	1497.07
299.69	1589.22
299.90	1576.94
300.12	1482.73
300.33	1572.84
300.55	1552.36
300.76	1599.46
300.98	1587.18
301.19	1558.50
301.40	1509.35
301.62	1519.59
301.83	1544.17
302.05	1529.83
302.26	1632.23
302.47	1538.02
302.69	1490.92
302.90	1550.31
303.12	1486.83
303.33	1470.44
303.54	1624.04
303.76	1427.43
303.97	1570.79
304.19	1636.33
304.40	1513.45
304.61	1601.51
304.83	1597.42
305.04	1568.74
305.26	1574.89
305.47	1533.93
305.68	1525.74
305.90	1460.20
306.11	1533.93
306.33	1548.26
306.54	1423.34
306.75	1566.70
306.97	1458.15
307.18	1499.11
307.39	1486.83
307.61	1495.02
307.82	1484.78
308.04	1601.51
308.25	1468.39
308.46	1546.22
308.68	1556.46
308.89	1560.55
309.10	1587.18
309.32	1576.94
309.53	1488.87
309.74	1626.09
309.96	1538.02
310.17	1587.18
310.39	1458.15
310.60	1621.99
310.81	1519.59
311.03	1419.24
311.24	1490.92
311.45	1599.46
311.67	1550.31
311.88	1556.46
312.09	1468.39
312.31	1488.87
312.52	1443.82
312.73	1554.41
312.95	1454.06
313.16	1538.02
313.37	1687.53
313.59	1581.03
313.80	1576.94
314.01	1589.22
314.23	1484.78
314.44	1503.21
314.65	1474.54
314.87	1492.97
315.08	1552.36
315.29	1456.11
315.51	1517.54
315.72	1474.54
315.93	1581.03
316.15	1703.91
316.36	1492.97
316.57	1454.06
316.79	1595.37
317.00	1546.22
317.21	1533.93
317.43	1521.64
317.64	1535.98
317.85	1486.83
318.07	1554.41
318.28	1673.19
318.49	1783.78
318.70	1837.03
318.92	1648.61
319.13	1699.81
319.34	1677.29
319.56	1640.42
319.77	1634.28
319.98	1603.56
320.20	1523.69
320.41	1662.95
320.62	1611.75
320.83	1597.42
321.05	1597.42
321.26	1523.69
321.47	1492.97
321.69	1578.98
321.90	1486.83
322.11	1585.13
322.32	1497.07
322.54	1548.26
322.75	1554.41
322.96	1591.27
323.18	1435.63
323.39	1447.91
323.60	1511.40
323.81	1546.22
324.03	1550.31
324.24	1535.98
324.45	1484.78
324.66	1535.98
324.88	1591.27
325.09	1572.84
325.30	1511.40
325.52	1533.93
325.73	1521.64
325.94	1460.20
326.15	1490.92
326.37	1550.31
326.58	1617.90
326.79	1591.27
327.00	1454.06
327.22	1572.84
327.43	1470.44
327.64	1503.21
327.85	1630.18
328.07	1591.27
328.28	1597.42
328.49	1511.40
328.70	1574.89
328.92	1576.94
329.13	1499.11
329.34	1544.17
329.55	1681.38
329.76	1636.33
329.98	1452.01
330.19	1527.78
330.40	1550.31
330.61	1591.27
330.83	1615.85
331.04	1501.16
331.25	1517.54
331.46	1456.11
331.68	1476.59
331.89	1613.80
332.10	1574.89
332.31	1490.92
332.52	1550.31
332.74	1603.56
332.95	1535.98
333.16	1484.78
333.37	1564.65
333.58	1515.50
333.80	1593.32
334.01	1482.73
334.22	1550.31
334.43	1458.15
334.64	1521.64
334.86	1456.11
335.07	1501.16
335.28	1632.23
335.49	1462.25
335.70	1542.12
335.92	1613.80
336.13	1679.33
336.34	1486.83
336.55	1578.98
336.76	1476.59
336.98	1480.68
337.19	1568.74
337.40	1630.18
337.61	1556.46
337.82	1540.07
338.04	1560.55
338.25	1505.26
338.46	1542.12
338.67	1460.20
338.88	1492.97
339.09	1558.50
339.31	1554.41
339.52	1501.16
339.73	1497.07
339.94	1517.54
340.15	1572.84
340.36	1513.45
340.58	1505.26
340.79	1523.69
341.00	1560.55
341.21	1529.83
341.42	1611.75
341.63	1548.26
341.85	1591.27
342.06	1529.83
342.27	1505.26
342.48	1556.46
342.69	1439.72
342.90	1601.51
343.12	1538.02
343.33	1523.69
343.54	1564.65
343.75	1535.98
343.96	1548.26
344.17	1535.98
344.38	1587.18
344.60	1552.36
344.81	1585.13
345.02	1492.97
345.23	1628.14
345.44	1673.19
345.65	1595.37
345.86	1564.65
346.07	1599.46
346.29	1458.15
346.50	1525.74
346.71	1544.17
346.92	1732.58
347.13	1669.09
347.34	1513.45
347.55	1519.59
347.76	1593.32
347.98	1470.44
348.19	1593.32
348.40	1556.46
348.61	1458.15
348.82	1546.22
349.03	1544.17
349.24	1454.06
349.45	1585.13
349.66	1390.57
349.88	1519.59
350.09	1460.20
350.30	1542.12
350.51	1554.41
350.72	1589.22
350.93	1574.89
351.14	1527.78
351.35	1509.35
351.56	1617.90
351.77	1468.39
351.99	1548.26
352.20	1660.90
352.41	1591.27
352.62	1435.63
352.83	1515.50
353.04	1556.46
353.25	1476.59
353.46	1640.42
353.67	1624.04
353.88	1458.15
354.09	1550.31
354.30	1482.73
354.52	1574.89
354.73	1523.69
354.94	1576.94
355.15	1581.03
355.36	1578.98
355.57	1464.30
355.78	1585.13
355.99	1538.02
356.20	1587.18
356.41	1576.94
356.62	1583.08
356.83	1566.70
357.04	1591.27
357.25	1466.35
357.46	1550.31
357.68	1501.16
357.89	1519.59
358.10	1521.64
358.31	1519.59
358.52	1550.31
358.73	1525.74
358.94	1501.16
359.15	1511.40
359.36	1609.70
359.57	1525.74
359.78	1570.79
359.99	1607.66
360.20	1538.02
360.41	1544.17
360.62	1556.46
360.83	1509.35
361.04	1558.50
361.25	1574.89
361.46	1634.28
361.67	1607.66
361.88	1607.66
362.09	1566.70
362.30	1523.69
362.51	1572.84
362.72	1544.17
362.93	1642.47
363.14	1601.51
363.35	1525.74
363.56	1517.54
363.78	1587.18
363.99	1533.93
364.20	1509.35
364.41	1552.36
364.62	1611.75
364.83	1538.02
365.04	1515.50
365.25	1542.12
365.46	1667.05
365.67	1497.07
365.88	1521.64
366.09	1480.68
366.30	1488.87
366.51	1544.17
366.72	1488.87
366.93	1533.93
367.14	1570.79
367.35	1583.08
367.56	1583.08
367.77	1656.81
367.98	1554.41
368.18	1605.61
368.39	1538.02
368.60	1507.30
368.81	1593.32
369.02	1591.27
369.23	1431.53
369.44	1558.50
369.65	1466.35
369.86	1599.46
370.07	1609.70
370.28	1521.64
370.49	1540.07
370.70	1574.89
370.91	1490.92
371.12	1476.59
371.33	1540.07
371.54	1527.78
371.75	1560.55
371.96	1388.52
372.17	1570.79
372.38	1513.45
372.59	1585.13
372.80	1464.30
373.01	1542.12
373.22	1583.08
373.43	1527.78
373.64	1495.02
373.85	1515.50
374.06	1599.46
374.26	1495.02
374.47	1587.18
374.68	1554.41
374.89	1533.93
375.10	1564.65
375.31	1578.98
375.52	1548.26
375.73	1495.02
375.94	1486.83
376.15	1603.56
376.36	1490.92
376.57	1552.36
376.78	1509.35
376.99	1603.56
377.20	1574.89
377.40	1531.88
377.61	1648.61
377.82	1550.31
378.03	1640.42
378.24	1572.84
378.45	1503.21
378.66	1558.50
378.87	1531.88
379.08	1550.31
379.29	1472.49
379.50	1607.66
379.71	1572.84
379.91	1589.22
380.12	1583.08
380.33	1550.31
380.54	1560.55
380.75	1523.69
380.96	1488.87
381.17	1591.27
381.38	1564.65
381.59	1632.23
381.80	1597.42
382.00	1687.53
382.21	1587.18
382.42	1644.52
382.63	1636.33
382.84	1617.90
383.05	1603.56
383.26	1644.52
383.47	1581.03
383.68	1632.23
383.88	1527.78
384.09	1640.42
384.30	1570.79
384.51	1507.30
384.72	1456.11
384.93	1443.82
385.14	1574.89
385.35	1644.52
385.55	1488.87
385.76	1572.84
385.97	1507.30
386.18	1497.07
386.39	1492.97
386.60	1544.17
386.81	1617.90
387.02	1484.78
387.22	1558.50
387.43	1621.99
387.64	1638.38
387.85	1837.03
388.06	3125.20
388.27	7171.99
388.48	10491.74
388.68	12531.52
388.89	14042.92
389.10	12914.49
389.31	10090.34
389.52	9078.65
389.73	7882.63
389.93	7317.39
390.14	6725.53
390.35	6109.09
390.56	5558.19
390.77	4566.97
390.98	3626.95
391.18	2807.77
391.39	2101.22
391.60	1826.79
391.81	1705.96
392.02	1583.08
392.23	1595.37
392.43	1542.12
392.64	1697.77
392.85	1554.41
393.06	1628.14
393.27	1533.93
393.47	1570.79
393.68	1552.36
393.89	1613.80
394.10	1576.94
394.31	1509.35
394.52	1591.27
394.72	1554.41
394.93	1656.81
395.14	1595.37
395.35	1544.17
395.56	1538.02
395.76	1585.13
395.97	1697.77
396.18	1759.21
396.39	1832.93
396.60	1902.56
396.80	1765.35
397.01	1742.82
397.22	1681.38
397.43	1630.18
397.64	1626.09
397.84	1677.29
398.05	1644.52
398.26	1601.51
398.47	1632.23
398.67	1574.89
398.88	1429.48
399.09	1609.70
399.30	1538.02
399.51	1615.85
399.71	1599.46
399.92	1470.44
400.13	1523.69
400.34	1484.78
400.54	1529.83
400.75	1560.55
400.96	1550.31
401.17	1665.00
401.37	1624.04
401.58	1480.68
401.79	1644.52
402.00	1808.36
402.21	1949.67
402.41	1845.22
402.62	2119.65
402.83	2021.35
403.04	1880.04
403.24	1923.04
403.45	1748.97
403.66	1755.11
403.87	1701.86
404.07	1738.73
404.28	1822.69
404.49	1714.15
404.70	1617.90
404.90	1570.79
405.11	1515.50
405.32	1605.61
405.52	1535.98
405.73	1517.54
405.94	1558.50
406.15	1538.02
406.35	1499.11
406.56	1542.12
406.77	1542.12
406.98	1468.39
407.18	1437.67
407.39	1599.46
407.60	1558.50
407.80	1574.89
408.01	1466.35
408.22	1546.22
408.43	1529.83
408.63	1462.25
408.84	1583.08
409.05	1570.79
409.25	1470.44
409.46	1509.35
409.67	1501.16
409.88	1527.78
410.08	1529.83
410.29	1447.91
410.50	1521.64
410.70	1515.50
410.91	1449.96
411.12	1548.26
411.32	1515.50
411.53	1601.51
411.74	1636.33
411.95	1679.33
412.15	1546.22
412.36	1572.84
412.57	1562.60
412.77	1685.48
412.98	1570.79
413.19	1558.50
413.39	1572.84
413.60	1634.28
413.81	1540.07
414.01	1554.41
414.22	1533.93
414.43	1626.09
414.63	1472.49
414.84	1656.81
415.05	1583.08
415.25	1548.26
415.46	1617.90
415.67	1542.12
415.87	1548.26
416.08	1542.12
416.29	1492.97
416.49	1552.36
416.70	1597.42
416.91	1521.64
417.11	1552.36
417.32	1564.65
417.53	1542.12
417.73	1599.46
417.94	1466.35
418.15	1589.22
418.35	1548.26
418.56	1597.42
418.77	1570.79
418.97	1533.93
419.18	1593.32
419.38	1476.59
419.59	1595.37
419.80	1642.47
420.00	1495.02
420.21	1511.40
420.42	1587.18
420.62	1533.93
420.83	1535.98
421.04	1560.55
421.24	1546.22
421.45	1554.41
421.65	1578.98
421.86	1464.30
422.07	1552.36
422.27	1595.37
422.48	1619.94
422.69	1570.79
422.89	1544.17
423.10	1578.98
423.30	1482.73
423.51	1568.74
423.72	1593.32
423.92	1695.72
424.13	1484.78
424.33	1583.08
424.54	1558.50
424.75	1527.78
424.95	1552.36
425.16	1589.22
425.36	1480.68
425.57	1593.32
425.78	1576.94
425.98	1550.31
426.19	1548.26
426.39	1523.69
426.60	1544.17
426.81	1595.37
427.01	1560.55
427.22	1548.26
427.42	1492.97
427.63	1509.35
427.83	1581.03
428.04	1632.23
428.25	1583.08
428.45	1521.64
428.66	1642.47
428.86	1601.51
429.07	1519.59
429.28	1562.60
429.48	1538.02
429.69	1484.78
429.89	1535.98
430.10	1462.25
430.30	1501.16
430.51	1581.03
430.71	1544.17
430.92	1527.78
431.13	1476.59
431.33	1531.88
431.54	1581.03
431.74	1521.64
431.95	1570.79
432.15	1484.78
432.36	1517.54
432.56	1488.87
432.77	1566.70
432.98	1619.94
433.18	1492.97
433.39	1548.26
433.59	1527.78
433.80	1535.98
434.00	1671.14
434.21	1515.50
434.41	1558.50
434.62	1652.71
434.82	1501.16
435.03	1570.79
435.23	1570.79
435.44	1468.39
435.64	1556.46
435.85	1546.22
436.06	1621.99
436.26	1632.23
436.47	1560.55
436.67	1542.12
436.88	1529.83
437.08	1636.33
437.29	1640.42
437.49	1548.26
437.70	1648.61
437.90	1535.98
438.11	1767.40
438.31	1669.09
438.52	1634.28
438.72	1710.05
438.93	1685.48
439.13	1658.85
439.34	1685.48
439.54	1662.95
439.75	1601.51
439.95	1597.42
440.16	1593.32
440.36	1558.50
440.57	1591.27
440.77	1517.54
440.98	1566.70
441.18	1619.94
441.39	1535.98
441.59	1519.59
441.80	1636.33
442.00	1531.88
442.21	1675.24
442.41	1513.45
442.62	1599.46
442.82	1511.40
443.02	1576.94
443.23	1568.74
443.43	1564.65
443.64	1597.42
443.84	1501.16
444.05	1728.49
444.25	1482.73
444.46	1476.59
444.66	1501.16
444.87	1542.12
445.07	1550.31
445.28	1591.27
445.48	1609.70
445.69	1634.28
445.89	1689.57
446.09	1576.94
446.30	1908.71
446.50	3231.69
446.71	4392.89
446.91	5267.38
447.12	5717.93
447.32	5646.25
447.53	4691.90
447.73	4122.56
447.93	3631.05
448.14	3348.43
448.34	3196.88
448.55	2963.41
448.75	2854.87
448.96	2768.85
449.16	2590.68
449.36	2250.72
449.57	1951.71
449.77	1843.17
449.98	1667.05
450.18	1583.08
450.39	1587.18
450.59	1640.42
450.79	1578.98
451.00	1525.74
451.20	1658.85
451.41	1521.64
451.61	1617.90
451.81	1439.72
452.02	1558.50
452.22	1531.88
452.43	1527.78
452.63	1511.40
452.84	1609.70
453.04	1538.02
453.24	1587.18
453.45	1476.59
453.65	1546.22
453.86	1591.27
454.06	1597.42
454.26	1492.97
454.47	1572.84
454.67	1597.42
454.87	1515.50
455.08	1466.35
455.28	1636.33
455.49	1527.78
455.69	1484.78
455.89	1630.18
456.10	1562.60
456.30	1486.83
456.51	1591.27
456.71	1531.88
456.91	1572.84
457.12	1595.37
457.32	1634.28
457.52	1554.41
457.73	1521.64
457.93	1509.35
458.14	1546.22
458.34	1421.29
458.54	1517.54
458.75	1513.45
458.95	1574.89
459.15	1615.85
459.36	1574.89
459.56	1542.12
459.76	1691.62
459.97	1558.50
460.17	1540.07
460.37	1593.32
460.58	1546.22
460.78	1636.33
460.99	1509.35
461.19	1564.65
461.39	1507.30
461.60	1497.07
461.80	1630.18
462.00	1482.73
462.21	1513.45
462.41	1460.20
462.61	1468.39
462.82	1505.26
463.02	1527.78
463.22	1523.69
463.43	1683.43
463.63	1570.79
463.83	1593.32
464.04	1501.16
464.24	1583.08
464.44	1495.02
464.64	1533.93
464.85	1572.84
465.05	1673.19
465.25	1538.02
465.46	1452.01
465.66	1558.50
465.86	1515.50
466.07	1617.90
466.27	1505.26
466.47	1480.68
466.68	1511.40
466.88	1615.85
467.08	1527.78
467.29	1529.83
467.49	1638.38
467.69	1488.87
467.89	1607.66
468.10	1484.78
468.30	1503.21
468.50	1581.03
468.71	1609.70
468.91	1527.78
469.11	1689.57
469.31	1595.37
469.52	1499.11
469.72	1601.51
469.92	1671.14
470.13	1617.90
470.33	1570.79
470.53	1798.12
470.73	2043.87
470.94	2363.36
471.14	2465.75
471.34	2617.30
471.54	2441.18
471.75	2148.32
471.95	2119.65
472.15	1951.71
472.36	1892.32
472.56	1939.43
472.76	1875.94
472.96	1935.33
473.17	1806.31
473.37	1796.07
473.57	1568.74
473.77	1687.53
473.98	1570.79
474.18	1531.88
474.38	1642.47
474.58	1484.78
474.79	1447.91
474.99	1576.94
475.19	1619.94
475.39	1517.54
475.60	1540.07
475.80	1550.31
476.00	1550.31
476.20	1556.46
476.41	1527.78
476.61	1613.80
476.81	1556.46
477.01	1515.50
477.21	1605.61
477.42	1640.42
477.62	1527.78
477.82	1525.74
478.02	1509.35
478.23	1540.07
478.43	1478.63
478.63	1544.17
478.83	1505.26
479.03	1546.22
479.24	1654.76
479.44	1601.51
479.64	1511.40
479.84	1382.38
480.04	1533.93
480.25	1505.26
480.45	1574.89
480.65	1550.31
480.85	1570.79
481.06	1550.31
481.26	1591.27
481.46	1544.17
481.66	1538.02
481.86	1505.26
482.06	1619.94
482.27	1552.36
482.47	1556.46
482.67	1435.63
482.87	1511.40
483.07	1572.84
483.28	1558.50
483.48	1497.07
483.68	1511.40
483.88	1535.98
484.08	1478.63
484.29	1564.65
484.49	1572.84
484.69	1501.16
484.89	1572.84
485.09	1566.70
485.29	1621.99
485.50	1523.69
485.70	1566.70
485.90	1533.93
486.10	1548.26
486.30	1626.09
486.50	1492.97
486.71	1583.08
486.91	1576.94
487.11	1665.00
487.31	1417.19
487.51	1611.75
487.71	1554.41
487.91	1505.26
488.12	1472.49
488.32	1378.28
488.52	1546.22
488.72	1490.92
488.92	1529.83
489.12	1546.22
489.32	1554.41
489.53	1624.04
489.73	1540.07
489.93	1611.75
490.13	1462.25
490.33	1492.97
490.53	1546.22
490.73	1634.28
490.94	1488.87
491.14	1574.89
491.34	1685.48
491.54	2125.79
491.74	2648.02
491.94	2998.23
492.14	3364.81
492.34	3289.04
492.54	2856.92
492.75	2435.03
492.95	2330.59
493.15	2224.09
493.35	2228.19
493.55	2129.89
493.75	2029.54
493.95	2000.87
494.15	1837.03
494.35	1841.12
494.56	1763.30
494.76	1599.46
494.96	1603.56
495.16	1611.75
495.36	1542.12
495.56	1615.85
495.76	1517.54
495.96	1513.45
496.16	1544.17
496.36	1634.28
496.56	1486.83
496.77	1535.98
496.97	1583.08
497.17	1656.81
497.37	1447.91
497.57	1570.79
497.77	1564.65
497.97	1474.54
498.17	1462.25
498.37	1546.22
498.57	1550.31
498.77	1572.84
498.97	1581.03
499.17	1662.95
499.38	1533.93
499.58	1535.98
499.78	1544.17
499.98	1568.74
500.18	1583.08
500.38	1593.32
500.58	1751.01
500.78	2525.15
500.98	5160.88
501.18	6649.75
501.38	8152.96
501.58	8724.35
501.78	8042.37
501.98	6127.52
502.18	5328.81
502.38	4642.75
502.58	4323.26
502.78	3919.81
502.98	3760.07
503.18	3581.90
503.38	3407.82
503.59	3082.19
503.79	2818.00
503.99	2500.57
504.19	2338.78
504.39	2209.76
504.59	2203.61
504.79	2029.54
504.99	1961.95
505.19	1746.92
505.39	1720.29
505.59	1773.54
505.79	1787.88
505.99	1636.33
506.19	1652.71
506.39	1646.57
506.59	1597.42
506.79	1542.12
506.99	1597.42
507.19	1591.27
507.39	1615.85
507.59	1519.59
507.79	1519.59
507.99	1554.41
508.19	1607.66
508.39	1521.64
508.59	1484.78
508.79	1619.94
508.99	1599.46
509.19	1546.22
509.39	1550.31
509.59	1488.87
509.79	1486.83
509.99	1601.51
510.19	1554.41
510.39	1570.79
510.59	1517.54
510.79	1521.64
510.99	1476.59
511.19	1568.74
511.39	1634.28
511.59	1511.40
511.79	1638.38
511.99	1517.54
512.19	1636.33
512.38	1576.94
512.58	1548.26
512.78	1581.03
512.98	1632.23
513.18	1626.09
513.38	1443.82
513.58	1546.22
513.78	1562.60
513.98	1554.41
514.18	1523.69
514.38	1499.11
514.58	1552.36
514.78	1490.92
514.98	1560.55
515.18	1533.93
515.38	1445.87
515.58	1556.46
515.78	1554.41
515.98	1542.12
516.18	1562.60
516.38	1505.26
516.57	1509.35
516.77	1521.64
516.97	1572.84
517.17	1527.78
517.37	1542.12
517.57	1556.46
517.77	1578.98
517.97	1583.08
518.17	1517.54
518.37	1478.63
518.57	1495.02
518.77	1484.78
518.97	1492.97
519.16	1607.66
519.36	1621.99
519.56	1533.93
519.76	1492.97
519.96	1482.73
520.16	1628.14
520.36	1544.17
520.56	1624.04
520.76	1470.44
520.96	1533.93
521.16	1546.22
521.35	1572.84
521.55	1669.09
521.75	1548.26
521.95	1513.45
522.15	1538.02
522.35	1484.78
522.55	1538.02
522.75	1585.13
522.95	1570.79
523.14	1509.35
523.34	1576.94
523.54	1503.21
523.74	1621.99
523.94	1552.36
524.14	1482.73
524.34	1636.33
524.54	1599.46
524.73	1538.02
524.93	1550.31
525.13	1550.31
525.33	1505.26
525.53	1624.04
525.73	1552.36
525.93	1548.26
526.13	1562.60
526.32	1535.98
526.52	1558.50
526.72	1554.41
526.92	1447.91
527.12	1511.40
527.32	1452.01
527.52	1519.59
527.71	1548.26
527.91	1470.44
528.11	1515.50
528.31	1634.28
528.51	1452.01
528.71	1521.64
528.90	1570.79
529.10	1613.80
529.30	1593.32
529.50	1429.48
529.70	1538.02
529.90	1495.02
530.09	1560.55
530.29	1492.97
530.49	1409.00
530.69	1683.43
530.89	1511.40
531.09	1564.65
531.28	1492.97
531.48	1568.74
531.68	1542.12
531.88	1521.64
532.08	1621.99
532.28	1550.31
532.47	1560.55
532.67	1542.12
532.87	1566.70
533.07	1540.07
533.27	1550.31
533.46	1556.46
533.66	1589.22
533.86	1564.65
534.06	1529.83
534.26	1535.98
534.45	1531.88
534.65	1554.41
534.85	1558.50
535.05	1533.93
535.25	1601.51
535.44	1478.63
535.64	1593.32
535.84	1578.98
536.04	1533.93
536.24	1568.74
536.43	1486.83
536.63	1572.84
536.83	1578.98
537.03	1554.41
537.22	1413.10
537.42	1519.59
537.62	1576.94
537.82	1470.44
538.02	1572.84
538.21	1617.90
538.41	1693.67
538.61	1558.50
538.81	1540.07
539.00	1599.46
539.20	1535.98
539.40	1523.69
539.60	1478.63
539.79	1509.35
539.99	1574.89
540.19	1443.82
540.39	1470.44
540.58	1531.88
540.78	1613.80
540.98	1544.17
541.18	1589.22
541.37	1591.27
541.57	1632.23
541.77	1572.84
541.97	1488.87
542.16	1445.87
542.36	1501.16
542.56	1521.64
542.76	1624.04
542.95	1527.78
543.15	1617.90
543.35	1501.16
543.54	1470.44
543.74	1533.93
543.94	1583.08
544.14	1601.51
544.33	1513.45
544.53	1546.22
544.73	1538.02
544.93	1488.87
545.12	1531.88
545.32	1546.22
545.52	1597.42
545.71	1466.35
545.91	1595.37
546.11	1572.84
546.30	1531.88
546.50	1464.30
546.70	1523.69
546.90	1609.70
547.09	1490.92
547.29	1521.64
547.49	1540.07
547.68	1576.94
547.88	1482.73
548.08	1544.17
548.27	1890.28
548.47	1501.16
548.67	1474.54
548.87	1626.09
549.06	1535.98
549.26	1552.36
549.46	1558.50
549.65	1564.65
549.85	1501.16
550.05	1613.80
550.24	1548.26
550.44	1566.70
550.64	1515.50
550.83	1538.02
551.03	1568.74
551.23	1542.12
551.42	1517.54
551.62	1509.35
551.82	1519.59
552.01	1558.50
552.21	1605.61
552.41	1527.78
552.60	1578.98
552.80	1562.60
553.00	1433.58
553.19	1431.53
553.39	1642.47
553.59	1533.93
553.78	1527.78
553.98	1591.27
554.17	1507.30
554.37	1572.84
554.57	1578.98
554.76	1519.59
554.96	1587.18
555.16	1585.13
555.35	1495.02
555.55	1505.26
555.75	1591.27
555.94	1572.84
556.14	1499.11
556.33	1585.13
556.53	1533.93
556.73	1626.09
556.92	1540.07
557.12	1570.79
557.32	1552.36
557.51	1599.46
557.71	1519.59
557.90	1548.26
558.10	1644.52
558.30	1505.26
558.49	1535.98
558.69	1452.01
558.88	1587.18
559.08	1513.45
559.28	1556.46
559.47	1517.54
559.67	1544.17
559.86	1613.80
560.06	1603.56
560.26	1585.13
560.45	1642.47
560.65	1509.35
560.84	1558.50
561.04	1466.35
561.24	1578.98
561.43	1511.40
561.63	1648.61
561.82	1574.89
562.02	1515.50
562.22	1470.44
562.41	1535.98
562.61	1507.30
562.80	1503.21
563.00	1648.61
563.19	1501.16
563.39	1646.57
563.59	1560.55
563.78	1521.64
563.98	1382.38
564.17	1556.46
564.37	1456.11
564.56	1574.89
564.76	1462.25
564.96	1550.31
565.15	1581.03
565.35	1691.62
565.54	1521.64
565.74	1642.47
565.93	1576.94
566.13	1562.60
566.32	1558.50
566.52	1505.26
566.71	1511.40
566.91	1554.41
567.11	1558.50
567.30	1650.66
567.50	1531.88
567.69	1533.93
567.89	1519.59
568.08	1544.17
568.28	1521.64
568.47	1589.22
568.67	1576.94
568.86	1601.51
569.06	1695.72
569.25	1576.94
569.45	1482.73
569.64	1558.50
569.84	1484.78
570.04	1581.03
570.23	1507.30
570.43	1601.51
570.62	1603.56
570.82	1587.18
571.01	1572.84
571.21	1503.21
571.40	1521.64
571.60	1599.46
571.79	1583.08
571.99	1574.89
572.18	1533.93
572.38	1583.08
572.57	1548.26
572.77	1542.12
572.96	1626.09
573.16	1617.90
573.35	1591.27
573.55	1619.94
573.74	1486.83
573.94	1544.17
574.13	1613.80
574.33	1619.94
574.52	1556.46
574.71	1560.55
574.91	1660.90
575.10	1429.48
575.30	1581.03
575.49	1484.78
575.69	1533.93
575.88	1628.14
576.08	1523.69
576.27	1708.01
576.47	1691.62
576.66	1695.72
576.86	1615.85
577.05	1615.85
577.25	1644.52
577.44	1675.24
577.64	1480.68
577.83	1640.42
578.02	1574.89
578.22	1624.04
578.41	1665.00
578.61	1568.74
578.80	1538.02
579.00	1550.31
579.19	1587.18
579.39	1619.94
579.58	1628.14
579.77	1548.26
579.97	1667.05
580.16	1619.94
580.36	1632.23
580.55	1667.05
580.75	1644.52
580.94	1609.70
581.13	1628.14
581.33	1708.01
581.52	1585.13
581.72	1785.83
581.91	1691.62
582.11	1615.85
582.30	1605.61
582.49	1648.61
582.69	1570.79
582.88	1650.66
583.08	1595.37
583.27	1611.75
583.47	1591.27
583.66	1624.04
583.85	1578.98
584.05	1560.55
584.24	1646.57
584.44	1630.18
584.63	1611.75
584.82	1665.00
585.02	1746.92
585.21	1759.21
585.41	1753.06
585.60	1812.45
585.79	1765.35
585.99	1802.21
586.18	1851.36
586.37	2078.69
586.57	3088.34
586.76	9482.10
586.96	27674.20
587.15	43810.15
587.34	54514.88
587.54	61326.42
587.73	59255.93
587.93	43517.29
588.12	32114.20
588.31	25828.98
588.51	22308.52
588.70	19695.32
588.89	18431.72
589.09	16860.93
589.28	15148.82
589.47	13289.27
589.67	11042.65
589.86	8658.81
590.06	6678.43
590.25	4853.69
590.44	3727.30
590.64	2916.31
590.83	2336.73
591.02	2058.21
591.22	1814.50
591.41	1804.26
591.60	1652.71
591.80	1732.58
591.99	1617.90
592.18	1626.09
592.38	1671.14
592.57	1566.70
592.76	1570.79
592.96	1601.51
593.15	1585.13
593.34	1585.13
593.54	1507.30
593.73	1599.46
593.92	1658.85
594.12	1585.13
594.31	1562.60
594.50	1773.54
594.70	1705.96
594.89	1812.45
595.08	1542.12
595.28	1624.04
595.47	1683.43
595.66	1583.08
595.86	1568.74
596.05	1581.03
596.24	1523.69
596.43	1615.85
596.63	1599.46
596.82	1615.85
597.01	1562.60
597.21	1621.99
597.40	1638.38
597.59	1550.31
597.79	1533.93
597.98	1679.33
598.17	1529.83
598.36	1578.98
598.56	1615.85
598.75	1550.31
598.94	1591.27
599.14	1595.37
599.33	1585.13
599.52	1527.78
599.71	1591.27
599.91	1597.42
600.10	1621.99
600.29	1587.18
600.48	1574.89
600.68	1521.64
600.87	1535.98
601.06	1601.51
601.26	1550.31
601.45	1515.50
601.64	1535.98
601.83	1628.14
602.03	1509.35
602.22	1583.08
602.41	1628.14
602.60	1701.86
602.80	1658.85
602.99	1492.97
603.18	1538.02
603.37	1591.27
603.57	1621.99
603.76	1652.71
603.95	1591.27
604.14	1521.64
604.34	1560.55
604.53	1531.88
604.72	1560.55
604.91	1644.52
605.10	1628.14
605.30	1439.72
605.49	1677.29
605.68	1583.08
605.87	1556.46
606.07	1581.03
606.26	1599.46
606.45	1609.70
606.64	1583.08
606.84	1578.98
607.03	1603.56
607.22	1708.01
607.41	1656.81
607.60	1609.70
607.80	1632.23
607.99	1542.12
608.18	1568.74
608.37	1609.70
608.56	1538.02
608.76	1576.94
608.95	1626.09
609.14	1626.09
609.33	1603.56
609.52	1716.20
609.72	1642.47
609.91	1652.71
610.10	1546.22
610.29	1697.77
610.48	1581.03
610.68	1630.18
610.87	1519.59
611.06	1599.46
611.25	1587.18
611.44	1615.85
611.63	1535.98
611.83	1710.05
612.02	1556.46
612.21	1621.99
612.40	1427.43
612.59	1484.78
612.79	1466.35
612.98	1533.93
613.17	1640.42
613.36	1628.14
613.55	1609.70
613.74	1615.85
613.93	1677.29
614.13	1677.29
614.32	1787.88
614.51	1701.86
614.70	1599.46
614.89	1683.43
615.08	1650.66
615.28	1849.32
615.47	1535.98
615.66	1621.99
615.85	1570.79
616.04	1746.92
616.23	1644.52
616.42	1609.70
616.62	1705.96
616.81	1642.47
617.00	1552.36
617.19	1619.94
617.38	1533.93
617.57	1560.55
617.76	1611.75
617.95	1607.66
618.15	1595.37
618.34	1658.85
618.53	1484.78
618.72	1615.85
618.91	1599.46
619.10	1615.85
619.29	1621.99
619.48	1495.02
619.68	1507.30
619.87	1527.78
620.06	1529.83
620.25	1564.65
620.44	1550.31
620.63	1533.93
620.82	1552.36
621.01	1540.07
621.20	1538.02
621.39	1554.41
621.59	1583.08
621.78	1566.70
621.97	1527.78
622.16	1626.09
622.35	1581.03
622.54	1607.66
622.73	1642.47
622.92	1439.72
623.11	1597.42
623.30	1509.35
623.49	1550.31
623.68	1499.11
623.88	1562.60
624.07	1544.17
624.26	1527.78
624.45	1564.65
624.64	1538.02
624.83	1505.26
625.02	1521.64
625.21	1546.22
625.40	1556.46
625.59	1576.94
625.78	1505.26
625.97	1646.57
626.16	1673.19
626.35	1576.94
626.54	1679.33
626.74	1675.24
626.93	1587.18
627.12	1552.36
627.31	1628.14
627.50	1611.75
627.69	1560.55
627.88	1509.35
628.07	1462.25
628.26	1540.07
628.45	1552.36
628.64	1529.83
628.83	1443.82
629.02	1550.31
629.21	1476.59
629.40	1642.47
629.59	1501.16
629.78	1415.15
629.97	1533.93
630.16	1568.74
630.35	1585.13
630.54	1599.46
630.73	1474.54
630.92	1560.55
631.11	1578.98
631.30	1495.02
631.49	1538.02
631.68	1572.84
631.87	1538.02
632.06	1513.45
632.25	1669.09
632.44	1521.64
632.63	1615.85
632.82	1595.37
633.01	1581.03
633.20	1626.09
633.39	1607.66
633.58	1538.02
633.77	1591.27
633.96	1593.32
634.15	1605.61
634.34	1613.80
634.53	1578.98
634.72	1578.98
634.91	1488.87
635.10	1492.97
635.29	1529.83
635.48	1591.27
635.67	1525.74
635.86	1411.05
636.05	1624.04
636.24	1542.12
636.43	1540.07
636.62	1542.12
636.81	1478.63
637.00	1591.27
637.19	1599.46
637.38	1554.41
637.57	1548.26
637.76	1568.74
637.95	1576.94
638.14	1554.41
638.33	1640.42
638.52	1634.28
638.71	1562.60
638.89	1517.54
639.08	1660.90
639.27	1642.47
639.46	1642.47
639.65	1992.67
639.84	2066.40
640.03	2203.61
640.22	2201.57
640.41	2287.58
640.60	2000.87
640.79	1906.66
640.98	1748.97
641.17	1771.49
641.36	1763.30
641.55	1656.81
641.74	1591.27
641.92	1619.94
642.11	1609.70
642.30	1671.14
642.49	1558.50
642.68	1556.46
642.87	1574.89
643.06	1617.90
643.25	1525.74
643.44	1554.41
643.63	1523.69
643.82	1593.32
644.00	1572.84
644.19	1503.21
644.38	1409.00
644.57	1552.36
644.76	1583.08
644.95	1544.17
645.14	1597.42
645.33	1443.82
645.52	1609.70
645.71	1581.03
645.89	1511.40
646.08	1578.98
646.27	1529.83
646.46	1660.90
646.65	1540.07
646.84	1535.98
647.03	1488.87
647.22	1683.43
647.40	1583.08
647.59	1515.50
647.78	1476.59
647.97	1497.07
648.16	1501.16
648.35	1566.70
648.54	1535.98
648.73	1525.74
648.91	1581.03
649.10	1519.59
649.29	1472.49
649.48	1484.78
649.67	1585.13
649.86	1576.94
650.05	1589.22
650.23	1697.77
650.42	1650.66
650.61	1685.48
650.80	1718.25
650.99	1740.77
651.18	1626.09
651.36	1708.01
651.55	1562.60
651.74	1642.47
651.93	1458.15
652.12	1529.83
652.31	1552.36
652.49	1525.74
652.68	1507.30
652.87	1652.71
653.06	1595.37
653.25	1599.46
653.44	1578.98
653.62	1640.42
653.81	1587.18
654.00	1564.65
654.19	1572.84
654.38	1675.24
654.56	1562.60
654.75	1527.78
654.94	1591.27
655.13	1658.85
655.32	1538.02
655.51	1615.85
655.69	1531.88
655.88	1667.05
656.07	1511.40
656.26	1517.54
656.45	1482.73
656.63	1556.46
656.82	1675.24
657.01	1619.94
657.20	1499.11
657.38	1609.70
657.57	1540.07
657.76	1517.54
657.95	1601.51
658.14	1470.44
658.32	1521.64
658.51	1529.83
658.70	1492.97
658.89	1599.46
659.08	1538.02
659.26	1607.66
659.45	1552.36
659.64	1634.28
659.83	1562.60
660.01	1665.00
660.20	1576.94
660.39	1748.97
660.58	1425.39
660.76	1611.75
660.95	1476.59
661.14	1599.46
661.33	1464.30
661.51	1558.50
661.70	1554.41
661.89	1560.55
662.08	1505.26
662.26	1478.63
662.45	1529.83
662.64	1673.19
662.83	1609.70
663.01	1527.78
663.20	1499.11
663.39	1638.38
663.58	1525.74
663.76	1597.42
663.95	1574.89
664.14	1507.30
664.32	1597.42
664.51	1529.83
664.70	1501.16
664.89	1523.69
665.07	1505.26
665.26	1564.65
665.45	1490.92
665.64	1560.55
665.82	1589.22
666.01	1550.31
666.20	1576.94
666.38	1634.28
666.57	1585.13
666.76	1828.84
666.95	2957.27
667.13	7583.63
667.32	15496.98
667.51	20006.61
667.69	23400.09
667.88	25177.73
668.07	21974.70
668.25	15677.20
668.44	12494.66
668.63	10157.92
668.81	8664.96
669.00	7616.40
669.19	7120.79
669.38	6229.92
669.56	5658.54
669.75	4624.31
669.94	4173.76
670.12	3448.78
670.31	2875.35
670.50	2385.88
670.68	2090.98
670.87	1918.95
671.06	1769.44
671.24	1740.77
671.43	1738.73
671.62	1603.56
671.80	1611.75
671.99	1644.52
672.18	1597.42
672.36	1601.51
672.55	1593.32
672.74	1544.17
672.92	1542.12
673.11	1578.98
673.29	1509.35
673.48	1611.75
673.67	1538.02
673.85	1656.81
674.04	1550.31
674.23	1583.08
674.41	1609.70
674.60	1511.40
674.79	1411.05
674.97	1495.02
675.16	1556.46
675.34	1626.09
675.53	1474.54
675.72	1574.89
675.90	1607.66
676.09	1570.79
676.28	1593.32
676.46	1578.98
676.65	1449.96
676.83	1581.03
677.02	1544.17
677.21	1515.50
677.39	1607.66
677.58	1578.98
677.77	1523.69
677.95	1503.21
678.14	1560.55
678.32	1490.92
678.51	1507.30
678.70	1593.32
678.88	1490.92
679.07	1511.40
679.25	1452.01
679.44	1552.36
679.63	1460.20
679.81	1519.59
680.00	1615.85
680.18	1515.50
680.37	1632.23
680.55	1583.08
680.74	1513.45
680.93	1499.11
681.11	1566.70
681.30	1486.83
681.48	1621.99
681.67	1519.59
681.85	1595.37
682.04	1452.01
682.23	1611.75
682.41	1560.55
682.60	1587.18
682.78	1589.22
682.97	1472.49
683.15	1558.50
683.34	1474.54
683.53	1552.36
683.71	1449.96
683.90	1615.85
684.08	1605.61
684.27	1472.49
684.45	1554.41
684.64	1644.52
684.82	1517.54
685.01	1593.32
685.19	1550.31
685.38	1644.52
685.57	1609.70
685.75	1495.02
685.94	1456.11
686.12	1501.16
686.31	1476.59
686.49	1605.61
686.68	1474.54
686.86	1492.97
687.05	1488.87
687.23	1566.70
687.42	1480.68
687.60	1486.83
687.79	1630.18
687.97	1560.55
688.16	1533.93
688.34	1540.07
688.53	1460.20
688.71	1544.17
688.90	1585.13
689.08	1550.31
689.27	1511.40
689.45	1609.70
689.64	1540.07
689.82	1529.83
690.01	1593.32
690.19	1550.31
690.38	1503.21
690.56	1562.60
690.75	1472.49
690.93	1429.48
691.12	1583.08
691.30	1507.30
691.49	1519.59
691.67	1497.07
691.86	1691.62
692.04	1484.78
692.23	1570.79
692.41	1552.36
692.60	1716.20
692.78	1601.51
692.97	1581.03
693.15	1628.14
693.34	1687.53
693.52	1585.13
693.71	1550.31
693.89	1519.59
694.08	1601.51
694.26	1521.64
694.44	1523.69
694.63	1454.06
694.81	1550.31
695.00	1509.35
695.18	1591.27
695.37	1617.90
695.55	1529.83
695.74	1527.78
695.92	1525.74
696.10	1583.08
696.29	1533.93
696.47	1527.78
696.66	1480.68
696.84	1486.83
697.03	1583.08
697.21	1687.53
697.40	2029.54
697.58	1538.02
697.76	1538.02
697.95	1460.20
698.13	1484.78
698.32	1538.02
698.50	1583.08
698.68	1566.70
698.87	1546.22
699.05	1595.37
699.24	1578.98
699.42	1535.98
699.61	1478.63
699.79	1499.11
699.97	1529.83
700.16	1523.69
700.34	1495.02
700.53	1540.07
700.71	1546.22
700.89	1601.51
701.08	1544.17
701.26	1511.40
701.45	1802.21
701.63	1513.45
701.81	1566.70
702.00	1562.60
702.18	1570.79
702.37	1538.02
702.55	1675.24
702.73	1673.19
702.92	1796.07
703.10	1814.50
703.28	1837.03
703.47	1699.81
703.65	1748.97
703.84	1771.49
704.02	1597.42
704.20	1783.78
704.39	1603.56
704.57	1624.04
704.75	1599.46
704.94	1603.56
705.12	1599.46
705.30	1630.18
705.49	1757.16
705.67	2836.44
705.86	7276.43
706.04	14604.07
706.22	18583.27
706.41	21380.79
706.59	22871.72
706.77	20770.50
706.96	14624.54
707.14	11775.82
707.32	9570.16
707.51	8769.40
707.69	7573.39
707.87	6684.57
708.06	5726.12
708.24	4724.66
708.42	3749.83
708.61	2998.23
708.79	2260.96
708.97	1984.48
709.16	1763.30
709.34	1779.68
709.52	1650.66
709.71	1591.27
709.89	1646.57
710.07	1650.66
710.26	1507.30
710.44	1550.31
710.62	1605.61
710.80	1542.12
710.99	1566.70
711.17	1615.85
711.35	1511.40
711.54	1560.55
711.72	1617.90
711.90	1576.94
712.09	1546.22
712.27	1542.12
712.45	1495.02
712.63	1511.40
712.82	1552.36
713.00	1529.83
713.18	1538.02
713.37	1658.85
713.55	1619.94
713.73	1578.98
713.91	1583.08
714.10	1492.97
714.28	1484.78
714.46	1566.70
714.65	1486.83
714.83	1548.26
715.01	1609.70
715.19	1548.26
715.38	1509.35
715.56	1587.18
715.74	1488.87
715.92	1454.06
716.11	1658.85
716.29	1488.87
716.47	1523.69
716.65	1568.74
716.84	1466.35
717.02	1611.75
717.20	1472.49
717.38	1546.22
717.57	1628.14
717.75	1550.31
717.93	1597.42
718.11	1574.89
718.30	1480.68
718.48	1490.92
718.66	1558.50
718.84	1601.51
719.03	1574.89
719.21	1521.64
719.39	1624.04
719.57	1458.15
719.75	1456.11
719.94	1564.65
720.12	1548.26
720.30	1544.17
720.48	1570.79
720.67	1531.88
720.85	1511.40
721.03	1533.93
721.21	1490.92
721.39	1587.18
721.58	1560.55
721.76	1568.74
721.94	1492.97
722.12	1529.83
722.30	1636.33
722.49	1527.78
722.67	1581.03
722.85	1554.41
723.03	1435.63
723.21	1492.97
723.40	1578.98
723.58	1562.60
723.76	1607.66
723.94	1677.29
724.12	1624.04
724.30	1665.00
724.49	1605.61
724.67	1593.32
724.85	1646.57
725.03	1560.55
725.21	1558.50
725.40	1621.99
725.58	1578.98
725.76	1640.42
725.94	1546.22
726.12	1574.89
726.30	1550.31
726.49	1591.27
726.67	1402.86
726.85	1525.74
727.03	1601.51
727.21	1703.91
727.39	2209.76
727.57	3346.38
727.76	4241.34
727.94	4833.21
728.12	5267.38
728.30	4997.04
728.48	4300.73
728.66	3479.50
728.84	3231.69
729.03	2951.12
729.21	2648.02
729.39	2222.05
729.57	1980.39
729.75	1796.07
729.93	1720.29
730.11	1687.53
730.30	1624.04
730.48	1605.61
730.66	1673.19
730.84	1617.90
731.02	1486.83
731.20	1576.94
731.38	1611.75
731.56	1488.87
731.74	1554.41
731.93	1535.98
732.11	1445.87
732.29	1535.98
732.47	1499.11
732.65	1587.18
732.83	1632.23
733.01	1550.31
733.19	1523.69
733.37	1568.74
733.56	1519.59
733.74	1568.74
733.92	1521.64
734.10	1507.30
734.28	1531.88
734.46	1460.20
734.64	1544.17
734.82	1533.93
735.00	1476.59
735.18	1462.25
735.36	1492.97
735.54	1435.63
735.73	1538.02
735.91	1564.65
736.09	1595.37
736.27	1595.37
736.45	1650.66
736.63	1480.68
736.81	1501.16
736.99	1597.42
737.17	1535.98
737.35	1439.72
737.53	1578.98
737.71	1550.31
737.89	1642.47
738.07	1554.41
738.25	1507.30
738.43	1443.82
738.61	1529.83
738.80	1464.30
738.98	1460.20
739.16	1501.16
739.34	1458.15
739.52	1583.08
739.70	1527.78
739.88	1581.03
740.06	1548.26
740.24	1525.74
740.42	1525.74
740.60	1468.39
740.78	1470.44
740.96	1419.24
741.14	1398.76
741.32	1488.87
741.50	1409.00
741.68	1624.04
741.86	1599.46
742.04	1509.35
742.22	1519.59
742.40	1529.83
742.58	1603.56
742.76	1404.91
742.94	1548.26
743.12	1470.44
743.30	1499.11
743.48	1521.64
743.66	1505.26
743.84	1589.22
744.02	1509.35
744.20	1593.32
744.38	1488.87
744.56	1558.50
744.74	1634.28
744.92	1560.55
745.10	1542.12
745.28	1593.32
745.46	1628.14
745.64	1486.83
745.82	1499.11
746.00	1505.26
746.18	1505.26
746.36	1480.68
746.54	1533.93
746.72	1546.22
746.90	1593.32
747.08	1628.14
747.26	1507.30
747.44	1576.94
747.62	1540.07
747.80	1486.83
747.98	1585.13
748.15	1511.40
748.33	1595.37
748.51	1533.93
748.69	1544.17
748.87	1509.35
749.05	1531.88
749.23	1538.02
749.41	1542.12
749.59	1562.60
749.77	1603.56
749.95	1546.22
750.13	1538.02
750.31	1628.14
750.49	1544.17
750.67	1501.16
750.85	1650.66
751.03	1570.79
751.20	1591.27
751.38	1574.89
751.56	1550.31
751.74	1581.03
751.92	1513.45
752.10	1480.68
752.28	1597.42
752.46	1525.74
752.64	1472.49
752.82	1595.37
753.00	1581.03
753.18	1513.45
753.35	1515.50
753.53	1476.59
753.71	1560.55
753.89	1640.42
754.07	1550.31
754.25	1599.46
754.43	1546.22
754.61	1505.26
754.79	1566.70
754.97	1542.12
755.14	1652.71
755.32	1501.16
755.50	1495.02
755.68	1525.74
755.86	1550.31
756.04	1525.74
756.22	1472.49
756.40	1595.37
756.57	1681.38
756.75	1484.78
756.93	1568.74
757.11	1615.85
757.29	1517.54
757.47	1558.50
757.65	1488.87
757.82	1484.78
758.00	1562.60
758.18	1509.35
758.36	1544.17
758.54	1595.37
758.72	1507.30
758.90	1529.83
759.07	1572.84
759.25	1560.55
759.43	1540.07
759.61	1562.60
759.79	1886.18
759.97	1525.74
760.15	1464.30
760.32	1525.74
760.50	1574.89
760.68	1628.14
760.86	1495.02
761.04	1634.28
761.22	1540.07
761.39	1495.02
761.57	1568.74
761.75	1546.22
761.93	1585.13
762.11	1554.41
762.28	1533.93
762.46	1460.20
762.64	1593.32
762.82	1513.45
763.00	1449.96
763.18	1564.65
763.35	1470.44
763.53	1550.31
763.71	1482.73
763.89	1507.30
764.07	1499.11
764.24	1509.35
764.42	1601.51
764.60	1527.78
764.78	1546.22
764.96	1609.70
765.13	1576.94
765.31	1427.43
765.49	1558.50
765.67	1527.78
765.84	1476.59
766.02	1587.18
766.20	1513.45
766.38	1511.40
766.56	1603.56
766.73	1535.98
766.91	1560.55
767.09	1466.35
767.27	1562.60
767.44	1476.59
767.62	1552.36
767.80	1570.79
767.98	1546.22
768.15	1505.26
768.33	1525.74
768.51	1576.94
768.69	1595.37
768.87	1578.98
769.04	1529.83
769.22	1607.66
769.40	1603.56
769.58	1646.57
769.75	1548.26
769.93	1570.79
770.11	1484.78
770.28	1425.39
770.46	1581.03
770.64	1656.81
770.82	1527.78
770.99	1578.98
771.17	1585.13
771.35	1585.13
771.53	1538.02
771.70	1458.15
771.88	1527.78
772.06	1533.93
772.23	1552.36
772.41	1484.78
772.59	1495.02
772.77	1535.98
772.94	1542.12
773.12	1593.32
773.30	1478.63
773.47	1521.64
773.65	1517.54
773.83	1714.15
774.01	1546.22
774.18	1552.36
774.36	1509.35
774.54	1490.92
774.71	1603.56
774.89	1484.78
775.07	1509.35
775.24	1456.11
775.42	1466.35
775.60	1574.89
775.78	1533.93
775.95	1413.10
776.13	1501.16
776.31	1511.40
776.48	1656.81
776.66	1576.94
776.84	1525.74
777.01	1566.70
777.19	1554.41
777.37	1497.07
777.54	1560.55
777.72	1642.47
777.90	1593.32
778.07	1558.50
778.25	1613.80
778.43	1599.46
778.60	1523.69
778.78	1519.59
778.96	1591.27
779.13	1533.93
779.31	1531.88
779.49	1492.97
779.66	1566.70
779.84	1544.17
780.01	1519.59
780.19	1544.17
780.37	1593.32
780.54	1564.65
780.72	1509.35
780.90	1560.55
781.07	1535.98
781.25	1587.18
781.43	1591.27
781.60	1492.97
781.78	1642.47
781.95	1490.92
782.13	1525.74
782.31	1484.78
782.48	1497.07
782.66	1521.64
782.83	1642.47
783.01	1583.08
783.19	1595.37
783.36	1482.73
783.54	1509.35
783.72	1644.52
783.89	1435.63
784.07	1517.54
784.24	1562.60
784.42	1650.66
784.60	1529.83
784.77	1576.94
784.95	1525.74
785.12	1513.45
785.30	1546.22
785.47	1499.11
785.65	1538.02
785.83	1525.74
786.00	1529.83
786.18	1527.78
786.35	1533.93
786.53	1521.64
786.71	1587.18
786.88	1478.63
787.06	1456.11
787.23	1507.30
787.41	1544.17
787.58	1576.94
787.76	1497.07
787.94	1454.06
788.11	1548.26
788.29	1445.87
788.46	1462.25
788.64	1423.34
788.81	1552.36
788.99	1468.39
789.16	1540.07
789.34	1615.85
789.52	1505.26
789.69	1445.87
789.87	1470.44
790.04	1509.35
790.22	1523.69
790.39	1599.46
790.57	1488.87
790.74	1490.92
790.92	1521.64
791.09	1495.02
791.27	1509.35
791.44	1595.37
791.62	1503.21
791.79	1556.46
791.97	1538.02
792.15	1699.81
792.32	1574.89
792.50	1535.98
792.67	1603.56
792.85	1574.89
793.02	1550.31
793.20	1478.63
793.37	1517.54
793.55	1568.74
793.72	1595.37
793.90	1548.26
794.07	1538.02
794.25	1505.26
794.42	1499.11
794.60	1529.83
794.77	1513.45
794.95	1531.88
795.12	1599.46
795.30	1458.15
795.47	1523.69
795.65	1665.00
795.82	1533.93
796.00	1497.07
796.17	1495.02
796.34	1576.94
796.52	1562.60
796.69	1628.14
796.87	1535.98
797.04	1583.08
797.22	1630.18
797.39	1505.26
797.57	1572.84
797.74	1527.78
797.92	1603.56
798.09	1484.78
798.27	1542.12
798.44	1550.31
798.62	1513.45
798.79	1554.41
798.96	1564.65
799.14	1490.92
799.31	1634.28
799.49	1546.22
799.66	1546.22
799.84	1540.07
800.01	1591.27
800.19	1521.64
800.36	1511.40
800.53	1552.36
800.71	1560.55
800.88	1603.56
801.06	1529.83
801.23	1638.38
801.41	1533.93
801.58	1566.70
801.75	1544.17
801.93	1552.36
802.10	1605.61
802.28	1533.93
802.45	1538.02
802.63	1527.78
802.80	1585.13
802.97	1492.97
803.15	1554.41
803.32	1492.97
803.50	1495.02
803.67	1527.78
803.84	1398.76
804.02	1499.11
804.19	1480.68
804.37	1517.54
804.54	1476.59
804.71	1574.89
804.89	1589.22
805.06	1443.82
805.24	1523.69
805.41	1460.20
805.58	1550.31
805.76	1617.90
805.93	1587.18
806.10	1636.33
806.28	1578.98
806.45	1542.12
806.63	1564.65
806.80	1519.59
806.97	1517.54
807.15	1533.93
807.32	1478.63
807.49	1581.03
807.67	1546.22
807.84	1492.97
808.01	1472.49
808.19	1652.71
808.36	1695.72
808.54	1505.26
808.71	1531.88
808.88	1564.65
809.06	1550.31
809.23	1617.90
809.40	1581.03
809.58	1638.38
809.75	1597.42
809.92	1486.83
810.10	1650.66
810.27	1472.49
810.44	1544.17
810.62	1589.22
810.79	1542.12
810.96	1484.78
811.14	1527.78
811.31	1581.03
811.48	1599.46
811.66	1515.50
811.83	1560.55
812.00	1519.59
812.18	1527.78
812.35	1621.99
812.52	1576.94
812.69	1546.22
812.87	1540.07
813.04	1535.98
813.21	1550.31
813.39	1497.07
813.56	1509.35
813.73	1564.65
813.91	1466.35
814.08	1552.36
814.25	1566.70
814.42	1472.49
814.60	1507.30
814.77	1495.02
814.94	1507.30
815.12	1525.74
815.29	1509.35
815.46	1525.74
815.63	1564.65
815.81	1513.45
815.98	1454.06
816.15	1566.70
816.33	1519.59
816.50	1425.39
816.67	1570.79
816.84	1499.11
817.02	1437.67
817.19	1488.87
817.36	1562.60
817.53	1529.83
817.71	1497.07
817.88	1591.27
818.05	1533.93
818.22	1527.78
818.40	1587.18
818.57	1513.45
818.74	1558.50
818.91	1482.73
819.09	1564.65
819.26	1619.94
819.43	1515.50
819.60	1456.11
819.78	1546.22
819.95	1595.37
820.12	1544.17
820.29	1572.84
820.47	1632.23
820.64	1499.11
820.81	1492.97
820.98	1585.13
821.15	1562.60
821.33	1527.78
821.50	1495.02
821.67	1542.12
821.84	1591.27
822.02	1576.94
822.19	1521.64
822.36	1470.44
822.53	1519.59
822.70	1472.49
822.88	1413.10
823.05	1562.60
823.22	1482.73
823.39	1595.37
823.56	1544.17
823.74	1570.79
823.91	1492.97
824.08	1576.94
824.25	1413.10
824.42	1724.39
824.60	1484.78
824.77	1509.35
824.94	1499.11
825.11	1583.08
825.28	1439.72
825.45	1501.16
825.63	1564.65
825.80	1429.48
825.97	1593.32
826.14	1527.78
826.31	1464.30
826.48	1558.50
826.66	1501.16
826.83	1525.74
827.00	1542.12
827.17	1505.26
827.34	1507.30
827.51	1474.54
827.69	1486.83
827.86	1558.50
828.03	1552.36
828.20	1535.98
828.37	1525.74
828.54	1535.98
828.71	1413.10
828.89	1634.28
829.06	1595.37
829.23	1640.42
829.40	1452.01
829.57	1560.55
829.74	1513.45
829.91	1501.16
830.09	1488.87
830.26	1556.46
830.43	1621.99
830.60	1578.98
830.77	1501.16
830.94	1550.31
831.11	1540.07
831.28	1550.31
831.46	1591.27
831.63	1507.30
831.80	1587.18
831.97	1525.74
832.14	1505.26
832.31	1593.32
832.48	1589.22
832.65	1576.94
832.82	1507.30
832.99	1550.31
833.17	1452.01
833.34	1591.27
833.51	1585.13
833.68	1488.87
833.85	1615.85
834.02	1452.01
834.19	1462.25
834.36	1597.42
834.53	1593.32
834.70	1540.07
834.87	1509.35
835.04	1505.26
835.22	1499.11
835.39	1503.21
835.56	1394.67
835.73	1525.74
835.90	1552.36
836.07	1466.35
836.24	1609.70
836.41	1486.83
836.58	1562.60
836.75	1570.79
836.92	1560.55
837.09	1517.54
837.26	1603.56
837.43	1538.02
837.60	1560.55
837.77	1480.68
837.94	1576.94
838.12	1609.70
838.29	1581.03
838.46	1497.07
838.63	1546.22
838.80	1554.41
838.97	1570.79
839.14	1488.87
839.31	1544.17
839.48	1513.45
839.65	1503.21
839.82	1560.55
839.99	1542.12
840.16	1552.36
840.33	1515.50
840.50	1523.69
840.67	1574.89
840.84	1435.63
841.01	1619.94
841.18	1538.02
841.35	1566.70
841.52	1599.46
841.69	1648.61
841.86	1538.02
842.03	1554.41
842.20	1503.21
842.37	1593.32
842.54	1519.59
842.71	1507.30
842.88	1443.82
843.05	1564.65
843.22	1544.17
843.39	1562.60
843.56	1548.26
843.73	1515.50
843.90	1578.98
844.07	1558.50
844.24	1566.70
844.41	1542.12
844.58	1509.35
844.75	1585.13
844.92	1511.40
845.09	1546.22
845.26	1503.21
845.43	1488.87
845.60	1484.78
845.77	1574.89
845.94	1519.59
846.10	1564.65
846.27	1427.43
846.44	1472.49
846.61	1458.15
846.78	1513.45
846.95	1511.40
847.12	1462.25
847.29	1521.64
847.46	1566.70
847.63	1484.78
847.80	1501.16
847.97	1484.78
848.14	1652.71
848.31	1548.26
848.48	1452.01
848.65	1562.60
848.82	1482.73
848.98	1634.28
849.15	1521.64
849.32	1677.29
849.49	1650.66
849.66	1558.50
849.83	1578.98
850.00	1501.16
850.17	1550.31
850.34	1478.63
850.51	1425.39
850.68	1474.54
850.85	1624.04
851.01	1525.74
851.18	1519.59
851.35	1587.18
851.52	1636.33
851.69	1617.90
851.86	1517.54
852.03	1511.40
852.20	1517.54
852.37	1544.17
852.53	1495.02
852.70	1529.83
852.87	1546.22
853.04	1564.65
853.21	1454.06
853.38	1646.57
853.55	1456.11
853.72	1521.64
853.89	1488.87
854.05	1470.44
854.22	1548.26
854.39	1503.21
854.56	1613.80
854.73	1609.70
854.90	1525.74
855.07	1548.26
855.23	1492.97
855.40	1533.93
855.57	1443.82
855.74	1517.54
855.91	1679.33
856.08	1513.45
856.25	1499.11
856.41	1480.68
856.58	1523.69
856.75	1558.50
856.92	1495.02
857.09	1558.50
857.26	1447.91
857.42	1542.12
857.59	1538.02
857.76	1535.98
857.93	1601.51
858.10	1550.31
858.27	1488.87
858.43	1554.41
858.60	1552.36
858.77	1421.29
858.94	1474.54
859.11	1576.94
859.27	1509.35
859.44	1583.08
859.61	1585.13
859.78	1576.94
859.95	1550.31
860.12	1466.35
860.28	1615.85
860.45	1564.65
860.62	1413.10
860.79	1542.12
860.95	1595.37
861.12	1476.59
861.29	1527.78
861.46	1488.87
861.63	1538.02
861.79	1558.50
861.96	1484.78
862.13	1574.89
862.30	1599.46
862.47	1490.92
862.63	1513.45
862.80	1613.80
862.97	1648.61
863.14	1609.70
863.30	1560.55
863.47	1488.87
863.64	1628.14
863.81	1554.41
863.97	1468.39
864.14	1538.02
864.31	1593.32
864.48	1501.16
864.65	1486.83
864.81	1576.94
864.98	1527.78
865.15	1572.84
865.32	1570.79
865.48	1628.14
865.65	1578.98
865.82	1503.21
865.98	1523.69
866.15	1466.35
866.32	1503.21
866.49	1503.21
866.65	1605.61
866.82	1529.83
866.99	1439.72
867.16	1495.02
867.32	1552.36
867.49	1468.39
867.66	1476.59
867.83	1484.78
867.99	1501.16
868.16	1531.88
868.33	1472.49
868.49	1621.99
868.66	1521.64
868.83	1587.18
868.99	1529.83
869.16	1538.02
869.33	1609.70
869.50	1556.46
869.66	1523.69
869.83	1484.78
870.00	1507.30
870.16	1529.83
870.33	1599.46
870.50	1544.17
870.66	1595.37
870.83	1617.90
871.00	1550.31
871.17	1615.85
871.33	1589.22
871.50	1527.78
871.67	1560.55
871.83	1445.87
872.00	1691.62
872.17	1431.53
872.33	1644.52
872.50	1546.22
872.67	1546.22
872.83	1535.98
873.00	1574.89
873.17	1503.21
873.33	1546.22
873.50	1542.12
873.67	1429.48
873.83	1525.74
874.00	1523.69
874.16	1570.79
874.33	1519.59
874.50	1554.41
874.66	1527.78
874.83	1550.31
875.00	1593.32
875.16	1576.94
875.33	1644.52
875.50	1431.53
875.66	1566.70
875.83	1558.50
875.99	1626.09
876.16	1503.21
876.33	1501.16
876.49	1589.22
876.66	1576.94
876.83	1509.35
876.99	1499.11
877.16	1525.74
877.32	1578.98
877.49	1456.11
877.66	1548.26
877.82	1542.12
877.99	1578.98
878.15	1607.66
878.32	1568.74
878.49	1550.31
878.65	1527.78
878.82	1517.54
878.98	1507.30
879.15	1617.90
879.32	1568.74
879.48	1505.26
879.65	1542.12
879.81	1488.87
879.98	1544.17
880.15	1476.59
880.31	1540.07
880.48	1525.74
880.64	1593.32
880.81	1499.11
880.97	1572.84
881.14	1578.98
881.31	1538.02
881.47	1626.09
881.64	1513.45
881.80	1378.28
881.97	1605.61
882.13	1587.18
882.30	1503.21
882.47	1566.70
882.63	1445.87
882.80	1533.93
882.96	1501.16
883.13	1538.02
883.29	1492.97
883.46	1597.42
883.62	1570.79
883.79	1480.68
883.95	1593.32
884.12	1550.31
884.29	1542.12
884.45	1538.02
884.62	1527.78
884.78	1497.07
884.95	1564.65
885.11	1466.35
885.28	1538.02
885.44	1503.21
885.61	1546.22
885.77	1544.17
885.94	1615.85
886.10	1484.78
886.27	1570.79
886.43	1601.51
886.60	1654.76
886.76	1503.21
886.93	1505.26
887.09	1513.45
887.26	1488.87
887.42	1587.18
887.59	1544.17
887.75	1708.01
887.92	1624.04
888.08	1570.79
888.25	1628.14
888.41	1597.42
888.58	1540.07
888.74	1441.77
888.91	1490.92
>>>>>End Processed Spectral Data<<<<<
