SpectraSuite Data File
++++++++++++++++++++++++++++++++++++
Date: Tue May 03 12:55:50 CEST 2016
User: root
Dark Spectrum Present: No
Reference Spectrum Present: No
Number of Sampled Component Spectra: 1
Spectrometers: USB4C02835
Integration Time (usec): 100000 (USB4C02835)
Spectra Averaged: 1 (USB4C02835)
Boxcar Smoothing: 0 (USB4C02835)
Correct for Electrical Dark: No (USB4C02835)
Strobe/Lamp Enabled: No (USB4C02835)
Correct for Detector Non-linearity: No (USB4C02835)
Correct for Stray Light: No (USB4C02835)
Number of Pixels in Processed Spectrum: 3648
>>>>>Begin Processed Spectral Data<<<<<
177.47	1325.04
177.69	1325.04
177.91	1325.04
178.13	1333.23
178.36	1304.56
178.58	1415.15
178.80	1470.44
179.02	1515.50
179.24	1538.02
179.46	1535.98
179.68	1456.11
179.90	1544.17
180.13	1501.16
180.35	1566.70
180.57	1474.54
180.79	1509.35
181.01	1521.64
181.23	1581.03
181.45	1599.46
181.67	1611.75
181.90	1519.59
182.12	1550.31
182.34	1437.67
182.56	1578.98
182.78	1566.70
183.00	1558.50
183.22	1509.35
183.44	1445.87
183.66	1660.90
183.89	1662.95
184.11	1509.35
184.33	1540.07
184.55	1562.60
184.77	1599.46
184.99	1511.40
185.21	1429.48
185.43	1642.47
185.65	1531.88
185.87	1587.18
186.10	1591.27
186.32	1638.38
186.54	1533.93
186.76	1521.64
186.98	1527.78
187.20	1468.39
187.42	1509.35
187.64	1484.78
187.86	1509.35
188.08	1566.70
188.30	1527.78
188.52	1636.33
188.75	1593.32
188.97	1595.37
189.19	1419.24
189.41	1589.22
189.63	1529.83
189.85	1503.21
190.07	1497.07
190.29	1454.06
190.51	1538.02
190.73	1488.87
190.95	1621.99
191.17	1478.63
191.39	1482.73
191.61	1576.94
191.84	1531.88
192.06	1570.79
192.28	1542.12
192.50	1675.24
192.72	1513.45
192.94	1607.66
193.16	1607.66
193.38	1581.03
193.60	1507.30
193.82	1517.54
194.04	1638.38
194.26	1572.84
194.48	1611.75
194.70	1542.12
194.92	1505.26
195.14	1574.89
195.36	1548.26
195.58	1531.88
195.80	1527.78
196.02	1466.35
196.24	1540.07
196.46	1570.79
196.69	1529.83
196.91	1636.33
197.13	1628.14
197.35	1535.98
197.57	1619.94
197.79	1593.32
198.01	1546.22
198.23	1572.84
198.45	1578.98
198.67	1562.60
198.89	1585.13
199.11	1556.46
199.33	1566.70
199.55	1468.39
199.77	1497.07
199.99	1578.98
200.21	1511.40
200.43	1542.12
200.65	1439.72
200.87	1409.00
201.09	1544.17
201.31	1566.70
201.53	1648.61
201.75	1581.03
201.97	1570.79
202.19	1447.91
202.41	1558.50
202.63	1718.25
202.85	1486.83
203.07	1615.85
203.29	1495.02
203.51	1476.59
203.73	1527.78
203.95	1708.01
204.17	1513.45
204.39	1507.30
204.61	1503.21
204.83	1574.89
205.05	1505.26
205.27	1550.31
205.49	1667.05
205.71	1570.79
205.93	1546.22
206.15	1540.07
206.37	1535.98
206.59	1476.59
206.81	1472.49
207.03	1542.12
207.25	1497.07
207.47	1603.56
207.69	1581.03
207.91	1587.18
208.13	1568.74
208.34	1458.15
208.56	1529.83
208.78	1568.74
209.00	1603.56
209.22	1515.50
209.44	1525.74
209.66	1523.69
209.88	1525.74
210.10	1566.70
210.32	1519.59
210.54	1601.51
210.76	1566.70
210.98	1634.28
211.20	1423.34
211.42	1531.88
211.64	1540.07
211.86	1527.78
212.08	1591.27
212.30	1591.27
212.52	1531.88
212.74	1585.13
212.96	1597.42
213.17	1554.41
213.39	1533.93
213.61	1570.79
213.83	1558.50
214.05	1497.07
214.27	1587.18
214.49	1560.55
214.71	1529.83
214.93	1572.84
215.15	1560.55
215.37	1497.07
215.59	1566.70
215.81	1591.27
216.03	1560.55
216.24	1535.98
216.46	1486.83
216.68	1490.92
216.90	1619.94
217.12	1560.55
217.34	1521.64
217.56	1560.55
217.78	1587.18
218.00	1533.93
218.22	1529.83
218.44	1488.87
218.66	1560.55
218.87	1599.46
219.09	1533.93
219.31	1593.32
219.53	1507.30
219.75	1488.87
219.97	1427.43
220.19	1576.94
220.41	1558.50
220.63	1636.33
220.85	1550.31
221.06	1603.56
221.28	1556.46
221.50	1519.59
221.72	1538.02
221.94	1560.55
222.16	1591.27
222.38	1574.89
222.60	1605.61
222.82	1492.97
223.03	1562.60
223.25	1513.45
223.47	1619.94
223.69	1621.99
223.91	1540.07
224.13	1447.91
224.35	1509.35
224.57	1581.03
224.78	1535.98
225.00	1429.48
225.22	1540.07
225.44	1568.74
225.66	1542.12
225.88	1568.74
226.10	1570.79
226.32	1593.32
226.53	1499.11
226.75	1568.74
226.97	1599.46
227.19	1509.35
227.41	1507.30
227.63	1478.63
227.85	1456.11
228.06	1544.17
228.28	1505.26
228.50	1585.13
228.72	1499.11
228.94	1486.83
229.16	1513.45
229.37	1527.78
229.59	1531.88
229.81	1652.71
230.03	1513.45
230.25	1511.40
230.47	1464.30
230.69	1476.59
230.90	1554.41
231.12	1482.73
231.34	1595.37
231.56	1597.42
231.78	1458.15
232.00	1581.03
232.21	1564.65
232.43	1548.26
232.65	1468.39
232.87	1523.69
233.09	1527.78
233.30	1462.25
233.52	1490.92
233.74	1474.54
233.96	1458.15
234.18	1550.31
234.40	1587.18
234.61	1634.28
234.83	1396.71
235.05	1474.54
235.27	1601.51
235.49	1603.56
235.70	1548.26
235.92	1636.33
236.14	1562.60
236.36	1656.81
236.58	1452.01
236.79	1599.46
237.01	1574.89
237.23	1542.12
237.45	1581.03
237.67	1527.78
237.88	1585.13
238.10	1568.74
238.32	1531.88
238.54	1495.02
238.76	1468.39
238.97	1529.83
239.19	1513.45
239.41	1691.62
239.63	1609.70
239.85	1548.26
240.06	1538.02
240.28	1497.07
240.50	1570.79
240.72	1421.29
240.93	1497.07
241.15	1599.46
241.37	1497.07
241.59	1611.75
241.81	1478.63
242.02	1535.98
242.24	1527.78
242.46	1535.98
242.68	1499.11
242.89	1576.94
243.11	1578.98
243.33	1529.83
243.55	1523.69
243.76	1552.36
243.98	1523.69
244.20	1568.74
244.42	1488.87
244.64	1576.94
244.85	1546.22
245.07	1535.98
245.29	1538.02
245.51	1538.02
245.72	1525.74
245.94	1574.89
246.16	1572.84
246.38	1605.61
246.59	1519.59
246.81	1449.96
247.03	1443.82
247.24	1517.54
247.46	1449.96
247.68	1587.18
247.90	1566.70
248.11	1521.64
248.33	1531.88
248.55	1495.02
248.77	1505.26
248.98	1548.26
249.20	1540.07
249.42	1505.26
249.64	1464.30
249.85	1472.49
250.07	1519.59
250.29	1581.03
250.50	1576.94
250.72	1421.29
250.94	1515.50
251.16	1677.29
251.37	1593.32
251.59	1542.12
251.81	1599.46
252.02	1548.26
252.24	1568.74
252.46	1574.89
252.68	1468.39
252.89	1490.92
253.11	1458.15
253.33	1576.94
253.54	1521.64
253.76	1497.07
253.98	1533.93
254.20	1533.93
254.41	1484.78
254.63	1564.65
254.85	1550.31
255.06	1484.78
255.28	1552.36
255.50	1568.74
255.71	1513.45
255.93	1519.59
256.15	1552.36
256.36	1552.36
256.58	1521.64
256.80	1585.13
257.02	1454.06
257.23	1525.74
257.45	1497.07
257.67	1538.02
257.88	1447.91
258.10	1501.16
258.32	1535.98
258.53	1527.78
258.75	1552.36
258.97	1437.67
259.18	1546.22
259.40	1499.11
259.62	1714.15
259.83	1589.22
260.05	1589.22
260.27	1775.59
260.48	1572.84
260.70	1492.97
260.92	1523.69
261.13	1538.02
261.35	1558.50
261.57	1501.16
261.78	1478.63
262.00	1472.49
262.22	1501.16
262.43	1495.02
262.65	1480.68
262.86	1554.41
263.08	1601.51
263.30	1505.26
263.51	1497.07
263.73	1576.94
263.95	1615.85
264.16	1495.02
264.38	1472.49
264.60	1624.04
264.81	1554.41
265.03	1542.12
265.25	1568.74
265.46	1581.03
265.68	1673.19
265.89	1470.44
266.11	1523.69
266.33	1517.54
266.54	1570.79
266.76	1548.26
266.98	1544.17
267.19	1511.40
267.41	1560.55
267.62	1611.75
267.84	1468.39
268.06	1529.83
268.27	1525.74
268.49	1558.50
268.70	1648.61
268.92	1497.07
269.14	1470.44
269.35	1445.87
269.57	1554.41
269.79	1601.51
270.00	1538.02
270.22	1673.19
270.43	1484.78
270.65	1472.49
270.87	1486.83
271.08	1533.93
271.30	1609.70
271.51	1488.87
271.73	1574.89
271.95	1552.36
272.16	1546.22
272.38	1568.74
272.59	1476.59
272.81	1560.55
273.02	1521.64
273.24	1507.30
273.46	1550.31
273.67	1464.30
273.89	1478.63
274.10	1578.98
274.32	1669.09
274.54	1624.04
274.75	1574.89
274.97	1576.94
275.18	1554.41
275.40	1558.50
275.61	1544.17
275.83	1581.03
276.05	1501.16
276.26	1509.35
276.48	1560.55
276.69	1509.35
276.91	1486.83
277.12	1564.65
277.34	1523.69
277.55	1570.79
277.77	1527.78
277.99	1533.93
278.20	1495.02
278.42	1503.21
278.63	1417.19
278.85	1513.45
279.06	1458.15
279.28	1531.88
279.49	1578.98
279.71	1572.84
279.93	1581.03
280.14	1492.97
280.36	1554.41
280.57	1589.22
280.79	1599.46
281.00	1513.45
281.22	1458.15
281.43	1626.09
281.65	1462.25
281.86	1552.36
282.08	1517.54
282.29	1609.70
282.51	1505.26
282.73	1574.89
282.94	1409.00
283.16	1599.46
283.37	1595.37
283.59	1462.25
283.80	1505.26
284.02	1466.35
284.23	1624.04
284.45	1552.36
284.66	1486.83
284.88	1452.01
285.09	1548.26
285.31	1556.46
285.52	1591.27
285.74	1429.48
285.95	1515.50
286.17	1513.45
286.38	1566.70
286.60	1511.40
286.81	1531.88
287.03	1570.79
287.24	1535.98
287.46	1562.60
287.67	1658.85
287.89	1607.66
288.10	1507.30
288.32	1517.54
288.53	1628.14
288.75	1503.21
288.96	1572.84
289.18	1501.16
289.39	1525.74
289.61	1624.04
289.82	1585.13
290.04	1574.89
290.25	1544.17
290.47	1515.50
290.68	1462.25
290.90	1630.18
291.11	1398.76
291.33	1570.79
291.54	1468.39
291.76	1540.07
291.97	1542.12
292.18	1550.31
292.40	1484.78
292.61	1488.87
292.83	1630.18
293.04	1538.02
293.26	1511.40
293.47	1556.46
293.69	1466.35
293.90	1576.94
294.12	1574.89
294.33	1568.74
294.55	1605.61
294.76	1593.32
294.97	1583.08
295.19	1644.52
295.40	1544.17
295.62	1525.74
295.83	1632.23
296.05	1466.35
296.26	1560.55
296.48	1515.50
296.69	1556.46
296.90	1562.60
297.12	1521.64
297.33	1488.87
297.55	1544.17
297.76	1589.22
297.98	1529.83
298.19	1509.35
298.41	1509.35
298.62	1527.78
298.83	1572.84
299.05	1486.83
299.26	1585.13
299.48	1511.40
299.69	1638.38
299.90	1480.68
300.12	1470.44
300.33	1621.99
300.55	1550.31
300.76	1574.89
300.98	1529.83
301.19	1533.93
301.40	1599.46
301.62	1499.11
301.83	1554.41
302.05	1470.44
302.26	1527.78
302.47	1583.08
302.69	1560.55
302.90	1531.88
303.12	1470.44
303.33	1560.55
303.54	1626.09
303.76	1488.87
303.97	1566.70
304.19	1648.61
304.40	1525.74
304.61	1574.89
304.83	1603.56
305.04	1603.56
305.26	1593.32
305.47	1564.65
305.68	1591.27
305.90	1419.24
306.11	1576.94
306.33	1558.50
306.54	1544.17
306.75	1544.17
306.97	1472.49
307.18	1517.54
307.39	1535.98
307.61	1562.60
307.82	1535.98
308.04	1552.36
308.25	1445.87
308.46	1456.11
308.68	1566.70
308.89	1529.83
309.10	1599.46
309.32	1556.46
309.53	1593.32
309.74	1501.16
309.96	1552.36
310.17	1595.37
310.39	1476.59
310.60	1564.65
310.81	1591.27
311.03	1542.12
311.24	1538.02
311.45	1472.49
311.67	1628.14
311.88	1568.74
312.09	1581.03
312.31	1581.03
312.52	1578.98
312.73	1533.93
312.95	1462.25
313.16	1546.22
313.37	1560.55
313.59	1505.26
313.80	1568.74
314.01	1595.37
314.23	1550.31
314.44	1533.93
314.65	1445.87
314.87	1533.93
315.08	1521.64
315.29	1513.45
315.51	1495.02
315.72	1437.67
315.93	1603.56
316.15	1554.41
316.36	1501.16
316.57	1460.20
316.79	1511.40
317.00	1535.98
317.21	1523.69
317.43	1544.17
317.64	1531.88
317.85	1501.16
318.07	1576.94
318.28	1644.52
318.49	1722.34
318.70	1796.07
318.92	1693.67
319.13	1636.33
319.34	1697.77
319.56	1710.05
319.77	1642.47
319.98	1667.05
320.20	1552.36
320.41	1630.18
320.62	1525.74
320.83	1519.59
321.05	1679.33
321.26	1566.70
321.47	1460.20
321.69	1585.13
321.90	1486.83
322.11	1499.11
322.32	1552.36
322.54	1558.50
322.75	1538.02
322.96	1591.27
323.18	1519.59
323.39	1497.07
323.60	1550.31
323.81	1495.02
324.03	1603.56
324.24	1574.89
324.45	1595.37
324.66	1509.35
324.88	1519.59
325.09	1611.75
325.30	1535.98
325.52	1544.17
325.73	1673.19
325.94	1507.30
326.15	1495.02
326.37	1482.73
326.58	1548.26
326.79	1566.70
327.00	1484.78
327.22	1527.78
327.43	1462.25
327.64	1474.54
327.85	1652.71
328.07	1564.65
328.28	1650.66
328.49	1413.10
328.70	1515.50
328.92	1542.12
329.13	1468.39
329.34	1609.70
329.55	1640.42
329.76	1613.80
329.98	1495.02
330.19	1656.81
330.40	1621.99
330.61	1556.46
330.83	1540.07
331.04	1509.35
331.25	1531.88
331.46	1470.44
331.68	1476.59
331.89	1611.75
332.10	1538.02
332.31	1435.63
332.52	1574.89
332.74	1640.42
332.95	1466.35
333.16	1505.26
333.37	1542.12
333.58	1550.31
333.80	1492.97
334.01	1435.63
334.22	1556.46
334.43	1531.88
334.64	1540.07
334.86	1468.39
335.07	1458.15
335.28	1517.54
335.49	1439.72
335.70	1570.79
335.92	1615.85
336.13	1691.62
336.34	1617.90
336.55	1570.79
336.76	1554.41
336.98	1492.97
337.19	1558.50
337.40	1589.22
337.61	1626.09
337.82	1535.98
338.04	1570.79
338.25	1497.07
338.46	1486.83
338.67	1476.59
338.88	1474.54
339.09	1478.63
339.31	1456.11
339.52	1462.25
339.73	1505.26
339.94	1501.16
340.15	1613.80
340.36	1429.48
340.58	1482.73
340.79	1525.74
341.00	1527.78
341.21	1531.88
341.42	1542.12
341.63	1568.74
341.85	1574.89
342.06	1550.31
342.27	1525.74
342.48	1552.36
342.69	1523.69
342.90	1535.98
343.12	1572.84
343.33	1562.60
343.54	1527.78
343.75	1658.85
343.96	1501.16
344.17	1482.73
344.38	1533.93
344.60	1495.02
344.81	1505.26
345.02	1497.07
345.23	1562.60
345.44	1605.61
345.65	1597.42
345.86	1605.61
346.07	1552.36
346.29	1519.59
346.50	1597.42
346.71	1605.61
346.92	1599.46
347.13	1642.47
347.34	1519.59
347.55	1576.94
347.76	1529.83
347.98	1468.39
348.19	1576.94
348.40	1566.70
348.61	1497.07
348.82	1554.41
349.03	1509.35
349.24	1538.02
349.45	1605.61
349.66	1447.91
349.88	1535.98
350.09	1511.40
350.30	1578.98
350.51	1546.22
350.72	1517.54
350.93	1533.93
351.14	1599.46
351.35	1519.59
351.56	1591.27
351.77	1531.88
351.99	1535.98
352.20	1665.00
352.41	1632.23
352.62	1443.82
352.83	1535.98
353.04	1515.50
353.25	1595.37
353.46	1611.75
353.67	1615.85
353.88	1484.78
354.09	1544.17
354.30	1546.22
354.52	1585.13
354.73	1595.37
354.94	1535.98
355.15	1484.78
355.36	1644.52
355.57	1574.89
355.78	1570.79
355.99	1454.06
356.20	1568.74
356.41	1544.17
356.62	1515.50
356.83	1609.70
357.04	1576.94
357.25	1538.02
357.46	1533.93
357.68	1468.39
357.89	1544.17
358.10	1607.66
358.31	1511.40
358.52	1509.35
358.73	1519.59
358.94	1445.87
359.15	1531.88
359.36	1607.66
359.57	1466.35
359.78	1566.70
359.99	1581.03
360.20	1538.02
360.41	1435.63
360.62	1585.13
360.83	1613.80
361.04	1570.79
361.25	1550.31
361.46	1656.81
361.67	1660.90
361.88	1626.09
362.09	1595.37
362.30	1542.12
362.51	1454.06
362.72	1591.27
362.93	1626.09
363.14	1646.57
363.35	1495.02
363.56	1507.30
363.78	1603.56
363.99	1638.38
364.20	1449.96
364.41	1525.74
364.62	1665.00
364.83	1548.26
365.04	1548.26
365.25	1470.44
365.46	1650.66
365.67	1529.83
365.88	1546.22
366.09	1587.18
366.30	1570.79
366.51	1583.08
366.72	1495.02
366.93	1578.98
367.14	1548.26
367.35	1558.50
367.56	1550.31
367.77	1632.23
367.98	1527.78
368.18	1564.65
368.39	1581.03
368.60	1478.63
368.81	1572.84
369.02	1576.94
369.23	1540.07
369.44	1470.44
369.65	1507.30
369.86	1583.08
370.07	1613.80
370.28	1525.74
370.49	1490.92
370.70	1517.54
370.91	1470.44
371.12	1511.40
371.33	1662.95
371.54	1550.31
371.75	1525.74
371.96	1458.15
372.17	1505.26
372.38	1515.50
372.59	1593.32
372.80	1464.30
373.01	1509.35
373.22	1540.07
373.43	1599.46
373.64	1533.93
373.85	1626.09
374.06	1654.76
374.26	1591.27
374.47	1542.12
374.68	1621.99
374.89	1578.98
375.10	1531.88
375.31	1673.19
375.52	1538.02
375.73	1503.21
375.94	1466.35
376.15	1660.90
376.36	1521.64
376.57	1572.84
376.78	1621.99
376.99	1566.70
377.20	1566.70
377.40	1492.97
377.61	1568.74
377.82	1509.35
378.03	1597.42
378.24	1564.65
378.45	1597.42
378.66	1650.66
378.87	1458.15
379.08	1535.98
379.29	1542.12
379.50	1587.18
379.71	1589.22
379.91	1572.84
380.12	1527.78
380.33	1558.50
380.54	1486.83
380.75	1517.54
380.96	1560.55
381.17	1617.90
381.38	1572.84
381.59	1644.52
381.80	1599.46
382.00	1722.34
382.21	1574.89
382.42	1648.61
382.63	1599.46
382.84	1535.98
383.05	1640.42
383.26	1626.09
383.47	1570.79
383.68	1560.55
383.88	1654.76
384.09	1544.17
384.30	1648.61
384.51	1525.74
384.72	1540.07
384.93	1587.18
385.14	1507.30
385.35	1593.32
385.55	1570.79
385.76	1628.14
385.97	1671.14
386.18	1562.60
386.39	1597.42
386.60	1550.31
386.81	1566.70
387.02	1513.45
387.22	1480.68
387.43	1619.94
387.64	1636.33
387.85	1880.04
388.06	3100.62
388.27	7112.60
388.48	10714.97
388.68	12771.13
388.89	14022.44
389.10	12928.83
389.31	10340.19
389.52	9072.50
389.73	7923.59
389.93	7427.98
390.14	6694.81
390.35	6098.85
390.56	5511.08
390.77	4603.83
390.98	3739.59
391.18	2783.19
391.39	2086.88
391.60	1816.55
391.81	1744.87
392.02	1554.41
392.23	1609.70
392.43	1558.50
392.64	1636.33
392.85	1570.79
393.06	1581.03
393.27	1585.13
393.47	1478.63
393.68	1552.36
393.89	1542.12
394.10	1615.85
394.31	1548.26
394.52	1503.21
394.72	1574.89
394.93	1685.48
395.14	1546.22
395.35	1564.65
395.56	1476.59
395.76	1662.95
395.97	1619.94
396.18	1779.68
396.39	1777.64
396.60	1853.41
396.80	1691.62
397.01	1689.57
397.22	1689.57
397.43	1746.92
397.64	1589.22
397.84	1628.14
398.05	1685.48
398.26	1546.22
398.47	1531.88
398.67	1648.61
398.88	1566.70
399.09	1511.40
399.30	1538.02
399.51	1574.89
399.71	1468.39
399.92	1492.97
400.13	1593.32
400.34	1572.84
400.54	1495.02
400.75	1599.46
400.96	1562.60
401.17	1603.56
401.37	1638.38
401.58	1535.98
401.79	1615.85
402.00	1751.01
402.21	1896.42
402.41	1914.85
402.62	1923.04
402.83	1949.67
403.04	1834.98
403.24	1951.71
403.45	1712.10
403.66	1810.40
403.87	1740.77
404.07	1871.84
404.28	1777.64
404.49	1757.16
404.70	1693.67
404.90	1611.75
405.11	1619.94
405.32	1576.94
405.52	1523.69
405.73	1488.87
405.94	1521.64
406.15	1605.61
406.35	1562.60
406.56	1556.46
406.77	1636.33
406.98	1607.66
407.18	1423.34
407.39	1644.52
407.60	1550.31
407.80	1576.94
408.01	1540.07
408.22	1568.74
408.43	1511.40
408.63	1568.74
408.84	1552.36
409.05	1525.74
409.25	1531.88
409.46	1531.88
409.67	1515.50
409.88	1507.30
410.08	1546.22
410.29	1505.26
410.50	1560.55
410.70	1476.59
410.91	1562.60
411.12	1509.35
411.32	1585.13
411.53	1544.17
411.74	1617.90
411.95	1654.76
412.15	1591.27
412.36	1660.90
412.57	1552.36
412.77	1650.66
412.98	1566.70
413.19	1511.40
413.39	1611.75
413.60	1556.46
413.81	1636.33
414.01	1411.05
414.22	1527.78
414.43	1621.99
414.63	1572.84
414.84	1605.61
415.05	1527.78
415.25	1421.29
415.46	1583.08
415.67	1550.31
415.87	1585.13
416.08	1603.56
416.29	1558.50
416.49	1593.32
416.70	1552.36
416.91	1572.84
417.11	1574.89
417.32	1595.37
417.53	1542.12
417.73	1597.42
417.94	1509.35
418.15	1521.64
418.35	1517.54
418.56	1564.65
418.77	1642.47
418.97	1503.21
419.18	1581.03
419.38	1480.68
419.59	1560.55
419.80	1646.57
420.00	1529.83
420.21	1484.78
420.42	1525.74
420.62	1574.89
420.83	1574.89
421.04	1509.35
421.24	1445.87
421.45	1548.26
421.65	1515.50
421.86	1542.12
422.07	1535.98
422.27	1490.92
422.48	1624.04
422.69	1482.73
422.89	1550.31
423.10	1484.78
423.30	1544.17
423.51	1535.98
423.72	1521.64
423.92	1550.31
424.13	1566.70
424.33	1550.31
424.54	1589.22
424.75	1533.93
424.95	1591.27
425.16	1548.26
425.36	1517.54
425.57	1566.70
425.78	1482.73
425.98	1570.79
426.19	1542.12
426.39	1488.87
426.60	1525.74
426.81	1585.13
427.01	1495.02
427.22	1501.16
427.42	1439.72
427.63	1517.54
427.83	1562.60
428.04	1601.51
428.25	1615.85
428.45	1568.74
428.66	1503.21
428.86	1562.60
429.07	1568.74
429.28	1624.04
429.48	1611.75
429.69	1476.59
429.89	1529.83
430.10	1425.39
430.30	1540.07
430.51	1542.12
430.71	1470.44
430.92	1515.50
431.13	1531.88
431.33	1538.02
431.54	1482.73
431.74	1617.90
431.95	1621.99
432.15	1462.25
432.36	1527.78
432.56	1574.89
432.77	1626.09
432.98	1609.70
433.18	1523.69
433.39	1525.74
433.59	1478.63
433.80	1603.56
434.00	1681.38
434.21	1525.74
434.41	1533.93
434.62	1685.48
434.82	1587.18
435.03	1525.74
435.23	1507.30
435.44	1542.12
435.64	1576.94
435.85	1552.36
436.06	1564.65
436.26	1507.30
436.47	1562.60
436.67	1492.97
436.88	1531.88
437.08	1523.69
437.29	1636.33
437.49	1576.94
437.70	1540.07
437.90	1568.74
438.11	1611.75
438.31	1679.33
438.52	1683.43
438.72	1761.25
438.93	1703.91
439.13	1581.03
439.34	1671.14
439.54	1628.14
439.75	1609.70
439.95	1634.28
440.16	1662.95
440.36	1533.93
440.57	1603.56
440.77	1533.93
440.98	1597.42
441.18	1554.41
441.39	1482.73
441.59	1492.97
441.80	1621.99
442.00	1562.60
442.21	1546.22
442.41	1513.45
442.62	1597.42
442.82	1527.78
443.02	1558.50
443.23	1595.37
443.43	1621.99
443.64	1638.38
443.84	1515.50
444.05	1658.85
444.25	1585.13
444.46	1533.93
444.66	1501.16
444.87	1595.37
445.07	1443.82
445.28	1525.74
445.48	1585.13
445.69	1566.70
445.89	1652.71
446.09	1624.04
446.30	2023.39
446.50	3098.58
446.71	4517.82
446.91	5394.35
447.12	5982.12
447.32	5580.71
447.53	4534.20
447.73	3999.68
447.93	3665.86
448.14	3305.42
448.34	3268.56
448.55	2971.60
448.75	2895.83
448.96	2795.48
449.16	2516.95
449.36	2230.24
449.57	1931.23
449.77	1800.16
449.98	1656.81
450.18	1658.85
450.39	1542.12
450.59	1638.38
450.79	1634.28
451.00	1531.88
451.20	1484.78
451.41	1570.79
451.61	1585.13
451.81	1488.87
452.02	1525.74
452.22	1521.64
452.43	1550.31
452.63	1521.64
452.84	1546.22
453.04	1503.21
453.24	1572.84
453.45	1513.45
453.65	1511.40
453.86	1574.89
454.06	1544.17
454.26	1617.90
454.47	1519.59
454.67	1640.42
454.87	1546.22
455.08	1513.45
455.28	1621.99
455.49	1525.74
455.69	1525.74
455.89	1720.29
456.10	1599.46
456.30	1488.87
456.51	1574.89
456.71	1613.80
456.91	1570.79
457.12	1581.03
457.32	1540.07
457.52	1519.59
457.73	1558.50
457.93	1605.61
458.14	1497.07
458.34	1384.43
458.54	1550.31
458.75	1581.03
458.95	1597.42
459.15	1615.85
459.36	1589.22
459.56	1529.83
459.76	1683.43
459.97	1583.08
460.17	1472.49
460.37	1710.05
460.58	1437.67
460.78	1507.30
460.99	1535.98
461.19	1578.98
461.39	1523.69
461.60	1558.50
461.80	1591.27
462.00	1521.64
462.21	1570.79
462.41	1527.78
462.61	1495.02
462.82	1435.63
463.02	1599.46
463.22	1509.35
463.43	1650.66
463.63	1574.89
463.83	1550.31
464.04	1632.23
464.24	1568.74
464.44	1478.63
464.64	1595.37
464.85	1593.32
465.05	1558.50
465.25	1566.70
465.46	1562.60
465.66	1556.46
465.86	1621.99
466.07	1585.13
466.27	1566.70
466.47	1468.39
466.68	1482.73
466.88	1607.66
467.08	1605.61
467.29	1615.85
467.49	1634.28
467.69	1525.74
467.89	1583.08
468.10	1513.45
468.30	1554.41
468.50	1535.98
468.71	1615.85
468.91	1480.68
469.11	1687.53
469.31	1486.83
469.52	1535.98
469.72	1548.26
469.92	1564.65
470.13	1552.36
470.33	1583.08
470.53	1665.00
470.73	2115.55
470.94	2326.49
471.14	2402.27
471.34	2607.06
471.54	2369.50
471.75	2195.42
471.95	2072.54
472.15	2052.06
472.36	2023.39
472.56	1902.56
472.76	1892.32
472.96	1853.41
473.17	1832.93
473.37	1689.57
473.57	1613.80
473.77	1710.05
473.98	1667.05
474.18	1587.18
474.38	1624.04
474.58	1499.11
474.79	1531.88
474.99	1525.74
475.19	1560.55
475.39	1505.26
475.60	1550.31
475.80	1560.55
476.00	1523.69
476.20	1535.98
476.41	1503.21
476.61	1644.52
476.81	1533.93
477.01	1511.40
477.21	1654.76
477.42	1531.88
477.62	1464.30
477.82	1654.76
478.02	1538.02
478.23	1538.02
478.43	1495.02
478.63	1572.84
478.83	1552.36
479.03	1581.03
479.24	1591.27
479.44	1665.00
479.64	1585.13
479.84	1427.43
480.04	1476.59
480.25	1581.03
480.45	1560.55
480.65	1492.97
480.85	1630.18
481.06	1568.74
481.26	1505.26
481.46	1632.23
481.66	1501.16
481.86	1488.87
482.06	1560.55
482.27	1509.35
482.47	1529.83
482.67	1507.30
482.87	1544.17
483.07	1591.27
483.28	1480.68
483.48	1519.59
483.68	1517.54
483.88	1568.74
484.08	1505.26
484.29	1509.35
484.49	1466.35
484.69	1488.87
484.89	1597.42
485.09	1630.18
485.29	1583.08
485.50	1533.93
485.70	1513.45
485.90	1564.65
486.10	1550.31
486.30	1662.95
486.50	1597.42
486.71	1517.54
486.91	1558.50
487.11	1552.36
487.31	1460.20
487.51	1540.07
487.71	1523.69
487.91	1497.07
488.12	1531.88
488.32	1423.34
488.52	1566.70
488.72	1462.25
488.92	1464.30
489.12	1552.36
489.32	1632.23
489.53	1546.22
489.73	1581.03
489.93	1599.46
490.13	1497.07
490.33	1515.50
490.53	1570.79
490.73	1542.12
490.94	1527.78
491.14	1531.88
491.34	1736.68
491.54	2140.13
491.74	2684.89
491.94	3153.87
492.14	3192.78
492.34	3151.82
492.54	2820.05
492.75	2521.05
492.95	2396.12
493.15	2289.63
493.35	2127.84
493.55	2011.11
493.75	2052.06
493.95	2043.87
494.15	1937.38
494.35	1877.99
494.56	1710.05
494.76	1632.23
494.96	1654.76
495.16	1652.71
495.36	1581.03
495.56	1533.93
495.76	1628.14
495.96	1460.20
496.16	1517.54
496.36	1572.84
496.56	1605.61
496.77	1578.98
496.97	1550.31
497.17	1574.89
497.37	1558.50
497.57	1599.46
497.77	1593.32
497.97	1484.78
498.17	1519.59
498.37	1497.07
498.57	1529.83
498.77	1531.88
498.97	1558.50
499.17	1712.10
499.38	1589.22
499.58	1601.51
499.78	1605.61
499.98	1652.71
500.18	1533.93
500.38	1546.22
500.58	1763.30
500.78	2650.07
500.98	5185.46
501.18	6848.41
501.38	8243.07
501.58	8834.94
501.78	8077.19
501.98	6123.43
502.18	5537.71
502.38	4618.17
502.58	4272.06
502.78	3874.76
502.98	3784.65
503.18	3532.75
503.38	3317.71
503.59	2922.45
503.79	2727.89
503.99	2602.97
504.19	2330.59
504.39	2140.13
504.59	2140.13
504.79	2050.02
504.99	1964.00
505.19	1804.26
505.39	1761.25
505.59	1757.16
505.79	1728.49
505.99	1695.72
506.19	1615.85
506.39	1685.48
506.59	1568.74
506.79	1650.66
506.99	1683.43
507.19	1609.70
507.39	1593.32
507.59	1558.50
507.79	1554.41
507.99	1456.11
508.19	1544.17
508.39	1527.78
508.59	1572.84
508.79	1646.57
508.99	1697.77
509.19	1495.02
509.39	1558.50
509.59	1535.98
509.79	1587.18
509.99	1605.61
510.19	1648.61
510.39	1611.75
510.59	1605.61
510.79	1535.98
510.99	1523.69
511.19	1599.46
511.39	1615.85
511.59	1550.31
511.79	1626.09
511.99	1562.60
512.19	1658.85
512.38	1529.83
512.58	1480.68
512.78	1570.79
512.98	1546.22
513.18	1644.52
513.38	1517.54
513.58	1601.51
513.78	1568.74
513.98	1511.40
514.18	1492.97
514.38	1538.02
514.58	1589.22
514.78	1574.89
514.98	1505.26
515.18	1519.59
515.38	1558.50
515.58	1658.85
515.78	1558.50
515.98	1544.17
516.18	1511.40
516.38	1533.93
516.57	1529.83
516.77	1540.07
516.97	1550.31
517.17	1583.08
517.37	1482.73
517.57	1599.46
517.77	1439.72
517.97	1474.54
518.17	1544.17
518.37	1570.79
518.57	1519.59
518.77	1546.22
518.97	1527.78
519.16	1527.78
519.36	1607.66
519.56	1529.83
519.76	1578.98
519.96	1550.31
520.16	1621.99
520.36	1472.49
520.56	1656.81
520.76	1501.16
520.96	1562.60
521.16	1558.50
521.35	1583.08
521.55	1591.27
521.75	1611.75
521.95	1538.02
522.15	1568.74
522.35	1468.39
522.55	1572.84
522.75	1634.28
522.95	1611.75
523.14	1564.65
523.34	1542.12
523.54	1488.87
523.74	1560.55
523.94	1589.22
524.14	1552.36
524.34	1566.70
524.54	1603.56
524.73	1583.08
524.93	1593.32
525.13	1576.94
525.33	1484.78
525.53	1708.01
525.73	1581.03
525.93	1558.50
526.13	1505.26
526.32	1505.26
526.52	1564.65
526.72	1507.30
526.92	1566.70
527.12	1492.97
527.32	1437.67
527.52	1591.27
527.71	1632.23
527.91	1523.69
528.11	1538.02
528.31	1552.36
528.51	1599.46
528.71	1619.94
528.90	1570.79
529.10	1591.27
529.30	1601.51
529.50	1419.24
529.70	1574.89
529.90	1492.97
530.09	1556.46
530.29	1513.45
530.49	1511.40
530.69	1597.42
530.89	1533.93
531.09	1638.38
531.28	1558.50
531.48	1542.12
531.68	1617.90
531.88	1566.70
532.08	1607.66
532.28	1488.87
532.47	1576.94
532.67	1558.50
532.87	1601.51
533.07	1542.12
533.27	1538.02
533.46	1615.85
533.66	1570.79
533.86	1615.85
534.06	1525.74
534.26	1550.31
534.45	1554.41
534.65	1562.60
534.85	1517.54
535.05	1482.73
535.25	1564.65
535.44	1507.30
535.64	1587.18
535.84	1517.54
536.04	1593.32
536.24	1533.93
536.43	1540.07
536.63	1552.36
536.83	1544.17
537.03	1544.17
537.22	1492.97
537.42	1460.20
537.62	1568.74
537.82	1509.35
538.02	1533.93
538.21	1589.22
538.41	1689.57
538.61	1568.74
538.81	1570.79
539.00	1587.18
539.20	1456.11
539.40	1591.27
539.60	1546.22
539.79	1568.74
539.99	1519.59
540.19	1492.97
540.39	1538.02
540.58	1583.08
540.78	1581.03
540.98	1521.64
541.18	1544.17
541.37	1603.56
541.57	1578.98
541.77	1583.08
541.97	1499.11
542.16	1452.01
542.36	1499.11
542.56	1609.70
542.76	1607.66
542.95	1529.83
543.15	1445.87
543.35	1574.89
543.54	1456.11
543.74	1490.92
543.94	1630.18
544.14	1540.07
544.33	1554.41
544.53	1517.54
544.73	1503.21
544.93	1548.26
545.12	1525.74
545.32	1535.98
545.52	1542.12
545.71	1462.25
545.91	1533.93
546.11	1472.49
546.30	1548.26
546.50	1497.07
546.70	1542.12
546.90	1640.42
547.09	1458.15
547.29	1607.66
547.49	1554.41
547.68	1499.11
547.88	1456.11
548.08	1558.50
548.27	2015.20
548.47	1492.97
548.67	1492.97
548.87	1517.54
549.06	1613.80
549.26	1591.27
549.46	1523.69
549.65	1501.16
549.85	1609.70
550.05	1568.74
550.24	1529.83
550.44	1531.88
550.64	1468.39
550.83	1583.08
551.03	1523.69
551.23	1609.70
551.42	1517.54
551.62	1488.87
551.82	1515.50
552.01	1478.63
552.21	1581.03
552.41	1452.01
552.60	1597.42
552.80	1529.83
553.00	1480.68
553.19	1597.42
553.39	1652.71
553.59	1488.87
553.78	1552.36
553.98	1589.22
554.17	1456.11
554.37	1515.50
554.57	1572.84
554.76	1499.11
554.96	1554.41
555.16	1568.74
555.35	1552.36
555.55	1564.65
555.75	1574.89
555.94	1597.42
556.14	1523.69
556.33	1472.49
556.53	1556.46
556.73	1538.02
556.92	1576.94
557.12	1654.76
557.32	1570.79
557.51	1619.94
557.71	1525.74
557.90	1652.71
558.10	1591.27
558.30	1488.87
558.49	1488.87
558.69	1497.07
558.88	1554.41
559.08	1615.85
559.28	1501.16
559.47	1544.17
559.67	1531.88
559.86	1660.90
560.06	1595.37
560.26	1638.38
560.45	1593.32
560.65	1554.41
560.84	1566.70
561.04	1519.59
561.24	1564.65
561.43	1538.02
561.63	1617.90
561.82	1609.70
562.02	1490.92
562.22	1484.78
562.41	1490.92
562.61	1492.97
562.80	1548.26
563.00	1648.61
563.19	1552.36
563.39	1617.90
563.59	1464.30
563.78	1441.77
563.98	1476.59
564.17	1558.50
564.37	1472.49
564.56	1552.36
564.76	1511.40
564.96	1527.78
565.15	1476.59
565.35	1662.95
565.54	1583.08
565.74	1517.54
565.93	1509.35
566.13	1607.66
566.32	1550.31
566.52	1552.36
566.71	1613.80
566.91	1587.18
567.11	1511.40
567.30	1449.96
567.50	1615.85
567.69	1621.99
567.89	1550.31
568.08	1499.11
568.28	1544.17
568.47	1478.63
568.67	1640.42
568.86	1554.41
569.06	1552.36
569.25	1564.65
569.45	1492.97
569.64	1482.73
569.84	1462.25
570.04	1572.84
570.23	1495.02
570.43	1538.02
570.62	1511.40
570.82	1648.61
571.01	1550.31
571.21	1447.91
571.40	1478.63
571.60	1611.75
571.79	1556.46
571.99	1566.70
572.18	1535.98
572.38	1564.65
572.57	1515.50
572.77	1611.75
572.96	1675.24
573.16	1511.40
573.35	1531.88
573.55	1607.66
573.74	1578.98
573.94	1517.54
574.13	1574.89
574.33	1624.04
574.52	1624.04
574.71	1554.41
574.91	1556.46
575.10	1527.78
575.30	1554.41
575.49	1482.73
575.69	1578.98
575.88	1609.70
576.08	1570.79
576.27	1611.75
576.47	1566.70
576.66	1742.82
576.86	1662.95
577.05	1609.70
577.25	1630.18
577.44	1648.61
577.64	1558.50
577.83	1619.94
578.02	1560.55
578.22	1658.85
578.41	1599.46
578.61	1578.98
578.80	1519.59
579.00	1587.18
579.19	1591.27
579.39	1607.66
579.58	1591.27
579.77	1568.74
579.97	1621.99
580.16	1714.15
580.36	1628.14
580.55	1763.30
580.75	1613.80
580.94	1601.51
581.13	1671.14
581.33	1705.96
581.52	1681.38
581.72	1705.96
581.91	1660.90
582.11	1581.03
582.30	1660.90
582.49	1632.23
582.69	1613.80
582.88	1619.94
583.08	1591.27
583.27	1671.14
583.47	1601.51
583.66	1468.39
583.85	1533.93
584.05	1585.13
584.24	1595.37
584.44	1679.33
584.63	1693.67
584.82	1708.01
585.02	1779.68
585.21	1775.59
585.41	1656.81
585.60	1697.77
585.79	1757.16
585.99	1761.25
586.18	1802.21
586.37	1974.24
586.57	3274.70
586.76	9699.18
586.96	27688.54
587.15	44211.55
587.34	55008.44
587.54	61545.56
587.73	59960.43
587.93	43636.07
588.12	32515.60
588.31	26101.36
588.51	22163.12
588.70	20055.76
588.89	18820.83
589.09	17155.83
589.28	15378.20
589.47	13371.19
589.67	11165.53
589.86	9193.33
590.06	6666.14
590.25	5029.81
590.44	3848.13
590.64	2871.25
590.83	2371.55
591.02	2117.60
591.22	1802.21
591.41	1730.53
591.60	1689.57
591.80	1773.54
591.99	1624.04
592.18	1583.08
592.38	1662.95
592.57	1585.13
592.76	1578.98
592.96	1630.18
593.15	1605.61
593.34	1662.95
593.54	1601.51
593.73	1650.66
593.92	1632.23
594.12	1617.90
594.31	1642.47
594.50	1621.99
594.70	1617.90
594.89	1685.48
595.08	1501.16
595.28	1669.09
595.47	1695.72
595.66	1652.71
595.86	1501.16
596.05	1540.07
596.24	1619.94
596.43	1697.77
596.63	1712.10
596.82	1642.47
597.01	1587.18
597.21	1628.14
597.40	1581.03
597.59	1546.22
597.79	1511.40
597.98	1615.85
598.17	1646.57
598.36	1566.70
598.56	1669.09
598.75	1560.55
598.94	1570.79
599.14	1529.83
599.33	1593.32
599.52	1583.08
599.71	1611.75
599.91	1632.23
600.10	1585.13
600.29	1507.30
600.48	1660.90
600.68	1552.36
600.87	1634.28
601.06	1499.11
601.26	1509.35
601.45	1564.65
601.64	1587.18
601.83	1615.85
602.03	1517.54
602.22	1458.15
602.41	1609.70
602.60	1599.46
602.80	1576.94
602.99	1638.38
603.18	1529.83
603.37	1617.90
603.57	1660.90
603.76	1595.37
603.95	1683.43
604.14	1595.37
604.34	1525.74
604.53	1529.83
604.72	1509.35
604.91	1624.04
605.10	1609.70
605.30	1533.93
605.49	1617.90
605.68	1570.79
605.87	1576.94
606.07	1550.31
606.26	1574.89
606.45	1581.03
606.64	1570.79
606.84	1558.50
607.03	1564.65
607.22	1681.38
607.41	1632.23
607.60	1640.42
607.80	1630.18
607.99	1593.32
608.18	1636.33
608.37	1523.69
608.56	1556.46
608.76	1578.98
608.95	1669.09
609.14	1632.23
609.33	1636.33
609.52	1662.95
609.72	1632.23
609.91	1673.19
610.10	1554.41
610.29	1669.09
610.48	1607.66
610.68	1554.41
610.87	1535.98
611.06	1621.99
611.25	1593.32
611.44	1611.75
611.63	1574.89
611.83	1660.90
612.02	1488.87
612.21	1671.14
612.40	1513.45
612.59	1480.68
612.79	1564.65
612.98	1574.89
613.17	1646.57
613.36	1589.22
613.55	1671.14
613.74	1634.28
613.93	1617.90
614.13	1730.53
614.32	1808.36
614.51	1773.54
614.70	1568.74
614.89	1665.00
615.08	1636.33
615.28	1869.80
615.47	1572.84
615.66	1591.27
615.85	1609.70
616.04	1728.49
616.23	1585.13
616.42	1650.66
616.62	1611.75
616.81	1619.94
617.00	1523.69
617.19	1650.66
617.38	1523.69
617.57	1587.18
617.76	1583.08
617.95	1578.98
618.15	1605.61
618.34	1699.81
618.53	1517.54
618.72	1603.56
618.91	1566.70
619.10	1660.90
619.29	1558.50
619.48	1621.99
619.68	1460.20
619.87	1540.07
620.06	1501.16
620.25	1648.61
620.44	1585.13
620.63	1503.21
620.82	1624.04
621.01	1576.94
621.20	1585.13
621.39	1611.75
621.59	1562.60
621.78	1513.45
621.97	1525.74
622.16	1595.37
622.35	1552.36
622.54	1478.63
622.73	1662.95
622.92	1476.59
623.11	1527.78
623.30	1525.74
623.49	1585.13
623.68	1542.12
623.88	1630.18
624.07	1517.54
624.26	1560.55
624.45	1583.08
624.64	1466.35
624.83	1574.89
625.02	1538.02
625.21	1503.21
625.40	1519.59
625.59	1652.71
625.78	1597.42
625.97	1605.61
626.16	1660.90
626.35	1558.50
626.54	1640.42
626.74	1626.09
626.93	1585.13
627.12	1570.79
627.31	1519.59
627.50	1574.89
627.69	1589.22
627.88	1542.12
628.07	1505.26
628.26	1458.15
628.45	1595.37
628.64	1591.27
628.83	1544.17
629.02	1470.44
629.21	1583.08
629.40	1611.75
629.59	1609.70
629.78	1544.17
629.97	1613.80
630.16	1488.87
630.35	1525.74
630.54	1486.83
630.73	1523.69
630.92	1509.35
631.11	1552.36
631.30	1525.74
631.49	1554.41
631.68	1544.17
631.87	1517.54
632.06	1466.35
632.25	1654.76
632.44	1509.35
632.63	1542.12
632.82	1558.50
633.01	1529.83
633.20	1581.03
633.39	1642.47
633.58	1636.33
633.77	1669.09
633.96	1648.61
634.15	1613.80
634.34	1617.90
634.53	1621.99
634.72	1548.26
634.91	1445.87
635.10	1593.32
635.29	1578.98
635.48	1591.27
635.67	1474.54
635.86	1556.46
636.05	1529.83
636.24	1544.17
636.43	1538.02
636.62	1566.70
636.81	1402.86
637.00	1583.08
637.19	1558.50
637.38	1452.01
637.57	1542.12
637.76	1599.46
637.95	1642.47
638.14	1607.66
638.33	1669.09
638.52	1669.09
638.71	1505.26
638.89	1476.59
639.08	1757.16
639.27	1603.56
639.46	1728.49
639.65	1923.04
639.84	2002.91
640.03	2140.13
640.22	2168.80
640.41	2265.05
640.60	1925.09
640.79	1800.16
640.98	1761.25
641.17	1767.40
641.36	1615.85
641.55	1724.39
641.74	1667.05
641.92	1597.42
642.11	1558.50
642.30	1570.79
642.49	1599.46
642.68	1566.70
642.87	1521.64
643.06	1595.37
643.25	1501.16
643.44	1574.89
643.63	1531.88
643.82	1589.22
644.00	1486.83
644.19	1576.94
644.38	1540.07
644.57	1556.46
644.76	1568.74
644.95	1613.80
645.14	1540.07
645.33	1490.92
645.52	1525.74
645.71	1470.44
645.89	1476.59
646.08	1531.88
646.27	1558.50
646.46	1648.61
646.65	1464.30
646.84	1589.22
647.03	1484.78
647.22	1570.79
647.40	1511.40
647.59	1495.02
647.78	1404.91
647.97	1503.21
648.16	1464.30
648.35	1560.55
648.54	1589.22
648.73	1550.31
648.91	1642.47
649.10	1583.08
649.29	1511.40
649.48	1542.12
649.67	1538.02
649.86	1560.55
650.05	1574.89
650.23	1691.62
650.42	1656.81
650.61	1646.57
650.80	1695.72
650.99	1779.68
651.18	1667.05
651.36	1624.04
651.55	1558.50
651.74	1650.66
651.93	1574.89
652.12	1599.46
652.31	1619.94
652.49	1527.78
652.68	1542.12
652.87	1538.02
653.06	1638.38
653.25	1683.43
653.44	1615.85
653.62	1585.13
653.81	1581.03
654.00	1587.18
654.19	1656.81
654.38	1662.95
654.56	1560.55
654.75	1568.74
654.94	1621.99
655.13	1550.31
655.32	1601.51
655.51	1576.94
655.69	1466.35
655.88	1646.57
656.07	1507.30
656.26	1546.22
656.45	1490.92
656.63	1552.36
656.82	1687.53
657.01	1540.07
657.20	1583.08
657.38	1595.37
657.57	1587.18
657.76	1495.02
657.95	1558.50
658.14	1480.68
658.32	1574.89
658.51	1492.97
658.70	1601.51
658.89	1525.74
659.08	1603.56
659.26	1654.76
659.45	1505.26
659.64	1603.56
659.83	1617.90
660.01	1810.40
660.20	1583.08
660.39	1683.43
660.58	1505.26
660.76	1593.32
660.95	1521.64
661.14	1533.93
661.33	1523.69
661.51	1538.02
661.70	1572.84
661.89	1607.66
662.08	1527.78
662.26	1501.16
662.45	1546.22
662.64	1665.00
662.83	1574.89
663.01	1507.30
663.20	1511.40
663.39	1585.13
663.58	1583.08
663.76	1554.41
663.95	1509.35
664.14	1538.02
664.32	1529.83
664.51	1501.16
664.70	1529.83
664.89	1585.13
665.07	1490.92
665.26	1531.88
665.45	1513.45
665.64	1624.04
665.82	1691.62
666.01	1601.51
666.20	1507.30
666.38	1640.42
666.57	1587.18
666.76	1789.92
666.95	2977.75
667.13	7536.52
667.32	15736.59
667.51	20158.16
667.69	23565.98
667.88	25515.64
668.07	22079.15
668.25	15681.30
668.44	12529.47
668.63	10010.47
668.81	8687.48
669.00	7784.33
669.19	7163.79
669.38	6315.94
669.56	5490.60
669.75	4919.22
669.94	4108.23
670.12	3444.68
670.31	2844.63
670.50	2367.45
670.68	2193.37
670.87	1925.09
671.06	1812.45
671.24	1685.48
671.43	1712.10
671.62	1677.29
671.80	1660.90
671.99	1630.18
672.18	1523.69
672.36	1583.08
672.55	1564.65
672.74	1587.18
672.92	1535.98
673.11	1644.52
673.29	1583.08
673.48	1632.23
673.67	1527.78
673.85	1609.70
674.04	1533.93
674.23	1603.56
674.41	1589.22
674.60	1509.35
674.79	1482.73
674.97	1509.35
675.16	1583.08
675.34	1591.27
675.53	1501.16
675.72	1544.17
675.90	1556.46
676.09	1554.41
676.28	1611.75
676.46	1523.69
676.65	1572.84
676.83	1550.31
677.02	1509.35
677.21	1599.46
677.39	1519.59
677.58	1458.15
677.77	1505.26
677.95	1495.02
678.14	1482.73
678.32	1564.65
678.51	1523.69
678.70	1615.85
678.88	1538.02
679.07	1566.70
679.25	1478.63
679.44	1529.83
679.63	1587.18
679.81	1607.66
680.00	1617.90
680.18	1609.70
680.37	1640.42
680.55	1542.12
680.74	1456.11
680.93	1409.00
681.11	1570.79
681.30	1533.93
681.48	1568.74
681.67	1525.74
681.85	1542.12
682.04	1482.73
682.23	1548.26
682.41	1550.31
682.60	1576.94
682.78	1492.97
682.97	1501.16
683.15	1570.79
683.34	1515.50
683.53	1628.14
683.71	1488.87
683.90	1581.03
684.08	1583.08
684.27	1527.78
684.45	1484.78
684.64	1656.81
684.82	1519.59
685.01	1521.64
685.19	1550.31
685.38	1624.04
685.57	1617.90
685.75	1511.40
685.94	1460.20
686.12	1529.83
686.31	1523.69
686.49	1535.98
686.68	1462.25
686.86	1548.26
687.05	1523.69
687.23	1564.65
687.42	1511.40
687.60	1529.83
687.79	1570.79
687.97	1560.55
688.16	1613.80
688.34	1615.85
688.53	1419.24
688.71	1667.05
688.90	1638.38
689.08	1490.92
689.27	1419.24
689.45	1591.27
689.64	1490.92
689.82	1503.21
690.01	1585.13
690.19	1591.27
690.38	1533.93
690.56	1501.16
690.75	1511.40
690.93	1585.13
691.12	1480.68
691.30	1556.46
691.49	1542.12
691.67	1486.83
691.86	1642.47
692.04	1515.50
692.23	1472.49
692.41	1578.98
692.60	1673.19
692.78	1658.85
692.97	1621.99
693.15	1630.18
693.34	1675.24
693.52	1720.29
693.71	1605.61
693.89	1480.68
694.08	1501.16
694.26	1613.80
694.44	1562.60
694.63	1560.55
694.81	1478.63
695.00	1464.30
695.18	1574.89
695.37	1601.51
695.55	1566.70
695.74	1527.78
695.92	1458.15
696.10	1560.55
696.29	1490.92
696.47	1527.78
696.66	1574.89
696.84	1447.91
697.03	1538.02
697.21	1640.42
697.40	2004.96
697.58	1638.38
697.76	1527.78
697.95	1525.74
698.13	1490.92
698.32	1452.01
698.50	1570.79
698.68	1591.27
698.87	1593.32
699.05	1558.50
699.24	1556.46
699.42	1509.35
699.61	1595.37
699.79	1529.83
699.97	1533.93
700.16	1429.48
700.34	1478.63
700.53	1605.61
700.71	1574.89
700.89	1603.56
701.08	1546.22
701.26	1517.54
701.45	1880.04
701.63	1458.15
701.81	1544.17
702.00	1515.50
702.18	1542.12
702.37	1558.50
702.55	1632.23
702.73	1691.62
702.92	1665.00
703.10	1806.31
703.28	1777.64
703.47	1808.36
703.65	1814.50
703.84	1687.53
704.02	1642.47
704.20	1685.48
704.39	1550.31
704.57	1658.85
704.75	1636.33
704.94	1687.53
705.12	1611.75
705.30	1660.90
705.49	1888.23
705.67	2936.79
705.86	7397.26
706.04	14628.64
706.22	18996.96
706.41	21761.72
706.59	23084.70
706.77	20985.54
706.96	14712.61
707.14	11755.34
707.32	9881.45
707.51	8761.21
707.69	7624.59
707.87	6789.02
708.06	5789.61
708.24	4872.12
708.42	3592.14
708.61	3047.38
708.79	2303.96
708.97	1961.95
709.16	1830.88
709.34	1783.78
709.52	1679.33
709.71	1632.23
709.89	1617.90
710.07	1576.94
710.26	1515.50
710.44	1540.07
710.62	1591.27
710.80	1503.21
710.99	1630.18
711.17	1509.35
711.35	1519.59
711.54	1581.03
711.72	1538.02
711.90	1544.17
712.09	1617.90
712.27	1513.45
712.45	1595.37
712.63	1515.50
712.82	1525.74
713.00	1613.80
713.18	1605.61
713.37	1562.60
713.55	1564.65
713.73	1566.70
713.91	1613.80
714.10	1535.98
714.28	1587.18
714.46	1619.94
714.65	1595.37
714.83	1480.68
715.01	1521.64
715.19	1595.37
715.38	1525.74
715.56	1619.94
715.74	1456.11
715.92	1507.30
716.11	1601.51
716.29	1466.35
716.47	1460.20
716.65	1521.64
716.84	1433.58
717.02	1599.46
717.20	1464.30
717.38	1533.93
717.57	1605.61
717.75	1527.78
717.93	1497.07
718.11	1640.42
718.30	1486.83
718.48	1482.73
718.66	1615.85
718.84	1607.66
719.03	1576.94
719.21	1474.54
719.39	1615.85
719.57	1560.55
719.75	1517.54
719.94	1509.35
720.12	1492.97
720.30	1503.21
720.48	1589.22
720.67	1486.83
720.85	1415.15
721.03	1433.58
721.21	1466.35
721.39	1593.32
721.58	1560.55
721.76	1552.36
721.94	1566.70
722.12	1585.13
722.30	1675.24
722.49	1503.21
722.67	1523.69
722.85	1574.89
723.03	1548.26
723.21	1544.17
723.40	1603.56
723.58	1636.33
723.76	1617.90
723.94	1595.37
724.12	1644.52
724.30	1667.05
724.49	1660.90
724.67	1591.27
724.85	1677.29
725.03	1566.70
725.21	1591.27
725.40	1611.75
725.58	1550.31
725.76	1630.18
725.94	1538.02
726.12	1456.11
726.30	1540.07
726.49	1593.32
726.67	1521.64
726.85	1634.28
727.03	1589.22
727.21	1779.68
727.39	2131.94
727.57	3207.12
727.76	4368.32
727.94	4794.29
728.12	5087.15
728.30	5218.22
728.48	4257.73
728.66	3524.55
728.84	3264.46
729.03	2985.94
729.21	2666.46
729.39	2246.62
729.57	1955.81
729.75	1789.92
729.93	1845.22
730.11	1609.70
730.30	1576.94
730.48	1542.12
730.66	1605.61
730.84	1587.18
731.02	1558.50
731.20	1597.42
731.38	1462.25
731.56	1462.25
731.74	1513.45
731.93	1503.21
732.11	1525.74
732.29	1591.27
732.47	1521.64
732.65	1562.60
732.83	1529.83
733.01	1589.22
733.19	1581.03
733.37	1484.78
733.56	1535.98
733.74	1566.70
733.92	1587.18
734.10	1527.78
734.28	1560.55
734.46	1452.01
734.64	1468.39
734.82	1501.16
735.00	1548.26
735.18	1511.40
735.36	1535.98
735.54	1552.36
735.73	1546.22
735.91	1642.47
736.09	1570.79
736.27	1538.02
736.45	1542.12
736.63	1445.87
736.81	1523.69
736.99	1550.31
737.17	1535.98
737.35	1564.65
737.53	1476.59
737.71	1490.92
737.89	1585.13
738.07	1542.12
738.25	1525.74
738.43	1472.49
738.61	1511.40
738.80	1495.02
738.98	1452.01
739.16	1529.83
739.34	1484.78
739.52	1628.14
739.70	1554.41
739.88	1523.69
740.06	1593.32
740.24	1462.25
740.42	1562.60
740.60	1523.69
740.78	1458.15
740.96	1425.39
741.14	1552.36
741.32	1447.91
741.50	1454.06
741.68	1656.81
741.86	1581.03
742.04	1464.30
742.22	1462.25
742.40	1533.93
742.58	1605.61
742.76	1495.02
742.94	1566.70
743.12	1505.26
743.30	1458.15
743.48	1558.50
743.66	1576.94
743.84	1601.51
744.02	1560.55
744.20	1599.46
744.38	1429.48
744.56	1417.19
744.74	1599.46
744.92	1558.50
745.10	1624.04
745.28	1540.07
745.46	1654.76
745.64	1568.74
745.82	1591.27
746.00	1593.32
746.18	1562.60
746.36	1538.02
746.54	1581.03
746.72	1511.40
746.90	1462.25
747.08	1607.66
747.26	1525.74
747.44	1517.54
747.62	1497.07
747.80	1568.74
747.98	1619.94
748.15	1529.83
748.33	1593.32
748.51	1540.07
748.69	1597.42
748.87	1468.39
749.05	1589.22
749.23	1572.84
749.41	1621.99
749.59	1550.31
749.77	1533.93
749.95	1527.78
750.13	1531.88
750.31	1562.60
750.49	1564.65
750.67	1630.18
750.85	1560.55
751.03	1529.83
751.20	1697.77
751.38	1515.50
751.56	1535.98
751.74	1495.02
751.92	1581.03
752.10	1511.40
752.28	1624.04
752.46	1511.40
752.64	1503.21
752.82	1540.07
753.00	1505.26
753.18	1466.35
753.35	1533.93
753.53	1556.46
753.71	1513.45
753.89	1630.18
754.07	1515.50
754.25	1611.75
754.43	1503.21
754.61	1474.54
754.79	1501.16
754.97	1566.70
755.14	1601.51
755.32	1470.44
755.50	1492.97
755.68	1595.37
755.86	1458.15
756.04	1484.78
756.22	1515.50
756.40	1519.59
756.57	1644.52
756.75	1548.26
756.93	1568.74
757.11	1673.19
757.29	1595.37
757.47	1449.96
757.65	1470.44
757.82	1501.16
758.00	1503.21
758.18	1523.69
758.36	1466.35
758.54	1599.46
758.72	1490.92
758.90	1554.41
759.07	1609.70
759.25	1542.12
759.43	1509.35
759.61	1521.64
759.79	1828.84
759.97	1558.50
760.15	1566.70
760.32	1548.26
760.50	1566.70
760.68	1626.09
760.86	1470.44
761.04	1558.50
761.22	1609.70
761.39	1593.32
761.57	1533.93
761.75	1540.07
761.93	1542.12
762.11	1476.59
762.28	1570.79
762.46	1495.02
762.64	1548.26
762.82	1476.59
763.00	1523.69
763.18	1617.90
763.35	1550.31
763.53	1617.90
763.71	1509.35
763.89	1531.88
764.07	1529.83
764.24	1546.22
764.42	1665.00
764.60	1605.61
764.78	1529.83
764.96	1509.35
765.13	1595.37
765.31	1576.94
765.49	1544.17
765.67	1501.16
765.84	1433.58
766.02	1499.11
766.20	1484.78
766.38	1550.31
766.56	1544.17
766.73	1583.08
766.91	1515.50
767.09	1658.85
767.27	1595.37
767.44	1521.64
767.62	1572.84
767.80	1611.75
767.98	1488.87
768.15	1603.56
768.33	1554.41
768.51	1626.09
768.69	1507.30
768.87	1605.61
769.04	1615.85
769.22	1669.09
769.40	1609.70
769.58	1650.66
769.75	1544.17
769.93	1533.93
770.11	1497.07
770.28	1531.88
770.46	1589.22
770.64	1607.66
770.82	1525.74
770.99	1544.17
771.17	1488.87
771.35	1564.65
771.53	1535.98
771.70	1478.63
771.88	1511.40
772.06	1517.54
772.23	1531.88
772.41	1574.89
772.59	1499.11
772.77	1523.69
772.94	1538.02
773.12	1554.41
773.30	1521.64
773.47	1478.63
773.65	1521.64
773.83	1581.03
774.01	1574.89
774.18	1476.59
774.36	1519.59
774.54	1445.87
774.71	1511.40
774.89	1447.91
775.07	1542.12
775.24	1605.61
775.42	1611.75
775.60	1603.56
775.78	1519.59
775.95	1525.74
776.13	1435.63
776.31	1492.97
776.48	1531.88
776.66	1615.85
776.84	1591.27
777.01	1529.83
777.19	1484.78
777.37	1521.64
777.54	1509.35
777.72	1626.09
777.90	1495.02
778.07	1499.11
778.25	1675.24
778.43	1611.75
778.60	1523.69
778.78	1605.61
778.96	1626.09
779.13	1427.43
779.31	1599.46
779.49	1531.88
779.66	1482.73
779.84	1587.18
780.01	1437.67
780.19	1423.34
780.37	1519.59
780.54	1607.66
780.72	1478.63
780.90	1515.50
781.07	1529.83
781.25	1529.83
781.43	1556.46
781.60	1527.78
781.78	1589.22
781.95	1619.94
782.13	1476.59
782.31	1538.02
782.48	1550.31
782.66	1591.27
782.83	1609.70
783.01	1568.74
783.19	1562.60
783.36	1466.35
783.54	1460.20
783.72	1615.85
783.89	1570.79
784.07	1554.41
784.24	1525.74
784.42	1499.11
784.60	1593.32
784.77	1615.85
784.95	1447.91
785.12	1519.59
785.30	1564.65
785.47	1529.83
785.65	1464.30
785.83	1564.65
786.00	1501.16
786.18	1509.35
786.35	1519.59
786.53	1488.87
786.71	1619.94
786.88	1562.60
787.06	1533.93
787.23	1441.77
787.41	1525.74
787.58	1562.60
787.76	1521.64
787.94	1521.64
788.11	1490.92
788.29	1468.39
788.46	1419.24
788.64	1492.97
788.81	1550.31
788.99	1511.40
789.16	1429.48
789.34	1552.36
789.52	1529.83
789.69	1515.50
789.87	1454.06
790.04	1523.69
790.22	1560.55
790.39	1628.14
790.57	1513.45
790.74	1558.50
790.92	1630.18
791.09	1517.54
791.27	1544.17
791.44	1531.88
791.62	1542.12
791.79	1595.37
791.97	1542.12
792.15	1687.53
792.32	1583.08
792.50	1544.17
792.67	1636.33
792.85	1548.26
793.02	1587.18
793.20	1476.59
793.37	1437.67
793.55	1527.78
793.72	1513.45
793.90	1511.40
794.07	1540.07
794.25	1538.02
794.42	1564.65
794.60	1572.84
794.77	1615.85
794.95	1527.78
795.12	1605.61
795.30	1576.94
795.47	1523.69
795.65	1675.24
795.82	1581.03
796.00	1521.64
796.17	1513.45
796.34	1441.77
796.52	1523.69
796.69	1542.12
796.87	1484.78
797.04	1521.64
797.22	1505.26
797.39	1527.78
797.57	1540.07
797.74	1503.21
797.92	1515.50
798.09	1542.12
798.27	1611.75
798.44	1531.88
798.62	1593.32
798.79	1591.27
798.96	1632.23
799.14	1507.30
799.31	1609.70
799.49	1509.35
799.66	1519.59
799.84	1595.37
800.01	1478.63
800.19	1535.98
800.36	1452.01
800.53	1581.03
800.71	1542.12
800.88	1576.94
801.06	1531.88
801.23	1474.54
801.41	1548.26
801.58	1472.49
801.75	1525.74
801.93	1484.78
802.10	1529.83
802.28	1566.70
802.45	1511.40
802.63	1552.36
802.80	1572.84
802.97	1601.51
803.15	1511.40
803.32	1581.03
803.50	1533.93
803.67	1462.25
803.84	1542.12
804.02	1554.41
804.19	1533.93
804.37	1345.52
804.54	1480.68
804.71	1554.41
804.89	1544.17
805.06	1503.21
805.24	1511.40
805.41	1517.54
805.58	1472.49
805.76	1669.09
805.93	1525.74
806.10	1624.04
806.28	1558.50
806.45	1495.02
806.63	1572.84
806.80	1615.85
806.97	1556.46
807.15	1558.50
807.32	1572.84
807.49	1513.45
807.67	1488.87
807.84	1490.92
808.01	1439.72
808.19	1626.09
808.36	1642.47
808.54	1568.74
808.71	1513.45
808.88	1525.74
809.06	1615.85
809.23	1628.14
809.40	1462.25
809.58	1527.78
809.75	1501.16
809.92	1439.72
810.10	1662.95
810.27	1581.03
810.44	1509.35
810.62	1613.80
810.79	1554.41
810.96	1523.69
811.14	1556.46
811.31	1648.61
811.48	1595.37
811.66	1574.89
811.83	1609.70
812.00	1578.98
812.18	1525.74
812.35	1673.19
812.52	1544.17
812.69	1509.35
812.87	1492.97
813.04	1476.59
813.21	1546.22
813.39	1562.60
813.56	1449.96
813.73	1628.14
813.91	1488.87
814.08	1566.70
814.25	1527.78
814.42	1495.02
814.60	1554.41
814.77	1538.02
814.94	1581.03
815.12	1484.78
815.29	1511.40
815.46	1533.93
815.63	1558.50
815.81	1556.46
815.98	1513.45
816.15	1529.83
816.33	1531.88
816.50	1519.59
816.67	1505.26
816.84	1535.98
817.02	1529.83
817.19	1515.50
817.36	1578.98
817.53	1550.31
817.71	1538.02
817.88	1601.51
818.05	1478.63
818.22	1527.78
818.40	1599.46
818.57	1533.93
818.74	1535.98
818.91	1480.68
819.09	1566.70
819.26	1560.55
819.43	1507.30
819.60	1490.92
819.78	1558.50
819.95	1587.18
820.12	1517.54
820.29	1525.74
820.47	1611.75
820.64	1550.31
820.81	1464.30
820.98	1515.50
821.15	1505.26
821.33	1576.94
821.50	1427.43
821.67	1533.93
821.84	1574.89
822.02	1552.36
822.19	1591.27
822.36	1449.96
822.53	1540.07
822.70	1513.45
822.88	1556.46
823.05	1578.98
823.22	1550.31
823.39	1585.13
823.56	1566.70
823.74	1667.05
823.91	1544.17
824.08	1509.35
824.25	1495.02
824.42	1619.94
824.60	1454.06
824.77	1554.41
824.94	1499.11
825.11	1538.02
825.28	1486.83
825.45	1492.97
825.63	1548.26
825.80	1413.10
825.97	1533.93
826.14	1624.04
826.31	1511.40
826.48	1583.08
826.66	1427.43
826.83	1542.12
827.00	1531.88
827.17	1484.78
827.34	1525.74
827.51	1509.35
827.69	1517.54
827.86	1439.72
828.03	1527.78
828.20	1558.50
828.37	1406.95
828.54	1542.12
828.71	1554.41
828.89	1578.98
829.06	1572.84
829.23	1603.56
829.40	1527.78
829.57	1476.59
829.74	1624.04
829.91	1546.22
830.09	1458.15
830.26	1662.95
830.43	1564.65
830.60	1558.50
830.77	1499.11
830.94	1570.79
831.11	1556.46
831.28	1525.74
831.46	1591.27
831.63	1576.94
831.80	1566.70
831.97	1484.78
832.14	1507.30
832.31	1540.07
832.48	1515.50
832.65	1552.36
832.82	1511.40
832.99	1611.75
833.17	1468.39
833.34	1587.18
833.51	1585.13
833.68	1464.30
833.85	1589.22
834.02	1437.67
834.19	1495.02
834.36	1591.27
834.53	1495.02
834.70	1601.51
834.87	1552.36
835.04	1468.39
835.22	1503.21
835.39	1535.98
835.56	1480.68
835.73	1503.21
835.90	1642.47
836.07	1464.30
836.24	1492.97
836.41	1515.50
836.58	1449.96
836.75	1566.70
836.92	1492.97
837.09	1529.83
837.26	1595.37
837.43	1591.27
837.60	1548.26
837.77	1482.73
837.94	1564.65
838.12	1681.38
838.29	1558.50
838.46	1472.49
838.63	1495.02
838.80	1521.64
838.97	1558.50
839.14	1540.07
839.31	1548.26
839.48	1572.84
839.65	1486.83
839.82	1599.46
839.99	1531.88
840.16	1501.16
840.33	1472.49
840.50	1587.18
840.67	1466.35
840.84	1363.95
841.01	1544.17
841.18	1421.29
841.35	1509.35
841.52	1585.13
841.69	1628.14
841.86	1593.32
842.03	1552.36
842.20	1574.89
842.37	1568.74
842.54	1601.51
842.71	1480.68
842.88	1484.78
843.05	1626.09
843.22	1470.44
843.39	1558.50
843.56	1568.74
843.73	1507.30
843.90	1603.56
844.07	1619.94
844.24	1533.93
844.41	1482.73
844.58	1525.74
844.75	1507.30
844.92	1566.70
845.09	1583.08
845.26	1495.02
845.43	1495.02
845.60	1484.78
845.77	1540.07
845.94	1572.84
846.10	1523.69
846.27	1478.63
846.44	1443.82
846.61	1499.11
846.78	1542.12
846.95	1667.05
847.12	1519.59
847.29	1542.12
847.46	1505.26
847.63	1531.88
847.80	1439.72
847.97	1531.88
848.14	1568.74
848.31	1562.60
848.48	1527.78
848.65	1492.97
848.82	1509.35
848.98	1587.18
849.15	1572.84
849.32	1562.60
849.49	1583.08
849.66	1556.46
849.83	1621.99
850.00	1533.93
850.17	1619.94
850.34	1482.73
850.51	1515.50
850.68	1560.55
850.85	1566.70
851.01	1511.40
851.18	1533.93
851.35	1619.94
851.52	1574.89
851.69	1658.85
851.86	1492.97
852.03	1542.12
852.20	1628.14
852.37	1595.37
852.53	1462.25
852.70	1505.26
852.87	1533.93
853.04	1562.60
853.21	1503.21
853.38	1595.37
853.55	1566.70
853.72	1595.37
853.89	1507.30
854.05	1480.68
854.22	1449.96
854.39	1521.64
854.56	1540.07
854.73	1560.55
854.90	1449.96
855.07	1544.17
855.23	1482.73
855.40	1480.68
855.57	1511.40
855.74	1456.11
855.91	1605.61
856.08	1519.59
856.25	1505.26
856.41	1517.54
856.58	1499.11
856.75	1615.85
856.92	1454.06
857.09	1562.60
857.26	1406.95
857.42	1535.98
857.59	1527.78
857.76	1566.70
857.93	1578.98
858.10	1552.36
858.27	1488.87
858.43	1521.64
858.60	1503.21
858.77	1474.54
858.94	1546.22
859.11	1548.26
859.27	1499.11
859.44	1521.64
859.61	1630.18
859.78	1611.75
859.95	1427.43
860.12	1497.07
860.28	1640.42
860.45	1576.94
860.62	1492.97
860.79	1474.54
860.95	1538.02
861.12	1497.07
861.29	1486.83
861.46	1529.83
861.63	1576.94
861.79	1538.02
861.96	1589.22
862.13	1546.22
862.30	1587.18
862.47	1558.50
862.63	1443.82
862.80	1564.65
862.97	1611.75
863.14	1558.50
863.30	1525.74
863.47	1480.68
863.64	1560.55
863.81	1533.93
863.97	1423.34
864.14	1507.30
864.31	1535.98
864.48	1527.78
864.65	1531.88
864.81	1550.31
864.98	1462.25
865.15	1556.46
865.32	1542.12
865.48	1583.08
865.65	1597.42
865.82	1509.35
865.98	1521.64
866.15	1574.89
866.32	1535.98
866.49	1449.96
866.65	1626.09
866.82	1507.30
866.99	1503.21
867.16	1486.83
867.32	1476.59
867.49	1572.84
867.66	1601.51
867.83	1497.07
867.99	1492.97
868.16	1501.16
868.33	1501.16
868.49	1527.78
868.66	1443.82
868.83	1667.05
868.99	1570.79
869.16	1558.50
869.33	1597.42
869.50	1591.27
869.66	1558.50
869.83	1458.15
870.00	1501.16
870.16	1593.32
870.33	1464.30
870.50	1544.17
870.66	1509.35
870.83	1679.33
871.00	1554.41
871.17	1648.61
871.33	1597.42
871.50	1437.67
871.67	1499.11
871.83	1452.01
872.00	1617.90
872.17	1615.85
872.33	1615.85
872.50	1503.21
872.67	1521.64
872.83	1490.92
873.00	1544.17
873.17	1509.35
873.33	1599.46
873.50	1552.36
873.67	1480.68
873.83	1540.07
874.00	1544.17
874.16	1503.21
874.33	1439.72
874.50	1474.54
874.66	1548.26
874.83	1605.61
875.00	1523.69
875.16	1564.65
875.33	1601.51
875.50	1409.00
875.66	1525.74
875.83	1517.54
875.99	1607.66
876.16	1484.78
876.33	1533.93
876.49	1443.82
876.66	1583.08
876.83	1562.60
876.99	1386.47
877.16	1495.02
877.32	1558.50
877.49	1490.92
877.66	1548.26
877.82	1605.61
877.99	1554.41
878.15	1638.38
878.32	1548.26
878.49	1540.07
878.65	1572.84
878.82	1597.42
878.98	1533.93
879.15	1589.22
879.32	1523.69
879.48	1550.31
879.65	1515.50
879.81	1452.01
879.98	1449.96
880.15	1550.31
880.31	1519.59
880.48	1423.34
880.64	1665.00
880.81	1568.74
880.97	1576.94
881.14	1570.79
881.31	1519.59
881.47	1675.24
881.64	1484.78
881.80	1456.11
881.97	1554.41
882.13	1576.94
882.30	1523.69
882.47	1517.54
882.63	1419.24
882.80	1449.96
882.96	1570.79
883.13	1589.22
883.29	1533.93
883.46	1529.83
883.62	1638.38
883.79	1523.69
883.95	1589.22
884.12	1425.39
884.29	1556.46
884.45	1638.38
884.62	1509.35
884.78	1523.69
884.95	1640.42
885.11	1542.12
885.28	1540.07
885.44	1609.70
885.61	1513.45
885.77	1581.03
885.94	1525.74
886.10	1552.36
886.27	1525.74
886.43	1544.17
886.60	1599.46
886.76	1497.07
886.93	1445.87
887.09	1568.74
887.26	1497.07
887.42	1578.98
887.59	1572.84
887.75	1609.70
887.92	1566.70
888.08	1535.98
888.25	1556.46
888.41	1495.02
888.58	1511.40
888.74	1429.48
888.91	1495.02
>>>>>End Processed Spectral Data<<<<<
