SpectraSuite Data File
++++++++++++++++++++++++++++++++++++
Date: Tue May 03 12:55:49 CEST 2016
User: root
Dark Spectrum Present: No
Reference Spectrum Present: No
Number of Sampled Component Spectra: 1
Spectrometers: USB4C02835
Integration Time (usec): 100000 (USB4C02835)
Spectra Averaged: 1 (USB4C02835)
Boxcar Smoothing: 0 (USB4C02835)
Correct for Electrical Dark: No (USB4C02835)
Strobe/Lamp Enabled: No (USB4C02835)
Correct for Detector Non-linearity: No (USB4C02835)
Correct for Stray Light: No (USB4C02835)
Number of Pixels in Processed Spectrum: 3648
>>>>>Begin Processed Spectral Data<<<<<
177.47	1333.23
177.69	1333.23
177.91	1333.23
178.13	1400.81
178.36	1374.19
178.58	1513.45
178.80	1525.74
179.02	1476.59
179.24	1476.59
179.46	1484.78
179.68	1585.13
179.90	1572.84
180.13	1564.65
180.35	1529.83
180.57	1517.54
180.79	1519.59
181.01	1527.78
181.23	1550.31
181.45	1550.31
181.67	1531.88
181.90	1533.93
182.12	1535.98
182.34	1499.11
182.56	1488.87
182.78	1529.83
183.00	1595.37
183.22	1535.98
183.44	1478.63
183.66	1681.38
183.89	1640.42
184.11	1535.98
184.33	1640.42
184.55	1482.73
184.77	1503.21
184.99	1581.03
185.21	1521.64
185.43	1660.90
185.65	1521.64
185.87	1624.04
186.10	1599.46
186.32	1642.47
186.54	1558.50
186.76	1556.46
186.98	1492.97
187.20	1554.41
187.42	1540.07
187.64	1499.11
187.86	1548.26
188.08	1601.51
188.30	1513.45
188.52	1519.59
188.75	1605.61
188.97	1576.94
189.19	1476.59
189.41	1507.30
189.63	1552.36
189.85	1550.31
190.07	1501.16
190.29	1550.31
190.51	1513.45
190.73	1439.72
190.95	1609.70
191.17	1591.27
191.39	1482.73
191.61	1490.92
191.84	1581.03
192.06	1574.89
192.28	1449.96
192.50	1638.38
192.72	1542.12
192.94	1550.31
193.16	1548.26
193.38	1607.66
193.60	1454.06
193.82	1509.35
194.04	1605.61
194.26	1550.31
194.48	1568.74
194.70	1445.87
194.92	1572.84
195.14	1576.94
195.36	1499.11
195.58	1476.59
195.80	1589.22
196.02	1548.26
196.24	1550.31
196.46	1556.46
196.69	1513.45
196.91	1617.90
197.13	1533.93
197.35	1431.53
197.57	1568.74
197.79	1587.18
198.01	1554.41
198.23	1476.59
198.45	1570.79
198.67	1503.21
198.89	1552.36
199.11	1570.79
199.33	1478.63
199.55	1435.63
199.77	1480.68
199.99	1521.64
200.21	1593.32
200.43	1533.93
200.65	1462.25
200.87	1429.48
201.09	1599.46
201.31	1533.93
201.53	1607.66
201.75	1574.89
201.97	1527.78
202.19	1505.26
202.41	1552.36
202.63	1695.72
202.85	1564.65
203.07	1583.08
203.29	1472.49
203.51	1540.07
203.73	1548.26
203.95	1638.38
204.17	1513.45
204.39	1513.45
204.61	1495.02
204.83	1564.65
205.05	1626.09
205.27	1595.37
205.49	1628.14
205.71	1607.66
205.93	1439.72
206.15	1525.74
206.37	1552.36
206.59	1486.83
206.81	1464.30
207.03	1538.02
207.25	1503.21
207.47	1501.16
207.69	1556.46
207.91	1574.89
208.13	1593.32
208.34	1480.68
208.56	1535.98
208.78	1572.84
209.00	1529.83
209.22	1511.40
209.44	1478.63
209.66	1550.31
209.88	1542.12
210.10	1517.54
210.32	1630.18
210.54	1632.23
210.76	1560.55
210.98	1566.70
211.20	1427.43
211.42	1611.75
211.64	1558.50
211.86	1513.45
212.08	1572.84
212.30	1617.90
212.52	1515.50
212.74	1583.08
212.96	1533.93
213.17	1578.98
213.39	1570.79
213.61	1597.42
213.83	1617.90
214.05	1492.97
214.27	1603.56
214.49	1419.24
214.71	1492.97
214.93	1544.17
215.15	1529.83
215.37	1546.22
215.59	1462.25
215.81	1568.74
216.03	1558.50
216.24	1540.07
216.46	1517.54
216.68	1507.30
216.90	1630.18
217.12	1550.31
217.34	1554.41
217.56	1583.08
217.78	1609.70
218.00	1540.07
218.22	1572.84
218.44	1540.07
218.66	1521.64
218.87	1636.33
219.09	1523.69
219.31	1560.55
219.53	1533.93
219.75	1527.78
219.97	1558.50
220.19	1593.32
220.41	1523.69
220.63	1615.85
220.85	1531.88
221.06	1519.59
221.28	1603.56
221.50	1492.97
221.72	1578.98
221.94	1521.64
222.16	1544.17
222.38	1517.54
222.60	1568.74
222.82	1572.84
223.03	1619.94
223.25	1527.78
223.47	1554.41
223.69	1691.62
223.91	1578.98
224.13	1521.64
224.35	1488.87
224.57	1574.89
224.78	1585.13
225.00	1511.40
225.22	1574.89
225.44	1591.27
225.66	1572.84
225.88	1519.59
226.10	1628.14
226.32	1624.04
226.53	1683.43
226.75	1497.07
226.97	1589.22
227.19	1552.36
227.41	1447.91
227.63	1511.40
227.85	1421.29
228.06	1572.84
228.28	1478.63
228.50	1599.46
228.72	1568.74
228.94	1521.64
229.16	1406.95
229.37	1533.93
229.59	1527.78
229.81	1615.85
230.03	1519.59
230.25	1497.07
230.47	1564.65
230.69	1472.49
230.90	1552.36
231.12	1472.49
231.34	1492.97
231.56	1560.55
231.78	1462.25
232.00	1609.70
232.21	1497.07
232.43	1478.63
232.65	1484.78
232.87	1507.30
233.09	1578.98
233.30	1468.39
233.52	1630.18
233.74	1533.93
233.96	1572.84
234.18	1511.40
234.40	1486.83
234.61	1583.08
234.83	1495.02
235.05	1472.49
235.27	1611.75
235.49	1648.61
235.70	1531.88
235.92	1611.75
236.14	1544.17
236.36	1695.72
236.58	1509.35
236.79	1535.98
237.01	1527.78
237.23	1505.26
237.45	1617.90
237.67	1509.35
237.88	1589.22
238.10	1687.53
238.32	1425.39
238.54	1521.64
238.76	1503.21
238.97	1464.30
239.19	1544.17
239.41	1605.61
239.63	1535.98
239.85	1482.73
240.06	1558.50
240.28	1552.36
240.50	1646.57
240.72	1601.51
240.93	1454.06
241.15	1581.03
241.37	1546.22
241.59	1609.70
241.81	1535.98
242.02	1515.50
242.24	1591.27
242.46	1535.98
242.68	1501.16
242.89	1521.64
243.11	1611.75
243.33	1560.55
243.55	1519.59
243.76	1507.30
243.98	1511.40
244.20	1599.46
244.42	1542.12
244.64	1595.37
244.85	1456.11
245.07	1458.15
245.29	1605.61
245.51	1613.80
245.72	1591.27
245.94	1581.03
246.16	1558.50
246.38	1585.13
246.59	1515.50
246.81	1529.83
247.03	1546.22
247.24	1478.63
247.46	1533.93
247.68	1535.98
247.90	1447.91
248.11	1525.74
248.33	1517.54
248.55	1552.36
248.77	1621.99
248.98	1517.54
249.20	1521.64
249.42	1509.35
249.64	1486.83
249.85	1562.60
250.07	1546.22
250.29	1515.50
250.50	1583.08
250.72	1542.12
250.94	1556.46
251.16	1669.09
251.37	1634.28
251.59	1648.61
251.81	1509.35
252.02	1560.55
252.24	1462.25
252.46	1650.66
252.68	1513.45
252.89	1460.20
253.11	1445.87
253.33	1585.13
253.54	1601.51
253.76	1460.20
253.98	1529.83
254.20	1607.66
254.41	1480.68
254.63	1497.07
254.85	1472.49
255.06	1607.66
255.28	1519.59
255.50	1480.68
255.71	1472.49
255.93	1480.68
256.15	1523.69
256.36	1560.55
256.58	1423.34
256.80	1550.31
257.02	1501.16
257.23	1495.02
257.45	1533.93
257.67	1562.60
257.88	1474.54
258.10	1576.94
258.32	1556.46
258.53	1505.26
258.75	1624.04
258.97	1495.02
259.18	1581.03
259.40	1574.89
259.62	1554.41
259.83	1607.66
260.05	1589.22
260.27	1740.77
260.48	1591.27
260.70	1495.02
260.92	1554.41
261.13	1595.37
261.35	1472.49
261.57	1617.90
261.78	1517.54
262.00	1452.01
262.22	1515.50
262.43	1517.54
262.65	1499.11
262.86	1495.02
263.08	1650.66
263.30	1560.55
263.51	1503.21
263.73	1525.74
263.95	1630.18
264.16	1544.17
264.38	1521.64
264.60	1499.11
264.81	1542.12
265.03	1548.26
265.25	1550.31
265.46	1505.26
265.68	1595.37
265.89	1595.37
266.11	1480.68
266.33	1568.74
266.54	1591.27
266.76	1552.36
266.98	1501.16
267.19	1624.04
267.41	1505.26
267.62	1482.73
267.84	1544.17
268.06	1583.08
268.27	1546.22
268.49	1601.51
268.70	1578.98
268.92	1488.87
269.14	1507.30
269.35	1486.83
269.57	1587.18
269.79	1611.75
270.00	1525.74
270.22	1638.38
270.43	1474.54
270.65	1415.15
270.87	1533.93
271.08	1587.18
271.30	1593.32
271.51	1583.08
271.73	1519.59
271.95	1583.08
272.16	1560.55
272.38	1531.88
272.59	1574.89
272.81	1570.79
273.02	1546.22
273.24	1587.18
273.46	1603.56
273.67	1492.97
273.89	1480.68
274.10	1548.26
274.32	1566.70
274.54	1554.41
274.75	1556.46
274.97	1525.74
275.18	1544.17
275.40	1527.78
275.61	1462.25
275.83	1521.64
276.05	1478.63
276.26	1562.60
276.48	1581.03
276.69	1470.44
276.91	1597.42
277.12	1562.60
277.34	1550.31
277.55	1630.18
277.77	1501.16
277.99	1587.18
278.20	1472.49
278.42	1499.11
278.63	1435.63
278.85	1523.69
279.06	1480.68
279.28	1452.01
279.49	1558.50
279.71	1652.71
279.93	1521.64
280.14	1535.98
280.36	1519.59
280.57	1601.51
280.79	1593.32
281.00	1513.45
281.22	1529.83
281.43	1533.93
281.65	1517.54
281.86	1562.60
282.08	1632.23
282.29	1593.32
282.51	1488.87
282.73	1486.83
282.94	1482.73
283.16	1527.78
283.37	1583.08
283.59	1581.03
283.80	1562.60
284.02	1589.22
284.23	1542.12
284.45	1562.60
284.66	1474.54
284.88	1574.89
285.09	1613.80
285.31	1621.99
285.52	1538.02
285.74	1513.45
285.95	1558.50
286.17	1615.85
286.38	1658.85
286.60	1564.65
286.81	1548.26
287.03	1574.89
287.24	1523.69
287.46	1572.84
287.67	1492.97
287.89	1609.70
288.10	1538.02
288.32	1486.83
288.53	1540.07
288.75	1568.74
288.96	1542.12
289.18	1452.01
289.39	1509.35
289.61	1554.41
289.82	1591.27
290.04	1533.93
290.25	1482.73
290.47	1531.88
290.68	1464.30
290.90	1529.83
291.11	1456.11
291.33	1554.41
291.54	1484.78
291.76	1490.92
291.97	1484.78
292.18	1538.02
292.40	1470.44
292.61	1509.35
292.83	1564.65
293.04	1570.79
293.26	1581.03
293.47	1564.65
293.69	1568.74
293.90	1499.11
294.12	1587.18
294.33	1548.26
294.55	1560.55
294.76	1646.57
294.97	1576.94
295.19	1615.85
295.40	1578.98
295.62	1607.66
295.83	1533.93
296.05	1462.25
296.26	1570.79
296.48	1484.78
296.69	1578.98
296.90	1527.78
297.12	1609.70
297.33	1601.51
297.55	1566.70
297.76	1533.93
297.98	1587.18
298.19	1521.64
298.41	1519.59
298.62	1499.11
298.83	1589.22
299.05	1574.89
299.26	1523.69
299.48	1449.96
299.69	1556.46
299.90	1523.69
300.12	1495.02
300.33	1593.32
300.55	1525.74
300.76	1509.35
300.98	1548.26
301.19	1550.31
301.40	1566.70
301.62	1460.20
301.83	1486.83
302.05	1568.74
302.26	1519.59
302.47	1470.44
302.69	1480.68
302.90	1525.74
303.12	1429.48
303.33	1568.74
303.54	1650.66
303.76	1544.17
303.97	1503.21
304.19	1626.09
304.40	1492.97
304.61	1558.50
304.83	1693.67
305.04	1581.03
305.26	1554.41
305.47	1564.65
305.68	1464.30
305.90	1517.54
306.11	1509.35
306.33	1587.18
306.54	1478.63
306.75	1519.59
306.97	1443.82
307.18	1497.07
307.39	1554.41
307.61	1595.37
307.82	1560.55
308.04	1531.88
308.25	1515.50
308.46	1574.89
308.68	1585.13
308.89	1538.02
309.10	1624.04
309.32	1515.50
309.53	1519.59
309.74	1538.02
309.96	1599.46
310.17	1581.03
310.39	1466.35
310.60	1568.74
310.81	1511.40
311.03	1472.49
311.24	1538.02
311.45	1474.54
311.67	1652.71
311.88	1544.17
312.09	1486.83
312.31	1552.36
312.52	1607.66
312.73	1517.54
312.95	1576.94
313.16	1492.97
313.37	1566.70
313.59	1599.46
313.80	1552.36
314.01	1552.36
314.23	1546.22
314.44	1415.15
314.65	1562.60
314.87	1540.07
315.08	1566.70
315.29	1505.26
315.51	1480.68
315.72	1501.16
315.93	1578.98
316.15	1564.65
316.36	1503.21
316.57	1531.88
316.79	1572.84
317.00	1521.64
317.21	1523.69
317.43	1566.70
317.64	1538.02
317.85	1482.73
318.07	1570.79
318.28	1703.91
318.49	1644.52
318.70	1796.07
318.92	1708.01
319.13	1656.81
319.34	1681.38
319.56	1593.32
319.77	1603.56
319.98	1648.61
320.20	1632.23
320.41	1658.85
320.62	1654.76
320.83	1527.78
321.05	1648.61
321.26	1591.27
321.47	1486.83
321.69	1628.14
321.90	1462.25
322.11	1558.50
322.32	1560.55
322.54	1595.37
322.75	1554.41
322.96	1646.57
323.18	1466.35
323.39	1490.92
323.60	1474.54
323.81	1593.32
324.03	1462.25
324.24	1607.66
324.45	1542.12
324.66	1540.07
324.88	1554.41
325.09	1564.65
325.30	1480.68
325.52	1601.51
325.73	1550.31
325.94	1503.21
326.15	1509.35
326.37	1540.07
326.58	1552.36
326.79	1544.17
327.00	1572.84
327.22	1464.30
327.43	1490.92
327.64	1517.54
327.85	1603.56
328.07	1558.50
328.28	1660.90
328.49	1472.49
328.70	1538.02
328.92	1519.59
329.13	1515.50
329.34	1533.93
329.55	1636.33
329.76	1587.18
329.98	1531.88
330.19	1554.41
330.40	1527.78
330.61	1558.50
330.83	1585.13
331.04	1466.35
331.25	1495.02
331.46	1527.78
331.68	1503.21
331.89	1546.22
332.10	1638.38
332.31	1538.02
332.52	1533.93
332.74	1615.85
332.95	1456.11
333.16	1566.70
333.37	1572.84
333.58	1515.50
333.80	1564.65
334.01	1517.54
334.22	1470.44
334.43	1501.16
334.64	1525.74
334.86	1404.91
335.07	1474.54
335.28	1609.70
335.49	1433.58
335.70	1576.94
335.92	1574.89
336.13	1654.76
336.34	1476.59
336.55	1576.94
336.76	1472.49
336.98	1468.39
337.19	1525.74
337.40	1648.61
337.61	1599.46
337.82	1488.87
338.04	1644.52
338.25	1429.48
338.46	1501.16
338.67	1548.26
338.88	1470.44
339.09	1540.07
339.31	1458.15
339.52	1566.70
339.73	1546.22
339.94	1544.17
340.15	1535.98
340.36	1613.80
340.58	1517.54
340.79	1470.44
341.00	1443.82
341.21	1468.39
341.42	1628.14
341.63	1601.51
341.85	1603.56
342.06	1568.74
342.27	1519.59
342.48	1591.27
342.69	1505.26
342.90	1546.22
343.12	1634.28
343.33	1564.65
343.54	1609.70
343.75	1609.70
343.96	1611.75
344.17	1501.16
344.38	1517.54
344.60	1521.64
344.81	1402.86
345.02	1570.79
345.23	1548.26
345.44	1626.09
345.65	1609.70
345.86	1587.18
346.07	1558.50
346.29	1460.20
346.50	1525.74
346.71	1533.93
346.92	1570.79
347.13	1628.14
347.34	1564.65
347.55	1513.45
347.76	1595.37
347.98	1490.92
348.19	1501.16
348.40	1513.45
348.61	1556.46
348.82	1611.75
349.03	1566.70
349.24	1466.35
349.45	1581.03
349.66	1441.77
349.88	1554.41
350.09	1535.98
350.30	1550.31
350.51	1619.94
350.72	1568.74
350.93	1583.08
351.14	1466.35
351.35	1513.45
351.56	1542.12
351.77	1621.99
351.99	1589.22
352.20	1570.79
352.41	1574.89
352.62	1394.67
352.83	1525.74
353.04	1566.70
353.25	1509.35
353.46	1560.55
353.67	1624.04
353.88	1484.78
354.09	1556.46
354.30	1558.50
354.52	1523.69
354.73	1497.07
354.94	1556.46
355.15	1546.22
355.36	1605.61
355.57	1505.26
355.78	1617.90
355.99	1593.32
356.20	1568.74
356.41	1578.98
356.62	1505.26
356.83	1538.02
357.04	1583.08
357.25	1458.15
357.46	1519.59
357.68	1533.93
357.89	1546.22
358.10	1572.84
358.31	1552.36
358.52	1521.64
358.73	1499.11
358.94	1499.11
359.15	1425.39
359.36	1505.26
359.57	1519.59
359.78	1492.97
359.99	1511.40
360.20	1542.12
360.41	1538.02
360.62	1609.70
360.83	1531.88
361.04	1574.89
361.25	1558.50
361.46	1632.23
361.67	1548.26
361.88	1568.74
362.09	1572.84
362.30	1558.50
362.51	1587.18
362.72	1517.54
362.93	1615.85
363.14	1648.61
363.35	1492.97
363.56	1507.30
363.78	1574.89
363.99	1617.90
364.20	1546.22
364.41	1599.46
364.62	1683.43
364.83	1486.83
365.04	1505.26
365.25	1521.64
365.46	1648.61
365.67	1492.97
365.88	1529.83
366.09	1521.64
366.30	1468.39
366.51	1576.94
366.72	1476.59
366.93	1499.11
367.14	1560.55
367.35	1572.84
367.56	1548.26
367.77	1626.09
367.98	1437.67
368.18	1472.49
368.39	1568.74
368.60	1513.45
368.81	1570.79
369.02	1601.51
369.23	1535.98
369.44	1480.68
369.65	1533.93
369.86	1503.21
370.07	1644.52
370.28	1562.60
370.49	1511.40
370.70	1548.26
370.91	1488.87
371.12	1480.68
371.33	1519.59
371.54	1585.13
371.75	1626.09
371.96	1433.58
372.17	1558.50
372.38	1503.21
372.59	1621.99
372.80	1454.06
373.01	1593.32
373.22	1613.80
373.43	1552.36
373.64	1535.98
373.85	1597.42
374.06	1572.84
374.26	1558.50
374.47	1624.04
374.68	1591.27
374.89	1560.55
375.10	1427.43
375.31	1607.66
375.52	1544.17
375.73	1613.80
375.94	1581.03
376.15	1648.61
376.36	1497.07
376.57	1554.41
376.78	1550.31
376.99	1546.22
377.20	1593.32
377.40	1611.75
377.61	1595.37
377.82	1540.07
378.03	1560.55
378.24	1566.70
378.45	1492.97
378.66	1585.13
378.87	1490.92
379.08	1435.63
379.29	1472.49
379.50	1673.19
379.71	1566.70
379.91	1640.42
380.12	1531.88
380.33	1517.54
380.54	1535.98
380.75	1601.51
380.96	1544.17
381.17	1640.42
381.38	1556.46
381.59	1601.51
381.80	1560.55
382.00	1746.92
382.21	1619.94
382.42	1648.61
382.63	1640.42
382.84	1714.15
383.05	1583.08
383.26	1585.13
383.47	1501.16
383.68	1609.70
383.88	1562.60
384.09	1523.69
384.30	1630.18
384.51	1546.22
384.72	1519.59
384.93	1509.35
385.14	1630.18
385.35	1617.90
385.55	1511.40
385.76	1583.08
385.97	1570.79
386.18	1525.74
386.39	1519.59
386.60	1535.98
386.81	1505.26
387.02	1529.83
387.22	1538.02
387.43	1624.04
387.64	1611.75
387.85	1843.17
388.06	3065.81
388.27	7247.76
388.48	10698.59
388.68	12519.23
388.89	14077.74
389.10	13029.18
389.31	10145.64
389.52	8836.99
389.73	8062.85
389.93	7196.56
390.14	6838.17
390.35	6274.98
390.56	5597.10
390.77	4618.17
390.98	3647.43
391.18	2873.30
391.39	2103.26
391.60	1820.64
391.81	1673.19
392.02	1628.14
392.23	1613.80
392.43	1558.50
392.64	1595.37
392.85	1558.50
393.06	1591.27
393.27	1529.83
393.47	1525.74
393.68	1540.07
393.89	1552.36
394.10	1591.27
394.31	1497.07
394.52	1495.02
394.72	1695.72
394.93	1646.57
395.14	1435.63
395.35	1570.79
395.56	1476.59
395.76	1568.74
395.97	1771.49
396.18	1761.25
396.39	1751.01
396.60	1941.47
396.80	1699.81
397.01	1681.38
397.22	1640.42
397.43	1769.44
397.64	1591.27
397.84	1761.25
398.05	1703.91
398.26	1599.46
398.47	1619.94
398.67	1611.75
398.88	1542.12
399.09	1556.46
399.30	1574.89
399.51	1570.79
399.71	1472.49
399.92	1533.93
400.13	1589.22
400.34	1515.50
400.54	1562.60
400.75	1605.61
400.96	1550.31
401.17	1615.85
401.37	1605.61
401.58	1644.52
401.79	1648.61
402.00	1796.07
402.21	1939.43
402.41	1974.24
402.62	1904.61
402.83	1925.09
403.04	1839.08
403.24	1966.05
403.45	1732.58
403.66	1740.77
403.87	1736.68
404.07	1722.34
404.28	1753.06
404.49	1761.25
404.70	1574.89
404.90	1640.42
405.11	1533.93
405.32	1615.85
405.52	1515.50
405.73	1546.22
405.94	1499.11
406.15	1556.46
406.35	1619.94
406.56	1599.46
406.77	1576.94
406.98	1583.08
407.18	1454.06
407.39	1581.03
407.60	1523.69
407.80	1566.70
408.01	1501.16
408.22	1560.55
408.43	1593.32
408.63	1535.98
408.84	1589.22
409.05	1546.22
409.25	1495.02
409.46	1538.02
409.67	1486.83
409.88	1490.92
410.08	1533.93
410.29	1542.12
410.50	1589.22
410.70	1634.28
410.91	1513.45
411.12	1535.98
411.32	1591.27
411.53	1540.07
411.74	1691.62
411.95	1621.99
412.15	1566.70
412.36	1587.18
412.57	1665.00
412.77	1599.46
412.98	1566.70
413.19	1531.88
413.39	1576.94
413.60	1576.94
413.81	1615.85
414.01	1523.69
414.22	1689.57
414.43	1589.22
414.63	1562.60
414.84	1519.59
415.05	1593.32
415.25	1466.35
415.46	1679.33
415.67	1484.78
415.87	1576.94
416.08	1533.93
416.29	1482.73
416.49	1533.93
416.70	1531.88
416.91	1503.21
417.11	1583.08
417.32	1587.18
417.53	1603.56
417.73	1583.08
417.94	1531.88
418.15	1570.79
418.35	1552.36
418.56	1523.69
418.77	1685.48
418.97	1558.50
419.18	1529.83
419.38	1490.92
419.59	1560.55
419.80	1568.74
420.00	1482.73
420.21	1484.78
420.42	1626.09
420.62	1560.55
420.83	1486.83
421.04	1576.94
421.24	1568.74
421.45	1615.85
421.65	1525.74
421.86	1478.63
422.07	1517.54
422.27	1578.98
422.48	1517.54
422.69	1437.67
422.89	1556.46
423.10	1574.89
423.30	1495.02
423.51	1597.42
423.72	1505.26
423.92	1521.64
424.13	1529.83
424.33	1544.17
424.54	1515.50
424.75	1552.36
424.95	1597.42
425.16	1595.37
425.36	1540.07
425.57	1570.79
425.78	1570.79
425.98	1540.07
426.19	1583.08
426.39	1513.45
426.60	1542.12
426.81	1574.89
427.01	1507.30
427.22	1515.50
427.42	1423.34
427.63	1492.97
427.83	1568.74
428.04	1738.73
428.25	1638.38
428.45	1587.18
428.66	1503.21
428.86	1486.83
429.07	1499.11
429.28	1556.46
429.48	1544.17
429.69	1478.63
429.89	1599.46
430.10	1527.78
430.30	1538.02
430.51	1535.98
430.71	1519.59
430.92	1566.70
431.13	1587.18
431.33	1560.55
431.54	1560.55
431.74	1630.18
431.95	1644.52
432.15	1449.96
432.36	1591.27
432.56	1505.26
432.77	1607.66
432.98	1583.08
433.18	1558.50
433.39	1599.46
433.59	1531.88
433.80	1648.61
434.00	1648.61
434.21	1460.20
434.41	1521.64
434.62	1654.76
434.82	1529.83
435.03	1517.54
435.23	1468.39
435.44	1486.83
435.64	1523.69
435.85	1533.93
436.06	1593.32
436.26	1581.03
436.47	1505.26
436.67	1486.83
436.88	1564.65
437.08	1632.23
437.29	1583.08
437.49	1609.70
437.70	1667.05
437.90	1599.46
438.11	1687.53
438.31	1671.14
438.52	1701.86
438.72	1769.44
438.93	1693.67
439.13	1581.03
439.34	1665.00
439.54	1603.56
439.75	1556.46
439.95	1619.94
440.16	1552.36
440.36	1615.85
440.57	1562.60
440.77	1568.74
440.98	1509.35
441.18	1542.12
441.39	1472.49
441.59	1497.07
441.80	1628.14
442.00	1609.70
442.21	1542.12
442.41	1478.63
442.62	1564.65
442.82	1525.74
443.02	1519.59
443.23	1550.31
443.43	1671.14
443.64	1568.74
443.84	1495.02
444.05	1658.85
444.25	1538.02
444.46	1525.74
444.66	1576.94
444.87	1632.23
445.07	1501.16
445.28	1505.26
445.48	1519.59
445.69	1650.66
445.89	1658.85
446.09	1638.38
446.30	2080.74
446.50	3123.15
446.71	4562.87
446.91	5275.57
447.12	5601.19
447.32	5597.10
447.53	4603.83
447.73	4061.12
447.93	3600.33
448.14	3272.65
448.34	3203.02
448.55	2944.98
448.75	2856.92
448.96	2719.70
449.16	2455.51
449.36	2283.49
449.57	2035.68
449.77	1761.25
449.98	1693.67
450.18	1714.15
450.39	1650.66
450.59	1599.46
450.79	1488.87
451.00	1601.51
451.20	1572.84
451.41	1642.47
451.61	1601.51
451.81	1538.02
452.02	1507.30
452.22	1554.41
452.43	1566.70
452.63	1523.69
452.84	1535.98
453.04	1523.69
453.24	1542.12
453.45	1503.21
453.65	1601.51
453.86	1529.83
454.06	1542.12
454.26	1527.78
454.47	1560.55
454.67	1566.70
454.87	1583.08
455.08	1464.30
455.28	1583.08
455.49	1468.39
455.69	1490.92
455.89	1605.61
456.10	1574.89
456.30	1521.64
456.51	1591.27
456.71	1540.07
456.91	1552.36
457.12	1525.74
457.32	1529.83
457.52	1398.76
457.73	1591.27
457.93	1619.94
458.14	1550.31
458.34	1452.01
458.54	1509.35
458.75	1527.78
458.95	1540.07
459.15	1544.17
459.36	1576.94
459.56	1587.18
459.76	1615.85
459.97	1560.55
460.17	1507.30
460.37	1656.81
460.58	1509.35
460.78	1515.50
460.99	1597.42
461.19	1568.74
461.39	1564.65
461.60	1462.25
461.80	1619.94
462.00	1452.01
462.21	1552.36
462.41	1587.18
462.61	1507.30
462.82	1447.91
463.02	1617.90
463.22	1550.31
463.43	1597.42
463.63	1538.02
463.83	1574.89
464.04	1601.51
464.24	1527.78
464.44	1480.68
464.64	1538.02
464.85	1607.66
465.05	1546.22
465.25	1511.40
465.46	1568.74
465.66	1531.88
465.86	1552.36
466.07	1521.64
466.27	1564.65
466.47	1484.78
466.68	1519.59
466.88	1601.51
467.08	1535.98
467.29	1640.42
467.49	1527.78
467.69	1574.89
467.89	1597.42
468.10	1519.59
468.30	1517.54
468.50	1603.56
468.71	1581.03
468.91	1462.25
469.11	1603.56
469.31	1531.88
469.52	1519.59
469.72	1609.70
469.92	1667.05
470.13	1490.92
470.33	1638.38
470.53	1699.81
470.73	2054.11
470.94	2324.44
471.14	2424.80
471.34	2609.11
471.54	2451.42
471.75	2205.66
471.95	2025.44
472.15	2033.63
472.36	1957.86
472.56	1959.91
472.76	1894.37
472.96	1892.32
473.17	1810.40
473.37	1683.43
473.57	1638.38
473.77	1665.00
473.98	1728.49
474.18	1583.08
474.38	1757.16
474.58	1538.02
474.79	1529.83
474.99	1581.03
475.19	1581.03
475.39	1460.20
475.60	1597.42
475.80	1570.79
476.00	1503.21
476.20	1601.51
476.41	1525.74
476.61	1617.90
476.81	1581.03
477.01	1556.46
477.21	1660.90
477.42	1578.98
477.62	1544.17
477.82	1564.65
478.02	1548.26
478.23	1513.45
478.43	1529.83
478.63	1568.74
478.83	1581.03
479.03	1566.70
479.24	1650.66
479.44	1593.32
479.64	1495.02
479.84	1421.29
480.04	1482.73
480.25	1609.70
480.45	1529.83
480.65	1587.18
480.85	1542.12
481.06	1585.13
481.26	1517.54
481.46	1574.89
481.66	1548.26
481.86	1468.39
482.06	1626.09
482.27	1454.06
482.47	1472.49
482.67	1552.36
482.87	1558.50
483.07	1609.70
483.28	1593.32
483.48	1468.39
483.68	1535.98
483.88	1421.29
484.08	1423.34
484.29	1525.74
484.49	1529.83
484.69	1468.39
484.89	1595.37
485.09	1585.13
485.29	1505.26
485.50	1552.36
485.70	1585.13
485.90	1583.08
486.10	1564.65
486.30	1574.89
486.50	1568.74
486.71	1564.65
486.91	1593.32
487.11	1640.42
487.31	1449.96
487.51	1515.50
487.71	1492.97
487.91	1470.44
488.12	1507.30
488.32	1445.87
488.52	1546.22
488.72	1507.30
488.92	1578.98
489.12	1570.79
489.32	1615.85
489.53	1597.42
489.73	1443.82
489.93	1574.89
490.13	1566.70
490.33	1484.78
490.53	1556.46
490.73	1613.80
490.94	1513.45
491.14	1658.85
491.34	1689.57
491.54	2138.08
491.74	2688.98
491.94	3114.96
492.14	3385.29
492.34	3215.31
492.54	2834.39
492.75	2441.18
492.95	2346.97
493.15	2306.01
493.35	2228.19
493.55	2119.65
493.75	1996.77
493.95	1968.10
494.15	2000.87
494.35	1812.45
494.56	1802.21
494.76	1626.09
494.96	1628.14
495.16	1630.18
495.36	1519.59
495.56	1564.65
495.76	1501.16
495.96	1566.70
496.16	1505.26
496.36	1624.04
496.56	1505.26
496.77	1581.03
496.97	1478.63
497.17	1533.93
497.37	1462.25
497.57	1529.83
497.77	1576.94
497.97	1533.93
498.17	1531.88
498.37	1611.75
498.57	1550.31
498.77	1599.46
498.97	1611.75
499.17	1632.23
499.38	1605.61
499.58	1599.46
499.78	1540.07
499.98	1634.28
500.18	1564.65
500.38	1548.26
500.58	1767.40
500.78	2666.46
500.98	4990.90
501.18	6832.02
501.38	8218.50
501.58	8798.07
501.78	8169.35
501.98	6076.32
502.18	5392.30
502.38	4730.81
502.58	4372.41
502.78	3876.80
502.98	3733.45
503.18	3485.64
503.38	3360.72
503.59	3004.37
503.79	2824.15
503.99	2535.39
504.19	2295.77
504.39	2113.50
504.59	2164.70
504.79	2060.26
504.99	1939.43
505.19	1753.06
505.39	1724.39
505.59	1828.84
505.79	1720.29
505.99	1689.57
506.19	1630.18
506.39	1665.00
506.59	1503.21
506.79	1615.85
506.99	1697.77
507.19	1542.12
507.39	1570.79
507.59	1490.92
507.79	1540.07
507.99	1527.78
508.19	1525.74
508.39	1509.35
508.59	1556.46
508.79	1593.32
508.99	1621.99
509.19	1509.35
509.39	1576.94
509.59	1523.69
509.79	1501.16
509.99	1558.50
510.19	1634.28
510.39	1632.23
510.59	1474.54
510.79	1478.63
510.99	1507.30
511.19	1538.02
511.39	1652.71
511.59	1607.66
511.79	1601.51
511.99	1511.40
512.19	1630.18
512.38	1501.16
512.58	1529.83
512.78	1626.09
512.98	1607.66
513.18	1572.84
513.38	1554.41
513.58	1644.52
513.78	1552.36
513.98	1601.51
514.18	1499.11
514.38	1505.26
514.58	1613.80
514.78	1462.25
514.98	1480.68
515.18	1495.02
515.38	1513.45
515.58	1587.18
515.78	1497.07
515.98	1511.40
516.18	1546.22
516.38	1570.79
516.57	1538.02
516.77	1527.78
516.97	1601.51
517.17	1517.54
517.37	1501.16
517.57	1570.79
517.77	1468.39
517.97	1519.59
518.17	1562.60
518.37	1476.59
518.57	1495.02
518.77	1480.68
518.97	1525.74
519.16	1566.70
519.36	1560.55
519.56	1533.93
519.76	1486.83
519.96	1605.61
520.16	1611.75
520.36	1501.16
520.56	1624.04
520.76	1585.13
520.96	1474.54
521.16	1527.78
521.35	1570.79
521.55	1652.71
521.75	1533.93
521.95	1556.46
522.15	1533.93
522.35	1482.73
522.55	1396.71
522.75	1603.56
522.95	1550.31
523.14	1533.93
523.34	1535.98
523.54	1566.70
523.74	1552.36
523.94	1566.70
524.14	1529.83
524.34	1546.22
524.54	1572.84
524.73	1513.45
524.93	1634.28
525.13	1542.12
525.33	1462.25
525.53	1648.61
525.73	1574.89
525.93	1554.41
526.13	1572.84
526.32	1560.55
526.52	1558.50
526.72	1525.74
526.92	1533.93
527.12	1525.74
527.32	1476.59
527.52	1583.08
527.71	1548.26
527.91	1531.88
528.11	1499.11
528.31	1601.51
528.51	1515.50
528.71	1599.46
528.90	1587.18
529.10	1644.52
529.30	1601.51
529.50	1447.91
529.70	1535.98
529.90	1621.99
530.09	1597.42
530.29	1503.21
530.49	1531.88
530.69	1632.23
530.89	1554.41
531.09	1583.08
531.28	1495.02
531.48	1548.26
531.68	1562.60
531.88	1497.07
532.08	1589.22
532.28	1507.30
532.47	1558.50
532.67	1617.90
532.87	1599.46
533.07	1521.64
533.27	1560.55
533.46	1613.80
533.66	1566.70
533.86	1538.02
534.06	1513.45
534.26	1578.98
534.45	1515.50
534.65	1531.88
534.85	1570.79
535.05	1495.02
535.25	1525.74
535.44	1509.35
535.64	1603.56
535.84	1609.70
536.04	1554.41
536.24	1521.64
536.43	1509.35
536.63	1583.08
536.83	1538.02
537.03	1550.31
537.22	1503.21
537.42	1466.35
537.62	1533.93
537.82	1517.54
538.02	1636.33
538.21	1619.94
538.41	1746.92
538.61	1542.12
538.81	1521.64
539.00	1552.36
539.20	1472.49
539.40	1437.67
539.60	1531.88
539.79	1560.55
539.99	1513.45
540.19	1540.07
540.39	1458.15
540.58	1615.85
540.78	1638.38
540.98	1484.78
541.18	1542.12
541.37	1562.60
541.57	1513.45
541.77	1570.79
541.97	1533.93
542.16	1466.35
542.36	1525.74
542.56	1628.14
542.76	1611.75
542.95	1634.28
543.15	1497.07
543.35	1683.43
543.54	1501.16
543.74	1476.59
543.94	1578.98
544.14	1509.35
544.33	1560.55
544.53	1533.93
544.73	1515.50
544.93	1495.02
545.12	1544.17
545.32	1486.83
545.52	1533.93
545.71	1511.40
545.91	1443.82
546.11	1542.12
546.30	1501.16
546.50	1544.17
546.70	1550.31
546.90	1495.02
547.09	1517.54
547.29	1521.64
547.49	1583.08
547.68	1503.21
547.88	1513.45
548.08	1574.89
548.27	1968.10
548.47	1527.78
548.67	1394.67
548.87	1544.17
549.06	1484.78
549.26	1507.30
549.46	1525.74
549.65	1566.70
549.85	1535.98
550.05	1652.71
550.24	1535.98
550.44	1509.35
550.64	1507.30
550.83	1529.83
551.03	1667.05
551.23	1527.78
551.42	1523.69
551.62	1578.98
551.82	1554.41
552.01	1445.87
552.21	1544.17
552.41	1570.79
552.60	1597.42
552.80	1486.83
553.00	1478.63
553.19	1495.02
553.39	1570.79
553.59	1519.59
553.78	1597.42
553.98	1550.31
554.17	1480.68
554.37	1593.32
554.57	1632.23
554.76	1488.87
554.96	1521.64
555.16	1544.17
555.35	1552.36
555.55	1593.32
555.75	1515.50
555.94	1560.55
556.14	1480.68
556.33	1540.07
556.53	1556.46
556.73	1525.74
556.92	1564.65
557.12	1589.22
557.32	1626.09
557.51	1673.19
557.71	1564.65
557.90	1595.37
558.10	1533.93
558.30	1558.50
558.49	1486.83
558.69	1570.79
558.88	1595.37
559.08	1595.37
559.28	1507.30
559.47	1523.69
559.67	1574.89
559.86	1667.05
560.06	1615.85
560.26	1531.88
560.45	1578.98
560.65	1505.26
560.84	1576.94
561.04	1456.11
561.24	1595.37
561.43	1501.16
561.63	1591.27
561.82	1611.75
562.02	1531.88
562.22	1574.89
562.41	1484.78
562.61	1495.02
562.80	1505.26
563.00	1632.23
563.19	1589.22
563.39	1617.90
563.59	1599.46
563.78	1476.59
563.98	1415.15
564.17	1540.07
564.37	1454.06
564.56	1544.17
564.76	1458.15
564.96	1568.74
565.15	1566.70
565.35	1679.33
565.54	1595.37
565.74	1650.66
565.93	1562.60
566.13	1646.57
566.32	1570.79
566.52	1621.99
566.71	1611.75
566.91	1558.50
567.11	1646.57
567.30	1499.11
567.50	1503.21
567.69	1554.41
567.89	1484.78
568.08	1519.59
568.28	1529.83
568.47	1425.39
568.67	1587.18
568.86	1560.55
569.06	1591.27
569.25	1554.41
569.45	1523.69
569.64	1544.17
569.84	1515.50
570.04	1591.27
570.23	1542.12
570.43	1578.98
570.62	1495.02
570.82	1656.81
571.01	1482.73
571.21	1556.46
571.40	1503.21
571.60	1601.51
571.79	1576.94
571.99	1552.36
572.18	1562.60
572.38	1642.47
572.57	1535.98
572.77	1527.78
572.96	1650.66
573.16	1605.61
573.35	1527.78
573.55	1656.81
573.74	1603.56
573.94	1488.87
574.13	1576.94
574.33	1644.52
574.52	1632.23
574.71	1499.11
574.91	1619.94
575.10	1515.50
575.30	1556.46
575.49	1576.94
575.69	1527.78
575.88	1593.32
576.08	1556.46
576.27	1720.29
576.47	1695.72
576.66	1691.62
576.86	1656.81
577.05	1634.28
577.25	1656.81
577.44	1650.66
577.64	1566.70
577.83	1509.35
578.02	1611.75
578.22	1640.42
578.41	1636.33
578.61	1603.56
578.80	1499.11
579.00	1574.89
579.19	1591.27
579.39	1656.81
579.58	1644.52
579.77	1542.12
579.97	1626.09
580.16	1630.18
580.36	1601.51
580.55	1665.00
580.75	1574.89
580.94	1583.08
581.13	1650.66
581.33	1632.23
581.52	1593.32
581.72	1734.63
581.91	1665.00
582.11	1607.66
582.30	1628.14
582.49	1595.37
582.69	1675.24
582.88	1624.04
583.08	1495.02
583.27	1605.61
583.47	1570.79
583.66	1542.12
583.85	1529.83
584.05	1548.26
584.24	1619.94
584.44	1542.12
584.63	1662.95
584.82	1632.23
585.02	1781.73
585.21	1755.11
585.41	1804.26
585.60	1697.77
585.79	1845.22
585.99	1855.46
586.18	1724.39
586.37	2103.26
586.57	3225.55
586.76	9686.89
586.96	27686.49
587.15	43701.61
587.34	54783.16
587.54	61707.35
587.73	59806.83
587.93	43865.44
588.12	32275.99
588.31	26029.68
588.51	22372.01
588.70	19744.47
588.89	18585.32
589.09	16895.74
589.28	15159.06
589.47	13426.48
589.67	11134.81
589.86	9023.35
590.06	6684.57
590.25	5025.72
590.44	3739.59
590.64	2912.21
590.83	2361.31
591.02	2090.98
591.22	1880.04
591.41	1822.69
591.60	1705.96
591.80	1783.78
591.99	1624.04
592.18	1632.23
592.38	1699.81
592.57	1671.14
592.76	1636.33
592.96	1656.81
593.15	1576.94
593.34	1675.24
593.54	1572.84
593.73	1640.42
593.92	1679.33
594.12	1634.28
594.31	1642.47
594.50	1685.48
594.70	1660.90
594.89	1689.57
595.08	1538.02
595.28	1648.61
595.47	1708.01
595.66	1669.09
595.86	1476.59
596.05	1566.70
596.24	1611.75
596.43	1656.81
596.63	1587.18
596.82	1492.97
597.01	1662.95
597.21	1654.76
597.40	1601.51
597.59	1607.66
597.79	1624.04
597.98	1599.46
598.17	1617.90
598.36	1613.80
598.56	1593.32
598.75	1568.74
598.94	1605.61
599.14	1583.08
599.33	1533.93
599.52	1634.28
599.71	1535.98
599.91	1609.70
600.10	1554.41
600.29	1468.39
600.48	1593.32
600.68	1578.98
600.87	1527.78
601.06	1542.12
601.26	1585.13
601.45	1603.56
601.64	1507.30
601.83	1626.09
602.03	1544.17
602.22	1535.98
602.41	1558.50
602.60	1640.42
602.80	1527.78
602.99	1652.71
603.18	1544.17
603.37	1583.08
603.57	1589.22
603.76	1675.24
603.95	1574.89
604.14	1517.54
604.34	1507.30
604.53	1591.27
604.72	1538.02
604.91	1583.08
605.10	1566.70
605.30	1488.87
605.49	1566.70
605.68	1593.32
605.87	1624.04
606.07	1615.85
606.26	1484.78
606.45	1591.27
606.64	1605.61
606.84	1535.98
607.03	1542.12
607.22	1609.70
607.41	1546.22
607.60	1595.37
607.80	1630.18
607.99	1566.70
608.18	1525.74
608.37	1566.70
608.56	1570.79
608.76	1626.09
608.95	1632.23
609.14	1634.28
609.33	1601.51
609.52	1691.62
609.72	1681.38
609.91	1601.51
610.10	1597.42
610.29	1665.00
610.48	1585.13
610.68	1615.85
610.87	1607.66
611.06	1574.89
611.25	1560.55
611.44	1562.60
611.63	1517.54
611.83	1578.98
612.02	1599.46
612.21	1650.66
612.40	1470.44
612.59	1540.07
612.79	1531.88
612.98	1478.63
613.17	1552.36
613.36	1507.30
613.55	1722.34
613.74	1611.75
613.93	1640.42
614.13	1740.77
614.32	1820.64
614.51	1816.55
614.70	1671.14
614.89	1673.19
615.08	1626.09
615.28	1939.43
615.47	1593.32
615.66	1632.23
615.85	1640.42
616.04	1673.19
616.23	1642.47
616.42	1607.66
616.62	1654.76
616.81	1599.46
617.00	1538.02
617.19	1548.26
617.38	1552.36
617.57	1599.46
617.76	1587.18
617.95	1671.14
618.15	1632.23
618.34	1642.47
618.53	1546.22
618.72	1605.61
618.91	1640.42
619.10	1662.95
619.29	1554.41
619.48	1564.65
619.68	1507.30
619.87	1521.64
620.06	1515.50
620.25	1544.17
620.44	1478.63
620.63	1501.16
620.82	1531.88
621.01	1513.45
621.20	1566.70
621.39	1523.69
621.59	1660.90
621.78	1525.74
621.97	1603.56
622.16	1589.22
622.35	1587.18
622.54	1621.99
622.73	1581.03
622.92	1478.63
623.11	1652.71
623.30	1544.17
623.49	1636.33
623.68	1515.50
623.88	1507.30
624.07	1521.64
624.26	1511.40
624.45	1550.31
624.64	1626.09
624.83	1527.78
625.02	1574.89
625.21	1490.92
625.40	1570.79
625.59	1658.85
625.78	1507.30
625.97	1675.24
626.16	1615.85
626.35	1632.23
626.54	1615.85
626.74	1740.77
626.93	1542.12
627.12	1568.74
627.31	1632.23
627.50	1636.33
627.69	1574.89
627.88	1548.26
628.07	1564.65
628.26	1478.63
628.45	1527.78
628.64	1505.26
628.83	1552.36
629.02	1527.78
629.21	1564.65
629.40	1572.84
629.59	1492.97
629.78	1626.09
629.97	1544.17
630.16	1624.04
630.35	1538.02
630.54	1632.23
630.73	1540.07
630.92	1538.02
631.11	1478.63
631.30	1492.97
631.49	1548.26
631.68	1519.59
631.87	1525.74
632.06	1445.87
632.25	1626.09
632.44	1628.14
632.63	1619.94
632.82	1578.98
633.01	1619.94
633.20	1701.86
633.39	1599.46
633.58	1574.89
633.77	1628.14
633.96	1589.22
634.15	1578.98
634.34	1595.37
634.53	1599.46
634.72	1560.55
634.91	1542.12
635.10	1611.75
635.29	1589.22
635.48	1558.50
635.67	1468.39
635.86	1437.67
636.05	1578.98
636.24	1554.41
636.43	1554.41
636.62	1617.90
636.81	1447.91
637.00	1533.93
637.19	1624.04
637.38	1478.63
637.57	1558.50
637.76	1634.28
637.95	1624.04
638.14	1660.90
638.33	1634.28
638.52	1630.18
638.71	1544.17
638.89	1542.12
639.08	1679.33
639.27	1644.52
639.46	1564.65
639.65	1873.89
639.84	2129.89
640.03	2174.94
640.22	2222.05
640.41	2197.47
640.60	1990.63
640.79	1861.60
640.98	1777.64
641.17	1753.06
641.36	1751.01
641.55	1740.77
641.74	1617.90
641.92	1652.71
642.11	1644.52
642.30	1568.74
642.49	1554.41
642.68	1560.55
642.87	1599.46
643.06	1634.28
643.25	1542.12
643.44	1517.54
643.63	1554.41
643.82	1574.89
644.00	1497.07
644.19	1535.98
644.38	1505.26
644.57	1601.51
644.76	1611.75
644.95	1595.37
645.14	1578.98
645.33	1617.90
645.52	1548.26
645.71	1482.73
645.89	1595.37
646.08	1515.50
646.27	1527.78
646.46	1593.32
646.65	1409.00
646.84	1550.31
647.03	1456.11
647.22	1624.04
647.40	1544.17
647.59	1558.50
647.78	1445.87
647.97	1556.46
648.16	1515.50
648.35	1581.03
648.54	1587.18
648.73	1535.98
648.91	1542.12
649.10	1535.98
649.29	1509.35
649.48	1542.12
649.67	1466.35
649.86	1603.56
650.05	1515.50
650.23	1777.64
650.42	1710.05
650.61	1808.36
650.80	1773.54
650.99	1814.50
651.18	1630.18
651.36	1638.38
651.55	1558.50
651.74	1615.85
651.93	1548.26
652.12	1535.98
652.31	1542.12
652.49	1562.60
652.68	1464.30
652.87	1566.70
653.06	1542.12
653.25	1576.94
653.44	1542.12
653.62	1648.61
653.81	1525.74
654.00	1605.61
654.19	1499.11
654.38	1677.29
654.56	1572.84
654.75	1523.69
654.94	1617.90
655.13	1566.70
655.32	1570.79
655.51	1634.28
655.69	1513.45
655.88	1538.02
656.07	1550.31
656.26	1613.80
656.45	1458.15
656.63	1511.40
656.82	1544.17
657.01	1570.79
657.20	1619.94
657.38	1640.42
657.57	1585.13
657.76	1505.26
657.95	1564.65
658.14	1435.63
658.32	1499.11
658.51	1527.78
658.70	1605.61
658.89	1513.45
659.08	1550.31
659.26	1656.81
659.45	1611.75
659.64	1601.51
659.83	1601.51
660.01	1812.45
660.20	1570.79
660.39	1705.96
660.58	1484.78
660.76	1583.08
660.95	1544.17
661.14	1509.35
661.33	1476.59
661.51	1546.22
661.70	1562.60
661.89	1603.56
662.08	1648.61
662.26	1474.54
662.45	1546.22
662.64	1556.46
662.83	1515.50
663.01	1501.16
663.20	1566.70
663.39	1546.22
663.58	1558.50
663.76	1531.88
663.95	1544.17
664.14	1495.02
664.32	1533.93
664.51	1492.97
664.70	1437.67
664.89	1615.85
665.07	1406.95
665.26	1572.84
665.45	1511.40
665.64	1603.56
665.82	1452.01
666.01	1642.47
666.20	1501.16
666.38	1607.66
666.57	1665.00
666.76	1865.70
666.95	2932.69
667.13	7487.37
667.32	15767.31
667.51	20135.63
667.69	23768.73
667.88	25454.20
668.07	22288.04
668.25	15830.80
668.44	12668.73
668.63	10166.12
668.81	8761.21
669.00	7802.76
669.19	7161.75
669.38	6444.96
669.56	5597.10
669.75	4892.60
669.94	4091.84
670.12	3319.76
670.31	2820.05
670.50	2508.76
670.68	2099.17
670.87	1910.75
671.06	1759.21
671.24	1726.44
671.43	1691.62
671.62	1683.43
671.80	1683.43
671.99	1658.85
672.18	1621.99
672.36	1601.51
672.55	1562.60
672.74	1521.64
672.92	1519.59
673.11	1603.56
673.29	1443.82
673.48	1621.99
673.67	1519.59
673.85	1638.38
674.04	1486.83
674.23	1503.21
674.41	1617.90
674.60	1533.93
674.79	1456.11
674.97	1574.89
675.16	1587.18
675.34	1574.89
675.53	1564.65
675.72	1503.21
675.90	1646.57
676.09	1538.02
676.28	1480.68
676.46	1521.64
676.65	1576.94
676.83	1513.45
677.02	1558.50
677.21	1595.37
677.39	1525.74
677.58	1503.21
677.77	1562.60
677.95	1515.50
678.14	1527.78
678.32	1572.84
678.51	1593.32
678.70	1632.23
678.88	1499.11
679.07	1583.08
679.25	1519.59
679.44	1540.07
679.63	1533.93
679.81	1566.70
680.00	1554.41
680.18	1632.23
680.37	1597.42
680.55	1533.93
680.74	1452.01
680.93	1540.07
681.11	1652.71
681.30	1531.88
681.48	1511.40
681.67	1544.17
681.85	1562.60
682.04	1458.15
682.23	1560.55
682.41	1542.12
682.60	1546.22
682.78	1572.84
682.97	1513.45
683.15	1560.55
683.34	1556.46
683.53	1607.66
683.71	1427.43
683.90	1615.85
684.08	1648.61
684.27	1495.02
684.45	1544.17
684.64	1591.27
684.82	1478.63
685.01	1566.70
685.19	1515.50
685.38	1640.42
685.57	1468.39
685.75	1538.02
685.94	1525.74
686.12	1531.88
686.31	1482.73
686.49	1566.70
686.68	1449.96
686.86	1531.88
687.05	1560.55
687.23	1546.22
687.42	1474.54
687.60	1511.40
687.79	1585.13
687.97	1533.93
688.16	1576.94
688.34	1642.47
688.53	1509.35
688.71	1568.74
688.90	1568.74
689.08	1517.54
689.27	1507.30
689.45	1656.81
689.64	1613.80
689.82	1505.26
690.01	1490.92
690.19	1466.35
690.38	1472.49
690.56	1630.18
690.75	1458.15
690.93	1509.35
691.12	1515.50
691.30	1550.31
691.49	1515.50
691.67	1488.87
691.86	1640.42
692.04	1552.36
692.23	1511.40
692.41	1597.42
692.60	1710.05
692.78	1595.37
692.97	1638.38
693.15	1630.18
693.34	1718.25
693.52	1675.24
693.71	1521.64
693.89	1517.54
694.08	1478.63
694.26	1585.13
694.44	1562.60
694.63	1544.17
694.81	1519.59
695.00	1509.35
695.18	1685.48
695.37	1679.33
695.55	1554.41
695.74	1552.36
695.92	1509.35
696.10	1665.00
696.29	1540.07
696.47	1546.22
696.66	1495.02
696.84	1468.39
697.03	1546.22
697.21	1626.09
697.40	2076.64
697.58	1665.00
697.76	1472.49
697.95	1435.63
698.13	1454.06
698.32	1511.40
698.50	1613.80
698.68	1615.85
698.87	1527.78
699.05	1626.09
699.24	1603.56
699.42	1507.30
699.61	1554.41
699.79	1533.93
699.97	1595.37
700.16	1480.68
700.34	1476.59
700.53	1568.74
700.71	1562.60
700.89	1628.14
701.08	1535.98
701.26	1513.45
701.45	1894.37
701.63	1538.02
701.81	1574.89
702.00	1540.07
702.18	1550.31
702.37	1544.17
702.55	1585.13
702.73	1677.29
702.92	1689.57
703.10	1734.63
703.28	1814.50
703.47	1748.97
703.65	1767.40
703.84	1726.44
704.02	1630.18
704.20	1726.44
704.39	1621.99
704.57	1638.38
704.75	1689.57
704.94	1658.85
705.12	1630.18
705.30	1705.96
705.49	1820.64
705.67	2797.53
705.86	7468.94
706.04	14516.00
706.22	18474.73
706.41	21771.96
706.59	23148.19
706.77	20870.85
706.96	14855.97
707.14	11624.27
707.32	9836.39
707.51	8681.34
707.69	7606.16
707.87	6834.07
708.06	5699.50
708.24	4745.14
708.42	3665.86
708.61	3065.81
708.79	2269.15
708.97	2027.49
709.16	1839.08
709.34	1748.97
709.52	1566.70
709.71	1613.80
709.89	1609.70
710.07	1593.32
710.26	1570.79
710.44	1501.16
710.62	1615.85
710.80	1578.98
710.99	1597.42
711.17	1583.08
711.35	1540.07
711.54	1542.12
711.72	1654.76
711.90	1478.63
712.09	1613.80
712.27	1511.40
712.45	1662.95
712.63	1476.59
712.82	1533.93
713.00	1505.26
713.18	1601.51
713.37	1609.70
713.55	1593.32
713.73	1601.51
713.91	1552.36
714.10	1531.88
714.28	1460.20
714.46	1589.22
714.65	1617.90
714.83	1593.32
715.01	1456.11
715.19	1505.26
715.38	1423.34
715.56	1574.89
715.74	1495.02
715.92	1554.41
716.11	1611.75
716.29	1484.78
716.47	1540.07
716.65	1544.17
716.84	1456.11
717.02	1599.46
717.20	1427.43
717.38	1560.55
717.57	1613.80
717.75	1521.64
717.93	1538.02
718.11	1605.61
718.30	1505.26
718.48	1509.35
718.66	1628.14
718.84	1572.84
719.03	1513.45
719.21	1531.88
719.39	1511.40
719.57	1570.79
719.75	1476.59
719.94	1570.79
720.12	1564.65
720.30	1542.12
720.48	1632.23
720.67	1574.89
720.85	1527.78
721.03	1548.26
721.21	1439.72
721.39	1589.22
721.58	1515.50
721.76	1603.56
721.94	1509.35
722.12	1548.26
722.30	1503.21
722.49	1523.69
722.67	1484.78
722.85	1583.08
723.03	1480.68
723.21	1470.44
723.40	1546.22
723.58	1597.42
723.76	1617.90
723.94	1591.27
724.12	1650.66
724.30	1648.61
724.49	1677.29
724.67	1589.22
724.85	1671.14
725.03	1542.12
725.21	1646.57
725.40	1599.46
725.58	1480.68
725.76	1595.37
725.94	1576.94
726.12	1595.37
726.30	1538.02
726.49	1546.22
726.67	1570.79
726.85	1507.30
727.03	1585.13
727.21	1767.40
727.39	2162.66
727.57	3278.80
727.76	4333.50
727.94	4812.73
728.12	5144.50
728.30	5107.63
728.48	4284.35
728.66	3436.49
728.84	3291.09
729.03	2934.74
729.21	2635.74
729.39	2353.12
729.57	2002.91
729.75	1880.04
729.93	1789.92
730.11	1626.09
730.30	1550.31
730.48	1583.08
730.66	1599.46
730.84	1570.79
731.02	1552.36
731.20	1503.21
731.38	1619.94
731.56	1550.31
731.74	1495.02
731.93	1558.50
732.11	1568.74
732.29	1525.74
732.47	1550.31
732.65	1486.83
732.83	1574.89
733.01	1511.40
733.19	1560.55
733.37	1578.98
733.56	1591.27
733.74	1492.97
733.92	1578.98
734.10	1576.94
734.28	1546.22
734.46	1468.39
734.64	1523.69
734.82	1466.35
735.00	1519.59
735.18	1468.39
735.36	1542.12
735.54	1570.79
735.73	1523.69
735.91	1492.97
736.09	1578.98
736.27	1497.07
736.45	1538.02
736.63	1497.07
736.81	1540.07
736.99	1542.12
737.17	1583.08
737.35	1509.35
737.53	1484.78
737.71	1636.33
737.89	1548.26
738.07	1542.12
738.25	1507.30
738.43	1437.67
738.61	1482.73
738.80	1478.63
738.98	1466.35
739.16	1517.54
739.34	1476.59
739.52	1609.70
739.70	1572.84
739.88	1583.08
740.06	1583.08
740.24	1513.45
740.42	1513.45
740.60	1507.30
740.78	1511.40
740.96	1490.92
741.14	1552.36
741.32	1480.68
741.50	1445.87
741.68	1624.04
741.86	1538.02
742.04	1542.12
742.22	1572.84
742.40	1507.30
742.58	1525.74
742.76	1554.41
742.94	1595.37
743.12	1490.92
743.30	1509.35
743.48	1501.16
743.66	1572.84
743.84	1593.32
744.02	1566.70
744.20	1505.26
744.38	1480.68
744.56	1492.97
744.74	1554.41
744.92	1562.60
745.10	1636.33
745.28	1515.50
745.46	1712.10
745.64	1521.64
745.82	1570.79
746.00	1607.66
746.18	1554.41
746.36	1552.36
746.54	1445.87
746.72	1568.74
746.90	1476.59
747.08	1501.16
747.26	1517.54
747.44	1574.89
747.62	1558.50
747.80	1519.59
747.98	1603.56
748.15	1562.60
748.33	1654.76
748.51	1595.37
748.69	1624.04
748.87	1417.19
749.05	1595.37
749.23	1452.01
749.41	1542.12
749.59	1529.83
749.77	1558.50
749.95	1474.54
750.13	1501.16
750.31	1576.94
750.49	1505.26
750.67	1603.56
750.85	1560.55
751.03	1540.07
751.20	1589.22
751.38	1542.12
751.56	1425.39
751.74	1533.93
751.92	1533.93
752.10	1495.02
752.28	1503.21
752.46	1558.50
752.64	1507.30
752.82	1564.65
753.00	1476.59
753.18	1533.93
753.35	1574.89
753.53	1570.79
753.71	1576.94
753.89	1593.32
754.07	1611.75
754.25	1531.88
754.43	1558.50
754.61	1513.45
754.79	1572.84
754.97	1507.30
755.14	1572.84
755.32	1517.54
755.50	1585.13
755.68	1535.98
755.86	1529.83
756.04	1525.74
756.22	1478.63
756.40	1587.18
756.57	1681.38
756.75	1621.99
756.93	1470.44
757.11	1589.22
757.29	1484.78
757.47	1521.64
757.65	1443.82
757.82	1480.68
758.00	1564.65
758.18	1576.94
758.36	1488.87
758.54	1644.52
758.72	1497.07
758.90	1576.94
759.07	1542.12
759.25	1519.59
759.43	1548.26
759.61	1529.83
759.79	1886.18
759.97	1619.94
760.15	1480.68
760.32	1548.26
760.50	1529.83
760.68	1609.70
760.86	1527.78
761.04	1570.79
761.22	1570.79
761.39	1587.18
761.57	1566.70
761.75	1507.30
761.93	1527.78
762.11	1511.40
762.28	1470.44
762.46	1550.31
762.64	1525.74
762.82	1468.39
763.00	1558.50
763.18	1646.57
763.35	1456.11
763.53	1609.70
763.71	1497.07
763.89	1550.31
764.07	1531.88
764.24	1607.66
764.42	1601.51
764.60	1519.59
764.78	1476.59
764.96	1568.74
765.13	1601.51
765.31	1533.93
765.49	1568.74
765.67	1585.13
765.84	1511.40
766.02	1492.97
766.20	1476.59
766.38	1554.41
766.56	1593.32
766.73	1632.23
766.91	1523.69
767.09	1521.64
767.27	1595.37
767.44	1492.97
767.62	1601.51
767.80	1550.31
767.98	1558.50
768.15	1591.27
768.33	1515.50
768.51	1556.46
768.69	1554.41
768.87	1583.08
769.04	1560.55
769.22	1609.70
769.40	1662.95
769.58	1621.99
769.75	1667.05
769.93	1587.18
770.11	1546.22
770.28	1574.89
770.46	1603.56
770.64	1519.59
770.82	1540.07
770.99	1513.45
771.17	1548.26
771.35	1501.16
771.53	1468.39
771.70	1544.17
771.88	1581.03
772.06	1523.69
772.23	1484.78
772.41	1576.94
772.59	1478.63
772.77	1390.57
772.94	1523.69
773.12	1454.06
773.30	1570.79
773.47	1535.98
773.65	1497.07
773.83	1626.09
774.01	1581.03
774.18	1527.78
774.36	1517.54
774.54	1558.50
774.71	1570.79
774.89	1503.21
775.07	1445.87
775.24	1546.22
775.42	1497.07
775.60	1609.70
775.78	1533.93
775.95	1495.02
776.13	1525.74
776.31	1454.06
776.48	1521.64
776.66	1624.04
776.84	1497.07
777.01	1558.50
777.19	1472.49
777.37	1560.55
777.54	1550.31
777.72	1583.08
777.90	1501.16
778.07	1540.07
778.25	1621.99
778.43	1501.16
778.60	1460.20
778.78	1572.84
778.96	1554.41
779.13	1474.54
779.31	1546.22
779.49	1548.26
779.66	1548.26
779.84	1540.07
780.01	1495.02
780.19	1529.83
780.37	1540.07
780.54	1595.37
780.72	1540.07
780.90	1531.88
781.07	1452.01
781.25	1535.98
781.43	1564.65
781.60	1517.54
781.78	1624.04
781.95	1583.08
782.13	1521.64
782.31	1544.17
782.48	1462.25
782.66	1519.59
782.83	1578.98
783.01	1609.70
783.19	1583.08
783.36	1531.88
783.54	1484.78
783.72	1572.84
783.89	1525.74
784.07	1542.12
784.24	1566.70
784.42	1574.89
784.60	1591.27
784.77	1581.03
784.95	1480.68
785.12	1535.98
785.30	1632.23
785.47	1531.88
785.65	1611.75
785.83	1517.54
786.00	1550.31
786.18	1554.41
786.35	1458.15
786.53	1593.32
786.71	1619.94
786.88	1605.61
787.06	1566.70
787.23	1458.15
787.41	1486.83
787.58	1634.28
787.76	1529.83
787.94	1562.60
788.11	1488.87
788.29	1499.11
788.46	1523.69
788.64	1466.35
788.81	1519.59
788.99	1533.93
789.16	1554.41
789.34	1452.01
789.52	1517.54
789.69	1509.35
789.87	1464.30
790.04	1513.45
790.22	1542.12
790.39	1652.71
790.57	1458.15
790.74	1458.15
790.92	1546.22
791.09	1509.35
791.27	1538.02
791.44	1527.78
791.62	1548.26
791.79	1572.84
791.97	1558.50
792.15	1652.71
792.32	1509.35
792.50	1597.42
792.67	1546.22
792.85	1523.69
793.02	1603.56
793.20	1589.22
793.37	1443.82
793.55	1519.59
793.72	1492.97
793.90	1546.22
794.07	1540.07
794.25	1517.54
794.42	1507.30
794.60	1570.79
794.77	1548.26
794.95	1581.03
795.12	1564.65
795.30	1574.89
795.47	1472.49
795.65	1550.31
795.82	1533.93
796.00	1523.69
796.17	1517.54
796.34	1538.02
796.52	1570.79
796.69	1576.94
796.87	1533.93
797.04	1662.95
797.22	1624.04
797.39	1527.78
797.57	1548.26
797.74	1482.73
797.92	1529.83
798.09	1456.11
798.27	1597.42
798.44	1550.31
798.62	1546.22
798.79	1591.27
798.96	1517.54
799.14	1572.84
799.31	1665.00
799.49	1533.93
799.66	1517.54
799.84	1529.83
800.01	1519.59
800.19	1497.07
800.36	1419.24
800.53	1529.83
800.71	1574.89
800.88	1581.03
801.06	1497.07
801.23	1492.97
801.41	1558.50
801.58	1607.66
801.75	1486.83
801.93	1476.59
802.10	1562.60
802.28	1531.88
802.45	1521.64
802.63	1605.61
802.80	1630.18
802.97	1576.94
803.15	1558.50
803.32	1505.26
803.50	1511.40
803.67	1554.41
803.84	1472.49
804.02	1544.17
804.19	1417.19
804.37	1417.19
804.54	1423.34
804.71	1503.21
804.89	1427.43
805.06	1501.16
805.24	1470.44
805.41	1531.88
805.58	1515.50
805.76	1673.19
805.93	1628.14
806.10	1587.18
806.28	1517.54
806.45	1503.21
806.63	1505.26
806.80	1605.61
806.97	1517.54
807.15	1501.16
807.32	1517.54
807.49	1552.36
807.67	1490.92
807.84	1560.55
808.01	1523.69
808.19	1648.61
808.36	1646.57
808.54	1519.59
808.71	1501.16
808.88	1558.50
809.06	1560.55
809.23	1611.75
809.40	1433.58
809.58	1578.98
809.75	1576.94
809.92	1478.63
810.10	1621.99
810.27	1474.54
810.44	1626.09
810.62	1443.82
810.79	1499.11
810.96	1570.79
811.14	1486.83
811.31	1560.55
811.48	1628.14
811.66	1574.89
811.83	1621.99
812.00	1591.27
812.18	1490.92
812.35	1669.09
812.52	1488.87
812.69	1472.49
812.87	1507.30
813.04	1445.87
813.21	1521.64
813.39	1462.25
813.56	1490.92
813.73	1542.12
813.91	1525.74
814.08	1511.40
814.25	1665.00
814.42	1447.91
814.60	1554.41
814.77	1572.84
814.94	1484.78
815.12	1533.93
815.29	1636.33
815.46	1484.78
815.63	1521.64
815.81	1540.07
815.98	1517.54
816.15	1495.02
816.33	1519.59
816.50	1449.96
816.67	1566.70
816.84	1511.40
817.02	1497.07
817.19	1505.26
817.36	1556.46
817.53	1636.33
817.71	1533.93
817.88	1615.85
818.05	1597.42
818.22	1548.26
818.40	1581.03
818.57	1517.54
818.74	1509.35
818.91	1519.59
819.09	1613.80
819.26	1568.74
819.43	1501.16
819.60	1484.78
819.78	1556.46
819.95	1593.32
820.12	1519.59
820.29	1601.51
820.47	1630.18
820.64	1527.78
820.81	1507.30
820.98	1544.17
821.15	1470.44
821.33	1519.59
821.50	1417.19
821.67	1566.70
821.84	1468.39
822.02	1568.74
822.19	1615.85
822.36	1519.59
822.53	1482.73
822.70	1468.39
822.88	1527.78
823.05	1593.32
823.22	1509.35
823.39	1578.98
823.56	1550.31
823.74	1603.56
823.91	1488.87
824.08	1460.20
824.25	1456.11
824.42	1501.16
824.60	1478.63
824.77	1525.74
824.94	1509.35
825.11	1560.55
825.28	1406.95
825.45	1642.47
825.63	1540.07
825.80	1476.59
825.97	1525.74
826.14	1542.12
826.31	1509.35
826.48	1495.02
826.66	1411.05
826.83	1523.69
827.00	1529.83
827.17	1495.02
827.34	1540.07
827.51	1511.40
827.69	1544.17
827.86	1503.21
828.03	1511.40
828.20	1515.50
828.37	1550.31
828.54	1609.70
828.71	1474.54
828.89	1607.66
829.06	1521.64
829.23	1550.31
829.40	1513.45
829.57	1548.26
829.74	1621.99
829.91	1509.35
830.09	1470.44
830.26	1619.94
830.43	1542.12
830.60	1562.60
830.77	1540.07
830.94	1583.08
831.11	1572.84
831.28	1449.96
831.46	1607.66
831.63	1492.97
831.80	1562.60
831.97	1509.35
832.14	1486.83
832.31	1624.04
832.48	1521.64
832.65	1570.79
832.82	1499.11
832.99	1527.78
833.17	1495.02
833.34	1628.14
833.51	1544.17
833.68	1439.72
833.85	1591.27
834.02	1499.11
834.19	1570.79
834.36	1492.97
834.53	1548.26
834.70	1533.93
834.87	1544.17
835.04	1511.40
835.22	1415.15
835.39	1544.17
835.56	1468.39
835.73	1562.60
835.90	1591.27
836.07	1415.15
836.24	1552.36
836.41	1472.49
836.58	1495.02
836.75	1550.31
836.92	1556.46
837.09	1511.40
837.26	1527.78
837.43	1550.31
837.60	1597.42
837.77	1558.50
837.94	1550.31
838.12	1521.64
838.29	1564.65
838.46	1519.59
838.63	1470.44
838.80	1681.38
838.97	1634.28
839.14	1523.69
839.31	1511.40
839.48	1527.78
839.65	1527.78
839.82	1529.83
839.99	1564.65
840.16	1445.87
840.33	1456.11
840.50	1558.50
840.67	1556.46
840.84	1441.77
841.01	1492.97
841.18	1515.50
841.35	1517.54
841.52	1507.30
841.69	1626.09
841.86	1499.11
842.03	1517.54
842.20	1529.83
842.37	1576.94
842.54	1595.37
842.71	1515.50
842.88	1480.68
843.05	1533.93
843.22	1595.37
843.39	1519.59
843.56	1568.74
843.73	1527.78
843.90	1542.12
844.07	1501.16
844.24	1570.79
844.41	1570.79
844.58	1497.07
844.75	1519.59
844.92	1603.56
845.09	1542.12
845.26	1574.89
845.43	1583.08
845.60	1452.01
845.77	1650.66
845.94	1572.84
846.10	1576.94
846.27	1476.59
846.44	1497.07
846.61	1560.55
846.78	1548.26
846.95	1562.60
847.12	1509.35
847.29	1445.87
847.46	1527.78
847.63	1578.98
847.80	1552.36
847.97	1544.17
848.14	1619.94
848.31	1558.50
848.48	1492.97
848.65	1630.18
848.82	1470.44
848.98	1574.89
849.15	1558.50
849.32	1593.32
849.49	1550.31
849.66	1466.35
849.83	1560.55
850.00	1507.30
850.17	1552.36
850.34	1495.02
850.51	1476.59
850.68	1521.64
850.85	1591.27
851.01	1644.52
851.18	1591.27
851.35	1452.01
851.52	1525.74
851.69	1574.89
851.86	1499.11
852.03	1492.97
852.20	1503.21
852.37	1495.02
852.53	1495.02
852.70	1447.91
852.87	1574.89
853.04	1538.02
853.21	1492.97
853.38	1535.98
853.55	1564.65
853.72	1570.79
853.89	1544.17
854.05	1472.49
854.22	1429.48
854.39	1470.44
854.56	1523.69
854.73	1593.32
854.90	1478.63
855.07	1554.41
855.23	1429.48
855.40	1466.35
855.57	1585.13
855.74	1402.86
855.91	1740.77
856.08	1503.21
856.25	1445.87
856.41	1527.78
856.58	1552.36
856.75	1587.18
856.92	1447.91
857.09	1566.70
857.26	1486.83
857.42	1533.93
857.59	1519.59
857.76	1624.04
857.93	1552.36
858.10	1552.36
858.27	1544.17
858.43	1523.69
858.60	1519.59
858.77	1427.43
858.94	1533.93
859.11	1607.66
859.27	1558.50
859.44	1542.12
859.61	1628.14
859.78	1558.50
859.95	1523.69
860.12	1550.31
860.28	1529.83
860.45	1607.66
860.62	1544.17
860.79	1521.64
860.95	1540.07
861.12	1533.93
861.29	1527.78
861.46	1515.50
861.63	1542.12
861.79	1468.39
861.96	1558.50
862.13	1462.25
862.30	1558.50
862.47	1566.70
862.63	1501.16
862.80	1574.89
862.97	1505.26
863.14	1478.63
863.30	1654.76
863.47	1501.16
863.64	1560.55
863.81	1523.69
863.97	1535.98
864.14	1535.98
864.31	1540.07
864.48	1507.30
864.65	1517.54
864.81	1589.22
864.98	1523.69
865.15	1546.22
865.32	1531.88
865.48	1617.90
865.65	1554.41
865.82	1554.41
865.98	1529.83
866.15	1634.28
866.32	1538.02
866.49	1546.22
866.65	1531.88
866.82	1449.96
866.99	1480.68
867.16	1476.59
867.32	1439.72
867.49	1624.04
867.66	1501.16
867.83	1492.97
867.99	1421.29
868.16	1560.55
868.33	1511.40
868.49	1495.02
868.66	1574.89
868.83	1581.03
868.99	1544.17
869.16	1505.26
869.33	1665.00
869.50	1611.75
869.66	1509.35
869.83	1587.18
870.00	1478.63
870.16	1540.07
870.33	1527.78
870.50	1574.89
870.66	1507.30
870.83	1595.37
871.00	1603.56
871.17	1558.50
871.33	1544.17
871.50	1488.87
871.67	1490.92
871.83	1499.11
872.00	1591.27
872.17	1544.17
872.33	1556.46
872.50	1513.45
872.67	1452.01
872.83	1540.07
873.00	1591.27
873.17	1452.01
873.33	1636.33
873.50	1611.75
873.67	1521.64
873.83	1550.31
874.00	1570.79
874.16	1591.27
874.33	1523.69
874.50	1550.31
874.66	1495.02
874.83	1558.50
875.00	1578.98
875.16	1531.88
875.33	1611.75
875.50	1460.20
875.66	1538.02
875.83	1540.07
875.99	1581.03
876.16	1529.83
876.33	1476.59
876.49	1482.73
876.66	1535.98
876.83	1521.64
876.99	1470.44
877.16	1468.39
877.32	1470.44
877.49	1495.02
877.66	1529.83
877.82	1605.61
877.99	1591.27
878.15	1589.22
878.32	1638.38
878.49	1568.74
878.65	1568.74
878.82	1599.46
878.98	1515.50
879.15	1628.14
879.32	1613.80
879.48	1585.13
879.65	1523.69
879.81	1486.83
879.98	1531.88
880.15	1521.64
880.31	1517.54
880.48	1472.49
880.64	1607.66
880.81	1495.02
880.97	1611.75
881.14	1615.85
881.31	1517.54
881.47	1634.28
881.64	1501.16
881.80	1529.83
881.97	1605.61
882.13	1597.42
882.30	1472.49
882.47	1562.60
882.63	1542.12
882.80	1501.16
882.96	1449.96
883.13	1646.57
883.29	1495.02
883.46	1503.21
883.62	1593.32
883.79	1513.45
883.95	1540.07
884.12	1509.35
884.29	1505.26
884.45	1513.45
884.62	1597.42
884.78	1515.50
884.95	1683.43
885.11	1546.22
885.28	1568.74
885.44	1556.46
885.61	1529.83
885.77	1505.26
885.94	1533.93
886.10	1527.78
886.27	1507.30
886.43	1578.98
886.60	1531.88
886.76	1499.11
886.93	1538.02
887.09	1564.65
887.26	1476.59
887.42	1515.50
887.59	1617.90
887.75	1583.08
887.92	1570.79
888.08	1640.42
888.25	1648.61
888.41	1585.13
888.58	1607.66
888.74	1460.20
888.91	1490.92
>>>>>End Processed Spectral Data<<<<<
