SpectraSuite Data File
++++++++++++++++++++++++++++++++++++
Date: Tue May 03 12:55:44 CEST 2016
User: root
Dark Spectrum Present: No
Reference Spectrum Present: No
Number of Sampled Component Spectra: 1
Spectrometers: USB4C02835
Integration Time (usec): 100000 (USB4C02835)
Spectra Averaged: 1 (USB4C02835)
Boxcar Smoothing: 0 (USB4C02835)
Correct for Electrical Dark: No (USB4C02835)
Strobe/Lamp Enabled: No (USB4C02835)
Correct for Detector Non-linearity: No (USB4C02835)
Correct for Stray Light: No (USB4C02835)
Number of Pixels in Processed Spectrum: 3648
>>>>>Begin Processed Spectral Data<<<<<
177.47	1265.64
177.69	1265.64
177.91	1265.64
178.13	1345.52
178.36	1325.04
178.58	1519.59
178.80	1507.30
179.02	1484.78
179.24	1474.54
179.46	1480.68
179.68	1562.60
179.90	1505.26
180.13	1562.60
180.35	1535.98
180.57	1544.17
180.79	1519.59
181.01	1505.26
181.23	1624.04
181.45	1523.69
181.67	1556.46
181.90	1568.74
182.12	1533.93
182.34	1433.58
182.56	1581.03
182.78	1581.03
183.00	1472.49
183.22	1517.54
183.44	1472.49
183.66	1574.89
183.89	1599.46
184.11	1550.31
184.33	1591.27
184.55	1581.03
184.77	1564.65
184.99	1544.17
185.21	1513.45
185.43	1640.42
185.65	1497.07
185.87	1495.02
186.10	1570.79
186.32	1652.71
186.54	1488.87
186.76	1538.02
186.98	1615.85
187.20	1533.93
187.42	1486.83
187.64	1615.85
187.86	1597.42
188.08	1605.61
188.30	1523.69
188.52	1533.93
188.75	1538.02
188.97	1511.40
189.19	1533.93
189.41	1611.75
189.63	1609.70
189.85	1521.64
190.07	1443.82
190.29	1503.21
190.51	1533.93
190.73	1427.43
190.95	1578.98
191.17	1558.50
191.39	1505.26
191.61	1495.02
191.84	1431.53
192.06	1597.42
192.28	1464.30
192.50	1689.57
192.72	1525.74
192.94	1519.59
193.16	1531.88
193.38	1587.18
193.60	1488.87
193.82	1497.07
194.04	1599.46
194.26	1544.17
194.48	1503.21
194.70	1509.35
194.92	1550.31
195.14	1581.03
195.36	1515.50
195.58	1535.98
195.80	1513.45
196.02	1511.40
196.24	1466.35
196.46	1581.03
196.69	1570.79
196.91	1687.53
197.13	1572.84
197.35	1525.74
197.57	1535.98
197.79	1454.06
198.01	1546.22
198.23	1566.70
198.45	1665.00
198.67	1533.93
198.89	1583.08
199.11	1576.94
199.33	1462.25
199.55	1466.35
199.77	1478.63
199.99	1566.70
200.21	1593.32
200.43	1535.98
200.65	1441.77
200.87	1497.07
201.09	1503.21
201.31	1468.39
201.53	1597.42
201.75	1458.15
201.97	1570.79
202.19	1576.94
202.41	1613.80
202.63	1574.89
202.85	1554.41
203.07	1552.36
203.29	1490.92
203.51	1497.07
203.73	1456.11
203.95	1734.63
204.17	1525.74
204.39	1603.56
204.61	1413.10
204.83	1480.68
205.05	1607.66
205.27	1533.93
205.49	1601.51
205.71	1546.22
205.93	1482.73
206.15	1474.54
206.37	1521.64
206.59	1531.88
206.81	1542.12
207.03	1509.35
207.25	1482.73
207.47	1570.79
207.69	1495.02
207.91	1533.93
208.13	1441.77
208.34	1449.96
208.56	1515.50
208.78	1599.46
209.00	1470.44
209.22	1531.88
209.44	1515.50
209.66	1531.88
209.88	1529.83
210.10	1460.20
210.32	1439.72
210.54	1593.32
210.76	1566.70
210.98	1607.66
211.20	1447.91
211.42	1548.26
211.64	1548.26
211.86	1540.07
212.08	1650.66
212.30	1624.04
212.52	1583.08
212.74	1550.31
212.96	1566.70
213.17	1597.42
213.39	1464.30
213.61	1525.74
213.83	1568.74
214.05	1490.92
214.27	1599.46
214.49	1488.87
214.71	1509.35
214.93	1517.54
215.15	1585.13
215.37	1568.74
215.59	1431.53
215.81	1503.21
216.03	1652.71
216.24	1615.85
216.46	1497.07
216.68	1529.83
216.90	1531.88
217.12	1583.08
217.34	1523.69
217.56	1486.83
217.78	1613.80
218.00	1542.12
218.22	1515.50
218.44	1595.37
218.66	1490.92
218.87	1621.99
219.09	1435.63
219.31	1533.93
219.53	1626.09
219.75	1562.60
219.97	1488.87
220.19	1587.18
220.41	1476.59
220.63	1572.84
220.85	1480.68
221.06	1468.39
221.28	1595.37
221.50	1533.93
221.72	1603.56
221.94	1558.50
222.16	1593.32
222.38	1603.56
222.60	1634.28
222.82	1519.59
223.03	1583.08
223.25	1556.46
223.47	1538.02
223.69	1642.47
223.91	1521.64
224.13	1632.23
224.35	1546.22
224.57	1568.74
224.78	1585.13
225.00	1406.95
225.22	1544.17
225.44	1505.26
225.66	1544.17
225.88	1527.78
226.10	1478.63
226.32	1626.09
226.53	1613.80
226.75	1515.50
226.97	1507.30
227.19	1523.69
227.41	1476.59
227.63	1507.30
227.85	1480.68
228.06	1624.04
228.28	1517.54
228.50	1636.33
228.72	1484.78
228.94	1437.67
229.16	1456.11
229.37	1488.87
229.59	1466.35
229.81	1601.51
230.03	1503.21
230.25	1505.26
230.47	1501.16
230.69	1464.30
230.90	1527.78
231.12	1497.07
231.34	1542.12
231.56	1576.94
231.78	1505.26
232.00	1521.64
232.21	1495.02
232.43	1472.49
232.65	1386.47
232.87	1550.31
233.09	1521.64
233.30	1546.22
233.52	1544.17
233.74	1542.12
233.96	1568.74
234.18	1542.12
234.40	1505.26
234.61	1632.23
234.83	1425.39
235.05	1511.40
235.27	1652.71
235.49	1611.75
235.70	1495.02
235.92	1619.94
236.14	1501.16
236.36	1589.22
236.58	1519.59
236.79	1566.70
237.01	1519.59
237.23	1515.50
237.45	1535.98
237.67	1538.02
237.88	1515.50
238.10	1648.61
238.32	1503.21
238.54	1499.11
238.76	1542.12
238.97	1550.31
239.19	1513.45
239.41	1566.70
239.63	1576.94
239.85	1462.25
240.06	1521.64
240.28	1566.70
240.50	1693.67
240.72	1562.60
240.93	1515.50
241.15	1609.70
241.37	1593.32
241.59	1597.42
241.81	1585.13
242.02	1458.15
242.24	1558.50
242.46	1665.00
242.68	1472.49
242.89	1527.78
243.11	1587.18
243.33	1523.69
243.55	1533.93
243.76	1566.70
243.98	1449.96
244.20	1511.40
244.42	1507.30
244.64	1566.70
244.85	1454.06
245.07	1576.94
245.29	1576.94
245.51	1495.02
245.72	1558.50
245.94	1603.56
246.16	1497.07
246.38	1621.99
246.59	1507.30
246.81	1517.54
247.03	1497.07
247.24	1409.00
247.46	1593.32
247.68	1490.92
247.90	1521.64
248.11	1556.46
248.33	1556.46
248.55	1507.30
248.77	1519.59
248.98	1632.23
249.20	1636.33
249.42	1564.65
249.64	1540.07
249.85	1576.94
250.07	1480.68
250.29	1527.78
250.50	1595.37
250.72	1495.02
250.94	1523.69
251.16	1679.33
251.37	1619.94
251.59	1556.46
251.81	1535.98
252.02	1589.22
252.24	1568.74
252.46	1636.33
252.68	1454.06
252.89	1460.20
253.11	1525.74
253.33	1601.51
253.54	1562.60
253.76	1437.67
253.98	1499.11
254.20	1529.83
254.41	1476.59
254.63	1480.68
254.85	1507.30
255.06	1523.69
255.28	1550.31
255.50	1480.68
255.71	1480.68
255.93	1443.82
256.15	1529.83
256.36	1576.94
256.58	1568.74
256.80	1583.08
257.02	1552.36
257.23	1542.12
257.45	1517.54
257.67	1583.08
257.88	1511.40
258.10	1525.74
258.32	1552.36
258.53	1593.32
258.75	1583.08
258.97	1554.41
259.18	1587.18
259.40	1644.52
259.62	1552.36
259.83	1597.42
260.05	1644.52
260.27	1789.92
260.48	1546.22
260.70	1492.97
260.92	1495.02
261.13	1499.11
261.35	1593.32
261.57	1568.74
261.78	1435.63
262.00	1505.26
262.22	1558.50
262.43	1558.50
262.65	1476.59
262.86	1499.11
263.08	1533.93
263.30	1445.87
263.51	1458.15
263.73	1478.63
263.95	1583.08
264.16	1513.45
264.38	1484.78
264.60	1484.78
264.81	1472.49
265.03	1529.83
265.25	1593.32
265.46	1587.18
265.68	1628.14
265.89	1509.35
266.11	1517.54
266.33	1601.51
266.54	1595.37
266.76	1513.45
266.98	1552.36
267.19	1564.65
267.41	1495.02
267.62	1544.17
267.84	1503.21
268.06	1552.36
268.27	1599.46
268.49	1568.74
268.70	1607.66
268.92	1525.74
269.14	1523.69
269.35	1513.45
269.57	1519.59
269.79	1542.12
270.00	1435.63
270.22	1593.32
270.43	1548.26
270.65	1390.57
270.87	1533.93
271.08	1587.18
271.30	1533.93
271.51	1542.12
271.73	1540.07
271.95	1640.42
272.16	1621.99
272.38	1564.65
272.59	1572.84
272.81	1525.74
273.02	1511.40
273.24	1517.54
273.46	1626.09
273.67	1568.74
273.89	1435.63
274.10	1521.64
274.32	1570.79
274.54	1505.26
274.75	1593.32
274.97	1535.98
275.18	1556.46
275.40	1554.41
275.61	1552.36
275.83	1540.07
276.05	1503.21
276.26	1492.97
276.48	1607.66
276.69	1546.22
276.91	1447.91
277.12	1601.51
277.34	1589.22
277.55	1576.94
277.77	1515.50
277.99	1501.16
278.20	1558.50
278.42	1462.25
278.63	1499.11
278.85	1556.46
279.06	1517.54
279.28	1609.70
279.49	1550.31
279.71	1630.18
279.93	1564.65
280.14	1542.12
280.36	1406.95
280.57	1593.32
280.79	1560.55
281.00	1576.94
281.22	1540.07
281.43	1585.13
281.65	1482.73
281.86	1501.16
282.08	1542.12
282.29	1597.42
282.51	1509.35
282.73	1454.06
282.94	1456.11
283.16	1499.11
283.37	1587.18
283.59	1529.83
283.80	1632.23
284.02	1556.46
284.23	1513.45
284.45	1474.54
284.66	1456.11
284.88	1454.06
285.09	1658.85
285.31	1626.09
285.52	1560.55
285.74	1404.91
285.95	1544.17
286.17	1546.22
286.38	1564.65
286.60	1511.40
286.81	1503.21
287.03	1456.11
287.24	1562.60
287.46	1583.08
287.67	1523.69
287.89	1597.42
288.10	1507.30
288.32	1492.97
288.53	1605.61
288.75	1474.54
288.96	1570.79
289.18	1570.79
289.39	1556.46
289.61	1611.75
289.82	1701.86
290.04	1652.71
290.25	1478.63
290.47	1556.46
290.68	1566.70
290.90	1589.22
291.11	1431.53
291.33	1642.47
291.54	1456.11
291.76	1495.02
291.97	1566.70
292.18	1535.98
292.40	1576.94
292.61	1583.08
292.83	1570.79
293.04	1558.50
293.26	1497.07
293.47	1550.31
293.69	1535.98
293.90	1554.41
294.12	1591.27
294.33	1519.59
294.55	1535.98
294.76	1644.52
294.97	1564.65
295.19	1611.75
295.40	1447.91
295.62	1538.02
295.83	1542.12
296.05	1476.59
296.26	1542.12
296.48	1497.07
296.69	1529.83
296.90	1490.92
297.12	1556.46
297.33	1560.55
297.55	1558.50
297.76	1519.59
297.98	1619.94
298.19	1525.74
298.41	1550.31
298.62	1519.59
298.83	1644.52
299.05	1462.25
299.26	1605.61
299.48	1499.11
299.69	1535.98
299.90	1499.11
300.12	1486.83
300.33	1607.66
300.55	1562.60
300.76	1570.79
300.98	1499.11
301.19	1587.18
301.40	1476.59
301.62	1472.49
301.83	1560.55
302.05	1507.30
302.26	1497.07
302.47	1540.07
302.69	1480.68
302.90	1445.87
303.12	1443.82
303.33	1601.51
303.54	1593.32
303.76	1509.35
303.97	1517.54
304.19	1617.90
304.40	1525.74
304.61	1599.46
304.83	1593.32
305.04	1558.50
305.26	1593.32
305.47	1423.34
305.68	1503.21
305.90	1509.35
306.11	1632.23
306.33	1560.55
306.54	1544.17
306.75	1533.93
306.97	1456.11
307.18	1515.50
307.39	1570.79
307.61	1566.70
307.82	1572.84
308.04	1574.89
308.25	1460.20
308.46	1525.74
308.68	1513.45
308.89	1484.78
309.10	1601.51
309.32	1576.94
309.53	1482.73
309.74	1673.19
309.96	1495.02
310.17	1513.45
310.39	1548.26
310.60	1472.49
310.81	1507.30
311.03	1499.11
311.24	1570.79
311.45	1519.59
311.67	1564.65
311.88	1560.55
312.09	1538.02
312.31	1538.02
312.52	1619.94
312.73	1507.30
312.95	1429.48
313.16	1495.02
313.37	1632.23
313.59	1509.35
313.80	1509.35
314.01	1572.84
314.23	1454.06
314.44	1439.72
314.65	1519.59
314.87	1480.68
315.08	1568.74
315.29	1435.63
315.51	1499.11
315.72	1462.25
315.93	1511.40
316.15	1630.18
316.36	1437.67
316.57	1556.46
316.79	1554.41
317.00	1503.21
317.21	1499.11
317.43	1531.88
317.64	1550.31
317.85	1492.97
318.07	1613.80
318.28	1656.81
318.49	1728.49
318.70	1837.03
318.92	1765.35
319.13	1753.06
319.34	1677.29
319.56	1658.85
319.77	1734.63
319.98	1583.08
320.20	1646.57
320.41	1581.03
320.62	1568.74
320.83	1490.92
321.05	1648.61
321.26	1505.26
321.47	1546.22
321.69	1593.32
321.90	1458.15
322.11	1492.97
322.32	1513.45
322.54	1542.12
322.75	1507.30
322.96	1535.98
323.18	1437.67
323.39	1452.01
323.60	1507.30
323.81	1601.51
324.03	1511.40
324.24	1535.98
324.45	1505.26
324.66	1515.50
324.88	1503.21
325.09	1597.42
325.30	1517.54
325.52	1583.08
325.73	1591.27
325.94	1470.44
326.15	1449.96
326.37	1517.54
326.58	1576.94
326.79	1576.94
327.00	1435.63
327.22	1521.64
327.43	1480.68
327.64	1558.50
327.85	1501.16
328.07	1449.96
328.28	1587.18
328.49	1468.39
328.70	1482.73
328.92	1568.74
329.13	1482.73
329.34	1550.31
329.55	1654.76
329.76	1597.42
329.98	1554.41
330.19	1540.07
330.40	1546.22
330.61	1497.07
330.83	1505.26
331.04	1513.45
331.25	1529.83
331.46	1486.83
331.68	1544.17
331.89	1644.52
332.10	1533.93
332.31	1515.50
332.52	1562.60
332.74	1568.74
332.95	1421.29
333.16	1617.90
333.37	1589.22
333.58	1513.45
333.80	1472.49
334.01	1468.39
334.22	1558.50
334.43	1570.79
334.64	1546.22
334.86	1503.21
335.07	1527.78
335.28	1607.66
335.49	1484.78
335.70	1619.94
335.92	1640.42
336.13	1658.85
336.34	1603.56
336.55	1519.59
336.76	1587.18
336.98	1470.44
337.19	1505.26
337.40	1601.51
337.61	1667.05
337.82	1552.36
338.04	1587.18
338.25	1492.97
338.46	1482.73
338.67	1433.58
338.88	1550.31
339.09	1558.50
339.31	1554.41
339.52	1497.07
339.73	1476.59
339.94	1484.78
340.15	1533.93
340.36	1531.88
340.58	1488.87
340.79	1415.15
341.00	1574.89
341.21	1454.06
341.42	1617.90
341.63	1507.30
341.85	1562.60
342.06	1519.59
342.27	1548.26
342.48	1619.94
342.69	1415.15
342.90	1548.26
343.12	1542.12
343.33	1554.41
343.54	1527.78
343.75	1558.50
343.96	1554.41
344.17	1531.88
344.38	1583.08
344.60	1492.97
344.81	1478.63
345.02	1603.56
345.23	1591.27
345.44	1525.74
345.65	1601.51
345.86	1529.83
346.07	1540.07
346.29	1462.25
346.50	1607.66
346.71	1632.23
346.92	1630.18
347.13	1648.61
347.34	1599.46
347.55	1488.87
347.76	1513.45
347.98	1435.63
348.19	1599.46
348.40	1667.05
348.61	1542.12
348.82	1634.28
349.03	1552.36
349.24	1505.26
349.45	1611.75
349.66	1447.91
349.88	1562.60
350.09	1519.59
350.30	1558.50
350.51	1581.03
350.72	1564.65
350.93	1517.54
351.14	1460.20
351.35	1583.08
351.56	1472.49
351.77	1478.63
351.99	1562.60
352.20	1574.89
352.41	1480.68
352.62	1552.36
352.83	1538.02
353.04	1517.54
353.25	1527.78
353.46	1648.61
353.67	1583.08
353.88	1402.86
354.09	1601.51
354.30	1535.98
354.52	1531.88
354.73	1443.82
354.94	1499.11
355.15	1595.37
355.36	1656.81
355.57	1578.98
355.78	1501.16
355.99	1478.63
356.20	1513.45
356.41	1613.80
356.62	1556.46
356.83	1517.54
357.04	1613.80
357.25	1499.11
357.46	1439.72
357.68	1535.98
357.89	1497.07
358.10	1566.70
358.31	1519.59
358.52	1603.56
358.73	1472.49
358.94	1454.06
359.15	1507.30
359.36	1538.02
359.57	1527.78
359.78	1587.18
359.99	1589.22
360.20	1470.44
360.41	1505.26
360.62	1495.02
360.83	1560.55
361.04	1609.70
361.25	1572.84
361.46	1562.60
361.67	1595.37
361.88	1566.70
362.09	1480.68
362.30	1548.26
362.51	1466.35
362.72	1603.56
362.93	1546.22
363.14	1630.18
363.35	1603.56
363.56	1519.59
363.78	1560.55
363.99	1535.98
364.20	1540.07
364.41	1501.16
364.62	1656.81
364.83	1558.50
365.04	1601.51
365.25	1435.63
365.46	1628.14
365.67	1511.40
365.88	1550.31
366.09	1593.32
366.30	1550.31
366.51	1523.69
366.72	1439.72
366.93	1554.41
367.14	1564.65
367.35	1511.40
367.56	1515.50
367.77	1601.51
367.98	1535.98
368.18	1601.51
368.39	1642.47
368.60	1495.02
368.81	1552.36
369.02	1507.30
369.23	1542.12
369.44	1474.54
369.65	1535.98
369.86	1550.31
370.07	1562.60
370.28	1531.88
370.49	1587.18
370.70	1519.59
370.91	1454.06
371.12	1527.78
371.33	1540.07
371.54	1527.78
371.75	1587.18
371.96	1361.90
372.17	1578.98
372.38	1529.83
372.59	1515.50
372.80	1511.40
373.01	1431.53
373.22	1566.70
373.43	1542.12
373.64	1484.78
373.85	1581.03
374.06	1570.79
374.26	1599.46
374.47	1556.46
374.68	1535.98
374.89	1525.74
375.10	1519.59
375.31	1615.85
375.52	1581.03
375.73	1521.64
375.94	1593.32
376.15	1578.98
376.36	1495.02
376.57	1550.31
376.78	1429.48
376.99	1542.12
377.20	1599.46
377.40	1564.65
377.61	1603.56
377.82	1495.02
378.03	1662.95
378.24	1564.65
378.45	1509.35
378.66	1570.79
378.87	1452.01
379.08	1470.44
379.29	1544.17
379.50	1544.17
379.71	1505.26
379.91	1585.13
380.12	1552.36
380.33	1501.16
380.54	1517.54
380.75	1492.97
380.96	1521.64
381.17	1626.09
381.38	1648.61
381.59	1484.78
381.80	1591.27
382.00	1697.77
382.21	1587.18
382.42	1613.80
382.63	1638.38
382.84	1589.22
383.05	1605.61
383.26	1671.14
383.47	1542.12
383.68	1601.51
383.88	1603.56
384.09	1585.13
384.30	1658.85
384.51	1609.70
384.72	1492.97
384.93	1460.20
385.14	1574.89
385.35	1611.75
385.55	1542.12
385.76	1593.32
385.97	1497.07
386.18	1501.16
386.39	1599.46
386.60	1495.02
386.81	1550.31
387.02	1484.78
387.22	1542.12
387.43	1568.74
387.64	1650.66
387.85	1853.41
388.06	3114.96
388.27	7223.19
388.48	10563.42
388.68	12470.08
388.89	13791.02
389.10	13018.94
389.31	10043.24
389.52	8859.51
389.73	7896.97
389.93	7210.90
390.14	6801.30
390.35	6287.26
390.56	5654.44
390.77	4695.99
390.98	3592.14
391.18	2805.72
391.39	2172.89
391.60	1810.40
391.81	1691.62
392.02	1558.50
392.23	1714.15
392.43	1574.89
392.64	1597.42
392.85	1515.50
393.06	1615.85
393.27	1636.33
393.47	1482.73
393.68	1624.04
393.89	1466.35
394.10	1523.69
394.31	1488.87
394.52	1495.02
394.72	1542.12
394.93	1624.04
395.14	1505.26
395.35	1585.13
395.56	1566.70
395.76	1681.38
395.97	1601.51
396.18	1732.58
396.39	1767.40
396.60	1886.18
396.80	1613.80
397.01	1740.77
397.22	1591.27
397.43	1701.86
397.64	1538.02
397.84	1660.90
398.05	1658.85
398.26	1611.75
398.47	1673.19
398.67	1630.18
398.88	1550.31
399.09	1531.88
399.30	1552.36
399.51	1542.12
399.71	1458.15
399.92	1605.61
400.13	1640.42
400.34	1529.83
400.54	1558.50
400.75	1632.23
400.96	1578.98
401.17	1599.46
401.37	1599.46
401.58	1615.85
401.79	1513.45
402.00	1755.11
402.21	1871.84
402.41	1986.53
402.62	1894.37
402.83	1980.39
403.04	1828.84
403.24	1914.85
403.45	1691.62
403.66	1748.97
403.87	1671.14
404.07	1671.14
404.28	1757.16
404.49	1732.58
404.70	1640.42
404.90	1621.99
405.11	1621.99
405.32	1591.27
405.52	1554.41
405.73	1533.93
405.94	1535.98
406.15	1505.26
406.35	1564.65
406.56	1490.92
406.77	1538.02
406.98	1562.60
407.18	1535.98
407.39	1640.42
407.60	1503.21
407.80	1499.11
408.01	1488.87
408.22	1538.02
408.43	1460.20
408.63	1568.74
408.84	1542.12
409.05	1564.65
409.25	1495.02
409.46	1538.02
409.67	1464.30
409.88	1523.69
410.08	1535.98
410.29	1505.26
410.50	1519.59
410.70	1523.69
410.91	1484.78
411.12	1492.97
411.32	1632.23
411.53	1601.51
411.74	1603.56
411.95	1593.32
412.15	1636.33
412.36	1626.09
412.57	1578.98
412.77	1566.70
412.98	1509.35
413.19	1497.07
413.39	1632.23
413.60	1605.61
413.81	1613.80
414.01	1554.41
414.22	1605.61
414.43	1607.66
414.63	1583.08
414.84	1576.94
415.05	1566.70
415.25	1505.26
415.46	1636.33
415.67	1468.39
415.87	1642.47
416.08	1566.70
416.29	1482.73
416.49	1566.70
416.70	1470.44
416.91	1548.26
417.11	1542.12
417.32	1615.85
417.53	1521.64
417.73	1513.45
417.94	1501.16
418.15	1562.60
418.35	1564.65
418.56	1535.98
418.77	1576.94
418.97	1535.98
419.18	1581.03
419.38	1404.91
419.59	1509.35
419.80	1533.93
420.00	1538.02
420.21	1603.56
420.42	1638.38
420.62	1538.02
420.83	1538.02
421.04	1535.98
421.24	1576.94
421.45	1583.08
421.65	1593.32
421.86	1552.36
422.07	1544.17
422.27	1585.13
422.48	1511.40
422.69	1515.50
422.89	1548.26
423.10	1472.49
423.30	1529.83
423.51	1460.20
423.72	1597.42
423.92	1566.70
424.13	1538.02
424.33	1490.92
424.54	1570.79
424.75	1488.87
424.95	1658.85
425.16	1628.14
425.36	1437.67
425.57	1632.23
425.78	1591.27
425.98	1632.23
426.19	1607.66
426.39	1535.98
426.60	1603.56
426.81	1615.85
427.01	1540.07
427.22	1535.98
427.42	1472.49
427.63	1449.96
427.83	1533.93
428.04	1601.51
428.25	1538.02
428.45	1572.84
428.66	1566.70
428.86	1566.70
429.07	1550.31
429.28	1531.88
429.48	1505.26
429.69	1462.25
429.89	1519.59
430.10	1452.01
430.30	1632.23
430.51	1550.31
430.71	1505.26
430.92	1578.98
431.13	1531.88
431.33	1517.54
431.54	1568.74
431.74	1634.28
431.95	1597.42
432.15	1501.16
432.36	1603.56
432.56	1562.60
432.77	1638.38
432.98	1632.23
433.18	1535.98
433.39	1554.41
433.59	1525.74
433.80	1570.79
434.00	1781.73
434.21	1472.49
434.41	1452.01
434.62	1675.24
434.82	1480.68
435.03	1501.16
435.23	1611.75
435.44	1456.11
435.64	1556.46
435.85	1578.98
436.06	1593.32
436.26	1621.99
436.47	1550.31
436.67	1474.54
436.88	1542.12
437.08	1595.37
437.29	1595.37
437.49	1550.31
437.70	1587.18
437.90	1558.50
438.11	1636.33
438.31	1665.00
438.52	1708.01
438.72	1746.92
438.93	1705.96
439.13	1638.38
439.34	1689.57
439.54	1646.57
439.75	1644.52
439.95	1585.13
440.16	1597.42
440.36	1615.85
440.57	1535.98
440.77	1609.70
440.98	1562.60
441.18	1542.12
441.39	1511.40
441.59	1525.74
441.80	1583.08
442.00	1499.11
442.21	1615.85
442.41	1535.98
442.62	1619.94
442.82	1484.78
443.02	1562.60
443.23	1558.50
443.43	1492.97
443.64	1548.26
443.84	1525.74
444.05	1546.22
444.25	1601.51
444.46	1523.69
444.66	1560.55
444.87	1574.89
445.07	1488.87
445.28	1525.74
445.48	1626.09
445.69	1628.14
445.89	1687.53
446.09	1574.89
446.30	1916.90
446.50	3235.79
446.71	4300.73
446.91	5154.74
447.12	5904.29
447.32	5537.71
447.53	4720.57
447.73	4007.87
447.93	3712.97
448.14	3264.46
448.34	3168.21
448.55	2899.92
448.75	2772.95
448.96	2760.66
449.16	2467.80
449.36	2256.86
449.57	1970.15
449.77	1796.07
449.98	1685.48
450.18	1591.27
450.39	1642.47
450.59	1634.28
450.79	1519.59
451.00	1531.88
451.20	1599.46
451.41	1636.33
451.61	1513.45
451.81	1513.45
452.02	1546.22
452.22	1558.50
452.43	1484.78
452.63	1472.49
452.84	1525.74
453.04	1492.97
453.24	1542.12
453.45	1535.98
453.65	1454.06
453.86	1525.74
454.06	1617.90
454.26	1538.02
454.47	1554.41
454.67	1581.03
454.87	1546.22
455.08	1521.64
455.28	1583.08
455.49	1529.83
455.69	1554.41
455.89	1660.90
456.10	1570.79
456.30	1515.50
456.51	1570.79
456.71	1544.17
456.91	1581.03
457.12	1550.31
457.32	1538.02
457.52	1509.35
457.73	1548.26
457.93	1583.08
458.14	1488.87
458.34	1468.39
458.54	1515.50
458.75	1617.90
458.95	1671.14
459.15	1540.07
459.36	1576.94
459.56	1542.12
459.76	1564.65
459.97	1531.88
460.17	1589.22
460.37	1574.89
460.58	1611.75
460.78	1535.98
460.99	1503.21
461.19	1472.49
461.39	1511.40
461.60	1540.07
461.80	1613.80
462.00	1527.78
462.21	1531.88
462.41	1511.40
462.61	1486.83
462.82	1542.12
463.02	1546.22
463.22	1533.93
463.43	1591.27
463.63	1560.55
463.83	1589.22
464.04	1628.14
464.24	1495.02
464.44	1544.17
464.64	1585.13
464.85	1581.03
465.05	1583.08
465.25	1558.50
465.46	1517.54
465.66	1617.90
465.86	1538.02
466.07	1511.40
466.27	1583.08
466.47	1480.68
466.68	1517.54
466.88	1646.57
467.08	1599.46
467.29	1527.78
467.49	1566.70
467.69	1605.61
467.89	1562.60
468.10	1470.44
468.30	1564.65
468.50	1675.24
468.71	1554.41
468.91	1501.16
469.11	1628.14
469.31	1519.59
469.52	1574.89
469.72	1640.42
469.92	1642.47
470.13	1560.55
470.33	1513.45
470.53	1675.24
470.73	2088.93
470.94	2373.60
471.14	2471.90
471.34	2623.45
471.54	2478.04
471.75	2197.47
471.95	1990.63
472.15	1918.95
472.36	1976.29
472.56	2039.78
472.76	1961.95
472.96	1834.98
473.17	1834.98
473.37	1816.55
473.57	1644.52
473.77	1732.58
473.98	1558.50
474.18	1611.75
474.38	1611.75
474.58	1542.12
474.79	1499.11
474.99	1535.98
475.19	1560.55
475.39	1441.77
475.60	1521.64
475.80	1503.21
476.00	1585.13
476.20	1490.92
476.41	1564.65
476.61	1665.00
476.81	1572.84
477.01	1443.82
477.21	1632.23
477.42	1624.04
477.62	1538.02
477.82	1568.74
478.02	1513.45
478.23	1593.32
478.43	1533.93
478.63	1564.65
478.83	1574.89
479.03	1533.93
479.24	1585.13
479.44	1615.85
479.64	1454.06
479.84	1433.58
480.04	1523.69
480.25	1587.18
480.45	1542.12
480.65	1499.11
480.85	1634.28
481.06	1560.55
481.26	1583.08
481.46	1574.89
481.66	1542.12
481.86	1519.59
482.06	1566.70
482.27	1499.11
482.47	1445.87
482.67	1595.37
482.87	1533.93
483.07	1574.89
483.28	1538.02
483.48	1538.02
483.68	1513.45
483.88	1482.73
484.08	1476.59
484.29	1443.82
484.49	1550.31
484.69	1507.30
484.89	1595.37
485.09	1566.70
485.29	1611.75
485.50	1566.70
485.70	1554.41
485.90	1624.04
486.10	1538.02
486.30	1566.70
486.50	1642.47
486.71	1540.07
486.91	1609.70
487.11	1529.83
487.31	1499.11
487.51	1576.94
487.71	1505.26
487.91	1515.50
488.12	1486.83
488.32	1378.28
488.52	1513.45
488.72	1460.20
488.92	1527.78
489.12	1556.46
489.32	1538.02
489.53	1511.40
489.73	1517.54
489.93	1632.23
490.13	1552.36
490.33	1372.14
490.53	1525.74
490.73	1587.18
490.94	1550.31
491.14	1542.12
491.34	1656.81
491.54	2090.98
491.74	2598.87
491.94	3092.43
492.14	3319.76
492.34	3264.46
492.54	2922.45
492.75	2523.10
492.95	2328.54
493.15	2312.16
493.35	2170.85
493.55	2129.89
493.75	2084.83
493.95	2066.40
494.15	1937.38
494.35	1781.73
494.56	1728.49
494.76	1654.76
494.96	1673.19
495.16	1605.61
495.36	1497.07
495.56	1574.89
495.76	1535.98
495.96	1443.82
496.16	1511.40
496.36	1607.66
496.56	1568.74
496.77	1556.46
496.97	1439.72
497.17	1585.13
497.37	1503.21
497.57	1599.46
497.77	1556.46
497.97	1503.21
498.17	1531.88
498.37	1484.78
498.57	1597.42
498.77	1480.68
498.97	1542.12
499.17	1595.37
499.38	1497.07
499.58	1566.70
499.78	1675.24
499.98	1626.09
500.18	1593.32
500.38	1595.37
500.58	1849.32
500.78	2670.55
500.98	5167.03
501.18	6727.58
501.38	8148.87
501.58	8849.27
501.78	8118.15
501.98	6078.37
502.18	5388.21
502.38	4550.59
502.58	4220.86
502.78	3801.03
502.98	3633.10
503.18	3661.77
503.38	3303.37
503.59	2916.31
503.79	2779.09
503.99	2422.75
504.19	2346.97
504.39	2176.99
504.59	2052.06
504.79	1986.53
504.99	1933.28
505.19	1712.10
505.39	1779.68
505.59	1783.78
505.79	1779.68
505.99	1644.52
506.19	1564.65
506.39	1685.48
506.59	1632.23
506.79	1646.57
506.99	1671.14
507.19	1642.47
507.39	1538.02
507.59	1542.12
507.79	1538.02
507.99	1488.87
508.19	1505.26
508.39	1535.98
508.59	1574.89
508.79	1535.98
508.99	1603.56
509.19	1540.07
509.39	1587.18
509.59	1538.02
509.79	1468.39
509.99	1583.08
510.19	1589.22
510.39	1578.98
510.59	1538.02
510.79	1519.59
510.99	1439.72
511.19	1587.18
511.39	1611.75
511.59	1566.70
511.79	1611.75
511.99	1576.94
512.19	1572.84
512.38	1542.12
512.58	1452.01
512.78	1566.70
512.98	1601.51
513.18	1597.42
513.38	1478.63
513.58	1521.64
513.78	1566.70
513.98	1601.51
514.18	1513.45
514.38	1507.30
514.58	1550.31
514.78	1525.74
514.98	1474.54
515.18	1560.55
515.38	1447.91
515.58	1558.50
515.78	1535.98
515.98	1562.60
516.18	1597.42
516.38	1523.69
516.57	1540.07
516.77	1468.39
516.97	1550.31
517.17	1544.17
517.37	1548.26
517.57	1646.57
517.77	1609.70
517.97	1523.69
518.17	1611.75
518.37	1480.68
518.57	1527.78
518.77	1562.60
518.97	1581.03
519.16	1617.90
519.36	1574.89
519.56	1568.74
519.76	1560.55
519.96	1585.13
520.16	1535.98
520.36	1454.06
520.56	1572.84
520.76	1517.54
520.96	1542.12
521.16	1621.99
521.35	1529.83
521.55	1593.32
521.75	1529.83
521.95	1593.32
522.15	1480.68
522.35	1492.97
522.55	1548.26
522.75	1495.02
522.95	1587.18
523.14	1535.98
523.34	1501.16
523.54	1538.02
523.74	1656.81
523.94	1509.35
524.14	1507.30
524.34	1527.78
524.54	1554.41
524.73	1507.30
524.93	1662.95
525.13	1611.75
525.33	1460.20
525.53	1671.14
525.73	1527.78
525.93	1521.64
526.13	1540.07
526.32	1535.98
526.52	1591.27
526.72	1548.26
526.92	1566.70
527.12	1466.35
527.32	1501.16
527.52	1533.93
527.71	1611.75
527.91	1527.78
528.11	1472.49
528.31	1533.93
528.51	1523.69
528.71	1583.08
528.90	1488.87
529.10	1640.42
529.30	1652.71
529.50	1433.58
529.70	1562.60
529.90	1538.02
530.09	1511.40
530.29	1574.89
530.49	1548.26
530.69	1646.57
530.89	1525.74
531.09	1597.42
531.28	1511.40
531.48	1619.94
531.68	1531.88
531.88	1542.12
532.08	1558.50
532.28	1535.98
532.47	1564.65
532.67	1544.17
532.87	1583.08
533.07	1523.69
533.27	1642.47
533.46	1560.55
533.66	1566.70
533.86	1597.42
534.06	1572.84
534.26	1591.27
534.45	1509.35
534.65	1531.88
534.85	1507.30
535.05	1525.74
535.25	1550.31
535.44	1439.72
535.64	1607.66
535.84	1550.31
536.04	1476.59
536.24	1490.92
536.43	1515.50
536.63	1558.50
536.83	1554.41
537.03	1507.30
537.22	1497.07
537.42	1562.60
537.62	1513.45
537.82	1472.49
538.02	1603.56
538.21	1665.00
538.41	1679.33
538.61	1587.18
538.81	1509.35
539.00	1581.03
539.20	1527.78
539.40	1572.84
539.60	1621.99
539.79	1542.12
539.99	1499.11
540.19	1568.74
540.39	1511.40
540.58	1552.36
540.78	1613.80
540.98	1535.98
541.18	1517.54
541.37	1603.56
541.57	1591.27
541.77	1517.54
541.97	1562.60
542.16	1501.16
542.36	1533.93
542.56	1593.32
542.76	1636.33
542.95	1601.51
543.15	1540.07
543.35	1513.45
543.54	1513.45
543.74	1486.83
543.94	1634.28
544.14	1517.54
544.33	1576.94
544.53	1560.55
544.73	1591.27
544.93	1460.20
545.12	1542.12
545.32	1521.64
545.52	1531.88
545.71	1542.12
545.91	1585.13
546.11	1525.74
546.30	1542.12
546.50	1540.07
546.70	1513.45
546.90	1519.59
547.09	1525.74
547.29	1554.41
547.49	1626.09
547.68	1570.79
547.88	1501.16
548.08	1542.12
548.27	1908.71
548.47	1527.78
548.67	1554.41
548.87	1640.42
549.06	1529.83
549.26	1495.02
549.46	1513.45
549.65	1509.35
549.85	1490.92
550.05	1578.98
550.24	1456.11
550.44	1634.28
550.64	1529.83
550.83	1601.51
551.03	1613.80
551.23	1615.85
551.42	1533.93
551.62	1540.07
551.82	1531.88
552.01	1562.60
552.21	1566.70
552.41	1589.22
552.60	1632.23
552.80	1605.61
553.00	1452.01
553.19	1558.50
553.39	1681.38
553.59	1437.67
553.78	1603.56
553.98	1615.85
554.17	1478.63
554.37	1525.74
554.57	1605.61
554.76	1501.16
554.96	1447.91
555.16	1486.83
555.35	1542.12
555.55	1611.75
555.75	1558.50
555.94	1546.22
556.14	1488.87
556.33	1572.84
556.53	1544.17
556.73	1548.26
556.92	1632.23
557.12	1562.60
557.32	1642.47
557.51	1564.65
557.71	1589.22
557.90	1691.62
558.10	1492.97
558.30	1462.25
558.49	1576.94
558.69	1576.94
558.88	1550.31
559.08	1538.02
559.28	1476.59
559.47	1523.69
559.67	1480.68
559.86	1656.81
560.06	1523.69
560.26	1603.56
560.45	1574.89
560.65	1544.17
560.84	1626.09
561.04	1533.93
561.24	1548.26
561.43	1472.49
561.63	1603.56
561.82	1554.41
562.02	1570.79
562.22	1439.72
562.41	1495.02
562.61	1525.74
562.80	1556.46
563.00	1697.77
563.19	1589.22
563.39	1585.13
563.59	1554.41
563.78	1499.11
563.98	1462.25
564.17	1521.64
564.37	1421.29
564.56	1556.46
564.76	1507.30
564.96	1671.14
565.15	1587.18
565.35	1619.94
565.54	1505.26
565.74	1599.46
565.93	1574.89
566.13	1523.69
566.32	1486.83
566.52	1628.14
566.71	1548.26
566.91	1568.74
567.11	1581.03
567.30	1570.79
567.50	1628.14
567.69	1519.59
567.89	1492.97
568.08	1570.79
568.28	1603.56
568.47	1468.39
568.67	1482.73
568.86	1525.74
569.06	1595.37
569.25	1546.22
569.45	1531.88
569.64	1558.50
569.84	1609.70
570.04	1527.78
570.23	1492.97
570.43	1552.36
570.62	1560.55
570.82	1632.23
571.01	1480.68
571.21	1529.83
571.40	1511.40
571.60	1607.66
571.79	1554.41
571.99	1589.22
572.18	1492.97
572.38	1611.75
572.57	1505.26
572.77	1509.35
572.96	1652.71
573.16	1630.18
573.35	1495.02
573.55	1685.48
573.74	1474.54
573.94	1515.50
574.13	1609.70
574.33	1566.70
574.52	1632.23
574.71	1503.21
574.91	1599.46
575.10	1519.59
575.30	1568.74
575.49	1497.07
575.69	1454.06
575.88	1617.90
576.08	1540.07
576.27	1601.51
576.47	1611.75
576.66	1642.47
576.86	1630.18
577.05	1626.09
577.25	1574.89
577.44	1648.61
577.64	1535.98
577.83	1570.79
578.02	1517.54
578.22	1673.19
578.41	1640.42
578.61	1628.14
578.80	1581.03
579.00	1544.17
579.19	1574.89
579.39	1538.02
579.58	1626.09
579.77	1583.08
579.97	1679.33
580.16	1685.48
580.36	1570.79
580.55	1697.77
580.75	1601.51
580.94	1599.46
581.13	1665.00
581.33	1660.90
581.52	1648.61
581.72	1722.34
581.91	1683.43
582.11	1617.90
582.30	1656.81
582.49	1599.46
582.69	1685.48
582.88	1626.09
583.08	1525.74
583.27	1615.85
583.47	1570.79
583.66	1587.18
583.85	1603.56
584.05	1595.37
584.24	1599.46
584.44	1562.60
584.63	1624.04
584.82	1671.14
585.02	1732.58
585.21	1794.02
585.41	1751.01
585.60	1748.97
585.79	1826.79
585.99	1826.79
586.18	1761.25
586.37	2041.82
586.57	3182.54
586.76	9496.43
586.96	27928.15
587.15	43744.61
587.34	54291.65
587.54	61133.92
587.73	59425.91
587.93	43210.09
588.12	32175.64
588.31	25769.59
588.51	21890.74
588.70	19588.82
588.89	18405.10
589.09	16750.34
589.28	15245.08
589.47	13086.52
589.67	11198.29
589.86	8982.39
590.06	6719.39
590.25	5033.91
590.44	3909.57
590.64	2904.02
590.83	2334.68
591.02	2047.97
591.22	1959.91
591.41	1718.25
591.60	1683.43
591.80	1802.21
591.99	1548.26
592.18	1564.65
592.38	1705.96
592.57	1581.03
592.76	1523.69
592.96	1650.66
593.15	1560.55
593.34	1667.05
593.54	1574.89
593.73	1558.50
593.92	1578.98
594.12	1609.70
594.31	1626.09
594.50	1744.87
594.70	1630.18
594.89	1716.20
595.08	1589.22
595.28	1603.56
595.47	1746.92
595.66	1599.46
595.86	1574.89
596.05	1572.84
596.24	1589.22
596.43	1703.91
596.63	1691.62
596.82	1560.55
597.01	1669.09
597.21	1734.63
597.40	1609.70
597.59	1658.85
597.79	1570.79
597.98	1546.22
598.17	1558.50
598.36	1574.89
598.56	1615.85
598.75	1531.88
598.94	1562.60
599.14	1552.36
599.33	1607.66
599.52	1581.03
599.71	1578.98
599.91	1667.05
600.10	1578.98
600.29	1585.13
600.48	1605.61
600.68	1615.85
600.87	1624.04
601.06	1521.64
601.26	1578.98
601.45	1562.60
601.64	1574.89
601.83	1632.23
602.03	1525.74
602.22	1452.01
602.41	1658.85
602.60	1724.39
602.80	1703.91
602.99	1593.32
603.18	1531.88
603.37	1560.55
603.57	1591.27
603.76	1595.37
603.95	1583.08
604.14	1587.18
604.34	1542.12
604.53	1511.40
604.72	1509.35
604.91	1578.98
605.10	1519.59
605.30	1445.87
605.49	1572.84
605.68	1521.64
605.87	1613.80
606.07	1503.21
606.26	1544.17
606.45	1540.07
606.64	1638.38
606.84	1648.61
607.03	1583.08
607.22	1583.08
607.41	1529.83
607.60	1562.60
607.80	1589.22
607.99	1542.12
608.18	1589.22
608.37	1540.07
608.56	1552.36
608.76	1679.33
608.95	1708.01
609.14	1665.00
609.33	1705.96
609.52	1740.77
609.72	1671.14
609.91	1667.05
610.10	1585.13
610.29	1660.90
610.48	1593.32
610.68	1605.61
610.87	1581.03
611.06	1576.94
611.25	1595.37
611.44	1644.52
611.63	1505.26
611.83	1640.42
612.02	1482.73
612.21	1560.55
612.40	1519.59
612.59	1568.74
612.79	1525.74
612.98	1538.02
613.17	1671.14
613.36	1566.70
613.55	1671.14
613.74	1656.81
613.93	1648.61
614.13	1755.11
614.32	1796.07
614.51	1748.97
614.70	1652.71
614.89	1626.09
615.08	1636.33
615.28	1886.18
615.47	1503.21
615.66	1626.09
615.85	1554.41
616.04	1679.33
616.23	1644.52
616.42	1605.61
616.62	1603.56
616.81	1714.15
617.00	1597.42
617.19	1624.04
617.38	1535.98
617.57	1599.46
617.76	1611.75
617.95	1593.32
618.15	1636.33
618.34	1626.09
618.53	1529.83
618.72	1587.18
618.91	1578.98
619.10	1648.61
619.29	1560.55
619.48	1529.83
619.68	1435.63
619.87	1605.61
620.06	1546.22
620.25	1578.98
620.44	1562.60
620.63	1558.50
620.82	1535.98
621.01	1499.11
621.20	1581.03
621.39	1564.65
621.59	1628.14
621.78	1521.64
621.97	1574.89
622.16	1527.78
622.35	1578.98
622.54	1570.79
622.73	1613.80
622.92	1482.73
623.11	1542.12
623.30	1538.02
623.49	1538.02
623.68	1535.98
623.88	1581.03
624.07	1601.51
624.26	1466.35
624.45	1515.50
624.64	1593.32
624.83	1578.98
625.02	1558.50
625.21	1595.37
625.40	1542.12
625.59	1607.66
625.78	1574.89
625.97	1572.84
626.16	1515.50
626.35	1656.81
626.54	1695.72
626.74	1617.90
626.93	1621.99
627.12	1521.64
627.31	1652.71
627.50	1578.98
627.69	1613.80
627.88	1490.92
628.07	1523.69
628.26	1513.45
628.45	1452.01
628.64	1501.16
628.83	1595.37
629.02	1492.97
629.21	1525.74
629.40	1546.22
629.59	1497.07
629.78	1505.26
629.97	1593.32
630.16	1548.26
630.35	1464.30
630.54	1585.13
630.73	1544.17
630.92	1632.23
631.11	1499.11
631.30	1583.08
631.49	1550.31
631.68	1574.89
631.87	1665.00
632.06	1581.03
632.25	1603.56
632.44	1535.98
632.63	1581.03
632.82	1548.26
633.01	1583.08
633.20	1638.38
633.39	1648.61
633.58	1566.70
633.77	1566.70
633.96	1515.50
634.15	1574.89
634.34	1611.75
634.53	1599.46
634.72	1488.87
634.91	1521.64
635.10	1527.78
635.29	1542.12
635.48	1581.03
635.67	1626.09
635.86	1497.07
636.05	1501.16
636.24	1535.98
636.43	1601.51
636.62	1566.70
636.81	1394.67
637.00	1470.44
637.19	1578.98
637.38	1581.03
637.57	1548.26
637.76	1632.23
637.95	1581.03
638.14	1617.90
638.33	1683.43
638.52	1611.75
638.71	1675.24
638.89	1550.31
639.08	1683.43
639.27	1591.27
639.46	1710.05
639.65	1918.95
639.84	2029.54
640.03	2142.18
640.22	2129.89
640.41	2213.85
640.60	2064.35
640.79	1910.75
640.98	1800.16
641.17	1773.54
641.36	1695.72
641.55	1769.44
641.74	1621.99
641.92	1640.42
642.11	1599.46
642.30	1593.32
642.49	1484.78
642.68	1646.57
642.87	1562.60
643.06	1609.70
643.25	1503.21
643.44	1527.78
643.63	1535.98
643.82	1603.56
644.00	1478.63
644.19	1570.79
644.38	1564.65
644.57	1609.70
644.76	1560.55
644.95	1462.25
645.14	1558.50
645.33	1538.02
645.52	1550.31
645.71	1511.40
645.89	1578.98
646.08	1558.50
646.27	1538.02
646.46	1587.18
646.65	1486.83
646.84	1550.31
647.03	1486.83
647.22	1570.79
647.40	1550.31
647.59	1542.12
647.78	1521.64
647.97	1556.46
648.16	1452.01
648.35	1560.55
648.54	1578.98
648.73	1474.54
648.91	1562.60
649.10	1570.79
649.29	1527.78
649.48	1538.02
649.67	1554.41
649.86	1572.84
650.05	1552.36
650.23	1683.43
650.42	1632.23
650.61	1753.06
650.80	1697.77
650.99	1775.59
651.18	1687.53
651.36	1632.23
651.55	1597.42
651.74	1605.61
651.93	1540.07
652.12	1615.85
652.31	1525.74
652.49	1632.23
652.68	1503.21
652.87	1677.29
653.06	1624.04
653.25	1634.28
653.44	1609.70
653.62	1648.61
653.81	1595.37
654.00	1552.36
654.19	1568.74
654.38	1658.85
654.56	1546.22
654.75	1464.30
654.94	1652.71
655.13	1505.26
655.32	1519.59
655.51	1554.41
655.69	1535.98
655.88	1574.89
656.07	1495.02
656.26	1550.31
656.45	1507.30
656.63	1566.70
656.82	1546.22
657.01	1626.09
657.20	1531.88
657.38	1630.18
657.57	1572.84
657.76	1507.30
657.95	1533.93
658.14	1482.73
658.32	1521.64
658.51	1454.06
658.70	1492.97
658.89	1644.52
659.08	1636.33
659.26	1632.23
659.45	1574.89
659.64	1583.08
659.83	1538.02
660.01	1748.97
660.20	1619.94
660.39	1667.05
660.58	1443.82
660.76	1595.37
660.95	1419.24
661.14	1593.32
661.33	1464.30
661.51	1576.94
661.70	1519.59
661.89	1605.61
662.08	1574.89
662.26	1523.69
662.45	1517.54
662.64	1628.14
662.83	1538.02
663.01	1435.63
663.20	1552.36
663.39	1578.98
663.58	1583.08
663.76	1527.78
663.95	1624.04
664.14	1527.78
664.32	1595.37
664.51	1476.59
664.70	1480.68
664.89	1615.85
665.07	1462.25
665.26	1583.08
665.45	1634.28
665.64	1583.08
665.82	1538.02
666.01	1558.50
666.20	1554.41
666.38	1630.18
666.57	1576.94
666.76	1927.14
666.95	2979.79
667.13	7612.30
667.32	15509.27
667.51	19992.27
667.69	23522.97
667.88	25171.58
668.07	22066.86
668.25	15507.22
668.44	12498.75
668.63	10225.51
668.81	8695.68
669.00	7714.70
669.19	7126.93
669.38	6274.98
669.56	5617.58
669.75	4880.31
669.94	4134.85
670.12	3520.46
670.31	2901.97
670.50	2539.48
670.68	2148.32
670.87	1896.42
671.06	1624.04
671.24	1654.76
671.43	1708.01
671.62	1689.57
671.80	1589.22
671.99	1607.66
672.18	1638.38
672.36	1683.43
672.55	1566.70
672.74	1540.07
672.92	1548.26
673.11	1589.22
673.29	1552.36
673.48	1587.18
673.67	1517.54
673.85	1574.89
674.04	1503.21
674.23	1529.83
674.41	1617.90
674.60	1535.98
674.79	1435.63
674.97	1538.02
675.16	1601.51
675.34	1581.03
675.53	1546.22
675.72	1656.81
675.90	1624.04
676.09	1466.35
676.28	1490.92
676.46	1452.01
676.65	1603.56
676.83	1566.70
677.02	1550.31
677.21	1529.83
677.39	1511.40
677.58	1574.89
677.77	1572.84
677.95	1529.83
678.14	1544.17
678.32	1550.31
678.51	1533.93
678.70	1585.13
678.88	1572.84
679.07	1531.88
679.25	1527.78
679.44	1501.16
679.63	1488.87
679.81	1593.32
680.00	1593.32
680.18	1589.22
680.37	1568.74
680.55	1443.82
680.74	1368.04
680.93	1478.63
681.11	1560.55
681.30	1583.08
681.48	1603.56
681.67	1585.13
681.85	1568.74
682.04	1464.30
682.23	1517.54
682.41	1570.79
682.60	1525.74
682.78	1529.83
682.97	1474.54
683.15	1492.97
683.34	1542.12
683.53	1540.07
683.71	1466.35
683.90	1644.52
684.08	1687.53
684.27	1515.50
684.45	1583.08
684.64	1476.59
684.82	1474.54
685.01	1544.17
685.19	1611.75
685.38	1562.60
685.57	1540.07
685.75	1509.35
685.94	1497.07
686.12	1441.77
686.31	1480.68
686.49	1531.88
686.68	1468.39
686.86	1552.36
687.05	1505.26
687.23	1626.09
687.42	1527.78
687.60	1480.68
687.79	1646.57
687.97	1632.23
688.16	1560.55
688.34	1554.41
688.53	1509.35
688.71	1591.27
688.90	1523.69
689.08	1544.17
689.27	1527.78
689.45	1615.85
689.64	1585.13
689.82	1601.51
690.01	1572.84
690.19	1581.03
690.38	1529.83
690.56	1619.94
690.75	1419.24
690.93	1540.07
691.12	1540.07
691.30	1568.74
691.49	1507.30
691.67	1544.17
691.86	1685.48
692.04	1499.11
692.23	1523.69
692.41	1564.65
692.60	1714.15
692.78	1689.57
692.97	1597.42
693.15	1708.01
693.34	1773.54
693.52	1640.42
693.71	1589.22
693.89	1527.78
694.08	1509.35
694.26	1589.22
694.44	1570.79
694.63	1595.37
694.81	1562.60
695.00	1583.08
695.18	1578.98
695.37	1714.15
695.55	1576.94
695.74	1497.07
695.92	1519.59
696.10	1564.65
696.29	1460.20
696.47	1531.88
696.66	1503.21
696.84	1511.40
697.03	1585.13
697.21	1595.37
697.40	1947.62
697.58	1527.78
697.76	1482.73
697.95	1501.16
698.13	1531.88
698.32	1515.50
698.50	1513.45
698.68	1542.12
698.87	1517.54
699.05	1636.33
699.24	1578.98
699.42	1527.78
699.61	1486.83
699.79	1560.55
699.97	1576.94
700.16	1519.59
700.34	1476.59
700.53	1568.74
700.71	1595.37
700.89	1585.13
701.08	1552.36
701.26	1497.07
701.45	1861.60
701.63	1566.70
701.81	1572.84
702.00	1464.30
702.18	1601.51
702.37	1564.65
702.55	1589.22
702.73	1789.92
702.92	1730.53
703.10	1773.54
703.28	1826.79
703.47	1759.21
703.65	1783.78
703.84	1697.77
704.02	1634.28
704.20	1687.53
704.39	1585.13
704.57	1654.76
704.75	1632.23
704.94	1701.86
705.12	1615.85
705.30	1624.04
705.49	1908.71
705.67	2848.72
705.86	7415.69
706.04	14386.98
706.22	18626.28
706.41	21548.73
706.59	23027.36
706.77	20598.47
706.96	14745.38
707.14	11544.40
707.32	9703.28
707.51	8562.56
707.69	7442.32
707.87	6582.17
708.06	5711.78
708.24	4769.72
708.42	3676.10
708.61	3000.27
708.79	2246.62
708.97	2023.39
709.16	1851.36
709.34	1763.30
709.52	1660.90
709.71	1619.94
709.89	1669.09
710.07	1552.36
710.26	1599.46
710.44	1517.54
710.62	1677.29
710.80	1583.08
710.99	1636.33
711.17	1597.42
711.35	1542.12
711.54	1613.80
711.72	1638.38
711.90	1560.55
712.09	1570.79
712.27	1497.07
712.45	1552.36
712.63	1525.74
712.82	1558.50
713.00	1578.98
713.18	1593.32
713.37	1626.09
713.55	1615.85
713.73	1599.46
713.91	1585.13
714.10	1490.92
714.28	1546.22
714.46	1583.08
714.65	1576.94
714.83	1470.44
715.01	1568.74
715.19	1560.55
715.38	1501.16
715.56	1564.65
715.74	1423.34
715.92	1474.54
716.11	1636.33
716.29	1462.25
716.47	1566.70
716.65	1538.02
716.84	1527.78
717.02	1624.04
717.20	1513.45
717.38	1492.97
717.57	1593.32
717.75	1523.69
717.93	1523.69
718.11	1531.88
718.30	1476.59
718.48	1546.22
718.66	1585.13
718.84	1591.27
719.03	1544.17
719.21	1423.34
719.39	1601.51
719.57	1599.46
719.75	1572.84
719.94	1589.22
720.12	1540.07
720.30	1560.55
720.48	1578.98
720.67	1495.02
720.85	1480.68
721.03	1513.45
721.21	1509.35
721.39	1581.03
721.58	1519.59
721.76	1535.98
721.94	1570.79
722.12	1583.08
722.30	1628.14
722.49	1609.70
722.67	1503.21
722.85	1540.07
723.03	1447.91
723.21	1505.26
723.40	1517.54
723.58	1656.81
723.76	1568.74
723.94	1658.85
724.12	1593.32
724.30	1662.95
724.49	1609.70
724.67	1589.22
724.85	1652.71
725.03	1554.41
725.21	1617.90
725.40	1617.90
725.58	1484.78
725.76	1685.48
725.94	1492.97
726.12	1474.54
726.30	1531.88
726.49	1509.35
726.67	1519.59
726.85	1552.36
727.03	1507.30
727.21	1703.91
727.39	2207.71
727.57	3299.28
727.76	4325.31
727.94	4868.02
728.12	5126.07
728.30	5033.91
728.48	4327.36
728.66	3450.83
728.84	3119.06
729.03	2844.63
729.21	2549.72
729.39	2279.39
729.57	2080.74
729.75	1927.14
729.93	1738.73
730.11	1675.24
730.30	1550.31
730.48	1558.50
730.66	1615.85
730.84	1626.09
731.02	1566.70
731.20	1525.74
731.38	1558.50
731.56	1460.20
731.74	1443.82
731.93	1626.09
732.11	1540.07
732.29	1533.93
732.47	1452.01
732.65	1599.46
732.83	1599.46
733.01	1562.60
733.19	1550.31
733.37	1529.83
733.56	1556.46
733.74	1576.94
733.92	1570.79
734.10	1531.88
734.28	1578.98
734.46	1452.01
734.64	1478.63
734.82	1560.55
735.00	1490.92
735.18	1550.31
735.36	1546.22
735.54	1421.29
735.73	1540.07
735.91	1572.84
736.09	1597.42
736.27	1542.12
736.45	1570.79
736.63	1505.26
736.81	1535.98
736.99	1544.17
737.17	1568.74
737.35	1560.55
737.53	1533.93
737.71	1505.26
737.89	1525.74
738.07	1478.63
738.25	1503.21
738.43	1452.01
738.61	1611.75
738.80	1476.59
738.98	1484.78
739.16	1478.63
739.34	1480.68
739.52	1675.24
739.70	1497.07
739.88	1648.61
740.06	1597.42
740.24	1398.76
740.42	1556.46
740.60	1460.20
740.78	1538.02
740.96	1490.92
741.14	1531.88
741.32	1486.83
741.50	1431.53
741.68	1609.70
741.86	1544.17
742.04	1517.54
742.22	1495.02
742.40	1589.22
742.58	1597.42
742.76	1558.50
742.94	1613.80
743.12	1511.40
743.30	1529.83
743.48	1599.46
743.66	1456.11
743.84	1581.03
744.02	1595.37
744.20	1626.09
744.38	1509.35
744.56	1472.49
744.74	1650.66
744.92	1609.70
745.10	1611.75
745.28	1576.94
745.46	1613.80
745.64	1540.07
745.82	1542.12
746.00	1585.13
746.18	1540.07
746.36	1460.20
746.54	1570.79
746.72	1630.18
746.90	1415.15
747.08	1601.51
747.26	1552.36
747.44	1572.84
747.62	1482.73
747.80	1552.36
747.98	1626.09
748.15	1523.69
748.33	1648.61
748.51	1576.94
748.69	1609.70
748.87	1597.42
749.05	1581.03
749.23	1513.45
749.41	1597.42
749.59	1564.65
749.77	1552.36
749.95	1546.22
750.13	1454.06
750.31	1544.17
750.49	1509.35
750.67	1581.03
750.85	1562.60
751.03	1558.50
751.20	1628.14
751.38	1583.08
751.56	1505.26
751.74	1509.35
751.92	1574.89
752.10	1435.63
752.28	1564.65
752.46	1509.35
752.64	1581.03
752.82	1587.18
753.00	1593.32
753.18	1486.83
753.35	1505.26
753.53	1558.50
753.71	1533.93
753.89	1624.04
754.07	1466.35
754.25	1556.46
754.43	1525.74
754.61	1435.63
754.79	1585.13
754.97	1546.22
755.14	1615.85
755.32	1433.58
755.50	1523.69
755.68	1558.50
755.86	1472.49
756.04	1490.92
756.22	1503.21
756.40	1589.22
756.57	1640.42
756.75	1435.63
756.93	1609.70
757.11	1603.56
757.29	1511.40
757.47	1538.02
757.65	1505.26
757.82	1458.15
758.00	1538.02
758.18	1511.40
758.36	1495.02
758.54	1554.41
758.72	1525.74
758.90	1564.65
759.07	1535.98
759.25	1462.25
759.43	1499.11
759.61	1499.11
759.79	2029.54
759.97	1511.40
760.15	1488.87
760.32	1499.11
760.50	1593.32
760.68	1546.22
760.86	1417.19
761.04	1587.18
761.22	1568.74
761.39	1511.40
761.57	1490.92
761.75	1472.49
761.93	1531.88
762.11	1572.84
762.28	1515.50
762.46	1548.26
762.64	1591.27
762.82	1548.26
763.00	1464.30
763.18	1607.66
763.35	1478.63
763.53	1581.03
763.71	1538.02
763.89	1585.13
764.07	1568.74
764.24	1583.08
764.42	1492.97
764.60	1535.98
764.78	1535.98
764.96	1535.98
765.13	1560.55
765.31	1556.46
765.49	1556.46
765.67	1468.39
765.84	1509.35
766.02	1497.07
766.20	1495.02
766.38	1533.93
766.56	1589.22
766.73	1554.41
766.91	1509.35
767.09	1509.35
767.27	1511.40
767.44	1484.78
767.62	1605.61
767.80	1560.55
767.98	1552.36
768.15	1505.26
768.33	1546.22
768.51	1542.12
768.69	1525.74
768.87	1587.18
769.04	1566.70
769.22	1677.29
769.40	1658.85
769.58	1671.14
769.75	1507.30
769.93	1601.51
770.11	1427.43
770.28	1482.73
770.46	1464.30
770.64	1576.94
770.82	1525.74
770.99	1511.40
771.17	1595.37
771.35	1542.12
771.53	1587.18
771.70	1499.11
771.88	1574.89
772.06	1544.17
772.23	1607.66
772.41	1519.59
772.59	1521.64
772.77	1488.87
772.94	1503.21
773.12	1535.98
773.30	1443.82
773.47	1525.74
773.65	1527.78
773.83	1630.18
774.01	1521.64
774.18	1454.06
774.36	1511.40
774.54	1517.54
774.71	1587.18
774.89	1419.24
775.07	1486.83
775.24	1490.92
775.42	1533.93
775.60	1722.34
775.78	1574.89
775.95	1484.78
776.13	1550.31
776.31	1437.67
776.48	1486.83
776.66	1538.02
776.84	1517.54
777.01	1593.32
777.19	1509.35
777.37	1599.46
777.54	1599.46
777.72	1601.51
777.90	1527.78
778.07	1521.64
778.25	1640.42
778.43	1583.08
778.60	1492.97
778.78	1566.70
778.96	1619.94
779.13	1470.44
779.31	1542.12
779.49	1525.74
779.66	1591.27
779.84	1533.93
780.01	1593.32
780.19	1472.49
780.37	1603.56
780.54	1566.70
780.72	1488.87
780.90	1458.15
781.07	1519.59
781.25	1564.65
781.43	1540.07
781.60	1542.12
781.78	1673.19
781.95	1589.22
782.13	1525.74
782.31	1509.35
782.48	1521.64
782.66	1609.70
782.83	1656.81
783.01	1566.70
783.19	1509.35
783.36	1517.54
783.54	1507.30
783.72	1587.18
783.89	1474.54
784.07	1478.63
784.24	1550.31
784.42	1591.27
784.60	1535.98
784.77	1542.12
784.95	1431.53
785.12	1515.50
785.30	1546.22
785.47	1583.08
785.65	1402.86
785.83	1517.54
786.00	1488.87
786.18	1544.17
786.35	1505.26
786.53	1546.22
786.71	1599.46
786.88	1519.59
787.06	1548.26
787.23	1554.41
787.41	1527.78
787.58	1470.44
787.76	1478.63
787.94	1554.41
788.11	1578.98
788.29	1468.39
788.46	1470.44
788.64	1484.78
788.81	1525.74
788.99	1531.88
789.16	1484.78
789.34	1556.46
789.52	1546.22
789.69	1540.07
789.87	1484.78
790.04	1515.50
790.22	1480.68
790.39	1648.61
790.57	1542.12
790.74	1550.31
790.92	1607.66
791.09	1462.25
791.27	1538.02
791.44	1542.12
791.62	1517.54
791.79	1589.22
791.97	1499.11
792.15	1714.15
792.32	1640.42
792.50	1578.98
792.67	1576.94
792.85	1593.32
793.02	1499.11
793.20	1568.74
793.37	1468.39
793.55	1456.11
793.72	1478.63
793.90	1544.17
794.07	1544.17
794.25	1501.16
794.42	1525.74
794.60	1495.02
794.77	1505.26
794.95	1574.89
795.12	1613.80
795.30	1587.18
795.47	1458.15
795.65	1699.81
795.82	1558.50
796.00	1533.93
796.17	1570.79
796.34	1468.39
796.52	1546.22
796.69	1552.36
796.87	1566.70
797.04	1507.30
797.22	1542.12
797.39	1554.41
797.57	1650.66
797.74	1527.78
797.92	1544.17
798.09	1556.46
798.27	1513.45
798.44	1474.54
798.62	1535.98
798.79	1554.41
798.96	1531.88
799.14	1488.87
799.31	1677.29
799.49	1501.16
799.66	1548.26
799.84	1546.22
800.01	1566.70
800.19	1662.95
800.36	1435.63
800.53	1507.30
800.71	1554.41
800.88	1542.12
801.06	1439.72
801.23	1433.58
801.41	1525.74
801.58	1527.78
801.75	1492.97
801.93	1486.83
802.10	1540.07
802.28	1542.12
802.45	1552.36
802.63	1562.60
802.80	1523.69
802.97	1533.93
803.15	1554.41
803.32	1501.16
803.50	1482.73
803.67	1495.02
803.84	1437.67
804.02	1517.54
804.19	1513.45
804.37	1488.87
804.54	1476.59
804.71	1507.30
804.89	1535.98
805.06	1509.35
805.24	1554.41
805.41	1472.49
805.58	1478.63
805.76	1630.18
805.93	1556.46
806.10	1605.61
806.28	1597.42
806.45	1556.46
806.63	1525.74
806.80	1589.22
806.97	1515.50
807.15	1484.78
807.32	1521.64
807.49	1599.46
807.67	1454.06
807.84	1486.83
808.01	1447.91
808.19	1617.90
808.36	1652.71
808.54	1439.72
808.71	1501.16
808.88	1509.35
809.06	1540.07
809.23	1576.94
809.40	1474.54
809.58	1603.56
809.75	1495.02
809.92	1548.26
810.10	1658.85
810.27	1550.31
810.44	1595.37
810.62	1542.12
810.79	1546.22
810.96	1523.69
811.14	1464.30
811.31	1533.93
811.48	1558.50
811.66	1482.73
811.83	1568.74
812.00	1574.89
812.18	1628.14
812.35	1716.20
812.52	1441.77
812.69	1550.31
812.87	1554.41
813.04	1429.48
813.21	1572.84
813.39	1540.07
813.56	1513.45
813.73	1572.84
813.91	1466.35
814.08	1470.44
814.25	1499.11
814.42	1492.97
814.60	1517.54
814.77	1470.44
814.94	1558.50
815.12	1509.35
815.29	1583.08
815.46	1472.49
815.63	1562.60
815.81	1558.50
815.98	1478.63
816.15	1556.46
816.33	1515.50
816.50	1505.26
816.67	1597.42
816.84	1521.64
817.02	1525.74
817.19	1497.07
817.36	1652.71
817.53	1576.94
817.71	1468.39
817.88	1583.08
818.05	1492.97
818.22	1503.21
818.40	1597.42
818.57	1523.69
818.74	1576.94
818.91	1507.30
819.09	1587.18
819.26	1570.79
819.43	1480.68
819.60	1566.70
819.78	1525.74
819.95	1591.27
820.12	1515.50
820.29	1576.94
820.47	1558.50
820.64	1499.11
820.81	1513.45
820.98	1538.02
821.15	1466.35
821.33	1556.46
821.50	1415.15
821.67	1560.55
821.84	1501.16
822.02	1587.18
822.19	1599.46
822.36	1492.97
822.53	1515.50
822.70	1417.19
822.88	1462.25
823.05	1550.31
823.22	1501.16
823.39	1576.94
823.56	1470.44
823.74	1628.14
823.91	1527.78
824.08	1447.91
824.25	1488.87
824.42	1638.38
824.60	1458.15
824.77	1515.50
824.94	1523.69
825.11	1634.28
825.28	1400.81
825.45	1439.72
825.63	1533.93
825.80	1533.93
825.97	1617.90
826.14	1525.74
826.31	1413.10
826.48	1562.60
826.66	1552.36
826.83	1521.64
827.00	1517.54
827.17	1509.35
827.34	1535.98
827.51	1519.59
827.69	1517.54
827.86	1480.68
828.03	1599.46
828.20	1544.17
828.37	1511.40
828.54	1587.18
828.71	1517.54
828.89	1597.42
829.06	1507.30
829.23	1628.14
829.40	1509.35
829.57	1574.89
829.74	1574.89
829.91	1441.77
830.09	1478.63
830.26	1554.41
830.43	1591.27
830.60	1468.39
830.77	1542.12
830.94	1595.37
831.11	1601.51
831.28	1507.30
831.46	1646.57
831.63	1560.55
831.80	1611.75
831.97	1503.21
832.14	1570.79
832.31	1583.08
832.48	1519.59
832.65	1554.41
832.82	1617.90
832.99	1591.27
833.17	1482.73
833.34	1630.18
833.51	1599.46
833.68	1484.78
833.85	1601.51
834.02	1460.20
834.19	1476.59
834.36	1523.69
834.53	1490.92
834.70	1581.03
834.87	1542.12
835.04	1484.78
835.22	1474.54
835.39	1445.87
835.56	1517.54
835.73	1531.88
835.90	1603.56
836.07	1525.74
836.24	1542.12
836.41	1435.63
836.58	1517.54
836.75	1542.12
836.92	1593.32
837.09	1443.82
837.26	1572.84
837.43	1544.17
837.60	1634.28
837.77	1581.03
837.94	1599.46
838.12	1613.80
838.29	1542.12
838.46	1488.87
838.63	1460.20
838.80	1535.98
838.97	1585.13
839.14	1550.31
839.31	1542.12
839.48	1525.74
839.65	1550.31
839.82	1550.31
839.99	1460.20
840.16	1562.60
840.33	1576.94
840.50	1531.88
840.67	1525.74
840.84	1437.67
841.01	1529.83
841.18	1468.39
841.35	1562.60
841.52	1540.07
841.69	1585.13
841.86	1589.22
842.03	1476.59
842.20	1511.40
842.37	1525.74
842.54	1497.07
842.71	1542.12
842.88	1476.59
843.05	1550.31
843.22	1593.32
843.39	1554.41
843.56	1523.69
843.73	1546.22
843.90	1509.35
844.07	1511.40
844.24	1538.02
844.41	1566.70
844.58	1499.11
844.75	1456.11
844.92	1566.70
845.09	1562.60
845.26	1476.59
845.43	1591.27
845.60	1558.50
845.77	1550.31
845.94	1550.31
846.10	1581.03
846.27	1472.49
846.44	1449.96
846.61	1517.54
846.78	1497.07
846.95	1613.80
847.12	1566.70
847.29	1456.11
847.46	1533.93
847.63	1531.88
847.80	1472.49
847.97	1523.69
848.14	1619.94
848.31	1591.27
848.48	1425.39
848.65	1615.85
848.82	1542.12
848.98	1691.62
849.15	1560.55
849.32	1587.18
849.49	1560.55
849.66	1558.50
849.83	1533.93
850.00	1519.59
850.17	1572.84
850.34	1460.20
850.51	1411.05
850.68	1507.30
850.85	1607.66
851.01	1599.46
851.18	1593.32
851.35	1533.93
851.52	1578.98
851.69	1603.56
851.86	1460.20
852.03	1544.17
852.20	1474.54
852.37	1468.39
852.53	1482.73
852.70	1507.30
852.87	1499.11
853.04	1626.09
853.21	1435.63
853.38	1501.16
853.55	1544.17
853.72	1542.12
853.89	1525.74
854.05	1495.02
854.22	1497.07
854.39	1595.37
854.56	1523.69
854.73	1501.16
854.90	1509.35
855.07	1601.51
855.23	1425.39
855.40	1533.93
855.57	1476.59
855.74	1437.67
855.91	1728.49
856.08	1452.01
856.25	1458.15
856.41	1486.83
856.58	1546.22
856.75	1529.83
856.92	1476.59
857.09	1568.74
857.26	1441.77
857.42	1507.30
857.59	1574.89
857.76	1476.59
857.93	1538.02
858.10	1558.50
858.27	1431.53
858.43	1527.78
858.60	1560.55
858.77	1531.88
858.94	1445.87
859.11	1550.31
859.27	1552.36
859.44	1519.59
859.61	1599.46
859.78	1603.56
859.95	1574.89
860.12	1490.92
860.28	1636.33
860.45	1619.94
860.62	1497.07
860.79	1591.27
860.95	1538.02
861.12	1519.59
861.29	1486.83
861.46	1462.25
861.63	1525.74
861.79	1527.78
861.96	1533.93
862.13	1509.35
862.30	1595.37
862.47	1544.17
862.63	1509.35
862.80	1675.24
862.97	1644.52
863.14	1566.70
863.30	1617.90
863.47	1476.59
863.64	1619.94
863.81	1566.70
863.97	1435.63
864.14	1538.02
864.31	1464.30
864.48	1519.59
864.65	1538.02
864.81	1501.16
864.98	1538.02
865.15	1568.74
865.32	1558.50
865.48	1509.35
865.65	1675.24
865.82	1509.35
865.98	1529.83
866.15	1552.36
866.32	1519.59
866.49	1507.30
866.65	1603.56
866.82	1462.25
866.99	1513.45
867.16	1449.96
867.32	1445.87
867.49	1513.45
867.66	1578.98
867.83	1566.70
867.99	1476.59
868.16	1529.83
868.33	1587.18
868.49	1591.27
868.66	1570.79
868.83	1634.28
868.99	1497.07
869.16	1523.69
869.33	1583.08
869.50	1572.84
869.66	1515.50
869.83	1521.64
870.00	1425.39
870.16	1544.17
870.33	1570.79
870.50	1615.85
870.66	1560.55
870.83	1605.61
871.00	1460.20
871.17	1566.70
871.33	1578.98
871.50	1499.11
871.67	1443.82
871.83	1470.44
872.00	1626.09
872.17	1511.40
872.33	1578.98
872.50	1535.98
872.67	1503.21
872.83	1476.59
873.00	1609.70
873.17	1572.84
873.33	1589.22
873.50	1568.74
873.67	1495.02
873.83	1462.25
874.00	1552.36
874.16	1581.03
874.33	1529.83
874.50	1495.02
874.66	1535.98
874.83	1572.84
875.00	1566.70
875.16	1564.65
875.33	1644.52
875.50	1492.97
875.66	1591.27
875.83	1556.46
875.99	1581.03
876.16	1535.98
876.33	1492.97
876.49	1574.89
876.66	1533.93
876.83	1529.83
876.99	1486.83
877.16	1583.08
877.32	1480.68
877.49	1511.40
877.66	1521.64
877.82	1630.18
877.99	1458.15
878.15	1523.69
878.32	1462.25
878.49	1495.02
878.65	1581.03
878.82	1585.13
878.98	1495.02
879.15	1562.60
879.32	1564.65
879.48	1632.23
879.65	1480.68
879.81	1427.43
879.98	1542.12
880.15	1484.78
880.31	1566.70
880.48	1542.12
880.64	1562.60
880.81	1538.02
880.97	1624.04
881.14	1624.04
881.31	1470.44
881.47	1615.85
881.64	1433.58
881.80	1449.96
881.97	1535.98
882.13	1634.28
882.30	1554.41
882.47	1632.23
882.63	1462.25
882.80	1497.07
882.96	1513.45
883.13	1587.18
883.29	1484.78
883.46	1593.32
883.62	1693.67
883.79	1535.98
883.95	1560.55
884.12	1597.42
884.29	1560.55
884.45	1533.93
884.62	1535.98
884.78	1482.73
884.95	1630.18
885.11	1488.87
885.28	1511.40
885.44	1476.59
885.61	1634.28
885.77	1611.75
885.94	1566.70
886.10	1587.18
886.27	1531.88
886.43	1615.85
886.60	1578.98
886.76	1554.41
886.93	1484.78
887.09	1613.80
887.26	1497.07
887.42	1490.92
887.59	1562.60
887.75	1603.56
887.92	1568.74
888.08	1566.70
888.25	1638.38
888.41	1638.38
888.58	1511.40
888.74	1470.44
888.91	1484.78
>>>>>End Processed Spectral Data<<<<<
