SpectraSuite Data File
++++++++++++++++++++++++++++++++++++
Date: Tue May 03 12:55:42 CEST 2016
User: root
Dark Spectrum Present: No
Reference Spectrum Present: No
Number of Sampled Component Spectra: 1
Spectrometers: USB4C02835
Integration Time (usec): 100000 (USB4C02835)
Spectra Averaged: 1 (USB4C02835)
Boxcar Smoothing: 0 (USB4C02835)
Correct for Electrical Dark: No (USB4C02835)
Strobe/Lamp Enabled: No (USB4C02835)
Correct for Detector Non-linearity: No (USB4C02835)
Correct for Stray Light: No (USB4C02835)
Number of Pixels in Processed Spectrum: 3648
>>>>>Begin Processed Spectral Data<<<<<
177.47	1366.00
177.69	1366.00
177.91	1366.00
178.13	1363.95
178.36	1327.08
178.58	1474.54
178.80	1621.99
179.02	1558.50
179.24	1525.74
179.46	1554.41
179.68	1607.66
179.90	1501.16
180.13	1519.59
180.35	1443.82
180.57	1540.07
180.79	1583.08
181.01	1470.44
181.23	1538.02
181.45	1562.60
181.67	1513.45
181.90	1566.70
182.12	1464.30
182.34	1566.70
182.56	1562.60
182.78	1574.89
183.00	1435.63
183.22	1497.07
183.44	1441.77
183.66	1689.57
183.89	1548.26
184.11	1499.11
184.33	1507.30
184.55	1581.03
184.77	1603.56
184.99	1572.84
185.21	1478.63
185.43	1546.22
185.65	1548.26
185.87	1529.83
186.10	1652.71
186.32	1638.38
186.54	1630.18
186.76	1638.38
186.98	1581.03
187.20	1505.26
187.42	1662.95
187.64	1517.54
187.86	1533.93
188.08	1564.65
188.30	1542.12
188.52	1525.74
188.75	1566.70
188.97	1589.22
189.19	1452.01
189.41	1503.21
189.63	1499.11
189.85	1505.26
190.07	1452.01
190.29	1519.59
190.51	1560.55
190.73	1462.25
190.95	1626.09
191.17	1519.59
191.39	1556.46
191.61	1587.18
191.84	1427.43
192.06	1513.45
192.28	1521.64
192.50	1656.81
192.72	1521.64
192.94	1527.78
193.16	1554.41
193.38	1533.93
193.60	1517.54
193.82	1533.93
194.04	1599.46
194.26	1585.13
194.48	1523.69
194.70	1492.97
194.92	1501.16
195.14	1548.26
195.36	1478.63
195.58	1585.13
195.80	1531.88
196.02	1495.02
196.24	1558.50
196.46	1624.04
196.69	1527.78
196.91	1650.66
197.13	1634.28
197.35	1531.88
197.57	1593.32
197.79	1603.56
198.01	1568.74
198.23	1519.59
198.45	1476.59
198.67	1538.02
198.89	1595.37
199.11	1519.59
199.33	1511.40
199.55	1476.59
199.77	1533.93
199.99	1603.56
200.21	1552.36
200.43	1570.79
200.65	1488.87
200.87	1417.19
201.09	1544.17
201.31	1474.54
201.53	1576.94
201.75	1593.32
201.97	1566.70
202.19	1515.50
202.41	1585.13
202.63	1677.29
202.85	1576.94
203.07	1535.98
203.29	1562.60
203.51	1482.73
203.73	1527.78
203.95	1683.43
204.17	1568.74
204.39	1605.61
204.61	1468.39
204.83	1601.51
205.05	1595.37
205.27	1533.93
205.49	1609.70
205.71	1585.13
205.93	1503.21
206.15	1554.41
206.37	1570.79
206.59	1574.89
206.81	1445.87
207.03	1535.98
207.25	1437.67
207.47	1632.23
207.69	1509.35
207.91	1574.89
208.13	1578.98
208.34	1447.91
208.56	1486.83
208.78	1566.70
209.00	1525.74
209.22	1513.45
209.44	1538.02
209.66	1515.50
209.88	1570.79
210.10	1519.59
210.32	1505.26
210.54	1593.32
210.76	1517.54
210.98	1603.56
211.20	1509.35
211.42	1540.07
211.64	1581.03
211.86	1525.74
212.08	1548.26
212.30	1525.74
212.52	1529.83
212.74	1544.17
212.96	1562.60
213.17	1613.80
213.39	1593.32
213.61	1619.94
213.83	1589.22
214.05	1472.49
214.27	1570.79
214.49	1404.91
214.71	1535.98
214.93	1589.22
215.15	1546.22
215.37	1611.75
215.59	1462.25
215.81	1505.26
216.03	1581.03
216.24	1505.26
216.46	1538.02
216.68	1542.12
216.90	1548.26
217.12	1554.41
217.34	1568.74
217.56	1531.88
217.78	1554.41
218.00	1603.56
218.22	1513.45
218.44	1476.59
218.66	1576.94
218.87	1634.28
219.09	1550.31
219.31	1535.98
219.53	1560.55
219.75	1505.26
219.97	1607.66
220.19	1576.94
220.41	1572.84
220.63	1648.61
220.85	1533.93
221.06	1531.88
221.28	1572.84
221.50	1564.65
221.72	1550.31
221.94	1650.66
222.16	1525.74
222.38	1646.57
222.60	1589.22
222.82	1513.45
223.03	1554.41
223.25	1464.30
223.47	1587.18
223.69	1658.85
223.91	1519.59
224.13	1484.78
224.35	1445.87
224.57	1593.32
224.78	1527.78
225.00	1486.83
225.22	1511.40
225.44	1617.90
225.66	1611.75
225.88	1497.07
226.10	1531.88
226.32	1560.55
226.53	1603.56
226.75	1538.02
226.97	1560.55
227.19	1544.17
227.41	1583.08
227.63	1570.79
227.85	1441.77
228.06	1531.88
228.28	1404.91
228.50	1660.90
228.72	1501.16
228.94	1554.41
229.16	1456.11
229.37	1511.40
229.59	1538.02
229.81	1593.32
230.03	1562.60
230.25	1505.26
230.47	1509.35
230.69	1445.87
230.90	1566.70
231.12	1488.87
231.34	1533.93
231.56	1576.94
231.78	1521.64
232.00	1589.22
232.21	1492.97
232.43	1495.02
232.65	1427.43
232.87	1560.55
233.09	1556.46
233.30	1462.25
233.52	1511.40
233.74	1548.26
233.96	1560.55
234.18	1617.90
234.40	1621.99
234.61	1642.47
234.83	1538.02
235.05	1488.87
235.27	1671.14
235.49	1591.27
235.70	1656.81
235.92	1662.95
236.14	1548.26
236.36	1644.52
236.58	1529.83
236.79	1613.80
237.01	1560.55
237.23	1560.55
237.45	1640.42
237.67	1501.16
237.88	1519.59
238.10	1558.50
238.32	1517.54
238.54	1478.63
238.76	1447.91
238.97	1544.17
239.19	1538.02
239.41	1628.14
239.63	1624.04
239.85	1521.64
240.06	1503.21
240.28	1527.78
240.50	1603.56
240.72	1572.84
240.93	1484.78
241.15	1607.66
241.37	1519.59
241.59	1640.42
241.81	1576.94
242.02	1540.07
242.24	1501.16
242.46	1570.79
242.68	1550.31
242.89	1607.66
243.11	1667.05
243.33	1484.78
243.55	1593.32
243.76	1576.94
243.98	1533.93
244.20	1533.93
244.42	1558.50
244.64	1486.83
244.85	1515.50
245.07	1478.63
245.29	1550.31
245.51	1538.02
245.72	1544.17
245.94	1488.87
246.16	1476.59
246.38	1564.65
246.59	1525.74
246.81	1509.35
247.03	1488.87
247.24	1425.39
247.46	1574.89
247.68	1497.07
247.90	1542.12
248.11	1503.21
248.33	1566.70
248.55	1544.17
248.77	1540.07
248.98	1548.26
249.20	1673.19
249.42	1517.54
249.64	1587.18
249.85	1533.93
250.07	1499.11
250.29	1548.26
250.50	1558.50
250.72	1449.96
250.94	1535.98
251.16	1576.94
251.37	1636.33
251.59	1484.78
251.81	1517.54
252.02	1607.66
252.24	1560.55
252.46	1591.27
252.68	1495.02
252.89	1533.93
253.11	1447.91
253.33	1564.65
253.54	1617.90
253.76	1406.95
253.98	1556.46
254.20	1587.18
254.41	1456.11
254.63	1533.93
254.85	1507.30
255.06	1505.26
255.28	1574.89
255.50	1476.59
255.71	1521.64
255.93	1507.30
256.15	1576.94
256.36	1617.90
256.58	1562.60
256.80	1603.56
257.02	1531.88
257.23	1605.61
257.45	1517.54
257.67	1533.93
257.88	1531.88
258.10	1624.04
258.32	1529.83
258.53	1517.54
258.75	1591.27
258.97	1517.54
259.18	1515.50
259.40	1558.50
259.62	1587.18
259.83	1546.22
260.05	1691.62
260.27	1763.30
260.48	1538.02
260.70	1490.92
260.92	1562.60
261.13	1585.13
261.35	1607.66
261.57	1548.26
261.78	1468.39
262.00	1523.69
262.22	1513.45
262.43	1439.72
262.65	1548.26
262.86	1558.50
263.08	1583.08
263.30	1525.74
263.51	1474.54
263.73	1523.69
263.95	1570.79
264.16	1544.17
264.38	1535.98
264.60	1535.98
264.81	1540.07
265.03	1519.59
265.25	1509.35
265.46	1568.74
265.68	1605.61
265.89	1499.11
266.11	1527.78
266.33	1566.70
266.54	1570.79
266.76	1576.94
266.98	1540.07
267.19	1570.79
267.41	1564.65
267.62	1486.83
267.84	1468.39
268.06	1583.08
268.27	1474.54
268.49	1583.08
268.70	1546.22
268.92	1503.21
269.14	1515.50
269.35	1431.53
269.57	1505.26
269.79	1542.12
270.00	1517.54
270.22	1609.70
270.43	1449.96
270.65	1458.15
270.87	1478.63
271.08	1554.41
271.30	1550.31
271.51	1576.94
271.73	1538.02
271.95	1646.57
272.16	1527.78
272.38	1523.69
272.59	1554.41
272.81	1521.64
273.02	1476.59
273.24	1611.75
273.46	1609.70
273.67	1505.26
273.89	1472.49
274.10	1466.35
274.32	1499.11
274.54	1570.79
274.75	1552.36
274.97	1458.15
275.18	1570.79
275.40	1566.70
275.61	1554.41
275.83	1599.46
276.05	1499.11
276.26	1562.60
276.48	1624.04
276.69	1576.94
276.91	1497.07
277.12	1626.09
277.34	1535.98
277.55	1576.94
277.77	1560.55
277.99	1419.24
278.20	1576.94
278.42	1464.30
278.63	1531.88
278.85	1556.46
279.06	1472.49
279.28	1509.35
279.49	1603.56
279.71	1611.75
279.93	1566.70
280.14	1578.98
280.36	1501.16
280.57	1617.90
280.79	1603.56
281.00	1480.68
281.22	1564.65
281.43	1521.64
281.65	1439.72
281.86	1478.63
282.08	1488.87
282.29	1591.27
282.51	1540.07
282.73	1488.87
282.94	1476.59
283.16	1558.50
283.37	1540.07
283.59	1521.64
283.80	1544.17
284.02	1517.54
284.23	1611.75
284.45	1484.78
284.66	1454.06
284.88	1439.72
285.09	1578.98
285.31	1583.08
285.52	1476.59
285.74	1497.07
285.95	1576.94
286.17	1560.55
286.38	1595.37
286.60	1517.54
286.81	1554.41
287.03	1507.30
287.24	1507.30
287.46	1607.66
287.67	1488.87
287.89	1585.13
288.10	1570.79
288.32	1488.87
288.53	1597.42
288.75	1583.08
288.96	1648.61
289.18	1456.11
289.39	1523.69
289.61	1538.02
289.82	1624.04
290.04	1662.95
290.25	1558.50
290.47	1550.31
290.68	1550.31
290.90	1640.42
291.11	1460.20
291.33	1548.26
291.54	1540.07
291.76	1521.64
291.97	1495.02
292.18	1540.07
292.40	1515.50
292.61	1468.39
292.83	1595.37
293.04	1552.36
293.26	1546.22
293.47	1544.17
293.69	1435.63
293.90	1578.98
294.12	1550.31
294.33	1568.74
294.55	1552.36
294.76	1621.99
294.97	1597.42
295.19	1693.67
295.40	1607.66
295.62	1521.64
295.83	1560.55
296.05	1525.74
296.26	1562.60
296.48	1525.74
296.69	1566.70
296.90	1558.50
297.12	1548.26
297.33	1597.42
297.55	1488.87
297.76	1583.08
297.98	1566.70
298.19	1535.98
298.41	1538.02
298.62	1452.01
298.83	1558.50
299.05	1585.13
299.26	1511.40
299.48	1431.53
299.69	1525.74
299.90	1556.46
300.12	1513.45
300.33	1589.22
300.55	1529.83
300.76	1531.88
300.98	1449.96
301.19	1597.42
301.40	1501.16
301.62	1519.59
301.83	1574.89
302.05	1572.84
302.26	1527.78
302.47	1503.21
302.69	1486.83
302.90	1523.69
303.12	1454.06
303.33	1593.32
303.54	1689.57
303.76	1515.50
303.97	1535.98
304.19	1521.64
304.40	1515.50
304.61	1591.27
304.83	1591.27
305.04	1593.32
305.26	1587.18
305.47	1476.59
305.68	1509.35
305.90	1421.29
306.11	1574.89
306.33	1564.65
306.54	1574.89
306.75	1454.06
306.97	1466.35
307.18	1404.91
307.39	1452.01
307.61	1554.41
307.82	1513.45
308.04	1562.60
308.25	1464.30
308.46	1527.78
308.68	1515.50
308.89	1529.83
309.10	1538.02
309.32	1535.98
309.53	1492.97
309.74	1505.26
309.96	1548.26
310.17	1564.65
310.39	1538.02
310.60	1591.27
310.81	1505.26
311.03	1507.30
311.24	1613.80
311.45	1492.97
311.67	1621.99
311.88	1503.21
312.09	1517.54
312.31	1540.07
312.52	1599.46
312.73	1568.74
312.95	1492.97
313.16	1495.02
313.37	1544.17
313.59	1509.35
313.80	1587.18
314.01	1568.74
314.23	1531.88
314.44	1468.39
314.65	1456.11
314.87	1456.11
315.08	1583.08
315.29	1507.30
315.51	1464.30
315.72	1509.35
315.93	1599.46
316.15	1593.32
316.36	1546.22
316.57	1497.07
316.79	1525.74
317.00	1468.39
317.21	1576.94
317.43	1548.26
317.64	1562.60
317.85	1499.11
318.07	1544.17
318.28	1609.70
318.49	1703.91
318.70	1816.55
318.92	1683.43
319.13	1734.63
319.34	1757.16
319.56	1705.96
319.77	1703.91
319.98	1675.24
320.20	1656.81
320.41	1576.94
320.62	1548.26
320.83	1556.46
321.05	1597.42
321.26	1560.55
321.47	1529.83
321.69	1613.80
321.90	1439.72
322.11	1540.07
322.32	1552.36
322.54	1619.94
322.75	1433.58
322.96	1615.85
323.18	1509.35
323.39	1380.33
323.60	1527.78
323.81	1677.29
324.03	1433.58
324.24	1519.59
324.45	1564.65
324.66	1523.69
324.88	1583.08
325.09	1603.56
325.30	1533.93
325.52	1593.32
325.73	1601.51
325.94	1486.83
326.15	1572.84
326.37	1535.98
326.58	1650.66
326.79	1581.03
327.00	1515.50
327.22	1517.54
327.43	1581.03
327.64	1443.82
327.85	1572.84
328.07	1646.57
328.28	1593.32
328.49	1503.21
328.70	1527.78
328.92	1535.98
329.13	1560.55
329.34	1611.75
329.55	1632.23
329.76	1591.27
329.98	1437.67
330.19	1603.56
330.40	1581.03
330.61	1550.31
330.83	1621.99
331.04	1454.06
331.25	1576.94
331.46	1507.30
331.68	1398.76
331.89	1595.37
332.10	1531.88
332.31	1517.54
332.52	1574.89
332.74	1599.46
332.95	1507.30
333.16	1552.36
333.37	1572.84
333.58	1538.02
333.80	1564.65
334.01	1476.59
334.22	1474.54
334.43	1501.16
334.64	1533.93
334.86	1488.87
335.07	1492.97
335.28	1533.93
335.49	1492.97
335.70	1513.45
335.92	1576.94
336.13	1671.14
336.34	1554.41
336.55	1562.60
336.76	1548.26
336.98	1511.40
337.19	1513.45
337.40	1619.94
337.61	1574.89
337.82	1576.94
338.04	1531.88
338.25	1449.96
338.46	1505.26
338.67	1578.98
338.88	1552.36
339.09	1478.63
339.31	1624.04
339.52	1544.17
339.73	1437.67
339.94	1646.57
340.15	1519.59
340.36	1564.65
340.58	1523.69
340.79	1535.98
341.00	1562.60
341.21	1568.74
341.42	1578.98
341.63	1501.16
341.85	1523.69
342.06	1542.12
342.27	1503.21
342.48	1550.31
342.69	1478.63
342.90	1589.22
343.12	1599.46
343.33	1523.69
343.54	1591.27
343.75	1570.79
343.96	1550.31
344.17	1462.25
344.38	1550.31
344.60	1554.41
344.81	1458.15
345.02	1468.39
345.23	1570.79
345.44	1656.81
345.65	1437.67
345.86	1558.50
346.07	1503.21
346.29	1556.46
346.50	1585.13
346.71	1509.35
346.92	1603.56
347.13	1650.66
347.34	1492.97
347.55	1542.12
347.76	1497.07
347.98	1548.26
348.19	1525.74
348.40	1609.70
348.61	1519.59
348.82	1654.76
349.03	1572.84
349.24	1544.17
349.45	1652.71
349.66	1476.59
349.88	1548.26
350.09	1505.26
350.30	1566.70
350.51	1533.93
350.72	1628.14
350.93	1566.70
351.14	1509.35
351.35	1581.03
351.56	1591.27
351.77	1554.41
351.99	1527.78
352.20	1589.22
352.41	1617.90
352.62	1497.07
352.83	1583.08
353.04	1566.70
353.25	1507.30
353.46	1546.22
353.67	1554.41
353.88	1460.20
354.09	1589.22
354.30	1503.21
354.52	1609.70
354.73	1505.26
354.94	1490.92
355.15	1591.27
355.36	1656.81
355.57	1581.03
355.78	1548.26
355.99	1515.50
356.20	1517.54
356.41	1538.02
356.62	1538.02
356.83	1519.59
357.04	1542.12
357.25	1460.20
357.46	1562.60
357.68	1509.35
357.89	1478.63
358.10	1490.92
358.31	1593.32
358.52	1515.50
358.73	1470.44
358.94	1421.29
359.15	1511.40
359.36	1646.57
359.57	1548.26
359.78	1452.01
359.99	1566.70
360.20	1443.82
360.41	1548.26
360.62	1578.98
360.83	1527.78
361.04	1564.65
361.25	1591.27
361.46	1613.80
361.67	1599.46
361.88	1615.85
362.09	1589.22
362.30	1486.83
362.51	1552.36
362.72	1587.18
362.93	1556.46
363.14	1562.60
363.35	1601.51
363.56	1439.72
363.78	1538.02
363.99	1630.18
364.20	1460.20
364.41	1548.26
364.62	1583.08
364.83	1546.22
365.04	1511.40
365.25	1505.26
365.46	1724.39
365.67	1478.63
365.88	1456.11
366.09	1521.64
366.30	1474.54
366.51	1517.54
366.72	1488.87
366.93	1531.88
367.14	1531.88
367.35	1568.74
367.56	1544.17
367.77	1566.70
367.98	1538.02
368.18	1527.78
368.39	1609.70
368.60	1443.82
368.81	1599.46
369.02	1476.59
369.23	1515.50
369.44	1486.83
369.65	1562.60
369.86	1550.31
370.07	1660.90
370.28	1449.96
370.49	1572.84
370.70	1566.70
370.91	1503.21
371.12	1527.78
371.33	1548.26
371.54	1533.93
371.75	1656.81
371.96	1400.81
372.17	1519.59
372.38	1517.54
372.59	1599.46
372.80	1505.26
373.01	1441.77
373.22	1523.69
373.43	1640.42
373.64	1415.15
373.85	1595.37
374.06	1560.55
374.26	1605.61
374.47	1533.93
374.68	1601.51
374.89	1570.79
375.10	1523.69
375.31	1605.61
375.52	1562.60
375.73	1572.84
375.94	1486.83
376.15	1576.94
376.36	1468.39
376.57	1484.78
376.78	1497.07
376.99	1509.35
377.20	1685.48
377.40	1486.83
377.61	1599.46
377.82	1515.50
378.03	1560.55
378.24	1556.46
378.45	1486.83
378.66	1564.65
378.87	1484.78
379.08	1519.59
379.29	1564.65
379.50	1624.04
379.71	1544.17
379.91	1591.27
380.12	1476.59
380.33	1535.98
380.54	1597.42
380.75	1538.02
380.96	1505.26
381.17	1564.65
381.38	1533.93
381.59	1517.54
381.80	1597.42
382.00	1640.42
382.21	1558.50
382.42	1628.14
382.63	1738.73
382.84	1576.94
383.05	1581.03
383.26	1570.79
383.47	1576.94
383.68	1585.13
383.88	1552.36
384.09	1501.16
384.30	1650.66
384.51	1566.70
384.72	1460.20
384.93	1558.50
385.14	1531.88
385.35	1671.14
385.55	1495.02
385.76	1566.70
385.97	1515.50
386.18	1531.88
386.39	1501.16
386.60	1511.40
386.81	1523.69
387.02	1497.07
387.22	1548.26
387.43	1587.18
387.64	1634.28
387.85	1877.99
388.06	3098.58
388.27	7212.95
388.48	10547.04
388.68	12640.06
388.89	13889.32
389.10	12916.54
389.31	10209.12
389.52	8980.34
389.73	7901.06
389.93	7128.98
390.14	6719.39
390.35	6115.23
390.56	5588.91
390.77	4622.27
390.98	3624.90
391.18	2756.57
391.39	2228.19
391.60	1822.69
391.81	1652.71
392.02	1529.83
392.23	1669.09
392.43	1574.89
392.64	1669.09
392.85	1542.12
393.06	1568.74
393.27	1542.12
393.47	1515.50
393.68	1542.12
393.89	1599.46
394.10	1511.40
394.31	1544.17
394.52	1488.87
394.72	1583.08
394.93	1599.46
395.14	1515.50
395.35	1552.36
395.56	1562.60
395.76	1615.85
395.97	1679.33
396.18	1679.33
396.39	1759.21
396.60	1933.28
396.80	1738.73
397.01	1718.25
397.22	1687.53
397.43	1665.00
397.64	1585.13
397.84	1621.99
398.05	1648.61
398.26	1624.04
398.47	1648.61
398.67	1617.90
398.88	1574.89
399.09	1566.70
399.30	1533.93
399.51	1607.66
399.71	1519.59
399.92	1525.74
400.13	1533.93
400.34	1540.07
400.54	1505.26
400.75	1613.80
400.96	1531.88
401.17	1587.18
401.37	1591.27
401.58	1525.74
401.79	1662.95
402.00	1818.60
402.21	1994.72
402.41	1875.94
402.62	1869.80
402.83	1951.71
403.04	1802.21
403.24	1902.56
403.45	1691.62
403.66	1734.63
403.87	1734.63
404.07	1701.86
404.28	1783.78
404.49	1695.72
404.70	1677.29
404.90	1650.66
405.11	1650.66
405.32	1519.59
405.52	1597.42
405.73	1511.40
405.94	1495.02
406.15	1550.31
406.35	1531.88
406.56	1693.67
406.77	1535.98
406.98	1538.02
407.18	1507.30
407.39	1531.88
407.60	1476.59
407.80	1517.54
408.01	1523.69
408.22	1552.36
408.43	1490.92
408.63	1585.13
408.84	1585.13
409.05	1607.66
409.25	1495.02
409.46	1443.82
409.67	1480.68
409.88	1548.26
410.08	1591.27
410.29	1513.45
410.50	1570.79
410.70	1497.07
410.91	1527.78
411.12	1533.93
411.32	1621.99
411.53	1550.31
411.74	1710.05
411.95	1640.42
412.15	1621.99
412.36	1593.32
412.57	1533.93
412.77	1652.71
412.98	1548.26
413.19	1662.95
413.39	1546.22
413.60	1527.78
413.81	1644.52
414.01	1525.74
414.22	1603.56
414.43	1576.94
414.63	1540.07
414.84	1626.09
415.05	1521.64
415.25	1464.30
415.46	1581.03
415.67	1470.44
415.87	1603.56
416.08	1558.50
416.29	1480.68
416.49	1644.52
416.70	1472.49
416.91	1533.93
417.11	1564.65
417.32	1652.71
417.53	1552.36
417.73	1587.18
417.94	1654.76
418.15	1578.98
418.35	1578.98
418.56	1540.07
418.77	1640.42
418.97	1550.31
419.18	1540.07
419.38	1390.57
419.59	1560.55
419.80	1650.66
420.00	1452.01
420.21	1583.08
420.42	1574.89
420.62	1527.78
420.83	1474.54
421.04	1472.49
421.24	1562.60
421.45	1619.94
421.65	1535.98
421.86	1548.26
422.07	1566.70
422.27	1552.36
422.48	1564.65
422.69	1476.59
422.89	1581.03
423.10	1535.98
423.30	1529.83
423.51	1521.64
423.72	1556.46
423.92	1593.32
424.13	1558.50
424.33	1460.20
424.54	1581.03
424.75	1617.90
424.95	1605.61
425.16	1523.69
425.36	1468.39
425.57	1593.32
425.78	1576.94
425.98	1599.46
426.19	1460.20
426.39	1517.54
426.60	1558.50
426.81	1566.70
427.01	1548.26
427.22	1525.74
427.42	1462.25
427.63	1566.70
427.83	1595.37
428.04	1560.55
428.25	1636.33
428.45	1562.60
428.66	1576.94
428.86	1484.78
429.07	1533.93
429.28	1574.89
429.48	1482.73
429.69	1515.50
429.89	1445.87
430.10	1431.53
430.30	1540.07
430.51	1615.85
430.71	1484.78
430.92	1519.59
431.13	1472.49
431.33	1546.22
431.54	1572.84
431.74	1572.84
431.95	1566.70
432.15	1566.70
432.36	1538.02
432.56	1601.51
432.77	1578.98
432.98	1628.14
433.18	1595.37
433.39	1484.78
433.59	1574.89
433.80	1656.81
434.00	1621.99
434.21	1540.07
434.41	1517.54
434.62	1699.81
434.82	1519.59
435.03	1501.16
435.23	1548.26
435.44	1478.63
435.64	1581.03
435.85	1497.07
436.06	1570.79
436.26	1572.84
436.47	1568.74
436.67	1560.55
436.88	1624.04
437.08	1634.28
437.29	1570.79
437.49	1566.70
437.70	1509.35
437.90	1585.13
438.11	1626.09
438.31	1597.42
438.52	1746.92
438.72	1726.44
438.93	1738.73
439.13	1574.89
439.34	1712.10
439.54	1544.17
439.75	1632.23
439.95	1535.98
440.16	1505.26
440.36	1576.94
440.57	1591.27
440.77	1654.76
440.98	1626.09
441.18	1603.56
441.39	1482.73
441.59	1482.73
441.80	1599.46
442.00	1634.28
442.21	1617.90
442.41	1517.54
442.62	1581.03
442.82	1525.74
443.02	1488.87
443.23	1525.74
443.43	1525.74
443.64	1587.18
443.84	1501.16
444.05	1624.04
444.25	1578.98
444.46	1562.60
444.66	1570.79
444.87	1630.18
445.07	1474.54
445.28	1533.93
445.48	1624.04
445.69	1636.33
445.89	1638.38
446.09	1556.46
446.30	1996.77
446.50	3108.82
446.71	4513.72
446.91	5164.98
447.12	5746.60
447.32	5429.17
447.53	4655.03
447.73	4057.03
447.93	3598.28
448.14	3291.09
448.34	3215.31
448.55	2926.55
448.75	2908.12
448.96	2736.09
449.16	2492.38
449.36	2322.40
449.57	1984.48
449.77	1740.77
449.98	1656.81
450.18	1654.76
450.39	1572.84
450.59	1578.98
450.79	1533.93
451.00	1509.35
451.20	1619.94
451.41	1529.83
451.61	1630.18
451.81	1525.74
452.02	1495.02
452.22	1474.54
452.43	1556.46
452.63	1488.87
452.84	1648.61
453.04	1548.26
453.24	1521.64
453.45	1554.41
453.65	1585.13
453.86	1560.55
454.06	1533.93
454.26	1591.27
454.47	1544.17
454.67	1546.22
454.87	1650.66
455.08	1515.50
455.28	1667.05
455.49	1521.64
455.69	1476.59
455.89	1581.03
456.10	1667.05
456.30	1611.75
456.51	1542.12
456.71	1458.15
456.91	1607.66
457.12	1474.54
457.32	1511.40
457.52	1497.07
457.73	1566.70
457.93	1548.26
458.14	1478.63
458.34	1568.74
458.54	1519.59
458.75	1484.78
458.95	1560.55
459.15	1583.08
459.36	1558.50
459.56	1527.78
459.76	1693.67
459.97	1599.46
460.17	1566.70
460.37	1527.78
460.58	1517.54
460.78	1458.15
460.99	1464.30
461.19	1490.92
461.39	1499.11
461.60	1480.68
461.80	1591.27
462.00	1472.49
462.21	1546.22
462.41	1490.92
462.61	1570.79
462.82	1433.58
463.02	1638.38
463.22	1533.93
463.43	1544.17
463.63	1538.02
463.83	1574.89
464.04	1576.94
464.24	1509.35
464.44	1519.59
464.64	1531.88
464.85	1503.21
465.05	1550.31
465.25	1558.50
465.46	1560.55
465.66	1501.16
465.86	1585.13
466.07	1585.13
466.27	1574.89
466.47	1497.07
466.68	1472.49
466.88	1568.74
467.08	1581.03
467.29	1546.22
467.49	1601.51
467.69	1517.54
467.89	1542.12
468.10	1583.08
468.30	1572.84
468.50	1581.03
468.71	1658.85
468.91	1478.63
469.11	1595.37
469.31	1437.67
469.52	1517.54
469.72	1621.99
469.92	1634.28
470.13	1495.02
470.33	1574.89
470.53	1724.39
470.73	2029.54
470.94	2402.27
471.14	2445.27
471.34	2619.35
471.54	2408.41
471.75	2238.43
471.95	2123.74
472.15	1882.08
472.36	1966.05
472.56	1910.75
472.76	1968.10
472.96	1880.04
473.17	1763.30
473.37	1800.16
473.57	1677.29
473.77	1599.46
473.98	1589.22
474.18	1527.78
474.38	1665.00
474.58	1527.78
474.79	1564.65
474.99	1619.94
475.19	1603.56
475.39	1566.70
475.60	1550.31
475.80	1466.35
476.00	1554.41
476.20	1511.40
476.41	1568.74
476.61	1617.90
476.81	1529.83
477.01	1484.78
477.21	1619.94
477.42	1589.22
477.62	1509.35
477.82	1599.46
478.02	1531.88
478.23	1568.74
478.43	1515.50
478.63	1581.03
478.83	1550.31
479.03	1533.93
479.24	1619.94
479.44	1538.02
479.64	1535.98
479.84	1443.82
480.04	1478.63
480.25	1599.46
480.45	1509.35
480.65	1525.74
480.85	1652.71
481.06	1478.63
481.26	1642.47
481.46	1560.55
481.66	1613.80
481.86	1554.41
482.06	1662.95
482.27	1529.83
482.47	1505.26
482.67	1542.12
482.87	1482.73
483.07	1736.68
483.28	1527.78
483.48	1492.97
483.68	1568.74
483.88	1505.26
484.08	1480.68
484.29	1519.59
484.49	1509.35
484.69	1523.69
484.89	1564.65
485.09	1589.22
485.29	1505.26
485.50	1642.47
485.70	1452.01
485.90	1626.09
486.10	1570.79
486.30	1548.26
486.50	1581.03
486.71	1578.98
486.91	1597.42
487.11	1628.14
487.31	1466.35
487.51	1535.98
487.71	1505.26
487.91	1505.26
488.12	1460.20
488.32	1427.43
488.52	1574.89
488.72	1454.06
488.92	1507.30
489.12	1624.04
489.32	1554.41
489.53	1554.41
489.73	1523.69
489.93	1605.61
490.13	1581.03
490.33	1554.41
490.53	1642.47
490.73	1562.60
490.94	1519.59
491.14	1630.18
491.34	1697.77
491.54	2246.62
491.74	2627.54
491.94	3030.99
492.14	3344.33
492.34	3178.45
492.54	2856.92
492.75	2457.56
492.95	2432.99
493.15	2285.53
493.35	2213.85
493.55	2136.03
493.75	2039.78
493.95	2047.97
494.15	1869.80
494.35	1839.08
494.56	1806.31
494.76	1630.18
494.96	1638.38
495.16	1599.46
495.36	1581.03
495.56	1546.22
495.76	1566.70
495.96	1550.31
496.16	1482.73
496.36	1562.60
496.56	1464.30
496.77	1542.12
496.97	1531.88
497.17	1626.09
497.37	1513.45
497.57	1488.87
497.77	1560.55
497.97	1449.96
498.17	1507.30
498.37	1517.54
498.57	1607.66
498.77	1452.01
498.97	1648.61
499.17	1632.23
499.38	1560.55
499.58	1574.89
499.78	1695.72
499.98	1613.80
500.18	1503.21
500.38	1642.47
500.58	1738.73
500.78	2703.32
500.98	5185.46
501.18	6700.95
501.38	7950.21
501.58	8634.24
501.78	7985.03
501.98	6025.12
502.18	5359.53
502.38	4663.22
502.58	4122.56
502.78	3848.13
502.98	3725.26
503.18	3624.90
503.38	3303.37
503.59	3012.56
503.79	2820.05
503.99	2525.15
504.19	2230.24
504.39	2168.80
504.59	2027.49
504.79	2050.02
504.99	1882.08
505.19	1712.10
505.39	1742.82
505.59	1841.12
505.79	1712.10
505.99	1683.43
506.19	1681.38
506.39	1720.29
506.59	1595.37
506.79	1595.37
506.99	1665.00
507.19	1611.75
507.39	1609.70
507.59	1554.41
507.79	1574.89
507.99	1583.08
508.19	1595.37
508.39	1538.02
508.59	1615.85
508.79	1687.53
508.99	1642.47
509.19	1486.83
509.39	1603.56
509.59	1503.21
509.79	1562.60
509.99	1546.22
510.19	1581.03
510.39	1593.32
510.59	1605.61
510.79	1519.59
510.99	1458.15
511.19	1562.60
511.39	1529.83
511.59	1632.23
511.79	1634.28
511.99	1478.63
512.19	1624.04
512.38	1546.22
512.58	1531.88
512.78	1540.07
512.98	1564.65
513.18	1546.22
513.38	1501.16
513.58	1576.94
513.78	1560.55
513.98	1583.08
514.18	1495.02
514.38	1619.94
514.58	1572.84
514.78	1492.97
514.98	1521.64
515.18	1449.96
515.38	1458.15
515.58	1601.51
515.78	1519.59
515.98	1626.09
516.18	1535.98
516.38	1492.97
516.57	1490.92
516.77	1515.50
516.97	1501.16
517.17	1578.98
517.37	1435.63
517.57	1501.16
517.77	1568.74
517.97	1501.16
518.17	1595.37
518.37	1570.79
518.57	1474.54
518.77	1497.07
518.97	1591.27
519.16	1597.42
519.36	1609.70
519.56	1527.78
519.76	1574.89
519.96	1603.56
520.16	1576.94
520.36	1542.12
520.56	1572.84
520.76	1517.54
520.96	1542.12
521.16	1585.13
521.35	1597.42
521.55	1619.94
521.75	1611.75
521.95	1462.25
522.15	1511.40
522.35	1464.30
522.55	1480.68
522.75	1558.50
522.95	1538.02
523.14	1529.83
523.34	1533.93
523.54	1505.26
523.74	1527.78
523.94	1521.64
524.14	1482.73
524.34	1456.11
524.54	1634.28
524.73	1449.96
524.93	1544.17
525.13	1552.36
525.33	1406.95
525.53	1658.85
525.73	1486.83
525.93	1449.96
526.13	1513.45
526.32	1587.18
526.52	1562.60
526.72	1578.98
526.92	1556.46
527.12	1505.26
527.32	1484.78
527.52	1564.65
527.71	1601.51
527.91	1581.03
528.11	1501.16
528.31	1550.31
528.51	1437.67
528.71	1576.94
528.90	1515.50
529.10	1570.79
529.30	1558.50
529.50	1460.20
529.70	1454.06
529.90	1544.17
530.09	1478.63
530.29	1486.83
530.49	1509.35
530.69	1697.77
530.89	1619.94
531.09	1552.36
531.28	1583.08
531.48	1642.47
531.68	1566.70
531.88	1462.25
532.08	1509.35
532.28	1529.83
532.47	1585.13
532.67	1603.56
532.87	1558.50
533.07	1490.92
533.27	1546.22
533.46	1566.70
533.66	1540.07
533.86	1540.07
534.06	1513.45
534.26	1607.66
534.45	1542.12
534.65	1460.20
534.85	1619.94
535.05	1488.87
535.25	1581.03
535.44	1544.17
535.64	1599.46
535.84	1517.54
536.04	1550.31
536.24	1476.59
536.43	1435.63
536.63	1564.65
536.83	1581.03
537.03	1574.89
537.22	1476.59
537.42	1521.64
537.62	1550.31
537.82	1525.74
538.02	1617.90
538.21	1587.18
538.41	1646.57
538.61	1636.33
538.81	1562.60
539.00	1591.27
539.20	1445.87
539.40	1566.70
539.60	1554.41
539.79	1634.28
539.99	1503.21
540.19	1474.54
540.39	1544.17
540.58	1513.45
540.78	1574.89
540.98	1570.79
541.18	1544.17
541.37	1519.59
541.57	1521.64
541.77	1535.98
541.97	1470.44
542.16	1544.17
542.36	1576.94
542.56	1538.02
542.76	1630.18
542.95	1533.93
543.15	1568.74
543.35	1587.18
543.54	1468.39
543.74	1501.16
543.94	1568.74
544.14	1562.60
544.33	1597.42
544.53	1558.50
544.73	1558.50
544.93	1552.36
545.12	1562.60
545.32	1572.84
545.52	1454.06
545.71	1492.97
545.91	1503.21
546.11	1560.55
546.30	1499.11
546.50	1538.02
546.70	1552.36
546.90	1597.42
547.09	1484.78
547.29	1585.13
547.49	1550.31
547.68	1595.37
547.88	1566.70
548.08	1476.59
548.27	1918.95
548.47	1558.50
548.67	1474.54
548.87	1554.41
549.06	1601.51
549.26	1595.37
549.46	1511.40
549.65	1472.49
549.85	1507.30
550.05	1589.22
550.24	1495.02
550.44	1515.50
550.64	1576.94
550.83	1568.74
551.03	1611.75
551.23	1599.46
551.42	1490.92
551.62	1562.60
551.82	1570.79
552.01	1509.35
552.21	1607.66
552.41	1560.55
552.60	1648.61
552.80	1511.40
553.00	1497.07
553.19	1497.07
553.39	1576.94
553.59	1466.35
553.78	1589.22
553.98	1615.85
554.17	1519.59
554.37	1523.69
554.57	1529.83
554.76	1535.98
554.96	1533.93
555.16	1550.31
555.35	1552.36
555.55	1533.93
555.75	1458.15
555.94	1564.65
556.14	1505.26
556.33	1578.98
556.53	1544.17
556.73	1578.98
556.92	1576.94
557.12	1624.04
557.32	1603.56
557.51	1619.94
557.71	1566.70
557.90	1605.61
558.10	1605.61
558.30	1550.31
558.49	1531.88
558.69	1476.59
558.88	1632.23
559.08	1568.74
559.28	1511.40
559.47	1523.69
559.67	1576.94
559.86	1609.70
560.06	1585.13
560.26	1615.85
560.45	1505.26
560.65	1552.36
560.84	1550.31
561.04	1562.60
561.24	1542.12
561.43	1552.36
561.63	1675.24
561.82	1601.51
562.02	1574.89
562.22	1480.68
562.41	1480.68
562.61	1617.90
562.80	1513.45
563.00	1636.33
563.19	1538.02
563.39	1535.98
563.59	1603.56
563.78	1529.83
563.98	1443.82
564.17	1546.22
564.37	1435.63
564.56	1564.65
564.76	1472.49
564.96	1562.60
565.15	1591.27
565.35	1609.70
565.54	1587.18
565.74	1560.55
565.93	1613.80
566.13	1521.64
566.32	1507.30
566.52	1570.79
566.71	1581.03
566.91	1515.50
567.11	1609.70
567.30	1443.82
567.50	1570.79
567.69	1599.46
567.89	1607.66
568.08	1497.07
568.28	1495.02
568.47	1507.30
568.67	1574.89
568.86	1511.40
569.06	1529.83
569.25	1550.31
569.45	1474.54
569.64	1519.59
569.84	1503.21
570.04	1621.99
570.23	1533.93
570.43	1540.07
570.62	1519.59
570.82	1626.09
571.01	1449.96
571.21	1538.02
571.40	1443.82
571.60	1589.22
571.79	1556.46
571.99	1548.26
572.18	1581.03
572.38	1601.51
572.57	1621.99
572.77	1578.98
572.96	1654.76
573.16	1484.78
573.35	1576.94
573.55	1636.33
573.74	1667.05
573.94	1554.41
574.13	1558.50
574.33	1552.36
574.52	1558.50
574.71	1574.89
574.91	1626.09
575.10	1527.78
575.30	1476.59
575.49	1511.40
575.69	1484.78
575.88	1665.00
576.08	1558.50
576.27	1658.85
576.47	1650.66
576.66	1744.87
576.86	1576.94
577.05	1609.70
577.25	1587.18
577.44	1624.04
577.64	1484.78
577.83	1572.84
578.02	1648.61
578.22	1605.61
578.41	1660.90
578.61	1523.69
578.80	1480.68
579.00	1445.87
579.19	1619.94
579.39	1621.99
579.58	1638.38
579.77	1624.04
579.97	1609.70
580.16	1763.30
580.36	1652.71
580.55	1617.90
580.75	1525.74
580.94	1595.37
581.13	1624.04
581.33	1658.85
581.52	1660.90
581.72	1703.91
581.91	1705.96
582.11	1648.61
582.30	1710.05
582.49	1624.04
582.69	1652.71
582.88	1660.90
583.08	1595.37
583.27	1626.09
583.47	1554.41
583.66	1552.36
583.85	1568.74
584.05	1572.84
584.24	1603.56
584.44	1566.70
584.63	1613.80
584.82	1763.30
585.02	1746.92
585.21	1812.45
585.41	1701.86
585.60	1751.01
585.79	1859.56
585.99	1732.58
586.18	1755.11
586.37	2107.36
586.57	3219.41
586.76	9383.79
586.96	27188.83
587.15	43660.65
587.34	54115.53
587.54	60884.06
587.73	59352.18
587.93	43525.48
588.12	31905.31
588.31	25572.99
588.51	22159.02
588.70	19920.59
588.89	18282.22
589.09	17053.44
589.28	15157.02
589.47	13203.25
589.67	11067.22
589.86	8746.87
590.06	6717.34
590.25	5011.38
590.44	3841.99
590.64	2879.44
590.83	2328.54
591.02	2039.78
591.22	1794.02
591.41	1736.68
591.60	1730.53
591.80	1781.73
591.99	1615.85
592.18	1619.94
592.38	1658.85
592.57	1562.60
592.76	1558.50
592.96	1591.27
593.15	1593.32
593.34	1679.33
593.54	1615.85
593.73	1671.14
593.92	1611.75
594.12	1611.75
594.31	1695.72
594.50	1673.19
594.70	1701.86
594.89	1634.28
595.08	1478.63
595.28	1576.94
595.47	1683.43
595.66	1617.90
595.86	1552.36
596.05	1570.79
596.24	1480.68
596.43	1683.43
596.63	1605.61
596.82	1609.70
597.01	1642.47
597.21	1593.32
597.40	1595.37
597.59	1576.94
597.79	1591.27
597.98	1632.23
598.17	1548.26
598.36	1626.09
598.56	1585.13
598.75	1533.93
598.94	1605.61
599.14	1533.93
599.33	1558.50
599.52	1605.61
599.71	1652.71
599.91	1615.85
600.10	1572.84
600.29	1560.55
600.48	1626.09
600.68	1574.89
600.87	1568.74
601.06	1538.02
601.26	1513.45
601.45	1540.07
601.64	1589.22
601.83	1597.42
602.03	1564.65
602.22	1601.51
602.41	1683.43
602.60	1665.00
602.80	1587.18
602.99	1564.65
603.18	1523.69
603.37	1587.18
603.57	1517.54
603.76	1665.00
603.95	1488.87
604.14	1542.12
604.34	1564.65
604.53	1535.98
604.72	1529.83
604.91	1583.08
605.10	1566.70
605.30	1492.97
605.49	1638.38
605.68	1501.16
605.87	1548.26
606.07	1572.84
606.26	1626.09
606.45	1587.18
606.64	1513.45
606.84	1482.73
607.03	1568.74
607.22	1562.60
607.41	1642.47
607.60	1593.32
607.80	1648.61
607.99	1593.32
608.18	1636.33
608.37	1585.13
608.56	1583.08
608.76	1593.32
608.95	1613.80
609.14	1640.42
609.33	1716.20
609.52	1662.95
609.72	1642.47
609.91	1691.62
610.10	1630.18
610.29	1667.05
610.48	1603.56
610.68	1591.27
610.87	1585.13
611.06	1617.90
611.25	1535.98
611.44	1615.85
611.63	1611.75
611.83	1673.19
612.02	1490.92
612.21	1660.90
612.40	1480.68
612.59	1456.11
612.79	1398.76
612.98	1581.03
613.17	1613.80
613.36	1648.61
613.55	1531.88
613.74	1578.98
613.93	1646.57
614.13	1722.34
614.32	1812.45
614.51	1820.64
614.70	1677.29
614.89	1626.09
615.08	1677.29
615.28	1849.32
615.47	1554.41
615.66	1624.04
615.85	1626.09
616.04	1671.14
616.23	1550.31
616.42	1648.61
616.62	1705.96
616.81	1597.42
617.00	1578.98
617.19	1628.14
617.38	1576.94
617.57	1644.52
617.76	1550.31
617.95	1587.18
618.15	1601.51
618.34	1566.70
618.53	1550.31
618.72	1568.74
618.91	1660.90
619.10	1615.85
619.29	1566.70
619.48	1533.93
619.68	1538.02
619.87	1529.83
620.06	1411.05
620.25	1597.42
620.44	1538.02
620.63	1560.55
620.82	1558.50
621.01	1499.11
621.20	1554.41
621.39	1550.31
621.59	1593.32
621.78	1509.35
621.97	1552.36
622.16	1578.98
622.35	1566.70
622.54	1529.83
622.73	1642.47
622.92	1513.45
623.11	1564.65
623.30	1630.18
623.49	1507.30
623.68	1482.73
623.88	1578.98
624.07	1529.83
624.26	1558.50
624.45	1550.31
624.64	1548.26
624.83	1476.59
625.02	1574.89
625.21	1490.92
625.40	1499.11
625.59	1587.18
625.78	1495.02
625.97	1609.70
626.16	1724.39
626.35	1642.47
626.54	1621.99
626.74	1701.86
626.93	1535.98
627.12	1591.27
627.31	1648.61
627.50	1570.79
627.69	1615.85
627.88	1527.78
628.07	1478.63
628.26	1527.78
628.45	1515.50
628.64	1572.84
628.83	1552.36
629.02	1488.87
629.21	1519.59
629.40	1519.59
629.59	1495.02
629.78	1548.26
629.97	1624.04
630.16	1601.51
630.35	1523.69
630.54	1589.22
630.73	1542.12
630.92	1529.83
631.11	1527.78
631.30	1535.98
631.49	1615.85
631.68	1560.55
631.87	1621.99
632.06	1435.63
632.25	1617.90
632.44	1560.55
632.63	1542.12
632.82	1538.02
633.01	1531.88
633.20	1619.94
633.39	1679.33
633.58	1558.50
633.77	1665.00
633.96	1595.37
634.15	1619.94
634.34	1630.18
634.53	1562.60
634.72	1476.59
634.91	1503.21
635.10	1548.26
635.29	1648.61
635.48	1581.03
635.67	1515.50
635.86	1556.46
636.05	1597.42
636.24	1507.30
636.43	1558.50
636.62	1495.02
636.81	1425.39
637.00	1515.50
637.19	1521.64
637.38	1574.89
637.57	1499.11
637.76	1593.32
637.95	1626.09
638.14	1603.56
638.33	1617.90
638.52	1583.08
638.71	1542.12
638.89	1605.61
639.08	1677.29
639.27	1679.33
639.46	1732.58
639.65	1904.61
639.84	2052.06
640.03	2101.22
640.22	2170.85
640.41	2283.49
640.60	1976.29
640.79	1834.98
640.98	1791.97
641.17	1714.15
641.36	1804.26
641.55	1624.04
641.74	1533.93
641.92	1544.17
642.11	1611.75
642.30	1658.85
642.49	1609.70
642.68	1550.31
642.87	1583.08
643.06	1535.98
643.25	1599.46
643.44	1503.21
643.63	1468.39
643.82	1552.36
644.00	1517.54
644.19	1462.25
644.38	1566.70
644.57	1568.74
644.76	1609.70
644.95	1613.80
645.14	1556.46
645.33	1607.66
645.52	1589.22
645.71	1542.12
645.89	1458.15
646.08	1554.41
646.27	1525.74
646.46	1574.89
646.65	1497.07
646.84	1599.46
647.03	1495.02
647.22	1636.33
647.40	1566.70
647.59	1583.08
647.78	1495.02
647.97	1460.20
648.16	1533.93
648.35	1589.22
648.54	1648.61
648.73	1505.26
648.91	1578.98
649.10	1554.41
649.29	1521.64
649.48	1488.87
649.67	1544.17
649.86	1632.23
650.05	1589.22
650.23	1710.05
650.42	1671.14
650.61	1757.16
650.80	1705.96
650.99	1722.34
651.18	1597.42
651.36	1632.23
651.55	1531.88
651.74	1572.84
651.93	1605.61
652.12	1523.69
652.31	1589.22
652.49	1546.22
652.68	1542.12
652.87	1648.61
653.06	1538.02
653.25	1634.28
653.44	1544.17
653.62	1652.71
653.81	1513.45
654.00	1523.69
654.19	1550.31
654.38	1650.66
654.56	1509.35
654.75	1556.46
654.94	1525.74
655.13	1632.23
655.32	1535.98
655.51	1578.98
655.69	1476.59
655.88	1564.65
656.07	1488.87
656.26	1568.74
656.45	1497.07
656.63	1599.46
656.82	1568.74
657.01	1609.70
657.20	1550.31
657.38	1648.61
657.57	1562.60
657.76	1482.73
657.95	1624.04
658.14	1550.31
658.32	1572.84
658.51	1542.12
658.70	1570.79
658.89	1497.07
659.08	1546.22
659.26	1636.33
659.45	1568.74
659.64	1581.03
659.83	1656.81
660.01	1812.45
660.20	1548.26
660.39	1632.23
660.58	1529.83
660.76	1546.22
660.95	1501.16
661.14	1605.61
661.33	1497.07
661.51	1546.22
661.70	1466.35
661.89	1548.26
662.08	1599.46
662.26	1486.83
662.45	1505.26
662.64	1587.18
662.83	1593.32
663.01	1513.45
663.20	1472.49
663.39	1576.94
663.58	1529.83
663.76	1554.41
663.95	1568.74
664.14	1449.96
664.32	1486.83
664.51	1513.45
664.70	1499.11
664.89	1542.12
665.07	1511.40
665.26	1621.99
665.45	1474.54
665.64	1607.66
665.82	1531.88
666.01	1619.94
666.20	1472.49
666.38	1617.90
666.57	1671.14
666.76	1873.89
666.95	2994.13
667.13	7444.37
667.32	15785.74
667.51	19746.51
667.69	23504.54
667.88	25028.23
668.07	21999.28
668.25	15654.67
668.44	12253.00
668.63	10069.86
668.81	8546.17
669.00	7747.47
669.19	7042.96
669.38	6307.74
669.56	5719.98
669.75	4833.21
669.94	4147.14
670.12	3340.24
670.31	2799.57
670.50	2420.70
670.68	2054.11
670.87	1914.85
671.06	1824.74
671.24	1673.19
671.43	1738.73
671.62	1722.34
671.80	1611.75
671.99	1714.15
672.18	1574.89
672.36	1581.03
672.55	1615.85
672.74	1523.69
672.92	1566.70
673.11	1568.74
673.29	1566.70
673.48	1587.18
673.67	1417.19
673.85	1636.33
674.04	1542.12
674.23	1603.56
674.41	1589.22
674.60	1529.83
674.79	1507.30
674.97	1509.35
675.16	1556.46
675.34	1570.79
675.53	1505.26
675.72	1556.46
675.90	1621.99
676.09	1521.64
676.28	1585.13
676.46	1443.82
676.65	1566.70
676.83	1525.74
677.02	1540.07
677.21	1558.50
677.39	1552.36
677.58	1474.54
677.77	1509.35
677.95	1581.03
678.14	1574.89
678.32	1615.85
678.51	1501.16
678.70	1656.81
678.88	1470.44
679.07	1503.21
679.25	1533.93
679.44	1583.08
679.63	1552.36
679.81	1495.02
680.00	1595.37
680.18	1576.94
680.37	1583.08
680.55	1513.45
680.74	1474.54
680.93	1542.12
681.11	1552.36
681.30	1599.46
681.48	1605.61
681.67	1470.44
681.85	1490.92
682.04	1585.13
682.23	1617.90
682.41	1591.27
682.60	1550.31
682.78	1556.46
682.97	1439.72
683.15	1540.07
683.34	1570.79
683.53	1599.46
683.71	1480.68
683.90	1642.47
684.08	1640.42
684.27	1558.50
684.45	1568.74
684.64	1607.66
684.82	1531.88
685.01	1538.02
685.19	1546.22
685.38	1593.32
685.57	1558.50
685.75	1527.78
685.94	1476.59
686.12	1505.26
686.31	1535.98
686.49	1585.13
686.68	1550.31
686.86	1544.17
687.05	1476.59
687.23	1603.56
687.42	1538.02
687.60	1499.11
687.79	1634.28
687.97	1538.02
688.16	1605.61
688.34	1607.66
688.53	1421.29
688.71	1564.65
688.90	1562.60
689.08	1578.98
689.27	1503.21
689.45	1605.61
689.64	1523.69
689.82	1574.89
690.01	1550.31
690.19	1589.22
690.38	1533.93
690.56	1593.32
690.75	1501.16
690.93	1445.87
691.12	1560.55
691.30	1486.83
691.49	1554.41
691.67	1538.02
691.86	1617.90
692.04	1542.12
692.23	1480.68
692.41	1603.56
692.60	1742.82
692.78	1634.28
692.97	1626.09
693.15	1595.37
693.34	1621.99
693.52	1669.09
693.71	1587.18
693.89	1552.36
694.08	1511.40
694.26	1589.22
694.44	1585.13
694.63	1609.70
694.81	1521.64
695.00	1515.50
695.18	1609.70
695.37	1636.33
695.55	1560.55
695.74	1492.97
695.92	1505.26
696.10	1585.13
696.29	1497.07
696.47	1585.13
696.66	1460.20
696.84	1490.92
697.03	1517.54
697.21	1658.85
697.40	1982.43
697.58	1568.74
697.76	1509.35
697.95	1566.70
698.13	1572.84
698.32	1527.78
698.50	1548.26
698.68	1501.16
698.87	1583.08
699.05	1624.04
699.24	1535.98
699.42	1472.49
699.61	1634.28
699.79	1603.56
699.97	1572.84
700.16	1564.65
700.34	1552.36
700.53	1533.93
700.71	1574.89
700.89	1609.70
701.08	1495.02
701.26	1535.98
701.45	1910.75
701.63	1548.26
701.81	1490.92
702.00	1595.37
702.18	1587.18
702.37	1513.45
702.55	1630.18
702.73	1658.85
702.92	1652.71
703.10	1832.93
703.28	1886.18
703.47	1722.34
703.65	1789.92
703.84	1746.92
704.02	1613.80
704.20	1701.86
704.39	1576.94
704.57	1609.70
704.75	1613.80
704.94	1638.38
705.12	1538.02
705.30	1574.89
705.49	1818.60
705.67	2852.82
705.86	7264.15
706.04	14333.73
706.22	18745.06
706.41	21440.18
706.59	23090.85
706.77	21020.35
706.96	14591.78
707.14	11554.64
707.32	9537.39
707.51	8681.34
707.69	7444.37
707.87	7022.48
708.06	5744.55
708.24	4663.22
708.42	3483.59
708.61	2979.79
708.79	2236.38
708.97	2062.30
709.16	1812.45
709.34	1718.25
709.52	1748.97
709.71	1615.85
709.89	1578.98
710.07	1644.52
710.26	1521.64
710.44	1560.55
710.62	1617.90
710.80	1531.88
710.99	1552.36
711.17	1581.03
711.35	1550.31
711.54	1505.26
711.72	1621.99
711.90	1525.74
712.09	1556.46
712.27	1560.55
712.45	1505.26
712.63	1511.40
712.82	1521.64
713.00	1478.63
713.18	1527.78
713.37	1593.32
713.55	1529.83
713.73	1634.28
713.91	1562.60
714.10	1515.50
714.28	1501.16
714.46	1609.70
714.65	1562.60
714.83	1562.60
715.01	1566.70
715.19	1570.79
715.38	1503.21
715.56	1495.02
715.74	1464.30
715.92	1460.20
716.11	1552.36
716.29	1400.81
716.47	1599.46
716.65	1587.18
716.84	1445.87
717.02	1587.18
717.20	1411.05
717.38	1523.69
717.57	1595.37
717.75	1525.74
717.93	1548.26
718.11	1597.42
718.30	1511.40
718.48	1531.88
718.66	1628.14
718.84	1574.89
719.03	1509.35
719.21	1478.63
719.39	1626.09
719.57	1624.04
719.75	1638.38
719.94	1521.64
720.12	1562.60
720.30	1544.17
720.48	1642.47
720.67	1546.22
720.85	1482.73
721.03	1538.02
721.21	1443.82
721.39	1570.79
721.58	1603.56
721.76	1634.28
721.94	1574.89
722.12	1587.18
722.30	1605.61
722.49	1486.83
722.67	1550.31
722.85	1550.31
723.03	1490.92
723.21	1540.07
723.40	1605.61
723.58	1603.56
723.76	1527.78
723.94	1593.32
724.12	1568.74
724.30	1658.85
724.49	1677.29
724.67	1609.70
724.85	1734.63
725.03	1548.26
725.21	1566.70
725.40	1566.70
725.58	1548.26
725.76	1578.98
725.94	1568.74
726.12	1476.59
726.30	1478.63
726.49	1542.12
726.67	1599.46
726.85	1576.94
727.03	1595.37
727.21	1757.16
727.39	2064.35
727.57	3387.34
727.76	4380.61
727.94	4837.30
728.12	5048.24
728.30	5068.72
728.48	4313.02
728.66	3542.99
728.84	3203.02
729.03	2912.21
729.21	2576.34
729.39	2254.81
729.57	2023.39
729.75	1884.13
729.93	1824.74
730.11	1644.52
730.30	1595.37
730.48	1560.55
730.66	1658.85
730.84	1599.46
731.02	1533.93
731.20	1511.40
731.38	1550.31
731.56	1505.26
731.74	1521.64
731.93	1517.54
732.11	1531.88
732.29	1548.26
732.47	1581.03
732.65	1572.84
732.83	1585.13
733.01	1507.30
733.19	1484.78
733.37	1576.94
733.56	1523.69
733.74	1495.02
733.92	1558.50
734.10	1533.93
734.28	1566.70
734.46	1456.11
734.64	1591.27
734.82	1533.93
735.00	1564.65
735.18	1449.96
735.36	1556.46
735.54	1540.07
735.73	1544.17
735.91	1581.03
736.09	1585.13
736.27	1519.59
736.45	1589.22
736.63	1417.19
736.81	1519.59
736.99	1548.26
737.17	1538.02
737.35	1570.79
737.53	1492.97
737.71	1542.12
737.89	1609.70
738.07	1515.50
738.25	1470.44
738.43	1519.59
738.61	1497.07
738.80	1478.63
738.98	1558.50
739.16	1495.02
739.34	1529.83
739.52	1574.89
739.70	1538.02
739.88	1546.22
740.06	1568.74
740.24	1499.11
740.42	1495.02
740.60	1417.19
740.78	1476.59
740.96	1492.97
741.14	1519.59
741.32	1533.93
741.50	1419.24
741.68	1617.90
741.86	1617.90
742.04	1464.30
742.22	1519.59
742.40	1484.78
742.58	1474.54
742.76	1462.25
742.94	1529.83
743.12	1540.07
743.30	1515.50
743.48	1609.70
743.66	1478.63
743.84	1587.18
744.02	1568.74
744.20	1535.98
744.38	1476.59
744.56	1452.01
744.74	1617.90
744.92	1511.40
745.10	1533.93
745.28	1556.46
745.46	1613.80
745.64	1468.39
745.82	1560.55
746.00	1542.12
746.18	1572.84
746.36	1517.54
746.54	1570.79
746.72	1509.35
746.90	1499.11
747.08	1585.13
747.26	1560.55
747.44	1607.66
747.62	1527.78
747.80	1482.73
747.98	1587.18
748.15	1566.70
748.33	1595.37
748.51	1472.49
748.69	1583.08
748.87	1540.07
749.05	1564.65
749.23	1595.37
749.41	1603.56
749.59	1554.41
749.77	1587.18
749.95	1523.69
750.13	1474.54
750.31	1495.02
750.49	1621.99
750.67	1624.04
750.85	1535.98
751.03	1511.40
751.20	1540.07
751.38	1591.27
751.56	1511.40
751.74	1601.51
751.92	1548.26
752.10	1531.88
752.28	1566.70
752.46	1501.16
752.64	1488.87
752.82	1581.03
753.00	1564.65
753.18	1544.17
753.35	1574.89
753.53	1554.41
753.71	1613.80
753.89	1591.27
754.07	1593.32
754.25	1609.70
754.43	1544.17
754.61	1525.74
754.79	1538.02
754.97	1593.32
755.14	1562.60
755.32	1499.11
755.50	1564.65
755.68	1603.56
755.86	1470.44
756.04	1509.35
756.22	1464.30
756.40	1511.40
756.57	1652.71
756.75	1497.07
756.93	1621.99
757.11	1591.27
757.29	1470.44
757.47	1452.01
757.65	1517.54
757.82	1480.68
758.00	1474.54
758.18	1576.94
758.36	1441.77
758.54	1617.90
758.72	1525.74
758.90	1585.13
759.07	1556.46
759.25	1409.00
759.43	1544.17
759.61	1429.48
759.79	1945.57
759.97	1621.99
760.15	1564.65
760.32	1486.83
760.50	1560.55
760.68	1597.42
760.86	1437.67
761.04	1554.41
761.22	1654.76
761.39	1583.08
761.57	1535.98
761.75	1513.45
761.93	1517.54
762.11	1445.87
762.28	1581.03
762.46	1497.07
762.64	1673.19
762.82	1535.98
763.00	1566.70
763.18	1589.22
763.35	1406.95
763.53	1601.51
763.71	1511.40
763.89	1513.45
764.07	1603.56
764.24	1486.83
764.42	1568.74
764.60	1583.08
764.78	1587.18
764.96	1628.14
765.13	1562.60
765.31	1499.11
765.49	1542.12
765.67	1517.54
765.84	1521.64
766.02	1517.54
766.20	1505.26
766.38	1501.16
766.56	1562.60
766.73	1574.89
766.91	1546.22
767.09	1589.22
767.27	1609.70
767.44	1488.87
767.62	1599.46
767.80	1595.37
767.98	1466.35
768.15	1538.02
768.33	1589.22
768.51	1548.26
768.69	1611.75
768.87	1576.94
769.04	1519.59
769.22	1634.28
769.40	1574.89
769.58	1681.38
769.75	1548.26
769.93	1566.70
770.11	1550.31
770.28	1468.39
770.46	1550.31
770.64	1578.98
770.82	1468.39
770.99	1507.30
771.17	1564.65
771.35	1499.11
771.53	1511.40
771.70	1529.83
771.88	1589.22
772.06	1511.40
772.23	1517.54
772.41	1615.85
772.59	1542.12
772.77	1429.48
772.94	1472.49
773.12	1486.83
773.30	1542.12
773.47	1533.93
773.65	1425.39
773.83	1677.29
774.01	1562.60
774.18	1513.45
774.36	1454.06
774.54	1484.78
774.71	1525.74
774.89	1515.50
775.07	1492.97
775.24	1533.93
775.42	1507.30
775.60	1613.80
775.78	1484.78
775.95	1435.63
776.13	1386.47
776.31	1456.11
776.48	1433.58
776.66	1599.46
776.84	1574.89
777.01	1495.02
777.19	1511.40
777.37	1533.93
777.54	1501.16
777.72	1581.03
777.90	1574.89
778.07	1462.25
778.25	1705.96
778.43	1570.79
778.60	1527.78
778.78	1548.26
778.96	1552.36
779.13	1427.43
779.31	1589.22
779.49	1552.36
779.66	1505.26
779.84	1540.07
780.01	1519.59
780.19	1495.02
780.37	1585.13
780.54	1519.59
780.72	1452.01
780.90	1517.54
781.07	1583.08
781.25	1511.40
781.43	1507.30
781.60	1472.49
781.78	1607.66
781.95	1576.94
782.13	1523.69
782.31	1517.54
782.48	1486.83
782.66	1517.54
782.83	1585.13
783.01	1533.93
783.19	1566.70
783.36	1540.07
783.54	1482.73
783.72	1593.32
783.89	1462.25
784.07	1560.55
784.24	1521.64
784.42	1601.51
784.60	1570.79
784.77	1581.03
784.95	1425.39
785.12	1546.22
785.30	1492.97
785.47	1470.44
785.65	1607.66
785.83	1486.83
786.00	1550.31
786.18	1583.08
786.35	1497.07
786.53	1462.25
786.71	1515.50
786.88	1603.56
787.06	1542.12
787.23	1517.54
787.41	1486.83
787.58	1619.94
787.76	1421.29
787.94	1538.02
788.11	1552.36
788.29	1505.26
788.46	1509.35
788.64	1515.50
788.81	1472.49
788.99	1523.69
789.16	1427.43
789.34	1607.66
789.52	1445.87
789.69	1488.87
789.87	1468.39
790.04	1550.31
790.22	1490.92
790.39	1607.66
790.57	1511.40
790.74	1550.31
790.92	1585.13
791.09	1501.16
791.27	1558.50
791.44	1601.51
791.62	1533.93
791.79	1564.65
791.97	1587.18
792.15	1685.48
792.32	1542.12
792.50	1511.40
792.67	1576.94
792.85	1550.31
793.02	1505.26
793.20	1482.73
793.37	1513.45
793.55	1544.17
793.72	1509.35
793.90	1523.69
794.07	1499.11
794.25	1535.98
794.42	1609.70
794.60	1515.50
794.77	1556.46
794.95	1572.84
795.12	1556.46
795.30	1505.26
795.47	1513.45
795.65	1613.80
795.82	1511.40
796.00	1527.78
796.17	1505.26
796.34	1538.02
796.52	1519.59
796.69	1595.37
796.87	1533.93
797.04	1540.07
797.22	1570.79
797.39	1566.70
797.57	1597.42
797.74	1576.94
797.92	1531.88
798.09	1464.30
798.27	1583.08
798.44	1478.63
798.62	1529.83
798.79	1443.82
798.96	1562.60
799.14	1501.16
799.31	1646.57
799.49	1521.64
799.66	1523.69
799.84	1521.64
800.01	1482.73
800.19	1574.89
800.36	1468.39
800.53	1566.70
800.71	1476.59
800.88	1593.32
801.06	1515.50
801.23	1495.02
801.41	1513.45
801.58	1544.17
801.75	1574.89
801.93	1538.02
802.10	1568.74
802.28	1517.54
802.45	1523.69
802.63	1509.35
802.80	1570.79
802.97	1583.08
803.15	1599.46
803.32	1566.70
803.50	1452.01
803.67	1527.78
803.84	1464.30
804.02	1531.88
804.19	1460.20
804.37	1441.77
804.54	1556.46
804.71	1550.31
804.89	1456.11
805.06	1476.59
805.24	1495.02
805.41	1529.83
805.58	1419.24
805.76	1601.51
805.93	1460.20
806.10	1619.94
806.28	1581.03
806.45	1542.12
806.63	1589.22
806.80	1533.93
806.97	1597.42
807.15	1490.92
807.32	1587.18
807.49	1515.50
807.67	1513.45
807.84	1568.74
808.01	1476.59
808.19	1583.08
808.36	1734.63
808.54	1521.64
808.71	1540.07
808.88	1593.32
809.06	1587.18
809.23	1626.09
809.40	1515.50
809.58	1636.33
809.75	1484.78
809.92	1435.63
810.10	1613.80
810.27	1566.70
810.44	1581.03
810.62	1566.70
810.79	1585.13
810.96	1482.73
811.14	1503.21
811.31	1513.45
811.48	1538.02
811.66	1527.78
811.83	1578.98
812.00	1546.22
812.18	1572.84
812.35	1511.40
812.52	1503.21
812.69	1495.02
812.87	1495.02
813.04	1497.07
813.21	1605.61
813.39	1538.02
813.56	1509.35
813.73	1624.04
813.91	1452.01
814.08	1597.42
814.25	1574.89
814.42	1476.59
814.60	1554.41
814.77	1503.21
814.94	1591.27
815.12	1515.50
815.29	1605.61
815.46	1564.65
815.63	1533.93
815.81	1458.15
815.98	1472.49
816.15	1527.78
816.33	1538.02
816.50	1507.30
816.67	1554.41
816.84	1533.93
817.02	1495.02
817.19	1513.45
817.36	1566.70
817.53	1548.26
817.71	1435.63
817.88	1497.07
818.05	1517.54
818.22	1509.35
818.40	1585.13
818.57	1497.07
818.74	1542.12
818.91	1445.87
819.09	1527.78
819.26	1574.89
819.43	1564.65
819.60	1447.91
819.78	1593.32
819.95	1587.18
820.12	1433.58
820.29	1505.26
820.47	1599.46
820.64	1513.45
820.81	1523.69
820.98	1482.73
821.15	1484.78
821.33	1476.59
821.50	1429.48
821.67	1507.30
821.84	1484.78
822.02	1566.70
822.19	1558.50
822.36	1556.46
822.53	1501.16
822.70	1525.74
822.88	1482.73
823.05	1626.09
823.22	1474.54
823.39	1527.78
823.56	1546.22
823.74	1513.45
823.91	1507.30
824.08	1503.21
824.25	1462.25
824.42	1621.99
824.60	1419.24
824.77	1658.85
824.94	1474.54
825.11	1556.46
825.28	1443.82
825.45	1540.07
825.63	1466.35
825.80	1472.49
825.97	1521.64
826.14	1574.89
826.31	1501.16
826.48	1626.09
826.66	1490.92
826.83	1499.11
827.00	1462.25
827.17	1454.06
827.34	1538.02
827.51	1552.36
827.69	1478.63
827.86	1433.58
828.03	1468.39
828.20	1548.26
828.37	1474.54
828.54	1570.79
828.71	1503.21
828.89	1650.66
829.06	1474.54
829.23	1583.08
829.40	1495.02
829.57	1452.01
829.74	1533.93
829.91	1591.27
830.09	1521.64
830.26	1568.74
830.43	1568.74
830.60	1501.16
830.77	1527.78
830.94	1521.64
831.11	1578.98
831.28	1507.30
831.46	1511.40
831.63	1529.83
831.80	1589.22
831.97	1517.54
832.14	1517.54
832.31	1538.02
832.48	1509.35
832.65	1585.13
832.82	1507.30
832.99	1558.50
833.17	1476.59
833.34	1611.75
833.51	1521.64
833.68	1447.91
833.85	1538.02
834.02	1398.76
834.19	1546.22
834.36	1529.83
834.53	1533.93
834.70	1603.56
834.87	1624.04
835.04	1550.31
835.22	1523.69
835.39	1531.88
835.56	1474.54
835.73	1484.78
835.90	1560.55
836.07	1472.49
836.24	1601.51
836.41	1480.68
836.58	1449.96
836.75	1601.51
836.92	1560.55
837.09	1449.96
837.26	1574.89
837.43	1560.55
837.60	1597.42
837.77	1544.17
837.94	1560.55
838.12	1578.98
838.29	1570.79
838.46	1480.68
838.63	1411.05
838.80	1626.09
838.97	1509.35
839.14	1576.94
839.31	1558.50
839.48	1495.02
839.65	1564.65
839.82	1554.41
839.99	1538.02
840.16	1509.35
840.33	1497.07
840.50	1492.97
840.67	1517.54
840.84	1437.67
841.01	1562.60
841.18	1560.55
841.35	1511.40
841.52	1595.37
841.69	1626.09
841.86	1546.22
842.03	1515.50
842.20	1550.31
842.37	1533.93
842.54	1523.69
842.71	1497.07
842.88	1478.63
843.05	1517.54
843.22	1576.94
843.39	1609.70
843.56	1503.21
843.73	1523.69
843.90	1558.50
844.07	1519.59
844.24	1454.06
844.41	1566.70
844.58	1437.67
844.75	1542.12
844.92	1460.20
845.09	1490.92
845.26	1550.31
845.43	1628.14
845.60	1470.44
845.77	1576.94
845.94	1513.45
846.10	1556.46
846.27	1468.39
846.44	1486.83
846.61	1488.87
846.78	1591.27
846.95	1570.79
847.12	1578.98
847.29	1517.54
847.46	1423.34
847.63	1568.74
847.80	1462.25
847.97	1556.46
848.14	1652.71
848.31	1533.93
848.48	1435.63
848.65	1538.02
848.82	1501.16
848.98	1603.56
849.15	1599.46
849.32	1581.03
849.49	1566.70
849.66	1523.69
849.83	1540.07
850.00	1576.94
850.17	1581.03
850.34	1480.68
850.51	1529.83
850.68	1495.02
850.85	1572.84
851.01	1533.93
851.18	1523.69
851.35	1609.70
851.52	1574.89
851.69	1642.47
851.86	1564.65
852.03	1517.54
852.20	1558.50
852.37	1525.74
852.53	1396.71
852.70	1517.54
852.87	1484.78
853.04	1650.66
853.21	1603.56
853.38	1566.70
853.55	1554.41
853.72	1550.31
853.89	1535.98
854.05	1404.91
854.22	1515.50
854.39	1595.37
854.56	1585.13
854.73	1550.31
854.90	1509.35
855.07	1574.89
855.23	1535.98
855.40	1589.22
855.57	1488.87
855.74	1443.82
855.91	1679.33
856.08	1525.74
856.25	1492.97
856.41	1529.83
856.58	1546.22
856.75	1497.07
856.92	1484.78
857.09	1591.27
857.26	1468.39
857.42	1482.73
857.59	1533.93
857.76	1525.74
857.93	1531.88
858.10	1589.22
858.27	1462.25
858.43	1552.36
858.60	1556.46
858.77	1501.16
858.94	1572.84
859.11	1595.37
859.27	1509.35
859.44	1554.41
859.61	1648.61
859.78	1562.60
859.95	1484.78
860.12	1474.54
860.28	1638.38
860.45	1621.99
860.62	1535.98
860.79	1583.08
860.95	1499.11
861.12	1462.25
861.29	1429.48
861.46	1585.13
861.63	1576.94
861.79	1599.46
861.96	1423.34
862.13	1511.40
862.30	1578.98
862.47	1501.16
862.63	1495.02
862.80	1521.64
862.97	1535.98
863.14	1542.12
863.30	1503.21
863.47	1488.87
863.64	1556.46
863.81	1523.69
863.97	1468.39
864.14	1570.79
864.31	1497.07
864.48	1517.54
864.65	1529.83
864.81	1597.42
864.98	1568.74
865.15	1533.93
865.32	1613.80
865.48	1578.98
865.65	1533.93
865.82	1431.53
865.98	1593.32
866.15	1505.26
866.32	1542.12
866.49	1585.13
866.65	1634.28
866.82	1470.44
866.99	1476.59
867.16	1554.41
867.32	1523.69
867.49	1523.69
867.66	1564.65
867.83	1515.50
867.99	1519.59
868.16	1513.45
868.33	1443.82
868.49	1513.45
868.66	1562.60
868.83	1552.36
868.99	1484.78
869.16	1517.54
869.33	1533.93
869.50	1591.27
869.66	1531.88
869.83	1525.74
870.00	1568.74
870.16	1634.28
870.33	1517.54
870.50	1605.61
870.66	1626.09
870.83	1656.81
871.00	1613.80
871.17	1568.74
871.33	1601.51
871.50	1456.11
871.67	1525.74
871.83	1474.54
872.00	1593.32
872.17	1462.25
872.33	1630.18
872.50	1642.47
872.67	1456.11
872.83	1535.98
873.00	1581.03
873.17	1556.46
873.33	1554.41
873.50	1564.65
873.67	1398.76
873.83	1540.07
874.00	1538.02
874.16	1540.07
874.33	1595.37
874.50	1576.94
874.66	1540.07
874.83	1533.93
875.00	1503.21
875.16	1609.70
875.33	1574.89
875.50	1456.11
875.66	1589.22
875.83	1523.69
875.99	1535.98
876.16	1546.22
876.33	1542.12
876.49	1515.50
876.66	1587.18
876.83	1523.69
876.99	1445.87
877.16	1509.35
877.32	1626.09
877.49	1525.74
877.66	1554.41
877.82	1605.61
877.99	1566.70
878.15	1568.74
878.32	1574.89
878.49	1527.78
878.65	1452.01
878.82	1531.88
878.98	1472.49
879.15	1603.56
879.32	1550.31
879.48	1570.79
879.65	1464.30
879.81	1449.96
879.98	1583.08
880.15	1566.70
880.31	1589.22
880.48	1501.16
880.64	1540.07
880.81	1548.26
880.97	1613.80
881.14	1636.33
881.31	1470.44
881.47	1617.90
881.64	1560.55
881.80	1492.97
881.97	1550.31
882.13	1497.07
882.30	1490.92
882.47	1535.98
882.63	1492.97
882.80	1523.69
882.96	1482.73
883.13	1601.51
883.29	1564.65
883.46	1570.79
883.62	1562.60
883.79	1499.11
883.95	1570.79
884.12	1601.51
884.29	1599.46
884.45	1617.90
884.62	1544.17
884.78	1495.02
884.95	1617.90
885.11	1560.55
885.28	1601.51
885.44	1458.15
885.61	1538.02
885.77	1609.70
885.94	1519.59
886.10	1558.50
886.27	1544.17
886.43	1574.89
886.60	1535.98
886.76	1560.55
886.93	1529.83
887.09	1529.83
887.26	1497.07
887.42	1441.77
887.59	1574.89
887.75	1640.42
887.92	1591.27
888.08	1527.78
888.25	1503.21
888.41	1556.46
888.58	1521.64
888.74	1542.12
888.91	1449.96
>>>>>End Processed Spectral Data<<<<<
