SpectraSuite Data File
++++++++++++++++++++++++++++++++++++
Date: Tue May 03 12:55:45 CEST 2016
User: root
Dark Spectrum Present: No
Reference Spectrum Present: No
Number of Sampled Component Spectra: 1
Spectrometers: USB4C02835
Integration Time (usec): 100000 (USB4C02835)
Spectra Averaged: 1 (USB4C02835)
Boxcar Smoothing: 0 (USB4C02835)
Correct for Electrical Dark: No (USB4C02835)
Strobe/Lamp Enabled: No (USB4C02835)
Correct for Detector Non-linearity: No (USB4C02835)
Correct for Stray Light: No (USB4C02835)
Number of Pixels in Processed Spectrum: 3648
>>>>>Begin Processed Spectral Data<<<<<
177.47	1419.24
177.69	1419.24
177.91	1419.24
178.13	1277.93
178.36	1370.09
178.58	1464.30
178.80	1558.50
179.02	1540.07
179.24	1470.44
179.46	1486.83
179.68	1578.98
179.90	1544.17
180.13	1513.45
180.35	1533.93
180.57	1509.35
180.79	1587.18
181.01	1503.21
181.23	1583.08
181.45	1632.23
181.67	1593.32
181.90	1619.94
182.12	1495.02
182.34	1439.72
182.56	1562.60
182.78	1531.88
183.00	1497.07
183.22	1599.46
183.44	1503.21
183.66	1667.05
183.89	1601.51
184.11	1538.02
184.33	1544.17
184.55	1632.23
184.77	1570.79
184.99	1611.75
185.21	1486.83
185.43	1628.14
185.65	1540.07
185.87	1562.60
186.10	1632.23
186.32	1609.70
186.54	1495.02
186.76	1566.70
186.98	1630.18
187.20	1468.39
187.42	1548.26
187.64	1533.93
187.86	1517.54
188.08	1533.93
188.30	1511.40
188.52	1540.07
188.75	1613.80
188.97	1517.54
189.19	1517.54
189.41	1509.35
189.63	1535.98
189.85	1517.54
190.07	1486.83
190.29	1486.83
190.51	1566.70
190.73	1482.73
190.95	1562.60
191.17	1544.17
191.39	1492.97
191.61	1578.98
191.84	1509.35
192.06	1570.79
192.28	1474.54
192.50	1662.95
192.72	1517.54
192.94	1542.12
193.16	1648.61
193.38	1581.03
193.60	1505.26
193.82	1570.79
194.04	1521.64
194.26	1566.70
194.48	1552.36
194.70	1495.02
194.92	1472.49
195.14	1636.33
195.36	1507.30
195.58	1619.94
195.80	1548.26
196.02	1449.96
196.24	1462.25
196.46	1499.11
196.69	1497.07
196.91	1710.05
197.13	1480.68
197.35	1544.17
197.57	1591.27
197.79	1533.93
198.01	1550.31
198.23	1609.70
198.45	1552.36
198.67	1452.01
198.89	1589.22
199.11	1591.27
199.33	1538.02
199.55	1415.15
199.77	1527.78
199.99	1597.42
200.21	1560.55
200.43	1601.51
200.65	1492.97
200.87	1431.53
201.09	1535.98
201.31	1454.06
201.53	1591.27
201.75	1574.89
201.97	1574.89
202.19	1513.45
202.41	1550.31
202.63	1624.04
202.85	1554.41
203.07	1591.27
203.29	1462.25
203.51	1490.92
203.73	1521.64
203.95	1673.19
204.17	1558.50
204.39	1542.12
204.61	1566.70
204.83	1488.87
205.05	1624.04
205.27	1587.18
205.49	1626.09
205.71	1533.93
205.93	1490.92
206.15	1507.30
206.37	1546.22
206.59	1525.74
206.81	1515.50
207.03	1517.54
207.25	1595.37
207.47	1521.64
207.69	1521.64
207.91	1576.94
208.13	1538.02
208.34	1568.74
208.56	1488.87
208.78	1558.50
209.00	1490.92
209.22	1550.31
209.44	1468.39
209.66	1476.59
209.88	1529.83
210.10	1486.83
210.32	1435.63
210.54	1513.45
210.76	1558.50
210.98	1634.28
211.20	1380.33
211.42	1533.93
211.64	1603.56
211.86	1597.42
212.08	1544.17
212.30	1626.09
212.52	1488.87
212.74	1531.88
212.96	1570.79
213.17	1542.12
213.39	1476.59
213.61	1562.60
213.83	1617.90
214.05	1550.31
214.27	1544.17
214.49	1562.60
214.71	1478.63
214.93	1619.94
215.15	1609.70
215.37	1576.94
215.59	1447.91
215.81	1591.27
216.03	1611.75
216.24	1566.70
216.46	1574.89
216.68	1607.66
216.90	1509.35
217.12	1605.61
217.34	1525.74
217.56	1589.22
217.78	1511.40
218.00	1507.30
218.22	1484.78
218.44	1505.26
218.66	1581.03
218.87	1624.04
219.09	1554.41
219.31	1511.40
219.53	1507.30
219.75	1468.39
219.97	1591.27
220.19	1546.22
220.41	1542.12
220.63	1597.42
220.85	1599.46
221.06	1523.69
221.28	1574.89
221.50	1566.70
221.72	1538.02
221.94	1484.78
222.16	1542.12
222.38	1613.80
222.60	1617.90
222.82	1470.44
223.03	1529.83
223.25	1468.39
223.47	1556.46
223.69	1650.66
223.91	1603.56
224.13	1484.78
224.35	1460.20
224.57	1597.42
224.78	1542.12
225.00	1533.93
225.22	1533.93
225.44	1509.35
225.66	1544.17
225.88	1572.84
226.10	1611.75
226.32	1576.94
226.53	1632.23
226.75	1513.45
226.97	1554.41
227.19	1462.25
227.41	1523.69
227.63	1495.02
227.85	1488.87
228.06	1587.18
228.28	1560.55
228.50	1538.02
228.72	1562.60
228.94	1486.83
229.16	1452.01
229.37	1490.92
229.59	1505.26
229.81	1595.37
230.03	1535.98
230.25	1462.25
230.47	1478.63
230.69	1576.94
230.90	1548.26
231.12	1550.31
231.34	1490.92
231.56	1540.07
231.78	1490.92
232.00	1515.50
232.21	1484.78
232.43	1574.89
232.65	1499.11
232.87	1615.85
233.09	1468.39
233.30	1497.07
233.52	1503.21
233.74	1583.08
233.96	1535.98
234.18	1503.21
234.40	1578.98
234.61	1585.13
234.83	1490.92
235.05	1400.81
235.27	1621.99
235.49	1595.37
235.70	1591.27
235.92	1578.98
236.14	1497.07
236.36	1705.96
236.58	1488.87
236.79	1581.03
237.01	1521.64
237.23	1517.54
237.45	1671.14
237.67	1497.07
237.88	1509.35
238.10	1646.57
238.32	1550.31
238.54	1591.27
238.76	1533.93
238.97	1505.26
239.19	1486.83
239.41	1667.05
239.63	1542.12
239.85	1540.07
240.06	1503.21
240.28	1544.17
240.50	1564.65
240.72	1511.40
240.93	1576.94
241.15	1607.66
241.37	1556.46
241.59	1599.46
241.81	1564.65
242.02	1527.78
242.24	1546.22
242.46	1611.75
242.68	1449.96
242.89	1605.61
243.11	1492.97
243.33	1546.22
243.55	1591.27
243.76	1519.59
243.98	1550.31
244.20	1503.21
244.42	1509.35
244.64	1542.12
244.85	1521.64
245.07	1511.40
245.29	1593.32
245.51	1572.84
245.72	1468.39
245.94	1599.46
246.16	1581.03
246.38	1568.74
246.59	1626.09
246.81	1513.45
247.03	1466.35
247.24	1484.78
247.46	1583.08
247.68	1581.03
247.90	1546.22
248.11	1527.78
248.33	1538.02
248.55	1552.36
248.77	1544.17
248.98	1566.70
249.20	1626.09
249.42	1570.79
249.64	1572.84
249.85	1492.97
250.07	1458.15
250.29	1603.56
250.50	1540.07
250.72	1468.39
250.94	1581.03
251.16	1716.20
251.37	1640.42
251.59	1613.80
251.81	1558.50
252.02	1576.94
252.24	1495.02
252.46	1587.18
252.68	1513.45
252.89	1507.30
253.11	1513.45
253.33	1646.57
253.54	1652.71
253.76	1413.10
253.98	1503.21
254.20	1554.41
254.41	1435.63
254.63	1566.70
254.85	1427.43
255.06	1495.02
255.28	1492.97
255.50	1552.36
255.71	1544.17
255.93	1443.82
256.15	1452.01
256.36	1613.80
256.58	1574.89
256.80	1527.78
257.02	1527.78
257.23	1462.25
257.45	1564.65
257.67	1546.22
257.88	1476.59
258.10	1515.50
258.32	1542.12
258.53	1626.09
258.75	1589.22
258.97	1540.07
259.18	1599.46
259.40	1587.18
259.62	1589.22
259.83	1544.17
260.05	1568.74
260.27	1681.38
260.48	1583.08
260.70	1452.01
260.92	1513.45
261.13	1523.69
261.35	1558.50
261.57	1552.36
261.78	1484.78
262.00	1499.11
262.22	1509.35
262.43	1474.54
262.65	1548.26
262.86	1497.07
263.08	1675.24
263.30	1558.50
263.51	1470.44
263.73	1492.97
263.95	1576.94
264.16	1486.83
264.38	1478.63
264.60	1603.56
264.81	1501.16
265.03	1552.36
265.25	1482.73
265.46	1480.68
265.68	1611.75
265.89	1548.26
266.11	1486.83
266.33	1593.32
266.54	1550.31
266.76	1576.94
266.98	1552.36
267.19	1593.32
267.41	1499.11
267.62	1570.79
267.84	1419.24
268.06	1568.74
268.27	1572.84
268.49	1574.89
268.70	1521.64
268.92	1564.65
269.14	1488.87
269.35	1462.25
269.57	1503.21
269.79	1562.60
270.00	1517.54
270.22	1634.28
270.43	1574.89
270.65	1509.35
270.87	1456.11
271.08	1546.22
271.30	1558.50
271.51	1552.36
271.73	1511.40
271.95	1507.30
272.16	1527.78
272.38	1640.42
272.59	1427.43
272.81	1574.89
273.02	1546.22
273.24	1511.40
273.46	1583.08
273.67	1484.78
273.89	1492.97
274.10	1542.12
274.32	1601.51
274.54	1621.99
274.75	1572.84
274.97	1533.93
275.18	1439.72
275.40	1478.63
275.61	1554.41
275.83	1576.94
276.05	1591.27
276.26	1587.18
276.48	1503.21
276.69	1484.78
276.91	1447.91
277.12	1611.75
277.34	1621.99
277.55	1589.22
277.77	1570.79
277.99	1601.51
278.20	1525.74
278.42	1437.67
278.63	1538.02
278.85	1521.64
279.06	1431.53
279.28	1562.60
279.49	1560.55
279.71	1572.84
279.93	1550.31
280.14	1576.94
280.36	1538.02
280.57	1626.09
280.79	1587.18
281.00	1501.16
281.22	1535.98
281.43	1593.32
281.65	1460.20
281.86	1478.63
282.08	1488.87
282.29	1650.66
282.51	1433.58
282.73	1517.54
282.94	1560.55
283.16	1519.59
283.37	1628.14
283.59	1533.93
283.80	1591.27
284.02	1574.89
284.23	1519.59
284.45	1531.88
284.66	1550.31
284.88	1511.40
285.09	1525.74
285.31	1642.47
285.52	1505.26
285.74	1443.82
285.95	1546.22
286.17	1583.08
286.38	1605.61
286.60	1482.73
286.81	1425.39
287.03	1599.46
287.24	1570.79
287.46	1599.46
287.67	1607.66
287.89	1591.27
288.10	1552.36
288.32	1538.02
288.53	1607.66
288.75	1636.33
288.96	1597.42
289.18	1470.44
289.39	1591.27
289.61	1540.07
289.82	1644.52
290.04	1576.94
290.25	1519.59
290.47	1505.26
290.68	1542.12
290.90	1601.51
291.11	1542.12
291.33	1601.51
291.54	1464.30
291.76	1544.17
291.97	1490.92
292.18	1644.52
292.40	1484.78
292.61	1462.25
292.83	1609.70
293.04	1554.41
293.26	1538.02
293.47	1507.30
293.69	1505.26
293.90	1538.02
294.12	1574.89
294.33	1449.96
294.55	1609.70
294.76	1535.98
294.97	1603.56
295.19	1540.07
295.40	1521.64
295.62	1560.55
295.83	1634.28
296.05	1525.74
296.26	1599.46
296.48	1402.86
296.69	1480.68
296.90	1511.40
297.12	1581.03
297.33	1525.74
297.55	1501.16
297.76	1615.85
297.98	1576.94
298.19	1492.97
298.41	1501.16
298.62	1447.91
298.83	1542.12
299.05	1558.50
299.26	1486.83
299.48	1370.09
299.69	1572.84
299.90	1587.18
300.12	1503.21
300.33	1603.56
300.55	1562.60
300.76	1630.18
300.98	1540.07
301.19	1544.17
301.40	1445.87
301.62	1525.74
301.83	1542.12
302.05	1484.78
302.26	1548.26
302.47	1503.21
302.69	1531.88
302.90	1558.50
303.12	1443.82
303.33	1546.22
303.54	1613.80
303.76	1511.40
303.97	1540.07
304.19	1599.46
304.40	1468.39
304.61	1550.31
304.83	1662.95
305.04	1611.75
305.26	1558.50
305.47	1525.74
305.68	1578.98
305.90	1449.96
306.11	1601.51
306.33	1468.39
306.54	1544.17
306.75	1535.98
306.97	1411.05
307.18	1535.98
307.39	1474.54
307.61	1652.71
307.82	1452.01
308.04	1581.03
308.25	1505.26
308.46	1566.70
308.68	1558.50
308.89	1593.32
309.10	1626.09
309.32	1572.84
309.53	1619.94
309.74	1560.55
309.96	1533.93
310.17	1601.51
310.39	1554.41
310.60	1521.64
310.81	1490.92
311.03	1495.02
311.24	1589.22
311.45	1609.70
311.67	1636.33
311.88	1609.70
312.09	1486.83
312.31	1511.40
312.52	1527.78
312.73	1538.02
312.95	1488.87
313.16	1476.59
313.37	1603.56
313.59	1554.41
313.80	1513.45
314.01	1527.78
314.23	1492.97
314.44	1570.79
314.65	1464.30
314.87	1490.92
315.08	1527.78
315.29	1554.41
315.51	1439.72
315.72	1482.73
315.93	1587.18
316.15	1535.98
316.36	1495.02
316.57	1478.63
316.79	1568.74
317.00	1499.11
317.21	1515.50
317.43	1478.63
317.64	1503.21
317.85	1509.35
318.07	1538.02
318.28	1613.80
318.49	1802.21
318.70	1732.58
318.92	1728.49
319.13	1759.21
319.34	1720.29
319.56	1697.77
319.77	1634.28
319.98	1642.47
320.20	1603.56
320.41	1593.32
320.62	1613.80
320.83	1492.97
321.05	1636.33
321.26	1603.56
321.47	1519.59
321.69	1574.89
321.90	1533.93
322.11	1503.21
322.32	1533.93
322.54	1636.33
322.75	1497.07
322.96	1640.42
323.18	1452.01
323.39	1435.63
323.60	1513.45
323.81	1535.98
324.03	1507.30
324.24	1560.55
324.45	1544.17
324.66	1533.93
324.88	1558.50
325.09	1564.65
325.30	1562.60
325.52	1538.02
325.73	1505.26
325.94	1384.43
326.15	1523.69
326.37	1492.97
326.58	1574.89
326.79	1572.84
327.00	1449.96
327.22	1585.13
327.43	1501.16
327.64	1509.35
327.85	1576.94
328.07	1517.54
328.28	1636.33
328.49	1490.92
328.70	1497.07
328.92	1535.98
329.13	1513.45
329.34	1611.75
329.55	1576.94
329.76	1556.46
329.98	1513.45
330.19	1529.83
330.40	1550.31
330.61	1527.78
330.83	1583.08
331.04	1492.97
331.25	1525.74
331.46	1509.35
331.68	1517.54
331.89	1566.70
332.10	1540.07
332.31	1507.30
332.52	1617.90
332.74	1624.04
332.95	1474.54
333.16	1515.50
333.37	1570.79
333.58	1490.92
333.80	1499.11
334.01	1505.26
334.22	1503.21
334.43	1474.54
334.64	1527.78
334.86	1546.22
335.07	1460.20
335.28	1525.74
335.49	1488.87
335.70	1531.88
335.92	1554.41
336.13	1566.70
336.34	1585.13
336.55	1556.46
336.76	1632.23
336.98	1460.20
337.19	1476.59
337.40	1665.00
337.61	1654.76
337.82	1527.78
338.04	1609.70
338.25	1449.96
338.46	1558.50
338.67	1468.39
338.88	1501.16
339.09	1566.70
339.31	1540.07
339.52	1511.40
339.73	1517.54
339.94	1554.41
340.15	1552.36
340.36	1441.77
340.58	1529.83
340.79	1454.06
341.00	1654.76
341.21	1540.07
341.42	1652.71
341.63	1564.65
341.85	1554.41
342.06	1624.04
342.27	1501.16
342.48	1583.08
342.69	1492.97
342.90	1503.21
343.12	1554.41
343.33	1505.26
343.54	1560.55
343.75	1638.38
343.96	1574.89
344.17	1568.74
344.38	1576.94
344.60	1548.26
344.81	1501.16
345.02	1578.98
345.23	1591.27
345.44	1609.70
345.65	1615.85
345.86	1587.18
346.07	1509.35
346.29	1550.31
346.50	1568.74
346.71	1634.28
346.92	1617.90
347.13	1589.22
347.34	1513.45
347.55	1570.79
347.76	1576.94
347.98	1476.59
348.19	1628.14
348.40	1550.31
348.61	1501.16
348.82	1552.36
349.03	1621.99
349.24	1550.31
349.45	1658.85
349.66	1515.50
349.88	1556.46
350.09	1484.78
350.30	1564.65
350.51	1564.65
350.72	1609.70
350.93	1540.07
351.14	1566.70
351.35	1636.33
351.56	1560.55
351.77	1544.17
351.99	1503.21
352.20	1568.74
352.41	1624.04
352.62	1437.67
352.83	1515.50
353.04	1533.93
353.25	1550.31
353.46	1513.45
353.67	1634.28
353.88	1466.35
354.09	1599.46
354.30	1548.26
354.52	1501.16
354.73	1533.93
354.94	1472.49
355.15	1517.54
355.36	1581.03
355.57	1499.11
355.78	1540.07
355.99	1527.78
356.20	1521.64
356.41	1646.57
356.62	1527.78
356.83	1546.22
357.04	1611.75
357.25	1578.98
357.46	1591.27
357.68	1480.68
357.89	1480.68
358.10	1484.78
358.31	1499.11
358.52	1538.02
358.73	1476.59
358.94	1509.35
359.15	1503.21
359.36	1572.84
359.57	1538.02
359.78	1538.02
359.99	1533.93
360.20	1501.16
360.41	1456.11
360.62	1597.42
360.83	1585.13
361.04	1535.98
361.25	1554.41
361.46	1601.51
361.67	1632.23
361.88	1558.50
362.09	1624.04
362.30	1589.22
362.51	1452.01
362.72	1576.94
362.93	1572.84
363.14	1581.03
363.35	1517.54
363.56	1511.40
363.78	1615.85
363.99	1576.94
364.20	1517.54
364.41	1617.90
364.62	1564.65
364.83	1531.88
365.04	1505.26
365.25	1538.02
365.46	1603.56
365.67	1535.98
365.88	1546.22
366.09	1566.70
366.30	1529.83
366.51	1574.89
366.72	1499.11
366.93	1560.55
367.14	1499.11
367.35	1574.89
367.56	1538.02
367.77	1566.70
367.98	1591.27
368.18	1519.59
368.39	1554.41
368.60	1468.39
368.81	1558.50
369.02	1576.94
369.23	1402.86
369.44	1445.87
369.65	1578.98
369.86	1599.46
370.07	1558.50
370.28	1503.21
370.49	1595.37
370.70	1570.79
370.91	1538.02
371.12	1499.11
371.33	1603.56
371.54	1456.11
371.75	1626.09
371.96	1421.29
372.17	1576.94
372.38	1574.89
372.59	1597.42
372.80	1503.21
373.01	1564.65
373.22	1507.30
373.43	1538.02
373.64	1585.13
373.85	1583.08
374.06	1587.18
374.26	1513.45
374.47	1611.75
374.68	1648.61
374.89	1511.40
375.10	1568.74
375.31	1568.74
375.52	1535.98
375.73	1535.98
375.94	1540.07
376.15	1648.61
376.36	1488.87
376.57	1529.83
376.78	1564.65
376.99	1505.26
377.20	1638.38
377.40	1501.16
377.61	1548.26
377.82	1476.59
378.03	1572.84
378.24	1538.02
378.45	1437.67
378.66	1636.33
378.87	1478.63
379.08	1484.78
379.29	1519.59
379.50	1583.08
379.71	1480.68
379.91	1574.89
380.12	1546.22
380.33	1556.46
380.54	1529.83
380.75	1560.55
380.96	1560.55
381.17	1554.41
381.38	1515.50
381.59	1560.55
381.80	1615.85
382.00	1708.01
382.21	1568.74
382.42	1611.75
382.63	1802.21
382.84	1667.05
383.05	1648.61
383.26	1683.43
383.47	1597.42
383.68	1535.98
383.88	1521.64
384.09	1527.78
384.30	1570.79
384.51	1562.60
384.72	1523.69
384.93	1472.49
385.14	1603.56
385.35	1585.13
385.55	1521.64
385.76	1591.27
385.97	1517.54
386.18	1529.83
386.39	1519.59
386.60	1492.97
386.81	1533.93
387.02	1499.11
387.22	1591.27
387.43	1593.32
387.64	1648.61
387.85	1849.32
388.06	3166.16
388.27	7303.06
388.48	10727.26
388.68	12582.72
388.89	14001.96
389.10	12943.16
389.31	10227.56
389.52	8779.64
389.73	7841.67
389.93	7266.19
390.14	6606.75
390.35	6203.30
390.56	5539.76
390.77	4599.74
390.98	3596.23
391.18	2697.17
391.39	2211.81
391.60	1822.69
391.81	1753.06
392.02	1589.22
392.23	1675.24
392.43	1511.40
392.64	1581.03
392.85	1533.93
393.06	1562.60
393.27	1523.69
393.47	1591.27
393.68	1554.41
393.89	1544.17
394.10	1572.84
394.31	1529.83
394.52	1538.02
394.72	1509.35
394.93	1626.09
395.14	1458.15
395.35	1583.08
395.56	1437.67
395.76	1583.08
395.97	1708.01
396.18	1722.34
396.39	1810.40
396.60	1931.23
396.80	1800.16
397.01	1693.67
397.22	1613.80
397.43	1697.77
397.64	1599.46
397.84	1615.85
398.05	1646.57
398.26	1654.76
398.47	1652.71
398.67	1669.09
398.88	1572.84
399.09	1599.46
399.30	1490.92
399.51	1566.70
399.71	1599.46
399.92	1538.02
400.13	1595.37
400.34	1556.46
400.54	1585.13
400.75	1677.29
400.96	1476.59
401.17	1611.75
401.37	1558.50
401.58	1517.54
401.79	1642.47
402.00	1654.76
402.21	2050.02
402.41	1939.43
402.62	1996.77
402.83	1898.47
403.04	1877.99
403.24	1898.47
403.45	1613.80
403.66	1679.33
403.87	1695.72
404.07	1779.68
404.28	1820.64
404.49	1675.24
404.70	1609.70
404.90	1570.79
405.11	1705.96
405.32	1648.61
405.52	1517.54
405.73	1454.06
405.94	1443.82
406.15	1509.35
406.35	1656.81
406.56	1638.38
406.77	1568.74
406.98	1599.46
407.18	1437.67
407.39	1605.61
407.60	1511.40
407.80	1603.56
408.01	1515.50
408.22	1593.32
408.43	1572.84
408.63	1597.42
408.84	1544.17
409.05	1595.37
409.25	1535.98
409.46	1542.12
409.67	1507.30
409.88	1599.46
410.08	1576.94
410.29	1482.73
410.50	1488.87
410.70	1503.21
410.91	1419.24
411.12	1548.26
411.32	1548.26
411.53	1521.64
411.74	1593.32
411.95	1722.34
412.15	1642.47
412.36	1662.95
412.57	1630.18
412.77	1660.90
412.98	1615.85
413.19	1503.21
413.39	1605.61
413.60	1628.14
413.81	1648.61
414.01	1497.07
414.22	1562.60
414.43	1607.66
414.63	1558.50
414.84	1556.46
415.05	1548.26
415.25	1587.18
415.46	1564.65
415.67	1558.50
415.87	1472.49
416.08	1542.12
416.29	1570.79
416.49	1576.94
416.70	1550.31
416.91	1521.64
417.11	1560.55
417.32	1542.12
417.53	1574.89
417.73	1546.22
417.94	1572.84
418.15	1499.11
418.35	1583.08
418.56	1556.46
418.77	1636.33
418.97	1540.07
419.18	1521.64
419.38	1486.83
419.59	1533.93
419.80	1595.37
420.00	1490.92
420.21	1552.36
420.42	1624.04
420.62	1566.70
420.83	1552.36
421.04	1495.02
421.24	1480.68
421.45	1517.54
421.65	1572.84
421.86	1519.59
422.07	1544.17
422.27	1464.30
422.48	1535.98
422.69	1542.12
422.89	1519.59
423.10	1540.07
423.30	1511.40
423.51	1554.41
423.72	1568.74
423.92	1529.83
424.13	1611.75
424.33	1552.36
424.54	1589.22
424.75	1585.13
424.95	1605.61
425.16	1540.07
425.36	1476.59
425.57	1591.27
425.78	1509.35
425.98	1578.98
426.19	1517.54
426.39	1468.39
426.60	1538.02
426.81	1578.98
427.01	1523.69
427.22	1525.74
427.42	1482.73
427.63	1529.83
427.83	1544.17
428.04	1646.57
428.25	1589.22
428.45	1630.18
428.66	1548.26
428.86	1486.83
429.07	1556.46
429.28	1609.70
429.48	1576.94
429.69	1437.67
429.89	1540.07
430.10	1411.05
430.30	1568.74
430.51	1574.89
430.71	1462.25
430.92	1562.60
431.13	1476.59
431.33	1564.65
431.54	1540.07
431.74	1648.61
431.95	1564.65
432.15	1542.12
432.36	1595.37
432.56	1562.60
432.77	1656.81
432.98	1546.22
433.18	1529.83
433.39	1472.49
433.59	1544.17
433.80	1626.09
434.00	1662.95
434.21	1460.20
434.41	1511.40
434.62	1679.33
434.82	1531.88
435.03	1466.35
435.23	1439.72
435.44	1527.78
435.64	1589.22
435.85	1574.89
436.06	1581.03
436.26	1574.89
436.47	1574.89
436.67	1540.07
436.88	1603.56
437.08	1556.46
437.29	1642.47
437.49	1609.70
437.70	1550.31
437.90	1523.69
438.11	1705.96
438.31	1570.79
438.52	1665.00
438.72	1689.57
438.93	1785.83
439.13	1646.57
439.34	1640.42
439.54	1597.42
439.75	1671.14
439.95	1591.27
440.16	1581.03
440.36	1558.50
440.57	1576.94
440.77	1595.37
440.98	1556.46
441.18	1527.78
441.39	1527.78
441.59	1501.16
441.80	1583.08
442.00	1533.93
442.21	1589.22
442.41	1456.11
442.62	1652.71
442.82	1535.98
443.02	1497.07
443.23	1611.75
443.43	1531.88
443.64	1632.23
443.84	1568.74
444.05	1685.48
444.25	1525.74
444.46	1490.92
444.66	1585.13
444.87	1593.32
445.07	1511.40
445.28	1630.18
445.48	1617.90
445.69	1583.08
445.89	1705.96
446.09	1562.60
446.30	2047.97
446.50	3194.83
446.71	4409.28
446.91	5220.27
447.12	5629.87
447.32	5533.61
447.53	4569.02
447.73	4136.90
447.93	3717.06
448.14	3416.01
448.34	3239.89
448.55	2889.68
448.75	2912.21
448.96	2852.82
449.16	2500.57
449.36	2181.09
449.57	1964.00
449.77	1742.82
449.98	1644.52
450.18	1662.95
450.39	1585.13
450.59	1593.32
450.79	1562.60
451.00	1484.78
451.20	1568.74
451.41	1488.87
451.61	1556.46
451.81	1544.17
452.02	1517.54
452.22	1529.83
452.43	1523.69
452.63	1515.50
452.84	1615.85
453.04	1538.02
453.24	1495.02
453.45	1501.16
453.65	1533.93
453.86	1585.13
454.06	1521.64
454.26	1595.37
454.47	1447.91
454.67	1656.81
454.87	1523.69
455.08	1484.78
455.28	1654.76
455.49	1538.02
455.69	1544.17
455.89	1650.66
456.10	1542.12
456.30	1484.78
456.51	1542.12
456.71	1531.88
456.91	1501.16
457.12	1550.31
457.32	1540.07
457.52	1478.63
457.73	1632.23
457.93	1548.26
458.14	1538.02
458.34	1462.25
458.54	1533.93
458.75	1445.87
458.95	1583.08
459.15	1503.21
459.36	1660.90
459.56	1517.54
459.76	1605.61
459.97	1548.26
460.17	1572.84
460.37	1605.61
460.58	1552.36
460.78	1576.94
460.99	1554.41
461.19	1548.26
461.39	1445.87
461.60	1515.50
461.80	1611.75
462.00	1583.08
462.21	1542.12
462.41	1470.44
462.61	1581.03
462.82	1492.97
463.02	1583.08
463.22	1540.07
463.43	1638.38
463.63	1552.36
463.83	1574.89
464.04	1542.12
464.24	1525.74
464.44	1554.41
464.64	1603.56
464.85	1566.70
465.05	1591.27
465.25	1591.27
465.46	1535.98
465.66	1554.41
465.86	1615.85
466.07	1562.60
466.27	1517.54
466.47	1503.21
466.68	1480.68
466.88	1650.66
467.08	1638.38
467.29	1550.31
467.49	1640.42
467.69	1550.31
467.89	1535.98
468.10	1552.36
468.30	1458.15
468.50	1552.36
468.71	1540.07
468.91	1476.59
469.11	1673.19
469.31	1513.45
469.52	1507.30
469.72	1662.95
469.92	1601.51
470.13	1607.66
470.33	1570.79
470.53	1730.53
470.73	2097.12
470.94	2338.78
471.14	2402.27
471.34	2701.27
471.54	2502.62
471.75	2199.52
471.95	2080.74
472.15	2009.06
472.36	1941.47
472.56	1902.56
472.76	1886.18
472.96	1832.93
473.17	1765.35
473.37	1847.27
473.57	1671.14
473.77	1658.85
473.98	1595.37
474.18	1525.74
474.38	1638.38
474.58	1558.50
474.79	1570.79
474.99	1583.08
475.19	1589.22
475.39	1503.21
475.60	1599.46
475.80	1517.54
476.00	1591.27
476.20	1511.40
476.41	1515.50
476.61	1667.05
476.81	1544.17
477.01	1533.93
477.21	1621.99
477.42	1648.61
477.62	1443.82
477.82	1550.31
478.02	1533.93
478.23	1572.84
478.43	1552.36
478.63	1525.74
478.83	1552.36
479.03	1456.11
479.24	1667.05
479.44	1654.76
479.64	1535.98
479.84	1486.83
480.04	1507.30
480.25	1583.08
480.45	1505.26
480.65	1552.36
480.85	1587.18
481.06	1492.97
481.26	1576.94
481.46	1521.64
481.66	1619.94
481.86	1540.07
482.06	1619.94
482.27	1511.40
482.47	1529.83
482.67	1585.13
482.87	1542.12
483.07	1533.93
483.28	1544.17
483.48	1515.50
483.68	1527.78
483.88	1525.74
484.08	1460.20
484.29	1552.36
484.49	1535.98
484.69	1566.70
484.89	1595.37
485.09	1603.56
485.29	1568.74
485.50	1517.54
485.70	1511.40
485.90	1576.94
486.10	1548.26
486.30	1552.36
486.50	1578.98
486.71	1574.89
486.91	1572.84
487.11	1574.89
487.31	1497.07
487.51	1593.32
487.71	1540.07
487.91	1570.79
488.12	1454.06
488.32	1470.44
488.52	1570.79
488.72	1490.92
488.92	1568.74
489.12	1607.66
489.32	1595.37
489.53	1552.36
489.73	1435.63
489.93	1617.90
490.13	1511.40
490.33	1488.87
490.53	1525.74
490.73	1701.86
490.94	1501.16
491.14	1552.36
491.34	1710.05
491.54	2127.84
491.74	2664.41
491.94	3010.51
492.14	3356.62
492.34	3203.02
492.54	2803.67
492.75	2533.34
492.95	2295.77
493.15	2207.71
493.35	2181.09
493.55	2074.59
493.75	2082.78
493.95	2056.16
494.15	1855.46
494.35	1804.26
494.56	1679.33
494.76	1642.47
494.96	1621.99
495.16	1599.46
495.36	1587.18
495.56	1456.11
495.76	1585.13
495.96	1628.14
496.16	1544.17
496.36	1597.42
496.56	1562.60
496.77	1574.89
496.97	1576.94
497.17	1624.04
497.37	1458.15
497.57	1558.50
497.77	1544.17
497.97	1529.83
498.17	1499.11
498.37	1542.12
498.57	1529.83
498.77	1533.93
498.97	1550.31
499.17	1632.23
499.38	1503.21
499.58	1497.07
499.78	1578.98
499.98	1585.13
500.18	1562.60
500.38	1605.61
500.58	1830.88
500.78	2772.95
500.98	5066.67
501.18	6760.34
501.38	8189.83
501.58	8787.83
501.78	7970.69
501.98	6268.83
502.18	5322.67
502.38	4739.00
502.58	4263.87
502.78	3901.38
502.98	3684.30
503.18	3588.04
503.38	3338.19
503.59	2944.98
503.79	2762.71
503.99	2535.39
504.19	2207.71
504.39	2181.09
504.59	2107.36
504.79	2062.30
504.99	1998.82
505.19	1775.59
505.39	1761.25
505.59	1888.23
505.79	1714.15
505.99	1603.56
506.19	1626.09
506.39	1689.57
506.59	1574.89
506.79	1648.61
506.99	1705.96
507.19	1599.46
507.39	1597.42
507.59	1503.21
507.79	1505.26
507.99	1511.40
508.19	1644.52
508.39	1585.13
508.59	1501.16
508.79	1595.37
508.99	1677.29
509.19	1490.92
509.39	1591.27
509.59	1550.31
509.79	1488.87
509.99	1529.83
510.19	1585.13
510.39	1550.31
510.59	1597.42
510.79	1576.94
510.99	1495.02
511.19	1550.31
511.39	1648.61
511.59	1599.46
511.79	1662.95
511.99	1535.98
512.19	1632.23
512.38	1517.54
512.58	1521.64
512.78	1632.23
512.98	1578.98
513.18	1535.98
513.38	1546.22
513.58	1607.66
513.78	1538.02
513.98	1538.02
514.18	1492.97
514.38	1542.12
514.58	1527.78
514.78	1503.21
514.98	1476.59
515.18	1538.02
515.38	1443.82
515.58	1591.27
515.78	1509.35
515.98	1529.83
516.18	1558.50
516.38	1542.12
516.57	1548.26
516.77	1523.69
516.97	1525.74
517.17	1568.74
517.37	1490.92
517.57	1597.42
517.77	1501.16
517.97	1525.74
518.17	1581.03
518.37	1542.12
518.57	1492.97
518.77	1560.55
518.97	1492.97
519.16	1529.83
519.36	1611.75
519.56	1486.83
519.76	1507.30
519.96	1576.94
520.16	1609.70
520.36	1527.78
520.56	1548.26
520.76	1527.78
520.96	1513.45
521.16	1632.23
521.35	1503.21
521.55	1656.81
521.75	1572.84
521.95	1527.78
522.15	1474.54
522.35	1452.01
522.55	1480.68
522.75	1642.47
522.95	1546.22
523.14	1503.21
523.34	1544.17
523.54	1566.70
523.74	1605.61
523.94	1523.69
524.14	1564.65
524.34	1544.17
524.54	1617.90
524.73	1562.60
524.93	1568.74
525.13	1574.89
525.33	1425.39
525.53	1667.05
525.73	1499.11
525.93	1566.70
526.13	1474.54
526.32	1554.41
526.52	1566.70
526.72	1490.92
526.92	1621.99
527.12	1558.50
527.32	1497.07
527.52	1595.37
527.71	1542.12
527.91	1568.74
528.11	1529.83
528.31	1525.74
528.51	1462.25
528.71	1560.55
528.90	1472.49
529.10	1611.75
529.30	1609.70
529.50	1406.95
529.70	1568.74
529.90	1507.30
530.09	1529.83
530.29	1609.70
530.49	1486.83
530.69	1699.81
530.89	1523.69
531.09	1611.75
531.28	1535.98
531.48	1570.79
531.68	1572.84
531.88	1589.22
532.08	1574.89
532.28	1511.40
532.47	1562.60
532.67	1544.17
532.87	1540.07
533.07	1538.02
533.27	1562.60
533.46	1556.46
533.66	1531.88
533.86	1642.47
534.06	1527.78
534.26	1525.74
534.45	1615.85
534.65	1681.38
534.85	1523.69
535.05	1523.69
535.25	1626.09
535.44	1472.49
535.64	1576.94
535.84	1542.12
536.04	1554.41
536.24	1476.59
536.43	1458.15
536.63	1578.98
536.83	1495.02
537.03	1587.18
537.22	1527.78
537.42	1527.78
537.62	1466.35
537.82	1550.31
538.02	1531.88
538.21	1587.18
538.41	1673.19
538.61	1515.50
538.81	1566.70
539.00	1601.51
539.20	1507.30
539.40	1476.59
539.60	1578.98
539.79	1613.80
539.99	1531.88
540.19	1478.63
540.39	1538.02
540.58	1626.09
540.78	1576.94
540.98	1525.74
541.18	1576.94
541.37	1550.31
541.57	1540.07
541.77	1560.55
541.97	1486.83
542.16	1486.83
542.36	1503.21
542.56	1593.32
542.76	1609.70
542.95	1566.70
543.15	1601.51
543.35	1511.40
543.54	1501.16
543.74	1462.25
543.94	1574.89
544.14	1529.83
544.33	1521.64
544.53	1548.26
544.73	1515.50
544.93	1488.87
545.12	1558.50
545.32	1564.65
545.52	1558.50
545.71	1480.68
545.91	1505.26
546.11	1533.93
546.30	1535.98
546.50	1546.22
546.70	1589.22
546.90	1599.46
547.09	1507.30
547.29	1511.40
547.49	1613.80
547.68	1540.07
547.88	1499.11
548.08	1669.09
548.27	1927.14
548.47	1486.83
548.67	1482.73
548.87	1621.99
549.06	1611.75
549.26	1519.59
549.46	1585.13
549.65	1507.30
549.85	1507.30
550.05	1593.32
550.24	1595.37
550.44	1587.18
550.64	1527.78
550.83	1544.17
551.03	1648.61
551.23	1574.89
551.42	1591.27
551.62	1478.63
551.82	1556.46
552.01	1593.32
552.21	1533.93
552.41	1529.83
552.60	1572.84
552.80	1621.99
553.00	1505.26
553.19	1495.02
553.39	1566.70
553.59	1486.83
553.78	1511.40
553.98	1546.22
554.17	1501.16
554.37	1548.26
554.57	1542.12
554.76	1509.35
554.96	1550.31
555.16	1542.12
555.35	1535.98
555.55	1546.22
555.75	1570.79
555.94	1527.78
556.14	1468.39
556.33	1587.18
556.53	1578.98
556.73	1546.22
556.92	1523.69
557.12	1597.42
557.32	1621.99
557.51	1683.43
557.71	1601.51
557.90	1658.85
558.10	1585.13
558.30	1578.98
558.49	1583.08
558.69	1490.92
558.88	1550.31
559.08	1560.55
559.28	1505.26
559.47	1583.08
559.67	1599.46
559.86	1601.51
560.06	1542.12
560.26	1538.02
560.45	1533.93
560.65	1523.69
560.84	1562.60
561.04	1595.37
561.24	1560.55
561.43	1492.97
561.63	1581.03
561.82	1525.74
562.02	1535.98
562.22	1501.16
562.41	1482.73
562.61	1624.04
562.80	1560.55
563.00	1718.25
563.19	1519.59
563.39	1570.79
563.59	1611.75
563.78	1511.40
563.98	1538.02
564.17	1560.55
564.37	1492.97
564.56	1509.35
564.76	1474.54
564.96	1574.89
565.15	1566.70
565.35	1720.29
565.54	1525.74
565.74	1595.37
565.93	1538.02
566.13	1564.65
566.32	1611.75
566.52	1566.70
566.71	1503.21
566.91	1589.22
567.11	1525.74
567.30	1501.16
567.50	1546.22
567.69	1583.08
567.89	1540.07
568.08	1515.50
568.28	1548.26
568.47	1501.16
568.67	1607.66
568.86	1509.35
569.06	1619.94
569.25	1495.02
569.45	1517.54
569.64	1570.79
569.84	1548.26
570.04	1574.89
570.23	1460.20
570.43	1511.40
570.62	1546.22
570.82	1591.27
571.01	1460.20
571.21	1476.59
571.40	1478.63
571.60	1628.14
571.79	1513.45
571.99	1570.79
572.18	1509.35
572.38	1505.26
572.57	1515.50
572.77	1574.89
572.96	1628.14
573.16	1650.66
573.35	1599.46
573.55	1671.14
573.74	1628.14
573.94	1523.69
574.13	1540.07
574.33	1615.85
574.52	1556.46
574.71	1519.59
574.91	1593.32
575.10	1478.63
575.30	1544.17
575.49	1527.78
575.69	1546.22
575.88	1552.36
576.08	1646.57
576.27	1607.66
576.47	1644.52
576.66	1789.92
576.86	1654.76
577.05	1601.51
577.25	1578.98
577.44	1726.44
577.64	1603.56
577.83	1615.85
578.02	1568.74
578.22	1656.81
578.41	1636.33
578.61	1589.22
578.80	1521.64
579.00	1564.65
579.19	1578.98
579.39	1611.75
579.58	1607.66
579.77	1527.78
579.97	1615.85
580.16	1527.78
580.36	1726.44
580.55	1675.24
580.75	1615.85
580.94	1648.61
581.13	1701.86
581.33	1626.09
581.52	1732.58
581.72	1679.33
581.91	1701.86
582.11	1636.33
582.30	1708.01
582.49	1628.14
582.69	1642.47
582.88	1640.42
583.08	1615.85
583.27	1667.05
583.47	1595.37
583.66	1568.74
583.85	1613.80
584.05	1583.08
584.24	1701.86
584.44	1652.71
584.63	1638.38
584.82	1720.29
585.02	1705.96
585.21	1732.58
585.41	1785.83
585.60	1660.90
585.79	1806.31
585.99	1777.64
586.18	1787.88
586.37	2002.91
586.57	3104.72
586.76	9662.32
586.96	27780.70
587.15	43879.78
587.34	54461.63
587.54	61658.20
587.73	59511.92
587.93	43476.33
588.12	32427.54
588.31	26076.79
588.51	22226.60
588.70	19861.20
588.89	18552.55
589.09	16989.95
589.28	15464.21
589.47	13211.45
589.67	11343.70
589.86	8980.34
590.06	6821.78
590.25	5021.62
590.44	3747.78
590.64	2887.64
590.83	2365.40
591.02	2095.07
591.22	1871.84
591.41	1802.21
591.60	1683.43
591.80	1626.09
591.99	1574.89
592.18	1599.46
592.38	1621.99
592.57	1576.94
592.76	1644.52
592.96	1632.23
593.15	1601.51
593.34	1658.85
593.54	1615.85
593.73	1585.13
593.92	1570.79
594.12	1640.42
594.31	1636.33
594.50	1640.42
594.70	1648.61
594.89	1728.49
595.08	1462.25
595.28	1523.69
595.47	1697.77
595.66	1638.38
595.86	1525.74
596.05	1527.78
596.24	1583.08
596.43	1632.23
596.63	1603.56
596.82	1540.07
597.01	1587.18
597.21	1679.33
597.40	1605.61
597.59	1603.56
597.79	1603.56
597.98	1570.79
598.17	1568.74
598.36	1574.89
598.56	1632.23
598.75	1548.26
598.94	1634.28
599.14	1644.52
599.33	1503.21
599.52	1660.90
599.71	1578.98
599.91	1656.81
600.10	1611.75
600.29	1591.27
600.48	1626.09
600.68	1658.85
600.87	1499.11
601.06	1484.78
601.26	1570.79
601.45	1542.12
601.64	1523.69
601.83	1605.61
602.03	1562.60
602.22	1576.94
602.41	1572.84
602.60	1652.71
602.80	1593.32
602.99	1572.84
603.18	1460.20
603.37	1550.31
603.57	1570.79
603.76	1546.22
603.95	1558.50
604.14	1581.03
604.34	1572.84
604.53	1515.50
604.72	1558.50
604.91	1574.89
605.10	1599.46
605.30	1497.07
605.49	1611.75
605.68	1521.64
605.87	1540.07
606.07	1513.45
606.26	1605.61
606.45	1566.70
606.64	1566.70
606.84	1499.11
607.03	1646.57
607.22	1654.76
607.41	1576.94
607.60	1632.23
607.80	1644.52
607.99	1495.02
608.18	1646.57
608.37	1574.89
608.56	1574.89
608.76	1591.27
608.95	1652.71
609.14	1552.36
609.33	1613.80
609.52	1673.19
609.72	1665.00
609.91	1636.33
610.10	1519.59
610.29	1636.33
610.48	1619.94
610.68	1605.61
610.87	1611.75
611.06	1595.37
611.25	1554.41
611.44	1636.33
611.63	1570.79
611.83	1630.18
612.02	1548.26
612.21	1572.84
612.40	1535.98
612.59	1570.79
612.79	1576.94
612.98	1550.31
613.17	1566.70
613.36	1591.27
613.55	1597.42
613.74	1607.66
613.93	1687.53
614.13	1695.72
614.32	1794.02
614.51	1710.05
614.70	1642.47
614.89	1652.71
615.08	1662.95
615.28	1953.76
615.47	1585.13
615.66	1585.13
615.85	1585.13
616.04	1679.33
616.23	1572.84
616.42	1564.65
616.62	1732.58
616.81	1601.51
617.00	1605.61
617.19	1566.70
617.38	1607.66
617.57	1626.09
617.76	1562.60
617.95	1517.54
618.15	1540.07
618.34	1697.77
618.53	1476.59
618.72	1568.74
618.91	1691.62
619.10	1628.14
619.29	1566.70
619.48	1535.98
619.68	1482.73
619.87	1542.12
620.06	1480.68
620.25	1558.50
620.44	1468.39
620.63	1505.26
620.82	1595.37
621.01	1593.32
621.20	1480.68
621.39	1601.51
621.59	1650.66
621.78	1617.90
621.97	1556.46
622.16	1576.94
622.35	1507.30
622.54	1611.75
622.73	1599.46
622.92	1429.48
623.11	1472.49
623.30	1574.89
623.49	1632.23
623.68	1597.42
623.88	1578.98
624.07	1591.27
624.26	1507.30
624.45	1617.90
624.64	1503.21
624.83	1583.08
625.02	1505.26
625.21	1611.75
625.40	1531.88
625.59	1630.18
625.78	1568.74
625.97	1572.84
626.16	1628.14
626.35	1624.04
626.54	1609.70
626.74	1689.57
626.93	1552.36
627.12	1544.17
627.31	1619.94
627.50	1525.74
627.69	1542.12
627.88	1597.42
628.07	1560.55
628.26	1470.44
628.45	1472.49
628.64	1533.93
628.83	1544.17
629.02	1511.40
629.21	1529.83
629.40	1665.00
629.59	1603.56
629.78	1470.44
629.97	1513.45
630.16	1644.52
630.35	1509.35
630.54	1583.08
630.73	1531.88
630.92	1519.59
631.11	1441.77
631.30	1587.18
631.49	1646.57
631.68	1621.99
631.87	1566.70
632.06	1482.73
632.25	1638.38
632.44	1550.31
632.63	1636.33
632.82	1552.36
633.01	1562.60
633.20	1636.33
633.39	1624.04
633.58	1544.17
633.77	1634.28
633.96	1646.57
634.15	1640.42
634.34	1617.90
634.53	1531.88
634.72	1542.12
634.91	1466.35
635.10	1548.26
635.29	1599.46
635.48	1574.89
635.67	1595.37
635.86	1468.39
636.05	1636.33
636.24	1523.69
636.43	1564.65
636.62	1589.22
636.81	1380.33
637.00	1621.99
637.19	1578.98
637.38	1492.97
637.57	1484.78
637.76	1568.74
637.95	1665.00
638.14	1642.47
638.33	1648.61
638.52	1693.67
638.71	1591.27
638.89	1523.69
639.08	1675.24
639.27	1619.94
639.46	1662.95
639.65	1843.17
639.84	2121.70
640.03	2148.32
640.22	2181.09
640.41	2146.27
640.60	1968.10
640.79	1839.08
640.98	1755.11
641.17	1775.59
641.36	1724.39
641.55	1779.68
641.74	1689.57
641.92	1576.94
642.11	1599.46
642.30	1681.38
642.49	1665.00
642.68	1509.35
642.87	1519.59
643.06	1626.09
643.25	1556.46
643.44	1515.50
643.63	1521.64
643.82	1564.65
644.00	1499.11
644.19	1513.45
644.38	1425.39
644.57	1599.46
644.76	1605.61
644.95	1515.50
645.14	1468.39
645.33	1587.18
645.52	1601.51
645.71	1468.39
645.89	1521.64
646.08	1503.21
646.27	1497.07
646.46	1677.29
646.65	1464.30
646.84	1556.46
647.03	1583.08
647.22	1583.08
647.40	1552.36
647.59	1511.40
647.78	1435.63
647.97	1492.97
648.16	1484.78
648.35	1583.08
648.54	1552.36
648.73	1517.54
648.91	1572.84
649.10	1595.37
649.29	1474.54
649.48	1521.64
649.67	1560.55
649.86	1585.13
650.05	1603.56
650.23	1665.00
650.42	1675.24
650.61	1759.21
650.80	1720.29
650.99	1814.50
651.18	1626.09
651.36	1671.14
651.55	1634.28
651.74	1595.37
651.93	1568.74
652.12	1554.41
652.31	1533.93
652.49	1609.70
652.68	1587.18
652.87	1650.66
653.06	1570.79
653.25	1665.00
653.44	1554.41
653.62	1552.36
653.81	1589.22
654.00	1542.12
654.19	1556.46
654.38	1634.28
654.56	1630.18
654.75	1525.74
654.94	1615.85
655.13	1566.70
655.32	1591.27
655.51	1560.55
655.69	1558.50
655.88	1587.18
656.07	1523.69
656.26	1558.50
656.45	1484.78
656.63	1552.36
656.82	1603.56
657.01	1548.26
657.20	1507.30
657.38	1564.65
657.57	1597.42
657.76	1458.15
657.95	1583.08
658.14	1490.92
658.32	1574.89
658.51	1535.98
658.70	1544.17
658.89	1576.94
659.08	1560.55
659.26	1656.81
659.45	1544.17
659.64	1617.90
659.83	1587.18
660.01	1767.40
660.20	1578.98
660.39	1695.72
660.58	1511.40
660.76	1585.13
660.95	1443.82
661.14	1517.54
661.33	1578.98
661.51	1476.59
661.70	1552.36
661.89	1521.64
662.08	1466.35
662.26	1560.55
662.45	1540.07
662.64	1681.38
662.83	1624.04
663.01	1445.87
663.20	1538.02
663.39	1658.85
663.58	1533.93
663.76	1599.46
663.95	1617.90
664.14	1527.78
664.32	1511.40
664.51	1517.54
664.70	1501.16
664.89	1574.89
665.07	1538.02
665.26	1605.61
665.45	1560.55
665.64	1626.09
665.82	1591.27
666.01	1615.85
666.20	1568.74
666.38	1617.90
666.57	1523.69
666.76	1777.64
666.95	2928.60
667.13	7608.20
667.32	15611.67
667.51	20104.91
667.69	23365.28
667.88	25579.13
668.07	22341.29
668.25	15832.85
668.44	12556.10
668.63	10200.93
668.81	8808.31
669.00	7702.41
669.19	7221.14
669.38	6211.49
669.56	5748.65
669.75	4843.45
669.94	4116.42
670.12	3463.12
670.31	2838.48
670.50	2480.09
670.68	2205.66
670.87	1877.99
671.06	1808.36
671.24	1652.71
671.43	1660.90
671.62	1675.24
671.80	1650.66
671.99	1642.47
672.18	1533.93
672.36	1609.70
672.55	1578.98
672.74	1591.27
672.92	1599.46
673.11	1603.56
673.29	1486.83
673.48	1591.27
673.67	1542.12
673.85	1617.90
674.04	1556.46
674.23	1585.13
674.41	1611.75
674.60	1486.83
674.79	1505.26
674.97	1568.74
675.16	1556.46
675.34	1599.46
675.53	1484.78
675.72	1542.12
675.90	1583.08
676.09	1587.18
676.28	1513.45
676.46	1413.10
676.65	1513.45
676.83	1542.12
677.02	1595.37
677.21	1595.37
677.39	1603.56
677.58	1497.07
677.77	1513.45
677.95	1529.83
678.14	1560.55
678.32	1583.08
678.51	1525.74
678.70	1652.71
678.88	1531.88
679.07	1531.88
679.25	1490.92
679.44	1439.72
679.63	1472.49
679.81	1568.74
680.00	1542.12
680.18	1621.99
680.37	1495.02
680.55	1562.60
680.74	1474.54
680.93	1445.87
681.11	1486.83
681.30	1568.74
681.48	1597.42
681.67	1531.88
681.85	1595.37
682.04	1515.50
682.23	1576.94
682.41	1558.50
682.60	1562.60
682.78	1515.50
682.97	1435.63
683.15	1562.60
683.34	1562.60
683.53	1560.55
683.71	1546.22
683.90	1574.89
684.08	1671.14
684.27	1497.07
684.45	1509.35
684.64	1566.70
684.82	1468.39
685.01	1550.31
685.19	1581.03
685.38	1613.80
685.57	1542.12
685.75	1488.87
685.94	1535.98
686.12	1535.98
686.31	1527.78
686.49	1605.61
686.68	1482.73
686.86	1503.21
687.05	1476.59
687.23	1703.91
687.42	1533.93
687.60	1437.67
687.79	1548.26
687.97	1603.56
688.16	1533.93
688.34	1527.78
688.53	1452.01
688.71	1603.56
688.90	1619.94
689.08	1525.74
689.27	1470.44
689.45	1632.23
689.64	1607.66
689.82	1521.64
690.01	1550.31
690.19	1509.35
690.38	1492.97
690.56	1667.05
690.75	1497.07
690.93	1531.88
691.12	1527.78
691.30	1576.94
691.49	1558.50
691.67	1511.40
691.86	1601.51
692.04	1509.35
692.23	1499.11
692.41	1599.46
692.60	1691.62
692.78	1656.81
692.97	1589.22
693.15	1662.95
693.34	1695.72
693.52	1601.51
693.71	1556.46
693.89	1615.85
694.08	1505.26
694.26	1628.14
694.44	1558.50
694.63	1624.04
694.81	1562.60
695.00	1552.36
695.18	1605.61
695.37	1591.27
695.55	1595.37
695.74	1468.39
695.92	1472.49
696.10	1548.26
696.29	1531.88
696.47	1515.50
696.66	1562.60
696.84	1527.78
697.03	1538.02
697.21	1621.99
697.40	2000.87
697.58	1552.36
697.76	1593.32
697.95	1480.68
698.13	1517.54
698.32	1517.54
698.50	1568.74
698.68	1632.23
698.87	1570.79
699.05	1607.66
699.24	1521.64
699.42	1501.16
699.61	1576.94
699.79	1497.07
699.97	1513.45
700.16	1447.91
700.34	1417.19
700.53	1505.26
700.71	1587.18
700.89	1572.84
701.08	1568.74
701.26	1607.66
701.45	1949.67
701.63	1527.78
701.81	1478.63
702.00	1505.26
702.18	1552.36
702.37	1601.51
702.55	1587.18
702.73	1665.00
702.92	1701.86
703.10	1810.40
703.28	1779.68
703.47	1699.81
703.65	1753.06
703.84	1755.11
704.02	1609.70
704.20	1724.39
704.39	1652.71
704.57	1628.14
704.75	1593.32
704.94	1669.09
705.12	1593.32
705.30	1662.95
705.49	1837.03
705.67	2795.48
705.86	7350.16
706.04	14534.43
706.22	18697.95
706.41	21628.60
706.59	22898.34
706.77	20901.57
706.96	14665.50
707.14	11661.13
707.32	9770.86
707.51	8568.70
707.69	7778.19
707.87	6836.12
708.06	5781.42
708.24	4665.27
708.42	3483.59
708.61	2904.02
708.79	2353.12
708.97	1945.57
709.16	1822.69
709.34	1755.11
709.52	1626.09
709.71	1640.42
709.89	1693.67
710.07	1585.13
710.26	1521.64
710.44	1591.27
710.62	1650.66
710.80	1564.65
710.99	1652.71
711.17	1615.85
711.35	1495.02
711.54	1517.54
711.72	1542.12
711.90	1603.56
712.09	1556.46
712.27	1533.93
712.45	1587.18
712.63	1439.72
712.82	1566.70
713.00	1544.17
713.18	1558.50
713.37	1558.50
713.55	1560.55
713.73	1554.41
713.91	1654.76
714.10	1495.02
714.28	1517.54
714.46	1556.46
714.65	1538.02
714.83	1576.94
715.01	1507.30
715.19	1497.07
715.38	1544.17
715.56	1521.64
715.74	1503.21
715.92	1548.26
716.11	1595.37
716.29	1433.58
716.47	1568.74
716.65	1495.02
716.84	1540.07
717.02	1517.54
717.20	1452.01
717.38	1593.32
717.57	1552.36
717.75	1595.37
717.93	1570.79
718.11	1519.59
718.30	1599.46
718.48	1638.38
718.66	1587.18
718.84	1558.50
719.03	1535.98
719.21	1501.16
719.39	1607.66
719.57	1552.36
719.75	1609.70
719.94	1533.93
720.12	1480.68
720.30	1601.51
720.48	1560.55
720.67	1460.20
720.85	1505.26
721.03	1562.60
721.21	1458.15
721.39	1542.12
721.58	1558.50
721.76	1509.35
721.94	1470.44
722.12	1517.54
722.30	1540.07
722.49	1472.49
722.67	1587.18
722.85	1519.59
723.03	1570.79
723.21	1423.34
723.40	1570.79
723.58	1609.70
723.76	1513.45
723.94	1701.86
724.12	1621.99
724.30	1679.33
724.49	1644.52
724.67	1486.83
724.85	1708.01
725.03	1499.11
725.21	1570.79
725.40	1568.74
725.58	1542.12
725.76	1609.70
725.94	1574.89
726.12	1587.18
726.30	1527.78
726.49	1527.78
726.67	1550.31
726.85	1576.94
727.03	1566.70
727.21	1681.38
727.39	2111.46
727.57	3205.07
727.76	4263.87
727.94	4808.63
728.12	4978.61
728.30	5089.20
728.48	4421.56
728.66	3485.64
728.84	3160.02
729.03	2928.60
729.21	2734.04
729.39	2303.96
729.57	2029.54
729.75	1890.28
729.93	1732.58
730.11	1607.66
730.30	1570.79
730.48	1619.94
730.66	1503.21
730.84	1562.60
731.02	1495.02
731.20	1535.98
731.38	1597.42
731.56	1542.12
731.74	1476.59
731.93	1542.12
732.11	1535.98
732.29	1521.64
732.47	1495.02
732.65	1587.18
732.83	1603.56
733.01	1533.93
733.19	1509.35
733.37	1515.50
733.56	1609.70
733.74	1476.59
733.92	1640.42
734.10	1495.02
734.28	1566.70
734.46	1486.83
734.64	1513.45
734.82	1533.93
735.00	1488.87
735.18	1523.69
735.36	1552.36
735.54	1578.98
735.73	1486.83
735.91	1566.70
736.09	1535.98
736.27	1570.79
736.45	1513.45
736.63	1527.78
736.81	1558.50
736.99	1658.85
737.17	1544.17
737.35	1523.69
737.53	1538.02
737.71	1497.07
737.89	1587.18
738.07	1427.43
738.25	1464.30
738.43	1464.30
738.61	1554.41
738.80	1517.54
738.98	1507.30
739.16	1421.29
739.34	1552.36
739.52	1624.04
739.70	1495.02
739.88	1638.38
740.06	1578.98
740.24	1480.68
740.42	1511.40
740.60	1527.78
740.78	1525.74
740.96	1454.06
741.14	1458.15
741.32	1478.63
741.50	1480.68
741.68	1630.18
741.86	1548.26
742.04	1550.31
742.22	1478.63
742.40	1544.17
742.58	1554.41
742.76	1554.41
742.94	1599.46
743.12	1454.06
743.30	1535.98
743.48	1560.55
743.66	1495.02
743.84	1486.83
744.02	1519.59
744.20	1583.08
744.38	1507.30
744.56	1515.50
744.74	1556.46
744.92	1519.59
745.10	1621.99
745.28	1546.22
745.46	1576.94
745.64	1525.74
745.82	1538.02
746.00	1503.21
746.18	1560.55
746.36	1544.17
746.54	1560.55
746.72	1564.65
746.90	1439.72
747.08	1607.66
747.26	1531.88
747.44	1585.13
747.62	1640.42
747.80	1576.94
747.98	1501.16
748.15	1572.84
748.33	1587.18
748.51	1482.73
748.69	1570.79
748.87	1538.02
749.05	1554.41
749.23	1497.07
749.41	1626.09
749.59	1452.01
749.77	1576.94
749.95	1470.44
750.13	1535.98
750.31	1566.70
750.49	1497.07
750.67	1605.61
750.85	1511.40
751.03	1644.52
751.20	1599.46
751.38	1626.09
751.56	1509.35
751.74	1521.64
751.92	1607.66
752.10	1505.26
752.28	1595.37
752.46	1505.26
752.64	1554.41
752.82	1552.36
753.00	1599.46
753.18	1574.89
753.35	1527.78
753.53	1519.59
753.71	1554.41
753.89	1599.46
754.07	1538.02
754.25	1583.08
754.43	1554.41
754.61	1492.97
754.79	1587.18
754.97	1544.17
755.14	1621.99
755.32	1554.41
755.50	1511.40
755.68	1503.21
755.86	1535.98
756.04	1480.68
756.22	1423.34
756.40	1542.12
756.57	1646.57
756.75	1533.93
756.93	1572.84
757.11	1595.37
757.29	1472.49
757.47	1486.83
757.65	1519.59
757.82	1437.67
758.00	1556.46
758.18	1517.54
758.36	1466.35
758.54	1609.70
758.72	1447.91
758.90	1578.98
759.07	1519.59
759.25	1482.73
759.43	1533.93
759.61	1429.48
759.79	1935.33
759.97	1591.27
760.15	1521.64
760.32	1523.69
760.50	1538.02
760.68	1640.42
760.86	1495.02
761.04	1570.79
761.22	1519.59
761.39	1566.70
761.57	1550.31
761.75	1568.74
761.93	1495.02
762.11	1470.44
762.28	1521.64
762.46	1497.07
762.64	1636.33
762.82	1476.59
763.00	1523.69
763.18	1599.46
763.35	1546.22
763.53	1601.51
763.71	1466.35
763.89	1495.02
764.07	1523.69
764.24	1492.97
764.42	1474.54
764.60	1560.55
764.78	1589.22
764.96	1533.93
765.13	1511.40
765.31	1456.11
765.49	1564.65
765.67	1439.72
765.84	1538.02
766.02	1443.82
766.20	1529.83
766.38	1566.70
766.56	1542.12
766.73	1570.79
766.91	1556.46
767.09	1460.20
767.27	1572.84
767.44	1452.01
767.62	1525.74
767.80	1578.98
767.98	1552.36
768.15	1597.42
768.33	1581.03
768.51	1552.36
768.69	1568.74
768.87	1572.84
769.04	1535.98
769.22	1621.99
769.40	1581.03
769.58	1640.42
769.75	1542.12
769.93	1619.94
770.11	1521.64
770.28	1523.69
770.46	1572.84
770.64	1550.31
770.82	1464.30
770.99	1535.98
771.17	1560.55
771.35	1492.97
771.53	1490.92
771.70	1533.93
771.88	1611.75
772.06	1589.22
772.23	1538.02
772.41	1548.26
772.59	1511.40
772.77	1492.97
772.94	1490.92
773.12	1456.11
773.30	1552.36
773.47	1521.64
773.65	1449.96
773.83	1628.14
774.01	1642.47
774.18	1519.59
774.36	1513.45
774.54	1431.53
774.71	1490.92
774.89	1417.19
775.07	1538.02
775.24	1560.55
775.42	1439.72
775.60	1554.41
775.78	1470.44
775.95	1523.69
776.13	1572.84
776.31	1447.91
776.48	1501.16
776.66	1599.46
776.84	1570.79
777.01	1423.34
777.19	1525.74
777.37	1548.26
777.54	1546.22
777.72	1636.33
777.90	1495.02
778.07	1427.43
778.25	1626.09
778.43	1550.31
778.60	1554.41
778.78	1538.02
778.96	1564.65
779.13	1523.69
779.31	1560.55
779.49	1546.22
779.66	1597.42
779.84	1503.21
780.01	1538.02
780.19	1511.40
780.37	1552.36
780.54	1568.74
780.72	1456.11
780.90	1568.74
781.07	1509.35
781.25	1441.77
781.43	1517.54
781.60	1513.45
781.78	1560.55
781.95	1470.44
782.13	1503.21
782.31	1556.46
782.48	1492.97
782.66	1552.36
782.83	1636.33
783.01	1550.31
783.19	1589.22
783.36	1570.79
783.54	1415.15
783.72	1572.84
783.89	1476.59
784.07	1511.40
784.24	1587.18
784.42	1583.08
784.60	1587.18
784.77	1542.12
784.95	1460.20
785.12	1505.26
785.30	1538.02
785.47	1435.63
785.65	1497.07
785.83	1478.63
786.00	1488.87
786.18	1441.77
786.35	1490.92
786.53	1476.59
786.71	1560.55
786.88	1542.12
787.06	1607.66
787.23	1515.50
787.41	1570.79
787.58	1519.59
787.76	1566.70
787.94	1609.70
788.11	1519.59
788.29	1464.30
788.46	1507.30
788.64	1470.44
788.81	1505.26
788.99	1456.11
789.16	1562.60
789.34	1507.30
789.52	1521.64
789.69	1591.27
789.87	1429.48
790.04	1556.46
790.22	1519.59
790.39	1550.31
790.57	1507.30
790.74	1560.55
790.92	1558.50
791.09	1445.87
791.27	1552.36
791.44	1626.09
791.62	1533.93
791.79	1601.51
791.97	1593.32
792.15	1728.49
792.32	1581.03
792.50	1566.70
792.67	1556.46
792.85	1646.57
793.02	1488.87
793.20	1525.74
793.37	1497.07
793.55	1486.83
793.72	1535.98
793.90	1544.17
794.07	1548.26
794.25	1509.35
794.42	1525.74
794.60	1535.98
794.77	1538.02
794.95	1574.89
795.12	1599.46
795.30	1472.49
795.47	1515.50
795.65	1671.14
795.82	1562.60
796.00	1523.69
796.17	1525.74
796.34	1617.90
796.52	1525.74
796.69	1595.37
796.87	1554.41
797.04	1554.41
797.22	1531.88
797.39	1517.54
797.57	1523.69
797.74	1617.90
797.92	1486.83
798.09	1587.18
798.27	1652.71
798.44	1531.88
798.62	1566.70
798.79	1468.39
798.96	1548.26
799.14	1576.94
799.31	1589.22
799.49	1533.93
799.66	1462.25
799.84	1554.41
800.01	1482.73
800.19	1484.78
800.36	1474.54
800.53	1593.32
800.71	1523.69
800.88	1581.03
801.06	1454.06
801.23	1527.78
801.41	1554.41
801.58	1583.08
801.75	1509.35
801.93	1527.78
802.10	1540.07
802.28	1495.02
802.45	1607.66
802.63	1669.09
802.80	1558.50
802.97	1398.76
803.15	1591.27
803.32	1499.11
803.50	1511.40
803.67	1464.30
803.84	1531.88
804.02	1646.57
804.19	1482.73
804.37	1542.12
804.54	1497.07
804.71	1540.07
804.89	1558.50
805.06	1437.67
805.24	1480.68
805.41	1501.16
805.58	1486.83
805.76	1671.14
805.93	1585.13
806.10	1525.74
806.28	1515.50
806.45	1576.94
806.63	1562.60
806.80	1523.69
806.97	1511.40
807.15	1519.59
807.32	1525.74
807.49	1542.12
807.67	1519.59
807.84	1560.55
808.01	1439.72
808.19	1572.84
808.36	1603.56
808.54	1617.90
808.71	1519.59
808.88	1564.65
809.06	1525.74
809.23	1613.80
809.40	1513.45
809.58	1564.65
809.75	1570.79
809.92	1568.74
810.10	1574.89
810.27	1564.65
810.44	1523.69
810.62	1576.94
810.79	1585.13
810.96	1462.25
811.14	1478.63
811.31	1527.78
811.48	1581.03
811.66	1513.45
811.83	1562.60
812.00	1576.94
812.18	1597.42
812.35	1607.66
812.52	1464.30
812.69	1576.94
812.87	1544.17
813.04	1466.35
813.21	1499.11
813.39	1548.26
813.56	1413.10
813.73	1583.08
813.91	1501.16
814.08	1540.07
814.25	1581.03
814.42	1462.25
814.60	1476.59
814.77	1552.36
814.94	1558.50
815.12	1511.40
815.29	1581.03
815.46	1468.39
815.63	1546.22
815.81	1619.94
815.98	1509.35
816.15	1542.12
816.33	1585.13
816.50	1558.50
816.67	1544.17
816.84	1495.02
817.02	1525.74
817.19	1587.18
817.36	1466.35
817.53	1531.88
817.71	1488.87
817.88	1609.70
818.05	1529.83
818.22	1583.08
818.40	1636.33
818.57	1507.30
818.74	1597.42
818.91	1533.93
819.09	1611.75
819.26	1523.69
819.43	1482.73
819.60	1480.68
819.78	1568.74
819.95	1673.19
820.12	1476.59
820.29	1642.47
820.47	1558.50
820.64	1517.54
820.81	1452.01
820.98	1495.02
821.15	1554.41
821.33	1544.17
821.50	1525.74
821.67	1517.54
821.84	1488.87
822.02	1578.98
822.19	1568.74
822.36	1503.21
822.53	1511.40
822.70	1409.00
822.88	1544.17
823.05	1593.32
823.22	1564.65
823.39	1517.54
823.56	1542.12
823.74	1591.27
823.91	1421.29
824.08	1452.01
824.25	1478.63
824.42	1621.99
824.60	1572.84
824.77	1585.13
824.94	1515.50
825.11	1566.70
825.28	1484.78
825.45	1576.94
825.63	1558.50
825.80	1525.74
825.97	1566.70
826.14	1531.88
826.31	1519.59
826.48	1599.46
826.66	1421.29
826.83	1497.07
827.00	1480.68
827.17	1523.69
827.34	1527.78
827.51	1511.40
827.69	1495.02
827.86	1499.11
828.03	1476.59
828.20	1570.79
828.37	1523.69
828.54	1624.04
828.71	1521.64
828.89	1619.94
829.06	1552.36
829.23	1619.94
829.40	1454.06
829.57	1540.07
829.74	1560.55
829.91	1556.46
830.09	1462.25
830.26	1544.17
830.43	1624.04
830.60	1454.06
830.77	1619.94
830.94	1501.16
831.11	1527.78
831.28	1550.31
831.46	1535.98
831.63	1568.74
831.80	1595.37
831.97	1495.02
832.14	1429.48
832.31	1527.78
832.48	1595.37
832.65	1513.45
832.82	1544.17
832.99	1503.21
833.17	1495.02
833.34	1566.70
833.51	1531.88
833.68	1464.30
833.85	1548.26
834.02	1488.87
834.19	1474.54
834.36	1497.07
834.53	1595.37
834.70	1609.70
834.87	1529.83
835.04	1507.30
835.22	1503.21
835.39	1476.59
835.56	1499.11
835.73	1529.83
835.90	1492.97
836.07	1546.22
836.24	1585.13
836.41	1560.55
836.58	1533.93
836.75	1578.98
836.92	1511.40
837.09	1499.11
837.26	1597.42
837.43	1546.22
837.60	1542.12
837.77	1527.78
837.94	1562.60
838.12	1482.73
838.29	1621.99
838.46	1435.63
838.63	1415.15
838.80	1613.80
838.97	1615.85
839.14	1566.70
839.31	1542.12
839.48	1562.60
839.65	1556.46
839.82	1650.66
839.99	1468.39
840.16	1574.89
840.33	1497.07
840.50	1589.22
840.67	1497.07
840.84	1519.59
841.01	1439.72
841.18	1476.59
841.35	1505.26
841.52	1529.83
841.69	1632.23
841.86	1601.51
842.03	1525.74
842.20	1556.46
842.37	1558.50
842.54	1513.45
842.71	1558.50
842.88	1458.15
843.05	1621.99
843.22	1462.25
843.39	1564.65
843.56	1449.96
843.73	1544.17
843.90	1585.13
844.07	1542.12
844.24	1566.70
844.41	1462.25
844.58	1558.50
844.75	1538.02
844.92	1554.41
845.09	1482.73
845.26	1523.69
845.43	1585.13
845.60	1452.01
845.77	1597.42
845.94	1605.61
846.10	1568.74
846.27	1460.20
846.44	1499.11
846.61	1495.02
846.78	1484.78
846.95	1550.31
847.12	1517.54
847.29	1474.54
847.46	1550.31
847.63	1566.70
847.80	1486.83
847.97	1462.25
848.14	1603.56
848.31	1572.84
848.48	1517.54
848.65	1525.74
848.82	1619.94
848.98	1597.42
849.15	1529.83
849.32	1611.75
849.49	1644.52
849.66	1621.99
849.83	1550.31
850.00	1538.02
850.17	1554.41
850.34	1556.46
850.51	1566.70
850.68	1558.50
850.85	1699.81
851.01	1533.93
851.18	1587.18
851.35	1497.07
851.52	1492.97
851.69	1601.51
851.86	1472.49
852.03	1517.54
852.20	1576.94
852.37	1478.63
852.53	1482.73
852.70	1554.41
852.87	1509.35
853.04	1544.17
853.21	1560.55
853.38	1558.50
853.55	1562.60
853.72	1533.93
853.89	1470.44
854.05	1470.44
854.22	1505.26
854.39	1511.40
854.56	1505.26
854.73	1570.79
854.90	1515.50
855.07	1499.11
855.23	1472.49
855.40	1560.55
855.57	1544.17
855.74	1474.54
855.91	1695.72
856.08	1486.83
856.25	1431.53
856.41	1423.34
856.58	1490.92
856.75	1452.01
856.92	1478.63
857.09	1591.27
857.26	1488.87
857.42	1558.50
857.59	1478.63
857.76	1497.07
857.93	1497.07
858.10	1562.60
858.27	1495.02
858.43	1468.39
858.60	1519.59
858.77	1476.59
858.94	1482.73
859.11	1609.70
859.27	1544.17
859.44	1511.40
859.61	1609.70
859.78	1593.32
859.95	1525.74
860.12	1490.92
860.28	1703.91
860.45	1560.55
860.62	1517.54
860.79	1523.69
860.95	1564.65
861.12	1544.17
861.29	1464.30
861.46	1525.74
861.63	1525.74
861.79	1497.07
861.96	1447.91
862.13	1527.78
862.30	1550.31
862.47	1478.63
862.63	1505.26
862.80	1546.22
862.97	1521.64
863.14	1552.36
863.30	1576.94
863.47	1495.02
863.64	1585.13
863.81	1542.12
863.97	1517.54
864.14	1574.89
864.31	1515.50
864.48	1540.07
864.65	1492.97
864.81	1550.31
864.98	1548.26
865.15	1570.79
865.32	1564.65
865.48	1556.46
865.65	1603.56
865.82	1484.78
865.98	1525.74
866.15	1619.94
866.32	1529.83
866.49	1521.64
866.65	1626.09
866.82	1458.15
866.99	1581.03
867.16	1558.50
867.32	1535.98
867.49	1509.35
867.66	1505.26
867.83	1476.59
867.99	1505.26
868.16	1556.46
868.33	1509.35
868.49	1544.17
868.66	1552.36
868.83	1542.12
868.99	1497.07
869.16	1525.74
869.33	1546.22
869.50	1609.70
869.66	1515.50
869.83	1562.60
870.00	1525.74
870.16	1576.94
870.33	1513.45
870.50	1566.70
870.66	1587.18
870.83	1605.61
871.00	1615.85
871.17	1595.37
871.33	1615.85
871.50	1484.78
871.67	1509.35
871.83	1533.93
872.00	1595.37
872.17	1505.26
872.33	1554.41
872.50	1550.31
872.67	1521.64
872.83	1533.93
873.00	1544.17
873.17	1599.46
873.33	1619.94
873.50	1581.03
873.67	1480.68
873.83	1517.54
874.00	1476.59
874.16	1568.74
874.33	1538.02
874.50	1509.35
874.66	1570.79
874.83	1497.07
875.00	1550.31
875.16	1566.70
875.33	1597.42
875.50	1495.02
875.66	1505.26
875.83	1562.60
875.99	1574.89
876.16	1441.77
876.33	1538.02
876.49	1507.30
876.66	1619.94
876.83	1535.98
876.99	1509.35
877.16	1531.88
877.32	1558.50
877.49	1548.26
877.66	1613.80
877.82	1636.33
877.99	1587.18
878.15	1597.42
878.32	1587.18
878.49	1497.07
878.65	1546.22
878.82	1665.00
878.98	1572.84
879.15	1578.98
879.32	1521.64
879.48	1501.16
879.65	1495.02
879.81	1435.63
879.98	1527.78
880.15	1501.16
880.31	1546.22
880.48	1435.63
880.64	1628.14
880.81	1556.46
880.97	1679.33
881.14	1525.74
881.31	1550.31
881.47	1650.66
881.64	1540.07
881.80	1394.67
881.97	1587.18
882.13	1570.79
882.30	1488.87
882.47	1476.59
882.63	1470.44
882.80	1523.69
882.96	1503.21
883.13	1560.55
883.29	1517.54
883.46	1535.98
883.62	1626.09
883.79	1540.07
883.95	1560.55
884.12	1470.44
884.29	1574.89
884.45	1595.37
884.62	1572.84
884.78	1499.11
884.95	1587.18
885.11	1476.59
885.28	1599.46
885.44	1462.25
885.61	1601.51
885.77	1583.08
885.94	1615.85
886.10	1490.92
886.27	1509.35
886.43	1595.37
886.60	1509.35
886.76	1599.46
886.93	1468.39
887.09	1564.65
887.26	1468.39
887.42	1515.50
887.59	1554.41
887.75	1720.29
887.92	1515.50
888.08	1535.98
888.25	1603.56
888.41	1576.94
888.58	1509.35
888.74	1501.16
888.91	1513.45
>>>>>End Processed Spectral Data<<<<<
