SpectraSuite Data File
++++++++++++++++++++++++++++++++++++
Date: Tue May 03 12:55:47 CEST 2016
User: root
Dark Spectrum Present: No
Reference Spectrum Present: No
Number of Sampled Component Spectra: 1
Spectrometers: USB4C02835
Integration Time (usec): 100000 (USB4C02835)
Spectra Averaged: 1 (USB4C02835)
Boxcar Smoothing: 0 (USB4C02835)
Correct for Electrical Dark: No (USB4C02835)
Strobe/Lamp Enabled: No (USB4C02835)
Correct for Detector Non-linearity: No (USB4C02835)
Correct for Stray Light: No (USB4C02835)
Number of Pixels in Processed Spectrum: 3648
>>>>>Begin Processed Spectral Data<<<<<
177.47	1310.70
177.69	1310.70
177.91	1310.70
178.13	1409.00
178.36	1327.08
178.58	1468.39
178.80	1566.70
179.02	1476.59
179.24	1521.64
179.46	1511.40
179.68	1576.94
179.90	1540.07
180.13	1507.30
180.35	1531.88
180.57	1570.79
180.79	1447.91
181.01	1517.54
181.23	1621.99
181.45	1578.98
181.67	1597.42
181.90	1585.13
182.12	1511.40
182.34	1495.02
182.56	1570.79
182.78	1558.50
183.00	1550.31
183.22	1552.36
183.44	1519.59
183.66	1611.75
183.89	1589.22
184.11	1601.51
184.33	1570.79
184.55	1578.98
184.77	1546.22
184.99	1501.16
185.21	1574.89
185.43	1652.71
185.65	1464.30
185.87	1513.45
186.10	1626.09
186.32	1621.99
186.54	1529.83
186.76	1615.85
186.98	1646.57
187.20	1558.50
187.42	1509.35
187.64	1492.97
187.86	1619.94
188.08	1538.02
188.30	1558.50
188.52	1591.27
188.75	1605.61
188.97	1564.65
189.19	1552.36
189.41	1523.69
189.63	1550.31
189.85	1525.74
190.07	1509.35
190.29	1435.63
190.51	1529.83
190.73	1423.34
190.95	1568.74
191.17	1552.36
191.39	1456.11
191.61	1533.93
191.84	1521.64
192.06	1568.74
192.28	1525.74
192.50	1675.24
192.72	1599.46
192.94	1558.50
193.16	1583.08
193.38	1566.70
193.60	1509.35
193.82	1552.36
194.04	1552.36
194.26	1554.41
194.48	1531.88
194.70	1490.92
194.92	1566.70
195.14	1533.93
195.36	1476.59
195.58	1533.93
195.80	1570.79
196.02	1523.69
196.24	1509.35
196.46	1535.98
196.69	1474.54
196.91	1621.99
197.13	1505.26
197.35	1650.66
197.57	1574.89
197.79	1550.31
198.01	1558.50
198.23	1607.66
198.45	1525.74
198.67	1441.77
198.89	1517.54
199.11	1531.88
199.33	1435.63
199.55	1490.92
199.77	1529.83
199.99	1566.70
200.21	1490.92
200.43	1535.98
200.65	1527.78
200.87	1419.24
201.09	1581.03
201.31	1564.65
201.53	1587.18
201.75	1550.31
201.97	1531.88
202.19	1605.61
202.41	1566.70
202.63	1550.31
202.85	1611.75
203.07	1533.93
203.29	1517.54
203.51	1503.21
203.73	1505.26
203.95	1675.24
204.17	1540.07
204.39	1619.94
204.61	1454.06
204.83	1533.93
205.05	1599.46
205.27	1673.19
205.49	1632.23
205.71	1572.84
205.93	1488.87
206.15	1525.74
206.37	1560.55
206.59	1476.59
206.81	1470.44
207.03	1476.59
207.25	1544.17
207.47	1568.74
207.69	1533.93
207.91	1605.61
208.13	1562.60
208.34	1431.53
208.56	1515.50
208.78	1650.66
209.00	1533.93
209.22	1488.87
209.44	1468.39
209.66	1517.54
209.88	1570.79
210.10	1538.02
210.32	1497.07
210.54	1525.74
210.76	1492.97
210.98	1589.22
211.20	1458.15
211.42	1523.69
211.64	1597.42
211.86	1607.66
212.08	1564.65
212.30	1529.83
212.52	1499.11
212.74	1554.41
212.96	1611.75
213.17	1679.33
213.39	1609.70
213.61	1574.89
213.83	1595.37
214.05	1482.73
214.27	1540.07
214.49	1435.63
214.71	1447.91
214.93	1599.46
215.15	1527.78
215.37	1576.94
215.59	1437.67
215.81	1656.81
216.03	1566.70
216.24	1535.98
216.46	1468.39
216.68	1558.50
216.90	1578.98
217.12	1554.41
217.34	1556.46
217.56	1521.64
217.78	1621.99
218.00	1558.50
218.22	1525.74
218.44	1474.54
218.66	1611.75
218.87	1548.26
219.09	1490.92
219.31	1603.56
219.53	1628.14
219.75	1554.41
219.97	1533.93
220.19	1527.78
220.41	1527.78
220.63	1568.74
220.85	1624.04
221.06	1566.70
221.28	1605.61
221.50	1574.89
221.72	1517.54
221.94	1556.46
222.16	1515.50
222.38	1591.27
222.60	1576.94
222.82	1468.39
223.03	1603.56
223.25	1540.07
223.47	1640.42
223.69	1685.48
223.91	1576.94
224.13	1554.41
224.35	1574.89
224.57	1652.71
224.78	1615.85
225.00	1503.21
225.22	1517.54
225.44	1544.17
225.66	1617.90
225.88	1527.78
226.10	1587.18
226.32	1548.26
226.53	1501.16
226.75	1511.40
226.97	1550.31
227.19	1568.74
227.41	1460.20
227.63	1449.96
227.85	1488.87
228.06	1562.60
228.28	1548.26
228.50	1609.70
228.72	1466.35
228.94	1513.45
229.16	1486.83
229.37	1519.59
229.59	1562.60
229.81	1550.31
230.03	1531.88
230.25	1527.78
230.47	1435.63
230.69	1507.30
230.90	1585.13
231.12	1546.22
231.34	1544.17
231.56	1628.14
231.78	1499.11
232.00	1517.54
232.21	1515.50
232.43	1482.73
232.65	1435.63
232.87	1585.13
233.09	1517.54
233.30	1476.59
233.52	1531.88
233.74	1499.11
233.96	1419.24
234.18	1570.79
234.40	1521.64
234.61	1667.05
234.83	1443.82
235.05	1531.88
235.27	1574.89
235.49	1566.70
235.70	1548.26
235.92	1578.98
236.14	1533.93
236.36	1624.04
236.58	1488.87
236.79	1533.93
237.01	1538.02
237.23	1546.22
237.45	1646.57
237.67	1607.66
237.88	1511.40
238.10	1560.55
238.32	1478.63
238.54	1550.31
238.76	1466.35
238.97	1499.11
239.19	1495.02
239.41	1591.27
239.63	1527.78
239.85	1507.30
240.06	1576.94
240.28	1585.13
240.50	1560.55
240.72	1480.68
240.93	1591.27
241.15	1550.31
241.37	1474.54
241.59	1603.56
241.81	1591.27
242.02	1519.59
242.24	1574.89
242.46	1599.46
242.68	1509.35
242.89	1568.74
243.11	1601.51
243.33	1558.50
243.55	1581.03
243.76	1550.31
243.98	1507.30
244.20	1560.55
244.42	1535.98
244.64	1556.46
244.85	1460.20
245.07	1531.88
245.29	1619.94
245.51	1521.64
245.72	1538.02
245.94	1611.75
246.16	1581.03
246.38	1697.77
246.59	1437.67
246.81	1456.11
247.03	1572.84
247.24	1505.26
247.46	1478.63
247.68	1492.97
247.90	1476.59
248.11	1574.89
248.33	1515.50
248.55	1501.16
248.77	1550.31
248.98	1509.35
249.20	1658.85
249.42	1525.74
249.64	1587.18
249.85	1560.55
250.07	1497.07
250.29	1603.56
250.50	1523.69
250.72	1531.88
250.94	1533.93
251.16	1619.94
251.37	1648.61
251.59	1558.50
251.81	1552.36
252.02	1609.70
252.24	1560.55
252.46	1613.80
252.68	1441.77
252.89	1583.08
253.11	1431.53
253.33	1572.84
253.54	1595.37
253.76	1478.63
253.98	1480.68
254.20	1521.64
254.41	1513.45
254.63	1560.55
254.85	1437.67
255.06	1562.60
255.28	1576.94
255.50	1558.50
255.71	1531.88
255.93	1509.35
256.15	1478.63
256.36	1574.89
256.58	1535.98
256.80	1595.37
257.02	1497.07
257.23	1486.83
257.45	1484.78
257.67	1544.17
257.88	1476.59
258.10	1632.23
258.32	1589.22
258.53	1492.97
258.75	1634.28
258.97	1460.20
259.18	1578.98
259.40	1552.36
259.62	1615.85
259.83	1587.18
260.05	1529.83
260.27	1796.07
260.48	1509.35
260.70	1535.98
260.92	1554.41
261.13	1449.96
261.35	1578.98
261.57	1527.78
261.78	1417.19
262.00	1548.26
262.22	1607.66
262.43	1521.64
262.65	1413.10
262.86	1523.69
263.08	1714.15
263.30	1585.13
263.51	1482.73
263.73	1515.50
263.95	1640.42
264.16	1576.94
264.38	1529.83
264.60	1540.07
264.81	1468.39
265.03	1683.43
265.25	1529.83
265.46	1595.37
265.68	1626.09
265.89	1583.08
266.11	1552.36
266.33	1589.22
266.54	1630.18
266.76	1546.22
266.98	1507.30
267.19	1636.33
267.41	1564.65
267.62	1593.32
267.84	1478.63
268.06	1648.61
268.27	1533.93
268.49	1634.28
268.70	1533.93
268.92	1517.54
269.14	1531.88
269.35	1449.96
269.57	1556.46
269.79	1628.14
270.00	1503.21
270.22	1546.22
270.43	1548.26
270.65	1501.16
270.87	1562.60
271.08	1558.50
271.30	1488.87
271.51	1517.54
271.73	1472.49
271.95	1578.98
272.16	1507.30
272.38	1599.46
272.59	1476.59
272.81	1484.78
273.02	1574.89
273.24	1585.13
273.46	1583.08
273.67	1495.02
273.89	1482.73
274.10	1558.50
274.32	1527.78
274.54	1581.03
274.75	1509.35
274.97	1554.41
275.18	1566.70
275.40	1505.26
275.61	1556.46
275.83	1525.74
276.05	1443.82
276.26	1490.92
276.48	1603.56
276.69	1509.35
276.91	1497.07
277.12	1542.12
277.34	1656.81
277.55	1583.08
277.77	1513.45
277.99	1501.16
278.20	1531.88
278.42	1593.32
278.63	1490.92
278.85	1439.72
279.06	1427.43
279.28	1558.50
279.49	1525.74
279.71	1484.78
279.93	1562.60
280.14	1513.45
280.36	1525.74
280.57	1595.37
280.79	1578.98
281.00	1538.02
281.22	1454.06
281.43	1523.69
281.65	1443.82
281.86	1558.50
282.08	1630.18
282.29	1630.18
282.51	1466.35
282.73	1525.74
282.94	1570.79
283.16	1572.84
283.37	1603.56
283.59	1542.12
283.80	1558.50
284.02	1574.89
284.23	1554.41
284.45	1490.92
284.66	1462.25
284.88	1435.63
285.09	1548.26
285.31	1591.27
285.52	1546.22
285.74	1484.78
285.95	1558.50
286.17	1558.50
286.38	1624.04
286.60	1556.46
286.81	1511.40
287.03	1550.31
287.24	1515.50
287.46	1509.35
287.67	1509.35
287.89	1615.85
288.10	1533.93
288.32	1540.07
288.53	1677.29
288.75	1511.40
288.96	1535.98
289.18	1484.78
289.39	1583.08
289.61	1470.44
289.82	1687.53
290.04	1607.66
290.25	1415.15
290.47	1527.78
290.68	1564.65
290.90	1533.93
291.11	1454.06
291.33	1597.42
291.54	1476.59
291.76	1558.50
291.97	1593.32
292.18	1572.84
292.40	1552.36
292.61	1499.11
292.83	1632.23
293.04	1568.74
293.26	1497.07
293.47	1507.30
293.69	1480.68
293.90	1460.20
294.12	1634.28
294.33	1503.21
294.55	1501.16
294.76	1574.89
294.97	1619.94
295.19	1681.38
295.40	1466.35
295.62	1581.03
295.83	1570.79
296.05	1544.17
296.26	1581.03
296.48	1558.50
296.69	1460.20
296.90	1521.64
297.12	1591.27
297.33	1593.32
297.55	1632.23
297.76	1558.50
297.98	1597.42
298.19	1603.56
298.41	1525.74
298.62	1533.93
298.83	1603.56
299.05	1523.69
299.26	1578.98
299.48	1583.08
299.69	1546.22
299.90	1538.02
300.12	1472.49
300.33	1591.27
300.55	1562.60
300.76	1558.50
300.98	1419.24
301.19	1550.31
301.40	1548.26
301.62	1521.64
301.83	1552.36
302.05	1554.41
302.26	1572.84
302.47	1505.26
302.69	1507.30
302.90	1574.89
303.12	1525.74
303.33	1613.80
303.54	1671.14
303.76	1503.21
303.97	1636.33
304.19	1505.26
304.40	1521.64
304.61	1521.64
304.83	1613.80
305.04	1558.50
305.26	1474.54
305.47	1572.84
305.68	1556.46
305.90	1482.73
306.11	1605.61
306.33	1515.50
306.54	1519.59
306.75	1560.55
306.97	1470.44
307.18	1523.69
307.39	1505.26
307.61	1562.60
307.82	1523.69
308.04	1558.50
308.25	1488.87
308.46	1527.78
308.68	1556.46
308.89	1488.87
309.10	1566.70
309.32	1554.41
309.53	1605.61
309.74	1609.70
309.96	1525.74
310.17	1538.02
310.39	1533.93
310.60	1568.74
310.81	1544.17
311.03	1503.21
311.24	1609.70
311.45	1525.74
311.67	1607.66
311.88	1513.45
312.09	1507.30
312.31	1554.41
312.52	1538.02
312.73	1507.30
312.95	1468.39
313.16	1529.83
313.37	1589.22
313.59	1460.20
313.80	1621.99
314.01	1632.23
314.23	1542.12
314.44	1566.70
314.65	1552.36
314.87	1566.70
315.08	1472.49
315.29	1488.87
315.51	1447.91
315.72	1488.87
315.93	1642.47
316.15	1613.80
316.36	1523.69
316.57	1515.50
316.79	1642.47
317.00	1550.31
317.21	1509.35
317.43	1519.59
317.64	1576.94
317.85	1521.64
318.07	1576.94
318.28	1523.69
318.49	1656.81
318.70	1800.16
318.92	1794.02
319.13	1671.14
319.34	1621.99
319.56	1597.42
319.77	1591.27
319.98	1611.75
320.20	1673.19
320.41	1591.27
320.62	1646.57
320.83	1519.59
321.05	1669.09
321.26	1597.42
321.47	1495.02
321.69	1503.21
321.90	1441.77
322.11	1521.64
322.32	1523.69
322.54	1527.78
322.75	1513.45
322.96	1693.67
323.18	1521.64
323.39	1531.88
323.60	1480.68
323.81	1501.16
324.03	1511.40
324.24	1505.26
324.45	1585.13
324.66	1564.65
324.88	1576.94
325.09	1640.42
325.30	1599.46
325.52	1484.78
325.73	1621.99
325.94	1486.83
326.15	1460.20
326.37	1564.65
326.58	1591.27
326.79	1636.33
327.00	1531.88
327.22	1605.61
327.43	1521.64
327.64	1505.26
327.85	1523.69
328.07	1497.07
328.28	1648.61
328.49	1464.30
328.70	1525.74
328.92	1554.41
329.13	1611.75
329.34	1617.90
329.55	1566.70
329.76	1673.19
329.98	1570.79
330.19	1669.09
330.40	1578.98
330.61	1572.84
330.83	1576.94
331.04	1490.92
331.25	1593.32
331.46	1556.46
331.68	1478.63
331.89	1593.32
332.10	1566.70
332.31	1499.11
332.52	1468.39
332.74	1589.22
332.95	1552.36
333.16	1454.06
333.37	1607.66
333.58	1533.93
333.80	1560.55
334.01	1507.30
334.22	1535.98
334.43	1501.16
334.64	1531.88
334.86	1449.96
335.07	1495.02
335.28	1546.22
335.49	1523.69
335.70	1535.98
335.92	1642.47
336.13	1677.29
336.34	1613.80
336.55	1517.54
336.76	1505.26
336.98	1445.87
337.19	1540.07
337.40	1452.01
337.61	1628.14
337.82	1546.22
338.04	1638.38
338.25	1542.12
338.46	1548.26
338.67	1484.78
338.88	1460.20
339.09	1509.35
339.31	1613.80
339.52	1439.72
339.73	1497.07
339.94	1501.16
340.15	1517.54
340.36	1464.30
340.58	1511.40
340.79	1535.98
341.00	1581.03
341.21	1476.59
341.42	1617.90
341.63	1533.93
341.85	1552.36
342.06	1599.46
342.27	1492.97
342.48	1538.02
342.69	1560.55
342.90	1531.88
343.12	1648.61
343.33	1527.78
343.54	1497.07
343.75	1505.26
343.96	1535.98
344.17	1552.36
344.38	1548.26
344.60	1476.59
344.81	1449.96
345.02	1535.98
345.23	1542.12
345.44	1654.76
345.65	1531.88
345.86	1576.94
346.07	1523.69
346.29	1578.98
346.50	1513.45
346.71	1497.07
346.92	1583.08
347.13	1595.37
347.34	1560.55
347.55	1488.87
347.76	1630.18
347.98	1476.59
348.19	1513.45
348.40	1636.33
348.61	1495.02
348.82	1619.94
349.03	1607.66
349.24	1535.98
349.45	1679.33
349.66	1437.67
349.88	1576.94
350.09	1486.83
350.30	1599.46
350.51	1656.81
350.72	1542.12
350.93	1492.97
351.14	1560.55
351.35	1652.71
351.56	1540.07
351.77	1560.55
351.99	1529.83
352.20	1589.22
352.41	1630.18
352.62	1435.63
352.83	1472.49
353.04	1513.45
353.25	1525.74
353.46	1652.71
353.67	1525.74
353.88	1456.11
354.09	1599.46
354.30	1525.74
354.52	1546.22
354.73	1542.12
354.94	1540.07
355.15	1540.07
355.36	1578.98
355.57	1499.11
355.78	1548.26
355.99	1529.83
356.20	1505.26
356.41	1544.17
356.62	1601.51
356.83	1476.59
357.04	1611.75
357.25	1425.39
357.46	1515.50
357.68	1492.97
357.89	1509.35
358.10	1554.41
358.31	1552.36
358.52	1548.26
358.73	1509.35
358.94	1533.93
359.15	1527.78
359.36	1566.70
359.57	1513.45
359.78	1480.68
359.99	1556.46
360.20	1507.30
360.41	1501.16
360.62	1529.83
360.83	1613.80
361.04	1640.42
361.25	1558.50
361.46	1617.90
361.67	1587.18
361.88	1585.13
362.09	1603.56
362.30	1603.56
362.51	1503.21
362.72	1583.08
362.93	1574.89
363.14	1601.51
363.35	1499.11
363.56	1513.45
363.78	1542.12
363.99	1562.60
364.20	1501.16
364.41	1517.54
364.62	1505.26
364.83	1564.65
365.04	1540.07
365.25	1492.97
365.46	1597.42
365.67	1503.21
365.88	1556.46
366.09	1495.02
366.30	1521.64
366.51	1576.94
366.72	1452.01
366.93	1558.50
367.14	1570.79
367.35	1603.56
367.56	1552.36
367.77	1550.31
367.98	1583.08
368.18	1544.17
368.39	1587.18
368.60	1476.59
368.81	1648.61
369.02	1554.41
369.23	1552.36
369.44	1517.54
369.65	1535.98
369.86	1583.08
370.07	1597.42
370.28	1464.30
370.49	1507.30
370.70	1560.55
370.91	1503.21
371.12	1480.68
371.33	1576.94
371.54	1511.40
371.75	1609.70
371.96	1415.15
372.17	1560.55
372.38	1548.26
372.59	1599.46
372.80	1540.07
373.01	1538.02
373.22	1533.93
373.43	1542.12
373.64	1478.63
373.85	1550.31
374.06	1581.03
374.26	1531.88
374.47	1538.02
374.68	1548.26
374.89	1542.12
375.10	1615.85
375.31	1603.56
375.52	1505.26
375.73	1542.12
375.94	1503.21
376.15	1587.18
376.36	1499.11
376.57	1517.54
376.78	1460.20
376.99	1546.22
377.20	1562.60
377.40	1525.74
377.61	1585.13
377.82	1464.30
378.03	1591.27
378.24	1607.66
378.45	1570.79
378.66	1521.64
378.87	1497.07
379.08	1523.69
379.29	1556.46
379.50	1503.21
379.71	1525.74
379.91	1603.56
380.12	1503.21
380.33	1566.70
380.54	1556.46
380.75	1515.50
380.96	1488.87
381.17	1595.37
381.38	1540.07
381.59	1626.09
381.80	1556.46
382.00	1697.77
382.21	1564.65
382.42	1705.96
382.63	1734.63
382.84	1568.74
383.05	1609.70
383.26	1726.44
383.47	1591.27
383.68	1587.18
383.88	1593.32
384.09	1468.39
384.30	1595.37
384.51	1523.69
384.72	1554.41
384.93	1558.50
385.14	1550.31
385.35	1615.85
385.55	1492.97
385.76	1599.46
385.97	1511.40
386.18	1544.17
386.39	1521.64
386.60	1542.12
386.81	1564.65
387.02	1509.35
387.22	1568.74
387.43	1628.14
387.64	1605.61
387.85	1912.80
388.06	3043.28
388.27	7262.10
388.48	10565.47
388.68	12390.21
388.89	14053.16
389.10	13053.75
389.31	10106.73
389.52	8972.15
389.73	7921.54
389.93	7270.29
390.14	6576.03
390.35	6238.11
390.56	5525.42
390.77	4585.40
390.98	3719.11
391.18	2787.29
391.39	2246.62
391.60	1761.25
391.81	1679.33
392.02	1605.61
392.23	1701.86
392.43	1574.89
392.64	1632.23
392.85	1556.46
393.06	1630.18
393.27	1531.88
393.47	1509.35
393.68	1527.78
393.89	1535.98
394.10	1595.37
394.31	1521.64
394.52	1515.50
394.72	1529.83
394.93	1589.22
395.14	1456.11
395.35	1562.60
395.56	1464.30
395.76	1607.66
395.97	1630.18
396.18	1681.38
396.39	1662.95
396.60	1906.66
396.80	1662.95
397.01	1705.96
397.22	1695.72
397.43	1644.52
397.64	1583.08
397.84	1671.14
398.05	1724.39
398.26	1605.61
398.47	1638.38
398.67	1638.38
398.88	1576.94
399.09	1601.51
399.30	1572.84
399.51	1566.70
399.71	1556.46
399.92	1492.97
400.13	1548.26
400.34	1576.94
400.54	1501.16
400.75	1642.47
400.96	1615.85
401.17	1646.57
401.37	1538.02
401.58	1476.59
401.79	1605.61
402.00	1796.07
402.21	1867.75
402.41	1884.13
402.62	2004.96
402.83	1949.67
403.04	1888.23
403.24	1923.04
403.45	1695.72
403.66	1732.58
403.87	1697.77
404.07	1775.59
404.28	1736.68
404.49	1654.76
404.70	1587.18
404.90	1560.55
405.11	1591.27
405.32	1615.85
405.52	1566.70
405.73	1558.50
405.94	1497.07
406.15	1447.91
406.35	1550.31
406.56	1583.08
406.77	1574.89
406.98	1566.70
407.18	1525.74
407.39	1722.34
407.60	1443.82
407.80	1535.98
408.01	1499.11
408.22	1566.70
408.43	1501.16
408.63	1544.17
408.84	1601.51
409.05	1525.74
409.25	1490.92
409.46	1447.91
409.67	1480.68
409.88	1480.68
410.08	1572.84
410.29	1515.50
410.50	1544.17
410.70	1562.60
410.91	1517.54
411.12	1554.41
411.32	1523.69
411.53	1574.89
411.74	1638.38
411.95	1566.70
412.15	1564.65
412.36	1624.04
412.57	1710.05
412.77	1581.03
412.98	1554.41
413.19	1525.74
413.39	1585.13
413.60	1578.98
413.81	1597.42
414.01	1558.50
414.22	1538.02
414.43	1642.47
414.63	1538.02
414.84	1626.09
415.05	1542.12
415.25	1452.01
415.46	1626.09
415.67	1490.92
415.87	1550.31
416.08	1507.30
416.29	1486.83
416.49	1601.51
416.70	1531.88
416.91	1525.74
417.11	1552.36
417.32	1591.27
417.53	1605.61
417.73	1560.55
417.94	1607.66
418.15	1566.70
418.35	1540.07
418.56	1513.45
418.77	1621.99
418.97	1505.26
419.18	1501.16
419.38	1378.28
419.59	1576.94
419.80	1544.17
420.00	1509.35
420.21	1505.26
420.42	1638.38
420.62	1558.50
420.83	1511.40
421.04	1476.59
421.24	1538.02
421.45	1578.98
421.65	1527.78
421.86	1556.46
422.07	1554.41
422.27	1634.28
422.48	1517.54
422.69	1478.63
422.89	1497.07
423.10	1470.44
423.30	1470.44
423.51	1521.64
423.72	1548.26
423.92	1529.83
424.13	1492.97
424.33	1576.94
424.54	1558.50
424.75	1589.22
424.95	1644.52
425.16	1615.85
425.36	1587.18
425.57	1566.70
425.78	1548.26
425.98	1591.27
426.19	1542.12
426.39	1488.87
426.60	1540.07
426.81	1705.96
427.01	1515.50
427.22	1501.16
427.42	1409.00
427.63	1572.84
427.83	1578.98
428.04	1538.02
428.25	1581.03
428.45	1581.03
428.66	1605.61
428.86	1544.17
429.07	1562.60
429.28	1488.87
429.48	1462.25
429.69	1525.74
429.89	1523.69
430.10	1458.15
430.30	1495.02
430.51	1527.78
430.71	1445.87
430.92	1492.97
431.13	1546.22
431.33	1583.08
431.54	1517.54
431.74	1552.36
431.95	1617.90
432.15	1568.74
432.36	1505.26
432.56	1517.54
432.77	1634.28
432.98	1648.61
433.18	1615.85
433.39	1521.64
433.59	1497.07
433.80	1642.47
434.00	1658.85
434.21	1503.21
434.41	1533.93
434.62	1722.34
434.82	1544.17
435.03	1454.06
435.23	1490.92
435.44	1488.87
435.64	1505.26
435.85	1495.02
436.06	1613.80
436.26	1607.66
436.47	1601.51
436.67	1570.79
436.88	1480.68
437.08	1550.31
437.29	1560.55
437.49	1587.18
437.70	1593.32
437.90	1511.40
438.11	1642.47
438.31	1677.29
438.52	1681.38
438.72	1730.53
438.93	1697.77
439.13	1595.37
439.34	1658.85
439.54	1642.47
439.75	1603.56
439.95	1558.50
440.16	1515.50
440.36	1556.46
440.57	1603.56
440.77	1583.08
440.98	1523.69
441.18	1570.79
441.39	1550.31
441.59	1513.45
441.80	1619.94
442.00	1523.69
442.21	1568.74
442.41	1501.16
442.62	1626.09
442.82	1542.12
443.02	1548.26
443.23	1589.22
443.43	1642.47
443.64	1626.09
443.84	1535.98
444.05	1613.80
444.25	1570.79
444.46	1540.07
444.66	1603.56
444.87	1574.89
445.07	1511.40
445.28	1509.35
445.48	1542.12
445.69	1533.93
445.89	1591.27
446.09	1597.42
446.30	1986.53
446.50	3065.81
446.71	4458.43
446.91	5535.66
447.12	5650.35
447.32	5529.52
447.53	4706.23
447.73	4042.69
447.93	3702.73
448.14	3330.00
448.34	3295.18
448.55	3030.99
448.75	2863.06
448.96	2705.37
449.16	2383.84
449.36	2312.16
449.57	1982.43
449.77	1787.88
449.98	1650.66
450.18	1679.33
450.39	1601.51
450.59	1566.70
450.79	1499.11
451.00	1527.78
451.20	1546.22
451.41	1533.93
451.61	1570.79
451.81	1548.26
452.02	1482.73
452.22	1501.16
452.43	1495.02
452.63	1576.94
452.84	1495.02
453.04	1542.12
453.24	1499.11
453.45	1480.68
453.65	1509.35
453.86	1486.83
454.06	1542.12
454.26	1544.17
454.47	1443.82
454.67	1632.23
454.87	1552.36
455.08	1542.12
455.28	1656.81
455.49	1519.59
455.69	1492.97
455.89	1587.18
456.10	1603.56
456.30	1523.69
456.51	1527.78
456.71	1550.31
456.91	1564.65
457.12	1544.17
457.32	1585.13
457.52	1519.59
457.73	1525.74
457.93	1638.38
458.14	1464.30
458.34	1435.63
458.54	1503.21
458.75	1560.55
458.95	1589.22
459.15	1540.07
459.36	1515.50
459.56	1550.31
459.76	1607.66
459.97	1540.07
460.17	1552.36
460.37	1564.65
460.58	1587.18
460.78	1587.18
460.99	1531.88
461.19	1538.02
461.39	1509.35
461.60	1558.50
461.80	1535.98
462.00	1562.60
462.21	1529.83
462.41	1527.78
462.61	1546.22
462.82	1523.69
463.02	1503.21
463.22	1570.79
463.43	1531.88
463.63	1576.94
463.83	1548.26
464.04	1630.18
464.24	1505.26
464.44	1617.90
464.64	1591.27
464.85	1533.93
465.05	1654.76
465.25	1533.93
465.46	1546.22
465.66	1601.51
465.86	1583.08
466.07	1628.14
466.27	1572.84
466.47	1492.97
466.68	1562.60
466.88	1564.65
467.08	1550.31
467.29	1501.16
467.49	1617.90
467.69	1515.50
467.89	1550.31
468.10	1548.26
468.30	1513.45
468.50	1505.26
468.71	1540.07
468.91	1542.12
469.11	1652.71
469.31	1576.94
469.52	1533.93
469.72	1564.65
469.92	1595.37
470.13	1531.88
470.33	1566.70
470.53	1654.76
470.73	2056.16
470.94	2435.03
471.14	2422.75
471.34	2619.35
471.54	2418.65
471.75	2254.81
471.95	2041.82
472.15	1964.00
472.36	2041.82
472.56	1888.23
472.76	1855.46
472.96	1880.04
473.17	1759.21
473.37	1751.01
473.57	1665.00
473.77	1673.19
473.98	1613.80
474.18	1540.07
474.38	1669.09
474.58	1515.50
474.79	1437.67
474.99	1642.47
475.19	1693.67
475.39	1517.54
475.60	1583.08
475.80	1562.60
476.00	1581.03
476.20	1515.50
476.41	1521.64
476.61	1617.90
476.81	1591.27
477.01	1525.74
477.21	1593.32
477.42	1574.89
477.62	1492.97
477.82	1597.42
478.02	1480.68
478.23	1585.13
478.43	1513.45
478.63	1513.45
478.83	1531.88
479.03	1587.18
479.24	1628.14
479.44	1558.50
479.64	1548.26
479.84	1449.96
480.04	1470.44
480.25	1593.32
480.45	1456.11
480.65	1558.50
480.85	1562.60
481.06	1529.83
481.26	1599.46
481.46	1578.98
481.66	1578.98
481.86	1460.20
482.06	1556.46
482.27	1550.31
482.47	1548.26
482.67	1535.98
482.87	1554.41
483.07	1591.27
483.28	1646.57
483.48	1533.93
483.68	1535.98
483.88	1431.53
484.08	1427.43
484.29	1554.41
484.49	1480.68
484.69	1476.59
484.89	1538.02
485.09	1624.04
485.29	1581.03
485.50	1574.89
485.70	1531.88
485.90	1560.55
486.10	1589.22
486.30	1583.08
486.50	1511.40
486.71	1542.12
486.91	1613.80
487.11	1519.59
487.31	1452.01
487.51	1626.09
487.71	1501.16
487.91	1535.98
488.12	1486.83
488.32	1435.63
488.52	1482.73
488.72	1529.83
488.92	1552.36
489.12	1583.08
489.32	1640.42
489.53	1535.98
489.73	1470.44
489.93	1611.75
490.13	1554.41
490.33	1531.88
490.53	1570.79
490.73	1621.99
490.94	1486.83
491.14	1544.17
491.34	1685.48
491.54	2203.61
491.74	2693.08
491.94	3043.28
492.14	3338.19
492.34	3237.84
492.54	2811.86
492.75	2523.10
492.95	2447.32
493.15	2222.05
493.35	2127.84
493.55	2197.47
493.75	2002.91
493.95	2041.82
494.15	1947.62
494.35	1828.84
494.56	1765.35
494.76	1667.05
494.96	1701.86
495.16	1607.66
495.36	1583.08
495.56	1519.59
495.76	1560.55
495.96	1482.73
496.16	1495.02
496.36	1599.46
496.56	1509.35
496.77	1574.89
496.97	1517.54
497.17	1605.61
497.37	1538.02
497.57	1574.89
497.77	1535.98
497.97	1454.06
498.17	1476.59
498.37	1542.12
498.57	1503.21
498.77	1478.63
498.97	1595.37
499.17	1675.24
499.38	1615.85
499.58	1535.98
499.78	1611.75
499.98	1609.70
500.18	1574.89
500.38	1607.66
500.58	1814.50
500.78	2740.18
500.98	5058.48
501.18	6678.43
501.38	8169.35
501.58	8722.30
501.78	8003.46
501.98	6201.25
502.18	5474.22
502.38	4614.07
502.58	4249.54
502.78	3946.44
502.98	3788.74
503.18	3581.90
503.38	3254.22
503.59	3065.81
503.79	2799.57
503.99	2406.36
504.19	2301.92
504.39	2195.42
504.59	2058.21
504.79	2029.54
504.99	1904.61
505.19	1763.30
505.39	1751.01
505.59	1708.01
505.79	1755.11
505.99	1681.38
506.19	1576.94
506.39	1658.85
506.59	1570.79
506.79	1626.09
506.99	1628.14
507.19	1568.74
507.39	1554.41
507.59	1441.77
507.79	1585.13
507.99	1503.21
508.19	1609.70
508.39	1533.93
508.59	1497.07
508.79	1615.85
508.99	1611.75
509.19	1460.20
509.39	1517.54
509.59	1542.12
509.79	1478.63
509.99	1546.22
510.19	1589.22
510.39	1619.94
510.59	1574.89
510.79	1507.30
510.99	1517.54
511.19	1525.74
511.39	1589.22
511.59	1630.18
511.79	1585.13
511.99	1540.07
512.19	1558.50
512.38	1576.94
512.58	1474.54
512.78	1533.93
512.98	1615.85
513.18	1626.09
513.38	1476.59
513.58	1527.78
513.78	1572.84
513.98	1619.94
514.18	1638.38
514.38	1497.07
514.58	1544.17
514.78	1556.46
514.98	1542.12
515.18	1546.22
515.38	1521.64
515.58	1636.33
515.78	1538.02
515.98	1593.32
516.18	1550.31
516.38	1538.02
516.57	1583.08
516.77	1527.78
516.97	1538.02
517.17	1458.15
517.37	1521.64
517.57	1583.08
517.77	1505.26
517.97	1531.88
518.17	1535.98
518.37	1560.55
518.57	1501.16
518.77	1570.79
518.97	1628.14
519.16	1648.61
519.36	1572.84
519.56	1548.26
519.76	1509.35
519.96	1583.08
520.16	1644.52
520.36	1458.15
520.56	1599.46
520.76	1492.97
520.96	1505.26
521.16	1576.94
521.35	1572.84
521.55	1564.65
521.75	1560.55
521.95	1605.61
522.15	1533.93
522.35	1507.30
522.55	1523.69
522.75	1468.39
522.95	1578.98
523.14	1423.34
523.34	1556.46
523.54	1501.16
523.74	1540.07
523.94	1525.74
524.14	1546.22
524.34	1488.87
524.54	1544.17
524.73	1533.93
524.93	1599.46
525.13	1601.51
525.33	1449.96
525.53	1677.29
525.73	1452.01
525.93	1533.93
526.13	1464.30
526.32	1566.70
526.52	1609.70
526.72	1538.02
526.92	1619.94
527.12	1548.26
527.32	1503.21
527.52	1544.17
527.71	1593.32
527.91	1607.66
528.11	1560.55
528.31	1568.74
528.51	1443.82
528.71	1556.46
528.90	1572.84
529.10	1548.26
529.30	1640.42
529.50	1484.78
529.70	1535.98
529.90	1558.50
530.09	1572.84
530.29	1443.82
530.49	1523.69
530.69	1671.14
530.89	1515.50
531.09	1576.94
531.28	1550.31
531.48	1566.70
531.68	1509.35
531.88	1554.41
532.08	1587.18
532.28	1513.45
532.47	1548.26
532.67	1593.32
532.87	1576.94
533.07	1515.50
533.27	1607.66
533.46	1538.02
533.66	1507.30
533.86	1552.36
534.06	1529.83
534.26	1595.37
534.45	1525.74
534.65	1665.00
534.85	1591.27
535.05	1570.79
535.25	1572.84
535.44	1472.49
535.64	1527.78
535.84	1548.26
536.04	1548.26
536.24	1513.45
536.43	1587.18
536.63	1540.07
536.83	1531.88
537.03	1497.07
537.22	1441.77
537.42	1476.59
537.62	1585.13
537.82	1529.83
538.02	1634.28
538.21	1560.55
538.41	1599.46
538.61	1585.13
538.81	1470.44
539.00	1632.23
539.20	1503.21
539.40	1601.51
539.60	1617.90
539.79	1591.27
539.99	1484.78
540.19	1511.40
540.39	1527.78
540.58	1578.98
540.78	1529.83
540.98	1624.04
541.18	1578.98
541.37	1593.32
541.57	1550.31
541.77	1513.45
541.97	1505.26
542.16	1486.83
542.36	1478.63
542.56	1570.79
542.76	1605.61
542.95	1642.47
543.15	1605.61
543.35	1562.60
543.54	1470.44
543.74	1535.98
543.94	1603.56
544.14	1495.02
544.33	1552.36
544.53	1517.54
544.73	1576.94
544.93	1499.11
545.12	1554.41
545.32	1560.55
545.52	1497.07
545.71	1476.59
545.91	1535.98
546.11	1552.36
546.30	1472.49
546.50	1554.41
546.70	1607.66
546.90	1574.89
547.09	1421.29
547.29	1544.17
547.49	1548.26
547.68	1591.27
547.88	1562.60
548.08	1554.41
548.27	1953.76
548.47	1484.78
548.67	1468.39
548.87	1550.31
549.06	1568.74
549.26	1503.21
549.46	1574.89
549.65	1470.44
549.85	1613.80
550.05	1521.64
550.24	1505.26
550.44	1468.39
550.64	1554.41
550.83	1482.73
551.03	1581.03
551.23	1480.68
551.42	1591.27
551.62	1554.41
551.82	1511.40
552.01	1517.54
552.21	1607.66
552.41	1535.98
552.60	1650.66
552.80	1554.41
553.00	1462.25
553.19	1488.87
553.39	1697.77
553.59	1501.16
553.78	1519.59
553.98	1611.75
554.17	1482.73
554.37	1621.99
554.57	1566.70
554.76	1527.78
554.96	1540.07
555.16	1581.03
555.35	1552.36
555.55	1525.74
555.75	1517.54
555.94	1511.40
556.14	1513.45
556.33	1542.12
556.53	1628.14
556.73	1460.20
556.92	1550.31
557.12	1554.41
557.32	1665.00
557.51	1576.94
557.71	1525.74
557.90	1581.03
558.10	1593.32
558.30	1517.54
558.49	1492.97
558.69	1529.83
558.88	1578.98
559.08	1511.40
559.28	1558.50
559.47	1509.35
559.67	1578.98
559.86	1576.94
560.06	1538.02
560.26	1544.17
560.45	1497.07
560.65	1546.22
560.84	1693.67
561.04	1529.83
561.24	1558.50
561.43	1466.35
561.63	1585.13
561.82	1560.55
562.02	1546.22
562.22	1523.69
562.41	1488.87
562.61	1521.64
562.80	1482.73
563.00	1568.74
563.19	1581.03
563.39	1552.36
563.59	1560.55
563.78	1472.49
563.98	1452.01
564.17	1495.02
564.37	1511.40
564.56	1583.08
564.76	1380.33
564.96	1597.42
565.15	1509.35
565.35	1660.90
565.54	1509.35
565.74	1662.95
565.93	1591.27
566.13	1552.36
566.32	1558.50
566.52	1513.45
566.71	1525.74
566.91	1558.50
567.11	1517.54
567.30	1554.41
567.50	1548.26
567.69	1542.12
567.89	1544.17
568.08	1538.02
568.28	1554.41
568.47	1544.17
568.67	1576.94
568.86	1576.94
569.06	1634.28
569.25	1538.02
569.45	1480.68
569.64	1538.02
569.84	1578.98
570.04	1523.69
570.23	1566.70
570.43	1544.17
570.62	1513.45
570.82	1581.03
571.01	1478.63
571.21	1492.97
571.40	1521.64
571.60	1599.46
571.79	1603.56
571.99	1527.78
572.18	1554.41
572.38	1544.17
572.57	1560.55
572.77	1591.27
572.96	1654.76
573.16	1560.55
573.35	1632.23
573.55	1626.09
573.74	1617.90
573.94	1642.47
574.13	1542.12
574.33	1574.89
574.52	1634.28
574.71	1552.36
574.91	1525.74
575.10	1548.26
575.30	1560.55
575.49	1490.92
575.69	1482.73
575.88	1601.51
576.08	1609.70
576.27	1656.81
576.47	1611.75
576.66	1634.28
576.86	1626.09
577.05	1535.98
577.25	1632.23
577.44	1730.53
577.64	1513.45
577.83	1642.47
578.02	1593.32
578.22	1558.50
578.41	1574.89
578.61	1595.37
578.80	1546.22
579.00	1533.93
579.19	1607.66
579.39	1562.60
579.58	1638.38
579.77	1566.70
579.97	1675.24
580.16	1595.37
580.36	1640.42
580.55	1685.48
580.75	1552.36
580.94	1679.33
581.13	1603.56
581.33	1667.05
581.52	1578.98
581.72	1742.82
581.91	1730.53
582.11	1609.70
582.30	1718.25
582.49	1650.66
582.69	1640.42
582.88	1605.61
583.08	1574.89
583.27	1656.81
583.47	1605.61
583.66	1574.89
583.85	1546.22
584.05	1564.65
584.24	1589.22
584.44	1621.99
584.63	1660.90
584.82	1693.67
585.02	1732.58
585.21	1718.25
585.41	1785.83
585.60	1658.85
585.79	1763.30
585.99	1798.12
586.18	1802.21
586.37	2041.82
586.57	3203.02
586.76	9582.45
586.96	27743.83
587.15	44088.67
587.34	54754.49
587.54	61514.84
587.73	59323.51
587.93	44121.44
588.12	32396.82
588.31	25906.80
588.51	22337.20
588.70	19908.30
588.89	18403.05
589.09	17149.69
589.28	15245.08
589.47	13139.77
589.67	11364.18
589.86	8943.48
590.06	6827.93
590.25	5099.44
590.44	3694.54
590.64	2979.79
590.83	2426.84
591.02	2082.78
591.22	1804.26
591.41	1787.88
591.60	1681.38
591.80	1800.16
591.99	1615.85
592.18	1642.47
592.38	1566.70
592.57	1552.36
592.76	1562.60
592.96	1648.61
593.15	1560.55
593.34	1640.42
593.54	1505.26
593.73	1632.23
593.92	1607.66
594.12	1591.27
594.31	1695.72
594.50	1660.90
594.70	1683.43
594.89	1732.58
595.08	1468.39
595.28	1597.42
595.47	1673.19
595.66	1554.41
595.86	1566.70
596.05	1648.61
596.24	1587.18
596.43	1662.95
596.63	1652.71
596.82	1660.90
597.01	1531.88
597.21	1726.44
597.40	1574.89
597.59	1607.66
597.79	1574.89
597.98	1673.19
598.17	1671.14
598.36	1546.22
598.56	1626.09
598.75	1535.98
598.94	1523.69
599.14	1554.41
599.33	1546.22
599.52	1646.57
599.71	1515.50
599.91	1572.84
600.10	1570.79
600.29	1492.97
600.48	1591.27
600.68	1621.99
600.87	1548.26
601.06	1519.59
601.26	1513.45
601.45	1452.01
601.64	1519.59
601.83	1576.94
602.03	1574.89
602.22	1535.98
602.41	1687.53
602.60	1689.57
602.80	1578.98
602.99	1568.74
603.18	1564.65
603.37	1531.88
603.57	1585.13
603.76	1619.94
603.95	1560.55
604.14	1523.69
604.34	1511.40
604.53	1503.21
604.72	1581.03
604.91	1660.90
605.10	1546.22
605.30	1581.03
605.49	1621.99
605.68	1521.64
605.87	1665.00
606.07	1523.69
606.26	1642.47
606.45	1574.89
606.64	1556.46
606.84	1542.12
607.03	1574.89
607.22	1593.32
607.41	1638.38
607.60	1624.04
607.80	1714.15
607.99	1566.70
608.18	1566.70
608.37	1558.50
608.56	1523.69
608.76	1648.61
608.95	1730.53
609.14	1642.47
609.33	1615.85
609.52	1714.15
609.72	1710.05
609.91	1658.85
610.10	1636.33
610.29	1658.85
610.48	1599.46
610.68	1574.89
610.87	1566.70
611.06	1591.27
611.25	1523.69
611.44	1638.38
611.63	1546.22
611.83	1636.33
612.02	1429.48
612.21	1636.33
612.40	1474.54
612.59	1591.27
612.79	1492.97
612.98	1495.02
613.17	1634.28
613.36	1568.74
613.55	1576.94
613.74	1679.33
613.93	1755.11
614.13	1746.92
614.32	1820.64
614.51	1773.54
614.70	1673.19
614.89	1671.14
615.08	1671.14
615.28	1830.88
615.47	1517.54
615.66	1648.61
615.85	1591.27
616.04	1783.78
616.23	1699.81
616.42	1601.51
616.62	1550.31
616.81	1527.78
617.00	1589.22
617.19	1515.50
617.38	1548.26
617.57	1542.12
617.76	1562.60
617.95	1634.28
618.15	1583.08
618.34	1597.42
618.53	1499.11
618.72	1587.18
618.91	1583.08
619.10	1683.43
619.29	1613.80
619.48	1593.32
619.68	1509.35
619.87	1544.17
620.06	1517.54
620.25	1546.22
620.44	1574.89
620.63	1492.97
620.82	1482.73
621.01	1517.54
621.20	1595.37
621.39	1515.50
621.59	1552.36
621.78	1501.16
621.97	1521.64
622.16	1628.14
622.35	1546.22
622.54	1568.74
622.73	1568.74
622.92	1542.12
623.11	1581.03
623.30	1642.47
623.49	1501.16
623.68	1503.21
623.88	1556.46
624.07	1544.17
624.26	1439.72
624.45	1492.97
624.64	1507.30
624.83	1581.03
625.02	1468.39
625.21	1576.94
625.40	1542.12
625.59	1601.51
625.78	1503.21
625.97	1665.00
626.16	1576.94
626.35	1619.94
626.54	1630.18
626.74	1740.77
626.93	1546.22
627.12	1609.70
627.31	1630.18
627.50	1662.95
627.69	1521.64
627.88	1525.74
628.07	1572.84
628.26	1486.83
628.45	1468.39
628.64	1544.17
628.83	1603.56
629.02	1521.64
629.21	1540.07
629.40	1558.50
629.59	1568.74
629.78	1566.70
629.97	1570.79
630.16	1560.55
630.35	1513.45
630.54	1570.79
630.73	1472.49
630.92	1519.59
631.11	1482.73
631.30	1552.36
631.49	1697.77
631.68	1519.59
631.87	1601.51
632.06	1456.11
632.25	1687.53
632.44	1558.50
632.63	1640.42
632.82	1511.40
633.01	1581.03
633.20	1595.37
633.39	1638.38
633.58	1624.04
633.77	1626.09
633.96	1646.57
634.15	1513.45
634.34	1634.28
634.53	1697.77
634.72	1476.59
634.91	1464.30
635.10	1568.74
635.29	1665.00
635.48	1595.37
635.67	1568.74
635.86	1492.97
636.05	1632.23
636.24	1521.64
636.43	1607.66
636.62	1566.70
636.81	1460.20
637.00	1572.84
637.19	1558.50
637.38	1560.55
637.57	1566.70
637.76	1611.75
637.95	1597.42
638.14	1632.23
638.33	1591.27
638.52	1673.19
638.71	1621.99
638.89	1523.69
639.08	1738.73
639.27	1552.36
639.46	1626.09
639.65	1984.48
639.84	2031.58
640.03	2150.37
640.22	2226.14
640.41	2205.66
640.60	1923.04
640.79	1787.88
640.98	1693.67
641.17	1746.92
641.36	1734.63
641.55	1763.30
641.74	1626.09
641.92	1632.23
642.11	1617.90
642.30	1593.32
642.49	1636.33
642.68	1617.90
642.87	1581.03
643.06	1587.18
643.25	1550.31
643.44	1542.12
643.63	1464.30
643.82	1656.81
644.00	1499.11
644.19	1533.93
644.38	1478.63
644.57	1521.64
644.76	1546.22
644.95	1509.35
645.14	1576.94
645.33	1552.36
645.52	1597.42
645.71	1517.54
645.89	1425.39
646.08	1595.37
646.27	1462.25
646.46	1703.91
646.65	1474.54
646.84	1499.11
647.03	1472.49
647.22	1611.75
647.40	1525.74
647.59	1484.78
647.78	1452.01
647.97	1449.96
648.16	1542.12
648.35	1603.56
648.54	1587.18
648.73	1593.32
648.91	1605.61
649.10	1603.56
649.29	1523.69
649.48	1605.61
649.67	1529.83
649.86	1525.74
650.05	1548.26
650.23	1683.43
650.42	1658.85
650.61	1744.87
650.80	1738.73
650.99	1699.81
651.18	1705.96
651.36	1560.55
651.55	1564.65
651.74	1675.24
651.93	1554.41
652.12	1550.31
652.31	1499.11
652.49	1529.83
652.68	1628.14
652.87	1705.96
653.06	1591.27
653.25	1753.06
653.44	1505.26
653.62	1599.46
653.81	1552.36
654.00	1542.12
654.19	1634.28
654.38	1599.46
654.56	1603.56
654.75	1538.02
654.94	1630.18
655.13	1581.03
655.32	1568.74
655.51	1658.85
655.69	1466.35
655.88	1630.18
656.07	1472.49
656.26	1495.02
656.45	1492.97
656.63	1570.79
656.82	1607.66
657.01	1591.27
657.20	1507.30
657.38	1665.00
657.57	1556.46
657.76	1460.20
657.95	1638.38
658.14	1583.08
658.32	1619.94
658.51	1503.21
658.70	1550.31
658.89	1572.84
659.08	1521.64
659.26	1638.38
659.45	1527.78
659.64	1644.52
659.83	1572.84
660.01	1812.45
660.20	1642.47
660.39	1605.61
660.58	1384.43
660.76	1585.13
660.95	1505.26
661.14	1544.17
661.33	1562.60
661.51	1583.08
661.70	1535.98
661.89	1591.27
662.08	1593.32
662.26	1572.84
662.45	1538.02
662.64	1644.52
662.83	1632.23
663.01	1466.35
663.20	1540.07
663.39	1607.66
663.58	1476.59
663.76	1566.70
663.95	1564.65
664.14	1492.97
664.32	1538.02
664.51	1484.78
664.70	1529.83
664.89	1542.12
665.07	1474.54
665.26	1626.09
665.45	1503.21
665.64	1546.22
665.82	1562.60
666.01	1595.37
666.20	1505.26
666.38	1542.12
666.57	1591.27
666.76	1841.12
666.95	3014.61
667.13	7663.50
667.32	15748.88
667.51	20291.27
667.69	23649.94
667.88	25284.22
668.07	22388.39
668.25	15531.80
668.44	12611.39
668.63	10037.09
668.81	8640.38
669.00	7765.90
669.19	7165.84
669.38	6436.77
669.56	5619.63
669.75	4933.56
669.94	4106.18
670.12	3461.07
670.31	2934.74
670.50	2373.60
670.68	2129.89
670.87	1906.66
671.06	1722.34
671.24	1705.96
671.43	1773.54
671.62	1687.53
671.80	1636.33
671.99	1636.33
672.18	1615.85
672.36	1636.33
672.55	1538.02
672.74	1644.52
672.92	1556.46
673.11	1554.41
673.29	1476.59
673.48	1603.56
673.67	1540.07
673.85	1495.02
674.04	1556.46
674.23	1595.37
674.41	1574.89
674.60	1601.51
674.79	1425.39
674.97	1513.45
675.16	1542.12
675.34	1648.61
675.53	1501.16
675.72	1583.08
675.90	1589.22
676.09	1525.74
676.28	1531.88
676.46	1492.97
676.65	1546.22
676.83	1548.26
677.02	1507.30
677.21	1509.35
677.39	1583.08
677.58	1492.97
677.77	1527.78
677.95	1529.83
678.14	1486.83
678.32	1564.65
678.51	1501.16
678.70	1609.70
678.88	1482.73
679.07	1595.37
679.25	1560.55
679.44	1624.04
679.63	1578.98
679.81	1542.12
680.00	1603.56
680.18	1609.70
680.37	1583.08
680.55	1566.70
680.74	1548.26
680.93	1492.97
681.11	1527.78
681.30	1525.74
681.48	1533.93
681.67	1507.30
681.85	1560.55
682.04	1456.11
682.23	1617.90
682.41	1558.50
682.60	1460.20
682.78	1484.78
682.97	1529.83
683.15	1540.07
683.34	1593.32
683.53	1587.18
683.71	1540.07
683.90	1611.75
684.08	1605.61
684.27	1603.56
684.45	1540.07
684.64	1538.02
684.82	1562.60
685.01	1529.83
685.19	1583.08
685.38	1626.09
685.57	1552.36
685.75	1515.50
685.94	1566.70
686.12	1474.54
686.31	1484.78
686.49	1593.32
686.68	1488.87
686.86	1601.51
687.05	1427.43
687.23	1574.89
687.42	1517.54
687.60	1402.86
687.79	1593.32
687.97	1632.23
688.16	1560.55
688.34	1626.09
688.53	1519.59
688.71	1554.41
688.90	1570.79
689.08	1488.87
689.27	1458.15
689.45	1574.89
689.64	1542.12
689.82	1546.22
690.01	1595.37
690.19	1515.50
690.38	1613.80
690.56	1568.74
690.75	1435.63
690.93	1503.21
691.12	1472.49
691.30	1538.02
691.49	1525.74
691.67	1591.27
691.86	1648.61
692.04	1558.50
692.23	1515.50
692.41	1523.69
692.60	1679.33
692.78	1638.38
692.97	1591.27
693.15	1634.28
693.34	1695.72
693.52	1576.94
693.71	1613.80
693.89	1574.89
694.08	1523.69
694.26	1578.98
694.44	1523.69
694.63	1576.94
694.81	1585.13
695.00	1556.46
695.18	1583.08
695.37	1689.57
695.55	1605.61
695.74	1521.64
695.92	1482.73
696.10	1560.55
696.29	1589.22
696.47	1572.84
696.66	1507.30
696.84	1519.59
697.03	1669.09
697.21	1599.46
697.40	1941.47
697.58	1544.17
697.76	1525.74
697.95	1660.90
698.13	1456.11
698.32	1486.83
698.50	1564.65
698.68	1556.46
698.87	1611.75
699.05	1572.84
699.24	1521.64
699.42	1476.59
699.61	1550.31
699.79	1535.98
699.97	1593.32
700.16	1544.17
700.34	1462.25
700.53	1517.54
700.71	1607.66
700.89	1560.55
701.08	1507.30
701.26	1566.70
701.45	1920.99
701.63	1558.50
701.81	1548.26
702.00	1505.26
702.18	1593.32
702.37	1527.78
702.55	1699.81
702.73	1701.86
702.92	1615.85
703.10	1884.13
703.28	1763.30
703.47	1759.21
703.65	1718.25
703.84	1779.68
704.02	1642.47
704.20	1671.14
704.39	1587.18
704.57	1597.42
704.75	1621.99
704.94	1697.77
705.12	1560.55
705.30	1728.49
705.49	1863.65
705.67	2840.53
705.86	7407.50
706.04	14722.85
706.22	18898.66
706.41	21849.78
706.59	23174.81
706.77	20876.99
706.96	14663.46
707.14	11607.89
707.32	9734.00
707.51	8501.12
707.69	7600.01
707.87	6600.60
708.06	5523.37
708.24	4773.82
708.42	3710.92
708.61	2994.13
708.79	2398.17
708.97	1951.71
709.16	1925.09
709.34	1722.34
709.52	1632.23
709.71	1681.38
709.89	1642.47
710.07	1583.08
710.26	1554.41
710.44	1589.22
710.62	1574.89
710.80	1535.98
710.99	1644.52
711.17	1583.08
711.35	1478.63
711.54	1505.26
711.72	1619.94
711.90	1585.13
712.09	1562.60
712.27	1556.46
712.45	1615.85
712.63	1523.69
712.82	1593.32
713.00	1523.69
713.18	1566.70
713.37	1531.88
713.55	1634.28
713.73	1566.70
713.91	1587.18
714.10	1621.99
714.28	1519.59
714.46	1470.44
714.65	1542.12
714.83	1607.66
715.01	1529.83
715.19	1509.35
715.38	1531.88
715.56	1538.02
715.74	1589.22
715.92	1523.69
716.11	1636.33
716.29	1443.82
716.47	1527.78
716.65	1558.50
716.84	1435.63
717.02	1615.85
717.20	1402.86
717.38	1495.02
717.57	1503.21
717.75	1495.02
717.93	1581.03
718.11	1560.55
718.30	1501.16
718.48	1558.50
718.66	1572.84
718.84	1581.03
719.03	1495.02
719.21	1441.77
719.39	1581.03
719.57	1609.70
719.75	1607.66
719.94	1566.70
720.12	1478.63
720.30	1515.50
720.48	1615.85
720.67	1562.60
720.85	1445.87
721.03	1626.09
721.21	1503.21
721.39	1566.70
721.58	1501.16
721.76	1568.74
721.94	1617.90
722.12	1574.89
722.30	1617.90
722.49	1452.01
722.67	1609.70
722.85	1542.12
723.03	1417.19
723.21	1583.08
723.40	1552.36
723.58	1591.27
723.76	1581.03
723.94	1591.27
724.12	1611.75
724.30	1583.08
724.49	1662.95
724.67	1576.94
724.85	1652.71
725.03	1529.83
725.21	1609.70
725.40	1581.03
725.58	1562.60
725.76	1650.66
725.94	1568.74
726.12	1466.35
726.30	1574.89
726.49	1535.98
726.67	1511.40
726.85	1583.08
727.03	1624.04
727.21	1802.21
727.39	2039.78
727.57	3305.42
727.76	4317.12
727.94	4902.84
728.12	5007.28
728.30	5214.13
728.48	4401.08
728.66	3489.74
728.84	3278.80
729.03	3014.61
729.21	2711.51
729.39	2277.34
729.57	1951.71
729.75	1867.75
729.93	1839.08
730.11	1628.14
730.30	1574.89
730.48	1535.98
730.66	1636.33
730.84	1574.89
731.02	1486.83
731.20	1595.37
731.38	1554.41
731.56	1488.87
731.74	1538.02
731.93	1599.46
732.11	1535.98
732.29	1525.74
732.47	1511.40
732.65	1495.02
732.83	1714.15
733.01	1505.26
733.19	1513.45
733.37	1578.98
733.56	1619.94
733.74	1482.73
733.92	1566.70
734.10	1466.35
734.28	1605.61
734.46	1458.15
734.64	1531.88
734.82	1443.82
735.00	1443.82
735.18	1492.97
735.36	1560.55
735.54	1546.22
735.73	1517.54
735.91	1521.64
736.09	1462.25
736.27	1492.97
736.45	1525.74
736.63	1552.36
736.81	1562.60
736.99	1566.70
737.17	1611.75
737.35	1501.16
737.53	1439.72
737.71	1509.35
737.89	1578.98
738.07	1492.97
738.25	1552.36
738.43	1447.91
738.61	1525.74
738.80	1488.87
738.98	1441.77
739.16	1525.74
739.34	1509.35
739.52	1593.32
739.70	1585.13
739.88	1517.54
740.06	1589.22
740.24	1519.59
740.42	1597.42
740.60	1460.20
740.78	1540.07
740.96	1488.87
741.14	1519.59
741.32	1585.13
741.50	1495.02
741.68	1652.71
741.86	1630.18
742.04	1511.40
742.22	1515.50
742.40	1583.08
742.58	1638.38
742.76	1593.32
742.94	1564.65
743.12	1521.64
743.30	1591.27
743.48	1605.61
743.66	1538.02
743.84	1499.11
744.02	1540.07
744.20	1558.50
744.38	1540.07
744.56	1476.59
744.74	1644.52
744.92	1675.24
745.10	1607.66
745.28	1542.12
745.46	1607.66
745.64	1464.30
745.82	1634.28
746.00	1525.74
746.18	1578.98
746.36	1509.35
746.54	1548.26
746.72	1552.36
746.90	1466.35
747.08	1591.27
747.26	1603.56
747.44	1595.37
747.62	1554.41
747.80	1599.46
747.98	1499.11
748.15	1544.17
748.33	1605.61
748.51	1546.22
748.69	1523.69
748.87	1474.54
749.05	1486.83
749.23	1513.45
749.41	1581.03
749.59	1552.36
749.77	1581.03
749.95	1564.65
750.13	1521.64
750.31	1525.74
750.49	1445.87
750.67	1640.42
750.85	1560.55
751.03	1585.13
751.20	1576.94
751.38	1560.55
751.56	1509.35
751.74	1507.30
751.92	1527.78
752.10	1415.15
752.28	1609.70
752.46	1499.11
752.64	1482.73
752.82	1525.74
753.00	1562.60
753.18	1501.16
753.35	1540.07
753.53	1523.69
753.71	1507.30
753.89	1558.50
754.07	1556.46
754.25	1589.22
754.43	1617.90
754.61	1492.97
754.79	1533.93
754.97	1495.02
755.14	1597.42
755.32	1542.12
755.50	1540.07
755.68	1632.23
755.86	1499.11
756.04	1521.64
756.22	1458.15
756.40	1611.75
756.57	1550.31
756.75	1542.12
756.93	1509.35
757.11	1527.78
757.29	1470.44
757.47	1480.68
757.65	1492.97
757.82	1456.11
758.00	1509.35
758.18	1499.11
758.36	1482.73
758.54	1609.70
758.72	1515.50
758.90	1566.70
759.07	1484.78
759.25	1488.87
759.43	1570.79
759.61	1576.94
759.79	1857.51
759.97	1615.85
760.15	1576.94
760.32	1550.31
760.50	1603.56
760.68	1611.75
760.86	1527.78
761.04	1638.38
761.22	1552.36
761.39	1583.08
761.57	1527.78
761.75	1568.74
761.93	1613.80
762.11	1509.35
762.28	1488.87
762.46	1505.26
762.64	1468.39
762.82	1509.35
763.00	1464.30
763.18	1593.32
763.35	1492.97
763.53	1605.61
763.71	1535.98
763.89	1538.02
764.07	1490.92
764.24	1566.70
764.42	1595.37
764.60	1423.34
764.78	1689.57
764.96	1501.16
765.13	1581.03
765.31	1583.08
765.49	1599.46
765.67	1468.39
765.84	1470.44
766.02	1552.36
766.20	1515.50
766.38	1587.18
766.56	1511.40
766.73	1568.74
766.91	1533.93
767.09	1476.59
767.27	1605.61
767.44	1503.21
767.62	1523.69
767.80	1501.16
767.98	1456.11
768.15	1574.89
768.33	1593.32
768.51	1593.32
768.69	1628.14
768.87	1593.32
769.04	1509.35
769.22	1652.71
769.40	1552.36
769.58	1697.77
769.75	1546.22
769.93	1593.32
770.11	1519.59
770.28	1488.87
770.46	1535.98
770.64	1503.21
770.82	1515.50
770.99	1468.39
771.17	1554.41
771.35	1531.88
771.53	1505.26
771.70	1519.59
771.88	1554.41
772.06	1529.83
772.23	1525.74
772.41	1597.42
772.59	1474.54
772.77	1533.93
772.94	1576.94
773.12	1505.26
773.30	1533.93
773.47	1550.31
773.65	1478.63
773.83	1552.36
774.01	1540.07
774.18	1521.64
774.36	1505.26
774.54	1495.02
774.71	1558.50
774.89	1421.29
775.07	1464.30
775.24	1556.46
775.42	1439.72
775.60	1671.14
775.78	1503.21
775.95	1495.02
776.13	1468.39
776.31	1425.39
776.48	1513.45
776.66	1595.37
776.84	1460.20
777.01	1495.02
777.19	1468.39
777.37	1521.64
777.54	1568.74
777.72	1681.38
777.90	1433.58
778.07	1509.35
778.25	1699.81
778.43	1607.66
778.60	1413.10
778.78	1576.94
778.96	1570.79
779.13	1505.26
779.31	1603.56
779.49	1490.92
779.66	1581.03
779.84	1523.69
780.01	1517.54
780.19	1443.82
780.37	1626.09
780.54	1517.54
780.72	1511.40
780.90	1595.37
781.07	1583.08
781.25	1488.87
781.43	1535.98
781.60	1509.35
781.78	1619.94
781.95	1482.73
782.13	1513.45
782.31	1482.73
782.48	1511.40
782.66	1501.16
782.83	1595.37
783.01	1495.02
783.19	1513.45
783.36	1562.60
783.54	1466.35
783.72	1513.45
783.89	1427.43
784.07	1550.31
784.24	1558.50
784.42	1589.22
784.60	1583.08
784.77	1585.13
784.95	1476.59
785.12	1507.30
785.30	1540.07
785.47	1468.39
785.65	1460.20
785.83	1519.59
786.00	1482.73
786.18	1515.50
786.35	1519.59
786.53	1538.02
786.71	1646.57
786.88	1638.38
787.06	1576.94
787.23	1552.36
787.41	1484.78
787.58	1540.07
787.76	1503.21
787.94	1538.02
788.11	1554.41
788.29	1521.64
788.46	1556.46
788.64	1447.91
788.81	1585.13
788.99	1566.70
789.16	1492.97
789.34	1501.16
789.52	1517.54
789.69	1458.15
789.87	1478.63
790.04	1505.26
790.22	1495.02
790.39	1576.94
790.57	1466.35
790.74	1486.83
790.92	1650.66
791.09	1464.30
791.27	1535.98
791.44	1640.42
791.62	1538.02
791.79	1548.26
791.97	1564.65
792.15	1687.53
792.32	1634.28
792.50	1505.26
792.67	1619.94
792.85	1626.09
793.02	1560.55
793.20	1552.36
793.37	1486.83
793.55	1554.41
793.72	1513.45
793.90	1599.46
794.07	1476.59
794.25	1562.60
794.42	1587.18
794.60	1501.16
794.77	1587.18
794.95	1546.22
795.12	1550.31
795.30	1597.42
795.47	1449.96
795.65	1703.91
795.82	1542.12
796.00	1554.41
796.17	1482.73
796.34	1478.63
796.52	1472.49
796.69	1550.31
796.87	1544.17
797.04	1548.26
797.22	1558.50
797.39	1585.13
797.57	1562.60
797.74	1597.42
797.92	1546.22
798.09	1605.61
798.27	1583.08
798.44	1542.12
798.62	1427.43
798.79	1554.41
798.96	1562.60
799.14	1523.69
799.31	1615.85
799.49	1458.15
799.66	1505.26
799.84	1601.51
800.01	1495.02
800.19	1495.02
800.36	1470.44
800.53	1589.22
800.71	1585.13
800.88	1607.66
801.06	1519.59
801.23	1505.26
801.41	1507.30
801.58	1513.45
801.75	1548.26
801.93	1535.98
802.10	1533.93
802.28	1529.83
802.45	1503.21
802.63	1525.74
802.80	1566.70
802.97	1548.26
803.15	1513.45
803.32	1476.59
803.50	1454.06
803.67	1470.44
803.84	1501.16
804.02	1525.74
804.19	1521.64
804.37	1441.77
804.54	1411.05
804.71	1501.16
804.89	1466.35
805.06	1456.11
805.24	1558.50
805.41	1431.53
805.58	1433.58
805.76	1581.03
805.93	1466.35
806.10	1615.85
806.28	1601.51
806.45	1548.26
806.63	1497.07
806.80	1587.18
806.97	1585.13
807.15	1560.55
807.32	1552.36
807.49	1525.74
807.67	1490.92
807.84	1617.90
808.01	1544.17
808.19	1607.66
808.36	1613.80
808.54	1519.59
808.71	1480.68
808.88	1566.70
809.06	1556.46
809.23	1624.04
809.40	1542.12
809.58	1566.70
809.75	1511.40
809.92	1470.44
810.10	1589.22
810.27	1480.68
810.44	1566.70
810.62	1560.55
810.79	1552.36
810.96	1495.02
811.14	1546.22
811.31	1611.75
811.48	1591.27
811.66	1529.83
811.83	1548.26
812.00	1581.03
812.18	1617.90
812.35	1617.90
812.52	1566.70
812.69	1511.40
812.87	1535.98
813.04	1497.07
813.21	1486.83
813.39	1552.36
813.56	1458.15
813.73	1554.41
813.91	1447.91
814.08	1566.70
814.25	1568.74
814.42	1497.07
814.60	1572.84
814.77	1492.97
814.94	1581.03
815.12	1568.74
815.29	1615.85
815.46	1576.94
815.63	1591.27
815.81	1615.85
815.98	1421.29
816.15	1554.41
816.33	1474.54
816.50	1439.72
816.67	1521.64
816.84	1533.93
817.02	1509.35
817.19	1519.59
817.36	1662.95
817.53	1599.46
817.71	1515.50
817.88	1578.98
818.05	1533.93
818.22	1476.59
818.40	1607.66
818.57	1484.78
818.74	1578.98
818.91	1531.88
819.09	1556.46
819.26	1603.56
819.43	1458.15
819.60	1585.13
819.78	1511.40
819.95	1568.74
820.12	1427.43
820.29	1578.98
820.47	1509.35
820.64	1525.74
820.81	1507.30
820.98	1531.88
821.15	1474.54
821.33	1591.27
821.50	1402.86
821.67	1525.74
821.84	1593.32
822.02	1546.22
822.19	1617.90
822.36	1519.59
822.53	1566.70
822.70	1441.77
822.88	1525.74
823.05	1603.56
823.22	1560.55
823.39	1607.66
823.56	1519.59
823.74	1576.94
823.91	1441.77
824.08	1480.68
824.25	1527.78
824.42	1540.07
824.60	1484.78
824.77	1570.79
824.94	1445.87
825.11	1497.07
825.28	1511.40
825.45	1601.51
825.63	1533.93
825.80	1503.21
825.97	1548.26
826.14	1521.64
826.31	1482.73
826.48	1535.98
826.66	1533.93
826.83	1517.54
827.00	1484.78
827.17	1472.49
827.34	1513.45
827.51	1488.87
827.69	1507.30
827.86	1499.11
828.03	1564.65
828.20	1585.13
828.37	1509.35
828.54	1542.12
828.71	1519.59
828.89	1621.99
829.06	1531.88
829.23	1591.27
829.40	1478.63
829.57	1560.55
829.74	1589.22
829.91	1523.69
830.09	1542.12
830.26	1550.31
830.43	1531.88
830.60	1535.98
830.77	1503.21
830.94	1503.21
831.11	1556.46
831.28	1513.45
831.46	1609.70
831.63	1556.46
831.80	1640.42
831.97	1593.32
832.14	1544.17
832.31	1624.04
832.48	1570.79
832.65	1646.57
832.82	1519.59
832.99	1548.26
833.17	1519.59
833.34	1591.27
833.51	1533.93
833.68	1386.47
833.85	1574.89
834.02	1409.00
834.19	1468.39
834.36	1480.68
834.53	1542.12
834.70	1480.68
834.87	1538.02
835.04	1529.83
835.22	1468.39
835.39	1529.83
835.56	1495.02
835.73	1488.87
835.90	1568.74
836.07	1445.87
836.24	1546.22
836.41	1472.49
836.58	1486.83
836.75	1611.75
836.92	1523.69
837.09	1466.35
837.26	1603.56
837.43	1576.94
837.60	1492.97
837.77	1533.93
837.94	1560.55
838.12	1615.85
838.29	1632.23
838.46	1533.93
838.63	1492.97
838.80	1599.46
838.97	1658.85
839.14	1503.21
839.31	1564.65
839.48	1576.94
839.65	1538.02
839.82	1611.75
839.99	1482.73
840.16	1552.36
840.33	1505.26
840.50	1535.98
840.67	1523.69
840.84	1464.30
841.01	1568.74
841.18	1519.59
841.35	1521.64
841.52	1570.79
841.69	1591.27
841.86	1443.82
842.03	1529.83
842.20	1515.50
842.37	1464.30
842.54	1525.74
842.71	1556.46
842.88	1552.36
843.05	1607.66
843.22	1484.78
843.39	1607.66
843.56	1468.39
843.73	1501.16
843.90	1562.60
844.07	1556.46
844.24	1550.31
844.41	1599.46
844.58	1542.12
844.75	1535.98
844.92	1599.46
845.09	1538.02
845.26	1427.43
845.43	1613.80
845.60	1503.21
845.77	1572.84
845.94	1507.30
846.10	1570.79
846.27	1486.83
846.44	1492.97
846.61	1480.68
846.78	1495.02
846.95	1578.98
847.12	1535.98
847.29	1474.54
847.46	1538.02
847.63	1636.33
847.80	1550.31
847.97	1572.84
848.14	1589.22
848.31	1486.83
848.48	1507.30
848.65	1583.08
848.82	1544.17
848.98	1667.05
849.15	1626.09
849.32	1486.83
849.49	1611.75
849.66	1542.12
849.83	1550.31
850.00	1441.77
850.17	1527.78
850.34	1531.88
850.51	1449.96
850.68	1443.82
850.85	1576.94
851.01	1576.94
851.18	1585.13
851.35	1515.50
851.52	1538.02
851.69	1574.89
851.86	1478.63
852.03	1578.98
852.20	1587.18
852.37	1454.06
852.53	1511.40
852.70	1628.14
852.87	1562.60
853.04	1597.42
853.21	1540.07
853.38	1626.09
853.55	1560.55
853.72	1640.42
853.89	1437.67
854.05	1413.10
854.22	1527.78
854.39	1595.37
854.56	1513.45
854.73	1646.57
854.90	1497.07
855.07	1560.55
855.23	1527.78
855.40	1542.12
855.57	1538.02
855.74	1486.83
855.91	1609.70
856.08	1488.87
856.25	1472.49
856.41	1581.03
856.58	1490.92
856.75	1529.83
856.92	1476.59
857.09	1591.27
857.26	1435.63
857.42	1456.11
857.59	1576.94
857.76	1488.87
857.93	1495.02
858.10	1568.74
858.27	1529.83
858.43	1529.83
858.60	1462.25
858.77	1456.11
858.94	1495.02
859.11	1589.22
859.27	1523.69
859.44	1497.07
859.61	1617.90
859.78	1517.54
859.95	1486.83
860.12	1488.87
860.28	1654.76
860.45	1550.31
860.62	1470.44
860.79	1558.50
860.95	1540.07
861.12	1517.54
861.29	1554.41
861.46	1542.12
861.63	1554.41
861.79	1568.74
861.96	1540.07
862.13	1499.11
862.30	1591.27
862.47	1521.64
862.63	1501.16
862.80	1593.32
862.97	1628.14
863.14	1574.89
863.30	1562.60
863.47	1486.83
863.64	1607.66
863.81	1566.70
863.97	1519.59
864.14	1593.32
864.31	1517.54
864.48	1587.18
864.65	1531.88
864.81	1542.12
864.98	1574.89
865.15	1566.70
865.32	1638.38
865.48	1617.90
865.65	1667.05
865.82	1544.17
865.98	1619.94
866.15	1646.57
866.32	1476.59
866.49	1464.30
866.65	1593.32
866.82	1421.29
866.99	1495.02
867.16	1517.54
867.32	1456.11
867.49	1486.83
867.66	1474.54
867.83	1482.73
867.99	1417.19
868.16	1535.98
868.33	1439.72
868.49	1521.64
868.66	1566.70
868.83	1501.16
868.99	1495.02
869.16	1540.07
869.33	1574.89
869.50	1533.93
869.66	1535.98
869.83	1441.77
870.00	1509.35
870.16	1554.41
870.33	1458.15
870.50	1533.93
870.66	1570.79
870.83	1660.90
871.00	1517.54
871.17	1550.31
871.33	1542.12
871.50	1470.44
871.67	1556.46
871.83	1499.11
872.00	1599.46
872.17	1513.45
872.33	1544.17
872.50	1550.31
872.67	1501.16
872.83	1464.30
873.00	1574.89
873.17	1556.46
873.33	1587.18
873.50	1615.85
873.67	1564.65
873.83	1583.08
874.00	1511.40
874.16	1558.50
874.33	1546.22
874.50	1527.78
874.66	1566.70
874.83	1449.96
875.00	1523.69
875.16	1550.31
875.33	1544.17
875.50	1501.16
875.66	1509.35
875.83	1540.07
875.99	1599.46
876.16	1558.50
876.33	1454.06
876.49	1548.26
876.66	1581.03
876.83	1607.66
876.99	1525.74
877.16	1515.50
877.32	1576.94
877.49	1441.77
877.66	1495.02
877.82	1576.94
877.99	1593.32
878.15	1597.42
878.32	1613.80
878.49	1544.17
878.65	1490.92
878.82	1607.66
878.98	1542.12
879.15	1495.02
879.32	1562.60
879.48	1587.18
879.65	1540.07
879.81	1513.45
879.98	1503.21
880.15	1452.01
880.31	1599.46
880.48	1505.26
880.64	1578.98
880.81	1562.60
880.97	1591.27
881.14	1648.61
881.31	1468.39
881.47	1708.01
881.64	1499.11
881.80	1396.71
881.97	1570.79
882.13	1656.81
882.30	1478.63
882.47	1466.35
882.63	1523.69
882.80	1509.35
882.96	1513.45
883.13	1609.70
883.29	1527.78
883.46	1538.02
883.62	1591.27
883.79	1499.11
883.95	1595.37
884.12	1517.54
884.29	1626.09
884.45	1462.25
884.62	1591.27
884.78	1449.96
884.95	1505.26
885.11	1454.06
885.28	1540.07
885.44	1517.54
885.61	1574.89
885.77	1583.08
885.94	1578.98
886.10	1490.92
886.27	1550.31
886.43	1638.38
886.60	1611.75
886.76	1478.63
886.93	1552.36
887.09	1533.93
887.26	1495.02
887.42	1548.26
887.59	1542.12
887.75	1599.46
887.92	1630.18
888.08	1603.56
888.25	1583.08
888.41	1548.26
888.58	1546.22
888.74	1492.97
888.91	1443.82
>>>>>End Processed Spectral Data<<<<<
