SpectraSuite Data File
++++++++++++++++++++++++++++++++++++
Date: Tue May 03 12:55:43 CEST 2016
User: root
Dark Spectrum Present: No
Reference Spectrum Present: No
Number of Sampled Component Spectra: 1
Spectrometers: USB4C02835
Integration Time (usec): 100000 (USB4C02835)
Spectra Averaged: 1 (USB4C02835)
Boxcar Smoothing: 0 (USB4C02835)
Correct for Electrical Dark: No (USB4C02835)
Strobe/Lamp Enabled: No (USB4C02835)
Correct for Detector Non-linearity: No (USB4C02835)
Correct for Stray Light: No (USB4C02835)
Number of Pixels in Processed Spectrum: 3648
>>>>>Begin Processed Spectral Data<<<<<
177.47	1345.52
177.69	1345.52
177.91	1345.52
178.13	1302.51
178.36	1353.71
178.58	1456.11
178.80	1562.60
179.02	1417.19
179.24	1527.78
179.46	1576.94
179.68	1546.22
179.90	1566.70
180.13	1589.22
180.35	1535.98
180.57	1550.31
180.79	1554.41
181.01	1531.88
181.23	1636.33
181.45	1640.42
181.67	1568.74
181.90	1593.32
182.12	1535.98
182.34	1544.17
182.56	1517.54
182.78	1566.70
183.00	1531.88
183.22	1550.31
183.44	1441.77
183.66	1640.42
183.89	1605.61
184.11	1527.78
184.33	1558.50
184.55	1529.83
184.77	1611.75
184.99	1576.94
185.21	1535.98
185.43	1624.04
185.65	1513.45
185.87	1546.22
186.10	1654.76
186.32	1585.13
186.54	1538.02
186.76	1628.14
186.98	1544.17
187.20	1509.35
187.42	1490.92
187.64	1511.40
187.86	1589.22
188.08	1599.46
188.30	1578.98
188.52	1531.88
188.75	1527.78
188.97	1576.94
189.19	1517.54
189.41	1495.02
189.63	1581.03
189.85	1495.02
190.07	1472.49
190.29	1495.02
190.51	1576.94
190.73	1431.53
190.95	1607.66
191.17	1562.60
191.39	1517.54
191.61	1517.54
191.84	1535.98
192.06	1472.49
192.28	1425.39
192.50	1679.33
192.72	1531.88
192.94	1525.74
193.16	1572.84
193.38	1515.50
193.60	1464.30
193.82	1501.16
194.04	1515.50
194.26	1552.36
194.48	1501.16
194.70	1533.93
194.92	1523.69
195.14	1652.71
195.36	1562.60
195.58	1538.02
195.80	1538.02
196.02	1568.74
196.24	1583.08
196.46	1525.74
196.69	1525.74
196.91	1667.05
197.13	1523.69
197.35	1406.95
197.57	1556.46
197.79	1492.97
198.01	1538.02
198.23	1544.17
198.45	1523.69
198.67	1462.25
198.89	1535.98
199.11	1566.70
199.33	1564.65
199.55	1480.68
199.77	1531.88
199.99	1593.32
200.21	1480.68
200.43	1558.50
200.65	1538.02
200.87	1478.63
201.09	1538.02
201.31	1591.27
201.53	1574.89
201.75	1527.78
201.97	1540.07
202.19	1566.70
202.41	1572.84
202.63	1687.53
202.85	1519.59
203.07	1542.12
203.29	1529.83
203.51	1511.40
203.73	1544.17
203.95	1773.54
204.17	1529.83
204.39	1533.93
204.61	1509.35
204.83	1521.64
205.05	1482.73
205.27	1533.93
205.49	1683.43
205.71	1482.73
205.93	1482.73
206.15	1533.93
206.37	1490.92
206.59	1568.74
206.81	1546.22
207.03	1466.35
207.25	1478.63
207.47	1525.74
207.69	1468.39
207.91	1646.57
208.13	1570.79
208.34	1511.40
208.56	1501.16
208.78	1576.94
209.00	1515.50
209.22	1574.89
209.44	1517.54
209.66	1513.45
209.88	1568.74
210.10	1507.30
210.32	1542.12
210.54	1599.46
210.76	1535.98
210.98	1570.79
211.20	1460.20
211.42	1615.85
211.64	1544.17
211.86	1556.46
212.08	1578.98
212.30	1597.42
212.52	1568.74
212.74	1564.65
212.96	1560.55
213.17	1531.88
213.39	1548.26
213.61	1544.17
213.83	1601.51
214.05	1525.74
214.27	1538.02
214.49	1511.40
214.71	1542.12
214.93	1599.46
215.15	1533.93
215.37	1562.60
215.59	1423.34
215.81	1560.55
216.03	1558.50
216.24	1423.34
216.46	1603.56
216.68	1554.41
216.90	1548.26
217.12	1624.04
217.34	1511.40
217.56	1527.78
217.78	1621.99
218.00	1560.55
218.22	1570.79
218.44	1482.73
218.66	1544.17
218.87	1601.51
219.09	1517.54
219.31	1538.02
219.53	1476.59
219.75	1529.83
219.97	1540.07
220.19	1578.98
220.41	1513.45
220.63	1550.31
220.85	1581.03
221.06	1515.50
221.28	1603.56
221.50	1566.70
221.72	1572.84
221.94	1529.83
222.16	1560.55
222.38	1505.26
222.60	1529.83
222.82	1456.11
223.03	1548.26
223.25	1495.02
223.47	1546.22
223.69	1689.57
223.91	1505.26
224.13	1525.74
224.35	1509.35
224.57	1578.98
224.78	1529.83
225.00	1484.78
225.22	1542.12
225.44	1581.03
225.66	1554.41
225.88	1495.02
226.10	1587.18
226.32	1456.11
226.53	1542.12
226.75	1583.08
226.97	1578.98
227.19	1607.66
227.41	1517.54
227.63	1513.45
227.85	1527.78
228.06	1568.74
228.28	1470.44
228.50	1576.94
228.72	1513.45
228.94	1507.30
229.16	1507.30
229.37	1519.59
229.59	1560.55
229.81	1533.93
230.03	1503.21
230.25	1452.01
230.47	1517.54
230.69	1468.39
230.90	1607.66
231.12	1578.98
231.34	1566.70
231.56	1576.94
231.78	1484.78
232.00	1632.23
232.21	1533.93
232.43	1548.26
232.65	1456.11
232.87	1601.51
233.09	1499.11
233.30	1484.78
233.52	1570.79
233.74	1388.52
233.96	1576.94
234.18	1550.31
234.40	1515.50
234.61	1609.70
234.83	1550.31
235.05	1492.97
235.27	1630.18
235.49	1585.13
235.70	1544.17
235.92	1599.46
236.14	1527.78
236.36	1710.05
236.58	1554.41
236.79	1628.14
237.01	1583.08
237.23	1533.93
237.45	1609.70
237.67	1478.63
237.88	1544.17
238.10	1538.02
238.32	1458.15
238.54	1509.35
238.76	1538.02
238.97	1480.68
239.19	1519.59
239.41	1628.14
239.63	1554.41
239.85	1519.59
240.06	1538.02
240.28	1497.07
240.50	1517.54
240.72	1533.93
240.93	1533.93
241.15	1574.89
241.37	1515.50
241.59	1583.08
241.81	1581.03
242.02	1601.51
242.24	1560.55
242.46	1535.98
242.68	1486.83
242.89	1517.54
243.11	1576.94
243.33	1511.40
243.55	1515.50
243.76	1603.56
243.98	1423.34
244.20	1538.02
244.42	1560.55
244.64	1652.71
244.85	1449.96
245.07	1517.54
245.29	1613.80
245.51	1507.30
245.72	1503.21
245.94	1587.18
246.16	1609.70
246.38	1576.94
246.59	1456.11
246.81	1523.69
247.03	1474.54
247.24	1472.49
247.46	1538.02
247.68	1513.45
247.90	1531.88
248.11	1513.45
248.33	1581.03
248.55	1587.18
248.77	1509.35
248.98	1562.60
249.20	1656.81
249.42	1509.35
249.64	1523.69
249.85	1550.31
250.07	1425.39
250.29	1564.65
250.50	1601.51
250.72	1478.63
250.94	1525.74
251.16	1685.48
251.37	1529.83
251.59	1581.03
251.81	1540.07
252.02	1554.41
252.24	1519.59
252.46	1597.42
252.68	1464.30
252.89	1488.87
253.11	1509.35
253.33	1572.84
253.54	1529.83
253.76	1468.39
253.98	1636.33
254.20	1519.59
254.41	1454.06
254.63	1509.35
254.85	1495.02
255.06	1540.07
255.28	1560.55
255.50	1540.07
255.71	1495.02
255.93	1447.91
256.15	1531.88
256.36	1574.89
256.58	1484.78
256.80	1585.13
257.02	1486.83
257.23	1544.17
257.45	1486.83
257.67	1513.45
257.88	1546.22
258.10	1540.07
258.32	1511.40
258.53	1550.31
258.75	1593.32
258.97	1554.41
259.18	1568.74
259.40	1544.17
259.62	1593.32
259.83	1566.70
260.05	1556.46
260.27	1781.73
260.48	1503.21
260.70	1525.74
260.92	1533.93
261.13	1566.70
261.35	1593.32
261.57	1507.30
261.78	1478.63
262.00	1589.22
262.22	1538.02
262.43	1435.63
262.65	1556.46
262.86	1531.88
263.08	1630.18
263.30	1583.08
263.51	1513.45
263.73	1482.73
263.95	1640.42
264.16	1503.21
264.38	1576.94
264.60	1562.60
264.81	1529.83
265.03	1542.12
265.25	1605.61
265.46	1482.73
265.68	1634.28
265.89	1566.70
266.11	1482.73
266.33	1533.93
266.54	1544.17
266.76	1533.93
266.98	1544.17
267.19	1624.04
267.41	1624.04
267.62	1540.07
267.84	1542.12
268.06	1525.74
268.27	1503.21
268.49	1505.26
268.70	1630.18
268.92	1503.21
269.14	1495.02
269.35	1544.17
269.57	1499.11
269.79	1587.18
270.00	1458.15
270.22	1626.09
270.43	1587.18
270.65	1380.33
270.87	1552.36
271.08	1574.89
271.30	1585.13
271.51	1589.22
271.73	1513.45
271.95	1529.83
272.16	1556.46
272.38	1542.12
272.59	1585.13
272.81	1495.02
273.02	1538.02
273.24	1587.18
273.46	1597.42
273.67	1525.74
273.89	1478.63
274.10	1468.39
274.32	1626.09
274.54	1507.30
274.75	1535.98
274.97	1566.70
275.18	1589.22
275.40	1517.54
275.61	1499.11
275.83	1546.22
276.05	1492.97
276.26	1562.60
276.48	1531.88
276.69	1488.87
276.91	1554.41
277.12	1589.22
277.34	1603.56
277.55	1578.98
277.77	1572.84
277.99	1523.69
278.20	1503.21
278.42	1527.78
278.63	1423.34
278.85	1513.45
279.06	1509.35
279.28	1607.66
279.49	1628.14
279.71	1578.98
279.93	1474.54
280.14	1488.87
280.36	1490.92
280.57	1560.55
280.79	1611.75
281.00	1470.44
281.22	1529.83
281.43	1529.83
281.65	1486.83
281.86	1527.78
282.08	1552.36
282.29	1640.42
282.51	1427.43
282.73	1544.17
282.94	1390.57
283.16	1607.66
283.37	1523.69
283.59	1552.36
283.80	1513.45
284.02	1490.92
284.23	1589.22
284.45	1495.02
284.66	1523.69
284.88	1531.88
285.09	1558.50
285.31	1566.70
285.52	1542.12
285.74	1480.68
285.95	1595.37
286.17	1562.60
286.38	1570.79
286.60	1480.68
286.81	1552.36
287.03	1501.16
287.24	1540.07
287.46	1531.88
287.67	1488.87
287.89	1617.90
288.10	1554.41
288.32	1542.12
288.53	1570.79
288.75	1454.06
288.96	1660.90
289.18	1468.39
289.39	1566.70
289.61	1531.88
289.82	1595.37
290.04	1636.33
290.25	1535.98
290.47	1503.21
290.68	1525.74
290.90	1558.50
291.11	1527.78
291.33	1640.42
291.54	1470.44
291.76	1552.36
291.97	1548.26
292.18	1591.27
292.40	1529.83
292.61	1535.98
292.83	1603.56
293.04	1593.32
293.26	1552.36
293.47	1513.45
293.69	1472.49
293.90	1495.02
294.12	1566.70
294.33	1601.51
294.55	1523.69
294.76	1595.37
294.97	1482.73
295.19	1654.76
295.40	1486.83
295.62	1581.03
295.83	1560.55
296.05	1503.21
296.26	1628.14
296.48	1546.22
296.69	1515.50
296.90	1447.91
297.12	1554.41
297.33	1558.50
297.55	1529.83
297.76	1576.94
297.98	1605.61
298.19	1542.12
298.41	1540.07
298.62	1488.87
298.83	1591.27
299.05	1544.17
299.26	1538.02
299.48	1509.35
299.69	1619.94
299.90	1550.31
300.12	1550.31
300.33	1562.60
300.55	1550.31
300.76	1558.50
300.98	1525.74
301.19	1634.28
301.40	1509.35
301.62	1497.07
301.83	1576.94
302.05	1501.16
302.26	1505.26
302.47	1589.22
302.69	1460.20
302.90	1509.35
303.12	1368.04
303.33	1511.40
303.54	1642.47
303.76	1511.40
303.97	1572.84
304.19	1656.81
304.40	1492.97
304.61	1574.89
304.83	1628.14
305.04	1566.70
305.26	1585.13
305.47	1503.21
305.68	1513.45
305.90	1429.48
306.11	1554.41
306.33	1523.69
306.54	1507.30
306.75	1529.83
306.97	1535.98
307.18	1497.07
307.39	1511.40
307.61	1568.74
307.82	1593.32
308.04	1511.40
308.25	1583.08
308.46	1531.88
308.68	1572.84
308.89	1558.50
309.10	1568.74
309.32	1456.11
309.53	1591.27
309.74	1550.31
309.96	1527.78
310.17	1581.03
310.39	1550.31
310.60	1583.08
310.81	1531.88
311.03	1460.20
311.24	1535.98
311.45	1470.44
311.67	1632.23
311.88	1515.50
312.09	1495.02
312.31	1501.16
312.52	1492.97
312.73	1519.59
312.95	1488.87
313.16	1488.87
313.37	1628.14
313.59	1556.46
313.80	1533.93
314.01	1552.36
314.23	1517.54
314.44	1566.70
314.65	1462.25
314.87	1484.78
315.08	1495.02
315.29	1556.46
315.51	1509.35
315.72	1486.83
315.93	1607.66
316.15	1640.42
316.36	1540.07
316.57	1556.46
316.79	1527.78
317.00	1456.11
317.21	1509.35
317.43	1523.69
317.64	1531.88
317.85	1513.45
318.07	1544.17
318.28	1667.05
318.49	1716.20
318.70	1802.21
318.92	1710.05
319.13	1699.81
319.34	1669.09
319.56	1714.15
319.77	1581.03
319.98	1648.61
320.20	1640.42
320.41	1562.60
320.62	1689.57
320.83	1519.59
321.05	1636.33
321.26	1554.41
321.47	1519.59
321.69	1564.65
321.90	1511.40
322.11	1468.39
322.32	1583.08
322.54	1603.56
322.75	1554.41
322.96	1593.32
323.18	1484.78
323.39	1376.24
323.60	1513.45
323.81	1511.40
324.03	1460.20
324.24	1533.93
324.45	1542.12
324.66	1456.11
324.88	1613.80
325.09	1640.42
325.30	1490.92
325.52	1529.83
325.73	1550.31
325.94	1490.92
326.15	1542.12
326.37	1495.02
326.58	1566.70
326.79	1644.52
327.00	1431.53
327.22	1538.02
327.43	1513.45
327.64	1456.11
327.85	1611.75
328.07	1472.49
328.28	1603.56
328.49	1476.59
328.70	1497.07
328.92	1597.42
329.13	1507.30
329.34	1511.40
329.55	1619.94
329.76	1665.00
329.98	1490.92
330.19	1587.18
330.40	1535.98
330.61	1568.74
330.83	1562.60
331.04	1484.78
331.25	1527.78
331.46	1554.41
331.68	1542.12
331.89	1619.94
332.10	1511.40
332.31	1535.98
332.52	1458.15
332.74	1626.09
332.95	1386.47
333.16	1540.07
333.37	1542.12
333.58	1486.83
333.80	1495.02
334.01	1492.97
334.22	1566.70
334.43	1433.58
334.64	1544.17
334.86	1482.73
335.07	1523.69
335.28	1552.36
335.49	1501.16
335.70	1568.74
335.92	1564.65
336.13	1591.27
336.34	1566.70
336.55	1578.98
336.76	1566.70
336.98	1470.44
337.19	1591.27
337.40	1705.96
337.61	1636.33
337.82	1492.97
338.04	1570.79
338.25	1466.35
338.46	1546.22
338.67	1499.11
338.88	1474.54
339.09	1472.49
339.31	1497.07
339.52	1439.72
339.73	1574.89
339.94	1484.78
340.15	1564.65
340.36	1488.87
340.58	1497.07
340.79	1521.64
341.00	1519.59
341.21	1480.68
341.42	1583.08
341.63	1523.69
341.85	1648.61
342.06	1574.89
342.27	1468.39
342.48	1564.65
342.69	1609.70
342.90	1552.36
343.12	1589.22
343.33	1505.26
343.54	1607.66
343.75	1595.37
343.96	1447.91
344.17	1523.69
344.38	1519.59
344.60	1505.26
344.81	1529.83
345.02	1523.69
345.23	1599.46
345.44	1677.29
345.65	1544.17
345.86	1560.55
346.07	1587.18
346.29	1474.54
346.50	1560.55
346.71	1568.74
346.92	1595.37
347.13	1650.66
347.34	1497.07
347.55	1578.98
347.76	1564.65
347.98	1490.92
348.19	1619.94
348.40	1609.70
348.61	1542.12
348.82	1603.56
349.03	1574.89
349.24	1490.92
349.45	1591.27
349.66	1415.15
349.88	1517.54
350.09	1480.68
350.30	1607.66
350.51	1619.94
350.72	1482.73
350.93	1556.46
351.14	1499.11
351.35	1525.74
351.56	1576.94
351.77	1554.41
351.99	1523.69
352.20	1665.00
352.41	1548.26
352.62	1431.53
352.83	1556.46
353.04	1501.16
353.25	1515.50
353.46	1570.79
353.67	1570.79
353.88	1495.02
354.09	1525.74
354.30	1544.17
354.52	1544.17
354.73	1535.98
354.94	1464.30
355.15	1560.55
355.36	1615.85
355.57	1478.63
355.78	1570.79
355.99	1501.16
356.20	1523.69
356.41	1591.27
356.62	1497.07
356.83	1519.59
357.04	1595.37
357.25	1570.79
357.46	1540.07
357.68	1574.89
357.89	1546.22
358.10	1441.77
358.31	1533.93
358.52	1550.31
358.73	1507.30
358.94	1509.35
359.15	1521.64
359.36	1599.46
359.57	1529.83
359.78	1568.74
359.99	1554.41
360.20	1437.67
360.41	1476.59
360.62	1570.79
360.83	1656.81
361.04	1517.54
361.25	1535.98
361.46	1667.05
361.67	1552.36
361.88	1595.37
362.09	1499.11
362.30	1574.89
362.51	1630.18
362.72	1521.64
362.93	1546.22
363.14	1484.78
363.35	1581.03
363.56	1574.89
363.78	1617.90
363.99	1503.21
364.20	1427.43
364.41	1531.88
364.62	1601.51
364.83	1531.88
365.04	1468.39
365.25	1566.70
365.46	1562.60
365.67	1521.64
365.88	1540.07
366.09	1525.74
366.30	1566.70
366.51	1558.50
366.72	1542.12
366.93	1540.07
367.14	1552.36
367.35	1611.75
367.56	1642.47
367.77	1615.85
367.98	1570.79
368.18	1568.74
368.39	1599.46
368.60	1527.78
368.81	1566.70
369.02	1550.31
369.23	1452.01
369.44	1495.02
369.65	1583.08
369.86	1523.69
370.07	1558.50
370.28	1501.16
370.49	1531.88
370.70	1529.83
370.91	1533.93
371.12	1484.78
371.33	1523.69
371.54	1531.88
371.75	1638.38
371.96	1425.39
372.17	1517.54
372.38	1525.74
372.59	1585.13
372.80	1544.17
373.01	1468.39
373.22	1570.79
373.43	1540.07
373.64	1456.11
373.85	1605.61
374.06	1574.89
374.26	1556.46
374.47	1568.74
374.68	1667.05
374.89	1509.35
375.10	1570.79
375.31	1564.65
375.52	1570.79
375.73	1566.70
375.94	1511.40
376.15	1558.50
376.36	1574.89
376.57	1517.54
376.78	1513.45
376.99	1611.75
377.20	1603.56
377.40	1521.64
377.61	1583.08
377.82	1499.11
378.03	1562.60
378.24	1533.93
378.45	1535.98
378.66	1544.17
378.87	1472.49
379.08	1482.73
379.29	1492.97
379.50	1593.32
379.71	1538.02
379.91	1499.11
380.12	1529.83
380.33	1558.50
380.54	1523.69
380.75	1570.79
380.96	1556.46
381.17	1609.70
381.38	1529.83
381.59	1619.94
381.80	1560.55
382.00	1679.33
382.21	1669.09
382.42	1691.62
382.63	1671.14
382.84	1591.27
383.05	1656.81
383.26	1646.57
383.47	1595.37
383.68	1538.02
383.88	1574.89
384.09	1517.54
384.30	1638.38
384.51	1595.37
384.72	1529.83
384.93	1456.11
385.14	1538.02
385.35	1632.23
385.55	1546.22
385.76	1599.46
385.97	1581.03
386.18	1501.16
386.39	1542.12
386.60	1585.13
386.81	1554.41
387.02	1568.74
387.22	1585.13
387.43	1642.47
387.64	1730.53
387.85	1796.07
388.06	3076.05
388.27	7206.80
388.48	10637.15
388.68	12472.13
388.89	14075.69
389.10	12840.76
389.31	10061.67
389.52	8968.06
389.73	8030.09
389.93	7208.85
390.14	6852.50
390.35	6137.76
390.56	5650.35
390.77	4763.58
390.98	3659.72
391.18	2777.05
391.39	2230.24
391.60	1787.88
391.81	1757.16
392.02	1576.94
392.23	1665.00
392.43	1574.89
392.64	1675.24
392.85	1538.02
393.06	1634.28
393.27	1605.61
393.47	1505.26
393.68	1595.37
393.89	1552.36
394.10	1630.18
394.31	1529.83
394.52	1578.98
394.72	1529.83
394.93	1617.90
395.14	1558.50
395.35	1554.41
395.56	1562.60
395.76	1619.94
395.97	1687.53
396.18	1732.58
396.39	1843.17
396.60	1931.23
396.80	1716.20
397.01	1740.77
397.22	1646.57
397.43	1652.71
397.64	1593.32
397.84	1671.14
398.05	1679.33
398.26	1646.57
398.47	1646.57
398.67	1636.33
398.88	1634.28
399.09	1626.09
399.30	1533.93
399.51	1609.70
399.71	1574.89
399.92	1597.42
400.13	1570.79
400.34	1531.88
400.54	1525.74
400.75	1646.57
400.96	1583.08
401.17	1558.50
401.37	1531.88
401.58	1495.02
401.79	1644.52
402.00	1800.16
402.21	2023.39
402.41	1941.47
402.62	2027.49
402.83	1957.86
403.04	1818.60
403.24	1843.17
403.45	1769.44
403.66	1740.77
403.87	1650.66
404.07	1734.63
404.28	1791.97
404.49	1773.54
404.70	1675.24
404.90	1609.70
405.11	1525.74
405.32	1578.98
405.52	1486.83
405.73	1535.98
405.94	1535.98
406.15	1552.36
406.35	1587.18
406.56	1538.02
406.77	1523.69
406.98	1599.46
407.18	1427.43
407.39	1624.04
407.60	1572.84
407.80	1656.81
408.01	1499.11
408.22	1554.41
408.43	1538.02
408.63	1581.03
408.84	1607.66
409.05	1560.55
409.25	1486.83
409.46	1558.50
409.67	1492.97
409.88	1497.07
410.08	1611.75
410.29	1482.73
410.50	1593.32
410.70	1535.98
410.91	1495.02
411.12	1607.66
411.32	1576.94
411.53	1576.94
411.74	1615.85
411.95	1632.23
412.15	1632.23
412.36	1574.89
412.57	1599.46
412.77	1611.75
412.98	1560.55
413.19	1511.40
413.39	1636.33
413.60	1587.18
413.81	1607.66
414.01	1482.73
414.22	1591.27
414.43	1589.22
414.63	1542.12
414.84	1556.46
415.05	1595.37
415.25	1521.64
415.46	1552.36
415.67	1558.50
415.87	1535.98
416.08	1542.12
416.29	1449.96
416.49	1550.31
416.70	1527.78
416.91	1501.16
417.11	1476.59
417.32	1476.59
417.53	1597.42
417.73	1581.03
417.94	1478.63
418.15	1505.26
418.35	1556.46
418.56	1552.36
418.77	1638.38
418.97	1587.18
419.18	1560.55
419.38	1472.49
419.59	1554.41
419.80	1546.22
420.00	1556.46
420.21	1548.26
420.42	1574.89
420.62	1630.18
420.83	1564.65
421.04	1529.83
421.24	1574.89
421.45	1525.74
421.65	1595.37
421.86	1542.12
422.07	1540.07
422.27	1556.46
422.48	1576.94
422.69	1521.64
422.89	1501.16
423.10	1560.55
423.30	1509.35
423.51	1509.35
423.72	1558.50
423.92	1550.31
424.13	1482.73
424.33	1568.74
424.54	1499.11
424.75	1507.30
424.95	1574.89
425.16	1607.66
425.36	1517.54
425.57	1568.74
425.78	1642.47
425.98	1581.03
426.19	1572.84
426.39	1488.87
426.60	1572.84
426.81	1589.22
427.01	1540.07
427.22	1517.54
427.42	1513.45
427.63	1505.26
427.83	1621.99
428.04	1587.18
428.25	1603.56
428.45	1538.02
428.66	1517.54
428.86	1517.54
429.07	1556.46
429.28	1492.97
429.48	1497.07
429.69	1495.02
429.89	1570.79
430.10	1417.19
430.30	1538.02
430.51	1609.70
430.71	1507.30
430.92	1593.32
431.13	1540.07
431.33	1626.09
431.54	1591.27
431.74	1683.43
431.95	1644.52
432.15	1462.25
432.36	1591.27
432.56	1542.12
432.77	1681.38
432.98	1603.56
433.18	1535.98
433.39	1550.31
433.59	1585.13
433.80	1675.24
434.00	1681.38
434.21	1519.59
434.41	1503.21
434.62	1601.51
434.82	1529.83
435.03	1462.25
435.23	1521.64
435.44	1421.29
435.64	1511.40
435.85	1546.22
436.06	1564.65
436.26	1587.18
436.47	1501.16
436.67	1554.41
436.88	1449.96
437.08	1554.41
437.29	1615.85
437.49	1617.90
437.70	1578.98
437.90	1576.94
438.11	1642.47
438.31	1589.22
438.52	1693.67
438.72	1681.38
438.93	1773.54
439.13	1636.33
439.34	1695.72
439.54	1513.45
439.75	1662.95
439.95	1626.09
440.16	1564.65
440.36	1558.50
440.57	1521.64
440.77	1609.70
440.98	1546.22
441.18	1544.17
441.39	1499.11
441.59	1480.68
441.80	1638.38
442.00	1574.89
442.21	1611.75
442.41	1480.68
442.62	1669.09
442.82	1437.67
443.02	1581.03
443.23	1615.85
443.43	1564.65
443.64	1587.18
443.84	1626.09
444.05	1583.08
444.25	1544.17
444.46	1572.84
444.66	1581.03
444.87	1589.22
445.07	1529.83
445.28	1529.83
445.48	1611.75
445.69	1585.13
445.89	1652.71
446.09	1548.26
446.30	2007.01
446.50	3112.91
446.71	4577.21
446.91	5269.42
447.12	5711.78
447.32	5681.07
447.53	4755.38
447.73	3995.59
447.93	3639.24
448.14	3375.05
448.34	3100.62
448.55	2967.51
448.75	2875.35
448.96	2840.53
449.16	2426.84
449.36	2230.24
449.57	1970.15
449.77	1837.03
449.98	1644.52
450.18	1708.01
450.39	1595.37
450.59	1581.03
450.79	1556.46
451.00	1503.21
451.20	1550.31
451.41	1599.46
451.61	1597.42
451.81	1476.59
452.02	1552.36
452.22	1535.98
452.43	1572.84
452.63	1501.16
452.84	1486.83
453.04	1591.27
453.24	1519.59
453.45	1460.20
453.65	1523.69
453.86	1574.89
454.06	1538.02
454.26	1603.56
454.47	1529.83
454.67	1488.87
454.87	1535.98
455.08	1519.59
455.28	1591.27
455.49	1538.02
455.69	1441.77
455.89	1595.37
456.10	1574.89
456.30	1587.18
456.51	1599.46
456.71	1515.50
456.91	1603.56
457.12	1572.84
457.32	1511.40
457.52	1492.97
457.73	1558.50
457.93	1535.98
458.14	1521.64
458.34	1486.83
458.54	1490.92
458.75	1501.16
458.95	1611.75
459.15	1554.41
459.36	1556.46
459.56	1595.37
459.76	1595.37
459.97	1484.78
460.17	1460.20
460.37	1630.18
460.58	1587.18
460.78	1578.98
460.99	1546.22
461.19	1540.07
461.39	1542.12
461.60	1587.18
461.80	1554.41
462.00	1503.21
462.21	1470.44
462.41	1492.97
462.61	1488.87
462.82	1560.55
463.02	1574.89
463.22	1570.79
463.43	1642.47
463.63	1544.17
463.83	1632.23
464.04	1511.40
464.24	1488.87
464.44	1507.30
464.64	1470.44
464.85	1568.74
465.05	1658.85
465.25	1568.74
465.46	1538.02
465.66	1572.84
465.86	1542.12
466.07	1581.03
466.27	1540.07
466.47	1425.39
466.68	1482.73
466.88	1640.42
467.08	1583.08
467.29	1509.35
467.49	1583.08
467.69	1583.08
467.89	1517.54
468.10	1509.35
468.30	1613.80
468.50	1609.70
468.71	1499.11
468.91	1517.54
469.11	1673.19
469.31	1544.17
469.52	1576.94
469.72	1583.08
469.92	1656.81
470.13	1574.89
470.33	1523.69
470.53	1816.55
470.73	2062.30
470.94	2322.40
471.14	2361.31
471.34	2691.03
471.54	2541.53
471.75	2213.85
471.95	2127.84
472.15	2007.01
472.36	1931.23
472.56	1910.75
472.76	2017.25
472.96	1875.94
473.17	1884.13
473.37	1804.26
473.57	1628.14
473.77	1632.23
473.98	1570.79
474.18	1523.69
474.38	1621.99
474.58	1533.93
474.79	1509.35
474.99	1548.26
475.19	1626.09
475.39	1409.00
475.60	1538.02
475.80	1552.36
476.00	1556.46
476.20	1511.40
476.41	1544.17
476.61	1546.22
476.81	1611.75
477.01	1509.35
477.21	1613.80
477.42	1644.52
477.62	1470.44
477.82	1566.70
478.02	1529.83
478.23	1640.42
478.43	1591.27
478.63	1542.12
478.83	1566.70
479.03	1511.40
479.24	1562.60
479.44	1609.70
479.64	1454.06
479.84	1492.97
480.04	1550.31
480.25	1503.21
480.45	1511.40
480.65	1495.02
480.85	1513.45
481.06	1570.79
481.26	1572.84
481.46	1572.84
481.66	1546.22
481.86	1501.16
482.06	1574.89
482.27	1492.97
482.47	1531.88
482.67	1558.50
482.87	1511.40
483.07	1634.28
483.28	1523.69
483.48	1490.92
483.68	1535.98
483.88	1546.22
484.08	1460.20
484.29	1478.63
484.49	1572.84
484.69	1513.45
484.89	1599.46
485.09	1581.03
485.29	1527.78
485.50	1542.12
485.70	1632.23
485.90	1562.60
486.10	1523.69
486.30	1607.66
486.50	1591.27
486.71	1517.54
486.91	1587.18
487.11	1591.27
487.31	1472.49
487.51	1550.31
487.71	1460.20
487.91	1505.26
488.12	1492.97
488.32	1503.21
488.52	1509.35
488.72	1538.02
488.92	1556.46
489.12	1521.64
489.32	1540.07
489.53	1587.18
489.73	1454.06
489.93	1599.46
490.13	1511.40
490.33	1490.92
490.53	1587.18
490.73	1648.61
490.94	1472.49
491.14	1624.04
491.34	1720.29
491.54	2187.23
491.74	2738.13
491.94	3143.63
492.14	3315.66
492.34	3315.66
492.54	2836.44
492.75	2527.19
492.95	2314.20
493.15	2230.24
493.35	2158.56
493.55	2125.79
493.75	1988.58
493.95	2019.30
494.15	2023.39
494.35	1732.58
494.56	1712.10
494.76	1566.70
494.96	1628.14
495.16	1632.23
495.36	1576.94
495.56	1486.83
495.76	1505.26
495.96	1515.50
496.16	1560.55
496.36	1673.19
496.56	1593.32
496.77	1566.70
496.97	1597.42
497.17	1685.48
497.37	1490.92
497.57	1597.42
497.77	1525.74
497.97	1509.35
498.17	1568.74
498.37	1531.88
498.57	1632.23
498.77	1558.50
498.97	1605.61
499.17	1581.03
499.38	1527.78
499.58	1605.61
499.78	1576.94
499.98	1533.93
500.18	1585.13
500.38	1525.74
500.58	1785.83
500.78	2648.02
500.98	5138.35
501.18	6776.73
501.38	8206.21
501.58	8767.35
501.78	8046.47
501.98	6162.34
502.18	5373.87
502.38	4644.79
502.58	4173.76
502.78	3887.04
502.98	3784.65
503.18	3600.33
503.38	3432.40
503.59	3041.23
503.79	2799.57
503.99	2533.34
504.19	2318.30
504.39	2197.47
504.59	2080.74
504.79	2037.73
504.99	1927.14
505.19	1724.39
505.39	1732.58
505.59	1765.35
505.79	1701.86
505.99	1693.67
506.19	1652.71
506.39	1728.49
506.59	1595.37
506.79	1640.42
506.99	1583.08
507.19	1587.18
507.39	1558.50
507.59	1517.54
507.79	1456.11
507.99	1560.55
508.19	1570.79
508.39	1548.26
508.59	1499.11
508.79	1652.71
508.99	1468.39
509.19	1511.40
509.39	1578.98
509.59	1517.54
509.79	1519.59
509.99	1558.50
510.19	1589.22
510.39	1578.98
510.59	1576.94
510.79	1513.45
510.99	1538.02
511.19	1550.31
511.39	1572.84
511.59	1495.02
511.79	1556.46
511.99	1560.55
512.19	1628.14
512.38	1587.18
512.58	1466.35
512.78	1589.22
512.98	1574.89
513.18	1593.32
513.38	1492.97
513.58	1497.07
513.78	1540.07
513.98	1589.22
514.18	1542.12
514.38	1521.64
514.58	1525.74
514.78	1517.54
514.98	1468.39
515.18	1546.22
515.38	1544.17
515.58	1615.85
515.78	1540.07
515.98	1486.83
516.18	1486.83
516.38	1576.94
516.57	1538.02
516.77	1538.02
516.97	1624.04
517.17	1527.78
517.37	1482.73
517.57	1550.31
517.77	1566.70
517.97	1521.64
518.17	1630.18
518.37	1454.06
518.57	1521.64
518.77	1505.26
518.97	1476.59
519.16	1603.56
519.36	1542.12
519.56	1548.26
519.76	1566.70
519.96	1515.50
520.16	1652.71
520.36	1538.02
520.56	1556.46
520.76	1581.03
520.96	1581.03
521.16	1591.27
521.35	1621.99
521.55	1585.13
521.75	1499.11
521.95	1599.46
522.15	1511.40
522.35	1501.16
522.55	1474.54
522.75	1560.55
522.95	1554.41
523.14	1517.54
523.34	1576.94
523.54	1439.72
523.74	1626.09
523.94	1525.74
524.14	1406.95
524.34	1609.70
524.54	1591.27
524.73	1503.21
524.93	1605.61
525.13	1566.70
525.33	1507.30
525.53	1658.85
525.73	1556.46
525.93	1556.46
526.13	1521.64
526.32	1587.18
526.52	1560.55
526.72	1624.04
526.92	1542.12
527.12	1517.54
527.32	1425.39
527.52	1556.46
527.71	1593.32
527.91	1591.27
528.11	1544.17
528.31	1548.26
528.51	1431.53
528.71	1599.46
528.90	1572.84
529.10	1642.47
529.30	1681.38
529.50	1439.72
529.70	1615.85
529.90	1484.78
530.09	1482.73
530.29	1511.40
530.49	1523.69
530.69	1658.85
530.89	1554.41
531.09	1671.14
531.28	1548.26
531.48	1693.67
531.68	1609.70
531.88	1525.74
532.08	1576.94
532.28	1474.54
532.47	1560.55
532.67	1619.94
532.87	1552.36
533.07	1488.87
533.27	1570.79
533.46	1591.27
533.66	1660.90
533.86	1603.56
534.06	1589.22
534.26	1548.26
534.45	1556.46
534.65	1652.71
534.85	1601.51
535.05	1511.40
535.25	1542.12
535.44	1394.67
535.64	1636.33
535.84	1566.70
536.04	1619.94
536.24	1482.73
536.43	1531.88
536.63	1585.13
536.83	1566.70
537.03	1531.88
537.22	1447.91
537.42	1507.30
537.62	1566.70
537.82	1460.20
538.02	1650.66
538.21	1636.33
538.41	1667.05
538.61	1593.32
538.81	1529.83
539.00	1525.74
539.20	1533.93
539.40	1552.36
539.60	1574.89
539.79	1568.74
539.99	1511.40
540.19	1501.16
540.39	1529.83
540.58	1605.61
540.78	1581.03
540.98	1548.26
541.18	1572.84
541.37	1556.46
541.57	1501.16
541.77	1501.16
541.97	1507.30
542.16	1468.39
542.36	1523.69
542.56	1535.98
542.76	1687.53
542.95	1634.28
543.15	1527.78
543.35	1568.74
543.54	1497.07
543.74	1585.13
543.94	1656.81
544.14	1456.11
544.33	1593.32
544.53	1538.02
544.73	1519.59
544.93	1519.59
545.12	1617.90
545.32	1517.54
545.52	1462.25
545.71	1546.22
545.91	1501.16
546.11	1492.97
546.30	1542.12
546.50	1525.74
546.70	1531.88
546.90	1570.79
547.09	1425.39
547.29	1490.92
547.49	1560.55
547.68	1615.85
547.88	1499.11
548.08	1517.54
548.27	1955.81
548.47	1564.65
548.67	1517.54
548.87	1576.94
549.06	1546.22
549.26	1564.65
549.46	1513.45
549.65	1464.30
549.85	1519.59
550.05	1544.17
550.24	1421.29
550.44	1566.70
550.64	1644.52
550.83	1519.59
551.03	1568.74
551.23	1615.85
551.42	1605.61
551.62	1464.30
551.82	1531.88
552.01	1480.68
552.21	1626.09
552.41	1542.12
552.60	1515.50
552.80	1452.01
553.00	1507.30
553.19	1546.22
553.39	1693.67
553.59	1525.74
553.78	1568.74
553.98	1521.64
554.17	1480.68
554.37	1576.94
554.57	1654.76
554.76	1468.39
554.96	1511.40
555.16	1503.21
555.35	1511.40
555.55	1605.61
555.75	1554.41
555.94	1560.55
556.14	1476.59
556.33	1554.41
556.53	1578.98
556.73	1529.83
556.92	1630.18
557.12	1585.13
557.32	1574.89
557.51	1615.85
557.71	1503.21
557.90	1492.97
558.10	1603.56
558.30	1515.50
558.49	1480.68
558.69	1531.88
558.88	1570.79
559.08	1531.88
559.28	1550.31
559.47	1546.22
559.67	1587.18
559.86	1693.67
560.06	1566.70
560.26	1503.21
560.45	1544.17
560.65	1599.46
560.84	1603.56
561.04	1521.64
561.24	1572.84
561.43	1499.11
561.63	1558.50
561.82	1593.32
562.02	1515.50
562.22	1513.45
562.41	1505.26
562.61	1542.12
562.80	1476.59
563.00	1665.00
563.19	1572.84
563.39	1535.98
563.59	1583.08
563.78	1445.87
563.98	1452.01
564.17	1468.39
564.37	1503.21
564.56	1486.83
564.76	1429.48
564.96	1562.60
565.15	1540.07
565.35	1581.03
565.54	1554.41
565.74	1656.81
565.93	1587.18
566.13	1511.40
566.32	1540.07
566.52	1615.85
566.71	1609.70
566.91	1486.83
567.11	1566.70
567.30	1490.92
567.50	1665.00
567.69	1503.21
567.89	1527.78
568.08	1441.77
568.28	1525.74
568.47	1501.16
568.67	1632.23
568.86	1515.50
569.06	1640.42
569.25	1533.93
569.45	1599.46
569.64	1466.35
569.84	1546.22
570.04	1617.90
570.23	1478.63
570.43	1474.54
570.62	1527.78
570.82	1609.70
571.01	1540.07
571.21	1560.55
571.40	1560.55
571.60	1521.64
571.79	1517.54
571.99	1515.50
572.18	1523.69
572.38	1548.26
572.57	1527.78
572.77	1535.98
572.96	1652.71
573.16	1589.22
573.35	1511.40
573.55	1656.81
573.74	1626.09
573.94	1574.89
574.13	1484.78
574.33	1593.32
574.52	1599.46
574.71	1578.98
574.91	1619.94
575.10	1540.07
575.30	1556.46
575.49	1509.35
575.69	1638.38
575.88	1583.08
576.08	1535.98
576.27	1718.25
576.47	1619.94
576.66	1746.92
576.86	1566.70
577.05	1593.32
577.25	1644.52
577.44	1687.53
577.64	1576.94
577.83	1597.42
578.02	1585.13
578.22	1644.52
578.41	1621.99
578.61	1599.46
578.80	1488.87
579.00	1538.02
579.19	1589.22
579.39	1626.09
579.58	1619.94
579.77	1613.80
579.97	1660.90
580.16	1593.32
580.36	1681.38
580.55	1634.28
580.75	1615.85
580.94	1578.98
581.13	1732.58
581.33	1697.77
581.52	1603.56
581.72	1730.53
581.91	1669.09
582.11	1578.98
582.30	1587.18
582.49	1615.85
582.69	1665.00
582.88	1619.94
583.08	1665.00
583.27	1628.14
583.47	1572.84
583.66	1589.22
583.85	1525.74
584.05	1589.22
584.24	1640.42
584.44	1578.98
584.63	1644.52
584.82	1650.66
585.02	1687.53
585.21	1681.38
585.41	1705.96
585.60	1691.62
585.79	1847.27
585.99	1820.64
586.18	1759.21
586.37	2166.75
586.57	3190.74
586.76	9455.47
586.96	27678.30
587.15	44328.28
587.34	55065.78
587.54	61686.87
587.73	59993.20
587.93	43851.11
588.12	32515.60
588.31	26015.35
588.51	22492.84
588.70	19838.67
588.89	18446.05
589.09	16918.27
589.28	15263.51
589.47	13172.54
589.67	11188.05
589.86	9013.11
590.06	6885.27
590.25	5066.67
590.44	3801.03
590.64	2926.55
590.83	2332.64
591.02	2117.60
591.22	1865.70
591.41	1697.77
591.60	1705.96
591.80	1798.12
591.99	1546.22
592.18	1595.37
592.38	1648.61
592.57	1626.09
592.76	1628.14
592.96	1609.70
593.15	1624.04
593.34	1652.71
593.54	1523.69
593.73	1626.09
593.92	1621.99
594.12	1587.18
594.31	1570.79
594.50	1697.77
594.70	1691.62
594.89	1658.85
595.08	1531.88
595.28	1658.85
595.47	1753.06
595.66	1652.71
595.86	1560.55
596.05	1519.59
596.24	1562.60
596.43	1660.90
596.63	1669.09
596.82	1527.78
597.01	1607.66
597.21	1587.18
597.40	1570.79
597.59	1540.07
597.79	1560.55
597.98	1671.14
598.17	1630.18
598.36	1542.12
598.56	1595.37
598.75	1560.55
598.94	1492.97
599.14	1538.02
599.33	1486.83
599.52	1568.74
599.71	1597.42
599.91	1591.27
600.10	1574.89
600.29	1568.74
600.48	1505.26
600.68	1546.22
600.87	1511.40
601.06	1533.93
601.26	1613.80
601.45	1542.12
601.64	1578.98
601.83	1587.18
602.03	1433.58
602.22	1452.01
602.41	1673.19
602.60	1679.33
602.80	1585.13
602.99	1646.57
603.18	1556.46
603.37	1519.59
603.57	1517.54
603.76	1652.71
603.95	1578.98
604.14	1509.35
604.34	1519.59
604.53	1607.66
604.72	1535.98
604.91	1558.50
605.10	1519.59
605.30	1443.82
605.49	1652.71
605.68	1560.55
605.87	1533.93
606.07	1507.30
606.26	1535.98
606.45	1556.46
606.64	1626.09
606.84	1617.90
607.03	1638.38
607.22	1621.99
607.41	1578.98
607.60	1581.03
607.80	1634.28
607.99	1554.41
608.18	1560.55
608.37	1552.36
608.56	1513.45
608.76	1589.22
608.95	1730.53
609.14	1656.81
609.33	1722.34
609.52	1738.73
609.72	1740.77
609.91	1697.77
610.10	1576.94
610.29	1583.08
610.48	1609.70
610.68	1634.28
610.87	1544.17
611.06	1583.08
611.25	1513.45
611.44	1560.55
611.63	1632.23
611.83	1609.70
612.02	1466.35
612.21	1652.71
612.40	1509.35
612.59	1519.59
612.79	1576.94
612.98	1509.35
613.17	1593.32
613.36	1495.02
613.55	1708.01
613.74	1646.57
613.93	1705.96
614.13	1740.77
614.32	1775.59
614.51	1763.30
614.70	1646.57
614.89	1660.90
615.08	1607.66
615.28	1896.42
615.47	1576.94
615.66	1615.85
615.85	1521.64
616.04	1665.00
616.23	1636.33
616.42	1576.94
616.62	1621.99
616.81	1681.38
617.00	1578.98
617.19	1636.33
617.38	1566.70
617.57	1562.60
617.76	1595.37
617.95	1548.26
618.15	1593.32
618.34	1605.61
618.53	1466.35
618.72	1581.03
618.91	1578.98
619.10	1642.47
619.29	1535.98
619.48	1562.60
619.68	1540.07
619.87	1578.98
620.06	1458.15
620.25	1568.74
620.44	1558.50
620.63	1509.35
620.82	1540.07
621.01	1568.74
621.20	1503.21
621.39	1609.70
621.59	1658.85
621.78	1492.97
621.97	1499.11
622.16	1650.66
622.35	1540.07
622.54	1599.46
622.73	1589.22
622.92	1497.07
623.11	1482.73
623.30	1562.60
623.49	1662.95
623.68	1499.11
623.88	1621.99
624.07	1517.54
624.26	1533.93
624.45	1499.11
624.64	1527.78
624.83	1576.94
625.02	1542.12
625.21	1521.64
625.40	1581.03
625.59	1521.64
625.78	1548.26
625.97	1560.55
626.16	1640.42
626.35	1626.09
626.54	1601.51
626.74	1736.68
626.93	1587.18
627.12	1560.55
627.31	1611.75
627.50	1548.26
627.69	1658.85
627.88	1581.03
628.07	1503.21
628.26	1544.17
628.45	1488.87
628.64	1452.01
628.83	1570.79
629.02	1497.07
629.21	1540.07
629.40	1515.50
629.59	1560.55
629.78	1519.59
629.97	1521.64
630.16	1599.46
630.35	1544.17
630.54	1578.98
630.73	1484.78
630.92	1558.50
631.11	1482.73
631.30	1535.98
631.49	1642.47
631.68	1576.94
631.87	1574.89
632.06	1519.59
632.25	1630.18
632.44	1529.83
632.63	1542.12
632.82	1570.79
633.01	1589.22
633.20	1581.03
633.39	1599.46
633.58	1599.46
633.77	1712.10
633.96	1611.75
634.15	1650.66
634.34	1570.79
634.53	1554.41
634.72	1509.35
634.91	1499.11
635.10	1538.02
635.29	1609.70
635.48	1570.79
635.67	1521.64
635.86	1480.68
636.05	1570.79
636.24	1449.96
636.43	1595.37
636.62	1581.03
636.81	1558.50
637.00	1613.80
637.19	1556.46
637.38	1535.98
637.57	1544.17
637.76	1640.42
637.95	1656.81
638.14	1634.28
638.33	1613.80
638.52	1550.31
638.71	1624.04
638.89	1503.21
639.08	1671.14
639.27	1603.56
639.46	1617.90
639.65	1945.57
639.84	2031.58
640.03	2133.98
640.22	2217.95
640.41	2203.61
640.60	1949.67
640.79	1853.41
640.98	1802.21
641.17	1744.87
641.36	1687.53
641.55	1677.29
641.74	1656.81
641.92	1603.56
642.11	1621.99
642.30	1669.09
642.49	1585.13
642.68	1576.94
642.87	1574.89
643.06	1624.04
643.25	1605.61
643.44	1462.25
643.63	1533.93
643.82	1597.42
644.00	1476.59
644.19	1535.98
644.38	1529.83
644.57	1513.45
644.76	1554.41
644.95	1511.40
645.14	1533.93
645.33	1558.50
645.52	1552.36
645.71	1490.92
645.89	1482.73
646.08	1583.08
646.27	1525.74
646.46	1585.13
646.65	1476.59
646.84	1544.17
647.03	1470.44
647.22	1595.37
647.40	1554.41
647.59	1554.41
647.78	1480.68
647.97	1495.02
648.16	1513.45
648.35	1619.94
648.54	1593.32
648.73	1523.69
648.91	1570.79
649.10	1609.70
649.29	1505.26
649.48	1521.64
649.67	1484.78
649.86	1527.78
650.05	1628.14
650.23	1681.38
650.42	1656.81
650.61	1751.01
650.80	1728.49
650.99	1765.35
651.18	1650.66
651.36	1611.75
651.55	1619.94
651.74	1564.65
651.93	1583.08
652.12	1624.04
652.31	1683.43
652.49	1484.78
652.68	1544.17
652.87	1638.38
653.06	1570.79
653.25	1720.29
653.44	1611.75
653.62	1648.61
653.81	1597.42
654.00	1544.17
654.19	1564.65
654.38	1613.80
654.56	1552.36
654.75	1533.93
654.94	1544.17
655.13	1556.46
655.32	1535.98
655.51	1609.70
655.69	1429.48
655.88	1599.46
656.07	1517.54
656.26	1505.26
656.45	1488.87
656.63	1552.36
656.82	1558.50
657.01	1599.46
657.20	1517.54
657.38	1554.41
657.57	1540.07
657.76	1546.22
657.95	1624.04
658.14	1527.78
658.32	1603.56
658.51	1413.10
658.70	1519.59
658.89	1529.83
659.08	1544.17
659.26	1654.76
659.45	1542.12
659.64	1589.22
659.83	1566.70
660.01	1718.25
660.20	1652.71
660.39	1578.98
660.58	1452.01
660.76	1576.94
660.95	1511.40
661.14	1597.42
661.33	1492.97
661.51	1558.50
661.70	1632.23
661.89	1601.51
662.08	1552.36
662.26	1460.20
662.45	1572.84
662.64	1638.38
662.83	1552.36
663.01	1513.45
663.20	1484.78
663.39	1576.94
663.58	1529.83
663.76	1603.56
663.95	1552.36
664.14	1445.87
664.32	1466.35
664.51	1548.26
664.70	1511.40
664.89	1624.04
665.07	1503.21
665.26	1544.17
665.45	1484.78
665.64	1597.42
665.82	1595.37
666.01	1560.55
666.20	1507.30
666.38	1630.18
666.57	1574.89
666.76	1742.82
666.95	2973.65
667.13	7604.11
667.32	15894.29
667.51	20131.53
667.69	23525.02
667.88	25638.52
668.07	22046.38
668.25	15533.84
668.44	12455.75
668.63	10200.93
668.81	8720.25
669.00	7780.23
669.19	7036.82
669.38	6528.92
669.56	5652.39
669.75	4884.41
669.94	4030.40
670.12	3278.80
670.31	2852.82
670.50	2435.03
670.68	2146.27
670.87	1816.55
671.06	1789.92
671.24	1740.77
671.43	1751.01
671.62	1624.04
671.80	1632.23
671.99	1570.79
672.18	1630.18
672.36	1650.66
672.55	1578.98
672.74	1550.31
672.92	1540.07
673.11	1540.07
673.29	1474.54
673.48	1652.71
673.67	1640.42
673.85	1632.23
674.04	1476.59
674.23	1568.74
674.41	1589.22
674.60	1505.26
674.79	1484.78
674.97	1556.46
675.16	1562.60
675.34	1628.14
675.53	1505.26
675.72	1591.27
675.90	1642.47
676.09	1540.07
676.28	1482.73
676.46	1456.11
676.65	1548.26
676.83	1478.63
677.02	1523.69
677.21	1585.13
677.39	1576.94
677.58	1523.69
677.77	1460.20
677.95	1558.50
678.14	1535.98
678.32	1513.45
678.51	1488.87
678.70	1544.17
678.88	1554.41
679.07	1617.90
679.25	1597.42
679.44	1527.78
679.63	1490.92
679.81	1480.68
680.00	1568.74
680.18	1595.37
680.37	1574.89
680.55	1511.40
680.74	1509.35
680.93	1542.12
681.11	1484.78
681.30	1591.27
681.48	1566.70
681.67	1554.41
681.85	1511.40
682.04	1482.73
682.23	1568.74
682.41	1574.89
682.60	1613.80
682.78	1560.55
682.97	1499.11
683.15	1558.50
683.34	1517.54
683.53	1578.98
683.71	1441.77
683.90	1540.07
684.08	1632.23
684.27	1523.69
684.45	1560.55
684.64	1591.27
684.82	1519.59
685.01	1593.32
685.19	1564.65
685.38	1644.52
685.57	1570.79
685.75	1538.02
685.94	1593.32
686.12	1425.39
686.31	1519.59
686.49	1531.88
686.68	1449.96
686.86	1511.40
687.05	1495.02
687.23	1562.60
687.42	1460.20
687.60	1515.50
687.79	1560.55
687.97	1662.95
688.16	1609.70
688.34	1591.27
688.53	1437.67
688.71	1511.40
688.90	1523.69
689.08	1513.45
689.27	1527.78
689.45	1527.78
689.64	1597.42
689.82	1503.21
690.01	1538.02
690.19	1560.55
690.38	1474.54
690.56	1583.08
690.75	1572.84
690.93	1511.40
691.12	1501.16
691.30	1484.78
691.49	1529.83
691.67	1533.93
691.86	1697.77
692.04	1519.59
692.23	1525.74
692.41	1546.22
692.60	1662.95
692.78	1693.67
692.97	1548.26
693.15	1642.47
693.34	1736.68
693.52	1632.23
693.71	1544.17
693.89	1554.41
694.08	1523.69
694.26	1687.53
694.44	1615.85
694.63	1576.94
694.81	1488.87
695.00	1593.32
695.18	1538.02
695.37	1648.61
695.55	1550.31
695.74	1521.64
695.92	1466.35
696.10	1621.99
696.29	1452.01
696.47	1525.74
696.66	1476.59
696.84	1503.21
697.03	1554.41
697.21	1724.39
697.40	1939.43
697.58	1576.94
697.76	1519.59
697.95	1484.78
698.13	1458.15
698.32	1515.50
698.50	1529.83
698.68	1574.89
698.87	1533.93
699.05	1564.65
699.24	1556.46
699.42	1509.35
699.61	1492.97
699.79	1560.55
699.97	1478.63
700.16	1482.73
700.34	1519.59
700.53	1499.11
700.71	1626.09
700.89	1597.42
701.08	1560.55
701.26	1521.64
701.45	1908.71
701.63	1527.78
701.81	1513.45
702.00	1544.17
702.18	1558.50
702.37	1509.35
702.55	1693.67
702.73	1640.42
702.92	1699.81
703.10	1781.73
703.28	1804.26
703.47	1812.45
703.65	1773.54
703.84	1705.96
704.02	1671.14
704.20	1767.40
704.39	1554.41
704.57	1648.61
704.75	1712.10
704.94	1681.38
705.12	1597.42
705.30	1732.58
705.49	1865.70
705.67	2867.16
705.86	7516.05
706.04	14450.47
706.22	18763.49
706.41	21804.72
706.59	23125.66
706.77	21040.83
706.96	14522.15
707.14	11861.84
707.32	9633.64
707.51	8646.52
707.69	7567.24
707.87	6793.11
708.06	5748.65
708.24	4741.05
708.42	3698.63
708.61	2957.27
708.79	2209.76
708.97	1980.39
709.16	1837.03
709.34	1787.88
709.52	1660.90
709.71	1656.81
709.89	1601.51
710.07	1566.70
710.26	1554.41
710.44	1566.70
710.62	1593.32
710.80	1482.73
710.99	1570.79
711.17	1599.46
711.35	1560.55
711.54	1525.74
711.72	1628.14
711.90	1599.46
712.09	1542.12
712.27	1490.92
712.45	1570.79
712.63	1527.78
712.82	1509.35
713.00	1542.12
713.18	1490.92
713.37	1574.89
713.55	1527.78
713.73	1523.69
713.91	1644.52
714.10	1501.16
714.28	1558.50
714.46	1581.03
714.65	1523.69
714.83	1564.65
715.01	1525.74
715.19	1533.93
715.38	1515.50
715.56	1544.17
715.74	1527.78
715.92	1517.54
716.11	1628.14
716.29	1523.69
716.47	1447.91
716.65	1538.02
716.84	1480.68
717.02	1650.66
717.20	1406.95
717.38	1576.94
717.57	1585.13
717.75	1531.88
717.93	1533.93
718.11	1589.22
718.30	1525.74
718.48	1570.79
718.66	1511.40
718.84	1673.19
719.03	1554.41
719.21	1460.20
719.39	1624.04
719.57	1550.31
719.75	1552.36
719.94	1441.77
720.12	1507.30
720.30	1585.13
720.48	1636.33
720.67	1452.01
720.85	1566.70
721.03	1568.74
721.21	1474.54
721.39	1599.46
721.58	1527.78
721.76	1509.35
721.94	1570.79
722.12	1544.17
722.30	1693.67
722.49	1552.36
722.67	1480.68
722.85	1554.41
723.03	1429.48
723.21	1517.54
723.40	1560.55
723.58	1546.22
723.76	1576.94
723.94	1599.46
724.12	1611.75
724.30	1578.98
724.49	1652.71
724.67	1607.66
724.85	1638.38
725.03	1478.63
725.21	1607.66
725.40	1634.28
725.58	1519.59
725.76	1560.55
725.94	1533.93
726.12	1540.07
726.30	1538.02
726.49	1546.22
726.67	1558.50
726.85	1605.61
727.03	1585.13
727.21	1748.97
727.39	2099.17
727.57	3235.79
727.76	4460.48
727.94	4782.01
728.12	5160.88
728.30	5066.67
728.48	4292.54
728.66	3557.32
728.84	3289.04
729.03	2830.29
729.21	2615.26
729.39	2426.84
729.57	2000.87
729.75	1996.77
729.93	1843.17
730.11	1681.38
730.30	1570.79
730.48	1648.61
730.66	1603.56
730.84	1529.83
731.02	1591.27
731.20	1562.60
731.38	1589.22
731.56	1531.88
731.74	1458.15
731.93	1581.03
732.11	1540.07
732.29	1570.79
732.47	1513.45
732.65	1521.64
732.83	1570.79
733.01	1597.42
733.19	1501.16
733.37	1624.04
733.56	1540.07
733.74	1628.14
733.92	1542.12
734.10	1593.32
734.28	1529.83
734.46	1490.92
734.64	1507.30
734.82	1570.79
735.00	1501.16
735.18	1531.88
735.36	1566.70
735.54	1488.87
735.73	1497.07
735.91	1542.12
736.09	1585.13
736.27	1529.83
736.45	1591.27
736.63	1429.48
736.81	1474.54
736.99	1531.88
737.17	1634.28
737.35	1511.40
737.53	1525.74
737.71	1535.98
737.89	1599.46
738.07	1472.49
738.25	1517.54
738.43	1535.98
738.61	1517.54
738.80	1460.20
738.98	1499.11
739.16	1503.21
739.34	1486.83
739.52	1640.42
739.70	1556.46
739.88	1529.83
740.06	1607.66
740.24	1507.30
740.42	1574.89
740.60	1476.59
740.78	1587.18
740.96	1394.67
741.14	1544.17
741.32	1583.08
741.50	1482.73
741.68	1658.85
741.86	1583.08
742.04	1509.35
742.22	1501.16
742.40	1554.41
742.58	1486.83
742.76	1484.78
742.94	1603.56
743.12	1515.50
743.30	1521.64
743.48	1591.27
743.66	1501.16
743.84	1542.12
744.02	1578.98
744.20	1505.26
744.38	1462.25
744.56	1585.13
744.74	1648.61
744.92	1544.17
745.10	1556.46
745.28	1593.32
745.46	1587.18
745.64	1523.69
745.82	1535.98
746.00	1505.26
746.18	1531.88
746.36	1525.74
746.54	1560.55
746.72	1556.46
746.90	1505.26
747.08	1607.66
747.26	1431.53
747.44	1511.40
747.62	1515.50
747.80	1558.50
747.98	1558.50
748.15	1505.26
748.33	1595.37
748.51	1556.46
748.69	1611.75
748.87	1454.06
749.05	1556.46
749.23	1562.60
749.41	1599.46
749.59	1529.83
749.77	1566.70
749.95	1546.22
750.13	1449.96
750.31	1593.32
750.49	1484.78
750.67	1626.09
750.85	1673.19
751.03	1554.41
751.20	1636.33
751.38	1603.56
751.56	1519.59
751.74	1490.92
751.92	1531.88
752.10	1505.26
752.28	1552.36
752.46	1556.46
752.64	1458.15
752.82	1544.17
753.00	1568.74
753.18	1490.92
753.35	1384.43
753.53	1558.50
753.71	1546.22
753.89	1564.65
754.07	1552.36
754.25	1558.50
754.43	1578.98
754.61	1468.39
754.79	1552.36
754.97	1550.31
755.14	1560.55
755.32	1521.64
755.50	1437.67
755.68	1535.98
755.86	1503.21
756.04	1574.89
756.22	1449.96
756.40	1517.54
756.57	1607.66
756.75	1478.63
756.93	1619.94
757.11	1581.03
757.29	1517.54
757.47	1517.54
757.65	1550.31
757.82	1439.72
758.00	1478.63
758.18	1519.59
758.36	1482.73
758.54	1621.99
758.72	1484.78
758.90	1558.50
759.07	1548.26
759.25	1546.22
759.43	1533.93
759.61	1472.49
759.79	1890.28
759.97	1538.02
760.15	1509.35
760.32	1484.78
760.50	1546.22
760.68	1605.61
760.86	1464.30
761.04	1634.28
761.22	1558.50
761.39	1527.78
761.57	1488.87
761.75	1482.73
761.93	1576.94
762.11	1548.26
762.28	1527.78
762.46	1552.36
762.64	1624.04
762.82	1458.15
763.00	1529.83
763.18	1544.17
763.35	1542.12
763.53	1558.50
763.71	1574.89
763.89	1435.63
764.07	1564.65
764.24	1583.08
764.42	1468.39
764.60	1460.20
764.78	1527.78
764.96	1566.70
765.13	1652.71
765.31	1525.74
765.49	1646.57
765.67	1548.26
765.84	1568.74
766.02	1572.84
766.20	1523.69
766.38	1509.35
766.56	1613.80
766.73	1507.30
766.91	1507.30
767.09	1574.89
767.27	1613.80
767.44	1503.21
767.62	1560.55
767.80	1523.69
767.98	1503.21
768.15	1538.02
768.33	1558.50
768.51	1554.41
768.69	1546.22
768.87	1595.37
769.04	1542.12
769.22	1595.37
769.40	1603.56
769.58	1654.76
769.75	1488.87
769.93	1603.56
770.11	1583.08
770.28	1509.35
770.46	1570.79
770.64	1587.18
770.82	1456.11
770.99	1503.21
771.17	1490.92
771.35	1617.90
771.53	1529.83
771.70	1511.40
771.88	1597.42
772.06	1574.89
772.23	1495.02
772.41	1542.12
772.59	1527.78
772.77	1538.02
772.94	1513.45
773.12	1560.55
773.30	1523.69
773.47	1505.26
773.65	1499.11
773.83	1574.89
774.01	1472.49
774.18	1454.06
774.36	1505.26
774.54	1538.02
774.71	1540.07
774.89	1486.83
775.07	1511.40
775.24	1439.72
775.42	1486.83
775.60	1593.32
775.78	1443.82
775.95	1517.54
776.13	1480.68
776.31	1472.49
776.48	1544.17
776.66	1589.22
776.84	1511.40
777.01	1482.73
777.19	1486.83
777.37	1470.44
777.54	1533.93
777.72	1607.66
777.90	1507.30
778.07	1513.45
778.25	1656.81
778.43	1566.70
778.60	1497.07
778.78	1533.93
778.96	1521.64
779.13	1515.50
779.31	1662.95
779.49	1531.88
779.66	1505.26
779.84	1427.43
780.01	1525.74
780.19	1456.11
780.37	1585.13
780.54	1525.74
780.72	1540.07
780.90	1538.02
781.07	1511.40
781.25	1456.11
781.43	1591.27
781.60	1484.78
781.78	1636.33
781.95	1595.37
782.13	1495.02
782.31	1560.55
782.48	1447.91
782.66	1538.02
782.83	1591.27
783.01	1503.21
783.19	1595.37
783.36	1576.94
783.54	1542.12
783.72	1617.90
783.89	1572.84
784.07	1486.83
784.24	1558.50
784.42	1665.00
784.60	1546.22
784.77	1503.21
784.95	1476.59
785.12	1482.73
785.30	1605.61
785.47	1454.06
785.65	1478.63
785.83	1572.84
786.00	1513.45
786.18	1587.18
786.35	1445.87
786.53	1519.59
786.71	1585.13
786.88	1599.46
787.06	1550.31
787.23	1517.54
787.41	1503.21
787.58	1535.98
787.76	1535.98
787.94	1527.78
788.11	1499.11
788.29	1517.54
788.46	1505.26
788.64	1527.78
788.81	1515.50
788.99	1443.82
789.16	1490.92
789.34	1492.97
789.52	1513.45
789.69	1587.18
789.87	1501.16
790.04	1505.26
790.22	1554.41
790.39	1617.90
790.57	1421.29
790.74	1495.02
790.92	1576.94
791.09	1482.73
791.27	1517.54
791.44	1685.48
791.62	1601.51
791.79	1576.94
791.97	1558.50
792.15	1650.66
792.32	1576.94
792.50	1554.41
792.67	1632.23
792.85	1560.55
793.02	1568.74
793.20	1456.11
793.37	1468.39
793.55	1556.46
793.72	1478.63
793.90	1615.85
794.07	1486.83
794.25	1484.78
794.42	1581.03
794.60	1447.91
794.77	1566.70
794.95	1468.39
795.12	1552.36
795.30	1509.35
795.47	1421.29
795.65	1660.90
795.82	1538.02
796.00	1458.15
796.17	1511.40
796.34	1460.20
796.52	1572.84
796.69	1527.78
796.87	1617.90
797.04	1566.70
797.22	1501.16
797.39	1566.70
797.57	1617.90
797.74	1527.78
797.92	1589.22
798.09	1546.22
798.27	1507.30
798.44	1546.22
798.62	1435.63
798.79	1611.75
798.96	1583.08
799.14	1511.40
799.31	1621.99
799.49	1497.07
799.66	1521.64
799.84	1533.93
800.01	1460.20
800.19	1589.22
800.36	1415.15
800.53	1624.04
800.71	1636.33
800.88	1544.17
801.06	1570.79
801.23	1503.21
801.41	1513.45
801.58	1411.05
801.75	1544.17
801.93	1562.60
802.10	1581.03
802.28	1550.31
802.45	1484.78
802.63	1634.28
802.80	1605.61
802.97	1578.98
803.15	1572.84
803.32	1478.63
803.50	1499.11
803.67	1540.07
803.84	1454.06
804.02	1607.66
804.19	1466.35
804.37	1462.25
804.54	1406.95
804.71	1505.26
804.89	1531.88
805.06	1456.11
805.24	1486.83
805.41	1454.06
805.58	1441.77
805.76	1634.28
805.93	1521.64
806.10	1576.94
806.28	1558.50
806.45	1509.35
806.63	1642.47
806.80	1554.41
806.97	1581.03
807.15	1558.50
807.32	1550.31
807.49	1505.26
807.67	1513.45
807.84	1597.42
808.01	1554.41
808.19	1667.05
808.36	1650.66
808.54	1517.54
808.71	1470.44
808.88	1576.94
809.06	1544.17
809.23	1640.42
809.40	1470.44
809.58	1593.32
809.75	1566.70
809.92	1546.22
810.10	1687.53
810.27	1474.54
810.44	1533.93
810.62	1593.32
810.79	1554.41
810.96	1546.22
811.14	1507.30
811.31	1591.27
811.48	1554.41
811.66	1578.98
811.83	1517.54
812.00	1546.22
812.18	1511.40
812.35	1671.14
812.52	1587.18
812.69	1460.20
812.87	1497.07
813.04	1517.54
813.21	1527.78
813.39	1507.30
813.56	1478.63
813.73	1562.60
813.91	1411.05
814.08	1490.92
814.25	1605.61
814.42	1423.34
814.60	1552.36
814.77	1527.78
814.94	1566.70
815.12	1519.59
815.29	1597.42
815.46	1572.84
815.63	1517.54
815.81	1501.16
815.98	1552.36
816.15	1488.87
816.33	1546.22
816.50	1570.79
816.67	1523.69
816.84	1482.73
817.02	1472.49
817.19	1540.07
817.36	1550.31
817.53	1499.11
817.71	1572.84
817.88	1533.93
818.05	1482.73
818.22	1443.82
818.40	1687.53
818.57	1488.87
818.74	1636.33
818.91	1554.41
819.09	1513.45
819.26	1566.70
819.43	1484.78
819.60	1517.54
819.78	1585.13
819.95	1583.08
820.12	1484.78
820.29	1572.84
820.47	1564.65
820.64	1546.22
820.81	1470.44
820.98	1482.73
821.15	1476.59
821.33	1560.55
821.50	1490.92
821.67	1529.83
821.84	1519.59
822.02	1652.71
822.19	1540.07
822.36	1499.11
822.53	1507.30
822.70	1460.20
822.88	1497.07
823.05	1587.18
823.22	1556.46
823.39	1601.51
823.56	1402.86
823.74	1642.47
823.91	1456.11
824.08	1509.35
824.25	1490.92
824.42	1632.23
824.60	1456.11
824.77	1527.78
824.94	1540.07
825.11	1595.37
825.28	1447.91
825.45	1535.98
825.63	1560.55
825.80	1490.92
825.97	1476.59
826.14	1576.94
826.31	1464.30
826.48	1589.22
826.66	1585.13
826.83	1468.39
827.00	1511.40
827.17	1544.17
827.34	1478.63
827.51	1538.02
827.69	1505.26
827.86	1466.35
828.03	1531.88
828.20	1505.26
828.37	1482.73
828.54	1540.07
828.71	1521.64
828.89	1636.33
829.06	1497.07
829.23	1624.04
829.40	1415.15
829.57	1495.02
829.74	1574.89
829.91	1480.68
830.09	1439.72
830.26	1548.26
830.43	1597.42
830.60	1546.22
830.77	1548.26
830.94	1585.13
831.11	1593.32
831.28	1517.54
831.46	1531.88
831.63	1472.49
831.80	1603.56
831.97	1576.94
832.14	1552.36
832.31	1509.35
832.48	1470.44
832.65	1533.93
832.82	1535.98
832.99	1566.70
833.17	1460.20
833.34	1611.75
833.51	1583.08
833.68	1413.10
833.85	1535.98
834.02	1566.70
834.19	1435.63
834.36	1458.15
834.53	1628.14
834.70	1576.94
834.87	1587.18
835.04	1499.11
835.22	1490.92
835.39	1589.22
835.56	1427.43
835.73	1476.59
835.90	1589.22
836.07	1566.70
836.24	1591.27
836.41	1535.98
836.58	1480.68
836.75	1591.27
836.92	1542.12
837.09	1495.02
837.26	1583.08
837.43	1576.94
837.60	1452.01
837.77	1560.55
837.94	1542.12
838.12	1615.85
838.29	1615.85
838.46	1470.44
838.63	1519.59
838.80	1581.03
838.97	1548.26
839.14	1497.07
839.31	1501.16
839.48	1619.94
839.65	1495.02
839.82	1548.26
839.99	1546.22
840.16	1521.64
840.33	1462.25
840.50	1542.12
840.67	1482.73
840.84	1505.26
841.01	1593.32
841.18	1482.73
841.35	1476.59
841.52	1626.09
841.69	1634.28
841.86	1519.59
842.03	1542.12
842.20	1470.44
842.37	1476.59
842.54	1476.59
842.71	1505.26
842.88	1497.07
843.05	1560.55
843.22	1509.35
843.39	1515.50
843.56	1570.79
843.73	1511.40
843.90	1544.17
844.07	1458.15
844.24	1597.42
844.41	1535.98
844.58	1533.93
844.75	1578.98
844.92	1527.78
845.09	1562.60
845.26	1445.87
845.43	1558.50
845.60	1476.59
845.77	1589.22
845.94	1509.35
846.10	1587.18
846.27	1447.91
846.44	1464.30
846.61	1472.49
846.78	1566.70
846.95	1533.93
847.12	1560.55
847.29	1570.79
847.46	1472.49
847.63	1613.80
847.80	1458.15
847.97	1533.93
848.14	1628.14
848.31	1490.92
848.48	1476.59
848.65	1470.44
848.82	1554.41
848.98	1609.70
849.15	1589.22
849.32	1656.81
849.49	1599.46
849.66	1517.54
849.83	1572.84
850.00	1472.49
850.17	1546.22
850.34	1562.60
850.51	1554.41
850.68	1521.64
850.85	1617.90
851.01	1566.70
851.18	1595.37
851.35	1552.36
851.52	1556.46
851.69	1572.84
851.86	1538.02
852.03	1523.69
852.20	1601.51
852.37	1544.17
852.53	1505.26
852.70	1544.17
852.87	1501.16
853.04	1562.60
853.21	1468.39
853.38	1558.50
853.55	1523.69
853.72	1535.98
853.89	1535.98
854.05	1519.59
854.22	1560.55
854.39	1531.88
854.56	1523.69
854.73	1552.36
854.90	1507.30
855.07	1470.44
855.23	1470.44
855.40	1525.74
855.57	1470.44
855.74	1443.82
855.91	1648.61
856.08	1468.39
856.25	1468.39
856.41	1501.16
856.58	1521.64
856.75	1521.64
856.92	1464.30
857.09	1611.75
857.26	1474.54
857.42	1495.02
857.59	1585.13
857.76	1482.73
857.93	1562.60
858.10	1574.89
858.27	1447.91
858.43	1564.65
858.60	1515.50
858.77	1458.15
858.94	1466.35
859.11	1542.12
859.27	1449.96
859.44	1501.16
859.61	1538.02
859.78	1599.46
859.95	1521.64
860.12	1535.98
860.28	1624.04
860.45	1601.51
860.62	1497.07
860.79	1533.93
860.95	1570.79
861.12	1517.54
861.29	1478.63
861.46	1376.24
861.63	1542.12
861.79	1552.36
861.96	1525.74
862.13	1505.26
862.30	1544.17
862.47	1531.88
862.63	1423.34
862.80	1601.51
862.97	1558.50
863.14	1490.92
863.30	1552.36
863.47	1593.32
863.64	1597.42
863.81	1619.94
863.97	1554.41
864.14	1519.59
864.31	1535.98
864.48	1535.98
864.65	1535.98
864.81	1546.22
864.98	1550.31
865.15	1511.40
865.32	1570.79
865.48	1554.41
865.65	1630.18
865.82	1492.97
865.98	1513.45
866.15	1578.98
866.32	1480.68
866.49	1492.97
866.65	1597.42
866.82	1542.12
866.99	1521.64
867.16	1562.60
867.32	1480.68
867.49	1519.59
867.66	1562.60
867.83	1460.20
867.99	1472.49
868.16	1509.35
868.33	1447.91
868.49	1521.64
868.66	1478.63
868.83	1599.46
868.99	1613.80
869.16	1583.08
869.33	1558.50
869.50	1544.17
869.66	1538.02
869.83	1542.12
870.00	1499.11
870.16	1570.79
870.33	1529.83
870.50	1542.12
870.66	1554.41
870.83	1619.94
871.00	1441.77
871.17	1591.27
871.33	1525.74
871.50	1523.69
871.67	1517.54
871.83	1558.50
872.00	1595.37
872.17	1509.35
872.33	1585.13
872.50	1552.36
872.67	1509.35
872.83	1560.55
873.00	1501.16
873.17	1554.41
873.33	1654.76
873.50	1581.03
873.67	1519.59
873.83	1470.44
874.00	1495.02
874.16	1560.55
874.33	1540.07
874.50	1566.70
874.66	1521.64
874.83	1613.80
875.00	1628.14
875.16	1576.94
875.33	1486.83
875.50	1429.48
875.66	1550.31
875.83	1550.31
875.99	1556.46
876.16	1544.17
876.33	1556.46
876.49	1495.02
876.66	1429.48
876.83	1581.03
876.99	1517.54
877.16	1505.26
877.32	1538.02
877.49	1492.97
877.66	1529.83
877.82	1572.84
877.99	1595.37
878.15	1568.74
878.32	1486.83
878.49	1521.64
878.65	1474.54
878.82	1556.46
878.98	1490.92
879.15	1519.59
879.32	1486.83
879.48	1484.78
879.65	1527.78
879.81	1562.60
879.98	1562.60
880.15	1509.35
880.31	1533.93
880.48	1415.15
880.64	1497.07
880.81	1589.22
880.97	1578.98
881.14	1605.61
881.31	1478.63
881.47	1603.56
881.64	1589.22
881.80	1490.92
881.97	1499.11
882.13	1587.18
882.30	1439.72
882.47	1474.54
882.63	1507.30
882.80	1525.74
882.96	1544.17
883.13	1570.79
883.29	1443.82
883.46	1568.74
883.62	1619.94
883.79	1454.06
883.95	1544.17
884.12	1533.93
884.29	1560.55
884.45	1445.87
884.62	1564.65
884.78	1486.83
884.95	1632.23
885.11	1533.93
885.28	1484.78
885.44	1554.41
885.61	1572.84
885.77	1621.99
885.94	1552.36
886.10	1529.83
886.27	1591.27
886.43	1642.47
886.60	1581.03
886.76	1540.07
886.93	1486.83
887.09	1587.18
887.26	1552.36
887.42	1583.08
887.59	1572.84
887.75	1656.81
887.92	1533.93
888.08	1550.31
888.25	1646.57
888.41	1517.54
888.58	1527.78
888.74	1525.74
888.91	1443.82
>>>>>End Processed Spectral Data<<<<<
