SpectraSuite Data File
++++++++++++++++++++++++++++++++++++
Date: Tue May 03 12:55:48 CEST 2016
User: root
Dark Spectrum Present: No
Reference Spectrum Present: No
Number of Sampled Component Spectra: 1
Spectrometers: USB4C02835
Integration Time (usec): 100000 (USB4C02835)
Spectra Averaged: 1 (USB4C02835)
Boxcar Smoothing: 0 (USB4C02835)
Correct for Electrical Dark: No (USB4C02835)
Strobe/Lamp Enabled: No (USB4C02835)
Correct for Detector Non-linearity: No (USB4C02835)
Correct for Stray Light: No (USB4C02835)
Number of Pixels in Processed Spectrum: 3648
>>>>>Begin Processed Spectral Data<<<<<
177.47	1384.43
177.69	1384.43
177.91	1384.43
178.13	1368.04
178.36	1347.56
178.58	1439.72
178.80	1564.65
179.02	1472.49
179.24	1486.83
179.46	1533.93
179.68	1595.37
179.90	1546.22
180.13	1525.74
180.35	1525.74
180.57	1544.17
180.79	1568.74
181.01	1546.22
181.23	1529.83
181.45	1578.98
181.67	1538.02
181.90	1535.98
182.12	1519.59
182.34	1462.25
182.56	1656.81
182.78	1527.78
183.00	1533.93
183.22	1607.66
183.44	1509.35
183.66	1753.06
183.89	1609.70
184.11	1533.93
184.33	1566.70
184.55	1632.23
184.77	1587.18
184.99	1519.59
185.21	1513.45
185.43	1591.27
185.65	1583.08
185.87	1542.12
186.10	1574.89
186.32	1544.17
186.54	1566.70
186.76	1560.55
186.98	1523.69
187.20	1540.07
187.42	1499.11
187.64	1615.85
187.86	1546.22
188.08	1564.65
188.30	1492.97
188.52	1542.12
188.75	1587.18
188.97	1564.65
189.19	1521.64
189.41	1507.30
189.63	1521.64
189.85	1525.74
190.07	1492.97
190.29	1452.01
190.51	1564.65
190.73	1509.35
190.95	1556.46
191.17	1495.02
191.39	1509.35
191.61	1492.97
191.84	1552.36
192.06	1515.50
192.28	1462.25
192.50	1671.14
192.72	1609.70
192.94	1474.54
193.16	1589.22
193.38	1564.65
193.60	1507.30
193.82	1535.98
194.04	1599.46
194.26	1558.50
194.48	1570.79
194.70	1560.55
194.92	1515.50
195.14	1583.08
195.36	1560.55
195.58	1556.46
195.80	1550.31
196.02	1583.08
196.24	1515.50
196.46	1515.50
196.69	1570.79
196.91	1667.05
197.13	1517.54
197.35	1449.96
197.57	1634.28
197.79	1654.76
198.01	1521.64
198.23	1560.55
198.45	1511.40
198.67	1511.40
198.89	1554.41
199.11	1576.94
199.33	1464.30
199.55	1501.16
199.77	1550.31
199.99	1558.50
200.21	1548.26
200.43	1562.60
200.65	1470.44
200.87	1505.26
201.09	1566.70
201.31	1542.12
201.53	1564.65
201.75	1523.69
201.97	1538.02
202.19	1550.31
202.41	1578.98
202.63	1611.75
202.85	1556.46
203.07	1615.85
203.29	1583.08
203.51	1474.54
203.73	1513.45
203.95	1624.04
204.17	1595.37
204.39	1490.92
204.61	1505.26
204.83	1540.07
205.05	1542.12
205.27	1568.74
205.49	1589.22
205.71	1533.93
205.93	1470.44
206.15	1511.40
206.37	1572.84
206.59	1468.39
206.81	1505.26
207.03	1482.73
207.25	1460.20
207.47	1456.11
207.69	1505.26
207.91	1613.80
208.13	1556.46
208.34	1476.59
208.56	1511.40
208.78	1615.85
209.00	1490.92
209.22	1521.64
209.44	1546.22
209.66	1507.30
209.88	1515.50
210.10	1511.40
210.32	1511.40
210.54	1632.23
210.76	1501.16
210.98	1601.51
211.20	1540.07
211.42	1540.07
211.64	1533.93
211.86	1574.89
212.08	1591.27
212.30	1542.12
212.52	1468.39
212.74	1599.46
212.96	1556.46
213.17	1542.12
213.39	1527.78
213.61	1626.09
213.83	1560.55
214.05	1515.50
214.27	1624.04
214.49	1501.16
214.71	1535.98
214.93	1587.18
215.15	1507.30
215.37	1576.94
215.59	1488.87
215.81	1583.08
216.03	1652.71
216.24	1482.73
216.46	1544.17
216.68	1527.78
216.90	1544.17
217.12	1601.51
217.34	1533.93
217.56	1546.22
217.78	1654.76
218.00	1601.51
218.22	1550.31
218.44	1523.69
218.66	1611.75
218.87	1591.27
219.09	1576.94
219.31	1595.37
219.53	1603.56
219.75	1501.16
219.97	1585.13
220.19	1560.55
220.41	1525.74
220.63	1562.60
220.85	1599.46
221.06	1535.98
221.28	1630.18
221.50	1535.98
221.72	1531.88
221.94	1597.42
222.16	1525.74
222.38	1542.12
222.60	1654.76
222.82	1544.17
223.03	1546.22
223.25	1454.06
223.47	1583.08
223.69	1624.04
223.91	1574.89
224.13	1501.16
224.35	1525.74
224.57	1558.50
224.78	1576.94
225.00	1517.54
225.22	1574.89
225.44	1583.08
225.66	1538.02
225.88	1527.78
226.10	1615.85
226.32	1562.60
226.53	1599.46
226.75	1517.54
226.97	1523.69
227.19	1601.51
227.41	1482.73
227.63	1482.73
227.85	1511.40
228.06	1587.18
228.28	1538.02
228.50	1609.70
228.72	1468.39
228.94	1507.30
229.16	1460.20
229.37	1513.45
229.59	1550.31
229.81	1587.18
230.03	1497.07
230.25	1470.44
230.47	1495.02
230.69	1546.22
230.90	1621.99
231.12	1521.64
231.34	1484.78
231.56	1642.47
231.78	1484.78
232.00	1509.35
232.21	1548.26
232.43	1605.61
232.65	1413.10
232.87	1568.74
233.09	1495.02
233.30	1499.11
233.52	1540.07
233.74	1478.63
233.96	1554.41
234.18	1550.31
234.40	1535.98
234.61	1654.76
234.83	1476.59
235.05	1452.01
235.27	1703.91
235.49	1517.54
235.70	1583.08
235.92	1560.55
236.14	1503.21
236.36	1578.98
236.58	1490.92
236.79	1529.83
237.01	1546.22
237.23	1519.59
237.45	1646.57
237.67	1472.49
237.88	1599.46
238.10	1605.61
238.32	1513.45
238.54	1529.83
238.76	1495.02
238.97	1464.30
239.19	1458.15
239.41	1566.70
239.63	1595.37
239.85	1486.83
240.06	1490.92
240.28	1495.02
240.50	1550.31
240.72	1574.89
240.93	1548.26
241.15	1617.90
241.37	1527.78
241.59	1603.56
241.81	1603.56
242.02	1519.59
242.24	1554.41
242.46	1527.78
242.68	1484.78
242.89	1521.64
243.11	1576.94
243.33	1544.17
243.55	1511.40
243.76	1556.46
243.98	1595.37
244.20	1574.89
244.42	1550.31
244.64	1540.07
244.85	1413.10
245.07	1458.15
245.29	1646.57
245.51	1568.74
245.72	1576.94
245.94	1556.46
246.16	1519.59
246.38	1562.60
246.59	1484.78
246.81	1503.21
247.03	1478.63
247.24	1488.87
247.46	1497.07
247.68	1472.49
247.90	1581.03
248.11	1570.79
248.33	1556.46
248.55	1497.07
248.77	1544.17
248.98	1615.85
249.20	1603.56
249.42	1538.02
249.64	1523.69
249.85	1593.32
250.07	1501.16
250.29	1601.51
250.50	1671.14
250.72	1509.35
250.94	1587.18
251.16	1570.79
251.37	1607.66
251.59	1558.50
251.81	1644.52
252.02	1519.59
252.24	1533.93
252.46	1599.46
252.68	1486.83
252.89	1497.07
253.11	1495.02
253.33	1652.71
253.54	1607.66
253.76	1449.96
253.98	1443.82
254.20	1576.94
254.41	1542.12
254.63	1619.94
254.85	1458.15
255.06	1576.94
255.28	1533.93
255.50	1527.78
255.71	1521.64
255.93	1548.26
256.15	1519.59
256.36	1576.94
256.58	1632.23
256.80	1509.35
257.02	1599.46
257.23	1495.02
257.45	1488.87
257.67	1626.09
257.88	1529.83
258.10	1521.64
258.32	1542.12
258.53	1525.74
258.75	1552.36
258.97	1482.73
259.18	1538.02
259.40	1560.55
259.62	1605.61
259.83	1617.90
260.05	1644.52
260.27	1689.57
260.48	1554.41
260.70	1478.63
260.92	1531.88
261.13	1521.64
261.35	1589.22
261.57	1578.98
261.78	1484.78
262.00	1525.74
262.22	1507.30
262.43	1462.25
262.65	1513.45
262.86	1497.07
263.08	1576.94
263.30	1562.60
263.51	1454.06
263.73	1525.74
263.95	1554.41
264.16	1462.25
264.38	1529.83
264.60	1509.35
264.81	1576.94
265.03	1544.17
265.25	1599.46
265.46	1611.75
265.68	1587.18
265.89	1632.23
266.11	1409.00
266.33	1648.61
266.54	1538.02
266.76	1595.37
266.98	1601.51
267.19	1662.95
267.41	1607.66
267.62	1521.64
267.84	1458.15
268.06	1521.64
268.27	1556.46
268.49	1558.50
268.70	1570.79
268.92	1533.93
269.14	1533.93
269.35	1482.73
269.57	1597.42
269.79	1544.17
270.00	1472.49
270.22	1583.08
270.43	1513.45
270.65	1419.24
270.87	1509.35
271.08	1503.21
271.30	1519.59
271.51	1486.83
271.73	1566.70
271.95	1611.75
272.16	1486.83
272.38	1626.09
272.59	1544.17
272.81	1517.54
273.02	1564.65
273.24	1566.70
273.46	1578.98
273.67	1435.63
273.89	1456.11
274.10	1503.21
274.32	1568.74
274.54	1550.31
274.75	1535.98
274.97	1531.88
275.18	1628.14
275.40	1505.26
275.61	1554.41
275.83	1587.18
276.05	1505.26
276.26	1492.97
276.48	1568.74
276.69	1529.83
276.91	1507.30
277.12	1595.37
277.34	1605.61
277.55	1675.24
277.77	1490.92
277.99	1521.64
278.20	1492.97
278.42	1540.07
278.63	1562.60
278.85	1599.46
279.06	1542.12
279.28	1564.65
279.49	1540.07
279.71	1587.18
279.93	1593.32
280.14	1517.54
280.36	1550.31
280.57	1658.85
280.79	1531.88
281.00	1509.35
281.22	1538.02
281.43	1640.42
281.65	1443.82
281.86	1525.74
282.08	1628.14
282.29	1621.99
282.51	1525.74
282.73	1556.46
282.94	1400.81
283.16	1591.27
283.37	1705.96
283.59	1521.64
283.80	1558.50
284.02	1605.61
284.23	1574.89
284.45	1472.49
284.66	1548.26
284.88	1505.26
285.09	1509.35
285.31	1583.08
285.52	1544.17
285.74	1478.63
285.95	1568.74
286.17	1599.46
286.38	1603.56
286.60	1540.07
286.81	1484.78
287.03	1511.40
287.24	1556.46
287.46	1515.50
287.67	1544.17
287.89	1607.66
288.10	1562.60
288.32	1544.17
288.53	1628.14
288.75	1492.97
288.96	1527.78
289.18	1611.75
289.39	1525.74
289.61	1660.90
289.82	1607.66
290.04	1595.37
290.25	1480.68
290.47	1521.64
290.68	1527.78
290.90	1624.04
291.11	1464.30
291.33	1566.70
291.54	1517.54
291.76	1521.64
291.97	1595.37
292.18	1595.37
292.40	1456.11
292.61	1509.35
292.83	1554.41
293.04	1591.27
293.26	1523.69
293.47	1542.12
293.69	1478.63
293.90	1509.35
294.12	1605.61
294.33	1533.93
294.55	1476.59
294.76	1533.93
294.97	1533.93
295.19	1712.10
295.40	1509.35
295.62	1560.55
295.83	1603.56
296.05	1482.73
296.26	1574.89
296.48	1478.63
296.69	1509.35
296.90	1488.87
297.12	1568.74
297.33	1601.51
297.55	1529.83
297.76	1531.88
297.98	1492.97
298.19	1572.84
298.41	1544.17
298.62	1515.50
298.83	1628.14
299.05	1540.07
299.26	1531.88
299.48	1523.69
299.69	1552.36
299.90	1583.08
300.12	1474.54
300.33	1501.16
300.55	1538.02
300.76	1593.32
300.98	1503.21
301.19	1503.21
301.40	1554.41
301.62	1529.83
301.83	1562.60
302.05	1574.89
302.26	1519.59
302.47	1511.40
302.69	1486.83
302.90	1509.35
303.12	1433.58
303.33	1581.03
303.54	1572.84
303.76	1574.89
303.97	1490.92
304.19	1624.04
304.40	1452.01
304.61	1556.46
304.83	1628.14
305.04	1583.08
305.26	1603.56
305.47	1492.97
305.68	1556.46
305.90	1507.30
306.11	1558.50
306.33	1521.64
306.54	1515.50
306.75	1458.15
306.97	1404.91
307.18	1478.63
307.39	1636.33
307.61	1583.08
307.82	1566.70
308.04	1550.31
308.25	1484.78
308.46	1544.17
308.68	1544.17
308.89	1542.12
309.10	1525.74
309.32	1585.13
309.53	1507.30
309.74	1535.98
309.96	1495.02
310.17	1607.66
310.39	1468.39
310.60	1570.79
310.81	1593.32
311.03	1462.25
311.24	1589.22
311.45	1484.78
311.67	1607.66
311.88	1568.74
312.09	1546.22
312.31	1472.49
312.52	1501.16
312.73	1529.83
312.95	1458.15
313.16	1511.40
313.37	1585.13
313.59	1538.02
313.80	1587.18
314.01	1521.64
314.23	1552.36
314.44	1517.54
314.65	1474.54
314.87	1519.59
315.08	1488.87
315.29	1587.18
315.51	1478.63
315.72	1456.11
315.93	1578.98
316.15	1529.83
316.36	1544.17
316.57	1533.93
316.79	1501.16
317.00	1509.35
317.21	1556.46
317.43	1484.78
317.64	1441.77
317.85	1523.69
318.07	1544.17
318.28	1701.86
318.49	1800.16
318.70	1796.07
318.92	1757.16
319.13	1648.61
319.34	1759.21
319.56	1636.33
319.77	1603.56
319.98	1626.09
320.20	1619.94
320.41	1609.70
320.62	1599.46
320.83	1535.98
321.05	1660.90
321.26	1554.41
321.47	1519.59
321.69	1589.22
321.90	1505.26
322.11	1562.60
322.32	1480.68
322.54	1593.32
322.75	1568.74
322.96	1609.70
323.18	1488.87
323.39	1445.87
323.60	1521.64
323.81	1517.54
324.03	1513.45
324.24	1527.78
324.45	1548.26
324.66	1529.83
324.88	1519.59
325.09	1636.33
325.30	1583.08
325.52	1552.36
325.73	1531.88
325.94	1523.69
326.15	1458.15
326.37	1593.32
326.58	1560.55
326.79	1615.85
327.00	1486.83
327.22	1632.23
327.43	1523.69
327.64	1447.91
327.85	1601.51
328.07	1583.08
328.28	1564.65
328.49	1509.35
328.70	1576.94
328.92	1617.90
329.13	1486.83
329.34	1550.31
329.55	1585.13
329.76	1533.93
329.98	1525.74
330.19	1619.94
330.40	1591.27
330.61	1525.74
330.83	1484.78
331.04	1492.97
331.25	1503.21
331.46	1542.12
331.68	1468.39
331.89	1544.17
332.10	1521.64
332.31	1488.87
332.52	1533.93
332.74	1554.41
332.95	1445.87
333.16	1585.13
333.37	1568.74
333.58	1425.39
333.80	1554.41
334.01	1521.64
334.22	1540.07
334.43	1529.83
334.64	1501.16
334.86	1538.02
335.07	1550.31
335.28	1589.22
335.49	1525.74
335.70	1581.03
335.92	1591.27
336.13	1601.51
336.34	1523.69
336.55	1605.61
336.76	1566.70
336.98	1437.67
337.19	1540.07
337.40	1521.64
337.61	1675.24
337.82	1589.22
338.04	1591.27
338.25	1474.54
338.46	1554.41
338.67	1562.60
338.88	1449.96
339.09	1578.98
339.31	1492.97
339.52	1503.21
339.73	1527.78
339.94	1423.34
340.15	1626.09
340.36	1505.26
340.58	1538.02
340.79	1542.12
341.00	1562.60
341.21	1468.39
341.42	1669.09
341.63	1488.87
341.85	1658.85
342.06	1568.74
342.27	1470.44
342.48	1619.94
342.69	1452.01
342.90	1628.14
343.12	1607.66
343.33	1595.37
343.54	1509.35
343.75	1570.79
343.96	1607.66
344.17	1464.30
344.38	1650.66
344.60	1533.93
344.81	1462.25
345.02	1484.78
345.23	1654.76
345.44	1615.85
345.65	1578.98
345.86	1568.74
346.07	1572.84
346.29	1525.74
346.50	1564.65
346.71	1517.54
346.92	1558.50
347.13	1636.33
347.34	1619.94
347.55	1509.35
347.76	1601.51
347.98	1531.88
348.19	1529.83
348.40	1542.12
348.61	1544.17
348.82	1556.46
349.03	1597.42
349.24	1466.35
349.45	1632.23
349.66	1452.01
349.88	1572.84
350.09	1562.60
350.30	1658.85
350.51	1578.98
350.72	1607.66
350.93	1517.54
351.14	1476.59
351.35	1550.31
351.56	1533.93
351.77	1484.78
351.99	1607.66
352.20	1697.77
352.41	1578.98
352.62	1400.81
352.83	1509.35
353.04	1492.97
353.25	1468.39
353.46	1558.50
353.67	1593.32
353.88	1513.45
354.09	1558.50
354.30	1644.52
354.52	1576.94
354.73	1488.87
354.94	1525.74
355.15	1476.59
355.36	1566.70
355.57	1495.02
355.78	1603.56
355.99	1533.93
356.20	1501.16
356.41	1576.94
356.62	1581.03
356.83	1513.45
357.04	1509.35
357.25	1495.02
357.46	1562.60
357.68	1476.59
357.89	1445.87
358.10	1605.61
358.31	1558.50
358.52	1484.78
358.73	1511.40
358.94	1495.02
359.15	1519.59
359.36	1603.56
359.57	1572.84
359.78	1478.63
359.99	1605.61
360.20	1503.21
360.41	1558.50
360.62	1503.21
360.83	1632.23
361.04	1505.26
361.25	1544.17
361.46	1677.29
361.67	1603.56
361.88	1642.47
362.09	1593.32
362.30	1607.66
362.51	1513.45
362.72	1476.59
362.93	1617.90
363.14	1638.38
363.35	1531.88
363.56	1525.74
363.78	1560.55
363.99	1626.09
364.20	1523.69
364.41	1533.93
364.62	1605.61
364.83	1425.39
365.04	1538.02
365.25	1566.70
365.46	1697.77
365.67	1531.88
365.88	1511.40
366.09	1558.50
366.30	1550.31
366.51	1548.26
366.72	1427.43
366.93	1556.46
367.14	1525.74
367.35	1656.81
367.56	1581.03
367.77	1617.90
367.98	1576.94
368.18	1501.16
368.39	1529.83
368.60	1425.39
368.81	1564.65
369.02	1505.26
369.23	1581.03
369.44	1427.43
369.65	1509.35
369.86	1574.89
370.07	1585.13
370.28	1507.30
370.49	1533.93
370.70	1642.47
370.91	1517.54
371.12	1429.48
371.33	1548.26
371.54	1462.25
371.75	1595.37
371.96	1509.35
372.17	1478.63
372.38	1472.49
372.59	1564.65
372.80	1511.40
373.01	1525.74
373.22	1466.35
373.43	1570.79
373.64	1495.02
373.85	1589.22
374.06	1570.79
374.26	1531.88
374.47	1611.75
374.68	1544.17
374.89	1632.23
375.10	1550.31
375.31	1609.70
375.52	1521.64
375.73	1511.40
375.94	1472.49
376.15	1624.04
376.36	1533.93
376.57	1470.44
376.78	1542.12
376.99	1548.26
377.20	1527.78
377.40	1490.92
377.61	1652.71
377.82	1562.60
378.03	1558.50
378.24	1503.21
378.45	1593.32
378.66	1583.08
378.87	1531.88
379.08	1492.97
379.29	1564.65
379.50	1593.32
379.71	1499.11
379.91	1484.78
380.12	1509.35
380.33	1515.50
380.54	1509.35
380.75	1513.45
380.96	1503.21
381.17	1578.98
381.38	1560.55
381.59	1583.08
381.80	1617.90
382.00	1660.90
382.21	1552.36
382.42	1656.81
382.63	1718.25
382.84	1585.13
383.05	1597.42
383.26	1654.76
383.47	1558.50
383.68	1640.42
383.88	1540.07
384.09	1525.74
384.30	1656.81
384.51	1624.04
384.72	1497.07
384.93	1509.35
385.14	1613.80
385.35	1560.55
385.55	1480.68
385.76	1550.31
385.97	1527.78
386.18	1495.02
386.39	1519.59
386.60	1548.26
386.81	1509.35
387.02	1517.54
387.22	1566.70
387.43	1642.47
387.64	1685.48
387.85	1796.07
388.06	3028.95
388.27	7120.79
388.48	10528.61
388.68	12590.91
388.89	13782.83
389.10	12889.92
389.31	10108.77
389.52	8916.86
389.73	8019.85
389.93	7352.21
390.14	6840.22
390.35	6274.98
390.56	5488.56
390.77	4761.53
390.98	3616.71
391.18	2807.77
391.39	2234.33
391.60	1740.77
391.81	1771.49
392.02	1693.67
392.23	1669.09
392.43	1556.46
392.64	1642.47
392.85	1583.08
393.06	1617.90
393.27	1593.32
393.47	1466.35
393.68	1525.74
393.89	1503.21
394.10	1587.18
394.31	1515.50
394.52	1554.41
394.72	1511.40
394.93	1550.31
395.14	1517.54
395.35	1535.98
395.56	1472.49
395.76	1585.13
395.97	1640.42
396.18	1769.44
396.39	1746.92
396.60	1935.33
396.80	1732.58
397.01	1705.96
397.22	1691.62
397.43	1675.24
397.64	1624.04
397.84	1699.81
398.05	1656.81
398.26	1628.14
398.47	1624.04
398.67	1613.80
398.88	1509.35
399.09	1646.57
399.30	1556.46
399.51	1560.55
399.71	1527.78
399.92	1624.04
400.13	1527.78
400.34	1499.11
400.54	1546.22
400.75	1601.51
400.96	1511.40
401.17	1636.33
401.37	1570.79
401.58	1544.17
401.79	1587.18
402.00	1765.35
402.21	1961.95
402.41	1916.90
402.62	1990.63
402.83	1920.99
403.04	1828.84
403.24	1947.62
403.45	1677.29
403.66	1712.10
403.87	1724.39
404.07	1716.20
404.28	1742.82
404.49	1820.64
404.70	1607.66
404.90	1624.04
405.11	1603.56
405.32	1564.65
405.52	1511.40
405.73	1591.27
405.94	1443.82
406.15	1499.11
406.35	1605.61
406.56	1552.36
406.77	1572.84
406.98	1589.22
407.18	1472.49
407.39	1574.89
407.60	1548.26
407.80	1626.09
408.01	1554.41
408.22	1624.04
408.43	1560.55
408.63	1576.94
408.84	1613.80
409.05	1581.03
409.25	1550.31
409.46	1495.02
409.67	1509.35
409.88	1456.11
410.08	1562.60
410.29	1548.26
410.50	1566.70
410.70	1548.26
410.91	1474.54
411.12	1562.60
411.32	1597.42
411.53	1531.88
411.74	1593.32
411.95	1648.61
412.15	1615.85
412.36	1667.05
412.57	1665.00
412.77	1599.46
412.98	1583.08
413.19	1564.65
413.39	1587.18
413.60	1566.70
413.81	1574.89
414.01	1556.46
414.22	1587.18
414.43	1648.61
414.63	1609.70
414.84	1587.18
415.05	1544.17
415.25	1452.01
415.46	1552.36
415.67	1562.60
415.87	1544.17
416.08	1511.40
416.29	1478.63
416.49	1492.97
416.70	1462.25
416.91	1519.59
417.11	1482.73
417.32	1593.32
417.53	1538.02
417.73	1591.27
417.94	1644.52
418.15	1605.61
418.35	1529.83
418.56	1566.70
418.77	1671.14
418.97	1552.36
419.18	1538.02
419.38	1472.49
419.59	1527.78
419.80	1626.09
420.00	1527.78
420.21	1554.41
420.42	1527.78
420.62	1591.27
420.83	1466.35
421.04	1529.83
421.24	1482.73
421.45	1488.87
421.65	1535.98
421.86	1570.79
422.07	1568.74
422.27	1535.98
422.48	1585.13
422.69	1503.21
422.89	1544.17
423.10	1558.50
423.30	1517.54
423.51	1552.36
423.72	1578.98
423.92	1585.13
424.13	1529.83
424.33	1525.74
424.54	1531.88
424.75	1550.31
424.95	1601.51
425.16	1568.74
425.36	1523.69
425.57	1513.45
425.78	1603.56
425.98	1609.70
426.19	1503.21
426.39	1552.36
426.60	1505.26
426.81	1517.54
427.01	1488.87
427.22	1497.07
427.42	1456.11
427.63	1540.07
427.83	1558.50
428.04	1652.71
428.25	1570.79
428.45	1581.03
428.66	1556.46
428.86	1550.31
429.07	1417.19
429.28	1517.54
429.48	1474.54
429.69	1492.97
429.89	1525.74
430.10	1447.91
430.30	1523.69
430.51	1517.54
430.71	1554.41
430.92	1562.60
431.13	1519.59
431.33	1572.84
431.54	1578.98
431.74	1667.05
431.95	1607.66
432.15	1497.07
432.36	1515.50
432.56	1544.17
432.77	1591.27
432.98	1712.10
433.18	1574.89
433.39	1531.88
433.59	1521.64
433.80	1644.52
434.00	1644.52
434.21	1538.02
434.41	1517.54
434.62	1675.24
434.82	1513.45
435.03	1583.08
435.23	1521.64
435.44	1464.30
435.64	1505.26
435.85	1544.17
436.06	1544.17
436.26	1425.39
436.47	1476.59
436.67	1540.07
436.88	1460.20
437.08	1617.90
437.29	1603.56
437.49	1591.27
437.70	1576.94
437.90	1564.65
438.11	1593.32
438.31	1615.85
438.52	1771.49
438.72	1677.29
438.93	1710.05
439.13	1570.79
439.34	1726.44
439.54	1603.56
439.75	1591.27
439.95	1591.27
440.16	1550.31
440.36	1515.50
440.57	1603.56
440.77	1564.65
440.98	1566.70
441.18	1656.81
441.39	1521.64
441.59	1533.93
441.80	1656.81
442.00	1492.97
442.21	1585.13
442.41	1529.83
442.62	1570.79
442.82	1509.35
443.02	1529.83
443.23	1548.26
443.43	1597.42
443.64	1617.90
443.84	1460.20
444.05	1574.89
444.25	1562.60
444.46	1615.85
444.66	1628.14
444.87	1626.09
445.07	1492.97
445.28	1564.65
445.48	1619.94
445.69	1621.99
445.89	1646.57
446.09	1607.66
446.30	2004.96
446.50	3065.81
446.71	4489.15
446.91	5375.92
447.12	5984.16
447.32	5605.29
447.53	4628.41
447.73	4163.52
447.93	3690.44
448.14	3358.67
448.34	3137.49
448.55	2850.77
448.75	2973.65
448.96	2779.09
449.16	2508.76
449.36	2324.44
449.57	2080.74
449.77	1724.39
449.98	1703.91
450.18	1658.85
450.39	1638.38
450.59	1632.23
450.79	1568.74
451.00	1558.50
451.20	1558.50
451.41	1576.94
451.61	1576.94
451.81	1599.46
452.02	1540.07
452.22	1509.35
452.43	1570.79
452.63	1478.63
452.84	1538.02
453.04	1585.13
453.24	1533.93
453.45	1513.45
453.65	1519.59
453.86	1501.16
454.06	1593.32
454.26	1527.78
454.47	1529.83
454.67	1603.56
454.87	1595.37
455.08	1574.89
455.28	1634.28
455.49	1638.38
455.69	1511.40
455.89	1662.95
456.10	1546.22
456.30	1482.73
456.51	1597.42
456.71	1566.70
456.91	1533.93
457.12	1540.07
457.32	1585.13
457.52	1544.17
457.73	1609.70
457.93	1525.74
458.14	1460.20
458.34	1531.88
458.54	1527.78
458.75	1613.80
458.95	1560.55
459.15	1626.09
459.36	1517.54
459.56	1505.26
459.76	1605.61
459.97	1466.35
460.17	1542.12
460.37	1601.51
460.58	1509.35
460.78	1535.98
460.99	1480.68
461.19	1576.94
461.39	1554.41
461.60	1568.74
461.80	1603.56
462.00	1513.45
462.21	1611.75
462.41	1464.30
462.61	1501.16
462.82	1439.72
463.02	1564.65
463.22	1486.83
463.43	1595.37
463.63	1552.36
463.83	1589.22
464.04	1525.74
464.24	1478.63
464.44	1472.49
464.64	1605.61
464.85	1597.42
465.05	1621.99
465.25	1462.25
465.46	1511.40
465.66	1636.33
465.86	1546.22
466.07	1544.17
466.27	1533.93
466.47	1441.77
466.68	1464.30
466.88	1599.46
467.08	1593.32
467.29	1548.26
467.49	1597.42
467.69	1501.16
467.89	1517.54
468.10	1535.98
468.30	1578.98
468.50	1554.41
468.71	1550.31
468.91	1480.68
469.11	1603.56
469.31	1550.31
469.52	1523.69
469.72	1632.23
469.92	1652.71
470.13	1521.64
470.33	1519.59
470.53	1740.77
470.73	2084.83
470.94	2385.88
471.14	2412.51
471.34	2635.74
471.54	2506.71
471.75	2174.94
471.95	2088.93
472.15	1916.90
472.36	1966.05
472.56	2007.01
472.76	1937.38
472.96	1902.56
473.17	1834.98
473.37	1773.54
473.57	1681.38
473.77	1644.52
473.98	1542.12
474.18	1531.88
474.38	1615.85
474.58	1527.78
474.79	1589.22
474.99	1507.30
475.19	1603.56
475.39	1554.41
475.60	1556.46
475.80	1447.91
476.00	1570.79
476.20	1509.35
476.41	1517.54
476.61	1605.61
476.81	1550.31
477.01	1503.21
477.21	1693.67
477.42	1619.94
477.62	1425.39
477.82	1538.02
478.02	1513.45
478.23	1503.21
478.43	1531.88
478.63	1540.07
478.83	1556.46
479.03	1452.01
479.24	1593.32
479.44	1611.75
479.64	1503.21
479.84	1515.50
480.04	1497.07
480.25	1521.64
480.45	1507.30
480.65	1513.45
480.85	1566.70
481.06	1521.64
481.26	1521.64
481.46	1583.08
481.66	1583.08
481.86	1560.55
482.06	1607.66
482.27	1513.45
482.47	1505.26
482.67	1611.75
482.87	1548.26
483.07	1576.94
483.28	1454.06
483.48	1566.70
483.68	1458.15
483.88	1497.07
484.08	1495.02
484.29	1511.40
484.49	1509.35
484.69	1529.83
484.89	1495.02
485.09	1611.75
485.29	1576.94
485.50	1626.09
485.70	1533.93
485.90	1564.65
486.10	1550.31
486.30	1593.32
486.50	1607.66
486.71	1603.56
486.91	1572.84
487.11	1527.78
487.31	1505.26
487.51	1552.36
487.71	1540.07
487.91	1433.58
488.12	1523.69
488.32	1392.62
488.52	1527.78
488.72	1511.40
488.92	1566.70
489.12	1621.99
489.32	1617.90
489.53	1566.70
489.73	1527.78
489.93	1658.85
490.13	1538.02
490.33	1445.87
490.53	1626.09
490.73	1591.27
490.94	1495.02
491.14	1585.13
491.34	1724.39
491.54	2174.94
491.74	2713.56
491.94	3123.15
492.14	3373.00
492.34	3291.09
492.54	2715.61
492.75	2494.43
492.95	2394.08
493.15	2281.44
493.35	2093.02
493.55	2072.54
493.75	2062.30
493.95	2068.45
494.15	1873.89
494.35	1816.55
494.56	1665.00
494.76	1646.57
494.96	1615.85
495.16	1615.85
495.36	1548.26
495.56	1589.22
495.76	1490.92
495.96	1529.83
496.16	1466.35
496.36	1732.58
496.56	1513.45
496.77	1478.63
496.97	1562.60
497.17	1593.32
497.37	1519.59
497.57	1576.94
497.77	1603.56
497.97	1509.35
498.17	1533.93
498.37	1538.02
498.57	1556.46
498.77	1597.42
498.97	1568.74
499.17	1595.37
499.38	1611.75
499.58	1611.75
499.78	1642.47
499.98	1595.37
500.18	1548.26
500.38	1568.74
500.58	1779.68
500.78	2699.22
500.98	5148.59
501.18	6877.08
501.38	8284.03
501.58	8853.37
501.78	8087.43
501.98	6152.10
502.18	5351.34
502.38	4616.12
502.58	4396.99
502.78	3893.19
502.98	3778.50
503.18	3647.43
503.38	3346.38
503.59	2918.36
503.79	2815.96
503.99	2457.56
504.19	2281.44
504.39	2203.61
504.59	2164.70
504.79	2035.68
504.99	1861.60
505.19	1875.94
505.39	1693.67
505.59	1816.55
505.79	1783.78
505.99	1726.44
506.19	1605.61
506.39	1665.00
506.59	1560.55
506.79	1669.09
506.99	1654.76
507.19	1568.74
507.39	1505.26
507.59	1531.88
507.79	1486.83
507.99	1497.07
508.19	1544.17
508.39	1462.25
508.59	1511.40
508.79	1587.18
508.99	1650.66
509.19	1490.92
509.39	1628.14
509.59	1578.98
509.79	1542.12
509.99	1521.64
510.19	1603.56
510.39	1607.66
510.59	1548.26
510.79	1525.74
510.99	1544.17
511.19	1568.74
511.39	1593.32
511.59	1535.98
511.79	1619.94
511.99	1576.94
512.19	1583.08
512.38	1445.87
512.58	1525.74
512.78	1564.65
512.98	1603.56
513.18	1607.66
513.38	1464.30
513.58	1583.08
513.78	1501.16
513.98	1552.36
514.18	1519.59
514.38	1562.60
514.58	1605.61
514.78	1550.31
514.98	1529.83
515.18	1525.74
515.38	1452.01
515.58	1609.70
515.78	1542.12
515.98	1495.02
516.18	1574.89
516.38	1478.63
516.57	1480.68
516.77	1566.70
516.97	1568.74
517.17	1517.54
517.37	1558.50
517.57	1671.14
517.77	1544.17
517.97	1495.02
518.17	1601.51
518.37	1546.22
518.57	1509.35
518.77	1482.73
518.97	1572.84
519.16	1599.46
519.36	1566.70
519.56	1599.46
519.76	1607.66
519.96	1501.16
520.16	1654.76
520.36	1517.54
520.56	1572.84
520.76	1519.59
520.96	1578.98
521.16	1593.32
521.35	1513.45
521.55	1648.61
521.75	1578.98
521.95	1478.63
522.15	1486.83
522.35	1501.16
522.55	1472.49
522.75	1556.46
522.95	1497.07
523.14	1486.83
523.34	1615.85
523.54	1607.66
523.74	1599.46
523.94	1566.70
524.14	1464.30
524.34	1478.63
524.54	1628.14
524.73	1525.74
524.93	1568.74
525.13	1468.39
525.33	1531.88
525.53	1701.86
525.73	1492.97
525.93	1533.93
526.13	1472.49
526.32	1546.22
526.52	1581.03
526.72	1566.70
526.92	1478.63
527.12	1597.42
527.32	1466.35
527.52	1523.69
527.71	1587.18
527.91	1595.37
528.11	1488.87
528.31	1497.07
528.51	1478.63
528.71	1562.60
528.90	1548.26
529.10	1574.89
529.30	1671.14
529.50	1406.95
529.70	1591.27
529.90	1495.02
530.09	1615.85
530.29	1529.83
530.49	1466.35
530.69	1611.75
530.89	1509.35
531.09	1531.88
531.28	1503.21
531.48	1601.51
531.68	1529.83
531.88	1540.07
532.08	1587.18
532.28	1511.40
532.47	1521.64
532.67	1630.18
532.87	1611.75
533.07	1499.11
533.27	1552.36
533.46	1542.12
533.66	1517.54
533.86	1578.98
534.06	1562.60
534.26	1611.75
534.45	1603.56
534.65	1677.29
534.85	1583.08
535.05	1558.50
535.25	1595.37
535.44	1468.39
535.64	1626.09
535.84	1525.74
536.04	1529.83
536.24	1558.50
536.43	1509.35
536.63	1650.66
536.83	1503.21
537.03	1507.30
537.22	1433.58
537.42	1517.54
537.62	1560.55
537.82	1591.27
538.02	1617.90
538.21	1593.32
538.41	1583.08
538.61	1560.55
538.81	1505.26
539.00	1669.09
539.20	1519.59
539.40	1470.44
539.60	1589.22
539.79	1595.37
539.99	1445.87
540.19	1447.91
540.39	1509.35
540.58	1523.69
540.78	1560.55
540.98	1515.50
541.18	1544.17
541.37	1568.74
541.57	1552.36
541.77	1585.13
541.97	1511.40
542.16	1454.06
542.36	1601.51
542.56	1562.60
542.76	1636.33
542.95	1626.09
543.15	1535.98
543.35	1560.55
543.54	1521.64
543.74	1472.49
543.94	1624.04
544.14	1476.59
544.33	1501.16
544.53	1464.30
544.73	1540.07
544.93	1464.30
545.12	1542.12
545.32	1517.54
545.52	1544.17
545.71	1437.67
545.91	1548.26
546.11	1628.14
546.30	1529.83
546.50	1574.89
546.70	1621.99
546.90	1597.42
547.09	1460.20
547.29	1488.87
547.49	1540.07
547.68	1597.42
547.88	1603.56
548.08	1513.45
548.27	1904.61
548.47	1535.98
548.67	1495.02
548.87	1603.56
549.06	1474.54
549.26	1533.93
549.46	1474.54
549.65	1578.98
549.85	1587.18
550.05	1587.18
550.24	1413.10
550.44	1554.41
550.64	1470.44
550.83	1564.65
551.03	1574.89
551.23	1533.93
551.42	1570.79
551.62	1478.63
551.82	1603.56
552.01	1554.41
552.21	1521.64
552.41	1550.31
552.60	1533.93
552.80	1507.30
553.00	1497.07
553.19	1597.42
553.39	1550.31
553.59	1501.16
553.78	1581.03
553.98	1624.04
554.17	1425.39
554.37	1501.16
554.57	1626.09
554.76	1427.43
554.96	1437.67
555.16	1511.40
555.35	1533.93
555.55	1538.02
555.75	1570.79
555.94	1574.89
556.14	1474.54
556.33	1568.74
556.53	1513.45
556.73	1507.30
556.92	1548.26
557.12	1581.03
557.32	1593.32
557.51	1613.80
557.71	1613.80
557.90	1626.09
558.10	1632.23
558.30	1511.40
558.49	1464.30
558.69	1611.75
558.88	1519.59
559.08	1568.74
559.28	1548.26
559.47	1568.74
559.67	1562.60
559.86	1642.47
560.06	1656.81
560.26	1587.18
560.45	1499.11
560.65	1578.98
560.84	1585.13
561.04	1449.96
561.24	1542.12
561.43	1478.63
561.63	1566.70
561.82	1552.36
562.02	1566.70
562.22	1587.18
562.41	1550.31
562.61	1495.02
562.80	1529.83
563.00	1703.91
563.19	1562.60
563.39	1533.93
563.59	1550.31
563.78	1497.07
563.98	1492.97
564.17	1519.59
564.37	1454.06
564.56	1570.79
564.76	1519.59
564.96	1558.50
565.15	1566.70
565.35	1632.23
565.54	1499.11
565.74	1574.89
565.93	1544.17
566.13	1550.31
566.32	1566.70
566.52	1554.41
566.71	1585.13
566.91	1669.09
567.11	1556.46
567.30	1576.94
567.50	1613.80
567.69	1558.50
567.89	1478.63
568.08	1556.46
568.28	1574.89
568.47	1474.54
568.67	1533.93
568.86	1562.60
569.06	1593.32
569.25	1509.35
569.45	1507.30
569.64	1486.83
569.84	1527.78
570.04	1583.08
570.23	1535.98
570.43	1527.78
570.62	1583.08
570.82	1554.41
571.01	1544.17
571.21	1492.97
571.40	1544.17
571.60	1607.66
571.79	1568.74
571.99	1605.61
572.18	1515.50
572.38	1615.85
572.57	1507.30
572.77	1621.99
572.96	1677.29
573.16	1558.50
573.35	1511.40
573.55	1658.85
573.74	1609.70
573.94	1550.31
574.13	1552.36
574.33	1624.04
574.52	1558.50
574.71	1521.64
574.91	1595.37
575.10	1527.78
575.30	1517.54
575.49	1470.44
575.69	1535.98
575.88	1599.46
576.08	1589.22
576.27	1634.28
576.47	1634.28
576.66	1628.14
576.86	1738.73
577.05	1597.42
577.25	1646.57
577.44	1701.86
577.64	1462.25
577.83	1544.17
578.02	1560.55
578.22	1613.80
578.41	1656.81
578.61	1570.79
578.80	1490.92
579.00	1564.65
579.19	1574.89
579.39	1585.13
579.58	1638.38
579.77	1652.71
579.97	1644.52
580.16	1652.71
580.36	1789.92
580.55	1642.47
580.75	1562.60
580.94	1642.47
581.13	1636.33
581.33	1673.19
581.52	1640.42
581.72	1728.49
581.91	1720.29
582.11	1511.40
582.30	1652.71
582.49	1687.53
582.69	1605.61
582.88	1560.55
583.08	1558.50
583.27	1667.05
583.47	1621.99
583.66	1560.55
583.85	1478.63
584.05	1587.18
584.24	1560.55
584.44	1640.42
584.63	1574.89
584.82	1699.81
585.02	1728.49
585.21	1757.16
585.41	1769.44
585.60	1720.29
585.79	1753.06
585.99	1773.54
586.18	1783.78
586.37	2150.37
586.57	3121.10
586.76	9486.19
586.96	27756.12
587.15	43992.42
587.34	54394.05
587.54	61660.24
587.73	59872.37
587.93	43713.89
588.12	32630.29
588.31	26093.17
588.51	22025.90
588.70	19932.88
588.89	18437.86
589.09	16946.94
589.28	15142.68
589.47	13209.40
589.67	11061.08
589.86	8892.28
590.06	6662.04
590.25	5277.62
590.44	3809.22
590.64	2914.26
590.83	2428.89
591.02	2047.97
591.22	1900.52
591.41	1744.87
591.60	1681.38
591.80	1720.29
591.99	1650.66
592.18	1665.00
592.38	1650.66
592.57	1621.99
592.76	1648.61
592.96	1634.28
593.15	1505.26
593.34	1603.56
593.54	1628.14
593.73	1669.09
593.92	1697.77
594.12	1632.23
594.31	1652.71
594.50	1644.52
594.70	1689.57
594.89	1726.44
595.08	1550.31
595.28	1617.90
595.47	1759.21
595.66	1626.09
595.86	1490.92
596.05	1576.94
596.24	1603.56
596.43	1705.96
596.63	1599.46
596.82	1632.23
597.01	1585.13
597.21	1605.61
597.40	1589.22
597.59	1621.99
597.79	1523.69
597.98	1607.66
598.17	1683.43
598.36	1597.42
598.56	1568.74
598.75	1548.26
598.94	1542.12
599.14	1589.22
599.33	1562.60
599.52	1564.65
599.71	1546.22
599.91	1652.71
600.10	1624.04
600.29	1503.21
600.48	1619.94
600.68	1478.63
600.87	1517.54
601.06	1490.92
601.26	1550.31
601.45	1624.04
601.64	1484.78
601.83	1642.47
602.03	1546.22
602.22	1519.59
602.41	1581.03
602.60	1591.27
602.80	1540.07
602.99	1560.55
603.18	1558.50
603.37	1595.37
603.57	1615.85
603.76	1630.18
603.95	1648.61
604.14	1570.79
604.34	1611.75
604.53	1538.02
604.72	1591.27
604.91	1591.27
605.10	1546.22
605.30	1556.46
605.49	1605.61
605.68	1544.17
605.87	1681.38
606.07	1556.46
606.26	1523.69
606.45	1535.98
606.64	1634.28
606.84	1566.70
607.03	1591.27
607.22	1560.55
607.41	1501.16
607.60	1603.56
607.80	1632.23
607.99	1607.66
608.18	1548.26
608.37	1550.31
608.56	1548.26
608.76	1650.66
608.95	1701.86
609.14	1634.28
609.33	1621.99
609.52	1644.52
609.72	1671.14
609.91	1728.49
610.10	1572.84
610.29	1658.85
610.48	1638.38
610.68	1615.85
610.87	1521.64
611.06	1628.14
611.25	1548.26
611.44	1632.23
611.63	1585.13
611.83	1597.42
612.02	1558.50
612.21	1599.46
612.40	1593.32
612.59	1503.21
612.79	1478.63
612.98	1525.74
613.17	1642.47
613.36	1546.22
613.55	1650.66
613.74	1656.81
613.93	1748.97
614.13	1699.81
614.32	1775.59
614.51	1804.26
614.70	1716.20
614.89	1615.85
615.08	1607.66
615.28	1877.99
615.47	1497.07
615.66	1656.81
615.85	1605.61
616.04	1714.15
616.23	1636.33
616.42	1632.23
616.62	1667.05
616.81	1624.04
617.00	1550.31
617.19	1587.18
617.38	1621.99
617.57	1607.66
617.76	1562.60
617.95	1576.94
618.15	1644.52
618.34	1650.66
618.53	1552.36
618.72	1564.65
618.91	1650.66
619.10	1624.04
619.29	1542.12
619.48	1558.50
619.68	1511.40
619.87	1490.92
620.06	1474.54
620.25	1603.56
620.44	1558.50
620.63	1540.07
620.82	1517.54
621.01	1544.17
621.20	1503.21
621.39	1593.32
621.59	1603.56
621.78	1583.08
621.97	1560.55
622.16	1611.75
622.35	1540.07
622.54	1603.56
622.73	1613.80
622.92	1478.63
623.11	1556.46
623.30	1566.70
623.49	1546.22
623.68	1562.60
623.88	1517.54
624.07	1546.22
624.26	1507.30
624.45	1466.35
624.64	1513.45
624.83	1535.98
625.02	1492.97
625.21	1460.20
625.40	1564.65
625.59	1640.42
625.78	1587.18
625.97	1644.52
626.16	1609.70
626.35	1601.51
626.54	1581.03
626.74	1708.01
626.93	1558.50
627.12	1505.26
627.31	1581.03
627.50	1535.98
627.69	1619.94
627.88	1509.35
628.07	1585.13
628.26	1480.68
628.45	1540.07
628.64	1527.78
628.83	1583.08
629.02	1476.59
629.21	1492.97
629.40	1613.80
629.59	1548.26
629.78	1552.36
629.97	1558.50
630.16	1650.66
630.35	1523.69
630.54	1523.69
630.73	1521.64
630.92	1609.70
631.11	1529.83
631.30	1640.42
631.49	1558.50
631.68	1544.17
631.87	1540.07
632.06	1495.02
632.25	1646.57
632.44	1613.80
632.63	1550.31
632.82	1529.83
633.01	1591.27
633.20	1607.66
633.39	1656.81
633.58	1646.57
633.77	1611.75
633.96	1531.88
634.15	1574.89
634.34	1613.80
634.53	1595.37
634.72	1552.36
634.91	1484.78
635.10	1599.46
635.29	1544.17
635.48	1509.35
635.67	1515.50
635.86	1484.78
636.05	1589.22
636.24	1538.02
636.43	1562.60
636.62	1552.36
636.81	1449.96
637.00	1607.66
637.19	1527.78
637.38	1519.59
637.57	1488.87
637.76	1665.00
637.95	1603.56
638.14	1644.52
638.33	1634.28
638.52	1677.29
638.71	1597.42
638.89	1525.74
639.08	1685.48
639.27	1615.85
639.46	1624.04
639.65	1976.29
639.84	2037.73
640.03	2275.29
640.22	2095.07
640.41	2164.70
640.60	1966.05
640.79	1867.75
640.98	1773.54
641.17	1724.39
641.36	1712.10
641.55	1705.96
641.74	1687.53
641.92	1648.61
642.11	1578.98
642.30	1591.27
642.49	1538.02
642.68	1548.26
642.87	1613.80
643.06	1574.89
643.25	1499.11
643.44	1497.07
643.63	1509.35
643.82	1603.56
644.00	1460.20
644.19	1558.50
644.38	1515.50
644.57	1585.13
644.76	1574.89
644.95	1488.87
645.14	1497.07
645.33	1486.83
645.52	1597.42
645.71	1480.68
645.89	1507.30
646.08	1558.50
646.27	1525.74
646.46	1660.90
646.65	1507.30
646.84	1589.22
647.03	1558.50
647.22	1533.93
647.40	1587.18
647.59	1499.11
647.78	1445.87
647.97	1515.50
648.16	1583.08
648.35	1601.51
648.54	1603.56
648.73	1574.89
648.91	1583.08
649.10	1574.89
649.29	1488.87
649.48	1568.74
649.67	1554.41
649.86	1574.89
650.05	1533.93
650.23	1703.91
650.42	1667.05
650.61	1720.29
650.80	1785.83
650.99	1783.78
651.18	1685.48
651.36	1628.14
651.55	1593.32
651.74	1626.09
651.93	1538.02
652.12	1509.35
652.31	1611.75
652.49	1566.70
652.68	1562.60
652.87	1613.80
653.06	1589.22
653.25	1667.05
653.44	1626.09
653.62	1617.90
653.81	1599.46
654.00	1568.74
654.19	1583.08
654.38	1609.70
654.56	1538.02
654.75	1486.83
654.94	1552.36
655.13	1578.98
655.32	1501.16
655.51	1550.31
655.69	1578.98
655.88	1601.51
656.07	1507.30
656.26	1519.59
656.45	1447.91
656.63	1550.31
656.82	1597.42
657.01	1538.02
657.20	1611.75
657.38	1617.90
657.57	1535.98
657.76	1402.86
657.95	1505.26
658.14	1468.39
658.32	1509.35
658.51	1527.78
658.70	1540.07
658.89	1564.65
659.08	1535.98
659.26	1656.81
659.45	1613.80
659.64	1656.81
659.83	1507.30
660.01	1755.11
660.20	1601.51
660.39	1648.61
660.58	1431.53
660.76	1574.89
660.95	1517.54
661.14	1533.93
661.33	1427.43
661.51	1552.36
661.70	1540.07
661.89	1570.79
662.08	1538.02
662.26	1497.07
662.45	1511.40
662.64	1650.66
662.83	1552.36
663.01	1515.50
663.20	1542.12
663.39	1568.74
663.58	1529.83
663.76	1478.63
663.95	1542.12
664.14	1554.41
664.32	1517.54
664.51	1492.97
664.70	1509.35
664.89	1550.31
665.07	1466.35
665.26	1617.90
665.45	1492.97
665.64	1548.26
665.82	1599.46
666.01	1583.08
666.20	1519.59
666.38	1587.18
666.57	1650.66
666.76	1812.45
666.95	2949.08
667.13	7595.92
667.32	15820.56
667.51	20186.83
667.69	23531.16
667.88	25476.73
668.07	22494.89
668.25	15597.33
668.44	12480.32
668.63	10227.56
668.81	8701.82
669.00	7841.67
669.19	7032.72
669.38	6272.93
669.56	5623.72
669.75	4845.49
669.94	4063.17
670.12	3413.96
670.31	2828.24
670.50	2467.80
670.68	2158.56
670.87	1914.85
671.06	1806.31
671.24	1669.09
671.43	1695.72
671.62	1701.86
671.80	1636.33
671.99	1619.94
672.18	1591.27
672.36	1648.61
672.55	1576.94
672.74	1544.17
672.92	1521.64
673.11	1642.47
673.29	1529.83
673.48	1632.23
673.67	1560.55
673.85	1603.56
674.04	1482.73
674.23	1529.83
674.41	1654.76
674.60	1525.74
674.79	1445.87
674.97	1492.97
675.16	1624.04
675.34	1601.51
675.53	1538.02
675.72	1626.09
675.90	1554.41
676.09	1558.50
676.28	1570.79
676.46	1507.30
676.65	1605.61
676.83	1476.59
677.02	1552.36
677.21	1585.13
677.39	1603.56
677.58	1538.02
677.77	1513.45
677.95	1558.50
678.14	1509.35
678.32	1480.68
678.51	1542.12
678.70	1648.61
678.88	1480.68
679.07	1529.83
679.25	1503.21
679.44	1576.94
679.63	1513.45
679.81	1595.37
680.00	1578.98
680.18	1560.55
680.37	1583.08
680.55	1513.45
680.74	1478.63
680.93	1445.87
681.11	1542.12
681.30	1458.15
681.48	1564.65
681.67	1554.41
681.85	1589.22
682.04	1507.30
682.23	1583.08
682.41	1552.36
682.60	1507.30
682.78	1607.66
682.97	1480.68
683.15	1560.55
683.34	1552.36
683.53	1587.18
683.71	1472.49
683.90	1644.52
684.08	1531.88
684.27	1535.98
684.45	1583.08
684.64	1599.46
684.82	1492.97
685.01	1501.16
685.19	1538.02
685.38	1595.37
685.57	1568.74
685.75	1560.55
685.94	1546.22
686.12	1478.63
686.31	1531.88
686.49	1591.27
686.68	1468.39
686.86	1548.26
687.05	1554.41
687.23	1658.85
687.42	1488.87
687.60	1468.39
687.79	1599.46
687.97	1564.65
688.16	1574.89
688.34	1656.81
688.53	1464.30
688.71	1570.79
688.90	1570.79
689.08	1523.69
689.27	1462.25
689.45	1624.04
689.64	1585.13
689.82	1572.84
690.01	1542.12
690.19	1603.56
690.38	1556.46
690.56	1564.65
690.75	1462.25
690.93	1581.03
691.12	1550.31
691.30	1517.54
691.49	1523.69
691.67	1476.59
691.86	1638.38
692.04	1517.54
692.23	1507.30
692.41	1572.84
692.60	1701.86
692.78	1773.54
692.97	1660.90
693.15	1693.67
693.34	1611.75
693.52	1593.32
693.71	1542.12
693.89	1601.51
694.08	1480.68
694.26	1517.54
694.44	1599.46
694.63	1624.04
694.81	1550.31
695.00	1464.30
695.18	1613.80
695.37	1656.81
695.55	1497.07
695.74	1566.70
695.92	1509.35
696.10	1576.94
696.29	1484.78
696.47	1509.35
696.66	1429.48
696.84	1535.98
697.03	1478.63
697.21	1646.57
697.40	2050.02
697.58	1587.18
697.76	1521.64
697.95	1488.87
698.13	1535.98
698.32	1445.87
698.50	1515.50
698.68	1566.70
698.87	1603.56
699.05	1605.61
699.24	1574.89
699.42	1542.12
699.61	1572.84
699.79	1566.70
699.97	1538.02
700.16	1495.02
700.34	1519.59
700.53	1501.16
700.71	1689.57
700.89	1572.84
701.08	1554.41
701.26	1497.07
701.45	1988.58
701.63	1458.15
701.81	1513.45
702.00	1517.54
702.18	1517.54
702.37	1505.26
702.55	1646.57
702.73	1695.72
702.92	1634.28
703.10	1824.74
703.28	1775.59
703.47	1755.11
703.65	1728.49
703.84	1730.53
704.02	1521.64
704.20	1705.96
704.39	1587.18
704.57	1562.60
704.75	1673.19
704.94	1693.67
705.12	1578.98
705.30	1546.22
705.49	1902.56
705.67	2934.74
705.86	7509.90
706.04	14651.17
706.22	18677.48
706.41	21833.39
706.59	23070.37
706.77	20856.51
706.96	14864.16
707.14	11929.42
707.32	9903.98
707.51	8523.65
707.69	7430.03
707.87	6672.28
708.06	5875.62
708.24	4601.79
708.42	3567.56
708.61	2965.46
708.79	2299.87
708.97	2095.07
709.16	1875.94
709.34	1701.86
709.52	1634.28
709.71	1642.47
709.89	1597.42
710.07	1550.31
710.26	1562.60
710.44	1538.02
710.62	1609.70
710.80	1574.89
710.99	1574.89
711.17	1624.04
711.35	1535.98
711.54	1480.68
711.72	1619.94
711.90	1591.27
712.09	1550.31
712.27	1570.79
712.45	1529.83
712.63	1542.12
712.82	1521.64
713.00	1517.54
713.18	1564.65
713.37	1538.02
713.55	1564.65
713.73	1587.18
713.91	1560.55
714.10	1495.02
714.28	1484.78
714.46	1562.60
714.65	1597.42
714.83	1605.61
715.01	1540.07
715.19	1591.27
715.38	1535.98
715.56	1556.46
715.74	1558.50
715.92	1478.63
716.11	1513.45
716.29	1503.21
716.47	1550.31
716.65	1527.78
716.84	1392.62
717.02	1583.08
717.20	1490.92
717.38	1558.50
717.57	1570.79
717.75	1542.12
717.93	1546.22
718.11	1529.83
718.30	1456.11
718.48	1507.30
718.66	1523.69
718.84	1658.85
719.03	1540.07
719.21	1464.30
719.39	1611.75
719.57	1599.46
719.75	1525.74
719.94	1533.93
720.12	1546.22
720.30	1601.51
720.48	1546.22
720.67	1456.11
720.85	1507.30
721.03	1568.74
721.21	1507.30
721.39	1603.56
721.58	1546.22
721.76	1546.22
721.94	1613.80
722.12	1601.51
722.30	1591.27
722.49	1505.26
722.67	1544.17
722.85	1560.55
723.03	1480.68
723.21	1488.87
723.40	1591.27
723.58	1609.70
723.76	1566.70
723.94	1583.08
724.12	1677.29
724.30	1652.71
724.49	1615.85
724.67	1576.94
724.85	1667.05
725.03	1550.31
725.21	1578.98
725.40	1597.42
725.58	1521.64
725.76	1658.85
725.94	1552.36
726.12	1509.35
726.30	1546.22
726.49	1509.35
726.67	1562.60
726.85	1624.04
727.03	1589.22
727.21	1751.01
727.39	2142.18
727.57	3401.68
727.76	4384.70
727.94	4835.25
728.12	5228.46
728.30	5164.98
728.48	4442.04
728.66	3448.78
728.84	3233.74
729.03	2938.84
729.21	2682.84
729.39	2230.24
729.57	1996.77
729.75	1877.99
729.93	1841.12
730.11	1535.98
730.30	1626.09
730.48	1585.13
730.66	1736.68
730.84	1624.04
731.02	1517.54
731.20	1531.88
731.38	1542.12
731.56	1435.63
731.74	1552.36
731.93	1478.63
732.11	1562.60
732.29	1626.09
732.47	1619.94
732.65	1562.60
732.83	1601.51
733.01	1572.84
733.19	1521.64
733.37	1560.55
733.56	1544.17
733.74	1495.02
733.92	1583.08
734.10	1546.22
734.28	1564.65
734.46	1501.16
734.64	1552.36
734.82	1583.08
735.00	1466.35
735.18	1511.40
735.36	1538.02
735.54	1583.08
735.73	1488.87
735.91	1458.15
736.09	1533.93
736.27	1609.70
736.45	1574.89
736.63	1521.64
736.81	1476.59
736.99	1552.36
737.17	1591.27
737.35	1458.15
737.53	1531.88
737.71	1550.31
737.89	1603.56
738.07	1509.35
738.25	1480.68
738.43	1556.46
738.61	1533.93
738.80	1503.21
738.98	1460.20
739.16	1511.40
739.34	1562.60
739.52	1628.14
739.70	1492.97
739.88	1521.64
740.06	1505.26
740.24	1501.16
740.42	1589.22
740.60	1511.40
740.78	1533.93
740.96	1466.35
741.14	1499.11
741.32	1542.12
741.50	1511.40
741.68	1687.53
741.86	1562.60
742.04	1499.11
742.22	1437.67
742.40	1527.78
742.58	1533.93
742.76	1437.67
742.94	1556.46
743.12	1521.64
743.30	1554.41
743.48	1576.94
743.66	1570.79
743.84	1576.94
744.02	1554.41
744.20	1587.18
744.38	1542.12
744.56	1490.92
744.74	1591.27
744.92	1529.83
745.10	1617.90
745.28	1593.32
745.46	1587.18
745.64	1570.79
745.82	1681.38
746.00	1474.54
746.18	1568.74
746.36	1607.66
746.54	1533.93
746.72	1492.97
746.90	1550.31
747.08	1714.15
747.26	1515.50
747.44	1535.98
747.62	1531.88
747.80	1550.31
747.98	1597.42
748.15	1570.79
748.33	1607.66
748.51	1562.60
748.69	1554.41
748.87	1558.50
749.05	1517.54
749.23	1540.07
749.41	1605.61
749.59	1564.65
749.77	1587.18
749.95	1529.83
750.13	1529.83
750.31	1566.70
750.49	1550.31
750.67	1527.78
750.85	1634.28
751.03	1519.59
751.20	1701.86
751.38	1470.44
751.56	1515.50
751.74	1499.11
751.92	1593.32
752.10	1515.50
752.28	1513.45
752.46	1568.74
752.64	1497.07
752.82	1521.64
753.00	1619.94
753.18	1548.26
753.35	1535.98
753.53	1554.41
753.71	1517.54
753.89	1607.66
754.07	1558.50
754.25	1566.70
754.43	1540.07
754.61	1509.35
754.79	1540.07
754.97	1615.85
755.14	1609.70
755.32	1486.83
755.50	1538.02
755.68	1544.17
755.86	1464.30
756.04	1492.97
756.22	1443.82
756.40	1613.80
756.57	1691.62
756.75	1519.59
756.93	1542.12
757.11	1558.50
757.29	1535.98
757.47	1429.48
757.65	1488.87
757.82	1419.24
758.00	1495.02
758.18	1484.78
758.36	1523.69
758.54	1574.89
758.72	1449.96
758.90	1574.89
759.07	1533.93
759.25	1527.78
759.43	1478.63
759.61	1511.40
759.79	1964.00
759.97	1587.18
760.15	1568.74
760.32	1542.12
760.50	1642.47
760.68	1601.51
760.86	1421.29
761.04	1601.51
761.22	1603.56
761.39	1535.98
761.57	1574.89
761.75	1542.12
761.93	1578.98
762.11	1560.55
762.28	1597.42
762.46	1531.88
762.64	1583.08
762.82	1470.44
763.00	1562.60
763.18	1529.83
763.35	1519.59
763.53	1552.36
763.71	1558.50
763.89	1568.74
764.07	1517.54
764.24	1550.31
764.42	1603.56
764.60	1497.07
764.78	1585.13
764.96	1574.89
765.13	1556.46
765.31	1507.30
765.49	1554.41
765.67	1499.11
765.84	1484.78
766.02	1486.83
766.20	1521.64
766.38	1583.08
766.56	1556.46
766.73	1564.65
766.91	1478.63
767.09	1470.44
767.27	1523.69
767.44	1441.77
767.62	1544.17
767.80	1505.26
767.98	1490.92
768.15	1591.27
768.33	1589.22
768.51	1509.35
768.69	1560.55
768.87	1609.70
769.04	1581.03
769.22	1533.93
769.40	1587.18
769.58	1656.81
769.75	1515.50
769.93	1640.42
770.11	1509.35
770.28	1515.50
770.46	1492.97
770.64	1634.28
770.82	1503.21
770.99	1503.21
771.17	1611.75
771.35	1521.64
771.53	1576.94
771.70	1566.70
771.88	1572.84
772.06	1515.50
772.23	1507.30
772.41	1542.12
772.59	1574.89
772.77	1492.97
772.94	1570.79
773.12	1587.18
773.30	1488.87
773.47	1535.98
773.65	1525.74
773.83	1560.55
774.01	1480.68
774.18	1472.49
774.36	1484.78
774.54	1492.97
774.71	1517.54
774.89	1480.68
775.07	1552.36
775.24	1566.70
775.42	1529.83
775.60	1615.85
775.78	1468.39
775.95	1458.15
776.13	1441.77
776.31	1411.05
776.48	1562.60
776.66	1552.36
776.84	1517.54
777.01	1513.45
777.19	1449.96
777.37	1509.35
777.54	1568.74
777.72	1603.56
777.90	1589.22
778.07	1466.35
778.25	1665.00
778.43	1517.54
778.60	1576.94
778.78	1576.94
778.96	1595.37
779.13	1509.35
779.31	1572.84
779.49	1593.32
779.66	1611.75
779.84	1570.79
780.01	1501.16
780.19	1488.87
780.37	1556.46
780.54	1501.16
780.72	1454.06
780.90	1501.16
781.07	1533.93
781.25	1535.98
781.43	1591.27
781.60	1492.97
781.78	1621.99
781.95	1535.98
782.13	1492.97
782.31	1535.98
782.48	1447.91
782.66	1509.35
782.83	1617.90
783.01	1544.17
783.19	1607.66
783.36	1560.55
783.54	1419.24
783.72	1538.02
783.89	1492.97
784.07	1542.12
784.24	1554.41
784.42	1558.50
784.60	1464.30
784.77	1560.55
784.95	1413.10
785.12	1519.59
785.30	1509.35
785.47	1484.78
785.65	1486.83
785.83	1531.88
786.00	1478.63
786.18	1544.17
786.35	1548.26
786.53	1538.02
786.71	1578.98
786.88	1525.74
787.06	1488.87
787.23	1497.07
787.41	1533.93
787.58	1497.07
787.76	1482.73
787.94	1585.13
788.11	1566.70
788.29	1443.82
788.46	1505.26
788.64	1454.06
788.81	1492.97
788.99	1501.16
789.16	1492.97
789.34	1486.83
789.52	1484.78
789.69	1482.73
789.87	1396.71
790.04	1511.40
790.22	1591.27
790.39	1609.70
790.57	1499.11
790.74	1591.27
790.92	1527.78
791.09	1472.49
791.27	1603.56
791.44	1646.57
791.62	1548.26
791.79	1535.98
791.97	1511.40
792.15	1593.32
792.32	1568.74
792.50	1529.83
792.67	1521.64
792.85	1630.18
793.02	1480.68
793.20	1509.35
793.37	1472.49
793.55	1527.78
793.72	1507.30
793.90	1525.74
794.07	1595.37
794.25	1480.68
794.42	1550.31
794.60	1529.83
794.77	1552.36
794.95	1609.70
795.12	1576.94
795.30	1626.09
795.47	1517.54
795.65	1716.20
795.82	1566.70
796.00	1527.78
796.17	1521.64
796.34	1503.21
796.52	1505.26
796.69	1505.26
796.87	1574.89
797.04	1529.83
797.22	1566.70
797.39	1533.93
797.57	1601.51
797.74	1560.55
797.92	1521.64
798.09	1495.02
798.27	1509.35
798.44	1525.74
798.62	1517.54
798.79	1568.74
798.96	1552.36
799.14	1535.98
799.31	1624.04
799.49	1554.41
799.66	1488.87
799.84	1484.78
800.01	1511.40
800.19	1525.74
800.36	1515.50
800.53	1587.18
800.71	1593.32
800.88	1503.21
801.06	1497.07
801.23	1490.92
801.41	1501.16
801.58	1583.08
801.75	1468.39
801.93	1527.78
802.10	1546.22
802.28	1468.39
802.45	1564.65
802.63	1478.63
802.80	1562.60
802.97	1501.16
803.15	1462.25
803.32	1540.07
803.50	1523.69
803.67	1558.50
803.84	1535.98
804.02	1552.36
804.19	1404.91
804.37	1447.91
804.54	1452.01
804.71	1572.84
804.89	1538.02
805.06	1466.35
805.24	1468.39
805.41	1472.49
805.58	1568.74
805.76	1595.37
805.93	1523.69
806.10	1572.84
806.28	1544.17
806.45	1435.63
806.63	1533.93
806.80	1578.98
806.97	1538.02
807.15	1607.66
807.32	1619.94
807.49	1566.70
807.67	1535.98
807.84	1490.92
808.01	1439.72
808.19	1646.57
808.36	1656.81
808.54	1468.39
808.71	1531.88
808.88	1562.60
809.06	1538.02
809.23	1656.81
809.40	1435.63
809.58	1568.74
809.75	1495.02
809.92	1492.97
810.10	1609.70
810.27	1558.50
810.44	1542.12
810.62	1513.45
810.79	1517.54
810.96	1501.16
811.14	1435.63
811.31	1482.73
811.48	1562.60
811.66	1550.31
811.83	1591.27
812.00	1601.51
812.18	1556.46
812.35	1611.75
812.52	1538.02
812.69	1562.60
812.87	1456.11
813.04	1531.88
813.21	1607.66
813.39	1495.02
813.56	1507.30
813.73	1599.46
813.91	1544.17
814.08	1538.02
814.25	1529.83
814.42	1413.10
814.60	1540.07
814.77	1595.37
814.94	1552.36
815.12	1533.93
815.29	1576.94
815.46	1490.92
815.63	1478.63
815.81	1558.50
815.98	1507.30
816.15	1533.93
816.33	1495.02
816.50	1578.98
816.67	1558.50
816.84	1452.01
817.02	1521.64
817.19	1492.97
817.36	1550.31
817.53	1601.51
817.71	1427.43
817.88	1574.89
818.05	1478.63
818.22	1538.02
818.40	1636.33
818.57	1499.11
818.74	1642.47
818.91	1486.83
819.09	1568.74
819.26	1591.27
819.43	1497.07
819.60	1550.31
819.78	1595.37
819.95	1617.90
820.12	1488.87
820.29	1601.51
820.47	1540.07
820.64	1523.69
820.81	1484.78
820.98	1531.88
821.15	1552.36
821.33	1581.03
821.50	1468.39
821.67	1542.12
821.84	1490.92
822.02	1490.92
822.19	1542.12
822.36	1554.41
822.53	1476.59
822.70	1509.35
822.88	1454.06
823.05	1650.66
823.22	1531.88
823.39	1529.83
823.56	1529.83
823.74	1617.90
823.91	1540.07
824.08	1535.98
824.25	1476.59
824.42	1716.20
824.60	1472.49
824.77	1429.48
824.94	1454.06
825.11	1519.59
825.28	1511.40
825.45	1523.69
825.63	1507.30
825.80	1505.26
825.97	1544.17
826.14	1554.41
826.31	1501.16
826.48	1554.41
826.66	1464.30
826.83	1533.93
827.00	1550.31
827.17	1501.16
827.34	1513.45
827.51	1517.54
827.69	1564.65
827.86	1454.06
828.03	1570.79
828.20	1480.68
828.37	1449.96
828.54	1542.12
828.71	1505.26
828.89	1558.50
829.06	1578.98
829.23	1546.22
829.40	1429.48
829.57	1540.07
829.74	1574.89
829.91	1527.78
830.09	1449.96
830.26	1562.60
830.43	1466.35
830.60	1548.26
830.77	1544.17
830.94	1548.26
831.11	1605.61
831.28	1447.91
831.46	1556.46
831.63	1525.74
831.80	1589.22
831.97	1501.16
832.14	1544.17
832.31	1472.49
832.48	1525.74
832.65	1591.27
832.82	1574.89
832.99	1566.70
833.17	1499.11
833.34	1667.05
833.51	1568.74
833.68	1476.59
833.85	1583.08
834.02	1492.97
834.19	1501.16
834.36	1521.64
834.53	1538.02
834.70	1660.90
834.87	1562.60
835.04	1574.89
835.22	1490.92
835.39	1468.39
835.56	1445.87
835.73	1593.32
835.90	1619.94
836.07	1533.93
836.24	1546.22
836.41	1525.74
836.58	1509.35
836.75	1593.32
836.92	1574.89
837.09	1499.11
837.26	1578.98
837.43	1511.40
837.60	1660.90
837.77	1507.30
837.94	1560.55
838.12	1558.50
838.29	1515.50
838.46	1515.50
838.63	1468.39
838.80	1601.51
838.97	1501.16
839.14	1521.64
839.31	1591.27
839.48	1515.50
839.65	1419.24
839.82	1617.90
839.99	1533.93
840.16	1560.55
840.33	1456.11
840.50	1472.49
840.67	1507.30
840.84	1544.17
841.01	1544.17
841.18	1591.27
841.35	1464.30
841.52	1593.32
841.69	1542.12
841.86	1564.65
842.03	1560.55
842.20	1523.69
842.37	1533.93
842.54	1593.32
842.71	1589.22
842.88	1509.35
843.05	1609.70
843.22	1525.74
843.39	1583.08
843.56	1486.83
843.73	1517.54
843.90	1560.55
844.07	1546.22
844.24	1644.52
844.41	1634.28
844.58	1544.17
844.75	1599.46
844.92	1542.12
845.09	1562.60
845.26	1482.73
845.43	1531.88
845.60	1519.59
845.77	1601.51
845.94	1570.79
846.10	1476.59
846.27	1445.87
846.44	1503.21
846.61	1503.21
846.78	1548.26
846.95	1617.90
847.12	1558.50
847.29	1499.11
847.46	1505.26
847.63	1558.50
847.80	1429.48
847.97	1525.74
848.14	1640.42
848.31	1517.54
848.48	1492.97
848.65	1581.03
848.82	1560.55
848.98	1677.29
849.15	1527.78
849.32	1603.56
849.49	1566.70
849.66	1523.69
849.83	1550.31
850.00	1527.78
850.17	1542.12
850.34	1488.87
850.51	1593.32
850.68	1538.02
850.85	1714.15
851.01	1505.26
851.18	1492.97
851.35	1574.89
851.52	1593.32
851.69	1591.27
851.86	1396.71
852.03	1486.83
852.20	1619.94
852.37	1574.89
852.53	1468.39
852.70	1550.31
852.87	1523.69
853.04	1601.51
853.21	1535.98
853.38	1591.27
853.55	1546.22
853.72	1583.08
853.89	1470.44
854.05	1523.69
854.22	1529.83
854.39	1562.60
854.56	1589.22
854.73	1613.80
854.90	1488.87
855.07	1568.74
855.23	1435.63
855.40	1484.78
855.57	1521.64
855.74	1447.91
855.91	1660.90
856.08	1411.05
856.25	1542.12
856.41	1556.46
856.58	1617.90
856.75	1527.78
856.92	1488.87
857.09	1550.31
857.26	1509.35
857.42	1550.31
857.59	1566.70
857.76	1507.30
857.93	1558.50
858.10	1550.31
858.27	1513.45
858.43	1548.26
858.60	1535.98
858.77	1531.88
858.94	1386.47
859.11	1599.46
859.27	1529.83
859.44	1474.54
859.61	1603.56
859.78	1533.93
859.95	1552.36
860.12	1503.21
860.28	1560.55
860.45	1607.66
860.62	1435.63
860.79	1560.55
860.95	1560.55
861.12	1566.70
861.29	1509.35
861.46	1533.93
861.63	1578.98
861.79	1468.39
861.96	1447.91
862.13	1591.27
862.30	1613.80
862.47	1589.22
862.63	1574.89
862.80	1570.79
862.97	1619.94
863.14	1398.76
863.30	1511.40
863.47	1480.68
863.64	1574.89
863.81	1538.02
863.97	1492.97
864.14	1505.26
864.31	1486.83
864.48	1562.60
864.65	1464.30
864.81	1581.03
864.98	1564.65
865.15	1538.02
865.32	1611.75
865.48	1599.46
865.65	1597.42
865.82	1511.40
865.98	1574.89
866.15	1587.18
866.32	1554.41
866.49	1572.84
866.65	1578.98
866.82	1525.74
866.99	1519.59
867.16	1519.59
867.32	1621.99
867.49	1480.68
867.66	1540.07
867.83	1501.16
867.99	1435.63
868.16	1544.17
868.33	1443.82
868.49	1503.21
868.66	1552.36
868.83	1556.46
868.99	1585.13
869.16	1478.63
869.33	1501.16
869.50	1564.65
869.66	1568.74
869.83	1523.69
870.00	1402.86
870.16	1564.65
870.33	1462.25
870.50	1581.03
870.66	1454.06
870.83	1679.33
871.00	1634.28
871.17	1599.46
871.33	1564.65
871.50	1490.92
871.67	1531.88
871.83	1406.95
872.00	1648.61
872.17	1488.87
872.33	1552.36
872.50	1603.56
872.67	1562.60
872.83	1570.79
873.00	1548.26
873.17	1554.41
873.33	1572.84
873.50	1624.04
873.67	1560.55
873.83	1478.63
874.00	1503.21
874.16	1626.09
874.33	1538.02
874.50	1527.78
874.66	1531.88
874.83	1466.35
875.00	1591.27
875.16	1554.41
875.33	1642.47
875.50	1372.14
875.66	1560.55
875.83	1546.22
875.99	1542.12
876.16	1578.98
876.33	1529.83
876.49	1564.65
876.66	1564.65
876.83	1523.69
876.99	1523.69
877.16	1525.74
877.32	1540.07
877.49	1566.70
877.66	1505.26
877.82	1572.84
877.99	1562.60
878.15	1550.31
878.32	1515.50
878.49	1521.64
878.65	1495.02
878.82	1656.81
878.98	1544.17
879.15	1597.42
879.32	1556.46
879.48	1486.83
879.65	1538.02
879.81	1558.50
879.98	1529.83
880.15	1562.60
880.31	1607.66
880.48	1529.83
880.64	1564.65
880.81	1619.94
880.97	1669.09
881.14	1595.37
881.31	1478.63
881.47	1613.80
881.64	1519.59
881.80	1527.78
881.97	1564.65
882.13	1597.42
882.30	1495.02
882.47	1566.70
882.63	1486.83
882.80	1449.96
882.96	1400.81
883.13	1648.61
883.29	1519.59
883.46	1476.59
883.62	1634.28
883.79	1501.16
883.95	1691.62
884.12	1519.59
884.29	1525.74
884.45	1425.39
884.62	1525.74
884.78	1497.07
884.95	1597.42
885.11	1476.59
885.28	1538.02
885.44	1566.70
885.61	1564.65
885.77	1546.22
885.94	1587.18
886.10	1527.78
886.27	1566.70
886.43	1613.80
886.60	1605.61
886.76	1435.63
886.93	1540.07
887.09	1562.60
887.26	1581.03
887.42	1531.88
887.59	1601.51
887.75	1599.46
887.92	1515.50
888.08	1564.65
888.25	1574.89
888.41	1550.31
888.58	1517.54
888.74	1533.93
888.91	1484.78
>>>>>End Processed Spectral Data<<<<<
