SpectraSuite Data File
++++++++++++++++++++++++++++++++++++
Date: Tue May 03 12:55:46 CEST 2016
User: root
Dark Spectrum Present: No
Reference Spectrum Present: No
Number of Sampled Component Spectra: 1
Spectrometers: USB4C02835
Integration Time (usec): 100000 (USB4C02835)
Spectra Averaged: 1 (USB4C02835)
Boxcar Smoothing: 0 (USB4C02835)
Correct for Electrical Dark: No (USB4C02835)
Strobe/Lamp Enabled: No (USB4C02835)
Correct for Detector Non-linearity: No (USB4C02835)
Correct for Stray Light: No (USB4C02835)
Number of Pixels in Processed Spectrum: 3648
>>>>>Begin Processed Spectral Data<<<<<
177.47	1339.37
177.69	1339.37
177.91	1339.37
178.13	1404.91
178.36	1320.94
178.58	1464.30
178.80	1576.94
179.02	1472.49
179.24	1564.65
179.46	1542.12
179.68	1560.55
179.90	1562.60
180.13	1611.75
180.35	1480.68
180.57	1513.45
180.79	1527.78
181.01	1521.64
181.23	1605.61
181.45	1624.04
181.67	1626.09
181.90	1621.99
182.12	1482.73
182.34	1521.64
182.56	1538.02
182.78	1501.16
183.00	1566.70
183.22	1566.70
183.44	1476.59
183.66	1574.89
183.89	1546.22
184.11	1556.46
184.33	1562.60
184.55	1570.79
184.77	1603.56
184.99	1554.41
185.21	1511.40
185.43	1589.22
185.65	1497.07
185.87	1572.84
186.10	1628.14
186.32	1660.90
186.54	1552.36
186.76	1535.98
186.98	1640.42
187.20	1548.26
187.42	1513.45
187.64	1593.32
187.86	1478.63
188.08	1654.76
188.30	1472.49
188.52	1546.22
188.75	1587.18
188.97	1601.51
189.19	1413.10
189.41	1492.97
189.63	1499.11
189.85	1533.93
190.07	1445.87
190.29	1531.88
190.51	1562.60
190.73	1476.59
190.95	1615.85
191.17	1509.35
191.39	1499.11
191.61	1507.30
191.84	1476.59
192.06	1607.66
192.28	1447.91
192.50	1718.25
192.72	1529.83
192.94	1572.84
193.16	1644.52
193.38	1560.55
193.60	1427.43
193.82	1488.87
194.04	1546.22
194.26	1503.21
194.48	1542.12
194.70	1429.48
194.92	1495.02
195.14	1589.22
195.36	1540.07
195.58	1515.50
195.80	1529.83
196.02	1517.54
196.24	1564.65
196.46	1525.74
196.69	1515.50
196.91	1552.36
197.13	1535.98
197.35	1511.40
197.57	1624.04
197.79	1585.13
198.01	1497.07
198.23	1595.37
198.45	1611.75
198.67	1482.73
198.89	1607.66
199.11	1452.01
199.33	1513.45
199.55	1513.45
199.77	1619.94
199.99	1525.74
200.21	1564.65
200.43	1492.97
200.65	1443.82
200.87	1484.78
201.09	1519.59
201.31	1527.78
201.53	1554.41
201.75	1593.32
201.97	1566.70
202.19	1511.40
202.41	1519.59
202.63	1697.77
202.85	1578.98
203.07	1515.50
203.29	1472.49
203.51	1462.25
203.73	1509.35
203.95	1662.95
204.17	1542.12
204.39	1591.27
204.61	1515.50
204.83	1603.56
205.05	1564.65
205.27	1505.26
205.49	1601.51
205.71	1509.35
205.93	1462.25
206.15	1523.69
206.37	1515.50
206.59	1564.65
206.81	1495.02
207.03	1554.41
207.25	1421.29
207.47	1603.56
207.69	1501.16
207.91	1525.74
208.13	1595.37
208.34	1585.13
208.56	1470.44
208.78	1581.03
209.00	1513.45
209.22	1576.94
209.44	1478.63
209.66	1480.68
209.88	1574.89
210.10	1497.07
210.32	1572.84
210.54	1583.08
210.76	1511.40
210.98	1591.27
211.20	1505.26
211.42	1628.14
211.64	1558.50
211.86	1595.37
212.08	1564.65
212.30	1511.40
212.52	1576.94
212.74	1585.13
212.96	1452.01
213.17	1501.16
213.39	1540.07
213.61	1591.27
213.83	1558.50
214.05	1433.58
214.27	1615.85
214.49	1404.91
214.71	1511.40
214.93	1583.08
215.15	1501.16
215.37	1630.18
215.59	1439.72
215.81	1566.70
216.03	1591.27
216.24	1499.11
216.46	1570.79
216.68	1642.47
216.90	1515.50
217.12	1546.22
217.34	1517.54
217.56	1566.70
217.78	1597.42
218.00	1566.70
218.22	1632.23
218.44	1597.42
218.66	1509.35
218.87	1581.03
219.09	1482.73
219.31	1578.98
219.53	1558.50
219.75	1572.84
219.97	1585.13
220.19	1511.40
220.41	1490.92
220.63	1540.07
220.85	1603.56
221.06	1509.35
221.28	1597.42
221.50	1511.40
221.72	1583.08
221.94	1617.90
222.16	1507.30
222.38	1581.03
222.60	1513.45
222.82	1542.12
223.03	1564.65
223.25	1464.30
223.47	1617.90
223.69	1619.94
223.91	1470.44
224.13	1556.46
224.35	1445.87
224.57	1554.41
224.78	1597.42
225.00	1468.39
225.22	1492.97
225.44	1581.03
225.66	1581.03
225.88	1484.78
226.10	1550.31
226.32	1527.78
226.53	1552.36
226.75	1509.35
226.97	1558.50
227.19	1593.32
227.41	1529.83
227.63	1503.21
227.85	1480.68
228.06	1554.41
228.28	1552.36
228.50	1529.83
228.72	1535.98
228.94	1452.01
229.16	1464.30
229.37	1462.25
229.59	1515.50
229.81	1621.99
230.03	1458.15
230.25	1517.54
230.47	1560.55
230.69	1495.02
230.90	1464.30
231.12	1476.59
231.34	1525.74
231.56	1558.50
231.78	1531.88
232.00	1552.36
232.21	1564.65
232.43	1576.94
232.65	1464.30
232.87	1638.38
233.09	1476.59
233.30	1476.59
233.52	1628.14
233.74	1501.16
233.96	1472.49
234.18	1599.46
234.40	1542.12
234.61	1648.61
234.83	1533.93
235.05	1454.06
235.27	1601.51
235.49	1511.40
235.70	1540.07
235.92	1585.13
236.14	1550.31
236.36	1615.85
236.58	1419.24
236.79	1599.46
237.01	1564.65
237.23	1542.12
237.45	1615.85
237.67	1585.13
237.88	1570.79
238.10	1595.37
238.32	1445.87
238.54	1484.78
238.76	1540.07
238.97	1486.83
239.19	1546.22
239.41	1564.65
239.63	1535.98
239.85	1529.83
240.06	1507.30
240.28	1556.46
240.50	1572.84
240.72	1544.17
240.93	1535.98
241.15	1558.50
241.37	1533.93
241.59	1587.18
241.81	1521.64
242.02	1568.74
242.24	1599.46
242.46	1550.31
242.68	1591.27
242.89	1587.18
243.11	1550.31
243.33	1552.36
243.55	1558.50
243.76	1587.18
243.98	1552.36
244.20	1495.02
244.42	1552.36
244.64	1501.16
244.85	1495.02
245.07	1482.73
245.29	1538.02
245.51	1523.69
245.72	1533.93
245.94	1624.04
246.16	1505.26
246.38	1599.46
246.59	1431.53
246.81	1470.44
247.03	1552.36
247.24	1454.06
247.46	1525.74
247.68	1558.50
247.90	1472.49
248.11	1509.35
248.33	1607.66
248.55	1554.41
248.77	1601.51
248.98	1558.50
249.20	1544.17
249.42	1535.98
249.64	1589.22
249.85	1497.07
250.07	1472.49
250.29	1478.63
250.50	1564.65
250.72	1492.97
250.94	1531.88
251.16	1605.61
251.37	1636.33
251.59	1583.08
251.81	1589.22
252.02	1531.88
252.24	1531.88
252.46	1566.70
252.68	1478.63
252.89	1433.58
253.11	1503.21
253.33	1585.13
253.54	1587.18
253.76	1540.07
253.98	1466.35
254.20	1542.12
254.41	1456.11
254.63	1501.16
254.85	1476.59
255.06	1583.08
255.28	1589.22
255.50	1544.17
255.71	1527.78
255.93	1466.35
256.15	1472.49
256.36	1552.36
256.58	1624.04
256.80	1589.22
257.02	1460.20
257.23	1576.94
257.45	1521.64
257.67	1617.90
257.88	1509.35
258.10	1529.83
258.32	1646.57
258.53	1509.35
258.75	1554.41
258.97	1421.29
259.18	1574.89
259.40	1595.37
259.62	1654.76
259.83	1593.32
260.05	1505.26
260.27	1822.69
260.48	1529.83
260.70	1497.07
260.92	1535.98
261.13	1531.88
261.35	1566.70
261.57	1583.08
261.78	1386.47
262.00	1501.16
262.22	1540.07
262.43	1452.01
262.65	1486.83
262.86	1548.26
263.08	1640.42
263.30	1507.30
263.51	1466.35
263.73	1509.35
263.95	1632.23
264.16	1501.16
264.38	1503.21
264.60	1552.36
264.81	1546.22
265.03	1646.57
265.25	1595.37
265.46	1497.07
265.68	1566.70
265.89	1591.27
266.11	1443.82
266.33	1562.60
266.54	1615.85
266.76	1578.98
266.98	1585.13
267.19	1564.65
267.41	1581.03
267.62	1581.03
267.84	1447.91
268.06	1570.79
268.27	1544.17
268.49	1566.70
268.70	1615.85
268.92	1538.02
269.14	1466.35
269.35	1456.11
269.57	1546.22
269.79	1531.88
270.00	1529.83
270.22	1601.51
270.43	1511.40
270.65	1419.24
270.87	1464.30
271.08	1540.07
271.30	1566.70
271.51	1562.60
271.73	1499.11
271.95	1540.07
272.16	1560.55
272.38	1488.87
272.59	1468.39
272.81	1650.66
273.02	1626.09
273.24	1570.79
273.46	1632.23
273.67	1486.83
273.89	1462.25
274.10	1499.11
274.32	1613.80
274.54	1566.70
274.75	1515.50
274.97	1529.83
275.18	1603.56
275.40	1601.51
275.61	1488.87
275.83	1566.70
276.05	1552.36
276.26	1550.31
276.48	1613.80
276.69	1480.68
276.91	1495.02
277.12	1517.54
277.34	1613.80
277.55	1574.89
277.77	1521.64
277.99	1533.93
278.20	1462.25
278.42	1452.01
278.63	1497.07
278.85	1513.45
279.06	1392.62
279.28	1513.45
279.49	1619.94
279.71	1662.95
279.93	1636.33
280.14	1511.40
280.36	1505.26
280.57	1521.64
280.79	1593.32
281.00	1527.78
281.22	1507.30
281.43	1560.55
281.65	1480.68
281.86	1464.30
282.08	1656.81
282.29	1589.22
282.51	1462.25
282.73	1566.70
282.94	1542.12
283.16	1599.46
283.37	1527.78
283.59	1566.70
283.80	1519.59
284.02	1587.18
284.23	1591.27
284.45	1470.44
284.66	1470.44
284.88	1570.79
285.09	1484.78
285.31	1546.22
285.52	1597.42
285.74	1562.60
285.95	1558.50
286.17	1566.70
286.38	1624.04
286.60	1492.97
286.81	1478.63
287.03	1558.50
287.24	1503.21
287.46	1642.47
287.67	1542.12
287.89	1607.66
288.10	1476.59
288.32	1562.60
288.53	1615.85
288.75	1495.02
288.96	1566.70
289.18	1501.16
289.39	1546.22
289.61	1581.03
289.82	1630.18
290.04	1570.79
290.25	1490.92
290.47	1574.89
290.68	1466.35
290.90	1533.93
291.11	1466.35
291.33	1521.64
291.54	1499.11
291.76	1427.43
291.97	1552.36
292.18	1558.50
292.40	1509.35
292.61	1560.55
292.83	1634.28
293.04	1587.18
293.26	1503.21
293.47	1501.16
293.69	1574.89
293.90	1560.55
294.12	1626.09
294.33	1499.11
294.55	1624.04
294.76	1621.99
294.97	1634.28
295.19	1611.75
295.40	1576.94
295.62	1542.12
295.83	1574.89
296.05	1517.54
296.26	1531.88
296.48	1486.83
296.69	1488.87
296.90	1495.02
297.12	1535.98
297.33	1593.32
297.55	1599.46
297.76	1576.94
297.98	1603.56
298.19	1441.77
298.41	1533.93
298.62	1511.40
298.83	1601.51
299.05	1540.07
299.26	1599.46
299.48	1531.88
299.69	1607.66
299.90	1529.83
300.12	1472.49
300.33	1585.13
300.55	1554.41
300.76	1546.22
300.98	1476.59
301.19	1568.74
301.40	1533.93
301.62	1511.40
301.83	1525.74
302.05	1525.74
302.26	1550.31
302.47	1544.17
302.69	1513.45
302.90	1527.78
303.12	1572.84
303.33	1611.75
303.54	1658.85
303.76	1560.55
303.97	1533.93
304.19	1626.09
304.40	1517.54
304.61	1499.11
304.83	1609.70
305.04	1609.70
305.26	1595.37
305.47	1452.01
305.68	1583.08
305.90	1437.67
306.11	1636.33
306.33	1511.40
306.54	1519.59
306.75	1503.21
306.97	1501.16
307.18	1558.50
307.39	1552.36
307.61	1574.89
307.82	1550.31
308.04	1581.03
308.25	1527.78
308.46	1480.68
308.68	1611.75
308.89	1517.54
309.10	1570.79
309.32	1521.64
309.53	1474.54
309.74	1597.42
309.96	1550.31
310.17	1626.09
310.39	1517.54
310.60	1568.74
310.81	1546.22
311.03	1398.76
311.24	1513.45
311.45	1425.39
311.67	1589.22
311.88	1619.94
312.09	1454.06
312.31	1529.83
312.52	1495.02
312.73	1462.25
312.95	1447.91
313.16	1478.63
313.37	1595.37
313.59	1583.08
313.80	1583.08
314.01	1597.42
314.23	1513.45
314.44	1464.30
314.65	1538.02
314.87	1464.30
315.08	1642.47
315.29	1484.78
315.51	1585.13
315.72	1429.48
315.93	1583.08
316.15	1546.22
316.36	1423.34
316.57	1513.45
316.79	1501.16
317.00	1535.98
317.21	1595.37
317.43	1499.11
317.64	1511.40
317.85	1595.37
318.07	1550.31
318.28	1677.29
318.49	1736.68
318.70	1757.16
318.92	1671.14
319.13	1699.81
319.34	1716.20
319.56	1640.42
319.77	1654.76
319.98	1687.53
320.20	1669.09
320.41	1587.18
320.62	1581.03
320.83	1527.78
321.05	1656.81
321.26	1531.88
321.47	1525.74
321.69	1574.89
321.90	1497.07
322.11	1482.73
322.32	1560.55
322.54	1585.13
322.75	1519.59
322.96	1615.85
323.18	1452.01
323.39	1460.20
323.60	1523.69
323.81	1587.18
324.03	1527.78
324.24	1484.78
324.45	1535.98
324.66	1495.02
324.88	1529.83
325.09	1609.70
325.30	1540.07
325.52	1542.12
325.73	1501.16
325.94	1505.26
326.15	1439.72
326.37	1470.44
326.58	1591.27
326.79	1640.42
327.00	1503.21
327.22	1617.90
327.43	1527.78
327.64	1484.78
327.85	1519.59
328.07	1562.60
328.28	1603.56
328.49	1519.59
328.70	1478.63
328.92	1517.54
329.13	1517.54
329.34	1538.02
329.55	1599.46
329.76	1601.51
329.98	1550.31
330.19	1611.75
330.40	1486.83
330.61	1554.41
330.83	1533.93
331.04	1558.50
331.25	1484.78
331.46	1503.21
331.68	1462.25
331.89	1527.78
332.10	1462.25
332.31	1499.11
332.52	1486.83
332.74	1515.50
332.95	1578.98
333.16	1636.33
333.37	1595.37
333.58	1519.59
333.80	1581.03
334.01	1435.63
334.22	1531.88
334.43	1454.06
334.64	1529.83
334.86	1538.02
335.07	1531.88
335.28	1609.70
335.49	1404.91
335.70	1558.50
335.92	1597.42
336.13	1607.66
336.34	1566.70
336.55	1521.64
336.76	1486.83
336.98	1445.87
337.19	1535.98
337.40	1593.32
337.61	1570.79
337.82	1443.82
338.04	1617.90
338.25	1466.35
338.46	1554.41
338.67	1511.40
338.88	1427.43
339.09	1486.83
339.31	1566.70
339.52	1535.98
339.73	1380.33
339.94	1593.32
340.15	1595.37
340.36	1464.30
340.58	1499.11
340.79	1495.02
341.00	1484.78
341.21	1466.35
341.42	1628.14
341.63	1554.41
341.85	1542.12
342.06	1527.78
342.27	1490.92
342.48	1501.16
342.69	1472.49
342.90	1568.74
343.12	1578.98
343.33	1574.89
343.54	1576.94
343.75	1585.13
343.96	1466.35
344.17	1474.54
344.38	1529.83
344.60	1449.96
344.81	1468.39
345.02	1585.13
345.23	1560.55
345.44	1648.61
345.65	1599.46
345.86	1535.98
346.07	1531.88
346.29	1505.26
346.50	1597.42
346.71	1550.31
346.92	1589.22
347.13	1636.33
347.34	1482.73
347.55	1566.70
347.76	1603.56
347.98	1411.05
348.19	1576.94
348.40	1531.88
348.61	1552.36
348.82	1636.33
349.03	1628.14
349.24	1495.02
349.45	1550.31
349.66	1443.82
349.88	1503.21
350.09	1492.97
350.30	1568.74
350.51	1529.83
350.72	1546.22
350.93	1556.46
351.14	1533.93
351.35	1535.98
351.56	1566.70
351.77	1507.30
351.99	1542.12
352.20	1564.65
352.41	1656.81
352.62	1409.00
352.83	1556.46
353.04	1523.69
353.25	1505.26
353.46	1621.99
353.67	1646.57
353.88	1462.25
354.09	1564.65
354.30	1533.93
354.52	1495.02
354.73	1566.70
354.94	1460.20
355.15	1585.13
355.36	1630.18
355.57	1460.20
355.78	1505.26
355.99	1478.63
356.20	1435.63
356.41	1609.70
356.62	1552.36
356.83	1499.11
357.04	1585.13
357.25	1433.58
357.46	1548.26
357.68	1462.25
357.89	1411.05
358.10	1492.97
358.31	1538.02
358.52	1495.02
358.73	1419.24
358.94	1505.26
359.15	1515.50
359.36	1552.36
359.57	1472.49
359.78	1490.92
359.99	1566.70
360.20	1480.68
360.41	1533.93
360.62	1628.14
360.83	1544.17
361.04	1581.03
361.25	1523.69
361.46	1578.98
361.67	1560.55
361.88	1566.70
362.09	1632.23
362.30	1535.98
362.51	1478.63
362.72	1527.78
362.93	1470.44
363.14	1548.26
363.35	1529.83
363.56	1507.30
363.78	1556.46
363.99	1560.55
364.20	1474.54
364.41	1546.22
364.62	1619.94
364.83	1587.18
365.04	1535.98
365.25	1531.88
365.46	1624.04
365.67	1447.91
365.88	1501.16
366.09	1554.41
366.30	1419.24
366.51	1589.22
366.72	1548.26
366.93	1544.17
367.14	1556.46
367.35	1601.51
367.56	1474.54
367.77	1589.22
367.98	1585.13
368.18	1533.93
368.39	1525.74
368.60	1501.16
368.81	1568.74
369.02	1531.88
369.23	1476.59
369.44	1468.39
369.65	1576.94
369.86	1574.89
370.07	1595.37
370.28	1447.91
370.49	1552.36
370.70	1507.30
370.91	1556.46
371.12	1466.35
371.33	1513.45
371.54	1540.07
371.75	1558.50
371.96	1421.29
372.17	1599.46
372.38	1560.55
372.59	1572.84
372.80	1488.87
373.01	1548.26
373.22	1511.40
373.43	1525.74
373.64	1503.21
373.85	1599.46
374.06	1632.23
374.26	1509.35
374.47	1472.49
374.68	1576.94
374.89	1634.28
375.10	1509.35
375.31	1601.51
375.52	1581.03
375.73	1480.68
375.94	1478.63
376.15	1693.67
376.36	1531.88
376.57	1452.01
376.78	1449.96
376.99	1587.18
377.20	1605.61
377.40	1556.46
377.61	1587.18
377.82	1454.06
378.03	1611.75
378.24	1507.30
378.45	1533.93
378.66	1535.98
378.87	1495.02
379.08	1509.35
379.29	1533.93
379.50	1589.22
379.71	1499.11
379.91	1495.02
380.12	1476.59
380.33	1529.83
380.54	1550.31
380.75	1490.92
380.96	1617.90
381.17	1527.78
381.38	1583.08
381.59	1587.18
381.80	1544.17
382.00	1744.87
382.21	1568.74
382.42	1685.48
382.63	1687.53
382.84	1646.57
383.05	1642.47
383.26	1652.71
383.47	1597.42
383.68	1560.55
383.88	1603.56
384.09	1605.61
384.30	1632.23
384.51	1550.31
384.72	1509.35
384.93	1517.54
385.14	1581.03
385.35	1517.54
385.55	1449.96
385.76	1548.26
385.97	1562.60
386.18	1523.69
386.39	1519.59
386.60	1507.30
386.81	1552.36
387.02	1464.30
387.22	1501.16
387.43	1626.09
387.64	1689.57
387.85	1837.03
388.06	3162.06
388.27	7180.18
388.48	10501.98
388.68	12277.57
388.89	13899.56
389.10	12672.83
389.31	10073.96
389.52	8857.46
389.73	7731.08
389.93	7327.63
390.14	6678.43
390.35	6137.76
390.56	5410.73
390.77	4585.40
390.98	3631.05
391.18	2777.05
391.39	2205.66
391.60	1771.49
391.81	1773.54
392.02	1583.08
392.23	1656.81
392.43	1646.57
392.64	1640.42
392.85	1548.26
393.06	1667.05
393.27	1535.98
393.47	1558.50
393.68	1540.07
393.89	1546.22
394.10	1591.27
394.31	1511.40
394.52	1501.16
394.72	1499.11
394.93	1626.09
395.14	1554.41
395.35	1583.08
395.56	1531.88
395.76	1591.27
395.97	1669.09
396.18	1722.34
396.39	1734.63
396.60	1978.34
396.80	1746.92
397.01	1800.16
397.22	1665.00
397.43	1675.24
397.64	1619.94
397.84	1665.00
398.05	1705.96
398.26	1595.37
398.47	1652.71
398.67	1613.80
398.88	1595.37
399.09	1540.07
399.30	1546.22
399.51	1597.42
399.71	1527.78
399.92	1538.02
400.13	1576.94
400.34	1511.40
400.54	1568.74
400.75	1589.22
400.96	1599.46
401.17	1644.52
401.37	1538.02
401.58	1544.17
401.79	1603.56
402.00	1857.51
402.21	1906.66
402.41	1951.71
402.62	1892.32
402.83	1974.24
403.04	1845.22
403.24	1871.84
403.45	1748.97
403.66	1744.87
403.87	1724.39
404.07	1630.18
404.28	1730.53
404.49	1697.77
404.70	1574.89
404.90	1626.09
405.11	1662.95
405.32	1607.66
405.52	1476.59
405.73	1499.11
405.94	1527.78
406.15	1521.64
406.35	1591.27
406.56	1484.78
406.77	1521.64
406.98	1529.83
407.18	1505.26
407.39	1609.70
407.60	1480.68
407.80	1570.79
408.01	1585.13
408.22	1574.89
408.43	1529.83
408.63	1568.74
408.84	1578.98
409.05	1658.85
409.25	1454.06
409.46	1462.25
409.67	1497.07
409.88	1538.02
410.08	1507.30
410.29	1470.44
410.50	1535.98
410.70	1542.12
410.91	1519.59
411.12	1564.65
411.32	1636.33
411.53	1517.54
411.74	1665.00
411.95	1667.05
412.15	1636.33
412.36	1615.85
412.57	1617.90
412.77	1533.93
412.98	1628.14
413.19	1554.41
413.39	1572.84
413.60	1607.66
413.81	1662.95
414.01	1454.06
414.22	1640.42
414.43	1605.61
414.63	1476.59
414.84	1540.07
415.05	1513.45
415.25	1486.83
415.46	1542.12
415.67	1495.02
415.87	1544.17
416.08	1550.31
416.29	1427.43
416.49	1570.79
416.70	1535.98
416.91	1472.49
417.11	1578.98
417.32	1552.36
417.53	1562.60
417.73	1574.89
417.94	1507.30
418.15	1576.94
418.35	1527.78
418.56	1552.36
418.77	1662.95
418.97	1552.36
419.18	1535.98
419.38	1480.68
419.59	1546.22
419.80	1587.18
420.00	1482.73
420.21	1535.98
420.42	1593.32
420.62	1581.03
420.83	1533.93
421.04	1505.26
421.24	1566.70
421.45	1605.61
421.65	1550.31
421.86	1562.60
422.07	1552.36
422.27	1480.68
422.48	1523.69
422.69	1531.88
422.89	1513.45
423.10	1519.59
423.30	1562.60
423.51	1535.98
423.72	1554.41
423.92	1548.26
424.13	1486.83
424.33	1558.50
424.54	1634.28
424.75	1495.02
424.95	1585.13
425.16	1529.83
425.36	1470.44
425.57	1581.03
425.78	1660.90
425.98	1632.23
426.19	1503.21
426.39	1476.59
426.60	1591.27
426.81	1595.37
427.01	1574.89
427.22	1464.30
427.42	1468.39
427.63	1486.83
427.83	1525.74
428.04	1642.47
428.25	1595.37
428.45	1546.22
428.66	1538.02
428.86	1523.69
429.07	1527.78
429.28	1490.92
429.48	1525.74
429.69	1558.50
429.89	1529.83
430.10	1501.16
430.30	1572.84
430.51	1603.56
430.71	1540.07
430.92	1548.26
431.13	1560.55
431.33	1599.46
431.54	1636.33
431.74	1562.60
431.95	1591.27
432.15	1439.72
432.36	1562.60
432.56	1597.42
432.77	1554.41
432.98	1640.42
433.18	1581.03
433.39	1511.40
433.59	1578.98
433.80	1583.08
434.00	1677.29
434.21	1595.37
434.41	1519.59
434.62	1601.51
434.82	1513.45
435.03	1566.70
435.23	1568.74
435.44	1445.87
435.64	1585.13
435.85	1535.98
436.06	1597.42
436.26	1581.03
436.47	1492.97
436.67	1480.68
436.88	1542.12
437.08	1619.94
437.29	1615.85
437.49	1495.02
437.70	1554.41
437.90	1447.91
438.11	1636.33
438.31	1599.46
438.52	1710.05
438.72	1675.24
438.93	1753.06
439.13	1611.75
439.34	1572.84
439.54	1574.89
439.75	1689.57
439.95	1632.23
440.16	1581.03
440.36	1535.98
440.57	1609.70
440.77	1658.85
440.98	1576.94
441.18	1638.38
441.39	1501.16
441.59	1495.02
441.80	1632.23
442.00	1609.70
442.21	1605.61
442.41	1570.79
442.62	1638.38
442.82	1562.60
443.02	1460.20
443.23	1574.89
443.43	1554.41
443.64	1591.27
443.84	1566.70
444.05	1757.16
444.25	1535.98
444.46	1617.90
444.66	1578.98
444.87	1607.66
445.07	1452.01
445.28	1544.17
445.48	1583.08
445.69	1558.50
445.89	1593.32
446.09	1564.65
446.30	2037.73
446.50	3155.92
446.71	4476.86
446.91	5427.12
447.12	5826.47
447.32	5568.43
447.53	4638.65
447.73	4071.36
447.93	3641.29
448.14	3352.52
448.34	3178.45
448.55	2910.16
448.75	2840.53
448.96	2781.14
449.16	2510.81
449.36	2168.80
449.57	1966.05
449.77	1822.69
449.98	1626.09
450.18	1697.77
450.39	1583.08
450.59	1607.66
450.79	1656.81
451.00	1480.68
451.20	1535.98
451.41	1546.22
451.61	1533.93
451.81	1519.59
452.02	1507.30
452.22	1478.63
452.43	1462.25
452.63	1564.65
452.84	1527.78
453.04	1519.59
453.24	1540.07
453.45	1523.69
453.65	1486.83
453.86	1542.12
454.06	1607.66
454.26	1490.92
454.47	1513.45
454.67	1593.32
454.87	1531.88
455.08	1462.25
455.28	1585.13
455.49	1564.65
455.69	1507.30
455.89	1581.03
456.10	1533.93
456.30	1529.83
456.51	1523.69
456.71	1558.50
456.91	1578.98
457.12	1509.35
457.32	1591.27
457.52	1505.26
457.73	1497.07
457.93	1531.88
458.14	1497.07
458.34	1423.34
458.54	1552.36
458.75	1562.60
458.95	1599.46
459.15	1490.92
459.36	1486.83
459.56	1665.00
459.76	1681.38
459.97	1560.55
460.17	1566.70
460.37	1576.94
460.58	1503.21
460.78	1564.65
460.99	1568.74
461.19	1546.22
461.39	1556.46
461.60	1554.41
461.80	1607.66
462.00	1503.21
462.21	1572.84
462.41	1533.93
462.61	1476.59
462.82	1554.41
463.02	1562.60
463.22	1505.26
463.43	1617.90
463.63	1513.45
463.83	1595.37
464.04	1509.35
464.24	1531.88
464.44	1525.74
464.64	1521.64
464.85	1574.89
465.05	1566.70
465.25	1509.35
465.46	1591.27
465.66	1548.26
465.86	1560.55
466.07	1613.80
466.27	1548.26
466.47	1503.21
466.68	1476.59
466.88	1632.23
467.08	1585.13
467.29	1548.26
467.49	1544.17
467.69	1484.78
467.89	1505.26
468.10	1501.16
468.30	1552.36
468.50	1619.94
468.71	1578.98
468.91	1492.97
469.11	1593.32
469.31	1548.26
469.52	1542.12
469.72	1611.75
469.92	1652.71
470.13	1525.74
470.33	1599.46
470.53	1662.95
470.73	2080.74
470.94	2359.26
471.14	2469.85
471.34	2600.92
471.54	2420.70
471.75	2158.56
471.95	2127.84
472.15	1931.23
472.36	1972.19
472.56	1968.10
472.76	1890.28
472.96	1834.98
473.17	1757.16
473.37	1869.80
473.57	1648.61
473.77	1617.90
473.98	1589.22
474.18	1492.97
474.38	1708.01
474.58	1587.18
474.79	1492.97
474.99	1519.59
475.19	1501.16
475.39	1490.92
475.60	1529.83
475.80	1599.46
476.00	1497.07
476.20	1517.54
476.41	1564.65
476.61	1583.08
476.81	1607.66
477.01	1525.74
477.21	1644.52
477.42	1660.90
477.62	1517.54
477.82	1595.37
478.02	1486.83
478.23	1560.55
478.43	1552.36
478.63	1531.88
478.83	1554.41
479.03	1593.32
479.24	1554.41
479.44	1665.00
479.64	1513.45
479.84	1411.05
480.04	1497.07
480.25	1630.18
480.45	1566.70
480.65	1572.84
480.85	1636.33
481.06	1466.35
481.26	1587.18
481.46	1615.85
481.66	1529.83
481.86	1472.49
482.06	1644.52
482.27	1544.17
482.47	1542.12
482.67	1527.78
482.87	1501.16
483.07	1630.18
483.28	1486.83
483.48	1413.10
483.68	1558.50
483.88	1486.83
484.08	1431.53
484.29	1511.40
484.49	1538.02
484.69	1529.83
484.89	1605.61
485.09	1550.31
485.29	1533.93
485.50	1578.98
485.70	1531.88
485.90	1583.08
486.10	1523.69
486.30	1542.12
486.50	1583.08
486.71	1621.99
486.91	1550.31
487.11	1595.37
487.31	1525.74
487.51	1624.04
487.71	1460.20
487.91	1599.46
488.12	1460.20
488.32	1460.20
488.52	1497.07
488.72	1523.69
488.92	1540.07
489.12	1601.51
489.32	1658.85
489.53	1533.93
489.73	1538.02
489.93	1642.47
490.13	1515.50
490.33	1429.48
490.53	1601.51
490.73	1589.22
490.94	1540.07
491.14	1540.07
491.34	1757.16
491.54	2162.66
491.74	2664.41
491.94	3198.93
492.14	3295.18
492.34	3217.36
492.54	2738.13
492.75	2443.23
492.95	2416.60
493.15	2256.86
493.35	2138.08
493.55	2023.39
493.75	2068.45
493.95	1978.34
494.15	1880.04
494.35	1785.83
494.56	1705.96
494.76	1636.33
494.96	1591.27
495.16	1568.74
495.36	1527.78
495.56	1624.04
495.76	1578.98
495.96	1538.02
496.16	1523.69
496.36	1648.61
496.56	1562.60
496.77	1572.84
496.97	1564.65
497.17	1630.18
497.37	1554.41
497.57	1558.50
497.77	1509.35
497.97	1501.16
498.17	1513.45
498.37	1501.16
498.57	1562.60
498.77	1527.78
498.97	1560.55
499.17	1609.70
499.38	1621.99
499.58	1566.70
499.78	1556.46
499.98	1560.55
500.18	1558.50
500.38	1570.79
500.58	1841.12
500.78	2652.12
500.98	5009.33
501.18	6752.15
501.38	8050.57
501.58	8736.63
501.78	7815.05
501.98	6043.56
502.18	5386.16
502.38	4618.17
502.58	4247.49
502.78	3895.24
502.98	3764.17
503.18	3665.86
503.38	3307.47
503.59	3047.38
503.79	2785.24
503.99	2562.01
504.19	2303.96
504.39	2127.84
504.59	2045.92
504.79	2041.82
504.99	1982.43
505.19	1748.97
505.39	1718.25
505.59	1773.54
505.79	1761.25
505.99	1669.09
506.19	1611.75
506.39	1722.34
506.59	1581.03
506.79	1544.17
506.99	1568.74
507.19	1574.89
507.39	1574.89
507.59	1517.54
507.79	1550.31
507.99	1529.83
508.19	1601.51
508.39	1486.83
508.59	1546.22
508.79	1660.90
508.99	1662.95
509.19	1482.73
509.39	1568.74
509.59	1499.11
509.79	1548.26
509.99	1531.88
510.19	1581.03
510.39	1613.80
510.59	1578.98
510.79	1521.64
510.99	1476.59
511.19	1585.13
511.39	1603.56
511.59	1499.11
511.79	1576.94
511.99	1640.42
512.19	1595.37
512.38	1492.97
512.58	1505.26
512.78	1581.03
512.98	1597.42
513.18	1576.94
513.38	1509.35
513.58	1583.08
513.78	1529.83
513.98	1558.50
514.18	1492.97
514.38	1572.84
514.58	1562.60
514.78	1599.46
514.98	1495.02
515.18	1562.60
515.38	1529.83
515.58	1679.33
515.78	1482.73
515.98	1550.31
516.18	1607.66
516.38	1560.55
516.57	1452.01
516.77	1492.97
516.97	1554.41
517.17	1550.31
517.37	1503.21
517.57	1581.03
517.77	1538.02
517.97	1505.26
518.17	1550.31
518.37	1445.87
518.57	1484.78
518.77	1589.22
518.97	1585.13
519.16	1535.98
519.36	1589.22
519.56	1509.35
519.76	1503.21
519.96	1556.46
520.16	1585.13
520.36	1460.20
520.56	1583.08
520.76	1603.56
520.96	1581.03
521.16	1603.56
521.35	1646.57
521.55	1583.08
521.75	1523.69
521.95	1550.31
522.15	1492.97
522.35	1476.59
522.55	1517.54
522.75	1554.41
522.95	1480.68
523.14	1558.50
523.34	1521.64
523.54	1554.41
523.74	1607.66
523.94	1568.74
524.14	1386.47
524.34	1603.56
524.54	1621.99
524.73	1558.50
524.93	1546.22
525.13	1458.15
525.33	1544.17
525.53	1708.01
525.73	1566.70
525.93	1507.30
526.13	1517.54
526.32	1550.31
526.52	1595.37
526.72	1560.55
526.92	1562.60
527.12	1576.94
527.32	1464.30
527.52	1581.03
527.71	1578.98
527.91	1507.30
528.11	1509.35
528.31	1556.46
528.51	1472.49
528.71	1523.69
528.90	1507.30
529.10	1607.66
529.30	1568.74
529.50	1478.63
529.70	1533.93
529.90	1488.87
530.09	1552.36
530.29	1488.87
530.49	1576.94
530.69	1644.52
530.89	1550.31
531.09	1617.90
531.28	1578.98
531.48	1546.22
531.68	1593.32
531.88	1556.46
532.08	1495.02
532.28	1609.70
532.47	1486.83
532.67	1574.89
532.87	1634.28
533.07	1554.41
533.27	1574.89
533.46	1634.28
533.66	1628.14
533.86	1521.64
534.06	1572.84
534.26	1566.70
534.45	1619.94
534.65	1578.98
534.85	1609.70
535.05	1490.92
535.25	1603.56
535.44	1490.92
535.64	1611.75
535.84	1615.85
536.04	1513.45
536.24	1531.88
536.43	1572.84
536.63	1523.69
536.83	1611.75
537.03	1415.15
537.22	1515.50
537.42	1441.77
537.62	1517.54
537.82	1490.92
538.02	1570.79
538.21	1548.26
538.41	1705.96
538.61	1519.59
538.81	1517.54
539.00	1601.51
539.20	1443.82
539.40	1462.25
539.60	1527.78
539.79	1587.18
539.99	1552.36
540.19	1501.16
540.39	1529.83
540.58	1558.50
540.78	1576.94
540.98	1601.51
541.18	1554.41
541.37	1527.78
541.57	1513.45
541.77	1554.41
541.97	1488.87
542.16	1462.25
542.36	1529.83
542.56	1578.98
542.76	1656.81
542.95	1621.99
543.15	1525.74
543.35	1533.93
543.54	1507.30
543.74	1587.18
543.94	1617.90
544.14	1535.98
544.33	1454.06
544.53	1566.70
544.73	1540.07
544.93	1538.02
545.12	1517.54
545.32	1517.54
545.52	1589.22
545.71	1544.17
545.91	1585.13
546.11	1634.28
546.30	1462.25
546.50	1550.31
546.70	1617.90
546.90	1554.41
547.09	1443.82
547.29	1523.69
547.49	1566.70
547.68	1509.35
547.88	1501.16
548.08	1546.22
548.27	1937.38
548.47	1503.21
548.67	1472.49
548.87	1593.32
549.06	1488.87
549.26	1490.92
549.46	1556.46
549.65	1533.93
549.85	1466.35
550.05	1601.51
550.24	1456.11
550.44	1482.73
550.64	1533.93
550.83	1568.74
551.03	1540.07
551.23	1626.09
551.42	1531.88
551.62	1550.31
551.82	1570.79
552.01	1574.89
552.21	1578.98
552.41	1583.08
552.60	1624.04
552.80	1521.64
553.00	1511.40
553.19	1509.35
553.39	1595.37
553.59	1462.25
553.78	1527.78
553.98	1593.32
554.17	1560.55
554.37	1617.90
554.57	1619.94
554.76	1527.78
554.96	1509.35
555.16	1540.07
555.35	1558.50
555.55	1578.98
555.75	1544.17
555.94	1521.64
556.14	1542.12
556.33	1509.35
556.53	1538.02
556.73	1540.07
556.92	1513.45
557.12	1656.81
557.32	1533.93
557.51	1636.33
557.71	1570.79
557.90	1568.74
558.10	1605.61
558.30	1585.13
558.49	1511.40
558.69	1505.26
558.88	1552.36
559.08	1599.46
559.28	1470.44
559.47	1585.13
559.67	1531.88
559.86	1593.32
560.06	1560.55
560.26	1636.33
560.45	1587.18
560.65	1544.17
560.84	1634.28
561.04	1484.78
561.24	1560.55
561.43	1454.06
561.63	1568.74
561.82	1597.42
562.02	1566.70
562.22	1492.97
562.41	1515.50
562.61	1550.31
562.80	1507.30
563.00	1681.38
563.19	1613.80
563.39	1509.35
563.59	1568.74
563.78	1533.93
563.98	1474.54
564.17	1490.92
564.37	1495.02
564.56	1501.16
564.76	1505.26
564.96	1599.46
565.15	1548.26
565.35	1671.14
565.54	1570.79
565.74	1607.66
565.93	1572.84
566.13	1452.01
566.32	1556.46
566.52	1595.37
566.71	1550.31
566.91	1597.42
567.11	1527.78
567.30	1511.40
567.50	1585.13
567.69	1581.03
567.89	1540.07
568.08	1546.22
568.28	1552.36
568.47	1505.26
568.67	1517.54
568.86	1499.11
569.06	1648.61
569.25	1599.46
569.45	1542.12
569.64	1531.88
569.84	1550.31
570.04	1519.59
570.23	1505.26
570.43	1513.45
570.62	1626.09
570.82	1619.94
571.01	1568.74
571.21	1449.96
571.40	1445.87
571.60	1562.60
571.79	1581.03
571.99	1589.22
572.18	1486.83
572.38	1542.12
572.57	1589.22
572.77	1562.60
572.96	1554.41
573.16	1587.18
573.35	1535.98
573.55	1656.81
573.74	1597.42
573.94	1517.54
574.13	1515.50
574.33	1658.85
574.52	1669.09
574.71	1609.70
574.91	1640.42
575.10	1556.46
575.30	1550.31
575.49	1531.88
575.69	1425.39
575.88	1683.43
576.08	1636.33
576.27	1570.79
576.47	1581.03
576.66	1728.49
576.86	1523.69
577.05	1550.31
577.25	1576.94
577.44	1630.18
577.64	1597.42
577.83	1658.85
578.02	1468.39
578.22	1605.61
578.41	1581.03
578.61	1544.17
578.80	1460.20
579.00	1572.84
579.19	1566.70
579.39	1656.81
579.58	1576.94
579.77	1505.26
579.97	1693.67
580.16	1601.51
580.36	1617.90
580.55	1601.51
580.75	1538.02
580.94	1538.02
581.13	1630.18
581.33	1640.42
581.52	1599.46
581.72	1654.76
581.91	1652.71
582.11	1572.84
582.30	1578.98
582.49	1611.75
582.69	1669.09
582.88	1578.98
583.08	1609.70
583.27	1626.09
583.47	1523.69
583.66	1476.59
583.85	1472.49
584.05	1611.75
584.24	1611.75
584.44	1632.23
584.63	1611.75
584.82	1673.19
585.02	1738.73
585.21	1834.98
585.41	1812.45
585.60	1804.26
585.79	1746.92
585.99	1734.63
586.18	1777.64
586.37	2056.16
586.57	3203.02
586.76	9500.53
586.96	27612.76
587.15	43781.48
587.34	54473.92
587.54	60929.12
587.73	59585.65
587.93	43623.78
588.12	32173.59
588.31	25837.17
588.51	22257.32
588.70	19838.67
588.89	18427.62
589.09	16703.23
589.28	15275.80
589.47	13223.73
589.67	11099.99
589.86	8941.43
590.06	6719.39
590.25	4908.98
590.44	3850.18
590.64	2873.30
590.83	2363.36
591.02	2082.78
591.22	1927.14
591.41	1751.01
591.60	1689.57
591.80	1775.59
591.99	1621.99
592.18	1658.85
592.38	1640.42
592.57	1570.79
592.76	1613.80
592.96	1601.51
593.15	1628.14
593.34	1703.91
593.54	1628.14
593.73	1576.94
593.92	1630.18
594.12	1585.13
594.31	1591.27
594.50	1708.01
594.70	1644.52
594.89	1701.86
595.08	1531.88
595.28	1626.09
595.47	1687.53
595.66	1667.05
595.86	1523.69
596.05	1578.98
596.24	1605.61
596.43	1689.57
596.63	1722.34
596.82	1599.46
597.01	1581.03
597.21	1665.00
597.40	1640.42
597.59	1583.08
597.79	1642.47
597.98	1572.84
598.17	1538.02
598.36	1546.22
598.56	1652.71
598.75	1552.36
598.94	1624.04
599.14	1509.35
599.33	1486.83
599.52	1619.94
599.71	1605.61
599.91	1603.56
600.10	1585.13
600.29	1599.46
600.48	1576.94
600.68	1605.61
600.87	1658.85
601.06	1556.46
601.26	1501.16
601.45	1527.78
601.64	1542.12
601.83	1572.84
602.03	1488.87
602.22	1476.59
602.41	1544.17
602.60	1640.42
602.80	1603.56
602.99	1550.31
603.18	1599.46
603.37	1535.98
603.57	1574.89
603.76	1607.66
603.95	1605.61
604.14	1503.21
604.34	1529.83
604.53	1591.27
604.72	1626.09
604.91	1605.61
605.10	1630.18
605.30	1470.44
605.49	1613.80
605.68	1587.18
605.87	1529.83
606.07	1499.11
606.26	1552.36
606.45	1562.60
606.64	1499.11
606.84	1607.66
607.03	1566.70
607.22	1675.24
607.41	1587.18
607.60	1642.47
607.80	1673.19
607.99	1589.22
608.18	1562.60
608.37	1560.55
608.56	1531.88
608.76	1533.93
608.95	1634.28
609.14	1511.40
609.33	1665.00
609.52	1638.38
609.72	1660.90
609.91	1697.77
610.10	1626.09
610.29	1675.24
610.48	1615.85
610.68	1634.28
610.87	1505.26
611.06	1560.55
611.25	1540.07
611.44	1599.46
611.63	1554.41
611.83	1687.53
612.02	1544.17
612.21	1529.83
612.40	1449.96
612.59	1480.68
612.79	1482.73
612.98	1535.98
613.17	1591.27
613.36	1466.35
613.55	1683.43
613.74	1671.14
613.93	1683.43
614.13	1738.73
614.32	1814.50
614.51	1869.80
614.70	1671.14
614.89	1593.32
615.08	1732.58
615.28	1865.70
615.47	1681.38
615.66	1675.24
615.85	1585.13
616.04	1640.42
616.23	1603.56
616.42	1630.18
616.62	1605.61
616.81	1646.57
617.00	1607.66
617.19	1638.38
617.38	1542.12
617.57	1495.02
617.76	1587.18
617.95	1558.50
618.15	1482.73
618.34	1607.66
618.53	1515.50
618.72	1617.90
618.91	1576.94
619.10	1640.42
619.29	1556.46
619.48	1597.42
619.68	1570.79
619.87	1484.78
620.06	1484.78
620.25	1538.02
620.44	1497.07
620.63	1519.59
620.82	1615.85
621.01	1533.93
621.20	1505.26
621.39	1638.38
621.59	1589.22
621.78	1607.66
621.97	1554.41
622.16	1599.46
622.35	1597.42
622.54	1599.46
622.73	1613.80
622.92	1482.73
623.11	1570.79
623.30	1533.93
623.49	1574.89
623.68	1513.45
623.88	1558.50
624.07	1628.14
624.26	1499.11
624.45	1519.59
624.64	1572.84
624.83	1550.31
625.02	1515.50
625.21	1519.59
625.40	1513.45
625.59	1619.94
625.78	1544.17
625.97	1611.75
626.16	1589.22
626.35	1685.48
626.54	1619.94
626.74	1673.19
626.93	1574.89
627.12	1554.41
627.31	1585.13
627.50	1560.55
627.69	1558.50
627.88	1513.45
628.07	1568.74
628.26	1517.54
628.45	1452.01
628.64	1576.94
628.83	1587.18
629.02	1478.63
629.21	1605.61
629.40	1515.50
629.59	1564.65
629.78	1556.46
629.97	1503.21
630.16	1546.22
630.35	1527.78
630.54	1583.08
630.73	1558.50
630.92	1576.94
631.11	1488.87
631.30	1535.98
631.49	1621.99
631.68	1486.83
631.87	1552.36
632.06	1517.54
632.25	1615.85
632.44	1511.40
632.63	1566.70
632.82	1589.22
633.01	1581.03
633.20	1619.94
633.39	1593.32
633.58	1486.83
633.77	1695.72
633.96	1667.05
634.15	1681.38
634.34	1634.28
634.53	1527.78
634.72	1503.21
634.91	1529.83
635.10	1611.75
635.29	1531.88
635.48	1595.37
635.67	1554.41
635.86	1581.03
636.05	1535.98
636.24	1542.12
636.43	1515.50
636.62	1505.26
636.81	1431.53
637.00	1503.21
637.19	1548.26
637.38	1501.16
637.57	1542.12
637.76	1564.65
637.95	1644.52
638.14	1617.90
638.33	1671.14
638.52	1603.56
638.71	1515.50
638.89	1570.79
639.08	1714.15
639.27	1617.90
639.46	1695.72
639.65	1931.23
639.84	1914.85
640.03	2205.66
640.22	2195.42
640.41	2250.72
640.60	1941.47
640.79	1806.31
640.98	1730.53
641.17	1724.39
641.36	1740.77
641.55	1742.82
641.74	1644.52
641.92	1581.03
642.11	1603.56
642.30	1564.65
642.49	1562.60
642.68	1531.88
642.87	1683.43
643.06	1519.59
643.25	1626.09
643.44	1503.21
643.63	1568.74
643.82	1650.66
644.00	1478.63
644.19	1550.31
644.38	1597.42
644.57	1574.89
644.76	1521.64
644.95	1535.98
645.14	1595.37
645.33	1515.50
645.52	1540.07
645.71	1497.07
645.89	1509.35
646.08	1495.02
646.27	1521.64
646.46	1681.38
646.65	1470.44
646.84	1607.66
647.03	1486.83
647.22	1601.51
647.40	1538.02
647.59	1538.02
647.78	1458.15
647.97	1509.35
648.16	1523.69
648.35	1628.14
648.54	1554.41
648.73	1488.87
648.91	1605.61
649.10	1552.36
649.29	1452.01
649.48	1570.79
649.67	1519.59
649.86	1546.22
650.05	1576.94
650.23	1732.58
650.42	1726.44
650.61	1777.64
650.80	1746.92
650.99	1716.20
651.18	1673.19
651.36	1646.57
651.55	1548.26
651.74	1617.90
651.93	1599.46
652.12	1523.69
652.31	1564.65
652.49	1562.60
652.68	1617.90
652.87	1673.19
653.06	1601.51
653.25	1681.38
653.44	1576.94
653.62	1613.80
653.81	1578.98
654.00	1570.79
654.19	1587.18
654.38	1642.47
654.56	1576.94
654.75	1468.39
654.94	1585.13
655.13	1599.46
655.32	1476.59
655.51	1601.51
655.69	1591.27
655.88	1554.41
656.07	1478.63
656.26	1566.70
656.45	1503.21
656.63	1529.83
656.82	1505.26
657.01	1562.60
657.20	1441.77
657.38	1611.75
657.57	1560.55
657.76	1505.26
657.95	1587.18
658.14	1558.50
658.32	1554.41
658.51	1513.45
658.70	1542.12
658.89	1591.27
659.08	1531.88
659.26	1652.71
659.45	1587.18
659.64	1619.94
659.83	1495.02
660.01	1748.97
660.20	1656.81
660.39	1640.42
660.58	1540.07
660.76	1599.46
660.95	1490.92
661.14	1542.12
661.33	1439.72
661.51	1515.50
661.70	1521.64
661.89	1505.26
662.08	1560.55
662.26	1515.50
662.45	1533.93
662.64	1583.08
662.83	1578.98
663.01	1484.78
663.20	1468.39
663.39	1556.46
663.58	1583.08
663.76	1554.41
663.95	1615.85
664.14	1538.02
664.32	1544.17
664.51	1517.54
664.70	1456.11
664.89	1576.94
665.07	1511.40
665.26	1552.36
665.45	1517.54
665.64	1611.75
665.82	1531.88
666.01	1562.60
666.20	1535.98
666.38	1693.67
666.57	1621.99
666.76	1869.80
666.95	3030.99
667.13	7647.12
667.32	15425.30
667.51	19982.03
667.69	23510.68
667.88	25458.30
668.07	22085.30
668.25	15550.23
668.44	12336.96
668.63	9989.99
668.81	8439.68
669.00	7837.58
669.19	7186.32
669.38	6436.77
669.56	5650.35
669.75	4855.73
669.94	4095.94
670.12	3420.11
670.31	2801.62
670.50	2467.80
670.68	2115.55
670.87	1918.95
671.06	1855.46
671.24	1724.39
671.43	1712.10
671.62	1685.48
671.80	1615.85
671.99	1726.44
672.18	1585.13
672.36	1591.27
672.55	1572.84
672.74	1550.31
672.92	1529.83
673.11	1597.42
673.29	1452.01
673.48	1572.84
673.67	1581.03
673.85	1642.47
674.04	1511.40
674.23	1574.89
674.41	1605.61
674.60	1464.30
674.79	1482.73
674.97	1552.36
675.16	1581.03
675.34	1650.66
675.53	1587.18
675.72	1566.70
675.90	1640.42
676.09	1511.40
676.28	1578.98
676.46	1480.68
676.65	1583.08
676.83	1437.67
677.02	1533.93
677.21	1581.03
677.39	1613.80
677.58	1542.12
677.77	1513.45
677.95	1490.92
678.14	1583.08
678.32	1495.02
678.51	1466.35
678.70	1652.71
678.88	1597.42
679.07	1527.78
679.25	1490.92
679.44	1511.40
679.63	1515.50
679.81	1583.08
680.00	1587.18
680.18	1583.08
680.37	1628.14
680.55	1570.79
680.74	1439.72
680.93	1443.82
681.11	1560.55
681.30	1568.74
681.48	1521.64
681.67	1562.60
681.85	1564.65
682.04	1540.07
682.23	1535.98
682.41	1492.97
682.60	1509.35
682.78	1538.02
682.97	1462.25
683.15	1593.32
683.34	1552.36
683.53	1613.80
683.71	1445.87
683.90	1550.31
684.08	1609.70
684.27	1519.59
684.45	1550.31
684.64	1591.27
684.82	1472.49
685.01	1558.50
685.19	1517.54
685.38	1576.94
685.57	1521.64
685.75	1458.15
685.94	1505.26
686.12	1527.78
686.31	1499.11
686.49	1574.89
686.68	1488.87
686.86	1583.08
687.05	1468.39
687.23	1578.98
687.42	1519.59
687.60	1478.63
687.79	1599.46
687.97	1554.41
688.16	1574.89
688.34	1599.46
688.53	1417.19
688.71	1560.55
688.90	1603.56
689.08	1456.11
689.27	1566.70
689.45	1564.65
689.64	1503.21
689.82	1576.94
690.01	1552.36
690.19	1488.87
690.38	1568.74
690.56	1646.57
690.75	1556.46
690.93	1505.26
691.12	1523.69
691.30	1589.22
691.49	1505.26
691.67	1474.54
691.86	1621.99
692.04	1484.78
692.23	1501.16
692.41	1470.44
692.60	1701.86
692.78	1624.04
692.97	1615.85
693.15	1601.51
693.34	1652.71
693.52	1656.81
693.71	1486.83
693.89	1484.78
694.08	1523.69
694.26	1621.99
694.44	1583.08
694.63	1599.46
694.81	1501.16
695.00	1527.78
695.18	1658.85
695.37	1652.71
695.55	1558.50
695.74	1558.50
695.92	1538.02
696.10	1578.98
696.29	1501.16
696.47	1513.45
696.66	1456.11
696.84	1478.63
697.03	1521.64
697.21	1613.80
697.40	2013.15
697.58	1587.18
697.76	1515.50
697.95	1527.78
698.13	1486.83
698.32	1535.98
698.50	1583.08
698.68	1576.94
698.87	1556.46
699.05	1609.70
699.24	1589.22
699.42	1542.12
699.61	1474.54
699.79	1568.74
699.97	1581.03
700.16	1521.64
700.34	1515.50
700.53	1513.45
700.71	1648.61
700.89	1626.09
701.08	1501.16
701.26	1509.35
701.45	1970.15
701.63	1548.26
701.81	1535.98
702.00	1550.31
702.18	1576.94
702.37	1517.54
702.55	1669.09
702.73	1671.14
702.92	1693.67
703.10	1837.03
703.28	1828.84
703.47	1724.39
703.65	1746.92
703.84	1683.43
704.02	1538.02
704.20	1638.38
704.39	1540.07
704.57	1568.74
704.75	1632.23
704.94	1531.88
705.12	1568.74
705.30	1601.51
705.49	1830.88
705.67	2848.72
705.86	7358.35
706.04	14532.39
706.22	18579.17
706.41	21427.90
706.59	22765.22
706.77	20795.07
706.96	14880.54
707.14	11657.04
707.32	9731.95
707.51	8613.76
707.69	7499.66
707.87	6698.91
708.06	5722.02
708.24	4876.21
708.42	3649.48
708.61	2953.17
708.79	2242.53
708.97	1953.76
709.16	1787.88
709.34	1679.33
709.52	1589.22
709.71	1574.89
709.89	1593.32
710.07	1525.74
710.26	1628.14
710.44	1601.51
710.62	1624.04
710.80	1531.88
710.99	1589.22
711.17	1544.17
711.35	1482.73
711.54	1513.45
711.72	1587.18
711.90	1505.26
712.09	1550.31
712.27	1560.55
712.45	1562.60
712.63	1460.20
712.82	1527.78
713.00	1505.26
713.18	1515.50
713.37	1587.18
713.55	1593.32
713.73	1603.56
713.91	1581.03
714.10	1452.01
714.28	1564.65
714.46	1507.30
714.65	1519.59
714.83	1546.22
715.01	1521.64
715.19	1615.85
715.38	1501.16
715.56	1566.70
715.74	1495.02
715.92	1501.16
716.11	1640.42
716.29	1411.05
716.47	1501.16
716.65	1507.30
716.84	1472.49
717.02	1591.27
717.20	1429.48
717.38	1568.74
717.57	1497.07
717.75	1644.52
717.93	1449.96
718.11	1566.70
718.30	1519.59
718.48	1544.17
718.66	1542.12
718.84	1515.50
719.03	1564.65
719.21	1542.12
719.39	1628.14
719.57	1544.17
719.75	1583.08
719.94	1497.07
720.12	1478.63
720.30	1581.03
720.48	1542.12
720.67	1542.12
720.85	1445.87
721.03	1546.22
721.21	1550.31
721.39	1624.04
721.58	1511.40
721.76	1560.55
721.94	1656.81
722.12	1544.17
722.30	1619.94
722.49	1523.69
722.67	1556.46
722.85	1535.98
723.03	1462.25
723.21	1531.88
723.40	1501.16
723.58	1556.46
723.76	1488.87
723.94	1607.66
724.12	1593.32
724.30	1533.93
724.49	1689.57
724.67	1611.75
724.85	1671.14
725.03	1621.99
725.21	1552.36
725.40	1578.98
725.58	1574.89
725.76	1540.07
725.94	1619.94
726.12	1492.97
726.30	1499.11
726.49	1595.37
726.67	1572.84
726.85	1572.84
727.03	1576.94
727.21	1714.15
727.39	2117.60
727.57	3209.17
727.76	4372.41
727.94	4863.93
728.12	5054.39
728.30	5144.50
728.48	4280.25
728.66	3499.98
728.84	3243.98
729.03	2934.74
729.21	2605.02
729.39	2271.20
729.57	2021.35
729.75	1970.15
729.93	1710.05
730.11	1718.25
730.30	1632.23
730.48	1578.98
730.66	1656.81
730.84	1613.80
731.02	1476.59
731.20	1449.96
731.38	1511.40
731.56	1460.20
731.74	1517.54
731.93	1599.46
732.11	1603.56
732.29	1533.93
732.47	1548.26
732.65	1562.60
732.83	1640.42
733.01	1599.46
733.19	1531.88
733.37	1497.07
733.56	1601.51
733.74	1511.40
733.92	1591.27
734.10	1454.06
734.28	1460.20
734.46	1492.97
734.64	1499.11
734.82	1574.89
735.00	1521.64
735.18	1488.87
735.36	1519.59
735.54	1501.16
735.73	1529.83
735.91	1525.74
736.09	1523.69
736.27	1595.37
736.45	1568.74
736.63	1441.77
736.81	1505.26
736.99	1591.27
737.17	1513.45
737.35	1529.83
737.53	1583.08
737.71	1509.35
737.89	1538.02
738.07	1486.83
738.25	1492.97
738.43	1464.30
738.61	1556.46
738.80	1490.92
738.98	1574.89
739.16	1538.02
739.34	1468.39
739.52	1601.51
739.70	1513.45
739.88	1589.22
740.06	1611.75
740.24	1415.15
740.42	1648.61
740.60	1470.44
740.78	1437.67
740.96	1495.02
741.14	1484.78
741.32	1505.26
741.50	1517.54
741.68	1574.89
741.86	1558.50
742.04	1474.54
742.22	1517.54
742.40	1517.54
742.58	1462.25
742.76	1574.89
742.94	1538.02
743.12	1421.29
743.30	1542.12
743.48	1615.85
743.66	1533.93
743.84	1611.75
744.02	1564.65
744.20	1470.44
744.38	1529.83
744.56	1486.83
744.74	1601.51
744.92	1501.16
745.10	1595.37
745.28	1621.99
745.46	1572.84
745.64	1509.35
745.82	1566.70
746.00	1511.40
746.18	1566.70
746.36	1468.39
746.54	1558.50
746.72	1535.98
746.90	1517.54
747.08	1611.75
747.26	1427.43
747.44	1546.22
747.62	1626.09
747.80	1533.93
747.98	1564.65
748.15	1495.02
748.33	1593.32
748.51	1581.03
748.69	1626.09
748.87	1544.17
749.05	1513.45
749.23	1662.95
749.41	1538.02
749.59	1519.59
749.77	1499.11
749.95	1513.45
750.13	1501.16
750.31	1636.33
750.49	1538.02
750.67	1535.98
750.85	1609.70
751.03	1550.31
751.20	1587.18
751.38	1591.27
751.56	1578.98
751.74	1529.83
751.92	1517.54
752.10	1548.26
752.28	1589.22
752.46	1540.07
752.64	1587.18
752.82	1458.15
753.00	1585.13
753.18	1484.78
753.35	1558.50
753.53	1597.42
753.71	1521.64
753.89	1617.90
754.07	1472.49
754.25	1538.02
754.43	1603.56
754.61	1452.01
754.79	1576.94
754.97	1595.37
755.14	1505.26
755.32	1466.35
755.50	1486.83
755.68	1574.89
755.86	1495.02
756.04	1540.07
756.22	1439.72
756.40	1560.55
756.57	1583.08
756.75	1585.13
756.93	1646.57
757.11	1609.70
757.29	1601.51
757.47	1478.63
757.65	1468.39
757.82	1468.39
758.00	1525.74
758.18	1566.70
758.36	1519.59
758.54	1599.46
758.72	1464.30
758.90	1560.55
759.07	1599.46
759.25	1509.35
759.43	1521.64
759.61	1497.07
759.79	1900.52
759.97	1548.26
760.15	1425.39
760.32	1488.87
760.50	1574.89
760.68	1544.17
760.86	1460.20
761.04	1574.89
761.22	1527.78
761.39	1550.31
761.57	1527.78
761.75	1583.08
761.93	1552.36
762.11	1497.07
762.28	1570.79
762.46	1492.97
762.64	1558.50
762.82	1550.31
763.00	1550.31
763.18	1558.50
763.35	1488.87
763.53	1499.11
763.71	1472.49
763.89	1568.74
764.07	1538.02
764.24	1601.51
764.42	1581.03
764.60	1576.94
764.78	1531.88
764.96	1511.40
765.13	1482.73
765.31	1583.08
765.49	1552.36
765.67	1492.97
765.84	1474.54
766.02	1476.59
766.20	1484.78
766.38	1564.65
766.56	1650.66
766.73	1550.31
766.91	1474.54
767.09	1513.45
767.27	1548.26
767.44	1544.17
767.62	1529.83
767.80	1619.94
767.98	1533.93
768.15	1578.98
768.33	1558.50
768.51	1574.89
768.69	1578.98
768.87	1519.59
769.04	1572.84
769.22	1648.61
769.40	1585.13
769.58	1648.61
769.75	1558.50
769.93	1603.56
770.11	1527.78
770.28	1535.98
770.46	1540.07
770.64	1474.54
770.82	1550.31
770.99	1521.64
771.17	1523.69
771.35	1505.26
771.53	1566.70
771.70	1499.11
771.88	1429.48
772.06	1525.74
772.23	1492.97
772.41	1611.75
772.59	1456.11
772.77	1462.25
772.94	1624.04
773.12	1570.79
773.30	1501.16
773.47	1507.30
773.65	1552.36
773.83	1624.04
774.01	1576.94
774.18	1478.63
774.36	1523.69
774.54	1456.11
774.71	1517.54
774.89	1542.12
775.07	1476.59
775.24	1533.93
775.42	1578.98
775.60	1626.09
775.78	1460.20
775.95	1445.87
776.13	1517.54
776.31	1462.25
776.48	1495.02
776.66	1484.78
776.84	1497.07
777.01	1495.02
777.19	1492.97
777.37	1521.64
777.54	1509.35
777.72	1683.43
777.90	1617.90
778.07	1495.02
778.25	1708.01
778.43	1490.92
778.60	1538.02
778.78	1599.46
778.96	1556.46
779.13	1554.41
779.31	1564.65
779.49	1492.97
779.66	1505.26
779.84	1517.54
780.01	1589.22
780.19	1466.35
780.37	1591.27
780.54	1554.41
780.72	1452.01
780.90	1535.98
781.07	1546.22
781.25	1460.20
781.43	1533.93
781.60	1523.69
781.78	1607.66
781.95	1429.48
782.13	1527.78
782.31	1538.02
782.48	1486.83
782.66	1581.03
782.83	1538.02
783.01	1554.41
783.19	1566.70
783.36	1492.97
783.54	1495.02
783.72	1464.30
783.89	1499.11
784.07	1515.50
784.24	1570.79
784.42	1613.80
784.60	1560.55
784.77	1538.02
784.95	1499.11
785.12	1525.74
785.30	1482.73
785.47	1527.78
785.65	1480.68
785.83	1486.83
786.00	1533.93
786.18	1546.22
786.35	1552.36
786.53	1499.11
786.71	1568.74
786.88	1552.36
787.06	1533.93
787.23	1505.26
787.41	1492.97
787.58	1589.22
787.76	1452.01
787.94	1517.54
788.11	1583.08
788.29	1497.07
788.46	1488.87
788.64	1503.21
788.81	1542.12
788.99	1472.49
789.16	1478.63
789.34	1554.41
789.52	1540.07
789.69	1574.89
789.87	1474.54
790.04	1531.88
790.22	1458.15
790.39	1634.28
790.57	1482.73
790.74	1531.88
790.92	1595.37
791.09	1538.02
791.27	1550.31
791.44	1554.41
791.62	1435.63
791.79	1605.61
791.97	1538.02
792.15	1701.86
792.32	1558.50
792.50	1548.26
792.67	1644.52
792.85	1581.03
793.02	1517.54
793.20	1509.35
793.37	1507.30
793.55	1544.17
793.72	1476.59
793.90	1509.35
794.07	1466.35
794.25	1525.74
794.42	1488.87
794.60	1497.07
794.77	1521.64
794.95	1564.65
795.12	1570.79
795.30	1460.20
795.47	1492.97
795.65	1671.14
795.82	1583.08
796.00	1433.58
796.17	1474.54
796.34	1572.84
796.52	1495.02
796.69	1597.42
796.87	1574.89
797.04	1517.54
797.22	1517.54
797.39	1484.78
797.57	1525.74
797.74	1523.69
797.92	1560.55
798.09	1495.02
798.27	1566.70
798.44	1501.16
798.62	1490.92
798.79	1538.02
798.96	1521.64
799.14	1492.97
799.31	1576.94
799.49	1531.88
799.66	1568.74
799.84	1587.18
800.01	1476.59
800.19	1492.97
800.36	1452.01
800.53	1513.45
800.71	1603.56
800.88	1619.94
801.06	1468.39
801.23	1521.64
801.41	1558.50
801.58	1572.84
801.75	1449.96
801.93	1546.22
802.10	1578.98
802.28	1540.07
802.45	1564.65
802.63	1570.79
802.80	1636.33
802.97	1570.79
803.15	1517.54
803.32	1460.20
803.50	1476.59
803.67	1429.48
803.84	1509.35
804.02	1599.46
804.19	1538.02
804.37	1419.24
804.54	1472.49
804.71	1554.41
804.89	1562.60
805.06	1462.25
805.24	1466.35
805.41	1503.21
805.58	1560.55
805.76	1679.33
805.93	1431.53
806.10	1611.75
806.28	1574.89
806.45	1531.88
806.63	1583.08
806.80	1535.98
806.97	1589.22
807.15	1503.21
807.32	1535.98
807.49	1574.89
807.67	1525.74
807.84	1517.54
808.01	1548.26
808.19	1630.18
808.36	1675.24
808.54	1544.17
808.71	1527.78
808.88	1566.70
809.06	1603.56
809.23	1619.94
809.40	1495.02
809.58	1581.03
809.75	1484.78
809.92	1503.21
810.10	1613.80
810.27	1609.70
810.44	1550.31
810.62	1581.03
810.79	1566.70
810.96	1472.49
811.14	1492.97
811.31	1581.03
811.48	1521.64
811.66	1503.21
811.83	1535.98
812.00	1576.94
812.18	1589.22
812.35	1644.52
812.52	1492.97
812.69	1525.74
812.87	1566.70
813.04	1484.78
813.21	1599.46
813.39	1513.45
813.56	1511.40
813.73	1591.27
813.91	1544.17
814.08	1538.02
814.25	1550.31
814.42	1452.01
814.60	1636.33
814.77	1652.71
814.94	1478.63
815.12	1492.97
815.29	1589.22
815.46	1503.21
815.63	1509.35
815.81	1482.73
815.98	1519.59
816.15	1535.98
816.33	1556.46
816.50	1486.83
816.67	1564.65
816.84	1529.83
817.02	1525.74
817.19	1562.60
817.36	1556.46
817.53	1578.98
817.71	1523.69
817.88	1558.50
818.05	1523.69
818.22	1495.02
818.40	1611.75
818.57	1482.73
818.74	1527.78
818.91	1556.46
819.09	1474.54
819.26	1595.37
819.43	1462.25
819.60	1513.45
819.78	1591.27
819.95	1574.89
820.12	1476.59
820.29	1607.66
820.47	1550.31
820.64	1550.31
820.81	1511.40
820.98	1458.15
821.15	1505.26
821.33	1488.87
821.50	1449.96
821.67	1531.88
821.84	1441.77
822.02	1591.27
822.19	1628.14
822.36	1499.11
822.53	1519.59
822.70	1492.97
822.88	1544.17
823.05	1644.52
823.22	1535.98
823.39	1566.70
823.56	1488.87
823.74	1574.89
823.91	1501.16
824.08	1548.26
824.25	1527.78
824.42	1712.10
824.60	1490.92
824.77	1558.50
824.94	1550.31
825.11	1589.22
825.28	1388.52
825.45	1529.83
825.63	1527.78
825.80	1476.59
825.97	1560.55
826.14	1519.59
826.31	1462.25
826.48	1548.26
826.66	1519.59
826.83	1533.93
827.00	1503.21
827.17	1601.51
827.34	1538.02
827.51	1488.87
827.69	1546.22
827.86	1462.25
828.03	1552.36
828.20	1562.60
828.37	1515.50
828.54	1535.98
828.71	1507.30
828.89	1638.38
829.06	1478.63
829.23	1599.46
829.40	1519.59
829.57	1476.59
829.74	1535.98
829.91	1466.35
830.09	1466.35
830.26	1525.74
830.43	1595.37
830.60	1464.30
830.77	1562.60
830.94	1705.96
831.11	1554.41
831.28	1583.08
831.46	1617.90
831.63	1533.93
831.80	1593.32
831.97	1562.60
832.14	1478.63
832.31	1568.74
832.48	1578.98
832.65	1525.74
832.82	1562.60
832.99	1550.31
833.17	1513.45
833.34	1632.23
833.51	1538.02
833.68	1476.59
833.85	1519.59
834.02	1513.45
834.19	1447.91
834.36	1443.82
834.53	1527.78
834.70	1621.99
834.87	1515.50
835.04	1542.12
835.22	1505.26
835.39	1517.54
835.56	1486.83
835.73	1488.87
835.90	1566.70
836.07	1427.43
836.24	1513.45
836.41	1505.26
836.58	1466.35
836.75	1476.59
836.92	1517.54
837.09	1511.40
837.26	1550.31
837.43	1527.78
837.60	1460.20
837.77	1544.17
837.94	1628.14
838.12	1667.05
838.29	1482.73
838.46	1576.94
838.63	1540.07
838.80	1640.42
838.97	1591.27
839.14	1509.35
839.31	1515.50
839.48	1535.98
839.65	1548.26
839.82	1585.13
839.99	1544.17
840.16	1540.07
840.33	1478.63
840.50	1509.35
840.67	1505.26
840.84	1535.98
841.01	1574.89
841.18	1505.26
841.35	1585.13
841.52	1552.36
841.69	1636.33
841.86	1550.31
842.03	1484.78
842.20	1462.25
842.37	1515.50
842.54	1509.35
842.71	1517.54
842.88	1482.73
843.05	1597.42
843.22	1552.36
843.39	1509.35
843.56	1482.73
843.73	1480.68
843.90	1574.89
844.07	1595.37
844.24	1626.09
844.41	1511.40
844.58	1529.83
844.75	1525.74
844.92	1527.78
845.09	1529.83
845.26	1482.73
845.43	1574.89
845.60	1554.41
845.77	1632.23
845.94	1544.17
846.10	1601.51
846.27	1425.39
846.44	1560.55
846.61	1482.73
846.78	1560.55
846.95	1552.36
847.12	1581.03
847.29	1589.22
847.46	1513.45
847.63	1558.50
847.80	1458.15
847.97	1517.54
848.14	1556.46
848.31	1527.78
848.48	1452.01
848.65	1478.63
848.82	1587.18
848.98	1587.18
849.15	1548.26
849.32	1609.70
849.49	1527.78
849.66	1554.41
849.83	1603.56
850.00	1540.07
850.17	1519.59
850.34	1468.39
850.51	1449.96
850.68	1562.60
850.85	1691.62
851.01	1599.46
851.18	1581.03
851.35	1521.64
851.52	1587.18
851.69	1517.54
851.86	1468.39
852.03	1564.65
852.20	1642.47
852.37	1521.64
852.53	1433.58
852.70	1538.02
852.87	1484.78
853.04	1558.50
853.21	1523.69
853.38	1552.36
853.55	1603.56
853.72	1589.22
853.89	1535.98
854.05	1490.92
854.22	1568.74
854.39	1501.16
854.56	1540.07
854.73	1576.94
854.90	1472.49
855.07	1550.31
855.23	1558.50
855.40	1464.30
855.57	1595.37
855.74	1437.67
855.91	1630.18
856.08	1492.97
856.25	1515.50
856.41	1513.45
856.58	1542.12
856.75	1523.69
856.92	1468.39
857.09	1609.70
857.26	1464.30
857.42	1509.35
857.59	1626.09
857.76	1474.54
857.93	1587.18
858.10	1533.93
858.27	1499.11
858.43	1554.41
858.60	1527.78
858.77	1470.44
858.94	1544.17
859.11	1578.98
859.27	1470.44
859.44	1601.51
859.61	1589.22
859.78	1574.89
859.95	1544.17
860.12	1484.78
860.28	1628.14
860.45	1550.31
860.62	1509.35
860.79	1533.93
860.95	1476.59
861.12	1507.30
861.29	1490.92
861.46	1552.36
861.63	1468.39
861.79	1538.02
861.96	1503.21
862.13	1558.50
862.30	1564.65
862.47	1574.89
862.63	1576.94
862.80	1517.54
862.97	1595.37
863.14	1540.07
863.30	1595.37
863.47	1525.74
863.64	1517.54
863.81	1527.78
863.97	1568.74
864.14	1503.21
864.31	1576.94
864.48	1542.12
864.65	1540.07
864.81	1517.54
864.98	1562.60
865.15	1523.69
865.32	1560.55
865.48	1576.94
865.65	1523.69
865.82	1525.74
865.98	1624.04
866.15	1562.60
866.32	1509.35
866.49	1445.87
866.65	1632.23
866.82	1566.70
866.99	1501.16
867.16	1503.21
867.32	1501.16
867.49	1497.07
867.66	1525.74
867.83	1513.45
867.99	1421.29
868.16	1517.54
868.33	1472.49
868.49	1523.69
868.66	1603.56
868.83	1558.50
868.99	1550.31
869.16	1566.70
869.33	1583.08
869.50	1587.18
869.66	1589.22
869.83	1515.50
870.00	1492.97
870.16	1544.17
870.33	1511.40
870.50	1558.50
870.66	1478.63
870.83	1570.79
871.00	1540.07
871.17	1550.31
871.33	1544.17
871.50	1521.64
871.67	1529.83
871.83	1454.06
872.00	1615.85
872.17	1484.78
872.33	1617.90
872.50	1615.85
872.67	1495.02
872.83	1480.68
873.00	1548.26
873.17	1458.15
873.33	1527.78
873.50	1548.26
873.67	1587.18
873.83	1501.16
874.00	1470.44
874.16	1513.45
874.33	1570.79
874.50	1454.06
874.66	1576.94
874.83	1527.78
875.00	1568.74
875.16	1562.60
875.33	1560.55
875.50	1386.47
875.66	1456.11
875.83	1484.78
875.99	1544.17
876.16	1560.55
876.33	1421.29
876.49	1415.15
876.66	1624.04
876.83	1542.12
876.99	1480.68
877.16	1517.54
877.32	1519.59
877.49	1533.93
877.66	1613.80
877.82	1640.42
877.99	1558.50
878.15	1581.03
878.32	1566.70
878.49	1515.50
878.65	1509.35
878.82	1482.73
878.98	1552.36
879.15	1587.18
879.32	1527.78
879.48	1583.08
879.65	1613.80
879.81	1480.68
879.98	1505.26
880.15	1501.16
880.31	1509.35
880.48	1417.19
880.64	1570.79
880.81	1593.32
880.97	1589.22
881.14	1673.19
881.31	1531.88
881.47	1605.61
881.64	1560.55
881.80	1433.58
881.97	1568.74
882.13	1585.13
882.30	1417.19
882.47	1581.03
882.63	1513.45
882.80	1529.83
882.96	1521.64
883.13	1626.09
883.29	1574.89
883.46	1535.98
883.62	1605.61
883.79	1578.98
883.95	1513.45
884.12	1654.76
884.29	1609.70
884.45	1576.94
884.62	1646.57
884.78	1458.15
884.95	1613.80
885.11	1501.16
885.28	1488.87
885.44	1503.21
885.61	1538.02
885.77	1609.70
885.94	1589.22
886.10	1566.70
886.27	1556.46
886.43	1652.71
886.60	1619.94
886.76	1519.59
886.93	1538.02
887.09	1595.37
887.26	1433.58
887.42	1503.21
887.59	1576.94
887.75	1619.94
887.92	1595.37
888.08	1513.45
888.25	1587.18
888.41	1556.46
888.58	1552.36
888.74	1591.27
888.91	1478.63
>>>>>End Processed Spectral Data<<<<<
