SpectraSuite Data File
++++++++++++++++++++++++++++++++++++
Date: Tue May 03 12:55:53 CEST 2016
User: root
Dark Spectrum Present: No
Reference Spectrum Present: No
Number of Sampled Component Spectra: 1
Spectrometers: USB4C02835
Integration Time (usec): 100000 (USB4C02835)
Spectra Averaged: 1 (USB4C02835)
Boxcar Smoothing: 0 (USB4C02835)
Correct for Electrical Dark: No (USB4C02835)
Strobe/Lamp Enabled: No (USB4C02835)
Correct for Detector Non-linearity: No (USB4C02835)
Correct for Stray Light: No (USB4C02835)
Number of Pixels in Processed Spectrum: 3648
>>>>>Begin Processed Spectral Data<<<<<
177.47	1380.33
177.69	1380.33
177.91	1380.33
178.13	1341.42
178.36	1355.76
178.58	1556.46
178.80	1544.17
179.02	1462.25
179.24	1525.74
179.46	1607.66
179.68	1578.98
179.90	1503.21
180.13	1505.26
180.35	1589.22
180.57	1540.07
180.79	1505.26
181.01	1562.60
181.23	1517.54
181.45	1648.61
181.67	1558.50
181.90	1560.55
182.12	1554.41
182.34	1490.92
182.56	1562.60
182.78	1566.70
183.00	1591.27
183.22	1517.54
183.44	1400.81
183.66	1677.29
183.89	1566.70
184.11	1540.07
184.33	1599.46
184.55	1515.50
184.77	1568.74
184.99	1568.74
185.21	1503.21
185.43	1628.14
185.65	1509.35
185.87	1544.17
186.10	1560.55
186.32	1619.94
186.54	1492.97
186.76	1568.74
186.98	1568.74
187.20	1566.70
187.42	1527.78
187.64	1499.11
187.86	1441.77
188.08	1626.09
188.30	1509.35
188.52	1507.30
188.75	1667.05
188.97	1556.46
189.19	1525.74
189.41	1474.54
189.63	1503.21
189.85	1574.89
190.07	1472.49
190.29	1466.35
190.51	1589.22
190.73	1431.53
190.95	1650.66
191.17	1533.93
191.39	1468.39
191.61	1552.36
191.84	1497.07
192.06	1554.41
192.28	1406.95
192.50	1699.81
192.72	1552.36
192.94	1513.45
193.16	1525.74
193.38	1574.89
193.60	1480.68
193.82	1540.07
194.04	1562.60
194.26	1527.78
194.48	1546.22
194.70	1509.35
194.92	1456.11
195.14	1529.83
195.36	1558.50
195.58	1540.07
195.80	1544.17
196.02	1462.25
196.24	1562.60
196.46	1581.03
196.69	1452.01
196.91	1609.70
197.13	1560.55
197.35	1501.16
197.57	1566.70
197.79	1488.87
198.01	1621.99
198.23	1615.85
198.45	1474.54
198.67	1454.06
198.89	1525.74
199.11	1572.84
199.33	1497.07
199.55	1357.80
199.77	1497.07
199.99	1525.74
200.21	1552.36
200.43	1535.98
200.65	1484.78
200.87	1443.82
201.09	1466.35
201.31	1517.54
201.53	1484.78
201.75	1538.02
201.97	1535.98
202.19	1593.32
202.41	1615.85
202.63	1564.65
202.85	1562.60
203.07	1542.12
203.29	1517.54
203.51	1570.79
203.73	1550.31
203.95	1603.56
204.17	1527.78
204.39	1568.74
204.61	1468.39
204.83	1613.80
205.05	1599.46
205.27	1552.36
205.49	1673.19
205.71	1509.35
205.93	1525.74
206.15	1511.40
206.37	1511.40
206.59	1531.88
206.81	1550.31
207.03	1439.72
207.25	1460.20
207.47	1624.04
207.69	1538.02
207.91	1564.65
208.13	1675.24
208.34	1449.96
208.56	1505.26
208.78	1568.74
209.00	1535.98
209.22	1548.26
209.44	1564.65
209.66	1497.07
209.88	1515.50
210.10	1572.84
210.32	1624.04
210.54	1667.05
210.76	1538.02
210.98	1574.89
211.20	1486.83
211.42	1552.36
211.64	1585.13
211.86	1460.20
212.08	1533.93
212.30	1566.70
212.52	1570.79
212.74	1540.07
212.96	1540.07
213.17	1554.41
213.39	1560.55
213.61	1624.04
213.83	1591.27
214.05	1462.25
214.27	1538.02
214.49	1554.41
214.71	1570.79
214.93	1689.57
215.15	1501.16
215.37	1609.70
215.59	1497.07
215.81	1578.98
216.03	1531.88
216.24	1517.54
216.46	1515.50
216.68	1632.23
216.90	1533.93
217.12	1591.27
217.34	1558.50
217.56	1544.17
217.78	1615.85
218.00	1519.59
218.22	1583.08
218.44	1488.87
218.66	1499.11
218.87	1597.42
219.09	1509.35
219.31	1585.13
219.53	1587.18
219.75	1458.15
219.97	1540.07
220.19	1482.73
220.41	1474.54
220.63	1589.22
220.85	1542.12
221.06	1527.78
221.28	1556.46
221.50	1492.97
221.72	1505.26
221.94	1589.22
222.16	1560.55
222.38	1593.32
222.60	1495.02
222.82	1447.91
223.03	1468.39
223.25	1460.20
223.47	1585.13
223.69	1701.86
223.91	1492.97
224.13	1492.97
224.35	1570.79
224.57	1525.74
224.78	1505.26
225.00	1558.50
225.22	1445.87
225.44	1558.50
225.66	1658.85
225.88	1490.92
226.10	1546.22
226.32	1497.07
226.53	1609.70
226.75	1523.69
226.97	1556.46
227.19	1535.98
227.41	1447.91
227.63	1511.40
227.85	1443.82
228.06	1488.87
228.28	1548.26
228.50	1505.26
228.72	1433.58
228.94	1460.20
229.16	1402.86
229.37	1478.63
229.59	1544.17
229.81	1566.70
230.03	1454.06
230.25	1513.45
230.47	1478.63
230.69	1464.30
230.90	1576.94
231.12	1517.54
231.34	1548.26
231.56	1585.13
231.78	1533.93
232.00	1503.21
232.21	1517.54
232.43	1439.72
232.65	1390.57
232.87	1470.44
233.09	1533.93
233.30	1462.25
233.52	1619.94
233.74	1495.02
233.96	1548.26
234.18	1484.78
234.40	1488.87
234.61	1597.42
234.83	1509.35
235.05	1472.49
235.27	1642.47
235.49	1630.18
235.70	1533.93
235.92	1720.29
236.14	1523.69
236.36	1593.32
236.58	1492.97
236.79	1638.38
237.01	1517.54
237.23	1558.50
237.45	1634.28
237.67	1517.54
237.88	1583.08
238.10	1619.94
238.32	1460.20
238.54	1466.35
238.76	1583.08
238.97	1488.87
239.19	1484.78
239.41	1544.17
239.63	1519.59
239.85	1501.16
240.06	1554.41
240.28	1525.74
240.50	1626.09
240.72	1503.21
240.93	1542.12
241.15	1527.78
241.37	1548.26
241.59	1609.70
241.81	1654.76
242.02	1527.78
242.24	1595.37
242.46	1517.54
242.68	1492.97
242.89	1523.69
243.11	1593.32
243.33	1550.31
243.55	1576.94
243.76	1564.65
243.98	1456.11
244.20	1562.60
244.42	1548.26
244.64	1615.85
244.85	1462.25
245.07	1558.50
245.29	1562.60
245.51	1525.74
245.72	1523.69
245.94	1578.98
246.16	1505.26
246.38	1628.14
246.59	1542.12
246.81	1527.78
247.03	1550.31
247.24	1443.82
247.46	1531.88
247.68	1535.98
247.90	1538.02
248.11	1509.35
248.33	1607.66
248.55	1486.83
248.77	1523.69
248.98	1576.94
249.20	1601.51
249.42	1509.35
249.64	1566.70
249.85	1566.70
250.07	1535.98
250.29	1564.65
250.50	1523.69
250.72	1464.30
250.94	1505.26
251.16	1656.81
251.37	1626.09
251.59	1570.79
251.81	1595.37
252.02	1624.04
252.24	1568.74
252.46	1665.00
252.68	1511.40
252.89	1527.78
253.11	1501.16
253.33	1589.22
253.54	1603.56
253.76	1480.68
253.98	1527.78
254.20	1544.17
254.41	1472.49
254.63	1591.27
254.85	1560.55
255.06	1499.11
255.28	1603.56
255.50	1486.83
255.71	1499.11
255.93	1503.21
256.15	1589.22
256.36	1587.18
256.58	1509.35
256.80	1550.31
257.02	1509.35
257.23	1513.45
257.45	1587.18
257.67	1499.11
257.88	1509.35
258.10	1505.26
258.32	1488.87
258.53	1605.61
258.75	1574.89
258.97	1562.60
259.18	1603.56
259.40	1505.26
259.62	1570.79
259.83	1642.47
260.05	1535.98
260.27	1685.48
260.48	1529.83
260.70	1529.83
260.92	1613.80
261.13	1517.54
261.35	1499.11
261.57	1554.41
261.78	1535.98
262.00	1574.89
262.22	1531.88
262.43	1445.87
262.65	1550.31
262.86	1456.11
263.08	1714.15
263.30	1497.07
263.51	1492.97
263.73	1542.12
263.95	1658.85
264.16	1560.55
264.38	1478.63
264.60	1591.27
264.81	1542.12
265.03	1615.85
265.25	1648.61
265.46	1540.07
265.68	1519.59
265.89	1560.55
266.11	1546.22
266.33	1476.59
266.54	1527.78
266.76	1519.59
266.98	1519.59
267.19	1603.56
267.41	1562.60
267.62	1560.55
267.84	1550.31
268.06	1562.60
268.27	1525.74
268.49	1599.46
268.70	1607.66
268.92	1515.50
269.14	1447.91
269.35	1437.67
269.57	1462.25
269.79	1503.21
270.00	1509.35
270.22	1542.12
270.43	1505.26
270.65	1472.49
270.87	1540.07
271.08	1503.21
271.30	1540.07
271.51	1578.98
271.73	1501.16
271.95	1628.14
272.16	1478.63
272.38	1511.40
272.59	1470.44
272.81	1566.70
273.02	1607.66
273.24	1521.64
273.46	1550.31
273.67	1482.73
273.89	1486.83
274.10	1562.60
274.32	1562.60
274.54	1587.18
274.75	1538.02
274.97	1423.34
275.18	1488.87
275.40	1548.26
275.61	1533.93
275.83	1572.84
276.05	1529.83
276.26	1540.07
276.48	1617.90
276.69	1476.59
276.91	1484.78
277.12	1619.94
277.34	1523.69
277.55	1626.09
277.77	1527.78
277.99	1542.12
278.20	1503.21
278.42	1456.11
278.63	1505.26
278.85	1511.40
279.06	1523.69
279.28	1605.61
279.49	1576.94
279.71	1585.13
279.93	1542.12
280.14	1492.97
280.36	1495.02
280.57	1576.94
280.79	1624.04
281.00	1574.89
281.22	1495.02
281.43	1574.89
281.65	1468.39
281.86	1462.25
282.08	1621.99
282.29	1662.95
282.51	1533.93
282.73	1546.22
282.94	1513.45
283.16	1613.80
283.37	1611.75
283.59	1568.74
283.80	1540.07
284.02	1560.55
284.23	1507.30
284.45	1550.31
284.66	1452.01
284.88	1501.16
285.09	1527.78
285.31	1533.93
285.52	1542.12
285.74	1503.21
285.95	1499.11
286.17	1576.94
286.38	1578.98
286.60	1519.59
286.81	1511.40
287.03	1505.26
287.24	1538.02
287.46	1523.69
287.67	1589.22
287.89	1566.70
288.10	1601.51
288.32	1529.83
288.53	1542.12
288.75	1593.32
288.96	1546.22
289.18	1449.96
289.39	1421.29
289.61	1632.23
289.82	1630.18
290.04	1703.91
290.25	1499.11
290.47	1591.27
290.68	1562.60
290.90	1544.17
291.11	1523.69
291.33	1595.37
291.54	1402.86
291.76	1517.54
291.97	1540.07
292.18	1554.41
292.40	1482.73
292.61	1480.68
292.83	1640.42
293.04	1535.98
293.26	1564.65
293.47	1548.26
293.69	1484.78
293.90	1535.98
294.12	1484.78
294.33	1533.93
294.55	1564.65
294.76	1525.74
294.97	1648.61
295.19	1593.32
295.40	1511.40
295.62	1558.50
295.83	1568.74
296.05	1513.45
296.26	1511.40
296.48	1490.92
296.69	1464.30
296.90	1447.91
297.12	1638.38
297.33	1576.94
297.55	1439.72
297.76	1458.15
297.98	1562.60
298.19	1495.02
298.41	1544.17
298.62	1542.12
298.83	1589.22
299.05	1538.02
299.26	1529.83
299.48	1566.70
299.69	1587.18
299.90	1583.08
300.12	1519.59
300.33	1601.51
300.55	1464.30
300.76	1599.46
300.98	1447.91
301.19	1562.60
301.40	1552.36
301.62	1513.45
301.83	1525.74
302.05	1636.33
302.26	1529.83
302.47	1578.98
302.69	1517.54
302.90	1529.83
303.12	1460.20
303.33	1560.55
303.54	1626.09
303.76	1501.16
303.97	1533.93
304.19	1599.46
304.40	1480.68
304.61	1576.94
304.83	1599.46
305.04	1529.83
305.26	1609.70
305.47	1501.16
305.68	1525.74
305.90	1495.02
306.11	1550.31
306.33	1556.46
306.54	1417.19
306.75	1482.73
306.97	1540.07
307.18	1607.66
307.39	1480.68
307.61	1603.56
307.82	1499.11
308.04	1570.79
308.25	1423.34
308.46	1589.22
308.68	1544.17
308.89	1509.35
309.10	1544.17
309.32	1542.12
309.53	1435.63
309.74	1495.02
309.96	1552.36
310.17	1566.70
310.39	1495.02
310.60	1585.13
310.81	1511.40
311.03	1478.63
311.24	1644.52
311.45	1527.78
311.67	1665.00
311.88	1570.79
312.09	1576.94
312.31	1535.98
312.52	1574.89
312.73	1538.02
312.95	1497.07
313.16	1492.97
313.37	1572.84
313.59	1560.55
313.80	1505.26
314.01	1632.23
314.23	1470.44
314.44	1505.26
314.65	1515.50
314.87	1517.54
315.08	1546.22
315.29	1501.16
315.51	1511.40
315.72	1437.67
315.93	1538.02
316.15	1626.09
316.36	1611.75
316.57	1562.60
316.79	1566.70
317.00	1468.39
317.21	1501.16
317.43	1556.46
317.64	1486.83
317.85	1480.68
318.07	1558.50
318.28	1576.94
318.49	1732.58
318.70	1832.93
318.92	1748.97
319.13	1673.19
319.34	1693.67
319.56	1685.48
319.77	1748.97
319.98	1652.71
320.20	1652.71
320.41	1601.51
320.62	1525.74
320.83	1509.35
321.05	1648.61
321.26	1548.26
321.47	1527.78
321.69	1634.28
321.90	1535.98
322.11	1482.73
322.32	1449.96
322.54	1644.52
322.75	1548.26
322.96	1671.14
323.18	1501.16
323.39	1472.49
323.60	1464.30
323.81	1556.46
324.03	1470.44
324.24	1540.07
324.45	1499.11
324.66	1499.11
324.88	1591.27
325.09	1595.37
325.30	1564.65
325.52	1540.07
325.73	1538.02
325.94	1546.22
326.15	1486.83
326.37	1531.88
326.58	1609.70
326.79	1619.94
327.00	1525.74
327.22	1560.55
327.43	1503.21
327.64	1517.54
327.85	1626.09
328.07	1560.55
328.28	1585.13
328.49	1531.88
328.70	1560.55
328.92	1439.72
329.13	1540.07
329.34	1542.12
329.55	1552.36
329.76	1626.09
329.98	1538.02
330.19	1538.02
330.40	1568.74
330.61	1538.02
330.83	1509.35
331.04	1578.98
331.25	1548.26
331.46	1523.69
331.68	1525.74
331.89	1609.70
332.10	1531.88
332.31	1492.97
332.52	1572.84
332.74	1626.09
332.95	1452.01
333.16	1585.13
333.37	1615.85
333.58	1523.69
333.80	1482.73
334.01	1443.82
334.22	1513.45
334.43	1560.55
334.64	1542.12
334.86	1474.54
335.07	1529.83
335.28	1548.26
335.49	1523.69
335.70	1538.02
335.92	1605.61
336.13	1619.94
336.34	1581.03
336.55	1556.46
336.76	1527.78
336.98	1415.15
337.19	1523.69
337.40	1671.14
337.61	1624.04
337.82	1505.26
338.04	1540.07
338.25	1411.05
338.46	1449.96
338.67	1497.07
338.88	1458.15
339.09	1554.41
339.31	1468.39
339.52	1540.07
339.73	1423.34
339.94	1599.46
340.15	1619.94
340.36	1540.07
340.58	1486.83
340.79	1501.16
341.00	1560.55
341.21	1470.44
341.42	1658.85
341.63	1503.21
341.85	1624.04
342.06	1527.78
342.27	1458.15
342.48	1605.61
342.69	1505.26
342.90	1593.32
343.12	1517.54
343.33	1406.95
343.54	1609.70
343.75	1574.89
343.96	1452.01
344.17	1478.63
344.38	1529.83
344.60	1558.50
344.81	1495.02
345.02	1552.36
345.23	1525.74
345.44	1640.42
345.65	1603.56
345.86	1540.07
346.07	1585.13
346.29	1476.59
346.50	1583.08
346.71	1587.18
346.92	1560.55
347.13	1671.14
347.34	1441.77
347.55	1546.22
347.76	1568.74
347.98	1503.21
348.19	1535.98
348.40	1652.71
348.61	1519.59
348.82	1552.36
349.03	1570.79
349.24	1574.89
349.45	1585.13
349.66	1478.63
349.88	1578.98
350.09	1511.40
350.30	1566.70
350.51	1568.74
350.72	1497.07
350.93	1591.27
351.14	1540.07
351.35	1597.42
351.56	1574.89
351.77	1589.22
351.99	1525.74
352.20	1607.66
352.41	1632.23
352.62	1406.95
352.83	1568.74
353.04	1531.88
353.25	1566.70
353.46	1593.32
353.67	1654.76
353.88	1435.63
354.09	1546.22
354.30	1538.02
354.52	1538.02
354.73	1509.35
354.94	1576.94
355.15	1574.89
355.36	1572.84
355.57	1513.45
355.78	1607.66
355.99	1566.70
356.20	1529.83
356.41	1576.94
356.62	1482.73
356.83	1609.70
357.04	1544.17
357.25	1535.98
357.46	1570.79
357.68	1507.30
357.89	1488.87
358.10	1531.88
358.31	1531.88
358.52	1597.42
358.73	1441.77
358.94	1492.97
359.15	1556.46
359.36	1593.32
359.57	1574.89
359.78	1572.84
359.99	1599.46
360.20	1538.02
360.41	1499.11
360.62	1560.55
360.83	1560.55
361.04	1527.78
361.25	1507.30
361.46	1607.66
361.67	1566.70
361.88	1595.37
362.09	1519.59
362.30	1583.08
362.51	1542.12
362.72	1517.54
362.93	1570.79
363.14	1521.64
363.35	1589.22
363.56	1439.72
363.78	1576.94
363.99	1544.17
364.20	1476.59
364.41	1497.07
364.62	1654.76
364.83	1560.55
365.04	1544.17
365.25	1533.93
365.46	1568.74
365.67	1576.94
365.88	1564.65
366.09	1542.12
366.30	1527.78
366.51	1542.12
366.72	1445.87
366.93	1593.32
367.14	1548.26
367.35	1593.32
367.56	1527.78
367.77	1634.28
367.98	1581.03
368.18	1533.93
368.39	1556.46
368.60	1390.57
368.81	1585.13
369.02	1640.42
369.23	1540.07
369.44	1402.86
369.65	1523.69
369.86	1511.40
370.07	1574.89
370.28	1513.45
370.49	1576.94
370.70	1566.70
370.91	1574.89
371.12	1452.01
371.33	1669.09
371.54	1505.26
371.75	1591.27
371.96	1509.35
372.17	1538.02
372.38	1492.97
372.59	1587.18
372.80	1529.83
373.01	1535.98
373.22	1529.83
373.43	1548.26
373.64	1505.26
373.85	1560.55
374.06	1652.71
374.26	1619.94
374.47	1476.59
374.68	1605.61
374.89	1525.74
375.10	1542.12
375.31	1593.32
375.52	1525.74
375.73	1550.31
375.94	1486.83
376.15	1591.27
376.36	1521.64
376.57	1521.64
376.78	1476.59
376.99	1517.54
377.20	1626.09
377.40	1552.36
377.61	1605.61
377.82	1552.36
378.03	1564.65
378.24	1568.74
378.45	1513.45
378.66	1527.78
378.87	1478.63
379.08	1540.07
379.29	1519.59
379.50	1613.80
379.71	1517.54
379.91	1583.08
380.12	1511.40
380.33	1556.46
380.54	1597.42
380.75	1535.98
380.96	1460.20
381.17	1597.42
381.38	1558.50
381.59	1619.94
381.80	1583.08
382.00	1642.47
382.21	1583.08
382.42	1597.42
382.63	1644.52
382.84	1632.23
383.05	1595.37
383.26	1617.90
383.47	1593.32
383.68	1644.52
383.88	1634.28
384.09	1566.70
384.30	1626.09
384.51	1501.16
384.72	1527.78
384.93	1501.16
385.14	1495.02
385.35	1554.41
385.55	1556.46
385.76	1560.55
385.97	1556.46
386.18	1458.15
386.39	1449.96
386.60	1615.85
386.81	1613.80
387.02	1538.02
387.22	1595.37
387.43	1636.33
387.64	1685.48
387.85	1812.45
388.06	3039.19
388.27	7214.99
388.48	10538.85
388.68	12306.24
388.89	13903.66
389.10	12894.01
389.31	10182.50
389.52	8816.51
389.73	7767.95
389.93	7276.43
390.14	6647.71
390.35	6227.87
390.56	5496.75
390.77	4552.63
390.98	3522.51
391.18	2785.24
391.39	2146.27
391.60	1812.45
391.81	1650.66
392.02	1511.40
392.23	1626.09
392.43	1593.32
392.64	1599.46
392.85	1591.27
393.06	1675.24
393.27	1574.89
393.47	1568.74
393.68	1488.87
393.89	1540.07
394.10	1535.98
394.31	1542.12
394.52	1529.83
394.72	1503.21
394.93	1626.09
395.14	1501.16
395.35	1550.31
395.56	1478.63
395.76	1599.46
395.97	1679.33
396.18	1761.25
396.39	1802.21
396.60	1916.90
396.80	1708.01
397.01	1730.53
397.22	1652.71
397.43	1732.58
397.64	1501.16
397.84	1634.28
398.05	1708.01
398.26	1648.61
398.47	1619.94
398.67	1601.51
398.88	1533.93
399.09	1488.87
399.30	1513.45
399.51	1533.93
399.71	1458.15
399.92	1595.37
400.13	1554.41
400.34	1544.17
400.54	1466.35
400.75	1587.18
400.96	1599.46
401.17	1636.33
401.37	1576.94
401.58	1544.17
401.79	1626.09
402.00	1759.21
402.21	1937.38
402.41	1982.43
402.62	1968.10
402.83	2041.82
403.04	1880.04
403.24	1830.88
403.45	1804.26
403.66	1775.59
403.87	1722.34
404.07	1748.97
404.28	1796.07
404.49	1742.82
404.70	1648.61
404.90	1632.23
405.11	1595.37
405.32	1593.32
405.52	1535.98
405.73	1433.58
405.94	1558.50
406.15	1531.88
406.35	1529.83
406.56	1576.94
406.77	1603.56
406.98	1464.30
407.18	1525.74
407.39	1593.32
407.60	1464.30
407.80	1585.13
408.01	1560.55
408.22	1628.14
408.43	1497.07
408.63	1619.94
408.84	1495.02
409.05	1628.14
409.25	1472.49
409.46	1556.46
409.67	1488.87
409.88	1482.73
410.08	1570.79
410.29	1525.74
410.50	1544.17
410.70	1550.31
410.91	1472.49
411.12	1630.18
411.32	1492.97
411.53	1572.84
411.74	1607.66
411.95	1665.00
412.15	1658.85
412.36	1687.53
412.57	1636.33
412.77	1642.47
412.98	1591.27
413.19	1574.89
413.39	1599.46
413.60	1591.27
413.81	1632.23
414.01	1550.31
414.22	1574.89
414.43	1560.55
414.63	1535.98
414.84	1546.22
415.05	1531.88
415.25	1521.64
415.46	1574.89
415.67	1632.23
415.87	1540.07
416.08	1568.74
416.29	1550.31
416.49	1585.13
416.70	1611.75
416.91	1503.21
417.11	1560.55
417.32	1607.66
417.53	1658.85
417.73	1535.98
417.94	1505.26
418.15	1484.78
418.35	1507.30
418.56	1599.46
418.77	1634.28
418.97	1490.92
419.18	1552.36
419.38	1478.63
419.59	1585.13
419.80	1628.14
420.00	1538.02
420.21	1556.46
420.42	1546.22
420.62	1542.12
420.83	1492.97
421.04	1546.22
421.24	1423.34
421.45	1619.94
421.65	1535.98
421.86	1447.91
422.07	1505.26
422.27	1560.55
422.48	1531.88
422.69	1533.93
422.89	1492.97
423.10	1509.35
423.30	1509.35
423.51	1568.74
423.72	1525.74
423.92	1605.61
424.13	1527.78
424.33	1515.50
424.54	1595.37
424.75	1533.93
424.95	1644.52
425.16	1509.35
425.36	1511.40
425.57	1574.89
425.78	1544.17
425.98	1626.09
426.19	1546.22
426.39	1462.25
426.60	1476.59
426.81	1624.04
427.01	1548.26
427.22	1525.74
427.42	1523.69
427.63	1513.45
427.83	1609.70
428.04	1628.14
428.25	1611.75
428.45	1658.85
428.66	1607.66
428.86	1630.18
429.07	1564.65
429.28	1495.02
429.48	1480.68
429.69	1513.45
429.89	1597.42
430.10	1535.98
430.30	1519.59
430.51	1613.80
430.71	1482.73
430.92	1552.36
431.13	1529.83
431.33	1560.55
431.54	1529.83
431.74	1626.09
431.95	1677.29
432.15	1521.64
432.36	1486.83
432.56	1574.89
432.77	1581.03
432.98	1591.27
433.18	1554.41
433.39	1583.08
433.59	1529.83
433.80	1658.85
434.00	1636.33
434.21	1540.07
434.41	1503.21
434.62	1646.57
434.82	1499.11
435.03	1488.87
435.23	1591.27
435.44	1454.06
435.64	1605.61
435.85	1531.88
436.06	1658.85
436.26	1599.46
436.47	1519.59
436.67	1531.88
436.88	1511.40
437.08	1619.94
437.29	1640.42
437.49	1497.07
437.70	1587.18
437.90	1517.54
438.11	1644.52
438.31	1671.14
438.52	1740.77
438.72	1669.09
438.93	1757.16
439.13	1615.85
439.34	1667.05
439.54	1619.94
439.75	1628.14
439.95	1574.89
440.16	1607.66
440.36	1601.51
440.57	1558.50
440.77	1619.94
440.98	1523.69
441.18	1568.74
441.39	1462.25
441.59	1503.21
441.80	1597.42
442.00	1492.97
442.21	1589.22
442.41	1511.40
442.62	1601.51
442.82	1503.21
443.02	1599.46
443.23	1619.94
443.43	1585.13
443.64	1593.32
443.84	1521.64
444.05	1646.57
444.25	1546.22
444.46	1525.74
444.66	1517.54
444.87	1660.90
445.07	1509.35
445.28	1591.27
445.48	1564.65
445.69	1587.18
445.89	1587.18
446.09	1591.27
446.30	2011.11
446.50	3166.16
446.71	4411.32
446.91	5081.01
447.12	5820.33
447.32	5590.95
447.53	4698.04
447.73	4034.50
447.93	3545.03
448.14	3418.06
448.34	3237.84
448.55	2955.22
448.75	2887.64
448.96	2807.77
449.16	2480.09
449.36	2213.85
449.57	1894.37
449.77	1843.17
449.98	1665.00
450.18	1683.43
450.39	1517.54
450.59	1540.07
450.79	1499.11
451.00	1550.31
451.20	1564.65
451.41	1499.11
451.61	1540.07
451.81	1552.36
452.02	1515.50
452.22	1507.30
452.43	1505.26
452.63	1560.55
452.84	1544.17
453.04	1533.93
453.24	1538.02
453.45	1546.22
453.65	1492.97
453.86	1560.55
454.06	1566.70
454.26	1560.55
454.47	1495.02
454.67	1583.08
454.87	1587.18
455.08	1525.74
455.28	1603.56
455.49	1548.26
455.69	1517.54
455.89	1542.12
456.10	1591.27
456.30	1562.60
456.51	1542.12
456.71	1570.79
456.91	1574.89
457.12	1540.07
457.32	1603.56
457.52	1566.70
457.73	1542.12
457.93	1566.70
458.14	1511.40
458.34	1538.02
458.54	1542.12
458.75	1535.98
458.95	1628.14
459.15	1576.94
459.36	1585.13
459.56	1615.85
459.76	1640.42
459.97	1521.64
460.17	1529.83
460.37	1546.22
460.58	1587.18
460.78	1542.12
460.99	1523.69
461.19	1517.54
461.39	1411.05
461.60	1613.80
461.80	1646.57
462.00	1464.30
462.21	1523.69
462.41	1492.97
462.61	1484.78
462.82	1501.16
463.02	1546.22
463.22	1591.27
463.43	1564.65
463.63	1519.59
463.83	1556.46
464.04	1495.02
464.24	1474.54
464.44	1509.35
464.64	1515.50
464.85	1585.13
465.05	1554.41
465.25	1507.30
465.46	1513.45
465.66	1464.30
465.86	1560.55
466.07	1511.40
466.27	1544.17
466.47	1456.11
466.68	1492.97
466.88	1624.04
467.08	1638.38
467.29	1476.59
467.49	1583.08
467.69	1560.55
467.89	1609.70
468.10	1556.46
468.30	1538.02
468.50	1595.37
468.71	1552.36
468.91	1456.11
469.11	1587.18
469.31	1554.41
469.52	1482.73
469.72	1644.52
469.92	1646.57
470.13	1523.69
470.33	1542.12
470.53	1671.14
470.73	2029.54
470.94	2340.83
471.14	2482.14
471.34	2643.93
471.54	2455.51
471.75	2191.33
471.95	1982.43
472.15	1959.91
472.36	2009.06
472.56	1933.28
472.76	1857.51
472.96	1888.23
473.17	1740.77
473.37	1873.89
473.57	1667.05
473.77	1701.86
473.98	1599.46
474.18	1521.64
474.38	1619.94
474.58	1558.50
474.79	1540.07
474.99	1550.31
475.19	1521.64
475.39	1468.39
475.60	1572.84
475.80	1619.94
476.00	1548.26
476.20	1484.78
476.41	1546.22
476.61	1609.70
476.81	1615.85
477.01	1472.49
477.21	1646.57
477.42	1636.33
477.62	1492.97
477.82	1558.50
478.02	1486.83
478.23	1501.16
478.43	1499.11
478.63	1560.55
478.83	1527.78
479.03	1509.35
479.24	1540.07
479.44	1646.57
479.64	1462.25
479.84	1511.40
480.04	1546.22
480.25	1558.50
480.45	1505.26
480.65	1468.39
480.85	1617.90
481.06	1533.93
481.26	1566.70
481.46	1615.85
481.66	1515.50
481.86	1458.15
482.06	1638.38
482.27	1626.09
482.47	1548.26
482.67	1527.78
482.87	1595.37
483.07	1654.76
483.28	1568.74
483.48	1505.26
483.68	1570.79
483.88	1482.73
484.08	1462.25
484.29	1495.02
484.49	1611.75
484.69	1572.84
484.89	1636.33
485.09	1509.35
485.29	1540.07
485.50	1558.50
485.70	1593.32
485.90	1626.09
486.10	1484.78
486.30	1505.26
486.50	1607.66
486.71	1597.42
486.91	1628.14
487.11	1581.03
487.31	1462.25
487.51	1560.55
487.71	1548.26
487.91	1566.70
488.12	1472.49
488.32	1525.74
488.52	1507.30
488.72	1417.19
488.92	1474.54
489.12	1587.18
489.32	1587.18
489.53	1554.41
489.73	1509.35
489.93	1607.66
490.13	1505.26
490.33	1531.88
490.53	1656.81
490.73	1626.09
490.94	1531.88
491.14	1599.46
491.34	1710.05
491.54	2066.40
491.74	2746.33
491.94	3139.54
492.14	3293.13
492.34	3084.24
492.54	2754.52
492.75	2521.05
492.95	2342.88
493.15	2250.72
493.35	2267.10
493.55	2060.26
493.75	2127.84
493.95	2043.87
494.15	1939.43
494.35	1873.89
494.56	1828.84
494.76	1646.57
494.96	1671.14
495.16	1605.61
495.36	1581.03
495.56	1597.42
495.76	1615.85
495.96	1517.54
496.16	1556.46
496.36	1619.94
496.56	1601.51
496.77	1605.61
496.97	1593.32
497.17	1558.50
497.37	1503.21
497.57	1626.09
497.77	1470.44
497.97	1535.98
498.17	1609.70
498.37	1527.78
498.57	1591.27
498.77	1538.02
498.97	1605.61
499.17	1687.53
499.38	1535.98
499.58	1499.11
499.78	1662.95
499.98	1626.09
500.18	1552.36
500.38	1511.40
500.58	1765.35
500.78	2586.58
500.98	5085.11
501.18	6682.52
501.38	8169.35
501.58	8830.84
501.78	7982.98
501.98	6104.99
502.18	5408.69
502.38	4616.12
502.58	4186.05
502.78	3919.81
502.98	3676.10
503.18	3553.23
503.38	3180.50
503.59	3041.23
503.79	2846.68
503.99	2486.23
504.19	2324.44
504.39	2109.41
504.59	2002.91
504.79	2045.92
504.99	1968.10
505.19	1783.78
505.39	1748.97
505.59	1837.03
505.79	1705.96
505.99	1662.95
506.19	1671.14
506.39	1697.77
506.59	1605.61
506.79	1595.37
506.99	1742.82
507.19	1601.51
507.39	1556.46
507.59	1501.16
507.79	1540.07
507.99	1535.98
508.19	1499.11
508.39	1527.78
508.59	1511.40
508.79	1609.70
508.99	1644.52
509.19	1458.15
509.39	1558.50
509.59	1585.13
509.79	1548.26
509.99	1470.44
510.19	1609.70
510.39	1585.13
510.59	1554.41
510.79	1523.69
510.99	1562.60
511.19	1525.74
511.39	1638.38
511.59	1572.84
511.79	1617.90
511.99	1509.35
512.19	1617.90
512.38	1601.51
512.58	1564.65
512.78	1581.03
512.98	1589.22
513.18	1656.81
513.38	1396.71
513.58	1642.47
513.78	1568.74
513.98	1550.31
514.18	1599.46
514.38	1576.94
514.58	1587.18
514.78	1538.02
514.98	1554.41
515.18	1527.78
515.38	1533.93
515.58	1578.98
515.78	1523.69
515.98	1490.92
516.18	1468.39
516.38	1595.37
516.57	1544.17
516.77	1458.15
516.97	1585.13
517.17	1552.36
517.37	1411.05
517.57	1542.12
517.77	1515.50
517.97	1542.12
518.17	1581.03
518.37	1535.98
518.57	1599.46
518.77	1578.98
518.97	1574.89
519.16	1591.27
519.36	1515.50
519.56	1527.78
519.76	1533.93
519.96	1576.94
520.16	1667.05
520.36	1607.66
520.56	1562.60
520.76	1587.18
520.96	1482.73
521.16	1601.51
521.35	1546.22
521.55	1644.52
521.75	1497.07
521.95	1558.50
522.15	1447.91
522.35	1468.39
522.55	1452.01
522.75	1566.70
522.95	1542.12
523.14	1564.65
523.34	1531.88
523.54	1578.98
523.74	1601.51
523.94	1552.36
524.14	1499.11
524.34	1578.98
524.54	1634.28
524.73	1550.31
524.93	1519.59
525.13	1517.54
525.33	1456.11
525.53	1650.66
525.73	1538.02
525.93	1474.54
526.13	1499.11
526.32	1521.64
526.52	1634.28
526.72	1542.12
526.92	1486.83
527.12	1515.50
527.32	1449.96
527.52	1540.07
527.71	1499.11
527.91	1458.15
528.11	1523.69
528.31	1542.12
528.51	1447.91
528.71	1513.45
528.90	1513.45
529.10	1613.80
529.30	1593.32
529.50	1427.43
529.70	1527.78
529.90	1513.45
530.09	1519.59
530.29	1529.83
530.49	1495.02
530.69	1626.09
530.89	1542.12
531.09	1583.08
531.28	1499.11
531.48	1583.08
531.68	1523.69
531.88	1523.69
532.08	1591.27
532.28	1492.97
532.47	1542.12
532.67	1562.60
532.87	1585.13
533.07	1507.30
533.27	1611.75
533.46	1632.23
533.66	1574.89
533.86	1562.60
534.06	1576.94
534.26	1560.55
534.45	1585.13
534.65	1511.40
534.85	1564.65
535.05	1482.73
535.25	1593.32
535.44	1433.58
535.64	1517.54
535.84	1544.17
536.04	1525.74
536.24	1499.11
536.43	1550.31
536.63	1546.22
536.83	1488.87
537.03	1505.26
537.22	1503.21
537.42	1480.68
537.62	1540.07
537.82	1497.07
538.02	1607.66
538.21	1632.23
538.41	1601.51
538.61	1605.61
538.81	1527.78
539.00	1497.07
539.20	1460.20
539.40	1595.37
539.60	1490.92
539.79	1669.09
539.99	1458.15
540.19	1566.70
540.39	1581.03
540.58	1574.89
540.78	1546.22
540.98	1538.02
541.18	1562.60
541.37	1568.74
541.57	1525.74
541.77	1562.60
541.97	1538.02
542.16	1495.02
542.36	1529.83
542.56	1619.94
542.76	1673.19
542.95	1552.36
543.15	1572.84
543.35	1568.74
543.54	1482.73
543.74	1449.96
543.94	1529.83
544.14	1540.07
544.33	1607.66
544.53	1552.36
544.73	1478.63
544.93	1550.31
545.12	1478.63
545.32	1564.65
545.52	1568.74
545.71	1529.83
545.91	1578.98
546.11	1519.59
546.30	1458.15
546.50	1525.74
546.70	1548.26
546.90	1585.13
547.09	1488.87
547.29	1476.59
547.49	1445.87
547.68	1574.89
547.88	1507.30
548.08	1558.50
548.27	1908.71
548.47	1535.98
548.67	1544.17
548.87	1581.03
549.06	1597.42
549.26	1624.04
549.46	1509.35
549.65	1599.46
549.85	1458.15
550.05	1570.79
550.24	1445.87
550.44	1566.70
550.64	1517.54
550.83	1488.87
551.03	1583.08
551.23	1554.41
551.42	1552.36
551.62	1560.55
551.82	1476.59
552.01	1624.04
552.21	1644.52
552.41	1517.54
552.60	1642.47
552.80	1515.50
553.00	1531.88
553.19	1581.03
553.39	1548.26
553.59	1505.26
553.78	1519.59
553.98	1597.42
554.17	1509.35
554.37	1499.11
554.57	1542.12
554.76	1460.20
554.96	1484.78
555.16	1486.83
555.35	1558.50
555.55	1607.66
555.75	1601.51
555.94	1619.94
556.14	1497.07
556.33	1544.17
556.53	1550.31
556.73	1581.03
556.92	1564.65
557.12	1615.85
557.32	1587.18
557.51	1648.61
557.71	1605.61
557.90	1564.65
558.10	1542.12
558.30	1546.22
558.49	1462.25
558.69	1470.44
558.88	1583.08
559.08	1484.78
559.28	1583.08
559.47	1497.07
559.67	1509.35
559.86	1630.18
560.06	1501.16
560.26	1560.55
560.45	1632.23
560.65	1529.83
560.84	1570.79
561.04	1484.78
561.24	1505.26
561.43	1492.97
561.63	1628.14
561.82	1548.26
562.02	1591.27
562.22	1542.12
562.41	1488.87
562.61	1484.78
562.80	1538.02
563.00	1665.00
563.19	1585.13
563.39	1611.75
563.59	1650.66
563.78	1519.59
563.98	1417.19
564.17	1476.59
564.37	1470.44
564.56	1554.41
564.76	1511.40
564.96	1587.18
565.15	1648.61
565.35	1646.57
565.54	1552.36
565.74	1621.99
565.93	1578.98
566.13	1560.55
566.32	1544.17
566.52	1632.23
566.71	1546.22
566.91	1521.64
567.11	1562.60
567.30	1548.26
567.50	1585.13
567.69	1576.94
567.89	1570.79
568.08	1531.88
568.28	1558.50
568.47	1515.50
568.67	1538.02
568.86	1560.55
569.06	1601.51
569.25	1585.13
569.45	1527.78
569.64	1519.59
569.84	1499.11
570.04	1578.98
570.23	1533.93
570.43	1540.07
570.62	1558.50
570.82	1566.70
571.01	1464.30
571.21	1552.36
571.40	1480.68
571.60	1642.47
571.79	1515.50
571.99	1603.56
572.18	1462.25
572.38	1642.47
572.57	1527.78
572.77	1548.26
572.96	1681.38
573.16	1591.27
573.35	1492.97
573.55	1615.85
573.74	1507.30
573.94	1519.59
574.13	1556.46
574.33	1566.70
574.52	1566.70
574.71	1488.87
574.91	1615.85
575.10	1490.92
575.30	1624.04
575.49	1581.03
575.69	1562.60
575.88	1615.85
576.08	1609.70
576.27	1646.57
576.47	1619.94
576.66	1681.38
576.86	1611.75
577.05	1585.13
577.25	1650.66
577.44	1701.86
577.64	1548.26
577.83	1581.03
578.02	1566.70
578.22	1603.56
578.41	1652.71
578.61	1550.31
578.80	1454.06
579.00	1581.03
579.19	1658.85
579.39	1613.80
579.58	1665.00
579.77	1591.27
579.97	1638.38
580.16	1630.18
580.36	1650.66
580.55	1595.37
580.75	1636.33
580.94	1538.02
581.13	1605.61
581.33	1681.38
581.52	1607.66
581.72	1714.15
581.91	1646.57
582.11	1624.04
582.30	1630.18
582.49	1681.38
582.69	1638.38
582.88	1656.81
583.08	1460.20
583.27	1683.43
583.47	1722.34
583.66	1505.26
583.85	1576.94
584.05	1535.98
584.24	1570.79
584.44	1693.67
584.63	1654.76
584.82	1644.52
585.02	1695.72
585.21	1755.11
585.41	1697.77
585.60	1769.44
585.79	1816.55
585.99	1757.16
586.18	1675.24
586.37	1984.48
586.57	3145.68
586.76	9502.58
586.96	27631.19
587.15	43439.47
587.34	54406.34
587.54	60970.08
587.73	59311.22
587.93	43408.75
588.12	32308.76
588.31	25759.35
588.51	21943.99
588.70	19420.89
588.89	18239.21
589.09	16813.82
589.28	14919.45
589.47	13205.30
589.67	10956.63
589.86	8963.96
590.06	6731.67
590.25	5005.24
590.44	3776.45
590.64	2871.25
590.83	2447.32
591.02	2125.79
591.22	1910.75
591.41	1765.35
591.60	1736.68
591.80	1771.49
591.99	1572.84
592.18	1640.42
592.38	1642.47
592.57	1546.22
592.76	1665.00
592.96	1560.55
593.15	1607.66
593.34	1581.03
593.54	1560.55
593.73	1589.22
593.92	1650.66
594.12	1542.12
594.31	1624.04
594.50	1599.46
594.70	1597.42
594.89	1681.38
595.08	1521.64
595.28	1572.84
595.47	1693.67
595.66	1601.51
595.86	1472.49
596.05	1566.70
596.24	1599.46
596.43	1574.89
596.63	1671.14
596.82	1591.27
597.01	1568.74
597.21	1679.33
597.40	1619.94
597.59	1642.47
597.79	1583.08
597.98	1583.08
598.17	1538.02
598.36	1542.12
598.56	1583.08
598.75	1562.60
598.94	1581.03
599.14	1535.98
599.33	1527.78
599.52	1554.41
599.71	1589.22
599.91	1630.18
600.10	1644.52
600.29	1564.65
600.48	1562.60
600.68	1554.41
600.87	1509.35
601.06	1509.35
601.26	1527.78
601.45	1521.64
601.64	1550.31
601.83	1593.32
602.03	1556.46
602.22	1589.22
602.41	1568.74
602.60	1673.19
602.80	1611.75
602.99	1560.55
603.18	1568.74
603.37	1556.46
603.57	1574.89
603.76	1505.26
603.95	1538.02
604.14	1521.64
604.34	1556.46
604.53	1521.64
604.72	1626.09
604.91	1611.75
605.10	1603.56
605.30	1540.07
605.49	1630.18
605.68	1642.47
605.87	1492.97
606.07	1417.19
606.26	1566.70
606.45	1525.74
606.64	1581.03
606.84	1486.83
607.03	1566.70
607.22	1595.37
607.41	1527.78
607.60	1570.79
607.80	1581.03
607.99	1470.44
608.18	1540.07
608.37	1542.12
608.56	1519.59
608.76	1595.37
608.95	1658.85
609.14	1554.41
609.33	1626.09
609.52	1687.53
609.72	1675.24
609.91	1626.09
610.10	1660.90
610.29	1697.77
610.48	1603.56
610.68	1628.14
610.87	1509.35
611.06	1634.28
611.25	1550.31
611.44	1611.75
611.63	1501.16
611.83	1587.18
612.02	1513.45
612.21	1658.85
612.40	1482.73
612.59	1406.95
612.79	1488.87
612.98	1531.88
613.17	1593.32
613.36	1605.61
613.55	1703.91
613.74	1589.22
613.93	1755.11
614.13	1732.58
614.32	1742.82
614.51	1787.88
614.70	1695.72
614.89	1593.32
615.08	1609.70
615.28	1912.80
615.47	1636.33
615.66	1675.24
615.85	1640.42
616.04	1775.59
616.23	1632.23
616.42	1640.42
616.62	1599.46
616.81	1599.46
617.00	1581.03
617.19	1576.94
617.38	1535.98
617.57	1587.18
617.76	1632.23
617.95	1521.64
618.15	1497.07
618.34	1667.05
618.53	1466.35
618.72	1626.09
618.91	1550.31
619.10	1558.50
619.29	1523.69
619.48	1552.36
619.68	1531.88
619.87	1542.12
620.06	1550.31
620.25	1564.65
620.44	1544.17
620.63	1570.79
620.82	1568.74
621.01	1585.13
621.20	1525.74
621.39	1628.14
621.59	1650.66
621.78	1656.81
621.97	1519.59
622.16	1640.42
622.35	1605.61
622.54	1587.18
622.73	1509.35
622.92	1515.50
623.11	1576.94
623.30	1521.64
623.49	1601.51
623.68	1468.39
623.88	1605.61
624.07	1585.13
624.26	1497.07
624.45	1581.03
624.64	1540.07
624.83	1597.42
625.02	1527.78
625.21	1613.80
625.40	1515.50
625.59	1605.61
625.78	1533.93
625.97	1585.13
626.16	1656.81
626.35	1611.75
626.54	1632.23
626.74	1601.51
626.93	1597.42
627.12	1621.99
627.31	1583.08
627.50	1585.13
627.69	1587.18
627.88	1562.60
628.07	1507.30
628.26	1511.40
628.45	1517.54
628.64	1501.16
628.83	1529.83
629.02	1497.07
629.21	1589.22
629.40	1525.74
629.59	1544.17
629.78	1497.07
629.97	1546.22
630.16	1581.03
630.35	1544.17
630.54	1572.84
630.73	1566.70
630.92	1656.81
631.11	1578.98
631.30	1542.12
631.49	1607.66
631.68	1533.93
631.87	1531.88
632.06	1462.25
632.25	1669.09
632.44	1497.07
632.63	1716.20
632.82	1574.89
633.01	1495.02
633.20	1585.13
633.39	1665.00
633.58	1615.85
633.77	1636.33
633.96	1597.42
634.15	1671.14
634.34	1593.32
634.53	1609.70
634.72	1535.98
634.91	1472.49
635.10	1564.65
635.29	1554.41
635.48	1564.65
635.67	1531.88
635.86	1462.25
636.05	1501.16
636.24	1576.94
636.43	1523.69
636.62	1484.78
636.81	1398.76
637.00	1538.02
637.19	1556.46
637.38	1558.50
637.57	1617.90
637.76	1558.50
637.95	1728.49
638.14	1560.55
638.33	1587.18
638.52	1636.33
638.71	1542.12
638.89	1527.78
639.08	1658.85
639.27	1669.09
639.46	1650.66
639.65	1929.19
639.84	2056.16
640.03	2150.37
640.22	2185.18
640.41	2256.86
640.60	1918.95
640.79	1806.31
640.98	1701.86
641.17	1839.08
641.36	1769.44
641.55	1705.96
641.74	1628.14
641.92	1540.07
642.11	1650.66
642.30	1640.42
642.49	1540.07
642.68	1574.89
642.87	1542.12
643.06	1531.88
643.25	1470.44
643.44	1511.40
643.63	1497.07
643.82	1574.89
644.00	1443.82
644.19	1478.63
644.38	1511.40
644.57	1656.81
644.76	1519.59
644.95	1591.27
645.14	1595.37
645.33	1507.30
645.52	1535.98
645.71	1533.93
645.89	1472.49
646.08	1505.26
646.27	1533.93
646.46	1648.61
646.65	1492.97
646.84	1505.26
647.03	1435.63
647.22	1554.41
647.40	1474.54
647.59	1509.35
647.78	1529.83
647.97	1495.02
648.16	1538.02
648.35	1613.80
648.54	1609.70
648.73	1492.97
648.91	1554.41
649.10	1511.40
649.29	1546.22
649.48	1546.22
649.67	1495.02
649.86	1609.70
650.05	1601.51
650.23	1624.04
650.42	1703.91
650.61	1710.05
650.80	1800.16
650.99	1826.79
651.18	1660.90
651.36	1632.23
651.55	1593.32
651.74	1634.28
651.93	1544.17
652.12	1568.74
652.31	1558.50
652.49	1550.31
652.68	1492.97
652.87	1603.56
653.06	1654.76
653.25	1626.09
653.44	1574.89
653.62	1601.51
653.81	1529.83
654.00	1558.50
654.19	1591.27
654.38	1683.43
654.56	1591.27
654.75	1568.74
654.94	1556.46
655.13	1593.32
655.32	1677.29
655.51	1558.50
655.69	1517.54
655.88	1578.98
656.07	1490.92
656.26	1638.38
656.45	1597.42
656.63	1544.17
656.82	1570.79
657.01	1607.66
657.20	1515.50
657.38	1615.85
657.57	1546.22
657.76	1449.96
657.95	1591.27
658.14	1507.30
658.32	1615.85
658.51	1470.44
658.70	1507.30
658.89	1449.96
659.08	1552.36
659.26	1687.53
659.45	1617.90
659.64	1603.56
659.83	1570.79
660.01	1755.11
660.20	1591.27
660.39	1708.01
660.58	1507.30
660.76	1656.81
660.95	1515.50
661.14	1591.27
661.33	1572.84
661.51	1513.45
661.70	1583.08
661.89	1624.04
662.08	1544.17
662.26	1542.12
662.45	1525.74
662.64	1630.18
662.83	1585.13
663.01	1509.35
663.20	1611.75
663.39	1619.94
663.58	1525.74
663.76	1509.35
663.95	1628.14
664.14	1581.03
664.32	1554.41
664.51	1511.40
664.70	1425.39
664.89	1552.36
665.07	1464.30
665.26	1617.90
665.45	1527.78
665.64	1568.74
665.82	1578.98
666.01	1640.42
666.20	1525.74
666.38	1644.52
666.57	1605.61
666.76	1851.36
666.95	2959.31
667.13	7593.87
667.32	15398.68
667.51	19994.32
667.69	23637.66
667.88	25026.18
668.07	21845.68
668.25	15527.70
668.44	12429.12
668.63	9959.27
668.81	8599.42
669.00	7561.10
669.19	7010.20
669.38	6211.49
669.56	5629.87
669.75	4769.72
669.94	4034.50
670.12	3405.77
670.31	2715.61
670.50	2455.51
670.68	2119.65
670.87	1908.71
671.06	1734.63
671.24	1732.58
671.43	1769.44
671.62	1720.29
671.80	1642.47
671.99	1562.60
672.18	1564.65
672.36	1640.42
672.55	1605.61
672.74	1615.85
672.92	1576.94
673.11	1605.61
673.29	1556.46
673.48	1640.42
673.67	1568.74
673.85	1583.08
674.04	1581.03
674.23	1531.88
674.41	1587.18
674.60	1501.16
674.79	1449.96
674.97	1462.25
675.16	1529.83
675.34	1552.36
675.53	1480.68
675.72	1597.42
675.90	1585.13
676.09	1607.66
676.28	1521.64
676.46	1490.92
676.65	1581.03
676.83	1593.32
677.02	1499.11
677.21	1583.08
677.39	1560.55
677.58	1462.25
677.77	1550.31
677.95	1558.50
678.14	1421.29
678.32	1558.50
678.51	1478.63
678.70	1609.70
678.88	1533.93
679.07	1527.78
679.25	1583.08
679.44	1609.70
679.63	1505.26
679.81	1501.16
680.00	1636.33
680.18	1568.74
680.37	1523.69
680.55	1527.78
680.74	1439.72
680.93	1495.02
681.11	1548.26
681.30	1589.22
681.48	1538.02
681.67	1523.69
681.85	1578.98
682.04	1519.59
682.23	1591.27
682.41	1587.18
682.60	1443.82
682.78	1476.59
682.97	1464.30
683.15	1617.90
683.34	1484.78
683.53	1533.93
683.71	1513.45
683.90	1626.09
684.08	1685.48
684.27	1527.78
684.45	1585.13
684.64	1634.28
684.82	1527.78
685.01	1538.02
685.19	1593.32
685.38	1613.80
685.57	1574.89
685.75	1490.92
685.94	1509.35
686.12	1419.24
686.31	1452.01
686.49	1609.70
686.68	1456.11
686.86	1525.74
687.05	1548.26
687.23	1613.80
687.42	1497.07
687.60	1499.11
687.79	1515.50
687.97	1605.61
688.16	1564.65
688.34	1585.13
688.53	1402.86
688.71	1558.50
688.90	1540.07
689.08	1548.26
689.27	1505.26
689.45	1605.61
689.64	1548.26
689.82	1548.26
690.01	1509.35
690.19	1601.51
690.38	1562.60
690.56	1638.38
690.75	1468.39
690.93	1523.69
691.12	1529.83
691.30	1574.89
691.49	1509.35
691.67	1535.98
691.86	1599.46
692.04	1570.79
692.23	1495.02
692.41	1570.79
692.60	1714.15
692.78	1640.42
692.97	1658.85
693.15	1675.24
693.34	1695.72
693.52	1568.74
693.71	1570.79
693.89	1574.89
694.08	1542.12
694.26	1601.51
694.44	1638.38
694.63	1611.75
694.81	1556.46
695.00	1523.69
695.18	1523.69
695.37	1636.33
695.55	1578.98
695.74	1523.69
695.92	1503.21
696.10	1621.99
696.29	1443.82
696.47	1431.53
696.66	1538.02
696.84	1523.69
697.03	1464.30
697.21	1656.81
697.40	2045.92
697.58	1599.46
697.76	1529.83
697.95	1564.65
698.13	1462.25
698.32	1519.59
698.50	1525.74
698.68	1615.85
698.87	1615.85
699.05	1578.98
699.24	1527.78
699.42	1548.26
699.61	1587.18
699.79	1515.50
699.97	1554.41
700.16	1501.16
700.34	1466.35
700.53	1492.97
700.71	1603.56
700.89	1587.18
701.08	1552.36
701.26	1544.17
701.45	1939.43
701.63	1572.84
701.81	1497.07
702.00	1576.94
702.18	1505.26
702.37	1572.84
702.55	1597.42
702.73	1685.48
702.92	1687.53
703.10	1824.74
703.28	1761.25
703.47	1689.57
703.65	1718.25
703.84	1718.25
704.02	1683.43
704.20	1677.29
704.39	1642.47
704.57	1621.99
704.75	1638.38
704.94	1689.57
705.12	1624.04
705.30	1654.76
705.49	1902.56
705.67	2881.49
705.86	7325.58
706.04	14528.29
706.22	18575.08
706.41	21503.67
706.59	22890.15
706.77	20842.18
706.96	14380.84
707.14	11599.70
707.32	9693.04
707.51	8572.80
707.69	7514.00
707.87	6799.26
708.06	5918.63
708.24	4577.21
708.42	3620.81
708.61	2885.59
708.79	2375.64
708.97	2002.91
709.16	1814.50
709.34	1667.05
709.52	1701.86
709.71	1576.94
709.89	1699.81
710.07	1568.74
710.26	1486.83
710.44	1587.18
710.62	1689.57
710.80	1665.00
710.99	1558.50
711.17	1636.33
711.35	1560.55
711.54	1470.44
711.72	1593.32
711.90	1574.89
712.09	1552.36
712.27	1581.03
712.45	1667.05
712.63	1544.17
712.82	1497.07
713.00	1507.30
713.18	1585.13
713.37	1574.89
713.55	1538.02
713.73	1574.89
713.91	1576.94
714.10	1529.83
714.28	1589.22
714.46	1460.20
714.65	1626.09
714.83	1615.85
715.01	1531.88
715.19	1552.36
715.38	1454.06
715.56	1548.26
715.74	1501.16
715.92	1521.64
716.11	1601.51
716.29	1437.67
716.47	1552.36
716.65	1464.30
716.84	1531.88
717.02	1591.27
717.20	1439.72
717.38	1515.50
717.57	1511.40
717.75	1548.26
717.93	1490.92
718.11	1538.02
718.30	1478.63
718.48	1560.55
718.66	1542.12
718.84	1568.74
719.03	1556.46
719.21	1546.22
719.39	1667.05
719.57	1527.78
719.75	1572.84
719.94	1499.11
720.12	1552.36
720.30	1634.28
720.48	1654.76
720.67	1562.60
720.85	1492.97
721.03	1443.82
721.21	1576.94
721.39	1646.57
721.58	1589.22
721.76	1597.42
721.94	1597.42
722.12	1521.64
722.30	1591.27
722.49	1503.21
722.67	1538.02
722.85	1525.74
723.03	1468.39
723.21	1513.45
723.40	1585.13
723.58	1570.79
723.76	1564.65
723.94	1640.42
724.12	1583.08
724.30	1699.81
724.49	1681.38
724.67	1564.65
724.85	1658.85
725.03	1562.60
725.21	1572.84
725.40	1609.70
725.58	1533.93
725.76	1566.70
725.94	1538.02
726.12	1535.98
726.30	1533.93
726.49	1513.45
726.67	1593.32
726.85	1507.30
727.03	1587.18
727.21	1794.02
727.39	2138.08
727.57	3385.29
727.76	4419.52
727.94	4700.09
728.12	5091.25
728.30	5066.67
728.48	4315.07
728.66	3524.55
728.84	3151.82
729.03	2865.11
729.21	2553.82
729.39	2330.59
729.57	2002.91
729.75	1843.17
729.93	1773.54
730.11	1656.81
730.30	1673.19
730.48	1611.75
730.66	1634.28
730.84	1578.98
731.02	1550.31
731.20	1535.98
731.38	1550.31
731.56	1449.96
731.74	1556.46
731.93	1591.27
732.11	1581.03
732.29	1589.22
732.47	1531.88
732.65	1535.98
732.83	1597.42
733.01	1593.32
733.19	1503.21
733.37	1562.60
733.56	1632.23
733.74	1486.83
733.92	1611.75
734.10	1468.39
734.28	1636.33
734.46	1429.48
734.64	1492.97
734.82	1495.02
735.00	1564.65
735.18	1589.22
735.36	1566.70
735.54	1538.02
735.73	1554.41
735.91	1583.08
736.09	1619.94
736.27	1554.41
736.45	1572.84
736.63	1454.06
736.81	1495.02
736.99	1523.69
737.17	1667.05
737.35	1507.30
737.53	1550.31
737.71	1478.63
737.89	1636.33
738.07	1527.78
738.25	1529.83
738.43	1497.07
738.61	1558.50
738.80	1454.06
738.98	1445.87
739.16	1517.54
739.34	1509.35
739.52	1609.70
739.70	1540.07
739.88	1607.66
740.06	1542.12
740.24	1495.02
740.42	1578.98
740.60	1413.10
740.78	1538.02
740.96	1476.59
741.14	1562.60
741.32	1548.26
741.50	1570.79
741.68	1660.90
741.86	1558.50
742.04	1449.96
742.22	1445.87
742.40	1544.17
742.58	1468.39
742.76	1443.82
742.94	1578.98
743.12	1449.96
743.30	1546.22
743.48	1550.31
743.66	1511.40
743.84	1548.26
744.02	1546.22
744.20	1484.78
744.38	1501.16
744.56	1527.78
744.74	1566.70
744.92	1554.41
745.10	1632.23
745.28	1603.56
745.46	1646.57
745.64	1497.07
745.82	1507.30
746.00	1531.88
746.18	1572.84
746.36	1515.50
746.54	1538.02
746.72	1615.85
746.90	1482.73
747.08	1619.94
747.26	1544.17
747.44	1611.75
747.62	1513.45
747.80	1554.41
747.98	1581.03
748.15	1570.79
748.33	1617.90
748.51	1587.18
748.69	1548.26
748.87	1560.55
749.05	1542.12
749.23	1576.94
749.41	1628.14
749.59	1533.93
749.77	1564.65
749.95	1574.89
750.13	1546.22
750.31	1572.84
750.49	1566.70
750.67	1576.94
750.85	1550.31
751.03	1570.79
751.20	1613.80
751.38	1574.89
751.56	1599.46
751.74	1570.79
751.92	1535.98
752.10	1531.88
752.28	1527.78
752.46	1492.97
752.64	1529.83
752.82	1513.45
753.00	1574.89
753.18	1499.11
753.35	1527.78
753.53	1601.51
753.71	1507.30
753.89	1677.29
754.07	1558.50
754.25	1624.04
754.43	1538.02
754.61	1437.67
754.79	1615.85
754.97	1529.83
755.14	1581.03
755.32	1535.98
755.50	1562.60
755.68	1470.44
755.86	1458.15
756.04	1492.97
756.22	1452.01
756.40	1572.84
756.57	1658.85
756.75	1488.87
756.93	1644.52
757.11	1570.79
757.29	1515.50
757.47	1499.11
757.65	1495.02
757.82	1478.63
758.00	1529.83
758.18	1523.69
758.36	1480.68
758.54	1615.85
758.72	1497.07
758.90	1507.30
759.07	1533.93
759.25	1458.15
759.43	1490.92
759.61	1495.02
759.79	1968.10
759.97	1558.50
760.15	1525.74
760.32	1527.78
760.50	1488.87
760.68	1632.23
760.86	1419.24
761.04	1628.14
761.22	1546.22
761.39	1492.97
761.57	1548.26
761.75	1456.11
761.93	1521.64
762.11	1505.26
762.28	1529.83
762.46	1474.54
762.64	1566.70
762.82	1478.63
763.00	1507.30
763.18	1619.94
763.35	1558.50
763.53	1572.84
763.71	1540.07
763.89	1556.46
764.07	1572.84
764.24	1468.39
764.42	1597.42
764.60	1546.22
764.78	1578.98
764.96	1591.27
765.13	1521.64
765.31	1509.35
765.49	1544.17
765.67	1429.48
765.84	1523.69
766.02	1404.91
766.20	1464.30
766.38	1527.78
766.56	1578.98
766.73	1585.13
766.91	1548.26
767.09	1574.89
767.27	1609.70
767.44	1447.91
767.62	1566.70
767.80	1511.40
767.98	1513.45
768.15	1538.02
768.33	1499.11
768.51	1554.41
768.69	1634.28
768.87	1574.89
769.04	1474.54
769.22	1685.48
769.40	1546.22
769.58	1593.32
769.75	1509.35
769.93	1644.52
770.11	1521.64
770.28	1476.59
770.46	1556.46
770.64	1560.55
770.82	1542.12
770.99	1505.26
771.17	1509.35
771.35	1538.02
771.53	1447.91
771.70	1574.89
771.88	1630.18
772.06	1521.64
772.23	1529.83
772.41	1501.16
772.59	1495.02
772.77	1505.26
772.94	1503.21
773.12	1558.50
773.30	1501.16
773.47	1538.02
773.65	1478.63
773.83	1607.66
774.01	1529.83
774.18	1421.29
774.36	1533.93
774.54	1486.83
774.71	1517.54
774.89	1480.68
775.07	1462.25
775.24	1488.87
775.42	1533.93
775.60	1552.36
775.78	1538.02
775.95	1507.30
776.13	1386.47
776.31	1366.00
776.48	1554.41
776.66	1644.52
776.84	1572.84
777.01	1525.74
777.19	1560.55
777.37	1538.02
777.54	1519.59
777.72	1572.84
777.90	1538.02
778.07	1558.50
778.25	1677.29
778.43	1593.32
778.60	1544.17
778.78	1593.32
778.96	1558.50
779.13	1503.21
779.31	1617.90
779.49	1503.21
779.66	1531.88
779.84	1503.21
780.01	1533.93
780.19	1492.97
780.37	1632.23
780.54	1480.68
780.72	1515.50
780.90	1531.88
781.07	1472.49
781.25	1554.41
781.43	1607.66
781.60	1460.20
781.78	1505.26
781.95	1538.02
782.13	1619.94
782.31	1611.75
782.48	1525.74
782.66	1517.54
782.83	1603.56
783.01	1585.13
783.19	1576.94
783.36	1513.45
783.54	1533.93
783.72	1587.18
783.89	1486.83
784.07	1552.36
784.24	1556.46
784.42	1497.07
784.60	1556.46
784.77	1542.12
784.95	1507.30
785.12	1535.98
785.30	1556.46
785.47	1507.30
785.65	1509.35
785.83	1607.66
786.00	1507.30
786.18	1550.31
786.35	1431.53
786.53	1525.74
786.71	1552.36
786.88	1533.93
787.06	1617.90
787.23	1550.31
787.41	1521.64
787.58	1548.26
787.76	1476.59
787.94	1558.50
788.11	1521.64
788.29	1515.50
788.46	1533.93
788.64	1458.15
788.81	1527.78
788.99	1488.87
789.16	1576.94
789.34	1546.22
789.52	1583.08
789.69	1517.54
789.87	1458.15
790.04	1501.16
790.22	1517.54
790.39	1568.74
790.57	1517.54
790.74	1513.45
790.92	1595.37
791.09	1476.59
791.27	1488.87
791.44	1583.08
791.62	1507.30
791.79	1538.02
791.97	1452.01
792.15	1665.00
792.32	1628.14
792.50	1476.59
792.67	1589.22
792.85	1656.81
793.02	1531.88
793.20	1501.16
793.37	1490.92
793.55	1566.70
793.72	1525.74
793.90	1601.51
794.07	1482.73
794.25	1511.40
794.42	1495.02
794.60	1468.39
794.77	1591.27
794.95	1544.17
795.12	1595.37
795.30	1525.74
795.47	1406.95
795.65	1644.52
795.82	1572.84
796.00	1486.83
796.17	1531.88
796.34	1490.92
796.52	1521.64
796.69	1527.78
796.87	1546.22
797.04	1540.07
797.22	1531.88
797.39	1552.36
797.57	1603.56
797.74	1589.22
797.92	1611.75
798.09	1568.74
798.27	1556.46
798.44	1570.79
798.62	1482.73
798.79	1519.59
798.96	1568.74
799.14	1558.50
799.31	1660.90
799.49	1474.54
799.66	1443.82
799.84	1599.46
800.01	1462.25
800.19	1572.84
800.36	1495.02
800.53	1595.37
800.71	1497.07
800.88	1599.46
801.06	1531.88
801.23	1511.40
801.41	1482.73
801.58	1576.94
801.75	1519.59
801.93	1607.66
802.10	1611.75
802.28	1488.87
802.45	1519.59
802.63	1644.52
802.80	1572.84
802.97	1507.30
803.15	1449.96
803.32	1566.70
803.50	1482.73
803.67	1447.91
803.84	1460.20
804.02	1507.30
804.19	1515.50
804.37	1413.10
804.54	1513.45
804.71	1517.54
804.89	1554.41
805.06	1445.87
805.24	1499.11
805.41	1544.17
805.58	1472.49
805.76	1644.52
805.93	1550.31
806.10	1605.61
806.28	1581.03
806.45	1556.46
806.63	1640.42
806.80	1613.80
806.97	1568.74
807.15	1542.12
807.32	1501.16
807.49	1538.02
807.67	1540.07
807.84	1519.59
808.01	1472.49
808.19	1611.75
808.36	1701.86
808.54	1497.07
808.71	1472.49
808.88	1501.16
809.06	1609.70
809.23	1652.71
809.40	1470.44
809.58	1542.12
809.75	1533.93
809.92	1449.96
810.10	1566.70
810.27	1607.66
810.44	1480.68
810.62	1566.70
810.79	1554.41
810.96	1552.36
811.14	1527.78
811.31	1568.74
811.48	1599.46
811.66	1515.50
811.83	1466.35
812.00	1544.17
812.18	1546.22
812.35	1519.59
812.52	1554.41
812.69	1499.11
812.87	1513.45
813.04	1484.78
813.21	1447.91
813.39	1460.20
813.56	1503.21
813.73	1605.61
813.91	1535.98
814.08	1607.66
814.25	1456.11
814.42	1460.20
814.60	1476.59
814.77	1564.65
814.94	1611.75
815.12	1566.70
815.29	1562.60
815.46	1429.48
815.63	1562.60
815.81	1550.31
815.98	1486.83
816.15	1562.60
816.33	1509.35
816.50	1552.36
816.67	1501.16
816.84	1570.79
817.02	1509.35
817.19	1535.98
817.36	1478.63
817.53	1640.42
817.71	1458.15
817.88	1615.85
818.05	1552.36
818.22	1544.17
818.40	1599.46
818.57	1495.02
818.74	1583.08
818.91	1482.73
819.09	1648.61
819.26	1576.94
819.43	1515.50
819.60	1452.01
819.78	1564.65
819.95	1540.07
820.12	1462.25
820.29	1591.27
820.47	1648.61
820.64	1486.83
820.81	1466.35
820.98	1474.54
821.15	1542.12
821.33	1572.84
821.50	1490.92
821.67	1570.79
821.84	1560.55
822.02	1603.56
822.19	1572.84
822.36	1540.07
822.53	1517.54
822.70	1486.83
822.88	1517.54
823.05	1550.31
823.22	1570.79
823.39	1570.79
823.56	1542.12
823.74	1673.19
823.91	1519.59
824.08	1443.82
824.25	1462.25
824.42	1540.07
824.60	1449.96
824.77	1542.12
824.94	1509.35
825.11	1550.31
825.28	1474.54
825.45	1564.65
825.63	1542.12
825.80	1529.83
825.97	1566.70
826.14	1497.07
826.31	1423.34
826.48	1548.26
826.66	1482.73
826.83	1474.54
827.00	1540.07
827.17	1447.91
827.34	1544.17
827.51	1523.69
827.69	1554.41
827.86	1495.02
828.03	1456.11
828.20	1591.27
828.37	1535.98
828.54	1564.65
828.71	1544.17
828.89	1566.70
829.06	1486.83
829.23	1632.23
829.40	1464.30
829.57	1478.63
829.74	1601.51
829.91	1542.12
830.09	1482.73
830.26	1492.97
830.43	1636.33
830.60	1519.59
830.77	1560.55
830.94	1542.12
831.11	1566.70
831.28	1486.83
831.46	1556.46
831.63	1544.17
831.80	1601.51
831.97	1482.73
832.14	1529.83
832.31	1576.94
832.48	1564.65
832.65	1619.94
832.82	1587.18
832.99	1570.79
833.17	1552.36
833.34	1644.52
833.51	1599.46
833.68	1509.35
833.85	1652.71
834.02	1601.51
834.19	1374.19
834.36	1468.39
834.53	1527.78
834.70	1597.42
834.87	1576.94
835.04	1509.35
835.22	1492.97
835.39	1458.15
835.56	1515.50
835.73	1540.07
835.90	1513.45
836.07	1505.26
836.24	1570.79
836.41	1490.92
836.58	1525.74
836.75	1562.60
836.92	1497.07
837.09	1558.50
837.26	1572.84
837.43	1593.32
837.60	1556.46
837.77	1572.84
837.94	1509.35
838.12	1533.93
838.29	1554.41
838.46	1558.50
838.63	1492.97
838.80	1617.90
838.97	1574.89
839.14	1533.93
839.31	1564.65
839.48	1574.89
839.65	1548.26
839.82	1576.94
839.99	1574.89
840.16	1558.50
840.33	1480.68
840.50	1423.34
840.67	1472.49
840.84	1497.07
841.01	1566.70
841.18	1482.73
841.35	1488.87
841.52	1646.57
841.69	1624.04
841.86	1574.89
842.03	1533.93
842.20	1556.46
842.37	1568.74
842.54	1568.74
842.71	1576.94
842.88	1515.50
843.05	1621.99
843.22	1499.11
843.39	1550.31
843.56	1427.43
843.73	1570.79
843.90	1488.87
844.07	1515.50
844.24	1554.41
844.41	1636.33
844.58	1499.11
844.75	1482.73
844.92	1601.51
845.09	1585.13
845.26	1507.30
845.43	1585.13
845.60	1484.78
845.77	1566.70
845.94	1562.60
846.10	1601.51
846.27	1411.05
846.44	1572.84
846.61	1499.11
846.78	1574.89
846.95	1542.12
847.12	1601.51
847.29	1517.54
847.46	1458.15
847.63	1628.14
847.80	1484.78
847.97	1550.31
848.14	1564.65
848.31	1462.25
848.48	1505.26
848.65	1626.09
848.82	1531.88
848.98	1566.70
849.15	1540.07
849.32	1538.02
849.49	1523.69
849.66	1501.16
849.83	1535.98
850.00	1466.35
850.17	1617.90
850.34	1540.07
850.51	1470.44
850.68	1495.02
850.85	1581.03
851.01	1550.31
851.18	1540.07
851.35	1535.98
851.52	1597.42
851.69	1574.89
851.86	1458.15
852.03	1476.59
852.20	1585.13
852.37	1499.11
852.53	1441.77
852.70	1607.66
852.87	1462.25
853.04	1540.07
853.21	1499.11
853.38	1578.98
853.55	1570.79
853.72	1570.79
853.89	1558.50
854.05	1478.63
854.22	1583.08
854.39	1509.35
854.56	1634.28
854.73	1523.69
854.90	1449.96
855.07	1476.59
855.23	1578.98
855.40	1566.70
855.57	1538.02
855.74	1460.20
855.91	1648.61
856.08	1509.35
856.25	1470.44
856.41	1519.59
856.58	1501.16
856.75	1576.94
856.92	1525.74
857.09	1552.36
857.26	1447.91
857.42	1538.02
857.59	1587.18
857.76	1466.35
857.93	1615.85
858.10	1523.69
858.27	1517.54
858.43	1468.39
858.60	1523.69
858.77	1466.35
858.94	1460.20
859.11	1593.32
859.27	1517.54
859.44	1486.83
859.61	1591.27
859.78	1574.89
859.95	1554.41
860.12	1458.15
860.28	1675.24
860.45	1609.70
860.62	1490.92
860.79	1458.15
860.95	1546.22
861.12	1482.73
861.29	1476.59
861.46	1484.78
861.63	1521.64
861.79	1497.07
861.96	1497.07
862.13	1566.70
862.30	1578.98
862.47	1452.01
862.63	1509.35
862.80	1576.94
862.97	1509.35
863.14	1480.68
863.30	1570.79
863.47	1421.29
863.64	1542.12
863.81	1568.74
863.97	1554.41
864.14	1488.87
864.31	1572.84
864.48	1576.94
864.65	1540.07
864.81	1525.74
864.98	1556.46
865.15	1615.85
865.32	1560.55
865.48	1527.78
865.65	1648.61
865.82	1535.98
865.98	1531.88
866.15	1566.70
866.32	1564.65
866.49	1497.07
866.65	1546.22
866.82	1462.25
866.99	1501.16
867.16	1566.70
867.32	1505.26
867.49	1507.30
867.66	1488.87
867.83	1529.83
867.99	1488.87
868.16	1525.74
868.33	1495.02
868.49	1525.74
868.66	1566.70
868.83	1576.94
868.99	1587.18
869.16	1609.70
869.33	1570.79
869.50	1554.41
869.66	1499.11
869.83	1495.02
870.00	1472.49
870.16	1603.56
870.33	1515.50
870.50	1519.59
870.66	1589.22
870.83	1599.46
871.00	1570.79
871.17	1599.46
871.33	1556.46
871.50	1601.51
871.67	1480.68
871.83	1517.54
872.00	1652.71
872.17	1576.94
872.33	1603.56
872.50	1585.13
872.67	1511.40
872.83	1525.74
873.00	1527.78
873.17	1601.51
873.33	1617.90
873.50	1540.07
873.67	1511.40
873.83	1503.21
874.00	1560.55
874.16	1574.89
874.33	1513.45
874.50	1445.87
874.66	1542.12
874.83	1574.89
875.00	1599.46
875.16	1570.79
875.33	1648.61
875.50	1443.82
875.66	1501.16
875.83	1552.36
875.99	1533.93
876.16	1507.30
876.33	1507.30
876.49	1531.88
876.66	1550.31
876.83	1488.87
876.99	1488.87
877.16	1550.31
877.32	1490.92
877.49	1566.70
877.66	1607.66
877.82	1574.89
877.99	1572.84
878.15	1576.94
878.32	1529.83
878.49	1542.12
878.65	1449.96
878.82	1560.55
878.98	1509.35
879.15	1550.31
879.32	1581.03
879.48	1568.74
879.65	1542.12
879.81	1421.29
879.98	1497.07
880.15	1478.63
880.31	1503.21
880.48	1601.51
880.64	1574.89
880.81	1583.08
880.97	1634.28
881.14	1562.60
881.31	1486.83
881.47	1679.33
881.64	1507.30
881.80	1472.49
881.97	1603.56
882.13	1591.27
882.30	1482.73
882.47	1558.50
882.63	1511.40
882.80	1505.26
882.96	1529.83
883.13	1538.02
883.29	1507.30
883.46	1585.13
883.62	1624.04
883.79	1558.50
883.95	1624.04
884.12	1572.84
884.29	1589.22
884.45	1501.16
884.62	1466.35
884.78	1531.88
884.95	1613.80
885.11	1488.87
885.28	1529.83
885.44	1456.11
885.61	1525.74
885.77	1554.41
885.94	1546.22
886.10	1595.37
886.27	1550.31
886.43	1634.28
886.60	1603.56
886.76	1576.94
886.93	1519.59
887.09	1550.31
887.26	1454.06
887.42	1542.12
887.59	1560.55
887.75	1605.61
887.92	1525.74
888.08	1613.80
888.25	1669.09
888.41	1611.75
888.58	1519.59
888.74	1521.64
888.91	1517.54
>>>>>End Processed Spectral Data<<<<<
