SpectraSuite Data File
++++++++++++++++++++++++++++++++++++
Date: Tue May 03 12:55:54 CEST 2016
User: root
Dark Spectrum Present: No
Reference Spectrum Present: No
Number of Sampled Component Spectra: 1
Spectrometers: USB4C02835
Integration Time (usec): 100000 (USB4C02835)
Spectra Averaged: 1 (USB4C02835)
Boxcar Smoothing: 0 (USB4C02835)
Correct for Electrical Dark: No (USB4C02835)
Strobe/Lamp Enabled: No (USB4C02835)
Correct for Detector Non-linearity: No (USB4C02835)
Correct for Stray Light: No (USB4C02835)
Number of Pixels in Processed Spectrum: 3648
>>>>>Begin Processed Spectral Data<<<<<
177.47	1388.52
177.69	1388.52
177.91	1388.52
178.13	1368.04
178.36	1288.17
178.58	1501.16
178.80	1560.55
179.02	1460.20
179.24	1499.11
179.46	1503.21
179.68	1515.50
179.90	1513.45
180.13	1583.08
180.35	1525.74
180.57	1503.21
180.79	1574.89
181.01	1521.64
181.23	1544.17
181.45	1626.09
181.67	1540.07
181.90	1538.02
182.12	1517.54
182.34	1492.97
182.56	1552.36
182.78	1519.59
183.00	1517.54
183.22	1546.22
183.44	1443.82
183.66	1660.90
183.89	1636.33
184.11	1558.50
184.33	1568.74
184.55	1578.98
184.77	1589.22
184.99	1511.40
185.21	1482.73
185.43	1533.93
185.65	1490.92
185.87	1497.07
186.10	1621.99
186.32	1638.38
186.54	1574.89
186.76	1568.74
186.98	1636.33
187.20	1517.54
187.42	1531.88
187.64	1570.79
187.86	1527.78
188.08	1576.94
188.30	1519.59
188.52	1511.40
188.75	1578.98
188.97	1570.79
189.19	1501.16
189.41	1513.45
189.63	1531.88
189.85	1474.54
190.07	1521.64
190.29	1533.93
190.51	1531.88
190.73	1505.26
190.95	1699.81
191.17	1525.74
191.39	1574.89
191.61	1513.45
191.84	1507.30
192.06	1560.55
192.28	1447.91
192.50	1744.87
192.72	1550.31
192.94	1544.17
193.16	1597.42
193.38	1548.26
193.60	1521.64
193.82	1564.65
194.04	1607.66
194.26	1568.74
194.48	1490.92
194.70	1562.60
194.92	1495.02
195.14	1578.98
195.36	1468.39
195.58	1441.77
195.80	1535.98
196.02	1497.07
196.24	1554.41
196.46	1521.64
196.69	1505.26
196.91	1626.09
197.13	1538.02
197.35	1503.21
197.57	1560.55
197.79	1499.11
198.01	1497.07
198.23	1603.56
198.45	1617.90
198.67	1521.64
198.89	1525.74
199.11	1519.59
199.33	1452.01
199.55	1501.16
199.77	1484.78
199.99	1574.89
200.21	1509.35
200.43	1587.18
200.65	1519.59
200.87	1472.49
201.09	1542.12
201.31	1495.02
201.53	1558.50
201.75	1501.16
201.97	1558.50
202.19	1544.17
202.41	1585.13
202.63	1583.08
202.85	1607.66
203.07	1527.78
203.29	1591.27
203.51	1497.07
203.73	1552.36
203.95	1621.99
204.17	1558.50
204.39	1550.31
204.61	1429.48
204.83	1521.64
205.05	1554.41
205.27	1566.70
205.49	1667.05
205.71	1527.78
205.93	1466.35
206.15	1525.74
206.37	1529.83
206.59	1464.30
206.81	1456.11
207.03	1515.50
207.25	1513.45
207.47	1640.42
207.69	1544.17
207.91	1572.84
208.13	1558.50
208.34	1544.17
208.56	1552.36
208.78	1585.13
209.00	1538.02
209.22	1505.26
209.44	1568.74
209.66	1488.87
209.88	1546.22
210.10	1503.21
210.32	1558.50
210.54	1599.46
210.76	1472.49
210.98	1603.56
211.20	1437.67
211.42	1497.07
211.64	1564.65
211.86	1501.16
212.08	1548.26
212.30	1538.02
212.52	1564.65
212.74	1558.50
212.96	1538.02
213.17	1558.50
213.39	1538.02
213.61	1644.52
213.83	1585.13
214.05	1482.73
214.27	1597.42
214.49	1529.83
214.71	1482.73
214.93	1644.52
215.15	1593.32
215.37	1533.93
215.59	1505.26
215.81	1552.36
216.03	1562.60
216.24	1519.59
216.46	1554.41
216.68	1601.51
216.90	1552.36
217.12	1589.22
217.34	1529.83
217.56	1583.08
217.78	1601.51
218.00	1525.74
218.22	1558.50
218.44	1538.02
218.66	1517.54
218.87	1652.71
219.09	1480.68
219.31	1558.50
219.53	1501.16
219.75	1519.59
219.97	1574.89
220.19	1470.44
220.41	1533.93
220.63	1538.02
220.85	1613.80
221.06	1538.02
221.28	1619.94
221.50	1556.46
221.72	1484.78
221.94	1576.94
222.16	1587.18
222.38	1513.45
222.60	1499.11
222.82	1576.94
223.03	1574.89
223.25	1501.16
223.47	1601.51
223.69	1605.61
223.91	1523.69
224.13	1497.07
224.35	1462.25
224.57	1525.74
224.78	1595.37
225.00	1468.39
225.22	1527.78
225.44	1462.25
225.66	1583.08
225.88	1517.54
226.10	1609.70
226.32	1574.89
226.53	1564.65
226.75	1531.88
226.97	1521.64
227.19	1529.83
227.41	1523.69
227.63	1468.39
227.85	1538.02
228.06	1566.70
228.28	1585.13
228.50	1550.31
228.72	1449.96
228.94	1433.58
229.16	1478.63
229.37	1511.40
229.59	1406.95
229.81	1677.29
230.03	1548.26
230.25	1507.30
230.47	1460.20
230.69	1415.15
230.90	1605.61
231.12	1505.26
231.34	1609.70
231.56	1656.81
231.78	1525.74
232.00	1486.83
232.21	1556.46
232.43	1556.46
232.65	1454.06
232.87	1499.11
233.09	1419.24
233.30	1503.21
233.52	1603.56
233.74	1568.74
233.96	1564.65
234.18	1576.94
234.40	1527.78
234.61	1607.66
234.83	1548.26
235.05	1505.26
235.27	1621.99
235.49	1517.54
235.70	1568.74
235.92	1615.85
236.14	1548.26
236.36	1591.27
236.58	1474.54
236.79	1673.19
237.01	1517.54
237.23	1585.13
237.45	1578.98
237.67	1495.02
237.88	1519.59
238.10	1615.85
238.32	1466.35
238.54	1603.56
238.76	1490.92
238.97	1519.59
239.19	1542.12
239.41	1599.46
239.63	1603.56
239.85	1501.16
240.06	1535.98
240.28	1558.50
240.50	1599.46
240.72	1595.37
240.93	1509.35
241.15	1544.17
241.37	1511.40
241.59	1605.61
241.81	1544.17
242.02	1503.21
242.24	1550.31
242.46	1538.02
242.68	1583.08
242.89	1540.07
243.11	1583.08
243.33	1503.21
243.55	1523.69
243.76	1576.94
243.98	1515.50
244.20	1535.98
244.42	1515.50
244.64	1576.94
244.85	1437.67
245.07	1523.69
245.29	1644.52
245.51	1505.26
245.72	1535.98
245.94	1552.36
246.16	1501.16
246.38	1581.03
246.59	1464.30
246.81	1554.41
247.03	1517.54
247.24	1480.68
247.46	1576.94
247.68	1462.25
247.90	1578.98
248.11	1511.40
248.33	1523.69
248.55	1521.64
248.77	1570.79
248.98	1535.98
249.20	1624.04
249.42	1503.21
249.64	1531.88
249.85	1505.26
250.07	1513.45
250.29	1613.80
250.50	1624.04
250.72	1503.21
250.94	1531.88
251.16	1652.71
251.37	1644.52
251.59	1587.18
251.81	1601.51
252.02	1499.11
252.24	1560.55
252.46	1611.75
252.68	1447.91
252.89	1531.88
253.11	1474.54
253.33	1587.18
253.54	1542.12
253.76	1472.49
253.98	1535.98
254.20	1552.36
254.41	1468.39
254.63	1538.02
254.85	1513.45
255.06	1556.46
255.28	1529.83
255.50	1525.74
255.71	1546.22
255.93	1454.06
256.15	1576.94
256.36	1546.22
256.58	1546.22
256.80	1570.79
257.02	1499.11
257.23	1490.92
257.45	1607.66
257.67	1570.79
257.88	1568.74
258.10	1615.85
258.32	1560.55
258.53	1554.41
258.75	1648.61
258.97	1531.88
259.18	1495.02
259.40	1535.98
259.62	1595.37
259.83	1603.56
260.05	1587.18
260.27	1730.53
260.48	1617.90
260.70	1525.74
260.92	1538.02
261.13	1505.26
261.35	1542.12
261.57	1560.55
261.78	1460.20
262.00	1484.78
262.22	1544.17
262.43	1460.20
262.65	1542.12
262.86	1476.59
263.08	1601.51
263.30	1542.12
263.51	1513.45
263.73	1527.78
263.95	1597.42
264.16	1517.54
264.38	1499.11
264.60	1556.46
264.81	1472.49
265.03	1576.94
265.25	1558.50
265.46	1601.51
265.68	1591.27
265.89	1542.12
266.11	1449.96
266.33	1558.50
266.54	1589.22
266.76	1535.98
266.98	1611.75
267.19	1632.23
267.41	1552.36
267.62	1548.26
267.84	1521.64
268.06	1492.97
268.27	1550.31
268.49	1634.28
268.70	1531.88
268.92	1564.65
269.14	1517.54
269.35	1478.63
269.57	1439.72
269.79	1583.08
270.00	1503.21
270.22	1632.23
270.43	1478.63
270.65	1417.19
270.87	1603.56
271.08	1617.90
271.30	1566.70
271.51	1484.78
271.73	1556.46
271.95	1599.46
272.16	1560.55
272.38	1542.12
272.59	1499.11
272.81	1607.66
273.02	1572.84
273.24	1495.02
273.46	1517.54
273.67	1492.97
273.89	1531.88
274.10	1476.59
274.32	1544.17
274.54	1525.74
274.75	1552.36
274.97	1445.87
275.18	1603.56
275.40	1628.14
275.61	1562.60
275.83	1578.98
276.05	1523.69
276.26	1507.30
276.48	1570.79
276.69	1505.26
276.91	1558.50
277.12	1535.98
277.34	1521.64
277.55	1558.50
277.77	1517.54
277.99	1511.40
278.20	1452.01
278.42	1456.11
278.63	1531.88
278.85	1511.40
279.06	1529.83
279.28	1613.80
279.49	1564.65
279.71	1583.08
279.93	1599.46
280.14	1540.07
280.36	1531.88
280.57	1601.51
280.79	1658.85
281.00	1511.40
281.22	1525.74
281.43	1597.42
281.65	1458.15
281.86	1484.78
282.08	1521.64
282.29	1679.33
282.51	1540.07
282.73	1501.16
282.94	1456.11
283.16	1585.13
283.37	1564.65
283.59	1568.74
283.80	1568.74
284.02	1585.13
284.23	1574.89
284.45	1554.41
284.66	1497.07
284.88	1468.39
285.09	1591.27
285.31	1599.46
285.52	1542.12
285.74	1431.53
285.95	1562.60
286.17	1523.69
286.38	1624.04
286.60	1470.44
286.81	1542.12
287.03	1492.97
287.24	1599.46
287.46	1517.54
287.67	1507.30
287.89	1638.38
288.10	1499.11
288.32	1554.41
288.53	1560.55
288.75	1552.36
288.96	1550.31
289.18	1527.78
289.39	1519.59
289.61	1585.13
289.82	1662.95
290.04	1683.43
290.25	1507.30
290.47	1468.39
290.68	1583.08
290.90	1574.89
291.11	1492.97
291.33	1583.08
291.54	1525.74
291.76	1490.92
291.97	1449.96
292.18	1566.70
292.40	1511.40
292.61	1544.17
292.83	1624.04
293.04	1589.22
293.26	1540.07
293.47	1509.35
293.69	1449.96
293.90	1540.07
294.12	1529.83
294.33	1591.27
294.55	1505.26
294.76	1538.02
294.97	1665.00
295.19	1656.81
295.40	1556.46
295.62	1589.22
295.83	1542.12
296.05	1507.30
296.26	1533.93
296.48	1492.97
296.69	1523.69
296.90	1535.98
297.12	1550.31
297.33	1583.08
297.55	1540.07
297.76	1529.83
297.98	1574.89
298.19	1490.92
298.41	1529.83
298.62	1548.26
298.83	1568.74
299.05	1574.89
299.26	1470.44
299.48	1421.29
299.69	1542.12
299.90	1628.14
300.12	1476.59
300.33	1558.50
300.55	1605.61
300.76	1605.61
300.98	1472.49
301.19	1581.03
301.40	1501.16
301.62	1550.31
301.83	1566.70
302.05	1548.26
302.26	1556.46
302.47	1593.32
302.69	1476.59
302.90	1554.41
303.12	1474.54
303.33	1626.09
303.54	1636.33
303.76	1468.39
303.97	1511.40
304.19	1585.13
304.40	1538.02
304.61	1527.78
304.83	1673.19
305.04	1554.41
305.26	1492.97
305.47	1568.74
305.68	1509.35
305.90	1560.55
306.11	1531.88
306.33	1447.91
306.54	1546.22
306.75	1525.74
306.97	1488.87
307.18	1439.72
307.39	1497.07
307.61	1527.78
307.82	1462.25
308.04	1538.02
308.25	1560.55
308.46	1535.98
308.68	1484.78
308.89	1509.35
309.10	1533.93
309.32	1609.70
309.53	1570.79
309.74	1503.21
309.96	1466.35
310.17	1589.22
310.39	1523.69
310.60	1562.60
310.81	1538.02
311.03	1445.87
311.24	1568.74
311.45	1576.94
311.67	1646.57
311.88	1546.22
312.09	1517.54
312.31	1476.59
312.52	1556.46
312.73	1452.01
312.95	1492.97
313.16	1458.15
313.37	1533.93
313.59	1554.41
313.80	1619.94
314.01	1667.05
314.23	1535.98
314.44	1507.30
314.65	1533.93
314.87	1570.79
315.08	1519.59
315.29	1476.59
315.51	1509.35
315.72	1474.54
315.93	1574.89
316.15	1585.13
316.36	1507.30
316.57	1578.98
316.79	1621.99
317.00	1574.89
317.21	1611.75
317.43	1488.87
317.64	1550.31
317.85	1509.35
318.07	1652.71
318.28	1634.28
318.49	1701.86
318.70	1789.92
318.92	1732.58
319.13	1642.47
319.34	1687.53
319.56	1701.86
319.77	1687.53
319.98	1673.19
320.20	1574.89
320.41	1640.42
320.62	1650.66
320.83	1535.98
321.05	1603.56
321.26	1515.50
321.47	1527.78
321.69	1548.26
321.90	1472.49
322.11	1511.40
322.32	1576.94
322.54	1550.31
322.75	1507.30
322.96	1705.96
323.18	1460.20
323.39	1513.45
323.60	1460.20
323.81	1611.75
324.03	1464.30
324.24	1509.35
324.45	1517.54
324.66	1525.74
324.88	1595.37
325.09	1574.89
325.30	1492.97
325.52	1535.98
325.73	1581.03
325.94	1544.17
326.15	1480.68
326.37	1521.64
326.58	1548.26
326.79	1581.03
327.00	1523.69
327.22	1615.85
327.43	1509.35
327.64	1478.63
327.85	1578.98
328.07	1535.98
328.28	1603.56
328.49	1511.40
328.70	1581.03
328.92	1517.54
329.13	1546.22
329.34	1529.83
329.55	1552.36
329.76	1587.18
329.98	1540.07
330.19	1576.94
330.40	1574.89
330.61	1513.45
330.83	1578.98
331.04	1486.83
331.25	1589.22
331.46	1484.78
331.68	1423.34
331.89	1544.17
332.10	1521.64
332.31	1484.78
332.52	1460.20
332.74	1626.09
332.95	1525.74
333.16	1509.35
333.37	1564.65
333.58	1478.63
333.80	1529.83
334.01	1464.30
334.22	1503.21
334.43	1452.01
334.64	1513.45
334.86	1558.50
335.07	1503.21
335.28	1603.56
335.49	1452.01
335.70	1535.98
335.92	1570.79
336.13	1619.94
336.34	1550.31
336.55	1556.46
336.76	1611.75
336.98	1452.01
337.19	1505.26
337.40	1566.70
337.61	1634.28
337.82	1529.83
338.04	1578.98
338.25	1499.11
338.46	1564.65
338.67	1454.06
338.88	1554.41
339.09	1462.25
339.31	1439.72
339.52	1554.41
339.73	1468.39
339.94	1513.45
340.15	1533.93
340.36	1511.40
340.58	1550.31
340.79	1488.87
341.00	1640.42
341.21	1509.35
341.42	1648.61
341.63	1560.55
341.85	1603.56
342.06	1597.42
342.27	1511.40
342.48	1589.22
342.69	1466.35
342.90	1542.12
343.12	1576.94
343.33	1535.98
343.54	1644.52
343.75	1621.99
343.96	1497.07
344.17	1452.01
344.38	1515.50
344.60	1550.31
344.81	1515.50
345.02	1542.12
345.23	1656.81
345.44	1640.42
345.65	1578.98
345.86	1603.56
346.07	1550.31
346.29	1443.82
346.50	1583.08
346.71	1533.93
346.92	1548.26
347.13	1667.05
347.34	1495.02
347.55	1525.74
347.76	1564.65
347.98	1398.76
348.19	1566.70
348.40	1617.90
348.61	1548.26
348.82	1595.37
349.03	1527.78
349.24	1466.35
349.45	1626.09
349.66	1480.68
349.88	1576.94
350.09	1449.96
350.30	1619.94
350.51	1601.51
350.72	1554.41
350.93	1570.79
351.14	1505.26
351.35	1566.70
351.56	1583.08
351.77	1529.83
351.99	1519.59
352.20	1572.84
352.41	1609.70
352.62	1404.91
352.83	1525.74
353.04	1554.41
353.25	1558.50
353.46	1646.57
353.67	1574.89
353.88	1517.54
354.09	1550.31
354.30	1585.13
354.52	1519.59
354.73	1566.70
354.94	1540.07
355.15	1576.94
355.36	1695.72
355.57	1523.69
355.78	1597.42
355.99	1574.89
356.20	1525.74
356.41	1505.26
356.62	1564.65
356.83	1593.32
357.04	1648.61
357.25	1527.78
357.46	1533.93
357.68	1462.25
357.89	1431.53
358.10	1501.16
358.31	1482.73
358.52	1544.17
358.73	1495.02
358.94	1456.11
359.15	1505.26
359.36	1535.98
359.57	1570.79
359.78	1550.31
359.99	1662.95
360.20	1452.01
360.41	1507.30
360.62	1495.02
360.83	1527.78
361.04	1613.80
361.25	1562.60
361.46	1632.23
361.67	1470.44
361.88	1505.26
362.09	1566.70
362.30	1587.18
362.51	1482.73
362.72	1556.46
362.93	1554.41
363.14	1560.55
363.35	1705.96
363.56	1478.63
363.78	1550.31
363.99	1570.79
364.20	1476.59
364.41	1529.83
364.62	1640.42
364.83	1501.16
365.04	1540.07
365.25	1521.64
365.46	1548.26
365.67	1574.89
365.88	1591.27
366.09	1554.41
366.30	1558.50
366.51	1574.89
366.72	1490.92
366.93	1552.36
367.14	1550.31
367.35	1605.61
367.56	1572.84
367.77	1640.42
367.98	1527.78
368.18	1523.69
368.39	1667.05
368.60	1443.82
368.81	1499.11
369.02	1525.74
369.23	1531.88
369.44	1472.49
369.65	1564.65
369.86	1470.44
370.07	1585.13
370.28	1527.78
370.49	1517.54
370.70	1488.87
370.91	1523.69
371.12	1511.40
371.33	1574.89
371.54	1546.22
371.75	1613.80
371.96	1484.78
372.17	1499.11
372.38	1533.93
372.59	1546.22
372.80	1542.12
373.01	1523.69
373.22	1554.41
373.43	1540.07
373.64	1474.54
373.85	1617.90
374.06	1562.60
374.26	1576.94
374.47	1542.12
374.68	1679.33
374.89	1609.70
375.10	1533.93
375.31	1640.42
375.52	1552.36
375.73	1556.46
375.94	1497.07
376.15	1583.08
376.36	1505.26
376.57	1529.83
376.78	1540.07
376.99	1466.35
377.20	1574.89
377.40	1513.45
377.61	1644.52
377.82	1468.39
378.03	1624.04
378.24	1585.13
378.45	1521.64
378.66	1568.74
378.87	1525.74
379.08	1445.87
379.29	1468.39
379.50	1558.50
379.71	1556.46
379.91	1630.18
380.12	1556.46
380.33	1470.44
380.54	1554.41
380.75	1572.84
380.96	1531.88
381.17	1599.46
381.38	1609.70
381.59	1613.80
381.80	1538.02
382.00	1736.68
382.21	1644.52
382.42	1695.72
382.63	1736.68
382.84	1568.74
383.05	1562.60
383.26	1650.66
383.47	1576.94
383.68	1560.55
383.88	1558.50
384.09	1562.60
384.30	1675.24
384.51	1609.70
384.72	1552.36
384.93	1550.31
385.14	1488.87
385.35	1587.18
385.55	1431.53
385.76	1640.42
385.97	1581.03
386.18	1538.02
386.39	1562.60
386.60	1601.51
386.81	1597.42
387.02	1554.41
387.22	1490.92
387.43	1722.34
387.64	1613.80
387.85	1845.22
388.06	3119.06
388.27	7124.88
388.48	10489.70
388.68	12535.62
388.89	13965.10
389.10	12801.85
389.31	10278.76
389.52	9074.55
389.73	7853.96
389.93	7231.38
390.14	6741.91
390.35	6160.29
390.56	5568.43
390.77	4667.32
390.98	3717.06
391.18	2787.29
391.39	2179.04
391.60	1787.88
391.81	1779.68
392.02	1572.84
392.23	1640.42
392.43	1595.37
392.64	1685.48
392.85	1490.92
393.06	1671.14
393.27	1488.87
393.47	1478.63
393.68	1617.90
393.89	1507.30
394.10	1624.04
394.31	1462.25
394.52	1521.64
394.72	1484.78
394.93	1572.84
395.14	1472.49
395.35	1519.59
395.56	1560.55
395.76	1593.32
395.97	1689.57
396.18	1687.53
396.39	1718.25
396.60	1912.80
396.80	1740.77
397.01	1714.15
397.22	1626.09
397.43	1736.68
397.64	1570.79
397.84	1675.24
398.05	1703.91
398.26	1613.80
398.47	1603.56
398.67	1679.33
398.88	1486.83
399.09	1538.02
399.30	1511.40
399.51	1538.02
399.71	1482.73
399.92	1570.79
400.13	1507.30
400.34	1531.88
400.54	1593.32
400.75	1699.81
400.96	1576.94
401.17	1665.00
401.37	1587.18
401.58	1527.78
401.79	1578.98
402.00	1720.29
402.21	1920.99
402.41	1955.81
402.62	1920.99
402.83	1953.76
403.04	1849.32
403.24	1845.22
403.45	1736.68
403.66	1755.11
403.87	1722.34
404.07	1689.57
404.28	1767.40
404.49	1751.01
404.70	1578.98
404.90	1648.61
405.11	1636.33
405.32	1648.61
405.52	1562.60
405.73	1574.89
405.94	1505.26
406.15	1517.54
406.35	1556.46
406.56	1495.02
406.77	1576.94
406.98	1449.96
407.18	1578.98
407.39	1554.41
407.60	1548.26
407.80	1605.61
408.01	1525.74
408.22	1558.50
408.43	1482.73
408.63	1589.22
408.84	1632.23
409.05	1566.70
409.25	1535.98
409.46	1521.64
409.67	1515.50
409.88	1562.60
410.08	1495.02
410.29	1554.41
410.50	1578.98
410.70	1613.80
410.91	1476.59
411.12	1544.17
411.32	1572.84
411.53	1593.32
411.74	1683.43
411.95	1665.00
412.15	1611.75
412.36	1601.51
412.57	1521.64
412.77	1640.42
412.98	1595.37
413.19	1587.18
413.39	1501.16
413.60	1587.18
413.81	1648.61
414.01	1538.02
414.22	1564.65
414.43	1535.98
414.63	1535.98
414.84	1591.27
415.05	1517.54
415.25	1497.07
415.46	1570.79
415.67	1552.36
415.87	1615.85
416.08	1550.31
416.29	1564.65
416.49	1509.35
416.70	1497.07
416.91	1589.22
417.11	1538.02
417.32	1540.07
417.53	1538.02
417.73	1593.32
417.94	1556.46
418.15	1591.27
418.35	1488.87
418.56	1597.42
418.77	1701.86
418.97	1515.50
419.18	1533.93
419.38	1392.62
419.59	1558.50
419.80	1607.66
420.00	1591.27
420.21	1548.26
420.42	1634.28
420.62	1615.85
420.83	1456.11
421.04	1540.07
421.24	1490.92
421.45	1628.14
421.65	1540.07
421.86	1507.30
422.07	1589.22
422.27	1548.26
422.48	1538.02
422.69	1478.63
422.89	1515.50
423.10	1527.78
423.30	1421.29
423.51	1540.07
423.72	1566.70
423.92	1613.80
424.13	1519.59
424.33	1605.61
424.54	1525.74
424.75	1527.78
424.95	1607.66
425.16	1505.26
425.36	1503.21
425.57	1583.08
425.78	1556.46
425.98	1546.22
426.19	1599.46
426.39	1419.24
426.60	1515.50
426.81	1613.80
427.01	1591.27
427.22	1492.97
427.42	1521.64
427.63	1474.54
427.83	1562.60
428.04	1609.70
428.25	1593.32
428.45	1542.12
428.66	1550.31
428.86	1527.78
429.07	1542.12
429.28	1591.27
429.48	1554.41
429.69	1417.19
429.89	1632.23
430.10	1470.44
430.30	1548.26
430.51	1546.22
430.71	1484.78
430.92	1499.11
431.13	1517.54
431.33	1585.13
431.54	1509.35
431.74	1611.75
431.95	1609.70
432.15	1490.92
432.36	1525.74
432.56	1570.79
432.77	1716.20
432.98	1613.80
433.18	1548.26
433.39	1492.97
433.59	1482.73
433.80	1603.56
434.00	1667.05
434.21	1544.17
434.41	1507.30
434.62	1767.40
434.82	1538.02
435.03	1445.87
435.23	1515.50
435.44	1443.82
435.64	1589.22
435.85	1560.55
436.06	1603.56
436.26	1511.40
436.47	1529.83
436.67	1556.46
436.88	1452.01
437.08	1548.26
437.29	1644.52
437.49	1593.32
437.70	1585.13
437.90	1605.61
438.11	1634.28
438.31	1691.62
438.52	1691.62
438.72	1708.01
438.93	1791.97
439.13	1611.75
439.34	1673.19
439.54	1665.00
439.75	1628.14
439.95	1662.95
440.16	1535.98
440.36	1576.94
440.57	1646.57
440.77	1626.09
440.98	1531.88
441.18	1544.17
441.39	1599.46
441.59	1558.50
441.80	1621.99
442.00	1554.41
442.21	1603.56
442.41	1511.40
442.62	1480.68
442.82	1503.21
443.02	1509.35
443.23	1519.59
443.43	1533.93
443.64	1656.81
443.84	1556.46
444.05	1667.05
444.25	1585.13
444.46	1632.23
444.66	1542.12
444.87	1619.94
445.07	1466.35
445.28	1527.78
445.48	1621.99
445.69	1650.66
445.89	1648.61
446.09	1599.46
446.30	2002.91
446.50	3196.88
446.71	4581.31
446.91	5404.59
447.12	5791.66
447.32	5539.76
447.53	4648.89
447.73	4009.92
447.93	3633.10
448.14	3344.33
448.34	3237.84
448.55	2979.79
448.75	2871.25
448.96	2758.61
449.16	2527.19
449.36	2330.59
449.57	1998.82
449.77	1794.02
449.98	1640.42
450.18	1720.29
450.39	1535.98
450.59	1470.44
450.79	1523.69
451.00	1484.78
451.20	1642.47
451.41	1609.70
451.61	1562.60
451.81	1495.02
452.02	1544.17
452.22	1560.55
452.43	1527.78
452.63	1566.70
452.84	1546.22
453.04	1515.50
453.24	1538.02
453.45	1603.56
453.65	1544.17
453.86	1583.08
454.06	1609.70
454.26	1550.31
454.47	1527.78
454.67	1587.18
454.87	1499.11
455.08	1544.17
455.28	1648.61
455.49	1568.74
455.69	1527.78
455.89	1652.71
456.10	1556.46
456.30	1505.26
456.51	1527.78
456.71	1540.07
456.91	1566.70
457.12	1525.74
457.32	1613.80
457.52	1445.87
457.73	1558.50
457.93	1574.89
458.14	1499.11
458.34	1472.49
458.54	1540.07
458.75	1574.89
458.95	1585.13
459.15	1589.22
459.36	1578.98
459.56	1546.22
459.76	1601.51
459.97	1550.31
460.17	1581.03
460.37	1626.09
460.58	1513.45
460.78	1554.41
460.99	1523.69
461.19	1515.50
461.39	1505.26
461.60	1533.93
461.80	1626.09
462.00	1558.50
462.21	1556.46
462.41	1581.03
462.61	1550.31
462.82	1515.50
463.02	1538.02
463.22	1535.98
463.43	1581.03
463.63	1585.13
463.83	1546.22
464.04	1574.89
464.24	1556.46
464.44	1509.35
464.64	1624.04
464.85	1574.89
465.05	1570.79
465.25	1515.50
465.46	1501.16
465.66	1601.51
465.86	1538.02
466.07	1554.41
466.27	1609.70
466.47	1515.50
466.68	1501.16
466.88	1667.05
467.08	1578.98
467.29	1595.37
467.49	1671.14
467.69	1542.12
467.89	1556.46
468.10	1546.22
468.30	1550.31
468.50	1601.51
468.71	1529.83
468.91	1472.49
469.11	1636.33
469.31	1521.64
469.52	1484.78
469.72	1624.04
469.92	1601.51
470.13	1529.83
470.33	1550.31
470.53	1703.91
470.73	2017.25
470.94	2418.65
471.14	2449.37
471.34	2523.10
471.54	2574.30
471.75	2248.67
471.95	2009.06
472.15	2029.54
472.36	1943.52
472.56	1937.38
472.76	1884.13
472.96	1906.66
473.17	1802.21
473.37	1806.31
473.57	1695.72
473.77	1695.72
473.98	1568.74
474.18	1546.22
474.38	1683.43
474.58	1572.84
474.79	1589.22
474.99	1587.18
475.19	1587.18
475.39	1495.02
475.60	1628.14
475.80	1585.13
476.00	1550.31
476.20	1492.97
476.41	1578.98
476.61	1673.19
476.81	1529.83
477.01	1550.31
477.21	1595.37
477.42	1587.18
477.62	1464.30
477.82	1572.84
478.02	1542.12
478.23	1535.98
478.43	1511.40
478.63	1519.59
478.83	1552.36
479.03	1538.02
479.24	1617.90
479.44	1624.04
479.64	1525.74
479.84	1421.29
480.04	1552.36
480.25	1517.54
480.45	1484.78
480.65	1531.88
480.85	1644.52
481.06	1507.30
481.26	1632.23
481.46	1535.98
481.66	1482.73
481.86	1472.49
482.06	1585.13
482.27	1568.74
482.47	1540.07
482.67	1585.13
482.87	1523.69
483.07	1607.66
483.28	1560.55
483.48	1476.59
483.68	1542.12
483.88	1529.83
484.08	1421.29
484.29	1503.21
484.49	1509.35
484.69	1548.26
484.89	1611.75
485.09	1564.65
485.29	1574.89
485.50	1576.94
485.70	1529.83
485.90	1599.46
486.10	1603.56
486.30	1484.78
486.50	1578.98
486.71	1533.93
486.91	1607.66
487.11	1644.52
487.31	1484.78
487.51	1511.40
487.71	1497.07
487.91	1462.25
488.12	1546.22
488.32	1427.43
488.52	1511.40
488.72	1490.92
488.92	1578.98
489.12	1619.94
489.32	1665.00
489.53	1599.46
489.73	1484.78
489.93	1564.65
490.13	1529.83
490.33	1456.11
490.53	1533.93
490.73	1624.04
490.94	1474.54
491.14	1619.94
491.34	1677.29
491.54	2127.84
491.74	2637.78
491.94	3160.02
492.14	3405.77
492.34	3309.52
492.54	2801.62
492.75	2410.46
492.95	2463.71
493.15	2181.09
493.35	2195.42
493.55	2123.74
493.75	2033.63
493.95	2127.84
494.15	1988.58
494.35	1808.36
494.56	1708.01
494.76	1654.76
494.96	1626.09
495.16	1626.09
495.36	1587.18
495.56	1568.74
495.76	1521.64
495.96	1550.31
496.16	1535.98
496.36	1609.70
496.56	1560.55
496.77	1634.28
496.97	1519.59
497.17	1595.37
497.37	1552.36
497.57	1570.79
497.77	1609.70
497.97	1578.98
498.17	1560.55
498.37	1568.74
498.57	1611.75
498.77	1525.74
498.97	1648.61
499.17	1662.95
499.38	1519.59
499.58	1529.83
499.78	1636.33
499.98	1581.03
500.18	1570.79
500.38	1554.41
500.58	1820.64
500.78	2648.02
500.98	5199.79
501.18	6711.19
501.38	8466.30
501.58	8720.25
501.78	7872.39
501.98	6133.67
502.18	5427.12
502.38	4597.69
502.58	4347.84
502.78	3819.46
502.98	3751.88
503.18	3749.83
503.38	3344.33
503.59	2926.55
503.79	2772.95
503.99	2570.20
504.19	2320.35
504.39	2125.79
504.59	2082.78
504.79	2045.92
504.99	1941.47
505.19	1765.35
505.39	1812.45
505.59	1857.51
505.79	1695.72
505.99	1603.56
506.19	1665.00
506.39	1746.92
506.59	1658.85
506.79	1593.32
506.99	1753.06
507.19	1611.75
507.39	1535.98
507.59	1546.22
507.79	1630.18
507.99	1523.69
508.19	1486.83
508.39	1525.74
508.59	1597.42
508.79	1650.66
508.99	1540.07
509.19	1505.26
509.39	1585.13
509.59	1527.78
509.79	1468.39
509.99	1511.40
510.19	1652.71
510.39	1605.61
510.59	1601.51
510.79	1615.85
510.99	1566.70
511.19	1521.64
511.39	1609.70
511.59	1597.42
511.79	1589.22
511.99	1566.70
512.19	1542.12
512.38	1576.94
512.58	1482.73
512.78	1589.22
512.98	1544.17
513.18	1638.38
513.38	1458.15
513.58	1540.07
513.78	1576.94
513.98	1470.44
514.18	1546.22
514.38	1525.74
514.58	1581.03
514.78	1525.74
514.98	1544.17
515.18	1566.70
515.38	1505.26
515.58	1593.32
515.78	1581.03
515.98	1552.36
516.18	1531.88
516.38	1558.50
516.57	1583.08
516.77	1531.88
516.97	1564.65
517.17	1550.31
517.37	1458.15
517.57	1595.37
517.77	1566.70
517.97	1535.98
518.17	1683.43
518.37	1458.15
518.57	1548.26
518.77	1525.74
518.97	1497.07
519.16	1521.64
519.36	1630.18
519.56	1531.88
519.76	1585.13
519.96	1583.08
520.16	1560.55
520.36	1468.39
520.56	1619.94
520.76	1507.30
520.96	1505.26
521.16	1595.37
521.35	1533.93
521.55	1591.27
521.75	1566.70
521.95	1447.91
522.15	1638.38
522.35	1501.16
522.55	1497.07
522.75	1542.12
522.95	1546.22
523.14	1560.55
523.34	1492.97
523.54	1533.93
523.74	1601.51
523.94	1607.66
524.14	1542.12
524.34	1609.70
524.54	1607.66
524.73	1503.21
524.93	1564.65
525.13	1626.09
525.33	1497.07
525.53	1615.85
525.73	1533.93
525.93	1560.55
526.13	1525.74
526.32	1525.74
526.52	1591.27
526.72	1546.22
526.92	1587.18
527.12	1523.69
527.32	1480.68
527.52	1492.97
527.71	1603.56
527.91	1535.98
528.11	1503.21
528.31	1511.40
528.51	1501.16
528.71	1601.51
528.90	1591.27
529.10	1652.71
529.30	1583.08
529.50	1470.44
529.70	1505.26
529.90	1599.46
530.09	1607.66
530.29	1519.59
530.49	1476.59
530.69	1632.23
530.89	1609.70
531.09	1597.42
531.28	1523.69
531.48	1595.37
531.68	1517.54
531.88	1517.54
532.08	1576.94
532.28	1558.50
532.47	1585.13
532.67	1650.66
532.87	1595.37
533.07	1544.17
533.27	1685.48
533.46	1529.83
533.66	1640.42
533.86	1566.70
534.06	1628.14
534.26	1523.69
534.45	1587.18
534.65	1667.05
534.85	1558.50
535.05	1497.07
535.25	1652.71
535.44	1576.94
535.64	1607.66
535.84	1492.97
536.04	1529.83
536.24	1527.78
536.43	1513.45
536.63	1556.46
536.83	1544.17
537.03	1495.02
537.22	1456.11
537.42	1476.59
537.62	1587.18
537.82	1540.07
538.02	1593.32
538.21	1570.79
538.41	1656.81
538.61	1601.51
538.81	1505.26
539.00	1540.07
539.20	1478.63
539.40	1503.21
539.60	1548.26
539.79	1597.42
539.99	1554.41
540.19	1558.50
540.39	1484.78
540.58	1583.08
540.78	1554.41
540.98	1593.32
541.18	1568.74
541.37	1660.90
541.57	1576.94
541.77	1634.28
541.97	1511.40
542.16	1456.11
542.36	1560.55
542.56	1589.22
542.76	1607.66
542.95	1603.56
543.15	1574.89
543.35	1587.18
543.54	1443.82
543.74	1511.40
543.94	1542.12
544.14	1550.31
544.33	1583.08
544.53	1519.59
544.73	1525.74
544.93	1554.41
545.12	1509.35
545.32	1552.36
545.52	1533.93
545.71	1533.93
545.91	1472.49
546.11	1478.63
546.30	1519.59
546.50	1503.21
546.70	1605.61
546.90	1546.22
547.09	1488.87
547.29	1585.13
547.49	1617.90
547.68	1619.94
547.88	1454.06
548.08	1632.23
548.27	1959.91
548.47	1499.11
548.67	1525.74
548.87	1531.88
549.06	1599.46
549.26	1548.26
549.46	1542.12
549.65	1540.07
549.85	1560.55
550.05	1556.46
550.24	1538.02
550.44	1486.83
550.64	1538.02
550.83	1595.37
551.03	1531.88
551.23	1576.94
551.42	1517.54
551.62	1576.94
551.82	1562.60
552.01	1511.40
552.21	1589.22
552.41	1540.07
552.60	1613.80
552.80	1452.01
553.00	1538.02
553.19	1591.27
553.39	1619.94
553.59	1574.89
553.78	1605.61
553.98	1558.50
554.17	1497.07
554.37	1482.73
554.57	1568.74
554.76	1464.30
554.96	1556.46
555.16	1527.78
555.35	1568.74
555.55	1597.42
555.75	1589.22
555.94	1587.18
556.14	1388.52
556.33	1630.18
556.53	1509.35
556.73	1570.79
556.92	1560.55
557.12	1624.04
557.32	1683.43
557.51	1646.57
557.71	1636.33
557.90	1554.41
558.10	1615.85
558.30	1562.60
558.49	1535.98
558.69	1552.36
558.88	1597.42
559.08	1572.84
559.28	1521.64
559.47	1583.08
559.67	1574.89
559.86	1628.14
560.06	1482.73
560.26	1519.59
560.45	1548.26
560.65	1576.94
560.84	1572.84
561.04	1585.13
561.24	1617.90
561.43	1529.83
561.63	1583.08
561.82	1576.94
562.02	1611.75
562.22	1535.98
562.41	1447.91
562.61	1658.85
562.80	1486.83
563.00	1677.29
563.19	1568.74
563.39	1564.65
563.59	1484.78
563.78	1421.29
563.98	1441.77
564.17	1554.41
564.37	1509.35
564.56	1591.27
564.76	1497.07
564.96	1585.13
565.15	1521.64
565.35	1720.29
565.54	1464.30
565.74	1593.32
565.93	1540.07
566.13	1609.70
566.32	1492.97
566.52	1597.42
566.71	1562.60
566.91	1605.61
567.11	1558.50
567.30	1556.46
567.50	1601.51
567.69	1552.36
567.89	1523.69
568.08	1560.55
568.28	1538.02
568.47	1503.21
568.67	1572.84
568.86	1542.12
569.06	1615.85
569.25	1521.64
569.45	1472.49
569.64	1538.02
569.84	1503.21
570.04	1515.50
570.23	1556.46
570.43	1468.39
570.62	1566.70
570.82	1619.94
571.01	1458.15
571.21	1554.41
571.40	1411.05
571.60	1566.70
571.79	1548.26
571.99	1527.78
572.18	1554.41
572.38	1523.69
572.57	1542.12
572.77	1703.91
572.96	1675.24
573.16	1591.27
573.35	1597.42
573.55	1667.05
573.74	1576.94
573.94	1568.74
574.13	1495.02
574.33	1597.42
574.52	1617.90
574.71	1560.55
574.91	1617.90
575.10	1505.26
575.30	1585.13
575.49	1554.41
575.69	1562.60
575.88	1568.74
576.08	1503.21
576.27	1581.03
576.47	1630.18
576.66	1669.09
576.86	1624.04
577.05	1574.89
577.25	1652.71
577.44	1691.62
577.64	1535.98
577.83	1638.38
578.02	1492.97
578.22	1660.90
578.41	1613.80
578.61	1599.46
578.80	1585.13
579.00	1591.27
579.19	1644.52
579.39	1578.98
579.58	1595.37
579.77	1562.60
579.97	1609.70
580.16	1636.33
580.36	1669.09
580.55	1683.43
580.75	1656.81
580.94	1656.81
581.13	1662.95
581.33	1583.08
581.52	1542.12
581.72	1677.29
581.91	1716.20
582.11	1607.66
582.30	1587.18
582.49	1568.74
582.69	1703.91
582.88	1566.70
583.08	1632.23
583.27	1681.38
583.47	1593.32
583.66	1517.54
583.85	1603.56
584.05	1572.84
584.24	1636.33
584.44	1634.28
584.63	1685.48
584.82	1703.91
585.02	1812.45
585.21	1718.25
585.41	1705.96
585.60	1763.30
585.79	1834.98
585.99	1822.69
586.18	1853.41
586.37	2097.12
586.57	3149.78
586.76	9578.35
586.96	27477.60
587.15	44064.10
587.34	54645.95
587.54	61371.48
587.73	60175.47
587.93	43693.41
588.12	32538.13
588.31	25876.09
588.51	22376.11
588.70	19924.69
588.89	18407.14
589.09	17278.71
589.28	15249.18
589.47	13406.00
589.67	11044.70
589.86	9000.82
590.06	6856.60
590.25	5091.25
590.44	3839.94
590.64	2824.15
590.83	2303.96
591.02	2074.59
591.22	1851.36
591.41	1783.78
591.60	1710.05
591.80	1800.16
591.99	1609.70
592.18	1630.18
592.38	1632.23
592.57	1568.74
592.76	1576.94
592.96	1626.09
593.15	1603.56
593.34	1675.24
593.54	1521.64
593.73	1521.64
593.92	1615.85
594.12	1708.01
594.31	1626.09
594.50	1699.81
594.70	1630.18
594.89	1621.99
595.08	1540.07
595.28	1701.86
595.47	1695.72
595.66	1605.61
595.86	1574.89
596.05	1562.60
596.24	1548.26
596.43	1621.99
596.63	1542.12
596.82	1550.31
597.01	1544.17
597.21	1736.68
597.40	1615.85
597.59	1576.94
597.79	1619.94
597.98	1656.81
598.17	1552.36
598.36	1564.65
598.56	1658.85
598.75	1554.41
598.94	1591.27
599.14	1587.18
599.33	1515.50
599.52	1546.22
599.71	1519.59
599.91	1587.18
600.10	1605.61
600.29	1554.41
600.48	1595.37
600.68	1589.22
600.87	1638.38
601.06	1517.54
601.26	1576.94
601.45	1601.51
601.64	1591.27
601.83	1595.37
602.03	1585.13
602.22	1507.30
602.41	1542.12
602.60	1671.14
602.80	1611.75
602.99	1562.60
603.18	1540.07
603.37	1583.08
603.57	1544.17
603.76	1621.99
603.95	1607.66
604.14	1572.84
604.34	1570.79
604.53	1470.44
604.72	1566.70
604.91	1624.04
605.10	1619.94
605.30	1497.07
605.49	1572.84
605.68	1538.02
605.87	1619.94
606.07	1538.02
606.26	1540.07
606.45	1529.83
606.64	1581.03
606.84	1529.83
607.03	1558.50
607.22	1566.70
607.41	1593.32
607.60	1615.85
607.80	1652.71
607.99	1511.40
608.18	1566.70
608.37	1609.70
608.56	1507.30
608.76	1599.46
608.95	1665.00
609.14	1560.55
609.33	1654.76
609.52	1665.00
609.72	1640.42
609.91	1705.96
610.10	1617.90
610.29	1660.90
610.48	1632.23
610.68	1599.46
610.87	1570.79
611.06	1652.71
611.25	1509.35
611.44	1630.18
611.63	1574.89
611.83	1621.99
612.02	1449.96
612.21	1578.98
612.40	1548.26
612.59	1519.59
612.79	1501.16
612.98	1583.08
613.17	1652.71
613.36	1535.98
613.55	1599.46
613.74	1693.67
613.93	1650.66
614.13	1718.25
614.32	1759.21
614.51	1808.36
614.70	1615.85
614.89	1636.33
615.08	1640.42
615.28	1908.71
615.47	1621.99
615.66	1638.38
615.85	1636.33
616.04	1681.38
616.23	1554.41
616.42	1566.70
616.62	1626.09
616.81	1609.70
617.00	1609.70
617.19	1558.50
617.38	1558.50
617.57	1595.37
617.76	1619.94
617.95	1531.88
618.15	1576.94
618.34	1638.38
618.53	1513.45
618.72	1640.42
618.91	1648.61
619.10	1644.52
619.29	1591.27
619.48	1544.17
619.68	1452.01
619.87	1644.52
620.06	1460.20
620.25	1540.07
620.44	1505.26
620.63	1495.02
620.82	1462.25
621.01	1519.59
621.20	1533.93
621.39	1624.04
621.59	1558.50
621.78	1574.89
621.97	1581.03
622.16	1578.98
622.35	1523.69
622.54	1597.42
622.73	1607.66
622.92	1468.39
623.11	1636.33
623.30	1456.11
623.49	1615.85
623.68	1533.93
623.88	1574.89
624.07	1550.31
624.26	1533.93
624.45	1542.12
624.64	1495.02
624.83	1527.78
625.02	1497.07
625.21	1562.60
625.40	1613.80
625.59	1630.18
625.78	1515.50
625.97	1615.85
626.16	1669.09
626.35	1685.48
626.54	1632.23
626.74	1652.71
626.93	1574.89
627.12	1544.17
627.31	1621.99
627.50	1566.70
627.69	1597.42
627.88	1544.17
628.07	1562.60
628.26	1576.94
628.45	1578.98
628.64	1538.02
628.83	1605.61
629.02	1466.35
629.21	1591.27
629.40	1572.84
629.59	1478.63
629.78	1527.78
629.97	1535.98
630.16	1583.08
630.35	1497.07
630.54	1550.31
630.73	1527.78
630.92	1470.44
631.11	1595.37
631.30	1566.70
631.49	1632.23
631.68	1550.31
631.87	1574.89
632.06	1593.32
632.25	1722.34
632.44	1558.50
632.63	1619.94
632.82	1556.46
633.01	1554.41
633.20	1628.14
633.39	1646.57
633.58	1621.99
633.77	1638.38
633.96	1619.94
634.15	1640.42
634.34	1619.94
634.53	1576.94
634.72	1570.79
634.91	1505.26
635.10	1552.36
635.29	1581.03
635.48	1572.84
635.67	1538.02
635.86	1466.35
636.05	1533.93
636.24	1525.74
636.43	1458.15
636.62	1540.07
636.81	1415.15
637.00	1572.84
637.19	1624.04
637.38	1591.27
637.57	1535.98
637.76	1603.56
637.95	1683.43
638.14	1591.27
638.33	1654.76
638.52	1671.14
638.71	1568.74
638.89	1560.55
639.08	1740.77
639.27	1626.09
639.46	1636.33
639.65	1873.89
639.84	2023.39
640.03	2103.26
640.22	2209.76
640.41	2189.28
640.60	1920.99
640.79	1882.08
640.98	1714.15
641.17	1814.50
641.36	1703.91
641.55	1765.35
641.74	1671.14
641.92	1619.94
642.11	1630.18
642.30	1607.66
642.49	1646.57
642.68	1525.74
642.87	1667.05
643.06	1591.27
643.25	1492.97
643.44	1482.73
643.63	1560.55
643.82	1583.08
644.00	1593.32
644.19	1501.16
644.38	1449.96
644.57	1574.89
644.76	1564.65
644.95	1554.41
645.14	1505.26
645.33	1595.37
645.52	1546.22
645.71	1552.36
645.89	1566.70
646.08	1531.88
646.27	1533.93
646.46	1587.18
646.65	1538.02
646.84	1460.20
647.03	1531.88
647.22	1544.17
647.40	1595.37
647.59	1587.18
647.78	1531.88
647.97	1488.87
648.16	1495.02
648.35	1603.56
648.54	1603.56
648.73	1476.59
648.91	1525.74
649.10	1607.66
649.29	1556.46
649.48	1560.55
649.67	1556.46
649.86	1654.76
650.05	1605.61
650.23	1703.91
650.42	1671.14
650.61	1779.68
650.80	1693.67
650.99	1855.46
651.18	1644.52
651.36	1675.24
651.55	1619.94
651.74	1636.33
651.93	1542.12
652.12	1566.70
652.31	1523.69
652.49	1589.22
652.68	1540.07
652.87	1654.76
653.06	1630.18
653.25	1685.48
653.44	1599.46
653.62	1607.66
653.81	1609.70
654.00	1540.07
654.19	1544.17
654.38	1720.29
654.56	1591.27
654.75	1533.93
654.94	1564.65
655.13	1531.88
655.32	1484.78
655.51	1568.74
655.69	1554.41
655.88	1495.02
656.07	1511.40
656.26	1570.79
656.45	1501.16
656.63	1517.54
656.82	1609.70
657.01	1619.94
657.20	1497.07
657.38	1525.74
657.57	1556.46
657.76	1384.43
657.95	1544.17
658.14	1509.35
658.32	1574.89
658.51	1478.63
658.70	1574.89
658.89	1531.88
659.08	1556.46
659.26	1691.62
659.45	1570.79
659.64	1603.56
659.83	1566.70
660.01	1773.54
660.20	1595.37
660.39	1640.42
660.58	1443.82
660.76	1646.57
660.95	1495.02
661.14	1548.26
661.33	1492.97
661.51	1566.70
661.70	1544.17
661.89	1533.93
662.08	1546.22
662.26	1511.40
662.45	1515.50
662.64	1646.57
662.83	1544.17
663.01	1447.91
663.20	1423.34
663.39	1638.38
663.58	1511.40
663.76	1544.17
663.95	1519.59
664.14	1497.07
664.32	1578.98
664.51	1515.50
664.70	1476.59
664.89	1507.30
665.07	1474.54
665.26	1583.08
665.45	1460.20
665.64	1621.99
665.82	1550.31
666.01	1603.56
666.20	1591.27
666.38	1691.62
666.57	1611.75
666.76	1896.42
666.95	3006.42
667.13	7683.98
667.32	15609.62
667.51	19875.54
667.69	23469.72
667.88	25112.19
668.07	22197.93
668.25	15556.37
668.44	12603.20
668.63	9987.94
668.81	8640.38
669.00	7837.58
669.19	6973.33
669.38	6367.13
669.56	5697.45
669.75	4829.11
669.94	4126.66
670.12	3346.38
670.31	2840.53
670.50	2404.32
670.68	2045.92
670.87	1933.28
671.06	1783.78
671.24	1751.01
671.43	1681.38
671.62	1689.57
671.80	1581.03
671.99	1658.85
672.18	1531.88
672.36	1675.24
672.55	1562.60
672.74	1501.16
672.92	1509.35
673.11	1599.46
673.29	1529.83
673.48	1583.08
673.67	1572.84
673.85	1574.89
674.04	1527.78
674.23	1568.74
674.41	1673.19
674.60	1421.29
674.79	1454.06
674.97	1495.02
675.16	1564.65
675.34	1601.51
675.53	1486.83
675.72	1611.75
675.90	1646.57
676.09	1583.08
676.28	1576.94
676.46	1402.86
676.65	1626.09
676.83	1486.83
677.02	1495.02
677.21	1591.27
677.39	1574.89
677.58	1431.53
677.77	1572.84
677.95	1533.93
678.14	1562.60
678.32	1507.30
678.51	1538.02
678.70	1613.80
678.88	1558.50
679.07	1515.50
679.25	1583.08
679.44	1525.74
679.63	1486.83
679.81	1609.70
680.00	1488.87
680.18	1613.80
680.37	1617.90
680.55	1538.02
680.74	1492.97
680.93	1476.59
681.11	1581.03
681.30	1519.59
681.48	1476.59
681.67	1566.70
681.85	1523.69
682.04	1527.78
682.23	1581.03
682.41	1533.93
682.60	1538.02
682.78	1425.39
682.97	1533.93
683.15	1552.36
683.34	1554.41
683.53	1581.03
683.71	1474.54
683.90	1658.85
684.08	1564.65
684.27	1558.50
684.45	1538.02
684.64	1570.79
684.82	1566.70
685.01	1601.51
685.19	1509.35
685.38	1587.18
685.57	1560.55
685.75	1505.26
685.94	1556.46
686.12	1531.88
686.31	1523.69
686.49	1589.22
686.68	1492.97
686.86	1519.59
687.05	1550.31
687.23	1578.98
687.42	1452.01
687.60	1490.92
687.79	1589.22
687.97	1601.51
688.16	1519.59
688.34	1601.51
688.53	1499.11
688.71	1665.00
688.90	1634.28
689.08	1523.69
689.27	1439.72
689.45	1615.85
689.64	1511.40
689.82	1560.55
690.01	1521.64
690.19	1544.17
690.38	1517.54
690.56	1497.07
690.75	1470.44
690.93	1503.21
691.12	1509.35
691.30	1517.54
691.49	1544.17
691.67	1478.63
691.86	1615.85
692.04	1511.40
692.23	1550.31
692.41	1589.22
692.60	1654.76
692.78	1722.34
692.97	1607.66
693.15	1630.18
693.34	1716.20
693.52	1632.23
693.71	1570.79
693.89	1566.70
694.08	1509.35
694.26	1585.13
694.44	1642.47
694.63	1615.85
694.81	1505.26
695.00	1515.50
695.18	1609.70
695.37	1708.01
695.55	1531.88
695.74	1538.02
695.92	1472.49
696.10	1595.37
696.29	1525.74
696.47	1515.50
696.66	1533.93
696.84	1519.59
697.03	1556.46
697.21	1581.03
697.40	1933.28
697.58	1603.56
697.76	1562.60
697.95	1550.31
698.13	1476.59
698.32	1484.78
698.50	1552.36
698.68	1599.46
698.87	1597.42
699.05	1597.42
699.24	1574.89
699.42	1533.93
699.61	1581.03
699.79	1490.92
699.97	1583.08
700.16	1429.48
700.34	1441.77
700.53	1556.46
700.71	1576.94
700.89	1474.54
701.08	1499.11
701.26	1566.70
701.45	1839.08
701.63	1554.41
701.81	1521.64
702.00	1538.02
702.18	1585.13
702.37	1507.30
702.55	1599.46
702.73	1705.96
702.92	1732.58
703.10	1826.79
703.28	1824.74
703.47	1773.54
703.65	1755.11
703.84	1771.49
704.02	1646.57
704.20	1716.20
704.39	1617.90
704.57	1589.22
704.75	1617.90
704.94	1648.61
705.12	1542.12
705.30	1624.04
705.49	1832.93
705.67	2842.58
705.86	7403.41
706.04	14827.29
706.22	18902.75
706.41	21706.42
706.59	23119.52
706.77	21208.76
706.96	14483.24
707.14	11550.54
707.32	9764.72
707.51	8652.67
707.69	7362.45
707.87	6715.29
708.06	5851.05
708.24	4767.67
708.42	3618.76
708.61	3002.32
708.79	2199.52
708.97	1998.82
709.16	1779.68
709.34	1734.63
709.52	1691.62
709.71	1724.39
709.89	1697.77
710.07	1570.79
710.26	1587.18
710.44	1552.36
710.62	1581.03
710.80	1570.79
710.99	1566.70
711.17	1581.03
711.35	1492.97
711.54	1554.41
711.72	1615.85
711.90	1527.78
712.09	1527.78
712.27	1550.31
712.45	1568.74
712.63	1525.74
712.82	1540.07
713.00	1542.12
713.18	1585.13
713.37	1673.19
713.55	1558.50
713.73	1593.32
713.91	1691.62
714.10	1535.98
714.28	1517.54
714.46	1597.42
714.65	1601.51
714.83	1587.18
715.01	1593.32
715.19	1550.31
715.38	1552.36
715.56	1615.85
715.74	1474.54
715.92	1474.54
716.11	1574.89
716.29	1501.16
716.47	1566.70
716.65	1615.85
716.84	1570.79
717.02	1572.84
717.20	1492.97
717.38	1548.26
717.57	1609.70
717.75	1490.92
717.93	1458.15
718.11	1525.74
718.30	1517.54
718.48	1552.36
718.66	1531.88
718.84	1527.78
719.03	1552.36
719.21	1519.59
719.39	1630.18
719.57	1607.66
719.75	1568.74
719.94	1495.02
720.12	1425.39
720.30	1540.07
720.48	1603.56
720.67	1495.02
720.85	1531.88
721.03	1587.18
721.21	1564.65
721.39	1548.26
721.58	1546.22
721.76	1488.87
721.94	1527.78
722.12	1564.65
722.30	1560.55
722.49	1566.70
722.67	1552.36
722.85	1525.74
723.03	1468.39
723.21	1525.74
723.40	1540.07
723.58	1624.04
723.76	1570.79
723.94	1576.94
724.12	1556.46
724.30	1660.90
724.49	1642.47
724.67	1562.60
724.85	1734.63
725.03	1562.60
725.21	1638.38
725.40	1656.81
725.58	1533.93
725.76	1587.18
725.94	1595.37
726.12	1503.21
726.30	1499.11
726.49	1568.74
726.67	1470.44
726.85	1630.18
727.03	1628.14
727.21	1759.21
727.39	2152.42
727.57	3276.75
727.76	4362.17
727.94	4872.12
728.12	5207.98
728.30	5175.22
728.48	4413.37
728.66	3510.22
728.84	3213.26
729.03	2885.59
729.21	2729.94
729.39	2363.36
729.57	1990.63
729.75	1943.52
729.93	1806.31
730.11	1570.79
730.30	1552.36
730.48	1585.13
730.66	1591.27
730.84	1660.90
731.02	1476.59
731.20	1550.31
731.38	1525.74
731.56	1429.48
731.74	1509.35
731.93	1572.84
732.11	1572.84
732.29	1525.74
732.47	1484.78
732.65	1531.88
732.83	1669.09
733.01	1583.08
733.19	1578.98
733.37	1523.69
733.56	1515.50
733.74	1529.83
733.92	1607.66
734.10	1515.50
734.28	1560.55
734.46	1484.78
734.64	1484.78
734.82	1527.78
735.00	1540.07
735.18	1535.98
735.36	1548.26
735.54	1562.60
735.73	1548.26
735.91	1556.46
736.09	1562.60
736.27	1486.83
736.45	1560.55
736.63	1533.93
736.81	1581.03
736.99	1619.94
737.17	1585.13
737.35	1529.83
737.53	1521.64
737.71	1525.74
737.89	1605.61
738.07	1466.35
738.25	1505.26
738.43	1585.13
738.61	1548.26
738.80	1482.73
738.98	1513.45
739.16	1480.68
739.34	1578.98
739.52	1611.75
739.70	1556.46
739.88	1568.74
740.06	1558.50
740.24	1501.16
740.42	1527.78
740.60	1468.39
740.78	1529.83
740.96	1413.10
741.14	1581.03
741.32	1568.74
741.50	1411.05
741.68	1667.05
741.86	1574.89
742.04	1501.16
742.22	1497.07
742.40	1574.89
742.58	1519.59
742.76	1484.78
742.94	1566.70
743.12	1533.93
743.30	1540.07
743.48	1576.94
743.66	1439.72
743.84	1638.38
744.02	1488.87
744.20	1490.92
744.38	1540.07
744.56	1550.31
744.74	1673.19
744.92	1648.61
745.10	1638.38
745.28	1609.70
745.46	1613.80
745.64	1507.30
745.82	1517.54
746.00	1554.41
746.18	1564.65
746.36	1484.78
746.54	1568.74
746.72	1568.74
746.90	1472.49
747.08	1550.31
747.26	1529.83
747.44	1646.57
747.62	1511.40
747.80	1581.03
747.98	1540.07
748.15	1484.78
748.33	1581.03
748.51	1593.32
748.69	1578.98
748.87	1484.78
749.05	1560.55
749.23	1470.44
749.41	1527.78
749.59	1454.06
749.77	1533.93
749.95	1521.64
750.13	1572.84
750.31	1531.88
750.49	1540.07
750.67	1581.03
750.85	1572.84
751.03	1603.56
751.20	1628.14
751.38	1529.83
751.56	1581.03
751.74	1529.83
751.92	1511.40
752.10	1439.72
752.28	1597.42
752.46	1497.07
752.64	1468.39
752.82	1556.46
753.00	1540.07
753.18	1474.54
753.35	1519.59
753.53	1589.22
753.71	1550.31
753.89	1552.36
754.07	1523.69
754.25	1599.46
754.43	1583.08
754.61	1492.97
754.79	1585.13
754.97	1574.89
755.14	1619.94
755.32	1503.21
755.50	1495.02
755.68	1515.50
755.86	1413.10
756.04	1593.32
756.22	1527.78
756.40	1597.42
756.57	1632.23
756.75	1560.55
756.93	1583.08
757.11	1638.38
757.29	1503.21
757.47	1468.39
757.65	1495.02
757.82	1435.63
758.00	1497.07
758.18	1501.16
758.36	1513.45
758.54	1576.94
758.72	1427.43
758.90	1628.14
759.07	1529.83
759.25	1542.12
759.43	1535.98
759.61	1419.24
759.79	1939.43
759.97	1513.45
760.15	1511.40
760.32	1509.35
760.50	1515.50
760.68	1546.22
760.86	1486.83
761.04	1609.70
761.22	1558.50
761.39	1587.18
761.57	1497.07
761.75	1511.40
761.93	1570.79
762.11	1482.73
762.28	1511.40
762.46	1488.87
762.64	1497.07
762.82	1535.98
763.00	1480.68
763.18	1556.46
763.35	1497.07
763.53	1533.93
763.71	1525.74
763.89	1544.17
764.07	1556.46
764.24	1447.91
764.42	1566.70
764.60	1515.50
764.78	1603.56
764.96	1550.31
765.13	1529.83
765.31	1603.56
765.49	1570.79
765.67	1607.66
765.84	1533.93
766.02	1501.16
766.20	1478.63
766.38	1607.66
766.56	1550.31
766.73	1613.80
766.91	1591.27
767.09	1550.31
767.27	1576.94
767.44	1458.15
767.62	1568.74
767.80	1542.12
767.98	1552.36
768.15	1435.63
768.33	1505.26
768.51	1564.65
768.69	1587.18
768.87	1581.03
769.04	1527.78
769.22	1621.99
769.40	1499.11
769.58	1570.79
769.75	1581.03
769.93	1624.04
770.11	1550.31
770.28	1484.78
770.46	1556.46
770.64	1599.46
770.82	1503.21
770.99	1519.59
771.17	1603.56
771.35	1583.08
771.53	1511.40
771.70	1490.92
771.88	1517.54
772.06	1554.41
772.23	1544.17
772.41	1578.98
772.59	1533.93
772.77	1507.30
772.94	1556.46
773.12	1656.81
773.30	1513.45
773.47	1595.37
773.65	1550.31
773.83	1607.66
774.01	1476.59
774.18	1404.91
774.36	1505.26
774.54	1394.67
774.71	1525.74
774.89	1533.93
775.07	1503.21
775.24	1525.74
775.42	1576.94
775.60	1554.41
775.78	1394.67
775.95	1419.24
776.13	1449.96
776.31	1476.59
776.48	1507.30
776.66	1568.74
776.84	1511.40
777.01	1466.35
777.19	1550.31
777.37	1492.97
777.54	1609.70
777.72	1660.90
777.90	1519.59
778.07	1484.78
778.25	1677.29
778.43	1609.70
778.60	1505.26
778.78	1597.42
778.96	1599.46
779.13	1587.18
779.31	1574.89
779.49	1595.37
779.66	1501.16
779.84	1531.88
780.01	1599.46
780.19	1527.78
780.37	1566.70
780.54	1531.88
780.72	1490.92
780.90	1425.39
781.07	1515.50
781.25	1488.87
781.43	1603.56
781.60	1525.74
781.78	1562.60
781.95	1628.14
782.13	1556.46
782.31	1511.40
782.48	1419.24
782.66	1476.59
782.83	1687.53
783.01	1488.87
783.19	1533.93
783.36	1554.41
783.54	1464.30
783.72	1609.70
783.89	1535.98
784.07	1574.89
784.24	1591.27
784.42	1570.79
784.60	1511.40
784.77	1509.35
784.95	1476.59
785.12	1531.88
785.30	1607.66
785.47	1507.30
785.65	1476.59
785.83	1523.69
786.00	1458.15
786.18	1538.02
786.35	1402.86
786.53	1527.78
786.71	1533.93
786.88	1472.49
787.06	1531.88
787.23	1486.83
787.41	1452.01
787.58	1540.07
787.76	1492.97
787.94	1484.78
788.11	1564.65
788.29	1458.15
788.46	1505.26
788.64	1439.72
788.81	1527.78
788.99	1542.12
789.16	1464.30
789.34	1492.97
789.52	1482.73
789.69	1501.16
789.87	1501.16
790.04	1570.79
790.22	1546.22
790.39	1695.72
790.57	1441.77
790.74	1413.10
790.92	1574.89
791.09	1394.67
791.27	1568.74
791.44	1525.74
791.62	1521.64
791.79	1550.31
791.97	1581.03
792.15	1583.08
792.32	1568.74
792.50	1558.50
792.67	1644.52
792.85	1578.98
793.02	1578.98
793.20	1529.83
793.37	1488.87
793.55	1548.26
793.72	1454.06
793.90	1533.93
794.07	1476.59
794.25	1603.56
794.42	1521.64
794.60	1470.44
794.77	1538.02
794.95	1621.99
795.12	1581.03
795.30	1503.21
795.47	1447.91
795.65	1615.85
795.82	1527.78
796.00	1505.26
796.17	1527.78
796.34	1525.74
796.52	1640.42
796.69	1564.65
796.87	1640.42
797.04	1572.84
797.22	1587.18
797.39	1595.37
797.57	1574.89
797.74	1550.31
797.92	1572.84
798.09	1511.40
798.27	1562.60
798.44	1548.26
798.62	1533.93
798.79	1552.36
798.96	1499.11
799.14	1490.92
799.31	1644.52
799.49	1576.94
799.66	1517.54
799.84	1521.64
800.01	1495.02
800.19	1515.50
800.36	1525.74
800.53	1607.66
800.71	1591.27
800.88	1570.79
801.06	1497.07
801.23	1527.78
801.41	1472.49
801.58	1460.20
801.75	1415.15
801.93	1585.13
802.10	1556.46
802.28	1525.74
802.45	1478.63
802.63	1632.23
802.80	1509.35
802.97	1581.03
803.15	1499.11
803.32	1525.74
803.50	1439.72
803.67	1507.30
803.84	1515.50
804.02	1478.63
804.19	1480.68
804.37	1523.69
804.54	1435.63
804.71	1515.50
804.89	1595.37
805.06	1525.74
805.24	1507.30
805.41	1472.49
805.58	1452.01
805.76	1595.37
805.93	1505.26
806.10	1634.28
806.28	1527.78
806.45	1511.40
806.63	1578.98
806.80	1531.88
806.97	1544.17
807.15	1550.31
807.32	1562.60
807.49	1517.54
807.67	1495.02
807.84	1595.37
808.01	1492.97
808.19	1632.23
808.36	1630.18
808.54	1544.17
808.71	1548.26
808.88	1548.26
809.06	1515.50
809.23	1601.51
809.40	1488.87
809.58	1556.46
809.75	1566.70
809.92	1523.69
810.10	1671.14
810.27	1587.18
810.44	1621.99
810.62	1576.94
810.79	1515.50
810.96	1511.40
811.14	1472.49
811.31	1566.70
811.48	1578.98
811.66	1454.06
811.83	1558.50
812.00	1570.79
812.18	1476.59
812.35	1554.41
812.52	1542.12
812.69	1509.35
812.87	1566.70
813.04	1535.98
813.21	1521.64
813.39	1509.35
813.56	1519.59
813.73	1527.78
813.91	1531.88
814.08	1525.74
814.25	1564.65
814.42	1523.69
814.60	1517.54
814.77	1544.17
814.94	1511.40
815.12	1527.78
815.29	1599.46
815.46	1495.02
815.63	1550.31
815.81	1560.55
815.98	1523.69
816.15	1452.01
816.33	1484.78
816.50	1546.22
816.67	1507.30
816.84	1540.07
817.02	1515.50
817.19	1476.59
817.36	1480.68
817.53	1542.12
817.71	1454.06
817.88	1572.84
818.05	1499.11
818.22	1484.78
818.40	1656.81
818.57	1523.69
818.74	1568.74
818.91	1509.35
819.09	1538.02
819.26	1591.27
819.43	1497.07
819.60	1503.21
819.78	1570.79
819.95	1572.84
820.12	1501.16
820.29	1550.31
820.47	1533.93
820.64	1521.64
820.81	1413.10
820.98	1468.39
821.15	1521.64
821.33	1607.66
821.50	1499.11
821.67	1523.69
821.84	1443.82
822.02	1595.37
822.19	1636.33
822.36	1509.35
822.53	1486.83
822.70	1490.92
822.88	1562.60
823.05	1646.57
823.22	1490.92
823.39	1480.68
823.56	1519.59
823.74	1576.94
823.91	1474.54
824.08	1472.49
824.25	1462.25
824.42	1562.60
824.60	1560.55
824.77	1542.12
824.94	1554.41
825.11	1525.74
825.28	1458.15
825.45	1517.54
825.63	1583.08
825.80	1480.68
825.97	1503.21
826.14	1499.11
826.31	1550.31
826.48	1562.60
826.66	1521.64
826.83	1468.39
827.00	1570.79
827.17	1476.59
827.34	1492.97
827.51	1587.18
827.69	1525.74
827.86	1480.68
828.03	1538.02
828.20	1505.26
828.37	1478.63
828.54	1578.98
828.71	1466.35
828.89	1636.33
829.06	1517.54
829.23	1591.27
829.40	1486.83
829.57	1499.11
829.74	1611.75
829.91	1460.20
830.09	1466.35
830.26	1552.36
830.43	1597.42
830.60	1531.88
830.77	1576.94
830.94	1589.22
831.11	1609.70
831.28	1515.50
831.46	1597.42
831.63	1519.59
831.80	1587.18
831.97	1456.11
832.14	1449.96
832.31	1607.66
832.48	1568.74
832.65	1525.74
832.82	1544.17
832.99	1529.83
833.17	1478.63
833.34	1601.51
833.51	1560.55
833.68	1437.67
833.85	1583.08
834.02	1462.25
834.19	1527.78
834.36	1542.12
834.53	1521.64
834.70	1603.56
834.87	1638.38
835.04	1564.65
835.22	1482.73
835.39	1499.11
835.56	1492.97
835.73	1525.74
835.90	1531.88
836.07	1542.12
836.24	1589.22
836.41	1486.83
836.58	1447.91
836.75	1542.12
836.92	1574.89
837.09	1542.12
837.26	1576.94
837.43	1572.84
837.60	1593.32
837.77	1533.93
837.94	1574.89
838.12	1533.93
838.29	1548.26
838.46	1480.68
838.63	1529.83
838.80	1636.33
838.97	1574.89
839.14	1513.45
839.31	1617.90
839.48	1540.07
839.65	1521.64
839.82	1572.84
839.99	1542.12
840.16	1533.93
840.33	1468.39
840.50	1583.08
840.67	1488.87
840.84	1480.68
841.01	1533.93
841.18	1472.49
841.35	1527.78
841.52	1546.22
841.69	1609.70
841.86	1535.98
842.03	1509.35
842.20	1605.61
842.37	1523.69
842.54	1581.03
842.71	1570.79
842.88	1509.35
843.05	1581.03
843.22	1484.78
843.39	1591.27
843.56	1486.83
843.73	1662.95
843.90	1558.50
844.07	1490.92
844.24	1560.55
844.41	1585.13
844.58	1548.26
844.75	1505.26
844.92	1638.38
845.09	1562.60
845.26	1576.94
845.43	1558.50
845.60	1501.16
845.77	1556.46
845.94	1476.59
846.10	1556.46
846.27	1445.87
846.44	1562.60
846.61	1476.59
846.78	1523.69
846.95	1568.74
847.12	1558.50
847.29	1558.50
847.46	1554.41
847.63	1554.41
847.80	1519.59
847.97	1480.68
848.14	1626.09
848.31	1597.42
848.48	1480.68
848.65	1458.15
848.82	1468.39
848.98	1665.00
849.15	1589.22
849.32	1556.46
849.49	1613.80
849.66	1546.22
849.83	1519.59
850.00	1550.31
850.17	1583.08
850.34	1529.83
850.51	1558.50
850.68	1564.65
850.85	1656.81
851.01	1542.12
851.18	1505.26
851.35	1572.84
851.52	1544.17
851.69	1640.42
851.86	1452.01
852.03	1533.93
852.20	1576.94
852.37	1525.74
852.53	1511.40
852.70	1511.40
852.87	1535.98
853.04	1519.59
853.21	1497.07
853.38	1513.45
853.55	1568.74
853.72	1574.89
853.89	1482.73
854.05	1466.35
854.22	1497.07
854.39	1527.78
854.56	1578.98
854.73	1535.98
854.90	1419.24
855.07	1533.93
855.23	1437.67
855.40	1585.13
855.57	1589.22
855.74	1517.54
855.91	1660.90
856.08	1503.21
856.25	1458.15
856.41	1468.39
856.58	1533.93
856.75	1566.70
856.92	1454.06
857.09	1550.31
857.26	1449.96
857.42	1554.41
857.59	1564.65
857.76	1476.59
857.93	1400.81
858.10	1538.02
858.27	1470.44
858.43	1634.28
858.60	1484.78
858.77	1472.49
858.94	1578.98
859.11	1564.65
859.27	1482.73
859.44	1556.46
859.61	1585.13
859.78	1515.50
859.95	1544.17
860.12	1462.25
860.28	1630.18
860.45	1734.63
860.62	1435.63
860.79	1535.98
860.95	1527.78
861.12	1474.54
861.29	1517.54
861.46	1519.59
861.63	1511.40
861.79	1503.21
861.96	1480.68
862.13	1505.26
862.30	1542.12
862.47	1456.11
862.63	1447.91
862.80	1597.42
862.97	1515.50
863.14	1583.08
863.30	1538.02
863.47	1503.21
863.64	1595.37
863.81	1568.74
863.97	1509.35
864.14	1595.37
864.31	1476.59
864.48	1501.16
864.65	1554.41
864.81	1515.50
864.98	1574.89
865.15	1552.36
865.32	1527.78
865.48	1621.99
865.65	1574.89
865.82	1519.59
865.98	1544.17
866.15	1550.31
866.32	1517.54
866.49	1439.72
866.65	1654.76
866.82	1476.59
866.99	1564.65
867.16	1495.02
867.32	1466.35
867.49	1538.02
867.66	1521.64
867.83	1472.49
867.99	1492.97
868.16	1476.59
868.33	1437.67
868.49	1560.55
868.66	1574.89
868.83	1535.98
868.99	1511.40
869.16	1591.27
869.33	1613.80
869.50	1525.74
869.66	1552.36
869.83	1511.40
870.00	1515.50
870.16	1525.74
870.33	1527.78
870.50	1564.65
870.66	1562.60
870.83	1583.08
871.00	1462.25
871.17	1642.47
871.33	1519.59
871.50	1578.98
871.67	1470.44
871.83	1558.50
872.00	1619.94
872.17	1538.02
872.33	1599.46
872.50	1570.79
872.67	1509.35
872.83	1513.45
873.00	1564.65
873.17	1542.12
873.33	1564.65
873.50	1517.54
873.67	1517.54
873.83	1423.34
874.00	1490.92
874.16	1646.57
874.33	1452.01
874.50	1511.40
874.66	1554.41
874.83	1511.40
875.00	1624.04
875.16	1552.36
875.33	1630.18
875.50	1447.91
875.66	1492.97
875.83	1478.63
875.99	1509.35
876.16	1511.40
876.33	1486.83
876.49	1517.54
876.66	1476.59
876.83	1495.02
876.99	1464.30
877.16	1550.31
877.32	1540.07
877.49	1533.93
877.66	1591.27
877.82	1574.89
877.99	1527.78
878.15	1576.94
878.32	1581.03
878.49	1488.87
878.65	1525.74
878.82	1525.74
878.98	1521.64
879.15	1564.65
879.32	1626.09
879.48	1527.78
879.65	1464.30
879.81	1591.27
879.98	1503.21
880.15	1460.20
880.31	1609.70
880.48	1495.02
880.64	1531.88
880.81	1599.46
880.97	1656.81
881.14	1533.93
881.31	1525.74
881.47	1572.84
881.64	1566.70
881.80	1437.67
881.97	1550.31
882.13	1581.03
882.30	1505.26
882.47	1566.70
882.63	1519.59
882.80	1484.78
882.96	1538.02
883.13	1568.74
883.29	1525.74
883.46	1613.80
883.62	1542.12
883.79	1511.40
883.95	1535.98
884.12	1447.91
884.29	1595.37
884.45	1615.85
884.62	1540.07
884.78	1478.63
884.95	1564.65
885.11	1503.21
885.28	1583.08
885.44	1525.74
885.61	1556.46
885.77	1583.08
885.94	1578.98
886.10	1550.31
886.27	1497.07
886.43	1595.37
886.60	1560.55
886.76	1556.46
886.93	1495.02
887.09	1587.18
887.26	1458.15
887.42	1554.41
887.59	1564.65
887.75	1679.33
887.92	1546.22
888.08	1554.41
888.25	1621.99
888.41	1578.98
888.58	1525.74
888.74	1519.59
888.91	1497.07
>>>>>End Processed Spectral Data<<<<<
