SpectraSuite Data File
++++++++++++++++++++++++++++++++++++
Date: Tue May 03 12:55:52 CEST 2016
User: root
Dark Spectrum Present: No
Reference Spectrum Present: No
Number of Sampled Component Spectra: 1
Spectrometers: USB4C02835
Integration Time (usec): 100000 (USB4C02835)
Spectra Averaged: 1 (USB4C02835)
Boxcar Smoothing: 0 (USB4C02835)
Correct for Electrical Dark: No (USB4C02835)
Strobe/Lamp Enabled: No (USB4C02835)
Correct for Detector Non-linearity: No (USB4C02835)
Correct for Stray Light: No (USB4C02835)
Number of Pixels in Processed Spectrum: 3648
>>>>>Begin Processed Spectral Data<<<<<
177.47	1290.22
177.69	1290.22
177.91	1290.22
178.13	1351.66
178.36	1220.59
178.58	1515.50
178.80	1540.07
179.02	1538.02
179.24	1523.69
179.46	1509.35
179.68	1535.98
179.90	1507.30
180.13	1486.83
180.35	1423.34
180.57	1533.93
180.79	1505.26
181.01	1574.89
181.23	1642.47
181.45	1615.85
181.67	1576.94
181.90	1624.04
182.12	1525.74
182.34	1454.06
182.56	1605.61
182.78	1544.17
183.00	1578.98
183.22	1527.78
183.44	1421.29
183.66	1632.23
183.89	1617.90
184.11	1576.94
184.33	1554.41
184.55	1517.54
184.77	1648.61
184.99	1542.12
185.21	1454.06
185.43	1624.04
185.65	1525.74
185.87	1533.93
186.10	1533.93
186.32	1619.94
186.54	1591.27
186.76	1603.56
186.98	1507.30
187.20	1550.31
187.42	1556.46
187.64	1527.78
187.86	1562.60
188.08	1546.22
188.30	1517.54
188.52	1609.70
188.75	1605.61
188.97	1591.27
189.19	1597.42
189.41	1552.36
189.63	1599.46
189.85	1476.59
190.07	1488.87
190.29	1542.12
190.51	1544.17
190.73	1464.30
190.95	1562.60
191.17	1531.88
191.39	1470.44
191.61	1566.70
191.84	1472.49
192.06	1578.98
192.28	1464.30
192.50	1701.86
192.72	1560.55
192.94	1511.40
193.16	1607.66
193.38	1585.13
193.60	1556.46
193.82	1486.83
194.04	1558.50
194.26	1595.37
194.48	1566.70
194.70	1548.26
194.92	1562.60
195.14	1560.55
195.36	1554.41
195.58	1609.70
195.80	1501.16
196.02	1462.25
196.24	1552.36
196.46	1574.89
196.69	1476.59
196.91	1632.23
197.13	1507.30
197.35	1464.30
197.57	1574.89
197.79	1501.16
198.01	1574.89
198.23	1452.01
198.45	1576.94
198.67	1538.02
198.89	1595.37
199.11	1558.50
199.33	1535.98
199.55	1429.48
199.77	1570.79
199.99	1578.98
200.21	1591.27
200.43	1488.87
200.65	1497.07
200.87	1587.18
201.09	1540.07
201.31	1486.83
201.53	1546.22
201.75	1484.78
201.97	1583.08
202.19	1511.40
202.41	1574.89
202.63	1583.08
202.85	1533.93
203.07	1552.36
203.29	1535.98
203.51	1562.60
203.73	1531.88
203.95	1634.28
204.17	1544.17
204.39	1523.69
204.61	1456.11
204.83	1509.35
205.05	1597.42
205.27	1607.66
205.49	1648.61
205.71	1517.54
205.93	1452.01
206.15	1458.15
206.37	1550.31
206.59	1505.26
206.81	1492.97
207.03	1490.92
207.25	1452.01
207.47	1560.55
207.69	1525.74
207.91	1558.50
208.13	1624.04
208.34	1429.48
208.56	1454.06
208.78	1521.64
209.00	1515.50
209.22	1495.02
209.44	1460.20
209.66	1525.74
209.88	1572.84
210.10	1476.59
210.32	1566.70
210.54	1593.32
210.76	1482.73
210.98	1605.61
211.20	1413.10
211.42	1523.69
211.64	1550.31
211.86	1505.26
212.08	1529.83
212.30	1523.69
212.52	1486.83
212.74	1574.89
212.96	1578.98
213.17	1572.84
213.39	1642.47
213.61	1595.37
213.83	1601.51
214.05	1501.16
214.27	1558.50
214.49	1466.35
214.71	1486.83
214.93	1568.74
215.15	1486.83
215.37	1554.41
215.59	1458.15
215.81	1564.65
216.03	1615.85
216.24	1583.08
216.46	1499.11
216.68	1478.63
216.90	1554.41
217.12	1585.13
217.34	1562.60
217.56	1501.16
217.78	1638.38
218.00	1521.64
218.22	1576.94
218.44	1495.02
218.66	1511.40
218.87	1554.41
219.09	1501.16
219.31	1605.61
219.53	1560.55
219.75	1548.26
219.97	1501.16
220.19	1595.37
220.41	1552.36
220.63	1597.42
220.85	1540.07
221.06	1513.45
221.28	1589.22
221.50	1521.64
221.72	1517.54
221.94	1525.74
222.16	1585.13
222.38	1603.56
222.60	1576.94
222.82	1509.35
223.03	1613.80
223.25	1421.29
223.47	1570.79
223.69	1607.66
223.91	1591.27
224.13	1591.27
224.35	1558.50
224.57	1542.12
224.78	1527.78
225.00	1558.50
225.22	1529.83
225.44	1591.27
225.66	1628.14
225.88	1538.02
226.10	1564.65
226.32	1603.56
226.53	1546.22
226.75	1535.98
226.97	1538.02
227.19	1554.41
227.41	1517.54
227.63	1517.54
227.85	1495.02
228.06	1505.26
228.28	1548.26
228.50	1531.88
228.72	1527.78
228.94	1523.69
229.16	1417.19
229.37	1525.74
229.59	1511.40
229.81	1599.46
230.03	1468.39
230.25	1531.88
230.47	1443.82
230.69	1507.30
230.90	1595.37
231.12	1542.12
231.34	1587.18
231.56	1517.54
231.78	1525.74
232.00	1472.49
232.21	1509.35
232.43	1505.26
232.65	1439.72
232.87	1507.30
233.09	1527.78
233.30	1519.59
233.52	1583.08
233.74	1527.78
233.96	1566.70
234.18	1542.12
234.40	1535.98
234.61	1591.27
234.83	1464.30
235.05	1548.26
235.27	1638.38
235.49	1658.85
235.70	1626.09
235.92	1583.08
236.14	1505.26
236.36	1646.57
236.58	1454.06
236.79	1574.89
237.01	1488.87
237.23	1517.54
237.45	1566.70
237.67	1503.21
237.88	1472.49
238.10	1656.81
238.32	1521.64
238.54	1576.94
238.76	1546.22
238.97	1488.87
239.19	1505.26
239.41	1583.08
239.63	1632.23
239.85	1515.50
240.06	1523.69
240.28	1503.21
240.50	1546.22
240.72	1611.75
240.93	1550.31
241.15	1640.42
241.37	1556.46
241.59	1566.70
241.81	1486.83
242.02	1495.02
242.24	1583.08
242.46	1560.55
242.68	1519.59
242.89	1550.31
243.11	1552.36
243.33	1550.31
243.55	1550.31
243.76	1607.66
243.98	1513.45
244.20	1538.02
244.42	1568.74
244.64	1533.93
244.85	1390.57
245.07	1470.44
245.29	1538.02
245.51	1515.50
245.72	1492.97
245.94	1591.27
246.16	1546.22
246.38	1527.78
246.59	1478.63
246.81	1535.98
247.03	1538.02
247.24	1495.02
247.46	1535.98
247.68	1566.70
247.90	1560.55
248.11	1523.69
248.33	1578.98
248.55	1443.82
248.77	1533.93
248.98	1552.36
249.20	1634.28
249.42	1488.87
249.64	1550.31
249.85	1542.12
250.07	1472.49
250.29	1587.18
250.50	1585.13
250.72	1484.78
250.94	1550.31
251.16	1642.47
251.37	1595.37
251.59	1609.70
251.81	1562.60
252.02	1550.31
252.24	1578.98
252.46	1574.89
252.68	1474.54
252.89	1525.74
253.11	1466.35
253.33	1667.05
253.54	1535.98
253.76	1497.07
253.98	1587.18
254.20	1468.39
254.41	1484.78
254.63	1542.12
254.85	1476.59
255.06	1495.02
255.28	1558.50
255.50	1505.26
255.71	1490.92
255.93	1513.45
256.15	1593.32
256.36	1548.26
256.58	1566.70
256.80	1513.45
257.02	1533.93
257.23	1525.74
257.45	1615.85
257.67	1636.33
257.88	1472.49
258.10	1529.83
258.32	1517.54
258.53	1558.50
258.75	1611.75
258.97	1458.15
259.18	1587.18
259.40	1585.13
259.62	1630.18
259.83	1585.13
260.05	1593.32
260.27	1722.34
260.48	1544.17
260.70	1482.73
260.92	1535.98
261.13	1556.46
261.35	1505.26
261.57	1521.64
261.78	1431.53
262.00	1466.35
262.22	1581.03
262.43	1507.30
262.65	1478.63
262.86	1525.74
263.08	1583.08
263.30	1509.35
263.51	1505.26
263.73	1535.98
263.95	1591.27
264.16	1492.97
264.38	1484.78
264.60	1525.74
264.81	1505.26
265.03	1609.70
265.25	1574.89
265.46	1492.97
265.68	1517.54
265.89	1552.36
266.11	1468.39
266.33	1634.28
266.54	1662.95
266.76	1640.42
266.98	1603.56
267.19	1560.55
267.41	1542.12
267.62	1509.35
267.84	1497.07
268.06	1548.26
268.27	1509.35
268.49	1542.12
268.70	1566.70
268.92	1572.84
269.14	1456.11
269.35	1548.26
269.57	1572.84
269.79	1615.85
270.00	1566.70
270.22	1587.18
270.43	1521.64
270.65	1456.11
270.87	1511.40
271.08	1634.28
271.30	1552.36
271.51	1568.74
271.73	1511.40
271.95	1601.51
272.16	1585.13
272.38	1585.13
272.59	1509.35
272.81	1570.79
273.02	1548.26
273.24	1566.70
273.46	1601.51
273.67	1488.87
273.89	1441.77
274.10	1540.07
274.32	1593.32
274.54	1505.26
274.75	1570.79
274.97	1476.59
275.18	1560.55
275.40	1568.74
275.61	1521.64
275.83	1525.74
276.05	1507.30
276.26	1574.89
276.48	1550.31
276.69	1525.74
276.91	1464.30
277.12	1656.81
277.34	1652.71
277.55	1525.74
277.77	1560.55
277.99	1484.78
278.20	1454.06
278.42	1411.05
278.63	1587.18
278.85	1560.55
279.06	1470.44
279.28	1570.79
279.49	1595.37
279.71	1650.66
279.93	1474.54
280.14	1562.60
280.36	1417.19
280.57	1560.55
280.79	1591.27
281.00	1513.45
281.22	1476.59
281.43	1578.98
281.65	1488.87
281.86	1517.54
282.08	1550.31
282.29	1609.70
282.51	1484.78
282.73	1501.16
282.94	1492.97
283.16	1593.32
283.37	1644.52
283.59	1529.83
283.80	1572.84
284.02	1486.83
284.23	1531.88
284.45	1529.83
284.66	1478.63
284.88	1443.82
285.09	1570.79
285.31	1499.11
285.52	1632.23
285.74	1531.88
285.95	1632.23
286.17	1628.14
286.38	1617.90
286.60	1525.74
286.81	1523.69
287.03	1488.87
287.24	1535.98
287.46	1527.78
287.67	1542.12
287.89	1695.72
288.10	1507.30
288.32	1556.46
288.53	1566.70
288.75	1558.50
288.96	1589.22
289.18	1531.88
289.39	1607.66
289.61	1597.42
289.82	1583.08
290.04	1591.27
290.25	1368.04
290.47	1509.35
290.68	1517.54
290.90	1478.63
291.11	1449.96
291.33	1548.26
291.54	1529.83
291.76	1560.55
291.97	1538.02
292.18	1583.08
292.40	1449.96
292.61	1562.60
292.83	1662.95
293.04	1566.70
293.26	1517.54
293.47	1531.88
293.69	1495.02
293.90	1548.26
294.12	1554.41
294.33	1640.42
294.55	1587.18
294.76	1591.27
294.97	1638.38
295.19	1632.23
295.40	1515.50
295.62	1544.17
295.83	1486.83
296.05	1501.16
296.26	1527.78
296.48	1583.08
296.69	1576.94
296.90	1497.07
297.12	1535.98
297.33	1548.26
297.55	1509.35
297.76	1560.55
297.98	1654.76
298.19	1482.73
298.41	1570.79
298.62	1435.63
298.83	1597.42
299.05	1566.70
299.26	1458.15
299.48	1517.54
299.69	1542.12
299.90	1501.16
300.12	1460.20
300.33	1574.89
300.55	1540.07
300.76	1554.41
300.98	1486.83
301.19	1593.32
301.40	1503.21
301.62	1546.22
301.83	1538.02
302.05	1544.17
302.26	1558.50
302.47	1511.40
302.69	1452.01
302.90	1535.98
303.12	1505.26
303.33	1566.70
303.54	1548.26
303.76	1578.98
303.97	1564.65
304.19	1568.74
304.40	1492.97
304.61	1597.42
304.83	1613.80
305.04	1603.56
305.26	1626.09
305.47	1495.02
305.68	1523.69
305.90	1406.95
306.11	1538.02
306.33	1554.41
306.54	1523.69
306.75	1447.91
306.97	1466.35
307.18	1544.17
307.39	1505.26
307.61	1535.98
307.82	1452.01
308.04	1572.84
308.25	1474.54
308.46	1544.17
308.68	1585.13
308.89	1538.02
309.10	1589.22
309.32	1562.60
309.53	1519.59
309.74	1568.74
309.96	1519.59
310.17	1628.14
310.39	1472.49
310.60	1589.22
310.81	1464.30
311.03	1421.29
311.24	1505.26
311.45	1515.50
311.67	1603.56
311.88	1499.11
312.09	1488.87
312.31	1445.87
312.52	1501.16
312.73	1550.31
312.95	1495.02
313.16	1486.83
313.37	1609.70
313.59	1574.89
313.80	1521.64
314.01	1609.70
314.23	1560.55
314.44	1472.49
314.65	1447.91
314.87	1521.64
315.08	1486.83
315.29	1458.15
315.51	1447.91
315.72	1497.07
315.93	1650.66
316.15	1591.27
316.36	1476.59
316.57	1585.13
316.79	1574.89
317.00	1509.35
317.21	1544.17
317.43	1525.74
317.64	1605.61
317.85	1470.44
318.07	1550.31
318.28	1687.53
318.49	1732.58
318.70	1701.86
318.92	1730.53
319.13	1652.71
319.34	1671.14
319.56	1656.81
319.77	1646.57
319.98	1615.85
320.20	1724.39
320.41	1611.75
320.62	1585.13
320.83	1542.12
321.05	1660.90
321.26	1548.26
321.47	1564.65
321.69	1593.32
321.90	1515.50
322.11	1488.87
322.32	1542.12
322.54	1613.80
322.75	1544.17
322.96	1595.37
323.18	1478.63
323.39	1443.82
323.60	1484.78
323.81	1538.02
324.03	1509.35
324.24	1533.93
324.45	1568.74
324.66	1540.07
324.88	1566.70
325.09	1554.41
325.30	1507.30
325.52	1611.75
325.73	1591.27
325.94	1456.11
326.15	1456.11
326.37	1542.12
326.58	1611.75
326.79	1615.85
327.00	1480.68
327.22	1499.11
327.43	1546.22
327.64	1572.84
327.85	1589.22
328.07	1535.98
328.28	1642.47
328.49	1505.26
328.70	1554.41
328.92	1439.72
329.13	1538.02
329.34	1570.79
329.55	1654.76
329.76	1572.84
329.98	1538.02
330.19	1591.27
330.40	1669.09
330.61	1482.73
330.83	1566.70
331.04	1497.07
331.25	1499.11
331.46	1466.35
331.68	1464.30
331.89	1578.98
332.10	1492.97
332.31	1511.40
332.52	1538.02
332.74	1529.83
332.95	1480.68
333.16	1460.20
333.37	1552.36
333.58	1521.64
333.80	1566.70
334.01	1527.78
334.22	1552.36
334.43	1497.07
334.64	1527.78
334.86	1517.54
335.07	1482.73
335.28	1615.85
335.49	1406.95
335.70	1601.51
335.92	1546.22
336.13	1626.09
336.34	1564.65
336.55	1558.50
336.76	1472.49
336.98	1474.54
337.19	1572.84
337.40	1601.51
337.61	1648.61
337.82	1542.12
338.04	1585.13
338.25	1421.29
338.46	1495.02
338.67	1486.83
338.88	1476.59
339.09	1439.72
339.31	1478.63
339.52	1462.25
339.73	1501.16
339.94	1505.26
340.15	1578.98
340.36	1509.35
340.58	1540.07
340.79	1509.35
341.00	1558.50
341.21	1507.30
341.42	1587.18
341.63	1484.78
341.85	1540.07
342.06	1527.78
342.27	1495.02
342.48	1585.13
342.69	1472.49
342.90	1550.31
343.12	1507.30
343.33	1507.30
343.54	1572.84
343.75	1595.37
343.96	1515.50
344.17	1470.44
344.38	1583.08
344.60	1497.07
344.81	1558.50
345.02	1495.02
345.23	1593.32
345.44	1675.24
345.65	1548.26
345.86	1591.27
346.07	1542.12
346.29	1501.16
346.50	1544.17
346.71	1540.07
346.92	1552.36
347.13	1650.66
347.34	1583.08
347.55	1484.78
347.76	1552.36
347.98	1511.40
348.19	1480.68
348.40	1583.08
348.61	1531.88
348.82	1699.81
349.03	1595.37
349.24	1544.17
349.45	1634.28
349.66	1460.20
349.88	1507.30
350.09	1509.35
350.30	1558.50
350.51	1624.04
350.72	1581.03
350.93	1597.42
351.14	1556.46
351.35	1574.89
351.56	1523.69
351.77	1517.54
351.99	1544.17
352.20	1599.46
352.41	1597.42
352.62	1409.00
352.83	1529.83
353.04	1509.35
353.25	1554.41
353.46	1632.23
353.67	1509.35
353.88	1495.02
354.09	1505.26
354.30	1490.92
354.52	1630.18
354.73	1521.64
354.94	1535.98
355.15	1542.12
355.36	1630.18
355.57	1509.35
355.78	1576.94
355.99	1484.78
356.20	1486.83
356.41	1630.18
356.62	1503.21
356.83	1572.84
357.04	1632.23
357.25	1468.39
357.46	1550.31
357.68	1452.01
357.89	1480.68
358.10	1509.35
358.31	1519.59
358.52	1566.70
358.73	1517.54
358.94	1533.93
359.15	1560.55
359.36	1628.14
359.57	1488.87
359.78	1503.21
359.99	1587.18
360.20	1497.07
360.41	1550.31
360.62	1572.84
360.83	1546.22
361.04	1538.02
361.25	1562.60
361.46	1699.81
361.67	1558.50
361.88	1525.74
362.09	1615.85
362.30	1529.83
362.51	1558.50
362.72	1529.83
362.93	1646.57
363.14	1533.93
363.35	1556.46
363.56	1474.54
363.78	1613.80
363.99	1552.36
364.20	1443.82
364.41	1495.02
364.62	1587.18
364.83	1642.47
365.04	1490.92
365.25	1607.66
365.46	1636.33
365.67	1452.01
365.88	1521.64
366.09	1550.31
366.30	1535.98
366.51	1544.17
366.72	1499.11
366.93	1540.07
367.14	1527.78
367.35	1597.42
367.56	1574.89
367.77	1589.22
367.98	1527.78
368.18	1585.13
368.39	1558.50
368.60	1468.39
368.81	1572.84
369.02	1540.07
369.23	1554.41
369.44	1509.35
369.65	1550.31
369.86	1576.94
370.07	1501.16
370.28	1535.98
370.49	1605.61
370.70	1597.42
370.91	1480.68
371.12	1533.93
371.33	1568.74
371.54	1570.79
371.75	1552.36
371.96	1542.12
372.17	1525.74
372.38	1550.31
372.59	1589.22
372.80	1542.12
373.01	1558.50
373.22	1562.60
373.43	1583.08
373.64	1550.31
373.85	1527.78
374.06	1587.18
374.26	1527.78
374.47	1574.89
374.68	1603.56
374.89	1533.93
375.10	1550.31
375.31	1570.79
375.52	1523.69
375.73	1527.78
375.94	1540.07
376.15	1607.66
376.36	1519.59
376.57	1484.78
376.78	1544.17
376.99	1583.08
377.20	1615.85
377.40	1501.16
377.61	1554.41
377.82	1478.63
378.03	1595.37
378.24	1589.22
378.45	1546.22
378.66	1466.35
378.87	1443.82
379.08	1519.59
379.29	1495.02
379.50	1611.75
379.71	1486.83
379.91	1615.85
380.12	1501.16
380.33	1585.13
380.54	1544.17
380.75	1495.02
380.96	1568.74
381.17	1566.70
381.38	1607.66
381.59	1564.65
381.80	1552.36
382.00	1683.43
382.21	1576.94
382.42	1685.48
382.63	1679.33
382.84	1624.04
383.05	1566.70
383.26	1665.00
383.47	1568.74
383.68	1581.03
383.88	1574.89
384.09	1550.31
384.30	1562.60
384.51	1607.66
384.72	1550.31
384.93	1501.16
385.14	1554.41
385.35	1607.66
385.55	1488.87
385.76	1675.24
385.97	1597.42
386.18	1460.20
386.39	1531.88
386.60	1564.65
386.81	1585.13
387.02	1497.07
387.22	1554.41
387.43	1599.46
387.64	1681.38
387.85	1839.08
388.06	3082.19
388.27	7116.69
388.48	10518.37
388.68	12644.16
388.89	14257.96
389.10	13010.75
389.31	10268.52
389.52	8949.62
389.73	7942.02
389.93	7460.75
390.14	6930.33
390.35	6229.92
390.56	5527.47
390.77	4724.66
390.98	3659.72
391.18	2729.94
391.39	2172.89
391.60	1812.45
391.81	1714.15
392.02	1591.27
392.23	1650.66
392.43	1531.88
392.64	1558.50
392.85	1642.47
393.06	1628.14
393.27	1587.18
393.47	1513.45
393.68	1570.79
393.89	1497.07
394.10	1593.32
394.31	1499.11
394.52	1480.68
394.72	1476.59
394.93	1581.03
395.14	1546.22
395.35	1593.32
395.56	1468.39
395.76	1591.27
395.97	1726.44
396.18	1730.53
396.39	1730.53
396.60	1896.42
396.80	1732.58
397.01	1716.20
397.22	1691.62
397.43	1697.77
397.64	1587.18
397.84	1673.19
398.05	1677.29
398.26	1615.85
398.47	1605.61
398.67	1677.29
398.88	1615.85
399.09	1607.66
399.30	1503.21
399.51	1591.27
399.71	1511.40
399.92	1558.50
400.13	1566.70
400.34	1552.36
400.54	1519.59
400.75	1660.90
400.96	1591.27
401.17	1669.09
401.37	1544.17
401.58	1601.51
401.79	1556.46
402.00	1753.06
402.21	1953.76
402.41	1898.47
402.62	2004.96
402.83	2013.15
403.04	1890.28
403.24	1890.28
403.45	1681.38
403.66	1726.44
403.87	1746.92
404.07	1736.68
404.28	1814.50
404.49	1740.77
404.70	1607.66
404.90	1570.79
405.11	1568.74
405.32	1564.65
405.52	1464.30
405.73	1515.50
405.94	1552.36
406.15	1488.87
406.35	1535.98
406.56	1591.27
406.77	1538.02
406.98	1535.98
407.18	1548.26
407.39	1583.08
407.60	1529.83
407.80	1540.07
408.01	1478.63
408.22	1523.69
408.43	1542.12
408.63	1642.47
408.84	1578.98
409.05	1546.22
409.25	1511.40
409.46	1568.74
409.67	1587.18
409.88	1581.03
410.08	1546.22
410.29	1492.97
410.50	1585.13
410.70	1538.02
410.91	1476.59
411.12	1585.13
411.32	1519.59
411.53	1562.60
411.74	1587.18
411.95	1593.32
412.15	1583.08
412.36	1656.81
412.57	1611.75
412.77	1632.23
412.98	1542.12
413.19	1597.42
413.39	1566.70
413.60	1617.90
413.81	1648.61
414.01	1540.07
414.22	1603.56
414.43	1562.60
414.63	1529.83
414.84	1591.27
415.05	1552.36
415.25	1531.88
415.46	1591.27
415.67	1548.26
415.87	1542.12
416.08	1535.98
416.29	1570.79
416.49	1560.55
416.70	1521.64
416.91	1570.79
417.11	1495.02
417.32	1578.98
417.53	1642.47
417.73	1595.37
417.94	1511.40
418.15	1554.41
418.35	1531.88
418.56	1583.08
418.77	1560.55
418.97	1552.36
419.18	1552.36
419.38	1464.30
419.59	1533.93
419.80	1601.51
420.00	1523.69
420.21	1501.16
420.42	1525.74
420.62	1495.02
420.83	1566.70
421.04	1560.55
421.24	1585.13
421.45	1523.69
421.65	1556.46
421.86	1533.93
422.07	1679.33
422.27	1566.70
422.48	1589.22
422.69	1521.64
422.89	1492.97
423.10	1599.46
423.30	1462.25
423.51	1617.90
423.72	1533.93
423.92	1634.28
424.13	1535.98
424.33	1538.02
424.54	1605.61
424.75	1540.07
424.95	1617.90
425.16	1560.55
425.36	1527.78
425.57	1640.42
425.78	1527.78
425.98	1626.09
426.19	1488.87
426.39	1452.01
426.60	1595.37
426.81	1613.80
427.01	1581.03
427.22	1445.87
427.42	1488.87
427.63	1509.35
427.83	1546.22
428.04	1556.46
428.25	1628.14
428.45	1550.31
428.66	1591.27
428.86	1511.40
429.07	1538.02
429.28	1433.58
429.48	1501.16
429.69	1466.35
429.89	1611.75
430.10	1462.25
430.30	1636.33
430.51	1519.59
430.71	1490.92
430.92	1542.12
431.13	1478.63
431.33	1519.59
431.54	1505.26
431.74	1562.60
431.95	1626.09
432.15	1523.69
432.36	1523.69
432.56	1593.32
432.77	1693.67
432.98	1613.80
433.18	1507.30
433.39	1538.02
433.59	1605.61
433.80	1585.13
434.00	1669.09
434.21	1566.70
434.41	1499.11
434.62	1619.94
434.82	1507.30
435.03	1421.29
435.23	1515.50
435.44	1384.43
435.64	1521.64
435.85	1548.26
436.06	1535.98
436.26	1609.70
436.47	1521.64
436.67	1474.54
436.88	1497.07
437.08	1501.16
437.29	1562.60
437.49	1617.90
437.70	1538.02
437.90	1562.60
438.11	1671.14
438.31	1662.95
438.52	1695.72
438.72	1761.25
438.93	1818.60
439.13	1638.38
439.34	1638.38
439.54	1548.26
439.75	1679.33
439.95	1603.56
440.16	1544.17
440.36	1611.75
440.57	1656.81
440.77	1621.99
440.98	1566.70
441.18	1531.88
441.39	1519.59
441.59	1411.05
441.80	1632.23
442.00	1546.22
442.21	1593.32
442.41	1558.50
442.62	1556.46
442.82	1533.93
443.02	1505.26
443.23	1544.17
443.43	1443.82
443.64	1581.03
443.84	1472.49
444.05	1650.66
444.25	1554.41
444.46	1542.12
444.66	1566.70
444.87	1607.66
445.07	1480.68
445.28	1521.64
445.48	1615.85
445.69	1597.42
445.89	1595.37
446.09	1556.46
446.30	2007.01
446.50	3219.41
446.71	4468.67
446.91	5285.81
447.12	5765.03
447.32	5509.04
447.53	4720.57
447.73	4036.55
447.93	3669.96
448.14	3399.63
448.34	3221.45
448.55	3008.47
448.75	2901.97
448.96	2805.72
449.16	2486.23
449.36	2301.92
449.57	1910.75
449.77	1738.73
449.98	1728.49
450.18	1681.38
450.39	1669.09
450.59	1591.27
450.79	1576.94
451.00	1550.31
451.20	1568.74
451.41	1564.65
451.61	1597.42
451.81	1599.46
452.02	1458.15
452.22	1533.93
452.43	1505.26
452.63	1535.98
452.84	1554.41
453.04	1492.97
453.24	1495.02
453.45	1454.06
453.65	1505.26
453.86	1558.50
454.06	1540.07
454.26	1560.55
454.47	1437.67
454.67	1617.90
454.87	1529.83
455.08	1535.98
455.28	1585.13
455.49	1499.11
455.69	1478.63
455.89	1626.09
456.10	1644.52
456.30	1486.83
456.51	1613.80
456.71	1544.17
456.91	1601.51
457.12	1554.41
457.32	1550.31
457.52	1478.63
457.73	1488.87
457.93	1603.56
458.14	1484.78
458.34	1445.87
458.54	1581.03
458.75	1546.22
458.95	1540.07
459.15	1564.65
459.36	1626.09
459.56	1550.31
459.76	1650.66
459.97	1570.79
460.17	1607.66
460.37	1572.84
460.58	1597.42
460.78	1421.29
460.99	1533.93
461.19	1562.60
461.39	1480.68
461.60	1566.70
461.80	1566.70
462.00	1509.35
462.21	1540.07
462.41	1476.59
462.61	1511.40
462.82	1452.01
463.02	1589.22
463.22	1517.54
463.43	1615.85
463.63	1560.55
463.83	1665.00
464.04	1578.98
464.24	1511.40
464.44	1535.98
464.64	1560.55
464.85	1568.74
465.05	1492.97
465.25	1560.55
465.46	1585.13
465.66	1624.04
465.86	1603.56
466.07	1593.32
466.27	1515.50
466.47	1558.50
466.68	1474.54
466.88	1630.18
467.08	1558.50
467.29	1570.79
467.49	1595.37
467.69	1591.27
467.89	1523.69
468.10	1511.40
468.30	1554.41
468.50	1599.46
468.71	1621.99
468.91	1499.11
469.11	1595.37
469.31	1566.70
469.52	1501.16
469.72	1603.56
469.92	1621.99
470.13	1525.74
470.33	1599.46
470.53	1746.92
470.73	2107.36
470.94	2443.23
471.14	2482.14
471.34	2592.73
471.54	2512.86
471.75	2160.61
471.95	2082.78
472.15	2004.96
472.36	1925.09
472.56	1918.95
472.76	1904.61
472.96	1855.46
473.17	1791.97
473.37	1724.39
473.57	1753.06
473.77	1642.47
473.98	1654.76
474.18	1574.89
474.38	1644.52
474.58	1591.27
474.79	1546.22
474.99	1554.41
475.19	1581.03
475.39	1464.30
475.60	1570.79
475.80	1535.98
476.00	1480.68
476.20	1503.21
476.41	1564.65
476.61	1650.66
476.81	1535.98
477.01	1558.50
477.21	1667.05
477.42	1570.79
477.62	1515.50
477.82	1576.94
478.02	1576.94
478.23	1605.61
478.43	1529.83
478.63	1527.78
478.83	1562.60
479.03	1445.87
479.24	1521.64
479.44	1591.27
479.64	1447.91
479.84	1443.82
480.04	1495.02
480.25	1566.70
480.45	1593.32
480.65	1611.75
480.85	1492.97
481.06	1495.02
481.26	1513.45
481.46	1568.74
481.66	1572.84
481.86	1468.39
482.06	1624.04
482.27	1529.83
482.47	1466.35
482.67	1576.94
482.87	1490.92
483.07	1628.14
483.28	1507.30
483.48	1456.11
483.68	1505.26
483.88	1501.16
484.08	1445.87
484.29	1456.11
484.49	1484.78
484.69	1460.20
484.89	1589.22
485.09	1587.18
485.29	1583.08
485.50	1507.30
485.70	1472.49
485.90	1611.75
486.10	1488.87
486.30	1538.02
486.50	1554.41
486.71	1572.84
486.91	1525.74
487.11	1597.42
487.31	1501.16
487.51	1478.63
487.71	1499.11
487.91	1527.78
488.12	1460.20
488.32	1484.78
488.52	1492.97
488.72	1503.21
488.92	1566.70
489.12	1535.98
489.32	1599.46
489.53	1486.83
489.73	1472.49
489.93	1609.70
490.13	1486.83
490.33	1497.07
490.53	1527.78
490.73	1578.98
490.94	1449.96
491.14	1687.53
491.34	1730.53
491.54	2056.16
491.74	2607.06
491.94	3164.11
492.14	3373.00
492.34	3325.90
492.54	2830.29
492.75	2473.95
492.95	2357.21
493.15	2213.85
493.35	2222.05
493.55	2144.22
493.75	2047.97
493.95	2140.13
494.15	1916.90
494.35	1812.45
494.56	1697.77
494.76	1644.52
494.96	1597.42
495.16	1638.38
495.36	1591.27
495.56	1458.15
495.76	1591.27
495.96	1585.13
496.16	1492.97
496.36	1632.23
496.56	1595.37
496.77	1542.12
496.97	1531.88
497.17	1601.51
497.37	1482.73
497.57	1517.54
497.77	1609.70
497.97	1478.63
498.17	1556.46
498.37	1554.41
498.57	1538.02
498.77	1529.83
498.97	1521.64
499.17	1689.57
499.38	1603.56
499.58	1576.94
499.78	1607.66
499.98	1634.28
500.18	1544.17
500.38	1593.32
500.58	1767.40
500.78	2736.09
500.98	5126.07
501.18	6834.07
501.38	8337.28
501.58	8859.51
501.78	8103.81
501.98	6131.62
502.18	5361.58
502.38	4603.83
502.58	4255.68
502.78	3819.46
502.98	3823.56
503.18	3565.51
503.38	3461.07
503.59	3141.58
503.79	2775.00
503.99	2504.67
504.19	2252.77
504.39	2197.47
504.59	2107.36
504.79	2066.40
504.99	1984.48
505.19	1810.40
505.39	1673.19
505.59	1875.94
505.79	1701.86
505.99	1667.05
506.19	1683.43
506.39	1757.16
506.59	1548.26
506.79	1554.41
506.99	1669.09
507.19	1566.70
507.39	1538.02
507.59	1447.91
507.79	1574.89
507.99	1468.39
508.19	1552.36
508.39	1548.26
508.59	1542.12
508.79	1658.85
508.99	1607.66
509.19	1550.31
509.39	1634.28
509.59	1486.83
509.79	1468.39
509.99	1490.92
510.19	1648.61
510.39	1638.38
510.59	1527.78
510.79	1519.59
510.99	1570.79
511.19	1521.64
511.39	1605.61
511.59	1619.94
511.79	1572.84
511.99	1499.11
512.19	1673.19
512.38	1566.70
512.58	1531.88
512.78	1609.70
512.98	1646.57
513.18	1583.08
513.38	1511.40
513.58	1621.99
513.78	1548.26
513.98	1533.93
514.18	1523.69
514.38	1503.21
514.58	1609.70
514.78	1591.27
514.98	1429.48
515.18	1568.74
515.38	1566.70
515.58	1583.08
515.78	1413.10
515.98	1564.65
516.18	1595.37
516.38	1552.36
516.57	1464.30
516.77	1458.15
516.97	1540.07
517.17	1488.87
517.37	1507.30
517.57	1626.09
517.77	1552.36
517.97	1484.78
518.17	1527.78
518.37	1501.16
518.57	1505.26
518.77	1497.07
518.97	1546.22
519.16	1550.31
519.36	1560.55
519.56	1503.21
519.76	1513.45
519.96	1570.79
520.16	1660.90
520.36	1470.44
520.56	1646.57
520.76	1521.64
520.96	1558.50
521.16	1560.55
521.35	1628.14
521.55	1560.55
521.75	1452.01
521.95	1513.45
522.15	1550.31
522.35	1509.35
522.55	1544.17
522.75	1574.89
522.95	1574.89
523.14	1523.69
523.34	1499.11
523.54	1525.74
523.74	1605.61
523.94	1585.13
524.14	1488.87
524.34	1593.32
524.54	1587.18
524.73	1538.02
524.93	1529.83
525.13	1544.17
525.33	1501.16
525.53	1677.29
525.73	1572.84
525.93	1511.40
526.13	1525.74
526.32	1566.70
526.52	1560.55
526.72	1642.47
526.92	1517.54
527.12	1519.59
527.32	1505.26
527.52	1611.75
527.71	1533.93
527.91	1535.98
528.11	1552.36
528.31	1501.16
528.51	1443.82
528.71	1615.85
528.90	1478.63
529.10	1544.17
529.30	1566.70
529.50	1488.87
529.70	1591.27
529.90	1509.35
530.09	1581.03
530.29	1550.31
530.49	1507.30
530.69	1679.33
530.89	1523.69
531.09	1566.70
531.28	1488.87
531.48	1562.60
531.68	1531.88
531.88	1538.02
532.08	1515.50
532.28	1540.07
532.47	1617.90
532.67	1566.70
532.87	1538.02
533.07	1501.16
533.27	1568.74
533.46	1554.41
533.66	1554.41
533.86	1525.74
534.06	1533.93
534.26	1587.18
534.45	1544.17
534.65	1595.37
534.85	1587.18
535.05	1544.17
535.25	1525.74
535.44	1519.59
535.64	1630.18
535.84	1492.97
536.04	1576.94
536.24	1525.74
536.43	1605.61
536.63	1583.08
536.83	1511.40
537.03	1443.82
537.22	1468.39
537.42	1484.78
537.62	1587.18
537.82	1462.25
538.02	1576.94
538.21	1544.17
538.41	1675.24
538.61	1624.04
538.81	1546.22
539.00	1587.18
539.20	1478.63
539.40	1499.11
539.60	1576.94
539.79	1564.65
539.99	1492.97
540.19	1527.78
540.39	1535.98
540.58	1568.74
540.78	1589.22
540.98	1525.74
541.18	1533.93
541.37	1599.46
541.57	1478.63
541.77	1564.65
541.97	1492.97
542.16	1458.15
542.36	1626.09
542.56	1562.60
542.76	1646.57
542.95	1585.13
543.15	1552.36
543.35	1521.64
543.54	1525.74
543.74	1552.36
543.94	1564.65
544.14	1535.98
544.33	1560.55
544.53	1574.89
544.73	1523.69
544.93	1538.02
545.12	1540.07
545.32	1560.55
545.52	1521.64
545.71	1554.41
545.91	1566.70
546.11	1572.84
546.30	1445.87
546.50	1578.98
546.70	1560.55
546.90	1525.74
547.09	1470.44
547.29	1460.20
547.49	1527.78
547.68	1531.88
547.88	1488.87
548.08	1615.85
548.27	1976.29
548.47	1529.83
548.67	1462.25
548.87	1550.31
549.06	1540.07
549.26	1595.37
549.46	1515.50
549.65	1492.97
549.85	1566.70
550.05	1581.03
550.24	1509.35
550.44	1525.74
550.64	1548.26
550.83	1562.60
551.03	1634.28
551.23	1605.61
551.42	1595.37
551.62	1495.02
551.82	1507.30
552.01	1591.27
552.21	1652.71
552.41	1521.64
552.60	1601.51
552.80	1583.08
553.00	1521.64
553.19	1509.35
553.39	1587.18
553.59	1544.17
553.78	1548.26
553.98	1574.89
554.17	1544.17
554.37	1572.84
554.57	1552.36
554.76	1415.15
554.96	1466.35
555.16	1550.31
555.35	1542.12
555.55	1550.31
555.75	1628.14
555.94	1556.46
556.14	1370.09
556.33	1611.75
556.53	1568.74
556.73	1445.87
556.92	1480.68
557.12	1626.09
557.32	1634.28
557.51	1589.22
557.71	1550.31
557.90	1560.55
558.10	1613.80
558.30	1439.72
558.49	1525.74
558.69	1443.82
558.88	1636.33
559.08	1546.22
559.28	1507.30
559.47	1460.20
559.67	1568.74
559.86	1679.33
560.06	1593.32
560.26	1519.59
560.45	1542.12
560.65	1628.14
560.84	1613.80
561.04	1462.25
561.24	1556.46
561.43	1501.16
561.63	1613.80
561.82	1540.07
562.02	1556.46
562.22	1556.46
562.41	1482.73
562.61	1521.64
562.80	1519.59
563.00	1665.00
563.19	1609.70
563.39	1564.65
563.59	1576.94
563.78	1503.21
563.98	1402.86
564.17	1562.60
564.37	1468.39
564.56	1546.22
564.76	1525.74
564.96	1634.28
565.15	1468.39
565.35	1607.66
565.54	1484.78
565.74	1587.18
565.93	1523.69
566.13	1527.78
566.32	1607.66
566.52	1560.55
566.71	1570.79
566.91	1601.51
567.11	1501.16
567.30	1472.49
567.50	1638.38
567.69	1546.22
567.89	1591.27
568.08	1495.02
568.28	1589.22
568.47	1538.02
568.67	1560.55
568.86	1482.73
569.06	1554.41
569.25	1550.31
569.45	1595.37
569.64	1568.74
569.84	1513.45
570.04	1560.55
570.23	1447.91
570.43	1560.55
570.62	1568.74
570.82	1574.89
571.01	1591.27
571.21	1501.16
571.40	1540.07
571.60	1570.79
571.79	1578.98
571.99	1572.84
572.18	1533.93
572.38	1624.04
572.57	1533.93
572.77	1550.31
572.96	1648.61
573.16	1624.04
573.35	1521.64
573.55	1632.23
573.74	1638.38
573.94	1597.42
574.13	1566.70
574.33	1544.17
574.52	1662.95
574.71	1550.31
574.91	1550.31
575.10	1517.54
575.30	1542.12
575.49	1462.25
575.69	1533.93
575.88	1665.00
576.08	1662.95
576.27	1646.57
576.47	1712.10
576.66	1673.19
576.86	1683.43
577.05	1652.71
577.25	1654.76
577.44	1693.67
577.64	1597.42
577.83	1615.85
578.02	1529.83
578.22	1607.66
578.41	1767.40
578.61	1503.21
578.80	1511.40
579.00	1603.56
579.19	1601.51
579.39	1599.46
579.58	1656.81
579.77	1576.94
579.97	1671.14
580.16	1677.29
580.36	1550.31
580.55	1634.28
580.75	1552.36
580.94	1607.66
581.13	1603.56
581.33	1703.91
581.52	1593.32
581.72	1820.64
581.91	1722.34
582.11	1710.05
582.30	1617.90
582.49	1634.28
582.69	1648.61
582.88	1617.90
583.08	1621.99
583.27	1611.75
583.47	1665.00
583.66	1558.50
583.85	1572.84
584.05	1529.83
584.24	1611.75
584.44	1578.98
584.63	1654.76
584.82	1763.30
585.02	1714.15
585.21	1755.11
585.41	1763.30
585.60	1720.29
585.79	1832.93
585.99	1871.84
586.18	1802.21
586.37	2074.59
586.57	3200.98
586.76	9740.14
586.96	27799.13
587.15	44531.03
587.34	54996.15
587.54	61819.98
587.73	60349.54
587.93	44313.95
588.12	32364.05
588.31	26242.67
588.51	22175.41
588.70	19924.69
588.89	18401.00
589.09	17200.89
589.28	15236.89
589.47	13328.18
589.67	11347.79
589.86	9144.18
590.06	6832.02
590.25	5040.05
590.44	3864.52
590.64	2852.82
590.83	2342.88
591.02	2041.82
591.22	1933.28
591.41	1877.99
591.60	1701.86
591.80	1761.25
591.99	1581.03
592.18	1693.67
592.38	1595.37
592.57	1656.81
592.76	1603.56
592.96	1597.42
593.15	1599.46
593.34	1697.77
593.54	1603.56
593.73	1589.22
593.92	1597.42
594.12	1660.90
594.31	1605.61
594.50	1714.15
594.70	1640.42
594.89	1740.77
595.08	1515.50
595.28	1617.90
595.47	1681.38
595.66	1525.74
595.86	1523.69
596.05	1615.85
596.24	1535.98
596.43	1691.62
596.63	1662.95
596.82	1556.46
597.01	1667.05
597.21	1607.66
597.40	1609.70
597.59	1591.27
597.79	1628.14
597.98	1617.90
598.17	1636.33
598.36	1566.70
598.56	1597.42
598.75	1542.12
598.94	1599.46
599.14	1615.85
599.33	1533.93
599.52	1613.80
599.71	1619.94
599.91	1583.08
600.10	1566.70
600.29	1605.61
600.48	1511.40
600.68	1560.55
600.87	1552.36
601.06	1531.88
601.26	1546.22
601.45	1574.89
601.64	1552.36
601.83	1605.61
602.03	1554.41
602.22	1484.78
602.41	1576.94
602.60	1652.71
602.80	1630.18
602.99	1613.80
603.18	1554.41
603.37	1593.32
603.57	1540.07
603.76	1572.84
603.95	1546.22
604.14	1525.74
604.34	1535.98
604.53	1570.79
604.72	1554.41
604.91	1636.33
605.10	1593.32
605.30	1454.06
605.49	1673.19
605.68	1521.64
605.87	1607.66
606.07	1531.88
606.26	1568.74
606.45	1556.46
606.64	1607.66
606.84	1533.93
607.03	1544.17
607.22	1644.52
607.41	1552.36
607.60	1603.56
607.80	1593.32
607.99	1626.09
608.18	1548.26
608.37	1679.33
608.56	1517.54
608.76	1611.75
608.95	1714.15
609.14	1632.23
609.33	1712.10
609.52	1660.90
609.72	1632.23
609.91	1746.92
610.10	1556.46
610.29	1605.61
610.48	1544.17
610.68	1605.61
610.87	1576.94
611.06	1658.85
611.25	1607.66
611.44	1581.03
611.63	1527.78
611.83	1605.61
612.02	1501.16
612.21	1550.31
612.40	1497.07
612.59	1558.50
612.79	1548.26
612.98	1538.02
613.17	1646.57
613.36	1484.78
613.55	1628.14
613.74	1560.55
613.93	1699.81
614.13	1730.53
614.32	1718.25
614.51	1757.16
614.70	1654.76
614.89	1624.04
615.08	1605.61
615.28	1863.65
615.47	1595.37
615.66	1632.23
615.85	1615.85
616.04	1726.44
616.23	1607.66
616.42	1581.03
616.62	1540.07
616.81	1636.33
617.00	1632.23
617.19	1632.23
617.38	1564.65
617.57	1480.68
617.76	1650.66
617.95	1527.78
618.15	1626.09
618.34	1617.90
618.53	1474.54
618.72	1611.75
618.91	1578.98
619.10	1656.81
619.29	1486.83
619.48	1513.45
619.68	1519.59
619.87	1595.37
620.06	1454.06
620.25	1593.32
620.44	1525.74
620.63	1449.96
620.82	1544.17
621.01	1529.83
621.20	1546.22
621.39	1652.71
621.59	1595.37
621.78	1515.50
621.97	1492.97
622.16	1609.70
622.35	1570.79
622.54	1572.84
622.73	1613.80
622.92	1402.86
623.11	1605.61
623.30	1499.11
623.49	1574.89
623.68	1449.96
623.88	1601.51
624.07	1466.35
624.26	1478.63
624.45	1535.98
624.64	1550.31
624.83	1560.55
625.02	1583.08
625.21	1480.68
625.40	1441.77
625.59	1611.75
625.78	1538.02
625.97	1619.94
626.16	1705.96
626.35	1609.70
626.54	1589.22
626.74	1716.20
626.93	1503.21
627.12	1601.51
627.31	1607.66
627.50	1583.08
627.69	1605.61
627.88	1548.26
628.07	1515.50
628.26	1519.59
628.45	1529.83
628.64	1486.83
628.83	1474.54
629.02	1570.79
629.21	1603.56
629.40	1587.18
629.59	1480.68
629.78	1544.17
629.97	1605.61
630.16	1601.51
630.35	1517.54
630.54	1568.74
630.73	1525.74
630.92	1449.96
631.11	1513.45
631.30	1585.13
631.49	1619.94
631.68	1490.92
631.87	1519.59
632.06	1574.89
632.25	1599.46
632.44	1587.18
632.63	1621.99
632.82	1570.79
633.01	1583.08
633.20	1603.56
633.39	1619.94
633.58	1630.18
633.77	1601.51
633.96	1619.94
634.15	1644.52
634.34	1619.94
634.53	1566.70
634.72	1509.35
634.91	1476.59
635.10	1546.22
635.29	1613.80
635.48	1540.07
635.67	1550.31
635.86	1525.74
636.05	1488.87
636.24	1476.59
636.43	1505.26
636.62	1566.70
636.81	1490.92
637.00	1480.68
637.19	1558.50
637.38	1617.90
637.57	1546.22
637.76	1591.27
637.95	1624.04
638.14	1677.29
638.33	1593.32
638.52	1671.14
638.71	1544.17
638.89	1585.13
639.08	1677.29
639.27	1660.90
639.46	1619.94
639.65	1943.52
639.84	2043.87
640.03	2232.29
640.22	2205.66
640.41	2209.76
640.60	1902.56
640.79	1863.65
640.98	1722.34
641.17	1755.11
641.36	1705.96
641.55	1705.96
641.74	1603.56
641.92	1646.57
642.11	1640.42
642.30	1662.95
642.49	1540.07
642.68	1564.65
642.87	1611.75
643.06	1595.37
643.25	1488.87
643.44	1525.74
643.63	1546.22
643.82	1626.09
644.00	1490.92
644.19	1535.98
644.38	1488.87
644.57	1601.51
644.76	1574.89
644.95	1529.83
645.14	1488.87
645.33	1529.83
645.52	1525.74
645.71	1484.78
645.89	1517.54
646.08	1568.74
646.27	1490.92
646.46	1609.70
646.65	1443.82
646.84	1591.27
647.03	1527.78
647.22	1605.61
647.40	1560.55
647.59	1501.16
647.78	1484.78
647.97	1470.44
648.16	1409.00
648.35	1527.78
648.54	1642.47
648.73	1558.50
648.91	1632.23
649.10	1591.27
649.29	1548.26
649.48	1572.84
649.67	1501.16
649.86	1591.27
650.05	1581.03
650.23	1728.49
650.42	1636.33
650.61	1712.10
650.80	1734.63
650.99	1822.69
651.18	1658.85
651.36	1601.51
651.55	1558.50
651.74	1593.32
651.93	1564.65
652.12	1515.50
652.31	1605.61
652.49	1605.61
652.68	1591.27
652.87	1644.52
653.06	1574.89
653.25	1642.47
653.44	1632.23
653.62	1642.47
653.81	1619.94
654.00	1578.98
654.19	1572.84
654.38	1683.43
654.56	1662.95
654.75	1572.84
654.94	1681.38
655.13	1525.74
655.32	1472.49
655.51	1599.46
655.69	1507.30
655.88	1581.03
656.07	1505.26
656.26	1546.22
656.45	1472.49
656.63	1523.69
656.82	1583.08
657.01	1507.30
657.20	1548.26
657.38	1568.74
657.57	1480.68
657.76	1490.92
657.95	1527.78
658.14	1511.40
658.32	1499.11
658.51	1501.16
658.70	1544.17
658.89	1511.40
659.08	1486.83
659.26	1609.70
659.45	1531.88
659.64	1615.85
659.83	1505.26
660.01	1769.44
660.20	1564.65
660.39	1652.71
660.58	1511.40
660.76	1568.74
660.95	1515.50
661.14	1503.21
661.33	1419.24
661.51	1540.07
661.70	1517.54
661.89	1521.64
662.08	1578.98
662.26	1552.36
662.45	1558.50
662.64	1554.41
662.83	1566.70
663.01	1556.46
663.20	1554.41
663.39	1601.51
663.58	1578.98
663.76	1492.97
663.95	1562.60
664.14	1478.63
664.32	1523.69
664.51	1472.49
664.70	1427.43
664.89	1531.88
665.07	1542.12
665.26	1632.23
665.45	1505.26
665.64	1624.04
665.82	1587.18
666.01	1566.70
666.20	1564.65
666.38	1603.56
666.57	1636.33
666.76	1839.08
666.95	3008.47
667.13	7681.93
667.32	15548.18
667.51	20356.81
667.69	23619.22
667.88	25828.98
668.07	22417.07
668.25	16058.12
668.44	12613.44
668.63	10153.83
668.81	8679.29
669.00	7892.87
669.19	7239.57
669.38	6399.90
669.56	5746.60
669.75	4980.66
669.94	4104.13
670.12	3450.83
670.31	2846.68
670.50	2463.71
670.68	2090.98
670.87	1902.56
671.06	1767.40
671.24	1740.77
671.43	1722.34
671.62	1626.09
671.80	1628.14
671.99	1636.33
672.18	1535.98
672.36	1583.08
672.55	1552.36
672.74	1568.74
672.92	1527.78
673.11	1615.85
673.29	1519.59
673.48	1572.84
673.67	1499.11
673.85	1638.38
674.04	1515.50
674.23	1591.27
674.41	1568.74
674.60	1521.64
674.79	1402.86
674.97	1538.02
675.16	1552.36
675.34	1585.13
675.53	1517.54
675.72	1556.46
675.90	1613.80
676.09	1517.54
676.28	1581.03
676.46	1425.39
676.65	1523.69
676.83	1578.98
677.02	1497.07
677.21	1585.13
677.39	1556.46
677.58	1503.21
677.77	1495.02
677.95	1482.73
678.14	1525.74
678.32	1529.83
678.51	1478.63
678.70	1652.71
678.88	1552.36
679.07	1535.98
679.25	1492.97
679.44	1538.02
679.63	1640.42
679.81	1468.39
680.00	1558.50
680.18	1546.22
680.37	1605.61
680.55	1505.26
680.74	1445.87
680.93	1466.35
681.11	1476.59
681.30	1515.50
681.48	1566.70
681.67	1495.02
681.85	1497.07
682.04	1517.54
682.23	1585.13
682.41	1499.11
682.60	1515.50
682.78	1554.41
682.97	1501.16
683.15	1560.55
683.34	1540.07
683.53	1644.52
683.71	1427.43
683.90	1538.02
684.08	1613.80
684.27	1609.70
684.45	1497.07
684.64	1568.74
684.82	1570.79
685.01	1482.73
685.19	1540.07
685.38	1593.32
685.57	1425.39
685.75	1497.07
685.94	1519.59
686.12	1464.30
686.31	1499.11
686.49	1607.66
686.68	1505.26
686.86	1511.40
687.05	1609.70
687.23	1628.14
687.42	1535.98
687.60	1443.82
687.79	1576.94
687.97	1593.32
688.16	1564.65
688.34	1564.65
688.53	1519.59
688.71	1540.07
688.90	1603.56
689.08	1507.30
689.27	1468.39
689.45	1566.70
689.64	1568.74
689.82	1587.18
690.01	1574.89
690.19	1521.64
690.38	1535.98
690.56	1562.60
690.75	1578.98
690.93	1529.83
691.12	1497.07
691.30	1562.60
691.49	1462.25
691.67	1443.82
691.86	1615.85
692.04	1501.16
692.23	1552.36
692.41	1568.74
692.60	1691.62
692.78	1615.85
692.97	1607.66
693.15	1597.42
693.34	1681.38
693.52	1640.42
693.71	1578.98
693.89	1492.97
694.08	1486.83
694.26	1576.94
694.44	1591.27
694.63	1595.37
694.81	1466.35
695.00	1525.74
695.18	1583.08
695.37	1605.61
695.55	1566.70
695.74	1566.70
695.92	1519.59
696.10	1595.37
696.29	1490.92
696.47	1478.63
696.66	1509.35
696.84	1492.97
697.03	1527.78
697.21	1665.00
697.40	2047.97
697.58	1560.55
697.76	1527.78
697.95	1542.12
698.13	1525.74
698.32	1568.74
698.50	1550.31
698.68	1615.85
698.87	1550.31
699.05	1646.57
699.24	1556.46
699.42	1437.67
699.61	1578.98
699.79	1533.93
699.97	1626.09
700.16	1497.07
700.34	1488.87
700.53	1523.69
700.71	1613.80
700.89	1531.88
701.08	1509.35
701.26	1636.33
701.45	1875.94
701.63	1527.78
701.81	1538.02
702.00	1538.02
702.18	1589.22
702.37	1538.02
702.55	1640.42
702.73	1681.38
702.92	1619.94
703.10	1804.26
703.28	1753.06
703.47	1738.73
703.65	1644.52
703.84	1667.05
704.02	1601.51
704.20	1757.16
704.39	1544.17
704.57	1587.18
704.75	1626.09
704.94	1714.15
705.12	1644.52
705.30	1675.24
705.49	1890.28
705.67	2818.00
705.86	7681.93
706.04	14722.85
706.22	18937.57
706.41	22005.42
706.59	22884.00
706.77	21219.00
706.96	14956.32
707.14	11777.87
707.32	9774.95
707.51	8660.86
707.69	7690.12
707.87	6844.31
708.06	5855.14
708.24	4736.95
708.42	3637.19
708.61	2861.01
708.79	2328.54
708.97	2000.87
709.16	1869.80
709.34	1689.57
709.52	1621.99
709.71	1593.32
709.89	1677.29
710.07	1535.98
710.26	1585.13
710.44	1556.46
710.62	1679.33
710.80	1503.21
710.99	1599.46
711.17	1630.18
711.35	1564.65
711.54	1505.26
711.72	1662.95
711.90	1503.21
712.09	1564.65
712.27	1540.07
712.45	1531.88
712.63	1509.35
712.82	1533.93
713.00	1427.43
713.18	1601.51
713.37	1601.51
713.55	1591.27
713.73	1546.22
713.91	1576.94
714.10	1515.50
714.28	1566.70
714.46	1626.09
714.65	1531.88
714.83	1556.46
715.01	1630.18
715.19	1640.42
715.38	1548.26
715.56	1576.94
715.74	1452.01
715.92	1531.88
716.11	1632.23
716.29	1413.10
716.47	1503.21
716.65	1488.87
716.84	1482.73
717.02	1544.17
717.20	1511.40
717.38	1556.46
717.57	1603.56
717.75	1544.17
717.93	1497.07
718.11	1566.70
718.30	1495.02
718.48	1548.26
718.66	1556.46
718.84	1630.18
719.03	1538.02
719.21	1513.45
719.39	1671.14
719.57	1638.38
719.75	1589.22
719.94	1509.35
720.12	1503.21
720.30	1554.41
720.48	1581.03
720.67	1515.50
720.85	1476.59
721.03	1535.98
721.21	1525.74
721.39	1636.33
721.58	1499.11
721.76	1593.32
721.94	1558.50
722.12	1611.75
722.30	1611.75
722.49	1535.98
722.67	1505.26
722.85	1583.08
723.03	1413.10
723.21	1507.30
723.40	1425.39
723.58	1554.41
723.76	1576.94
723.94	1650.66
724.12	1581.03
724.30	1751.01
724.49	1636.33
724.67	1607.66
724.85	1589.22
725.03	1519.59
725.21	1574.89
725.40	1517.54
725.58	1585.13
725.76	1542.12
725.94	1552.36
726.12	1527.78
726.30	1605.61
726.49	1624.04
726.67	1509.35
726.85	1607.66
727.03	1636.33
727.21	1746.92
727.39	2160.61
727.57	3278.80
727.76	4421.56
727.94	4884.41
728.12	5214.13
728.30	5210.03
728.48	4386.75
728.66	3502.03
728.84	3203.02
729.03	2879.44
729.21	2633.69
729.39	2404.32
729.57	2039.78
729.75	1902.56
729.93	1787.88
730.11	1617.90
730.30	1603.56
730.48	1574.89
730.66	1648.61
730.84	1535.98
731.02	1589.22
731.20	1460.20
731.38	1540.07
731.56	1429.48
731.74	1492.97
731.93	1587.18
732.11	1568.74
732.29	1535.98
732.47	1509.35
732.65	1509.35
732.83	1505.26
733.01	1542.12
733.19	1492.97
733.37	1609.70
733.56	1531.88
733.74	1452.01
733.92	1630.18
734.10	1482.73
734.28	1581.03
734.46	1517.54
734.64	1523.69
734.82	1544.17
735.00	1458.15
735.18	1566.70
735.36	1538.02
735.54	1550.31
735.73	1544.17
735.91	1452.01
736.09	1603.56
736.27	1535.98
736.45	1595.37
736.63	1531.88
736.81	1581.03
736.99	1576.94
737.17	1632.23
737.35	1609.70
737.53	1566.70
737.71	1509.35
737.89	1595.37
738.07	1558.50
738.25	1531.88
738.43	1507.30
738.61	1517.54
738.80	1515.50
738.98	1443.82
739.16	1523.69
739.34	1484.78
739.52	1589.22
739.70	1497.07
739.88	1558.50
740.06	1585.13
740.24	1456.11
740.42	1566.70
740.60	1472.49
740.78	1503.21
740.96	1560.55
741.14	1533.93
741.32	1542.12
741.50	1488.87
741.68	1581.03
741.86	1667.05
742.04	1482.73
742.22	1449.96
742.40	1613.80
742.58	1574.89
742.76	1525.74
742.94	1581.03
743.12	1486.83
743.30	1642.47
743.48	1556.46
743.66	1554.41
743.84	1556.46
744.02	1507.30
744.20	1527.78
744.38	1501.16
744.56	1564.65
744.74	1638.38
744.92	1509.35
745.10	1662.95
745.28	1599.46
745.46	1644.52
745.64	1585.13
745.82	1691.62
746.00	1562.60
746.18	1513.45
746.36	1495.02
746.54	1548.26
746.72	1486.83
746.90	1470.44
747.08	1546.22
747.26	1570.79
747.44	1632.23
747.62	1527.78
747.80	1509.35
747.98	1548.26
748.15	1521.64
748.33	1609.70
748.51	1542.12
748.69	1542.12
748.87	1593.32
749.05	1576.94
749.23	1546.22
749.41	1599.46
749.59	1535.98
749.77	1648.61
749.95	1492.97
750.13	1484.78
750.31	1560.55
750.49	1621.99
750.67	1540.07
750.85	1640.42
751.03	1517.54
751.20	1681.38
751.38	1564.65
751.56	1542.12
751.74	1480.68
751.92	1535.98
752.10	1427.43
752.28	1572.84
752.46	1535.98
752.64	1521.64
752.82	1589.22
753.00	1564.65
753.18	1554.41
753.35	1538.02
753.53	1556.46
753.71	1511.40
753.89	1630.18
754.07	1517.54
754.25	1603.56
754.43	1501.16
754.61	1507.30
754.79	1538.02
754.97	1558.50
755.14	1570.79
755.32	1574.89
755.50	1554.41
755.68	1576.94
755.86	1527.78
756.04	1499.11
756.22	1447.91
756.40	1589.22
756.57	1642.47
756.75	1505.26
756.93	1521.64
757.11	1525.74
757.29	1538.02
757.47	1523.69
757.65	1415.15
757.82	1445.87
758.00	1525.74
758.18	1507.30
758.36	1464.30
758.54	1548.26
758.72	1499.11
758.90	1560.55
759.07	1550.31
759.25	1591.27
759.43	1570.79
759.61	1509.35
759.79	1953.76
759.97	1597.42
760.15	1505.26
760.32	1462.25
760.50	1587.18
760.68	1665.00
760.86	1456.11
761.04	1566.70
761.22	1552.36
761.39	1519.59
761.57	1609.70
761.75	1517.54
761.93	1568.74
762.11	1499.11
762.28	1499.11
762.46	1472.49
762.64	1552.36
762.82	1538.02
763.00	1505.26
763.18	1603.56
763.35	1529.83
763.53	1546.22
763.71	1513.45
763.89	1556.46
764.07	1562.60
764.24	1519.59
764.42	1556.46
764.60	1558.50
764.78	1570.79
764.96	1634.28
765.13	1626.09
765.31	1521.64
765.49	1568.74
765.67	1546.22
765.84	1468.39
766.02	1458.15
766.20	1507.30
766.38	1456.11
766.56	1558.50
766.73	1535.98
766.91	1533.93
767.09	1464.30
767.27	1501.16
767.44	1525.74
767.62	1558.50
767.80	1490.92
767.98	1472.49
768.15	1523.69
768.33	1552.36
768.51	1544.17
768.69	1570.79
768.87	1667.05
769.04	1544.17
769.22	1650.66
769.40	1613.80
769.58	1718.25
769.75	1564.65
769.93	1601.51
770.11	1468.39
770.28	1558.50
770.46	1540.07
770.64	1476.59
770.82	1484.78
770.99	1482.73
771.17	1460.20
771.35	1556.46
771.53	1495.02
771.70	1535.98
771.88	1591.27
772.06	1476.59
772.23	1568.74
772.41	1632.23
772.59	1470.44
772.77	1523.69
772.94	1462.25
773.12	1550.31
773.30	1435.63
773.47	1503.21
773.65	1472.49
773.83	1619.94
774.01	1501.16
774.18	1468.39
774.36	1531.88
774.54	1419.24
774.71	1513.45
774.89	1531.88
775.07	1531.88
775.24	1527.78
775.42	1556.46
775.60	1634.28
775.78	1554.41
775.95	1527.78
776.13	1474.54
776.31	1468.39
776.48	1521.64
776.66	1632.23
776.84	1540.07
777.01	1503.21
777.19	1427.43
777.37	1468.39
777.54	1560.55
777.72	1634.28
777.90	1546.22
778.07	1497.07
778.25	1726.44
778.43	1527.78
778.60	1521.64
778.78	1538.02
778.96	1587.18
779.13	1445.87
779.31	1552.36
779.49	1554.41
779.66	1521.64
779.84	1513.45
780.01	1515.50
780.19	1406.95
780.37	1630.18
780.54	1589.22
780.72	1544.17
780.90	1454.06
781.07	1593.32
781.25	1535.98
781.43	1570.79
781.60	1497.07
781.78	1660.90
781.95	1505.26
782.13	1544.17
782.31	1517.54
782.48	1509.35
782.66	1609.70
782.83	1595.37
783.01	1542.12
783.19	1587.18
783.36	1519.59
783.54	1486.83
783.72	1591.27
783.89	1603.56
784.07	1535.98
784.24	1589.22
784.42	1603.56
784.60	1464.30
784.77	1626.09
784.95	1488.87
785.12	1423.34
785.30	1568.74
785.47	1509.35
785.65	1533.93
785.83	1566.70
786.00	1503.21
786.18	1517.54
786.35	1495.02
786.53	1513.45
786.71	1527.78
786.88	1495.02
787.06	1548.26
787.23	1497.07
787.41	1535.98
787.58	1527.78
787.76	1497.07
787.94	1509.35
788.11	1548.26
788.29	1470.44
788.46	1462.25
788.64	1511.40
788.81	1443.82
788.99	1558.50
789.16	1480.68
789.34	1523.69
789.52	1519.59
789.69	1560.55
789.87	1452.01
790.04	1527.78
790.22	1593.32
790.39	1595.37
790.57	1468.39
790.74	1443.82
790.92	1562.60
791.09	1480.68
791.27	1552.36
791.44	1527.78
791.62	1538.02
791.79	1593.32
791.97	1572.84
792.15	1757.16
792.32	1546.22
792.50	1585.13
792.67	1581.03
792.85	1599.46
793.02	1531.88
793.20	1527.78
793.37	1515.50
793.55	1527.78
793.72	1511.40
793.90	1583.08
794.07	1470.44
794.25	1511.40
794.42	1519.59
794.60	1505.26
794.77	1669.09
794.95	1527.78
795.12	1581.03
795.30	1503.21
795.47	1464.30
795.65	1603.56
795.82	1552.36
796.00	1546.22
796.17	1595.37
796.34	1542.12
796.52	1497.07
796.69	1546.22
796.87	1499.11
797.04	1519.59
797.22	1540.07
797.39	1574.89
797.57	1527.78
797.74	1505.26
797.92	1519.59
798.09	1507.30
798.27	1632.23
798.44	1511.40
798.62	1449.96
798.79	1525.74
798.96	1501.16
799.14	1550.31
799.31	1662.95
799.49	1509.35
799.66	1544.17
799.84	1566.70
800.01	1435.63
800.19	1578.98
800.36	1419.24
800.53	1574.89
800.71	1621.99
800.88	1648.61
801.06	1558.50
801.23	1544.17
801.41	1490.92
801.58	1552.36
801.75	1478.63
801.93	1517.54
802.10	1554.41
802.28	1533.93
802.45	1564.65
802.63	1597.42
802.80	1595.37
802.97	1576.94
803.15	1505.26
803.32	1568.74
803.50	1568.74
803.67	1460.20
803.84	1499.11
804.02	1587.18
804.19	1470.44
804.37	1507.30
804.54	1488.87
804.71	1548.26
804.89	1495.02
805.06	1550.31
805.24	1454.06
805.41	1495.02
805.58	1439.72
805.76	1652.71
805.93	1591.27
806.10	1607.66
806.28	1548.26
806.45	1529.83
806.63	1535.98
806.80	1517.54
806.97	1558.50
807.15	1578.98
807.32	1572.84
807.49	1566.70
807.67	1443.82
807.84	1626.09
808.01	1411.05
808.19	1552.36
808.36	1613.80
808.54	1486.83
808.71	1554.41
808.88	1576.94
809.06	1560.55
809.23	1644.52
809.40	1515.50
809.58	1523.69
809.75	1554.41
809.92	1517.54
810.10	1642.47
810.27	1535.98
810.44	1480.68
810.62	1548.26
810.79	1503.21
810.96	1517.54
811.14	1486.83
811.31	1544.17
811.48	1513.45
811.66	1540.07
811.83	1589.22
812.00	1574.89
812.18	1642.47
812.35	1626.09
812.52	1527.78
812.69	1529.83
812.87	1599.46
813.04	1509.35
813.21	1503.21
813.39	1517.54
813.56	1488.87
813.73	1558.50
813.91	1474.54
814.08	1634.28
814.25	1499.11
814.42	1519.59
814.60	1495.02
814.77	1544.17
814.94	1492.97
815.12	1546.22
815.29	1501.16
815.46	1529.83
815.63	1511.40
815.81	1521.64
815.98	1556.46
816.15	1480.68
816.33	1478.63
816.50	1566.70
816.67	1492.97
816.84	1529.83
817.02	1470.44
817.19	1503.21
817.36	1525.74
817.53	1552.36
817.71	1538.02
817.88	1517.54
818.05	1572.84
818.22	1531.88
818.40	1615.85
818.57	1449.96
818.74	1515.50
818.91	1464.30
819.09	1574.89
819.26	1599.46
819.43	1542.12
819.60	1474.54
819.78	1525.74
819.95	1587.18
820.12	1482.73
820.29	1589.22
820.47	1517.54
820.64	1525.74
820.81	1513.45
820.98	1505.26
821.15	1511.40
821.33	1525.74
821.50	1490.92
821.67	1519.59
821.84	1476.59
822.02	1583.08
822.19	1560.55
822.36	1501.16
822.53	1572.84
822.70	1488.87
822.88	1505.26
823.05	1591.27
823.22	1546.22
823.39	1601.51
823.56	1492.97
823.74	1542.12
823.91	1470.44
824.08	1462.25
824.25	1480.68
824.42	1595.37
824.60	1443.82
824.77	1525.74
824.94	1488.87
825.11	1540.07
825.28	1533.93
825.45	1564.65
825.63	1447.91
825.80	1501.16
825.97	1533.93
826.14	1597.42
826.31	1452.01
826.48	1603.56
826.66	1521.64
826.83	1544.17
827.00	1509.35
827.17	1556.46
827.34	1556.46
827.51	1578.98
827.69	1509.35
827.86	1452.01
828.03	1478.63
828.20	1558.50
828.37	1542.12
828.54	1556.46
828.71	1458.15
828.89	1585.13
829.06	1556.46
829.23	1617.90
829.40	1443.82
829.57	1503.21
829.74	1583.08
829.91	1490.92
830.09	1458.15
830.26	1589.22
830.43	1597.42
830.60	1480.68
830.77	1458.15
830.94	1665.00
831.11	1599.46
831.28	1552.36
831.46	1648.61
831.63	1562.60
831.80	1619.94
831.97	1576.94
832.14	1464.30
832.31	1591.27
832.48	1507.30
832.65	1587.18
832.82	1552.36
832.99	1589.22
833.17	1554.41
833.34	1636.33
833.51	1552.36
833.68	1460.20
833.85	1568.74
834.02	1513.45
834.19	1466.35
834.36	1519.59
834.53	1566.70
834.70	1544.17
834.87	1583.08
835.04	1531.88
835.22	1533.93
835.39	1474.54
835.56	1417.19
835.73	1527.78
835.90	1517.54
836.07	1456.11
836.24	1538.02
836.41	1519.59
836.58	1486.83
836.75	1503.21
836.92	1581.03
837.09	1490.92
837.26	1527.78
837.43	1601.51
837.60	1591.27
837.77	1564.65
837.94	1587.18
838.12	1615.85
838.29	1546.22
838.46	1511.40
838.63	1470.44
838.80	1558.50
838.97	1646.57
839.14	1521.64
839.31	1507.30
839.48	1558.50
839.65	1476.59
839.82	1509.35
839.99	1552.36
840.16	1531.88
840.33	1447.91
840.50	1527.78
840.67	1533.93
840.84	1462.25
841.01	1517.54
841.18	1511.40
841.35	1544.17
841.52	1533.93
841.69	1587.18
841.86	1550.31
842.03	1517.54
842.20	1566.70
842.37	1570.79
842.54	1513.45
842.71	1501.16
842.88	1531.88
843.05	1542.12
843.22	1533.93
843.39	1513.45
843.56	1454.06
843.73	1517.54
843.90	1597.42
844.07	1462.25
844.24	1535.98
844.41	1705.96
844.58	1495.02
844.75	1597.42
844.92	1624.04
845.09	1501.16
845.26	1478.63
845.43	1548.26
845.60	1515.50
845.77	1636.33
845.94	1519.59
846.10	1505.26
846.27	1441.77
846.44	1535.98
846.61	1509.35
846.78	1574.89
846.95	1540.07
847.12	1505.26
847.29	1488.87
847.46	1501.16
847.63	1554.41
847.80	1468.39
847.97	1462.25
848.14	1619.94
848.31	1460.20
848.48	1433.58
848.65	1488.87
848.82	1499.11
848.98	1685.48
849.15	1542.12
849.32	1535.98
849.49	1568.74
849.66	1558.50
849.83	1585.13
850.00	1495.02
850.17	1556.46
850.34	1482.73
850.51	1474.54
850.68	1517.54
850.85	1578.98
851.01	1562.60
851.18	1546.22
851.35	1533.93
851.52	1535.98
851.69	1572.84
851.86	1474.54
852.03	1488.87
852.20	1578.98
852.37	1558.50
852.53	1404.91
852.70	1538.02
852.87	1523.69
853.04	1556.46
853.21	1566.70
853.38	1591.27
853.55	1638.38
853.72	1605.61
853.89	1507.30
854.05	1550.31
854.22	1484.78
854.39	1505.26
854.56	1595.37
854.73	1556.46
854.90	1521.64
855.07	1564.65
855.23	1505.26
855.40	1499.11
855.57	1546.22
855.74	1406.95
855.91	1636.33
856.08	1503.21
856.25	1435.63
856.41	1523.69
856.58	1509.35
856.75	1513.45
856.92	1509.35
857.09	1560.55
857.26	1452.01
857.42	1497.07
857.59	1552.36
857.76	1509.35
857.93	1517.54
858.10	1593.32
858.27	1458.15
858.43	1540.07
858.60	1517.54
858.77	1427.43
858.94	1472.49
859.11	1615.85
859.27	1535.98
859.44	1523.69
859.61	1605.61
859.78	1550.31
859.95	1531.88
860.12	1587.18
860.28	1568.74
860.45	1605.61
860.62	1419.24
860.79	1576.94
860.95	1458.15
861.12	1495.02
861.29	1464.30
861.46	1458.15
861.63	1533.93
861.79	1490.92
861.96	1558.50
862.13	1472.49
862.30	1632.23
862.47	1505.26
862.63	1540.07
862.80	1503.21
862.97	1589.22
863.14	1611.75
863.30	1574.89
863.47	1501.16
863.64	1566.70
863.81	1538.02
863.97	1533.93
864.14	1548.26
864.31	1505.26
864.48	1568.74
864.65	1607.66
864.81	1564.65
864.98	1544.17
865.15	1576.94
865.32	1552.36
865.48	1574.89
865.65	1591.27
865.82	1511.40
865.98	1507.30
866.15	1630.18
866.32	1478.63
866.49	1554.41
866.65	1581.03
866.82	1458.15
866.99	1521.64
867.16	1480.68
867.32	1583.08
867.49	1425.39
867.66	1482.73
867.83	1462.25
867.99	1458.15
868.16	1566.70
868.33	1501.16
868.49	1435.63
868.66	1497.07
868.83	1599.46
868.99	1538.02
869.16	1576.94
869.33	1617.90
869.50	1615.85
869.66	1615.85
869.83	1529.83
870.00	1501.16
870.16	1560.55
870.33	1529.83
870.50	1538.02
870.66	1544.17
870.83	1650.66
871.00	1517.54
871.17	1495.02
871.33	1568.74
871.50	1597.42
871.67	1509.35
871.83	1406.95
872.00	1628.14
872.17	1566.70
872.33	1533.93
872.50	1599.46
872.67	1529.83
872.83	1583.08
873.00	1523.69
873.17	1570.79
873.33	1624.04
873.50	1554.41
873.67	1439.72
873.83	1538.02
874.00	1523.69
874.16	1587.18
874.33	1587.18
874.50	1413.10
874.66	1624.04
874.83	1478.63
875.00	1568.74
875.16	1556.46
875.33	1587.18
875.50	1486.83
875.66	1527.78
875.83	1470.44
875.99	1619.94
876.16	1529.83
876.33	1529.83
876.49	1542.12
876.66	1603.56
876.83	1478.63
876.99	1415.15
877.16	1525.74
877.32	1597.42
877.49	1552.36
877.66	1521.64
877.82	1609.70
877.99	1578.98
878.15	1593.32
878.32	1540.07
878.49	1603.56
878.65	1603.56
878.82	1609.70
878.98	1581.03
879.15	1511.40
879.32	1581.03
879.48	1542.12
879.65	1521.64
879.81	1492.97
879.98	1523.69
880.15	1521.64
880.31	1574.89
880.48	1466.35
880.64	1628.14
880.81	1548.26
880.97	1548.26
881.14	1617.90
881.31	1503.21
881.47	1624.04
881.64	1509.35
881.80	1392.62
881.97	1570.79
882.13	1513.45
882.30	1447.91
882.47	1478.63
882.63	1515.50
882.80	1529.83
882.96	1511.40
883.13	1550.31
883.29	1466.35
883.46	1525.74
883.62	1626.09
883.79	1564.65
883.95	1552.36
884.12	1538.02
884.29	1587.18
884.45	1509.35
884.62	1587.18
884.78	1517.54
884.95	1511.40
885.11	1472.49
885.28	1527.78
885.44	1540.07
885.61	1529.83
885.77	1605.61
885.94	1589.22
886.10	1611.75
886.27	1550.31
886.43	1646.57
886.60	1525.74
886.76	1480.68
886.93	1535.98
887.09	1566.70
887.26	1472.49
887.42	1540.07
887.59	1484.78
887.75	1615.85
887.92	1538.02
888.08	1515.50
888.25	1574.89
888.41	1492.97
888.58	1466.35
888.74	1466.35
888.91	1513.45
>>>>>End Processed Spectral Data<<<<<
