SpectraSuite Data File
++++++++++++++++++++++++++++++++++++
Date: Tue May 03 12:55:59 CEST 2016
User: root
Dark Spectrum Present: No
Reference Spectrum Present: No
Number of Sampled Component Spectra: 1
Spectrometers: USB4C02835
Integration Time (usec): 100000 (USB4C02835)
Spectra Averaged: 1 (USB4C02835)
Boxcar Smoothing: 0 (USB4C02835)
Correct for Electrical Dark: No (USB4C02835)
Strobe/Lamp Enabled: No (USB4C02835)
Correct for Detector Non-linearity: No (USB4C02835)
Correct for Stray Light: No (USB4C02835)
Number of Pixels in Processed Spectrum: 3648
>>>>>Begin Processed Spectral Data<<<<<
177.47	1339.37
177.69	1339.37
177.91	1339.37
178.13	1366.00
178.36	1363.95
178.58	1523.69
178.80	1554.41
179.02	1501.16
179.24	1558.50
179.46	1466.35
179.68	1603.56
179.90	1593.32
180.13	1525.74
180.35	1474.54
180.57	1521.64
180.79	1607.66
181.01	1462.25
181.23	1601.51
181.45	1570.79
181.67	1576.94
181.90	1560.55
182.12	1529.83
182.34	1535.98
182.56	1521.64
182.78	1587.18
183.00	1576.94
183.22	1513.45
183.44	1499.11
183.66	1681.38
183.89	1591.27
184.11	1490.92
184.33	1589.22
184.55	1609.70
184.77	1562.60
184.99	1568.74
185.21	1535.98
185.43	1656.81
185.65	1501.16
185.87	1519.59
186.10	1640.42
186.32	1603.56
186.54	1511.40
186.76	1581.03
186.98	1605.61
187.20	1552.36
187.42	1548.26
187.64	1509.35
187.86	1540.07
188.08	1525.74
188.30	1497.07
188.52	1531.88
188.75	1615.85
188.97	1542.12
189.19	1583.08
189.41	1517.54
189.63	1542.12
189.85	1529.83
190.07	1521.64
190.29	1572.84
190.51	1626.09
190.73	1462.25
190.95	1578.98
191.17	1517.54
191.39	1574.89
191.61	1525.74
191.84	1593.32
192.06	1550.31
192.28	1478.63
192.50	1599.46
192.72	1562.60
192.94	1593.32
193.16	1572.84
193.38	1505.26
193.60	1452.01
193.82	1503.21
194.04	1675.24
194.26	1550.31
194.48	1529.83
194.70	1476.59
194.92	1542.12
195.14	1535.98
195.36	1513.45
195.58	1529.83
195.80	1542.12
196.02	1552.36
196.24	1581.03
196.46	1591.27
196.69	1527.78
196.91	1708.01
197.13	1533.93
197.35	1527.78
197.57	1581.03
197.79	1621.99
198.01	1544.17
198.23	1484.78
198.45	1564.65
198.67	1464.30
198.89	1556.46
199.11	1472.49
199.33	1581.03
199.55	1452.01
199.77	1499.11
199.99	1574.89
200.21	1509.35
200.43	1593.32
200.65	1449.96
200.87	1439.72
201.09	1550.31
201.31	1472.49
201.53	1511.40
201.75	1478.63
201.97	1585.13
202.19	1464.30
202.41	1495.02
202.63	1705.96
202.85	1552.36
203.07	1542.12
203.29	1503.21
203.51	1554.41
203.73	1486.83
203.95	1761.25
204.17	1650.66
204.39	1574.89
204.61	1544.17
204.83	1431.53
205.05	1574.89
205.27	1658.85
205.49	1607.66
205.71	1535.98
205.93	1425.39
206.15	1550.31
206.37	1480.68
206.59	1552.36
206.81	1529.83
207.03	1529.83
207.25	1474.54
207.47	1560.55
207.69	1529.83
207.91	1558.50
208.13	1583.08
208.34	1499.11
208.56	1400.81
208.78	1490.92
209.00	1527.78
209.22	1564.65
209.44	1560.55
209.66	1607.66
209.88	1572.84
210.10	1554.41
210.32	1554.41
210.54	1574.89
210.76	1513.45
210.98	1636.33
211.20	1490.92
211.42	1544.17
211.64	1570.79
211.86	1544.17
212.08	1550.31
212.30	1509.35
212.52	1505.26
212.74	1576.94
212.96	1499.11
213.17	1585.13
213.39	1583.08
213.61	1671.14
213.83	1550.31
214.05	1476.59
214.27	1495.02
214.49	1533.93
214.71	1499.11
214.93	1656.81
215.15	1540.07
215.37	1533.93
215.59	1519.59
215.81	1591.27
216.03	1605.61
216.24	1552.36
216.46	1566.70
216.68	1615.85
216.90	1648.61
217.12	1527.78
217.34	1597.42
217.56	1599.46
217.78	1572.84
218.00	1566.70
218.22	1538.02
218.44	1542.12
218.66	1593.32
218.87	1603.56
219.09	1574.89
219.31	1540.07
219.53	1464.30
219.75	1519.59
219.97	1452.01
220.19	1527.78
220.41	1587.18
220.63	1574.89
220.85	1542.12
221.06	1529.83
221.28	1617.90
221.50	1554.41
221.72	1529.83
221.94	1562.60
222.16	1550.31
222.38	1511.40
222.60	1603.56
222.82	1546.22
223.03	1527.78
223.25	1456.11
223.47	1607.66
223.69	1648.61
223.91	1570.79
224.13	1501.16
224.35	1527.78
224.57	1624.04
224.78	1556.46
225.00	1482.73
225.22	1531.88
225.44	1550.31
225.66	1548.26
225.88	1533.93
226.10	1585.13
226.32	1624.04
226.53	1615.85
226.75	1585.13
226.97	1519.59
227.19	1542.12
227.41	1490.92
227.63	1515.50
227.85	1513.45
228.06	1538.02
228.28	1478.63
228.50	1486.83
228.72	1460.20
228.94	1458.15
229.16	1419.24
229.37	1462.25
229.59	1552.36
229.81	1552.36
230.03	1480.68
230.25	1482.73
230.47	1492.97
230.69	1478.63
230.90	1593.32
231.12	1488.87
231.34	1519.59
231.56	1595.37
231.78	1492.97
232.00	1490.92
232.21	1476.59
232.43	1478.63
232.65	1435.63
232.87	1566.70
233.09	1529.83
233.30	1560.55
233.52	1578.98
233.74	1554.41
233.96	1589.22
234.18	1601.51
234.40	1634.28
234.61	1654.76
234.83	1470.44
235.05	1488.87
235.27	1626.09
235.49	1599.46
235.70	1542.12
235.92	1581.03
236.14	1560.55
236.36	1566.70
236.58	1562.60
236.79	1583.08
237.01	1576.94
237.23	1595.37
237.45	1605.61
237.67	1486.83
237.88	1568.74
238.10	1581.03
238.32	1480.68
238.54	1527.78
238.76	1501.16
238.97	1507.30
239.19	1509.35
239.41	1550.31
239.63	1624.04
239.85	1529.83
240.06	1552.36
240.28	1517.54
240.50	1624.04
240.72	1509.35
240.93	1552.36
241.15	1562.60
241.37	1523.69
241.59	1578.98
241.81	1509.35
242.02	1527.78
242.24	1482.73
242.46	1533.93
242.68	1523.69
242.89	1554.41
243.11	1648.61
243.33	1511.40
243.55	1523.69
243.76	1570.79
243.98	1445.87
244.20	1497.07
244.42	1550.31
244.64	1581.03
244.85	1413.10
245.07	1517.54
245.29	1597.42
245.51	1558.50
245.72	1519.59
245.94	1578.98
246.16	1595.37
246.38	1519.59
246.59	1599.46
246.81	1464.30
247.03	1558.50
247.24	1427.43
247.46	1529.83
247.68	1593.32
247.90	1521.64
248.11	1538.02
248.33	1540.07
248.55	1517.54
248.77	1505.26
248.98	1538.02
249.20	1538.02
249.42	1572.84
249.64	1605.61
249.85	1492.97
250.07	1505.26
250.29	1601.51
250.50	1650.66
250.72	1525.74
250.94	1550.31
251.16	1607.66
251.37	1558.50
251.59	1583.08
251.81	1550.31
252.02	1640.42
252.24	1566.70
252.46	1652.71
252.68	1527.78
252.89	1497.07
253.11	1464.30
253.33	1591.27
253.54	1615.85
253.76	1509.35
253.98	1497.07
254.20	1556.46
254.41	1423.34
254.63	1503.21
254.85	1529.83
255.06	1535.98
255.28	1525.74
255.50	1535.98
255.71	1466.35
255.93	1462.25
256.15	1538.02
256.36	1576.94
256.58	1466.35
256.80	1599.46
257.02	1611.75
257.23	1517.54
257.45	1574.89
257.67	1597.42
257.88	1595.37
258.10	1486.83
258.32	1488.87
258.53	1554.41
258.75	1689.57
258.97	1501.16
259.18	1503.21
259.40	1525.74
259.62	1732.58
259.83	1576.94
260.05	1542.12
260.27	1689.57
260.48	1535.98
260.70	1523.69
260.92	1521.64
261.13	1523.69
261.35	1505.26
261.57	1519.59
261.78	1525.74
262.00	1529.83
262.22	1581.03
262.43	1488.87
262.65	1546.22
262.86	1554.41
263.08	1607.66
263.30	1454.06
263.51	1484.78
263.73	1538.02
263.95	1525.74
264.16	1591.27
264.38	1476.59
264.60	1503.21
264.81	1470.44
265.03	1583.08
265.25	1554.41
265.46	1540.07
265.68	1630.18
265.89	1560.55
266.11	1449.96
266.33	1583.08
266.54	1515.50
266.76	1552.36
266.98	1525.74
267.19	1609.70
267.41	1558.50
267.62	1499.11
267.84	1429.48
268.06	1554.41
268.27	1476.59
268.49	1578.98
268.70	1648.61
268.92	1492.97
269.14	1603.56
269.35	1488.87
269.57	1445.87
269.79	1697.77
270.00	1482.73
270.22	1671.14
270.43	1515.50
270.65	1470.44
270.87	1535.98
271.08	1634.28
271.30	1540.07
271.51	1535.98
271.73	1585.13
271.95	1599.46
272.16	1626.09
272.38	1529.83
272.59	1462.25
272.81	1595.37
273.02	1511.40
273.24	1507.30
273.46	1611.75
273.67	1478.63
273.89	1546.22
274.10	1558.50
274.32	1511.40
274.54	1550.31
274.75	1529.83
274.97	1542.12
275.18	1630.18
275.40	1488.87
275.61	1562.60
275.83	1484.78
276.05	1550.31
276.26	1566.70
276.48	1607.66
276.69	1505.26
276.91	1476.59
277.12	1603.56
277.34	1626.09
277.55	1621.99
277.77	1501.16
277.99	1511.40
278.20	1460.20
278.42	1517.54
278.63	1490.92
278.85	1470.44
279.06	1505.26
279.28	1564.65
279.49	1562.60
279.71	1570.79
279.93	1566.70
280.14	1533.93
280.36	1499.11
280.57	1558.50
280.79	1597.42
281.00	1478.63
281.22	1495.02
281.43	1591.27
281.65	1435.63
281.86	1468.39
282.08	1552.36
282.29	1697.77
282.51	1470.44
282.73	1476.59
282.94	1439.72
283.16	1601.51
283.37	1611.75
283.59	1533.93
283.80	1576.94
284.02	1540.07
284.23	1628.14
284.45	1507.30
284.66	1501.16
284.88	1460.20
285.09	1581.03
285.31	1566.70
285.52	1556.46
285.74	1527.78
285.95	1583.08
286.17	1595.37
286.38	1566.70
286.60	1497.07
286.81	1480.68
287.03	1509.35
287.24	1511.40
287.46	1495.02
287.67	1615.85
287.89	1654.76
288.10	1591.27
288.32	1570.79
288.53	1599.46
288.75	1505.26
288.96	1615.85
289.18	1460.20
289.39	1527.78
289.61	1605.61
289.82	1595.37
290.04	1689.57
290.25	1554.41
290.47	1552.36
290.68	1411.05
290.90	1595.37
291.11	1470.44
291.33	1548.26
291.54	1421.29
291.76	1488.87
291.97	1507.30
292.18	1525.74
292.40	1552.36
292.61	1435.63
292.83	1597.42
293.04	1609.70
293.26	1544.17
293.47	1527.78
293.69	1482.73
293.90	1501.16
294.12	1572.84
294.33	1492.97
294.55	1566.70
294.76	1560.55
294.97	1552.36
295.19	1638.38
295.40	1542.12
295.62	1501.16
295.83	1556.46
296.05	1538.02
296.26	1617.90
296.48	1513.45
296.69	1472.49
296.90	1456.11
297.12	1597.42
297.33	1640.42
297.55	1615.85
297.76	1509.35
297.98	1546.22
298.19	1570.79
298.41	1474.54
298.62	1484.78
298.83	1548.26
299.05	1550.31
299.26	1533.93
299.48	1449.96
299.69	1523.69
299.90	1613.80
300.12	1501.16
300.33	1597.42
300.55	1538.02
300.76	1558.50
300.98	1585.13
301.19	1587.18
301.40	1513.45
301.62	1576.94
301.83	1497.07
302.05	1595.37
302.26	1505.26
302.47	1472.49
302.69	1503.21
302.90	1550.31
303.12	1464.30
303.33	1503.21
303.54	1636.33
303.76	1505.26
303.97	1525.74
304.19	1587.18
304.40	1417.19
304.61	1617.90
304.83	1597.42
305.04	1609.70
305.26	1566.70
305.47	1513.45
305.68	1560.55
305.90	1527.78
306.11	1566.70
306.33	1495.02
306.54	1595.37
306.75	1576.94
306.97	1435.63
307.18	1490.92
307.39	1497.07
307.61	1576.94
307.82	1464.30
308.04	1583.08
308.25	1511.40
308.46	1531.88
308.68	1550.31
308.89	1572.84
309.10	1755.11
309.32	1630.18
309.53	1566.70
309.74	1613.80
309.96	1495.02
310.17	1613.80
310.39	1480.68
310.60	1574.89
310.81	1509.35
311.03	1495.02
311.24	1603.56
311.45	1581.03
311.67	1656.81
311.88	1472.49
312.09	1525.74
312.31	1492.97
312.52	1505.26
312.73	1519.59
312.95	1476.59
313.16	1423.34
313.37	1568.74
313.59	1593.32
313.80	1533.93
314.01	1558.50
314.23	1437.67
314.44	1589.22
314.65	1394.67
314.87	1523.69
315.08	1472.49
315.29	1587.18
315.51	1548.26
315.72	1468.39
315.93	1624.04
316.15	1535.98
316.36	1562.60
316.57	1519.59
316.79	1558.50
317.00	1540.07
317.21	1529.83
317.43	1503.21
317.64	1589.22
317.85	1466.35
318.07	1540.07
318.28	1591.27
318.49	1697.77
318.70	1730.53
318.92	1789.92
319.13	1609.70
319.34	1734.63
319.56	1642.47
319.77	1538.02
319.98	1683.43
320.20	1646.57
320.41	1591.27
320.62	1585.13
320.83	1564.65
321.05	1660.90
321.26	1556.46
321.47	1492.97
321.69	1601.51
321.90	1505.26
322.11	1472.49
322.32	1585.13
322.54	1507.30
322.75	1531.88
322.96	1597.42
323.18	1511.40
323.39	1501.16
323.60	1464.30
323.81	1554.41
324.03	1548.26
324.24	1609.70
324.45	1517.54
324.66	1501.16
324.88	1501.16
325.09	1601.51
325.30	1568.74
325.52	1585.13
325.73	1552.36
325.94	1509.35
326.15	1566.70
326.37	1468.39
326.58	1630.18
326.79	1665.00
327.00	1513.45
327.22	1527.78
327.43	1556.46
327.64	1443.82
327.85	1560.55
328.07	1544.17
328.28	1597.42
328.49	1499.11
328.70	1572.84
328.92	1519.59
329.13	1533.93
329.34	1523.69
329.55	1574.89
329.76	1554.41
329.98	1535.98
330.19	1566.70
330.40	1505.26
330.61	1552.36
330.83	1517.54
331.04	1501.16
331.25	1533.93
331.46	1515.50
331.68	1495.02
331.89	1544.17
332.10	1560.55
332.31	1445.87
332.52	1515.50
332.74	1597.42
332.95	1560.55
333.16	1529.83
333.37	1464.30
333.58	1476.59
333.80	1533.93
334.01	1449.96
334.22	1517.54
334.43	1470.44
334.64	1574.89
334.86	1404.91
335.07	1519.59
335.28	1636.33
335.49	1456.11
335.70	1572.84
335.92	1554.41
336.13	1617.90
336.34	1587.18
336.55	1601.51
336.76	1583.08
336.98	1462.25
337.19	1560.55
337.40	1601.51
337.61	1662.95
337.82	1556.46
338.04	1576.94
338.25	1578.98
338.46	1595.37
338.67	1562.60
338.88	1515.50
339.09	1560.55
339.31	1476.59
339.52	1443.82
339.73	1484.78
339.94	1492.97
340.15	1548.26
340.36	1554.41
340.58	1503.21
340.79	1456.11
341.00	1560.55
341.21	1464.30
341.42	1630.18
341.63	1535.98
341.85	1529.83
342.06	1546.22
342.27	1497.07
342.48	1554.41
342.69	1470.44
342.90	1515.50
343.12	1621.99
343.33	1492.97
343.54	1527.78
343.75	1581.03
343.96	1564.65
344.17	1540.07
344.38	1525.74
344.60	1548.26
344.81	1482.73
345.02	1511.40
345.23	1492.97
345.44	1585.13
345.65	1562.60
345.86	1484.78
346.07	1597.42
346.29	1497.07
346.50	1552.36
346.71	1574.89
346.92	1624.04
347.13	1654.76
347.34	1538.02
347.55	1525.74
347.76	1552.36
347.98	1452.01
348.19	1509.35
348.40	1566.70
348.61	1560.55
348.82	1554.41
349.03	1560.55
349.24	1456.11
349.45	1583.08
349.66	1466.35
349.88	1556.46
350.09	1525.74
350.30	1644.52
350.51	1593.32
350.72	1533.93
350.93	1560.55
351.14	1556.46
351.35	1589.22
351.56	1525.74
351.77	1550.31
351.99	1546.22
352.20	1642.47
352.41	1558.50
352.62	1533.93
352.83	1533.93
353.04	1501.16
353.25	1521.64
353.46	1562.60
353.67	1578.98
353.88	1437.67
354.09	1513.45
354.30	1519.59
354.52	1546.22
354.73	1525.74
354.94	1435.63
355.15	1570.79
355.36	1634.28
355.57	1476.59
355.78	1578.98
355.99	1497.07
356.20	1535.98
356.41	1632.23
356.62	1581.03
356.83	1505.26
357.04	1603.56
357.25	1484.78
357.46	1525.74
357.68	1507.30
357.89	1497.07
358.10	1607.66
358.31	1535.98
358.52	1562.60
358.73	1499.11
358.94	1464.30
359.15	1505.26
359.36	1558.50
359.57	1566.70
359.78	1554.41
359.99	1515.50
360.20	1533.93
360.41	1513.45
360.62	1533.93
360.83	1558.50
361.04	1533.93
361.25	1538.02
361.46	1648.61
361.67	1572.84
361.88	1523.69
362.09	1544.17
362.30	1601.51
362.51	1484.78
362.72	1492.97
362.93	1542.12
363.14	1583.08
363.35	1515.50
363.56	1517.54
363.78	1607.66
363.99	1566.70
364.20	1533.93
364.41	1515.50
364.62	1605.61
364.83	1525.74
365.04	1538.02
365.25	1578.98
365.46	1593.32
365.67	1464.30
365.88	1544.17
366.09	1593.32
366.30	1535.98
366.51	1521.64
366.72	1499.11
366.93	1558.50
367.14	1515.50
367.35	1681.38
367.56	1470.44
367.77	1619.94
367.98	1540.07
368.18	1601.51
368.39	1544.17
368.60	1474.54
368.81	1576.94
369.02	1540.07
369.23	1525.74
369.44	1484.78
369.65	1535.98
369.86	1605.61
370.07	1603.56
370.28	1521.64
370.49	1597.42
370.70	1560.55
370.91	1482.73
371.12	1443.82
371.33	1578.98
371.54	1480.68
371.75	1556.46
371.96	1472.49
372.17	1646.57
372.38	1540.07
372.59	1552.36
372.80	1556.46
373.01	1521.64
373.22	1566.70
373.43	1576.94
373.64	1519.59
373.85	1548.26
374.06	1542.12
374.26	1599.46
374.47	1558.50
374.68	1560.55
374.89	1601.51
375.10	1509.35
375.31	1550.31
375.52	1578.98
375.73	1591.27
375.94	1499.11
376.15	1605.61
376.36	1535.98
376.57	1552.36
376.78	1511.40
376.99	1478.63
377.20	1587.18
377.40	1558.50
377.61	1644.52
377.82	1558.50
378.03	1517.54
378.24	1566.70
378.45	1550.31
378.66	1607.66
378.87	1527.78
379.08	1429.48
379.29	1445.87
379.50	1591.27
379.71	1558.50
379.91	1527.78
380.12	1544.17
380.33	1583.08
380.54	1527.78
380.75	1464.30
380.96	1607.66
381.17	1527.78
381.38	1548.26
381.59	1566.70
381.80	1601.51
382.00	1673.19
382.21	1544.17
382.42	1667.05
382.63	1714.15
382.84	1519.59
383.05	1533.93
383.26	1613.80
383.47	1544.17
383.68	1535.98
383.88	1566.70
384.09	1462.25
384.30	1669.09
384.51	1542.12
384.72	1458.15
384.93	1519.59
385.14	1548.26
385.35	1599.46
385.55	1431.53
385.76	1576.94
385.97	1550.31
386.18	1497.07
386.39	1523.69
386.60	1574.89
386.81	1503.21
387.02	1525.74
387.22	1542.12
387.43	1599.46
387.64	1632.23
387.85	1859.56
388.06	3131.34
388.27	7141.27
388.48	10616.67
388.68	12171.08
388.89	13967.15
389.10	12902.20
389.31	10108.77
389.52	8966.01
389.73	7835.53
389.93	6924.18
390.14	6805.40
390.35	6186.91
390.56	5556.14
390.77	4581.31
390.98	3655.62
391.18	2797.53
391.39	2203.61
391.60	1714.15
391.81	1742.82
392.02	1568.74
392.23	1648.61
392.43	1560.55
392.64	1652.71
392.85	1542.12
393.06	1578.98
393.27	1603.56
393.47	1492.97
393.68	1527.78
393.89	1538.02
394.10	1566.70
394.31	1583.08
394.52	1490.92
394.72	1464.30
394.93	1583.08
395.14	1550.31
395.35	1607.66
395.56	1513.45
395.76	1593.32
395.97	1699.81
396.18	1767.40
396.39	1732.58
396.60	1804.26
396.80	1765.35
397.01	1712.10
397.22	1705.96
397.43	1662.95
397.64	1560.55
397.84	1578.98
398.05	1783.78
398.26	1617.90
398.47	1603.56
398.67	1642.47
398.88	1525.74
399.09	1617.90
399.30	1550.31
399.51	1605.61
399.71	1486.83
399.92	1550.31
400.13	1611.75
400.34	1552.36
400.54	1460.20
400.75	1576.94
400.96	1566.70
401.17	1556.46
401.37	1525.74
401.58	1529.83
401.79	1581.03
402.00	1738.73
402.21	1873.89
402.41	1943.52
402.62	1886.18
402.83	1968.10
403.04	1845.22
403.24	1916.90
403.45	1703.91
403.66	1712.10
403.87	1656.81
404.07	1751.01
404.28	1775.59
404.49	1757.16
404.70	1648.61
404.90	1591.27
405.11	1517.54
405.32	1552.36
405.52	1566.70
405.73	1513.45
405.94	1435.63
406.15	1523.69
406.35	1515.50
406.56	1521.64
406.77	1562.60
406.98	1540.07
407.18	1474.54
407.39	1609.70
407.60	1542.12
407.80	1568.74
408.01	1503.21
408.22	1564.65
408.43	1511.40
408.63	1609.70
408.84	1556.46
409.05	1585.13
409.25	1513.45
409.46	1492.97
409.67	1560.55
409.88	1513.45
410.08	1591.27
410.29	1533.93
410.50	1529.83
410.70	1544.17
410.91	1466.35
411.12	1615.85
411.32	1429.48
411.53	1556.46
411.74	1558.50
411.95	1697.77
412.15	1640.42
412.36	1654.76
412.57	1656.81
412.77	1595.37
412.98	1558.50
413.19	1558.50
413.39	1566.70
413.60	1511.40
413.81	1583.08
414.01	1527.78
414.22	1630.18
414.43	1601.51
414.63	1474.54
414.84	1595.37
415.05	1535.98
415.25	1484.78
415.46	1611.75
415.67	1509.35
415.87	1574.89
416.08	1581.03
416.29	1544.17
416.49	1546.22
416.70	1578.98
416.91	1544.17
417.11	1538.02
417.32	1552.36
417.53	1546.22
417.73	1591.27
417.94	1538.02
418.15	1593.32
418.35	1550.31
418.56	1607.66
418.77	1699.81
418.97	1611.75
419.18	1564.65
419.38	1452.01
419.59	1548.26
419.80	1570.79
420.00	1517.54
420.21	1495.02
420.42	1626.09
420.62	1501.16
420.83	1482.73
421.04	1495.02
421.24	1509.35
421.45	1560.55
421.65	1523.69
421.86	1527.78
422.07	1660.90
422.27	1492.97
422.48	1593.32
422.69	1476.59
422.89	1517.54
423.10	1540.07
423.30	1517.54
423.51	1505.26
423.72	1527.78
423.92	1603.56
424.13	1437.67
424.33	1521.64
424.54	1601.51
424.75	1554.41
424.95	1628.14
425.16	1562.60
425.36	1492.97
425.57	1609.70
425.78	1505.26
425.98	1566.70
426.19	1492.97
426.39	1507.30
426.60	1548.26
426.81	1638.38
427.01	1533.93
427.22	1478.63
427.42	1474.54
427.63	1515.50
427.83	1593.32
428.04	1527.78
428.25	1589.22
428.45	1648.61
428.66	1523.69
428.86	1609.70
429.07	1435.63
429.28	1542.12
429.48	1605.61
429.69	1511.40
429.89	1544.17
430.10	1478.63
430.30	1515.50
430.51	1570.79
430.71	1495.02
430.92	1529.83
431.13	1523.69
431.33	1564.65
431.54	1535.98
431.74	1587.18
431.95	1587.18
432.15	1527.78
432.36	1470.44
432.56	1529.83
432.77	1609.70
432.98	1665.00
433.18	1513.45
433.39	1486.83
433.59	1529.83
433.80	1595.37
434.00	1568.74
434.21	1540.07
434.41	1470.44
434.62	1648.61
434.82	1464.30
435.03	1566.70
435.23	1542.12
435.44	1482.73
435.64	1513.45
435.85	1527.78
436.06	1576.94
436.26	1624.04
436.47	1538.02
436.67	1507.30
436.88	1507.30
437.08	1564.65
437.29	1533.93
437.49	1550.31
437.70	1572.84
437.90	1558.50
438.11	1699.81
438.31	1671.14
438.52	1675.24
438.72	1703.91
438.93	1705.96
439.13	1708.01
439.34	1646.57
439.54	1556.46
439.75	1669.09
439.95	1581.03
440.16	1617.90
440.36	1564.65
440.57	1605.61
440.77	1558.50
440.98	1550.31
441.18	1544.17
441.39	1552.36
441.59	1576.94
441.80	1617.90
442.00	1572.84
442.21	1665.00
442.41	1447.91
442.62	1556.46
442.82	1509.35
443.02	1605.61
443.23	1529.83
443.43	1529.83
443.64	1548.26
443.84	1468.39
444.05	1605.61
444.25	1603.56
444.46	1509.35
444.66	1546.22
444.87	1599.46
445.07	1458.15
445.28	1597.42
445.48	1593.32
445.69	1538.02
445.89	1738.73
446.09	1628.14
446.30	2107.36
446.50	3166.16
446.71	4462.52
446.91	5230.51
447.12	5773.22
447.32	5636.01
447.53	4562.87
447.73	4030.40
447.93	3602.38
448.14	3373.00
448.34	3157.97
448.55	3010.51
448.75	2930.64
448.96	2834.39
449.16	2420.70
449.36	2174.94
449.57	1964.00
449.77	1816.55
449.98	1621.99
450.18	1671.14
450.39	1624.04
450.59	1607.66
450.79	1495.02
451.00	1501.16
451.20	1552.36
451.41	1540.07
451.61	1490.92
451.81	1548.26
452.02	1550.31
452.22	1503.21
452.43	1476.59
452.63	1531.88
452.84	1531.88
453.04	1488.87
453.24	1560.55
453.45	1554.41
453.65	1581.03
453.86	1591.27
454.06	1509.35
454.26	1511.40
454.47	1501.16
454.67	1589.22
454.87	1572.84
455.08	1509.35
455.28	1593.32
455.49	1587.18
455.69	1480.68
455.89	1601.51
456.10	1576.94
456.30	1527.78
456.51	1517.54
456.71	1550.31
456.91	1601.51
457.12	1521.64
457.32	1533.93
457.52	1468.39
457.73	1578.98
457.93	1597.42
458.14	1552.36
458.34	1482.73
458.54	1492.97
458.75	1544.17
458.95	1662.95
459.15	1607.66
459.36	1540.07
459.56	1593.32
459.76	1642.47
459.97	1544.17
460.17	1550.31
460.37	1558.50
460.58	1605.61
460.78	1560.55
460.99	1470.44
461.19	1599.46
461.39	1476.59
461.60	1611.75
461.80	1576.94
462.00	1525.74
462.21	1470.44
462.41	1505.26
462.61	1495.02
462.82	1476.59
463.02	1548.26
463.22	1574.89
463.43	1677.29
463.63	1599.46
463.83	1556.46
464.04	1566.70
464.24	1519.59
464.44	1570.79
464.64	1517.54
464.85	1546.22
465.05	1619.94
465.25	1548.26
465.46	1470.44
465.66	1607.66
465.86	1589.22
466.07	1572.84
466.27	1591.27
466.47	1445.87
466.68	1423.34
466.88	1642.47
467.08	1544.17
467.29	1609.70
467.49	1656.81
467.69	1568.74
467.89	1544.17
468.10	1544.17
468.30	1529.83
468.50	1546.22
468.71	1578.98
468.91	1425.39
469.11	1644.52
469.31	1583.08
469.52	1423.34
469.72	1605.61
469.92	1626.09
470.13	1550.31
470.33	1570.79
470.53	1744.87
470.73	2136.03
470.94	2373.60
471.14	2443.23
471.34	2660.31
471.54	2398.17
471.75	2144.22
471.95	2011.11
472.15	2074.59
472.36	1982.43
472.56	1918.95
472.76	1871.84
472.96	1927.14
473.17	1755.11
473.37	1826.79
473.57	1662.95
473.77	1650.66
473.98	1572.84
474.18	1540.07
474.38	1650.66
474.58	1593.32
474.79	1511.40
474.99	1484.78
475.19	1673.19
475.39	1429.48
475.60	1601.51
475.80	1601.51
476.00	1585.13
476.20	1597.42
476.41	1550.31
476.61	1642.47
476.81	1527.78
477.01	1486.83
477.21	1658.85
477.42	1619.94
477.62	1570.79
477.82	1488.87
478.02	1540.07
478.23	1501.16
478.43	1435.63
478.63	1572.84
478.83	1527.78
479.03	1509.35
479.24	1552.36
479.44	1578.98
479.64	1505.26
479.84	1452.01
480.04	1482.73
480.25	1572.84
480.45	1576.94
480.65	1587.18
480.85	1634.28
481.06	1542.12
481.26	1488.87
481.46	1632.23
481.66	1581.03
481.86	1544.17
482.06	1656.81
482.27	1574.89
482.47	1621.99
482.67	1570.79
482.87	1517.54
483.07	1667.05
483.28	1476.59
483.48	1519.59
483.68	1558.50
483.88	1501.16
484.08	1484.78
484.29	1468.39
484.49	1540.07
484.69	1552.36
484.89	1617.90
485.09	1652.71
485.29	1564.65
485.50	1570.79
485.70	1564.65
485.90	1626.09
486.10	1517.54
486.30	1591.27
486.50	1566.70
486.71	1607.66
486.91	1593.32
487.11	1591.27
487.31	1382.38
487.51	1544.17
487.71	1517.54
487.91	1484.78
488.12	1433.58
488.32	1359.85
488.52	1523.69
488.72	1478.63
488.92	1587.18
489.12	1570.79
489.32	1652.71
489.53	1630.18
489.73	1497.07
489.93	1621.99
490.13	1517.54
490.33	1464.30
490.53	1525.74
490.73	1597.42
490.94	1538.02
491.14	1568.74
491.34	1677.29
491.54	2179.04
491.74	2766.81
491.94	3039.19
492.14	3293.13
492.34	3284.94
492.54	2779.09
492.75	2531.29
492.95	2398.17
493.15	2125.79
493.35	2222.05
493.55	2066.40
493.75	2060.26
493.95	2002.91
494.15	1925.09
494.35	1769.44
494.56	1722.34
494.76	1683.43
494.96	1613.80
495.16	1697.77
495.36	1533.93
495.56	1609.70
495.76	1566.70
495.96	1568.74
496.16	1546.22
496.36	1603.56
496.56	1501.16
496.77	1568.74
496.97	1472.49
497.17	1607.66
497.37	1470.44
497.57	1556.46
497.77	1599.46
497.97	1443.82
498.17	1540.07
498.37	1511.40
498.57	1562.60
498.77	1556.46
498.97	1570.79
499.17	1658.85
499.38	1548.26
499.58	1572.84
499.78	1597.42
499.98	1656.81
500.18	1515.50
500.38	1574.89
500.58	1796.07
500.78	2656.22
500.98	5048.24
501.18	6766.49
501.38	8122.24
501.58	8677.24
501.78	7831.43
501.98	6168.48
502.18	5408.69
502.38	4640.70
502.58	4292.54
502.78	3829.70
502.98	3692.49
503.18	3674.06
503.38	3305.42
503.59	2967.51
503.79	2775.00
503.99	2496.47
504.19	2346.97
504.39	2174.94
504.59	2127.84
504.79	2205.66
504.99	1843.17
505.19	1832.93
505.39	1761.25
505.59	1753.06
505.79	1755.11
505.99	1738.73
506.19	1621.99
506.39	1683.43
506.59	1558.50
506.79	1636.33
506.99	1662.95
507.19	1595.37
507.39	1605.61
507.59	1462.25
507.79	1511.40
507.99	1628.14
508.19	1538.02
508.39	1578.98
508.59	1538.02
508.79	1605.61
508.99	1634.28
509.19	1480.68
509.39	1630.18
509.59	1484.78
509.79	1552.36
509.99	1615.85
510.19	1574.89
510.39	1597.42
510.59	1587.18
510.79	1505.26
510.99	1499.11
511.19	1511.40
511.39	1591.27
511.59	1640.42
511.79	1634.28
511.99	1570.79
512.19	1605.61
512.38	1519.59
512.58	1499.11
512.78	1589.22
512.98	1609.70
513.18	1634.28
513.38	1482.73
513.58	1621.99
513.78	1560.55
513.98	1486.83
514.18	1501.16
514.38	1564.65
514.58	1560.55
514.78	1552.36
514.98	1468.39
515.18	1519.59
515.38	1460.20
515.58	1542.12
515.78	1462.25
515.98	1552.36
516.18	1593.32
516.38	1517.54
516.57	1505.26
516.77	1454.06
516.97	1595.37
517.17	1568.74
517.37	1638.38
517.57	1609.70
517.77	1615.85
517.97	1523.69
518.17	1595.37
518.37	1503.21
518.57	1499.11
518.77	1531.88
518.97	1591.27
519.16	1542.12
519.36	1619.94
519.56	1576.94
519.76	1599.46
519.96	1544.17
520.16	1656.81
520.36	1515.50
520.56	1556.46
520.76	1533.93
520.96	1509.35
521.16	1583.08
521.35	1595.37
521.55	1624.04
521.75	1587.18
521.95	1589.22
522.15	1519.59
522.35	1462.25
522.55	1535.98
522.75	1615.85
522.95	1523.69
523.14	1525.74
523.34	1550.31
523.54	1495.02
523.74	1648.61
523.94	1558.50
524.14	1548.26
524.34	1503.21
524.54	1574.89
524.73	1593.32
524.93	1581.03
525.13	1599.46
525.33	1447.91
525.53	1624.04
525.73	1548.26
525.93	1535.98
526.13	1515.50
526.32	1501.16
526.52	1581.03
526.72	1576.94
526.92	1519.59
527.12	1527.78
527.32	1525.74
527.52	1599.46
527.71	1570.79
527.91	1484.78
528.11	1521.64
528.31	1521.64
528.51	1419.24
528.71	1533.93
528.90	1540.07
529.10	1636.33
529.30	1566.70
529.50	1449.96
529.70	1558.50
529.90	1591.27
530.09	1556.46
530.29	1505.26
530.49	1460.20
530.69	1628.14
530.89	1531.88
531.09	1597.42
531.28	1540.07
531.48	1601.51
531.68	1544.17
531.88	1507.30
532.08	1529.83
532.28	1624.04
532.47	1599.46
532.67	1619.94
532.87	1558.50
533.07	1499.11
533.27	1621.99
533.46	1611.75
533.66	1554.41
533.86	1495.02
534.06	1542.12
534.26	1554.41
534.45	1495.02
534.65	1667.05
534.85	1576.94
535.05	1574.89
535.25	1593.32
535.44	1515.50
535.64	1605.61
535.84	1601.51
536.04	1513.45
536.24	1550.31
536.43	1503.21
536.63	1607.66
536.83	1585.13
537.03	1515.50
537.22	1495.02
537.42	1482.73
537.62	1560.55
537.82	1488.87
538.02	1599.46
538.21	1687.53
538.41	1671.14
538.61	1552.36
538.81	1519.59
539.00	1583.08
539.20	1472.49
539.40	1550.31
539.60	1599.46
539.79	1572.84
539.99	1548.26
540.19	1540.07
540.39	1511.40
540.58	1511.40
540.78	1603.56
540.98	1548.26
541.18	1621.99
541.37	1535.98
541.57	1564.65
541.77	1544.17
541.97	1501.16
542.16	1509.35
542.36	1540.07
542.56	1525.74
542.76	1593.32
542.95	1609.70
543.15	1591.27
543.35	1576.94
543.54	1523.69
543.74	1595.37
543.94	1535.98
544.14	1533.93
544.33	1634.28
544.53	1488.87
544.73	1458.15
544.93	1576.94
545.12	1482.73
545.32	1570.79
545.52	1482.73
545.71	1505.26
545.91	1619.94
546.11	1581.03
546.30	1478.63
546.50	1517.54
546.70	1511.40
546.90	1552.36
547.09	1439.72
547.29	1535.98
547.49	1521.64
547.68	1523.69
547.88	1486.83
548.08	1646.57
548.27	1918.95
548.47	1558.50
548.67	1523.69
548.87	1527.78
549.06	1464.30
549.26	1509.35
549.46	1617.90
549.65	1476.59
549.85	1521.64
550.05	1562.60
550.24	1406.95
550.44	1564.65
550.64	1535.98
550.83	1492.97
551.03	1578.98
551.23	1574.89
551.42	1583.08
551.62	1492.97
551.82	1552.36
552.01	1409.00
552.21	1562.60
552.41	1603.56
552.60	1593.32
552.80	1513.45
553.00	1525.74
553.19	1548.26
553.39	1599.46
553.59	1478.63
553.78	1644.52
553.98	1558.50
554.17	1454.06
554.37	1509.35
554.57	1542.12
554.76	1523.69
554.96	1505.26
555.16	1495.02
555.35	1566.70
555.55	1548.26
555.75	1499.11
555.94	1597.42
556.14	1507.30
556.33	1523.69
556.53	1511.40
556.73	1581.03
556.92	1535.98
557.12	1617.90
557.32	1642.47
557.51	1609.70
557.71	1538.02
557.90	1591.27
558.10	1574.89
558.30	1611.75
558.49	1521.64
558.69	1490.92
558.88	1538.02
559.08	1566.70
559.28	1505.26
559.47	1507.30
559.67	1597.42
559.86	1578.98
560.06	1480.68
560.26	1505.26
560.45	1550.31
560.65	1587.18
560.84	1607.66
561.04	1497.07
561.24	1619.94
561.43	1490.92
561.63	1546.22
561.82	1568.74
562.02	1490.92
562.22	1552.36
562.41	1474.54
562.61	1511.40
562.80	1460.20
563.00	1742.82
563.19	1484.78
563.39	1535.98
563.59	1552.36
563.78	1478.63
563.98	1431.53
564.17	1523.69
564.37	1443.82
564.56	1581.03
564.76	1482.73
564.96	1677.29
565.15	1615.85
565.35	1677.29
565.54	1492.97
565.74	1628.14
565.93	1648.61
566.13	1538.02
566.32	1576.94
566.52	1464.30
566.71	1560.55
566.91	1550.31
567.11	1578.98
567.30	1482.73
567.50	1480.68
567.69	1585.13
567.89	1529.83
568.08	1535.98
568.28	1597.42
568.47	1517.54
568.67	1583.08
568.86	1591.27
569.06	1593.32
569.25	1609.70
569.45	1452.01
569.64	1572.84
569.84	1583.08
570.04	1624.04
570.23	1527.78
570.43	1589.22
570.62	1501.16
570.82	1619.94
571.01	1495.02
571.21	1515.50
571.40	1535.98
571.60	1589.22
571.79	1611.75
571.99	1523.69
572.18	1454.06
572.38	1558.50
572.57	1511.40
572.77	1556.46
572.96	1621.99
573.16	1554.41
573.35	1521.64
573.55	1607.66
573.74	1615.85
573.94	1488.87
574.13	1581.03
574.33	1544.17
574.52	1583.08
574.71	1521.64
574.91	1591.27
575.10	1517.54
575.30	1527.78
575.49	1484.78
575.69	1499.11
575.88	1693.67
576.08	1607.66
576.27	1667.05
576.47	1656.81
576.66	1626.09
576.86	1626.09
577.05	1628.14
577.25	1578.98
577.44	1712.10
577.64	1501.16
577.83	1595.37
578.02	1566.70
578.22	1626.09
578.41	1675.24
578.61	1521.64
578.80	1544.17
579.00	1630.18
579.19	1607.66
579.39	1603.56
579.58	1619.94
579.77	1566.70
579.97	1621.99
580.16	1638.38
580.36	1527.78
580.55	1578.98
580.75	1552.36
580.94	1611.75
581.13	1699.81
581.33	1626.09
581.52	1640.42
581.72	1791.97
581.91	1708.01
582.11	1546.22
582.30	1667.05
582.49	1574.89
582.69	1621.99
582.88	1621.99
583.08	1538.02
583.27	1640.42
583.47	1591.27
583.66	1581.03
583.85	1515.50
584.05	1583.08
584.24	1634.28
584.44	1644.52
584.63	1673.19
584.82	1742.82
585.02	1677.29
585.21	1660.90
585.41	1820.64
585.60	1767.40
585.79	1804.26
585.99	1845.22
586.18	1746.92
586.37	1943.52
586.57	3121.10
586.76	9473.90
586.96	27594.33
587.15	43728.23
587.34	54191.30
587.54	61064.28
587.73	59241.59
587.93	43373.93
588.12	32224.79
588.31	25986.68
588.51	22177.45
588.70	19771.09
588.89	18220.78
589.09	16721.66
589.28	15361.81
589.47	13092.66
589.67	11073.37
589.86	8867.70
590.06	6637.47
590.25	5076.91
590.44	3762.12
590.64	2951.12
590.83	2346.97
591.02	2004.96
591.22	1902.56
591.41	1744.87
591.60	1714.15
591.80	1785.83
591.99	1587.18
592.18	1665.00
592.38	1564.65
592.57	1624.04
592.76	1607.66
592.96	1583.08
593.15	1630.18
593.34	1648.61
593.54	1601.51
593.73	1644.52
593.92	1615.85
594.12	1638.38
594.31	1673.19
594.50	1636.33
594.70	1562.60
594.89	1644.52
595.08	1527.78
595.28	1611.75
595.47	1738.73
595.66	1607.66
595.86	1497.07
596.05	1626.09
596.24	1621.99
596.43	1562.60
596.63	1708.01
596.82	1658.85
597.01	1562.60
597.21	1644.52
597.40	1626.09
597.59	1560.55
597.79	1570.79
597.98	1523.69
598.17	1548.26
598.36	1599.46
598.56	1587.18
598.75	1576.94
598.94	1554.41
599.14	1540.07
599.33	1605.61
599.52	1570.79
599.71	1593.32
599.91	1601.51
600.10	1617.90
600.29	1531.88
600.48	1607.66
600.68	1611.75
600.87	1521.64
601.06	1617.90
601.26	1564.65
601.45	1542.12
601.64	1572.84
601.83	1636.33
602.03	1552.36
602.22	1474.54
602.41	1628.14
602.60	1648.61
602.80	1572.84
602.99	1626.09
603.18	1529.83
603.37	1550.31
603.57	1581.03
603.76	1638.38
603.95	1570.79
604.14	1589.22
604.34	1515.50
604.53	1574.89
604.72	1542.12
604.91	1603.56
605.10	1570.79
605.30	1509.35
605.49	1705.96
605.68	1611.75
605.87	1609.70
606.07	1568.74
606.26	1542.12
606.45	1550.31
606.64	1507.30
606.84	1511.40
607.03	1517.54
607.22	1540.07
607.41	1529.83
607.60	1607.66
607.80	1609.70
607.99	1572.84
608.18	1529.83
608.37	1554.41
608.56	1531.88
608.76	1652.71
608.95	1662.95
609.14	1587.18
609.33	1619.94
609.52	1689.57
609.72	1560.55
609.91	1685.48
610.10	1605.61
610.29	1624.04
610.48	1640.42
610.68	1578.98
610.87	1538.02
611.06	1628.14
611.25	1585.13
611.44	1640.42
611.63	1544.17
611.83	1642.47
612.02	1585.13
612.21	1624.04
612.40	1472.49
612.59	1505.26
612.79	1486.83
612.98	1552.36
613.17	1587.18
613.36	1470.44
613.55	1660.90
613.74	1646.57
613.93	1697.77
614.13	1757.16
614.32	1781.73
614.51	1812.45
614.70	1703.91
614.89	1591.27
615.08	1652.71
615.28	1871.84
615.47	1533.93
615.66	1609.70
615.85	1642.47
616.04	1705.96
616.23	1630.18
616.42	1619.94
616.62	1644.52
616.81	1611.75
617.00	1554.41
617.19	1624.04
617.38	1566.70
617.57	1495.02
617.76	1650.66
617.95	1632.23
618.15	1587.18
618.34	1697.77
618.53	1511.40
618.72	1611.75
618.91	1642.47
619.10	1636.33
619.29	1583.08
619.48	1544.17
619.68	1546.22
619.87	1478.63
620.06	1468.39
620.25	1480.68
620.44	1591.27
620.63	1515.50
620.82	1591.27
621.01	1591.27
621.20	1613.80
621.39	1525.74
621.59	1591.27
621.78	1538.02
621.97	1556.46
622.16	1593.32
622.35	1529.83
622.54	1548.26
622.73	1595.37
622.92	1492.97
623.11	1511.40
623.30	1505.26
623.49	1562.60
623.68	1542.12
623.88	1619.94
624.07	1603.56
624.26	1529.83
624.45	1589.22
624.64	1585.13
624.83	1519.59
625.02	1538.02
625.21	1564.65
625.40	1527.78
625.59	1646.57
625.78	1515.50
625.97	1578.98
626.16	1681.38
626.35	1703.91
626.54	1605.61
626.74	1691.62
626.93	1568.74
627.12	1585.13
627.31	1626.09
627.50	1525.74
627.69	1617.90
627.88	1574.89
628.07	1560.55
628.26	1531.88
628.45	1515.50
628.64	1478.63
628.83	1476.59
629.02	1550.31
629.21	1552.36
629.40	1648.61
629.59	1568.74
629.78	1527.78
629.97	1568.74
630.16	1570.79
630.35	1638.38
630.54	1591.27
630.73	1533.93
630.92	1578.98
631.11	1525.74
631.30	1615.85
631.49	1517.54
631.68	1540.07
631.87	1513.45
632.06	1468.39
632.25	1621.99
632.44	1615.85
632.63	1595.37
632.82	1546.22
633.01	1572.84
633.20	1718.25
633.39	1585.13
633.58	1662.95
633.77	1656.81
633.96	1566.70
634.15	1513.45
634.34	1638.38
634.53	1701.86
634.72	1468.39
634.91	1533.93
635.10	1572.84
635.29	1566.70
635.48	1611.75
635.67	1581.03
635.86	1497.07
636.05	1581.03
636.24	1523.69
636.43	1544.17
636.62	1554.41
636.81	1460.20
637.00	1519.59
637.19	1591.27
637.38	1511.40
637.57	1495.02
637.76	1589.22
637.95	1605.61
638.14	1593.32
638.33	1634.28
638.52	1599.46
638.71	1570.79
638.89	1595.37
639.08	1691.62
639.27	1683.43
639.46	1683.43
639.65	1912.80
639.84	1949.67
640.03	2119.65
640.22	2187.23
640.41	2222.05
640.60	1888.23
640.79	1810.40
640.98	1730.53
641.17	1742.82
641.36	1757.16
641.55	1718.25
641.74	1617.90
641.92	1646.57
642.11	1560.55
642.30	1605.61
642.49	1595.37
642.68	1517.54
642.87	1486.83
643.06	1630.18
643.25	1564.65
643.44	1552.36
643.63	1507.30
643.82	1544.17
644.00	1427.43
644.19	1552.36
644.38	1533.93
644.57	1562.60
644.76	1535.98
644.95	1507.30
645.14	1484.78
645.33	1521.64
645.52	1495.02
645.71	1495.02
645.89	1542.12
646.08	1615.85
646.27	1511.40
646.46	1648.61
646.65	1476.59
646.84	1574.89
647.03	1560.55
647.22	1576.94
647.40	1609.70
647.59	1501.16
647.78	1398.76
647.97	1533.93
648.16	1435.63
648.35	1599.46
648.54	1617.90
648.73	1486.83
648.91	1566.70
649.10	1550.31
649.29	1519.59
649.48	1527.78
649.67	1568.74
649.86	1509.35
650.05	1525.74
650.23	1662.95
650.42	1648.61
650.61	1722.34
650.80	1724.39
650.99	1751.01
651.18	1724.39
651.36	1583.08
651.55	1642.47
651.74	1587.18
651.93	1564.65
652.12	1501.16
652.31	1576.94
652.49	1505.26
652.68	1562.60
652.87	1662.95
653.06	1576.94
653.25	1562.60
653.44	1499.11
653.62	1603.56
653.81	1497.07
654.00	1554.41
654.19	1640.42
654.38	1691.62
654.56	1560.55
654.75	1482.73
654.94	1628.14
655.13	1531.88
655.32	1515.50
655.51	1583.08
655.69	1562.60
655.88	1525.74
656.07	1466.35
656.26	1562.60
656.45	1454.06
656.63	1523.69
656.82	1538.02
657.01	1511.40
657.20	1564.65
657.38	1544.17
657.57	1538.02
657.76	1511.40
657.95	1578.98
658.14	1517.54
658.32	1513.45
658.51	1501.16
658.70	1466.35
658.89	1550.31
659.08	1501.16
659.26	1695.72
659.45	1611.75
659.64	1587.18
659.83	1587.18
660.01	1712.10
660.20	1562.60
660.39	1640.42
660.58	1495.02
660.76	1572.84
660.95	1507.30
661.14	1609.70
661.33	1454.06
661.51	1529.83
661.70	1538.02
661.89	1621.99
662.08	1583.08
662.26	1517.54
662.45	1497.07
662.64	1656.81
662.83	1638.38
663.01	1503.21
663.20	1517.54
663.39	1521.64
663.58	1583.08
663.76	1482.73
663.95	1533.93
664.14	1480.68
664.32	1468.39
664.51	1449.96
664.70	1468.39
664.89	1572.84
665.07	1560.55
665.26	1638.38
665.45	1456.11
665.64	1550.31
665.82	1593.32
666.01	1554.41
666.20	1519.59
666.38	1662.95
666.57	1617.90
666.76	1853.41
666.95	3100.62
667.13	7608.20
667.32	15734.54
667.51	20002.51
667.69	23373.47
667.88	25187.97
668.07	22210.22
668.25	15281.94
668.44	12429.12
668.63	10047.33
668.81	8597.37
669.00	7595.92
669.19	7118.74
669.38	6301.60
669.56	5509.04
669.75	4708.28
669.94	4143.04
670.12	3389.39
670.31	2768.85
670.50	2400.22
670.68	2174.94
670.87	1888.23
671.06	1730.53
671.24	1724.39
671.43	1753.06
671.62	1650.66
671.80	1632.23
671.99	1693.67
672.18	1632.23
672.36	1660.90
672.55	1638.38
672.74	1570.79
672.92	1533.93
673.11	1603.56
673.29	1511.40
673.48	1554.41
673.67	1597.42
673.85	1642.47
674.04	1554.41
674.23	1535.98
674.41	1644.52
674.60	1511.40
674.79	1447.91
674.97	1591.27
675.16	1519.59
675.34	1636.33
675.53	1501.16
675.72	1542.12
675.90	1675.24
676.09	1599.46
676.28	1533.93
676.46	1517.54
676.65	1542.12
676.83	1505.26
677.02	1662.95
677.21	1509.35
677.39	1484.78
677.58	1427.43
677.77	1548.26
677.95	1538.02
678.14	1423.34
678.32	1501.16
678.51	1404.91
678.70	1621.99
678.88	1462.25
679.07	1556.46
679.25	1490.92
679.44	1484.78
679.63	1503.21
679.81	1570.79
680.00	1587.18
680.18	1554.41
680.37	1603.56
680.55	1529.83
680.74	1503.21
680.93	1546.22
681.11	1521.64
681.30	1562.60
681.48	1564.65
681.67	1525.74
681.85	1531.88
682.04	1484.78
682.23	1611.75
682.41	1540.07
682.60	1513.45
682.78	1492.97
682.97	1609.70
683.15	1529.83
683.34	1562.60
683.53	1626.09
683.71	1488.87
683.90	1634.28
684.08	1552.36
684.27	1484.78
684.45	1611.75
684.64	1542.12
684.82	1480.68
685.01	1548.26
685.19	1517.54
685.38	1615.85
685.57	1570.79
685.75	1583.08
685.94	1550.31
686.12	1470.44
686.31	1495.02
686.49	1652.71
686.68	1433.58
686.86	1601.51
687.05	1562.60
687.23	1578.98
687.42	1519.59
687.60	1507.30
687.79	1490.92
687.97	1597.42
688.16	1568.74
688.34	1525.74
688.53	1484.78
688.71	1552.36
688.90	1558.50
689.08	1476.59
689.27	1388.52
689.45	1554.41
689.64	1566.70
689.82	1517.54
690.01	1533.93
690.19	1527.78
690.38	1497.07
690.56	1558.50
690.75	1566.70
690.93	1503.21
691.12	1509.35
691.30	1488.87
691.49	1540.07
691.67	1511.40
691.86	1593.32
692.04	1517.54
692.23	1472.49
692.41	1597.42
692.60	1710.05
692.78	1626.09
692.97	1673.19
693.15	1679.33
693.34	1624.04
693.52	1589.22
693.71	1554.41
693.89	1527.78
694.08	1419.24
694.26	1619.94
694.44	1583.08
694.63	1552.36
694.81	1525.74
695.00	1568.74
695.18	1558.50
695.37	1656.81
695.55	1558.50
695.74	1574.89
695.92	1533.93
696.10	1632.23
696.29	1490.92
696.47	1511.40
696.66	1548.26
696.84	1523.69
697.03	1556.46
697.21	1642.47
697.40	2011.11
697.58	1607.66
697.76	1527.78
697.95	1509.35
698.13	1546.22
698.32	1533.93
698.50	1578.98
698.68	1687.53
698.87	1560.55
699.05	1583.08
699.24	1564.65
699.42	1468.39
699.61	1570.79
699.79	1576.94
699.97	1607.66
700.16	1519.59
700.34	1445.87
700.53	1533.93
700.71	1632.23
700.89	1654.76
701.08	1486.83
701.26	1515.50
701.45	1910.75
701.63	1499.11
701.81	1533.93
702.00	1521.64
702.18	1538.02
702.37	1509.35
702.55	1679.33
702.73	1728.49
702.92	1716.20
703.10	1744.87
703.28	1757.16
703.47	1757.16
703.65	1732.58
703.84	1675.24
704.02	1644.52
704.20	1679.33
704.39	1644.52
704.57	1626.09
704.75	1716.20
704.94	1667.05
705.12	1599.46
705.30	1648.61
705.49	1820.64
705.67	2967.51
705.86	7610.25
706.04	14532.39
706.22	18605.80
706.41	21661.37
706.59	22970.02
706.77	20557.51
706.96	14638.88
707.14	11687.76
707.32	9551.73
707.51	8542.08
707.69	7491.47
707.87	6637.47
708.06	5701.54
708.24	4753.34
708.42	3686.34
708.61	2912.21
708.79	2193.37
708.97	2019.30
709.16	1845.22
709.34	1730.53
709.52	1644.52
709.71	1693.67
709.89	1556.46
710.07	1599.46
710.26	1650.66
710.44	1603.56
710.62	1560.55
710.80	1511.40
710.99	1566.70
711.17	1597.42
711.35	1533.93
711.54	1505.26
711.72	1642.47
711.90	1562.60
712.09	1568.74
712.27	1546.22
712.45	1581.03
712.63	1509.35
712.82	1581.03
713.00	1583.08
713.18	1550.31
713.37	1554.41
713.55	1644.52
713.73	1552.36
713.91	1535.98
714.10	1462.25
714.28	1507.30
714.46	1585.13
714.65	1515.50
714.83	1497.07
715.01	1550.31
715.19	1562.60
715.38	1529.83
715.56	1609.70
715.74	1497.07
715.92	1460.20
716.11	1576.94
716.29	1554.41
716.47	1507.30
716.65	1566.70
716.84	1464.30
717.02	1607.66
717.20	1529.83
717.38	1478.63
717.57	1646.57
717.75	1519.59
717.93	1513.45
718.11	1529.83
718.30	1527.78
718.48	1511.40
718.66	1497.07
718.84	1597.42
719.03	1560.55
719.21	1476.59
719.39	1591.27
719.57	1660.90
719.75	1609.70
719.94	1535.98
720.12	1503.21
720.30	1560.55
720.48	1570.79
720.67	1544.17
720.85	1488.87
721.03	1628.14
721.21	1415.15
721.39	1593.32
721.58	1468.39
721.76	1525.74
721.94	1603.56
722.12	1478.63
722.30	1552.36
722.49	1529.83
722.67	1523.69
722.85	1527.78
723.03	1482.73
723.21	1503.21
723.40	1562.60
723.58	1632.23
723.76	1515.50
723.94	1662.95
724.12	1593.32
724.30	1626.09
724.49	1724.39
724.67	1638.38
724.85	1644.52
725.03	1554.41
725.21	1591.27
725.40	1619.94
725.58	1533.93
725.76	1703.91
725.94	1554.41
726.12	1540.07
726.30	1585.13
726.49	1517.54
726.67	1515.50
726.85	1572.84
727.03	1611.75
727.21	1681.38
727.39	2138.08
727.57	3315.66
727.76	4261.82
727.94	4945.84
728.12	5058.48
728.30	5099.44
728.48	4331.45
728.66	3508.17
728.84	3237.84
729.03	2975.70
729.21	2697.17
729.39	2359.26
729.57	2039.78
729.75	1814.50
729.93	1744.87
730.11	1644.52
730.30	1605.61
730.48	1640.42
730.66	1566.70
730.84	1572.84
731.02	1527.78
731.20	1523.69
731.38	1583.08
731.56	1464.30
731.74	1527.78
731.93	1525.74
732.11	1527.78
732.29	1492.97
732.47	1597.42
732.65	1517.54
732.83	1574.89
733.01	1525.74
733.19	1511.40
733.37	1597.42
733.56	1593.32
733.74	1470.44
733.92	1538.02
734.10	1492.97
734.28	1480.68
734.46	1519.59
734.64	1531.88
734.82	1484.78
735.00	1595.37
735.18	1609.70
735.36	1531.88
735.54	1554.41
735.73	1542.12
735.91	1566.70
736.09	1640.42
736.27	1503.21
736.45	1488.87
736.63	1460.20
736.81	1509.35
736.99	1650.66
737.17	1662.95
737.35	1499.11
737.53	1595.37
737.71	1511.40
737.89	1607.66
738.07	1570.79
738.25	1462.25
738.43	1511.40
738.61	1585.13
738.80	1495.02
738.98	1445.87
739.16	1546.22
739.34	1517.54
739.52	1482.73
739.70	1517.54
739.88	1646.57
740.06	1603.56
740.24	1355.76
740.42	1546.22
740.60	1454.06
740.78	1445.87
740.96	1470.44
741.14	1513.45
741.32	1519.59
741.50	1464.30
741.68	1669.09
741.86	1578.98
742.04	1538.02
742.22	1460.20
742.40	1542.12
742.58	1585.13
742.76	1525.74
742.94	1556.46
743.12	1468.39
743.30	1480.68
743.48	1564.65
743.66	1564.65
743.84	1576.94
744.02	1521.64
744.20	1529.83
744.38	1576.94
744.56	1509.35
744.74	1626.09
744.92	1578.98
745.10	1548.26
745.28	1595.37
745.46	1574.89
745.64	1495.02
745.82	1591.27
746.00	1607.66
746.18	1601.51
746.36	1495.02
746.54	1556.46
746.72	1550.31
746.90	1488.87
747.08	1621.99
747.26	1460.20
747.44	1503.21
747.62	1501.16
747.80	1562.60
747.98	1533.93
748.15	1511.40
748.33	1587.18
748.51	1558.50
748.69	1476.59
748.87	1523.69
749.05	1585.13
749.23	1574.89
749.41	1525.74
749.59	1513.45
749.77	1593.32
749.95	1576.94
750.13	1595.37
750.31	1548.26
750.49	1521.64
750.67	1621.99
750.85	1656.81
751.03	1619.94
751.20	1621.99
751.38	1585.13
751.56	1519.59
751.74	1587.18
751.92	1521.64
752.10	1439.72
752.28	1585.13
752.46	1531.88
752.64	1593.32
752.82	1548.26
753.00	1607.66
753.18	1521.64
753.35	1531.88
753.53	1546.22
753.71	1533.93
753.89	1540.07
754.07	1607.66
754.25	1572.84
754.43	1566.70
754.61	1484.78
754.79	1484.78
754.97	1476.59
755.14	1591.27
755.32	1419.24
755.50	1476.59
755.68	1495.02
755.86	1495.02
756.04	1624.04
756.22	1513.45
756.40	1583.08
756.57	1646.57
756.75	1507.30
756.93	1599.46
757.11	1644.52
757.29	1548.26
757.47	1564.65
757.65	1482.73
757.82	1470.44
758.00	1492.97
758.18	1513.45
758.36	1495.02
758.54	1570.79
758.72	1468.39
758.90	1574.89
759.07	1605.61
759.25	1486.83
759.43	1550.31
759.61	1468.39
759.79	1912.80
759.97	1595.37
760.15	1507.30
760.32	1595.37
760.50	1531.88
760.68	1636.33
760.86	1441.77
761.04	1624.04
761.22	1480.68
761.39	1515.50
761.57	1578.98
761.75	1556.46
761.93	1566.70
762.11	1558.50
762.28	1540.07
762.46	1462.25
762.64	1576.94
762.82	1421.29
763.00	1552.36
763.18	1521.64
763.35	1472.49
763.53	1589.22
763.71	1505.26
763.89	1509.35
764.07	1540.07
764.24	1523.69
764.42	1578.98
764.60	1482.73
764.78	1589.22
764.96	1603.56
765.13	1531.88
765.31	1581.03
765.49	1583.08
765.67	1560.55
765.84	1542.12
766.02	1513.45
766.20	1517.54
766.38	1632.23
766.56	1578.98
766.73	1593.32
766.91	1464.30
767.09	1525.74
767.27	1568.74
767.44	1529.83
767.62	1589.22
767.80	1515.50
767.98	1409.00
768.15	1474.54
768.33	1509.35
768.51	1533.93
768.69	1525.74
768.87	1560.55
769.04	1538.02
769.22	1675.24
769.40	1615.85
769.58	1617.90
769.75	1478.63
769.93	1538.02
770.11	1603.56
770.28	1531.88
770.46	1595.37
770.64	1509.35
770.82	1519.59
770.99	1476.59
771.17	1601.51
771.35	1507.30
771.53	1523.69
771.70	1562.60
771.88	1458.15
772.06	1519.59
772.23	1531.88
772.41	1558.50
772.59	1482.73
772.77	1552.36
772.94	1574.89
773.12	1550.31
773.30	1548.26
773.47	1601.51
773.65	1495.02
773.83	1595.37
774.01	1507.30
774.18	1464.30
774.36	1548.26
774.54	1554.41
774.71	1558.50
774.89	1527.78
775.07	1472.49
775.24	1544.17
775.42	1554.41
775.60	1574.89
775.78	1484.78
775.95	1509.35
776.13	1435.63
776.31	1583.08
776.48	1503.21
776.66	1533.93
776.84	1527.78
777.01	1501.16
777.19	1497.07
777.37	1460.20
777.54	1599.46
777.72	1654.76
777.90	1550.31
778.07	1501.16
778.25	1665.00
778.43	1583.08
778.60	1392.62
778.78	1568.74
778.96	1576.94
779.13	1525.74
779.31	1538.02
779.49	1523.69
779.66	1566.70
779.84	1533.93
780.01	1535.98
780.19	1480.68
780.37	1550.31
780.54	1574.89
780.72	1509.35
780.90	1542.12
781.07	1452.01
781.25	1503.21
781.43	1626.09
781.60	1472.49
781.78	1578.98
781.95	1558.50
782.13	1513.45
782.31	1533.93
782.48	1386.47
782.66	1525.74
782.83	1607.66
783.01	1544.17
783.19	1509.35
783.36	1492.97
783.54	1503.21
783.72	1570.79
783.89	1566.70
784.07	1527.78
784.24	1519.59
784.42	1607.66
784.60	1517.54
784.77	1589.22
784.95	1392.62
785.12	1574.89
785.30	1595.37
785.47	1574.89
785.65	1497.07
785.83	1478.63
786.00	1517.54
786.18	1525.74
786.35	1423.34
786.53	1505.26
786.71	1583.08
786.88	1601.51
787.06	1558.50
787.23	1613.80
787.41	1515.50
787.58	1480.68
787.76	1499.11
787.94	1533.93
788.11	1609.70
788.29	1507.30
788.46	1486.83
788.64	1478.63
788.81	1527.78
788.99	1509.35
789.16	1486.83
789.34	1456.11
789.52	1519.59
789.69	1523.69
789.87	1441.77
790.04	1562.60
790.22	1570.79
790.39	1689.57
790.57	1501.16
790.74	1499.11
790.92	1564.65
791.09	1435.63
791.27	1601.51
791.44	1642.47
791.62	1515.50
791.79	1566.70
791.97	1482.73
792.15	1669.09
792.32	1482.73
792.50	1621.99
792.67	1587.18
792.85	1607.66
793.02	1482.73
793.20	1578.98
793.37	1472.49
793.55	1472.49
793.72	1449.96
793.90	1558.50
794.07	1525.74
794.25	1548.26
794.42	1585.13
794.60	1456.11
794.77	1585.13
794.95	1576.94
795.12	1572.84
795.30	1513.45
795.47	1427.43
795.65	1703.91
795.82	1562.60
796.00	1505.26
796.17	1603.56
796.34	1517.54
796.52	1429.48
796.69	1640.42
796.87	1562.60
797.04	1495.02
797.22	1566.70
797.39	1538.02
797.57	1617.90
797.74	1554.41
797.92	1554.41
798.09	1525.74
798.27	1544.17
798.44	1511.40
798.62	1492.97
798.79	1593.32
798.96	1583.08
799.14	1560.55
799.31	1581.03
799.49	1419.24
799.66	1501.16
799.84	1525.74
800.01	1503.21
800.19	1548.26
800.36	1447.91
800.53	1535.98
800.71	1613.80
800.88	1558.50
801.06	1525.74
801.23	1503.21
801.41	1505.26
801.58	1441.77
801.75	1417.19
801.93	1609.70
802.10	1513.45
802.28	1568.74
802.45	1464.30
802.63	1599.46
802.80	1560.55
802.97	1484.78
803.15	1544.17
803.32	1554.41
803.50	1492.97
803.67	1533.93
803.84	1556.46
804.02	1503.21
804.19	1499.11
804.37	1456.11
804.54	1454.06
804.71	1531.88
804.89	1540.07
805.06	1540.07
805.24	1474.54
805.41	1411.05
805.58	1495.02
805.76	1650.66
805.93	1513.45
806.10	1650.66
806.28	1558.50
806.45	1454.06
806.63	1513.45
806.80	1552.36
806.97	1560.55
807.15	1503.21
807.32	1476.59
807.49	1499.11
807.67	1501.16
807.84	1540.07
808.01	1519.59
808.19	1648.61
808.36	1624.04
808.54	1587.18
808.71	1513.45
808.88	1523.69
809.06	1519.59
809.23	1542.12
809.40	1558.50
809.58	1648.61
809.75	1533.93
809.92	1505.26
810.10	1611.75
810.27	1523.69
810.44	1527.78
810.62	1607.66
810.79	1521.64
810.96	1519.59
811.14	1540.07
811.31	1566.70
811.48	1572.84
811.66	1468.39
811.83	1538.02
812.00	1634.28
812.18	1531.88
812.35	1671.14
812.52	1531.88
812.69	1591.27
812.87	1540.07
813.04	1484.78
813.21	1486.83
813.39	1529.83
813.56	1415.15
813.73	1642.47
813.91	1492.97
814.08	1505.26
814.25	1513.45
814.42	1478.63
814.60	1540.07
814.77	1607.66
814.94	1472.49
815.12	1538.02
815.29	1556.46
815.46	1515.50
815.63	1576.94
815.81	1511.40
815.98	1525.74
816.15	1544.17
816.33	1527.78
816.50	1472.49
816.67	1546.22
816.84	1552.36
817.02	1505.26
817.19	1462.25
817.36	1509.35
817.53	1595.37
817.71	1478.63
817.88	1574.89
818.05	1484.78
818.22	1535.98
818.40	1652.71
818.57	1441.77
818.74	1595.37
818.91	1538.02
819.09	1452.01
819.26	1566.70
819.43	1525.74
819.60	1568.74
819.78	1535.98
819.95	1607.66
820.12	1513.45
820.29	1601.51
820.47	1492.97
820.64	1509.35
820.81	1550.31
820.98	1458.15
821.15	1548.26
821.33	1556.46
821.50	1458.15
821.67	1505.26
821.84	1570.79
822.02	1546.22
822.19	1568.74
822.36	1531.88
822.53	1425.39
822.70	1505.26
822.88	1499.11
823.05	1605.61
823.22	1560.55
823.39	1499.11
823.56	1511.40
823.74	1632.23
823.91	1441.77
824.08	1509.35
824.25	1486.83
824.42	1560.55
824.60	1486.83
824.77	1558.50
824.94	1605.61
825.11	1519.59
825.28	1431.53
825.45	1595.37
825.63	1540.07
825.80	1482.73
825.97	1558.50
826.14	1445.87
826.31	1515.50
826.48	1488.87
826.66	1503.21
826.83	1509.35
827.00	1544.17
827.17	1511.40
827.34	1554.41
827.51	1490.92
827.69	1486.83
827.86	1392.62
828.03	1492.97
828.20	1470.44
828.37	1525.74
828.54	1574.89
828.71	1458.15
828.89	1642.47
829.06	1548.26
829.23	1632.23
829.40	1441.77
829.57	1521.64
829.74	1562.60
829.91	1550.31
830.09	1497.07
830.26	1599.46
830.43	1630.18
830.60	1484.78
830.77	1499.11
830.94	1617.90
831.11	1562.60
831.28	1550.31
831.46	1621.99
831.63	1542.12
831.80	1568.74
831.97	1437.67
832.14	1517.54
832.31	1566.70
832.48	1511.40
832.65	1495.02
832.82	1525.74
832.99	1550.31
833.17	1482.73
833.34	1507.30
833.51	1589.22
833.68	1472.49
833.85	1517.54
834.02	1521.64
834.19	1501.16
834.36	1505.26
834.53	1535.98
834.70	1548.26
834.87	1581.03
835.04	1519.59
835.22	1523.69
835.39	1505.26
835.56	1460.20
835.73	1490.92
835.90	1529.83
836.07	1501.16
836.24	1624.04
836.41	1550.31
836.58	1480.68
836.75	1568.74
836.92	1521.64
837.09	1568.74
837.26	1597.42
837.43	1531.88
837.60	1548.26
837.77	1587.18
837.94	1564.65
838.12	1605.61
838.29	1591.27
838.46	1480.68
838.63	1460.20
838.80	1646.57
838.97	1591.27
839.14	1560.55
839.31	1548.26
839.48	1599.46
839.65	1533.93
839.82	1576.94
839.99	1527.78
840.16	1568.74
840.33	1564.65
840.50	1556.46
840.67	1486.83
840.84	1423.34
841.01	1507.30
841.18	1503.21
841.35	1411.05
841.52	1538.02
841.69	1685.48
841.86	1495.02
842.03	1486.83
842.20	1556.46
842.37	1449.96
842.54	1533.93
842.71	1501.16
842.88	1462.25
843.05	1591.27
843.22	1554.41
843.39	1615.85
843.56	1505.26
843.73	1544.17
843.90	1556.46
844.07	1550.31
844.24	1542.12
844.41	1589.22
844.58	1624.04
844.75	1527.78
844.92	1495.02
845.09	1550.31
845.26	1515.50
845.43	1638.38
845.60	1546.22
845.77	1597.42
845.94	1513.45
846.10	1593.32
846.27	1462.25
846.44	1490.92
846.61	1513.45
846.78	1540.07
846.95	1591.27
847.12	1456.11
847.29	1525.74
847.46	1419.24
847.63	1564.65
847.80	1511.40
847.97	1574.89
848.14	1650.66
848.31	1572.84
848.48	1486.83
848.65	1583.08
848.82	1503.21
848.98	1697.77
849.15	1531.88
849.32	1587.18
849.49	1523.69
849.66	1505.26
849.83	1615.85
850.00	1564.65
850.17	1583.08
850.34	1538.02
850.51	1552.36
850.68	1564.65
850.85	1615.85
851.01	1501.16
851.18	1492.97
851.35	1476.59
851.52	1538.02
851.69	1560.55
851.86	1415.15
852.03	1533.93
852.20	1517.54
852.37	1535.98
852.53	1480.68
852.70	1597.42
852.87	1478.63
853.04	1556.46
853.21	1509.35
853.38	1634.28
853.55	1626.09
853.72	1574.89
853.89	1523.69
854.05	1538.02
854.22	1505.26
854.39	1460.20
854.56	1574.89
854.73	1550.31
854.90	1492.97
855.07	1517.54
855.23	1535.98
855.40	1533.93
855.57	1523.69
855.74	1511.40
855.91	1628.14
856.08	1427.43
856.25	1488.87
856.41	1511.40
856.58	1542.12
856.75	1546.22
856.92	1492.97
857.09	1632.23
857.26	1439.72
857.42	1509.35
857.59	1476.59
857.76	1511.40
857.93	1562.60
858.10	1568.74
858.27	1449.96
858.43	1517.54
858.60	1570.79
858.77	1439.72
858.94	1525.74
859.11	1605.61
859.27	1507.30
859.44	1519.59
859.61	1652.71
859.78	1552.36
859.95	1509.35
860.12	1556.46
860.28	1601.51
860.45	1599.46
860.62	1515.50
860.79	1472.49
860.95	1542.12
861.12	1437.67
861.29	1505.26
861.46	1462.25
861.63	1529.83
861.79	1548.26
861.96	1452.01
862.13	1564.65
862.30	1624.04
862.47	1478.63
862.63	1564.65
862.80	1568.74
862.97	1570.79
863.14	1560.55
863.30	1538.02
863.47	1495.02
863.64	1535.98
863.81	1626.09
863.97	1581.03
864.14	1505.26
864.31	1535.98
864.48	1552.36
864.65	1562.60
864.81	1548.26
864.98	1523.69
865.15	1488.87
865.32	1609.70
865.48	1640.42
865.65	1656.81
865.82	1533.93
865.98	1595.37
866.15	1650.66
866.32	1509.35
866.49	1490.92
866.65	1587.18
866.82	1581.03
866.99	1519.59
867.16	1513.45
867.32	1505.26
867.49	1572.84
867.66	1503.21
867.83	1544.17
867.99	1486.83
868.16	1499.11
868.33	1474.54
868.49	1531.88
868.66	1449.96
868.83	1630.18
868.99	1499.11
869.16	1521.64
869.33	1572.84
869.50	1513.45
869.66	1535.98
869.83	1499.11
870.00	1501.16
870.16	1634.28
870.33	1497.07
870.50	1538.02
870.66	1499.11
870.83	1632.23
871.00	1568.74
871.17	1583.08
871.33	1548.26
871.50	1525.74
871.67	1621.99
871.83	1523.69
872.00	1646.57
872.17	1484.78
872.33	1638.38
872.50	1601.51
872.67	1564.65
872.83	1513.45
873.00	1533.93
873.17	1548.26
873.33	1519.59
873.50	1621.99
873.67	1511.40
873.83	1554.41
874.00	1449.96
874.16	1591.27
874.33	1576.94
874.50	1529.83
874.66	1540.07
874.83	1566.70
875.00	1499.11
875.16	1525.74
875.33	1556.46
875.50	1490.92
875.66	1517.54
875.83	1482.73
875.99	1525.74
876.16	1517.54
876.33	1501.16
876.49	1548.26
876.66	1564.65
876.83	1503.21
876.99	1488.87
877.16	1568.74
877.32	1568.74
877.49	1529.83
877.66	1495.02
877.82	1607.66
877.99	1544.17
878.15	1662.95
878.32	1572.84
878.49	1511.40
878.65	1476.59
878.82	1599.46
878.98	1501.16
879.15	1544.17
879.32	1572.84
879.48	1527.78
879.65	1538.02
879.81	1542.12
879.98	1470.44
880.15	1507.30
880.31	1497.07
880.48	1515.50
880.64	1613.80
880.81	1595.37
880.97	1613.80
881.14	1613.80
881.31	1495.02
881.47	1673.19
881.64	1566.70
881.80	1472.49
881.97	1628.14
882.13	1572.84
882.30	1499.11
882.47	1527.78
882.63	1533.93
882.80	1513.45
882.96	1546.22
883.13	1591.27
883.29	1519.59
883.46	1511.40
883.62	1621.99
883.79	1558.50
883.95	1583.08
884.12	1509.35
884.29	1603.56
884.45	1599.46
884.62	1574.89
884.78	1443.82
884.95	1599.46
885.11	1505.26
885.28	1593.32
885.44	1495.02
885.61	1550.31
885.77	1574.89
885.94	1617.90
886.10	1570.79
886.27	1495.02
886.43	1550.31
886.60	1589.22
886.76	1517.54
886.93	1484.78
887.09	1472.49
887.26	1492.97
887.42	1548.26
887.59	1593.32
887.75	1621.99
887.92	1593.32
888.08	1562.60
888.25	1597.42
888.41	1562.60
888.58	1525.74
888.74	1503.21
888.91	1486.83
>>>>>End Processed Spectral Data<<<<<
