SpectraSuite Data File
++++++++++++++++++++++++++++++++++++
Date: Tue May 03 12:55:56 CEST 2016
User: root
Dark Spectrum Present: No
Reference Spectrum Present: No
Number of Sampled Component Spectra: 1
Spectrometers: USB4C02835
Integration Time (usec): 100000 (USB4C02835)
Spectra Averaged: 1 (USB4C02835)
Boxcar Smoothing: 0 (USB4C02835)
Correct for Electrical Dark: No (USB4C02835)
Strobe/Lamp Enabled: No (USB4C02835)
Correct for Detector Non-linearity: No (USB4C02835)
Correct for Stray Light: No (USB4C02835)
Number of Pixels in Processed Spectrum: 3648
>>>>>Begin Processed Spectral Data<<<<<
177.47	1306.60
177.69	1306.60
177.91	1306.60
178.13	1351.66
178.36	1312.75
178.58	1572.84
178.80	1581.03
179.02	1490.92
179.24	1470.44
179.46	1531.88
179.68	1605.61
179.90	1527.78
180.13	1480.68
180.35	1488.87
180.57	1560.55
180.79	1474.54
181.01	1466.35
181.23	1527.78
181.45	1599.46
181.67	1535.98
181.90	1550.31
182.12	1480.68
182.34	1503.21
182.56	1517.54
182.78	1581.03
183.00	1523.69
183.22	1566.70
183.44	1431.53
183.66	1695.72
183.89	1558.50
184.11	1578.98
184.33	1595.37
184.55	1626.09
184.77	1533.93
184.99	1562.60
185.21	1511.40
185.43	1669.09
185.65	1542.12
185.87	1540.07
186.10	1609.70
186.32	1667.05
186.54	1554.41
186.76	1552.36
186.98	1548.26
187.20	1556.46
187.42	1542.12
187.64	1490.92
187.86	1581.03
188.08	1581.03
188.30	1527.78
188.52	1605.61
188.75	1548.26
188.97	1603.56
189.19	1560.55
189.41	1540.07
189.63	1581.03
189.85	1554.41
190.07	1486.83
190.29	1472.49
190.51	1515.50
190.73	1474.54
190.95	1599.46
191.17	1533.93
191.39	1527.78
191.61	1490.92
191.84	1517.54
192.06	1609.70
192.28	1554.41
192.50	1669.09
192.72	1576.94
192.94	1591.27
193.16	1636.33
193.38	1544.17
193.60	1492.97
193.82	1552.36
194.04	1593.32
194.26	1531.88
194.48	1509.35
194.70	1511.40
194.92	1429.48
195.14	1564.65
195.36	1552.36
195.58	1636.33
195.80	1474.54
196.02	1558.50
196.24	1495.02
196.46	1556.46
196.69	1513.45
196.91	1587.18
197.13	1568.74
197.35	1497.07
197.57	1640.42
197.79	1595.37
198.01	1624.04
198.23	1560.55
198.45	1523.69
198.67	1505.26
198.89	1501.16
199.11	1509.35
199.33	1472.49
199.55	1447.91
199.77	1560.55
199.99	1642.47
200.21	1609.70
200.43	1535.98
200.65	1468.39
200.87	1433.58
201.09	1599.46
201.31	1556.46
201.53	1505.26
201.75	1558.50
201.97	1525.74
202.19	1562.60
202.41	1642.47
202.63	1662.95
202.85	1570.79
203.07	1656.81
203.29	1492.97
203.51	1445.87
203.73	1544.17
203.95	1703.91
204.17	1566.70
204.39	1519.59
204.61	1509.35
204.83	1482.73
205.05	1558.50
205.27	1638.38
205.49	1669.09
205.71	1482.73
205.93	1476.59
206.15	1478.63
206.37	1507.30
206.59	1572.84
206.81	1495.02
207.03	1525.74
207.25	1476.59
207.47	1533.93
207.69	1527.78
207.91	1621.99
208.13	1587.18
208.34	1570.79
208.56	1509.35
208.78	1533.93
209.00	1531.88
209.22	1421.29
209.44	1552.36
209.66	1578.98
209.88	1490.92
210.10	1527.78
210.32	1566.70
210.54	1574.89
210.76	1507.30
210.98	1533.93
211.20	1435.63
211.42	1617.90
211.64	1550.31
211.86	1574.89
212.08	1572.84
212.30	1480.68
212.52	1513.45
212.74	1533.93
212.96	1523.69
213.17	1601.51
213.39	1464.30
213.61	1544.17
213.83	1599.46
214.05	1505.26
214.27	1626.09
214.49	1437.67
214.71	1538.02
214.93	1597.42
215.15	1527.78
215.37	1578.98
215.59	1478.63
215.81	1535.98
216.03	1550.31
216.24	1550.31
216.46	1495.02
216.68	1482.73
216.90	1509.35
217.12	1617.90
217.34	1517.54
217.56	1554.41
217.78	1589.22
218.00	1576.94
218.22	1554.41
218.44	1552.36
218.66	1482.73
218.87	1624.04
219.09	1503.21
219.31	1501.16
219.53	1630.18
219.75	1589.22
219.97	1495.02
220.19	1583.08
220.41	1495.02
220.63	1578.98
220.85	1544.17
221.06	1529.83
221.28	1560.55
221.50	1619.94
221.72	1578.98
221.94	1576.94
222.16	1527.78
222.38	1570.79
222.60	1576.94
222.82	1540.07
223.03	1581.03
223.25	1533.93
223.47	1564.65
223.69	1591.27
223.91	1511.40
224.13	1533.93
224.35	1507.30
224.57	1521.64
224.78	1525.74
225.00	1488.87
225.22	1552.36
225.44	1552.36
225.66	1552.36
225.88	1533.93
226.10	1601.51
226.32	1615.85
226.53	1562.60
226.75	1521.64
226.97	1558.50
227.19	1617.90
227.41	1521.64
227.63	1472.49
227.85	1462.25
228.06	1523.69
228.28	1548.26
228.50	1642.47
228.72	1409.00
228.94	1527.78
229.16	1507.30
229.37	1462.25
229.59	1531.88
229.81	1509.35
230.03	1548.26
230.25	1478.63
230.47	1456.11
230.69	1423.34
230.90	1595.37
231.12	1490.92
231.34	1533.93
231.56	1675.24
231.78	1484.78
232.00	1624.04
232.21	1591.27
232.43	1511.40
232.65	1415.15
232.87	1542.12
233.09	1558.50
233.30	1488.87
233.52	1548.26
233.74	1585.13
233.96	1499.11
234.18	1531.88
234.40	1495.02
234.61	1628.14
234.83	1499.11
235.05	1429.48
235.27	1632.23
235.49	1632.23
235.70	1490.92
235.92	1601.51
236.14	1595.37
236.36	1642.47
236.58	1499.11
236.79	1546.22
237.01	1515.50
237.23	1558.50
237.45	1640.42
237.67	1544.17
237.88	1519.59
238.10	1574.89
238.32	1552.36
238.54	1511.40
238.76	1515.50
238.97	1458.15
239.19	1570.79
239.41	1609.70
239.63	1597.42
239.85	1511.40
240.06	1505.26
240.28	1507.30
240.50	1542.12
240.72	1603.56
240.93	1560.55
241.15	1615.85
241.37	1599.46
241.59	1681.38
241.81	1572.84
242.02	1521.64
242.24	1568.74
242.46	1613.80
242.68	1566.70
242.89	1611.75
243.11	1634.28
243.33	1497.07
243.55	1533.93
243.76	1523.69
243.98	1484.78
244.20	1540.07
244.42	1525.74
244.64	1513.45
244.85	1427.43
245.07	1511.40
245.29	1499.11
245.51	1583.08
245.72	1568.74
245.94	1634.28
246.16	1587.18
246.38	1511.40
246.59	1484.78
246.81	1492.97
247.03	1544.17
247.24	1480.68
247.46	1468.39
247.68	1490.92
247.90	1527.78
248.11	1533.93
248.33	1570.79
248.55	1576.94
248.77	1519.59
248.98	1646.57
249.20	1587.18
249.42	1480.68
249.64	1523.69
249.85	1568.74
250.07	1468.39
250.29	1486.83
250.50	1556.46
250.72	1495.02
250.94	1611.75
251.16	1609.70
251.37	1585.13
251.59	1531.88
251.81	1538.02
252.02	1492.97
252.24	1490.92
252.46	1581.03
252.68	1476.59
252.89	1515.50
253.11	1538.02
253.33	1605.61
253.54	1574.89
253.76	1435.63
253.98	1427.43
254.20	1560.55
254.41	1441.77
254.63	1523.69
254.85	1456.11
255.06	1542.12
255.28	1548.26
255.50	1515.50
255.71	1490.92
255.93	1443.82
256.15	1548.26
256.36	1550.31
256.58	1523.69
256.80	1576.94
257.02	1527.78
257.23	1509.35
257.45	1529.83
257.67	1535.98
257.88	1552.36
258.10	1509.35
258.32	1542.12
258.53	1542.12
258.75	1587.18
258.97	1497.07
259.18	1646.57
259.40	1589.22
259.62	1636.33
259.83	1564.65
260.05	1640.42
260.27	1677.29
260.48	1564.65
260.70	1456.11
260.92	1495.02
261.13	1495.02
261.35	1468.39
261.57	1456.11
261.78	1431.53
262.00	1570.79
262.22	1517.54
262.43	1544.17
262.65	1482.73
262.86	1644.52
263.08	1679.33
263.30	1478.63
263.51	1523.69
263.73	1488.87
263.95	1576.94
264.16	1505.26
264.38	1495.02
264.60	1568.74
264.81	1587.18
265.03	1603.56
265.25	1521.64
265.46	1591.27
265.68	1613.80
265.89	1556.46
266.11	1476.59
266.33	1531.88
266.54	1562.60
266.76	1548.26
266.98	1599.46
267.19	1558.50
267.41	1589.22
267.62	1583.08
267.84	1464.30
268.06	1501.16
268.27	1554.41
268.49	1564.65
268.70	1544.17
268.92	1599.46
269.14	1511.40
269.35	1445.87
269.57	1624.04
269.79	1595.37
270.00	1509.35
270.22	1568.74
270.43	1564.65
270.65	1390.57
270.87	1540.07
271.08	1605.61
271.30	1540.07
271.51	1531.88
271.73	1566.70
271.95	1540.07
272.16	1572.84
272.38	1527.78
272.59	1542.12
272.81	1523.69
273.02	1529.83
273.24	1619.94
273.46	1558.50
273.67	1497.07
273.89	1478.63
274.10	1482.73
274.32	1540.07
274.54	1556.46
274.75	1546.22
274.97	1505.26
275.18	1517.54
275.40	1527.78
275.61	1513.45
275.83	1507.30
276.05	1492.97
276.26	1484.78
276.48	1564.65
276.69	1566.70
276.91	1480.68
277.12	1632.23
277.34	1587.18
277.55	1593.32
277.77	1480.68
277.99	1468.39
278.20	1486.83
278.42	1533.93
278.63	1480.68
278.85	1480.68
279.06	1429.48
279.28	1484.78
279.49	1591.27
279.71	1564.65
279.93	1621.99
280.14	1554.41
280.36	1538.02
280.57	1624.04
280.79	1626.09
281.00	1550.31
281.22	1490.92
281.43	1560.55
281.65	1445.87
281.86	1568.74
282.08	1499.11
282.29	1652.71
282.51	1449.96
282.73	1503.21
282.94	1497.07
283.16	1503.21
283.37	1583.08
283.59	1515.50
283.80	1462.25
284.02	1474.54
284.23	1529.83
284.45	1447.91
284.66	1513.45
284.88	1492.97
285.09	1574.89
285.31	1568.74
285.52	1589.22
285.74	1452.01
285.95	1669.09
286.17	1574.89
286.38	1540.07
286.60	1492.97
286.81	1486.83
287.03	1587.18
287.24	1587.18
287.46	1544.17
287.67	1476.59
287.89	1648.61
288.10	1540.07
288.32	1484.78
288.53	1632.23
288.75	1583.08
288.96	1558.50
289.18	1490.92
289.39	1558.50
289.61	1640.42
289.82	1597.42
290.04	1650.66
290.25	1501.16
290.47	1505.26
290.68	1517.54
290.90	1564.65
291.11	1468.39
291.33	1689.57
291.54	1474.54
291.76	1497.07
291.97	1589.22
292.18	1476.59
292.40	1535.98
292.61	1556.46
292.83	1628.14
293.04	1558.50
293.26	1593.32
293.47	1517.54
293.69	1482.73
293.90	1527.78
294.12	1595.37
294.33	1525.74
294.55	1613.80
294.76	1550.31
294.97	1634.28
295.19	1638.38
295.40	1546.22
295.62	1601.51
295.83	1572.84
296.05	1484.78
296.26	1568.74
296.48	1548.26
296.69	1564.65
296.90	1449.96
297.12	1581.03
297.33	1578.98
297.55	1574.89
297.76	1527.78
297.98	1621.99
298.19	1560.55
298.41	1513.45
298.62	1447.91
298.83	1607.66
299.05	1558.50
299.26	1503.21
299.48	1476.59
299.69	1562.60
299.90	1474.54
300.12	1495.02
300.33	1574.89
300.55	1505.26
300.76	1570.79
300.98	1517.54
301.19	1550.31
301.40	1513.45
301.62	1531.88
301.83	1519.59
302.05	1570.79
302.26	1599.46
302.47	1572.84
302.69	1474.54
302.90	1533.93
303.12	1441.77
303.33	1570.79
303.54	1503.21
303.76	1515.50
303.97	1531.88
304.19	1560.55
304.40	1533.93
304.61	1558.50
304.83	1640.42
305.04	1558.50
305.26	1492.97
305.47	1578.98
305.68	1560.55
305.90	1490.92
306.11	1560.55
306.33	1501.16
306.54	1509.35
306.75	1449.96
306.97	1488.87
307.18	1570.79
307.39	1490.92
307.61	1554.41
307.82	1525.74
308.04	1527.78
308.25	1513.45
308.46	1585.13
308.68	1509.35
308.89	1560.55
309.10	1552.36
309.32	1568.74
309.53	1517.54
309.74	1497.07
309.96	1484.78
310.17	1570.79
310.39	1505.26
310.60	1533.93
310.81	1482.73
311.03	1515.50
311.24	1519.59
311.45	1564.65
311.67	1560.55
311.88	1523.69
312.09	1527.78
312.31	1533.93
312.52	1542.12
312.73	1542.12
312.95	1476.59
313.16	1464.30
313.37	1626.09
313.59	1609.70
313.80	1517.54
314.01	1591.27
314.23	1486.83
314.44	1535.98
314.65	1447.91
314.87	1478.63
315.08	1525.74
315.29	1488.87
315.51	1486.83
315.72	1474.54
315.93	1636.33
316.15	1562.60
316.36	1486.83
316.57	1544.17
316.79	1568.74
317.00	1544.17
317.21	1558.50
317.43	1525.74
317.64	1599.46
317.85	1540.07
318.07	1538.02
318.28	1564.65
318.49	1757.16
318.70	1720.29
318.92	1724.39
319.13	1689.57
319.34	1689.57
319.56	1624.04
319.77	1648.61
319.98	1701.86
320.20	1615.85
320.41	1632.23
320.62	1626.09
320.83	1560.55
321.05	1601.51
321.26	1546.22
321.47	1464.30
321.69	1505.26
321.90	1503.21
322.11	1492.97
322.32	1513.45
322.54	1607.66
322.75	1556.46
322.96	1587.18
323.18	1449.96
323.39	1454.06
323.60	1515.50
323.81	1544.17
324.03	1509.35
324.24	1523.69
324.45	1525.74
324.66	1476.59
324.88	1617.90
325.09	1548.26
325.30	1570.79
325.52	1548.26
325.73	1585.13
325.94	1585.13
326.15	1464.30
326.37	1503.21
326.58	1626.09
326.79	1576.94
327.00	1454.06
327.22	1601.51
327.43	1517.54
327.64	1470.44
327.85	1544.17
328.07	1542.12
328.28	1591.27
328.49	1540.07
328.70	1562.60
328.92	1542.12
329.13	1472.49
329.34	1548.26
329.55	1617.90
329.76	1671.14
329.98	1490.92
330.19	1558.50
330.40	1603.56
330.61	1558.50
330.83	1552.36
331.04	1480.68
331.25	1476.59
331.46	1509.35
331.68	1433.58
331.89	1544.17
332.10	1533.93
332.31	1474.54
332.52	1523.69
332.74	1617.90
332.95	1474.54
333.16	1554.41
333.37	1499.11
333.58	1515.50
333.80	1474.54
334.01	1460.20
334.22	1517.54
334.43	1486.83
334.64	1595.37
334.86	1497.07
335.07	1505.26
335.28	1560.55
335.49	1492.97
335.70	1566.70
335.92	1669.09
336.13	1542.12
336.34	1562.60
336.55	1535.98
336.76	1550.31
336.98	1437.67
337.19	1445.87
337.40	1607.66
337.61	1595.37
337.82	1501.16
338.04	1601.51
338.25	1460.20
338.46	1550.31
338.67	1501.16
338.88	1484.78
339.09	1490.92
339.31	1503.21
339.52	1527.78
339.73	1538.02
339.94	1503.21
340.15	1560.55
340.36	1542.12
340.58	1505.26
340.79	1542.12
341.00	1554.41
341.21	1492.97
341.42	1636.33
341.63	1523.69
341.85	1507.30
342.06	1576.94
342.27	1515.50
342.48	1574.89
342.69	1490.92
342.90	1566.70
343.12	1538.02
343.33	1503.21
343.54	1574.89
343.75	1560.55
343.96	1505.26
344.17	1460.20
344.38	1544.17
344.60	1497.07
344.81	1488.87
345.02	1482.73
345.23	1542.12
345.44	1703.91
345.65	1607.66
345.86	1544.17
346.07	1538.02
346.29	1529.83
346.50	1558.50
346.71	1546.22
346.92	1595.37
347.13	1636.33
347.34	1558.50
347.55	1476.59
347.76	1511.40
347.98	1421.29
348.19	1533.93
348.40	1572.84
348.61	1517.54
348.82	1527.78
349.03	1564.65
349.24	1566.70
349.45	1601.51
349.66	1402.86
349.88	1566.70
350.09	1497.07
350.30	1599.46
350.51	1576.94
350.72	1511.40
350.93	1507.30
351.14	1476.59
351.35	1566.70
351.56	1466.35
351.77	1558.50
351.99	1613.80
352.20	1576.94
352.41	1624.04
352.62	1476.59
352.83	1480.68
353.04	1519.59
353.25	1527.78
353.46	1578.98
353.67	1548.26
353.88	1468.39
354.09	1591.27
354.30	1521.64
354.52	1568.74
354.73	1468.39
354.94	1497.07
355.15	1521.64
355.36	1656.81
355.57	1568.74
355.78	1581.03
355.99	1542.12
356.20	1517.54
356.41	1544.17
356.62	1605.61
356.83	1533.93
357.04	1540.07
357.25	1478.63
357.46	1525.74
357.68	1449.96
357.89	1458.15
358.10	1566.70
358.31	1535.98
358.52	1560.55
358.73	1454.06
358.94	1519.59
359.15	1562.60
359.36	1570.79
359.57	1533.93
359.78	1464.30
359.99	1550.31
360.20	1529.83
360.41	1542.12
360.62	1568.74
360.83	1591.27
361.04	1519.59
361.25	1570.79
361.46	1662.95
361.67	1583.08
361.88	1603.56
362.09	1601.51
362.30	1624.04
362.51	1503.21
362.72	1576.94
362.93	1550.31
363.14	1593.32
363.35	1521.64
363.56	1497.07
363.78	1570.79
363.99	1513.45
364.20	1486.83
364.41	1562.60
364.62	1628.14
364.83	1593.32
365.04	1529.83
365.25	1568.74
365.46	1634.28
365.67	1515.50
365.88	1560.55
366.09	1505.26
366.30	1570.79
366.51	1546.22
366.72	1511.40
366.93	1550.31
367.14	1581.03
367.35	1624.04
367.56	1492.97
367.77	1574.89
367.98	1531.88
368.18	1568.74
368.39	1566.70
368.60	1517.54
368.81	1572.84
369.02	1572.84
369.23	1574.89
369.44	1509.35
369.65	1507.30
369.86	1619.94
370.07	1642.47
370.28	1540.07
370.49	1601.51
370.70	1599.46
370.91	1472.49
371.12	1529.83
371.33	1628.14
371.54	1544.17
371.75	1576.94
371.96	1415.15
372.17	1538.02
372.38	1529.83
372.59	1480.68
372.80	1529.83
373.01	1546.22
373.22	1570.79
373.43	1503.21
373.64	1558.50
373.85	1562.60
374.06	1556.46
374.26	1531.88
374.47	1615.85
374.68	1607.66
374.89	1574.89
375.10	1548.26
375.31	1566.70
375.52	1568.74
375.73	1509.35
375.94	1439.72
376.15	1607.66
376.36	1552.36
376.57	1523.69
376.78	1554.41
376.99	1509.35
377.20	1632.23
377.40	1513.45
377.61	1685.48
377.82	1515.50
378.03	1517.54
378.24	1583.08
378.45	1538.02
378.66	1497.07
378.87	1529.83
379.08	1439.72
379.29	1476.59
379.50	1593.32
379.71	1507.30
379.91	1652.71
380.12	1554.41
380.33	1505.26
380.54	1529.83
380.75	1517.54
380.96	1544.17
381.17	1640.42
381.38	1529.83
381.59	1558.50
381.80	1546.22
382.00	1619.94
382.21	1552.36
382.42	1646.57
382.63	1714.15
382.84	1638.38
383.05	1562.60
383.26	1650.66
383.47	1587.18
383.68	1585.13
383.88	1585.13
384.09	1558.50
384.30	1662.95
384.51	1497.07
384.72	1585.13
384.93	1476.59
385.14	1550.31
385.35	1591.27
385.55	1542.12
385.76	1587.18
385.97	1550.31
386.18	1509.35
386.39	1521.64
386.60	1611.75
386.81	1632.23
387.02	1570.79
387.22	1550.31
387.43	1636.33
387.64	1687.53
387.85	1839.08
388.06	3104.72
388.27	7311.25
388.48	10706.78
388.68	12562.24
388.89	14085.93
389.10	13141.82
389.31	10205.03
389.52	9019.25
389.73	7839.62
389.93	7171.99
390.14	6715.29
390.35	6184.87
390.56	5541.80
390.77	4640.70
390.98	3657.67
391.18	2922.45
391.39	2172.89
391.60	1771.49
391.81	1767.40
392.02	1593.32
392.23	1646.57
392.43	1583.08
392.64	1636.33
392.85	1542.12
393.06	1613.80
393.27	1511.40
393.47	1540.07
393.68	1595.37
393.89	1517.54
394.10	1591.27
394.31	1466.35
394.52	1492.97
394.72	1519.59
394.93	1619.94
395.14	1505.26
395.35	1574.89
395.56	1540.07
395.76	1619.94
395.97	1705.96
396.18	1804.26
396.39	1728.49
396.60	1916.90
396.80	1806.31
397.01	1667.05
397.22	1613.80
397.43	1681.38
397.64	1607.66
397.84	1710.05
398.05	1794.02
398.26	1660.90
398.47	1617.90
398.67	1550.31
398.88	1552.36
399.09	1570.79
399.30	1525.74
399.51	1488.87
399.71	1427.43
399.92	1501.16
400.13	1611.75
400.34	1533.93
400.54	1515.50
400.75	1624.04
400.96	1535.98
401.17	1552.36
401.37	1578.98
401.58	1519.59
401.79	1601.51
402.00	1787.88
402.21	1884.13
402.41	1902.56
402.62	1920.99
402.83	1937.38
403.04	1837.03
403.24	1871.84
403.45	1671.14
403.66	1753.06
403.87	1732.58
404.07	1777.64
404.28	1740.77
404.49	1740.77
404.70	1599.46
404.90	1615.85
405.11	1619.94
405.32	1581.03
405.52	1548.26
405.73	1472.49
405.94	1550.31
406.15	1503.21
406.35	1597.42
406.56	1593.32
406.77	1552.36
406.98	1529.83
407.18	1495.02
407.39	1658.85
407.60	1585.13
407.80	1587.18
408.01	1533.93
408.22	1554.41
408.43	1484.78
408.63	1658.85
408.84	1603.56
409.05	1597.42
409.25	1505.26
409.46	1511.40
409.67	1566.70
409.88	1464.30
410.08	1529.83
410.29	1564.65
410.50	1566.70
410.70	1515.50
410.91	1415.15
411.12	1552.36
411.32	1552.36
411.53	1615.85
411.74	1685.48
411.95	1587.18
412.15	1587.18
412.36	1576.94
412.57	1581.03
412.77	1593.32
412.98	1593.32
413.19	1572.84
413.39	1630.18
413.60	1546.22
413.81	1632.23
414.01	1593.32
414.22	1576.94
414.43	1538.02
414.63	1515.50
414.84	1660.90
415.05	1581.03
415.25	1425.39
415.46	1654.76
415.67	1570.79
415.87	1554.41
416.08	1611.75
416.29	1492.97
416.49	1556.46
416.70	1474.54
416.91	1490.92
417.11	1570.79
417.32	1581.03
417.53	1642.47
417.73	1511.40
417.94	1542.12
418.15	1572.84
418.35	1560.55
418.56	1574.89
418.77	1619.94
418.97	1511.40
419.18	1513.45
419.38	1413.10
419.59	1540.07
419.80	1566.70
420.00	1513.45
420.21	1515.50
420.42	1615.85
420.62	1505.26
420.83	1540.07
421.04	1597.42
421.24	1509.35
421.45	1464.30
421.65	1601.51
421.86	1552.36
422.07	1476.59
422.27	1613.80
422.48	1548.26
422.69	1511.40
422.89	1488.87
423.10	1540.07
423.30	1497.07
423.51	1542.12
423.72	1570.79
423.92	1490.92
424.13	1519.59
424.33	1556.46
424.54	1613.80
424.75	1548.26
424.95	1642.47
425.16	1615.85
425.36	1595.37
425.57	1576.94
425.78	1564.65
425.98	1572.84
426.19	1535.98
426.39	1458.15
426.60	1665.00
426.81	1630.18
427.01	1445.87
427.22	1560.55
427.42	1472.49
427.63	1556.46
427.83	1554.41
428.04	1636.33
428.25	1611.75
428.45	1566.70
428.66	1589.22
428.86	1495.02
429.07	1521.64
429.28	1593.32
429.48	1503.21
429.69	1495.02
429.89	1626.09
430.10	1568.74
430.30	1550.31
430.51	1488.87
430.71	1519.59
430.92	1509.35
431.13	1488.87
431.33	1523.69
431.54	1634.28
431.74	1613.80
431.95	1615.85
432.15	1540.07
432.36	1513.45
432.56	1654.76
432.77	1656.81
432.98	1576.94
433.18	1554.41
433.39	1566.70
433.59	1495.02
433.80	1601.51
434.00	1621.99
434.21	1529.83
434.41	1533.93
434.62	1613.80
434.82	1521.64
435.03	1490.92
435.23	1503.21
435.44	1486.83
435.64	1576.94
435.85	1482.73
436.06	1626.09
436.26	1628.14
436.47	1513.45
436.67	1505.26
436.88	1495.02
437.08	1556.46
437.29	1652.71
437.49	1527.78
437.70	1654.76
437.90	1519.59
438.11	1738.73
438.31	1619.94
438.52	1691.62
438.72	1708.01
438.93	1708.01
439.13	1560.55
439.34	1624.04
439.54	1601.51
439.75	1570.79
439.95	1552.36
440.16	1525.74
440.36	1615.85
440.57	1597.42
440.77	1570.79
440.98	1560.55
441.18	1535.98
441.39	1509.35
441.59	1538.02
441.80	1703.91
442.00	1492.97
442.21	1517.54
442.41	1490.92
442.62	1527.78
442.82	1542.12
443.02	1554.41
443.23	1548.26
443.43	1478.63
443.64	1632.23
443.84	1517.54
444.05	1673.19
444.25	1550.31
444.46	1525.74
444.66	1683.43
444.87	1628.14
445.07	1490.92
445.28	1523.69
445.48	1621.99
445.69	1675.24
445.89	1656.81
446.09	1609.70
446.30	2068.45
446.50	3182.54
446.71	4511.68
446.91	5240.75
447.12	5769.13
447.32	5578.67
447.53	4593.59
447.73	4001.73
447.93	3729.35
448.14	3280.85
448.34	3166.16
448.55	2869.20
448.75	2873.30
448.96	2791.38
449.16	2504.67
449.36	2224.09
449.57	2064.35
449.77	1716.20
449.98	1632.23
450.18	1634.28
450.39	1617.90
450.59	1601.51
450.79	1519.59
451.00	1503.21
451.20	1581.03
451.41	1548.26
451.61	1581.03
451.81	1595.37
452.02	1515.50
452.22	1591.27
452.43	1490.92
452.63	1511.40
452.84	1558.50
453.04	1574.89
453.24	1564.65
453.45	1501.16
453.65	1486.83
453.86	1564.65
454.06	1562.60
454.26	1470.44
454.47	1482.73
454.67	1605.61
454.87	1515.50
455.08	1419.24
455.28	1609.70
455.49	1548.26
455.69	1542.12
455.89	1591.27
456.10	1589.22
456.30	1501.16
456.51	1497.07
456.71	1519.59
456.91	1574.89
457.12	1529.83
457.32	1556.46
457.52	1527.78
457.73	1591.27
457.93	1548.26
458.14	1501.16
458.34	1533.93
458.54	1511.40
458.75	1470.44
458.95	1583.08
459.15	1499.11
459.36	1572.84
459.56	1640.42
459.76	1552.36
459.97	1544.17
460.17	1642.47
460.37	1628.14
460.58	1538.02
460.78	1605.61
460.99	1574.89
461.19	1513.45
461.39	1456.11
461.60	1509.35
461.80	1566.70
462.00	1511.40
462.21	1488.87
462.41	1474.54
462.61	1417.19
462.82	1529.83
463.02	1544.17
463.22	1535.98
463.43	1576.94
463.63	1546.22
463.83	1591.27
464.04	1597.42
464.24	1495.02
464.44	1503.21
464.64	1550.31
464.85	1599.46
465.05	1640.42
465.25	1636.33
465.46	1468.39
465.66	1574.89
465.86	1595.37
466.07	1548.26
466.27	1538.02
466.47	1574.89
466.68	1484.78
466.88	1611.75
467.08	1529.83
467.29	1570.79
467.49	1607.66
467.69	1603.56
467.89	1671.14
468.10	1472.49
468.30	1548.26
468.50	1542.12
468.71	1603.56
468.91	1480.68
469.11	1634.28
469.31	1574.89
469.52	1519.59
469.72	1638.38
469.92	1650.66
470.13	1550.31
470.33	1568.74
470.53	1746.92
470.73	2133.98
470.94	2310.11
471.14	2430.94
471.34	2738.13
471.54	2402.27
471.75	2125.79
471.95	2021.35
472.15	1947.62
472.36	1943.52
472.56	1986.53
472.76	1916.90
472.96	1837.03
473.17	1771.49
473.37	1789.92
473.57	1665.00
473.77	1589.22
473.98	1646.57
474.18	1443.82
474.38	1740.77
474.58	1519.59
474.79	1507.30
474.99	1560.55
475.19	1538.02
475.39	1488.87
475.60	1544.17
475.80	1574.89
476.00	1593.32
476.20	1464.30
476.41	1521.64
476.61	1634.28
476.81	1679.33
477.01	1503.21
477.21	1544.17
477.42	1552.36
477.62	1495.02
477.82	1548.26
478.02	1507.30
478.23	1574.89
478.43	1511.40
478.63	1535.98
478.83	1503.21
479.03	1544.17
479.24	1572.84
479.44	1628.14
479.64	1558.50
479.84	1529.83
480.04	1470.44
480.25	1644.52
480.45	1474.54
480.65	1581.03
480.85	1568.74
481.06	1478.63
481.26	1513.45
481.46	1617.90
481.66	1619.94
481.86	1533.93
482.06	1531.88
482.27	1533.93
482.47	1546.22
482.67	1570.79
482.87	1523.69
483.07	1650.66
483.28	1546.22
483.48	1460.20
483.68	1499.11
483.88	1535.98
484.08	1462.25
484.29	1501.16
484.49	1511.40
484.69	1478.63
484.89	1654.76
485.09	1609.70
485.29	1552.36
485.50	1542.12
485.70	1558.50
485.90	1558.50
486.10	1578.98
486.30	1535.98
486.50	1585.13
486.71	1484.78
486.91	1587.18
487.11	1617.90
487.31	1513.45
487.51	1576.94
487.71	1484.78
487.91	1544.17
488.12	1460.20
488.32	1433.58
488.52	1581.03
488.72	1435.63
488.92	1538.02
489.12	1540.07
489.32	1607.66
489.53	1560.55
489.73	1449.96
489.93	1585.13
490.13	1533.93
490.33	1497.07
490.53	1607.66
490.73	1619.94
490.94	1523.69
491.14	1568.74
491.34	1679.33
491.54	2144.22
491.74	2705.37
491.94	3170.26
492.14	3276.75
492.34	3264.46
492.54	2770.90
492.75	2527.19
492.95	2355.16
493.15	2179.04
493.35	2201.57
493.55	2066.40
493.75	2027.49
493.95	2035.68
494.15	1943.52
494.35	1839.08
494.56	1759.21
494.76	1591.27
494.96	1609.70
495.16	1525.74
495.36	1544.17
495.56	1574.89
495.76	1591.27
495.96	1527.78
496.16	1468.39
496.36	1640.42
496.56	1558.50
496.77	1562.60
496.97	1501.16
497.17	1609.70
497.37	1464.30
497.57	1609.70
497.77	1456.11
497.97	1484.78
498.17	1527.78
498.37	1531.88
498.57	1607.66
498.77	1554.41
498.97	1562.60
499.17	1638.38
499.38	1533.93
499.58	1607.66
499.78	1540.07
499.98	1605.61
500.18	1552.36
500.38	1525.74
500.58	1865.70
500.78	2648.02
500.98	5046.20
501.18	6772.63
501.38	8185.73
501.58	8775.55
501.78	8036.23
501.98	6109.09
502.18	5345.20
502.38	4743.10
502.58	4222.91
502.78	3936.20
502.98	3700.68
503.18	3600.33
503.38	3366.86
503.59	3012.56
503.79	2897.88
503.99	2475.99
504.19	2226.14
504.39	2168.80
504.59	2119.65
504.79	1966.05
504.99	1931.23
505.19	1777.64
505.39	1791.97
505.59	1806.31
505.79	1685.48
505.99	1703.91
506.19	1714.15
506.39	1648.61
506.59	1572.84
506.79	1648.61
506.99	1624.04
507.19	1570.79
507.39	1552.36
507.59	1525.74
507.79	1560.55
507.99	1529.83
508.19	1562.60
508.39	1533.93
508.59	1476.59
508.79	1615.85
508.99	1615.85
509.19	1525.74
509.39	1548.26
509.59	1566.70
509.79	1533.93
509.99	1533.93
510.19	1595.37
510.39	1597.42
510.59	1507.30
510.79	1550.31
510.99	1466.35
511.19	1568.74
511.39	1591.27
511.59	1617.90
511.79	1589.22
511.99	1544.17
512.19	1599.46
512.38	1572.84
512.58	1466.35
512.78	1529.83
512.98	1572.84
513.18	1660.90
513.38	1503.21
513.58	1574.89
513.78	1503.21
513.98	1538.02
514.18	1554.41
514.38	1564.65
514.58	1566.70
514.78	1501.16
514.98	1458.15
515.18	1570.79
515.38	1447.91
515.58	1687.53
515.78	1564.65
515.98	1654.76
516.18	1581.03
516.38	1488.87
516.57	1540.07
516.77	1525.74
516.97	1533.93
517.17	1396.71
517.37	1429.48
517.57	1601.51
517.77	1499.11
517.97	1556.46
518.17	1564.65
518.37	1447.91
518.57	1644.52
518.77	1544.17
518.97	1572.84
519.16	1492.97
519.36	1587.18
519.56	1495.02
519.76	1550.31
519.96	1574.89
520.16	1603.56
520.36	1398.76
520.56	1640.42
520.76	1581.03
520.96	1531.88
521.16	1576.94
521.35	1568.74
521.55	1609.70
521.75	1517.54
521.95	1513.45
522.15	1558.50
522.35	1544.17
522.55	1531.88
522.75	1566.70
522.95	1576.94
523.14	1470.44
523.34	1550.31
523.54	1589.22
523.74	1550.31
523.94	1546.22
524.14	1454.06
524.34	1572.84
524.54	1478.63
524.73	1531.88
524.93	1605.61
525.13	1560.55
525.33	1509.35
525.53	1638.38
525.73	1560.55
525.93	1609.70
526.13	1507.30
526.32	1560.55
526.52	1527.78
526.72	1621.99
526.92	1482.73
527.12	1544.17
527.32	1542.12
527.52	1566.70
527.71	1693.67
527.91	1574.89
528.11	1513.45
528.31	1507.30
528.51	1509.35
528.71	1574.89
528.90	1619.94
529.10	1554.41
529.30	1562.60
529.50	1497.07
529.70	1464.30
529.90	1505.26
530.09	1624.04
530.29	1521.64
530.49	1499.11
530.69	1619.94
530.89	1595.37
531.09	1503.21
531.28	1546.22
531.48	1548.26
531.68	1550.31
531.88	1615.85
532.08	1562.60
532.28	1583.08
532.47	1581.03
532.67	1667.05
532.87	1628.14
533.07	1538.02
533.27	1609.70
533.46	1640.42
533.66	1542.12
533.86	1558.50
534.06	1601.51
534.26	1564.65
534.45	1525.74
534.65	1630.18
534.85	1624.04
535.05	1495.02
535.25	1566.70
535.44	1443.82
535.64	1675.24
535.84	1544.17
536.04	1552.36
536.24	1519.59
536.43	1439.72
536.63	1515.50
536.83	1572.84
537.03	1624.04
537.22	1546.22
537.42	1452.01
537.62	1538.02
537.82	1507.30
538.02	1589.22
538.21	1542.12
538.41	1660.90
538.61	1527.78
538.81	1486.83
539.00	1585.13
539.20	1492.97
539.40	1558.50
539.60	1607.66
539.79	1525.74
539.99	1525.74
540.19	1558.50
540.39	1476.59
540.58	1548.26
540.78	1660.90
540.98	1509.35
541.18	1560.55
541.37	1595.37
541.57	1435.63
541.77	1519.59
541.97	1505.26
542.16	1554.41
542.36	1507.30
542.56	1609.70
542.76	1511.40
542.95	1517.54
543.15	1544.17
543.35	1548.26
543.54	1501.16
543.74	1476.59
543.94	1628.14
544.14	1558.50
544.33	1548.26
544.53	1515.50
544.73	1566.70
544.93	1519.59
545.12	1613.80
545.32	1474.54
545.52	1572.84
545.71	1476.59
545.91	1566.70
546.11	1603.56
546.30	1490.92
546.50	1595.37
546.70	1548.26
546.90	1556.46
547.09	1402.86
547.29	1587.18
547.49	1523.69
547.68	1529.83
547.88	1570.79
548.08	1615.85
548.27	1865.70
548.47	1527.78
548.67	1511.40
548.87	1519.59
549.06	1499.11
549.26	1570.79
549.46	1591.27
549.65	1560.55
549.85	1476.59
550.05	1550.31
550.24	1474.54
550.44	1538.02
550.64	1531.88
550.83	1538.02
551.03	1626.09
551.23	1568.74
551.42	1662.95
551.62	1445.87
551.82	1509.35
552.01	1554.41
552.21	1533.93
552.41	1519.59
552.60	1578.98
552.80	1558.50
553.00	1507.30
553.19	1501.16
553.39	1578.98
553.59	1497.07
553.78	1583.08
553.98	1531.88
554.17	1552.36
554.37	1601.51
554.57	1517.54
554.76	1535.98
554.96	1490.92
555.16	1538.02
555.35	1550.31
555.55	1535.98
555.75	1538.02
555.94	1525.74
556.14	1464.30
556.33	1572.84
556.53	1515.50
556.73	1503.21
556.92	1581.03
557.12	1665.00
557.32	1640.42
557.51	1632.23
557.71	1533.93
557.90	1591.27
558.10	1574.89
558.30	1521.64
558.49	1529.83
558.69	1554.41
558.88	1535.98
559.08	1497.07
559.28	1486.83
559.47	1572.84
559.67	1542.12
559.86	1650.66
560.06	1605.61
560.26	1495.02
560.45	1486.83
560.65	1486.83
560.84	1621.99
561.04	1468.39
561.24	1550.31
561.43	1572.84
561.63	1617.90
561.82	1542.12
562.02	1607.66
562.22	1488.87
562.41	1544.17
562.61	1535.98
562.80	1492.97
563.00	1722.34
563.19	1587.18
563.39	1607.66
563.59	1611.75
563.78	1509.35
563.98	1480.68
564.17	1454.06
564.37	1513.45
564.56	1492.97
564.76	1488.87
564.96	1648.61
565.15	1507.30
565.35	1628.14
565.54	1538.02
565.74	1609.70
565.93	1585.13
566.13	1542.12
566.32	1566.70
566.52	1607.66
566.71	1511.40
566.91	1578.98
567.11	1486.83
567.30	1542.12
567.50	1570.79
567.69	1619.94
567.89	1578.98
568.08	1519.59
568.28	1630.18
568.47	1615.85
568.67	1525.74
568.86	1568.74
569.06	1597.42
569.25	1554.41
569.45	1492.97
569.64	1548.26
569.84	1540.07
570.04	1492.97
570.23	1599.46
570.43	1576.94
570.62	1581.03
570.82	1630.18
571.01	1476.59
571.21	1533.93
571.40	1572.84
571.60	1712.10
571.79	1515.50
571.99	1581.03
572.18	1546.22
572.38	1560.55
572.57	1521.64
572.77	1624.04
572.96	1644.52
573.16	1570.79
573.35	1558.50
573.55	1660.90
573.74	1630.18
573.94	1581.03
574.13	1511.40
574.33	1585.13
574.52	1552.36
574.71	1550.31
574.91	1615.85
575.10	1503.21
575.30	1478.63
575.49	1554.41
575.69	1538.02
575.88	1562.60
576.08	1593.32
576.27	1654.76
576.47	1615.85
576.66	1658.85
576.86	1728.49
577.05	1595.37
577.25	1540.07
577.44	1652.71
577.64	1585.13
577.83	1611.75
578.02	1593.32
578.22	1658.85
578.41	1691.62
578.61	1591.27
578.80	1523.69
579.00	1519.59
579.19	1599.46
579.39	1560.55
579.58	1626.09
579.77	1599.46
579.97	1595.37
580.16	1669.09
580.36	1603.56
580.55	1656.81
580.75	1591.27
580.94	1581.03
581.13	1630.18
581.33	1673.19
581.52	1619.94
581.72	1644.52
581.91	1673.19
582.11	1568.74
582.30	1665.00
582.49	1542.12
582.69	1746.92
582.88	1621.99
583.08	1650.66
583.27	1638.38
583.47	1591.27
583.66	1540.07
583.85	1634.28
584.05	1591.27
584.24	1597.42
584.44	1665.00
584.63	1601.51
584.82	1624.04
585.02	1746.92
585.21	1804.26
585.41	1720.29
585.60	1677.29
585.79	1869.80
585.99	1804.26
586.18	1744.87
586.37	2009.06
586.57	3243.98
586.76	9713.52
586.96	27592.28
587.15	44232.03
587.34	54600.89
587.54	61684.82
587.73	59855.98
587.93	43840.87
588.12	32288.28
588.31	25820.79
588.51	21972.66
588.70	19689.17
588.89	18366.18
589.09	17018.62
589.28	15290.13
589.47	13168.44
589.67	11292.50
589.86	9070.45
590.06	6715.29
590.25	4990.90
590.44	3721.16
590.64	2867.16
590.83	2498.52
591.02	2070.50
591.22	1753.06
591.41	1822.69
591.60	1744.87
591.80	1693.67
591.99	1613.80
592.18	1648.61
592.38	1599.46
592.57	1562.60
592.76	1597.42
592.96	1656.81
593.15	1642.47
593.34	1603.56
593.54	1583.08
593.73	1640.42
593.92	1615.85
594.12	1562.60
594.31	1669.09
594.50	1730.53
594.70	1671.14
594.89	1693.67
595.08	1535.98
595.28	1546.22
595.47	1748.97
595.66	1665.00
595.86	1558.50
596.05	1535.98
596.24	1548.26
596.43	1656.81
596.63	1665.00
596.82	1624.04
597.01	1667.05
597.21	1628.14
597.40	1658.85
597.59	1550.31
597.79	1642.47
597.98	1665.00
598.17	1552.36
598.36	1603.56
598.56	1552.36
598.75	1560.55
598.94	1591.27
599.14	1607.66
599.33	1626.09
599.52	1556.46
599.71	1656.81
599.91	1538.02
600.10	1562.60
600.29	1574.89
600.48	1640.42
600.68	1568.74
600.87	1562.60
601.06	1544.17
601.26	1576.94
601.45	1589.22
601.64	1554.41
601.83	1624.04
602.03	1484.78
602.22	1564.65
602.41	1642.47
602.60	1615.85
602.80	1646.57
602.99	1599.46
603.18	1507.30
603.37	1593.32
603.57	1554.41
603.76	1683.43
603.95	1570.79
604.14	1542.12
604.34	1495.02
604.53	1599.46
604.72	1546.22
604.91	1568.74
605.10	1513.45
605.30	1460.20
605.49	1632.23
605.68	1593.32
605.87	1445.87
606.07	1593.32
606.26	1552.36
606.45	1576.94
606.64	1587.18
606.84	1542.12
607.03	1578.98
607.22	1636.33
607.41	1605.61
607.60	1509.35
607.80	1632.23
607.99	1587.18
608.18	1542.12
608.37	1564.65
608.56	1441.77
608.76	1634.28
608.95	1744.87
609.14	1540.07
609.33	1603.56
609.52	1722.34
609.72	1644.52
609.91	1607.66
610.10	1638.38
610.29	1662.95
610.48	1574.89
610.68	1566.70
610.87	1564.65
611.06	1589.22
611.25	1525.74
611.44	1593.32
611.63	1593.32
611.83	1527.78
612.02	1488.87
612.21	1523.69
612.40	1411.05
612.59	1513.45
612.79	1484.78
612.98	1525.74
613.17	1587.18
613.36	1550.31
613.55	1634.28
613.74	1503.21
613.93	1722.34
614.13	1728.49
614.32	1742.82
614.51	1765.35
614.70	1671.14
614.89	1597.42
615.08	1652.71
615.28	1920.99
615.47	1611.75
615.66	1652.71
615.85	1560.55
616.04	1714.15
616.23	1562.60
616.42	1628.14
616.62	1591.27
616.81	1624.04
617.00	1581.03
617.19	1607.66
617.38	1554.41
617.57	1673.19
617.76	1585.13
617.95	1609.70
618.15	1538.02
618.34	1640.42
618.53	1513.45
618.72	1660.90
618.91	1595.37
619.10	1673.19
619.29	1560.55
619.48	1576.94
619.68	1503.21
619.87	1497.07
620.06	1519.59
620.25	1597.42
620.44	1548.26
620.63	1542.12
620.82	1552.36
621.01	1603.56
621.20	1554.41
621.39	1544.17
621.59	1562.60
621.78	1628.14
621.97	1558.50
622.16	1589.22
622.35	1617.90
622.54	1546.22
622.73	1599.46
622.92	1435.63
623.11	1615.85
623.30	1505.26
623.49	1638.38
623.68	1445.87
623.88	1501.16
624.07	1628.14
624.26	1462.25
624.45	1511.40
624.64	1531.88
624.83	1533.93
625.02	1501.16
625.21	1583.08
625.40	1540.07
625.59	1585.13
625.78	1507.30
625.97	1626.09
626.16	1732.58
626.35	1613.80
626.54	1558.50
626.74	1636.33
626.93	1572.84
627.12	1576.94
627.31	1675.24
627.50	1574.89
627.69	1691.62
627.88	1550.31
628.07	1581.03
628.26	1486.83
628.45	1574.89
628.64	1509.35
628.83	1511.40
629.02	1443.82
629.21	1576.94
629.40	1585.13
629.59	1531.88
629.78	1544.17
629.97	1542.12
630.16	1581.03
630.35	1576.94
630.54	1478.63
630.73	1515.50
630.92	1562.60
631.11	1464.30
631.30	1523.69
631.49	1552.36
631.68	1529.83
631.87	1624.04
632.06	1439.72
632.25	1679.33
632.44	1574.89
632.63	1615.85
632.82	1597.42
633.01	1603.56
633.20	1654.76
633.39	1624.04
633.58	1619.94
633.77	1648.61
633.96	1605.61
634.15	1648.61
634.34	1599.46
634.53	1597.42
634.72	1578.98
634.91	1415.15
635.10	1538.02
635.29	1646.57
635.48	1513.45
635.67	1488.87
635.86	1527.78
636.05	1705.96
636.24	1540.07
636.43	1581.03
636.62	1531.88
636.81	1404.91
637.00	1517.54
637.19	1540.07
637.38	1593.32
637.57	1591.27
637.76	1560.55
637.95	1597.42
638.14	1646.57
638.33	1708.01
638.52	1615.85
638.71	1540.07
638.89	1619.94
639.08	1734.63
639.27	1558.50
639.46	1689.57
639.65	1912.80
639.84	2031.58
640.03	2215.90
640.22	2242.53
640.41	2201.57
640.60	1937.38
640.79	1886.18
640.98	1794.02
641.17	1812.45
641.36	1681.38
641.55	1705.96
641.74	1671.14
641.92	1693.67
642.11	1546.22
642.30	1566.70
642.49	1562.60
642.68	1630.18
642.87	1572.84
643.06	1609.70
643.25	1574.89
643.44	1501.16
643.63	1576.94
643.82	1599.46
644.00	1517.54
644.19	1488.87
644.38	1490.92
644.57	1603.56
644.76	1513.45
644.95	1529.83
645.14	1525.74
645.33	1587.18
645.52	1578.98
645.71	1478.63
645.89	1445.87
646.08	1525.74
646.27	1525.74
646.46	1611.75
646.65	1505.26
646.84	1564.65
647.03	1486.83
647.22	1642.47
647.40	1497.07
647.59	1535.98
647.78	1368.04
647.97	1566.70
648.16	1538.02
648.35	1511.40
648.54	1648.61
648.73	1531.88
648.91	1566.70
649.10	1517.54
649.29	1511.40
649.48	1488.87
649.67	1542.12
649.86	1560.55
650.05	1535.98
650.23	1703.91
650.42	1681.38
650.61	1767.40
650.80	1787.88
650.99	1771.49
651.18	1662.95
651.36	1640.42
651.55	1513.45
651.74	1599.46
651.93	1538.02
652.12	1540.07
652.31	1617.90
652.49	1552.36
652.68	1507.30
652.87	1669.09
653.06	1589.22
653.25	1607.66
653.44	1566.70
653.62	1638.38
653.81	1503.21
654.00	1533.93
654.19	1617.90
654.38	1697.77
654.56	1615.85
654.75	1558.50
654.94	1531.88
655.13	1566.70
655.32	1589.22
655.51	1574.89
655.69	1486.83
655.88	1619.94
656.07	1505.26
656.26	1607.66
656.45	1570.79
656.63	1538.02
656.82	1535.98
657.01	1636.33
657.20	1515.50
657.38	1597.42
657.57	1564.65
657.76	1464.30
657.95	1576.94
658.14	1519.59
658.32	1595.37
658.51	1445.87
658.70	1576.94
658.89	1601.51
659.08	1456.11
659.26	1603.56
659.45	1574.89
659.64	1548.26
659.83	1626.09
660.01	1798.12
660.20	1589.22
660.39	1669.09
660.58	1535.98
660.76	1642.47
660.95	1519.59
661.14	1521.64
661.33	1554.41
661.51	1611.75
661.70	1533.93
661.89	1560.55
662.08	1572.84
662.26	1583.08
662.45	1576.94
662.64	1665.00
662.83	1576.94
663.01	1619.94
663.20	1654.76
663.39	1603.56
663.58	1519.59
663.76	1644.52
663.95	1599.46
664.14	1503.21
664.32	1601.51
664.51	1560.55
664.70	1468.39
664.89	1503.21
665.07	1521.64
665.26	1656.81
665.45	1476.59
665.64	1656.81
665.82	1572.84
666.01	1583.08
666.20	1572.84
666.38	1654.76
666.57	1556.46
666.76	1808.36
666.95	2965.46
667.13	7790.47
667.32	15793.94
667.51	20344.52
667.69	23824.02
667.88	25413.24
668.07	22359.72
668.25	15517.46
668.44	12564.29
668.63	10082.15
668.81	8607.61
669.00	7892.87
669.19	6971.29
669.38	6404.00
669.56	5699.50
669.75	4892.60
669.94	4136.90
670.12	3459.02
670.31	2826.20
670.50	2392.03
670.68	2146.27
670.87	1912.80
671.06	1769.44
671.24	1769.44
671.43	1687.53
671.62	1634.28
671.80	1609.70
671.99	1658.85
672.18	1638.38
672.36	1599.46
672.55	1515.50
672.74	1621.99
672.92	1552.36
673.11	1660.90
673.29	1464.30
673.48	1628.14
673.67	1519.59
673.85	1673.19
674.04	1583.08
674.23	1515.50
674.41	1626.09
674.60	1486.83
674.79	1497.07
674.97	1525.74
675.16	1613.80
675.34	1560.55
675.53	1589.22
675.72	1568.74
675.90	1650.66
676.09	1542.12
676.28	1558.50
676.46	1488.87
676.65	1595.37
676.83	1482.73
677.02	1595.37
677.21	1490.92
677.39	1523.69
677.58	1509.35
677.77	1527.78
677.95	1554.41
678.14	1462.25
678.32	1468.39
678.51	1560.55
678.70	1656.81
678.88	1560.55
679.07	1607.66
679.25	1581.03
679.44	1525.74
679.63	1464.30
679.81	1599.46
680.00	1587.18
680.18	1480.68
680.37	1638.38
680.55	1556.46
680.74	1462.25
680.93	1452.01
681.11	1523.69
681.30	1509.35
681.48	1576.94
681.67	1482.73
681.85	1439.72
682.04	1433.58
682.23	1550.31
682.41	1531.88
682.60	1517.54
682.78	1509.35
682.97	1527.78
683.15	1570.79
683.34	1554.41
683.53	1556.46
683.71	1540.07
683.90	1634.28
684.08	1562.60
684.27	1509.35
684.45	1509.35
684.64	1560.55
684.82	1486.83
685.01	1486.83
685.19	1533.93
685.38	1585.13
685.57	1525.74
685.75	1490.92
685.94	1554.41
686.12	1460.20
686.31	1431.53
686.49	1578.98
686.68	1484.78
686.86	1576.94
687.05	1515.50
687.23	1546.22
687.42	1597.42
687.60	1462.25
687.79	1591.27
687.97	1624.04
688.16	1544.17
688.34	1642.47
688.53	1509.35
688.71	1568.74
688.90	1572.84
689.08	1595.37
689.27	1501.16
689.45	1574.89
689.64	1599.46
689.82	1624.04
690.01	1521.64
690.19	1533.93
690.38	1538.02
690.56	1632.23
690.75	1527.78
690.93	1480.68
691.12	1554.41
691.30	1509.35
691.49	1515.50
691.67	1566.70
691.86	1626.09
692.04	1503.21
692.23	1499.11
692.41	1587.18
692.60	1673.19
692.78	1644.52
692.97	1599.46
693.15	1617.90
693.34	1722.34
693.52	1636.33
693.71	1544.17
693.89	1574.89
694.08	1511.40
694.26	1578.98
694.44	1546.22
694.63	1595.37
694.81	1468.39
695.00	1538.02
695.18	1589.22
695.37	1679.33
695.55	1587.18
695.74	1566.70
695.92	1443.82
696.10	1626.09
696.29	1509.35
696.47	1568.74
696.66	1628.14
696.84	1521.64
697.03	1525.74
697.21	1689.57
697.40	2045.92
697.58	1583.08
697.76	1486.83
697.95	1566.70
698.13	1462.25
698.32	1505.26
698.50	1607.66
698.68	1583.08
698.87	1505.26
699.05	1574.89
699.24	1527.78
699.42	1521.64
699.61	1572.84
699.79	1531.88
699.97	1488.87
700.16	1443.82
700.34	1523.69
700.53	1583.08
700.71	1583.08
700.89	1591.27
701.08	1583.08
701.26	1535.98
701.45	2004.96
701.63	1583.08
701.81	1513.45
702.00	1548.26
702.18	1517.54
702.37	1521.64
702.55	1611.75
702.73	1710.05
702.92	1689.57
703.10	1775.59
703.28	1773.54
703.47	1705.96
703.65	1779.68
703.84	1730.53
704.02	1632.23
704.20	1718.25
704.39	1568.74
704.57	1589.22
704.75	1742.82
704.94	1673.19
705.12	1538.02
705.30	1609.70
705.49	1929.19
705.67	2799.57
705.86	7632.78
706.04	14700.32
706.22	18695.91
706.41	21986.99
706.59	23027.36
706.77	20666.05
706.96	14389.03
707.14	11745.10
707.32	9533.29
707.51	8644.48
707.69	7561.10
707.87	6731.67
708.06	5810.09
708.24	4745.14
708.42	3667.91
708.61	2938.84
708.79	2211.81
708.97	1927.14
709.16	1890.28
709.34	1662.95
709.52	1640.42
709.71	1626.09
709.89	1601.51
710.07	1538.02
710.26	1589.22
710.44	1587.18
710.62	1615.85
710.80	1603.56
710.99	1572.84
711.17	1574.89
711.35	1595.37
711.54	1497.07
711.72	1634.28
711.90	1589.22
712.09	1570.79
712.27	1560.55
712.45	1533.93
712.63	1488.87
712.82	1570.79
713.00	1540.07
713.18	1568.74
713.37	1591.27
713.55	1624.04
713.73	1566.70
713.91	1531.88
714.10	1589.22
714.28	1583.08
714.46	1517.54
714.65	1552.36
714.83	1562.60
715.01	1593.32
715.19	1546.22
715.38	1538.02
715.56	1562.60
715.74	1458.15
715.92	1501.16
716.11	1574.89
716.29	1470.44
716.47	1484.78
716.65	1527.78
716.84	1423.34
717.02	1583.08
717.20	1464.30
717.38	1535.98
717.57	1589.22
717.75	1587.18
717.93	1533.93
718.11	1607.66
718.30	1566.70
718.48	1529.83
718.66	1634.28
718.84	1509.35
719.03	1517.54
719.21	1523.69
719.39	1585.13
719.57	1533.93
719.75	1558.50
719.94	1521.64
720.12	1517.54
720.30	1591.27
720.48	1640.42
720.67	1521.64
720.85	1583.08
721.03	1511.40
721.21	1474.54
721.39	1646.57
721.58	1540.07
721.76	1581.03
721.94	1550.31
722.12	1552.36
722.30	1599.46
722.49	1492.97
722.67	1560.55
722.85	1560.55
723.03	1533.93
723.21	1540.07
723.40	1597.42
723.58	1540.07
723.76	1531.88
723.94	1673.19
724.12	1628.14
724.30	1644.52
724.49	1683.43
724.67	1615.85
724.85	1693.67
725.03	1558.50
725.21	1671.14
725.40	1628.14
725.58	1556.46
725.76	1619.94
725.94	1603.56
726.12	1581.03
726.30	1521.64
726.49	1548.26
726.67	1527.78
726.85	1597.42
727.03	1615.85
727.21	1697.77
727.39	2201.57
727.57	3237.84
727.76	4257.73
727.94	4751.29
728.12	5210.03
728.30	5189.55
728.48	4286.40
728.66	3542.99
728.84	3246.03
729.03	2783.19
729.21	2691.03
729.39	2439.13
729.57	1964.00
729.75	1908.71
729.93	1734.63
730.11	1660.90
730.30	1632.23
730.48	1544.17
730.66	1705.96
730.84	1554.41
731.02	1619.94
731.20	1542.12
731.38	1519.59
731.56	1490.92
731.74	1497.07
731.93	1527.78
732.11	1531.88
732.29	1501.16
732.47	1613.80
732.65	1535.98
732.83	1665.00
733.01	1601.51
733.19	1511.40
733.37	1576.94
733.56	1449.96
733.74	1556.46
733.92	1613.80
734.10	1531.88
734.28	1460.20
734.46	1503.21
734.64	1452.01
734.82	1566.70
735.00	1535.98
735.18	1556.46
735.36	1517.54
735.54	1640.42
735.73	1492.97
735.91	1576.94
736.09	1570.79
736.27	1624.04
736.45	1519.59
736.63	1468.39
736.81	1552.36
736.99	1546.22
737.17	1597.42
737.35	1505.26
737.53	1585.13
737.71	1501.16
737.89	1527.78
738.07	1591.27
738.25	1501.16
738.43	1523.69
738.61	1562.60
738.80	1529.83
738.98	1452.01
739.16	1562.60
739.34	1435.63
739.52	1591.27
739.70	1521.64
739.88	1542.12
740.06	1650.66
740.24	1437.67
740.42	1576.94
740.60	1431.53
740.78	1492.97
740.96	1464.30
741.14	1548.26
741.32	1550.31
741.50	1523.69
741.68	1615.85
741.86	1566.70
742.04	1529.83
742.22	1437.67
742.40	1632.23
742.58	1544.17
742.76	1492.97
742.94	1540.07
743.12	1531.88
743.30	1439.72
743.48	1560.55
743.66	1501.16
743.84	1611.75
744.02	1581.03
744.20	1495.02
744.38	1560.55
744.56	1529.83
744.74	1646.57
744.92	1589.22
745.10	1607.66
745.28	1542.12
745.46	1640.42
745.64	1507.30
745.82	1615.85
746.00	1560.55
746.18	1585.13
746.36	1470.44
746.54	1589.22
746.72	1517.54
746.90	1484.78
747.08	1540.07
747.26	1435.63
747.44	1550.31
747.62	1589.22
747.80	1515.50
747.98	1605.61
748.15	1472.49
748.33	1646.57
748.51	1552.36
748.69	1581.03
748.87	1445.87
749.05	1554.41
749.23	1603.56
749.41	1640.42
749.59	1552.36
749.77	1578.98
749.95	1497.07
750.13	1519.59
750.31	1603.56
750.49	1593.32
750.67	1624.04
750.85	1589.22
751.03	1564.65
751.20	1634.28
751.38	1542.12
751.56	1513.45
751.74	1535.98
751.92	1529.83
752.10	1505.26
752.28	1574.89
752.46	1519.59
752.64	1601.51
752.82	1574.89
753.00	1624.04
753.18	1570.79
753.35	1533.93
753.53	1482.73
753.71	1527.78
753.89	1595.37
754.07	1605.61
754.25	1583.08
754.43	1568.74
754.61	1535.98
754.79	1540.07
754.97	1540.07
755.14	1621.99
755.32	1570.79
755.50	1505.26
755.68	1558.50
755.86	1495.02
756.04	1513.45
756.22	1374.19
756.40	1552.36
756.57	1638.38
756.75	1501.16
756.93	1593.32
757.11	1587.18
757.29	1533.93
757.47	1396.71
757.65	1413.10
757.82	1478.63
758.00	1509.35
758.18	1538.02
758.36	1458.15
758.54	1587.18
758.72	1452.01
758.90	1599.46
759.07	1562.60
759.25	1521.64
759.43	1513.45
759.61	1538.02
759.79	1968.10
759.97	1554.41
760.15	1513.45
760.32	1488.87
760.50	1564.65
760.68	1648.61
760.86	1517.54
761.04	1652.71
761.22	1515.50
761.39	1572.84
761.57	1587.18
761.75	1570.79
761.93	1470.44
762.11	1560.55
762.28	1628.14
762.46	1507.30
762.64	1558.50
762.82	1564.65
763.00	1560.55
763.18	1667.05
763.35	1505.26
763.53	1521.64
763.71	1558.50
763.89	1503.21
764.07	1574.89
764.24	1531.88
764.42	1558.50
764.60	1560.55
764.78	1552.36
764.96	1613.80
765.13	1583.08
765.31	1546.22
765.49	1542.12
765.67	1449.96
765.84	1458.15
766.02	1519.59
766.20	1433.58
766.38	1554.41
766.56	1572.84
766.73	1576.94
766.91	1558.50
767.09	1505.26
767.27	1556.46
767.44	1456.11
767.62	1505.26
767.80	1535.98
767.98	1574.89
768.15	1607.66
768.33	1546.22
768.51	1607.66
768.69	1554.41
768.87	1601.51
769.04	1521.64
769.22	1634.28
769.40	1548.26
769.58	1619.94
769.75	1603.56
769.93	1630.18
770.11	1511.40
770.28	1488.87
770.46	1505.26
770.64	1554.41
770.82	1529.83
770.99	1556.46
771.17	1525.74
771.35	1558.50
771.53	1568.74
771.70	1544.17
771.88	1593.32
772.06	1505.26
772.23	1529.83
772.41	1533.93
772.59	1497.07
772.77	1503.21
772.94	1531.88
773.12	1562.60
773.30	1454.06
773.47	1572.84
773.65	1460.20
773.83	1597.42
774.01	1546.22
774.18	1503.21
774.36	1523.69
774.54	1462.25
774.71	1560.55
774.89	1439.72
775.07	1433.58
775.24	1527.78
775.42	1556.46
775.60	1570.79
775.78	1501.16
775.95	1390.57
776.13	1544.17
776.31	1452.01
776.48	1529.83
776.66	1599.46
776.84	1437.67
777.01	1521.64
777.19	1499.11
777.37	1488.87
777.54	1572.84
777.72	1722.34
777.90	1513.45
778.07	1513.45
778.25	1662.95
778.43	1613.80
778.60	1509.35
778.78	1574.89
778.96	1574.89
779.13	1515.50
779.31	1572.84
779.49	1581.03
779.66	1603.56
779.84	1546.22
780.01	1499.11
780.19	1521.64
780.37	1611.75
780.54	1562.60
780.72	1576.94
780.90	1480.68
781.07	1533.93
781.25	1570.79
781.43	1550.31
781.60	1509.35
781.78	1562.60
781.95	1552.36
782.13	1511.40
782.31	1574.89
782.48	1499.11
782.66	1544.17
782.83	1650.66
783.01	1556.46
783.19	1642.47
783.36	1525.74
783.54	1482.73
783.72	1583.08
783.89	1437.67
784.07	1560.55
784.24	1566.70
784.42	1617.90
784.60	1548.26
784.77	1521.64
784.95	1402.86
785.12	1507.30
785.30	1554.41
785.47	1509.35
785.65	1544.17
785.83	1519.59
786.00	1464.30
786.18	1509.35
786.35	1486.83
786.53	1482.73
786.71	1587.18
786.88	1550.31
787.06	1574.89
787.23	1540.07
787.41	1505.26
787.58	1564.65
787.76	1454.06
787.94	1531.88
788.11	1583.08
788.29	1558.50
788.46	1525.74
788.64	1462.25
788.81	1558.50
788.99	1552.36
789.16	1468.39
789.34	1593.32
789.52	1486.83
789.69	1527.78
789.87	1468.39
790.04	1527.78
790.22	1492.97
790.39	1662.95
790.57	1488.87
790.74	1468.39
790.92	1599.46
791.09	1468.39
791.27	1552.36
791.44	1619.94
791.62	1583.08
791.79	1525.74
791.97	1503.21
792.15	1673.19
792.32	1642.47
792.50	1599.46
792.67	1583.08
792.85	1652.71
793.02	1570.79
793.20	1595.37
793.37	1439.72
793.55	1497.07
793.72	1458.15
793.90	1603.56
794.07	1517.54
794.25	1527.78
794.42	1576.94
794.60	1521.64
794.77	1636.33
794.95	1507.30
795.12	1599.46
795.30	1542.12
795.47	1435.63
795.65	1728.49
795.82	1585.13
796.00	1574.89
796.17	1513.45
796.34	1552.36
796.52	1570.79
796.69	1511.40
796.87	1513.45
797.04	1474.54
797.22	1560.55
797.39	1499.11
797.57	1558.50
797.74	1560.55
797.92	1527.78
798.09	1533.93
798.27	1581.03
798.44	1540.07
798.62	1435.63
798.79	1558.50
798.96	1566.70
799.14	1554.41
799.31	1683.43
799.49	1447.91
799.66	1544.17
799.84	1527.78
800.01	1447.91
800.19	1593.32
800.36	1427.43
800.53	1503.21
800.71	1519.59
800.88	1617.90
801.06	1529.83
801.23	1507.30
801.41	1468.39
801.58	1439.72
801.75	1513.45
801.93	1546.22
802.10	1519.59
802.28	1628.14
802.45	1585.13
802.63	1519.59
802.80	1533.93
802.97	1531.88
803.15	1576.94
803.32	1558.50
803.50	1519.59
803.67	1468.39
803.84	1497.07
804.02	1544.17
804.19	1454.06
804.37	1415.15
804.54	1482.73
804.71	1519.59
804.89	1515.50
805.06	1521.64
805.24	1486.83
805.41	1556.46
805.58	1591.27
805.76	1632.23
805.93	1570.79
806.10	1640.42
806.28	1603.56
806.45	1525.74
806.63	1538.02
806.80	1572.84
806.97	1521.64
807.15	1613.80
807.32	1540.07
807.49	1533.93
807.67	1499.11
807.84	1488.87
808.01	1497.07
808.19	1665.00
808.36	1689.57
808.54	1449.96
808.71	1560.55
808.88	1552.36
809.06	1564.65
809.23	1599.46
809.40	1507.30
809.58	1617.90
809.75	1560.55
809.92	1478.63
810.10	1617.90
810.27	1474.54
810.44	1544.17
810.62	1566.70
810.79	1538.02
810.96	1447.91
811.14	1525.74
811.31	1603.56
811.48	1544.17
811.66	1495.02
811.83	1505.26
812.00	1542.12
812.18	1554.41
812.35	1599.46
812.52	1468.39
812.69	1484.78
812.87	1509.35
813.04	1533.93
813.21	1507.30
813.39	1519.59
813.56	1478.63
813.73	1535.98
813.91	1415.15
814.08	1488.87
814.25	1552.36
814.42	1472.49
814.60	1525.74
814.77	1478.63
814.94	1513.45
815.12	1570.79
815.29	1611.75
815.46	1558.50
815.63	1605.61
815.81	1464.30
815.98	1538.02
816.15	1490.92
816.33	1531.88
816.50	1574.89
816.67	1538.02
816.84	1482.73
817.02	1458.15
817.19	1513.45
817.36	1619.94
817.53	1529.83
817.71	1484.78
817.88	1583.08
818.05	1548.26
818.22	1527.78
818.40	1570.79
818.57	1558.50
818.74	1511.40
818.91	1562.60
819.09	1558.50
819.26	1578.98
819.43	1472.49
819.60	1511.40
819.78	1581.03
819.95	1531.88
820.12	1511.40
820.29	1667.05
820.47	1490.92
820.64	1513.45
820.81	1513.45
820.98	1513.45
821.15	1503.21
821.33	1519.59
821.50	1490.92
821.67	1581.03
821.84	1546.22
822.02	1638.38
822.19	1599.46
822.36	1505.26
822.53	1468.39
822.70	1497.07
822.88	1601.51
823.05	1648.61
823.22	1548.26
823.39	1488.87
823.56	1605.61
823.74	1548.26
823.91	1529.83
824.08	1488.87
824.25	1507.30
824.42	1562.60
824.60	1492.97
824.77	1554.41
824.94	1535.98
825.11	1562.60
825.28	1413.10
825.45	1490.92
825.63	1550.31
825.80	1501.16
825.97	1554.41
826.14	1468.39
826.31	1554.41
826.48	1570.79
826.66	1476.59
826.83	1490.92
827.00	1488.87
827.17	1527.78
827.34	1490.92
827.51	1505.26
827.69	1544.17
827.86	1478.63
828.03	1480.68
828.20	1507.30
828.37	1533.93
828.54	1638.38
828.71	1427.43
828.89	1658.85
829.06	1531.88
829.23	1624.04
829.40	1476.59
829.57	1458.15
829.74	1617.90
829.91	1470.44
830.09	1521.64
830.26	1615.85
830.43	1626.09
830.60	1454.06
830.77	1589.22
830.94	1576.94
831.11	1560.55
831.28	1593.32
831.46	1501.16
831.63	1552.36
831.80	1597.42
831.97	1566.70
832.14	1476.59
832.31	1538.02
832.48	1554.41
832.65	1529.83
832.82	1484.78
832.99	1482.73
833.17	1482.73
833.34	1626.09
833.51	1591.27
833.68	1439.72
833.85	1509.35
834.02	1513.45
834.19	1503.21
834.36	1447.91
834.53	1458.15
834.70	1601.51
834.87	1507.30
835.04	1554.41
835.22	1507.30
835.39	1544.17
835.56	1478.63
835.73	1511.40
835.90	1648.61
836.07	1544.17
836.24	1556.46
836.41	1468.39
836.58	1515.50
836.75	1488.87
836.92	1544.17
837.09	1419.24
837.26	1574.89
837.43	1605.61
837.60	1509.35
837.77	1566.70
837.94	1605.61
838.12	1658.85
838.29	1574.89
838.46	1447.91
838.63	1517.54
838.80	1572.84
838.97	1626.09
839.14	1521.64
839.31	1570.79
839.48	1578.98
839.65	1560.55
839.82	1601.51
839.99	1507.30
840.16	1480.68
840.33	1535.98
840.50	1501.16
840.67	1454.06
840.84	1480.68
841.01	1609.70
841.18	1513.45
841.35	1519.59
841.52	1593.32
841.69	1605.61
841.86	1501.16
842.03	1515.50
842.20	1617.90
842.37	1505.26
842.54	1435.63
842.71	1507.30
842.88	1525.74
843.05	1591.27
843.22	1468.39
843.39	1515.50
843.56	1542.12
843.73	1583.08
843.90	1560.55
844.07	1470.44
844.24	1615.85
844.41	1619.94
844.58	1560.55
844.75	1484.78
844.92	1583.08
845.09	1564.65
845.26	1544.17
845.43	1527.78
845.60	1542.12
845.77	1519.59
845.94	1558.50
846.10	1523.69
846.27	1464.30
846.44	1447.91
846.61	1468.39
846.78	1509.35
846.95	1554.41
847.12	1568.74
847.29	1529.83
847.46	1515.50
847.63	1554.41
847.80	1472.49
847.97	1527.78
848.14	1603.56
848.31	1501.16
848.48	1437.67
848.65	1554.41
848.82	1488.87
848.98	1638.38
849.15	1527.78
849.32	1564.65
849.49	1564.65
849.66	1548.26
849.83	1572.84
850.00	1535.98
850.17	1607.66
850.34	1554.41
850.51	1480.68
850.68	1458.15
850.85	1570.79
851.01	1599.46
851.18	1576.94
851.35	1546.22
851.52	1517.54
851.69	1556.46
851.86	1443.82
852.03	1562.60
852.20	1482.73
852.37	1564.65
852.53	1527.78
852.70	1468.39
852.87	1624.04
853.04	1650.66
853.21	1548.26
853.38	1521.64
853.55	1540.07
853.72	1589.22
853.89	1449.96
854.05	1552.36
854.22	1538.02
854.39	1476.59
854.56	1546.22
854.73	1535.98
854.90	1480.68
855.07	1488.87
855.23	1478.63
855.40	1495.02
855.57	1462.25
855.74	1370.09
855.91	1650.66
856.08	1492.97
856.25	1445.87
856.41	1570.79
856.58	1470.44
856.75	1513.45
856.92	1515.50
857.09	1544.17
857.26	1521.64
857.42	1513.45
857.59	1515.50
857.76	1460.20
857.93	1568.74
858.10	1544.17
858.27	1460.20
858.43	1599.46
858.60	1484.78
858.77	1419.24
858.94	1533.93
859.11	1546.22
859.27	1572.84
859.44	1513.45
859.61	1621.99
859.78	1527.78
859.95	1554.41
860.12	1523.69
860.28	1681.38
860.45	1642.47
860.62	1523.69
860.79	1562.60
860.95	1540.07
861.12	1538.02
861.29	1593.32
861.46	1492.97
861.63	1515.50
861.79	1613.80
861.96	1480.68
862.13	1499.11
862.30	1619.94
862.47	1583.08
862.63	1462.25
862.80	1581.03
862.97	1566.70
863.14	1581.03
863.30	1558.50
863.47	1495.02
863.64	1542.12
863.81	1583.08
863.97	1533.93
864.14	1452.01
864.31	1574.89
864.48	1499.11
864.65	1466.35
864.81	1589.22
864.98	1578.98
865.15	1601.51
865.32	1533.93
865.48	1585.13
865.65	1576.94
865.82	1441.77
865.98	1544.17
866.15	1599.46
866.32	1472.49
866.49	1533.93
866.65	1599.46
866.82	1492.97
866.99	1533.93
867.16	1495.02
867.32	1564.65
867.49	1511.40
867.66	1460.20
867.83	1560.55
867.99	1433.58
868.16	1581.03
868.33	1427.43
868.49	1542.12
868.66	1523.69
868.83	1568.74
868.99	1525.74
869.16	1636.33
869.33	1544.17
869.50	1546.22
869.66	1509.35
869.83	1548.26
870.00	1492.97
870.16	1589.22
870.33	1540.07
870.50	1560.55
870.66	1585.13
870.83	1585.13
871.00	1581.03
871.17	1595.37
871.33	1552.36
871.50	1568.74
871.67	1525.74
871.83	1544.17
872.00	1585.13
872.17	1503.21
872.33	1570.79
872.50	1525.74
872.67	1562.60
872.83	1562.60
873.00	1554.41
873.17	1513.45
873.33	1548.26
873.50	1570.79
873.67	1519.59
873.83	1511.40
874.00	1462.25
874.16	1636.33
874.33	1560.55
874.50	1464.30
874.66	1527.78
874.83	1605.61
875.00	1638.38
875.16	1601.51
875.33	1550.31
875.50	1490.92
875.66	1478.63
875.83	1527.78
875.99	1583.08
876.16	1554.41
876.33	1568.74
876.49	1501.16
876.66	1513.45
876.83	1576.94
876.99	1564.65
877.16	1540.07
877.32	1519.59
877.49	1525.74
877.66	1591.27
877.82	1587.18
877.99	1474.54
878.15	1574.89
878.32	1523.69
878.49	1519.59
878.65	1462.25
878.82	1560.55
878.98	1466.35
879.15	1597.42
879.32	1538.02
879.48	1558.50
879.65	1535.98
879.81	1492.97
879.98	1492.97
880.15	1492.97
880.31	1630.18
880.48	1527.78
880.64	1621.99
880.81	1564.65
880.97	1609.70
881.14	1525.74
881.31	1507.30
881.47	1597.42
881.64	1605.61
881.80	1458.15
881.97	1593.32
882.13	1650.66
882.30	1466.35
882.47	1523.69
882.63	1492.97
882.80	1554.41
882.96	1583.08
883.13	1542.12
883.29	1538.02
883.46	1538.02
883.62	1593.32
883.79	1583.08
883.95	1634.28
884.12	1576.94
884.29	1562.60
884.45	1576.94
884.62	1568.74
884.78	1542.12
884.95	1519.59
885.11	1535.98
885.28	1542.12
885.44	1554.41
885.61	1515.50
885.77	1533.93
885.94	1607.66
886.10	1550.31
886.27	1562.60
886.43	1665.00
886.60	1542.12
886.76	1576.94
886.93	1492.97
887.09	1443.82
887.26	1499.11
887.42	1525.74
887.59	1531.88
887.75	1656.81
887.92	1607.66
888.08	1667.05
888.25	1658.85
888.41	1593.32
888.58	1503.21
888.74	1523.69
888.91	1599.46
>>>>>End Processed Spectral Data<<<<<
