SpectraSuite Data File
++++++++++++++++++++++++++++++++++++
Date: Tue May 03 12:56:00 CEST 2016
User: root
Dark Spectrum Present: No
Reference Spectrum Present: No
Number of Sampled Component Spectra: 1
Spectrometers: USB4C02835
Integration Time (usec): 100000 (USB4C02835)
Spectra Averaged: 1 (USB4C02835)
Boxcar Smoothing: 0 (USB4C02835)
Correct for Electrical Dark: No (USB4C02835)
Strobe/Lamp Enabled: No (USB4C02835)
Correct for Detector Non-linearity: No (USB4C02835)
Correct for Stray Light: No (USB4C02835)
Number of Pixels in Processed Spectrum: 3648
>>>>>Begin Processed Spectral Data<<<<<
177.47	1363.95
177.69	1363.95
177.91	1363.95
178.13	1347.56
178.36	1320.94
178.58	1449.96
178.80	1538.02
179.02	1533.93
179.24	1535.98
179.46	1542.12
179.68	1634.28
179.90	1521.64
180.13	1607.66
180.35	1548.26
180.57	1523.69
180.79	1591.27
181.01	1443.82
181.23	1624.04
181.45	1497.07
181.67	1574.89
181.90	1499.11
182.12	1486.83
182.34	1447.91
182.56	1585.13
182.78	1560.55
183.00	1505.26
183.22	1560.55
183.44	1458.15
183.66	1642.47
183.89	1638.38
184.11	1540.07
184.33	1556.46
184.55	1656.81
184.77	1581.03
184.99	1478.63
185.21	1558.50
185.43	1656.81
185.65	1517.54
185.87	1507.30
186.10	1609.70
186.32	1701.86
186.54	1621.99
186.76	1517.54
186.98	1527.78
187.20	1464.30
187.42	1529.83
187.64	1497.07
187.86	1558.50
188.08	1568.74
188.30	1523.69
188.52	1503.21
188.75	1560.55
188.97	1542.12
189.19	1458.15
189.41	1568.74
189.63	1533.93
189.85	1396.71
190.07	1478.63
190.29	1447.91
190.51	1595.37
190.73	1462.25
190.95	1593.32
191.17	1540.07
191.39	1452.01
191.61	1497.07
191.84	1535.98
192.06	1619.94
192.28	1400.81
192.50	1714.15
192.72	1533.93
192.94	1581.03
193.16	1642.47
193.38	1554.41
193.60	1464.30
193.82	1527.78
194.04	1658.85
194.26	1513.45
194.48	1554.41
194.70	1495.02
194.92	1529.83
195.14	1566.70
195.36	1521.64
195.58	1476.59
195.80	1490.92
196.02	1505.26
196.24	1581.03
196.46	1511.40
196.69	1527.78
196.91	1656.81
197.13	1558.50
197.35	1497.07
197.57	1607.66
197.79	1525.74
198.01	1550.31
198.23	1615.85
198.45	1564.65
198.67	1468.39
198.89	1499.11
199.11	1548.26
199.33	1497.07
199.55	1480.68
199.77	1505.26
199.99	1617.90
200.21	1466.35
200.43	1587.18
200.65	1466.35
200.87	1488.87
201.09	1525.74
201.31	1525.74
201.53	1515.50
201.75	1490.92
201.97	1601.51
202.19	1484.78
202.41	1556.46
202.63	1654.76
202.85	1572.84
203.07	1585.13
203.29	1476.59
203.51	1540.07
203.73	1554.41
203.95	1681.38
204.17	1554.41
204.39	1521.64
204.61	1517.54
204.83	1525.74
205.05	1677.29
205.27	1552.36
205.49	1595.37
205.71	1540.07
205.93	1503.21
206.15	1464.30
206.37	1505.26
206.59	1523.69
206.81	1476.59
207.03	1419.24
207.25	1468.39
207.47	1609.70
207.69	1607.66
207.91	1566.70
208.13	1523.69
208.34	1509.35
208.56	1533.93
208.78	1544.17
209.00	1486.83
209.22	1480.68
209.44	1552.36
209.66	1490.92
209.88	1464.30
210.10	1501.16
210.32	1507.30
210.54	1576.94
210.76	1533.93
210.98	1558.50
211.20	1443.82
211.42	1552.36
211.64	1603.56
211.86	1558.50
212.08	1570.79
212.30	1509.35
212.52	1454.06
212.74	1564.65
212.96	1617.90
213.17	1619.94
213.39	1570.79
213.61	1527.78
213.83	1576.94
214.05	1521.64
214.27	1595.37
214.49	1468.39
214.71	1531.88
214.93	1611.75
215.15	1519.59
215.37	1556.46
215.59	1531.88
215.81	1566.70
216.03	1634.28
216.24	1617.90
216.46	1517.54
216.68	1560.55
216.90	1603.56
217.12	1550.31
217.34	1562.60
217.56	1527.78
217.78	1574.89
218.00	1511.40
218.22	1603.56
218.44	1542.12
218.66	1576.94
218.87	1624.04
219.09	1505.26
219.31	1576.94
219.53	1515.50
219.75	1533.93
219.97	1495.02
220.19	1593.32
220.41	1597.42
220.63	1609.70
220.85	1513.45
221.06	1499.11
221.28	1585.13
221.50	1521.64
221.72	1648.61
221.94	1554.41
222.16	1513.45
222.38	1546.22
222.60	1601.51
222.82	1503.21
223.03	1558.50
223.25	1492.97
223.47	1574.89
223.69	1542.12
223.91	1521.64
224.13	1562.60
224.35	1529.83
224.57	1636.33
224.78	1615.85
225.00	1544.17
225.22	1525.74
225.44	1591.27
225.66	1529.83
225.88	1468.39
226.10	1513.45
226.32	1605.61
226.53	1585.13
226.75	1486.83
226.97	1470.44
227.19	1640.42
227.41	1495.02
227.63	1495.02
227.85	1482.73
228.06	1538.02
228.28	1572.84
228.50	1589.22
228.72	1519.59
228.94	1527.78
229.16	1484.78
229.37	1574.89
229.59	1492.97
229.81	1558.50
230.03	1468.39
230.25	1468.39
230.47	1409.00
230.69	1472.49
230.90	1621.99
231.12	1576.94
231.34	1499.11
231.56	1615.85
231.78	1497.07
232.00	1529.83
232.21	1560.55
232.43	1486.83
232.65	1396.71
232.87	1593.32
233.09	1492.97
233.30	1486.83
233.52	1646.57
233.74	1535.98
233.96	1521.64
234.18	1523.69
234.40	1511.40
234.61	1621.99
234.83	1503.21
235.05	1531.88
235.27	1636.33
235.49	1609.70
235.70	1574.89
235.92	1613.80
236.14	1513.45
236.36	1626.09
236.58	1472.49
236.79	1546.22
237.01	1513.45
237.23	1566.70
237.45	1654.76
237.67	1595.37
237.88	1511.40
238.10	1656.81
238.32	1523.69
238.54	1521.64
238.76	1624.04
238.97	1591.27
239.19	1515.50
239.41	1679.33
239.63	1583.08
239.85	1542.12
240.06	1566.70
240.28	1591.27
240.50	1521.64
240.72	1564.65
240.93	1490.92
241.15	1591.27
241.37	1548.26
241.59	1611.75
241.81	1593.32
242.02	1535.98
242.24	1501.16
242.46	1581.03
242.68	1484.78
242.89	1558.50
243.11	1497.07
243.33	1599.46
243.55	1570.79
243.76	1578.98
243.98	1466.35
244.20	1615.85
244.42	1495.02
244.64	1492.97
244.85	1378.28
245.07	1619.94
245.29	1595.37
245.51	1523.69
245.72	1517.54
245.94	1675.24
246.16	1574.89
246.38	1632.23
246.59	1517.54
246.81	1495.02
247.03	1597.42
247.24	1509.35
247.46	1503.21
247.68	1525.74
247.90	1564.65
248.11	1535.98
248.33	1619.94
248.55	1454.06
248.77	1628.14
248.98	1611.75
249.20	1572.84
249.42	1523.69
249.64	1599.46
249.85	1558.50
250.07	1562.60
250.29	1570.79
250.50	1556.46
250.72	1501.16
250.94	1544.17
251.16	1564.65
251.37	1628.14
251.59	1478.63
251.81	1556.46
252.02	1644.52
252.24	1478.63
252.46	1560.55
252.68	1531.88
252.89	1460.20
253.11	1484.78
253.33	1669.09
253.54	1589.22
253.76	1511.40
253.98	1480.68
254.20	1517.54
254.41	1542.12
254.63	1544.17
254.85	1456.11
255.06	1546.22
255.28	1581.03
255.50	1503.21
255.71	1495.02
255.93	1437.67
256.15	1507.30
256.36	1540.07
256.58	1597.42
256.80	1540.07
257.02	1523.69
257.23	1540.07
257.45	1533.93
257.67	1544.17
257.88	1533.93
258.10	1619.94
258.32	1540.07
258.53	1529.83
258.75	1628.14
258.97	1488.87
259.18	1533.93
259.40	1503.21
259.62	1650.66
259.83	1562.60
260.05	1556.46
260.27	1699.81
260.48	1634.28
260.70	1472.49
260.92	1578.98
261.13	1552.36
261.35	1507.30
261.57	1570.79
261.78	1464.30
262.00	1435.63
262.22	1525.74
262.43	1540.07
262.65	1470.44
262.86	1542.12
263.08	1667.05
263.30	1570.79
263.51	1488.87
263.73	1538.02
263.95	1597.42
264.16	1513.45
264.38	1511.40
264.60	1587.18
264.81	1495.02
265.03	1546.22
265.25	1558.50
265.46	1585.13
265.68	1564.65
265.89	1554.41
266.11	1597.42
266.33	1527.78
266.54	1617.90
266.76	1486.83
266.98	1589.22
267.19	1583.08
267.41	1540.07
267.62	1447.91
267.84	1435.63
268.06	1609.70
268.27	1560.55
268.49	1646.57
268.70	1638.38
268.92	1613.80
269.14	1554.41
269.35	1542.12
269.57	1597.42
269.79	1599.46
270.00	1460.20
270.22	1626.09
270.43	1480.68
270.65	1447.91
270.87	1501.16
271.08	1574.89
271.30	1492.97
271.51	1513.45
271.73	1503.21
271.95	1646.57
272.16	1470.44
272.38	1517.54
272.59	1540.07
272.81	1581.03
273.02	1519.59
273.24	1542.12
273.46	1560.55
273.67	1470.44
273.89	1474.54
274.10	1523.69
274.32	1572.84
274.54	1576.94
274.75	1490.92
274.97	1556.46
275.18	1587.18
275.40	1492.97
275.61	1570.79
275.83	1544.17
276.05	1445.87
276.26	1599.46
276.48	1558.50
276.69	1447.91
276.91	1521.64
277.12	1548.26
277.34	1560.55
277.55	1523.69
277.77	1550.31
277.99	1476.59
278.20	1447.91
278.42	1538.02
278.63	1525.74
278.85	1542.12
279.06	1476.59
279.28	1607.66
279.49	1538.02
279.71	1595.37
279.93	1552.36
280.14	1542.12
280.36	1578.98
280.57	1550.31
280.79	1544.17
281.00	1509.35
281.22	1484.78
281.43	1656.81
281.65	1495.02
281.86	1464.30
282.08	1605.61
282.29	1634.28
282.51	1425.39
282.73	1490.92
282.94	1533.93
283.16	1630.18
283.37	1531.88
283.59	1511.40
283.80	1492.97
284.02	1583.08
284.23	1554.41
284.45	1482.73
284.66	1513.45
284.88	1558.50
285.09	1538.02
285.31	1628.14
285.52	1597.42
285.74	1427.43
285.95	1576.94
286.17	1572.84
286.38	1570.79
286.60	1495.02
286.81	1441.77
287.03	1495.02
287.24	1538.02
287.46	1574.89
287.67	1550.31
287.89	1640.42
288.10	1472.49
288.32	1587.18
288.53	1638.38
288.75	1490.92
288.96	1605.61
289.18	1478.63
289.39	1470.44
289.61	1562.60
289.82	1652.71
290.04	1581.03
290.25	1488.87
290.47	1529.83
290.68	1542.12
290.90	1564.65
291.11	1449.96
291.33	1540.07
291.54	1470.44
291.76	1513.45
291.97	1552.36
292.18	1570.79
292.40	1480.68
292.61	1468.39
292.83	1695.72
293.04	1581.03
293.26	1501.16
293.47	1576.94
293.69	1480.68
293.90	1544.17
294.12	1548.26
294.33	1531.88
294.55	1535.98
294.76	1546.22
294.97	1587.18
295.19	1564.65
295.40	1507.30
295.62	1583.08
295.83	1521.64
296.05	1597.42
296.26	1589.22
296.48	1484.78
296.69	1560.55
296.90	1490.92
297.12	1515.50
297.33	1595.37
297.55	1517.54
297.76	1525.74
297.98	1572.84
298.19	1519.59
298.41	1578.98
298.62	1484.78
298.83	1585.13
299.05	1519.59
299.26	1501.16
299.48	1495.02
299.69	1562.60
299.90	1636.33
300.12	1474.54
300.33	1533.93
300.55	1513.45
300.76	1593.32
300.98	1449.96
301.19	1554.41
301.40	1568.74
301.62	1466.35
301.83	1570.79
302.05	1546.22
302.26	1578.98
302.47	1486.83
302.69	1538.02
302.90	1495.02
303.12	1431.53
303.33	1583.08
303.54	1628.14
303.76	1570.79
303.97	1546.22
304.19	1626.09
304.40	1517.54
304.61	1632.23
304.83	1599.46
305.04	1640.42
305.26	1646.57
305.47	1554.41
305.68	1525.74
305.90	1443.82
306.11	1564.65
306.33	1509.35
306.54	1591.27
306.75	1517.54
306.97	1462.25
307.18	1515.50
307.39	1572.84
307.61	1511.40
307.82	1519.59
308.04	1529.83
308.25	1497.07
308.46	1607.66
308.68	1533.93
308.89	1550.31
309.10	1597.42
309.32	1591.27
309.53	1507.30
309.74	1531.88
309.96	1495.02
310.17	1566.70
310.39	1447.91
310.60	1597.42
310.81	1558.50
311.03	1452.01
311.24	1544.17
311.45	1601.51
311.67	1599.46
311.88	1476.59
312.09	1515.50
312.31	1501.16
312.52	1568.74
312.73	1535.98
312.95	1433.58
313.16	1447.91
313.37	1628.14
313.59	1535.98
313.80	1595.37
314.01	1593.32
314.23	1546.22
314.44	1615.85
314.65	1492.97
314.87	1456.11
315.08	1495.02
315.29	1490.92
315.51	1480.68
315.72	1474.54
315.93	1595.37
316.15	1613.80
316.36	1511.40
316.57	1470.44
316.79	1517.54
317.00	1521.64
317.21	1538.02
317.43	1464.30
317.64	1552.36
317.85	1535.98
318.07	1554.41
318.28	1656.81
318.49	1720.29
318.70	1773.54
318.92	1732.58
319.13	1687.53
319.34	1689.57
319.56	1642.47
319.77	1646.57
319.98	1611.75
320.20	1673.19
320.41	1538.02
320.62	1640.42
320.83	1513.45
321.05	1689.57
321.26	1587.18
321.47	1521.64
321.69	1570.79
321.90	1519.59
322.11	1566.70
322.32	1613.80
322.54	1566.70
322.75	1464.30
322.96	1632.23
323.18	1531.88
323.39	1409.00
323.60	1511.40
323.81	1595.37
324.03	1468.39
324.24	1564.65
324.45	1558.50
324.66	1490.92
324.88	1589.22
325.09	1648.61
325.30	1480.68
325.52	1540.07
325.73	1570.79
325.94	1535.98
326.15	1544.17
326.37	1548.26
326.58	1607.66
326.79	1558.50
327.00	1542.12
327.22	1611.75
327.43	1562.60
327.64	1492.97
327.85	1550.31
328.07	1568.74
328.28	1574.89
328.49	1419.24
328.70	1535.98
328.92	1478.63
329.13	1476.59
329.34	1554.41
329.55	1662.95
329.76	1572.84
329.98	1503.21
330.19	1599.46
330.40	1570.79
330.61	1497.07
330.83	1603.56
331.04	1511.40
331.25	1515.50
331.46	1552.36
331.68	1556.46
331.89	1630.18
332.10	1503.21
332.31	1484.78
332.52	1546.22
332.74	1478.63
332.95	1509.35
333.16	1535.98
333.37	1601.51
333.58	1546.22
333.80	1548.26
334.01	1495.02
334.22	1449.96
334.43	1441.77
334.64	1540.07
334.86	1511.40
335.07	1439.72
335.28	1599.46
335.49	1486.83
335.70	1591.27
335.92	1611.75
336.13	1619.94
336.34	1544.17
336.55	1585.13
336.76	1605.61
336.98	1484.78
337.19	1542.12
337.40	1617.90
337.61	1574.89
337.82	1566.70
338.04	1576.94
338.25	1480.68
338.46	1486.83
338.67	1488.87
338.88	1456.11
339.09	1529.83
339.31	1511.40
339.52	1501.16
339.73	1523.69
339.94	1607.66
340.15	1515.50
340.36	1542.12
340.58	1550.31
340.79	1507.30
341.00	1617.90
341.21	1495.02
341.42	1671.14
341.63	1587.18
341.85	1587.18
342.06	1564.65
342.27	1499.11
342.48	1593.32
342.69	1419.24
342.90	1636.33
343.12	1566.70
343.33	1472.49
343.54	1474.54
343.75	1525.74
343.96	1542.12
344.17	1478.63
344.38	1507.30
344.60	1546.22
344.81	1570.79
345.02	1517.54
345.23	1531.88
345.44	1667.05
345.65	1585.13
345.86	1517.54
346.07	1519.59
346.29	1533.93
346.50	1490.92
346.71	1533.93
346.92	1585.13
347.13	1683.43
347.34	1550.31
347.55	1527.78
347.76	1505.26
347.98	1445.87
348.19	1542.12
348.40	1570.79
348.61	1460.20
348.82	1621.99
349.03	1570.79
349.24	1511.40
349.45	1609.70
349.66	1505.26
349.88	1591.27
350.09	1492.97
350.30	1601.51
350.51	1642.47
350.72	1574.89
350.93	1542.12
351.14	1495.02
351.35	1566.70
351.56	1492.97
351.77	1497.07
351.99	1556.46
352.20	1656.81
352.41	1517.54
352.62	1441.77
352.83	1525.74
353.04	1517.54
353.25	1521.64
353.46	1531.88
353.67	1550.31
353.88	1429.48
354.09	1554.41
354.30	1480.68
354.52	1540.07
354.73	1486.83
354.94	1509.35
355.15	1574.89
355.36	1605.61
355.57	1439.72
355.78	1538.02
355.99	1550.31
356.20	1568.74
356.41	1566.70
356.62	1570.79
356.83	1587.18
357.04	1515.50
357.25	1456.11
357.46	1538.02
357.68	1511.40
357.89	1529.83
358.10	1523.69
358.31	1562.60
358.52	1462.25
358.73	1474.54
358.94	1505.26
359.15	1542.12
359.36	1552.36
359.57	1501.16
359.78	1587.18
359.99	1574.89
360.20	1527.78
360.41	1540.07
360.62	1558.50
360.83	1515.50
361.04	1544.17
361.25	1552.36
361.46	1615.85
361.67	1531.88
361.88	1558.50
362.09	1585.13
362.30	1538.02
362.51	1527.78
362.72	1597.42
362.93	1468.39
363.14	1566.70
363.35	1597.42
363.56	1546.22
363.78	1593.32
363.99	1517.54
364.20	1464.30
364.41	1535.98
364.62	1617.90
364.83	1544.17
365.04	1556.46
365.25	1546.22
365.46	1603.56
365.67	1515.50
365.88	1576.94
366.09	1554.41
366.30	1464.30
366.51	1509.35
366.72	1525.74
366.93	1499.11
367.14	1480.68
367.35	1615.85
367.56	1519.59
367.77	1607.66
367.98	1564.65
368.18	1576.94
368.39	1566.70
368.60	1531.88
368.81	1603.56
369.02	1523.69
369.23	1517.54
369.44	1503.21
369.65	1544.17
369.86	1550.31
370.07	1636.33
370.28	1468.39
370.49	1456.11
370.70	1589.22
370.91	1529.83
371.12	1482.73
371.33	1660.90
371.54	1605.61
371.75	1675.24
371.96	1468.39
372.17	1597.42
372.38	1546.22
372.59	1470.44
372.80	1576.94
373.01	1558.50
373.22	1560.55
373.43	1535.98
373.64	1452.01
373.85	1509.35
374.06	1648.61
374.26	1517.54
374.47	1583.08
374.68	1619.94
374.89	1529.83
375.10	1546.22
375.31	1574.89
375.52	1589.22
375.73	1603.56
375.94	1540.07
376.15	1587.18
376.36	1550.31
376.57	1523.69
376.78	1482.73
376.99	1601.51
377.20	1581.03
377.40	1511.40
377.61	1669.09
377.82	1603.56
378.03	1585.13
378.24	1533.93
378.45	1499.11
378.66	1544.17
378.87	1513.45
379.08	1460.20
379.29	1523.69
379.50	1601.51
379.71	1570.79
379.91	1550.31
380.12	1568.74
380.33	1574.89
380.54	1523.69
380.75	1515.50
380.96	1511.40
381.17	1632.23
381.38	1568.74
381.59	1527.78
381.80	1652.71
382.00	1748.97
382.21	1591.27
382.42	1679.33
382.63	1755.11
382.84	1630.18
383.05	1624.04
383.26	1693.67
383.47	1572.84
383.68	1548.26
383.88	1593.32
384.09	1527.78
384.30	1646.57
384.51	1564.65
384.72	1562.60
384.93	1492.97
385.14	1482.73
385.35	1552.36
385.55	1492.97
385.76	1626.09
385.97	1531.88
386.18	1480.68
386.39	1505.26
386.60	1538.02
386.81	1578.98
387.02	1548.26
387.22	1495.02
387.43	1640.42
387.64	1621.99
387.85	1843.17
388.06	3254.22
388.27	7169.94
388.48	10473.31
388.68	12443.46
388.89	13934.38
389.10	12869.44
389.31	10086.25
389.52	8816.51
389.73	7755.66
389.93	7356.30
390.14	6959.00
390.35	6180.77
390.56	5619.63
390.77	4476.86
390.98	3557.32
391.18	2828.24
391.39	2187.23
391.60	1781.73
391.81	1652.71
392.02	1531.88
392.23	1630.18
392.43	1621.99
392.64	1564.65
392.85	1609.70
393.06	1617.90
393.27	1642.47
393.47	1482.73
393.68	1568.74
393.89	1488.87
394.10	1597.42
394.31	1552.36
394.52	1458.15
394.72	1466.35
394.93	1591.27
395.14	1490.92
395.35	1562.60
395.56	1513.45
395.76	1566.70
395.97	1716.20
396.18	1732.58
396.39	1722.34
396.60	1904.61
396.80	1771.49
397.01	1820.64
397.22	1630.18
397.43	1697.77
397.64	1595.37
397.84	1695.72
398.05	1621.99
398.26	1566.70
398.47	1583.08
398.67	1607.66
398.88	1589.22
399.09	1538.02
399.30	1550.31
399.51	1630.18
399.71	1470.44
399.92	1574.89
400.13	1509.35
400.34	1593.32
400.54	1497.07
400.75	1609.70
400.96	1607.66
401.17	1615.85
401.37	1497.07
401.58	1464.30
401.79	1613.80
402.00	1773.54
402.21	1966.05
402.41	1914.85
402.62	1925.09
402.83	1980.39
403.04	1853.41
403.24	1882.08
403.45	1615.85
403.66	1757.16
403.87	1652.71
404.07	1810.40
404.28	1767.40
404.49	1716.20
404.70	1583.08
404.90	1652.71
405.11	1488.87
405.32	1595.37
405.52	1544.17
405.73	1503.21
405.94	1480.68
406.15	1621.99
406.35	1525.74
406.56	1574.89
406.77	1558.50
406.98	1656.81
407.18	1499.11
407.39	1574.89
407.60	1460.20
407.80	1583.08
408.01	1585.13
408.22	1550.31
408.43	1488.87
408.63	1593.32
408.84	1568.74
409.05	1552.36
409.25	1525.74
409.46	1521.64
409.67	1564.65
409.88	1501.16
410.08	1558.50
410.29	1513.45
410.50	1513.45
410.70	1587.18
410.91	1558.50
411.12	1601.51
411.32	1538.02
411.53	1566.70
411.74	1679.33
411.95	1581.03
412.15	1634.28
412.36	1689.57
412.57	1570.79
412.77	1634.28
412.98	1552.36
413.19	1533.93
413.39	1624.04
413.60	1591.27
413.81	1585.13
414.01	1558.50
414.22	1613.80
414.43	1667.05
414.63	1480.68
414.84	1611.75
415.05	1576.94
415.25	1517.54
415.46	1574.89
415.67	1509.35
415.87	1581.03
416.08	1521.64
416.29	1564.65
416.49	1591.27
416.70	1517.54
416.91	1527.78
417.11	1544.17
417.32	1527.78
417.53	1636.33
417.73	1617.90
417.94	1544.17
418.15	1619.94
418.35	1497.07
418.56	1540.07
418.77	1642.47
418.97	1621.99
419.18	1531.88
419.38	1470.44
419.59	1468.39
419.80	1665.00
420.00	1556.46
420.21	1572.84
420.42	1562.60
420.62	1519.59
420.83	1542.12
421.04	1511.40
421.24	1583.08
421.45	1531.88
421.65	1558.50
421.86	1581.03
422.07	1644.52
422.27	1548.26
422.48	1581.03
422.69	1497.07
422.89	1499.11
423.10	1538.02
423.30	1431.53
423.51	1544.17
423.72	1462.25
423.92	1638.38
424.13	1398.76
424.33	1566.70
424.54	1603.56
424.75	1605.61
424.95	1535.98
425.16	1603.56
425.36	1521.64
425.57	1542.12
425.78	1568.74
425.98	1624.04
426.19	1535.98
426.39	1495.02
426.60	1583.08
426.81	1673.19
427.01	1509.35
427.22	1513.45
427.42	1425.39
427.63	1488.87
427.83	1515.50
428.04	1533.93
428.25	1554.41
428.45	1615.85
428.66	1535.98
428.86	1568.74
429.07	1544.17
429.28	1521.64
429.48	1538.02
429.69	1488.87
429.89	1552.36
430.10	1472.49
430.30	1560.55
430.51	1621.99
430.71	1464.30
430.92	1527.78
431.13	1478.63
431.33	1566.70
431.54	1601.51
431.74	1619.94
431.95	1591.27
432.15	1517.54
432.36	1566.70
432.56	1511.40
432.77	1544.17
432.98	1634.28
433.18	1472.49
433.39	1527.78
433.59	1443.82
433.80	1658.85
434.00	1654.76
434.21	1587.18
434.41	1509.35
434.62	1617.90
434.82	1480.68
435.03	1492.97
435.23	1570.79
435.44	1443.82
435.64	1470.44
435.85	1509.35
436.06	1593.32
436.26	1650.66
436.47	1458.15
436.67	1511.40
436.88	1492.97
437.08	1611.75
437.29	1648.61
437.49	1546.22
437.70	1521.64
437.90	1533.93
438.11	1708.01
438.31	1705.96
438.52	1642.47
438.72	1703.91
438.93	1710.05
439.13	1566.70
439.34	1640.42
439.54	1624.04
439.75	1552.36
439.95	1640.42
440.16	1468.39
440.36	1593.32
440.57	1609.70
440.77	1576.94
440.98	1589.22
441.18	1591.27
441.39	1556.46
441.59	1470.44
441.80	1638.38
442.00	1527.78
442.21	1624.04
442.41	1406.95
442.62	1605.61
442.82	1533.93
443.02	1568.74
443.23	1521.64
443.43	1628.14
443.64	1562.60
443.84	1529.83
444.05	1644.52
444.25	1607.66
444.46	1540.07
444.66	1523.69
444.87	1624.04
445.07	1464.30
445.28	1603.56
445.48	1714.15
445.69	1570.79
445.89	1765.35
446.09	1591.27
446.30	2033.63
446.50	3266.51
446.71	4591.55
446.91	5269.42
447.12	5642.15
447.32	5523.37
447.53	4716.47
447.73	3909.57
447.93	3684.30
448.14	3336.14
448.34	3239.89
448.55	2904.02
448.75	2957.27
448.96	2805.72
449.16	2410.46
449.36	2176.99
449.57	2011.11
449.77	1863.65
449.98	1632.23
450.18	1640.42
450.39	1658.85
450.59	1611.75
450.79	1535.98
451.00	1517.54
451.20	1601.51
451.41	1535.98
451.61	1619.94
451.81	1550.31
452.02	1503.21
452.22	1503.21
452.43	1544.17
452.63	1472.49
452.84	1533.93
453.04	1478.63
453.24	1564.65
453.45	1443.82
453.65	1511.40
453.86	1548.26
454.06	1597.42
454.26	1630.18
454.47	1464.30
454.67	1517.54
454.87	1535.98
455.08	1490.92
455.28	1656.81
455.49	1611.75
455.69	1427.43
455.89	1636.33
456.10	1550.31
456.30	1570.79
456.51	1497.07
456.71	1570.79
456.91	1591.27
457.12	1517.54
457.32	1593.32
457.52	1525.74
457.73	1595.37
457.93	1570.79
458.14	1441.77
458.34	1509.35
458.54	1460.20
458.75	1519.59
458.95	1521.64
459.15	1556.46
459.36	1599.46
459.56	1578.98
459.76	1619.94
459.97	1556.46
460.17	1578.98
460.37	1605.61
460.58	1548.26
460.78	1503.21
460.99	1621.99
461.19	1501.16
461.39	1495.02
461.60	1490.92
461.80	1564.65
462.00	1474.54
462.21	1566.70
462.41	1509.35
462.61	1527.78
462.82	1523.69
463.02	1603.56
463.22	1492.97
463.43	1630.18
463.63	1574.89
463.83	1519.59
464.04	1554.41
464.24	1535.98
464.44	1452.01
464.64	1552.36
464.85	1552.36
465.05	1558.50
465.25	1529.83
465.46	1490.92
465.66	1595.37
465.86	1613.80
466.07	1531.88
466.27	1583.08
466.47	1507.30
466.68	1470.44
466.88	1624.04
467.08	1558.50
467.29	1560.55
467.49	1538.02
467.69	1570.79
467.89	1574.89
468.10	1564.65
468.30	1540.07
468.50	1591.27
468.71	1615.85
468.91	1476.59
469.11	1621.99
469.31	1587.18
469.52	1578.98
469.72	1587.18
469.92	1691.62
470.13	1531.88
470.33	1560.55
470.53	1730.53
470.73	2064.35
470.94	2324.44
471.14	2473.95
471.34	2637.78
471.54	2385.88
471.75	2176.99
471.95	2050.02
472.15	1947.62
472.36	1902.56
472.56	1914.85
472.76	1976.29
472.96	1896.42
473.17	1898.47
473.37	1814.50
473.57	1671.14
473.77	1679.33
473.98	1648.61
474.18	1519.59
474.38	1638.38
474.58	1546.22
474.79	1581.03
474.99	1581.03
475.19	1609.70
475.39	1507.30
475.60	1550.31
475.80	1552.36
476.00	1601.51
476.20	1535.98
476.41	1660.90
476.61	1581.03
476.81	1691.62
477.01	1492.97
477.21	1660.90
477.42	1636.33
477.62	1468.39
477.82	1574.89
478.02	1591.27
478.23	1529.83
478.43	1454.06
478.63	1495.02
478.83	1589.22
479.03	1554.41
479.24	1583.08
479.44	1597.42
479.64	1570.79
479.84	1439.72
480.04	1529.83
480.25	1562.60
480.45	1415.15
480.65	1542.12
480.85	1593.32
481.06	1578.98
481.26	1570.79
481.46	1591.27
481.66	1546.22
481.86	1449.96
482.06	1476.59
482.27	1546.22
482.47	1525.74
482.67	1554.41
482.87	1521.64
483.07	1675.24
483.28	1538.02
483.48	1478.63
483.68	1544.17
483.88	1509.35
484.08	1437.67
484.29	1591.27
484.49	1583.08
484.69	1525.74
484.89	1624.04
485.09	1533.93
485.29	1538.02
485.50	1589.22
485.70	1607.66
485.90	1523.69
486.10	1497.07
486.30	1529.83
486.50	1613.80
486.71	1601.51
486.91	1642.47
487.11	1671.14
487.31	1458.15
487.51	1521.64
487.71	1581.03
487.91	1511.40
488.12	1427.43
488.32	1361.90
488.52	1542.12
488.72	1480.68
488.92	1556.46
489.12	1476.59
489.32	1572.84
489.53	1587.18
489.73	1552.36
489.93	1546.22
490.13	1501.16
490.33	1503.21
490.53	1578.98
490.73	1560.55
490.94	1497.07
491.14	1611.75
491.34	1712.10
491.54	2166.75
491.74	2736.09
491.94	3131.34
492.14	3385.29
492.34	3309.52
492.54	2764.76
492.75	2537.43
492.95	2312.16
493.15	2217.95
493.35	2205.66
493.55	2129.89
493.75	2064.35
493.95	2129.89
494.15	1910.75
494.35	1849.32
494.56	1785.83
494.76	1673.19
494.96	1679.33
495.16	1630.18
495.36	1505.26
495.56	1585.13
495.76	1529.83
495.96	1585.13
496.16	1507.30
496.36	1619.94
496.56	1550.31
496.77	1617.90
496.97	1538.02
497.17	1570.79
497.37	1566.70
497.57	1605.61
497.77	1525.74
497.97	1521.64
498.17	1527.78
498.37	1558.50
498.57	1605.61
498.77	1554.41
498.97	1679.33
499.17	1591.27
499.38	1515.50
499.58	1628.14
499.78	1538.02
499.98	1675.24
500.18	1517.54
500.38	1501.16
500.58	1773.54
500.78	2666.46
500.98	5218.22
501.18	6756.25
501.38	8146.82
501.58	8671.10
501.78	7896.97
501.98	6113.19
502.18	5418.93
502.38	4661.18
502.58	4245.44
502.78	3813.32
502.98	3729.35
503.18	3655.62
503.38	3321.81
503.59	2990.03
503.79	2748.37
503.99	2623.45
504.19	2240.48
504.39	2093.02
504.59	2109.41
504.79	2072.54
504.99	1925.09
505.19	1816.55
505.39	1695.72
505.59	1789.92
505.79	1734.63
505.99	1652.71
506.19	1654.76
506.39	1644.52
506.59	1636.33
506.79	1548.26
506.99	1605.61
507.19	1609.70
507.39	1480.68
507.59	1497.07
507.79	1607.66
507.99	1466.35
508.19	1492.97
508.39	1552.36
508.59	1593.32
508.79	1646.57
508.99	1665.00
509.19	1533.93
509.39	1558.50
509.59	1503.21
509.79	1523.69
509.99	1576.94
510.19	1603.56
510.39	1591.27
510.59	1566.70
510.79	1521.64
510.99	1527.78
511.19	1574.89
511.39	1652.71
511.59	1529.83
511.79	1578.98
511.99	1564.65
512.19	1593.32
512.38	1599.46
512.58	1566.70
512.78	1601.51
512.98	1595.37
513.18	1581.03
513.38	1492.97
513.58	1552.36
513.78	1525.74
513.98	1570.79
514.18	1523.69
514.38	1583.08
514.58	1519.59
514.78	1533.93
514.98	1533.93
515.18	1599.46
515.38	1538.02
515.58	1685.48
515.78	1554.41
515.98	1521.64
516.18	1550.31
516.38	1509.35
516.57	1533.93
516.77	1548.26
516.97	1570.79
517.17	1519.59
517.37	1533.93
517.57	1589.22
517.77	1613.80
517.97	1517.54
518.17	1615.85
518.37	1542.12
518.57	1542.12
518.77	1576.94
518.97	1447.91
519.16	1601.51
519.36	1568.74
519.56	1519.59
519.76	1558.50
519.96	1527.78
520.16	1658.85
520.36	1554.41
520.56	1601.51
520.76	1527.78
520.96	1572.84
521.16	1538.02
521.35	1591.27
521.55	1544.17
521.75	1554.41
521.95	1533.93
522.15	1587.18
522.35	1482.73
522.55	1540.07
522.75	1626.09
522.95	1468.39
523.14	1497.07
523.34	1548.26
523.54	1564.65
523.74	1513.45
523.94	1523.69
524.14	1406.95
524.34	1564.65
524.54	1568.74
524.73	1568.74
524.93	1511.40
525.13	1550.31
525.33	1470.44
525.53	1726.44
525.73	1542.12
525.93	1544.17
526.13	1529.83
526.32	1531.88
526.52	1521.64
526.72	1578.98
526.92	1589.22
527.12	1490.92
527.32	1443.82
527.52	1519.59
527.71	1531.88
527.91	1581.03
528.11	1478.63
528.31	1454.06
528.51	1484.78
528.71	1538.02
528.90	1621.99
529.10	1564.65
529.30	1615.85
529.50	1433.58
529.70	1552.36
529.90	1576.94
530.09	1583.08
530.29	1499.11
530.49	1462.25
530.69	1611.75
530.89	1603.56
531.09	1574.89
531.28	1538.02
531.48	1505.26
531.68	1529.83
531.88	1501.16
532.08	1669.09
532.28	1525.74
532.47	1628.14
532.67	1521.64
532.87	1626.09
533.07	1568.74
533.27	1656.81
533.46	1591.27
533.66	1572.84
533.86	1605.61
534.06	1546.22
534.26	1611.75
534.45	1513.45
534.65	1544.17
534.85	1529.83
535.05	1638.38
535.25	1626.09
535.44	1589.22
535.64	1603.56
535.84	1503.21
536.04	1495.02
536.24	1552.36
536.43	1544.17
536.63	1558.50
536.83	1523.69
537.03	1574.89
537.22	1525.74
537.42	1452.01
537.62	1535.98
537.82	1568.74
538.02	1544.17
538.21	1566.70
538.41	1638.38
538.61	1570.79
538.81	1535.98
539.00	1546.22
539.20	1542.12
539.40	1529.83
539.60	1599.46
539.79	1525.74
539.99	1583.08
540.19	1523.69
540.39	1497.07
540.58	1574.89
540.78	1581.03
540.98	1535.98
541.18	1597.42
541.37	1607.66
541.57	1525.74
541.77	1624.04
541.97	1398.76
542.16	1503.21
542.36	1509.35
542.56	1665.00
542.76	1615.85
542.95	1511.40
543.15	1605.61
543.35	1552.36
543.54	1566.70
543.74	1529.83
543.94	1576.94
544.14	1495.02
544.33	1556.46
544.53	1564.65
544.73	1470.44
544.93	1533.93
545.12	1515.50
545.32	1554.41
545.52	1556.46
545.71	1556.46
545.91	1546.22
546.11	1521.64
546.30	1417.19
546.50	1523.69
546.70	1497.07
546.90	1509.35
547.09	1468.39
547.29	1540.07
547.49	1540.07
547.68	1566.70
547.88	1511.40
548.08	1607.66
548.27	1925.09
548.47	1501.16
548.67	1531.88
548.87	1550.31
549.06	1505.26
549.26	1566.70
549.46	1552.36
549.65	1566.70
549.85	1605.61
550.05	1658.85
550.24	1470.44
550.44	1462.25
550.64	1542.12
550.83	1527.78
551.03	1589.22
551.23	1607.66
551.42	1593.32
551.62	1531.88
551.82	1638.38
552.01	1546.22
552.21	1605.61
552.41	1587.18
552.60	1615.85
552.80	1535.98
553.00	1566.70
553.19	1531.88
553.39	1605.61
553.59	1468.39
553.78	1591.27
553.98	1587.18
554.17	1544.17
554.37	1591.27
554.57	1497.07
554.76	1484.78
554.96	1503.21
555.16	1490.92
555.35	1572.84
555.55	1621.99
555.75	1660.90
555.94	1560.55
556.14	1490.92
556.33	1554.41
556.53	1548.26
556.73	1533.93
556.92	1597.42
557.12	1648.61
557.32	1615.85
557.51	1603.56
557.71	1595.37
557.90	1599.46
558.10	1595.37
558.30	1482.73
558.49	1511.40
558.69	1519.59
558.88	1595.37
559.08	1521.64
559.28	1538.02
559.47	1595.37
559.67	1574.89
559.86	1628.14
560.06	1529.83
560.26	1509.35
560.45	1574.89
560.65	1497.07
560.84	1490.92
561.04	1486.83
561.24	1544.17
561.43	1597.42
561.63	1568.74
561.82	1562.60
562.02	1576.94
562.22	1468.39
562.41	1548.26
562.61	1429.48
562.80	1611.75
563.00	1650.66
563.19	1540.07
563.39	1603.56
563.59	1566.70
563.78	1470.44
563.98	1400.81
564.17	1593.32
564.37	1538.02
564.56	1621.99
564.76	1509.35
564.96	1603.56
565.15	1486.83
565.35	1611.75
565.54	1527.78
565.74	1544.17
565.93	1560.55
566.13	1548.26
566.32	1447.91
566.52	1591.27
566.71	1464.30
566.91	1615.85
567.11	1486.83
567.30	1484.78
567.50	1556.46
567.69	1609.70
567.89	1529.83
568.08	1554.41
568.28	1503.21
568.47	1517.54
568.67	1523.69
568.86	1515.50
569.06	1613.80
569.25	1515.50
569.45	1531.88
569.64	1497.07
569.84	1581.03
570.04	1578.98
570.23	1523.69
570.43	1488.87
570.62	1558.50
570.82	1578.98
571.01	1538.02
571.21	1578.98
571.40	1521.64
571.60	1601.51
571.79	1613.80
571.99	1597.42
572.18	1486.83
572.38	1578.98
572.57	1554.41
572.77	1531.88
572.96	1628.14
573.16	1486.83
573.35	1593.32
573.55	1583.08
573.74	1566.70
573.94	1535.98
574.13	1568.74
574.33	1705.96
574.52	1638.38
574.71	1560.55
574.91	1572.84
575.10	1511.40
575.30	1492.97
575.49	1456.11
575.69	1574.89
575.88	1605.61
576.08	1613.80
576.27	1656.81
576.47	1585.13
576.66	1669.09
576.86	1621.99
577.05	1535.98
577.25	1609.70
577.44	1665.00
577.64	1583.08
577.83	1630.18
578.02	1533.93
578.22	1667.05
578.41	1681.38
578.61	1607.66
578.80	1527.78
579.00	1548.26
579.19	1564.65
579.39	1650.66
579.58	1675.24
579.77	1550.31
579.97	1718.25
580.16	1710.05
580.36	1648.61
580.55	1589.22
580.75	1595.37
580.94	1628.14
581.13	1669.09
581.33	1775.59
581.52	1556.46
581.72	1742.82
581.91	1683.43
582.11	1589.22
582.30	1626.09
582.49	1593.32
582.69	1624.04
582.88	1603.56
583.08	1603.56
583.27	1689.57
583.47	1578.98
583.66	1535.98
583.85	1609.70
584.05	1611.75
584.24	1650.66
584.44	1685.48
584.63	1617.90
584.82	1695.72
585.02	1681.38
585.21	1738.73
585.41	1744.87
585.60	1720.29
585.79	1853.41
585.99	1763.30
586.18	1857.51
586.37	2045.92
586.57	3295.18
586.76	9604.97
586.96	27485.79
587.15	43578.73
587.34	54222.02
587.54	61402.20
587.73	59198.58
587.93	43437.42
588.12	32298.52
588.31	25601.66
588.51	22128.30
588.70	19846.87
588.89	18403.05
589.09	16877.31
589.28	15169.30
589.47	13125.43
589.67	11079.51
589.86	8902.52
590.06	6762.39
590.25	5164.98
590.44	3770.31
590.64	2949.08
590.83	2336.73
591.02	2084.83
591.22	1822.69
591.41	1822.69
591.60	1617.90
591.80	1705.96
591.99	1581.03
592.18	1599.46
592.38	1636.33
592.57	1630.18
592.76	1615.85
592.96	1607.66
593.15	1615.85
593.34	1560.55
593.54	1564.65
593.73	1660.90
593.92	1630.18
594.12	1589.22
594.31	1708.01
594.50	1638.38
594.70	1662.95
594.89	1677.29
595.08	1474.54
595.28	1587.18
595.47	1699.81
595.66	1578.98
595.86	1517.54
596.05	1619.94
596.24	1558.50
596.43	1585.13
596.63	1658.85
596.82	1626.09
597.01	1619.94
597.21	1669.09
597.40	1628.14
597.59	1550.31
597.79	1585.13
597.98	1621.99
598.17	1634.28
598.36	1558.50
598.56	1613.80
598.75	1544.17
598.94	1583.08
599.14	1566.70
599.33	1531.88
599.52	1595.37
599.71	1595.37
599.91	1607.66
600.10	1650.66
600.29	1550.31
600.48	1603.56
600.68	1585.13
600.87	1617.90
601.06	1601.51
601.26	1509.35
601.45	1607.66
601.64	1507.30
601.83	1605.61
602.03	1544.17
602.22	1513.45
602.41	1495.02
602.60	1679.33
602.80	1564.65
602.99	1507.30
603.18	1523.69
603.37	1556.46
603.57	1626.09
603.76	1585.13
603.95	1566.70
604.14	1503.21
604.34	1462.25
604.53	1533.93
604.72	1533.93
604.91	1576.94
605.10	1511.40
605.30	1560.55
605.49	1546.22
605.68	1599.46
605.87	1613.80
606.07	1583.08
606.26	1511.40
606.45	1501.16
606.64	1587.18
606.84	1542.12
607.03	1538.02
607.22	1699.81
607.41	1583.08
607.60	1628.14
607.80	1636.33
607.99	1564.65
608.18	1595.37
608.37	1574.89
608.56	1548.26
608.76	1533.93
608.95	1540.07
609.14	1544.17
609.33	1693.67
609.52	1640.42
609.72	1685.48
609.91	1681.38
610.10	1595.37
610.29	1652.71
610.48	1673.19
610.68	1634.28
610.87	1564.65
611.06	1591.27
611.25	1587.18
611.44	1691.62
611.63	1587.18
611.83	1587.18
612.02	1554.41
612.21	1658.85
612.40	1519.59
612.59	1542.12
612.79	1454.06
612.98	1527.78
613.17	1624.04
613.36	1621.99
613.55	1566.70
613.74	1615.85
613.93	1642.47
614.13	1716.20
614.32	1781.73
614.51	1787.88
614.70	1742.82
614.89	1652.71
615.08	1638.38
615.28	1814.50
615.47	1517.54
615.66	1566.70
615.85	1597.42
616.04	1570.79
616.23	1640.42
616.42	1617.90
616.62	1636.33
616.81	1595.37
617.00	1619.94
617.19	1574.89
617.38	1576.94
617.57	1525.74
617.76	1558.50
617.95	1558.50
618.15	1556.46
618.34	1640.42
618.53	1554.41
618.72	1619.94
618.91	1542.12
619.10	1535.98
619.29	1499.11
619.48	1509.35
619.68	1540.07
619.87	1527.78
620.06	1486.83
620.25	1548.26
620.44	1474.54
620.63	1511.40
620.82	1583.08
621.01	1581.03
621.20	1490.92
621.39	1550.31
621.59	1550.31
621.78	1484.78
621.97	1558.50
622.16	1603.56
622.35	1550.31
622.54	1597.42
622.73	1613.80
622.92	1572.84
623.11	1601.51
623.30	1558.50
623.49	1542.12
623.68	1597.42
623.88	1609.70
624.07	1599.46
624.26	1542.12
624.45	1677.29
624.64	1497.07
624.83	1593.32
625.02	1529.83
625.21	1566.70
625.40	1576.94
625.59	1566.70
625.78	1511.40
625.97	1642.47
626.16	1626.09
626.35	1587.18
626.54	1630.18
626.74	1691.62
626.93	1644.52
627.12	1587.18
627.31	1699.81
627.50	1484.78
627.69	1634.28
627.88	1460.20
628.07	1546.22
628.26	1505.26
628.45	1609.70
628.64	1503.21
628.83	1546.22
629.02	1460.20
629.21	1583.08
629.40	1585.13
629.59	1570.79
629.78	1511.40
629.97	1548.26
630.16	1531.88
630.35	1540.07
630.54	1615.85
630.73	1509.35
630.92	1540.07
631.11	1452.01
631.30	1548.26
631.49	1556.46
631.68	1515.50
631.87	1554.41
632.06	1503.21
632.25	1611.75
632.44	1599.46
632.63	1603.56
632.82	1644.52
633.01	1619.94
633.20	1605.61
633.39	1587.18
633.58	1585.13
633.77	1607.66
633.96	1648.61
634.15	1613.80
634.34	1611.75
634.53	1572.84
634.72	1505.26
634.91	1566.70
635.10	1550.31
635.29	1558.50
635.48	1452.01
635.67	1540.07
635.86	1478.63
636.05	1640.42
636.24	1570.79
636.43	1544.17
636.62	1531.88
636.81	1378.28
637.00	1476.59
637.19	1548.26
637.38	1558.50
637.57	1542.12
637.76	1578.98
637.95	1644.52
638.14	1652.71
638.33	1662.95
638.52	1648.61
638.71	1628.14
638.89	1617.90
639.08	1712.10
639.27	1617.90
639.46	1665.00
639.65	1953.76
639.84	2023.39
640.03	2222.05
640.22	2105.31
640.41	2330.59
640.60	1992.67
640.79	1894.37
640.98	1847.27
641.17	1761.25
641.36	1716.20
641.55	1699.81
641.74	1654.76
641.92	1691.62
642.11	1570.79
642.30	1593.32
642.49	1507.30
642.68	1615.85
642.87	1495.02
643.06	1564.65
643.25	1511.40
643.44	1576.94
643.63	1570.79
643.82	1599.46
644.00	1480.68
644.19	1542.12
644.38	1538.02
644.57	1546.22
644.76	1597.42
644.95	1550.31
645.14	1472.49
645.33	1550.31
645.52	1656.81
645.71	1445.87
645.89	1540.07
646.08	1630.18
646.27	1554.41
646.46	1568.74
646.65	1472.49
646.84	1576.94
647.03	1490.92
647.22	1554.41
647.40	1501.16
647.59	1509.35
647.78	1501.16
647.97	1509.35
648.16	1490.92
648.35	1599.46
648.54	1626.09
648.73	1544.17
648.91	1585.13
649.10	1538.02
649.29	1468.39
649.48	1587.18
649.67	1517.54
649.86	1515.50
650.05	1626.09
650.23	1718.25
650.42	1644.52
650.61	1730.53
650.80	1744.87
650.99	1777.64
651.18	1609.70
651.36	1640.42
651.55	1540.07
651.74	1626.09
651.93	1599.46
652.12	1529.83
652.31	1574.89
652.49	1540.07
652.68	1556.46
652.87	1607.66
653.06	1587.18
653.25	1640.42
653.44	1550.31
653.62	1656.81
653.81	1642.47
654.00	1583.08
654.19	1628.14
654.38	1648.61
654.56	1576.94
654.75	1558.50
654.94	1617.90
655.13	1548.26
655.32	1540.07
655.51	1589.22
655.69	1478.63
655.88	1511.40
656.07	1484.78
656.26	1445.87
656.45	1525.74
656.63	1515.50
656.82	1497.07
657.01	1632.23
657.20	1456.11
657.38	1650.66
657.57	1521.64
657.76	1466.35
657.95	1566.70
658.14	1525.74
658.32	1497.07
658.51	1538.02
658.70	1628.14
658.89	1560.55
659.08	1546.22
659.26	1593.32
659.45	1538.02
659.64	1599.46
659.83	1548.26
660.01	1757.16
660.20	1556.46
660.39	1638.38
660.58	1519.59
660.76	1613.80
660.95	1501.16
661.14	1525.74
661.33	1552.36
661.51	1529.83
661.70	1585.13
661.89	1540.07
662.08	1591.27
662.26	1437.67
662.45	1523.69
662.64	1595.37
662.83	1617.90
663.01	1499.11
663.20	1480.68
663.39	1601.51
663.58	1624.04
663.76	1513.45
663.95	1466.35
664.14	1558.50
664.32	1484.78
664.51	1470.44
664.70	1492.97
664.89	1544.17
665.07	1574.89
665.26	1636.33
665.45	1517.54
665.64	1564.65
665.82	1542.12
666.01	1576.94
666.20	1533.93
666.38	1587.18
666.57	1550.31
666.76	1814.50
666.95	2926.55
667.13	7722.89
667.32	15783.70
667.51	20129.48
667.69	23594.65
667.88	25304.70
668.07	22515.37
668.25	15693.58
668.44	12496.71
668.63	9881.45
668.81	8648.57
669.00	7796.62
669.19	7083.92
669.38	6346.66
669.56	5584.81
669.75	4818.87
669.94	4145.09
670.12	3444.68
670.31	2830.29
670.50	2449.37
670.68	2156.51
670.87	1892.32
671.06	1810.40
671.24	1697.77
671.43	1771.49
671.62	1665.00
671.80	1615.85
671.99	1568.74
672.18	1644.52
672.36	1617.90
672.55	1617.90
672.74	1576.94
672.92	1603.56
673.11	1564.65
673.29	1509.35
673.48	1533.93
673.67	1540.07
673.85	1533.93
674.04	1572.84
674.23	1552.36
674.41	1593.32
674.60	1501.16
674.79	1484.78
674.97	1460.20
675.16	1609.70
675.34	1574.89
675.53	1515.50
675.72	1562.60
675.90	1636.33
676.09	1591.27
676.28	1562.60
676.46	1439.72
676.65	1576.94
676.83	1611.75
677.02	1497.07
677.21	1550.31
677.39	1507.30
677.58	1470.44
677.77	1484.78
677.95	1509.35
678.14	1548.26
678.32	1476.59
678.51	1505.26
678.70	1521.64
678.88	1495.02
679.07	1501.16
679.25	1595.37
679.44	1544.17
679.63	1509.35
679.81	1490.92
680.00	1585.13
680.18	1525.74
680.37	1607.66
680.55	1478.63
680.74	1449.96
680.93	1517.54
681.11	1564.65
681.30	1552.36
681.48	1636.33
681.67	1529.83
681.85	1550.31
682.04	1509.35
682.23	1556.46
682.41	1511.40
682.60	1515.50
682.78	1468.39
682.97	1480.68
683.15	1521.64
683.34	1581.03
683.53	1593.32
683.71	1527.78
683.90	1697.77
684.08	1533.93
684.27	1533.93
684.45	1576.94
684.64	1544.17
684.82	1583.08
685.01	1531.88
685.19	1568.74
685.38	1617.90
685.57	1628.14
685.75	1443.82
685.94	1626.09
686.12	1474.54
686.31	1546.22
686.49	1576.94
686.68	1435.63
686.86	1546.22
687.05	1503.21
687.23	1576.94
687.42	1544.17
687.60	1499.11
687.79	1544.17
687.97	1689.57
688.16	1587.18
688.34	1640.42
688.53	1423.34
688.71	1554.41
688.90	1546.22
689.08	1572.84
689.27	1464.30
689.45	1558.50
689.64	1523.69
689.82	1511.40
690.01	1548.26
690.19	1464.30
690.38	1540.07
690.56	1689.57
690.75	1538.02
690.93	1583.08
691.12	1464.30
691.30	1578.98
691.49	1507.30
691.67	1548.26
691.86	1673.19
692.04	1501.16
692.23	1542.12
692.41	1570.79
692.60	1677.29
692.78	1611.75
692.97	1607.66
693.15	1712.10
693.34	1646.57
693.52	1576.94
693.71	1554.41
693.89	1558.50
694.08	1531.88
694.26	1634.28
694.44	1558.50
694.63	1568.74
694.81	1501.16
695.00	1482.73
695.18	1609.70
695.37	1718.25
695.55	1587.18
695.74	1497.07
695.92	1554.41
696.10	1595.37
696.29	1431.53
696.47	1535.98
696.66	1538.02
696.84	1488.87
697.03	1542.12
697.21	1615.85
697.40	1992.67
697.58	1597.42
697.76	1527.78
697.95	1538.02
698.13	1544.17
698.32	1562.60
698.50	1570.79
698.68	1533.93
698.87	1538.02
699.05	1599.46
699.24	1564.65
699.42	1431.53
699.61	1564.65
699.79	1554.41
699.97	1525.74
700.16	1495.02
700.34	1413.10
700.53	1619.94
700.71	1589.22
700.89	1611.75
701.08	1583.08
701.26	1611.75
701.45	1882.08
701.63	1533.93
701.81	1476.59
702.00	1562.60
702.18	1585.13
702.37	1466.35
702.55	1630.18
702.73	1662.95
702.92	1728.49
703.10	1773.54
703.28	1812.45
703.47	1726.44
703.65	1746.92
703.84	1689.57
704.02	1611.75
704.20	1781.73
704.39	1564.65
704.57	1665.00
704.75	1617.90
704.94	1611.75
705.12	1624.04
705.30	1568.74
705.49	1798.12
705.67	2869.20
705.86	7589.77
706.04	14419.75
706.22	18939.62
706.41	21726.90
706.59	22920.87
706.77	20987.58
706.96	14888.73
707.14	11607.89
707.32	9695.08
707.51	8624.00
707.69	7530.38
707.87	6651.80
708.06	5752.74
708.24	4591.55
708.42	3579.85
708.61	2822.10
708.79	2252.77
708.97	2047.97
709.16	1904.61
709.34	1699.81
709.52	1654.76
709.71	1648.61
709.89	1681.38
710.07	1529.83
710.26	1558.50
710.44	1593.32
710.62	1605.61
710.80	1587.18
710.99	1548.26
711.17	1564.65
711.35	1490.92
711.54	1558.50
711.72	1583.08
711.90	1619.94
712.09	1583.08
712.27	1546.22
712.45	1603.56
712.63	1472.49
712.82	1480.68
713.00	1599.46
713.18	1488.87
713.37	1597.42
713.55	1628.14
713.73	1570.79
713.91	1552.36
714.10	1538.02
714.28	1546.22
714.46	1523.69
714.65	1601.51
714.83	1605.61
715.01	1523.69
715.19	1546.22
715.38	1523.69
715.56	1529.83
715.74	1505.26
715.92	1458.15
716.11	1576.94
716.29	1398.76
716.47	1617.90
716.65	1560.55
716.84	1486.83
717.02	1597.42
717.20	1415.15
717.38	1591.27
717.57	1529.83
717.75	1515.50
717.93	1542.12
718.11	1570.79
718.30	1527.78
718.48	1538.02
718.66	1609.70
718.84	1607.66
719.03	1521.64
719.21	1519.59
719.39	1505.26
719.57	1607.66
719.75	1558.50
719.94	1515.50
720.12	1503.21
720.30	1519.59
720.48	1611.75
720.67	1482.73
720.85	1525.74
721.03	1501.16
721.21	1472.49
721.39	1607.66
721.58	1636.33
721.76	1550.31
721.94	1589.22
722.12	1548.26
722.30	1624.04
722.49	1574.89
722.67	1519.59
722.85	1529.83
723.03	1482.73
723.21	1478.63
723.40	1585.13
723.58	1591.27
723.76	1607.66
723.94	1648.61
724.12	1562.60
724.30	1665.00
724.49	1685.48
724.67	1595.37
724.85	1593.32
725.03	1587.18
725.21	1570.79
725.40	1576.94
725.58	1550.31
725.76	1669.09
725.94	1519.59
726.12	1517.54
726.30	1517.54
726.49	1556.46
726.67	1564.65
726.85	1560.55
727.03	1591.27
727.21	1794.02
727.39	2158.56
727.57	3393.48
727.76	4362.17
727.94	4771.77
728.12	5124.02
728.30	5038.00
728.48	4177.86
728.66	3389.39
728.84	3278.80
729.03	2922.45
729.21	2611.16
729.39	2375.64
729.57	2027.49
729.75	1849.32
729.93	1738.73
730.11	1691.62
730.30	1605.61
730.48	1603.56
730.66	1550.31
730.84	1581.03
731.02	1605.61
731.20	1566.70
731.38	1583.08
731.56	1435.63
731.74	1497.07
731.93	1511.40
732.11	1484.78
732.29	1615.85
732.47	1630.18
732.65	1554.41
732.83	1638.38
733.01	1529.83
733.19	1460.20
733.37	1505.26
733.56	1572.84
733.74	1535.98
733.92	1578.98
734.10	1447.91
734.28	1585.13
734.46	1478.63
734.64	1548.26
734.82	1492.97
735.00	1564.65
735.18	1527.78
735.36	1474.54
735.54	1581.03
735.73	1544.17
735.91	1621.99
736.09	1617.90
736.27	1570.79
736.45	1601.51
736.63	1480.68
736.81	1525.74
736.99	1546.22
737.17	1611.75
737.35	1560.55
737.53	1495.02
737.71	1490.92
737.89	1560.55
738.07	1472.49
738.25	1597.42
738.43	1460.20
738.61	1495.02
738.80	1484.78
738.98	1445.87
739.16	1501.16
739.34	1531.88
739.52	1576.94
739.70	1572.84
739.88	1599.46
740.06	1638.38
740.24	1456.11
740.42	1601.51
740.60	1441.77
740.78	1521.64
740.96	1445.87
741.14	1472.49
741.32	1501.16
741.50	1511.40
741.68	1585.13
741.86	1630.18
742.04	1531.88
742.22	1585.13
742.40	1564.65
742.58	1542.12
742.76	1535.98
742.94	1503.21
743.12	1472.49
743.30	1511.40
743.48	1624.04
743.66	1501.16
743.84	1517.54
744.02	1558.50
744.20	1535.98
744.38	1538.02
744.56	1533.93
744.74	1583.08
744.92	1462.25
745.10	1597.42
745.28	1601.51
745.46	1591.27
745.64	1615.85
745.82	1601.51
746.00	1605.61
746.18	1599.46
746.36	1578.98
746.54	1548.26
746.72	1531.88
746.90	1509.35
747.08	1570.79
747.26	1509.35
747.44	1572.84
747.62	1507.30
747.80	1574.89
747.98	1619.94
748.15	1521.64
748.33	1589.22
748.51	1542.12
748.69	1615.85
748.87	1523.69
749.05	1521.64
749.23	1636.33
749.41	1564.65
749.59	1552.36
749.77	1587.18
749.95	1550.31
750.13	1533.93
750.31	1566.70
750.49	1531.88
750.67	1568.74
750.85	1578.98
751.03	1527.78
751.20	1566.70
751.38	1554.41
751.56	1454.06
751.74	1486.83
751.92	1542.12
752.10	1507.30
752.28	1519.59
752.46	1460.20
752.64	1492.97
752.82	1583.08
753.00	1644.52
753.18	1517.54
753.35	1470.44
753.53	1601.51
753.71	1650.66
753.89	1519.59
754.07	1472.49
754.25	1621.99
754.43	1621.99
754.61	1542.12
754.79	1609.70
754.97	1482.73
755.14	1636.33
755.32	1525.74
755.50	1576.94
755.68	1527.78
755.86	1452.01
756.04	1542.12
756.22	1495.02
756.40	1599.46
756.57	1568.74
756.75	1511.40
756.93	1636.33
757.11	1558.50
757.29	1478.63
757.47	1492.97
757.65	1458.15
757.82	1437.67
758.00	1513.45
758.18	1570.79
758.36	1509.35
758.54	1599.46
758.72	1505.26
758.90	1574.89
759.07	1531.88
759.25	1437.67
759.43	1558.50
759.61	1499.11
759.79	1845.22
759.97	1574.89
760.15	1452.01
760.32	1476.59
760.50	1566.70
760.68	1591.27
760.86	1456.11
761.04	1529.83
761.22	1566.70
761.39	1505.26
761.57	1560.55
761.75	1505.26
761.93	1605.61
762.11	1478.63
762.28	1556.46
762.46	1443.82
762.64	1564.65
762.82	1411.05
763.00	1501.16
763.18	1615.85
763.35	1484.78
763.53	1497.07
763.71	1546.22
763.89	1595.37
764.07	1550.31
764.24	1624.04
764.42	1613.80
764.60	1492.97
764.78	1538.02
764.96	1626.09
765.13	1621.99
765.31	1566.70
765.49	1611.75
765.67	1540.07
765.84	1517.54
766.02	1490.92
766.20	1513.45
766.38	1556.46
766.56	1538.02
766.73	1544.17
766.91	1564.65
767.09	1533.93
767.27	1509.35
767.44	1462.25
767.62	1538.02
767.80	1560.55
767.98	1492.97
768.15	1581.03
768.33	1517.54
768.51	1515.50
768.69	1587.18
768.87	1531.88
769.04	1546.22
769.22	1607.66
769.40	1626.09
769.58	1683.43
769.75	1535.98
769.93	1589.22
770.11	1535.98
770.28	1468.39
770.46	1544.17
770.64	1570.79
770.82	1529.83
770.99	1484.78
771.17	1609.70
771.35	1460.20
771.53	1540.07
771.70	1497.07
771.88	1617.90
772.06	1542.12
772.23	1517.54
772.41	1595.37
772.59	1490.92
772.77	1517.54
772.94	1501.16
773.12	1503.21
773.30	1486.83
773.47	1568.74
773.65	1548.26
773.83	1568.74
774.01	1519.59
774.18	1499.11
774.36	1552.36
774.54	1470.44
774.71	1527.78
774.89	1488.87
775.07	1558.50
775.24	1550.31
775.42	1527.78
775.60	1527.78
775.78	1492.97
775.95	1517.54
776.13	1480.68
776.31	1386.47
776.48	1507.30
776.66	1634.28
776.84	1519.59
777.01	1497.07
777.19	1533.93
777.37	1495.02
777.54	1609.70
777.72	1591.27
777.90	1572.84
778.07	1542.12
778.25	1689.57
778.43	1628.14
778.60	1615.85
778.78	1642.47
778.96	1578.98
779.13	1435.63
779.31	1560.55
779.49	1542.12
779.66	1531.88
779.84	1548.26
780.01	1525.74
780.19	1521.64
780.37	1597.42
780.54	1492.97
780.72	1462.25
780.90	1509.35
781.07	1495.02
781.25	1488.87
781.43	1583.08
781.60	1544.17
781.78	1576.94
781.95	1619.94
782.13	1535.98
782.31	1591.27
782.48	1505.26
782.66	1501.16
782.83	1669.09
783.01	1515.50
783.19	1535.98
783.36	1464.30
783.54	1523.69
783.72	1527.78
783.89	1548.26
784.07	1542.12
784.24	1550.31
784.42	1660.90
784.60	1578.98
784.77	1546.22
784.95	1460.20
785.12	1470.44
785.30	1513.45
785.47	1452.01
785.65	1470.44
785.83	1466.35
786.00	1486.83
786.18	1468.39
786.35	1431.53
786.53	1552.36
786.71	1560.55
786.88	1554.41
787.06	1499.11
787.23	1527.78
787.41	1480.68
787.58	1544.17
787.76	1468.39
787.94	1515.50
788.11	1454.06
788.29	1542.12
788.46	1509.35
788.64	1429.48
788.81	1527.78
788.99	1456.11
789.16	1572.84
789.34	1427.43
789.52	1492.97
789.69	1560.55
789.87	1472.49
790.04	1523.69
790.22	1495.02
790.39	1638.38
790.57	1529.83
790.74	1519.59
790.92	1533.93
791.09	1564.65
791.27	1587.18
791.44	1603.56
791.62	1552.36
791.79	1603.56
791.97	1550.31
792.15	1695.72
792.32	1492.97
792.50	1589.22
792.67	1654.76
792.85	1527.78
793.02	1484.78
793.20	1517.54
793.37	1462.25
793.55	1515.50
793.72	1466.35
793.90	1595.37
794.07	1488.87
794.25	1439.72
794.42	1605.61
794.60	1576.94
794.77	1535.98
794.95	1564.65
795.12	1548.26
795.30	1509.35
795.47	1439.72
795.65	1644.52
795.82	1546.22
796.00	1574.89
796.17	1497.07
796.34	1544.17
796.52	1546.22
796.69	1535.98
796.87	1564.65
797.04	1456.11
797.22	1507.30
797.39	1519.59
797.57	1597.42
797.74	1617.90
797.92	1533.93
798.09	1462.25
798.27	1636.33
798.44	1503.21
798.62	1513.45
798.79	1566.70
798.96	1574.89
799.14	1452.01
799.31	1626.09
799.49	1413.10
799.66	1472.49
799.84	1533.93
800.01	1429.48
800.19	1542.12
800.36	1474.54
800.53	1546.22
800.71	1535.98
800.88	1656.81
801.06	1507.30
801.23	1492.97
801.41	1570.79
801.58	1548.26
801.75	1556.46
801.93	1583.08
802.10	1519.59
802.28	1533.93
802.45	1542.12
802.63	1591.27
802.80	1650.66
802.97	1476.59
803.15	1472.49
803.32	1538.02
803.50	1482.73
803.67	1501.16
803.84	1472.49
804.02	1615.85
804.19	1527.78
804.37	1484.78
804.54	1425.39
804.71	1570.79
804.89	1503.21
805.06	1540.07
805.24	1535.98
805.41	1445.87
805.58	1535.98
805.76	1619.94
805.93	1546.22
806.10	1601.51
806.28	1548.26
806.45	1531.88
806.63	1499.11
806.80	1605.61
806.97	1519.59
807.15	1566.70
807.32	1576.94
807.49	1576.94
807.67	1511.40
807.84	1619.94
808.01	1468.39
808.19	1578.98
808.36	1687.53
808.54	1560.55
808.71	1468.39
808.88	1556.46
809.06	1609.70
809.23	1519.59
809.40	1495.02
809.58	1593.32
809.75	1464.30
809.92	1546.22
810.10	1595.37
810.27	1503.21
810.44	1513.45
810.62	1599.46
810.79	1533.93
810.96	1533.93
811.14	1562.60
811.31	1662.95
811.48	1624.04
811.66	1591.27
811.83	1587.18
812.00	1566.70
812.18	1533.93
812.35	1650.66
812.52	1509.35
812.69	1476.59
812.87	1529.83
813.04	1472.49
813.21	1593.32
813.39	1523.69
813.56	1468.39
813.73	1576.94
813.91	1488.87
814.08	1533.93
814.25	1591.27
814.42	1431.53
814.60	1452.01
814.77	1554.41
814.94	1583.08
815.12	1554.41
815.29	1617.90
815.46	1470.44
815.63	1544.17
815.81	1517.54
815.98	1540.07
816.15	1542.12
816.33	1476.59
816.50	1533.93
816.67	1515.50
816.84	1490.92
817.02	1519.59
817.19	1564.65
817.36	1562.60
817.53	1587.18
817.71	1531.88
817.88	1544.17
818.05	1527.78
818.22	1406.95
818.40	1628.14
818.57	1497.07
818.74	1583.08
818.91	1505.26
819.09	1535.98
819.26	1472.49
819.43	1445.87
819.60	1542.12
819.78	1519.59
819.95	1701.86
820.12	1513.45
820.29	1576.94
820.47	1587.18
820.64	1497.07
820.81	1462.25
820.98	1476.59
821.15	1429.48
821.33	1562.60
821.50	1400.81
821.67	1548.26
821.84	1517.54
822.02	1527.78
822.19	1572.84
822.36	1509.35
822.53	1458.15
822.70	1468.39
822.88	1546.22
823.05	1621.99
823.22	1558.50
823.39	1548.26
823.56	1523.69
823.74	1628.14
823.91	1531.88
824.08	1556.46
824.25	1497.07
824.42	1642.47
824.60	1521.64
824.77	1476.59
824.94	1525.74
825.11	1558.50
825.28	1427.43
825.45	1578.98
825.63	1554.41
825.80	1462.25
825.97	1570.79
826.14	1507.30
826.31	1490.92
826.48	1599.46
826.66	1492.97
826.83	1540.07
827.00	1538.02
827.17	1574.89
827.34	1540.07
827.51	1556.46
827.69	1581.03
827.86	1460.20
828.03	1513.45
828.20	1538.02
828.37	1531.88
828.54	1601.51
828.71	1572.84
828.89	1658.85
829.06	1533.93
829.23	1587.18
829.40	1511.40
829.57	1478.63
829.74	1531.88
829.91	1517.54
830.09	1546.22
830.26	1560.55
830.43	1648.61
830.60	1546.22
830.77	1562.60
830.94	1527.78
831.11	1587.18
831.28	1511.40
831.46	1572.84
831.63	1480.68
831.80	1621.99
831.97	1556.46
832.14	1476.59
832.31	1589.22
832.48	1535.98
832.65	1544.17
832.82	1544.17
832.99	1515.50
833.17	1437.67
833.34	1572.84
833.51	1505.26
833.68	1411.05
833.85	1662.95
834.02	1529.83
834.19	1449.96
834.36	1529.83
834.53	1503.21
834.70	1634.28
834.87	1591.27
835.04	1540.07
835.22	1538.02
835.39	1447.91
835.56	1521.64
835.73	1509.35
835.90	1552.36
836.07	1482.73
836.24	1519.59
836.41	1433.58
836.58	1468.39
836.75	1544.17
836.92	1566.70
837.09	1517.54
837.26	1591.27
837.43	1525.74
837.60	1591.27
837.77	1517.54
837.94	1525.74
838.12	1523.69
838.29	1529.83
838.46	1468.39
838.63	1478.63
838.80	1583.08
838.97	1617.90
839.14	1482.73
839.31	1449.96
839.48	1642.47
839.65	1585.13
839.82	1576.94
839.99	1538.02
840.16	1454.06
840.33	1390.57
840.50	1576.94
840.67	1439.72
840.84	1445.87
841.01	1581.03
841.18	1527.78
841.35	1527.78
841.52	1509.35
841.69	1552.36
841.86	1554.41
842.03	1540.07
842.20	1587.18
842.37	1484.78
842.54	1583.08
842.71	1509.35
842.88	1535.98
843.05	1601.51
843.22	1533.93
843.39	1523.69
843.56	1503.21
843.73	1472.49
843.90	1607.66
844.07	1558.50
844.24	1525.74
844.41	1552.36
844.58	1552.36
844.75	1501.16
844.92	1521.64
845.09	1445.87
845.26	1466.35
845.43	1548.26
845.60	1624.04
845.77	1572.84
845.94	1574.89
846.10	1581.03
846.27	1443.82
846.44	1578.98
846.61	1511.40
846.78	1581.03
846.95	1540.07
847.12	1550.31
847.29	1558.50
847.46	1427.43
847.63	1544.17
847.80	1523.69
847.97	1540.07
848.14	1621.99
848.31	1529.83
848.48	1490.92
848.65	1587.18
848.82	1480.68
848.98	1638.38
849.15	1566.70
849.32	1566.70
849.49	1638.38
849.66	1548.26
849.83	1617.90
850.00	1484.78
850.17	1525.74
850.34	1570.79
850.51	1480.68
850.68	1517.54
850.85	1656.81
851.01	1511.40
851.18	1595.37
851.35	1466.35
851.52	1454.06
851.69	1634.28
851.86	1460.20
852.03	1509.35
852.20	1576.94
852.37	1468.39
852.53	1452.01
852.70	1503.21
852.87	1564.65
853.04	1613.80
853.21	1574.89
853.38	1564.65
853.55	1564.65
853.72	1650.66
853.89	1515.50
854.05	1535.98
854.22	1476.59
854.39	1449.96
854.56	1578.98
854.73	1570.79
854.90	1482.73
855.07	1513.45
855.23	1519.59
855.40	1492.97
855.57	1542.12
855.74	1398.76
855.91	1669.09
856.08	1445.87
856.25	1447.91
856.41	1540.07
856.58	1492.97
856.75	1468.39
856.92	1474.54
857.09	1578.98
857.26	1470.44
857.42	1542.12
857.59	1570.79
857.76	1497.07
857.93	1595.37
858.10	1507.30
858.27	1558.50
858.43	1523.69
858.60	1468.39
858.77	1468.39
858.94	1527.78
859.11	1630.18
859.27	1581.03
859.44	1533.93
859.61	1605.61
859.78	1472.49
859.95	1511.40
860.12	1542.12
860.28	1607.66
860.45	1648.61
860.62	1495.02
860.79	1570.79
860.95	1540.07
861.12	1456.11
861.29	1538.02
861.46	1533.93
861.63	1521.64
861.79	1601.51
861.96	1550.31
862.13	1519.59
862.30	1587.18
862.47	1482.73
862.63	1404.91
862.80	1533.93
862.97	1611.75
863.14	1546.22
863.30	1548.26
863.47	1521.64
863.64	1550.31
863.81	1581.03
863.97	1597.42
864.14	1576.94
864.31	1488.87
864.48	1583.08
864.65	1449.96
864.81	1574.89
864.98	1595.37
865.15	1615.85
865.32	1480.68
865.48	1540.07
865.65	1644.52
865.82	1556.46
865.98	1609.70
866.15	1568.74
866.32	1513.45
866.49	1529.83
866.65	1634.28
866.82	1466.35
866.99	1566.70
867.16	1503.21
867.32	1511.40
867.49	1460.20
867.66	1529.83
867.83	1478.63
867.99	1435.63
868.16	1472.49
868.33	1495.02
868.49	1468.39
868.66	1505.26
868.83	1460.20
868.99	1595.37
869.16	1460.20
869.33	1621.99
869.50	1673.19
869.66	1529.83
869.83	1560.55
870.00	1517.54
870.16	1654.76
870.33	1486.83
870.50	1527.78
870.66	1533.93
870.83	1648.61
871.00	1564.65
871.17	1521.64
871.33	1535.98
871.50	1552.36
871.67	1578.98
871.83	1486.83
872.00	1632.23
872.17	1482.73
872.33	1585.13
872.50	1593.32
872.67	1460.20
872.83	1505.26
873.00	1585.13
873.17	1599.46
873.33	1542.12
873.50	1540.07
873.67	1535.98
873.83	1540.07
874.00	1552.36
874.16	1552.36
874.33	1558.50
874.50	1519.59
874.66	1578.98
874.83	1574.89
875.00	1605.61
875.16	1562.60
875.33	1667.05
875.50	1427.43
875.66	1542.12
875.83	1542.12
875.99	1568.74
876.16	1540.07
876.33	1511.40
876.49	1519.59
876.66	1578.98
876.83	1605.61
876.99	1474.54
877.16	1478.63
877.32	1517.54
877.49	1437.67
877.66	1527.78
877.82	1527.78
877.99	1542.12
878.15	1589.22
878.32	1497.07
878.49	1486.83
878.65	1497.07
878.82	1572.84
878.98	1466.35
879.15	1533.93
879.32	1599.46
879.48	1583.08
879.65	1492.97
879.81	1515.50
879.98	1488.87
880.15	1533.93
880.31	1570.79
880.48	1458.15
880.64	1581.03
880.81	1583.08
880.97	1636.33
881.14	1640.42
881.31	1533.93
881.47	1626.09
881.64	1480.68
881.80	1486.83
881.97	1503.21
882.13	1632.23
882.30	1552.36
882.47	1490.92
882.63	1445.87
882.80	1470.44
882.96	1521.64
883.13	1587.18
883.29	1527.78
883.46	1523.69
883.62	1552.36
883.79	1607.66
883.95	1562.60
884.12	1507.30
884.29	1548.26
884.45	1535.98
884.62	1583.08
884.78	1531.88
884.95	1644.52
885.11	1564.65
885.28	1589.22
885.44	1501.16
885.61	1521.64
885.77	1603.56
885.94	1572.84
886.10	1568.74
886.27	1566.70
886.43	1589.22
886.60	1556.46
886.76	1529.83
886.93	1425.39
887.09	1544.17
887.26	1515.50
887.42	1529.83
887.59	1638.38
887.75	1648.61
887.92	1581.03
888.08	1585.13
888.25	1691.62
888.41	1624.04
888.58	1564.65
888.74	1480.68
888.91	1488.87
>>>>>End Processed Spectral Data<<<<<
