SpectraSuite Data File
++++++++++++++++++++++++++++++++++++
Date: Tue May 03 12:55:57 CEST 2016
User: root
Dark Spectrum Present: No
Reference Spectrum Present: No
Number of Sampled Component Spectra: 1
Spectrometers: USB4C02835
Integration Time (usec): 100000 (USB4C02835)
Spectra Averaged: 1 (USB4C02835)
Boxcar Smoothing: 0 (USB4C02835)
Correct for Electrical Dark: No (USB4C02835)
Strobe/Lamp Enabled: No (USB4C02835)
Correct for Detector Non-linearity: No (USB4C02835)
Correct for Stray Light: No (USB4C02835)
Number of Pixels in Processed Spectrum: 3648
>>>>>Begin Processed Spectral Data<<<<<
177.47	1374.19
177.69	1374.19
177.91	1374.19
178.13	1359.85
178.36	1265.64
178.58	1468.39
178.80	1583.08
179.02	1499.11
179.24	1398.76
179.46	1564.65
179.68	1599.46
179.90	1509.35
180.13	1495.02
180.35	1531.88
180.57	1462.25
180.79	1535.98
181.01	1624.04
181.23	1636.33
181.45	1615.85
181.67	1540.07
181.90	1511.40
182.12	1495.02
182.34	1476.59
182.56	1562.60
182.78	1581.03
183.00	1568.74
183.22	1486.83
183.44	1411.05
183.66	1624.04
183.89	1624.04
184.11	1558.50
184.33	1566.70
184.55	1542.12
184.77	1511.40
184.99	1560.55
185.21	1501.16
185.43	1628.14
185.65	1497.07
185.87	1527.78
186.10	1669.09
186.32	1665.00
186.54	1578.98
186.76	1476.59
186.98	1658.85
187.20	1521.64
187.42	1519.59
187.64	1560.55
187.86	1550.31
188.08	1599.46
188.30	1558.50
188.52	1499.11
188.75	1572.84
188.97	1611.75
189.19	1538.02
189.41	1480.68
189.63	1574.89
189.85	1613.80
190.07	1538.02
190.29	1400.81
190.51	1591.27
190.73	1468.39
190.95	1667.05
191.17	1529.83
191.39	1449.96
191.61	1521.64
191.84	1521.64
192.06	1560.55
192.28	1521.64
192.50	1634.28
192.72	1509.35
192.94	1560.55
193.16	1640.42
193.38	1540.07
193.60	1470.44
193.82	1486.83
194.04	1597.42
194.26	1576.94
194.48	1665.00
194.70	1519.59
194.92	1484.78
195.14	1624.04
195.36	1533.93
195.58	1527.78
195.80	1521.64
196.02	1466.35
196.24	1480.68
196.46	1511.40
196.69	1503.21
196.91	1617.90
197.13	1585.13
197.35	1527.78
197.57	1638.38
197.79	1531.88
198.01	1535.98
198.23	1525.74
198.45	1564.65
198.67	1527.78
198.89	1509.35
199.11	1548.26
199.33	1441.77
199.55	1441.77
199.77	1497.07
199.99	1599.46
200.21	1486.83
200.43	1509.35
200.65	1495.02
200.87	1515.50
201.09	1558.50
201.31	1482.73
201.53	1585.13
201.75	1470.44
201.97	1488.87
202.19	1538.02
202.41	1517.54
202.63	1628.14
202.85	1509.35
203.07	1478.63
203.29	1542.12
203.51	1583.08
203.73	1501.16
203.95	1662.95
204.17	1535.98
204.39	1548.26
204.61	1482.73
204.83	1468.39
205.05	1697.77
205.27	1558.50
205.49	1634.28
205.71	1552.36
205.93	1499.11
206.15	1591.27
206.37	1542.12
206.59	1505.26
206.81	1501.16
207.03	1400.81
207.25	1515.50
207.47	1564.65
207.69	1535.98
207.91	1519.59
208.13	1613.80
208.34	1495.02
208.56	1507.30
208.78	1495.02
209.00	1478.63
209.22	1529.83
209.44	1544.17
209.66	1505.26
209.88	1570.79
210.10	1492.97
210.32	1527.78
210.54	1583.08
210.76	1535.98
210.98	1574.89
211.20	1370.09
211.42	1558.50
211.64	1636.33
211.86	1554.41
212.08	1583.08
212.30	1484.78
212.52	1542.12
212.74	1492.97
212.96	1519.59
213.17	1605.61
213.39	1535.98
213.61	1595.37
213.83	1533.93
214.05	1570.79
214.27	1564.65
214.49	1531.88
214.71	1488.87
214.93	1611.75
215.15	1521.64
215.37	1542.12
215.59	1529.83
215.81	1613.80
216.03	1638.38
216.24	1529.83
216.46	1560.55
216.68	1591.27
216.90	1552.36
217.12	1617.90
217.34	1578.98
217.56	1525.74
217.78	1615.85
218.00	1648.61
218.22	1585.13
218.44	1548.26
218.66	1497.07
218.87	1634.28
219.09	1484.78
219.31	1484.78
219.53	1499.11
219.75	1542.12
219.97	1589.22
220.19	1535.98
220.41	1464.30
220.63	1593.32
220.85	1519.59
221.06	1574.89
221.28	1558.50
221.50	1591.27
221.72	1593.32
221.94	1511.40
222.16	1492.97
222.38	1533.93
222.60	1591.27
222.82	1595.37
223.03	1572.84
223.25	1535.98
223.47	1544.17
223.69	1544.17
223.91	1585.13
224.13	1552.36
224.35	1511.40
224.57	1615.85
224.78	1546.22
225.00	1525.74
225.22	1511.40
225.44	1501.16
225.66	1560.55
225.88	1488.87
226.10	1566.70
226.32	1503.21
226.53	1624.04
226.75	1472.49
226.97	1593.32
227.19	1523.69
227.41	1544.17
227.63	1548.26
227.85	1540.07
228.06	1503.21
228.28	1523.69
228.50	1574.89
228.72	1468.39
228.94	1470.44
229.16	1386.47
229.37	1456.11
229.59	1476.59
229.81	1589.22
230.03	1480.68
230.25	1447.91
230.47	1458.15
230.69	1468.39
230.90	1570.79
231.12	1519.59
231.34	1611.75
231.56	1525.74
231.78	1468.39
232.00	1578.98
232.21	1533.93
232.43	1470.44
232.65	1501.16
232.87	1601.51
233.09	1470.44
233.30	1474.54
233.52	1550.31
233.74	1531.88
233.96	1474.54
234.18	1540.07
234.40	1511.40
234.61	1683.43
234.83	1492.97
235.05	1464.30
235.27	1677.29
235.49	1609.70
235.70	1576.94
235.92	1660.90
236.14	1482.73
236.36	1656.81
236.58	1488.87
236.79	1568.74
237.01	1460.20
237.23	1515.50
237.45	1607.66
237.67	1470.44
237.88	1517.54
238.10	1597.42
238.32	1439.72
238.54	1525.74
238.76	1544.17
238.97	1513.45
239.19	1421.29
239.41	1601.51
239.63	1587.18
239.85	1538.02
240.06	1525.74
240.28	1558.50
240.50	1621.99
240.72	1521.64
240.93	1527.78
241.15	1619.94
241.37	1515.50
241.59	1615.85
241.81	1607.66
242.02	1550.31
242.24	1556.46
242.46	1550.31
242.68	1519.59
242.89	1552.36
243.11	1574.89
243.33	1542.12
243.55	1568.74
243.76	1560.55
243.98	1513.45
244.20	1462.25
244.42	1480.68
244.64	1521.64
244.85	1464.30
245.07	1415.15
245.29	1550.31
245.51	1484.78
245.72	1540.07
245.94	1556.46
246.16	1529.83
246.38	1519.59
246.59	1509.35
246.81	1488.87
247.03	1525.74
247.24	1527.78
247.46	1523.69
247.68	1574.89
247.90	1560.55
248.11	1474.54
248.33	1542.12
248.55	1554.41
248.77	1550.31
248.98	1550.31
249.20	1574.89
249.42	1529.83
249.64	1507.30
249.85	1540.07
250.07	1521.64
250.29	1544.17
250.50	1587.18
250.72	1480.68
250.94	1511.40
251.16	1593.32
251.37	1581.03
251.59	1566.70
251.81	1589.22
252.02	1619.94
252.24	1552.36
252.46	1607.66
252.68	1419.24
252.89	1478.63
253.11	1521.64
253.33	1611.75
253.54	1535.98
253.76	1478.63
253.98	1550.31
254.20	1548.26
254.41	1476.59
254.63	1519.59
254.85	1449.96
255.06	1554.41
255.28	1581.03
255.50	1484.78
255.71	1538.02
255.93	1535.98
256.15	1576.94
256.36	1523.69
256.58	1558.50
256.80	1638.38
257.02	1603.56
257.23	1587.18
257.45	1478.63
257.67	1599.46
257.88	1511.40
258.10	1542.12
258.32	1550.31
258.53	1558.50
258.75	1560.55
258.97	1521.64
259.18	1523.69
259.40	1611.75
259.62	1568.74
259.83	1624.04
260.05	1548.26
260.27	1716.20
260.48	1660.90
260.70	1480.68
260.92	1456.11
261.13	1609.70
261.35	1511.40
261.57	1591.27
261.78	1415.15
262.00	1488.87
262.22	1544.17
262.43	1482.73
262.65	1449.96
262.86	1585.13
263.08	1662.95
263.30	1540.07
263.51	1486.83
263.73	1505.26
263.95	1589.22
264.16	1521.64
264.38	1480.68
264.60	1558.50
264.81	1435.63
265.03	1638.38
265.25	1587.18
265.46	1488.87
265.68	1656.81
265.89	1523.69
266.11	1458.15
266.33	1509.35
266.54	1572.84
266.76	1554.41
266.98	1574.89
267.19	1624.04
267.41	1593.32
267.62	1533.93
267.84	1452.01
268.06	1519.59
268.27	1599.46
268.49	1626.09
268.70	1599.46
268.92	1503.21
269.14	1492.97
269.35	1566.70
269.57	1546.22
269.79	1574.89
270.00	1542.12
270.22	1587.18
270.43	1497.07
270.65	1454.06
270.87	1474.54
271.08	1568.74
271.30	1599.46
271.51	1519.59
271.73	1505.26
271.95	1587.18
272.16	1568.74
272.38	1527.78
272.59	1478.63
272.81	1568.74
273.02	1484.78
273.24	1527.78
273.46	1529.83
273.67	1474.54
273.89	1501.16
274.10	1490.92
274.32	1550.31
274.54	1560.55
274.75	1560.55
274.97	1583.08
275.18	1640.42
275.40	1495.02
275.61	1564.65
275.83	1583.08
276.05	1503.21
276.26	1542.12
276.48	1542.12
276.69	1519.59
276.91	1505.26
277.12	1585.13
277.34	1617.90
277.55	1568.74
277.77	1527.78
277.99	1466.35
278.20	1519.59
278.42	1554.41
278.63	1570.79
278.85	1519.59
279.06	1452.01
279.28	1617.90
279.49	1552.36
279.71	1628.14
279.93	1507.30
280.14	1503.21
280.36	1492.97
280.57	1607.66
280.79	1578.98
281.00	1572.84
281.22	1454.06
281.43	1576.94
281.65	1406.95
281.86	1490.92
282.08	1548.26
282.29	1642.47
282.51	1433.58
282.73	1488.87
282.94	1525.74
283.16	1560.55
283.37	1701.86
283.59	1591.27
283.80	1548.26
284.02	1599.46
284.23	1495.02
284.45	1595.37
284.66	1515.50
284.88	1495.02
285.09	1542.12
285.31	1587.18
285.52	1601.51
285.74	1492.97
285.95	1544.17
286.17	1507.30
286.38	1621.99
286.60	1484.78
286.81	1578.98
287.03	1619.94
287.24	1527.78
287.46	1527.78
287.67	1468.39
287.89	1611.75
288.10	1550.31
288.32	1542.12
288.53	1619.94
288.75	1521.64
288.96	1554.41
289.18	1648.61
289.39	1525.74
289.61	1652.71
289.82	1535.98
290.04	1624.04
290.25	1521.64
290.47	1435.63
290.68	1544.17
290.90	1566.70
291.11	1476.59
291.33	1525.74
291.54	1437.67
291.76	1535.98
291.97	1603.56
292.18	1550.31
292.40	1558.50
292.61	1495.02
292.83	1624.04
293.04	1570.79
293.26	1558.50
293.47	1505.26
293.69	1497.07
293.90	1507.30
294.12	1540.07
294.33	1540.07
294.55	1470.44
294.76	1595.37
294.97	1556.46
295.19	1605.61
295.40	1550.31
295.62	1615.85
295.83	1640.42
296.05	1533.93
296.26	1552.36
296.48	1601.51
296.69	1599.46
296.90	1568.74
297.12	1587.18
297.33	1677.29
297.55	1583.08
297.76	1538.02
297.98	1652.71
298.19	1583.08
298.41	1484.78
298.62	1531.88
298.83	1601.51
299.05	1546.22
299.26	1525.74
299.48	1552.36
299.69	1538.02
299.90	1509.35
300.12	1519.59
300.33	1660.90
300.55	1570.79
300.76	1587.18
300.98	1488.87
301.19	1595.37
301.40	1492.97
301.62	1490.92
301.83	1499.11
302.05	1570.79
302.26	1509.35
302.47	1601.51
302.69	1431.53
302.90	1587.18
303.12	1447.91
303.33	1538.02
303.54	1621.99
303.76	1531.88
303.97	1511.40
304.19	1634.28
304.40	1452.01
304.61	1509.35
304.83	1632.23
305.04	1574.89
305.26	1495.02
305.47	1517.54
305.68	1589.22
305.90	1505.26
306.11	1609.70
306.33	1544.17
306.54	1576.94
306.75	1501.16
306.97	1456.11
307.18	1527.78
307.39	1597.42
307.61	1550.31
307.82	1464.30
308.04	1535.98
308.25	1513.45
308.46	1607.66
308.68	1566.70
308.89	1583.08
309.10	1578.98
309.32	1581.03
309.53	1478.63
309.74	1583.08
309.96	1482.73
310.17	1542.12
310.39	1423.34
310.60	1538.02
310.81	1503.21
311.03	1458.15
311.24	1546.22
311.45	1513.45
311.67	1552.36
311.88	1511.40
312.09	1495.02
312.31	1509.35
312.52	1501.16
312.73	1497.07
312.95	1429.48
313.16	1456.11
313.37	1597.42
313.59	1566.70
313.80	1624.04
314.01	1609.70
314.23	1581.03
314.44	1578.98
314.65	1382.38
314.87	1492.97
315.08	1585.13
315.29	1525.74
315.51	1429.48
315.72	1558.50
315.93	1593.32
316.15	1611.75
316.36	1503.21
316.57	1576.94
316.79	1646.57
317.00	1458.15
317.21	1621.99
317.43	1566.70
317.64	1562.60
317.85	1445.87
318.07	1583.08
318.28	1667.05
318.49	1734.63
318.70	1787.88
318.92	1714.15
319.13	1679.33
319.34	1675.24
319.56	1644.52
319.77	1679.33
319.98	1675.24
320.20	1624.04
320.41	1615.85
320.62	1581.03
320.83	1466.35
321.05	1681.38
321.26	1568.74
321.47	1591.27
321.69	1568.74
321.90	1542.12
322.11	1509.35
322.32	1562.60
322.54	1593.32
322.75	1474.54
322.96	1654.76
323.18	1525.74
323.39	1478.63
323.60	1486.83
323.81	1626.09
324.03	1480.68
324.24	1523.69
324.45	1521.64
324.66	1509.35
324.88	1521.64
325.09	1615.85
325.30	1609.70
325.52	1538.02
325.73	1642.47
325.94	1437.67
326.15	1497.07
326.37	1515.50
326.58	1513.45
326.79	1619.94
327.00	1458.15
327.22	1519.59
327.43	1511.40
327.64	1497.07
327.85	1619.94
328.07	1476.59
328.28	1605.61
328.49	1486.83
328.70	1531.88
328.92	1542.12
329.13	1538.02
329.34	1585.13
329.55	1597.42
329.76	1605.61
329.98	1585.13
330.19	1585.13
330.40	1511.40
330.61	1503.21
330.83	1515.50
331.04	1568.74
331.25	1558.50
331.46	1523.69
331.68	1470.44
331.89	1564.65
332.10	1576.94
332.31	1521.64
332.52	1542.12
332.74	1607.66
332.95	1501.16
333.16	1525.74
333.37	1566.70
333.58	1546.22
333.80	1603.56
334.01	1482.73
334.22	1507.30
334.43	1456.11
334.64	1564.65
334.86	1497.07
335.07	1454.06
335.28	1572.84
335.49	1552.36
335.70	1634.28
335.92	1542.12
336.13	1624.04
336.34	1576.94
336.55	1548.26
336.76	1568.74
336.98	1517.54
337.19	1482.73
337.40	1609.70
337.61	1607.66
337.82	1488.87
338.04	1650.66
338.25	1392.62
338.46	1540.07
338.67	1576.94
338.88	1513.45
339.09	1544.17
339.31	1482.73
339.52	1415.15
339.73	1517.54
339.94	1535.98
340.15	1515.50
340.36	1648.61
340.58	1505.26
340.79	1574.89
341.00	1478.63
341.21	1519.59
341.42	1599.46
341.63	1558.50
341.85	1589.22
342.06	1574.89
342.27	1501.16
342.48	1527.78
342.69	1515.50
342.90	1525.74
343.12	1482.73
343.33	1544.17
343.54	1507.30
343.75	1558.50
343.96	1472.49
344.17	1492.97
344.38	1497.07
344.60	1523.69
344.81	1501.16
345.02	1593.32
345.23	1574.89
345.44	1613.80
345.65	1611.75
345.86	1578.98
346.07	1521.64
346.29	1468.39
346.50	1560.55
346.71	1525.74
346.92	1570.79
347.13	1585.13
347.34	1560.55
347.55	1585.13
347.76	1525.74
347.98	1452.01
348.19	1560.55
348.40	1576.94
348.61	1519.59
348.82	1595.37
349.03	1595.37
349.24	1585.13
349.45	1634.28
349.66	1497.07
349.88	1540.07
350.09	1531.88
350.30	1578.98
350.51	1513.45
350.72	1495.02
350.93	1605.61
351.14	1445.87
351.35	1597.42
351.56	1548.26
351.77	1544.17
351.99	1507.30
352.20	1581.03
352.41	1595.37
352.62	1576.94
352.83	1611.75
353.04	1509.35
353.25	1464.30
353.46	1640.42
353.67	1556.46
353.88	1519.59
354.09	1515.50
354.30	1560.55
354.52	1511.40
354.73	1519.59
354.94	1531.88
355.15	1402.86
355.36	1660.90
355.57	1513.45
355.78	1615.85
355.99	1433.58
356.20	1535.98
356.41	1591.27
356.62	1642.47
356.83	1492.97
357.04	1658.85
357.25	1482.73
357.46	1531.88
357.68	1484.78
357.89	1470.44
358.10	1572.84
358.31	1533.93
358.52	1607.66
358.73	1517.54
358.94	1531.88
359.15	1587.18
359.36	1546.22
359.57	1542.12
359.78	1591.27
359.99	1527.78
360.20	1527.78
360.41	1458.15
360.62	1574.89
360.83	1556.46
361.04	1542.12
361.25	1548.26
361.46	1718.25
361.67	1642.47
361.88	1542.12
362.09	1511.40
362.30	1554.41
362.51	1517.54
362.72	1630.18
362.93	1517.54
363.14	1585.13
363.35	1507.30
363.56	1513.45
363.78	1603.56
363.99	1548.26
364.20	1509.35
364.41	1527.78
364.62	1621.99
364.83	1542.12
365.04	1490.92
365.25	1548.26
365.46	1640.42
365.67	1490.92
365.88	1605.61
366.09	1490.92
366.30	1478.63
366.51	1544.17
366.72	1523.69
366.93	1550.31
367.14	1517.54
367.35	1552.36
367.56	1499.11
367.77	1644.52
367.98	1462.25
368.18	1548.26
368.39	1632.23
368.60	1540.07
368.81	1533.93
369.02	1501.16
369.23	1542.12
369.44	1423.34
369.65	1578.98
369.86	1576.94
370.07	1681.38
370.28	1509.35
370.49	1630.18
370.70	1509.35
370.91	1544.17
371.12	1486.83
371.33	1644.52
371.54	1472.49
371.75	1570.79
371.96	1462.25
372.17	1597.42
372.38	1515.50
372.59	1527.78
372.80	1517.54
373.01	1540.07
373.22	1544.17
373.43	1587.18
373.64	1499.11
373.85	1636.33
374.06	1658.85
374.26	1509.35
374.47	1509.35
374.68	1527.78
374.89	1499.11
375.10	1462.25
375.31	1585.13
375.52	1544.17
375.73	1480.68
375.94	1531.88
376.15	1595.37
376.36	1492.97
376.57	1558.50
376.78	1503.21
376.99	1542.12
377.20	1607.66
377.40	1529.83
377.61	1599.46
377.82	1484.78
378.03	1566.70
378.24	1601.51
378.45	1515.50
378.66	1564.65
378.87	1437.67
379.08	1492.97
379.29	1501.16
379.50	1564.65
379.71	1492.97
379.91	1568.74
380.12	1525.74
380.33	1521.64
380.54	1562.60
380.75	1591.27
380.96	1554.41
381.17	1587.18
381.38	1626.09
381.59	1595.37
381.80	1560.55
382.00	1667.05
382.21	1515.50
382.42	1644.52
382.63	1679.33
382.84	1581.03
383.05	1503.21
383.26	1703.91
383.47	1533.93
383.68	1558.50
383.88	1560.55
384.09	1652.71
384.30	1597.42
384.51	1572.84
384.72	1474.54
384.93	1495.02
385.14	1486.83
385.35	1607.66
385.55	1472.49
385.76	1679.33
385.97	1544.17
386.18	1462.25
386.39	1515.50
386.60	1564.65
386.81	1505.26
387.02	1535.98
387.22	1533.93
387.43	1576.94
387.64	1642.47
387.85	1867.75
388.06	3098.58
388.27	7171.99
388.48	10370.91
388.68	12201.80
388.89	13717.29
389.10	12789.56
389.31	10164.07
389.52	8763.26
389.73	7878.54
389.93	7106.45
390.14	6854.55
390.35	6123.43
390.56	5658.54
390.77	4620.22
390.98	3418.06
391.18	2846.68
391.39	2113.50
391.60	1796.07
391.81	1669.09
392.02	1511.40
392.23	1695.72
392.43	1519.59
392.64	1611.75
392.85	1556.46
393.06	1624.04
393.27	1619.94
393.47	1513.45
393.68	1488.87
393.89	1535.98
394.10	1601.51
394.31	1535.98
394.52	1480.68
394.72	1552.36
394.93	1611.75
395.14	1525.74
395.35	1589.22
395.56	1501.16
395.76	1630.18
395.97	1726.44
396.18	1759.21
396.39	1796.07
396.60	1865.70
396.80	1732.58
397.01	1726.44
397.22	1806.31
397.43	1675.24
397.64	1587.18
397.84	1673.19
398.05	1705.96
398.26	1691.62
398.47	1533.93
398.67	1617.90
398.88	1648.61
399.09	1560.55
399.30	1511.40
399.51	1589.22
399.71	1544.17
399.92	1593.32
400.13	1525.74
400.34	1568.74
400.54	1603.56
400.75	1656.81
400.96	1611.75
401.17	1632.23
401.37	1513.45
401.58	1583.08
401.79	1576.94
402.00	1769.44
402.21	1925.09
402.41	1980.39
402.62	1908.71
402.83	2000.87
403.04	1859.56
403.24	1920.99
403.45	1726.44
403.66	1705.96
403.87	1744.87
404.07	1732.58
404.28	1746.92
404.49	1673.19
404.70	1662.95
404.90	1638.38
405.11	1454.06
405.32	1587.18
405.52	1525.74
405.73	1529.83
405.94	1480.68
406.15	1576.94
406.35	1648.61
406.56	1578.98
406.77	1525.74
406.98	1468.39
407.18	1472.49
407.39	1583.08
407.60	1480.68
407.80	1521.64
408.01	1581.03
408.22	1519.59
408.43	1509.35
408.63	1509.35
408.84	1558.50
409.05	1535.98
409.25	1480.68
409.46	1490.92
409.67	1499.11
409.88	1445.87
410.08	1611.75
410.29	1587.18
410.50	1599.46
410.70	1564.65
410.91	1519.59
411.12	1562.60
411.32	1566.70
411.53	1511.40
411.74	1617.90
411.95	1603.56
412.15	1535.98
412.36	1697.77
412.57	1548.26
412.77	1615.85
412.98	1552.36
413.19	1566.70
413.39	1556.46
413.60	1572.84
413.81	1603.56
414.01	1621.99
414.22	1568.74
414.43	1572.84
414.63	1538.02
414.84	1609.70
415.05	1595.37
415.25	1482.73
415.46	1583.08
415.67	1482.73
415.87	1595.37
416.08	1531.88
416.29	1515.50
416.49	1621.99
416.70	1517.54
416.91	1515.50
417.11	1495.02
417.32	1576.94
417.53	1669.09
417.73	1527.78
417.94	1554.41
418.15	1597.42
418.35	1591.27
418.56	1554.41
418.77	1650.66
418.97	1585.13
419.18	1560.55
419.38	1437.67
419.59	1449.96
419.80	1568.74
420.00	1462.25
420.21	1544.17
420.42	1574.89
420.62	1589.22
420.83	1531.88
421.04	1546.22
421.24	1515.50
421.45	1538.02
421.65	1521.64
421.86	1587.18
422.07	1583.08
422.27	1589.22
422.48	1568.74
422.69	1513.45
422.89	1568.74
423.10	1509.35
423.30	1372.14
423.51	1630.18
423.72	1503.21
423.92	1552.36
424.13	1554.41
424.33	1576.94
424.54	1484.78
424.75	1529.83
424.95	1636.33
425.16	1556.46
425.36	1572.84
425.57	1595.37
425.78	1572.84
425.98	1617.90
426.19	1550.31
426.39	1550.31
426.60	1583.08
426.81	1558.50
427.01	1621.99
427.22	1486.83
427.42	1527.78
427.63	1527.78
427.83	1550.31
428.04	1605.61
428.25	1628.14
428.45	1507.30
428.66	1556.46
428.86	1492.97
429.07	1474.54
429.28	1581.03
429.48	1482.73
429.69	1570.79
429.89	1542.12
430.10	1499.11
430.30	1550.31
430.51	1595.37
430.71	1472.49
430.92	1531.88
431.13	1548.26
431.33	1566.70
431.54	1525.74
431.74	1589.22
431.95	1613.80
432.15	1509.35
432.36	1576.94
432.56	1615.85
432.77	1591.27
432.98	1624.04
433.18	1527.78
433.39	1501.16
433.59	1570.79
433.80	1626.09
434.00	1742.82
434.21	1593.32
434.41	1490.92
434.62	1638.38
434.82	1503.21
435.03	1505.26
435.23	1521.64
435.44	1439.72
435.64	1558.50
435.85	1540.07
436.06	1566.70
436.26	1540.07
436.47	1499.11
436.67	1499.11
436.88	1603.56
437.08	1632.23
437.29	1607.66
437.49	1546.22
437.70	1617.90
437.90	1509.35
438.11	1716.20
438.31	1689.57
438.52	1689.57
438.72	1660.90
438.93	1769.44
439.13	1611.75
439.34	1621.99
439.54	1642.47
439.75	1570.79
439.95	1617.90
440.16	1576.94
440.36	1613.80
440.57	1609.70
440.77	1519.59
440.98	1544.17
441.18	1574.89
441.39	1503.21
441.59	1525.74
441.80	1650.66
442.00	1515.50
442.21	1558.50
442.41	1533.93
442.62	1531.88
442.82	1556.46
443.02	1503.21
443.23	1509.35
443.43	1519.59
443.64	1599.46
443.84	1531.88
444.05	1570.79
444.25	1570.79
444.46	1505.26
444.66	1593.32
444.87	1601.51
445.07	1519.59
445.28	1574.89
445.48	1609.70
445.69	1634.28
445.89	1669.09
446.09	1642.47
446.30	2064.35
446.50	3129.30
446.71	4485.05
446.91	5201.84
447.12	5765.03
447.32	5539.76
447.53	4636.60
447.73	3803.08
447.93	3657.67
448.14	3248.08
448.34	3266.51
448.55	2914.26
448.75	2940.88
448.96	2740.18
449.16	2422.75
449.36	2226.14
449.57	1998.82
449.77	1763.30
449.98	1687.53
450.18	1648.61
450.39	1613.80
450.59	1552.36
450.79	1521.64
451.00	1531.88
451.20	1589.22
451.41	1538.02
451.61	1595.37
451.81	1558.50
452.02	1521.64
452.22	1540.07
452.43	1470.44
452.63	1435.63
452.84	1572.84
453.04	1529.83
453.24	1566.70
453.45	1527.78
453.65	1538.02
453.86	1546.22
454.06	1566.70
454.26	1556.46
454.47	1439.72
454.67	1634.28
454.87	1613.80
455.08	1538.02
455.28	1554.41
455.49	1671.14
455.69	1525.74
455.89	1599.46
456.10	1599.46
456.30	1517.54
456.51	1628.14
456.71	1538.02
456.91	1538.02
457.12	1447.91
457.32	1560.55
457.52	1482.73
457.73	1554.41
457.93	1550.31
458.14	1533.93
458.34	1415.15
458.54	1505.26
458.75	1443.82
458.95	1568.74
459.15	1548.26
459.36	1488.87
459.56	1595.37
459.76	1646.57
459.97	1636.33
460.17	1484.78
460.37	1556.46
460.58	1570.79
460.78	1595.37
460.99	1564.65
461.19	1554.41
461.39	1550.31
461.60	1550.31
461.80	1640.42
462.00	1492.97
462.21	1568.74
462.41	1492.97
462.61	1525.74
462.82	1566.70
463.02	1531.88
463.22	1540.07
463.43	1621.99
463.63	1527.78
463.83	1607.66
464.04	1583.08
464.24	1572.84
464.44	1476.59
464.64	1519.59
464.85	1495.02
465.05	1630.18
465.25	1486.83
465.46	1474.54
465.66	1560.55
465.86	1581.03
466.07	1574.89
466.27	1523.69
466.47	1521.64
466.68	1431.53
466.88	1654.76
467.08	1535.98
467.29	1568.74
467.49	1554.41
467.69	1564.65
467.89	1552.36
468.10	1478.63
468.30	1562.60
468.50	1605.61
468.71	1581.03
468.91	1511.40
469.11	1589.22
469.31	1550.31
469.52	1521.64
469.72	1595.37
469.92	1665.00
470.13	1503.21
470.33	1570.79
470.53	1742.82
470.73	2052.06
470.94	2287.58
471.14	2344.92
471.34	2672.60
471.54	2412.51
471.75	2150.37
471.95	2095.07
472.15	1920.99
472.36	2011.11
472.56	1898.47
472.76	1906.66
472.96	1863.65
473.17	1894.37
473.37	1710.05
473.57	1628.14
473.77	1630.18
473.98	1591.27
474.18	1501.16
474.38	1671.14
474.58	1478.63
474.79	1478.63
474.99	1525.74
475.19	1564.65
475.39	1449.96
475.60	1548.26
475.80	1605.61
476.00	1521.64
476.20	1583.08
476.41	1497.07
476.61	1562.60
476.81	1607.66
477.01	1488.87
477.21	1632.23
477.42	1564.65
477.62	1517.54
477.82	1624.04
478.02	1486.83
478.23	1605.61
478.43	1497.07
478.63	1452.01
478.83	1550.31
479.03	1542.12
479.24	1581.03
479.44	1632.23
479.64	1505.26
479.84	1439.72
480.04	1505.26
480.25	1609.70
480.45	1523.69
480.65	1396.71
480.85	1562.60
481.06	1517.54
481.26	1535.98
481.46	1665.00
481.66	1523.69
481.86	1503.21
482.06	1656.81
482.27	1474.54
482.47	1501.16
482.67	1570.79
482.87	1492.97
483.07	1669.09
483.28	1458.15
483.48	1495.02
483.68	1503.21
483.88	1515.50
484.08	1398.76
484.29	1531.88
484.49	1613.80
484.69	1509.35
484.89	1603.56
485.09	1613.80
485.29	1574.89
485.50	1552.36
485.70	1564.65
485.90	1566.70
486.10	1581.03
486.30	1548.26
486.50	1630.18
486.71	1603.56
486.91	1538.02
487.11	1533.93
487.31	1540.07
487.51	1597.42
487.71	1482.73
487.91	1538.02
488.12	1550.31
488.32	1478.63
488.52	1447.91
488.72	1447.91
488.92	1558.50
489.12	1626.09
489.32	1544.17
489.53	1550.31
489.73	1513.45
489.93	1673.19
490.13	1501.16
490.33	1472.49
490.53	1599.46
490.73	1546.22
490.94	1394.67
491.14	1576.94
491.34	1708.01
491.54	2105.31
491.74	2578.39
491.94	3182.54
492.14	3323.85
492.34	3246.03
492.54	2869.20
492.75	2439.13
492.95	2357.21
493.15	2273.25
493.35	2205.66
493.55	2029.54
493.75	2050.02
493.95	2039.78
494.15	1937.38
494.35	1816.55
494.56	1767.40
494.76	1669.09
494.96	1656.81
495.16	1566.70
495.36	1603.56
495.56	1535.98
495.76	1515.50
495.96	1593.32
496.16	1515.50
496.36	1667.05
496.56	1511.40
496.77	1599.46
496.97	1542.12
497.17	1615.85
497.37	1476.59
497.57	1558.50
497.77	1595.37
497.97	1429.48
498.17	1474.54
498.37	1540.07
498.57	1636.33
498.77	1515.50
498.97	1574.89
499.17	1697.77
499.38	1527.78
499.58	1587.18
499.78	1648.61
499.98	1644.52
500.18	1581.03
500.38	1552.36
500.58	1824.74
500.78	2617.30
500.98	5025.72
501.18	6725.53
501.38	8183.68
501.58	8697.72
501.78	8013.70
501.98	6074.28
502.18	5164.98
502.38	4591.55
502.58	4198.34
502.78	3872.71
502.98	3870.66
503.18	3569.61
503.38	3489.74
503.59	2975.70
503.79	2738.13
503.99	2502.62
504.19	2246.62
504.39	2140.13
504.59	2076.64
504.79	2080.74
504.99	1910.75
505.19	1828.84
505.39	1746.92
505.59	1726.44
505.79	1748.97
505.99	1626.09
506.19	1652.71
506.39	1650.66
506.59	1634.28
506.79	1648.61
506.99	1632.23
507.19	1521.64
507.39	1603.56
507.59	1507.30
507.79	1492.97
507.99	1495.02
508.19	1552.36
508.39	1542.12
508.59	1568.74
508.79	1667.05
508.99	1574.89
509.19	1535.98
509.39	1556.46
509.59	1556.46
509.79	1538.02
509.99	1490.92
510.19	1636.33
510.39	1597.42
510.59	1523.69
510.79	1607.66
510.99	1476.59
511.19	1564.65
511.39	1628.14
511.59	1560.55
511.79	1656.81
511.99	1554.41
512.19	1554.41
512.38	1566.70
512.58	1533.93
512.78	1544.17
512.98	1595.37
513.18	1599.46
513.38	1497.07
513.58	1581.03
513.78	1476.59
513.98	1501.16
514.18	1505.26
514.38	1558.50
514.58	1515.50
514.78	1443.82
514.98	1427.43
515.18	1515.50
515.38	1492.97
515.58	1634.28
515.78	1492.97
515.98	1497.07
516.18	1517.54
516.38	1533.93
516.57	1585.13
516.77	1443.82
516.97	1558.50
517.17	1495.02
517.37	1427.43
517.57	1509.35
517.77	1560.55
517.97	1546.22
518.17	1611.75
518.37	1476.59
518.57	1581.03
518.77	1503.21
518.97	1490.92
519.16	1570.79
519.36	1650.66
519.56	1556.46
519.76	1593.32
519.96	1548.26
520.16	1597.42
520.36	1558.50
520.56	1568.74
520.76	1544.17
520.96	1562.60
521.16	1617.90
521.35	1578.98
521.55	1644.52
521.75	1576.94
521.95	1468.39
522.15	1495.02
522.35	1480.68
522.55	1411.05
522.75	1554.41
522.95	1525.74
523.14	1558.50
523.34	1525.74
523.54	1540.07
523.74	1552.36
523.94	1523.69
524.14	1443.82
524.34	1617.90
524.54	1581.03
524.73	1591.27
524.93	1570.79
525.13	1535.98
525.33	1529.83
525.53	1638.38
525.73	1505.26
525.93	1564.65
526.13	1521.64
526.32	1548.26
526.52	1556.46
526.72	1609.70
526.92	1531.88
527.12	1560.55
527.32	1456.11
527.52	1558.50
527.71	1533.93
527.91	1566.70
528.11	1484.78
528.31	1499.11
528.51	1495.02
528.71	1591.27
528.90	1605.61
529.10	1507.30
529.30	1648.61
529.50	1460.20
529.70	1558.50
529.90	1476.59
530.09	1591.27
530.29	1515.50
530.49	1480.68
530.69	1660.90
530.89	1646.57
531.09	1523.69
531.28	1581.03
531.48	1669.09
531.68	1515.50
531.88	1507.30
532.08	1617.90
532.28	1626.09
532.47	1533.93
532.67	1601.51
532.87	1562.60
533.07	1535.98
533.27	1636.33
533.46	1603.56
533.66	1597.42
533.86	1574.89
534.06	1552.36
534.26	1593.32
534.45	1564.65
534.65	1585.13
534.85	1542.12
535.05	1513.45
535.25	1615.85
535.44	1503.21
535.64	1566.70
535.84	1511.40
536.04	1523.69
536.24	1507.30
536.43	1554.41
536.63	1542.12
536.83	1542.12
537.03	1564.65
537.22	1452.01
537.42	1415.15
537.62	1554.41
537.82	1492.97
538.02	1591.27
538.21	1644.52
538.41	1705.96
538.61	1550.31
538.81	1470.44
539.00	1662.95
539.20	1445.87
539.40	1535.98
539.60	1513.45
539.79	1599.46
539.99	1492.97
540.19	1503.21
540.39	1499.11
540.58	1562.60
540.78	1605.61
540.98	1572.84
541.18	1581.03
541.37	1599.46
541.57	1544.17
541.77	1482.73
541.97	1497.07
542.16	1527.78
542.36	1560.55
542.56	1650.66
542.76	1644.52
542.95	1632.23
543.15	1540.07
543.35	1515.50
543.54	1441.77
543.74	1480.68
543.94	1564.65
544.14	1581.03
544.33	1519.59
544.53	1497.07
544.73	1550.31
544.93	1574.89
545.12	1552.36
545.32	1513.45
545.52	1548.26
545.71	1386.47
545.91	1544.17
546.11	1490.92
546.30	1497.07
546.50	1503.21
546.70	1624.04
546.90	1556.46
547.09	1497.07
547.29	1591.27
547.49	1566.70
547.68	1488.87
547.88	1519.59
548.08	1562.60
548.27	1867.75
548.47	1574.89
548.67	1558.50
548.87	1509.35
549.06	1515.50
549.26	1601.51
549.46	1591.27
549.65	1554.41
549.85	1515.50
550.05	1560.55
550.24	1464.30
550.44	1523.69
550.64	1585.13
550.83	1484.78
551.03	1578.98
551.23	1527.78
551.42	1556.46
551.62	1478.63
551.82	1533.93
552.01	1581.03
552.21	1538.02
552.41	1542.12
552.60	1644.52
552.80	1552.36
553.00	1527.78
553.19	1535.98
553.39	1570.79
553.59	1540.07
553.78	1626.09
553.98	1566.70
554.17	1497.07
554.37	1517.54
554.57	1497.07
554.76	1452.01
554.96	1544.17
555.16	1460.20
555.35	1578.98
555.55	1583.08
555.75	1482.73
555.94	1574.89
556.14	1525.74
556.33	1566.70
556.53	1501.16
556.73	1583.08
556.92	1624.04
557.12	1615.85
557.32	1615.85
557.51	1570.79
557.71	1535.98
557.90	1576.94
558.10	1587.18
558.30	1578.98
558.49	1581.03
558.69	1535.98
558.88	1648.61
559.08	1484.78
559.28	1535.98
559.47	1533.93
559.67	1576.94
559.86	1595.37
560.06	1507.30
560.26	1513.45
560.45	1519.59
560.65	1540.07
560.84	1544.17
561.04	1556.46
561.24	1540.07
561.43	1525.74
561.63	1593.32
561.82	1607.66
562.02	1607.66
562.22	1482.73
562.41	1386.47
562.61	1554.41
562.80	1519.59
563.00	1595.37
563.19	1599.46
563.39	1544.17
563.59	1581.03
563.78	1439.72
563.98	1486.83
564.17	1564.65
564.37	1492.97
564.56	1501.16
564.76	1470.44
564.96	1681.38
565.15	1560.55
565.35	1746.92
565.54	1568.74
565.74	1492.97
565.93	1560.55
566.13	1535.98
566.32	1570.79
566.52	1546.22
566.71	1488.87
566.91	1583.08
567.11	1591.27
567.30	1507.30
567.50	1488.87
567.69	1636.33
567.89	1519.59
568.08	1429.48
568.28	1548.26
568.47	1519.59
568.67	1550.31
568.86	1476.59
569.06	1589.22
569.25	1583.08
569.45	1447.91
569.64	1554.41
569.84	1568.74
570.04	1605.61
570.23	1558.50
570.43	1605.61
570.62	1484.78
570.82	1544.17
571.01	1581.03
571.21	1503.21
571.40	1482.73
571.60	1644.52
571.79	1611.75
571.99	1574.89
572.18	1529.83
572.38	1556.46
572.57	1527.78
572.77	1585.13
572.96	1621.99
573.16	1613.80
573.35	1531.88
573.55	1667.05
573.74	1599.46
573.94	1574.89
574.13	1597.42
574.33	1560.55
574.52	1650.66
574.71	1499.11
574.91	1599.46
575.10	1601.51
575.30	1560.55
575.49	1523.69
575.69	1499.11
575.88	1642.47
576.08	1613.80
576.27	1658.85
576.47	1538.02
576.66	1722.34
576.86	1628.14
577.05	1626.09
577.25	1656.81
577.44	1658.85
577.64	1505.26
577.83	1587.18
578.02	1556.46
578.22	1626.09
578.41	1662.95
578.61	1595.37
578.80	1568.74
579.00	1544.17
579.19	1519.59
579.39	1615.85
579.58	1587.18
579.77	1619.94
579.97	1646.57
580.16	1615.85
580.36	1634.28
580.55	1681.38
580.75	1578.98
580.94	1535.98
581.13	1708.01
581.33	1642.47
581.52	1687.53
581.72	1599.46
581.91	1675.24
582.11	1558.50
582.30	1617.90
582.49	1548.26
582.69	1626.09
582.88	1603.56
583.08	1646.57
583.27	1574.89
583.47	1621.99
583.66	1593.32
583.85	1515.50
584.05	1578.98
584.24	1617.90
584.44	1591.27
584.63	1630.18
584.82	1718.25
585.02	1722.34
585.21	1728.49
585.41	1834.98
585.60	1769.44
585.79	1820.64
585.99	1789.92
586.18	1767.40
586.37	2090.98
586.57	3162.06
586.76	9531.25
586.96	27362.91
587.15	43246.96
587.34	54179.01
587.54	61160.54
587.73	58696.83
587.93	43582.82
588.12	31940.12
588.31	25630.33
588.51	21845.68
588.70	19433.18
588.89	18104.04
589.09	16791.30
589.28	15220.50
589.47	13205.30
589.67	11081.56
589.86	8877.94
590.06	6629.27
590.25	5015.48
590.44	3620.81
590.64	2977.75
590.83	2312.16
591.02	2029.54
591.22	1900.52
591.41	1757.16
591.60	1740.77
591.80	1740.77
591.99	1662.95
592.18	1644.52
592.38	1603.56
592.57	1634.28
592.76	1566.70
592.96	1572.84
593.15	1566.70
593.34	1683.43
593.54	1564.65
593.73	1626.09
593.92	1662.95
594.12	1630.18
594.31	1662.95
594.50	1701.86
594.70	1583.08
594.89	1648.61
595.08	1509.35
595.28	1687.53
595.47	1677.29
595.66	1597.42
595.86	1458.15
596.05	1652.71
596.24	1566.70
596.43	1677.29
596.63	1624.04
596.82	1656.81
597.01	1626.09
597.21	1662.95
597.40	1615.85
597.59	1591.27
597.79	1538.02
597.98	1560.55
598.17	1574.89
598.36	1574.89
598.56	1642.47
598.75	1642.47
598.94	1570.79
599.14	1599.46
599.33	1480.68
599.52	1671.14
599.71	1564.65
599.91	1589.22
600.10	1576.94
600.29	1542.12
600.48	1603.56
600.68	1570.79
600.87	1609.70
601.06	1509.35
601.26	1574.89
601.45	1550.31
601.64	1621.99
601.83	1544.17
602.03	1578.98
602.22	1507.30
602.41	1523.69
602.60	1673.19
602.80	1535.98
602.99	1601.51
603.18	1611.75
603.37	1640.42
603.57	1554.41
603.76	1597.42
603.95	1615.85
604.14	1527.78
604.34	1517.54
604.53	1613.80
604.72	1538.02
604.91	1550.31
605.10	1554.41
605.30	1554.41
605.49	1665.00
605.68	1589.22
605.87	1644.52
606.07	1533.93
606.26	1546.22
606.45	1591.27
606.64	1531.88
606.84	1529.83
607.03	1572.84
607.22	1628.14
607.41	1632.23
607.60	1634.28
607.80	1640.42
607.99	1605.61
608.18	1597.42
608.37	1591.27
608.56	1443.82
608.76	1587.18
608.95	1638.38
609.14	1564.65
609.33	1611.75
609.52	1691.62
609.72	1619.94
609.91	1708.01
610.10	1605.61
610.29	1660.90
610.48	1556.46
610.68	1511.40
610.87	1523.69
611.06	1587.18
611.25	1507.30
611.44	1599.46
611.63	1544.17
611.83	1613.80
612.02	1482.73
612.21	1638.38
612.40	1505.26
612.59	1488.87
612.79	1574.89
612.98	1531.88
613.17	1558.50
613.36	1509.35
613.55	1699.81
613.74	1599.46
613.93	1650.66
614.13	1722.34
614.32	1728.49
614.51	1714.15
614.70	1695.72
614.89	1595.37
615.08	1644.52
615.28	1851.36
615.47	1464.30
615.66	1646.57
615.85	1589.22
616.04	1744.87
616.23	1599.46
616.42	1617.90
616.62	1585.13
616.81	1605.61
617.00	1531.88
617.19	1638.38
617.38	1492.97
617.57	1628.14
617.76	1546.22
617.95	1529.83
618.15	1603.56
618.34	1599.46
618.53	1546.22
618.72	1495.02
618.91	1628.14
619.10	1646.57
619.29	1525.74
619.48	1609.70
619.68	1449.96
619.87	1535.98
620.06	1540.07
620.25	1535.98
620.44	1574.89
620.63	1501.16
620.82	1572.84
621.01	1552.36
621.20	1556.46
621.39	1568.74
621.59	1546.22
621.78	1599.46
621.97	1642.47
622.16	1630.18
622.35	1564.65
622.54	1533.93
622.73	1609.70
622.92	1406.95
623.11	1529.83
623.30	1574.89
623.49	1564.65
623.68	1538.02
623.88	1566.70
624.07	1589.22
624.26	1499.11
624.45	1560.55
624.64	1439.72
624.83	1638.38
625.02	1513.45
625.21	1517.54
625.40	1591.27
625.59	1607.66
625.78	1556.46
625.97	1648.61
626.16	1626.09
626.35	1648.61
626.54	1667.05
626.74	1687.53
626.93	1531.88
627.12	1540.07
627.31	1593.32
627.50	1593.32
627.69	1564.65
627.88	1505.26
628.07	1656.81
628.26	1535.98
628.45	1544.17
628.64	1458.15
628.83	1499.11
629.02	1458.15
629.21	1583.08
629.40	1599.46
629.59	1531.88
629.78	1578.98
629.97	1540.07
630.16	1576.94
630.35	1533.93
630.54	1626.09
630.73	1566.70
630.92	1525.74
631.11	1458.15
631.30	1595.37
631.49	1574.89
631.68	1546.22
631.87	1562.60
632.06	1519.59
632.25	1660.90
632.44	1632.23
632.63	1636.33
632.82	1601.51
633.01	1521.64
633.20	1714.15
633.39	1583.08
633.58	1552.36
633.77	1718.25
633.96	1611.75
634.15	1636.33
634.34	1646.57
634.53	1560.55
634.72	1611.75
634.91	1466.35
635.10	1591.27
635.29	1628.14
635.48	1595.37
635.67	1531.88
635.86	1548.26
636.05	1603.56
636.24	1509.35
636.43	1515.50
636.62	1615.85
636.81	1433.58
637.00	1517.54
637.19	1515.50
637.38	1527.78
637.57	1482.73
637.76	1499.11
637.95	1634.28
638.14	1576.94
638.33	1652.71
638.52	1587.18
638.71	1628.14
638.89	1513.45
639.08	1662.95
639.27	1544.17
639.46	1691.62
639.65	1972.19
639.84	2140.13
640.03	2230.24
640.22	2133.98
640.41	2250.72
640.60	1894.37
640.79	1834.98
640.98	1822.69
641.17	1837.03
641.36	1787.88
641.55	1673.19
641.74	1650.66
641.92	1624.04
642.11	1591.27
642.30	1626.09
642.49	1583.08
642.68	1560.55
642.87	1554.41
643.06	1642.47
643.25	1540.07
643.44	1548.26
643.63	1560.55
643.82	1585.13
644.00	1521.64
644.19	1576.94
644.38	1525.74
644.57	1593.32
644.76	1519.59
644.95	1441.77
645.14	1617.90
645.33	1576.94
645.52	1503.21
645.71	1495.02
645.89	1472.49
646.08	1558.50
646.27	1486.83
646.46	1640.42
646.65	1521.64
646.84	1554.41
647.03	1486.83
647.22	1548.26
647.40	1529.83
647.59	1535.98
647.78	1439.72
647.97	1517.54
648.16	1550.31
648.35	1587.18
648.54	1562.60
648.73	1521.64
648.91	1646.57
649.10	1587.18
649.29	1517.54
649.48	1515.50
649.67	1599.46
649.86	1578.98
650.05	1585.13
650.23	1652.71
650.42	1654.76
650.61	1701.86
650.80	1775.59
650.99	1710.05
651.18	1603.56
651.36	1665.00
651.55	1578.98
651.74	1595.37
651.93	1546.22
652.12	1605.61
652.31	1656.81
652.49	1556.46
652.68	1566.70
652.87	1581.03
653.06	1531.88
653.25	1619.94
653.44	1667.05
653.62	1642.47
653.81	1535.98
654.00	1501.16
654.19	1611.75
654.38	1681.38
654.56	1593.32
654.75	1556.46
654.94	1564.65
655.13	1566.70
655.32	1495.02
655.51	1642.47
655.69	1490.92
655.88	1595.37
656.07	1433.58
656.26	1525.74
656.45	1542.12
656.63	1501.16
656.82	1609.70
657.01	1619.94
657.20	1476.59
657.38	1595.37
657.57	1533.93
657.76	1497.07
657.95	1562.60
658.14	1562.60
658.32	1544.17
658.51	1492.97
658.70	1593.32
658.89	1589.22
659.08	1605.61
659.26	1679.33
659.45	1568.74
659.64	1564.65
659.83	1599.46
660.01	1742.82
660.20	1624.04
660.39	1609.70
660.58	1413.10
660.76	1587.18
660.95	1456.11
661.14	1558.50
661.33	1501.16
661.51	1603.56
661.70	1538.02
661.89	1546.22
662.08	1513.45
662.26	1591.27
662.45	1441.77
662.64	1650.66
662.83	1613.80
663.01	1531.88
663.20	1527.78
663.39	1558.50
663.58	1499.11
663.76	1550.31
663.95	1587.18
664.14	1558.50
664.32	1501.16
664.51	1484.78
664.70	1523.69
664.89	1544.17
665.07	1538.02
665.26	1673.19
665.45	1517.54
665.64	1603.56
665.82	1564.65
666.01	1591.27
666.20	1490.92
666.38	1638.38
666.57	1560.55
666.76	1761.25
666.95	2994.13
667.13	7557.00
667.32	15525.65
667.51	19781.33
667.69	23309.98
667.88	25044.61
668.07	21921.46
668.25	15331.09
668.44	12449.60
668.63	10084.20
668.81	8505.21
669.00	7569.29
669.19	7071.64
669.38	6197.15
669.56	5482.41
669.75	4749.24
669.94	4087.75
670.12	3403.72
670.31	2762.71
670.50	2410.46
670.68	2201.57
670.87	1855.46
671.06	1738.73
671.24	1728.49
671.43	1769.44
671.62	1632.23
671.80	1611.75
671.99	1603.56
672.18	1617.90
672.36	1671.14
672.55	1601.51
672.74	1558.50
672.92	1585.13
673.11	1570.79
673.29	1585.13
673.48	1681.38
673.67	1564.65
673.85	1568.74
674.04	1550.31
674.23	1599.46
674.41	1570.79
674.60	1533.93
674.79	1490.92
674.97	1544.17
675.16	1603.56
675.34	1566.70
675.53	1517.54
675.72	1544.17
675.90	1550.31
676.09	1568.74
676.28	1564.65
676.46	1470.44
676.65	1538.02
676.83	1507.30
677.02	1470.44
677.21	1568.74
677.39	1587.18
677.58	1470.44
677.77	1527.78
677.95	1435.63
678.14	1587.18
678.32	1505.26
678.51	1503.21
678.70	1650.66
678.88	1525.74
679.07	1529.83
679.25	1509.35
679.44	1501.16
679.63	1460.20
679.81	1566.70
680.00	1648.61
680.18	1589.22
680.37	1595.37
680.55	1546.22
680.74	1509.35
680.93	1429.48
681.11	1576.94
681.30	1511.40
681.48	1562.60
681.67	1572.84
681.85	1564.65
682.04	1511.40
682.23	1607.66
682.41	1527.78
682.60	1605.61
682.78	1535.98
682.97	1513.45
683.15	1527.78
683.34	1636.33
683.53	1609.70
683.71	1470.44
683.90	1667.05
684.08	1626.09
684.27	1529.83
684.45	1497.07
684.64	1535.98
684.82	1540.07
685.01	1558.50
685.19	1492.97
685.38	1599.46
685.57	1572.84
685.75	1495.02
685.94	1525.74
686.12	1497.07
686.31	1535.98
686.49	1689.57
686.68	1456.11
686.86	1488.87
687.05	1519.59
687.23	1619.94
687.42	1525.74
687.60	1495.02
687.79	1556.46
687.97	1603.56
688.16	1644.52
688.34	1617.90
688.53	1437.67
688.71	1581.03
688.90	1568.74
689.08	1513.45
689.27	1488.87
689.45	1550.31
689.64	1613.80
689.82	1626.09
690.01	1552.36
690.19	1546.22
690.38	1626.09
690.56	1595.37
690.75	1497.07
690.93	1517.54
691.12	1548.26
691.30	1511.40
691.49	1503.21
691.67	1562.60
691.86	1662.95
692.04	1533.93
692.23	1540.07
692.41	1589.22
692.60	1648.61
692.78	1640.42
692.97	1601.51
693.15	1640.42
693.34	1611.75
693.52	1558.50
693.71	1609.70
693.89	1525.74
694.08	1456.11
694.26	1624.04
694.44	1601.51
694.63	1578.98
694.81	1470.44
695.00	1505.26
695.18	1613.80
695.37	1660.90
695.55	1562.60
695.74	1527.78
695.92	1570.79
696.10	1628.14
696.29	1519.59
696.47	1542.12
696.66	1468.39
696.84	1484.78
697.03	1505.26
697.21	1642.47
697.40	2017.25
697.58	1658.85
697.76	1454.06
697.95	1609.70
698.13	1523.69
698.32	1562.60
698.50	1513.45
698.68	1523.69
698.87	1634.28
699.05	1644.52
699.24	1556.46
699.42	1544.17
699.61	1468.39
699.79	1503.21
699.97	1615.85
700.16	1525.74
700.34	1482.73
700.53	1607.66
700.71	1513.45
700.89	1585.13
701.08	1564.65
701.26	1552.36
701.45	1892.32
701.63	1550.31
701.81	1538.02
702.00	1562.60
702.18	1546.22
702.37	1505.26
702.55	1589.22
702.73	1691.62
702.92	1699.81
703.10	1834.98
703.28	1837.03
703.47	1783.78
703.65	1726.44
703.84	1701.86
704.02	1552.36
704.20	1695.72
704.39	1648.61
704.57	1634.28
704.75	1677.29
704.94	1662.95
705.12	1681.38
705.30	1703.91
705.49	1898.47
705.67	2959.31
705.86	7501.71
706.04	14249.77
706.22	18677.48
706.41	21448.38
706.59	22869.67
706.77	20760.26
706.96	14720.80
707.14	11421.52
707.32	9688.94
707.51	8333.18
707.69	7583.63
707.87	6707.10
708.06	5697.45
708.24	4779.96
708.42	3553.23
708.61	2947.03
708.79	2299.87
708.97	1996.77
709.16	1873.89
709.34	1718.25
709.52	1677.29
709.71	1621.99
709.89	1621.99
710.07	1552.36
710.26	1513.45
710.44	1560.55
710.62	1581.03
710.80	1558.50
710.99	1644.52
711.17	1636.33
711.35	1509.35
711.54	1597.42
711.72	1562.60
711.90	1613.80
712.09	1560.55
712.27	1529.83
712.45	1642.47
712.63	1495.02
712.82	1583.08
713.00	1581.03
713.18	1603.56
713.37	1632.23
713.55	1619.94
713.73	1554.41
713.91	1562.60
714.10	1523.69
714.28	1531.88
714.46	1529.83
714.65	1523.69
714.83	1531.88
715.01	1566.70
715.19	1544.17
715.38	1406.95
715.56	1578.98
715.74	1488.87
715.92	1423.34
716.11	1572.84
716.29	1425.39
716.47	1562.60
716.65	1525.74
716.84	1497.07
717.02	1648.61
717.20	1423.34
717.38	1568.74
717.57	1568.74
717.75	1533.93
717.93	1505.26
718.11	1585.13
718.30	1466.35
718.48	1558.50
718.66	1544.17
718.84	1554.41
719.03	1517.54
719.21	1507.30
719.39	1603.56
719.57	1574.89
719.75	1632.23
719.94	1495.02
720.12	1589.22
720.30	1478.63
720.48	1562.60
720.67	1630.18
720.85	1542.12
721.03	1523.69
721.21	1460.20
721.39	1548.26
721.58	1503.21
721.76	1511.40
721.94	1607.66
722.12	1548.26
722.30	1538.02
722.49	1546.22
722.67	1589.22
722.85	1540.07
723.03	1509.35
723.21	1554.41
723.40	1507.30
723.58	1566.70
723.76	1507.30
723.94	1597.42
724.12	1542.12
724.30	1681.38
724.49	1626.09
724.67	1617.90
724.85	1689.57
725.03	1581.03
725.21	1566.70
725.40	1656.81
725.58	1523.69
725.76	1632.23
725.94	1546.22
726.12	1564.65
726.30	1607.66
726.49	1523.69
726.67	1511.40
726.85	1505.26
727.03	1613.80
727.21	1744.87
727.39	2197.47
727.57	3260.37
727.76	4345.79
727.94	4874.17
728.12	5001.14
728.30	5083.06
728.48	4323.26
728.66	3524.55
728.84	3074.00
729.03	2910.16
729.21	2648.02
729.39	2410.46
729.57	2007.01
729.75	1867.75
729.93	1839.08
730.11	1677.29
730.30	1611.75
730.48	1656.81
730.66	1658.85
730.84	1648.61
731.02	1509.35
731.20	1591.27
731.38	1519.59
731.56	1505.26
731.74	1441.77
731.93	1581.03
732.11	1554.41
732.29	1499.11
732.47	1597.42
732.65	1542.12
732.83	1570.79
733.01	1529.83
733.19	1554.41
733.37	1576.94
733.56	1560.55
733.74	1546.22
733.92	1511.40
734.10	1546.22
734.28	1581.03
734.46	1468.39
734.64	1538.02
734.82	1605.61
735.00	1578.98
735.18	1533.93
735.36	1474.54
735.54	1550.31
735.73	1578.98
735.91	1552.36
736.09	1501.16
736.27	1484.78
736.45	1581.03
736.63	1419.24
736.81	1527.78
736.99	1587.18
737.17	1538.02
737.35	1515.50
737.53	1564.65
737.71	1593.32
737.89	1626.09
738.07	1452.01
738.25	1570.79
738.43	1476.59
738.61	1499.11
738.80	1509.35
738.98	1492.97
739.16	1478.63
739.34	1482.73
739.52	1597.42
739.70	1531.88
739.88	1517.54
740.06	1587.18
740.24	1472.49
740.42	1675.24
740.60	1495.02
740.78	1476.59
740.96	1466.35
741.14	1495.02
741.32	1519.59
741.50	1456.11
741.68	1591.27
741.86	1576.94
742.04	1566.70
742.22	1542.12
742.40	1585.13
742.58	1523.69
742.76	1560.55
742.94	1615.85
743.12	1484.78
743.30	1554.41
743.48	1558.50
743.66	1531.88
743.84	1552.36
744.02	1535.98
744.20	1554.41
744.38	1548.26
744.56	1548.26
744.74	1591.27
744.92	1564.65
745.10	1628.14
745.28	1591.27
745.46	1642.47
745.64	1511.40
745.82	1521.64
746.00	1519.59
746.18	1515.50
746.36	1507.30
746.54	1533.93
746.72	1566.70
746.90	1503.21
747.08	1570.79
747.26	1505.26
747.44	1603.56
747.62	1511.40
747.80	1585.13
747.98	1554.41
748.15	1525.74
748.33	1587.18
748.51	1544.17
748.69	1507.30
748.87	1546.22
749.05	1550.31
749.23	1566.70
749.41	1529.83
749.59	1593.32
749.77	1527.78
749.95	1593.32
750.13	1519.59
750.31	1599.46
750.49	1464.30
750.67	1535.98
750.85	1640.42
751.03	1488.87
751.20	1648.61
751.38	1507.30
751.56	1525.74
751.74	1576.94
751.92	1529.83
752.10	1513.45
752.28	1619.94
752.46	1535.98
752.64	1505.26
752.82	1566.70
753.00	1556.46
753.18	1511.40
753.35	1478.63
753.53	1609.70
753.71	1583.08
753.89	1601.51
754.07	1558.50
754.25	1665.00
754.43	1542.12
754.61	1548.26
754.79	1621.99
754.97	1552.36
755.14	1562.60
755.32	1540.07
755.50	1482.73
755.68	1535.98
755.86	1402.86
756.04	1495.02
756.22	1445.87
756.40	1556.46
756.57	1636.33
756.75	1464.30
756.93	1574.89
757.11	1572.84
757.29	1523.69
757.47	1562.60
757.65	1435.63
757.82	1486.83
758.00	1513.45
758.18	1583.08
758.36	1546.22
758.54	1593.32
758.72	1476.59
758.90	1576.94
759.07	1621.99
759.25	1470.44
759.43	1529.83
759.61	1538.02
759.79	1863.65
759.97	1591.27
760.15	1488.87
760.32	1458.15
760.50	1503.21
760.68	1621.99
760.86	1464.30
761.04	1554.41
761.22	1599.46
761.39	1484.78
761.57	1538.02
761.75	1488.87
761.93	1550.31
762.11	1546.22
762.28	1529.83
762.46	1441.77
762.64	1546.22
762.82	1503.21
763.00	1495.02
763.18	1595.37
763.35	1511.40
763.53	1605.61
763.71	1535.98
763.89	1503.21
764.07	1542.12
764.24	1568.74
764.42	1544.17
764.60	1484.78
764.78	1570.79
764.96	1632.23
765.13	1542.12
765.31	1474.54
765.49	1574.89
765.67	1554.41
765.84	1540.07
766.02	1454.06
766.20	1458.15
766.38	1597.42
766.56	1525.74
766.73	1587.18
766.91	1517.54
767.09	1511.40
767.27	1589.22
767.44	1482.73
767.62	1601.51
767.80	1525.74
767.98	1533.93
768.15	1468.39
768.33	1581.03
768.51	1611.75
768.69	1585.13
768.87	1611.75
769.04	1503.21
769.22	1673.19
769.40	1640.42
769.58	1605.61
769.75	1544.17
769.93	1566.70
770.11	1570.79
770.28	1529.83
770.46	1593.32
770.64	1521.64
770.82	1533.93
770.99	1544.17
771.17	1525.74
771.35	1531.88
771.53	1583.08
771.70	1535.98
771.88	1544.17
772.06	1538.02
772.23	1488.87
772.41	1566.70
772.59	1587.18
772.77	1470.44
772.94	1488.87
773.12	1599.46
773.30	1447.91
773.47	1523.69
773.65	1517.54
773.83	1583.08
774.01	1509.35
774.18	1411.05
774.36	1503.21
774.54	1519.59
774.71	1550.31
774.89	1458.15
775.07	1515.50
775.24	1462.25
775.42	1472.49
775.60	1587.18
775.78	1525.74
775.95	1517.54
776.13	1499.11
776.31	1429.48
776.48	1556.46
776.66	1546.22
776.84	1568.74
777.01	1540.07
777.19	1495.02
777.37	1478.63
777.54	1501.16
777.72	1566.70
777.90	1562.60
778.07	1509.35
778.25	1642.47
778.43	1595.37
778.60	1542.12
778.78	1548.26
778.96	1572.84
779.13	1591.27
779.31	1501.16
779.49	1533.93
779.66	1554.41
779.84	1560.55
780.01	1533.93
780.19	1464.30
780.37	1538.02
780.54	1523.69
780.72	1533.93
780.90	1484.78
781.07	1439.72
781.25	1480.68
781.43	1566.70
781.60	1544.17
781.78	1535.98
781.95	1511.40
782.13	1527.78
782.31	1542.12
782.48	1353.71
782.66	1472.49
782.83	1728.49
783.01	1628.14
783.19	1515.50
783.36	1599.46
783.54	1540.07
783.72	1533.93
783.89	1581.03
784.07	1562.60
784.24	1624.04
784.42	1626.09
784.60	1576.94
784.77	1535.98
784.95	1468.39
785.12	1511.40
785.30	1513.45
785.47	1525.74
785.65	1441.77
785.83	1554.41
786.00	1519.59
786.18	1552.36
786.35	1492.97
786.53	1480.68
786.71	1636.33
786.88	1572.84
787.06	1564.65
787.23	1550.31
787.41	1513.45
787.58	1497.07
787.76	1456.11
787.94	1517.54
788.11	1538.02
788.29	1492.97
788.46	1460.20
788.64	1492.97
788.81	1482.73
788.99	1527.78
789.16	1503.21
789.34	1538.02
789.52	1531.88
789.69	1513.45
789.87	1411.05
790.04	1546.22
790.22	1511.40
790.39	1640.42
790.57	1452.01
790.74	1542.12
790.92	1538.02
791.09	1462.25
791.27	1576.94
791.44	1544.17
791.62	1513.45
791.79	1509.35
791.97	1538.02
792.15	1621.99
792.32	1540.07
792.50	1585.13
792.67	1593.32
792.85	1568.74
793.02	1562.60
793.20	1464.30
793.37	1480.68
793.55	1511.40
793.72	1521.64
793.90	1581.03
794.07	1501.16
794.25	1472.49
794.42	1535.98
794.60	1486.83
794.77	1525.74
794.95	1626.09
795.12	1695.72
795.30	1454.06
795.47	1466.35
795.65	1644.52
795.82	1619.94
796.00	1535.98
796.17	1429.48
796.34	1525.74
796.52	1486.83
796.69	1560.55
796.87	1523.69
797.04	1486.83
797.22	1630.18
797.39	1568.74
797.57	1587.18
797.74	1527.78
797.92	1570.79
798.09	1499.11
798.27	1529.83
798.44	1478.63
798.62	1503.21
798.79	1648.61
798.96	1523.69
799.14	1505.26
799.31	1632.23
799.49	1511.40
799.66	1556.46
799.84	1529.83
800.01	1460.20
800.19	1533.93
800.36	1535.98
800.53	1445.87
800.71	1572.84
800.88	1638.38
801.06	1468.39
801.23	1503.21
801.41	1478.63
801.58	1472.49
801.75	1495.02
801.93	1527.78
802.10	1499.11
802.28	1540.07
802.45	1501.16
802.63	1583.08
802.80	1554.41
802.97	1466.35
803.15	1519.59
803.32	1484.78
803.50	1495.02
803.67	1540.07
803.84	1505.26
804.02	1597.42
804.19	1576.94
804.37	1435.63
804.54	1548.26
804.71	1525.74
804.89	1548.26
805.06	1474.54
805.24	1523.69
805.41	1482.73
805.58	1456.11
805.76	1589.22
805.93	1523.69
806.10	1640.42
806.28	1595.37
806.45	1628.14
806.63	1505.26
806.80	1581.03
806.97	1548.26
807.15	1468.39
807.32	1562.60
807.49	1505.26
807.67	1468.39
807.84	1570.79
808.01	1441.77
808.19	1574.89
808.36	1660.90
808.54	1540.07
808.71	1468.39
808.88	1566.70
809.06	1546.22
809.23	1642.47
809.40	1476.59
809.58	1552.36
809.75	1538.02
809.92	1452.01
810.10	1591.27
810.27	1509.35
810.44	1613.80
810.62	1527.78
810.79	1546.22
810.96	1507.30
811.14	1525.74
811.31	1542.12
811.48	1542.12
811.66	1515.50
811.83	1513.45
812.00	1544.17
812.18	1615.85
812.35	1656.81
812.52	1456.11
812.69	1497.07
812.87	1566.70
813.04	1478.63
813.21	1558.50
813.39	1523.69
813.56	1406.95
813.73	1595.37
813.91	1466.35
814.08	1578.98
814.25	1509.35
814.42	1439.72
814.60	1486.83
814.77	1531.88
814.94	1501.16
815.12	1538.02
815.29	1634.28
815.46	1513.45
815.63	1466.35
815.81	1533.93
815.98	1511.40
816.15	1513.45
816.33	1578.98
816.50	1497.07
816.67	1621.99
816.84	1529.83
817.02	1521.64
817.19	1492.97
817.36	1548.26
817.53	1558.50
817.71	1480.68
817.88	1560.55
818.05	1599.46
818.22	1509.35
818.40	1613.80
818.57	1615.85
818.74	1464.30
818.91	1624.04
819.09	1531.88
819.26	1533.93
819.43	1527.78
819.60	1505.26
819.78	1556.46
819.95	1554.41
820.12	1531.88
820.29	1603.56
820.47	1533.93
820.64	1466.35
820.81	1503.21
820.98	1507.30
821.15	1474.54
821.33	1603.56
821.50	1419.24
821.67	1488.87
821.84	1443.82
822.02	1599.46
822.19	1624.04
822.36	1554.41
822.53	1517.54
822.70	1529.83
822.88	1521.64
823.05	1570.79
823.22	1505.26
823.39	1535.98
823.56	1501.16
823.74	1593.32
823.91	1454.06
824.08	1468.39
824.25	1509.35
824.42	1648.61
824.60	1454.06
824.77	1599.46
824.94	1538.02
825.11	1558.50
825.28	1495.02
825.45	1533.93
825.63	1583.08
825.80	1570.79
825.97	1581.03
826.14	1464.30
826.31	1515.50
826.48	1517.54
826.66	1478.63
826.83	1599.46
827.00	1495.02
827.17	1560.55
827.34	1515.50
827.51	1589.22
827.69	1523.69
827.86	1456.11
828.03	1478.63
828.20	1583.08
828.37	1523.69
828.54	1550.31
828.71	1513.45
828.89	1732.58
829.06	1523.69
829.23	1632.23
829.40	1495.02
829.57	1566.70
829.74	1597.42
829.91	1458.15
830.09	1525.74
830.26	1527.78
830.43	1636.33
830.60	1517.54
830.77	1648.61
830.94	1626.09
831.11	1556.46
831.28	1531.88
831.46	1576.94
831.63	1548.26
831.80	1548.26
831.97	1535.98
832.14	1517.54
832.31	1587.18
832.48	1480.68
832.65	1621.99
832.82	1562.60
832.99	1576.94
833.17	1468.39
833.34	1597.42
833.51	1548.26
833.68	1423.34
833.85	1574.89
834.02	1441.77
834.19	1476.59
834.36	1486.83
834.53	1492.97
834.70	1599.46
834.87	1538.02
835.04	1511.40
835.22	1527.78
835.39	1435.63
835.56	1458.15
835.73	1533.93
835.90	1544.17
836.07	1507.30
836.24	1560.55
836.41	1464.30
836.58	1511.40
836.75	1525.74
836.92	1529.83
837.09	1550.31
837.26	1609.70
837.43	1605.61
837.60	1535.98
837.77	1605.61
837.94	1533.93
838.12	1609.70
838.29	1560.55
838.46	1476.59
838.63	1552.36
838.80	1621.99
838.97	1488.87
839.14	1607.66
839.31	1548.26
839.48	1529.83
839.65	1570.79
839.82	1628.14
839.99	1566.70
840.16	1658.85
840.33	1529.83
840.50	1527.78
840.67	1474.54
840.84	1398.76
841.01	1589.22
841.18	1474.54
841.35	1509.35
841.52	1511.40
841.69	1576.94
841.86	1652.71
842.03	1527.78
842.20	1560.55
842.37	1568.74
842.54	1499.11
842.71	1527.78
842.88	1503.21
843.05	1617.90
843.22	1505.26
843.39	1558.50
843.56	1503.21
843.73	1474.54
843.90	1501.16
844.07	1585.13
844.24	1558.50
844.41	1656.81
844.58	1554.41
844.75	1476.59
844.92	1552.36
845.09	1566.70
845.26	1511.40
845.43	1572.84
845.60	1527.78
845.77	1576.94
845.94	1535.98
846.10	1556.46
846.27	1488.87
846.44	1533.93
846.61	1495.02
846.78	1599.46
846.95	1615.85
847.12	1531.88
847.29	1544.17
847.46	1482.73
847.63	1568.74
847.80	1525.74
847.97	1538.02
848.14	1597.42
848.31	1546.22
848.48	1460.20
848.65	1519.59
848.82	1566.70
848.98	1589.22
849.15	1601.51
849.32	1632.23
849.49	1572.84
849.66	1554.41
849.83	1486.83
850.00	1462.25
850.17	1570.79
850.34	1490.92
850.51	1562.60
850.68	1550.31
850.85	1669.09
851.01	1576.94
851.18	1591.27
851.35	1583.08
851.52	1527.78
851.69	1613.80
851.86	1456.11
852.03	1482.73
852.20	1587.18
852.37	1521.64
852.53	1503.21
852.70	1533.93
852.87	1556.46
853.04	1535.98
853.21	1611.75
853.38	1570.79
853.55	1548.26
853.72	1576.94
853.89	1402.86
854.05	1552.36
854.22	1454.06
854.39	1568.74
854.56	1562.60
854.73	1587.18
854.90	1478.63
855.07	1462.25
855.23	1529.83
855.40	1511.40
855.57	1527.78
855.74	1394.67
855.91	1724.39
856.08	1404.91
856.25	1425.39
856.41	1556.46
856.58	1531.88
856.75	1574.89
856.92	1486.83
857.09	1540.07
857.26	1497.07
857.42	1548.26
857.59	1523.69
857.76	1495.02
857.93	1570.79
858.10	1497.07
858.27	1558.50
858.43	1576.94
858.60	1507.30
858.77	1445.87
858.94	1509.35
859.11	1667.05
859.27	1472.49
859.44	1572.84
859.61	1578.98
859.78	1535.98
859.95	1515.50
860.12	1533.93
860.28	1587.18
860.45	1574.89
860.62	1519.59
860.79	1490.92
860.95	1468.39
861.12	1445.87
861.29	1503.21
861.46	1544.17
861.63	1548.26
861.79	1501.16
861.96	1542.12
862.13	1507.30
862.30	1564.65
862.47	1505.26
862.63	1535.98
862.80	1603.56
862.97	1529.83
863.14	1607.66
863.30	1509.35
863.47	1511.40
863.64	1564.65
863.81	1529.83
863.97	1495.02
864.14	1552.36
864.31	1470.44
864.48	1501.16
864.65	1466.35
864.81	1607.66
864.98	1509.35
865.15	1617.90
865.32	1540.07
865.48	1558.50
865.65	1587.18
865.82	1486.83
865.98	1525.74
866.15	1525.74
866.32	1556.46
866.49	1630.18
866.65	1550.31
866.82	1427.43
866.99	1554.41
867.16	1492.97
867.32	1542.12
867.49	1429.48
867.66	1488.87
867.83	1566.70
867.99	1482.73
868.16	1521.64
868.33	1581.03
868.49	1576.94
868.66	1499.11
868.83	1658.85
868.99	1550.31
869.16	1515.50
869.33	1560.55
869.50	1621.99
869.66	1482.73
869.83	1615.85
870.00	1511.40
870.16	1605.61
870.33	1540.07
870.50	1542.12
870.66	1515.50
870.83	1665.00
871.00	1464.30
871.17	1581.03
871.33	1527.78
871.50	1560.55
871.67	1456.11
871.83	1501.16
872.00	1624.04
872.17	1507.30
872.33	1644.52
872.50	1581.03
872.67	1617.90
872.83	1519.59
873.00	1609.70
873.17	1527.78
873.33	1617.90
873.50	1609.70
873.67	1505.26
873.83	1482.73
874.00	1499.11
874.16	1566.70
874.33	1484.78
874.50	1486.83
874.66	1566.70
874.83	1533.93
875.00	1558.50
875.16	1566.70
875.33	1523.69
875.50	1486.83
875.66	1497.07
875.83	1478.63
875.99	1630.18
876.16	1513.45
876.33	1470.44
876.49	1554.41
876.66	1560.55
876.83	1497.07
876.99	1486.83
877.16	1476.59
877.32	1486.83
877.49	1525.74
877.66	1562.60
877.82	1632.23
877.99	1523.69
878.15	1593.32
878.32	1581.03
878.49	1521.64
878.65	1490.92
878.82	1568.74
878.98	1454.06
879.15	1550.31
879.32	1538.02
879.48	1529.83
879.65	1562.60
879.81	1507.30
879.98	1421.29
880.15	1521.64
880.31	1566.70
880.48	1488.87
880.64	1546.22
880.81	1519.59
880.97	1597.42
881.14	1603.56
881.31	1558.50
881.47	1546.22
881.64	1490.92
881.80	1515.50
881.97	1583.08
882.13	1525.74
882.30	1562.60
882.47	1542.12
882.63	1511.40
882.80	1480.68
882.96	1447.91
883.13	1591.27
883.29	1507.30
883.46	1591.27
883.62	1617.90
883.79	1482.73
883.95	1552.36
884.12	1437.67
884.29	1538.02
884.45	1533.93
884.62	1626.09
884.78	1531.88
884.95	1578.98
885.11	1525.74
885.28	1531.88
885.44	1445.87
885.61	1495.02
885.77	1548.26
885.94	1533.93
886.10	1527.78
886.27	1558.50
886.43	1578.98
886.60	1562.60
886.76	1544.17
886.93	1550.31
887.09	1439.72
887.26	1419.24
887.42	1492.97
887.59	1538.02
887.75	1673.19
887.92	1578.98
888.08	1597.42
888.25	1607.66
888.41	1609.70
888.58	1519.59
888.74	1527.78
888.91	1550.31
>>>>>End Processed Spectral Data<<<<<
