SpectraSuite Data File
++++++++++++++++++++++++++++++++++++
Date: Tue May 03 12:55:58 CEST 2016
User: root
Dark Spectrum Present: No
Reference Spectrum Present: No
Number of Sampled Component Spectra: 1
Spectrometers: USB4C02835
Integration Time (usec): 100000 (USB4C02835)
Spectra Averaged: 1 (USB4C02835)
Boxcar Smoothing: 0 (USB4C02835)
Correct for Electrical Dark: No (USB4C02835)
Strobe/Lamp Enabled: No (USB4C02835)
Correct for Detector Non-linearity: No (USB4C02835)
Correct for Stray Light: No (USB4C02835)
Number of Pixels in Processed Spectrum: 3648
>>>>>Begin Processed Spectral Data<<<<<
177.47	1402.86
177.69	1402.86
177.91	1402.86
178.13	1390.57
178.36	1394.67
178.58	1542.12
178.80	1576.94
179.02	1535.98
179.24	1490.92
179.46	1540.07
179.68	1576.94
179.90	1531.88
180.13	1554.41
180.35	1456.11
180.57	1554.41
180.79	1519.59
181.01	1562.60
181.23	1574.89
181.45	1619.94
181.67	1521.64
181.90	1632.23
182.12	1521.64
182.34	1478.63
182.56	1570.79
182.78	1556.46
183.00	1552.36
183.22	1548.26
183.44	1388.52
183.66	1632.23
183.89	1646.57
184.11	1564.65
184.33	1540.07
184.55	1529.83
184.77	1570.79
184.99	1533.93
185.21	1519.59
185.43	1626.09
185.65	1527.78
185.87	1638.38
186.10	1595.37
186.32	1593.32
186.54	1527.78
186.76	1531.88
186.98	1513.45
187.20	1462.25
187.42	1556.46
187.64	1548.26
187.86	1576.94
188.08	1632.23
188.30	1562.60
188.52	1624.04
188.75	1552.36
188.97	1535.98
189.19	1538.02
189.41	1492.97
189.63	1556.46
189.85	1499.11
190.07	1406.95
190.29	1437.67
190.51	1605.61
190.73	1462.25
190.95	1646.57
191.17	1466.35
191.39	1452.01
191.61	1529.83
191.84	1480.68
192.06	1552.36
192.28	1527.78
192.50	1634.28
192.72	1540.07
192.94	1562.60
193.16	1605.61
193.38	1525.74
193.60	1488.87
193.82	1613.80
194.04	1581.03
194.26	1566.70
194.48	1529.83
194.70	1572.84
194.92	1529.83
195.14	1660.90
195.36	1531.88
195.58	1519.59
195.80	1476.59
196.02	1499.11
196.24	1554.41
196.46	1550.31
196.69	1521.64
196.91	1677.29
197.13	1554.41
197.35	1550.31
197.57	1572.84
197.79	1525.74
198.01	1435.63
198.23	1495.02
198.45	1585.13
198.67	1445.87
198.89	1562.60
199.11	1601.51
199.33	1492.97
199.55	1394.67
199.77	1511.40
199.99	1619.94
200.21	1503.21
200.43	1587.18
200.65	1449.96
200.87	1437.67
201.09	1538.02
201.31	1517.54
201.53	1558.50
201.75	1550.31
201.97	1533.93
202.19	1568.74
202.41	1585.13
202.63	1626.09
202.85	1576.94
203.07	1595.37
203.29	1550.31
203.51	1533.93
203.73	1521.64
203.95	1601.51
204.17	1507.30
204.39	1566.70
204.61	1519.59
204.83	1554.41
205.05	1552.36
205.27	1632.23
205.49	1638.38
205.71	1531.88
205.93	1521.64
206.15	1505.26
206.37	1505.26
206.59	1597.42
206.81	1427.43
207.03	1466.35
207.25	1552.36
207.47	1533.93
207.69	1452.01
207.91	1658.85
208.13	1538.02
208.34	1509.35
208.56	1597.42
208.78	1554.41
209.00	1540.07
209.22	1478.63
209.44	1505.26
209.66	1525.74
209.88	1492.97
210.10	1454.06
210.32	1458.15
210.54	1595.37
210.76	1488.87
210.98	1607.66
211.20	1476.59
211.42	1488.87
211.64	1564.65
211.86	1626.09
212.08	1634.28
212.30	1581.03
212.52	1488.87
212.74	1609.70
212.96	1503.21
213.17	1574.89
213.39	1644.52
213.61	1591.27
213.83	1650.66
214.05	1478.63
214.27	1552.36
214.49	1513.45
214.71	1456.11
214.93	1626.09
215.15	1413.10
215.37	1509.35
215.59	1445.87
215.81	1531.88
216.03	1603.56
216.24	1509.35
216.46	1587.18
216.68	1591.27
216.90	1521.64
217.12	1550.31
217.34	1558.50
217.56	1480.68
217.78	1568.74
218.00	1511.40
218.22	1638.38
218.44	1535.98
218.66	1484.78
218.87	1599.46
219.09	1546.22
219.31	1581.03
219.53	1611.75
219.75	1542.12
219.97	1546.22
220.19	1511.40
220.41	1445.87
220.63	1591.27
220.85	1593.32
221.06	1509.35
221.28	1552.36
221.50	1603.56
221.72	1607.66
221.94	1529.83
222.16	1529.83
222.38	1550.31
222.60	1601.51
222.82	1544.17
223.03	1656.81
223.25	1466.35
223.47	1517.54
223.69	1646.57
223.91	1550.31
224.13	1548.26
224.35	1449.96
224.57	1644.52
224.78	1593.32
225.00	1495.02
225.22	1591.27
225.44	1587.18
225.66	1552.36
225.88	1540.07
226.10	1517.54
226.32	1554.41
226.53	1587.18
226.75	1501.16
226.97	1527.78
227.19	1511.40
227.41	1447.91
227.63	1476.59
227.85	1431.53
228.06	1480.68
228.28	1607.66
228.50	1589.22
228.72	1552.36
228.94	1501.16
229.16	1495.02
229.37	1540.07
229.59	1501.16
229.81	1681.38
230.03	1499.11
230.25	1533.93
230.47	1497.07
230.69	1548.26
230.90	1542.12
231.12	1574.89
231.34	1570.79
231.56	1613.80
231.78	1503.21
232.00	1548.26
232.21	1521.64
232.43	1542.12
232.65	1449.96
232.87	1531.88
233.09	1486.83
233.30	1515.50
233.52	1566.70
233.74	1480.68
233.96	1576.94
234.18	1562.60
234.40	1527.78
234.61	1619.94
234.83	1527.78
235.05	1490.92
235.27	1642.47
235.49	1624.04
235.70	1542.12
235.92	1581.03
236.14	1554.41
236.36	1640.42
236.58	1445.87
236.79	1550.31
237.01	1548.26
237.23	1546.22
237.45	1591.27
237.67	1535.98
237.88	1515.50
238.10	1656.81
238.32	1454.06
238.54	1486.83
238.76	1497.07
238.97	1511.40
239.19	1503.21
239.41	1628.14
239.63	1628.14
239.85	1490.92
240.06	1505.26
240.28	1437.67
240.50	1576.94
240.72	1488.87
240.93	1587.18
241.15	1587.18
241.37	1535.98
241.59	1642.47
241.81	1519.59
242.02	1515.50
242.24	1550.31
242.46	1521.64
242.68	1507.30
242.89	1523.69
243.11	1660.90
243.33	1501.16
243.55	1538.02
243.76	1570.79
243.98	1517.54
244.20	1538.02
244.42	1544.17
244.64	1572.84
244.85	1388.52
245.07	1535.98
245.29	1609.70
245.51	1587.18
245.72	1472.49
245.94	1585.13
246.16	1574.89
246.38	1517.54
246.59	1476.59
246.81	1509.35
247.03	1523.69
247.24	1447.91
247.46	1433.58
247.68	1576.94
247.90	1447.91
248.11	1556.46
248.33	1624.04
248.55	1466.35
248.77	1546.22
248.98	1591.27
249.20	1644.52
249.42	1562.60
249.64	1552.36
249.85	1454.06
250.07	1472.49
250.29	1531.88
250.50	1578.98
250.72	1488.87
250.94	1474.54
251.16	1560.55
251.37	1583.08
251.59	1572.84
251.81	1628.14
252.02	1556.46
252.24	1505.26
252.46	1613.80
252.68	1511.40
252.89	1499.11
253.11	1488.87
253.33	1578.98
253.54	1587.18
253.76	1476.59
253.98	1624.04
254.20	1501.16
254.41	1470.44
254.63	1581.03
254.85	1429.48
255.06	1527.78
255.28	1462.25
255.50	1554.41
255.71	1525.74
255.93	1499.11
256.15	1458.15
256.36	1546.22
256.58	1540.07
256.80	1540.07
257.02	1505.26
257.23	1511.40
257.45	1535.98
257.67	1578.98
257.88	1525.74
258.10	1570.79
258.32	1474.54
258.53	1632.23
258.75	1599.46
258.97	1478.63
259.18	1517.54
259.40	1540.07
259.62	1589.22
259.83	1519.59
260.05	1423.34
260.27	1765.35
260.48	1599.46
260.70	1486.83
260.92	1505.26
261.13	1560.55
261.35	1574.89
261.57	1523.69
261.78	1478.63
262.00	1474.54
262.22	1507.30
262.43	1486.83
262.65	1531.88
262.86	1533.93
263.08	1617.90
263.30	1609.70
263.51	1452.01
263.73	1484.78
263.95	1560.55
264.16	1505.26
264.38	1535.98
264.60	1540.07
264.81	1523.69
265.03	1562.60
265.25	1519.59
265.46	1476.59
265.68	1593.32
265.89	1535.98
266.11	1507.30
266.33	1544.17
266.54	1552.36
266.76	1554.41
266.98	1556.46
267.19	1624.04
267.41	1570.79
267.62	1470.44
267.84	1515.50
268.06	1527.78
268.27	1515.50
268.49	1544.17
268.70	1593.32
268.92	1488.87
269.14	1468.39
269.35	1472.49
269.57	1509.35
269.79	1669.09
270.00	1519.59
270.22	1619.94
270.43	1513.45
270.65	1445.87
270.87	1548.26
271.08	1619.94
271.30	1546.22
271.51	1609.70
271.73	1562.60
271.95	1566.70
272.16	1544.17
272.38	1683.43
272.59	1423.34
272.81	1550.31
273.02	1585.13
273.24	1552.36
273.46	1576.94
273.67	1535.98
273.89	1556.46
274.10	1509.35
274.32	1544.17
274.54	1540.07
274.75	1540.07
274.97	1540.07
275.18	1554.41
275.40	1554.41
275.61	1576.94
275.83	1617.90
276.05	1490.92
276.26	1501.16
276.48	1558.50
276.69	1535.98
276.91	1525.74
277.12	1535.98
277.34	1634.28
277.55	1535.98
277.77	1568.74
277.99	1574.89
278.20	1492.97
278.42	1482.73
278.63	1484.78
278.85	1501.16
279.06	1533.93
279.28	1578.98
279.49	1515.50
279.71	1640.42
279.93	1478.63
280.14	1554.41
280.36	1495.02
280.57	1660.90
280.79	1581.03
281.00	1517.54
281.22	1488.87
281.43	1568.74
281.65	1454.06
281.86	1478.63
282.08	1583.08
282.29	1603.56
282.51	1511.40
282.73	1544.17
282.94	1462.25
283.16	1566.70
283.37	1589.22
283.59	1568.74
283.80	1497.07
284.02	1470.44
284.23	1501.16
284.45	1484.78
284.66	1499.11
284.88	1503.21
285.09	1578.98
285.31	1615.85
285.52	1548.26
285.74	1433.58
285.95	1552.36
286.17	1576.94
286.38	1621.99
286.60	1509.35
286.81	1437.67
287.03	1544.17
287.24	1523.69
287.46	1544.17
287.67	1492.97
287.89	1665.00
288.10	1472.49
288.32	1560.55
288.53	1634.28
288.75	1476.59
288.96	1576.94
289.18	1515.50
289.39	1501.16
289.61	1568.74
289.82	1570.79
290.04	1613.80
290.25	1552.36
290.47	1495.02
290.68	1507.30
290.90	1607.66
291.11	1433.58
291.33	1517.54
291.54	1531.88
291.76	1470.44
291.97	1542.12
292.18	1519.59
292.40	1597.42
292.61	1519.59
292.83	1619.94
293.04	1603.56
293.26	1550.31
293.47	1495.02
293.69	1490.92
293.90	1564.65
294.12	1585.13
294.33	1546.22
294.55	1572.84
294.76	1595.37
294.97	1568.74
295.19	1597.42
295.40	1478.63
295.62	1585.13
295.83	1591.27
296.05	1417.19
296.26	1542.12
296.48	1495.02
296.69	1535.98
296.90	1546.22
297.12	1538.02
297.33	1595.37
297.55	1574.89
297.76	1634.28
297.98	1556.46
298.19	1556.46
298.41	1486.83
298.62	1495.02
298.83	1683.43
299.05	1523.69
299.26	1550.31
299.48	1486.83
299.69	1581.03
299.90	1601.51
300.12	1540.07
300.33	1581.03
300.55	1548.26
300.76	1576.94
300.98	1519.59
301.19	1548.26
301.40	1523.69
301.62	1597.42
301.83	1517.54
302.05	1570.79
302.26	1519.59
302.47	1583.08
302.69	1409.00
302.90	1433.58
303.12	1400.81
303.33	1585.13
303.54	1634.28
303.76	1529.83
303.97	1554.41
304.19	1568.74
304.40	1495.02
304.61	1529.83
304.83	1546.22
305.04	1527.78
305.26	1525.74
305.47	1415.15
305.68	1511.40
305.90	1501.16
306.11	1601.51
306.33	1544.17
306.54	1544.17
306.75	1499.11
306.97	1492.97
307.18	1538.02
307.39	1488.87
307.61	1544.17
307.82	1558.50
308.04	1495.02
308.25	1495.02
308.46	1538.02
308.68	1501.16
308.89	1533.93
309.10	1619.94
309.32	1519.59
309.53	1538.02
309.74	1515.50
309.96	1527.78
310.17	1531.88
310.39	1509.35
310.60	1560.55
310.81	1542.12
311.03	1499.11
311.24	1540.07
311.45	1550.31
311.67	1589.22
311.88	1585.13
312.09	1523.69
312.31	1527.78
312.52	1554.41
312.73	1527.78
312.95	1472.49
313.16	1484.78
313.37	1638.38
313.59	1619.94
313.80	1578.98
314.01	1617.90
314.23	1552.36
314.44	1501.16
314.65	1466.35
314.87	1546.22
315.08	1593.32
315.29	1470.44
315.51	1556.46
315.72	1501.16
315.93	1632.23
316.15	1544.17
316.36	1515.50
316.57	1527.78
316.79	1581.03
317.00	1447.91
317.21	1519.59
317.43	1503.21
317.64	1578.98
317.85	1468.39
318.07	1552.36
318.28	1601.51
318.49	1716.20
318.70	1906.66
318.92	1677.29
319.13	1681.38
319.34	1722.34
319.56	1732.58
319.77	1572.84
319.98	1697.77
320.20	1650.66
320.41	1628.14
320.62	1591.27
320.83	1521.64
321.05	1665.00
321.26	1560.55
321.47	1574.89
321.69	1628.14
321.90	1560.55
322.11	1519.59
322.32	1527.78
322.54	1589.22
322.75	1533.93
322.96	1636.33
323.18	1486.83
323.39	1439.72
323.60	1458.15
323.81	1552.36
324.03	1523.69
324.24	1540.07
324.45	1556.46
324.66	1525.74
324.88	1552.36
325.09	1552.36
325.30	1538.02
325.52	1570.79
325.73	1574.89
325.94	1468.39
326.15	1388.52
326.37	1513.45
326.58	1615.85
326.79	1585.13
327.00	1486.83
327.22	1509.35
327.43	1478.63
327.64	1488.87
327.85	1529.83
328.07	1552.36
328.28	1630.18
328.49	1521.64
328.70	1495.02
328.92	1499.11
329.13	1495.02
329.34	1538.02
329.55	1634.28
329.76	1583.08
329.98	1544.17
330.19	1599.46
330.40	1609.70
330.61	1548.26
330.83	1556.46
331.04	1503.21
331.25	1578.98
331.46	1458.15
331.68	1429.48
331.89	1605.61
332.10	1503.21
332.31	1468.39
332.52	1538.02
332.74	1650.66
332.95	1476.59
333.16	1562.60
333.37	1560.55
333.58	1413.10
333.80	1523.69
334.01	1470.44
334.22	1533.93
334.43	1486.83
334.64	1554.41
334.86	1466.35
335.07	1394.67
335.28	1679.33
335.49	1511.40
335.70	1535.98
335.92	1519.59
336.13	1736.68
336.34	1564.65
336.55	1552.36
336.76	1585.13
336.98	1478.63
337.19	1550.31
337.40	1662.95
337.61	1619.94
337.82	1576.94
338.04	1568.74
338.25	1509.35
338.46	1556.46
338.67	1511.40
338.88	1519.59
339.09	1509.35
339.31	1513.45
339.52	1595.37
339.73	1464.30
339.94	1558.50
340.15	1531.88
340.36	1538.02
340.58	1521.64
340.79	1531.88
341.00	1550.31
341.21	1511.40
341.42	1509.35
341.63	1540.07
341.85	1613.80
342.06	1484.78
342.27	1503.21
342.48	1578.98
342.69	1460.20
342.90	1640.42
343.12	1564.65
343.33	1492.97
343.54	1646.57
343.75	1611.75
343.96	1505.26
344.17	1568.74
344.38	1492.97
344.60	1535.98
344.81	1474.54
345.02	1548.26
345.23	1548.26
345.44	1638.38
345.65	1570.79
345.86	1650.66
346.07	1578.98
346.29	1484.78
346.50	1558.50
346.71	1486.83
346.92	1615.85
347.13	1593.32
347.34	1556.46
347.55	1542.12
347.76	1656.81
347.98	1417.19
348.19	1499.11
348.40	1556.46
348.61	1490.92
348.82	1554.41
349.03	1621.99
349.24	1605.61
349.45	1564.65
349.66	1427.43
349.88	1480.68
350.09	1544.17
350.30	1566.70
350.51	1613.80
350.72	1560.55
350.93	1554.41
351.14	1529.83
351.35	1570.79
351.56	1505.26
351.77	1525.74
351.99	1511.40
352.20	1538.02
352.41	1513.45
352.62	1462.25
352.83	1572.84
353.04	1538.02
353.25	1484.78
353.46	1560.55
353.67	1617.90
353.88	1452.01
354.09	1519.59
354.30	1597.42
354.52	1570.79
354.73	1593.32
354.94	1474.54
355.15	1509.35
355.36	1546.22
355.57	1533.93
355.78	1566.70
355.99	1531.88
356.20	1517.54
356.41	1619.94
356.62	1519.59
356.83	1523.69
357.04	1611.75
357.25	1468.39
357.46	1531.88
357.68	1560.55
357.89	1540.07
358.10	1509.35
358.31	1523.69
358.52	1544.17
358.73	1433.58
358.94	1495.02
359.15	1546.22
359.36	1568.74
359.57	1484.78
359.78	1624.04
359.99	1566.70
360.20	1531.88
360.41	1478.63
360.62	1523.69
360.83	1564.65
361.04	1505.26
361.25	1525.74
361.46	1697.77
361.67	1570.79
361.88	1546.22
362.09	1554.41
362.30	1587.18
362.51	1611.75
362.72	1587.18
362.93	1552.36
363.14	1611.75
363.35	1478.63
363.56	1533.93
363.78	1560.55
363.99	1611.75
364.20	1599.46
364.41	1490.92
364.62	1624.04
364.83	1525.74
365.04	1515.50
365.25	1566.70
365.46	1624.04
365.67	1527.78
365.88	1523.69
366.09	1488.87
366.30	1558.50
366.51	1576.94
366.72	1509.35
366.93	1615.85
367.14	1607.66
367.35	1495.02
367.56	1550.31
367.77	1626.09
367.98	1550.31
368.18	1603.56
368.39	1525.74
368.60	1480.68
368.81	1509.35
369.02	1554.41
369.23	1548.26
369.44	1511.40
369.65	1468.39
369.86	1517.54
370.07	1648.61
370.28	1449.96
370.49	1591.27
370.70	1595.37
370.91	1501.16
371.12	1509.35
371.33	1634.28
371.54	1574.89
371.75	1626.09
371.96	1411.05
372.17	1638.38
372.38	1533.93
372.59	1587.18
372.80	1505.26
373.01	1468.39
373.22	1611.75
373.43	1572.84
373.64	1488.87
373.85	1566.70
374.06	1648.61
374.26	1503.21
374.47	1456.11
374.68	1574.89
374.89	1609.70
375.10	1513.45
375.31	1683.43
375.52	1591.27
375.73	1529.83
375.94	1544.17
376.15	1558.50
376.36	1466.35
376.57	1560.55
376.78	1482.73
376.99	1603.56
377.20	1583.08
377.40	1525.74
377.61	1615.85
377.82	1425.39
378.03	1595.37
378.24	1578.98
378.45	1482.73
378.66	1581.03
378.87	1468.39
379.08	1495.02
379.29	1513.45
379.50	1572.84
379.71	1554.41
379.91	1646.57
380.12	1505.26
380.33	1568.74
380.54	1595.37
380.75	1544.17
380.96	1490.92
381.17	1585.13
381.38	1589.22
381.59	1617.90
381.80	1572.84
382.00	1642.47
382.21	1554.41
382.42	1685.48
382.63	1636.33
382.84	1595.37
383.05	1617.90
383.26	1617.90
383.47	1554.41
383.68	1585.13
383.88	1630.18
384.09	1654.76
384.30	1660.90
384.51	1601.51
384.72	1548.26
384.93	1464.30
385.14	1568.74
385.35	1607.66
385.55	1478.63
385.76	1630.18
385.97	1535.98
386.18	1476.59
386.39	1495.02
386.60	1564.65
386.81	1556.46
387.02	1521.64
387.22	1517.54
387.43	1609.70
387.64	1712.10
387.85	1806.31
388.06	3037.14
388.27	7247.76
388.48	10717.02
388.68	12318.53
388.89	13991.72
389.10	12687.17
389.31	10239.84
389.52	9009.01
389.73	7790.47
389.93	7219.09
390.14	6707.10
390.35	6119.33
390.56	5527.47
390.77	4558.78
390.98	3590.09
391.18	2740.18
391.39	2230.24
391.60	1800.16
391.81	1703.91
392.02	1535.98
392.23	1677.29
392.43	1578.98
392.64	1689.57
392.85	1542.12
393.06	1570.79
393.27	1619.94
393.47	1527.78
393.68	1529.83
393.89	1523.69
394.10	1531.88
394.31	1572.84
394.52	1540.07
394.72	1554.41
394.93	1619.94
395.14	1470.44
395.35	1576.94
395.56	1527.78
395.76	1587.18
395.97	1693.67
396.18	1761.25
396.39	1697.77
396.60	1875.94
396.80	1738.73
397.01	1755.11
397.22	1654.76
397.43	1730.53
397.64	1611.75
397.84	1601.51
398.05	1613.80
398.26	1607.66
398.47	1621.99
398.67	1576.94
398.88	1677.29
399.09	1552.36
399.30	1497.07
399.51	1609.70
399.71	1585.13
399.92	1542.12
400.13	1619.94
400.34	1509.35
400.54	1478.63
400.75	1611.75
400.96	1609.70
401.17	1611.75
401.37	1634.28
401.58	1562.60
401.79	1560.55
402.00	1851.36
402.21	1972.19
402.41	1912.80
402.62	1972.19
402.83	1961.95
403.04	1918.95
403.24	1865.70
403.45	1611.75
403.66	1767.40
403.87	1660.90
404.07	1742.82
404.28	1701.86
404.49	1683.43
404.70	1683.43
404.90	1552.36
405.11	1574.89
405.32	1617.90
405.52	1482.73
405.73	1517.54
405.94	1497.07
406.15	1519.59
406.35	1550.31
406.56	1523.69
406.77	1599.46
406.98	1597.42
407.18	1495.02
407.39	1572.84
407.60	1585.13
407.80	1558.50
408.01	1544.17
408.22	1540.07
408.43	1519.59
408.63	1552.36
408.84	1603.56
409.05	1587.18
409.25	1497.07
409.46	1476.59
409.67	1517.54
409.88	1466.35
410.08	1470.44
410.29	1585.13
410.50	1519.59
410.70	1599.46
410.91	1509.35
411.12	1548.26
411.32	1560.55
411.53	1552.36
411.74	1681.38
411.95	1615.85
412.15	1574.89
412.36	1628.14
412.57	1646.57
412.77	1677.29
412.98	1531.88
413.19	1574.89
413.39	1538.02
413.60	1576.94
413.81	1677.29
414.01	1519.59
414.22	1576.94
414.43	1601.51
414.63	1617.90
414.84	1652.71
415.05	1554.41
415.25	1454.06
415.46	1554.41
415.67	1572.84
415.87	1576.94
416.08	1552.36
416.29	1533.93
416.49	1535.98
416.70	1572.84
416.91	1529.83
417.11	1548.26
417.32	1585.13
417.53	1529.83
417.73	1525.74
417.94	1560.55
418.15	1583.08
418.35	1476.59
418.56	1576.94
418.77	1638.38
418.97	1564.65
419.18	1513.45
419.38	1462.25
419.59	1556.46
419.80	1605.61
420.00	1488.87
420.21	1542.12
420.42	1597.42
420.62	1535.98
420.83	1554.41
421.04	1501.16
421.24	1576.94
421.45	1607.66
421.65	1574.89
421.86	1583.08
422.07	1542.12
422.27	1546.22
422.48	1517.54
422.69	1519.59
422.89	1515.50
423.10	1564.65
423.30	1519.59
423.51	1525.74
423.72	1531.88
423.92	1626.09
424.13	1439.72
424.33	1503.21
424.54	1554.41
424.75	1486.83
424.95	1593.32
425.16	1525.74
425.36	1591.27
425.57	1572.84
425.78	1540.07
425.98	1558.50
426.19	1480.68
426.39	1501.16
426.60	1533.93
426.81	1669.09
427.01	1578.98
427.22	1533.93
427.42	1433.58
427.63	1529.83
427.83	1538.02
428.04	1636.33
428.25	1615.85
428.45	1542.12
428.66	1574.89
428.86	1560.55
429.07	1470.44
429.28	1544.17
429.48	1544.17
429.69	1411.05
429.89	1515.50
430.10	1511.40
430.30	1552.36
430.51	1593.32
430.71	1540.07
430.92	1615.85
431.13	1533.93
431.33	1585.13
431.54	1621.99
431.74	1708.01
431.95	1599.46
432.15	1462.25
432.36	1515.50
432.56	1538.02
432.77	1554.41
432.98	1644.52
433.18	1501.16
433.39	1566.70
433.59	1560.55
433.80	1593.32
434.00	1617.90
434.21	1570.79
434.41	1576.94
434.62	1628.14
434.82	1552.36
435.03	1527.78
435.23	1587.18
435.44	1419.24
435.64	1495.02
435.85	1554.41
436.06	1546.22
436.26	1515.50
436.47	1556.46
436.67	1472.49
436.88	1607.66
437.08	1546.22
437.29	1656.81
437.49	1578.98
437.70	1607.66
437.90	1593.32
438.11	1652.71
438.31	1628.14
438.52	1638.38
438.72	1771.49
438.93	1751.01
439.13	1665.00
439.34	1636.33
439.54	1677.29
439.75	1730.53
439.95	1599.46
440.16	1548.26
440.36	1507.30
440.57	1599.46
440.77	1562.60
440.98	1615.85
441.18	1531.88
441.39	1507.30
441.59	1558.50
441.80	1654.76
442.00	1538.02
442.21	1572.84
442.41	1507.30
442.62	1576.94
442.82	1490.92
443.02	1613.80
443.23	1497.07
443.43	1509.35
443.64	1626.09
443.84	1605.61
444.05	1591.27
444.25	1552.36
444.46	1574.89
444.66	1533.93
444.87	1624.04
445.07	1486.83
445.28	1472.49
445.48	1570.79
445.69	1613.80
445.89	1716.20
446.09	1531.88
446.30	2000.87
446.50	3221.45
446.71	4519.87
446.91	5191.60
447.12	5842.85
447.32	5539.76
447.53	4571.07
447.73	4065.22
447.93	3647.43
448.14	3303.37
448.34	3241.93
448.55	2916.31
448.75	2867.16
448.96	2783.19
449.16	2336.73
449.36	2279.39
449.57	2039.78
449.77	1773.54
449.98	1687.53
450.18	1728.49
450.39	1583.08
450.59	1613.80
450.79	1517.54
451.00	1566.70
451.20	1603.56
451.41	1513.45
451.61	1607.66
451.81	1611.75
452.02	1540.07
452.22	1511.40
452.43	1517.54
452.63	1480.68
452.84	1511.40
453.04	1535.98
453.24	1552.36
453.45	1480.68
453.65	1476.59
453.86	1544.17
454.06	1544.17
454.26	1519.59
454.47	1497.07
454.67	1601.51
454.87	1615.85
455.08	1511.40
455.28	1636.33
455.49	1503.21
455.69	1574.89
455.89	1648.61
456.10	1632.23
456.30	1501.16
456.51	1564.65
456.71	1527.78
456.91	1658.85
457.12	1583.08
457.32	1519.59
457.52	1433.58
457.73	1501.16
457.93	1593.32
458.14	1511.40
458.34	1554.41
458.54	1572.84
458.75	1607.66
458.95	1626.09
459.15	1576.94
459.36	1597.42
459.56	1546.22
459.76	1650.66
459.97	1544.17
460.17	1628.14
460.37	1566.70
460.58	1517.54
460.78	1562.60
460.99	1527.78
461.19	1505.26
461.39	1499.11
461.60	1480.68
461.80	1576.94
462.00	1439.72
462.21	1523.69
462.41	1511.40
462.61	1458.15
462.82	1417.19
463.02	1626.09
463.22	1568.74
463.43	1533.93
463.63	1591.27
463.83	1675.24
464.04	1570.79
464.24	1538.02
464.44	1535.98
464.64	1632.23
464.85	1482.73
465.05	1597.42
465.25	1492.97
465.46	1472.49
465.66	1511.40
465.86	1572.84
466.07	1566.70
466.27	1509.35
466.47	1511.40
466.68	1486.83
466.88	1619.94
467.08	1556.46
467.29	1597.42
467.49	1550.31
467.69	1566.70
467.89	1564.65
468.10	1566.70
468.30	1587.18
468.50	1546.22
468.71	1611.75
468.91	1570.79
469.11	1578.98
469.31	1570.79
469.52	1533.93
469.72	1609.70
469.92	1566.70
470.13	1572.84
470.33	1581.03
470.53	1714.15
470.73	2236.38
470.94	2363.36
471.14	2422.75
471.34	2656.22
471.54	2488.28
471.75	2230.24
471.95	2119.65
472.15	2070.50
472.36	1957.86
472.56	1961.95
472.76	1945.57
472.96	1896.42
473.17	1865.70
473.37	1818.60
473.57	1615.85
473.77	1585.13
473.98	1603.56
474.18	1538.02
474.38	1701.86
474.58	1626.09
474.79	1492.97
474.99	1640.42
475.19	1566.70
475.39	1589.22
475.60	1593.32
475.80	1564.65
476.00	1574.89
476.20	1548.26
476.41	1566.70
476.61	1646.57
476.81	1605.61
477.01	1423.34
477.21	1611.75
477.42	1581.03
477.62	1501.16
477.82	1595.37
478.02	1548.26
478.23	1574.89
478.43	1439.72
478.63	1443.82
478.83	1499.11
479.03	1533.93
479.24	1628.14
479.44	1683.43
479.64	1447.91
479.84	1456.11
480.04	1507.30
480.25	1560.55
480.45	1482.73
480.65	1552.36
480.85	1609.70
481.06	1456.11
481.26	1490.92
481.46	1568.74
481.66	1630.18
481.86	1533.93
482.06	1540.07
482.27	1587.18
482.47	1576.94
482.67	1542.12
482.87	1462.25
483.07	1527.78
483.28	1476.59
483.48	1515.50
483.68	1576.94
483.88	1517.54
484.08	1464.30
484.29	1558.50
484.49	1538.02
484.69	1437.67
484.89	1585.13
485.09	1554.41
485.29	1554.41
485.50	1581.03
485.70	1474.54
485.90	1646.57
486.10	1597.42
486.30	1613.80
486.50	1583.08
486.71	1529.83
486.91	1605.61
487.11	1558.50
487.31	1486.83
487.51	1560.55
487.71	1472.49
487.91	1488.87
488.12	1615.85
488.32	1443.82
488.52	1523.69
488.72	1472.49
488.92	1578.98
489.12	1560.55
489.32	1521.64
489.53	1667.05
489.73	1474.54
489.93	1605.61
490.13	1591.27
490.33	1478.63
490.53	1617.90
490.73	1617.90
490.94	1525.74
491.14	1630.18
491.34	1722.34
491.54	2236.38
491.74	2672.60
491.94	3123.15
492.14	3295.18
492.34	3166.16
492.54	2717.65
492.75	2498.52
492.95	2428.89
493.15	2240.48
493.35	2242.53
493.55	2058.21
493.75	2086.88
493.95	2019.30
494.15	1957.86
494.35	1734.63
494.56	1748.97
494.76	1675.24
494.96	1665.00
495.16	1636.33
495.36	1562.60
495.56	1533.93
495.76	1445.87
495.96	1529.83
496.16	1540.07
496.36	1607.66
496.56	1519.59
496.77	1544.17
496.97	1544.17
497.17	1585.13
497.37	1427.43
497.57	1605.61
497.77	1546.22
497.97	1478.63
498.17	1505.26
498.37	1544.17
498.57	1525.74
498.77	1484.78
498.97	1552.36
499.17	1652.71
499.38	1636.33
499.58	1597.42
499.78	1507.30
499.98	1648.61
500.18	1613.80
500.38	1603.56
500.58	1880.04
500.78	2660.31
500.98	5185.46
501.18	6815.64
501.38	7966.60
501.58	8863.61
501.78	7948.17
501.98	6221.73
502.18	5367.73
502.38	4736.95
502.58	4177.86
502.78	3901.38
502.98	3624.90
503.18	3585.99
503.38	3350.48
503.59	2983.89
503.79	2793.43
503.99	2547.67
504.19	2281.44
504.39	2172.89
504.59	2109.41
504.79	2056.16
504.99	1888.23
505.19	1783.78
505.39	1695.72
505.59	1798.12
505.79	1746.92
505.99	1667.05
506.19	1646.57
506.39	1724.39
506.59	1656.81
506.79	1599.46
506.99	1595.37
507.19	1591.27
507.39	1591.27
507.59	1519.59
507.79	1484.78
507.99	1478.63
508.19	1589.22
508.39	1578.98
508.59	1515.50
508.79	1591.27
508.99	1595.37
509.19	1531.88
509.39	1556.46
509.59	1492.97
509.79	1562.60
509.99	1519.59
510.19	1591.27
510.39	1613.80
510.59	1443.82
510.79	1464.30
510.99	1542.12
511.19	1484.78
511.39	1634.28
511.59	1650.66
511.79	1587.18
511.99	1525.74
512.19	1593.32
512.38	1492.97
512.58	1488.87
512.78	1480.68
512.98	1603.56
513.18	1617.90
513.38	1466.35
513.58	1597.42
513.78	1585.13
513.98	1576.94
514.18	1495.02
514.38	1540.07
514.58	1613.80
514.78	1495.02
514.98	1531.88
515.18	1570.79
515.38	1540.07
515.58	1681.38
515.78	1519.59
515.98	1564.65
516.18	1531.88
516.38	1546.22
516.57	1538.02
516.77	1513.45
516.97	1626.09
517.17	1509.35
517.37	1476.59
517.57	1558.50
517.77	1449.96
517.97	1490.92
518.17	1636.33
518.37	1497.07
518.57	1576.94
518.77	1501.16
518.97	1503.21
519.16	1558.50
519.36	1564.65
519.56	1581.03
519.76	1583.08
519.96	1576.94
520.16	1628.14
520.36	1507.30
520.56	1607.66
520.76	1519.59
520.96	1488.87
521.16	1562.60
521.35	1517.54
521.55	1562.60
521.75	1562.60
521.95	1505.26
522.15	1533.93
522.35	1527.78
522.55	1507.30
522.75	1574.89
522.95	1599.46
523.14	1542.12
523.34	1538.02
523.54	1613.80
523.74	1564.65
523.94	1581.03
524.14	1443.82
524.34	1519.59
524.54	1538.02
524.73	1495.02
524.93	1544.17
525.13	1492.97
525.33	1472.49
525.53	1595.37
525.73	1521.64
525.93	1556.46
526.13	1517.54
526.32	1570.79
526.52	1548.26
526.72	1621.99
526.92	1490.92
527.12	1533.93
527.32	1443.82
527.52	1501.16
527.71	1650.66
527.91	1572.84
528.11	1511.40
528.31	1558.50
528.51	1503.21
528.71	1552.36
528.90	1503.21
529.10	1550.31
529.30	1538.02
529.50	1499.11
529.70	1523.69
529.90	1583.08
530.09	1476.59
530.29	1476.59
530.49	1472.49
530.69	1619.94
530.89	1558.50
531.09	1591.27
531.28	1540.07
531.48	1550.31
531.68	1552.36
531.88	1525.74
532.08	1652.71
532.28	1562.60
532.47	1562.60
532.67	1662.95
532.87	1533.93
533.07	1538.02
533.27	1607.66
533.46	1611.75
533.66	1593.32
533.86	1552.36
534.06	1605.61
534.26	1505.26
534.45	1495.02
534.65	1574.89
534.85	1535.98
535.05	1505.26
535.25	1556.46
535.44	1476.59
535.64	1585.13
535.84	1474.54
536.04	1472.49
536.24	1533.93
536.43	1478.63
536.63	1560.55
536.83	1595.37
537.03	1505.26
537.22	1468.39
537.42	1519.59
537.62	1497.07
537.82	1497.07
538.02	1538.02
538.21	1611.75
538.41	1691.62
538.61	1624.04
538.81	1550.31
539.00	1665.00
539.20	1429.48
539.40	1474.54
539.60	1533.93
539.79	1599.46
539.99	1476.59
540.19	1478.63
540.39	1497.07
540.58	1568.74
540.78	1617.90
540.98	1603.56
541.18	1583.08
541.37	1636.33
541.57	1505.26
541.77	1542.12
541.97	1486.83
542.16	1533.93
542.36	1587.18
542.56	1687.53
542.76	1677.29
542.95	1572.84
543.15	1597.42
543.35	1578.98
543.54	1525.74
543.74	1505.26
543.94	1605.61
544.14	1538.02
544.33	1615.85
544.53	1578.98
544.73	1490.92
544.93	1523.69
545.12	1540.07
545.32	1595.37
545.52	1578.98
545.71	1505.26
545.91	1509.35
546.11	1576.94
546.30	1482.73
546.50	1492.97
546.70	1636.33
546.90	1560.55
547.09	1447.91
547.29	1523.69
547.49	1529.83
547.68	1525.74
547.88	1587.18
548.08	1564.65
548.27	1978.34
548.47	1486.83
548.67	1521.64
548.87	1560.55
549.06	1517.54
549.26	1535.98
549.46	1564.65
549.65	1476.59
549.85	1548.26
550.05	1568.74
550.24	1503.21
550.44	1605.61
550.64	1535.98
550.83	1511.40
551.03	1599.46
551.23	1597.42
551.42	1621.99
551.62	1515.50
551.82	1515.50
552.01	1603.56
552.21	1585.13
552.41	1558.50
552.60	1552.36
552.80	1566.70
553.00	1476.59
553.19	1521.64
553.39	1646.57
553.59	1486.83
553.78	1556.46
553.98	1576.94
554.17	1478.63
554.37	1609.70
554.57	1560.55
554.76	1490.92
554.96	1550.31
555.16	1609.70
555.35	1531.88
555.55	1566.70
555.75	1540.07
555.94	1595.37
556.14	1542.12
556.33	1548.26
556.53	1544.17
556.73	1550.31
556.92	1505.26
557.12	1638.38
557.32	1605.61
557.51	1652.71
557.71	1529.83
557.90	1609.70
558.10	1585.13
558.30	1507.30
558.49	1505.26
558.69	1509.35
558.88	1619.94
559.08	1578.98
559.28	1542.12
559.47	1619.94
559.67	1548.26
559.86	1675.24
560.06	1591.27
560.26	1583.08
560.45	1583.08
560.65	1535.98
560.84	1519.59
561.04	1554.41
561.24	1548.26
561.43	1515.50
561.63	1615.85
561.82	1583.08
562.02	1568.74
562.22	1505.26
562.41	1513.45
562.61	1466.35
562.80	1495.02
563.00	1630.18
563.19	1607.66
563.39	1566.70
563.59	1599.46
563.78	1462.25
563.98	1462.25
564.17	1511.40
564.37	1497.07
564.56	1548.26
564.76	1531.88
564.96	1648.61
565.15	1527.78
565.35	1656.81
565.54	1495.02
565.74	1658.85
565.93	1546.22
566.13	1523.69
566.32	1574.89
566.52	1572.84
566.71	1587.18
566.91	1558.50
567.11	1484.78
567.30	1484.78
567.50	1521.64
567.69	1554.41
567.89	1550.31
568.08	1495.02
568.28	1560.55
568.47	1452.01
568.67	1593.32
568.86	1595.37
569.06	1605.61
569.25	1566.70
569.45	1507.30
569.64	1560.55
569.84	1480.68
570.04	1550.31
570.23	1499.11
570.43	1568.74
570.62	1581.03
570.82	1572.84
571.01	1488.87
571.21	1474.54
571.40	1488.87
571.60	1607.66
571.79	1595.37
571.99	1519.59
572.18	1499.11
572.38	1574.89
572.57	1531.88
572.77	1613.80
572.96	1630.18
573.16	1591.27
573.35	1546.22
573.55	1593.32
573.74	1585.13
573.94	1599.46
574.13	1531.88
574.33	1660.90
574.52	1687.53
574.71	1619.94
574.91	1552.36
575.10	1540.07
575.30	1507.30
575.49	1527.78
575.69	1501.16
575.88	1587.18
576.08	1554.41
576.27	1679.33
576.47	1566.70
576.66	1621.99
576.86	1669.09
577.05	1652.71
577.25	1578.98
577.44	1695.72
577.64	1599.46
577.83	1615.85
578.02	1542.12
578.22	1648.61
578.41	1595.37
578.61	1568.74
578.80	1509.35
579.00	1578.98
579.19	1544.17
579.39	1605.61
579.58	1601.51
579.77	1589.22
579.97	1679.33
580.16	1722.34
580.36	1703.91
580.55	1617.90
580.75	1607.66
580.94	1638.38
581.13	1583.08
581.33	1667.05
581.52	1683.43
581.72	1687.53
581.91	1742.82
582.11	1613.80
582.30	1632.23
582.49	1585.13
582.69	1691.62
582.88	1615.85
583.08	1468.39
583.27	1646.57
583.47	1617.90
583.66	1540.07
583.85	1583.08
584.05	1621.99
584.24	1671.14
584.44	1574.89
584.63	1667.05
584.82	1697.77
585.02	1769.44
585.21	1775.59
585.41	1748.97
585.60	1746.92
585.79	1839.08
585.99	1843.17
586.18	1740.77
586.37	2039.78
586.57	3196.88
586.76	9496.43
586.96	27389.53
587.15	43703.65
587.34	54123.72
587.54	61291.61
587.73	58995.84
587.93	43206.00
588.12	31950.36
588.31	25857.65
588.51	22015.66
588.70	19674.84
588.89	18128.62
589.09	16697.09
589.28	15191.83
589.47	13213.49
589.67	11097.94
589.86	8828.79
590.06	6666.14
590.25	5005.24
590.44	3741.64
590.64	2877.40
590.83	2418.65
591.02	2150.37
591.22	1904.61
591.41	1812.45
591.60	1691.62
591.80	1722.34
591.99	1562.60
592.18	1591.27
592.38	1658.85
592.57	1642.47
592.76	1533.93
592.96	1652.71
593.15	1595.37
593.34	1636.33
593.54	1615.85
593.73	1562.60
593.92	1611.75
594.12	1566.70
594.31	1607.66
594.50	1652.71
594.70	1650.66
594.89	1683.43
595.08	1566.70
595.28	1644.52
595.47	1734.63
595.66	1652.71
595.86	1505.26
596.05	1583.08
596.24	1595.37
596.43	1681.38
596.63	1576.94
596.82	1492.97
597.01	1595.37
597.21	1718.25
597.40	1619.94
597.59	1632.23
597.79	1597.42
597.98	1583.08
598.17	1583.08
598.36	1634.28
598.56	1597.42
598.75	1570.79
598.94	1607.66
599.14	1605.61
599.33	1570.79
599.52	1587.18
599.71	1566.70
599.91	1697.77
600.10	1523.69
600.29	1546.22
600.48	1587.18
600.68	1650.66
600.87	1564.65
601.06	1576.94
601.26	1552.36
601.45	1591.27
601.64	1523.69
601.83	1570.79
602.03	1488.87
602.22	1503.21
602.41	1605.61
602.60	1599.46
602.80	1599.46
602.99	1585.13
603.18	1581.03
603.37	1619.94
603.57	1585.13
603.76	1574.89
603.95	1576.94
604.14	1538.02
604.34	1509.35
604.53	1523.69
604.72	1550.31
604.91	1566.70
605.10	1650.66
605.30	1517.54
605.49	1642.47
605.68	1531.88
605.87	1587.18
606.07	1540.07
606.26	1525.74
606.45	1544.17
606.64	1538.02
606.84	1562.60
607.03	1535.98
607.22	1640.42
607.41	1550.31
607.60	1560.55
607.80	1671.14
607.99	1636.33
608.18	1605.61
608.37	1617.90
608.56	1566.70
608.76	1642.47
608.95	1681.38
609.14	1603.56
609.33	1665.00
609.52	1716.20
609.72	1619.94
609.91	1677.29
610.10	1626.09
610.29	1650.66
610.48	1529.83
610.68	1615.85
610.87	1576.94
611.06	1597.42
611.25	1556.46
611.44	1626.09
611.63	1540.07
611.83	1576.94
612.02	1472.49
612.21	1566.70
612.40	1452.01
612.59	1535.98
612.79	1548.26
612.98	1546.22
613.17	1535.98
613.36	1558.50
613.55	1605.61
613.74	1574.89
613.93	1671.14
614.13	1699.81
614.32	1763.30
614.51	1781.73
614.70	1673.19
614.89	1648.61
615.08	1650.66
615.28	1849.32
615.47	1689.57
615.66	1605.61
615.85	1617.90
616.04	1652.71
616.23	1626.09
616.42	1714.15
616.62	1585.13
616.81	1574.89
617.00	1578.98
617.19	1607.66
617.38	1515.50
617.57	1566.70
617.76	1576.94
617.95	1548.26
618.15	1591.27
618.34	1708.01
618.53	1523.69
618.72	1603.56
618.91	1683.43
619.10	1644.52
619.29	1544.17
619.48	1552.36
619.68	1486.83
619.87	1454.06
620.06	1540.07
620.25	1609.70
620.44	1439.72
620.63	1560.55
620.82	1581.03
621.01	1515.50
621.20	1464.30
621.39	1591.27
621.59	1603.56
621.78	1486.83
621.97	1568.74
622.16	1515.50
622.35	1480.68
622.54	1517.54
622.73	1611.75
622.92	1515.50
623.11	1492.97
623.30	1550.31
623.49	1581.03
623.68	1492.97
623.88	1544.17
624.07	1581.03
624.26	1519.59
624.45	1535.98
624.64	1542.12
624.83	1570.79
625.02	1558.50
625.21	1538.02
625.40	1591.27
625.59	1658.85
625.78	1505.26
625.97	1583.08
626.16	1613.80
626.35	1640.42
626.54	1609.70
626.74	1683.43
626.93	1621.99
627.12	1574.89
627.31	1675.24
627.50	1562.60
627.69	1619.94
627.88	1531.88
628.07	1523.69
628.26	1540.07
628.45	1478.63
628.64	1587.18
628.83	1613.80
629.02	1439.72
629.21	1511.40
629.40	1587.18
629.59	1546.22
629.78	1527.78
629.97	1548.26
630.16	1572.84
630.35	1601.51
630.54	1527.78
630.73	1509.35
630.92	1597.42
631.11	1478.63
631.30	1556.46
631.49	1538.02
631.68	1482.73
631.87	1587.18
632.06	1505.26
632.25	1628.14
632.44	1583.08
632.63	1638.38
632.82	1589.22
633.01	1646.57
633.20	1628.14
633.39	1640.42
633.58	1626.09
633.77	1656.81
633.96	1601.51
634.15	1609.70
634.34	1662.95
634.53	1572.84
634.72	1540.07
634.91	1488.87
635.10	1535.98
635.29	1607.66
635.48	1599.46
635.67	1515.50
635.86	1556.46
636.05	1601.51
636.24	1576.94
636.43	1568.74
636.62	1527.78
636.81	1433.58
637.00	1621.99
637.19	1650.66
637.38	1484.78
637.57	1570.79
637.76	1603.56
637.95	1628.14
638.14	1667.05
638.33	1619.94
638.52	1746.92
638.71	1597.42
638.89	1523.69
639.08	1755.11
639.27	1654.76
639.46	1617.90
639.65	1939.43
639.84	2025.44
640.03	2097.12
640.22	2183.13
640.41	2166.75
640.60	1970.15
640.79	1828.84
640.98	1759.21
641.17	1773.54
641.36	1730.53
641.55	1787.88
641.74	1658.85
641.92	1636.33
642.11	1558.50
642.30	1626.09
642.49	1587.18
642.68	1640.42
642.87	1538.02
643.06	1650.66
643.25	1523.69
643.44	1478.63
643.63	1540.07
643.82	1523.69
644.00	1581.03
644.19	1533.93
644.38	1499.11
644.57	1527.78
644.76	1542.12
644.95	1523.69
645.14	1554.41
645.33	1599.46
645.52	1560.55
645.71	1460.20
645.89	1462.25
646.08	1515.50
646.27	1527.78
646.46	1589.22
646.65	1511.40
646.84	1617.90
647.03	1441.77
647.22	1570.79
647.40	1546.22
647.59	1533.93
647.78	1460.20
647.97	1589.22
648.16	1517.54
648.35	1691.62
648.54	1585.13
648.73	1564.65
648.91	1581.03
649.10	1511.40
649.29	1535.98
649.48	1552.36
649.67	1470.44
649.86	1570.79
650.05	1519.59
650.23	1660.90
650.42	1646.57
650.61	1746.92
650.80	1755.11
650.99	1681.38
651.18	1605.61
651.36	1683.43
651.55	1558.50
651.74	1656.81
651.93	1538.02
652.12	1542.12
652.31	1636.33
652.49	1533.93
652.68	1546.22
652.87	1613.80
653.06	1658.85
653.25	1744.87
653.44	1599.46
653.62	1640.42
653.81	1503.21
654.00	1513.45
654.19	1599.46
654.38	1685.48
654.56	1570.79
654.75	1544.17
654.94	1558.50
655.13	1535.98
655.32	1552.36
655.51	1605.61
655.69	1495.02
655.88	1587.18
656.07	1511.40
656.26	1656.81
656.45	1484.78
656.63	1497.07
656.82	1599.46
657.01	1548.26
657.20	1558.50
657.38	1624.04
657.57	1535.98
657.76	1517.54
657.95	1560.55
658.14	1497.07
658.32	1515.50
658.51	1511.40
658.70	1574.89
658.89	1529.83
659.08	1540.07
659.26	1691.62
659.45	1552.36
659.64	1650.66
659.83	1665.00
660.01	1734.63
660.20	1632.23
660.39	1716.20
660.58	1464.30
660.76	1572.84
660.95	1476.59
661.14	1617.90
661.33	1447.91
661.51	1603.56
661.70	1535.98
661.89	1595.37
662.08	1552.36
662.26	1517.54
662.45	1458.15
662.64	1570.79
662.83	1441.77
663.01	1488.87
663.20	1478.63
663.39	1548.26
663.58	1572.84
663.76	1535.98
663.95	1560.55
664.14	1554.41
664.32	1482.73
664.51	1497.07
664.70	1517.54
664.89	1574.89
665.07	1570.79
665.26	1615.85
665.45	1490.92
665.64	1617.90
665.82	1587.18
666.01	1576.94
666.20	1595.37
666.38	1640.42
666.57	1607.66
666.76	1857.51
666.95	2998.23
667.13	7503.76
667.32	15808.27
667.51	20059.85
667.69	23656.09
667.88	25050.75
668.07	21970.61
668.25	15494.93
668.44	12513.09
668.63	10030.95
668.81	8456.06
669.00	7640.97
669.19	7057.30
669.38	6344.61
669.56	5676.97
669.75	4679.61
669.94	4083.65
670.12	3397.58
670.31	2793.43
670.50	2424.80
670.68	2185.18
670.87	1853.41
671.06	1734.63
671.24	1716.20
671.43	1761.25
671.62	1544.17
671.80	1570.79
671.99	1726.44
672.18	1595.37
672.36	1656.81
672.55	1642.47
672.74	1591.27
672.92	1507.30
673.11	1538.02
673.29	1482.73
673.48	1601.51
673.67	1603.56
673.85	1619.94
674.04	1527.78
674.23	1578.98
674.41	1583.08
674.60	1548.26
674.79	1452.01
674.97	1523.69
675.16	1572.84
675.34	1583.08
675.53	1523.69
675.72	1554.41
675.90	1601.51
676.09	1552.36
676.28	1552.36
676.46	1480.68
676.65	1587.18
676.83	1507.30
677.02	1638.38
677.21	1501.16
677.39	1538.02
677.58	1515.50
677.77	1529.83
677.95	1546.22
678.14	1552.36
678.32	1531.88
678.51	1443.82
678.70	1593.32
678.88	1544.17
679.07	1605.61
679.25	1574.89
679.44	1591.27
679.63	1517.54
679.81	1576.94
680.00	1521.64
680.18	1554.41
680.37	1546.22
680.55	1548.26
680.74	1447.91
680.93	1462.25
681.11	1515.50
681.30	1605.61
681.48	1578.98
681.67	1550.31
681.85	1566.70
682.04	1558.50
682.23	1624.04
682.41	1605.61
682.60	1527.78
682.78	1550.31
682.97	1544.17
683.15	1601.51
683.34	1509.35
683.53	1576.94
683.71	1527.78
683.90	1560.55
684.08	1656.81
684.27	1574.89
684.45	1533.93
684.64	1589.22
684.82	1437.67
685.01	1542.12
685.19	1492.97
685.38	1568.74
685.57	1492.97
685.75	1484.78
685.94	1599.46
686.12	1501.16
686.31	1492.97
686.49	1601.51
686.68	1495.02
686.86	1546.22
687.05	1562.60
687.23	1585.13
687.42	1523.69
687.60	1523.69
687.79	1675.24
687.97	1599.46
688.16	1583.08
688.34	1626.09
688.53	1525.74
688.71	1572.84
688.90	1585.13
689.08	1533.93
689.27	1427.43
689.45	1560.55
689.64	1509.35
689.82	1535.98
690.01	1585.13
690.19	1560.55
690.38	1523.69
690.56	1554.41
690.75	1474.54
690.93	1544.17
691.12	1495.02
691.30	1564.65
691.49	1511.40
691.67	1531.88
691.86	1632.23
692.04	1462.25
692.23	1556.46
692.41	1585.13
692.60	1673.19
692.78	1632.23
692.97	1658.85
693.15	1673.19
693.34	1654.76
693.52	1630.18
693.71	1511.40
693.89	1560.55
694.08	1488.87
694.26	1583.08
694.44	1599.46
694.63	1523.69
694.81	1507.30
695.00	1564.65
695.18	1593.32
695.37	1601.51
695.55	1495.02
695.74	1560.55
695.92	1519.59
696.10	1593.32
696.29	1402.86
696.47	1523.69
696.66	1527.78
696.84	1519.59
697.03	1587.18
697.21	1718.25
697.40	2015.20
697.58	1562.60
697.76	1497.07
697.95	1443.82
698.13	1531.88
698.32	1486.83
698.50	1562.60
698.68	1540.07
698.87	1621.99
699.05	1669.09
699.24	1488.87
699.42	1458.15
699.61	1624.04
699.79	1548.26
699.97	1542.12
700.16	1460.20
700.34	1470.44
700.53	1568.74
700.71	1615.85
700.89	1665.00
701.08	1521.64
701.26	1554.41
701.45	1896.42
701.63	1548.26
701.81	1572.84
702.00	1472.49
702.18	1570.79
702.37	1533.93
702.55	1597.42
702.73	1720.29
702.92	1789.92
703.10	1802.21
703.28	1812.45
703.47	1734.63
703.65	1742.82
703.84	1767.40
704.02	1644.52
704.20	1658.85
704.39	1595.37
704.57	1630.18
704.75	1609.70
704.94	1691.62
705.12	1591.27
705.30	1660.90
705.49	1832.93
705.67	2912.21
705.86	7477.13
706.04	14391.08
706.22	18609.89
706.41	21382.84
706.59	22787.75
706.77	20893.38
706.96	14520.10
707.14	11597.65
707.32	9457.52
707.51	8679.29
707.69	7622.54
707.87	6727.58
708.06	5656.49
708.24	4745.14
708.42	3647.43
708.61	3004.37
708.79	2285.53
708.97	1927.14
709.16	1775.59
709.34	1757.16
709.52	1587.18
709.71	1658.85
709.89	1605.61
710.07	1482.73
710.26	1560.55
710.44	1572.84
710.62	1669.09
710.80	1605.61
710.99	1562.60
711.17	1533.93
711.35	1521.64
711.54	1505.26
711.72	1603.56
711.90	1568.74
712.09	1566.70
712.27	1546.22
712.45	1556.46
712.63	1495.02
712.82	1552.36
713.00	1581.03
713.18	1607.66
713.37	1617.90
713.55	1521.64
713.73	1572.84
713.91	1529.83
714.10	1576.94
714.28	1533.93
714.46	1667.05
714.65	1507.30
714.83	1540.07
715.01	1509.35
715.19	1433.58
715.38	1419.24
715.56	1550.31
715.74	1511.40
715.92	1474.54
716.11	1572.84
716.29	1462.25
716.47	1529.83
716.65	1531.88
716.84	1513.45
717.02	1660.90
717.20	1509.35
717.38	1456.11
717.57	1533.93
717.75	1478.63
717.93	1562.60
718.11	1558.50
718.30	1523.69
718.48	1531.88
718.66	1599.46
718.84	1533.93
719.03	1585.13
719.21	1550.31
719.39	1628.14
719.57	1597.42
719.75	1607.66
719.94	1507.30
720.12	1533.93
720.30	1570.79
720.48	1617.90
720.67	1458.15
720.85	1540.07
721.03	1609.70
721.21	1540.07
721.39	1593.32
721.58	1560.55
721.76	1581.03
721.94	1626.09
722.12	1605.61
722.30	1581.03
722.49	1535.98
722.67	1495.02
722.85	1517.54
723.03	1484.78
723.21	1464.30
723.40	1538.02
723.58	1615.85
723.76	1468.39
723.94	1626.09
724.12	1603.56
724.30	1687.53
724.49	1681.38
724.67	1574.89
724.85	1656.81
725.03	1630.18
725.21	1648.61
725.40	1658.85
725.58	1576.94
725.76	1597.42
725.94	1544.17
726.12	1503.21
726.30	1550.31
726.49	1613.80
726.67	1562.60
726.85	1546.22
727.03	1609.70
727.21	1761.25
727.39	2191.33
727.57	3375.05
727.76	4321.21
727.94	4870.07
728.12	5015.48
728.30	5140.40
728.48	4392.89
728.66	3456.97
728.84	3207.12
729.03	2869.20
729.21	2699.22
729.39	2324.44
729.57	1972.19
729.75	1894.37
729.93	1730.53
730.11	1640.42
730.30	1558.50
730.48	1583.08
730.66	1621.99
730.84	1632.23
731.02	1509.35
731.20	1519.59
731.38	1593.32
731.56	1587.18
731.74	1535.98
731.93	1531.88
732.11	1503.21
732.29	1581.03
732.47	1562.60
732.65	1601.51
732.83	1527.78
733.01	1546.22
733.19	1542.12
733.37	1589.22
733.56	1544.17
733.74	1576.94
733.92	1656.81
734.10	1501.16
734.28	1572.84
734.46	1460.20
734.64	1540.07
734.82	1486.83
735.00	1527.78
735.18	1515.50
735.36	1601.51
735.54	1525.74
735.73	1540.07
735.91	1511.40
736.09	1613.80
736.27	1554.41
736.45	1517.54
736.63	1439.72
736.81	1482.73
736.99	1605.61
737.17	1609.70
737.35	1507.30
737.53	1505.26
737.71	1581.03
737.89	1607.66
738.07	1490.92
738.25	1572.84
738.43	1429.48
738.61	1509.35
738.80	1460.20
738.98	1503.21
739.16	1474.54
739.34	1511.40
739.52	1624.04
739.70	1421.29
739.88	1576.94
740.06	1560.55
740.24	1460.20
740.42	1587.18
740.60	1427.43
740.78	1468.39
740.96	1523.69
741.14	1554.41
741.32	1562.60
741.50	1468.39
741.68	1624.04
741.86	1621.99
742.04	1560.55
742.22	1525.74
742.40	1540.07
742.58	1540.07
742.76	1550.31
742.94	1583.08
743.12	1427.43
743.30	1521.64
743.48	1587.18
743.66	1576.94
743.84	1509.35
744.02	1589.22
744.20	1531.88
744.38	1497.07
744.56	1495.02
744.74	1656.81
744.92	1554.41
745.10	1574.89
745.28	1568.74
745.46	1638.38
745.64	1544.17
745.82	1548.26
746.00	1546.22
746.18	1630.18
746.36	1472.49
746.54	1585.13
746.72	1495.02
746.90	1568.74
747.08	1673.19
747.26	1495.02
747.44	1581.03
747.62	1585.13
747.80	1578.98
747.98	1576.94
748.15	1560.55
748.33	1671.14
748.51	1535.98
748.69	1611.75
748.87	1492.97
749.05	1587.18
749.23	1488.87
749.41	1497.07
749.59	1503.21
749.77	1568.74
749.95	1486.83
750.13	1482.73
750.31	1560.55
750.49	1484.78
750.67	1490.92
750.85	1581.03
751.03	1583.08
751.20	1560.55
751.38	1523.69
751.56	1501.16
751.74	1558.50
751.92	1515.50
752.10	1488.87
752.28	1591.27
752.46	1462.25
752.64	1574.89
752.82	1529.83
753.00	1591.27
753.18	1535.98
753.35	1546.22
753.53	1521.64
753.71	1583.08
753.89	1476.59
754.07	1535.98
754.25	1626.09
754.43	1533.93
754.61	1554.41
754.79	1535.98
754.97	1521.64
755.14	1626.09
755.32	1425.39
755.50	1546.22
755.68	1587.18
755.86	1558.50
756.04	1566.70
756.22	1486.83
756.40	1480.68
756.57	1576.94
756.75	1499.11
756.93	1603.56
757.11	1550.31
757.29	1495.02
757.47	1560.55
757.65	1427.43
757.82	1499.11
758.00	1560.55
758.18	1499.11
758.36	1515.50
758.54	1609.70
758.72	1495.02
758.90	1554.41
759.07	1548.26
759.25	1515.50
759.43	1548.26
759.61	1501.16
759.79	1851.36
759.97	1564.65
760.15	1523.69
760.32	1517.54
760.50	1626.09
760.68	1599.46
760.86	1525.74
761.04	1552.36
761.22	1560.55
761.39	1601.51
761.57	1527.78
761.75	1630.18
761.93	1548.26
762.11	1521.64
762.28	1624.04
762.46	1505.26
762.64	1558.50
762.82	1581.03
763.00	1552.36
763.18	1607.66
763.35	1454.06
763.53	1544.17
763.71	1583.08
763.89	1562.60
764.07	1548.26
764.24	1509.35
764.42	1538.02
764.60	1519.59
764.78	1556.46
764.96	1576.94
765.13	1521.64
765.31	1591.27
765.49	1511.40
765.67	1544.17
765.84	1509.35
766.02	1501.16
766.20	1458.15
766.38	1585.13
766.56	1578.98
766.73	1507.30
766.91	1511.40
767.09	1521.64
767.27	1595.37
767.44	1531.88
767.62	1554.41
767.80	1619.94
767.98	1490.92
768.15	1511.40
768.33	1560.55
768.51	1605.61
768.69	1585.13
768.87	1490.92
769.04	1595.37
769.22	1593.32
769.40	1556.46
769.58	1673.19
769.75	1562.60
769.93	1642.47
770.11	1492.97
770.28	1462.25
770.46	1476.59
770.64	1535.98
770.82	1538.02
770.99	1517.54
771.17	1589.22
771.35	1607.66
771.53	1578.98
771.70	1527.78
771.88	1497.07
772.06	1560.55
772.23	1562.60
772.41	1564.65
772.59	1564.65
772.77	1443.82
772.94	1540.07
773.12	1552.36
773.30	1495.02
773.47	1593.32
773.65	1445.87
773.83	1609.70
774.01	1591.27
774.18	1462.25
774.36	1572.84
774.54	1519.59
774.71	1554.41
774.89	1445.87
775.07	1523.69
775.24	1533.93
775.42	1476.59
775.60	1654.76
775.78	1492.97
775.95	1476.59
776.13	1458.15
776.31	1452.01
776.48	1544.17
776.66	1576.94
776.84	1482.73
777.01	1513.45
777.19	1568.74
777.37	1445.87
777.54	1607.66
777.72	1587.18
777.90	1511.40
778.07	1593.32
778.25	1665.00
778.43	1658.85
778.60	1511.40
778.78	1607.66
778.96	1583.08
779.13	1542.12
779.31	1601.51
779.49	1482.73
779.66	1572.84
779.84	1546.22
780.01	1515.50
780.19	1544.17
780.37	1605.61
780.54	1548.26
780.72	1468.39
780.90	1566.70
781.07	1513.45
781.25	1576.94
781.43	1595.37
781.60	1462.25
781.78	1632.23
781.95	1484.78
782.13	1507.30
782.31	1519.59
782.48	1468.39
782.66	1503.21
782.83	1574.89
783.01	1492.97
783.19	1583.08
783.36	1538.02
783.54	1468.39
783.72	1605.61
783.89	1527.78
784.07	1505.26
784.24	1515.50
784.42	1611.75
784.60	1611.75
784.77	1546.22
784.95	1423.34
785.12	1511.40
785.30	1556.46
785.47	1474.54
785.65	1480.68
785.83	1507.30
786.00	1388.52
786.18	1495.02
786.35	1501.16
786.53	1513.45
786.71	1576.94
786.88	1605.61
787.06	1525.74
787.23	1505.26
787.41	1548.26
787.58	1542.12
787.76	1490.92
787.94	1546.22
788.11	1529.83
788.29	1535.98
788.46	1593.32
788.64	1452.01
788.81	1587.18
788.99	1523.69
789.16	1535.98
789.34	1482.73
789.52	1468.39
789.69	1509.35
789.87	1480.68
790.04	1423.34
790.22	1585.13
790.39	1671.14
790.57	1423.34
790.74	1544.17
790.92	1538.02
791.09	1529.83
791.27	1544.17
791.44	1529.83
791.62	1478.63
791.79	1591.27
791.97	1474.54
792.15	1624.04
792.32	1546.22
792.50	1523.69
792.67	1638.38
792.85	1556.46
793.02	1540.07
793.20	1482.73
793.37	1560.55
793.55	1519.59
793.72	1492.97
793.90	1599.46
794.07	1501.16
794.25	1488.87
794.42	1447.91
794.60	1574.89
794.77	1570.79
794.95	1558.50
795.12	1595.37
795.30	1597.42
795.47	1452.01
795.65	1740.77
795.82	1525.74
796.00	1550.31
796.17	1519.59
796.34	1443.82
796.52	1486.83
796.69	1533.93
796.87	1597.42
797.04	1540.07
797.22	1589.22
797.39	1578.98
797.57	1525.74
797.74	1548.26
797.92	1464.30
798.09	1511.40
798.27	1529.83
798.44	1595.37
798.62	1464.30
798.79	1566.70
798.96	1523.69
799.14	1581.03
799.31	1615.85
799.49	1509.35
799.66	1503.21
799.84	1519.59
800.01	1495.02
800.19	1587.18
800.36	1495.02
800.53	1525.74
800.71	1607.66
800.88	1593.32
801.06	1443.82
801.23	1527.78
801.41	1433.58
801.58	1527.78
801.75	1533.93
801.93	1476.59
802.10	1523.69
802.28	1533.93
802.45	1419.24
802.63	1509.35
802.80	1535.98
802.97	1529.83
803.15	1499.11
803.32	1560.55
803.50	1513.45
803.67	1521.64
803.84	1515.50
804.02	1578.98
804.19	1509.35
804.37	1462.25
804.54	1501.16
804.71	1488.87
804.89	1542.12
805.06	1533.93
805.24	1558.50
805.41	1454.06
805.58	1503.21
805.76	1660.90
805.93	1581.03
806.10	1570.79
806.28	1548.26
806.45	1564.65
806.63	1505.26
806.80	1585.13
806.97	1490.92
807.15	1554.41
807.32	1566.70
807.49	1566.70
807.67	1495.02
807.84	1601.51
808.01	1478.63
808.19	1687.53
808.36	1703.91
808.54	1578.98
808.71	1411.05
808.88	1533.93
809.06	1621.99
809.23	1554.41
809.40	1415.15
809.58	1554.41
809.75	1482.73
809.92	1478.63
810.10	1630.18
810.27	1566.70
810.44	1529.83
810.62	1574.89
810.79	1546.22
810.96	1515.50
811.14	1486.83
811.31	1538.02
811.48	1521.64
811.66	1503.21
811.83	1566.70
812.00	1638.38
812.18	1628.14
812.35	1609.70
812.52	1507.30
812.69	1513.45
812.87	1540.07
813.04	1525.74
813.21	1550.31
813.39	1468.39
813.56	1415.15
813.73	1599.46
813.91	1404.91
814.08	1607.66
814.25	1570.79
814.42	1523.69
814.60	1490.92
814.77	1615.85
814.94	1507.30
815.12	1538.02
815.29	1656.81
815.46	1497.07
815.63	1492.97
815.81	1578.98
815.98	1425.39
816.15	1492.97
816.33	1578.98
816.50	1554.41
816.67	1482.73
816.84	1431.53
817.02	1474.54
817.19	1552.36
817.36	1542.12
817.53	1552.36
817.71	1447.91
817.88	1576.94
818.05	1564.65
818.22	1437.67
818.40	1605.61
818.57	1585.13
818.74	1548.26
818.91	1523.69
819.09	1531.88
819.26	1597.42
819.43	1468.39
819.60	1517.54
819.78	1490.92
819.95	1591.27
820.12	1527.78
820.29	1540.07
820.47	1519.59
820.64	1466.35
820.81	1464.30
820.98	1488.87
821.15	1484.78
821.33	1505.26
821.50	1445.87
821.67	1585.13
821.84	1558.50
822.02	1538.02
822.19	1560.55
822.36	1535.98
822.53	1462.25
822.70	1521.64
822.88	1490.92
823.05	1589.22
823.22	1599.46
823.39	1564.65
823.56	1546.22
823.74	1634.28
823.91	1476.59
824.08	1433.58
824.25	1509.35
824.42	1652.71
824.60	1488.87
824.77	1513.45
824.94	1454.06
825.11	1578.98
825.28	1474.54
825.45	1509.35
825.63	1619.94
825.80	1525.74
825.97	1511.40
826.14	1550.31
826.31	1484.78
826.48	1552.36
826.66	1509.35
826.83	1499.11
827.00	1578.98
827.17	1468.39
827.34	1505.26
827.51	1535.98
827.69	1503.21
827.86	1445.87
828.03	1529.83
828.20	1581.03
828.37	1466.35
828.54	1509.35
828.71	1544.17
828.89	1691.62
829.06	1533.93
829.23	1638.38
829.40	1503.21
829.57	1513.45
829.74	1492.97
829.91	1597.42
830.09	1533.93
830.26	1595.37
830.43	1597.42
830.60	1527.78
830.77	1574.89
830.94	1581.03
831.11	1513.45
831.28	1480.68
831.46	1609.70
831.63	1562.60
831.80	1681.38
831.97	1460.20
832.14	1529.83
832.31	1525.74
832.48	1540.07
832.65	1529.83
832.82	1495.02
832.99	1474.54
833.17	1478.63
833.34	1613.80
833.51	1589.22
833.68	1423.34
833.85	1570.79
834.02	1525.74
834.19	1535.98
834.36	1501.16
834.53	1558.50
834.70	1558.50
834.87	1529.83
835.04	1558.50
835.22	1538.02
835.39	1423.34
835.56	1548.26
835.73	1456.11
835.90	1570.79
836.07	1456.11
836.24	1570.79
836.41	1478.63
836.58	1505.26
836.75	1535.98
836.92	1527.78
837.09	1515.50
837.26	1593.32
837.43	1576.94
837.60	1572.84
837.77	1572.84
837.94	1546.22
838.12	1558.50
838.29	1593.32
838.46	1507.30
838.63	1490.92
838.80	1615.85
838.97	1587.18
839.14	1538.02
839.31	1519.59
839.48	1642.47
839.65	1521.64
839.82	1544.17
839.99	1597.42
840.16	1499.11
840.33	1517.54
840.50	1560.55
840.67	1519.59
840.84	1431.53
841.01	1538.02
841.18	1449.96
841.35	1482.73
841.52	1597.42
841.69	1669.09
841.86	1533.93
842.03	1578.98
842.20	1535.98
842.37	1550.31
842.54	1501.16
842.71	1507.30
842.88	1462.25
843.05	1605.61
843.22	1572.84
843.39	1585.13
843.56	1495.02
843.73	1546.22
843.90	1583.08
844.07	1503.21
844.24	1527.78
844.41	1540.07
844.58	1480.68
844.75	1517.54
844.92	1521.64
845.09	1542.12
845.26	1495.02
845.43	1615.85
845.60	1554.41
845.77	1669.09
845.94	1515.50
846.10	1521.64
846.27	1499.11
846.44	1441.77
846.61	1454.06
846.78	1544.17
846.95	1615.85
847.12	1523.69
847.29	1513.45
847.46	1445.87
847.63	1540.07
847.80	1484.78
847.97	1560.55
848.14	1550.31
848.31	1499.11
848.48	1368.04
848.65	1550.31
848.82	1484.78
848.98	1662.95
849.15	1562.60
849.32	1613.80
849.49	1587.18
849.66	1513.45
849.83	1583.08
850.00	1509.35
850.17	1581.03
850.34	1497.07
850.51	1595.37
850.68	1564.65
850.85	1681.38
851.01	1511.40
851.18	1533.93
851.35	1527.78
851.52	1525.74
851.69	1587.18
851.86	1470.44
852.03	1548.26
852.20	1570.79
852.37	1525.74
852.53	1540.07
852.70	1503.21
852.87	1550.31
853.04	1578.98
853.21	1505.26
853.38	1611.75
853.55	1589.22
853.72	1583.08
853.89	1560.55
854.05	1546.22
854.22	1468.39
854.39	1513.45
854.56	1492.97
854.73	1615.85
854.90	1492.97
855.07	1558.50
855.23	1501.16
855.40	1546.22
855.57	1560.55
855.74	1435.63
855.91	1669.09
856.08	1460.20
856.25	1486.83
856.41	1458.15
856.58	1562.60
856.75	1603.56
856.92	1476.59
857.09	1564.65
857.26	1472.49
857.42	1509.35
857.59	1525.74
857.76	1568.74
857.93	1562.60
858.10	1564.65
858.27	1511.40
858.43	1562.60
858.60	1497.07
858.77	1527.78
858.94	1556.46
859.11	1568.74
859.27	1503.21
859.44	1621.99
859.61	1601.51
859.78	1529.83
859.95	1570.79
860.12	1601.51
860.28	1587.18
860.45	1671.14
860.62	1572.84
860.79	1533.93
860.95	1515.50
861.12	1482.73
861.29	1368.04
861.46	1566.70
861.63	1470.44
861.79	1574.89
861.96	1558.50
862.13	1501.16
862.30	1591.27
862.47	1492.97
862.63	1492.97
862.80	1644.52
862.97	1515.50
863.14	1578.98
863.30	1585.13
863.47	1505.26
863.64	1566.70
863.81	1578.98
863.97	1574.89
864.14	1568.74
864.31	1488.87
864.48	1576.94
864.65	1538.02
864.81	1550.31
864.98	1626.09
865.15	1576.94
865.32	1535.98
865.48	1542.12
865.65	1615.85
865.82	1515.50
865.98	1538.02
866.15	1542.12
866.32	1480.68
866.49	1574.89
866.65	1603.56
866.82	1581.03
866.99	1501.16
867.16	1599.46
867.32	1558.50
867.49	1597.42
867.66	1542.12
867.83	1503.21
867.99	1478.63
868.16	1488.87
868.33	1484.78
868.49	1519.59
868.66	1488.87
868.83	1552.36
868.99	1480.68
869.16	1572.84
869.33	1523.69
869.50	1572.84
869.66	1552.36
869.83	1562.60
870.00	1497.07
870.16	1591.27
870.33	1531.88
870.50	1558.50
870.66	1607.66
870.83	1691.62
871.00	1558.50
871.17	1533.93
871.33	1488.87
871.50	1542.12
871.67	1568.74
871.83	1484.78
872.00	1628.14
872.17	1511.40
872.33	1630.18
872.50	1527.78
872.67	1544.17
872.83	1480.68
873.00	1624.04
873.17	1595.37
873.33	1533.93
873.50	1574.89
873.67	1533.93
873.83	1527.78
874.00	1542.12
874.16	1554.41
874.33	1552.36
874.50	1531.88
874.66	1540.07
874.83	1566.70
875.00	1695.72
875.16	1550.31
875.33	1599.46
875.50	1449.96
875.66	1458.15
875.83	1525.74
875.99	1595.37
876.16	1544.17
876.33	1538.02
876.49	1505.26
876.66	1521.64
876.83	1583.08
876.99	1384.43
877.16	1476.59
877.32	1480.68
877.49	1517.54
877.66	1454.06
877.82	1507.30
877.99	1548.26
878.15	1665.00
878.32	1535.98
878.49	1521.64
878.65	1513.45
878.82	1605.61
878.98	1521.64
879.15	1587.18
879.32	1544.17
879.48	1523.69
879.65	1550.31
879.81	1517.54
879.98	1503.21
880.15	1554.41
880.31	1562.60
880.48	1554.41
880.64	1605.61
880.81	1550.31
880.97	1576.94
881.14	1591.27
881.31	1515.50
881.47	1683.43
881.64	1521.64
881.80	1568.74
881.97	1490.92
882.13	1634.28
882.30	1478.63
882.47	1519.59
882.63	1583.08
882.80	1468.39
882.96	1538.02
883.13	1624.04
883.29	1476.59
883.46	1556.46
883.62	1621.99
883.79	1585.13
883.95	1636.33
884.12	1515.50
884.29	1611.75
884.45	1470.44
884.62	1540.07
884.78	1495.02
884.95	1646.57
885.11	1533.93
885.28	1540.07
885.44	1495.02
885.61	1589.22
885.77	1589.22
885.94	1572.84
886.10	1525.74
886.27	1521.64
886.43	1587.18
886.60	1548.26
886.76	1492.97
886.93	1476.59
887.09	1566.70
887.26	1499.11
887.42	1533.93
887.59	1574.89
887.75	1617.90
887.92	1607.66
888.08	1566.70
888.25	1669.09
888.41	1568.74
888.58	1501.16
888.74	1548.26
888.91	1495.02
>>>>>End Processed Spectral Data<<<<<
