SpectraSuite Data File
++++++++++++++++++++++++++++++++++++
Date: Tue May 03 12:55:55 CEST 2016
User: root
Dark Spectrum Present: No
Reference Spectrum Present: No
Number of Sampled Component Spectra: 1
Spectrometers: USB4C02835
Integration Time (usec): 100000 (USB4C02835)
Spectra Averaged: 1 (USB4C02835)
Boxcar Smoothing: 0 (USB4C02835)
Correct for Electrical Dark: No (USB4C02835)
Strobe/Lamp Enabled: No (USB4C02835)
Correct for Detector Non-linearity: No (USB4C02835)
Correct for Stray Light: No (USB4C02835)
Number of Pixels in Processed Spectrum: 3648
>>>>>Begin Processed Spectral Data<<<<<
177.47	1318.89
177.69	1318.89
177.91	1318.89
178.13	1331.18
178.36	1308.65
178.58	1527.78
178.80	1535.98
179.02	1492.97
179.24	1533.93
179.46	1546.22
179.68	1552.36
179.90	1492.97
180.13	1560.55
180.35	1499.11
180.57	1587.18
180.79	1576.94
181.01	1472.49
181.23	1556.46
181.45	1632.23
181.67	1566.70
181.90	1624.04
182.12	1523.69
182.34	1503.21
182.56	1538.02
182.78	1570.79
183.00	1556.46
183.22	1519.59
183.44	1519.59
183.66	1632.23
183.89	1677.29
184.11	1501.16
184.33	1499.11
184.55	1599.46
184.77	1523.69
184.99	1583.08
185.21	1464.30
185.43	1640.42
185.65	1476.59
185.87	1591.27
186.10	1595.37
186.32	1689.57
186.54	1548.26
186.76	1546.22
186.98	1589.22
187.20	1589.22
187.42	1589.22
187.64	1527.78
187.86	1535.98
188.08	1574.89
188.30	1503.21
188.52	1548.26
188.75	1589.22
188.97	1542.12
189.19	1521.64
189.41	1535.98
189.63	1550.31
189.85	1513.45
190.07	1546.22
190.29	1460.20
190.51	1593.32
190.73	1542.12
190.95	1646.57
191.17	1560.55
191.39	1439.72
191.61	1609.70
191.84	1538.02
192.06	1535.98
192.28	1492.97
192.50	1652.71
192.72	1525.74
192.94	1538.02
193.16	1544.17
193.38	1495.02
193.60	1476.59
193.82	1544.17
194.04	1566.70
194.26	1542.12
194.48	1568.74
194.70	1535.98
194.92	1507.30
195.14	1552.36
195.36	1509.35
195.58	1540.07
195.80	1540.07
196.02	1468.39
196.24	1470.44
196.46	1550.31
196.69	1535.98
196.91	1662.95
197.13	1544.17
197.35	1519.59
197.57	1619.94
197.79	1554.41
198.01	1552.36
198.23	1503.21
198.45	1550.31
198.67	1525.74
198.89	1570.79
199.11	1501.16
199.33	1478.63
199.55	1472.49
199.77	1583.08
199.99	1585.13
200.21	1492.97
200.43	1503.21
200.65	1458.15
200.87	1431.53
201.09	1505.26
201.31	1529.83
201.53	1542.12
201.75	1587.18
201.97	1509.35
202.19	1533.93
202.41	1505.26
202.63	1660.90
202.85	1628.14
203.07	1562.60
203.29	1458.15
203.51	1507.30
203.73	1447.91
203.95	1681.38
204.17	1564.65
204.39	1511.40
204.61	1552.36
204.83	1525.74
205.05	1578.98
205.27	1609.70
205.49	1701.86
205.71	1564.65
205.93	1517.54
206.15	1492.97
206.37	1564.65
206.59	1484.78
206.81	1472.49
207.03	1558.50
207.25	1409.00
207.47	1583.08
207.69	1589.22
207.91	1591.27
208.13	1603.56
208.34	1542.12
208.56	1454.06
208.78	1599.46
209.00	1574.89
209.22	1503.21
209.44	1550.31
209.66	1505.26
209.88	1478.63
210.10	1550.31
210.32	1574.89
210.54	1533.93
210.76	1540.07
210.98	1568.74
211.20	1480.68
211.42	1517.54
211.64	1607.66
211.86	1566.70
212.08	1581.03
212.30	1478.63
212.52	1538.02
212.74	1495.02
212.96	1564.65
213.17	1517.54
213.39	1490.92
213.61	1652.71
213.83	1642.47
214.05	1511.40
214.27	1527.78
214.49	1497.07
214.71	1476.59
214.93	1634.28
215.15	1544.17
215.37	1615.85
215.59	1515.50
215.81	1601.51
216.03	1595.37
216.24	1599.46
216.46	1521.64
216.68	1570.79
216.90	1552.36
217.12	1556.46
217.34	1509.35
217.56	1544.17
217.78	1492.97
218.00	1611.75
218.22	1542.12
218.44	1519.59
218.66	1542.12
218.87	1646.57
219.09	1492.97
219.31	1568.74
219.53	1484.78
219.75	1495.02
219.97	1558.50
220.19	1605.61
220.41	1599.46
220.63	1669.09
220.85	1548.26
221.06	1554.41
221.28	1636.33
221.50	1574.89
221.72	1511.40
221.94	1519.59
222.16	1533.93
222.38	1540.07
222.60	1566.70
222.82	1513.45
223.03	1533.93
223.25	1486.83
223.47	1546.22
223.69	1583.08
223.91	1527.78
224.13	1605.61
224.35	1523.69
224.57	1474.54
224.78	1601.51
225.00	1505.26
225.22	1546.22
225.44	1576.94
225.66	1558.50
225.88	1535.98
226.10	1578.98
226.32	1515.50
226.53	1650.66
226.75	1509.35
226.97	1535.98
227.19	1572.84
227.41	1554.41
227.63	1552.36
227.85	1427.43
228.06	1525.74
228.28	1525.74
228.50	1503.21
228.72	1456.11
228.94	1517.54
229.16	1499.11
229.37	1505.26
229.59	1531.88
229.81	1546.22
230.03	1587.18
230.25	1499.11
230.47	1423.34
230.69	1484.78
230.90	1603.56
231.12	1548.26
231.34	1505.26
231.56	1574.89
231.78	1511.40
232.00	1540.07
232.21	1544.17
232.43	1542.12
232.65	1429.48
232.87	1593.32
233.09	1486.83
233.30	1521.64
233.52	1538.02
233.74	1492.97
233.96	1527.78
234.18	1558.50
234.40	1576.94
234.61	1603.56
234.83	1460.20
235.05	1462.25
235.27	1671.14
235.49	1505.26
235.70	1542.12
235.92	1607.66
236.14	1529.83
236.36	1626.09
236.58	1521.64
236.79	1574.89
237.01	1544.17
237.23	1531.88
237.45	1632.23
237.67	1583.08
237.88	1511.40
238.10	1566.70
238.32	1521.64
238.54	1533.93
238.76	1564.65
238.97	1538.02
239.19	1501.16
239.41	1572.84
239.63	1570.79
239.85	1531.88
240.06	1527.78
240.28	1570.79
240.50	1572.84
240.72	1513.45
240.93	1568.74
241.15	1560.55
241.37	1552.36
241.59	1570.79
241.81	1525.74
242.02	1544.17
242.24	1488.87
242.46	1523.69
242.68	1556.46
242.89	1615.85
243.11	1556.46
243.33	1517.54
243.55	1615.85
243.76	1540.07
243.98	1564.65
244.20	1535.98
244.42	1556.46
244.64	1578.98
244.85	1439.72
245.07	1476.59
245.29	1531.88
245.51	1560.55
245.72	1441.77
245.94	1605.61
246.16	1597.42
246.38	1525.74
246.59	1562.60
246.81	1484.78
247.03	1535.98
247.24	1468.39
247.46	1431.53
247.68	1517.54
247.90	1497.07
248.11	1443.82
248.33	1595.37
248.55	1548.26
248.77	1542.12
248.98	1605.61
249.20	1601.51
249.42	1517.54
249.64	1634.28
249.85	1538.02
250.07	1566.70
250.29	1562.60
250.50	1511.40
250.72	1445.87
250.94	1552.36
251.16	1691.62
251.37	1550.31
251.59	1564.65
251.81	1558.50
252.02	1634.28
252.24	1611.75
252.46	1570.79
252.68	1550.31
252.89	1486.83
253.11	1452.01
253.33	1634.28
253.54	1572.84
253.76	1535.98
253.98	1529.83
254.20	1513.45
254.41	1488.87
254.63	1517.54
254.85	1499.11
255.06	1581.03
255.28	1644.52
255.50	1562.60
255.71	1466.35
255.93	1458.15
256.15	1503.21
256.36	1529.83
256.58	1513.45
256.80	1525.74
257.02	1513.45
257.23	1564.65
257.45	1503.21
257.67	1585.13
257.88	1556.46
258.10	1595.37
258.32	1552.36
258.53	1556.46
258.75	1599.46
258.97	1445.87
259.18	1587.18
259.40	1570.79
259.62	1572.84
259.83	1593.32
260.05	1587.18
260.27	1730.53
260.48	1621.99
260.70	1462.25
260.92	1533.93
261.13	1599.46
261.35	1525.74
261.57	1587.18
261.78	1509.35
262.00	1492.97
262.22	1581.03
262.43	1587.18
262.65	1464.30
262.86	1583.08
263.08	1699.81
263.30	1513.45
263.51	1435.63
263.73	1576.94
263.95	1593.32
264.16	1505.26
264.38	1486.83
264.60	1540.07
264.81	1535.98
265.03	1603.56
265.25	1505.26
265.46	1464.30
265.68	1591.27
265.89	1558.50
266.11	1400.81
266.33	1593.32
266.54	1548.26
266.76	1578.98
266.98	1591.27
267.19	1564.65
267.41	1630.18
267.62	1472.49
267.84	1484.78
268.06	1560.55
268.27	1511.40
268.49	1542.12
268.70	1665.00
268.92	1560.55
269.14	1527.78
269.35	1460.20
269.57	1542.12
269.79	1562.60
270.00	1535.98
270.22	1603.56
270.43	1564.65
270.65	1546.22
270.87	1556.46
271.08	1501.16
271.30	1492.97
271.51	1533.93
271.73	1544.17
271.95	1667.05
272.16	1548.26
272.38	1425.39
272.59	1550.31
272.81	1544.17
273.02	1562.60
273.24	1521.64
273.46	1570.79
273.67	1503.21
273.89	1527.78
274.10	1591.27
274.32	1624.04
274.54	1535.98
274.75	1556.46
274.97	1501.16
275.18	1513.45
275.40	1597.42
275.61	1581.03
275.83	1501.16
276.05	1544.17
276.26	1564.65
276.48	1499.11
276.69	1513.45
276.91	1472.49
277.12	1624.04
277.34	1560.55
277.55	1603.56
277.77	1531.88
277.99	1552.36
278.20	1505.26
278.42	1486.83
278.63	1462.25
278.85	1507.30
279.06	1533.93
279.28	1488.87
279.49	1576.94
279.71	1542.12
279.93	1540.07
280.14	1476.59
280.36	1462.25
280.57	1613.80
280.79	1605.61
281.00	1509.35
281.22	1497.07
281.43	1529.83
281.65	1538.02
281.86	1478.63
282.08	1632.23
282.29	1552.36
282.51	1492.97
282.73	1492.97
282.94	1419.24
283.16	1552.36
283.37	1626.09
283.59	1554.41
283.80	1554.41
284.02	1413.10
284.23	1523.69
284.45	1540.07
284.66	1527.78
284.88	1523.69
285.09	1540.07
285.31	1552.36
285.52	1456.11
285.74	1476.59
285.95	1556.46
286.17	1560.55
286.38	1482.73
286.60	1484.78
286.81	1517.54
287.03	1562.60
287.24	1585.13
287.46	1513.45
287.67	1499.11
287.89	1613.80
288.10	1517.54
288.32	1572.84
288.53	1644.52
288.75	1546.22
288.96	1583.08
289.18	1462.25
289.39	1566.70
289.61	1656.81
289.82	1601.51
290.04	1566.70
290.25	1517.54
290.47	1564.65
290.68	1505.26
290.90	1603.56
291.11	1437.67
291.33	1533.93
291.54	1486.83
291.76	1525.74
291.97	1542.12
292.18	1607.66
292.40	1476.59
292.61	1540.07
292.83	1642.47
293.04	1560.55
293.26	1546.22
293.47	1511.40
293.69	1556.46
293.90	1476.59
294.12	1593.32
294.33	1425.39
294.55	1519.59
294.76	1613.80
294.97	1601.51
295.19	1691.62
295.40	1521.64
295.62	1501.16
295.83	1609.70
296.05	1513.45
296.26	1632.23
296.48	1452.01
296.69	1488.87
296.90	1488.87
297.12	1566.70
297.33	1603.56
297.55	1519.59
297.76	1525.74
297.98	1607.66
298.19	1585.13
298.41	1505.26
298.62	1380.33
298.83	1550.31
299.05	1474.54
299.26	1556.46
299.48	1523.69
299.69	1540.07
299.90	1560.55
300.12	1535.98
300.33	1626.09
300.55	1556.46
300.76	1574.89
300.98	1497.07
301.19	1591.27
301.40	1495.02
301.62	1492.97
301.83	1550.31
302.05	1468.39
302.26	1486.83
302.47	1501.16
302.69	1513.45
302.90	1503.21
303.12	1484.78
303.33	1495.02
303.54	1576.94
303.76	1497.07
303.97	1572.84
304.19	1640.42
304.40	1447.91
304.61	1542.12
304.83	1652.71
305.04	1640.42
305.26	1617.90
305.47	1507.30
305.68	1472.49
305.90	1460.20
306.11	1529.83
306.33	1521.64
306.54	1578.98
306.75	1452.01
306.97	1505.26
307.18	1509.35
307.39	1578.98
307.61	1554.41
307.82	1558.50
308.04	1558.50
308.25	1474.54
308.46	1548.26
308.68	1626.09
308.89	1585.13
309.10	1669.09
309.32	1564.65
309.53	1538.02
309.74	1576.94
309.96	1511.40
310.17	1630.18
310.39	1517.54
310.60	1554.41
310.81	1523.69
311.03	1404.91
311.24	1550.31
311.45	1574.89
311.67	1605.61
311.88	1507.30
312.09	1478.63
312.31	1460.20
312.52	1499.11
312.73	1593.32
312.95	1431.53
313.16	1558.50
313.37	1609.70
313.59	1540.07
313.80	1599.46
314.01	1587.18
314.23	1556.46
314.44	1525.74
314.65	1517.54
314.87	1550.31
315.08	1476.59
315.29	1435.63
315.51	1515.50
315.72	1439.72
315.93	1630.18
316.15	1619.94
316.36	1603.56
316.57	1505.26
316.79	1599.46
317.00	1550.31
317.21	1488.87
317.43	1445.87
317.64	1525.74
317.85	1552.36
318.07	1619.94
318.28	1648.61
318.49	1648.61
318.70	1738.73
318.92	1757.16
319.13	1728.49
319.34	1615.85
319.56	1644.52
319.77	1644.52
319.98	1564.65
320.20	1636.33
320.41	1556.46
320.62	1480.68
320.83	1521.64
321.05	1753.06
321.26	1624.04
321.47	1505.26
321.69	1562.60
321.90	1554.41
322.11	1474.54
322.32	1492.97
322.54	1619.94
322.75	1548.26
322.96	1640.42
323.18	1466.35
323.39	1513.45
323.60	1435.63
323.81	1558.50
324.03	1562.60
324.24	1576.94
324.45	1492.97
324.66	1550.31
324.88	1599.46
325.09	1603.56
325.30	1445.87
325.52	1566.70
325.73	1581.03
325.94	1509.35
326.15	1482.73
326.37	1548.26
326.58	1591.27
326.79	1589.22
327.00	1531.88
327.22	1595.37
327.43	1499.11
327.64	1593.32
327.85	1621.99
328.07	1484.78
328.28	1595.37
328.49	1538.02
328.70	1550.31
328.92	1521.64
329.13	1540.07
329.34	1576.94
329.55	1644.52
329.76	1529.83
329.98	1538.02
330.19	1638.38
330.40	1585.13
330.61	1511.40
330.83	1609.70
331.04	1456.11
331.25	1538.02
331.46	1515.50
331.68	1447.91
331.89	1613.80
332.10	1587.18
332.31	1519.59
332.52	1554.41
332.74	1556.46
332.95	1452.01
333.16	1529.83
333.37	1615.85
333.58	1511.40
333.80	1535.98
334.01	1480.68
334.22	1560.55
334.43	1497.07
334.64	1480.68
334.86	1480.68
335.07	1425.39
335.28	1628.14
335.49	1464.30
335.70	1570.79
335.92	1611.75
336.13	1576.94
336.34	1603.56
336.55	1509.35
336.76	1529.83
336.98	1378.28
337.19	1505.26
337.40	1593.32
337.61	1603.56
337.82	1497.07
338.04	1562.60
338.25	1452.01
338.46	1452.01
338.67	1531.88
338.88	1554.41
339.09	1427.43
339.31	1513.45
339.52	1468.39
339.73	1531.88
339.94	1589.22
340.15	1529.83
340.36	1474.54
340.58	1550.31
340.79	1507.30
341.00	1576.94
341.21	1478.63
341.42	1507.30
341.63	1515.50
341.85	1548.26
342.06	1525.74
342.27	1499.11
342.48	1542.12
342.69	1519.59
342.90	1581.03
343.12	1605.61
343.33	1507.30
343.54	1566.70
343.75	1597.42
343.96	1527.78
344.17	1542.12
344.38	1558.50
344.60	1490.92
344.81	1529.83
345.02	1454.06
345.23	1519.59
345.44	1589.22
345.65	1558.50
345.86	1566.70
346.07	1501.16
346.29	1540.07
346.50	1624.04
346.71	1574.89
346.92	1591.27
347.13	1646.57
347.34	1615.85
347.55	1550.31
347.76	1589.22
347.98	1548.26
348.19	1560.55
348.40	1546.22
348.61	1607.66
348.82	1515.50
349.03	1531.88
349.24	1478.63
349.45	1611.75
349.66	1429.48
349.88	1560.55
350.09	1472.49
350.30	1593.32
350.51	1558.50
350.72	1583.08
350.93	1495.02
351.14	1482.73
351.35	1568.74
351.56	1513.45
351.77	1503.21
351.99	1578.98
352.20	1597.42
352.41	1605.61
352.62	1456.11
352.83	1517.54
353.04	1478.63
353.25	1585.13
353.46	1572.84
353.67	1597.42
353.88	1507.30
354.09	1509.35
354.30	1464.30
354.52	1603.56
354.73	1529.83
354.94	1513.45
355.15	1531.88
355.36	1621.99
355.57	1492.97
355.78	1628.14
355.99	1511.40
356.20	1550.31
356.41	1636.33
356.62	1548.26
356.83	1576.94
357.04	1665.00
357.25	1466.35
357.46	1505.26
357.68	1478.63
357.89	1517.54
358.10	1525.74
358.31	1591.27
358.52	1566.70
358.73	1454.06
358.94	1529.83
359.15	1449.96
359.36	1605.61
359.57	1564.65
359.78	1566.70
359.99	1583.08
360.20	1535.98
360.41	1538.02
360.62	1486.83
360.83	1574.89
361.04	1511.40
361.25	1546.22
361.46	1632.23
361.67	1587.18
361.88	1566.70
362.09	1531.88
362.30	1601.51
362.51	1560.55
362.72	1550.31
362.93	1593.32
363.14	1613.80
363.35	1499.11
363.56	1441.77
363.78	1572.84
363.99	1548.26
364.20	1578.98
364.41	1521.64
364.62	1644.52
364.83	1570.79
365.04	1535.98
365.25	1525.74
365.46	1603.56
365.67	1505.26
365.88	1560.55
366.09	1552.36
366.30	1476.59
366.51	1589.22
366.72	1507.30
366.93	1566.70
367.14	1546.22
367.35	1552.36
367.56	1548.26
367.77	1640.42
367.98	1572.84
368.18	1626.09
368.39	1599.46
368.60	1509.35
368.81	1538.02
369.02	1482.73
369.23	1589.22
369.44	1560.55
369.65	1470.44
369.86	1570.79
370.07	1640.42
370.28	1538.02
370.49	1638.38
370.70	1597.42
370.91	1492.97
371.12	1492.97
371.33	1607.66
371.54	1495.02
371.75	1550.31
371.96	1529.83
372.17	1486.83
372.38	1589.22
372.59	1556.46
372.80	1511.40
373.01	1519.59
373.22	1570.79
373.43	1492.97
373.64	1492.97
373.85	1583.08
374.06	1656.81
374.26	1544.17
374.47	1503.21
374.68	1552.36
374.89	1542.12
375.10	1523.69
375.31	1544.17
375.52	1538.02
375.73	1603.56
375.94	1462.25
376.15	1667.05
376.36	1507.30
376.57	1437.67
376.78	1492.97
376.99	1480.68
377.20	1640.42
377.40	1460.20
377.61	1638.38
377.82	1486.83
378.03	1578.98
378.24	1525.74
378.45	1521.64
378.66	1601.51
378.87	1527.78
379.08	1421.29
379.29	1509.35
379.50	1642.47
379.71	1476.59
379.91	1589.22
380.12	1542.12
380.33	1488.87
380.54	1531.88
380.75	1429.48
380.96	1540.07
381.17	1589.22
381.38	1615.85
381.59	1615.85
381.80	1517.54
382.00	1677.29
382.21	1603.56
382.42	1652.71
382.63	1648.61
382.84	1699.81
383.05	1613.80
383.26	1656.81
383.47	1624.04
383.68	1546.22
383.88	1587.18
384.09	1564.65
384.30	1654.76
384.51	1564.65
384.72	1449.96
384.93	1544.17
385.14	1535.98
385.35	1648.61
385.55	1474.54
385.76	1554.41
385.97	1529.83
386.18	1470.44
386.39	1480.68
386.60	1552.36
386.81	1525.74
387.02	1593.32
387.22	1525.74
387.43	1654.76
387.64	1642.47
387.85	1871.84
388.06	3200.98
388.27	7139.22
388.48	10633.05
388.68	12576.58
388.89	13899.56
389.10	12771.13
389.31	10313.57
389.52	8882.04
389.73	7978.89
389.93	7239.57
390.14	6866.84
390.35	6238.11
390.56	5556.14
390.77	4605.88
390.98	3723.21
391.18	2648.02
391.39	2215.90
391.60	1755.11
391.81	1722.34
392.02	1589.22
392.23	1634.28
392.43	1560.55
392.64	1656.81
392.85	1644.52
393.06	1683.43
393.27	1568.74
393.47	1576.94
393.68	1605.61
393.89	1521.64
394.10	1560.55
394.31	1437.67
394.52	1429.48
394.72	1538.02
394.93	1599.46
395.14	1456.11
395.35	1552.36
395.56	1574.89
395.76	1634.28
395.97	1726.44
396.18	1718.25
396.39	1742.82
396.60	1802.21
396.80	1687.53
397.01	1691.62
397.22	1685.48
397.43	1757.16
397.64	1578.98
397.84	1599.46
398.05	1644.52
398.26	1581.03
398.47	1624.04
398.67	1595.37
398.88	1624.04
399.09	1542.12
399.30	1492.97
399.51	1611.75
399.71	1517.54
399.92	1525.74
400.13	1581.03
400.34	1564.65
400.54	1544.17
400.75	1566.70
400.96	1570.79
401.17	1599.46
401.37	1509.35
401.58	1617.90
401.79	1578.98
402.00	1716.20
402.21	1865.70
402.41	1859.56
402.62	1931.23
402.83	1900.52
403.04	1798.12
403.24	1927.14
403.45	1724.39
403.66	1714.15
403.87	1675.24
404.07	1730.53
404.28	1761.25
404.49	1751.01
404.70	1554.41
404.90	1556.46
405.11	1554.41
405.32	1603.56
405.52	1474.54
405.73	1495.02
405.94	1458.15
406.15	1527.78
406.35	1603.56
406.56	1519.59
406.77	1574.89
406.98	1578.98
407.18	1490.92
407.39	1638.38
407.60	1564.65
407.80	1669.09
408.01	1558.50
408.22	1552.36
408.43	1513.45
408.63	1546.22
408.84	1544.17
409.05	1552.36
409.25	1515.50
409.46	1466.35
409.67	1587.18
409.88	1542.12
410.08	1548.26
410.29	1509.35
410.50	1593.32
410.70	1523.69
410.91	1458.15
411.12	1535.98
411.32	1550.31
411.53	1609.70
411.74	1599.46
411.95	1630.18
412.15	1578.98
412.36	1591.27
412.57	1650.66
412.77	1554.41
412.98	1581.03
413.19	1546.22
413.39	1525.74
413.60	1591.27
413.81	1617.90
414.01	1449.96
414.22	1548.26
414.43	1609.70
414.63	1574.89
414.84	1609.70
415.05	1642.47
415.25	1540.07
415.46	1665.00
415.67	1433.58
415.87	1540.07
416.08	1538.02
416.29	1482.73
416.49	1611.75
416.70	1513.45
416.91	1523.69
417.11	1468.39
417.32	1566.70
417.53	1593.32
417.73	1601.51
417.94	1509.35
418.15	1595.37
418.35	1478.63
418.56	1642.47
418.77	1681.38
418.97	1538.02
419.18	1538.02
419.38	1445.87
419.59	1591.27
419.80	1562.60
420.00	1548.26
420.21	1513.45
420.42	1685.48
420.62	1556.46
420.83	1517.54
421.04	1495.02
421.24	1583.08
421.45	1652.71
421.65	1634.28
421.86	1529.83
422.07	1535.98
422.27	1550.31
422.48	1499.11
422.69	1452.01
422.89	1521.64
423.10	1495.02
423.30	1415.15
423.51	1538.02
423.72	1572.84
423.92	1597.42
424.13	1470.44
424.33	1527.78
424.54	1550.31
424.75	1445.87
424.95	1603.56
425.16	1576.94
425.36	1460.20
425.57	1638.38
425.78	1574.89
425.98	1613.80
426.19	1441.77
426.39	1476.59
426.60	1527.78
426.81	1654.76
427.01	1617.90
427.22	1505.26
427.42	1546.22
427.63	1613.80
427.83	1611.75
428.04	1599.46
428.25	1646.57
428.45	1624.04
428.66	1595.37
428.86	1603.56
429.07	1527.78
429.28	1593.32
429.48	1564.65
429.69	1521.64
429.89	1611.75
430.10	1495.02
430.30	1638.38
430.51	1630.18
430.71	1476.59
430.92	1542.12
431.13	1540.07
431.33	1583.08
431.54	1533.93
431.74	1636.33
431.95	1636.33
432.15	1538.02
432.36	1552.36
432.56	1544.17
432.77	1583.08
432.98	1632.23
433.18	1525.74
433.39	1531.88
433.59	1566.70
433.80	1611.75
434.00	1665.00
434.21	1597.42
434.41	1484.78
434.62	1621.99
434.82	1441.77
435.03	1507.30
435.23	1521.64
435.44	1462.25
435.64	1503.21
435.85	1531.88
436.06	1550.31
436.26	1589.22
436.47	1581.03
436.67	1542.12
436.88	1435.63
437.08	1642.47
437.29	1576.94
437.49	1535.98
437.70	1595.37
437.90	1501.16
438.11	1656.81
438.31	1683.43
438.52	1630.18
438.72	1691.62
438.93	1753.06
439.13	1626.09
439.34	1730.53
439.54	1626.09
439.75	1654.76
439.95	1658.85
440.16	1570.79
440.36	1535.98
440.57	1636.33
440.77	1611.75
440.98	1581.03
441.18	1591.27
441.39	1517.54
441.59	1527.78
441.80	1656.81
442.00	1556.46
442.21	1560.55
442.41	1501.16
442.62	1689.57
442.82	1443.82
443.02	1552.36
443.23	1595.37
443.43	1509.35
443.64	1597.42
443.84	1601.51
444.05	1593.32
444.25	1560.55
444.46	1574.89
444.66	1578.98
444.87	1646.57
445.07	1517.54
445.28	1531.88
445.48	1595.37
445.69	1550.31
445.89	1658.85
446.09	1595.37
446.30	2011.11
446.50	3080.14
446.71	4452.28
446.91	5296.05
447.12	5767.08
447.32	5672.87
447.53	4560.83
447.73	3977.16
447.93	3682.25
448.14	3422.16
448.34	3160.02
448.55	2916.31
448.75	2861.01
448.96	2779.09
449.16	2480.09
449.36	2189.28
449.57	1943.52
449.77	1763.30
449.98	1570.79
450.18	1591.27
450.39	1593.32
450.59	1595.37
450.79	1619.94
451.00	1546.22
451.20	1658.85
451.41	1570.79
451.61	1501.16
451.81	1542.12
452.02	1546.22
452.22	1499.11
452.43	1507.30
452.63	1540.07
452.84	1566.70
453.04	1529.83
453.24	1621.99
453.45	1460.20
453.65	1486.83
453.86	1593.32
454.06	1589.22
454.26	1585.13
454.47	1501.16
454.67	1613.80
454.87	1585.13
455.08	1503.21
455.28	1658.85
455.49	1515.50
455.69	1474.54
455.89	1638.38
456.10	1523.69
456.30	1523.69
456.51	1562.60
456.71	1576.94
456.91	1533.93
457.12	1576.94
457.32	1591.27
457.52	1456.11
457.73	1609.70
457.93	1593.32
458.14	1511.40
458.34	1490.92
458.54	1495.02
458.75	1480.68
458.95	1597.42
459.15	1533.93
459.36	1431.53
459.56	1669.09
459.76	1607.66
459.97	1658.85
460.17	1605.61
460.37	1560.55
460.58	1560.55
460.78	1601.51
460.99	1476.59
461.19	1525.74
461.39	1511.40
461.60	1566.70
461.80	1556.46
462.00	1452.01
462.21	1572.84
462.41	1470.44
462.61	1542.12
462.82	1495.02
463.02	1562.60
463.22	1552.36
463.43	1560.55
463.63	1642.47
463.83	1593.32
464.04	1589.22
464.24	1531.88
464.44	1505.26
464.64	1568.74
464.85	1568.74
465.05	1589.22
465.25	1535.98
465.46	1517.54
465.66	1490.92
465.86	1585.13
466.07	1546.22
466.27	1640.42
466.47	1533.93
466.68	1456.11
466.88	1652.71
467.08	1554.41
467.29	1533.93
467.49	1542.12
467.69	1507.30
467.89	1583.08
468.10	1554.41
468.30	1628.14
468.50	1679.33
468.71	1564.65
468.91	1456.11
469.11	1597.42
469.31	1562.60
469.52	1525.74
469.72	1613.80
469.92	1642.47
470.13	1568.74
470.33	1540.07
470.53	1689.57
470.73	2043.87
470.94	2371.55
471.14	2389.98
471.34	2693.08
471.54	2435.03
471.75	2099.17
471.95	2017.25
472.15	2009.06
472.36	1908.71
472.56	1964.00
472.76	1896.42
472.96	1859.56
473.17	1779.68
473.37	1748.97
473.57	1763.30
473.77	1638.38
473.98	1656.81
474.18	1531.88
474.38	1667.05
474.58	1523.69
474.79	1509.35
474.99	1601.51
475.19	1509.35
475.39	1462.25
475.60	1562.60
475.80	1495.02
476.00	1558.50
476.20	1578.98
476.41	1531.88
476.61	1574.89
476.81	1570.79
477.01	1609.70
477.21	1578.98
477.42	1513.45
477.62	1468.39
477.82	1566.70
478.02	1490.92
478.23	1449.96
478.43	1503.21
478.63	1482.73
478.83	1482.73
479.03	1538.02
479.24	1677.29
479.44	1644.52
479.64	1474.54
479.84	1488.87
480.04	1527.78
480.25	1568.74
480.45	1456.11
480.65	1486.83
480.85	1472.49
481.06	1499.11
481.26	1619.94
481.46	1595.37
481.66	1554.41
481.86	1527.78
482.06	1531.88
482.27	1552.36
482.47	1525.74
482.67	1535.98
482.87	1613.80
483.07	1591.27
483.28	1556.46
483.48	1488.87
483.68	1529.83
483.88	1503.21
484.08	1470.44
484.29	1482.73
484.49	1552.36
484.69	1525.74
484.89	1630.18
485.09	1607.66
485.29	1503.21
485.50	1574.89
485.70	1533.93
485.90	1624.04
486.10	1540.07
486.30	1525.74
486.50	1578.98
486.71	1605.61
486.91	1660.90
487.11	1576.94
487.31	1464.30
487.51	1511.40
487.71	1480.68
487.91	1517.54
488.12	1466.35
488.32	1497.07
488.52	1439.72
488.72	1492.97
488.92	1527.78
489.12	1595.37
489.32	1564.65
489.53	1605.61
489.73	1513.45
489.93	1617.90
490.13	1562.60
490.33	1599.46
490.53	1517.54
490.73	1517.54
490.94	1460.20
491.14	1570.79
491.34	1716.20
491.54	2203.61
491.74	2662.36
491.94	3164.11
492.14	3438.54
492.34	3246.03
492.54	2787.29
492.75	2496.47
492.95	2496.47
493.15	2236.38
493.35	2131.94
493.55	2119.65
493.75	2037.73
493.95	2146.27
494.15	1857.51
494.35	1820.64
494.56	1806.31
494.76	1683.43
494.96	1601.51
495.16	1621.99
495.36	1581.03
495.56	1576.94
495.76	1486.83
495.96	1538.02
496.16	1441.77
496.36	1660.90
496.56	1533.93
496.77	1576.94
496.97	1519.59
497.17	1568.74
497.37	1548.26
497.57	1535.98
497.77	1505.26
497.97	1456.11
498.17	1572.84
498.37	1574.89
498.57	1535.98
498.77	1538.02
498.97	1538.02
499.17	1621.99
499.38	1497.07
499.58	1503.21
499.78	1621.99
499.98	1650.66
500.18	1593.32
500.38	1525.74
500.58	1814.50
500.78	2658.26
500.98	5095.35
501.18	6797.21
501.38	8120.20
501.58	8605.56
501.78	8112.00
501.98	6088.61
502.18	5382.06
502.38	4538.30
502.58	4247.49
502.78	3768.26
502.98	3809.22
503.18	3514.31
503.38	3325.90
503.59	3035.09
503.79	2764.76
503.99	2486.23
504.19	2338.78
504.39	2144.22
504.59	2123.74
504.79	2039.78
504.99	1968.10
505.19	1720.29
505.39	1665.00
505.59	1802.21
505.79	1742.82
505.99	1697.77
506.19	1669.09
506.39	1662.95
506.59	1652.71
506.79	1609.70
506.99	1658.85
507.19	1574.89
507.39	1495.02
507.59	1466.35
507.79	1486.83
507.99	1589.22
508.19	1583.08
508.39	1591.27
508.59	1576.94
508.79	1669.09
508.99	1603.56
509.19	1562.60
509.39	1509.35
509.59	1503.21
509.79	1488.87
509.99	1546.22
510.19	1671.14
510.39	1597.42
510.59	1523.69
510.79	1544.17
510.99	1570.79
511.19	1544.17
511.39	1681.38
511.59	1613.80
511.79	1591.27
511.99	1564.65
512.19	1656.81
512.38	1554.41
512.58	1488.87
512.78	1552.36
512.98	1521.64
513.18	1628.14
513.38	1396.71
513.58	1611.75
513.78	1509.35
513.98	1632.23
514.18	1499.11
514.38	1542.12
514.58	1495.02
514.78	1517.54
514.98	1564.65
515.18	1599.46
515.38	1527.78
515.58	1566.70
515.78	1505.26
515.98	1531.88
516.18	1660.90
516.38	1626.09
516.57	1505.26
516.77	1521.64
516.97	1632.23
517.17	1513.45
517.37	1509.35
517.57	1624.04
517.77	1542.12
517.97	1566.70
518.17	1560.55
518.37	1548.26
518.57	1535.98
518.77	1585.13
518.97	1630.18
519.16	1564.65
519.36	1533.93
519.56	1509.35
519.76	1486.83
519.96	1587.18
520.16	1583.08
520.36	1519.59
520.56	1669.09
520.76	1495.02
520.96	1517.54
521.16	1648.61
521.35	1609.70
521.55	1632.23
521.75	1533.93
521.95	1527.78
522.15	1562.60
522.35	1476.59
522.55	1474.54
522.75	1509.35
522.95	1603.56
523.14	1486.83
523.34	1621.99
523.54	1542.12
523.74	1601.51
523.94	1572.84
524.14	1486.83
524.34	1540.07
524.54	1619.94
524.73	1515.50
524.93	1691.62
525.13	1519.59
525.33	1525.74
525.53	1578.98
525.73	1544.17
525.93	1560.55
526.13	1544.17
526.32	1542.12
526.52	1548.26
526.72	1638.38
526.92	1558.50
527.12	1597.42
527.32	1517.54
527.52	1581.03
527.71	1556.46
527.91	1462.25
528.11	1552.36
528.31	1517.54
528.51	1519.59
528.71	1599.46
528.90	1558.50
529.10	1550.31
529.30	1578.98
529.50	1413.10
529.70	1601.51
529.90	1542.12
530.09	1583.08
530.29	1478.63
530.49	1423.34
530.69	1658.85
530.89	1540.07
531.09	1574.89
531.28	1568.74
531.48	1591.27
531.68	1583.08
531.88	1533.93
532.08	1564.65
532.28	1556.46
532.47	1599.46
532.67	1558.50
532.87	1480.68
533.07	1542.12
533.27	1513.45
533.46	1632.23
533.66	1607.66
533.86	1558.50
534.06	1552.36
534.26	1574.89
534.45	1527.78
534.65	1619.94
534.85	1564.65
535.05	1490.92
535.25	1544.17
535.44	1454.06
535.64	1574.89
535.84	1566.70
536.04	1509.35
536.24	1611.75
536.43	1484.78
536.63	1511.40
536.83	1505.26
537.03	1564.65
537.22	1490.92
537.42	1447.91
537.62	1505.26
537.82	1521.64
538.02	1601.51
538.21	1572.84
538.41	1634.28
538.61	1552.36
538.81	1552.36
539.00	1611.75
539.20	1417.19
539.40	1507.30
539.60	1550.31
539.79	1523.69
539.99	1482.73
540.19	1521.64
540.39	1474.54
540.58	1554.41
540.78	1597.42
540.98	1558.50
541.18	1513.45
541.37	1529.83
541.57	1527.78
541.77	1478.63
541.97	1513.45
542.16	1464.30
542.36	1505.26
542.56	1619.94
542.76	1560.55
542.95	1517.54
543.15	1574.89
543.35	1630.18
543.54	1445.87
543.74	1507.30
543.94	1609.70
544.14	1490.92
544.33	1591.27
544.53	1511.40
544.73	1560.55
544.93	1492.97
545.12	1564.65
545.32	1581.03
545.52	1525.74
545.71	1533.93
545.91	1566.70
546.11	1581.03
546.30	1501.16
546.50	1509.35
546.70	1628.14
546.90	1482.73
547.09	1409.00
547.29	1591.27
547.49	1658.85
547.68	1587.18
547.88	1454.06
548.08	1566.70
548.27	1964.00
548.47	1564.65
548.67	1468.39
548.87	1576.94
549.06	1560.55
549.26	1509.35
549.46	1540.07
549.65	1533.93
549.85	1478.63
550.05	1574.89
550.24	1466.35
550.44	1558.50
550.64	1515.50
550.83	1591.27
551.03	1566.70
551.23	1554.41
551.42	1570.79
551.62	1492.97
551.82	1535.98
552.01	1523.69
552.21	1581.03
552.41	1566.70
552.60	1585.13
552.80	1533.93
553.00	1535.98
553.19	1589.22
553.39	1589.22
553.59	1570.79
553.78	1578.98
553.98	1562.60
554.17	1501.16
554.37	1535.98
554.57	1478.63
554.76	1501.16
554.96	1474.54
555.16	1578.98
555.35	1507.30
555.55	1576.94
555.75	1517.54
555.94	1566.70
556.14	1478.63
556.33	1511.40
556.53	1533.93
556.73	1480.68
556.92	1560.55
557.12	1591.27
557.32	1652.71
557.51	1550.31
557.71	1544.17
557.90	1583.08
558.10	1644.52
558.30	1552.36
558.49	1490.92
558.69	1552.36
558.88	1595.37
559.08	1564.65
559.28	1540.07
559.47	1533.93
559.67	1562.60
559.86	1697.77
560.06	1628.14
560.26	1576.94
560.45	1605.61
560.65	1544.17
560.84	1619.94
561.04	1583.08
561.24	1509.35
561.43	1497.07
561.63	1572.84
561.82	1484.78
562.02	1513.45
562.22	1542.12
562.41	1474.54
562.61	1495.02
562.80	1566.70
563.00	1675.24
563.19	1492.97
563.39	1595.37
563.59	1603.56
563.78	1521.64
563.98	1535.98
564.17	1507.30
564.37	1484.78
564.56	1533.93
564.76	1474.54
564.96	1628.14
565.15	1544.17
565.35	1642.47
565.54	1550.31
565.74	1599.46
565.93	1611.75
566.13	1478.63
566.32	1611.75
566.52	1607.66
566.71	1544.17
566.91	1609.70
567.11	1531.88
567.30	1503.21
567.50	1558.50
567.69	1527.78
567.89	1533.93
568.08	1439.72
568.28	1572.84
568.47	1505.26
568.67	1568.74
568.86	1525.74
569.06	1525.74
569.25	1531.88
569.45	1574.89
569.64	1542.12
569.84	1548.26
570.04	1587.18
570.23	1456.11
570.43	1490.92
570.62	1568.74
570.82	1658.85
571.01	1507.30
571.21	1544.17
571.40	1533.93
571.60	1632.23
571.79	1591.27
571.99	1589.22
572.18	1574.89
572.38	1515.50
572.57	1492.97
572.77	1583.08
572.96	1730.53
573.16	1568.74
573.35	1546.22
573.55	1630.18
573.74	1550.31
573.94	1568.74
574.13	1538.02
574.33	1576.94
574.52	1583.08
574.71	1566.70
574.91	1550.31
575.10	1527.78
575.30	1544.17
575.49	1476.59
575.69	1513.45
575.88	1593.32
576.08	1599.46
576.27	1691.62
576.47	1646.57
576.66	1751.01
576.86	1683.43
577.05	1572.84
577.25	1601.51
577.44	1724.39
577.64	1480.68
577.83	1566.70
578.02	1572.84
578.22	1693.67
578.41	1701.86
578.61	1560.55
578.80	1492.97
579.00	1560.55
579.19	1576.94
579.39	1546.22
579.58	1615.85
579.77	1552.36
579.97	1632.23
580.16	1683.43
580.36	1624.04
580.55	1607.66
580.75	1628.14
580.94	1613.80
581.13	1636.33
581.33	1722.34
581.52	1624.04
581.72	1650.66
581.91	1697.77
582.11	1570.79
582.30	1601.51
582.49	1615.85
582.69	1656.81
582.88	1621.99
583.08	1648.61
583.27	1615.85
583.47	1519.59
583.66	1490.92
583.85	1576.94
584.05	1632.23
584.24	1630.18
584.44	1593.32
584.63	1654.76
584.82	1667.05
585.02	1796.07
585.21	1710.05
585.41	1761.25
585.60	1773.54
585.79	1814.50
585.99	1843.17
586.18	1816.55
586.37	2000.87
586.57	3112.91
586.76	9709.42
586.96	27879.00
587.15	43746.66
587.34	54709.44
587.54	61062.24
587.73	59372.66
587.93	43687.27
588.12	32128.53
588.31	25781.88
588.51	22111.92
588.70	19863.25
588.89	18353.90
589.09	16944.89
589.28	15308.57
589.47	13184.82
589.67	11298.64
589.86	8886.14
590.06	6797.21
590.25	5044.15
590.44	3790.79
590.64	2928.60
590.83	2353.12
591.02	2090.98
591.22	1837.03
591.41	1740.77
591.60	1757.16
591.80	1757.16
591.99	1599.46
592.18	1626.09
592.38	1650.66
592.57	1591.27
592.76	1529.83
592.96	1619.94
593.15	1595.37
593.34	1634.28
593.54	1550.31
593.73	1578.98
593.92	1503.21
594.12	1603.56
594.31	1638.38
594.50	1656.81
594.70	1673.19
594.89	1662.95
595.08	1558.50
595.28	1607.66
595.47	1679.33
595.66	1648.61
595.86	1554.41
596.05	1611.75
596.24	1562.60
596.43	1611.75
596.63	1693.67
596.82	1607.66
597.01	1615.85
597.21	1689.57
597.40	1595.37
597.59	1636.33
597.79	1583.08
597.98	1570.79
598.17	1583.08
598.36	1540.07
598.56	1572.84
598.75	1603.56
598.94	1589.22
599.14	1550.31
599.33	1599.46
599.52	1591.27
599.71	1554.41
599.91	1593.32
600.10	1560.55
600.29	1535.98
600.48	1564.65
600.68	1525.74
600.87	1519.59
601.06	1535.98
601.26	1578.98
601.45	1593.32
601.64	1568.74
601.83	1601.51
602.03	1525.74
602.22	1464.30
602.41	1638.38
602.60	1673.19
602.80	1576.94
602.99	1638.38
603.18	1540.07
603.37	1630.18
603.57	1517.54
603.76	1531.88
603.95	1597.42
604.14	1570.79
604.34	1507.30
604.53	1626.09
604.72	1548.26
604.91	1495.02
605.10	1548.26
605.30	1505.26
605.49	1650.66
605.68	1621.99
605.87	1546.22
606.07	1503.21
606.26	1581.03
606.45	1499.11
606.64	1597.42
606.84	1568.74
607.03	1533.93
607.22	1658.85
607.41	1544.17
607.60	1517.54
607.80	1544.17
607.99	1589.22
608.18	1513.45
608.37	1550.31
608.56	1533.93
608.76	1611.75
608.95	1648.61
609.14	1642.47
609.33	1648.61
609.52	1675.24
609.72	1626.09
609.91	1673.19
610.10	1562.60
610.29	1636.33
610.48	1607.66
610.68	1624.04
610.87	1542.12
611.06	1572.84
611.25	1593.32
611.44	1562.60
611.63	1591.27
611.83	1595.37
612.02	1509.35
612.21	1529.83
612.40	1437.67
612.59	1488.87
612.79	1513.45
612.98	1591.27
613.17	1650.66
613.36	1482.73
613.55	1611.75
613.74	1597.42
613.93	1642.47
614.13	1742.82
614.32	1765.35
614.51	1800.16
614.70	1677.29
614.89	1708.01
615.08	1576.94
615.28	1900.52
615.47	1503.21
615.66	1689.57
615.85	1568.74
616.04	1789.92
616.23	1615.85
616.42	1660.90
616.62	1595.37
616.81	1566.70
617.00	1611.75
617.19	1636.33
617.38	1523.69
617.57	1574.89
617.76	1685.48
617.95	1630.18
618.15	1621.99
618.34	1626.09
618.53	1484.78
618.72	1560.55
618.91	1667.05
619.10	1650.66
619.29	1560.55
619.48	1492.97
619.68	1521.64
619.87	1533.93
620.06	1501.16
620.25	1591.27
620.44	1544.17
620.63	1538.02
620.82	1564.65
621.01	1562.60
621.20	1613.80
621.39	1605.61
621.59	1605.61
621.78	1548.26
621.97	1617.90
622.16	1585.13
622.35	1519.59
622.54	1542.12
622.73	1599.46
622.92	1470.44
623.11	1578.98
623.30	1601.51
623.49	1632.23
623.68	1525.74
623.88	1597.42
624.07	1570.79
624.26	1574.89
624.45	1509.35
624.64	1538.02
624.83	1544.17
625.02	1470.44
625.21	1515.50
625.40	1581.03
625.59	1593.32
625.78	1495.02
625.97	1617.90
626.16	1697.77
626.35	1689.57
626.54	1607.66
626.74	1681.38
626.93	1560.55
627.12	1628.14
627.31	1638.38
627.50	1587.18
627.69	1597.42
627.88	1515.50
628.07	1511.40
628.26	1550.31
628.45	1558.50
628.64	1599.46
628.83	1556.46
629.02	1486.83
629.21	1583.08
629.40	1564.65
629.59	1484.78
629.78	1511.40
629.97	1554.41
630.16	1535.98
630.35	1544.17
630.54	1544.17
630.73	1609.70
630.92	1517.54
631.11	1542.12
631.30	1556.46
631.49	1587.18
631.68	1542.12
631.87	1538.02
632.06	1411.05
632.25	1665.00
632.44	1585.13
632.63	1525.74
632.82	1583.08
633.01	1538.02
633.20	1605.61
633.39	1632.23
633.58	1517.54
633.77	1597.42
633.96	1685.48
634.15	1644.52
634.34	1552.36
634.53	1560.55
634.72	1593.32
634.91	1484.78
635.10	1576.94
635.29	1564.65
635.48	1550.31
635.67	1513.45
635.86	1531.88
636.05	1619.94
636.24	1587.18
636.43	1578.98
636.62	1589.22
636.81	1503.21
637.00	1538.02
637.19	1556.46
637.38	1542.12
637.57	1466.35
637.76	1624.04
637.95	1708.01
638.14	1626.09
638.33	1722.34
638.52	1665.00
638.71	1593.32
638.89	1515.50
639.08	1677.29
639.27	1585.13
639.46	1665.00
639.65	1906.66
639.84	2121.70
640.03	2232.29
640.22	2150.37
640.41	2234.33
640.60	1912.80
640.79	1822.69
640.98	1708.01
641.17	1802.21
641.36	1677.29
641.55	1783.78
641.74	1558.50
641.92	1599.46
642.11	1630.18
642.30	1613.80
642.49	1599.46
642.68	1562.60
642.87	1615.85
643.06	1570.79
643.25	1609.70
643.44	1554.41
643.63	1503.21
643.82	1644.52
644.00	1464.30
644.19	1576.94
644.38	1550.31
644.57	1562.60
644.76	1497.07
644.95	1495.02
645.14	1562.60
645.33	1564.65
645.52	1572.84
645.71	1507.30
645.89	1605.61
646.08	1554.41
646.27	1503.21
646.46	1566.70
646.65	1443.82
646.84	1540.07
647.03	1464.30
647.22	1595.37
647.40	1556.46
647.59	1507.30
647.78	1421.29
647.97	1478.63
648.16	1505.26
648.35	1558.50
648.54	1492.97
648.73	1593.32
648.91	1578.98
649.10	1601.51
649.29	1480.68
649.48	1531.88
649.67	1564.65
649.86	1564.65
650.05	1585.13
650.23	1705.96
650.42	1583.08
650.61	1738.73
650.80	1744.87
650.99	1742.82
651.18	1613.80
651.36	1665.00
651.55	1527.78
651.74	1650.66
651.93	1595.37
652.12	1550.31
652.31	1599.46
652.49	1550.31
652.68	1550.31
652.87	1617.90
653.06	1581.03
653.25	1640.42
653.44	1654.76
653.62	1689.57
653.81	1554.41
654.00	1488.87
654.19	1605.61
654.38	1636.33
654.56	1558.50
654.75	1505.26
654.94	1593.32
655.13	1527.78
655.32	1519.59
655.51	1677.29
655.69	1550.31
655.88	1593.32
656.07	1517.54
656.26	1550.31
656.45	1533.93
656.63	1578.98
656.82	1568.74
657.01	1646.57
657.20	1513.45
657.38	1628.14
657.57	1568.74
657.76	1411.05
657.95	1589.22
658.14	1472.49
658.32	1521.64
658.51	1529.83
658.70	1503.21
658.89	1531.88
659.08	1495.02
659.26	1648.61
659.45	1490.92
659.64	1560.55
659.83	1554.41
660.01	1771.49
660.20	1671.14
660.39	1667.05
660.58	1517.54
660.76	1621.99
660.95	1505.26
661.14	1482.73
661.33	1468.39
661.51	1499.11
661.70	1570.79
661.89	1509.35
662.08	1593.32
662.26	1562.60
662.45	1546.22
662.64	1683.43
662.83	1556.46
663.01	1544.17
663.20	1462.25
663.39	1671.14
663.58	1531.88
663.76	1548.26
663.95	1581.03
664.14	1542.12
664.32	1456.11
664.51	1601.51
664.70	1495.02
664.89	1599.46
665.07	1482.73
665.26	1529.83
665.45	1511.40
665.64	1638.38
665.82	1546.22
666.01	1566.70
666.20	1505.26
666.38	1578.98
666.57	1636.33
666.76	1830.88
666.95	2877.40
667.13	7604.11
667.32	15630.10
667.51	19982.03
667.69	23568.02
667.88	25290.37
668.07	22163.12
668.25	15402.77
668.44	12527.42
668.63	10059.62
668.81	8757.11
669.00	7530.38
669.19	7116.69
669.38	6416.29
669.56	5599.15
669.75	4911.03
669.94	4034.50
670.12	3403.72
670.31	2822.10
670.50	2428.89
670.68	2107.36
670.87	1880.04
671.06	1765.35
671.24	1748.97
671.43	1722.34
671.62	1669.09
671.80	1574.89
671.99	1636.33
672.18	1665.00
672.36	1650.66
672.55	1525.74
672.74	1601.51
672.92	1562.60
673.11	1642.47
673.29	1515.50
673.48	1548.26
673.67	1605.61
673.85	1722.34
674.04	1544.17
674.23	1552.36
674.41	1568.74
674.60	1538.02
674.79	1447.91
674.97	1570.79
675.16	1558.50
675.34	1535.98
675.53	1544.17
675.72	1492.97
675.90	1683.43
676.09	1572.84
676.28	1527.78
676.46	1527.78
676.65	1613.80
676.83	1519.59
677.02	1570.79
677.21	1478.63
677.39	1521.64
677.58	1505.26
677.77	1568.74
677.95	1515.50
678.14	1535.98
678.32	1550.31
678.51	1509.35
678.70	1683.43
678.88	1486.83
679.07	1531.88
679.25	1589.22
679.44	1611.75
679.63	1476.59
679.81	1554.41
680.00	1634.28
680.18	1529.83
680.37	1595.37
680.55	1621.99
680.74	1550.31
680.93	1458.15
681.11	1515.50
681.30	1492.97
681.48	1566.70
681.67	1554.41
681.85	1519.59
682.04	1542.12
682.23	1552.36
682.41	1589.22
682.60	1411.05
682.78	1460.20
682.97	1488.87
683.15	1521.64
683.34	1572.84
683.53	1609.70
683.71	1535.98
683.90	1632.23
684.08	1576.94
684.27	1585.13
684.45	1558.50
684.64	1675.24
684.82	1540.07
685.01	1503.21
685.19	1515.50
685.38	1617.90
685.57	1617.90
685.75	1531.88
685.94	1529.83
686.12	1507.30
686.31	1492.97
686.49	1626.09
686.68	1462.25
686.86	1607.66
687.05	1548.26
687.23	1589.22
687.42	1546.22
687.60	1507.30
687.79	1662.95
687.97	1578.98
688.16	1603.56
688.34	1484.78
688.53	1509.35
688.71	1587.18
688.90	1642.47
689.08	1538.02
689.27	1476.59
689.45	1527.78
689.64	1568.74
689.82	1554.41
690.01	1568.74
690.19	1566.70
690.38	1611.75
690.56	1599.46
690.75	1568.74
690.93	1568.74
691.12	1562.60
691.30	1538.02
691.49	1505.26
691.67	1548.26
691.86	1650.66
692.04	1515.50
692.23	1509.35
692.41	1538.02
692.60	1785.83
692.78	1662.95
692.97	1617.90
693.15	1632.23
693.34	1667.05
693.52	1587.18
693.71	1495.02
693.89	1517.54
694.08	1544.17
694.26	1576.94
694.44	1621.99
694.63	1599.46
694.81	1531.88
695.00	1513.45
695.18	1509.35
695.37	1703.91
695.55	1587.18
695.74	1583.08
695.92	1480.68
696.10	1517.54
696.29	1476.59
696.47	1495.02
696.66	1484.78
696.84	1544.17
697.03	1527.78
697.21	1734.63
697.40	1996.77
697.58	1482.73
697.76	1478.63
697.95	1525.74
698.13	1437.67
698.32	1488.87
698.50	1495.02
698.68	1574.89
698.87	1583.08
699.05	1613.80
699.24	1550.31
699.42	1503.21
699.61	1529.83
699.79	1525.74
699.97	1576.94
700.16	1472.49
700.34	1464.30
700.53	1466.35
700.71	1517.54
700.89	1548.26
701.08	1527.78
701.26	1607.66
701.45	1810.40
701.63	1540.07
701.81	1505.26
702.00	1535.98
702.18	1486.83
702.37	1556.46
702.55	1665.00
702.73	1630.18
702.92	1687.53
703.10	1882.08
703.28	1857.51
703.47	1767.40
703.65	1720.29
703.84	1669.09
704.02	1652.71
704.20	1673.19
704.39	1599.46
704.57	1574.89
704.75	1656.81
704.94	1603.56
705.12	1673.19
705.30	1650.66
705.49	1906.66
705.67	2772.95
705.86	7397.26
706.04	14485.28
706.22	18476.77
706.41	21415.61
706.59	22861.48
706.77	20811.46
706.96	14726.94
707.14	11777.87
707.32	9717.61
707.51	8464.25
707.69	7427.98
707.87	6825.88
708.06	5744.55
708.24	4706.23
708.42	3684.30
708.61	2854.87
708.79	2287.58
708.97	1964.00
709.16	1824.74
709.34	1683.43
709.52	1642.47
709.71	1599.46
709.89	1509.35
710.07	1511.40
710.26	1574.89
710.44	1591.27
710.62	1609.70
710.80	1591.27
710.99	1640.42
711.17	1544.17
711.35	1529.83
711.54	1540.07
711.72	1562.60
711.90	1585.13
712.09	1523.69
712.27	1472.49
712.45	1630.18
712.63	1544.17
712.82	1497.07
713.00	1527.78
713.18	1587.18
713.37	1488.87
713.55	1531.88
713.73	1615.85
713.91	1550.31
714.10	1460.20
714.28	1554.41
714.46	1624.04
714.65	1566.70
714.83	1568.74
715.01	1556.46
715.19	1503.21
715.38	1535.98
715.56	1546.22
715.74	1525.74
715.92	1550.31
716.11	1665.00
716.29	1421.29
716.47	1501.16
716.65	1550.31
716.84	1425.39
717.02	1615.85
717.20	1454.06
717.38	1519.59
717.57	1578.98
717.75	1593.32
717.93	1509.35
718.11	1501.16
718.30	1535.98
718.48	1572.84
718.66	1671.14
718.84	1628.14
719.03	1544.17
719.21	1505.26
719.39	1591.27
719.57	1615.85
719.75	1599.46
719.94	1495.02
720.12	1513.45
720.30	1527.78
720.48	1556.46
720.67	1542.12
720.85	1464.30
721.03	1495.02
721.21	1435.63
721.39	1605.61
721.58	1525.74
721.76	1525.74
721.94	1599.46
722.12	1527.78
722.30	1626.09
722.49	1576.94
722.67	1570.79
722.85	1519.59
723.03	1452.01
723.21	1540.07
723.40	1540.07
723.58	1728.49
723.76	1560.55
723.94	1597.42
724.12	1697.77
724.30	1605.61
724.49	1708.01
724.67	1535.98
724.85	1628.14
725.03	1515.50
725.21	1615.85
725.40	1652.71
725.58	1566.70
725.76	1572.84
725.94	1589.22
726.12	1597.42
726.30	1505.26
726.49	1488.87
726.67	1476.59
726.85	1564.65
727.03	1574.89
727.21	1683.43
727.39	2097.12
727.57	3239.89
727.76	4360.13
727.94	4790.20
728.12	5076.91
728.30	5011.38
728.48	4554.68
728.66	3528.65
728.84	3215.31
729.03	2879.44
729.21	2568.15
729.39	2248.67
729.57	2074.59
729.75	1931.23
729.93	1767.40
730.11	1591.27
730.30	1576.94
730.48	1542.12
730.66	1613.80
730.84	1568.74
731.02	1480.68
731.20	1542.12
731.38	1574.89
731.56	1538.02
731.74	1501.16
731.93	1554.41
732.11	1585.13
732.29	1531.88
732.47	1548.26
732.65	1538.02
732.83	1583.08
733.01	1589.22
733.19	1525.74
733.37	1531.88
733.56	1531.88
733.74	1542.12
733.92	1679.33
734.10	1599.46
734.28	1574.89
734.46	1521.64
734.64	1466.35
734.82	1597.42
735.00	1533.93
735.18	1548.26
735.36	1552.36
735.54	1617.90
735.73	1562.60
735.91	1482.73
736.09	1548.26
736.27	1511.40
736.45	1585.13
736.63	1476.59
736.81	1519.59
736.99	1617.90
737.17	1621.99
737.35	1464.30
737.53	1533.93
737.71	1517.54
737.89	1632.23
738.07	1581.03
738.25	1515.50
738.43	1435.63
738.61	1517.54
738.80	1443.82
738.98	1499.11
739.16	1509.35
739.34	1476.59
739.52	1607.66
739.70	1562.60
739.88	1550.31
740.06	1615.85
740.24	1390.57
740.42	1607.66
740.60	1456.11
740.78	1538.02
740.96	1484.78
741.14	1570.79
741.32	1544.17
741.50	1535.98
741.68	1621.99
741.86	1574.89
742.04	1447.91
742.22	1497.07
742.40	1495.02
742.58	1572.84
742.76	1564.65
742.94	1621.99
743.12	1454.06
743.30	1519.59
743.48	1525.74
743.66	1525.74
743.84	1587.18
744.02	1542.12
744.20	1519.59
744.38	1589.22
744.56	1529.83
744.74	1640.42
744.92	1556.46
745.10	1570.79
745.28	1576.94
745.46	1660.90
745.64	1552.36
745.82	1540.07
746.00	1550.31
746.18	1554.41
746.36	1437.67
746.54	1538.02
746.72	1474.54
746.90	1507.30
747.08	1626.09
747.26	1501.16
747.44	1597.42
747.62	1501.16
747.80	1540.07
747.98	1599.46
748.15	1540.07
748.33	1591.27
748.51	1550.31
748.69	1613.80
748.87	1556.46
749.05	1581.03
749.23	1542.12
749.41	1601.51
749.59	1599.46
749.77	1595.37
749.95	1578.98
750.13	1503.21
750.31	1533.93
750.49	1468.39
750.67	1583.08
750.85	1607.66
751.03	1564.65
751.20	1619.94
751.38	1503.21
751.56	1527.78
751.74	1566.70
751.92	1554.41
752.10	1515.50
752.28	1617.90
752.46	1511.40
752.64	1572.84
752.82	1515.50
753.00	1558.50
753.18	1490.92
753.35	1554.41
753.53	1527.78
753.71	1574.89
753.89	1589.22
754.07	1554.41
754.25	1601.51
754.43	1601.51
754.61	1480.68
754.79	1542.12
754.97	1503.21
755.14	1693.67
755.32	1593.32
755.50	1552.36
755.68	1556.46
755.86	1501.16
756.04	1507.30
756.22	1443.82
756.40	1513.45
756.57	1665.00
756.75	1505.26
756.93	1585.13
757.11	1673.19
757.29	1462.25
757.47	1533.93
757.65	1454.06
757.82	1460.20
758.00	1482.73
758.18	1499.11
758.36	1540.07
758.54	1542.12
758.72	1409.00
758.90	1607.66
759.07	1560.55
759.25	1437.67
759.43	1501.16
759.61	1548.26
759.79	1982.43
759.97	1552.36
760.15	1544.17
760.32	1523.69
760.50	1472.49
760.68	1568.74
760.86	1470.44
761.04	1626.09
761.22	1550.31
761.39	1503.21
761.57	1540.07
761.75	1542.12
761.93	1476.59
762.11	1540.07
762.28	1558.50
762.46	1538.02
762.64	1644.52
762.82	1527.78
763.00	1529.83
763.18	1544.17
763.35	1554.41
763.53	1548.26
763.71	1513.45
763.89	1605.61
764.07	1581.03
764.24	1538.02
764.42	1542.12
764.60	1572.84
764.78	1540.07
764.96	1544.17
765.13	1535.98
765.31	1517.54
765.49	1583.08
765.67	1484.78
765.84	1538.02
766.02	1568.74
766.20	1454.06
766.38	1538.02
766.56	1476.59
766.73	1554.41
766.91	1456.11
767.09	1550.31
767.27	1505.26
767.44	1476.59
767.62	1583.08
767.80	1550.31
767.98	1501.16
768.15	1538.02
768.33	1564.65
768.51	1523.69
768.69	1525.74
768.87	1574.89
769.04	1617.90
769.22	1636.33
769.40	1636.33
769.58	1621.99
769.75	1624.04
769.93	1560.55
770.11	1404.91
770.28	1521.64
770.46	1521.64
770.64	1535.98
770.82	1509.35
770.99	1533.93
771.17	1566.70
771.35	1480.68
771.53	1505.26
771.70	1497.07
771.88	1523.69
772.06	1445.87
772.23	1548.26
772.41	1583.08
772.59	1482.73
772.77	1476.59
772.94	1550.31
773.12	1603.56
773.30	1476.59
773.47	1490.92
773.65	1509.35
773.83	1564.65
774.01	1548.26
774.18	1505.26
774.36	1509.35
774.54	1540.07
774.71	1574.89
774.89	1497.07
775.07	1439.72
775.24	1495.02
775.42	1560.55
775.60	1644.52
775.78	1525.74
775.95	1515.50
776.13	1486.83
776.31	1421.29
776.48	1570.79
776.66	1587.18
776.84	1503.21
777.01	1546.22
777.19	1452.01
777.37	1460.20
777.54	1525.74
777.72	1593.32
777.90	1552.36
778.07	1544.17
778.25	1607.66
778.43	1574.89
778.60	1566.70
778.78	1558.50
778.96	1662.95
779.13	1495.02
779.31	1554.41
779.49	1519.59
779.66	1486.83
779.84	1486.83
780.01	1591.27
780.19	1476.59
780.37	1626.09
780.54	1550.31
780.72	1521.64
780.90	1564.65
781.07	1513.45
781.25	1564.65
781.43	1599.46
781.60	1509.35
781.78	1615.85
781.95	1503.21
782.13	1560.55
782.31	1562.60
782.48	1415.15
782.66	1609.70
782.83	1527.78
783.01	1566.70
783.19	1558.50
783.36	1570.79
783.54	1503.21
783.72	1665.00
783.89	1597.42
784.07	1484.78
784.24	1589.22
784.42	1583.08
784.60	1589.22
784.77	1581.03
784.95	1437.67
785.12	1464.30
785.30	1521.64
785.47	1499.11
785.65	1558.50
785.83	1576.94
786.00	1585.13
786.18	1521.64
786.35	1511.40
786.53	1476.59
786.71	1593.32
786.88	1619.94
787.06	1511.40
787.23	1476.59
787.41	1560.55
787.58	1521.64
787.76	1456.11
787.94	1488.87
788.11	1542.12
788.29	1470.44
788.46	1478.63
788.64	1476.59
788.81	1595.37
788.99	1474.54
789.16	1411.05
789.34	1525.74
789.52	1476.59
789.69	1570.79
789.87	1449.96
790.04	1441.77
790.22	1482.73
790.39	1617.90
790.57	1503.21
790.74	1540.07
790.92	1601.51
791.09	1540.07
791.27	1501.16
791.44	1626.09
791.62	1560.55
791.79	1550.31
791.97	1492.97
792.15	1695.72
792.32	1566.70
792.50	1595.37
792.67	1603.56
792.85	1597.42
793.02	1572.84
793.20	1560.55
793.37	1482.73
793.55	1437.67
793.72	1529.83
793.90	1566.70
794.07	1501.16
794.25	1470.44
794.42	1550.31
794.60	1638.38
794.77	1499.11
794.95	1585.13
795.12	1546.22
795.30	1468.39
795.47	1462.25
795.65	1583.08
795.82	1517.54
796.00	1517.54
796.17	1566.70
796.34	1527.78
796.52	1515.50
796.69	1642.47
796.87	1513.45
797.04	1492.97
797.22	1628.14
797.39	1585.13
797.57	1591.27
797.74	1583.08
797.92	1542.12
798.09	1566.70
798.27	1521.64
798.44	1562.60
798.62	1570.79
798.79	1505.26
798.96	1460.20
799.14	1443.82
799.31	1615.85
799.49	1554.41
799.66	1546.22
799.84	1501.16
800.01	1495.02
800.19	1572.84
800.36	1415.15
800.53	1490.92
800.71	1480.68
800.88	1595.37
801.06	1515.50
801.23	1527.78
801.41	1486.83
801.58	1564.65
801.75	1558.50
801.93	1527.78
802.10	1566.70
802.28	1562.60
802.45	1476.59
802.63	1603.56
802.80	1605.61
802.97	1519.59
803.15	1495.02
803.32	1517.54
803.50	1419.24
803.67	1525.74
803.84	1519.59
804.02	1585.13
804.19	1490.92
804.37	1398.76
804.54	1560.55
804.71	1503.21
804.89	1507.30
805.06	1523.69
805.24	1433.58
805.41	1490.92
805.58	1529.83
805.76	1658.85
805.93	1509.35
806.10	1503.21
806.28	1529.83
806.45	1525.74
806.63	1464.30
806.80	1507.30
806.97	1548.26
807.15	1544.17
807.32	1546.22
807.49	1628.14
807.67	1529.83
807.84	1578.98
808.01	1482.73
808.19	1572.84
808.36	1617.90
808.54	1505.26
808.71	1492.97
808.88	1525.74
809.06	1564.65
809.23	1624.04
809.40	1449.96
809.58	1591.27
809.75	1570.79
809.92	1445.87
810.10	1568.74
810.27	1570.79
810.44	1533.93
810.62	1601.51
810.79	1581.03
810.96	1509.35
811.14	1560.55
811.31	1556.46
811.48	1523.69
811.66	1626.09
811.83	1632.23
812.00	1601.51
812.18	1527.78
812.35	1665.00
812.52	1490.92
812.69	1452.01
812.87	1527.78
813.04	1460.20
813.21	1517.54
813.39	1468.39
813.56	1484.78
813.73	1599.46
813.91	1472.49
814.08	1556.46
814.25	1497.07
814.42	1527.78
814.60	1460.20
814.77	1599.46
814.94	1570.79
815.12	1613.80
815.29	1572.84
815.46	1519.59
815.63	1558.50
815.81	1572.84
815.98	1503.21
816.15	1574.89
816.33	1519.59
816.50	1550.31
816.67	1572.84
816.84	1570.79
817.02	1501.16
817.19	1503.21
817.36	1521.64
817.53	1540.07
817.71	1525.74
817.88	1535.98
818.05	1521.64
818.22	1566.70
818.40	1636.33
818.57	1576.94
818.74	1595.37
818.91	1595.37
819.09	1576.94
819.26	1626.09
819.43	1443.82
819.60	1521.64
819.78	1542.12
819.95	1656.81
820.12	1515.50
820.29	1560.55
820.47	1531.88
820.64	1447.91
820.81	1558.50
820.98	1470.44
821.15	1558.50
821.33	1615.85
821.50	1507.30
821.67	1535.98
821.84	1556.46
822.02	1531.88
822.19	1578.98
822.36	1550.31
822.53	1562.60
822.70	1546.22
822.88	1548.26
823.05	1632.23
823.22	1527.78
823.39	1544.17
823.56	1542.12
823.74	1611.75
823.91	1497.07
824.08	1486.83
824.25	1525.74
824.42	1626.09
824.60	1384.43
824.77	1535.98
824.94	1484.78
825.11	1628.14
825.28	1462.25
825.45	1472.49
825.63	1501.16
825.80	1507.30
825.97	1525.74
826.14	1488.87
826.31	1488.87
826.48	1501.16
826.66	1419.24
826.83	1535.98
827.00	1535.98
827.17	1552.36
827.34	1533.93
827.51	1517.54
827.69	1556.46
827.86	1462.25
828.03	1587.18
828.20	1599.46
828.37	1462.25
828.54	1556.46
828.71	1525.74
828.89	1511.40
829.06	1591.27
829.23	1568.74
829.40	1462.25
829.57	1531.88
829.74	1544.17
829.91	1511.40
830.09	1445.87
830.26	1574.89
830.43	1576.94
830.60	1519.59
830.77	1468.39
830.94	1626.09
831.11	1501.16
831.28	1456.11
831.46	1679.33
831.63	1558.50
831.80	1671.14
831.97	1533.93
832.14	1515.50
832.31	1525.74
832.48	1591.27
832.65	1525.74
832.82	1464.30
832.99	1630.18
833.17	1566.70
833.34	1556.46
833.51	1570.79
833.68	1441.77
833.85	1597.42
834.02	1472.49
834.19	1505.26
834.36	1538.02
834.53	1540.07
834.70	1531.88
834.87	1558.50
835.04	1531.88
835.22	1499.11
835.39	1474.54
835.56	1427.43
835.73	1538.02
835.90	1619.94
836.07	1505.26
836.24	1570.79
836.41	1478.63
836.58	1540.07
836.75	1562.60
836.92	1572.84
837.09	1486.83
837.26	1499.11
837.43	1538.02
837.60	1570.79
837.77	1474.54
837.94	1556.46
838.12	1615.85
838.29	1544.17
838.46	1482.73
838.63	1441.77
838.80	1599.46
838.97	1587.18
839.14	1566.70
839.31	1552.36
839.48	1552.36
839.65	1464.30
839.82	1554.41
839.99	1585.13
840.16	1583.08
840.33	1460.20
840.50	1552.36
840.67	1458.15
840.84	1470.44
841.01	1570.79
841.18	1576.94
841.35	1454.06
841.52	1615.85
841.69	1650.66
841.86	1607.66
842.03	1554.41
842.20	1480.68
842.37	1499.11
842.54	1583.08
842.71	1507.30
842.88	1515.50
843.05	1564.65
843.22	1468.39
843.39	1476.59
843.56	1497.07
843.73	1572.84
843.90	1564.65
844.07	1503.21
844.24	1554.41
844.41	1611.75
844.58	1562.60
844.75	1497.07
844.92	1611.75
845.09	1638.38
845.26	1519.59
845.43	1585.13
845.60	1574.89
845.77	1632.23
845.94	1544.17
846.10	1556.46
846.27	1488.87
846.44	1507.30
846.61	1482.73
846.78	1546.22
846.95	1591.27
847.12	1560.55
847.29	1546.22
847.46	1466.35
847.63	1636.33
847.80	1460.20
847.97	1507.30
848.14	1603.56
848.31	1447.91
848.48	1474.54
848.65	1542.12
848.82	1486.83
848.98	1656.81
849.15	1578.98
849.32	1609.70
849.49	1556.46
849.66	1572.84
849.83	1566.70
850.00	1411.05
850.17	1603.56
850.34	1511.40
850.51	1441.77
850.68	1460.20
850.85	1675.24
851.01	1564.65
851.18	1540.07
851.35	1585.13
851.52	1470.44
851.69	1597.42
851.86	1456.11
852.03	1517.54
852.20	1556.46
852.37	1503.21
852.53	1515.50
852.70	1574.89
852.87	1595.37
853.04	1548.26
853.21	1519.59
853.38	1556.46
853.55	1572.84
853.72	1601.51
853.89	1501.16
854.05	1462.25
854.22	1452.01
854.39	1542.12
854.56	1495.02
854.73	1595.37
854.90	1488.87
855.07	1521.64
855.23	1523.69
855.40	1484.78
855.57	1548.26
855.74	1435.63
855.91	1689.57
856.08	1447.91
856.25	1495.02
856.41	1454.06
856.58	1517.54
856.75	1495.02
856.92	1529.83
857.09	1550.31
857.26	1507.30
857.42	1486.83
857.59	1560.55
857.76	1515.50
857.93	1535.98
858.10	1460.20
858.27	1505.26
858.43	1591.27
858.60	1482.73
858.77	1499.11
858.94	1546.22
859.11	1497.07
859.27	1527.78
859.44	1519.59
859.61	1562.60
859.78	1636.33
859.95	1460.20
860.12	1435.63
860.28	1646.57
860.45	1626.09
860.62	1462.25
860.79	1495.02
860.95	1509.35
861.12	1415.15
861.29	1445.87
861.46	1474.54
861.63	1480.68
861.79	1501.16
861.96	1454.06
862.13	1546.22
862.30	1628.14
862.47	1558.50
862.63	1431.53
862.80	1617.90
862.97	1578.98
863.14	1644.52
863.30	1509.35
863.47	1529.83
863.64	1611.75
863.81	1497.07
863.97	1497.07
864.14	1509.35
864.31	1464.30
864.48	1511.40
864.65	1589.22
864.81	1570.79
864.98	1513.45
865.15	1599.46
865.32	1609.70
865.48	1576.94
865.65	1636.33
865.82	1488.87
865.98	1546.22
866.15	1587.18
866.32	1531.88
866.49	1538.02
866.65	1558.50
866.82	1503.21
866.99	1583.08
867.16	1507.30
867.32	1552.36
867.49	1558.50
867.66	1578.98
867.83	1599.46
867.99	1439.72
868.16	1552.36
868.33	1492.97
868.49	1490.92
868.66	1535.98
868.83	1619.94
868.99	1583.08
869.16	1527.78
869.33	1544.17
869.50	1648.61
869.66	1552.36
869.83	1499.11
870.00	1525.74
870.16	1552.36
870.33	1486.83
870.50	1554.41
870.66	1572.84
870.83	1689.57
871.00	1499.11
871.17	1574.89
871.33	1505.26
871.50	1501.16
871.67	1517.54
871.83	1517.54
872.00	1611.75
872.17	1531.88
872.33	1585.13
872.50	1593.32
872.67	1509.35
872.83	1456.11
873.00	1566.70
873.17	1558.50
873.33	1492.97
873.50	1546.22
873.67	1523.69
873.83	1437.67
874.00	1566.70
874.16	1601.51
874.33	1486.83
874.50	1419.24
874.66	1552.36
874.83	1478.63
875.00	1603.56
875.16	1578.98
875.33	1591.27
875.50	1406.95
875.66	1572.84
875.83	1490.92
875.99	1548.26
876.16	1527.78
876.33	1486.83
876.49	1474.54
876.66	1611.75
876.83	1445.87
876.99	1519.59
877.16	1552.36
877.32	1495.02
877.49	1505.26
877.66	1548.26
877.82	1638.38
877.99	1517.54
878.15	1607.66
878.32	1521.64
878.49	1495.02
878.65	1513.45
878.82	1566.70
878.98	1495.02
879.15	1546.22
879.32	1595.37
879.48	1511.40
879.65	1468.39
879.81	1495.02
879.98	1484.78
880.15	1540.07
880.31	1605.61
880.48	1538.02
880.64	1611.75
880.81	1564.65
880.97	1558.50
881.14	1591.27
881.31	1585.13
881.47	1581.03
881.64	1468.39
881.80	1423.34
881.97	1533.93
882.13	1585.13
882.30	1486.83
882.47	1499.11
882.63	1523.69
882.80	1492.97
882.96	1495.02
883.13	1574.89
883.29	1503.21
883.46	1591.27
883.62	1648.61
883.79	1542.12
883.95	1507.30
884.12	1472.49
884.29	1599.46
884.45	1587.18
884.62	1609.70
884.78	1443.82
884.95	1593.32
885.11	1558.50
885.28	1568.74
885.44	1562.60
885.61	1540.07
885.77	1556.46
885.94	1550.31
886.10	1492.97
886.27	1607.66
886.43	1578.98
886.60	1578.98
886.76	1535.98
886.93	1601.51
887.09	1550.31
887.26	1527.78
887.42	1531.88
887.59	1529.83
887.75	1650.66
887.92	1595.37
888.08	1599.46
888.25	1642.47
888.41	1605.61
888.58	1595.37
888.74	1554.41
888.91	1476.59
>>>>>End Processed Spectral Data<<<<<
