SpectraSuite Data File
++++++++++++++++++++++++++++++++++++
Date: Tue May 03 12:56:01 CEST 2016
User: root
Dark Spectrum Present: No
Reference Spectrum Present: No
Number of Sampled Component Spectra: 1
Spectrometers: USB4C02835
Integration Time (usec): 100000 (USB4C02835)
Spectra Averaged: 1 (USB4C02835)
Boxcar Smoothing: 0 (USB4C02835)
Correct for Electrical Dark: No (USB4C02835)
Strobe/Lamp Enabled: No (USB4C02835)
Correct for Detector Non-linearity: No (USB4C02835)
Correct for Stray Light: No (USB4C02835)
Number of Pixels in Processed Spectrum: 3648
>>>>>Begin Processed Spectral Data<<<<<
177.47	1370.09
177.69	1370.09
177.91	1370.09
178.13	1339.37
178.36	1279.98
178.58	1443.82
178.80	1595.37
179.02	1472.49
179.24	1484.78
179.46	1482.73
179.68	1552.36
179.90	1470.44
180.13	1509.35
180.35	1492.97
180.57	1566.70
180.79	1591.27
181.01	1492.97
181.23	1609.70
181.45	1562.60
181.67	1525.74
181.90	1560.55
182.12	1511.40
182.34	1554.41
182.56	1525.74
182.78	1564.65
183.00	1503.21
183.22	1533.93
183.44	1482.73
183.66	1697.77
183.89	1587.18
184.11	1535.98
184.33	1656.81
184.55	1572.84
184.77	1468.39
184.99	1607.66
185.21	1583.08
185.43	1646.57
185.65	1603.56
185.87	1525.74
186.10	1624.04
186.32	1652.71
186.54	1601.51
186.76	1542.12
186.98	1599.46
187.20	1560.55
187.42	1562.60
187.64	1550.31
187.86	1591.27
188.08	1634.28
188.30	1529.83
188.52	1540.07
188.75	1542.12
188.97	1576.94
189.19	1517.54
189.41	1482.73
189.63	1540.07
189.85	1609.70
190.07	1517.54
190.29	1423.34
190.51	1488.87
190.73	1527.78
190.95	1611.75
191.17	1552.36
191.39	1480.68
191.61	1538.02
191.84	1552.36
192.06	1529.83
192.28	1511.40
192.50	1648.61
192.72	1585.13
192.94	1576.94
193.16	1566.70
193.38	1538.02
193.60	1548.26
193.82	1566.70
194.04	1605.61
194.26	1617.90
194.48	1576.94
194.70	1470.44
194.92	1441.77
195.14	1607.66
195.36	1595.37
195.58	1566.70
195.80	1560.55
196.02	1517.54
196.24	1583.08
196.46	1540.07
196.69	1507.30
196.91	1621.99
197.13	1511.40
197.35	1533.93
197.57	1566.70
197.79	1527.78
198.01	1556.46
198.23	1683.43
198.45	1595.37
198.67	1497.07
198.89	1544.17
199.11	1533.93
199.33	1470.44
199.55	1445.87
199.77	1552.36
199.99	1619.94
200.21	1499.11
200.43	1583.08
200.65	1495.02
200.87	1505.26
201.09	1497.07
201.31	1476.59
201.53	1540.07
201.75	1476.59
201.97	1589.22
202.19	1585.13
202.41	1497.07
202.63	1607.66
202.85	1550.31
203.07	1468.39
203.29	1570.79
203.51	1538.02
203.73	1482.73
203.95	1689.57
204.17	1560.55
204.39	1554.41
204.61	1621.99
204.83	1511.40
205.05	1615.85
205.27	1593.32
205.49	1660.90
205.71	1540.07
205.93	1529.83
206.15	1503.21
206.37	1492.97
206.59	1513.45
206.81	1394.67
207.03	1413.10
207.25	1499.11
207.47	1550.31
207.69	1509.35
207.91	1626.09
208.13	1599.46
208.34	1462.25
208.56	1529.83
208.78	1601.51
209.00	1435.63
209.22	1509.35
209.44	1513.45
209.66	1464.30
209.88	1501.16
210.10	1456.11
210.32	1535.98
210.54	1511.40
210.76	1497.07
210.98	1566.70
211.20	1460.20
211.42	1511.40
211.64	1619.94
211.86	1578.98
212.08	1441.77
212.30	1509.35
212.52	1523.69
212.74	1621.99
212.96	1574.89
213.17	1634.28
213.39	1621.99
213.61	1568.74
213.83	1601.51
214.05	1484.78
214.27	1558.50
214.49	1513.45
214.71	1564.65
214.93	1538.02
215.15	1503.21
215.37	1562.60
215.59	1421.29
215.81	1556.46
216.03	1601.51
216.24	1499.11
216.46	1478.63
216.68	1576.94
216.90	1587.18
217.12	1578.98
217.34	1556.46
217.56	1603.56
217.78	1564.65
218.00	1527.78
218.22	1478.63
218.44	1574.89
218.66	1595.37
218.87	1595.37
219.09	1509.35
219.31	1599.46
219.53	1570.79
219.75	1513.45
219.97	1613.80
220.19	1548.26
220.41	1503.21
220.63	1546.22
220.85	1533.93
221.06	1552.36
221.28	1564.65
221.50	1503.21
221.72	1591.27
221.94	1550.31
222.16	1542.12
222.38	1542.12
222.60	1617.90
222.82	1585.13
223.03	1587.18
223.25	1468.39
223.47	1687.53
223.69	1583.08
223.91	1593.32
224.13	1509.35
224.35	1568.74
224.57	1669.09
224.78	1562.60
225.00	1447.91
225.22	1460.20
225.44	1556.46
225.66	1533.93
225.88	1525.74
226.10	1648.61
226.32	1480.68
226.53	1646.57
226.75	1492.97
226.97	1613.80
227.19	1576.94
227.41	1523.69
227.63	1484.78
227.85	1413.10
228.06	1525.74
228.28	1630.18
228.50	1593.32
228.72	1484.78
228.94	1552.36
229.16	1484.78
229.37	1474.54
229.59	1439.72
229.81	1574.89
230.03	1544.17
230.25	1466.35
230.47	1478.63
230.69	1486.83
230.90	1503.21
231.12	1454.06
231.34	1583.08
231.56	1581.03
231.78	1525.74
232.00	1611.75
232.21	1570.79
232.43	1574.89
232.65	1427.43
232.87	1566.70
233.09	1548.26
233.30	1538.02
233.52	1564.65
233.74	1497.07
233.96	1523.69
234.18	1490.92
234.40	1511.40
234.61	1667.05
234.83	1454.06
235.05	1531.88
235.27	1671.14
235.49	1615.85
235.70	1638.38
235.92	1603.56
236.14	1572.84
236.36	1701.86
236.58	1495.02
236.79	1542.12
237.01	1501.16
237.23	1572.84
237.45	1628.14
237.67	1503.21
237.88	1533.93
238.10	1624.04
238.32	1507.30
238.54	1511.40
238.76	1525.74
238.97	1468.39
239.19	1509.35
239.41	1621.99
239.63	1552.36
239.85	1603.56
240.06	1533.93
240.28	1540.07
240.50	1552.36
240.72	1521.64
240.93	1490.92
241.15	1617.90
241.37	1505.26
241.59	1554.41
241.81	1595.37
242.02	1523.69
242.24	1578.98
242.46	1578.98
242.68	1484.78
242.89	1460.20
243.11	1550.31
243.33	1548.26
243.55	1535.98
243.76	1583.08
243.98	1533.93
244.20	1529.83
244.42	1490.92
244.64	1550.31
244.85	1499.11
245.07	1466.35
245.29	1591.27
245.51	1550.31
245.72	1593.32
245.94	1599.46
246.16	1607.66
246.38	1632.23
246.59	1521.64
246.81	1509.35
247.03	1503.21
247.24	1406.95
247.46	1540.07
247.68	1599.46
247.90	1531.88
248.11	1517.54
248.33	1527.78
248.55	1548.26
248.77	1517.54
248.98	1624.04
249.20	1560.55
249.42	1548.26
249.64	1609.70
249.85	1527.78
250.07	1439.72
250.29	1548.26
250.50	1552.36
250.72	1497.07
250.94	1548.26
251.16	1648.61
251.37	1599.46
251.59	1527.78
251.81	1546.22
252.02	1548.26
252.24	1507.30
252.46	1597.42
252.68	1568.74
252.89	1478.63
253.11	1429.48
253.33	1632.23
253.54	1619.94
253.76	1472.49
253.98	1540.07
254.20	1495.02
254.41	1513.45
254.63	1593.32
254.85	1482.73
255.06	1484.78
255.28	1546.22
255.50	1478.63
255.71	1505.26
255.93	1478.63
256.15	1474.54
256.36	1605.61
256.58	1478.63
256.80	1583.08
257.02	1533.93
257.23	1492.97
257.45	1495.02
257.67	1550.31
257.88	1492.97
258.10	1527.78
258.32	1667.05
258.53	1550.31
258.75	1517.54
258.97	1544.17
259.18	1527.78
259.40	1566.70
259.62	1566.70
259.83	1609.70
260.05	1613.80
260.27	1761.25
260.48	1562.60
260.70	1472.49
260.92	1511.40
261.13	1519.59
261.35	1509.35
261.57	1656.81
261.78	1501.16
262.00	1505.26
262.22	1587.18
262.43	1542.12
262.65	1521.64
262.86	1495.02
263.08	1628.14
263.30	1576.94
263.51	1486.83
263.73	1466.35
263.95	1570.79
264.16	1454.06
264.38	1425.39
264.60	1468.39
264.81	1490.92
265.03	1529.83
265.25	1578.98
265.46	1550.31
265.68	1540.07
265.89	1574.89
266.11	1466.35
266.33	1546.22
266.54	1599.46
266.76	1593.32
266.98	1566.70
267.19	1636.33
267.41	1550.31
267.62	1513.45
267.84	1439.72
268.06	1533.93
268.27	1531.88
268.49	1630.18
268.70	1542.12
268.92	1468.39
269.14	1484.78
269.35	1460.20
269.57	1533.93
269.79	1601.51
270.00	1535.98
270.22	1615.85
270.43	1587.18
270.65	1435.63
270.87	1529.83
271.08	1609.70
271.30	1554.41
271.51	1484.78
271.73	1595.37
271.95	1572.84
272.16	1554.41
272.38	1611.75
272.59	1531.88
272.81	1587.18
273.02	1525.74
273.24	1572.84
273.46	1648.61
273.67	1492.97
273.89	1462.25
274.10	1542.12
274.32	1605.61
274.54	1476.59
274.75	1556.46
274.97	1521.64
275.18	1624.04
275.40	1601.51
275.61	1583.08
275.83	1556.46
276.05	1488.87
276.26	1402.86
276.48	1525.74
276.69	1585.13
276.91	1495.02
277.12	1578.98
277.34	1564.65
277.55	1583.08
277.77	1535.98
277.99	1527.78
278.20	1509.35
278.42	1505.26
278.63	1464.30
278.85	1490.92
279.06	1480.68
279.28	1538.02
279.49	1542.12
279.71	1560.55
279.93	1503.21
280.14	1521.64
280.36	1517.54
280.57	1566.70
280.79	1626.09
281.00	1492.97
281.22	1550.31
281.43	1523.69
281.65	1517.54
281.86	1492.97
282.08	1581.03
282.29	1601.51
282.51	1482.73
282.73	1495.02
282.94	1505.26
283.16	1578.98
283.37	1585.13
283.59	1593.32
283.80	1591.27
284.02	1525.74
284.23	1572.84
284.45	1517.54
284.66	1480.68
284.88	1540.07
285.09	1585.13
285.31	1574.89
285.52	1460.20
285.74	1515.50
285.95	1636.33
286.17	1531.88
286.38	1560.55
286.60	1515.50
286.81	1472.49
287.03	1507.30
287.24	1476.59
287.46	1542.12
287.67	1552.36
287.89	1531.88
288.10	1554.41
288.32	1566.70
288.53	1519.59
288.75	1619.94
288.96	1593.32
289.18	1480.68
289.39	1533.93
289.61	1581.03
289.82	1636.33
290.04	1671.14
290.25	1556.46
290.47	1568.74
290.68	1535.98
290.90	1613.80
291.11	1505.26
291.33	1568.74
291.54	1439.72
291.76	1499.11
291.97	1480.68
292.18	1572.84
292.40	1540.07
292.61	1484.78
292.83	1708.01
293.04	1570.79
293.26	1556.46
293.47	1535.98
293.69	1523.69
293.90	1542.12
294.12	1533.93
294.33	1490.92
294.55	1499.11
294.76	1519.59
294.97	1593.32
295.19	1652.71
295.40	1529.83
295.62	1566.70
295.83	1558.50
296.05	1525.74
296.26	1609.70
296.48	1546.22
296.69	1527.78
296.90	1501.16
297.12	1587.18
297.33	1591.27
297.55	1558.50
297.76	1601.51
297.98	1654.76
298.19	1597.42
298.41	1523.69
298.62	1511.40
298.83	1581.03
299.05	1562.60
299.26	1466.35
299.48	1490.92
299.69	1560.55
299.90	1521.64
300.12	1490.92
300.33	1585.13
300.55	1603.56
300.76	1581.03
300.98	1519.59
301.19	1562.60
301.40	1585.13
301.62	1558.50
301.83	1595.37
302.05	1519.59
302.26	1581.03
302.47	1585.13
302.69	1478.63
302.90	1560.55
303.12	1474.54
303.33	1525.74
303.54	1601.51
303.76	1499.11
303.97	1619.94
304.19	1607.66
304.40	1415.15
304.61	1533.93
304.83	1581.03
305.04	1546.22
305.26	1544.17
305.47	1470.44
305.68	1533.93
305.90	1482.73
306.11	1568.74
306.33	1529.83
306.54	1519.59
306.75	1480.68
306.97	1533.93
307.18	1521.64
307.39	1525.74
307.61	1527.78
307.82	1431.53
308.04	1560.55
308.25	1505.26
308.46	1564.65
308.68	1538.02
308.89	1587.18
309.10	1564.65
309.32	1564.65
309.53	1560.55
309.74	1583.08
309.96	1556.46
310.17	1578.98
310.39	1578.98
310.60	1509.35
310.81	1488.87
311.03	1538.02
311.24	1593.32
311.45	1562.60
311.67	1638.38
311.88	1521.64
312.09	1462.25
312.31	1568.74
312.52	1480.68
312.73	1519.59
312.95	1515.50
313.16	1486.83
313.37	1613.80
313.59	1591.27
313.80	1665.00
314.01	1605.61
314.23	1546.22
314.44	1585.13
314.65	1460.20
314.87	1521.64
315.08	1527.78
315.29	1525.74
315.51	1488.87
315.72	1513.45
315.93	1708.01
316.15	1632.23
316.36	1523.69
316.57	1542.12
316.79	1611.75
317.00	1462.25
317.21	1574.89
317.43	1533.93
317.64	1482.73
317.85	1554.41
318.07	1544.17
318.28	1652.71
318.49	1634.28
318.70	1775.59
318.92	1732.58
319.13	1640.42
319.34	1738.73
319.56	1640.42
319.77	1712.10
319.98	1683.43
320.20	1636.33
320.41	1650.66
320.62	1646.57
320.83	1456.11
321.05	1589.22
321.26	1638.38
321.47	1566.70
321.69	1597.42
321.90	1472.49
322.11	1540.07
322.32	1511.40
322.54	1587.18
322.75	1511.40
322.96	1615.85
323.18	1490.92
323.39	1466.35
323.60	1411.05
323.81	1550.31
324.03	1458.15
324.24	1531.88
324.45	1525.74
324.66	1507.30
324.88	1624.04
325.09	1599.46
325.30	1529.83
325.52	1562.60
325.73	1568.74
325.94	1517.54
326.15	1501.16
326.37	1419.24
326.58	1585.13
326.79	1472.49
327.00	1431.53
327.22	1576.94
327.43	1538.02
327.64	1486.83
327.85	1525.74
328.07	1648.61
328.28	1669.09
328.49	1529.83
328.70	1476.59
328.92	1527.78
329.13	1560.55
329.34	1640.42
329.55	1638.38
329.76	1570.79
329.98	1546.22
330.19	1587.18
330.40	1587.18
330.61	1615.85
330.83	1578.98
331.04	1497.07
331.25	1511.40
331.46	1511.40
331.68	1507.30
331.89	1562.60
332.10	1523.69
332.31	1480.68
332.52	1464.30
332.74	1601.51
332.95	1452.01
333.16	1529.83
333.37	1578.98
333.58	1511.40
333.80	1544.17
334.01	1503.21
334.22	1497.07
334.43	1509.35
334.64	1568.74
334.86	1443.82
335.07	1566.70
335.28	1533.93
335.49	1429.48
335.70	1503.21
335.92	1601.51
336.13	1576.94
336.34	1505.26
336.55	1556.46
336.76	1560.55
336.98	1419.24
337.19	1527.78
337.40	1628.14
337.61	1603.56
337.82	1523.69
338.04	1589.22
338.25	1484.78
338.46	1548.26
338.67	1550.31
338.88	1503.21
339.09	1484.78
339.31	1574.89
339.52	1488.87
339.73	1437.67
339.94	1548.26
340.15	1548.26
340.36	1460.20
340.58	1505.26
340.79	1458.15
341.00	1583.08
341.21	1456.11
341.42	1644.52
341.63	1572.84
341.85	1581.03
342.06	1503.21
342.27	1435.63
342.48	1599.46
342.69	1492.97
342.90	1482.73
343.12	1521.64
343.33	1535.98
343.54	1533.93
343.75	1644.52
343.96	1546.22
344.17	1550.31
344.38	1581.03
344.60	1560.55
344.81	1509.35
345.02	1554.41
345.23	1544.17
345.44	1642.47
345.65	1607.66
345.86	1548.26
346.07	1538.02
346.29	1660.90
346.50	1503.21
346.71	1607.66
346.92	1632.23
347.13	1667.05
347.34	1554.41
347.55	1562.60
347.76	1562.60
347.98	1462.25
348.19	1507.30
348.40	1634.28
348.61	1468.39
348.82	1677.29
349.03	1578.98
349.24	1509.35
349.45	1603.56
349.66	1550.31
349.88	1515.50
350.09	1509.35
350.30	1599.46
350.51	1589.22
350.72	1538.02
350.93	1538.02
351.14	1501.16
351.35	1601.51
351.56	1521.64
351.77	1480.68
351.99	1585.13
352.20	1669.09
352.41	1599.46
352.62	1382.38
352.83	1542.12
353.04	1523.69
353.25	1546.22
353.46	1544.17
353.67	1593.32
353.88	1484.78
354.09	1529.83
354.30	1581.03
354.52	1507.30
354.73	1521.64
354.94	1454.06
355.15	1587.18
355.36	1613.80
355.57	1476.59
355.78	1562.60
355.99	1540.07
356.20	1462.25
356.41	1578.98
356.62	1546.22
356.83	1609.70
357.04	1591.27
357.25	1462.25
357.46	1538.02
357.68	1503.21
357.89	1492.97
358.10	1558.50
358.31	1538.02
358.52	1460.20
358.73	1476.59
358.94	1599.46
359.15	1572.84
359.36	1587.18
359.57	1564.65
359.78	1562.60
359.99	1572.84
360.20	1486.83
360.41	1497.07
360.62	1529.83
360.83	1550.31
361.04	1529.83
361.25	1574.89
361.46	1636.33
361.67	1531.88
361.88	1544.17
362.09	1597.42
362.30	1538.02
362.51	1550.31
362.72	1560.55
362.93	1578.98
363.14	1542.12
363.35	1570.79
363.56	1431.53
363.78	1542.12
363.99	1509.35
364.20	1499.11
364.41	1662.95
364.62	1525.74
364.83	1490.92
365.04	1601.51
365.25	1558.50
365.46	1751.01
365.67	1466.35
365.88	1486.83
366.09	1513.45
366.30	1501.16
366.51	1540.07
366.72	1456.11
366.93	1523.69
367.14	1572.84
367.35	1527.78
367.56	1581.03
367.77	1615.85
367.98	1521.64
368.18	1517.54
368.39	1511.40
368.60	1488.87
368.81	1562.60
369.02	1535.98
369.23	1495.02
369.44	1566.70
369.65	1587.18
369.86	1564.65
370.07	1695.72
370.28	1468.39
370.49	1591.27
370.70	1607.66
370.91	1396.71
371.12	1439.72
371.33	1570.79
371.54	1535.98
371.75	1656.81
371.96	1406.95
372.17	1597.42
372.38	1554.41
372.59	1533.93
372.80	1495.02
373.01	1554.41
373.22	1529.83
373.43	1476.59
373.64	1484.78
373.85	1572.84
374.06	1638.38
374.26	1630.18
374.47	1509.35
374.68	1552.36
374.89	1486.83
375.10	1486.83
375.31	1503.21
375.52	1503.21
375.73	1554.41
375.94	1535.98
376.15	1632.23
376.36	1503.21
376.57	1552.36
376.78	1538.02
376.99	1513.45
377.20	1501.16
377.40	1621.99
377.61	1648.61
377.82	1439.72
378.03	1576.94
378.24	1525.74
378.45	1546.22
378.66	1574.89
378.87	1478.63
379.08	1474.54
379.29	1515.50
379.50	1554.41
379.71	1523.69
379.91	1533.93
380.12	1546.22
380.33	1574.89
380.54	1511.40
380.75	1499.11
380.96	1535.98
381.17	1591.27
381.38	1560.55
381.59	1628.14
381.80	1593.32
382.00	1632.23
382.21	1662.95
382.42	1658.85
382.63	1607.66
382.84	1660.90
383.05	1552.36
383.26	1574.89
383.47	1527.78
383.68	1609.70
383.88	1607.66
384.09	1593.32
384.30	1621.99
384.51	1589.22
384.72	1486.83
384.93	1531.88
385.14	1566.70
385.35	1646.57
385.55	1411.05
385.76	1628.14
385.97	1552.36
386.18	1527.78
386.39	1546.22
386.60	1548.26
386.81	1570.79
387.02	1587.18
387.22	1568.74
387.43	1665.00
387.64	1689.57
387.85	1847.27
388.06	3196.88
388.27	7012.24
388.48	10391.39
388.68	12277.57
388.89	13827.88
389.10	12789.56
389.31	10049.38
389.52	8828.79
389.73	7952.26
389.93	7186.32
390.14	6758.30
390.35	6168.48
390.56	5441.45
390.77	4640.70
390.98	3649.48
391.18	2715.61
391.39	2170.85
391.60	1708.01
391.81	1720.29
392.02	1611.75
392.23	1624.04
392.43	1601.51
392.64	1601.51
392.85	1624.04
393.06	1591.27
393.27	1570.79
393.47	1515.50
393.68	1566.70
393.89	1415.15
394.10	1574.89
394.31	1480.68
394.52	1550.31
394.72	1515.50
394.93	1626.09
395.14	1513.45
395.35	1572.84
395.56	1554.41
395.76	1581.03
395.97	1638.38
396.18	1740.77
396.39	1697.77
396.60	1853.41
396.80	1759.21
397.01	1710.05
397.22	1701.86
397.43	1738.73
397.64	1564.65
397.84	1673.19
398.05	1751.01
398.26	1570.79
398.47	1595.37
398.67	1593.32
398.88	1599.46
399.09	1650.66
399.30	1562.60
399.51	1566.70
399.71	1484.78
399.92	1605.61
400.13	1613.80
400.34	1486.83
400.54	1466.35
400.75	1628.14
400.96	1517.54
401.17	1626.09
401.37	1591.27
401.58	1619.94
401.79	1550.31
402.00	1714.15
402.21	1931.23
402.41	1865.70
402.62	1980.39
402.83	1920.99
403.04	1929.19
403.24	1886.18
403.45	1736.68
403.66	1732.58
403.87	1716.20
404.07	1763.30
404.28	1681.38
404.49	1652.71
404.70	1613.80
404.90	1609.70
405.11	1542.12
405.32	1544.17
405.52	1527.78
405.73	1538.02
405.94	1470.44
406.15	1550.31
406.35	1552.36
406.56	1529.83
406.77	1538.02
406.98	1595.37
407.18	1513.45
407.39	1589.22
407.60	1533.93
407.80	1574.89
408.01	1497.07
408.22	1566.70
408.43	1525.74
408.63	1613.80
408.84	1597.42
409.05	1554.41
409.25	1542.12
409.46	1572.84
409.67	1474.54
409.88	1437.67
410.08	1560.55
410.29	1578.98
410.50	1523.69
410.70	1585.13
410.91	1437.67
411.12	1619.94
411.32	1556.46
411.53	1501.16
411.74	1730.53
411.95	1511.40
412.15	1601.51
412.36	1687.53
412.57	1658.85
412.77	1540.07
412.98	1605.61
413.19	1652.71
413.39	1619.94
413.60	1564.65
413.81	1669.09
414.01	1521.64
414.22	1511.40
414.43	1523.69
414.63	1585.13
414.84	1601.51
415.05	1560.55
415.25	1503.21
415.46	1507.30
415.67	1505.26
415.87	1550.31
416.08	1538.02
416.29	1515.50
416.49	1486.83
416.70	1535.98
416.91	1517.54
417.11	1558.50
417.32	1560.55
417.53	1540.07
417.73	1517.54
417.94	1462.25
418.15	1523.69
418.35	1562.60
418.56	1505.26
418.77	1601.51
418.97	1578.98
419.18	1511.40
419.38	1402.86
419.59	1574.89
419.80	1603.56
420.00	1574.89
420.21	1609.70
420.42	1613.80
420.62	1519.59
420.83	1499.11
421.04	1578.98
421.24	1525.74
421.45	1681.38
421.65	1605.61
421.86	1556.46
422.07	1574.89
422.27	1542.12
422.48	1624.04
422.69	1480.68
422.89	1552.36
423.10	1511.40
423.30	1503.21
423.51	1464.30
423.72	1554.41
423.92	1632.23
424.13	1482.73
424.33	1552.36
424.54	1581.03
424.75	1560.55
424.95	1548.26
425.16	1558.50
425.36	1535.98
425.57	1656.81
425.78	1597.42
425.98	1542.12
426.19	1515.50
426.39	1368.04
426.60	1560.55
426.81	1619.94
427.01	1595.37
427.22	1478.63
427.42	1449.96
427.63	1519.59
427.83	1593.32
428.04	1626.09
428.25	1591.27
428.45	1642.47
428.66	1550.31
428.86	1601.51
429.07	1486.83
429.28	1515.50
429.48	1587.18
429.69	1540.07
429.89	1538.02
430.10	1492.97
430.30	1638.38
430.51	1566.70
430.71	1523.69
430.92	1583.08
431.13	1564.65
431.33	1517.54
431.54	1578.98
431.74	1628.14
431.95	1630.18
432.15	1490.92
432.36	1609.70
432.56	1564.65
432.77	1673.19
432.98	1621.99
433.18	1495.02
433.39	1540.07
433.59	1546.22
433.80	1667.05
434.00	1624.04
434.21	1550.31
434.41	1503.21
434.62	1712.10
434.82	1589.22
435.03	1501.16
435.23	1572.84
435.44	1560.55
435.64	1548.26
435.85	1529.83
436.06	1519.59
436.26	1542.12
436.47	1538.02
436.67	1486.83
436.88	1542.12
437.08	1587.18
437.29	1601.51
437.49	1591.27
437.70	1589.22
437.90	1552.36
438.11	1675.24
438.31	1619.94
438.52	1710.05
438.72	1646.57
438.93	1794.02
439.13	1710.05
439.34	1652.71
439.54	1562.60
439.75	1626.09
439.95	1587.18
440.16	1574.89
440.36	1591.27
440.57	1535.98
440.77	1599.46
440.98	1546.22
441.18	1583.08
441.39	1525.74
441.59	1468.39
441.80	1669.09
442.00	1566.70
442.21	1613.80
442.41	1503.21
442.62	1632.23
442.82	1458.15
443.02	1525.74
443.23	1603.56
443.43	1566.70
443.64	1587.18
443.84	1521.64
444.05	1585.13
444.25	1558.50
444.46	1548.26
444.66	1572.84
444.87	1718.25
445.07	1480.68
445.28	1495.02
445.48	1617.90
445.69	1599.46
445.89	1617.90
446.09	1611.75
446.30	1992.67
446.50	3139.54
446.71	4442.04
446.91	5326.77
447.12	5742.50
447.32	5603.24
447.53	4695.99
447.73	4130.75
447.93	3602.38
448.14	3356.62
448.34	3223.50
448.55	2920.40
448.75	2928.60
448.96	2830.29
449.16	2402.27
449.36	2111.46
449.57	1976.29
449.77	1816.55
449.98	1581.03
450.18	1615.85
450.39	1626.09
450.59	1595.37
450.79	1609.70
451.00	1490.92
451.20	1636.33
451.41	1544.17
451.61	1529.83
451.81	1554.41
452.02	1503.21
452.22	1519.59
452.43	1458.15
452.63	1443.82
452.84	1597.42
453.04	1509.35
453.24	1523.69
453.45	1564.65
453.65	1570.79
453.86	1583.08
454.06	1562.60
454.26	1542.12
454.47	1533.93
454.67	1681.38
454.87	1581.03
455.08	1601.51
455.28	1613.80
455.49	1566.70
455.69	1519.59
455.89	1675.24
456.10	1591.27
456.30	1519.59
456.51	1562.60
456.71	1519.59
456.91	1560.55
457.12	1572.84
457.32	1581.03
457.52	1533.93
457.73	1578.98
457.93	1566.70
458.14	1474.54
458.34	1505.26
458.54	1558.50
458.75	1531.88
458.95	1613.80
459.15	1591.27
459.36	1574.89
459.56	1556.46
459.76	1626.09
459.97	1578.98
460.17	1542.12
460.37	1525.74
460.58	1513.45
460.78	1626.09
460.99	1578.98
461.19	1572.84
461.39	1519.59
461.60	1564.65
461.80	1476.59
462.00	1492.97
462.21	1544.17
462.41	1529.83
462.61	1535.98
462.82	1462.25
463.02	1574.89
463.22	1513.45
463.43	1576.94
463.63	1630.18
463.83	1501.16
464.04	1562.60
464.24	1531.88
464.44	1431.53
464.64	1558.50
464.85	1535.98
465.05	1560.55
465.25	1490.92
465.46	1482.73
465.66	1472.49
465.86	1583.08
466.07	1568.74
466.27	1595.37
466.47	1611.75
466.68	1552.36
466.88	1591.27
467.08	1525.74
467.29	1599.46
467.49	1691.62
467.69	1611.75
467.89	1546.22
468.10	1511.40
468.30	1554.41
468.50	1597.42
468.71	1619.94
468.91	1499.11
469.11	1595.37
469.31	1550.31
469.52	1488.87
469.72	1636.33
469.92	1667.05
470.13	1468.39
470.33	1581.03
470.53	1779.68
470.73	2080.74
470.94	2273.25
471.14	2492.38
471.34	2586.58
471.54	2375.64
471.75	2174.94
471.95	2050.02
472.15	1970.15
472.36	2009.06
472.56	1937.38
472.76	1855.46
472.96	1918.95
473.17	1830.88
473.37	1689.57
473.57	1609.70
473.77	1671.14
473.98	1570.79
474.18	1540.07
474.38	1685.48
474.58	1519.59
474.79	1503.21
474.99	1601.51
475.19	1564.65
475.39	1404.91
475.60	1566.70
475.80	1609.70
476.00	1562.60
476.20	1529.83
476.41	1548.26
476.61	1599.46
476.81	1632.23
477.01	1515.50
477.21	1619.94
477.42	1621.99
477.62	1529.83
477.82	1554.41
478.02	1511.40
478.23	1568.74
478.43	1550.31
478.63	1529.83
478.83	1519.59
479.03	1568.74
479.24	1605.61
479.44	1640.42
479.64	1535.98
479.84	1454.06
480.04	1527.78
480.25	1632.23
480.45	1431.53
480.65	1523.69
480.85	1609.70
481.06	1591.27
481.26	1533.93
481.46	1556.46
481.66	1585.13
481.86	1533.93
482.06	1658.85
482.27	1554.41
482.47	1587.18
482.67	1589.22
482.87	1482.73
483.07	1628.14
483.28	1497.07
483.48	1468.39
483.68	1480.68
483.88	1486.83
484.08	1449.96
484.29	1480.68
484.49	1538.02
484.69	1495.02
484.89	1611.75
485.09	1560.55
485.29	1521.64
485.50	1581.03
485.70	1503.21
485.90	1593.32
486.10	1521.64
486.30	1593.32
486.50	1650.66
486.71	1519.59
486.91	1574.89
487.11	1613.80
487.31	1521.64
487.51	1548.26
487.71	1513.45
487.91	1497.07
488.12	1538.02
488.32	1525.74
488.52	1480.68
488.72	1462.25
488.92	1517.54
489.12	1583.08
489.32	1621.99
489.53	1583.08
489.73	1437.67
489.93	1615.85
490.13	1488.87
490.33	1484.78
490.53	1531.88
490.73	1671.14
490.94	1449.96
491.14	1576.94
491.34	1658.85
491.54	2090.98
491.74	2578.39
491.94	3053.52
492.14	3301.33
492.34	3237.84
492.54	2875.35
492.75	2480.09
492.95	2428.89
493.15	2230.24
493.35	2185.18
493.55	2123.74
493.75	2168.80
493.95	1970.15
494.15	1931.23
494.35	1820.64
494.56	1748.97
494.76	1632.23
494.96	1679.33
495.16	1624.04
495.36	1558.50
495.56	1548.26
495.76	1533.93
495.96	1535.98
496.16	1478.63
496.36	1613.80
496.56	1540.07
496.77	1542.12
496.97	1544.17
497.17	1714.15
497.37	1456.11
497.57	1630.18
497.77	1535.98
497.97	1480.68
498.17	1548.26
498.37	1544.17
498.57	1605.61
498.77	1515.50
498.97	1615.85
499.17	1593.32
499.38	1574.89
499.58	1589.22
499.78	1533.93
499.98	1648.61
500.18	1617.90
500.38	1538.02
500.58	1816.55
500.78	2590.68
500.98	5093.30
501.18	6557.60
501.38	8177.54
501.58	8664.96
501.78	7880.58
501.98	6127.52
502.18	5300.14
502.38	4689.85
502.58	4210.62
502.78	3897.28
502.98	3731.40
503.18	3633.10
503.38	3397.58
503.59	2990.03
503.79	2758.61
503.99	2463.71
504.19	2291.68
504.39	2156.51
504.59	2062.30
504.79	1984.48
504.99	1908.71
505.19	1726.44
505.39	1689.57
505.59	1869.80
505.79	1759.21
505.99	1681.38
506.19	1574.89
506.39	1742.82
506.59	1585.13
506.79	1593.32
506.99	1642.47
507.19	1564.65
507.39	1587.18
507.59	1576.94
507.79	1484.78
507.99	1505.26
508.19	1581.03
508.39	1499.11
508.59	1527.78
508.79	1617.90
508.99	1624.04
509.19	1509.35
509.39	1626.09
509.59	1562.60
509.79	1525.74
509.99	1544.17
510.19	1632.23
510.39	1626.09
510.59	1587.18
510.79	1576.94
510.99	1462.25
511.19	1554.41
511.39	1611.75
511.59	1624.04
511.79	1546.22
511.99	1550.31
512.19	1648.61
512.38	1607.66
512.58	1505.26
512.78	1597.42
512.98	1617.90
513.18	1546.22
513.38	1460.20
513.58	1583.08
513.78	1517.54
513.98	1529.83
514.18	1492.97
514.38	1552.36
514.58	1587.18
514.78	1495.02
514.98	1486.83
515.18	1480.68
515.38	1531.88
515.58	1587.18
515.78	1515.50
515.98	1578.98
516.18	1521.64
516.38	1492.97
516.57	1433.58
516.77	1544.17
516.97	1568.74
517.17	1587.18
517.37	1503.21
517.57	1507.30
517.77	1505.26
517.97	1470.44
518.17	1576.94
518.37	1540.07
518.57	1558.50
518.77	1587.18
518.97	1538.02
519.16	1615.85
519.36	1550.31
519.56	1525.74
519.76	1482.73
519.96	1583.08
520.16	1671.14
520.36	1556.46
520.56	1617.90
520.76	1513.45
520.96	1509.35
521.16	1595.37
521.35	1587.18
521.55	1619.94
521.75	1519.59
521.95	1525.74
522.15	1626.09
522.35	1501.16
522.55	1542.12
522.75	1484.78
522.95	1492.97
523.14	1492.97
523.34	1574.89
523.54	1570.79
523.74	1552.36
523.94	1624.04
524.14	1460.20
524.34	1605.61
524.54	1585.13
524.73	1574.89
524.93	1583.08
525.13	1540.07
525.33	1505.26
525.53	1683.43
525.73	1495.02
525.93	1558.50
526.13	1460.20
526.32	1495.02
526.52	1630.18
526.72	1548.26
526.92	1503.21
527.12	1507.30
527.32	1560.55
527.52	1626.09
527.71	1523.69
527.91	1570.79
528.11	1570.79
528.31	1552.36
528.51	1484.78
528.71	1574.89
528.90	1542.12
529.10	1615.85
529.30	1642.47
529.50	1482.73
529.70	1552.36
529.90	1472.49
530.09	1560.55
530.29	1587.18
530.49	1509.35
530.69	1626.09
530.89	1525.74
531.09	1615.85
531.28	1542.12
531.48	1626.09
531.68	1564.65
531.88	1513.45
532.08	1583.08
532.28	1609.70
532.47	1587.18
532.67	1589.22
532.87	1517.54
533.07	1566.70
533.27	1601.51
533.46	1556.46
533.66	1585.13
533.86	1566.70
534.06	1562.60
534.26	1599.46
534.45	1583.08
534.65	1626.09
534.85	1611.75
535.05	1568.74
535.25	1552.36
535.44	1492.97
535.64	1474.54
535.84	1634.28
536.04	1554.41
536.24	1533.93
536.43	1615.85
536.63	1632.23
536.83	1462.25
537.03	1542.12
537.22	1411.05
537.42	1486.83
537.62	1560.55
537.82	1576.94
538.02	1585.13
538.21	1658.85
538.41	1683.43
538.61	1609.70
538.81	1544.17
539.00	1658.85
539.20	1492.97
539.40	1478.63
539.60	1601.51
539.79	1619.94
539.99	1546.22
540.19	1464.30
540.39	1517.54
540.58	1542.12
540.78	1562.60
540.98	1621.99
541.18	1624.04
541.37	1636.33
541.57	1550.31
541.77	1570.79
541.97	1544.17
542.16	1466.35
542.36	1533.93
542.56	1544.17
542.76	1589.22
542.95	1535.98
543.15	1576.94
543.35	1568.74
543.54	1538.02
543.74	1554.41
543.94	1710.05
544.14	1517.54
544.33	1505.26
544.53	1497.07
544.73	1495.02
544.93	1525.74
545.12	1503.21
545.32	1480.68
545.52	1525.74
545.71	1495.02
545.91	1550.31
546.11	1531.88
546.30	1470.44
546.50	1585.13
546.70	1613.80
546.90	1509.35
547.09	1497.07
547.29	1501.16
547.49	1599.46
547.68	1562.60
547.88	1466.35
548.08	1495.02
548.27	1886.18
548.47	1552.36
548.67	1583.08
548.87	1484.78
549.06	1454.06
549.26	1583.08
549.46	1501.16
549.65	1546.22
549.85	1535.98
550.05	1591.27
550.24	1478.63
550.44	1478.63
550.64	1540.07
550.83	1505.26
551.03	1572.84
551.23	1550.31
551.42	1525.74
551.62	1552.36
551.82	1499.11
552.01	1507.30
552.21	1613.80
552.41	1574.89
552.60	1572.84
552.80	1525.74
553.00	1492.97
553.19	1560.55
553.39	1593.32
553.59	1486.83
553.78	1499.11
553.98	1538.02
554.17	1452.01
554.37	1585.13
554.57	1566.70
554.76	1507.30
554.96	1519.59
555.16	1550.31
555.35	1492.97
555.55	1583.08
555.75	1542.12
555.94	1538.02
556.14	1447.91
556.33	1478.63
556.53	1568.74
556.73	1527.78
556.92	1517.54
557.12	1597.42
557.32	1705.96
557.51	1607.66
557.71	1585.13
557.90	1626.09
558.10	1619.94
558.30	1454.06
558.49	1558.50
558.69	1509.35
558.88	1552.36
559.08	1644.52
559.28	1437.67
559.47	1574.89
559.67	1589.22
559.86	1599.46
560.06	1511.40
560.26	1558.50
560.45	1556.46
560.65	1566.70
560.84	1560.55
561.04	1535.98
561.24	1560.55
561.43	1507.30
561.63	1687.53
561.82	1556.46
562.02	1650.66
562.22	1462.25
562.41	1572.84
562.61	1515.50
562.80	1538.02
563.00	1679.33
563.19	1476.59
563.39	1560.55
563.59	1566.70
563.78	1507.30
563.98	1482.73
564.17	1497.07
564.37	1443.82
564.56	1509.35
564.76	1456.11
564.96	1585.13
565.15	1593.32
565.35	1603.56
565.54	1585.13
565.74	1624.04
565.93	1603.56
566.13	1529.83
566.32	1513.45
566.52	1609.70
566.71	1605.61
566.91	1644.52
567.11	1609.70
567.30	1562.60
567.50	1595.37
567.69	1624.04
567.89	1570.79
568.08	1540.07
568.28	1613.80
568.47	1556.46
568.67	1583.08
568.86	1535.98
569.06	1599.46
569.25	1517.54
569.45	1538.02
569.64	1513.45
569.84	1533.93
570.04	1593.32
570.23	1601.51
570.43	1472.49
570.62	1591.27
570.82	1626.09
571.01	1560.55
571.21	1535.98
571.40	1472.49
571.60	1603.56
571.79	1574.89
571.99	1607.66
572.18	1535.98
572.38	1644.52
572.57	1482.73
572.77	1550.31
572.96	1615.85
573.16	1589.22
573.35	1566.70
573.55	1609.70
573.74	1624.04
573.94	1517.54
574.13	1495.02
574.33	1587.18
574.52	1615.85
574.71	1591.27
574.91	1630.18
575.10	1583.08
575.30	1525.74
575.49	1538.02
575.69	1515.50
575.88	1599.46
576.08	1583.08
576.27	1685.48
576.47	1665.00
576.66	1728.49
576.86	1759.21
577.05	1581.03
577.25	1538.02
577.44	1605.61
577.64	1527.78
577.83	1535.98
578.02	1546.22
578.22	1560.55
578.41	1578.98
578.61	1574.89
578.80	1521.64
579.00	1609.70
579.19	1611.75
579.39	1595.37
579.58	1650.66
579.77	1546.22
579.97	1640.42
580.16	1677.29
580.36	1611.75
580.55	1581.03
580.75	1689.57
580.94	1613.80
581.13	1679.33
581.33	1677.29
581.52	1591.27
581.72	1673.19
581.91	1732.58
582.11	1607.66
582.30	1650.66
582.49	1619.94
582.69	1628.14
582.88	1675.24
583.08	1570.79
583.27	1675.24
583.47	1619.94
583.66	1626.09
583.85	1499.11
584.05	1558.50
584.24	1593.32
584.44	1634.28
584.63	1744.87
584.82	1724.39
585.02	1763.30
585.21	1751.01
585.41	1769.44
585.60	1679.33
585.79	1839.08
585.99	1839.08
586.18	1775.59
586.37	2009.06
586.57	3151.82
586.76	9660.27
586.96	27440.73
587.15	43576.68
587.34	54293.70
587.54	60685.41
587.73	59196.54
587.93	43093.36
588.12	32185.88
588.31	25521.79
588.51	22128.30
588.70	19533.53
588.89	17977.07
589.09	16889.60
589.28	15132.44
589.47	13188.92
589.67	11208.53
589.86	8836.99
590.06	6662.04
590.25	5058.48
590.44	3674.06
590.64	2930.64
590.83	2369.50
591.02	2156.51
591.22	1882.08
591.41	1751.01
591.60	1691.62
591.80	1763.30
591.99	1599.46
592.18	1677.29
592.38	1673.19
592.57	1605.61
592.76	1648.61
592.96	1552.36
593.15	1613.80
593.34	1669.09
593.54	1648.61
593.73	1605.61
593.92	1632.23
594.12	1558.50
594.31	1675.24
594.50	1650.66
594.70	1667.05
594.89	1796.07
595.08	1540.07
595.28	1581.03
595.47	1814.50
595.66	1642.47
595.86	1511.40
596.05	1605.61
596.24	1572.84
596.43	1677.29
596.63	1654.76
596.82	1634.28
597.01	1669.09
597.21	1656.81
597.40	1607.66
597.59	1570.79
597.79	1621.99
597.98	1525.74
598.17	1591.27
598.36	1568.74
598.56	1591.27
598.75	1488.87
598.94	1531.88
599.14	1576.94
599.33	1587.18
599.52	1599.46
599.71	1515.50
599.91	1552.36
600.10	1624.04
600.29	1546.22
600.48	1568.74
600.68	1601.51
600.87	1509.35
601.06	1538.02
601.26	1578.98
601.45	1554.41
601.64	1509.35
601.83	1560.55
602.03	1581.03
602.22	1574.89
602.41	1619.94
602.60	1689.57
602.80	1605.61
602.99	1662.95
603.18	1583.08
603.37	1560.55
603.57	1544.17
603.76	1632.23
603.95	1601.51
604.14	1464.30
604.34	1546.22
604.53	1595.37
604.72	1544.17
604.91	1611.75
605.10	1572.84
605.30	1501.16
605.49	1628.14
605.68	1591.27
605.87	1658.85
606.07	1566.70
606.26	1644.52
606.45	1556.46
606.64	1681.38
606.84	1583.08
607.03	1556.46
607.22	1578.98
607.41	1552.36
607.60	1517.54
607.80	1517.54
607.99	1546.22
608.18	1556.46
608.37	1523.69
608.56	1562.60
608.76	1615.85
608.95	1617.90
609.14	1597.42
609.33	1597.42
609.52	1726.44
609.72	1705.96
609.91	1671.14
610.10	1535.98
610.29	1642.47
610.48	1597.42
610.68	1619.94
610.87	1519.59
611.06	1560.55
611.25	1601.51
611.44	1589.22
611.63	1538.02
611.83	1624.04
612.02	1521.64
612.21	1568.74
612.40	1497.07
612.59	1486.83
612.79	1492.97
612.98	1501.16
613.17	1587.18
613.36	1574.89
613.55	1628.14
613.74	1603.56
613.93	1703.91
614.13	1716.20
614.32	1767.40
614.51	1740.77
614.70	1642.47
614.89	1648.61
615.08	1667.05
615.28	1929.19
615.47	1564.65
615.66	1660.90
615.85	1595.37
616.04	1638.38
616.23	1636.33
616.42	1587.18
616.62	1621.99
616.81	1599.46
617.00	1546.22
617.19	1572.84
617.38	1503.21
617.57	1581.03
617.76	1576.94
617.95	1568.74
618.15	1568.74
618.34	1689.57
618.53	1507.30
618.72	1501.16
618.91	1601.51
619.10	1609.70
619.29	1624.04
619.48	1583.08
619.68	1542.12
619.87	1480.68
620.06	1427.43
620.25	1560.55
620.44	1515.50
620.63	1513.45
620.82	1599.46
621.01	1624.04
621.20	1609.70
621.39	1630.18
621.59	1605.61
621.78	1574.89
621.97	1570.79
622.16	1558.50
622.35	1603.56
622.54	1507.30
622.73	1576.94
622.92	1525.74
623.11	1525.74
623.30	1542.12
623.49	1648.61
623.68	1525.74
623.88	1632.23
624.07	1517.54
624.26	1519.59
624.45	1599.46
624.64	1505.26
624.83	1538.02
625.02	1538.02
625.21	1593.32
625.40	1429.48
625.59	1615.85
625.78	1558.50
625.97	1640.42
626.16	1632.23
626.35	1593.32
626.54	1607.66
626.74	1648.61
626.93	1617.90
627.12	1615.85
627.31	1638.38
627.50	1617.90
627.69	1611.75
627.88	1470.44
628.07	1513.45
628.26	1466.35
628.45	1486.83
628.64	1566.70
628.83	1523.69
629.02	1525.74
629.21	1617.90
629.40	1566.70
629.59	1533.93
629.78	1550.31
629.97	1609.70
630.16	1656.81
630.35	1671.14
630.54	1558.50
630.73	1517.54
630.92	1509.35
631.11	1544.17
631.30	1621.99
631.49	1527.78
631.68	1519.59
631.87	1550.31
632.06	1470.44
632.25	1734.63
632.44	1548.26
632.63	1533.93
632.82	1609.70
633.01	1636.33
633.20	1609.70
633.39	1621.99
633.58	1556.46
633.77	1685.48
633.96	1542.12
634.15	1646.57
634.34	1640.42
634.53	1585.13
634.72	1574.89
634.91	1519.59
635.10	1566.70
635.29	1615.85
635.48	1540.07
635.67	1591.27
635.86	1476.59
636.05	1624.04
636.24	1542.12
636.43	1605.61
636.62	1542.12
636.81	1454.06
637.00	1535.98
637.19	1542.12
637.38	1576.94
637.57	1501.16
637.76	1591.27
637.95	1550.31
638.14	1556.46
638.33	1583.08
638.52	1566.70
638.71	1560.55
638.89	1535.98
639.08	1730.53
639.27	1699.81
639.46	1595.37
639.65	1955.81
639.84	2023.39
640.03	2142.18
640.22	2133.98
640.41	2213.85
640.60	1957.86
640.79	1896.42
640.98	1740.77
641.17	1796.07
641.36	1708.01
641.55	1687.53
641.74	1597.42
641.92	1621.99
642.11	1556.46
642.30	1607.66
642.49	1527.78
642.68	1558.50
642.87	1540.07
643.06	1585.13
643.25	1535.98
643.44	1523.69
643.63	1511.40
643.82	1558.50
644.00	1546.22
644.19	1589.22
644.38	1513.45
644.57	1576.94
644.76	1525.74
644.95	1535.98
645.14	1503.21
645.33	1525.74
645.52	1519.59
645.71	1509.35
645.89	1454.06
646.08	1533.93
646.27	1439.72
646.46	1656.81
646.65	1556.46
646.84	1585.13
647.03	1499.11
647.22	1624.04
647.40	1503.21
647.59	1464.30
647.78	1447.91
647.97	1478.63
648.16	1548.26
648.35	1615.85
648.54	1636.33
648.73	1511.40
648.91	1607.66
649.10	1527.78
649.29	1564.65
649.48	1527.78
649.67	1482.73
649.86	1542.12
650.05	1476.59
650.23	1644.52
650.42	1617.90
650.61	1738.73
650.80	1779.68
650.99	1800.16
651.18	1613.80
651.36	1710.05
651.55	1574.89
651.74	1601.51
651.93	1636.33
652.12	1576.94
652.31	1576.94
652.49	1542.12
652.68	1564.65
652.87	1634.28
653.06	1609.70
653.25	1591.27
653.44	1554.41
653.62	1656.81
653.81	1638.38
654.00	1562.60
654.19	1554.41
654.38	1630.18
654.56	1538.02
654.75	1589.22
654.94	1621.99
655.13	1574.89
655.32	1548.26
655.51	1613.80
655.69	1495.02
655.88	1484.78
656.07	1509.35
656.26	1585.13
656.45	1568.74
656.63	1576.94
656.82	1605.61
657.01	1554.41
657.20	1466.35
657.38	1648.61
657.57	1527.78
657.76	1458.15
657.95	1574.89
658.14	1560.55
658.32	1570.79
658.51	1476.59
658.70	1628.14
658.89	1486.83
659.08	1484.78
659.26	1648.61
659.45	1460.20
659.64	1593.32
659.83	1505.26
660.01	1816.55
660.20	1591.27
660.39	1679.33
660.58	1517.54
660.76	1634.28
660.95	1542.12
661.14	1576.94
661.33	1425.39
661.51	1507.30
661.70	1544.17
661.89	1589.22
662.08	1583.08
662.26	1607.66
662.45	1550.31
662.64	1585.13
662.83	1634.28
663.01	1505.26
663.20	1492.97
663.39	1585.13
663.58	1513.45
663.76	1527.78
663.95	1497.07
664.14	1478.63
664.32	1583.08
664.51	1505.26
664.70	1454.06
664.89	1652.71
665.07	1503.21
665.26	1624.04
665.45	1488.87
665.64	1656.81
665.82	1617.90
666.01	1638.38
666.20	1525.74
666.38	1615.85
666.57	1624.04
666.76	1732.58
666.95	2940.88
667.13	7552.91
667.32	15492.88
667.51	20252.36
667.69	23543.45
667.88	25026.18
668.07	22011.57
668.25	15529.75
668.44	12234.57
668.63	10033.00
668.81	8691.58
669.00	7616.40
669.19	6952.85
669.38	6254.50
669.56	5615.53
669.75	4716.47
669.94	4052.93
670.12	3411.92
670.31	2750.42
670.50	2469.85
670.68	2086.88
670.87	1916.90
671.06	1814.50
671.24	1742.82
671.43	1724.39
671.62	1673.19
671.80	1630.18
671.99	1677.29
672.18	1613.80
672.36	1615.85
672.55	1593.32
672.74	1599.46
672.92	1574.89
673.11	1585.13
673.29	1511.40
673.48	1533.93
673.67	1540.07
673.85	1624.04
674.04	1568.74
674.23	1560.55
674.41	1646.57
674.60	1509.35
674.79	1521.64
674.97	1443.82
675.16	1515.50
675.34	1619.94
675.53	1529.83
675.72	1554.41
675.90	1642.47
676.09	1566.70
676.28	1486.83
676.46	1499.11
676.65	1581.03
676.83	1484.78
677.02	1599.46
677.21	1632.23
677.39	1554.41
677.58	1542.12
677.77	1527.78
677.95	1511.40
678.14	1533.93
678.32	1662.95
678.51	1552.36
678.70	1611.75
678.88	1472.49
679.07	1548.26
679.25	1587.18
679.44	1572.84
679.63	1482.73
679.81	1570.79
680.00	1607.66
680.18	1562.60
680.37	1533.93
680.55	1591.27
680.74	1474.54
680.93	1462.25
681.11	1513.45
681.30	1472.49
681.48	1531.88
681.67	1443.82
681.85	1523.69
682.04	1488.87
682.23	1603.56
682.41	1525.74
682.60	1492.97
682.78	1593.32
682.97	1449.96
683.15	1488.87
683.34	1527.78
683.53	1656.81
683.71	1486.83
683.90	1644.52
684.08	1589.22
684.27	1597.42
684.45	1501.16
684.64	1615.85
684.82	1431.53
685.01	1507.30
685.19	1585.13
685.38	1581.03
685.57	1562.60
685.75	1486.83
685.94	1478.63
686.12	1525.74
686.31	1564.65
686.49	1568.74
686.68	1433.58
686.86	1646.57
687.05	1546.22
687.23	1611.75
687.42	1511.40
687.60	1501.16
687.79	1601.51
687.97	1566.70
688.16	1576.94
688.34	1628.14
688.53	1468.39
688.71	1521.64
688.90	1617.90
689.08	1509.35
689.27	1394.67
689.45	1593.32
689.64	1593.32
689.82	1556.46
690.01	1535.98
690.19	1599.46
690.38	1560.55
690.56	1583.08
690.75	1476.59
690.93	1519.59
691.12	1492.97
691.30	1527.78
691.49	1527.78
691.67	1505.26
691.86	1642.47
692.04	1554.41
692.23	1607.66
692.41	1599.46
692.60	1636.33
692.78	1736.68
692.97	1691.62
693.15	1656.81
693.34	1650.66
693.52	1599.46
693.71	1587.18
693.89	1587.18
694.08	1564.65
694.26	1615.85
694.44	1535.98
694.63	1624.04
694.81	1527.78
695.00	1499.11
695.18	1468.39
695.37	1583.08
695.55	1515.50
695.74	1511.40
695.92	1472.49
696.10	1591.27
696.29	1386.47
696.47	1599.46
696.66	1509.35
696.84	1417.19
697.03	1605.61
697.21	1652.71
697.40	2009.06
697.58	1587.18
697.76	1517.54
697.95	1529.83
698.13	1529.83
698.32	1482.73
698.50	1525.74
698.68	1583.08
698.87	1615.85
699.05	1617.90
699.24	1509.35
699.42	1484.78
699.61	1468.39
699.79	1538.02
699.97	1574.89
700.16	1583.08
700.34	1456.11
700.53	1544.17
700.71	1617.90
700.89	1593.32
701.08	1538.02
701.26	1531.88
701.45	1964.00
701.63	1509.35
701.81	1499.11
702.00	1572.84
702.18	1574.89
702.37	1525.74
702.55	1650.66
702.73	1675.24
702.92	1742.82
703.10	1763.30
703.28	1791.97
703.47	1716.20
703.65	1732.58
703.84	1699.81
704.02	1650.66
704.20	1714.15
704.39	1525.74
704.57	1705.96
704.75	1601.51
704.94	1566.70
705.12	1630.18
705.30	1652.71
705.49	1845.22
705.67	2869.20
705.86	7364.50
706.04	14429.99
706.22	18568.93
706.41	21364.41
706.59	22984.35
706.77	21034.69
706.96	14610.21
707.14	11720.53
707.32	9701.23
707.51	8691.58
707.69	7319.44
707.87	6760.34
708.06	5738.41
708.24	4667.32
708.42	3680.20
708.61	2910.16
708.79	2269.15
708.97	2099.17
709.16	1839.08
709.34	1722.34
709.52	1693.67
709.71	1652.71
709.89	1681.38
710.07	1578.98
710.26	1478.63
710.44	1626.09
710.62	1687.53
710.80	1558.50
710.99	1607.66
711.17	1574.89
711.35	1501.16
711.54	1495.02
711.72	1648.61
711.90	1560.55
712.09	1605.61
712.27	1544.17
712.45	1542.12
712.63	1425.39
712.82	1564.65
713.00	1568.74
713.18	1624.04
713.37	1619.94
713.55	1581.03
713.73	1589.22
713.91	1570.79
714.10	1517.54
714.28	1587.18
714.46	1542.12
714.65	1486.83
714.83	1658.85
715.01	1544.17
715.19	1505.26
715.38	1581.03
715.56	1607.66
715.74	1501.16
715.92	1505.26
716.11	1576.94
716.29	1513.45
716.47	1497.07
716.65	1533.93
716.84	1533.93
717.02	1619.94
717.20	1583.08
717.38	1529.83
717.57	1513.45
717.75	1562.60
717.93	1517.54
718.11	1525.74
718.30	1484.78
718.48	1578.98
718.66	1587.18
718.84	1558.50
719.03	1507.30
719.21	1478.63
719.39	1583.08
719.57	1562.60
719.75	1544.17
719.94	1507.30
720.12	1519.59
720.30	1615.85
720.48	1558.50
720.67	1507.30
720.85	1529.83
721.03	1564.65
721.21	1529.83
721.39	1585.13
721.58	1603.56
721.76	1525.74
721.94	1568.74
722.12	1591.27
722.30	1599.46
722.49	1533.93
722.67	1527.78
722.85	1554.41
723.03	1460.20
723.21	1523.69
723.40	1572.84
723.58	1531.88
723.76	1595.37
723.94	1648.61
724.12	1576.94
724.30	1652.71
724.49	1626.09
724.67	1492.97
724.85	1724.39
725.03	1562.60
725.21	1662.95
725.40	1611.75
725.58	1585.13
725.76	1615.85
725.94	1599.46
726.12	1499.11
726.30	1574.89
726.49	1521.64
726.67	1464.30
726.85	1544.17
727.03	1535.98
727.21	1755.11
727.39	2095.07
727.57	3360.72
727.76	4284.35
727.94	4745.14
728.12	5060.53
728.30	5042.10
728.48	4259.78
728.66	3475.40
728.84	3129.30
729.03	2830.29
729.21	2562.01
729.39	2263.01
729.57	1951.71
729.75	1812.45
729.93	1781.73
730.11	1675.24
730.30	1601.51
730.48	1552.36
730.66	1640.42
730.84	1542.12
731.02	1515.50
731.20	1556.46
731.38	1542.12
731.56	1484.78
731.74	1460.20
731.93	1443.82
732.11	1474.54
732.29	1486.83
732.47	1525.74
732.65	1523.69
732.83	1538.02
733.01	1562.60
733.19	1513.45
733.37	1517.54
733.56	1568.74
733.74	1581.03
733.92	1621.99
734.10	1490.92
734.28	1535.98
734.46	1519.59
734.64	1513.45
734.82	1542.12
735.00	1505.26
735.18	1488.87
735.36	1554.41
735.54	1593.32
735.73	1511.40
735.91	1611.75
736.09	1574.89
736.27	1486.83
736.45	1578.98
736.63	1411.05
736.81	1495.02
736.99	1556.46
737.17	1595.37
737.35	1468.39
737.53	1552.36
737.71	1578.98
737.89	1515.50
738.07	1509.35
738.25	1476.59
738.43	1380.33
738.61	1505.26
738.80	1464.30
738.98	1517.54
739.16	1492.97
739.34	1482.73
739.52	1574.89
739.70	1562.60
739.88	1523.69
740.06	1603.56
740.24	1366.00
740.42	1587.18
740.60	1468.39
740.78	1497.07
740.96	1429.48
741.14	1513.45
741.32	1542.12
741.50	1439.72
741.68	1652.71
741.86	1585.13
742.04	1538.02
742.22	1503.21
742.40	1525.74
742.58	1560.55
742.76	1505.26
742.94	1497.07
743.12	1521.64
743.30	1480.68
743.48	1656.81
743.66	1521.64
743.84	1681.38
744.02	1503.21
744.20	1568.74
744.38	1470.44
744.56	1501.16
744.74	1583.08
744.92	1497.07
745.10	1640.42
745.28	1677.29
745.46	1636.33
745.64	1587.18
745.82	1609.70
746.00	1552.36
746.18	1495.02
746.36	1472.49
746.54	1589.22
746.72	1456.11
746.90	1507.30
747.08	1556.46
747.26	1599.46
747.44	1576.94
747.62	1533.93
747.80	1548.26
747.98	1523.69
748.15	1560.55
748.33	1568.74
748.51	1574.89
748.69	1615.85
748.87	1544.17
749.05	1546.22
749.23	1558.50
749.41	1613.80
749.59	1515.50
749.77	1601.51
749.95	1521.64
750.13	1452.01
750.31	1578.98
750.49	1540.07
750.67	1517.54
750.85	1708.01
751.03	1601.51
751.20	1630.18
751.38	1585.13
751.56	1499.11
751.74	1558.50
751.92	1511.40
752.10	1503.21
752.28	1560.55
752.46	1558.50
752.64	1562.60
752.82	1497.07
753.00	1605.61
753.18	1527.78
753.35	1566.70
753.53	1562.60
753.71	1595.37
753.89	1550.31
754.07	1533.93
754.25	1589.22
754.43	1544.17
754.61	1490.92
754.79	1554.41
754.97	1566.70
755.14	1519.59
755.32	1488.87
755.50	1509.35
755.68	1517.54
755.86	1505.26
756.04	1525.74
756.22	1421.29
756.40	1488.87
756.57	1638.38
756.75	1566.70
756.93	1540.07
757.11	1542.12
757.29	1468.39
757.47	1544.17
757.65	1437.67
757.82	1318.89
758.00	1552.36
758.18	1574.89
758.36	1515.50
758.54	1585.13
758.72	1499.11
758.90	1535.98
759.07	1480.68
759.25	1591.27
759.43	1589.22
759.61	1527.78
759.79	1918.95
759.97	1585.13
760.15	1542.12
760.32	1517.54
760.50	1546.22
760.68	1593.32
760.86	1535.98
761.04	1578.98
761.22	1540.07
761.39	1576.94
761.57	1492.97
761.75	1574.89
761.93	1540.07
762.11	1538.02
762.28	1570.79
762.46	1509.35
762.64	1636.33
762.82	1501.16
763.00	1472.49
763.18	1566.70
763.35	1472.49
763.53	1523.69
763.71	1540.07
763.89	1480.68
764.07	1535.98
764.24	1525.74
764.42	1544.17
764.60	1488.87
764.78	1468.39
764.96	1624.04
765.13	1611.75
765.31	1570.79
765.49	1527.78
765.67	1452.01
765.84	1478.63
766.02	1601.51
766.20	1452.01
766.38	1568.74
766.56	1505.26
766.73	1523.69
766.91	1578.98
767.09	1531.88
767.27	1548.26
767.44	1525.74
767.62	1562.60
767.80	1554.41
767.98	1576.94
768.15	1566.70
768.33	1538.02
768.51	1648.61
768.69	1533.93
768.87	1566.70
769.04	1550.31
769.22	1640.42
769.40	1671.14
769.58	1597.42
769.75	1626.09
769.93	1566.70
770.11	1570.79
770.28	1574.89
770.46	1585.13
770.64	1519.59
770.82	1470.44
770.99	1535.98
771.17	1572.84
771.35	1570.79
771.53	1515.50
771.70	1581.03
771.88	1474.54
772.06	1548.26
772.23	1482.73
772.41	1507.30
772.59	1482.73
772.77	1513.45
772.94	1449.96
773.12	1546.22
773.30	1525.74
773.47	1484.78
773.65	1478.63
773.83	1550.31
774.01	1560.55
774.18	1513.45
774.36	1505.26
774.54	1503.21
774.71	1531.88
774.89	1480.68
775.07	1484.78
775.24	1519.59
775.42	1544.17
775.60	1638.38
775.78	1497.07
775.95	1495.02
776.13	1462.25
776.31	1437.67
776.48	1546.22
776.66	1548.26
776.84	1495.02
777.01	1429.48
777.19	1542.12
777.37	1523.69
777.54	1564.65
777.72	1585.13
777.90	1503.21
778.07	1472.49
778.25	1718.25
778.43	1597.42
778.60	1538.02
778.78	1576.94
778.96	1550.31
779.13	1542.12
779.31	1517.54
779.49	1492.97
779.66	1572.84
779.84	1564.65
780.01	1519.59
780.19	1490.92
780.37	1572.84
780.54	1583.08
780.72	1558.50
780.90	1576.94
781.07	1398.76
781.25	1419.24
781.43	1636.33
781.60	1511.40
781.78	1640.42
781.95	1482.73
782.13	1554.41
782.31	1533.93
782.48	1462.25
782.66	1587.18
782.83	1656.81
783.01	1492.97
783.19	1603.56
783.36	1603.56
783.54	1421.29
783.72	1535.98
783.89	1466.35
784.07	1568.74
784.24	1591.27
784.42	1632.23
784.60	1548.26
784.77	1624.04
784.95	1441.77
785.12	1470.44
785.30	1527.78
785.47	1476.59
785.65	1515.50
785.83	1550.31
786.00	1521.64
786.18	1576.94
786.35	1470.44
786.53	1492.97
786.71	1548.26
786.88	1591.27
787.06	1581.03
787.23	1585.13
787.41	1484.78
787.58	1581.03
787.76	1519.59
787.94	1599.46
788.11	1593.32
788.29	1468.39
788.46	1458.15
788.64	1509.35
788.81	1581.03
788.99	1531.88
789.16	1490.92
789.34	1488.87
789.52	1587.18
789.69	1517.54
789.87	1497.07
790.04	1521.64
790.22	1511.40
790.39	1593.32
790.57	1431.53
790.74	1531.88
790.92	1533.93
791.09	1445.87
791.27	1546.22
791.44	1556.46
791.62	1572.84
791.79	1597.42
791.97	1523.69
792.15	1654.76
792.32	1581.03
792.50	1576.94
792.67	1642.47
792.85	1548.26
793.02	1583.08
793.20	1527.78
793.37	1488.87
793.55	1554.41
793.72	1517.54
793.90	1484.78
794.07	1468.39
794.25	1550.31
794.42	1480.68
794.60	1542.12
794.77	1556.46
794.95	1607.66
795.12	1574.89
795.30	1568.74
795.47	1392.62
795.65	1681.38
795.82	1538.02
796.00	1427.43
796.17	1527.78
796.34	1525.74
796.52	1517.54
796.69	1574.89
796.87	1581.03
797.04	1574.89
797.22	1589.22
797.39	1607.66
797.57	1624.04
797.74	1548.26
797.92	1591.27
798.09	1501.16
798.27	1546.22
798.44	1544.17
798.62	1529.83
798.79	1574.89
798.96	1556.46
799.14	1558.50
799.31	1624.04
799.49	1533.93
799.66	1578.98
799.84	1519.59
800.01	1464.30
800.19	1560.55
800.36	1533.93
800.53	1556.46
800.71	1562.60
800.88	1632.23
801.06	1542.12
801.23	1501.16
801.41	1499.11
801.58	1550.31
801.75	1458.15
801.93	1599.46
802.10	1587.18
802.28	1552.36
802.45	1460.20
802.63	1554.41
802.80	1624.04
802.97	1615.85
803.15	1474.54
803.32	1544.17
803.50	1523.69
803.67	1529.83
803.84	1452.01
804.02	1593.32
804.19	1435.63
804.37	1404.91
804.54	1472.49
804.71	1542.12
804.89	1507.30
805.06	1484.78
805.24	1533.93
805.41	1509.35
805.58	1574.89
805.76	1683.43
805.93	1535.98
806.10	1642.47
806.28	1642.47
806.45	1581.03
806.63	1550.31
806.80	1468.39
806.97	1591.27
807.15	1566.70
807.32	1562.60
807.49	1566.70
807.67	1533.93
807.84	1560.55
808.01	1507.30
808.19	1613.80
808.36	1607.66
808.54	1421.29
808.71	1552.36
808.88	1529.83
809.06	1654.76
809.23	1650.66
809.40	1497.07
809.58	1589.22
809.75	1454.06
809.92	1523.69
810.10	1605.61
810.27	1562.60
810.44	1572.84
810.62	1542.12
810.79	1556.46
810.96	1495.02
811.14	1497.07
811.31	1482.73
811.48	1558.50
811.66	1511.40
811.83	1644.52
812.00	1570.79
812.18	1562.60
812.35	1574.89
812.52	1513.45
812.69	1503.21
812.87	1560.55
813.04	1466.35
813.21	1564.65
813.39	1417.19
813.56	1435.63
813.73	1570.79
813.91	1466.35
814.08	1558.50
814.25	1519.59
814.42	1476.59
814.60	1570.79
814.77	1490.92
814.94	1538.02
815.12	1529.83
815.29	1535.98
815.46	1564.65
815.63	1501.16
815.81	1535.98
815.98	1486.83
816.15	1495.02
816.33	1437.67
816.50	1499.11
816.67	1517.54
816.84	1552.36
817.02	1484.78
817.19	1513.45
817.36	1523.69
817.53	1568.74
817.71	1505.26
817.88	1495.02
818.05	1474.54
818.22	1523.69
818.40	1593.32
818.57	1449.96
818.74	1570.79
818.91	1570.79
819.09	1488.87
819.26	1527.78
819.43	1517.54
819.60	1525.74
819.78	1501.16
819.95	1581.03
820.12	1486.83
820.29	1525.74
820.47	1533.93
820.64	1468.39
820.81	1478.63
820.98	1468.39
821.15	1478.63
821.33	1585.13
821.50	1400.81
821.67	1568.74
821.84	1546.22
822.02	1609.70
822.19	1615.85
822.36	1535.98
822.53	1474.54
822.70	1413.10
822.88	1525.74
823.05	1574.89
823.22	1552.36
823.39	1540.07
823.56	1540.07
823.74	1611.75
823.91	1521.64
824.08	1564.65
824.25	1523.69
824.42	1560.55
824.60	1470.44
824.77	1591.27
824.94	1503.21
825.11	1501.16
825.28	1441.77
825.45	1476.59
825.63	1505.26
825.80	1542.12
825.97	1505.26
826.14	1439.72
826.31	1531.88
826.48	1578.98
826.66	1492.97
826.83	1470.44
827.00	1538.02
827.17	1529.83
827.34	1550.31
827.51	1517.54
827.69	1529.83
827.86	1486.83
828.03	1517.54
828.20	1554.41
828.37	1548.26
828.54	1505.26
828.71	1464.30
828.89	1593.32
829.06	1558.50
829.23	1619.94
829.40	1515.50
829.57	1484.78
829.74	1574.89
829.91	1478.63
830.09	1572.84
830.26	1501.16
830.43	1607.66
830.60	1599.46
830.77	1531.88
830.94	1550.31
831.11	1619.94
831.28	1542.12
831.46	1542.12
831.63	1589.22
831.80	1505.26
831.97	1538.02
832.14	1398.76
832.31	1566.70
832.48	1519.59
832.65	1554.41
832.82	1599.46
832.99	1609.70
833.17	1511.40
833.34	1599.46
833.51	1572.84
833.68	1476.59
833.85	1560.55
834.02	1466.35
834.19	1486.83
834.36	1437.67
834.53	1552.36
834.70	1527.78
834.87	1540.07
835.04	1495.02
835.22	1480.68
835.39	1556.46
835.56	1478.63
835.73	1507.30
835.90	1552.36
836.07	1460.20
836.24	1517.54
836.41	1490.92
836.58	1425.39
836.75	1615.85
836.92	1542.12
837.09	1576.94
837.26	1581.03
837.43	1511.40
837.60	1542.12
837.77	1548.26
837.94	1595.37
838.12	1581.03
838.29	1648.61
838.46	1490.92
838.63	1452.01
838.80	1677.29
838.97	1609.70
839.14	1558.50
839.31	1595.37
839.48	1497.07
839.65	1591.27
839.82	1533.93
839.99	1501.16
840.16	1583.08
840.33	1492.97
840.50	1617.90
840.67	1497.07
840.84	1431.53
841.01	1578.98
841.18	1517.54
841.35	1468.39
841.52	1548.26
841.69	1587.18
841.86	1568.74
842.03	1542.12
842.20	1564.65
842.37	1556.46
842.54	1527.78
842.71	1525.74
842.88	1523.69
843.05	1568.74
843.22	1476.59
843.39	1609.70
843.56	1452.01
843.73	1447.91
843.90	1548.26
844.07	1476.59
844.24	1492.97
844.41	1554.41
844.58	1566.70
844.75	1533.93
844.92	1566.70
845.09	1484.78
845.26	1521.64
845.43	1665.00
845.60	1488.87
845.77	1497.07
845.94	1601.51
846.10	1566.70
846.27	1501.16
846.44	1462.25
846.61	1460.20
846.78	1538.02
846.95	1525.74
847.12	1521.64
847.29	1611.75
847.46	1492.97
847.63	1599.46
847.80	1503.21
847.97	1544.17
848.14	1585.13
848.31	1574.89
848.48	1445.87
848.65	1595.37
848.82	1480.68
848.98	1617.90
849.15	1497.07
849.32	1583.08
849.49	1472.49
849.66	1578.98
849.83	1533.93
850.00	1533.93
850.17	1603.56
850.34	1519.59
850.51	1468.39
850.68	1470.44
850.85	1701.86
851.01	1591.27
851.18	1585.13
851.35	1564.65
851.52	1538.02
851.69	1554.41
851.86	1406.95
852.03	1546.22
852.20	1517.54
852.37	1552.36
852.53	1476.59
852.70	1542.12
852.87	1578.98
853.04	1558.50
853.21	1535.98
853.38	1628.14
853.55	1558.50
853.72	1654.76
853.89	1544.17
854.05	1523.69
854.22	1513.45
854.39	1517.54
854.56	1578.98
854.73	1583.08
854.90	1572.84
855.07	1552.36
855.23	1505.26
855.40	1574.89
855.57	1615.85
855.74	1486.83
855.91	1736.68
856.08	1441.77
856.25	1503.21
856.41	1538.02
856.58	1449.96
856.75	1509.35
856.92	1486.83
857.09	1538.02
857.26	1533.93
857.42	1554.41
857.59	1554.41
857.76	1486.83
857.93	1581.03
858.10	1529.83
858.27	1519.59
858.43	1558.50
858.60	1501.16
858.77	1431.53
858.94	1525.74
859.11	1597.42
859.27	1480.68
859.44	1581.03
859.61	1513.45
859.78	1517.54
859.95	1513.45
860.12	1503.21
860.28	1611.75
860.45	1624.04
860.62	1566.70
860.79	1529.83
860.95	1499.11
861.12	1478.63
861.29	1527.78
861.46	1492.97
861.63	1425.39
861.79	1523.69
861.96	1466.35
862.13	1521.64
862.30	1599.46
862.47	1529.83
862.63	1492.97
862.80	1581.03
862.97	1513.45
863.14	1529.83
863.30	1472.49
863.47	1548.26
863.64	1624.04
863.81	1628.14
863.97	1581.03
864.14	1527.78
864.31	1527.78
864.48	1554.41
864.65	1552.36
864.81	1511.40
864.98	1550.31
865.15	1497.07
865.32	1603.56
865.48	1632.23
865.65	1603.56
865.82	1527.78
865.98	1585.13
866.15	1675.24
866.32	1488.87
866.49	1458.15
866.65	1621.99
866.82	1511.40
866.99	1548.26
867.16	1523.69
867.32	1464.30
867.49	1542.12
867.66	1595.37
867.83	1527.78
867.99	1443.82
868.16	1486.83
868.33	1544.17
868.49	1542.12
868.66	1621.99
868.83	1556.46
868.99	1492.97
869.16	1533.93
869.33	1583.08
869.50	1621.99
869.66	1558.50
869.83	1560.55
870.00	1429.48
870.16	1548.26
870.33	1497.07
870.50	1548.26
870.66	1544.17
870.83	1712.10
871.00	1544.17
871.17	1499.11
871.33	1626.09
871.50	1470.44
871.67	1540.07
871.83	1495.02
872.00	1654.76
872.17	1593.32
872.33	1570.79
872.50	1656.81
872.67	1585.13
872.83	1560.55
873.00	1509.35
873.17	1554.41
873.33	1562.60
873.50	1535.98
873.67	1505.26
873.83	1570.79
874.00	1550.31
874.16	1634.28
874.33	1544.17
874.50	1554.41
874.66	1615.85
874.83	1640.42
875.00	1646.57
875.16	1535.98
875.33	1603.56
875.50	1437.67
875.66	1486.83
875.83	1517.54
875.99	1562.60
876.16	1523.69
876.33	1449.96
876.49	1480.68
876.66	1550.31
876.83	1503.21
876.99	1484.78
877.16	1562.60
877.32	1603.56
877.49	1495.02
877.66	1517.54
877.82	1570.79
877.99	1540.07
878.15	1585.13
878.32	1591.27
878.49	1568.74
878.65	1566.70
878.82	1601.51
878.98	1449.96
879.15	1570.79
879.32	1599.46
879.48	1578.98
879.65	1495.02
879.81	1509.35
879.98	1509.35
880.15	1484.78
880.31	1558.50
880.48	1560.55
880.64	1634.28
880.81	1560.55
880.97	1654.76
881.14	1624.04
881.31	1505.26
881.47	1679.33
881.64	1470.44
881.80	1398.76
881.97	1566.70
882.13	1585.13
882.30	1472.49
882.47	1552.36
882.63	1519.59
882.80	1527.78
882.96	1519.59
883.13	1650.66
883.29	1472.49
883.46	1576.94
883.62	1511.40
883.79	1511.40
883.95	1554.41
884.12	1544.17
884.29	1597.42
884.45	1593.32
884.62	1527.78
884.78	1527.78
884.95	1630.18
885.11	1482.73
885.28	1546.22
885.44	1501.16
885.61	1556.46
885.77	1585.13
885.94	1495.02
886.10	1521.64
886.27	1523.69
886.43	1558.50
886.60	1570.79
886.76	1531.88
886.93	1513.45
887.09	1544.17
887.26	1501.16
887.42	1503.21
887.59	1591.27
887.75	1595.37
887.92	1562.60
888.08	1533.93
888.25	1720.29
888.41	1566.70
888.58	1533.93
888.74	1423.34
888.91	1513.45
>>>>>End Processed Spectral Data<<<<<
