SpectraSuite Data File
++++++++++++++++++++++++++++++++++++
Date: Thu May 05 13:21:26 CEST 2016
User: root
Dark Spectrum Present: No
Reference Spectrum Present: No
Number of Sampled Component Spectra: 1
Spectrometers: USB4C02835
Integration Time (usec): 100000 (USB4C02835)
Spectra Averaged: 1 (USB4C02835)
Boxcar Smoothing: 0 (USB4C02835)
Correct for Electrical Dark: No (USB4C02835)
Strobe/Lamp Enabled: No (USB4C02835)
Correct for Detector Non-linearity: No (USB4C02835)
Correct for Stray Light: No (USB4C02835)
Number of Pixels in Processed Spectrum: 3648
>>>>>Begin Processed Spectral Data<<<<<
177.47	1810.40
177.69	1810.40
177.91	1810.40
178.13	1757.16
178.36	1753.06
178.58	2144.22
178.80	2213.85
179.02	2043.87
179.24	2164.70
179.46	2195.42
179.68	2254.81
179.90	2224.09
180.13	2201.57
180.35	2146.27
180.57	2174.94
180.79	2424.80
181.01	2277.34
181.23	2228.19
181.45	2299.87
181.67	2271.20
181.90	2320.35
182.12	2129.89
182.34	2084.83
182.56	2299.87
182.78	2303.96
183.00	2138.08
183.22	2260.96
183.44	2068.45
183.66	2549.72
183.89	2279.39
184.11	2224.09
184.33	2291.68
184.55	2404.32
184.77	2183.13
184.99	2203.61
185.21	2199.52
185.43	2519.00
185.65	2131.94
185.87	2189.28
186.10	2512.86
186.32	2504.67
186.54	2211.81
186.76	2301.92
186.98	2279.39
187.20	2248.67
187.42	2213.85
187.64	2228.19
187.86	2277.34
188.08	2371.55
188.30	2187.23
188.52	2234.33
188.75	2392.03
188.97	2310.11
189.19	2138.08
189.41	2117.60
189.63	2334.68
189.85	2193.37
190.07	2039.78
190.29	2052.06
190.51	2281.44
190.73	2162.66
190.95	2291.68
191.17	2179.04
191.39	2080.74
191.61	2267.10
191.84	2109.41
192.06	2226.14
192.28	2076.64
192.50	2629.59
192.72	2197.47
192.94	2176.99
193.16	2324.44
193.38	2283.49
193.60	2064.35
193.82	2150.37
194.04	2340.83
194.26	2312.16
194.48	2193.37
194.70	2226.14
194.92	2150.37
195.14	2310.11
195.36	2185.18
195.58	2252.77
195.80	2267.10
196.02	2162.66
196.24	2158.56
196.46	2258.91
196.69	2228.19
196.91	2523.10
197.13	2088.93
197.35	2133.98
197.57	2428.89
197.79	2330.59
198.01	2170.85
198.23	2207.71
198.45	2250.72
198.67	2107.36
198.89	2084.83
199.11	2263.01
199.33	2113.50
199.55	2086.88
199.77	2140.13
199.99	2342.88
200.21	2267.10
200.43	2213.85
200.65	2064.35
200.87	2068.45
201.09	2179.04
201.31	2160.61
201.53	2293.72
201.75	2299.87
201.97	2275.29
202.19	2213.85
202.41	2136.03
202.63	2301.92
202.85	2346.97
203.07	2310.11
203.29	2127.84
203.51	2080.74
203.73	2185.18
203.95	2473.95
204.17	2279.39
204.39	2195.42
204.61	2291.68
204.83	2312.16
205.05	2342.88
205.27	2269.15
205.49	2465.75
205.71	2230.24
205.93	2211.81
206.15	2172.89
206.37	2269.15
206.59	2254.81
206.81	2154.46
207.03	2168.80
207.25	2170.85
207.47	2283.49
207.69	2185.18
207.91	2387.93
208.13	2385.88
208.34	2222.05
208.56	2174.94
208.78	2248.67
209.00	2269.15
209.22	2201.57
209.44	2193.37
209.66	2088.93
209.88	2240.48
210.10	2209.76
210.32	2162.66
210.54	2281.44
210.76	2224.09
210.98	2334.68
211.20	2007.01
211.42	2215.90
211.64	2400.22
211.86	2285.53
212.08	2217.95
212.30	2226.14
212.52	2244.57
212.74	2271.20
212.96	2174.94
213.17	2281.44
213.39	2371.55
213.61	2471.90
213.83	2148.32
214.05	2228.19
214.27	2410.46
214.49	2168.80
214.71	2054.11
214.93	2291.68
215.15	2244.57
215.37	2314.20
215.59	2119.65
215.81	2236.38
216.03	2363.36
216.24	2222.05
216.46	2162.66
216.68	2176.99
216.90	2318.30
217.12	2342.88
217.34	2179.04
217.56	2295.77
217.78	2355.16
218.00	2342.88
218.22	2258.91
218.44	2213.85
218.66	2306.01
218.87	2439.13
219.09	2207.71
219.31	2226.14
219.53	2301.92
219.75	2228.19
219.97	2248.67
220.19	2226.14
220.41	2316.25
220.63	2445.27
220.85	2222.05
221.06	2148.32
221.28	2410.46
221.50	2316.25
221.72	2123.74
221.94	2125.79
222.16	2248.67
222.38	2332.64
222.60	2267.10
222.82	2174.94
223.03	2365.40
223.25	2176.99
223.47	2129.89
223.69	2357.21
223.91	2340.83
224.13	2240.48
224.35	2146.27
224.57	2283.49
224.78	2244.57
225.00	2275.29
225.22	2154.46
225.44	2191.33
225.66	2353.12
225.88	2170.85
226.10	2252.77
226.32	2244.57
226.53	2473.95
226.75	2187.23
226.97	2203.61
227.19	2215.90
227.41	2158.56
227.63	2273.25
227.85	2113.50
228.06	2189.28
228.28	2301.92
228.50	2344.92
228.72	2060.26
228.94	2189.28
229.16	2138.08
229.37	2166.75
229.59	2125.79
229.81	2340.83
230.03	2301.92
230.25	2113.50
230.47	2109.41
230.69	2068.45
230.90	2267.10
231.12	2179.04
231.34	2203.61
231.56	2220.00
231.78	2099.17
232.00	2209.76
232.21	2138.08
232.43	2148.32
232.65	2082.78
232.87	2363.36
233.09	2127.84
233.30	2185.18
233.52	2320.35
233.74	2336.73
233.96	2179.04
234.18	2285.53
234.40	2246.62
234.61	2447.32
234.83	2088.93
235.05	2105.31
235.27	2514.91
235.49	2430.94
235.70	2117.60
235.92	2252.77
236.14	2260.96
236.36	2527.19
236.58	2093.02
236.79	2252.77
237.01	2248.67
237.23	2244.57
237.45	2392.03
237.67	2205.66
237.88	2269.15
238.10	2408.41
238.32	2125.79
238.54	2217.95
238.76	2273.25
238.97	2172.89
239.19	2111.46
239.41	2265.05
239.63	2396.12
239.85	2232.29
240.06	2211.81
240.28	2187.23
240.50	2318.30
240.72	2258.91
240.93	2123.74
241.15	2258.91
241.37	2367.45
241.59	2424.80
241.81	2144.22
242.02	2168.80
242.24	2240.48
242.46	2310.11
242.68	2031.58
242.89	2207.71
243.11	2375.64
243.33	2260.96
243.55	2250.72
243.76	2220.00
243.98	2207.71
244.20	2285.53
244.42	2224.09
244.64	2174.94
244.85	2142.18
245.07	2138.08
245.29	2252.77
245.51	2244.57
245.72	2183.13
245.94	2295.77
246.16	2185.18
246.38	2201.57
246.59	2220.00
246.81	2256.86
247.03	2152.42
247.24	2072.54
247.46	2217.95
247.68	2258.91
247.90	2127.84
248.11	2234.33
248.33	2263.01
248.55	2308.06
248.77	2232.29
248.98	2269.15
249.20	2400.22
249.42	2260.96
249.64	2209.76
249.85	2209.76
250.07	2213.85
250.29	2287.58
250.50	2244.57
250.72	2105.31
250.94	2357.21
251.16	2453.47
251.37	2174.94
251.59	2220.00
251.81	2342.88
252.02	2412.51
252.24	2131.94
252.46	2252.77
252.68	2203.61
252.89	2256.86
253.11	2045.92
253.33	2283.49
253.54	2385.88
253.76	2107.36
253.98	2191.33
254.20	2168.80
254.41	2148.32
254.63	2215.90
254.85	2119.65
255.06	2187.23
255.28	2322.40
255.50	2244.57
255.71	2070.50
255.93	2029.54
256.15	2236.38
256.36	2234.33
256.58	2168.80
256.80	2148.32
257.02	2260.96
257.23	2220.00
257.45	2226.14
257.67	2220.00
257.88	2113.50
258.10	2277.34
258.32	2236.38
258.53	2191.33
258.75	2430.94
258.97	2181.09
259.18	2162.66
259.40	2156.51
259.62	2394.08
259.83	2439.13
260.05	2258.91
260.27	2609.11
260.48	2273.25
260.70	2101.22
260.92	2127.84
261.13	2191.33
261.35	2269.15
261.57	2359.26
261.78	2093.02
262.00	2166.75
262.22	2332.64
262.43	2228.19
262.65	2156.51
262.86	2228.19
263.08	2412.51
263.30	2228.19
263.51	2017.25
263.73	2129.89
263.95	2437.08
264.16	2146.27
264.38	2088.93
264.60	2187.23
264.81	2226.14
265.03	2338.78
265.25	2293.72
265.46	2152.42
265.68	2295.77
265.89	2355.16
266.11	2068.45
266.33	2185.18
266.54	2285.53
266.76	2303.96
266.98	2346.97
267.19	2240.48
267.41	2310.11
267.62	2283.49
267.84	2099.17
268.06	2242.53
268.27	2281.44
268.49	2318.30
268.70	2269.15
268.92	2207.71
269.14	2250.72
269.35	2111.46
269.57	2232.29
269.79	2220.00
270.00	2217.95
270.22	2387.93
270.43	2121.70
270.65	2062.30
270.87	2277.34
271.08	2248.67
271.30	2146.27
271.51	2195.42
271.73	2295.77
271.95	2367.45
272.16	2152.42
272.38	2258.91
272.59	2226.14
272.81	2308.06
273.02	2131.94
273.24	2291.68
273.46	2330.59
273.67	2097.12
273.89	2088.93
274.10	2152.42
274.32	2367.45
274.54	2301.92
274.75	2252.77
274.97	2119.65
275.18	2355.16
275.40	2357.21
275.61	2226.14
275.83	2363.36
276.05	2105.31
276.26	2228.19
276.48	2277.34
276.69	2193.37
276.91	2172.89
277.12	2363.36
277.34	2326.49
277.55	2291.68
277.77	2277.34
277.99	2197.47
278.20	2220.00
278.42	2072.54
278.63	2240.48
278.85	2201.57
279.06	2144.22
279.28	2312.16
279.49	2351.07
279.71	2314.20
279.93	2252.77
280.14	2232.29
280.36	2183.13
280.57	2353.12
280.79	2322.40
281.00	2138.08
281.22	2170.85
281.43	2392.03
281.65	2039.78
281.86	2166.75
282.08	2332.64
282.29	2406.36
282.51	2144.22
282.73	2084.83
282.94	2136.03
283.16	2383.84
283.37	2396.12
283.59	2252.77
283.80	2279.39
284.02	2189.28
284.23	2215.90
284.45	2185.18
284.66	2146.27
284.88	2144.22
285.09	2228.19
285.31	2258.91
285.52	2244.57
285.74	2033.63
285.95	2330.59
286.17	2248.67
286.38	2322.40
286.60	2246.62
286.81	2228.19
287.03	2164.70
287.24	2230.24
287.46	2269.15
287.67	2217.95
287.89	2398.17
288.10	2205.66
288.32	2322.40
288.53	2432.99
288.75	2226.14
288.96	2400.22
289.18	2179.04
289.39	2123.74
289.61	2342.88
289.82	2523.10
290.04	2492.38
290.25	2123.74
290.47	2248.67
290.68	2254.81
290.90	2326.49
291.11	2115.55
291.33	2385.88
291.54	2236.38
291.76	2142.18
291.97	2275.29
292.18	2281.44
292.40	2230.24
292.61	2168.80
292.83	2406.36
293.04	2244.57
293.26	2353.12
293.47	2301.92
293.69	2150.37
293.90	2209.76
294.12	2353.12
294.33	2301.92
294.55	2174.94
294.76	2211.81
294.97	2359.26
295.19	2408.41
295.40	2123.74
295.62	2299.87
295.83	2334.68
296.05	2211.81
296.26	2244.57
296.48	2222.05
296.69	2242.53
296.90	2283.49
297.12	2285.53
297.33	2291.68
297.55	2246.62
297.76	2359.26
297.98	2375.64
298.19	2226.14
298.41	2201.57
298.62	2123.74
298.83	2379.74
299.05	2256.86
299.26	2228.19
299.48	2181.09
299.69	2273.25
299.90	2254.81
300.12	2113.50
300.33	2310.11
300.55	2258.91
300.76	2232.29
300.98	2146.27
301.19	2351.07
301.40	2248.67
301.62	2215.90
301.83	2351.07
302.05	2197.47
302.26	2146.27
302.47	2326.49
302.69	2211.81
302.90	2287.58
303.12	2011.11
303.33	2263.01
303.54	2453.47
303.76	2271.20
303.97	2299.87
304.19	2322.40
304.40	2209.76
304.61	2344.92
304.83	2308.06
305.04	2322.40
305.26	2342.88
305.47	2156.51
305.68	2244.57
305.90	2203.61
306.11	2334.68
306.33	2146.27
306.54	2252.77
306.75	2105.31
306.97	2095.07
307.18	2101.22
307.39	2168.80
307.61	2289.63
307.82	2197.47
308.04	2377.69
308.25	2187.23
308.46	2267.10
308.68	2244.57
308.89	2220.00
309.10	2312.16
309.32	2299.87
309.53	2179.04
309.74	2301.92
309.96	2193.37
310.17	2342.88
310.39	2183.13
310.60	2336.73
310.81	2260.96
311.03	2121.70
311.24	2338.78
311.45	2301.92
311.67	2439.13
311.88	2283.49
312.09	2176.99
312.31	2220.00
312.52	2269.15
312.73	2215.90
312.95	2170.85
313.16	2197.47
313.37	2328.54
313.59	2260.96
313.80	2416.60
314.01	2461.66
314.23	2168.80
314.44	2174.94
314.65	2111.46
314.87	2213.85
315.08	2199.52
315.29	2133.98
315.51	2187.23
315.72	2076.64
315.93	2416.60
316.15	2330.59
316.36	2172.89
316.57	2234.33
316.79	2306.01
317.00	2234.33
317.21	2318.30
317.43	2154.46
317.64	2187.23
317.85	2101.22
318.07	2250.72
318.28	2244.57
318.49	2414.56
318.70	2527.19
318.92	2383.84
319.13	2342.88
319.34	2494.43
319.56	2281.44
319.77	2445.27
319.98	2420.70
320.20	2435.03
320.41	2306.01
320.62	2258.91
320.83	2162.66
321.05	2432.99
321.26	2267.10
321.47	2269.15
321.69	2471.90
321.90	2121.70
322.11	2156.51
322.32	2260.96
322.54	2486.23
322.75	2222.05
322.96	2590.68
323.18	2152.42
323.39	2136.03
323.60	2195.42
323.81	2334.68
324.03	2168.80
324.24	2170.85
324.45	2240.48
324.66	2205.66
324.88	2381.79
325.09	2402.27
325.30	2232.29
325.52	2197.47
325.73	2301.92
325.94	2170.85
326.15	2060.26
326.37	2181.09
326.58	2351.07
326.79	2355.16
327.00	2181.09
327.22	2244.57
327.43	2244.57
327.64	2152.42
327.85	2289.63
328.07	2256.86
328.28	2342.88
328.49	2209.76
328.70	2269.15
328.92	2189.28
329.13	2170.85
329.34	2224.09
329.55	2383.84
329.76	2322.40
329.98	2238.43
330.19	2383.84
330.40	2346.97
330.61	2146.27
330.83	2336.73
331.04	2160.61
331.25	2310.11
331.46	2244.57
331.68	2064.35
331.89	2389.98
332.10	2267.10
332.31	2105.31
332.52	2199.52
332.74	2359.26
332.95	2156.51
333.16	2172.89
333.37	2310.11
333.58	2230.24
333.80	2244.57
334.01	2111.46
334.22	2207.71
334.43	2109.41
334.64	2166.75
334.86	2047.97
335.07	2211.81
335.28	2406.36
335.49	2097.12
335.70	2263.01
335.92	2340.83
336.13	2508.76
336.34	2301.92
336.55	2263.01
336.76	2236.38
336.98	2078.69
337.19	2303.96
337.40	2346.97
337.61	2549.72
337.82	2199.52
338.04	2359.26
338.25	2066.40
338.46	2224.09
338.67	2242.53
338.88	2138.08
339.09	2109.41
339.31	2136.03
339.52	2170.85
339.73	2246.62
339.94	2277.34
340.15	2334.68
340.36	2250.72
340.58	2213.85
340.79	2123.74
341.00	2246.62
341.21	2070.50
341.42	2424.80
341.63	2197.47
341.85	2359.26
342.06	2314.20
342.27	2133.98
342.48	2306.01
342.69	2138.08
342.90	2299.87
343.12	2322.40
343.33	2125.79
343.54	2383.84
343.75	2379.74
343.96	2185.18
344.17	2093.02
344.38	2201.57
344.60	2179.04
344.81	2238.43
345.02	2213.85
345.23	2349.02
345.44	2455.51
345.65	2238.43
345.86	2256.86
346.07	2322.40
346.29	2224.09
346.50	2260.96
346.71	2359.26
346.92	2351.07
347.13	2490.33
347.34	2326.49
347.55	2189.28
347.76	2334.68
347.98	2140.13
348.19	2201.57
348.40	2439.13
348.61	2226.14
348.82	2402.27
349.03	2252.77
349.24	2152.42
349.45	2379.74
349.66	2066.40
349.88	2191.33
350.09	2232.29
350.30	2402.27
350.51	2416.60
350.72	2246.62
350.93	2213.85
351.14	2195.42
351.35	2277.34
351.56	2248.67
351.77	2213.85
351.99	2301.92
352.20	2490.33
352.41	2377.69
352.62	2019.30
352.83	2258.91
353.04	2279.39
353.25	2187.23
353.46	2269.15
353.67	2363.36
353.88	2105.31
354.09	2244.57
354.30	2136.03
354.52	2357.21
354.73	2281.44
354.94	2142.18
355.15	2275.29
355.36	2432.99
355.57	2207.71
355.78	2301.92
355.99	2121.70
356.20	2179.04
356.41	2297.82
356.62	2285.53
356.83	2269.15
357.04	2465.75
357.25	2144.22
357.46	2121.70
357.68	2113.50
357.89	2142.18
358.10	2252.77
358.31	2201.57
358.52	2209.76
358.73	2164.70
358.94	2105.31
359.15	2220.00
359.36	2283.49
359.57	2220.00
359.78	2224.09
359.99	2340.83
360.20	2121.70
360.41	2215.90
360.62	2258.91
360.83	2306.01
361.04	2310.11
361.25	2301.92
361.46	2367.45
361.67	2299.87
361.88	2291.68
362.09	2344.92
362.30	2199.52
362.51	2185.18
362.72	2195.42
362.93	2336.73
363.14	2314.20
363.35	2254.81
363.56	2181.09
363.78	2363.36
363.99	2301.92
364.20	2195.42
364.41	2197.47
364.62	2398.17
364.83	2301.92
365.04	2275.29
365.25	2179.04
365.46	2494.43
365.67	2224.09
365.88	2277.34
366.09	2205.66
366.30	2191.33
366.51	2228.19
366.72	2105.31
366.93	2230.24
367.14	2238.43
367.35	2326.49
367.56	2271.20
367.77	2258.91
367.98	2258.91
368.18	2316.25
368.39	2301.92
368.60	2138.08
368.81	2373.60
369.02	2301.92
369.23	2217.95
369.44	2072.54
369.65	2197.47
369.86	2254.81
370.07	2351.07
370.28	2187.23
370.49	2316.25
370.70	2295.77
370.91	2113.50
371.12	2191.33
371.33	2324.44
371.54	2224.09
371.75	2404.32
371.96	2054.11
372.17	2291.68
372.38	2232.29
372.59	2267.10
372.80	2248.67
373.01	2191.33
373.22	2303.96
373.43	2220.00
373.64	2156.51
373.85	2392.03
374.06	2334.68
374.26	2359.26
374.47	2322.40
374.68	2289.63
374.89	2289.63
375.10	2236.38
375.31	2303.96
375.52	2340.83
375.73	2334.68
375.94	2162.66
376.15	2359.26
376.36	2220.00
376.57	2201.57
376.78	2152.42
376.99	2179.04
377.20	2375.64
377.40	2193.37
377.61	2355.16
377.82	2185.18
378.03	2385.88
378.24	2369.50
378.45	2228.19
378.66	2295.77
378.87	2117.60
379.08	2074.59
379.29	2207.71
379.50	2318.30
379.71	2277.34
379.91	2301.92
380.12	2246.62
380.33	2252.77
380.54	2201.57
380.75	2252.77
380.96	2238.43
381.17	2295.77
381.38	2260.96
381.59	2277.34
381.80	2226.14
382.00	2394.08
382.21	2232.29
382.42	2494.43
382.63	2564.06
382.84	2322.40
383.05	2363.36
383.26	2420.70
383.47	2293.72
383.68	2291.68
383.88	2346.97
384.09	2338.78
384.30	2377.69
384.51	2267.10
384.72	2189.28
384.93	2162.66
385.14	2273.25
385.35	2398.17
385.55	2140.13
385.76	2375.64
385.97	2248.67
386.18	2152.42
386.39	2232.29
386.60	2170.85
386.81	2232.29
387.02	2170.85
387.22	2187.23
387.43	2375.64
387.64	2318.30
387.85	2355.16
388.06	2414.56
388.27	3911.62
388.48	8232.83
388.68	11759.44
388.89	14153.51
389.10	15269.66
389.31	13844.27
389.52	10987.35
389.73	9682.80
389.93	8619.90
390.14	8128.39
390.35	7237.52
390.56	6485.92
390.77	5351.34
390.98	3932.10
391.18	3317.71
391.39	2731.99
391.60	2420.70
391.81	2402.27
392.02	2213.85
392.23	2400.22
392.43	2326.49
392.64	2381.79
392.85	2256.86
393.06	2449.37
393.27	2207.71
393.47	2142.18
393.68	2301.92
393.89	2224.09
394.10	2467.80
394.31	2133.98
394.52	2144.22
394.72	2170.85
394.93	2453.47
395.14	2191.33
395.35	2260.96
395.56	2187.23
395.76	2269.15
395.97	2224.09
396.18	2389.98
396.39	2455.51
396.60	2744.28
396.80	2535.39
397.01	2453.47
397.22	2310.11
397.43	2424.80
397.64	2260.96
397.84	2435.03
398.05	2521.05
398.26	2318.30
398.47	2357.21
398.67	2383.84
398.88	2283.49
399.09	2367.45
399.30	2258.91
399.51	2244.57
399.71	2105.31
399.92	2250.72
400.13	2308.06
400.34	2224.09
400.54	2236.38
400.75	2430.94
400.96	2353.12
401.17	2383.84
401.37	2353.12
401.58	2285.53
401.79	2267.10
402.00	2346.97
402.21	2660.31
402.41	2506.71
402.62	2662.36
402.83	2670.55
403.04	2658.26
403.24	2824.15
403.45	2396.12
403.66	2539.48
403.87	2471.90
404.07	2514.91
404.28	2447.32
404.49	2543.58
404.70	2346.97
404.90	2392.03
405.11	2349.02
405.32	2293.72
405.52	2203.61
405.73	2252.77
405.94	2162.66
406.15	2273.25
406.35	2306.01
406.56	2318.30
406.77	2293.72
406.98	2267.10
407.18	2220.00
407.39	2443.23
407.60	2232.29
407.80	2318.30
408.01	2211.81
408.22	2398.17
408.43	2152.42
408.63	2242.53
408.84	2285.53
409.05	2383.84
409.25	2215.90
409.46	2181.09
409.67	2113.50
409.88	2158.56
410.08	2291.68
410.29	2228.19
410.50	2332.64
410.70	2326.49
410.91	2203.61
411.12	2256.86
411.32	2215.90
411.53	2209.76
411.74	2324.44
411.95	2432.99
412.15	2334.68
412.36	2400.22
412.57	2258.91
412.77	2373.60
412.98	2322.40
413.19	2248.67
413.39	2242.53
413.60	2267.10
413.81	2473.95
414.01	2228.19
414.22	2289.63
414.43	2248.67
414.63	2297.82
414.84	2373.60
415.05	2273.25
415.25	2170.85
415.46	2295.77
415.67	2205.66
415.87	2281.44
416.08	2256.86
416.29	2195.42
416.49	2324.44
416.70	2154.46
416.91	2224.09
417.11	2269.15
417.32	2349.02
417.53	2299.87
417.73	2275.29
417.94	2267.10
418.15	2265.05
418.35	2258.91
418.56	2193.37
418.77	2572.25
418.97	2185.18
419.18	2236.38
419.38	2084.83
419.59	2131.94
419.80	2445.27
420.00	2185.18
420.21	2260.96
420.42	2301.92
420.62	2285.53
420.83	2101.22
421.04	2209.76
421.24	2203.61
421.45	2334.68
421.65	2295.77
421.86	2121.70
422.07	2346.97
422.27	2336.73
422.48	2277.34
422.69	2197.47
422.89	2236.38
423.10	2236.38
423.30	2113.50
423.51	2275.29
423.72	2301.92
423.92	2314.20
424.13	2115.55
424.33	2318.30
424.54	2326.49
424.75	2236.38
424.95	2392.03
425.16	2267.10
425.36	2195.42
425.57	2349.02
425.78	2299.87
425.98	2306.01
426.19	2234.33
426.39	2181.09
426.60	2310.11
426.81	2394.08
427.01	2232.29
427.22	2234.33
427.42	2090.98
427.63	2164.70
427.83	2365.40
428.04	2422.75
428.25	2375.64
428.45	2351.07
428.66	2303.96
428.86	2236.38
429.07	2238.43
429.28	2250.72
429.48	2226.14
429.69	2187.23
429.89	2226.14
430.10	2121.70
430.30	2291.68
430.51	2351.07
430.71	2275.29
430.92	2176.99
431.13	2244.57
431.33	2279.39
431.54	2236.38
431.74	2369.50
431.95	2424.80
432.15	2111.46
432.36	2236.38
432.56	2291.68
432.77	2510.81
432.98	2387.93
433.18	2254.81
433.39	2146.27
433.59	2246.62
433.80	2457.56
434.00	2424.80
434.21	2201.57
434.41	2136.03
434.62	2512.86
434.82	2170.85
435.03	2127.84
435.23	2299.87
435.44	2088.93
435.64	2220.00
435.85	2310.11
436.06	2316.25
436.26	2406.36
436.47	2203.61
436.67	2150.37
436.88	2158.56
437.08	2334.68
437.29	2428.89
437.49	2265.05
437.70	2473.95
437.90	2203.61
438.11	2424.80
438.31	2244.57
438.52	2402.27
438.72	2432.99
438.93	2533.34
439.13	2351.07
439.34	2445.27
439.54	2269.15
439.75	2314.20
439.95	2383.84
440.16	2234.33
440.36	2215.90
440.57	2287.58
440.77	2375.64
440.98	2224.09
441.18	2308.06
441.39	2170.85
441.59	2109.41
441.80	2539.48
442.00	2287.58
442.21	2357.21
442.41	2183.13
442.62	2351.07
442.82	2179.04
443.02	2275.29
443.23	2230.24
443.43	2215.90
443.64	2420.70
443.84	2176.99
444.05	2447.32
444.25	2265.05
444.46	2363.36
444.66	2293.72
444.87	2414.56
445.07	2115.55
445.28	2281.44
445.48	2416.60
445.69	2324.44
445.89	2645.98
446.09	2279.39
446.30	2570.20
446.50	2807.77
446.71	4386.75
446.91	5511.08
447.12	6373.28
447.32	6746.01
447.53	6254.50
447.73	5185.46
447.93	4634.55
448.14	4110.27
448.34	4194.24
448.55	3655.62
448.75	3620.81
448.96	3381.20
449.16	3008.47
449.36	2959.31
449.57	2496.47
449.77	2355.16
449.98	2301.92
450.18	2416.60
450.39	2236.38
450.59	2340.83
450.79	2217.95
451.00	2195.42
451.20	2338.78
451.41	2226.14
451.61	2289.63
451.81	2252.77
452.02	2146.27
452.22	2244.57
452.43	2299.87
452.63	2179.04
452.84	2326.49
453.04	2220.00
453.24	2289.63
453.45	2236.38
453.65	2179.04
453.86	2316.25
454.06	2283.49
454.26	2209.76
454.47	2179.04
454.67	2406.36
454.87	2340.83
455.08	2246.62
455.28	2461.66
455.49	2289.63
455.69	2154.46
455.89	2488.28
456.10	2375.64
456.30	2220.00
456.51	2316.25
456.71	2252.77
456.91	2338.78
457.12	2267.10
457.32	2293.72
457.52	2195.42
457.73	2263.01
457.93	2306.01
458.14	2209.76
458.34	1972.19
458.54	2246.62
458.75	2185.18
458.95	2400.22
459.15	2314.20
459.36	2303.96
459.56	2265.05
459.76	2523.10
459.97	2232.29
460.17	2293.72
460.37	2303.96
460.58	2211.81
460.78	2367.45
460.99	2197.47
461.19	2316.25
461.39	2263.01
461.60	2250.72
461.80	2293.72
462.00	2183.13
462.21	2271.20
462.41	2121.70
462.61	2138.08
462.82	2093.02
463.02	2310.11
463.22	2310.11
463.43	2351.07
463.63	2291.68
463.83	2363.36
464.04	2359.26
464.24	2273.25
464.44	2129.89
464.64	2281.44
464.85	2318.30
465.05	2344.92
465.25	2310.11
465.46	2158.56
465.66	2320.35
465.86	2381.79
466.07	2226.14
466.27	2312.16
466.47	2101.22
466.68	2103.26
466.88	2316.25
467.08	2291.68
467.29	2346.97
467.49	2328.54
467.69	2258.91
467.89	2303.96
468.10	2263.01
468.30	2355.16
468.50	2361.31
468.71	2314.20
468.91	2148.32
469.11	2418.65
469.31	2232.29
469.52	2185.18
469.72	2455.51
469.92	2404.32
470.13	2203.61
470.33	2306.01
470.53	2351.07
470.73	2621.40
470.94	2977.75
471.14	3110.86
471.34	3563.47
471.54	3370.96
471.75	2987.99
471.95	2781.14
472.15	2729.94
472.36	2797.53
472.56	2670.55
472.76	2711.51
472.96	2670.55
473.17	2547.67
473.37	2484.19
473.57	2211.81
473.77	2392.03
473.98	2273.25
474.18	2158.56
474.38	2506.71
474.58	2205.66
474.79	2158.56
474.99	2275.29
475.19	2469.85
475.39	2232.29
475.60	2273.25
475.80	2291.68
476.00	2244.57
476.20	2326.49
476.41	2244.57
476.61	2285.53
476.81	2426.84
477.01	2201.57
477.21	2394.08
477.42	2340.83
477.62	2189.28
477.82	2408.41
478.02	2273.25
478.23	2306.01
478.43	2224.09
478.63	2236.38
478.83	2250.72
479.03	2252.77
479.24	2357.21
479.44	2506.71
479.64	2162.66
479.84	2150.37
480.04	2160.61
480.25	2316.25
480.45	2125.79
480.65	2138.08
480.85	2383.84
481.06	2301.92
481.26	2303.96
481.46	2269.15
481.66	2318.30
481.86	2158.56
482.06	2367.45
482.27	2308.06
482.47	2179.04
482.67	2275.29
482.87	2191.33
483.07	2334.68
483.28	2289.63
483.48	2183.13
483.68	2269.15
483.88	2217.95
484.08	2140.13
484.29	2150.37
484.49	2316.25
484.69	2232.29
484.89	2406.36
485.09	2381.79
485.29	2258.91
485.50	2316.25
485.70	2252.77
485.90	2381.79
486.10	2308.06
486.30	2334.68
486.50	2385.88
486.71	2365.40
486.91	2279.39
487.11	2295.77
487.31	2209.76
487.51	2258.91
487.71	2183.13
487.91	2193.37
488.12	2146.27
488.32	2099.17
488.52	2136.03
488.72	2095.07
488.92	2334.68
489.12	2422.75
489.32	2379.74
489.53	2267.10
489.73	2136.03
489.93	2523.10
490.13	2242.53
490.33	2146.27
490.53	2340.83
490.73	2410.46
490.94	2158.56
491.14	2269.15
491.34	2355.16
491.54	2531.29
491.74	3166.16
491.94	3657.67
492.14	4071.36
492.34	4069.31
492.54	3725.26
492.75	3243.98
492.95	3219.41
493.15	3002.32
493.35	2938.84
493.55	2908.12
493.75	2719.70
493.95	2818.00
494.15	2514.91
494.35	2428.89
494.56	2414.56
494.76	2273.25
494.96	2244.57
495.16	2236.38
495.36	2244.57
495.56	2299.87
495.76	2195.42
495.96	2285.53
496.16	2234.33
496.36	2461.66
496.56	2220.00
496.77	2326.49
496.97	2361.31
497.17	2355.16
497.37	2095.07
497.57	2303.96
497.77	2191.33
497.97	2211.81
498.17	2250.72
498.37	2224.09
498.57	2314.20
498.77	2234.33
498.97	2381.79
499.17	2373.60
499.38	2166.75
499.58	2377.69
499.78	2428.89
499.98	2443.23
500.18	2187.23
500.38	2195.42
500.58	2523.10
500.78	2949.08
500.98	5128.11
501.18	7382.93
501.38	9039.73
501.58	9611.12
501.78	9541.49
501.98	7612.30
502.18	6418.33
502.38	5363.63
502.58	5169.07
502.78	4554.68
502.98	4429.76
503.18	4270.01
503.38	3917.76
503.59	3375.05
503.79	3258.32
503.99	2949.08
504.19	2867.16
504.39	2795.48
504.59	2850.77
504.79	2832.34
504.99	2799.57
505.19	2568.15
505.39	2488.28
505.59	2662.36
505.79	2559.96
505.99	2463.71
506.19	2361.31
506.39	2529.24
506.59	2260.96
506.79	2344.92
506.99	2416.60
507.19	2308.06
507.39	2287.58
507.59	2131.94
507.79	2226.14
507.99	2224.09
508.19	2222.05
508.39	2336.73
508.59	2310.11
508.79	2349.02
508.99	2437.08
509.19	2181.09
509.39	2383.84
509.59	2152.42
509.79	2252.77
509.99	2359.26
510.19	2381.79
510.39	2371.55
510.59	2351.07
510.79	2263.01
510.99	2148.32
511.19	2269.15
511.39	2443.23
511.59	2373.60
511.79	2412.51
511.99	2265.05
512.19	2498.52
512.38	2191.33
512.58	2179.04
512.78	2242.53
512.98	2412.51
513.18	2369.50
513.38	2109.41
513.58	2379.74
513.78	2187.23
513.98	2324.44
514.18	2228.19
514.38	2269.15
514.58	2283.49
514.78	2228.19
514.98	2179.04
515.18	2291.68
515.38	2174.94
515.58	2338.78
515.78	2265.05
515.98	2285.53
516.18	2398.17
516.38	2263.01
516.57	2220.00
516.77	2226.14
516.97	2291.68
517.17	2205.66
517.37	2109.41
517.57	2310.11
517.77	2265.05
517.97	2260.96
518.17	2279.39
518.37	2138.08
518.57	2209.76
518.77	2277.34
518.97	2232.29
519.16	2277.34
519.36	2424.80
519.56	2228.19
519.76	2217.95
519.96	2244.57
520.16	2432.99
520.36	2199.52
520.56	2379.74
520.76	2211.81
520.96	2203.61
521.16	2375.64
521.35	2301.92
521.55	2437.08
521.75	2226.14
521.95	2269.15
522.15	2142.18
522.35	2138.08
522.55	2228.19
522.75	2387.93
522.95	2244.57
523.14	2183.13
523.34	2254.81
523.54	2224.09
523.74	2322.40
523.94	2273.25
524.14	2107.36
524.34	2252.77
524.54	2340.83
524.73	2273.25
524.93	2285.53
525.13	2324.44
525.33	2125.79
525.53	2447.32
525.73	2379.74
525.93	2256.86
526.13	2176.99
526.32	2299.87
526.52	2312.16
526.72	2402.27
526.92	2267.10
527.12	2232.29
527.32	2113.50
527.52	2248.67
527.71	2236.38
527.91	2291.68
528.11	2267.10
528.31	2211.81
528.51	2125.79
528.71	2369.50
528.90	2283.49
529.10	2379.74
529.30	2402.27
529.50	2088.93
529.70	2291.68
529.90	2248.67
530.09	2379.74
530.29	2158.56
530.49	2129.89
530.69	2510.81
530.89	2351.07
531.09	2392.03
531.28	2179.04
531.48	2389.98
531.68	2260.96
531.88	2289.63
532.08	2408.41
532.28	2238.43
532.47	2248.67
532.67	2349.02
532.87	2361.31
533.07	2228.19
533.27	2318.30
533.46	2318.30
533.66	2373.60
533.86	2166.75
534.06	2228.19
534.26	2310.11
534.45	2197.47
534.65	2398.17
534.85	2322.40
535.05	2166.75
535.25	2351.07
535.44	2129.89
535.64	2310.11
535.84	2211.81
536.04	2293.72
536.24	2201.57
536.43	2189.28
536.63	2238.43
536.83	2252.77
537.03	2240.48
537.22	2090.98
537.42	2099.17
537.62	2273.25
537.82	2197.47
538.02	2326.49
538.21	2387.93
538.41	2576.34
538.61	2291.68
538.81	2207.71
539.00	2303.96
539.20	2109.41
539.40	2308.06
539.60	2273.25
539.79	2297.82
539.99	2283.49
540.19	2220.00
540.39	2224.09
540.58	2269.15
540.78	2367.45
540.98	2328.54
541.18	2326.49
541.37	2263.01
541.57	2291.68
541.77	2326.49
541.97	2150.37
542.16	2035.68
542.36	2197.47
542.56	2191.33
542.76	2465.75
542.95	2367.45
543.15	2351.07
543.35	2338.78
543.54	2224.09
543.74	2201.57
543.94	2406.36
544.14	2168.80
544.33	2308.06
544.53	2283.49
544.73	2269.15
544.93	2234.33
545.12	2226.14
545.32	2318.30
545.52	2181.09
545.71	2142.18
545.91	2244.57
546.11	2193.37
546.30	2185.18
546.50	2256.86
546.70	2371.55
546.90	2267.10
547.09	2035.68
547.29	2236.38
547.49	2377.69
547.68	2295.77
547.88	2226.14
548.08	2355.16
548.27	2768.85
548.47	2269.15
548.67	2193.37
548.87	2379.74
549.06	2258.91
549.26	2299.87
549.46	2316.25
549.65	2291.68
549.85	2316.25
550.05	2285.53
550.24	2187.23
550.44	2293.72
550.64	2336.73
550.83	2275.29
551.03	2430.94
551.23	2336.73
551.42	2301.92
551.62	2220.00
551.82	2242.53
552.01	2213.85
552.21	2379.74
552.41	2273.25
552.60	2342.88
552.80	2340.83
553.00	2176.99
553.19	2228.19
553.39	2480.09
553.59	2111.46
553.78	2367.45
553.98	2244.57
554.17	2131.94
554.37	2328.54
554.57	2365.40
554.76	2176.99
554.96	2252.77
555.16	2287.58
555.35	2220.00
555.55	2326.49
555.75	2267.10
555.94	2293.72
556.14	2166.75
556.33	2308.06
556.53	2269.15
556.73	2254.81
556.92	2310.11
557.12	2310.11
557.32	2547.67
557.51	2392.03
557.71	2283.49
557.90	2410.46
558.10	2402.27
558.30	2291.68
558.49	2256.86
558.69	2250.72
558.88	2326.49
559.08	2326.49
559.28	2246.62
559.47	2273.25
559.67	2308.06
559.86	2496.47
560.06	2301.92
560.26	2254.81
560.45	2260.96
560.65	2271.20
560.84	2428.89
561.04	2172.89
561.24	2320.35
561.43	2228.19
561.63	2473.95
561.82	2351.07
562.02	2334.68
562.22	2236.38
562.41	2146.27
562.61	2176.99
562.80	2125.79
563.00	2406.36
563.19	2267.10
563.39	2312.16
563.59	2381.79
563.78	2201.57
563.98	2093.02
564.17	2244.57
564.37	2056.16
564.56	2244.57
564.76	2170.85
564.96	2373.60
565.15	2250.72
565.35	2539.48
565.54	2193.37
565.74	2326.49
565.93	2263.01
566.13	2236.38
566.32	2310.11
566.52	2301.92
566.71	2246.62
566.91	2324.44
567.11	2357.21
567.30	2242.53
567.50	2332.64
567.69	2369.50
567.89	2187.23
568.08	2236.38
568.28	2283.49
568.47	2172.89
568.67	2269.15
568.86	2201.57
569.06	2297.82
569.25	2236.38
569.45	2195.42
569.64	2226.14
569.84	2279.39
570.04	2338.78
570.23	2195.42
570.43	2220.00
570.62	2281.44
570.82	2447.32
571.01	2142.18
571.21	2263.01
571.40	2193.37
571.60	2396.12
571.79	2344.92
571.99	2252.77
572.18	2162.66
572.38	2385.88
572.57	2267.10
572.77	2301.92
572.96	2531.29
573.16	2351.07
573.35	2162.66
573.55	2455.51
573.74	2392.03
573.94	2250.72
574.13	2285.53
574.33	2299.87
574.52	2367.45
574.71	2211.81
574.91	2310.11
575.10	2131.94
575.30	2187.23
575.49	2179.04
575.69	2199.52
575.88	2213.85
576.08	2422.75
576.27	2400.22
576.47	2334.68
576.66	2457.56
576.86	2400.22
577.05	2363.36
577.25	2324.44
577.44	2486.23
577.64	2240.48
577.83	2357.21
578.02	2281.44
578.22	2445.27
578.41	2562.01
578.61	2242.53
578.80	2150.37
579.00	2297.82
579.19	2318.30
579.39	2332.64
579.58	2340.83
579.77	2258.91
579.97	2480.09
580.16	2394.08
580.36	2326.49
580.55	2301.92
580.75	2404.32
580.94	2326.49
581.13	2351.07
581.33	2453.47
581.52	2310.11
581.72	2461.66
581.91	2469.85
582.11	2252.77
582.30	2398.17
582.49	2252.77
582.69	2432.99
582.88	2375.64
583.08	2246.62
583.27	2484.19
583.47	2324.44
583.66	2213.85
583.85	2195.42
584.05	2355.16
584.24	2285.53
584.44	2351.07
584.63	2432.99
584.82	2527.19
585.02	2500.57
585.21	2367.45
585.41	2383.84
585.60	2365.40
585.79	2576.34
585.99	2576.34
586.18	2432.99
586.37	2981.84
586.57	4718.52
586.76	14018.35
586.96	33338.88
587.15	47361.33
587.34	56837.28
587.54	61441.11
587.73	56743.07
587.93	39859.62
588.12	30367.28
588.31	24389.26
588.51	21001.92
588.70	19549.91
588.89	17561.33
589.09	15185.69
589.28	12953.40
589.47	10604.38
589.67	8445.82
589.86	6420.38
590.06	4728.76
590.25	3899.33
590.44	3194.83
590.64	2779.09
590.83	2562.01
591.02	2635.74
591.22	2369.50
591.41	2338.78
591.60	2252.77
591.80	2535.39
591.99	2211.81
592.18	2273.25
592.38	2428.89
592.57	2289.63
592.76	2289.63
592.96	2334.68
593.15	2303.96
593.34	2404.32
593.54	2277.34
593.73	2340.83
593.92	2344.92
594.12	2334.68
594.31	2308.06
594.50	2498.52
594.70	2381.79
594.89	2506.71
595.08	2154.46
595.28	2351.07
595.47	2588.63
595.66	2398.17
595.86	2220.00
596.05	2275.29
596.24	2209.76
596.43	2519.00
596.63	2349.02
596.82	2275.29
597.01	2404.32
597.21	2453.47
597.40	2357.21
597.59	2299.87
597.79	2273.25
597.98	2389.98
598.17	2342.88
598.36	2293.72
598.56	2445.27
598.75	2244.57
598.94	2355.16
599.14	2291.68
599.33	2260.96
599.52	2344.92
599.71	2359.26
599.91	2318.30
600.10	2344.92
600.29	2256.86
600.48	2330.59
600.68	2301.92
600.87	2267.10
601.06	2187.23
601.26	2275.29
601.45	2263.01
601.64	2203.61
601.83	2404.32
602.03	2168.80
602.22	2209.76
602.41	2351.07
602.60	2512.86
602.80	2316.25
602.99	2326.49
603.18	2283.49
603.37	2334.68
603.57	2318.30
603.76	2299.87
603.95	2437.08
604.14	2254.81
604.34	2179.04
604.53	2265.05
604.72	2318.30
604.91	2234.33
605.10	2281.44
605.30	2101.22
605.49	2531.29
605.68	2301.92
605.87	2381.79
606.07	2179.04
606.26	2299.87
606.45	2334.68
606.64	2260.96
606.84	2127.84
607.03	2346.97
607.22	2379.74
607.41	2289.63
607.60	2220.00
607.80	2461.66
607.99	2293.72
608.18	2244.57
608.37	2267.10
608.56	2209.76
608.76	2398.17
608.95	2387.93
609.14	2371.55
609.33	2465.75
609.52	2523.10
609.72	2342.88
609.91	2416.60
610.10	2312.16
610.29	2445.27
610.48	2359.26
610.68	2361.31
610.87	2254.81
611.06	2463.71
611.25	2236.38
611.44	2455.51
611.63	2269.15
611.83	2447.32
612.02	2127.84
612.21	2299.87
612.40	2064.35
612.59	2154.46
612.79	2072.54
612.98	2338.78
613.17	2494.43
613.36	2281.44
613.55	2519.00
613.74	2394.08
613.93	2383.84
614.13	2475.99
614.32	2451.42
614.51	2453.47
614.70	2404.32
614.89	2283.49
615.08	2463.71
615.28	2871.25
615.47	2238.43
615.66	2439.13
615.85	2236.38
616.04	2445.27
616.23	2324.44
616.42	2340.83
616.62	2334.68
616.81	2351.07
617.00	2269.15
617.19	2349.02
617.38	2215.90
617.57	2301.92
617.76	2340.83
617.95	2381.79
618.15	2293.72
618.34	2408.41
618.53	2152.42
618.72	2312.16
618.91	2277.34
619.10	2422.75
619.29	2279.39
619.48	2392.03
619.68	2217.95
619.87	2179.04
620.06	2152.42
620.25	2410.46
620.44	2256.86
620.63	2232.29
620.82	2273.25
621.01	2232.29
621.20	2240.48
621.39	2318.30
621.59	2375.64
621.78	2338.78
621.97	2250.72
622.16	2326.49
622.35	2295.77
622.54	2353.12
622.73	2332.64
622.92	2203.61
623.11	2383.84
623.30	2211.81
623.49	2389.98
623.68	2228.19
623.88	2404.32
624.07	2328.54
624.26	2203.61
624.45	2195.42
624.64	2242.53
624.83	2279.39
625.02	2246.62
625.21	2158.56
625.40	2297.82
625.59	2418.65
625.78	2215.90
625.97	2283.49
626.16	2422.75
626.35	2463.71
626.54	2332.64
626.74	2457.56
626.93	2234.33
627.12	2260.96
627.31	2398.17
627.50	2291.68
627.69	2351.07
627.88	2203.61
628.07	2191.33
628.26	2158.56
628.45	2154.46
628.64	2129.89
628.83	2234.33
629.02	2172.89
629.21	2287.58
629.40	2344.92
629.59	2277.34
629.78	2185.18
629.97	2308.06
630.16	2316.25
630.35	2236.38
630.54	2299.87
630.73	2158.56
630.92	2230.24
631.11	2193.37
631.30	2228.19
631.49	2246.62
631.68	2211.81
631.87	2326.49
632.06	2215.90
632.25	2543.58
632.44	2256.86
632.63	2289.63
632.82	2293.72
633.01	2283.49
633.20	2369.50
633.39	2232.29
633.58	2172.89
633.77	2359.26
633.96	2441.18
634.15	2410.46
634.34	2252.77
634.53	2310.11
634.72	2244.57
634.91	2119.65
635.10	2215.90
635.29	2312.16
635.48	2306.01
635.67	2234.33
635.86	2148.32
636.05	2414.56
636.24	2322.40
636.43	2330.59
636.62	2340.83
636.81	2041.82
637.00	2252.77
637.19	2250.72
637.38	2220.00
637.57	2228.19
637.76	2301.92
637.95	2367.45
638.14	2201.57
638.33	2355.16
638.52	2314.20
638.71	2213.85
638.89	2209.76
639.08	2588.63
639.27	2394.08
639.46	2500.57
639.65	2779.09
639.84	2899.92
640.03	3002.32
640.22	2852.82
640.41	2891.73
640.60	2455.51
640.79	2449.37
640.98	2455.51
641.17	2545.63
641.36	2428.89
641.55	2465.75
641.74	2242.53
641.92	2263.01
642.11	2187.23
642.30	2260.96
642.49	2154.46
642.68	2289.63
642.87	2306.01
643.06	2301.92
643.25	2215.90
643.44	2195.42
643.63	2277.34
643.82	2351.07
644.00	2244.57
644.19	2301.92
644.38	2193.37
644.57	2324.44
644.76	2269.15
644.95	2158.56
645.14	2285.53
645.33	2174.94
645.52	2322.40
645.71	2207.71
645.89	2213.85
646.08	2217.95
646.27	2248.67
646.46	2465.75
646.65	2146.27
646.84	2316.25
647.03	2201.57
647.22	2396.12
647.40	2289.63
647.59	2115.55
647.78	2121.70
647.97	2172.89
648.16	2150.37
648.35	2402.27
648.54	2349.02
648.73	2152.42
648.91	2334.68
649.10	2234.33
649.29	2222.05
649.48	2183.13
649.67	2312.16
649.86	2355.16
650.05	2281.44
650.23	2445.27
650.42	2265.05
650.61	2383.84
650.80	2471.90
650.99	2523.10
651.18	2449.37
651.36	2349.02
651.55	2207.71
651.74	2371.55
651.93	2207.71
652.12	2271.20
652.31	2267.10
652.49	2269.15
652.68	2275.29
652.87	2519.00
653.06	2316.25
653.25	2463.71
653.44	2297.82
653.62	2396.12
653.81	2236.38
654.00	2287.58
654.19	2439.13
654.38	2555.86
654.56	2289.63
654.75	2295.77
654.94	2402.27
655.13	2281.44
655.32	2142.18
655.51	2301.92
655.69	2285.53
655.88	2392.03
656.07	2156.51
656.26	2271.20
656.45	2181.09
656.63	2353.12
656.82	2269.15
657.01	2336.73
657.20	2242.53
657.38	2369.50
657.57	2334.68
657.76	2185.18
657.95	2375.64
658.14	2187.23
658.32	2308.06
658.51	2166.75
658.70	2252.77
658.89	2254.81
659.08	2240.48
659.26	2363.36
659.45	2312.16
659.64	2308.06
659.83	2228.19
660.01	2605.02
660.20	2269.15
660.39	2494.43
660.58	2146.27
660.76	2318.30
660.95	2121.70
661.14	2324.44
661.33	2062.30
661.51	2260.96
661.70	2217.95
661.89	2222.05
662.08	2217.95
662.26	2129.89
662.45	2093.02
662.64	2486.23
662.83	2279.39
663.01	2125.79
663.20	2217.95
663.39	2387.93
663.58	2234.33
663.76	2226.14
663.95	2316.25
664.14	2066.40
664.32	2248.67
664.51	2174.94
664.70	2064.35
664.89	2326.49
665.07	2164.70
665.26	2332.64
665.45	2181.09
665.64	2373.60
665.82	2224.09
666.01	2375.64
666.20	2195.42
666.38	2381.79
666.57	2383.84
666.76	3354.57
666.95	8218.50
667.13	16563.97
667.32	21642.93
667.51	25175.68
667.69	26646.12
667.88	24383.12
668.07	17465.08
668.25	13909.80
668.44	11532.11
668.63	10024.81
668.81	9045.88
669.00	7661.45
669.19	6868.89
669.38	5875.62
669.56	5146.55
669.75	4218.82
669.94	3602.38
670.12	3112.91
670.31	2809.81
670.50	2609.11
670.68	2557.91
670.87	2437.08
671.06	2232.29
671.24	2314.20
671.43	2349.02
671.62	2363.36
671.80	2275.29
671.99	2346.97
672.18	2310.11
672.36	2414.56
672.55	2260.96
672.74	2226.14
672.92	2273.25
673.11	2371.55
673.29	2187.23
673.48	2277.34
673.67	2195.42
673.85	2400.22
674.04	2252.77
674.23	2263.01
674.41	2400.22
674.60	2070.50
674.79	2052.06
674.97	2236.38
675.16	2336.73
675.34	2322.40
675.53	2193.37
675.72	2312.16
675.90	2439.13
676.09	2236.38
676.28	2252.77
676.46	2101.22
676.65	2373.60
676.83	2183.13
677.02	2295.77
677.21	2285.53
677.39	2351.07
677.58	2195.42
677.77	2240.48
677.95	2162.66
678.14	2187.23
678.32	2129.89
678.51	2154.46
678.70	2414.56
678.88	2228.19
679.07	2281.44
679.25	2301.92
679.44	2250.72
679.63	2086.88
679.81	2217.95
680.00	2349.02
680.18	2277.34
680.37	2344.92
680.55	2293.72
680.74	2054.11
680.93	2072.54
681.11	2260.96
681.30	2234.33
681.48	2406.36
681.67	2269.15
681.85	2308.06
682.04	2252.77
682.23	2400.22
682.41	2203.61
682.60	2248.67
682.78	2271.20
682.97	2179.04
683.15	2232.29
683.34	2301.92
683.53	2449.37
683.71	2133.98
683.90	2447.32
684.08	2412.51
684.27	2275.29
684.45	2316.25
684.64	2414.56
684.82	2228.19
685.01	2281.44
685.19	2283.49
685.38	2383.84
685.57	2301.92
685.75	2176.99
685.94	2156.51
686.12	2162.66
686.31	2113.50
686.49	2406.36
686.68	2125.79
686.86	2326.49
687.05	2310.11
687.23	2447.32
687.42	2144.22
687.60	2166.75
687.79	2314.20
687.97	2435.03
688.16	2355.16
688.34	2281.44
688.53	2002.91
688.71	2383.84
688.90	2396.12
689.08	2195.42
689.27	2176.99
689.45	2281.44
689.64	2297.82
689.82	2349.02
690.01	2322.40
690.19	2246.62
690.38	2269.15
690.56	2424.80
690.75	2193.37
690.93	2222.05
691.12	2195.42
691.30	2279.39
691.49	2244.57
691.67	2277.34
691.86	2449.37
692.04	2146.27
692.23	2179.04
692.41	2254.81
692.60	2576.34
692.78	2396.12
692.97	2242.53
693.15	2359.26
693.34	2480.09
693.52	2396.12
693.71	2176.99
693.89	2238.43
694.08	2105.31
694.26	2326.49
694.44	2373.60
694.63	2334.68
694.81	2078.69
695.00	2265.05
695.18	2334.68
695.37	2471.90
695.55	2301.92
695.74	2271.20
695.92	2205.66
696.10	2379.74
696.29	2115.55
696.47	2228.19
696.66	2121.70
696.84	2189.28
697.03	2254.81
697.21	2334.68
697.40	3289.04
697.58	2396.12
697.76	2211.81
697.95	2154.46
698.13	2111.46
698.32	2179.04
698.50	2211.81
698.68	2207.71
698.87	2254.81
699.05	2437.08
699.24	2281.44
699.42	2138.08
699.61	2240.48
699.79	2226.14
699.97	2256.86
700.16	2174.94
700.34	2138.08
700.53	2351.07
700.71	2383.84
700.89	2412.51
701.08	2154.46
701.26	2269.15
701.45	2785.24
701.63	2084.83
701.81	2301.92
702.00	2254.81
702.18	2258.91
702.37	2279.39
702.55	2412.51
702.73	2461.66
702.92	2324.44
703.10	2543.58
703.28	2467.80
703.47	2320.35
703.65	2514.91
703.84	2402.27
704.02	2260.96
704.20	2422.75
704.39	2193.37
704.57	2308.06
704.75	2430.94
704.94	2338.78
705.12	2277.34
705.30	2629.59
705.49	4485.05
705.67	10524.51
705.86	18257.64
706.04	22175.41
706.22	25081.47
706.41	26150.51
706.59	22023.86
706.77	15525.65
706.96	13221.69
707.14	11546.45
707.32	9879.40
707.51	8947.58
707.69	7421.84
707.87	6104.99
708.06	4767.67
708.24	4046.79
708.42	3252.17
708.61	2990.03
708.79	2453.47
708.97	2373.60
709.16	2402.27
709.34	2342.88
709.52	2287.58
709.71	2226.14
709.89	2351.07
710.07	2174.94
710.26	2156.51
710.44	2242.53
710.62	2398.17
710.80	2246.62
710.99	2310.11
711.17	2342.88
711.35	2267.10
711.54	2224.09
711.72	2410.46
711.90	2203.61
712.09	2295.77
712.27	2179.04
712.45	2330.59
712.63	2230.24
712.82	2291.68
713.00	2277.34
713.18	2316.25
713.37	2365.40
713.55	2318.30
713.73	2320.35
713.91	2299.87
714.10	2215.90
714.28	2340.83
714.46	2381.79
714.65	2316.25
714.83	2260.96
715.01	2203.61
715.19	2297.82
715.38	2154.46
715.56	2279.39
715.74	2129.89
715.92	2144.22
716.11	2361.31
716.29	2086.88
716.47	2238.43
716.65	2275.29
716.84	2146.27
717.02	2306.01
717.20	2084.83
717.38	2228.19
717.57	2265.05
717.75	2248.67
717.93	2230.24
718.11	2297.82
718.30	2119.65
718.48	2316.25
718.66	2320.35
718.84	2375.64
719.03	2295.77
719.21	2144.22
719.39	2492.38
719.57	2263.01
719.75	2306.01
719.94	2170.85
720.12	2250.72
720.30	2289.63
720.48	2297.82
720.67	2285.53
720.85	2131.94
721.03	2232.29
721.21	2185.18
721.39	2342.88
721.58	2310.11
721.76	2310.11
721.94	2287.58
722.12	2291.68
722.30	2406.36
722.49	2189.28
722.67	2236.38
722.85	2244.57
723.03	2129.89
723.21	2203.61
723.40	2297.82
723.58	2340.83
723.76	2303.96
723.94	2430.94
724.12	2453.47
724.30	2381.79
724.49	2461.66
724.67	2193.37
724.85	2400.22
725.03	2078.69
725.21	2314.20
725.40	2330.59
725.58	2260.96
725.76	2349.02
725.94	2215.90
726.12	2162.66
726.30	2224.09
726.49	2164.70
726.67	2215.90
726.85	2314.20
727.03	2564.06
727.21	3516.36
727.39	5035.96
727.57	5932.97
727.76	6528.92
727.94	6852.50
728.12	6201.25
728.30	5160.88
728.48	4497.34
728.66	4116.42
728.84	3833.80
729.03	3289.04
729.21	3084.24
729.39	2811.86
729.57	2482.14
729.75	2467.80
729.93	2396.12
730.11	2215.90
730.30	2285.53
730.48	2289.63
730.66	2437.08
730.84	2367.45
731.02	2234.33
731.20	2146.27
731.38	2195.42
731.56	2144.22
731.74	2133.98
731.93	2359.26
732.11	2236.38
732.29	2193.37
732.47	2260.96
732.65	2324.44
732.83	2398.17
733.01	2285.53
733.19	2158.56
733.37	2318.30
733.56	2332.64
733.74	2176.99
733.92	2404.32
734.10	2211.81
734.28	2269.15
734.46	2107.36
734.64	2234.33
734.82	2166.75
735.00	2226.14
735.18	2236.38
735.36	2281.44
735.54	2226.14
735.73	2320.35
735.91	2297.82
736.09	2273.25
736.27	2263.01
736.45	2377.69
736.63	2076.64
736.81	2195.42
736.99	2365.40
737.17	2389.98
737.35	2199.52
737.53	2291.68
737.71	2193.37
737.89	2375.64
738.07	2209.76
738.25	2209.76
738.43	2127.84
738.61	2226.14
738.80	2084.83
738.98	2197.47
739.16	2191.33
739.34	2168.80
739.52	2410.46
739.70	2174.94
739.88	2377.69
740.06	2336.73
740.24	2086.88
740.42	2338.78
740.60	2129.89
740.78	2217.95
740.96	2072.54
741.14	2250.72
741.32	2318.30
741.50	2101.22
741.68	2469.85
741.86	2375.64
742.04	2146.27
742.22	2191.33
742.40	2240.48
742.58	2336.73
742.76	2185.18
742.94	2295.77
743.12	2054.11
743.30	2285.53
743.48	2349.02
743.66	2279.39
743.84	2254.81
744.02	2244.57
744.20	2242.53
744.38	2176.99
744.56	2154.46
744.74	2400.22
744.92	2308.06
745.10	2365.40
745.28	2269.15
745.46	2467.80
745.64	2181.09
745.82	2367.45
746.00	2248.67
746.18	2275.29
746.36	2228.19
746.54	2265.05
746.72	2228.19
746.90	2238.43
747.08	2338.78
747.26	2211.81
747.44	2320.35
747.62	2338.78
747.80	2314.20
747.98	2236.38
748.15	2256.86
748.33	2387.93
748.51	2220.00
748.69	2383.84
748.87	2107.36
749.05	2269.15
749.23	2299.87
749.41	2336.73
749.59	2277.34
749.77	2312.16
749.95	2256.86
750.13	2318.30
750.31	2250.72
750.49	2236.38
750.67	2359.26
750.85	2408.41
751.03	2240.48
751.20	2506.71
751.38	2265.05
751.56	2207.71
751.74	2293.72
751.92	2254.81
752.10	2082.78
752.28	2404.32
752.46	2252.77
752.64	2246.62
752.82	2209.76
753.00	2424.80
753.18	2265.05
753.35	2242.53
753.53	2242.53
753.71	2220.00
753.89	2293.72
754.07	2273.25
754.25	2402.27
754.43	2344.92
754.61	2123.74
754.79	2217.95
754.97	2209.76
755.14	2340.83
755.32	2133.98
755.50	2293.72
755.68	2244.57
755.86	2138.08
756.04	2138.08
756.22	2054.11
756.40	2285.53
756.57	2437.08
756.75	2238.43
756.93	2400.22
757.11	2351.07
757.29	2154.46
757.47	2197.47
757.65	2117.60
757.82	2007.01
758.00	2111.46
758.18	2172.89
758.36	2179.04
758.54	2541.53
758.72	2088.93
758.90	2324.44
759.07	2318.30
759.25	2230.24
759.43	2310.11
759.61	2142.18
759.79	3147.73
759.97	2336.73
760.15	2187.23
760.32	2168.80
760.50	2273.25
760.68	2504.67
760.86	2088.93
761.04	2377.69
761.22	2377.69
761.39	2260.96
761.57	2275.29
761.75	2332.64
761.93	2295.77
762.11	2232.29
762.28	2258.91
762.46	2113.50
762.64	2332.64
762.82	2133.98
763.00	2162.66
763.18	2381.79
763.35	2236.38
763.53	2269.15
763.71	2322.40
763.89	2258.91
764.07	2314.20
764.24	2258.91
764.42	2291.68
764.60	2168.80
764.78	2269.15
764.96	2359.26
765.13	2293.72
765.31	2265.05
765.49	2312.16
765.67	2140.13
765.84	2207.71
766.02	2209.76
766.20	2148.32
766.38	2285.53
766.56	2281.44
766.73	2299.87
766.91	2252.77
767.09	2250.72
767.27	2371.55
767.44	2105.31
767.62	2303.96
767.80	2314.20
767.98	2199.52
768.15	2281.44
768.33	2361.31
768.51	2263.01
768.69	2293.72
768.87	2308.06
769.04	2258.91
769.22	2504.67
769.40	2445.27
769.58	2439.13
769.75	2277.34
769.93	2410.46
770.11	2220.00
770.28	2176.99
770.46	2357.21
770.64	2250.72
770.82	2260.96
770.99	2164.70
771.17	2293.72
771.35	2228.19
771.53	2269.15
771.70	2172.89
771.88	2275.29
772.06	2222.05
772.23	2205.66
772.41	2308.06
772.59	2258.91
772.77	2213.85
772.94	2236.38
773.12	2258.91
773.30	2310.11
773.47	2236.38
773.65	2138.08
773.83	2357.21
774.01	2244.57
774.18	2125.79
774.36	2246.62
774.54	2107.36
774.71	2301.92
774.89	2142.18
775.07	2258.91
775.24	2101.22
775.42	2242.53
775.60	2414.56
775.78	2154.46
775.95	2164.70
776.13	2228.19
776.31	2031.58
776.48	2250.72
776.66	2396.12
776.84	2203.61
777.01	2189.28
777.19	2187.23
777.37	2183.13
777.54	2295.77
777.72	2404.32
777.90	2316.25
778.07	2191.33
778.25	2592.73
778.43	2334.68
778.60	2197.47
778.78	2322.40
778.96	2375.64
779.13	2193.37
779.31	2326.49
779.49	2170.85
779.66	2217.95
779.84	2197.47
780.01	2195.42
780.19	2185.18
780.37	2332.64
780.54	2277.34
780.72	2133.98
780.90	2232.29
781.07	2246.62
781.25	2179.04
781.43	2349.02
781.60	2269.15
781.78	2359.26
781.95	2336.73
782.13	2242.53
782.31	2224.09
782.48	2095.07
782.66	2279.39
782.83	2457.56
783.01	2318.30
783.19	2324.44
783.36	2236.38
783.54	2111.46
783.72	2346.97
783.89	2156.51
784.07	2301.92
784.24	2322.40
784.42	2357.21
784.60	2222.05
784.77	2263.01
784.95	2084.83
785.12	2230.24
785.30	2230.24
785.47	2215.90
785.65	2185.18
785.83	2267.10
786.00	2115.55
786.18	2238.43
786.35	2033.63
786.53	2162.66
786.71	2387.93
786.88	2281.44
787.06	2310.11
787.23	2236.38
787.41	2140.13
787.58	2197.47
787.76	2174.94
787.94	2295.77
788.11	2228.19
788.29	2179.04
788.46	2195.42
788.64	2080.74
788.81	2215.90
788.99	2119.65
789.16	2142.18
789.34	2183.13
789.52	2228.19
789.69	2224.09
789.87	2105.31
790.04	2176.99
790.22	2236.38
790.39	2480.09
790.57	2105.31
790.74	2222.05
790.92	2303.96
791.09	2164.70
791.27	2285.53
791.44	2383.84
791.62	2191.33
791.79	2234.33
791.97	2252.77
792.15	2459.61
792.32	2381.79
792.50	2336.73
792.67	2336.73
792.85	2373.60
793.02	2248.67
793.20	2258.91
793.37	2281.44
793.55	2199.52
793.72	2136.03
793.90	2355.16
794.07	2160.61
794.25	2181.09
794.42	2269.15
794.60	2220.00
794.77	2320.35
794.95	2275.29
795.12	2389.98
795.30	2201.57
795.47	2121.70
795.65	2580.44
795.82	2293.72
796.00	2152.42
796.17	2183.13
796.34	2193.37
796.52	2258.91
796.69	2318.30
796.87	2383.84
797.04	2334.68
797.22	2373.60
797.39	2281.44
797.57	2293.72
797.74	2283.49
797.92	2248.67
798.09	2187.23
798.27	2375.64
798.44	2373.60
798.62	2179.04
798.79	2281.44
798.96	2351.07
799.14	2170.85
799.31	2498.52
799.49	2277.34
799.66	2195.42
799.84	2275.29
800.01	2154.46
800.19	2228.19
800.36	2103.26
800.53	2308.06
800.71	2324.44
800.88	2404.32
801.06	2172.89
801.23	2279.39
801.41	2275.29
801.58	2138.08
801.75	2213.85
801.93	2310.11
802.10	2265.05
802.28	2291.68
802.45	2181.09
802.63	2295.77
802.80	2373.60
802.97	2217.95
803.15	2277.34
803.32	2205.66
803.50	2230.24
803.67	2183.13
803.84	2160.61
804.02	2301.92
804.19	2174.94
804.37	2054.11
804.54	2146.27
804.71	2185.18
804.89	2179.04
805.06	2277.34
805.24	2176.99
805.41	2084.83
805.58	2224.09
805.76	2482.14
805.93	2238.43
806.10	2363.36
806.28	2314.20
806.45	2224.09
806.63	2267.10
806.80	2308.06
806.97	2324.44
807.15	2269.15
807.32	2222.05
807.49	2332.64
807.67	2084.83
807.84	2283.49
808.01	2037.73
808.19	2375.64
808.36	2490.33
808.54	2222.05
808.71	2146.27
808.88	2289.63
809.06	2310.11
809.23	2359.26
809.40	2224.09
809.58	2303.96
809.75	2265.05
809.92	2166.75
810.10	2475.99
810.27	2228.19
810.44	2242.53
810.62	2314.20
810.79	2250.72
810.96	2179.04
811.14	2189.28
811.31	2340.83
811.48	2285.53
811.66	2248.67
811.83	2322.40
812.00	2301.92
812.18	2244.57
812.35	2445.27
812.52	2211.81
812.69	2207.71
812.87	2181.09
813.04	2195.42
813.21	2236.38
813.39	2166.75
813.56	2187.23
813.73	2338.78
813.91	2056.16
814.08	2170.85
814.25	2209.76
814.42	2179.04
814.60	2234.33
814.77	2228.19
814.94	2215.90
815.12	2215.90
815.29	2324.44
815.46	2142.18
815.63	2191.33
815.81	2273.25
815.98	2256.86
816.15	2228.19
816.33	2265.05
816.50	2209.76
816.67	2244.57
816.84	2228.19
817.02	2144.22
817.19	2234.33
817.36	2306.01
817.53	2367.45
817.71	2211.81
817.88	2357.21
818.05	2275.29
818.22	2211.81
818.40	2383.84
818.57	2166.75
818.74	2271.20
818.91	2283.49
819.09	2367.45
819.26	2256.86
819.43	2176.99
819.60	2220.00
819.78	2355.16
819.95	2324.44
820.12	2144.22
820.29	2441.18
820.47	2328.54
820.64	2195.42
820.81	2158.56
820.98	2166.75
821.15	2234.33
821.33	2322.40
821.50	2129.89
821.67	2306.01
821.84	2203.61
822.02	2330.59
822.19	2392.03
822.36	2215.90
822.53	2222.05
822.70	2121.70
822.88	2248.67
823.05	2369.50
823.22	2316.25
823.39	2293.72
823.56	2236.38
823.74	2383.84
823.91	2164.70
824.08	2150.37
824.25	2129.89
824.42	2420.70
824.60	2138.08
824.77	2310.11
824.94	2291.68
825.11	2265.05
825.28	2121.70
825.45	2226.14
825.63	2258.91
825.80	2191.33
825.97	2310.11
826.14	2260.96
826.31	2142.18
826.48	2349.02
826.66	2191.33
826.83	2125.79
827.00	2136.03
827.17	2164.70
827.34	2199.52
827.51	2283.49
827.69	2252.77
827.86	2125.79
828.03	2203.61
828.20	2209.76
828.37	2234.33
828.54	2330.59
828.71	2162.66
828.89	2289.63
829.06	2252.77
829.23	2428.89
829.40	2168.80
829.57	2195.42
829.74	2371.55
829.91	2179.04
830.09	2244.57
830.26	2301.92
830.43	2318.30
830.60	2181.09
830.77	2301.92
830.94	2283.49
831.11	2342.88
831.28	2201.57
831.46	2371.55
831.63	2185.18
831.80	2301.92
831.97	2148.32
832.14	2211.81
832.31	2285.53
832.48	2340.83
832.65	2326.49
832.82	2244.57
832.99	2234.33
833.17	2193.37
833.34	2367.45
833.51	2271.20
833.68	2150.37
833.85	2359.26
834.02	2138.08
834.19	2220.00
834.36	2093.02
834.53	2303.96
834.70	2330.59
834.87	2334.68
835.04	2111.46
835.22	2187.23
835.39	2201.57
835.56	2172.89
835.73	2179.04
835.90	2355.16
836.07	2187.23
836.24	2234.33
836.41	2152.42
836.58	2252.77
836.75	2410.46
836.92	2228.19
837.09	2117.60
837.26	2291.68
837.43	2217.95
837.60	2267.10
837.77	2228.19
837.94	2410.46
838.12	2432.99
838.29	2220.00
838.46	2117.60
838.63	2146.27
838.80	2342.88
838.97	2301.92
839.14	2236.38
839.31	2316.25
839.48	2310.11
839.65	2238.43
839.82	2346.97
839.99	2265.05
840.16	2263.01
840.33	2195.42
840.50	2205.66
840.67	2183.13
840.84	1990.63
841.01	2226.14
841.18	2138.08
841.35	2258.91
841.52	2285.53
841.69	2455.51
841.86	2265.05
842.03	2308.06
842.20	2346.97
842.37	2205.66
842.54	2275.29
842.71	2234.33
842.88	2105.31
843.05	2211.81
843.22	2131.94
843.39	2260.96
843.56	2222.05
843.73	2187.23
843.90	2224.09
844.07	2285.53
844.24	2265.05
844.41	2299.87
844.58	2160.61
844.75	2148.32
844.92	2416.60
845.09	2236.38
845.26	2179.04
845.43	2326.49
845.60	2176.99
845.77	2334.68
845.94	2232.29
846.10	2342.88
846.27	2095.07
846.44	2133.98
846.61	2131.94
846.78	2254.81
846.95	2363.36
847.12	2168.80
847.29	2220.00
847.46	2185.18
847.63	2332.64
847.80	2154.46
847.97	2187.23
848.14	2445.27
848.31	2217.95
848.48	2076.64
848.65	2238.43
848.82	2158.56
848.98	2486.23
849.15	2332.64
849.32	2310.11
849.49	2406.36
849.66	2240.48
849.83	2160.61
850.00	2121.70
850.17	2301.92
850.34	2258.91
850.51	2131.94
850.68	2244.57
850.85	2480.09
851.01	2285.53
851.18	2195.42
851.35	2172.89
851.52	2240.48
851.69	2385.88
851.86	2099.17
852.03	2172.89
852.20	2326.49
852.37	2211.81
852.53	2097.12
852.70	2095.07
852.87	2228.19
853.04	2379.74
853.21	2193.37
853.38	2355.16
853.55	2340.83
853.72	2385.88
853.89	2146.27
854.05	2146.27
854.22	2174.94
854.39	2230.24
854.56	2260.96
854.73	2301.92
854.90	2154.46
855.07	2295.77
855.23	2156.51
855.40	2228.19
855.57	2201.57
855.74	2007.01
855.91	2392.03
856.08	2105.31
856.25	2207.71
856.41	2183.13
856.58	2113.50
856.75	2172.89
856.92	2082.78
857.09	2312.16
857.26	2158.56
857.42	2170.85
857.59	2299.87
857.76	2246.62
857.93	2265.05
858.10	2250.72
858.27	2158.56
858.43	2224.09
858.60	2179.04
858.77	2015.20
858.94	2179.04
859.11	2342.88
859.27	2205.66
859.44	2195.42
859.61	2439.13
859.78	2289.63
859.95	2162.66
860.12	2097.12
860.28	2383.84
860.45	2430.94
860.62	2121.70
860.79	2222.05
860.95	2170.85
861.12	2121.70
861.29	2117.60
861.46	2125.79
861.63	2201.57
861.79	2215.90
861.96	2179.04
862.13	2121.70
862.30	2367.45
862.47	2220.00
862.63	2078.69
862.80	2297.82
862.97	2299.87
863.14	2244.57
863.30	2230.24
863.47	2176.99
863.64	2406.36
863.81	2355.16
863.97	2224.09
864.14	2297.82
864.31	2258.91
864.48	2246.62
864.65	2176.99
864.81	2271.20
864.98	2275.29
865.15	2353.12
865.32	2238.43
865.48	2244.57
865.65	2381.79
865.82	2195.42
865.98	2197.47
866.15	2312.16
866.32	2242.53
866.49	2252.77
866.65	2359.26
866.82	2086.88
866.99	2269.15
867.16	2260.96
867.32	2226.14
867.49	2138.08
867.66	2263.01
867.83	2185.18
867.99	2097.12
868.16	2154.46
868.33	2158.56
868.49	2203.61
868.66	2228.19
868.83	2240.48
868.99	2213.85
869.16	2244.57
869.33	2324.44
869.50	2334.68
869.66	2238.43
869.83	2279.39
870.00	2140.13
870.16	2224.09
870.33	2306.01
870.50	2402.27
870.66	2172.89
870.83	2244.57
871.00	2230.24
871.17	2275.29
871.33	2277.34
871.50	2187.23
871.67	2287.58
871.83	2254.81
872.00	2369.50
872.17	2136.03
872.33	2408.41
872.50	2402.27
872.67	2201.57
872.83	2275.29
873.00	2369.50
873.17	2209.76
873.33	2220.00
873.50	2250.72
873.67	2170.85
873.83	2146.27
874.00	2201.57
874.16	2269.15
874.33	2260.96
874.50	2176.99
874.66	2217.95
874.83	2230.24
875.00	2334.68
875.16	2316.25
875.33	2260.96
875.50	2088.93
875.66	2172.89
875.83	2217.95
875.99	2285.53
876.16	2174.94
876.33	2138.08
876.49	2267.10
876.66	2238.43
876.83	2195.42
876.99	2058.21
877.16	2240.48
877.32	2189.28
877.49	2162.66
877.66	2332.64
877.82	2359.26
877.99	2201.57
878.15	2256.86
878.32	2277.34
878.49	2234.33
878.65	2244.57
878.82	2326.49
878.98	2105.31
879.15	2346.97
879.32	2285.53
879.48	2250.72
879.65	2277.34
879.81	2179.04
879.98	2228.19
880.15	2140.13
880.31	2269.15
880.48	2121.70
880.64	2295.77
880.81	2230.24
880.97	2410.46
881.14	2361.31
881.31	2189.28
881.47	2473.95
881.64	2244.57
881.80	2056.16
881.97	2226.14
882.13	2260.96
882.30	2193.37
882.47	2248.67
882.63	2179.04
882.80	2250.72
882.96	2242.53
883.13	2441.18
883.29	2244.57
883.46	2176.99
883.62	2430.94
883.79	2183.13
883.95	2289.63
884.12	2193.37
884.29	2306.01
884.45	2291.68
884.62	2256.86
884.78	2185.18
884.95	2383.84
885.11	2240.48
885.28	2297.82
885.44	2217.95
885.61	2340.83
885.77	2328.54
885.94	2269.15
886.10	2226.14
886.27	2148.32
886.43	2430.94
886.60	2332.64
886.76	2158.56
886.93	2097.12
887.09	2277.34
887.26	2039.78
887.42	2187.23
887.59	2426.84
887.75	2465.75
887.92	2303.96
888.08	2291.68
888.25	2375.64
888.41	2346.97
888.58	2240.48
888.74	2101.22
888.91	2238.43
>>>>>End Processed Spectral Data<<<<<
