SpectraSuite Data File
++++++++++++++++++++++++++++++++++++
Date: Thu May 05 13:21:02 CEST 2016
User: root
Dark Spectrum Present: No
Reference Spectrum Present: No
Number of Sampled Component Spectra: 1
Spectrometers: USB4C02835
Integration Time (usec): 100000 (USB4C02835)
Spectra Averaged: 1 (USB4C02835)
Boxcar Smoothing: 0 (USB4C02835)
Correct for Electrical Dark: No (USB4C02835)
Strobe/Lamp Enabled: No (USB4C02835)
Correct for Detector Non-linearity: No (USB4C02835)
Correct for Stray Light: No (USB4C02835)
Number of Pixels in Processed Spectrum: 3648
>>>>>Begin Processed Spectral Data<<<<<
177.47	1857.51
177.69	1857.51
177.91	1857.51
178.13	1744.87
178.36	1816.55
178.58	2133.98
178.80	2297.82
179.02	2113.50
179.24	2203.61
179.46	2097.12
179.68	2170.85
179.90	2244.57
180.13	2277.34
180.35	2095.07
180.57	2084.83
180.79	2367.45
181.01	2293.72
181.23	2156.51
181.45	2234.33
181.67	2340.83
181.90	2330.59
182.12	2154.46
182.34	2039.78
182.56	2285.53
182.78	2234.33
183.00	2228.19
183.22	2250.72
183.44	2037.73
183.66	2473.95
183.89	2244.57
184.11	2248.67
184.33	2340.83
184.55	2312.16
184.77	2168.80
184.99	2207.71
185.21	2226.14
185.43	2494.43
185.65	2105.31
185.87	2162.66
186.10	2457.56
186.32	2475.99
186.54	2146.27
186.76	2211.81
186.98	2410.46
187.20	2303.96
187.42	2162.66
187.64	2084.83
187.86	2318.30
188.08	2291.68
188.30	2138.08
188.52	2189.28
188.75	2400.22
188.97	2381.79
189.19	2148.32
189.41	2166.75
189.63	2248.67
189.85	2211.81
190.07	2080.74
190.29	2070.50
190.51	2193.37
190.73	2056.16
190.95	2299.87
191.17	2187.23
191.39	2144.22
191.61	2228.19
191.84	2203.61
192.06	2211.81
192.28	2080.74
192.50	2598.87
192.72	2301.92
192.94	2201.57
193.16	2392.03
193.38	2293.72
193.60	2084.83
193.82	2279.39
194.04	2398.17
194.26	2283.49
194.48	2258.91
194.70	2140.13
194.92	2244.57
195.14	2349.02
195.36	2152.42
195.58	2232.29
195.80	2236.38
196.02	2205.66
196.24	2195.42
196.46	2267.10
196.69	2220.00
196.91	2439.13
197.13	2017.25
197.35	2115.55
197.57	2387.93
197.79	2291.68
198.01	2226.14
198.23	2220.00
198.45	2291.68
198.67	2176.99
198.89	2084.83
199.11	2252.77
199.33	2189.28
199.55	2101.22
199.77	2170.85
199.99	2281.44
200.21	2250.72
200.43	2285.53
200.65	1998.82
200.87	2060.26
201.09	2297.82
201.31	2152.42
201.53	2332.64
201.75	2236.38
201.97	2299.87
202.19	2254.81
202.41	2220.00
202.63	2383.84
202.85	2242.53
203.07	2238.43
203.29	2088.93
203.51	2105.31
203.73	2168.80
203.95	2652.12
204.17	2217.95
204.39	2234.33
204.61	2299.87
204.83	2248.67
205.05	2328.54
205.27	2228.19
205.49	2496.47
205.71	2275.29
205.93	2150.37
206.15	2127.84
206.37	2279.39
206.59	2285.53
206.81	2101.22
207.03	2129.89
207.25	2197.47
207.47	2306.01
207.69	2250.72
207.91	2316.25
208.13	2353.12
208.34	2195.42
208.56	2125.79
208.78	2252.77
209.00	2181.09
209.22	2226.14
209.44	2113.50
209.66	2109.41
209.88	2322.40
210.10	2179.04
210.32	2160.61
210.54	2334.68
210.76	2170.85
210.98	2367.45
211.20	2031.58
211.42	2166.75
211.64	2451.42
211.86	2301.92
212.08	2277.34
212.30	2183.13
212.52	2168.80
212.74	2349.02
212.96	2199.52
213.17	2211.81
213.39	2351.07
213.61	2324.44
213.83	2205.66
214.05	2144.22
214.27	2412.51
214.49	2187.23
214.71	2115.55
214.93	2299.87
215.15	2289.63
215.37	2334.68
215.59	2023.39
215.81	2244.57
216.03	2381.79
216.24	2250.72
216.46	2238.43
216.68	2248.67
216.90	2318.30
217.12	2371.55
217.34	2164.70
217.56	2291.68
217.78	2330.59
218.00	2209.76
218.22	2252.77
218.44	2299.87
218.66	2312.16
218.87	2408.41
219.09	2174.94
219.31	2193.37
219.53	2303.96
219.75	2201.57
219.97	2150.37
220.19	2168.80
220.41	2222.05
220.63	2375.64
220.85	2252.77
221.06	2097.12
221.28	2430.94
221.50	2332.64
221.72	2189.28
221.94	2113.50
222.16	2232.29
222.38	2334.68
222.60	2203.61
222.82	2215.90
223.03	2258.91
223.25	2254.81
223.47	2242.53
223.69	2346.97
223.91	2387.93
224.13	2220.00
224.35	2125.79
224.57	2265.05
224.78	2291.68
225.00	2150.37
225.22	2273.25
225.44	2101.22
225.66	2336.73
225.88	2207.71
226.10	2236.38
226.32	2166.75
226.53	2420.70
226.75	2232.29
226.97	2207.71
227.19	2179.04
227.41	2133.98
227.63	2197.47
227.85	2062.30
228.06	2250.72
228.28	2326.49
228.50	2318.30
228.72	2131.94
228.94	2105.31
229.16	2148.32
229.37	2230.24
229.59	2142.18
229.81	2242.53
230.03	2283.49
230.25	2179.04
230.47	2109.41
230.69	2115.55
230.90	2326.49
231.12	2170.85
231.34	2224.09
231.56	2254.81
231.78	2172.89
232.00	2299.87
232.21	2205.66
232.43	2217.95
232.65	2090.98
232.87	2228.19
233.09	2084.83
233.30	2121.70
233.52	2359.26
233.74	2238.43
233.96	2121.70
234.18	2170.85
234.40	2193.37
234.61	2457.56
234.83	2056.16
235.05	2117.60
235.27	2527.19
235.49	2387.93
235.70	2142.18
235.92	2250.72
236.14	2283.49
236.36	2580.44
236.58	2095.07
236.79	2156.51
237.01	2271.20
237.23	2232.29
237.45	2299.87
237.67	2152.42
237.88	2277.34
238.10	2449.37
238.32	2152.42
238.54	2234.33
238.76	2209.76
238.97	2209.76
239.19	2207.71
239.41	2283.49
239.63	2320.35
239.85	2170.85
240.06	2203.61
240.28	2138.08
240.50	2334.68
240.72	2275.29
240.93	2170.85
241.15	2252.77
241.37	2252.77
241.59	2328.54
241.81	2222.05
242.02	2248.67
242.24	2267.10
242.46	2246.62
242.68	2056.16
242.89	2193.37
243.11	2398.17
243.33	2258.91
243.55	2185.18
243.76	2133.98
243.98	2185.18
244.20	2269.15
244.42	2267.10
244.64	2203.61
244.85	2195.42
245.07	2199.52
245.29	2168.80
245.51	2174.94
245.72	2310.11
245.94	2375.64
246.16	2168.80
246.38	2203.61
246.59	2215.90
246.81	2146.27
247.03	2123.74
247.24	2031.58
247.46	2228.19
247.68	2326.49
247.90	2158.56
248.11	2105.31
248.33	2314.20
248.55	2267.10
248.77	2230.24
248.98	2240.48
249.20	2420.70
249.42	2201.57
249.64	2263.01
249.85	2138.08
250.07	2244.57
250.29	2287.58
250.50	2238.43
250.72	2117.60
250.94	2281.44
251.16	2437.08
251.37	2213.85
251.59	2199.52
251.81	2263.01
252.02	2422.75
252.24	2103.26
252.46	2252.77
252.68	2222.05
252.89	2179.04
253.11	2033.63
253.33	2263.01
253.54	2351.07
253.76	2121.70
253.98	2095.07
254.20	2160.61
254.41	2199.52
254.63	2252.77
254.85	2121.70
255.06	2207.71
255.28	2375.64
255.50	2281.44
255.71	2158.56
255.93	2054.11
256.15	2254.81
256.36	2297.82
256.58	2105.31
256.80	2172.89
257.02	2258.91
257.23	2195.42
257.45	2179.04
257.67	2301.92
257.88	2115.55
258.10	2295.77
258.32	2187.23
258.53	2254.81
258.75	2404.32
258.97	2107.36
259.18	2201.57
259.40	2127.84
259.62	2449.37
259.83	2375.64
260.05	2277.34
260.27	2701.27
260.48	2256.86
260.70	2144.22
260.92	2203.61
261.13	2179.04
261.35	2254.81
261.57	2287.58
261.78	2095.07
262.00	2113.50
262.22	2332.64
262.43	2238.43
262.65	2207.71
262.86	2267.10
263.08	2535.39
263.30	2287.58
263.51	1949.67
263.73	2082.78
263.95	2410.46
264.16	2189.28
264.38	2138.08
264.60	2260.96
264.81	2230.24
265.03	2381.79
265.25	2318.30
265.46	2170.85
265.68	2398.17
265.89	2369.50
266.11	2039.78
266.33	2166.75
266.54	2310.11
266.76	2256.86
266.98	2260.96
267.19	2277.34
267.41	2400.22
267.62	2260.96
267.84	2052.06
268.06	2289.63
268.27	2258.91
268.49	2332.64
268.70	2252.77
268.92	2185.18
269.14	2138.08
269.35	2179.04
269.57	2236.38
269.79	2289.63
270.00	2187.23
270.22	2424.80
270.43	2088.93
270.65	2031.58
270.87	2314.20
271.08	2244.57
271.30	2308.06
271.51	2201.57
271.73	2310.11
271.95	2504.67
272.16	2174.94
272.38	2252.77
272.59	2193.37
272.81	2275.29
273.02	2226.14
273.24	2220.00
273.46	2363.36
273.67	2138.08
273.89	2183.13
274.10	2097.12
274.32	2402.27
274.54	2308.06
274.75	2265.05
274.97	2203.61
275.18	2316.25
275.40	2279.39
275.61	2162.66
275.83	2183.13
276.05	2154.46
276.26	2240.48
276.48	2277.34
276.69	2107.36
276.91	2297.82
277.12	2387.93
277.34	2326.49
277.55	2351.07
277.77	2275.29
277.99	2244.57
278.20	2131.94
278.42	2187.23
278.63	2095.07
278.85	2097.12
279.06	2119.65
279.28	2310.11
279.49	2340.83
279.71	2283.49
279.93	2193.37
280.14	2285.53
280.36	2193.37
280.57	2371.55
280.79	2252.77
281.00	2148.32
281.22	2185.18
281.43	2453.47
281.65	2060.26
281.86	2148.32
282.08	2211.81
282.29	2445.27
282.51	2078.69
282.73	2101.22
282.94	2121.70
283.16	2318.30
283.37	2314.20
283.59	2263.01
283.80	2258.91
284.02	2344.92
284.23	2263.01
284.45	2176.99
284.66	2086.88
284.88	2185.18
285.09	2228.19
285.31	2314.20
285.52	2291.68
285.74	2088.93
285.95	2338.78
286.17	2283.49
286.38	2408.41
286.60	2201.57
286.81	2213.85
287.03	2160.61
287.24	2250.72
287.46	2293.72
287.67	2211.81
287.89	2367.45
288.10	2244.57
288.32	2269.15
288.53	2371.55
288.75	2306.01
288.96	2424.80
289.18	2205.66
289.39	2187.23
289.61	2289.63
289.82	2467.80
290.04	2375.64
290.25	2170.85
290.47	2252.77
290.68	2176.99
290.90	2297.82
291.11	2056.16
291.33	2375.64
291.54	2144.22
291.76	2250.72
291.97	2166.75
292.18	2240.48
292.40	2176.99
292.61	2220.00
292.83	2422.75
293.04	2273.25
293.26	2207.71
293.47	2187.23
293.69	2082.78
293.90	2152.42
294.12	2326.49
294.33	2310.11
294.55	2226.14
294.76	2314.20
294.97	2316.25
295.19	2490.33
295.40	2242.53
295.62	2213.85
295.83	2408.41
296.05	2209.76
296.26	2375.64
296.48	2133.98
296.69	2244.57
296.90	2310.11
297.12	2285.53
297.33	2338.78
297.55	2234.33
297.76	2326.49
297.98	2269.15
298.19	2179.04
298.41	2236.38
298.62	2148.32
298.83	2365.40
299.05	2267.10
299.26	2238.43
299.48	2146.27
299.69	2248.67
299.90	2213.85
300.12	2201.57
300.33	2283.49
300.55	2154.46
300.76	2303.96
300.98	2217.95
301.19	2293.72
301.40	2207.71
301.62	2220.00
301.83	2226.14
302.05	2291.68
302.26	2105.31
302.47	2248.67
302.69	2207.71
302.90	2312.16
303.12	1970.15
303.33	2314.20
303.54	2416.60
303.76	2228.19
303.97	2209.76
304.19	2424.80
304.40	2189.28
304.61	2260.96
304.83	2383.84
305.04	2269.15
305.26	2269.15
305.47	2226.14
305.68	2187.23
305.90	2109.41
306.11	2326.49
306.33	2322.40
306.54	2172.89
306.75	2215.90
306.97	2133.98
307.18	2176.99
307.39	2152.42
307.61	2295.77
307.82	2244.57
308.04	2363.36
308.25	2168.80
308.46	2269.15
308.68	2338.78
308.89	2242.53
309.10	2396.12
309.32	2211.81
309.53	2234.33
309.74	2318.30
309.96	2191.33
310.17	2330.59
310.39	2174.94
310.60	2205.66
310.81	2293.72
311.03	2133.98
311.24	2349.02
311.45	2195.42
311.67	2447.32
311.88	2293.72
312.09	2170.85
312.31	2224.09
312.52	2162.66
312.73	2211.81
312.95	2121.70
313.16	2146.27
313.37	2316.25
313.59	2279.39
313.80	2365.40
314.01	2420.70
314.23	2211.81
314.44	2148.32
314.65	2111.46
314.87	2256.86
315.08	2211.81
315.29	2195.42
315.51	2142.18
315.72	2058.21
315.93	2383.84
316.15	2234.33
316.36	2191.33
316.57	2273.25
316.79	2275.29
317.00	2144.22
317.21	2285.53
317.43	2232.29
317.64	2365.40
317.85	2131.94
318.07	2195.42
318.28	2183.13
318.49	2328.54
318.70	2545.63
318.92	2385.88
319.13	2383.84
319.34	2459.61
319.56	2314.20
319.77	2389.98
319.98	2353.12
320.20	2428.89
320.41	2289.63
320.62	2367.45
320.83	2176.99
321.05	2430.94
321.26	2281.44
321.47	2195.42
321.69	2371.55
321.90	2086.88
322.11	2158.56
322.32	2299.87
322.54	2273.25
322.75	2168.80
322.96	2504.67
323.18	2111.46
323.39	2103.26
323.60	2125.79
323.81	2269.15
324.03	2220.00
324.24	2215.90
324.45	2277.34
324.66	2154.46
324.88	2420.70
325.09	2367.45
325.30	2220.00
325.52	2258.91
325.73	2258.91
325.94	2240.48
326.15	2103.26
326.37	2168.80
326.58	2371.55
326.79	2383.84
327.00	2117.60
327.22	2260.96
327.43	2170.85
327.64	2156.51
327.85	2211.81
328.07	2275.29
328.28	2357.21
328.49	2228.19
328.70	2291.68
328.92	2236.38
329.13	2267.10
329.34	2238.43
329.55	2443.23
329.76	2215.90
329.98	2226.14
330.19	2414.56
330.40	2314.20
330.61	2265.05
330.83	2326.49
331.04	2168.80
331.25	2158.56
331.46	2242.53
331.68	2138.08
331.89	2310.11
332.10	2220.00
332.31	2097.12
332.52	2256.86
332.74	2363.36
332.95	2140.13
333.16	2176.99
333.37	2342.88
333.58	2293.72
333.80	2252.77
334.01	2142.18
334.22	2238.43
334.43	2191.33
334.64	2236.38
334.86	2109.41
335.07	2136.03
335.28	2385.88
335.49	2136.03
335.70	2222.05
335.92	2349.02
336.13	2430.94
336.34	2338.78
336.55	2179.04
336.76	2250.72
336.98	2076.64
337.19	2215.90
337.40	2363.36
337.61	2545.63
337.82	2156.51
338.04	2318.30
338.25	2146.27
338.46	2179.04
338.67	2215.90
338.88	2164.70
339.09	2152.42
339.31	2179.04
339.52	2158.56
339.73	2131.94
339.94	2252.77
340.15	2349.02
340.36	2215.90
340.58	2242.53
340.79	2146.27
341.00	2314.20
341.21	2224.09
341.42	2326.49
341.63	2242.53
341.85	2318.30
342.06	2293.72
342.27	2138.08
342.48	2396.12
342.69	2115.55
342.90	2228.19
343.12	2408.41
343.33	2211.81
343.54	2338.78
343.75	2408.41
343.96	2269.15
344.17	2136.03
344.38	2256.86
344.60	2144.22
344.81	2072.54
345.02	2252.77
345.23	2367.45
345.44	2457.56
345.65	2269.15
345.86	2263.01
346.07	2246.62
346.29	2197.47
346.50	2328.54
346.71	2279.39
346.92	2381.79
347.13	2490.33
347.34	2220.00
347.55	2211.81
347.76	2310.11
347.98	2121.70
348.19	2310.11
348.40	2367.45
348.61	2154.46
348.82	2342.88
349.03	2267.10
349.24	2152.42
349.45	2432.99
349.66	2078.69
349.88	2213.85
350.09	2183.13
350.30	2439.13
350.51	2373.60
350.72	2281.44
350.93	2281.44
351.14	2260.96
351.35	2293.72
351.56	2201.57
351.77	2301.92
351.99	2260.96
352.20	2402.27
352.41	2263.01
352.62	2035.68
352.83	2252.77
353.04	2252.77
353.25	2254.81
353.46	2340.83
353.67	2400.22
353.88	2109.41
354.09	2191.33
354.30	2285.53
354.52	2338.78
354.73	2256.86
354.94	2191.33
355.15	2285.53
355.36	2408.41
355.57	2271.20
355.78	2265.05
355.99	2172.89
356.20	2187.23
356.41	2363.36
356.62	2283.49
356.83	2228.19
357.04	2387.93
357.25	2129.89
357.46	2211.81
357.68	2056.16
357.89	2164.70
358.10	2285.53
358.31	2203.61
358.52	2213.85
358.73	2220.00
358.94	2189.28
359.15	2226.14
359.36	2346.97
359.57	2299.87
359.78	2250.72
359.99	2365.40
360.20	2129.89
360.41	2207.71
360.62	2269.15
360.83	2187.23
361.04	2293.72
361.25	2326.49
361.46	2478.04
361.67	2291.68
361.88	2277.34
362.09	2367.45
362.30	2308.06
362.51	2099.17
362.72	2271.20
362.93	2371.55
363.14	2310.11
363.35	2252.77
363.56	2125.79
363.78	2324.44
363.99	2275.29
364.20	2215.90
364.41	2269.15
364.62	2441.18
364.83	2310.11
365.04	2179.04
365.25	2205.66
365.46	2480.09
365.67	2160.61
365.88	2273.25
366.09	2220.00
366.30	2119.65
366.51	2281.44
366.72	2142.18
366.93	2236.38
367.14	2199.52
367.35	2346.97
367.56	2215.90
367.77	2301.92
367.98	2314.20
368.18	2279.39
368.39	2297.82
368.60	2123.74
368.81	2326.49
369.02	2322.40
369.23	2277.34
369.44	2074.59
369.65	2244.57
369.86	2281.44
370.07	2359.26
370.28	2154.46
370.49	2281.44
370.70	2287.58
370.91	2154.46
371.12	2121.70
371.33	2308.06
371.54	2215.90
371.75	2451.42
371.96	2076.64
372.17	2160.61
372.38	2215.90
372.59	2285.53
372.80	2154.46
373.01	2179.04
373.22	2254.81
373.43	2224.09
373.64	2090.98
373.85	2357.21
374.06	2473.95
374.26	2365.40
374.47	2306.01
374.68	2357.21
374.89	2338.78
375.10	2285.53
375.31	2277.34
375.52	2318.30
375.73	2289.63
375.94	2123.74
376.15	2312.16
376.36	2187.23
376.57	2125.79
376.78	2242.53
376.99	2211.81
377.20	2314.20
377.40	2281.44
377.61	2424.80
377.82	2146.27
378.03	2506.71
378.24	2340.83
378.45	2234.33
378.66	2252.77
378.87	2045.92
379.08	2105.31
379.29	2187.23
379.50	2330.59
379.71	2246.62
379.91	2330.59
380.12	2195.42
380.33	2236.38
380.54	2238.43
380.75	2254.81
380.96	2199.52
381.17	2310.11
381.38	2185.18
381.59	2242.53
381.80	2297.82
382.00	2420.70
382.21	2244.57
382.42	2363.36
382.63	2361.31
382.84	2297.82
383.05	2273.25
383.26	2463.71
383.47	2334.68
383.68	2379.74
383.88	2340.83
384.09	2230.24
384.30	2404.32
384.51	2351.07
384.72	2287.58
384.93	2121.70
385.14	2301.92
385.35	2334.68
385.55	2117.60
385.76	2418.65
385.97	2209.76
386.18	2195.42
386.39	2269.15
386.60	2228.19
386.81	2187.23
387.02	2150.37
387.22	2095.07
387.43	2357.21
387.64	2260.96
387.85	2412.51
388.06	2531.29
388.27	3958.72
388.48	8163.20
388.68	11669.33
388.89	13981.48
389.10	15150.87
389.31	13963.05
389.52	10999.64
389.73	9504.62
389.93	8517.50
390.14	8171.40
390.35	7081.88
390.56	6418.33
390.77	5214.13
390.98	3932.10
391.18	3213.26
391.39	2805.72
391.60	2424.80
391.81	2400.22
392.02	2224.09
392.23	2490.33
392.43	2289.63
392.64	2320.35
392.85	2295.77
393.06	2432.99
393.27	2299.87
393.47	2119.65
393.68	2285.53
393.89	2273.25
394.10	2361.31
394.31	2109.41
394.52	2191.33
394.72	2215.90
394.93	2381.79
395.14	2158.56
395.35	2312.16
395.56	2166.75
395.76	2277.34
395.97	2295.77
396.18	2412.51
396.39	2332.64
396.60	2764.76
396.80	2564.06
397.01	2363.36
397.22	2428.89
397.43	2396.12
397.64	2256.86
397.84	2389.98
398.05	2531.29
398.26	2250.72
398.47	2369.50
398.67	2297.82
398.88	2211.81
399.09	2324.44
399.30	2174.94
399.51	2285.53
399.71	2244.57
399.92	2246.62
400.13	2326.49
400.34	2248.67
400.54	2260.96
400.75	2486.23
400.96	2275.29
401.17	2453.47
401.37	2230.24
401.58	2297.82
401.79	2310.11
402.00	2293.72
402.21	2643.93
402.41	2559.96
402.62	2594.78
402.83	2695.13
403.04	2662.36
403.24	2791.38
403.45	2400.22
403.66	2627.54
403.87	2439.13
404.07	2498.52
404.28	2510.81
404.49	2539.48
404.70	2371.55
404.90	2351.07
405.11	2256.86
405.32	2269.15
405.52	2203.61
405.73	2197.47
405.94	2189.28
406.15	2224.09
406.35	2367.45
406.56	2389.98
406.77	2301.92
406.98	2217.95
407.18	2252.77
407.39	2465.75
407.60	2285.53
407.80	2289.63
408.01	2240.48
408.22	2265.05
408.43	2121.70
408.63	2355.16
408.84	2314.20
409.05	2416.60
409.25	2150.37
409.46	2140.13
409.67	2203.61
409.88	2211.81
410.08	2285.53
410.29	2203.61
410.50	2346.97
410.70	2252.77
410.91	2154.46
411.12	2232.29
411.32	2211.81
411.53	2213.85
411.74	2355.16
411.95	2387.93
412.15	2396.12
412.36	2322.40
412.57	2316.25
412.77	2359.26
412.98	2285.53
413.19	2215.90
413.39	2252.77
413.60	2263.01
413.81	2486.23
414.01	2203.61
414.22	2318.30
414.43	2316.25
414.63	2217.95
414.84	2346.97
415.05	2277.34
415.25	2123.74
415.46	2375.64
415.67	2232.29
415.87	2291.68
416.08	2236.38
416.29	2281.44
416.49	2299.87
416.70	2158.56
416.91	2201.57
417.11	2279.39
417.32	2285.53
417.53	2387.93
417.73	2293.72
417.94	2217.95
418.15	2289.63
418.35	2277.34
418.56	2275.29
418.77	2514.91
418.97	2189.28
419.18	2232.29
419.38	2103.26
419.59	2312.16
419.80	2377.69
420.00	2265.05
420.21	2176.99
420.42	2375.64
420.62	2326.49
420.83	2201.57
421.04	2232.29
421.24	2244.57
421.45	2445.27
421.65	2379.74
421.86	2242.53
422.07	2308.06
422.27	2275.29
422.48	2285.53
422.69	2201.57
422.89	2256.86
423.10	2172.89
423.30	2160.61
423.51	2234.33
423.72	2303.96
423.92	2301.92
424.13	2162.66
424.33	2185.18
424.54	2269.15
424.75	2336.73
424.95	2473.95
425.16	2265.05
425.36	2256.86
425.57	2430.94
425.78	2269.15
425.98	2389.98
426.19	2197.47
426.39	2160.61
426.60	2324.44
426.81	2430.94
427.01	2275.29
427.22	2199.52
427.42	2097.12
427.63	2164.70
427.83	2308.06
428.04	2432.99
428.25	2355.16
428.45	2328.54
428.66	2371.55
428.86	2242.53
429.07	2238.43
429.28	2252.77
429.48	2297.82
429.69	2152.42
429.89	2285.53
430.10	2256.86
430.30	2279.39
430.51	2322.40
430.71	2166.75
430.92	2236.38
431.13	2195.42
431.33	2267.10
431.54	2179.04
431.74	2463.71
431.95	2494.43
432.15	2193.37
432.36	2263.01
432.56	2322.40
432.77	2406.36
432.98	2359.26
433.18	2310.11
433.39	2162.66
433.59	2220.00
433.80	2443.23
434.00	2441.18
434.21	2215.90
434.41	2164.70
434.62	2555.86
434.82	2123.74
435.03	2133.98
435.23	2289.63
435.44	2093.02
435.64	2244.57
435.85	2263.01
436.06	2326.49
436.26	2312.16
436.47	2215.90
436.67	2162.66
436.88	2199.52
437.08	2328.54
437.29	2322.40
437.49	2285.53
437.70	2404.32
437.90	2277.34
438.11	2441.18
438.31	2293.72
438.52	2539.48
438.72	2504.67
438.93	2535.39
439.13	2353.12
439.34	2408.41
439.54	2291.68
439.75	2353.12
439.95	2332.64
440.16	2185.18
440.36	2275.29
440.57	2291.68
440.77	2258.91
440.98	2301.92
441.18	2297.82
441.39	2211.81
441.59	2097.12
441.80	2478.04
442.00	2240.48
442.21	2351.07
442.41	2121.70
442.62	2316.25
442.82	2277.34
443.02	2146.27
443.23	2314.20
443.43	2222.05
443.64	2441.18
443.84	2181.09
444.05	2330.59
444.25	2236.38
444.46	2281.44
444.66	2263.01
444.87	2447.32
445.07	2187.23
445.28	2301.92
445.48	2400.22
445.69	2365.40
445.89	2525.15
446.09	2236.38
446.30	2457.56
446.50	2822.10
446.71	4403.13
446.91	5531.56
447.12	6356.90
447.32	6803.35
447.53	6252.45
447.73	5154.74
447.93	4661.18
448.14	4274.11
448.34	4036.55
448.55	3647.43
448.75	3553.23
448.96	3340.24
449.16	3055.57
449.36	2832.34
449.57	2545.63
449.77	2373.60
449.98	2230.24
450.18	2445.27
450.39	2351.07
450.59	2422.75
450.79	2260.96
451.00	2170.85
451.20	2322.40
451.41	2338.78
451.61	2277.34
451.81	2211.81
452.02	2273.25
452.22	2269.15
452.43	2232.29
452.63	2222.05
452.84	2236.38
453.04	2234.33
453.24	2258.91
453.45	2136.03
453.65	2228.19
453.86	2295.77
454.06	2205.66
454.26	2277.34
454.47	2154.46
454.67	2371.55
454.87	2316.25
455.08	2269.15
455.28	2389.98
455.49	2322.40
455.69	2250.72
455.89	2514.91
456.10	2432.99
456.30	2174.94
456.51	2334.68
456.71	2289.63
456.91	2236.38
457.12	2244.57
457.32	2256.86
457.52	2090.98
457.73	2273.25
457.93	2297.82
458.14	2228.19
458.34	2144.22
458.54	2199.52
458.75	2287.58
458.95	2400.22
459.15	2310.11
459.36	2236.38
459.56	2273.25
459.76	2455.51
459.97	2258.91
460.17	2240.48
460.37	2316.25
460.58	2246.62
460.78	2381.79
460.99	2209.76
461.19	2258.91
461.39	2224.09
461.60	2230.24
461.80	2312.16
462.00	2138.08
462.21	2207.71
462.41	2215.90
462.61	2154.46
462.82	2062.30
463.02	2320.35
463.22	2195.42
463.43	2357.21
463.63	2220.00
463.83	2398.17
464.04	2351.07
464.24	2238.43
464.44	2162.66
464.64	2293.72
464.85	2279.39
465.05	2361.31
465.25	2346.97
465.46	2234.33
465.66	2295.77
465.86	2394.08
466.07	2293.72
466.27	2351.07
466.47	2125.79
466.68	2111.46
466.88	2340.83
467.08	2336.73
467.29	2342.88
467.49	2269.15
467.69	2187.23
467.89	2330.59
468.10	2236.38
468.30	2271.20
468.50	2326.49
468.71	2324.44
468.91	2093.02
469.11	2437.08
469.31	2205.66
469.52	2150.37
469.72	2535.39
469.92	2467.80
470.13	2201.57
470.33	2351.07
470.53	2273.25
470.73	2672.60
470.94	3037.14
471.14	3196.88
471.34	3489.74
471.54	3340.24
471.75	3035.09
471.95	2842.58
472.15	2742.23
472.36	2818.00
472.56	2695.13
472.76	2740.18
472.96	2725.85
473.17	2504.67
473.37	2580.44
473.57	2275.29
473.77	2324.44
473.98	2238.43
474.18	2111.46
474.38	2564.06
474.58	2267.10
474.79	2117.60
474.99	2299.87
475.19	2424.80
475.39	2144.22
475.60	2277.34
475.80	2201.57
476.00	2361.31
476.20	2252.77
476.41	2289.63
476.61	2416.60
476.81	2377.69
477.01	2131.94
477.21	2496.47
477.42	2410.46
477.62	2203.61
477.82	2355.16
478.02	2213.85
478.23	2289.63
478.43	2160.61
478.63	2222.05
478.83	2340.83
479.03	2289.63
479.24	2379.74
479.44	2441.18
479.64	2220.00
479.84	2054.11
480.04	2207.71
480.25	2379.74
480.45	2119.65
480.65	2193.37
480.85	2344.92
481.06	2109.41
481.26	2271.20
481.46	2303.96
481.66	2318.30
481.86	2129.89
482.06	2318.30
482.27	2236.38
482.47	2187.23
482.67	2297.82
482.87	2242.53
483.07	2326.49
483.28	2326.49
483.48	2170.85
483.68	2236.38
483.88	2133.98
484.08	2113.50
484.29	2176.99
484.49	2244.57
484.69	2103.26
484.89	2367.45
485.09	2387.93
485.29	2379.74
485.50	2326.49
485.70	2263.01
485.90	2441.18
486.10	2342.88
486.30	2279.39
486.50	2396.12
486.71	2308.06
486.91	2357.21
487.11	2301.92
487.31	2152.42
487.51	2385.88
487.71	2146.27
487.91	2226.14
488.12	2150.37
488.32	2037.73
488.52	2215.90
488.72	2076.64
488.92	2252.77
489.12	2355.16
489.32	2359.26
489.53	2353.12
489.73	2168.80
489.93	2449.37
490.13	2207.71
490.33	2160.61
490.53	2297.82
490.73	2367.45
490.94	2080.74
491.14	2297.82
491.34	2357.21
491.54	2529.24
491.74	3172.30
491.94	3719.11
492.14	4087.75
492.34	4126.66
492.54	3833.80
492.75	3211.22
492.95	3215.31
493.15	3006.42
493.35	2979.79
493.55	2811.86
493.75	2654.17
493.95	2809.81
494.15	2650.07
494.35	2363.36
494.56	2408.41
494.76	2246.62
494.96	2332.64
495.16	2342.88
495.36	2273.25
495.56	2199.52
495.76	2201.57
495.96	2246.62
496.16	2201.57
496.36	2500.57
496.56	2269.15
496.77	2269.15
496.97	2308.06
497.17	2500.57
497.37	2226.14
497.57	2310.11
497.77	2265.05
497.97	2170.85
498.17	2277.34
498.37	2242.53
498.57	2310.11
498.77	2260.96
498.97	2322.40
499.17	2475.99
499.38	2250.72
499.58	2357.21
499.78	2254.81
499.98	2398.17
500.18	2195.42
500.38	2248.67
500.58	2482.14
500.78	2787.29
500.98	5099.44
501.18	7227.28
501.38	8814.46
501.58	9725.80
501.78	9412.46
501.98	7655.31
502.18	6428.57
502.38	5416.88
502.58	5207.98
502.78	4655.03
502.98	4483.00
503.18	4239.30
503.38	3876.80
503.59	3510.22
503.79	3149.78
503.99	3035.09
504.19	2834.39
504.39	2893.78
504.59	2930.64
504.79	2811.86
504.99	2867.16
505.19	2559.96
505.39	2459.61
505.59	2635.74
505.79	2510.81
505.99	2400.22
506.19	2326.49
506.39	2447.32
506.59	2254.81
506.79	2232.29
506.99	2387.93
507.19	2291.68
507.39	2291.68
507.59	2217.95
507.79	2197.47
507.99	2172.89
508.19	2250.72
508.39	2232.29
508.59	2244.57
508.79	2369.50
508.99	2461.66
509.19	2176.99
509.39	2244.57
509.59	2162.66
509.79	2160.61
509.99	2256.86
510.19	2271.20
510.39	2346.97
510.59	2275.29
510.79	2248.67
510.99	2193.37
511.19	2349.02
511.39	2430.94
511.59	2453.47
511.79	2369.50
511.99	2217.95
512.19	2486.23
512.38	2299.87
512.58	2230.24
512.78	2293.72
512.98	2381.79
513.18	2367.45
513.38	2138.08
513.58	2273.25
513.78	2228.19
513.98	2271.20
514.18	2244.57
514.38	2234.33
514.58	2226.14
514.78	2244.57
514.98	2176.99
515.18	2242.53
515.38	2111.46
515.58	2500.57
515.78	2172.89
515.98	2252.77
516.18	2351.07
516.38	2260.96
516.57	2156.51
516.77	2150.37
516.97	2344.92
517.17	2158.56
517.37	2136.03
517.57	2303.96
517.77	2230.24
517.97	2183.13
518.17	2306.01
518.37	2197.47
518.57	2174.94
518.77	2228.19
518.97	2242.53
519.16	2297.82
519.36	2310.11
519.56	2168.80
519.76	2281.44
519.96	2263.01
520.16	2416.60
520.36	2205.66
520.56	2426.84
520.76	2234.33
520.96	2252.77
521.16	2363.36
521.35	2351.07
521.55	2426.84
521.75	2258.91
521.95	2162.66
522.15	2213.85
522.35	2125.79
522.55	2224.09
522.75	2324.44
522.95	2201.57
523.14	2211.81
523.34	2334.68
523.54	2252.77
523.74	2353.12
523.94	2260.96
524.14	2144.22
524.34	2293.72
524.54	2416.60
524.73	2254.81
524.93	2334.68
525.13	2310.11
525.33	2097.12
525.53	2414.56
525.73	2295.77
525.93	2316.25
526.13	2203.61
526.32	2211.81
526.52	2340.83
526.72	2330.59
526.92	2312.16
527.12	2242.53
527.32	2162.66
527.52	2232.29
527.71	2228.19
527.91	2242.53
528.11	2211.81
528.31	2299.87
528.51	2201.57
528.71	2342.88
528.90	2322.40
529.10	2369.50
529.30	2402.27
529.50	2103.26
529.70	2277.34
529.90	2310.11
530.09	2295.77
530.29	2152.42
530.49	2230.24
530.69	2547.67
530.89	2265.05
531.09	2330.59
531.28	2144.22
531.48	2432.99
531.68	2359.26
531.88	2244.57
532.08	2402.27
532.28	2191.33
532.47	2256.86
532.67	2318.30
532.87	2287.58
533.07	2113.50
533.27	2332.64
533.46	2322.40
533.66	2295.77
533.86	2248.67
534.06	2320.35
534.26	2273.25
534.45	2174.94
534.65	2357.21
534.85	2312.16
535.05	2119.65
535.25	2318.30
535.44	2105.31
535.64	2334.68
535.84	2238.43
536.04	2234.33
536.24	2254.81
536.43	2183.13
536.63	2271.20
536.83	2187.23
537.03	2179.04
537.22	2160.61
537.42	2164.70
537.62	2236.38
537.82	2250.72
538.02	2369.50
538.21	2404.32
538.41	2547.67
538.61	2334.68
538.81	2269.15
539.00	2346.97
539.20	2131.94
539.40	2109.41
539.60	2226.14
539.79	2297.82
539.99	2232.29
540.19	2203.61
540.39	2193.37
540.58	2334.68
540.78	2332.64
540.98	2289.63
541.18	2371.55
541.37	2295.77
541.57	2256.86
541.77	2277.34
541.97	2211.81
542.16	2172.89
542.36	2224.09
542.56	2295.77
542.76	2396.12
542.95	2240.48
543.15	2359.26
543.35	2369.50
543.54	2193.37
543.74	2228.19
543.94	2389.98
544.14	2265.05
544.33	2234.33
544.53	2293.72
544.73	2201.57
544.93	2273.25
545.12	2121.70
545.32	2279.39
545.52	2258.91
545.71	2097.12
545.91	2189.28
546.11	2170.85
546.30	2156.51
546.50	2240.48
546.70	2324.44
546.90	2240.48
547.09	2015.20
547.29	2254.81
547.49	2326.49
547.68	2197.47
547.88	2154.46
548.08	2316.25
548.27	2740.18
548.47	2215.90
548.67	2185.18
548.87	2242.53
549.06	2199.52
549.26	2281.44
549.46	2238.43
549.65	2228.19
549.85	2195.42
550.05	2260.96
550.24	2115.55
550.44	2299.87
550.64	2185.18
550.83	2252.77
551.03	2443.23
551.23	2385.88
551.42	2361.31
551.62	2248.67
551.82	2215.90
552.01	2265.05
552.21	2269.15
552.41	2299.87
552.60	2469.85
552.80	2303.96
553.00	2166.75
553.19	2281.44
553.39	2443.23
553.59	2254.81
553.78	2310.11
553.98	2322.40
554.17	2170.85
554.37	2314.20
554.57	2260.96
554.76	2125.79
554.96	2213.85
555.16	2285.53
555.35	2273.25
555.55	2293.72
555.75	2326.49
555.94	2342.88
556.14	2062.30
556.33	2238.43
556.53	2357.21
556.73	2301.92
556.92	2392.03
557.12	2340.83
557.32	2516.95
557.51	2412.51
557.71	2316.25
557.90	2392.03
558.10	2367.45
558.30	2256.86
558.49	2250.72
558.69	2293.72
558.88	2357.21
559.08	2248.67
559.28	2220.00
559.47	2269.15
559.67	2383.84
559.86	2582.49
560.06	2248.67
560.26	2152.42
560.45	2285.53
560.65	2185.18
560.84	2396.12
561.04	2211.81
561.24	2324.44
561.43	2179.04
561.63	2375.64
561.82	2322.40
562.02	2250.72
562.22	2203.61
562.41	2152.42
562.61	2254.81
562.80	2197.47
563.00	2478.04
563.19	2217.95
563.39	2308.06
563.59	2330.59
563.78	2090.98
563.98	2095.07
564.17	2179.04
564.37	2076.64
564.56	2183.13
564.76	2111.46
564.96	2314.20
565.15	2293.72
565.35	2492.38
565.54	2226.14
565.74	2306.01
565.93	2285.53
566.13	2181.09
566.32	2250.72
566.52	2277.34
566.71	2185.18
566.91	2297.82
567.11	2303.96
567.30	2203.61
567.50	2340.83
567.69	2248.67
567.89	2275.29
568.08	2205.66
568.28	2301.92
568.47	2121.70
568.67	2328.54
568.86	2240.48
569.06	2430.94
569.25	2283.49
569.45	2125.79
569.64	2242.53
569.84	2293.72
570.04	2314.20
570.23	2193.37
570.43	2306.01
570.62	2277.34
570.82	2445.27
571.01	2131.94
571.21	2244.57
571.40	2166.75
571.60	2353.12
571.79	2308.06
571.99	2226.14
572.18	2176.99
572.38	2306.01
572.57	2170.85
572.77	2318.30
572.96	2523.10
573.16	2256.86
573.35	2217.95
573.55	2355.16
573.74	2351.07
573.94	2246.62
574.13	2252.77
574.33	2340.83
574.52	2363.36
574.71	2373.60
574.91	2316.25
575.10	2174.94
575.30	2154.46
575.49	2242.53
575.69	2207.71
575.88	2316.25
576.08	2279.39
576.27	2467.80
576.47	2310.11
576.66	2521.05
576.86	2408.41
577.05	2322.40
577.25	2398.17
577.44	2494.43
577.64	2312.16
577.83	2387.93
578.02	2189.28
578.22	2400.22
578.41	2568.15
578.61	2234.33
578.80	2105.31
579.00	2303.96
579.19	2301.92
579.39	2275.29
579.58	2344.92
579.77	2285.53
579.97	2478.04
580.16	2486.23
580.36	2334.68
580.55	2369.50
580.75	2299.87
580.94	2355.16
581.13	2424.80
581.33	2457.56
581.52	2385.88
581.72	2502.62
581.91	2375.64
582.11	2342.88
582.30	2416.60
582.49	2359.26
582.69	2527.19
582.88	2336.73
583.08	2310.11
583.27	2400.22
583.47	2269.15
583.66	2185.18
583.85	2183.13
584.05	2332.64
584.24	2432.99
584.44	2367.45
584.63	2414.56
584.82	2394.08
585.02	2457.56
585.21	2383.84
585.41	2396.12
585.60	2453.47
585.79	2502.62
585.99	2519.00
586.18	2439.13
586.37	2992.08
586.57	4734.90
586.76	13905.71
586.96	33537.54
587.15	47349.04
587.34	56726.69
587.54	61492.31
587.73	57197.72
587.93	40007.07
588.12	30318.13
588.31	24348.30
588.51	21092.03
588.70	19310.30
588.89	17532.66
589.09	15027.99
589.28	13090.62
589.47	10739.55
589.67	8253.31
589.86	6371.23
590.06	4718.52
590.25	3841.99
590.44	3239.89
590.64	2932.69
590.83	2537.43
591.02	2537.43
591.22	2432.99
591.41	2396.12
591.60	2344.92
591.80	2541.53
591.99	2195.42
592.18	2306.01
592.38	2316.25
592.57	2209.76
592.76	2310.11
592.96	2332.64
593.15	2263.01
593.34	2416.60
593.54	2281.44
593.73	2389.98
593.92	2260.96
594.12	2334.68
594.31	2252.77
594.50	2465.75
594.70	2467.80
594.89	2547.67
595.08	2201.57
595.28	2336.73
595.47	2664.41
595.66	2351.07
595.86	2201.57
596.05	2301.92
596.24	2215.90
596.43	2484.19
596.63	2432.99
596.82	2361.31
597.01	2488.28
597.21	2535.39
597.40	2291.68
597.59	2310.11
597.79	2269.15
597.98	2375.64
598.17	2357.21
598.36	2314.20
598.56	2351.07
598.75	2228.19
598.94	2291.68
599.14	2392.03
599.33	2187.23
599.52	2357.21
599.71	2392.03
599.91	2299.87
600.10	2332.64
600.29	2275.29
600.48	2252.77
600.68	2314.20
600.87	2351.07
601.06	2203.61
601.26	2275.29
601.45	2308.06
601.64	2260.96
601.83	2422.75
602.03	2275.29
602.22	2242.53
602.41	2422.75
602.60	2432.99
602.80	2363.36
602.99	2412.51
603.18	2310.11
603.37	2281.44
603.57	2299.87
603.76	2326.49
603.95	2338.78
604.14	2209.76
604.34	2220.00
604.53	2279.39
604.72	2258.91
604.91	2322.40
605.10	2377.69
605.30	2168.80
605.49	2504.67
605.68	2346.97
605.87	2301.92
606.07	2174.94
606.26	2303.96
606.45	2308.06
606.64	2287.58
606.84	2168.80
607.03	2277.34
607.22	2404.32
607.41	2260.96
607.60	2174.94
607.80	2330.59
607.99	2312.16
608.18	2293.72
608.37	2258.91
608.56	2160.61
608.76	2371.55
608.95	2398.17
609.14	2263.01
609.33	2500.57
609.52	2494.43
609.72	2422.75
609.91	2441.18
610.10	2248.67
610.29	2416.60
610.48	2371.55
610.68	2392.03
610.87	2414.56
611.06	2320.35
611.25	2299.87
611.44	2340.83
611.63	2217.95
611.83	2465.75
612.02	2121.70
612.21	2355.16
612.40	2097.12
612.59	2117.60
612.79	2152.42
612.98	2322.40
613.17	2424.80
613.36	2328.54
613.55	2445.27
613.74	2322.40
613.93	2320.35
614.13	2496.47
614.32	2471.90
614.51	2392.03
614.70	2258.91
614.89	2228.19
615.08	2422.75
615.28	2830.29
615.47	2187.23
615.66	2437.08
615.85	2287.58
616.04	2455.51
616.23	2287.58
616.42	2306.01
616.62	2291.68
616.81	2322.40
617.00	2179.04
617.19	2408.41
617.38	2244.57
617.57	2342.88
617.76	2387.93
617.95	2367.45
618.15	2289.63
618.34	2465.75
618.53	2211.81
618.72	2314.20
618.91	2392.03
619.10	2424.80
619.29	2246.62
619.48	2244.57
619.68	2125.79
619.87	2224.09
620.06	2197.47
620.25	2301.92
620.44	2146.27
620.63	2189.28
620.82	2308.06
621.01	2330.59
621.20	2260.96
621.39	2340.83
621.59	2299.87
621.78	2310.11
621.97	2299.87
622.16	2271.20
622.35	2371.55
622.54	2349.02
622.73	2359.26
622.92	2133.98
623.11	2408.41
623.30	2281.44
623.49	2342.88
623.68	2113.50
623.88	2392.03
624.07	2351.07
624.26	2142.18
624.45	2355.16
624.64	2281.44
624.83	2324.44
625.02	2238.43
625.21	2228.19
625.40	2303.96
625.59	2330.59
625.78	2256.86
625.97	2432.99
626.16	2432.99
626.35	2432.99
626.54	2381.79
626.74	2424.80
626.93	2301.92
627.12	2217.95
627.31	2398.17
627.50	2318.30
627.69	2299.87
627.88	2203.61
628.07	2281.44
628.26	2074.59
628.45	2154.46
628.64	2187.23
628.83	2275.29
629.02	2166.75
629.21	2293.72
629.40	2312.16
629.59	2211.81
629.78	2301.92
629.97	2340.83
630.16	2308.06
630.35	2330.59
630.54	2340.83
630.73	2146.27
630.92	2220.00
631.11	2152.42
631.30	2291.68
631.49	2379.74
631.68	2258.91
631.87	2279.39
632.06	2097.12
632.25	2543.58
632.44	2220.00
632.63	2346.97
632.82	2220.00
633.01	2236.38
633.20	2383.84
633.39	2338.78
633.58	2123.74
633.77	2359.26
633.96	2344.92
634.15	2349.02
634.34	2303.96
634.53	2359.26
634.72	2174.94
634.91	2140.13
635.10	2375.64
635.29	2267.10
635.48	2293.72
635.67	2230.24
635.86	2103.26
636.05	2469.85
636.24	2279.39
636.43	2260.96
636.62	2244.57
636.81	2052.06
637.00	2242.53
637.19	2328.54
637.38	2183.13
637.57	2205.66
637.76	2344.92
637.95	2414.56
638.14	2265.05
638.33	2426.84
638.52	2293.72
638.71	2129.89
638.89	2189.28
639.08	2570.20
639.27	2504.67
639.46	2512.86
639.65	2818.00
639.84	2867.16
640.03	2916.31
640.22	2912.21
640.41	2891.73
640.60	2488.28
640.79	2531.29
640.98	2471.90
641.17	2494.43
641.36	2443.23
641.55	2402.27
641.74	2306.01
641.92	2240.48
642.11	2189.28
642.30	2252.77
642.49	2228.19
642.68	2224.09
642.87	2295.77
643.06	2361.31
643.25	2183.13
643.44	2199.52
643.63	2293.72
643.82	2435.03
644.00	2183.13
644.19	2250.72
644.38	2179.04
644.57	2351.07
644.76	2258.91
644.95	2195.42
645.14	2342.88
645.33	2244.57
645.52	2306.01
645.71	2093.02
645.89	2150.37
646.08	2211.81
646.27	2160.61
646.46	2357.21
646.65	2160.61
646.84	2242.53
647.03	2205.66
647.22	2377.69
647.40	2240.48
647.59	2256.86
647.78	2076.64
647.97	2142.18
648.16	2203.61
648.35	2346.97
648.54	2371.55
648.73	2281.44
648.91	2289.63
649.10	2254.81
649.29	2224.09
649.48	2232.29
649.67	2316.25
649.86	2318.30
650.05	2271.20
650.23	2506.71
650.42	2299.87
650.61	2514.91
650.80	2443.23
650.99	2498.52
651.18	2392.03
651.36	2398.17
651.55	2199.52
651.74	2291.68
651.93	2293.72
652.12	2299.87
652.31	2191.33
652.49	2320.35
652.68	2250.72
652.87	2480.09
653.06	2301.92
653.25	2441.18
653.44	2365.40
653.62	2389.98
653.81	2254.81
654.00	2224.09
654.19	2334.68
654.38	2494.43
654.56	2316.25
654.75	2226.14
654.94	2355.16
655.13	2297.82
655.32	2232.29
655.51	2316.25
655.69	2148.32
655.88	2359.26
656.07	2136.03
656.26	2332.64
656.45	2203.61
656.63	2281.44
656.82	2283.49
657.01	2326.49
657.20	2193.37
657.38	2430.94
657.57	2258.91
657.76	2217.95
657.95	2478.04
658.14	2185.18
658.32	2230.24
658.51	2090.98
658.70	2306.01
658.89	2299.87
659.08	2316.25
659.26	2445.27
659.45	2217.95
659.64	2359.26
659.83	2291.68
660.01	2582.49
660.20	2258.91
660.39	2396.12
660.58	2052.06
660.76	2344.92
660.95	2187.23
661.14	2269.15
661.33	2162.66
661.51	2265.05
661.70	2240.48
661.89	2236.38
662.08	2252.77
662.26	2101.22
662.45	2170.85
662.64	2387.93
662.83	2342.88
663.01	2117.60
663.20	2271.20
663.39	2465.75
663.58	2226.14
663.76	2226.14
663.95	2267.10
664.14	2193.37
664.32	2164.70
664.51	2154.46
664.70	2082.78
664.89	2248.67
665.07	2179.04
665.26	2318.30
665.45	2166.75
665.64	2369.50
665.82	2269.15
666.01	2318.30
666.20	2211.81
666.38	2426.84
666.57	2406.36
666.76	3346.38
666.95	8142.72
667.13	16152.33
667.32	21620.41
667.51	24962.69
667.69	26887.78
667.88	24680.07
668.07	17370.87
668.25	14006.06
668.44	11632.46
668.63	9932.65
668.81	8853.37
669.00	7808.90
669.19	6799.26
669.38	5879.72
669.56	5210.03
669.75	4353.98
669.94	3723.21
670.12	3000.27
670.31	2787.29
670.50	2611.16
670.68	2529.24
670.87	2447.32
671.06	2310.11
671.24	2254.81
671.43	2519.00
671.62	2418.65
671.80	2291.68
671.99	2361.31
672.18	2256.86
672.36	2340.83
672.55	2199.52
672.74	2244.57
672.92	2252.77
673.11	2377.69
673.29	2183.13
673.48	2330.59
673.67	2265.05
673.85	2406.36
674.04	2209.76
674.23	2351.07
674.41	2353.12
674.60	2082.78
674.79	2185.18
674.97	2076.64
675.16	2351.07
675.34	2379.74
675.53	2162.66
675.72	2342.88
675.90	2463.71
676.09	2220.00
676.28	2295.77
676.46	2105.31
676.65	2263.01
676.83	2205.66
677.02	2199.52
677.21	2308.06
677.39	2301.92
677.58	2201.57
677.77	2160.61
677.95	2176.99
678.14	2240.48
678.32	2254.81
678.51	2136.03
678.70	2375.64
678.88	2215.90
679.07	2293.72
679.25	2250.72
679.44	2252.77
679.63	2129.89
679.81	2285.53
680.00	2371.55
680.18	2277.34
680.37	2432.99
680.55	2287.58
680.74	2138.08
680.93	2060.26
681.11	2310.11
681.30	2301.92
681.48	2306.01
681.67	2222.05
681.85	2308.06
682.04	2162.66
682.23	2318.30
682.41	2260.96
682.60	2256.86
682.78	2211.81
682.97	2138.08
683.15	2267.10
683.34	2258.91
683.53	2420.70
683.71	2158.56
683.90	2412.51
684.08	2467.80
684.27	2252.77
684.45	2226.14
684.64	2389.98
684.82	2234.33
685.01	2285.53
685.19	2314.20
685.38	2428.89
685.57	2316.25
685.75	2203.61
685.94	2187.23
686.12	2215.90
686.31	2189.28
686.49	2519.00
686.68	2115.55
686.86	2258.91
687.05	2265.05
687.23	2381.79
687.42	2158.56
687.60	2103.26
687.79	2291.68
687.97	2428.89
688.16	2375.64
688.34	2379.74
688.53	2070.50
688.71	2351.07
688.90	2424.80
689.08	2189.28
689.27	2097.12
689.45	2283.49
689.64	2342.88
689.82	2306.01
690.01	2211.81
690.19	2260.96
690.38	2181.09
690.56	2301.92
690.75	2201.57
690.93	2154.46
691.12	2285.53
691.30	2181.09
691.49	2197.47
691.67	2299.87
691.86	2412.51
692.04	2162.66
692.23	2252.77
692.41	2324.44
692.60	2543.58
692.78	2398.17
692.97	2375.64
693.15	2289.63
693.34	2379.74
693.52	2367.45
693.71	2226.14
693.89	2228.19
694.08	2062.30
694.26	2334.68
694.44	2392.03
694.63	2355.16
694.81	2166.75
695.00	2179.04
695.18	2404.32
695.37	2551.77
695.55	2220.00
695.74	2224.09
695.92	2201.57
696.10	2357.21
696.29	2111.46
696.47	2191.33
696.66	2213.85
696.84	2158.56
697.03	2193.37
697.21	2459.61
697.40	3227.60
697.58	2447.32
697.76	2162.66
697.95	2211.81
698.13	2199.52
698.32	2140.13
698.50	2220.00
698.68	2258.91
698.87	2318.30
699.05	2416.60
699.24	2220.00
699.42	2224.09
699.61	2244.57
699.79	2260.96
699.97	2240.48
700.16	2129.89
700.34	2162.66
700.53	2306.01
700.71	2383.84
700.89	2273.25
701.08	2217.95
701.26	2248.67
701.45	2838.48
701.63	2215.90
701.81	2265.05
702.00	2244.57
702.18	2285.53
702.37	2283.49
702.55	2422.75
702.73	2447.32
702.92	2396.12
703.10	2541.53
703.28	2580.44
703.47	2283.49
703.65	2383.84
703.84	2445.27
704.02	2310.11
704.20	2457.56
704.39	2256.86
704.57	2228.19
704.75	2373.60
704.94	2318.30
705.12	2314.20
705.30	2529.24
705.49	4464.57
705.67	10430.30
705.86	18380.52
706.04	22054.58
706.22	24915.59
706.41	25933.43
706.59	21972.66
706.77	15712.02
706.96	13193.01
707.14	11562.83
707.32	10043.24
707.51	8984.44
707.69	7479.18
707.87	5881.77
708.06	4673.46
708.24	3997.64
708.42	3162.06
708.61	2985.94
708.79	2490.33
708.97	2404.32
709.16	2418.65
709.34	2359.26
709.52	2273.25
709.71	2342.88
709.89	2385.88
710.07	2213.85
710.26	2162.66
710.44	2289.63
710.62	2432.99
710.80	2338.78
710.99	2392.03
711.17	2351.07
711.35	2172.89
711.54	2154.46
711.72	2414.56
711.90	2293.72
712.09	2265.05
712.27	2250.72
712.45	2316.25
712.63	2211.81
712.82	2256.86
713.00	2220.00
713.18	2351.07
713.37	2359.26
713.55	2203.61
713.73	2365.40
713.91	2306.01
714.10	2217.95
714.28	2244.57
714.46	2279.39
714.65	2226.14
714.83	2349.02
715.01	2277.34
715.19	2217.95
715.38	2189.28
715.56	2263.01
715.74	2107.36
715.92	2191.33
716.11	2418.65
716.29	2027.49
716.47	2326.49
716.65	2287.58
716.84	2080.74
717.02	2340.83
717.20	2099.17
717.38	2156.51
717.57	2330.59
717.75	2256.86
717.93	2273.25
718.11	2355.16
718.30	2156.51
718.48	2285.53
718.66	2299.87
718.84	2422.75
719.03	2260.96
719.21	2113.50
719.39	2361.31
719.57	2281.44
719.75	2369.50
719.94	2211.81
720.12	2207.71
720.30	2256.86
720.48	2269.15
720.67	2242.53
720.85	2142.18
721.03	2301.92
721.21	2207.71
721.39	2344.92
721.58	2240.48
721.76	2267.10
721.94	2269.15
722.12	2279.39
722.30	2453.47
722.49	2148.32
722.67	2291.68
722.85	2283.49
723.03	2101.22
723.21	2273.25
723.40	2277.34
723.58	2353.12
723.76	2363.36
723.94	2404.32
724.12	2326.49
724.30	2443.23
724.49	2439.13
724.67	2236.38
724.85	2410.46
725.03	2154.46
725.21	2359.26
725.40	2416.60
725.58	2168.80
725.76	2465.75
725.94	2265.05
726.12	2246.62
726.30	2279.39
726.49	2240.48
726.67	2176.99
726.85	2324.44
727.03	2512.86
727.21	3614.66
727.39	4945.84
727.57	5765.03
727.76	6311.84
727.94	6772.63
728.12	6330.27
728.30	5119.92
728.48	4513.72
728.66	4110.27
728.84	3645.38
729.03	3286.99
729.21	3047.38
729.39	2639.83
729.57	2398.17
729.75	2430.94
729.93	2314.20
730.11	2174.94
730.30	2246.62
730.48	2303.96
730.66	2349.02
730.84	2252.77
731.02	2283.49
731.20	2252.77
731.38	2248.67
731.56	2103.26
731.74	2136.03
731.93	2244.57
732.11	2273.25
732.29	2256.86
732.47	2328.54
732.65	2215.90
732.83	2308.06
733.01	2281.44
733.19	2263.01
733.37	2351.07
733.56	2306.01
733.74	2199.52
733.92	2463.71
734.10	2170.85
734.28	2269.15
734.46	2076.64
734.64	2195.42
734.82	2160.61
735.00	2166.75
735.18	2226.14
735.36	2240.48
735.54	2306.01
735.73	2248.67
735.91	2281.44
736.09	2269.15
736.27	2326.49
736.45	2291.68
736.63	2064.35
736.81	2273.25
736.99	2359.26
737.17	2443.23
737.35	2197.47
737.53	2254.81
737.71	2220.00
737.89	2330.59
738.07	2185.18
738.25	2181.09
738.43	2146.27
738.61	2174.94
738.80	2121.70
738.98	2150.37
739.16	2263.01
739.34	2185.18
739.52	2383.84
739.70	2252.77
739.88	2373.60
740.06	2400.22
740.24	2017.25
740.42	2408.41
740.60	2088.93
740.78	2199.52
740.96	2060.26
741.14	2258.91
741.32	2301.92
741.50	2095.07
741.68	2521.05
741.86	2291.68
742.04	2138.08
742.22	2158.56
742.40	2234.33
742.58	2381.79
742.76	2203.61
742.94	2301.92
743.12	2146.27
743.30	2226.14
743.48	2316.25
743.66	2199.52
743.84	2252.77
744.02	2242.53
744.20	2162.66
744.38	2152.42
744.56	2170.85
744.74	2473.95
744.92	2312.16
745.10	2381.79
745.28	2269.15
745.46	2467.80
745.64	2277.34
745.82	2328.54
746.00	2222.05
746.18	2297.82
746.36	2160.61
746.54	2226.14
746.72	2310.11
746.90	2240.48
747.08	2426.84
747.26	2185.18
747.44	2340.83
747.62	2373.60
747.80	2310.11
747.98	2389.98
748.15	2236.38
748.33	2488.28
748.51	2250.72
748.69	2365.40
748.87	2166.75
749.05	2201.57
749.23	2250.72
749.41	2301.92
749.59	2191.33
749.77	2375.64
749.95	2222.05
750.13	2207.71
750.31	2324.44
750.49	2258.91
750.67	2351.07
750.85	2338.78
751.03	2330.59
751.20	2457.56
751.38	2244.57
751.56	2242.53
751.74	2267.10
751.92	2187.23
752.10	2176.99
752.28	2392.03
752.46	2174.94
752.64	2283.49
752.82	2281.44
753.00	2424.80
753.18	2148.32
753.35	2246.62
753.53	2310.11
753.71	2232.29
753.89	2361.31
754.07	2295.77
754.25	2422.75
754.43	2260.96
754.61	2101.22
754.79	2310.11
754.97	2256.86
755.14	2379.74
755.32	2093.02
755.50	2265.05
755.68	2232.29
755.86	2234.33
756.04	2244.57
756.22	2064.35
756.40	2318.30
756.57	2441.18
756.75	2189.28
756.93	2367.45
757.11	2310.11
757.29	2142.18
757.47	2129.89
757.65	2154.46
757.82	1966.05
758.00	2136.03
758.18	2160.61
758.36	2162.66
758.54	2387.93
758.72	2105.31
758.90	2349.02
759.07	2295.77
759.25	2170.85
759.43	2277.34
759.61	2133.98
759.79	3037.14
759.97	2342.88
760.15	2156.51
760.32	2170.85
760.50	2258.91
760.68	2371.55
760.86	2160.61
761.04	2457.56
761.22	2308.06
761.39	2263.01
761.57	2310.11
761.75	2162.66
761.93	2387.93
762.11	2240.48
762.28	2242.53
762.46	2146.27
762.64	2297.82
762.82	2181.09
763.00	2209.76
763.18	2355.16
763.35	2093.02
763.53	2242.53
763.71	2381.79
763.89	2205.66
764.07	2299.87
764.24	2277.34
764.42	2301.92
764.60	2179.04
764.78	2299.87
764.96	2344.92
765.13	2334.68
765.31	2234.33
765.49	2291.68
765.67	2093.02
765.84	2133.98
766.02	2211.81
766.20	2031.58
766.38	2277.34
766.56	2289.63
766.73	2265.05
766.91	2248.67
767.09	2324.44
767.27	2338.78
767.44	2195.42
767.62	2260.96
767.80	2252.77
767.98	2142.18
768.15	2217.95
768.33	2310.11
768.51	2326.49
768.69	2328.54
768.87	2283.49
769.04	2297.82
769.22	2539.48
769.40	2432.99
769.58	2482.14
769.75	2342.88
769.93	2353.12
770.11	2244.57
770.28	2088.93
770.46	2426.84
770.64	2269.15
770.82	2224.09
770.99	2205.66
771.17	2291.68
771.35	2222.05
771.53	2152.42
771.70	2281.44
771.88	2283.49
772.06	2293.72
772.23	2252.77
772.41	2318.30
772.59	2277.34
772.77	2211.81
772.94	2258.91
773.12	2275.29
773.30	2183.13
773.47	2271.20
773.65	2207.71
773.83	2408.41
774.01	2199.52
774.18	2103.26
774.36	2201.57
774.54	2056.16
774.71	2226.14
774.89	2144.22
775.07	2166.75
775.24	2205.66
775.42	2129.89
775.60	2385.88
775.78	2179.04
775.95	2121.70
776.13	2088.93
776.31	2068.45
776.48	2318.30
776.66	2359.26
776.84	2263.01
777.01	2152.42
777.19	2158.56
777.37	2115.55
777.54	2326.49
777.72	2400.22
777.90	2340.83
778.07	2187.23
778.25	2473.95
778.43	2342.88
778.60	2133.98
778.78	2250.72
778.96	2338.78
779.13	2088.93
779.31	2252.77
779.49	2252.77
779.66	2250.72
779.84	2215.90
780.01	2220.00
780.19	2086.88
780.37	2330.59
780.54	2267.10
780.72	2199.52
780.90	2226.14
781.07	2260.96
781.25	2226.14
781.43	2240.48
781.60	2236.38
781.78	2338.78
781.95	2252.77
782.13	2123.74
782.31	2252.77
782.48	2068.45
782.66	2263.01
782.83	2432.99
783.01	2211.81
783.19	2322.40
783.36	2213.85
783.54	2166.75
783.72	2383.84
783.89	2187.23
784.07	2205.66
784.24	2310.11
784.42	2516.95
784.60	2344.92
784.77	2277.34
784.95	2027.49
785.12	2095.07
785.30	2250.72
785.47	2080.74
785.65	2121.70
785.83	2209.76
786.00	2162.66
786.18	2275.29
786.35	2090.98
786.53	2136.03
786.71	2275.29
786.88	2422.75
787.06	2310.11
787.23	2224.09
787.41	2117.60
787.58	2217.95
787.76	2189.28
787.94	2176.99
788.11	2273.25
788.29	2152.42
788.46	2248.67
788.64	2037.73
788.81	2205.66
788.99	2183.13
789.16	2205.66
789.34	2213.85
789.52	2170.85
789.69	2254.81
789.87	2052.06
790.04	2185.18
790.22	2226.14
790.39	2432.99
790.57	2199.52
790.74	2093.02
790.92	2414.56
791.09	2093.02
791.27	2297.82
791.44	2297.82
791.62	2148.32
791.79	2308.06
791.97	2287.58
792.15	2633.69
792.32	2224.09
792.50	2293.72
792.67	2359.26
792.85	2496.47
793.02	2222.05
793.20	2254.81
793.37	2150.37
793.55	2299.87
793.72	2111.46
793.90	2326.49
794.07	2125.79
794.25	2170.85
794.42	2293.72
794.60	2187.23
794.77	2344.92
794.95	2301.92
795.12	2295.77
795.30	2277.34
795.47	2088.93
795.65	2535.39
795.82	2285.53
796.00	2179.04
796.17	2263.01
796.34	2125.79
796.52	2283.49
796.69	2232.29
796.87	2258.91
797.04	2285.53
797.22	2326.49
797.39	2236.38
797.57	2371.55
797.74	2306.01
797.92	2269.15
798.09	2205.66
798.27	2396.12
798.44	2240.48
798.62	2217.95
798.79	2281.44
798.96	2283.49
799.14	2179.04
799.31	2463.71
799.49	2185.18
799.66	2185.18
799.84	2254.81
800.01	2232.29
800.19	2267.10
800.36	2090.98
800.53	2209.76
800.71	2353.12
800.88	2326.49
801.06	2166.75
801.23	2189.28
801.41	2281.44
801.58	2152.42
801.75	2217.95
801.93	2260.96
802.10	2377.69
802.28	2176.99
802.45	2232.29
802.63	2289.63
802.80	2416.60
802.97	2201.57
803.15	2285.53
803.32	2156.51
803.50	2215.90
803.67	2142.18
803.84	2129.89
804.02	2197.47
804.19	2193.37
804.37	2080.74
804.54	2111.46
804.71	2215.90
804.89	2213.85
805.06	2158.56
805.24	2209.76
805.41	2150.37
805.58	2142.18
805.76	2455.51
805.93	2273.25
806.10	2355.16
806.28	2322.40
806.45	2273.25
806.63	2250.72
806.80	2260.96
806.97	2373.60
807.15	2297.82
807.32	2318.30
807.49	2236.38
807.67	2138.08
807.84	2314.20
808.01	2058.21
808.19	2482.14
808.36	2525.15
808.54	2209.76
808.71	2189.28
808.88	2211.81
809.06	2367.45
809.23	2342.88
809.40	2166.75
809.58	2318.30
809.75	2301.92
809.92	2160.61
810.10	2435.03
810.27	2232.29
810.44	2250.72
810.62	2332.64
810.79	2269.15
810.96	2146.27
811.14	2250.72
811.31	2324.44
811.48	2351.07
811.66	2230.24
811.83	2363.36
812.00	2299.87
812.18	2240.48
812.35	2416.60
812.52	2238.43
812.69	2238.43
812.87	2236.38
813.04	2226.14
813.21	2318.30
813.39	2193.37
813.56	2113.50
813.73	2363.36
813.91	2074.59
814.08	2263.01
814.25	2275.29
814.42	2111.46
814.60	2240.48
814.77	2256.86
814.94	2205.66
815.12	2242.53
815.29	2420.70
815.46	2238.43
815.63	2293.72
815.81	2236.38
815.98	2179.04
816.15	2211.81
816.33	2226.14
816.50	2187.23
816.67	2260.96
816.84	2254.81
817.02	2166.75
817.19	2228.19
817.36	2271.20
817.53	2301.92
817.71	2103.26
817.88	2392.03
818.05	2240.48
818.22	2150.37
818.40	2396.12
818.57	2158.56
818.74	2240.48
818.91	2220.00
819.09	2314.20
819.26	2355.16
819.43	2236.38
819.60	2185.18
819.78	2277.34
819.95	2359.26
820.12	2152.42
820.29	2394.08
820.47	2379.74
820.64	2105.31
820.81	2152.42
820.98	2078.69
821.15	2207.71
821.33	2297.82
821.50	2138.08
821.67	2283.49
821.84	2191.33
822.02	2240.48
822.19	2277.34
822.36	2217.95
822.53	2105.31
822.70	2129.89
822.88	2254.81
823.05	2443.23
823.22	2176.99
823.39	2269.15
823.56	2187.23
823.74	2430.94
823.91	2179.04
824.08	2105.31
824.25	2090.98
824.42	2379.74
824.60	2185.18
824.77	2230.24
824.94	2154.46
825.11	2291.68
825.28	2097.12
825.45	2275.29
825.63	2260.96
825.80	2224.09
825.97	2154.46
826.14	2217.95
826.31	2064.35
826.48	2316.25
826.66	2205.66
826.83	2166.75
827.00	2129.89
827.17	2111.46
827.34	2154.46
827.51	2222.05
827.69	2230.24
827.86	2113.50
828.03	2168.80
828.20	2252.77
828.37	2224.09
828.54	2340.83
828.71	2166.75
828.89	2349.02
829.06	2191.33
829.23	2459.61
829.40	2197.47
829.57	2123.74
829.74	2318.30
829.91	2168.80
830.09	2220.00
830.26	2281.44
830.43	2416.60
830.60	2209.76
830.77	2267.10
830.94	2314.20
831.11	2336.73
831.28	2205.66
831.46	2320.35
831.63	2185.18
831.80	2367.45
831.97	2144.22
832.14	2185.18
832.31	2316.25
832.48	2279.39
832.65	2332.64
832.82	2287.58
832.99	2285.53
833.17	2162.66
833.34	2410.46
833.51	2263.01
833.68	2121.70
833.85	2312.16
834.02	2181.09
834.19	2162.66
834.36	2209.76
834.53	2308.06
834.70	2338.78
834.87	2338.78
835.04	2185.18
835.22	2179.04
835.39	2242.53
835.56	2078.69
835.73	2187.23
835.90	2314.20
836.07	2113.50
836.24	2224.09
836.41	2174.94
836.58	2195.42
836.75	2400.22
836.92	2220.00
837.09	2117.60
837.26	2324.44
837.43	2283.49
837.60	2176.99
837.77	2176.99
837.94	2346.97
838.12	2340.83
838.29	2203.61
838.46	2086.88
838.63	2176.99
838.80	2420.70
838.97	2265.05
839.14	2158.56
839.31	2277.34
839.48	2351.07
839.65	2226.14
839.82	2263.01
839.99	2230.24
840.16	2246.62
840.33	2168.80
840.50	2152.42
840.67	2201.57
840.84	2129.89
841.01	2228.19
841.18	2195.42
841.35	2201.57
841.52	2260.96
841.69	2435.03
841.86	2217.95
842.03	2295.77
842.20	2306.01
842.37	2123.74
842.54	2199.52
842.71	2236.38
842.88	2062.30
843.05	2252.77
843.22	2181.09
843.39	2297.82
843.56	2226.14
843.73	2222.05
843.90	2246.62
844.07	2238.43
844.24	2326.49
844.41	2299.87
844.58	2230.24
844.75	2226.14
844.92	2254.81
845.09	2189.28
845.26	2117.60
845.43	2346.97
845.60	2234.33
845.77	2392.03
845.94	2236.38
846.10	2263.01
846.27	2058.21
846.44	2201.57
846.61	2162.66
846.78	2346.97
846.95	2330.59
847.12	2248.67
847.29	2197.47
847.46	2215.90
847.63	2291.68
847.80	2146.27
847.97	2138.08
848.14	2480.09
848.31	2314.20
848.48	2060.26
848.65	2183.13
848.82	2207.71
848.98	2506.71
849.15	2287.58
849.32	2299.87
849.49	2299.87
849.66	2256.86
849.83	2191.33
850.00	2090.98
850.17	2248.67
850.34	2230.24
850.51	2158.56
850.68	2166.75
850.85	2430.94
851.01	2310.11
851.18	2187.23
851.35	2222.05
851.52	2306.01
851.69	2441.18
851.86	2113.50
852.03	2191.33
852.20	2285.53
852.37	2189.28
852.53	2086.88
852.70	2146.27
852.87	2203.61
853.04	2310.11
853.21	2244.57
853.38	2359.26
853.55	2389.98
853.72	2342.88
853.89	2109.41
854.05	2113.50
854.22	2170.85
854.39	2209.76
854.56	2244.57
854.73	2275.29
854.90	2193.37
855.07	2265.05
855.23	2097.12
855.40	2109.41
855.57	2234.33
855.74	2054.11
855.91	2314.20
856.08	2115.55
856.25	2084.83
856.41	2183.13
856.58	2154.46
856.75	2170.85
856.92	2125.79
857.09	2426.84
857.26	2176.99
857.42	2222.05
857.59	2342.88
857.76	2308.06
857.93	2189.28
858.10	2185.18
858.27	2078.69
858.43	2228.19
858.60	2170.85
858.77	2080.74
858.94	2185.18
859.11	2312.16
859.27	2193.37
859.44	2174.94
859.61	2432.99
859.78	2363.36
859.95	2213.85
860.12	2123.74
860.28	2473.95
860.45	2420.70
860.62	2154.46
860.79	2232.29
860.95	2191.33
861.12	2113.50
861.29	2185.18
861.46	2097.12
861.63	2260.96
861.79	2303.96
861.96	2119.65
862.13	2123.74
862.30	2430.94
862.47	2209.76
862.63	2136.03
862.80	2295.77
862.97	2285.53
863.14	2260.96
863.30	2260.96
863.47	2220.00
863.64	2396.12
863.81	2328.54
863.97	2121.70
864.14	2187.23
864.31	2176.99
864.48	2203.61
864.65	2207.71
864.81	2320.35
864.98	2310.11
865.15	2283.49
865.32	2334.68
865.48	2293.72
865.65	2367.45
865.82	2203.61
865.98	2244.57
866.15	2224.09
866.32	2240.48
866.49	2232.29
866.65	2359.26
866.82	2150.37
866.99	2140.13
867.16	2156.51
867.32	2162.66
867.49	2166.75
867.66	2250.72
867.83	2187.23
867.99	2095.07
868.16	2168.80
868.33	2084.83
868.49	2232.29
868.66	2136.03
868.83	2222.05
868.99	2240.48
869.16	2322.40
869.33	2293.72
869.50	2355.16
869.66	2193.37
869.83	2230.24
870.00	2086.88
870.16	2310.11
870.33	2174.94
870.50	2418.65
870.66	2170.85
870.83	2291.68
871.00	2203.61
871.17	2283.49
871.33	2224.09
871.50	2230.24
871.67	2256.86
871.83	2195.42
872.00	2334.68
872.17	2195.42
872.33	2400.22
872.50	2328.54
872.67	2162.66
872.83	2133.98
873.00	2232.29
873.17	2308.06
873.33	2281.44
873.50	2273.25
873.67	2195.42
873.83	2203.61
874.00	2181.09
874.16	2312.16
874.33	2293.72
874.50	2121.70
874.66	2222.05
874.83	2220.00
875.00	2338.78
875.16	2316.25
875.33	2277.34
875.50	1972.19
875.66	2273.25
875.83	2312.16
875.99	2236.38
876.16	2172.89
876.33	2226.14
876.49	2236.38
876.66	2234.33
876.83	2199.52
876.99	2119.65
877.16	2248.67
877.32	2146.27
877.49	2220.00
877.66	2293.72
877.82	2392.03
877.99	2215.90
878.15	2301.92
878.32	2308.06
878.49	2293.72
878.65	2183.13
878.82	2371.55
878.98	2156.51
879.15	2351.07
879.32	2277.34
879.48	2324.44
879.65	2250.72
879.81	2170.85
879.98	2162.66
880.15	2234.33
880.31	2351.07
880.48	2142.18
880.64	2312.16
880.81	2252.77
880.97	2465.75
881.14	2349.02
881.31	2191.33
881.47	2365.40
881.64	2197.47
881.80	2080.74
881.97	2267.10
882.13	2265.05
882.30	2125.79
882.47	2203.61
882.63	2199.52
882.80	2209.76
882.96	2166.75
883.13	2346.97
883.29	2234.33
883.46	2162.66
883.62	2486.23
883.79	2324.44
883.95	2291.68
884.12	2193.37
884.29	2373.60
884.45	2260.96
884.62	2271.20
884.78	2109.41
884.95	2375.64
885.11	2148.32
885.28	2273.25
885.44	2256.86
885.61	2295.77
885.77	2406.36
885.94	2275.29
886.10	2160.61
886.27	2166.75
886.43	2389.98
886.60	2381.79
886.76	2217.95
886.93	2213.85
887.09	2318.30
887.26	2111.46
887.42	2166.75
887.59	2367.45
887.75	2502.62
887.92	2379.74
888.08	2283.49
888.25	2439.13
888.41	2310.11
888.58	2199.52
888.74	2144.22
888.91	2203.61
>>>>>End Processed Spectral Data<<<<<
