SpectraSuite Data File
++++++++++++++++++++++++++++++++++++
Date: Thu May 05 13:21:05 CEST 2016
User: root
Dark Spectrum Present: No
Reference Spectrum Present: No
Number of Sampled Component Spectra: 1
Spectrometers: USB4C02835
Integration Time (usec): 100000 (USB4C02835)
Spectra Averaged: 1 (USB4C02835)
Boxcar Smoothing: 0 (USB4C02835)
Correct for Electrical Dark: No (USB4C02835)
Strobe/Lamp Enabled: No (USB4C02835)
Correct for Detector Non-linearity: No (USB4C02835)
Correct for Stray Light: No (USB4C02835)
Number of Pixels in Processed Spectrum: 3648
>>>>>Begin Processed Spectral Data<<<<<
177.47	1800.16
177.69	1800.16
177.91	1800.16
178.13	1789.92
178.36	1773.54
178.58	2105.31
178.80	2324.44
179.02	2117.60
179.24	2176.99
179.46	2129.89
179.68	2291.68
179.90	2242.53
180.13	2318.30
180.35	2123.74
180.57	2154.46
180.79	2310.11
181.01	2234.33
181.23	2187.23
181.45	2256.86
181.67	2342.88
181.90	2293.72
182.12	2093.02
182.34	2021.35
182.56	2320.35
182.78	2263.01
183.00	2101.22
183.22	2176.99
183.44	2090.98
183.66	2592.73
183.89	2342.88
184.11	2234.33
184.33	2332.64
184.55	2392.03
184.77	2097.12
184.99	2267.10
185.21	2203.61
185.43	2349.02
185.65	2144.22
185.87	2148.32
186.10	2549.72
186.32	2449.37
186.54	2250.72
186.76	2254.81
186.98	2422.75
187.20	2248.67
187.42	2181.09
187.64	2162.66
187.86	2273.25
188.08	2351.07
188.30	2105.31
188.52	2129.89
188.75	2389.98
188.97	2373.60
189.19	2146.27
189.41	2121.70
189.63	2277.34
189.85	2160.61
190.07	2066.40
190.29	2054.11
190.51	2236.38
190.73	2068.45
190.95	2314.20
191.17	2176.99
191.39	2074.59
191.61	2236.38
191.84	2185.18
192.06	2183.13
192.28	2174.94
192.50	2600.92
192.72	2220.00
192.94	2228.19
193.16	2367.45
193.38	2324.44
193.60	2095.07
193.82	2195.42
194.04	2367.45
194.26	2283.49
194.48	2183.13
194.70	2226.14
194.92	2269.15
195.14	2299.87
195.36	2131.94
195.58	2199.52
195.80	2275.29
196.02	2168.80
196.24	2250.72
196.46	2236.38
196.69	2131.94
196.91	2463.71
197.13	2160.61
197.35	2170.85
197.57	2396.12
197.79	2283.49
198.01	2213.85
198.23	2289.63
198.45	2263.01
198.67	2068.45
198.89	2121.70
199.11	2299.87
199.33	2246.62
199.55	1998.82
199.77	2146.27
199.99	2275.29
200.21	2185.18
200.43	2301.92
200.65	2158.56
200.87	2152.42
201.09	2209.76
201.31	2230.24
201.53	2269.15
201.75	2269.15
201.97	2213.85
202.19	2201.57
202.41	2318.30
202.63	2318.30
202.85	2285.53
203.07	2322.40
203.29	2248.67
203.51	2140.13
203.73	2187.23
203.95	2559.96
204.17	2232.29
204.39	2281.44
204.61	2217.95
204.83	2150.37
205.05	2271.20
205.27	2185.18
205.49	2447.32
205.71	2224.09
205.93	2125.79
206.15	2047.97
206.37	2242.53
206.59	2185.18
206.81	2039.78
207.03	2064.35
207.25	2156.51
207.47	2332.64
207.69	2211.81
207.91	2283.49
208.13	2457.56
208.34	2185.18
208.56	2160.61
208.78	2197.47
209.00	2301.92
209.22	2228.19
209.44	2217.95
209.66	2146.27
209.88	2260.96
210.10	2203.61
210.32	2093.02
210.54	2232.29
210.76	2144.22
210.98	2377.69
211.20	2052.06
211.42	2275.29
211.64	2392.03
211.86	2246.62
212.08	2228.19
212.30	2265.05
212.52	2252.77
212.74	2320.35
212.96	2215.90
213.17	2193.37
213.39	2342.88
213.61	2404.32
213.83	2158.56
214.05	2220.00
214.27	2359.26
214.49	2205.66
214.71	2109.41
214.93	2275.29
215.15	2226.14
215.37	2330.59
215.59	2097.12
215.81	2246.62
216.03	2416.60
216.24	2244.57
216.46	2154.46
216.68	2203.61
216.90	2310.11
217.12	2346.97
217.34	2193.37
217.56	2306.01
217.78	2408.41
218.00	2299.87
218.22	2293.72
218.44	2215.90
218.66	2306.01
218.87	2406.36
219.09	2174.94
219.31	2213.85
219.53	2234.33
219.75	2269.15
219.97	2207.71
220.19	2199.52
220.41	2279.39
220.63	2428.89
220.85	2203.61
221.06	2197.47
221.28	2338.78
221.50	2291.68
221.72	2168.80
221.94	2185.18
222.16	2306.01
222.38	2291.68
222.60	2133.98
222.82	2160.61
223.03	2422.75
223.25	2168.80
223.47	2226.14
223.69	2310.11
223.91	2285.53
224.13	2265.05
224.35	2174.94
224.57	2326.49
224.78	2267.10
225.00	2152.42
225.22	2222.05
225.44	2136.03
225.66	2303.96
225.88	2258.91
226.10	2303.96
226.32	2205.66
226.53	2416.60
226.75	2236.38
226.97	2228.19
227.19	2222.05
227.41	2209.76
227.63	2191.33
227.85	2027.49
228.06	2152.42
228.28	2211.81
228.50	2373.60
228.72	2097.12
228.94	2176.99
229.16	2013.15
229.37	2154.46
229.59	2140.13
229.81	2271.20
230.03	2162.66
230.25	2164.70
230.47	2088.93
230.69	2129.89
230.90	2291.68
231.12	2168.80
231.34	2220.00
231.56	2277.34
231.78	2080.74
232.00	2273.25
232.21	2146.27
232.43	2256.86
232.65	2031.58
232.87	2338.78
233.09	2109.41
233.30	2050.02
233.52	2334.68
233.74	2293.72
233.96	2201.57
234.18	2260.96
234.40	2297.82
234.61	2459.61
234.83	2117.60
235.05	2111.46
235.27	2529.24
235.49	2381.79
235.70	2172.89
235.92	2213.85
236.14	2324.44
236.36	2441.18
236.58	2109.41
236.79	2244.57
237.01	2240.48
237.23	2191.33
237.45	2432.99
237.67	2166.75
237.88	2330.59
238.10	2494.43
238.32	2076.64
238.54	2179.04
238.76	2215.90
238.97	2113.50
239.19	2099.17
239.41	2234.33
239.63	2371.55
239.85	2226.14
240.06	2127.84
240.28	2088.93
240.50	2326.49
240.72	2267.10
240.93	2129.89
241.15	2242.53
241.37	2244.57
241.59	2414.56
241.81	2211.81
242.02	2203.61
242.24	2170.85
242.46	2316.25
242.68	2150.37
242.89	2142.18
243.11	2375.64
243.33	2187.23
243.55	2179.04
243.76	2211.81
243.98	2164.70
244.20	2293.72
244.42	2170.85
244.64	2246.62
244.85	2064.35
245.07	2162.66
245.29	2222.05
245.51	2093.02
245.72	2285.53
245.94	2332.64
246.16	2256.86
246.38	2269.15
246.59	2232.29
246.81	2093.02
247.03	2097.12
247.24	2090.98
247.46	2275.29
247.68	2236.38
247.90	2127.84
248.11	2144.22
248.33	2367.45
248.55	2181.09
248.77	2265.05
248.98	2244.57
249.20	2375.64
249.42	2389.98
249.64	2217.95
249.85	2265.05
250.07	2220.00
250.29	2324.44
250.50	2326.49
250.72	2068.45
250.94	2373.60
251.16	2420.70
251.37	2205.66
251.59	2205.66
251.81	2336.73
252.02	2367.45
252.24	2113.50
252.46	2332.64
252.68	2156.51
252.89	2168.80
253.11	2021.35
253.33	2359.26
253.54	2422.75
253.76	2168.80
253.98	2193.37
254.20	2119.65
254.41	2205.66
254.63	2195.42
254.85	2041.82
255.06	2287.58
255.28	2285.53
255.50	2187.23
255.71	2179.04
255.93	2033.63
256.15	2260.96
256.36	2252.77
256.58	2170.85
256.80	2183.13
257.02	2226.14
257.23	2193.37
257.45	2187.23
257.67	2226.14
257.88	2191.33
258.10	2299.87
258.32	2174.94
258.53	2160.61
258.75	2381.79
258.97	2166.75
259.18	2129.89
259.40	2244.57
259.62	2432.99
259.83	2365.40
260.05	2201.57
260.27	2695.13
260.48	2297.82
260.70	2111.46
260.92	2195.42
261.13	2185.18
261.35	2308.06
261.57	2351.07
261.78	2084.83
262.00	2111.46
262.22	2267.10
262.43	2236.38
262.65	2183.13
262.86	2224.09
263.08	2412.51
263.30	2293.72
263.51	2056.16
263.73	2113.50
263.95	2432.99
264.16	2199.52
264.38	2060.26
264.60	2197.47
264.81	2224.09
265.03	2373.60
265.25	2340.83
265.46	2170.85
265.68	2306.01
265.89	2320.35
266.11	2088.93
266.33	2215.90
266.54	2291.68
266.76	2281.44
266.98	2283.49
267.19	2359.26
267.41	2363.36
267.62	2226.14
267.84	2045.92
268.06	2308.06
268.27	2252.77
268.49	2392.03
268.70	2256.86
268.92	2269.15
269.14	2150.37
269.35	2109.41
269.57	2236.38
269.79	2371.55
270.00	2207.71
270.22	2375.64
270.43	2062.30
270.65	2052.06
270.87	2273.25
271.08	2330.59
271.30	2258.91
271.51	2205.66
271.73	2287.58
271.95	2482.14
272.16	2228.19
272.38	2258.91
272.59	2213.85
272.81	2338.78
273.02	2121.70
273.24	2160.61
273.46	2377.69
273.67	2140.13
273.89	2070.50
274.10	2185.18
274.32	2392.03
274.54	2250.72
274.75	2217.95
274.97	2256.86
275.18	2273.25
275.40	2303.96
275.61	2193.37
275.83	2306.01
276.05	2129.89
276.26	2236.38
276.48	2240.48
276.69	2138.08
276.91	2213.85
277.12	2373.60
277.34	2340.83
277.55	2357.21
277.77	2226.14
277.99	2236.38
278.20	2080.74
278.42	2191.33
278.63	2185.18
278.85	2152.42
279.06	2199.52
279.28	2285.53
279.49	2394.08
279.71	2369.50
279.93	2185.18
280.14	2316.25
280.36	2146.27
280.57	2379.74
280.79	2285.53
281.00	2093.02
281.22	2174.94
281.43	2400.22
281.65	1966.05
281.86	2183.13
282.08	2355.16
282.29	2443.23
282.51	2142.18
282.73	2090.98
282.94	2131.94
283.16	2312.16
283.37	2371.55
283.59	2185.18
283.80	2301.92
284.02	2293.72
284.23	2306.01
284.45	2207.71
284.66	2140.13
284.88	2179.04
285.09	2252.77
285.31	2301.92
285.52	2299.87
285.74	2068.45
285.95	2287.58
286.17	2220.00
286.38	2371.55
286.60	2168.80
286.81	2195.42
287.03	2176.99
287.24	2269.15
287.46	2340.83
287.67	2228.19
287.89	2424.80
288.10	2252.77
288.32	2283.49
288.53	2367.45
288.75	2226.14
288.96	2349.02
289.18	2244.57
289.39	2119.65
289.61	2291.68
289.82	2445.27
290.04	2465.75
290.25	2107.36
290.47	2256.86
290.68	2248.67
290.90	2344.92
291.11	2062.30
291.33	2242.53
291.54	2176.99
291.76	2109.41
291.97	2226.14
292.18	2234.33
292.40	2199.52
292.61	2162.66
292.83	2445.27
293.04	2285.53
293.26	2207.71
293.47	2195.42
293.69	2154.46
293.90	2162.66
294.12	2416.60
294.33	2236.38
294.55	2113.50
294.76	2269.15
294.97	2404.32
295.19	2463.71
295.40	2154.46
295.62	2314.20
295.83	2400.22
296.05	2066.40
296.26	2367.45
296.48	2097.12
296.69	2326.49
296.90	2291.68
297.12	2363.36
297.33	2295.77
297.55	2260.96
297.76	2185.18
297.98	2326.49
298.19	2269.15
298.41	2293.72
298.62	2170.85
298.83	2351.07
299.05	2252.77
299.26	2185.18
299.48	2183.13
299.69	2308.06
299.90	2230.24
300.12	2211.81
300.33	2318.30
300.55	2275.29
300.76	2224.09
300.98	2174.94
301.19	2363.36
301.40	2205.66
301.62	2234.33
301.83	2310.11
302.05	2238.43
302.26	2195.42
302.47	2258.91
302.69	2146.27
302.90	2324.44
303.12	2076.64
303.33	2279.39
303.54	2453.47
303.76	2162.66
303.97	2265.05
304.19	2396.12
304.40	2140.13
304.61	2285.53
304.83	2432.99
305.04	2246.62
305.26	2248.67
305.47	2117.60
305.68	2252.77
305.90	2129.89
306.11	2359.26
306.33	2310.11
306.54	2123.74
306.75	2146.27
306.97	2095.07
307.18	2105.31
307.39	2281.44
307.61	2389.98
307.82	2260.96
308.04	2283.49
308.25	2148.32
308.46	2211.81
308.68	2244.57
308.89	2240.48
309.10	2297.82
309.32	2215.90
309.53	2256.86
309.74	2310.11
309.96	2211.81
310.17	2346.97
310.39	2138.08
310.60	2283.49
310.81	2211.81
311.03	2136.03
311.24	2310.11
311.45	2248.67
311.67	2387.93
311.88	2252.77
312.09	2211.81
312.31	2234.33
312.52	2250.72
312.73	2240.48
312.95	2152.42
313.16	2127.84
313.37	2377.69
313.59	2189.28
313.80	2381.79
314.01	2412.51
314.23	2201.57
314.44	2179.04
314.65	2166.75
314.87	2224.09
315.08	2162.66
315.29	2205.66
315.51	2260.96
315.72	2047.97
315.93	2291.68
316.15	2318.30
316.36	2254.81
316.57	2299.87
316.79	2236.38
317.00	2174.94
317.21	2357.21
317.43	2172.89
317.64	2324.44
317.85	2150.37
318.07	2127.84
318.28	2254.81
318.49	2422.75
318.70	2473.95
318.92	2435.03
319.13	2412.51
319.34	2443.23
319.56	2265.05
319.77	2365.40
319.98	2394.08
320.20	2338.78
320.41	2269.15
320.62	2269.15
320.83	2179.04
321.05	2453.47
321.26	2306.01
321.47	2308.06
321.69	2355.16
321.90	2121.70
322.11	2125.79
322.32	2265.05
322.54	2412.51
322.75	2232.29
322.96	2566.10
323.18	2189.28
323.39	2101.22
323.60	2179.04
323.81	2326.49
324.03	2207.71
324.24	2244.57
324.45	2273.25
324.66	2160.61
324.88	2394.08
325.09	2371.55
325.30	2248.67
325.52	2232.29
325.73	2342.88
325.94	2209.76
326.15	2029.54
326.37	2115.55
326.58	2295.77
326.79	2439.13
327.00	2129.89
327.22	2258.91
327.43	2211.81
327.64	2119.65
327.85	2381.79
328.07	2308.06
328.28	2467.80
328.49	2213.85
328.70	2220.00
328.92	2228.19
329.13	2260.96
329.34	2252.77
329.55	2322.40
329.76	2246.62
329.98	2220.00
330.19	2353.12
330.40	2232.29
330.61	2297.82
330.83	2279.39
331.04	2170.85
331.25	2291.68
331.46	2117.60
331.68	2228.19
331.89	2318.30
332.10	2181.09
332.31	2056.16
332.52	2201.57
332.74	2355.16
332.95	2103.26
333.16	2234.33
333.37	2340.83
333.58	2197.47
333.80	2267.10
334.01	2136.03
334.22	2183.13
334.43	2148.32
334.64	2191.33
334.86	2133.98
335.07	2199.52
335.28	2346.97
335.49	2127.84
335.70	2215.90
335.92	2379.74
336.13	2457.56
336.34	2299.87
336.55	2215.90
336.76	2328.54
336.98	2076.64
337.19	2281.44
337.40	2326.49
337.61	2389.98
337.82	2101.22
338.04	2330.59
338.25	2082.78
338.46	2222.05
338.67	2211.81
338.88	2191.33
339.09	2113.50
339.31	2234.33
339.52	2119.65
339.73	2160.61
339.94	2162.66
340.15	2318.30
340.36	2140.13
340.58	2256.86
340.79	2187.23
341.00	2310.11
341.21	2160.61
341.42	2381.79
341.63	2252.77
341.85	2349.02
342.06	2258.91
342.27	2203.61
342.48	2267.10
342.69	2176.99
342.90	2342.88
343.12	2342.88
343.33	2179.04
343.54	2381.79
343.75	2256.86
343.96	2277.34
344.17	2217.95
344.38	2308.06
344.60	2138.08
344.81	2185.18
345.02	2220.00
345.23	2441.18
345.44	2529.24
345.65	2342.88
345.86	2285.53
346.07	2240.48
346.29	2244.57
346.50	2252.77
346.71	2318.30
346.92	2306.01
347.13	2441.18
347.34	2244.57
347.55	2232.29
347.76	2289.63
347.98	2086.88
348.19	2164.70
348.40	2406.36
348.61	2230.24
348.82	2414.56
349.03	2246.62
349.24	2213.85
349.45	2371.55
349.66	2047.97
349.88	2187.23
350.09	2172.89
350.30	2367.45
350.51	2342.88
350.72	2240.48
350.93	2275.29
351.14	2201.57
351.35	2238.43
351.56	2211.81
351.77	2265.05
351.99	2269.15
352.20	2404.32
352.41	2322.40
352.62	2054.11
352.83	2250.72
353.04	2211.81
353.25	2164.70
353.46	2344.92
353.67	2310.11
353.88	2117.60
354.09	2275.29
354.30	2263.01
354.52	2318.30
354.73	2215.90
354.94	2228.19
355.15	2258.91
355.36	2508.76
355.57	2248.67
355.78	2277.34
355.99	2113.50
356.20	2164.70
356.41	2351.07
356.62	2238.43
356.83	2269.15
357.04	2392.03
357.25	2138.08
357.46	2213.85
357.68	2093.02
357.89	2207.71
358.10	2310.11
358.31	2242.53
358.52	2217.95
358.73	2121.70
358.94	2146.27
359.15	2183.13
359.36	2297.82
359.57	2322.40
359.78	2222.05
359.99	2344.92
360.20	2160.61
360.41	2275.29
360.62	2306.01
360.83	2236.38
361.04	2224.09
361.25	2273.25
361.46	2428.89
361.67	2285.53
361.88	2299.87
362.09	2359.26
362.30	2240.48
362.51	2215.90
362.72	2189.28
362.93	2322.40
363.14	2265.05
363.35	2252.77
363.56	2146.27
363.78	2349.02
363.99	2373.60
364.20	2138.08
364.41	2295.77
364.62	2367.45
364.83	2277.34
365.04	2201.57
365.25	2232.29
365.46	2496.47
365.67	2215.90
365.88	2179.04
366.09	2191.33
366.30	2211.81
366.51	2301.92
366.72	2133.98
366.93	2197.47
367.14	2334.68
367.35	2359.26
367.56	2183.13
367.77	2318.30
367.98	2201.57
368.18	2275.29
368.39	2283.49
368.60	2150.37
368.81	2310.11
369.02	2314.20
369.23	2207.71
369.44	2070.50
369.65	2207.71
369.86	2273.25
370.07	2312.16
370.28	2189.28
370.49	2326.49
370.70	2258.91
370.91	2129.89
371.12	2047.97
371.33	2328.54
371.54	2154.46
371.75	2400.22
371.96	1986.53
372.17	2222.05
372.38	2234.33
372.59	2236.38
372.80	2201.57
373.01	2308.06
373.22	2250.72
373.43	2308.06
373.64	2072.54
373.85	2430.94
374.06	2432.99
374.26	2340.83
374.47	2308.06
374.68	2410.46
374.89	2269.15
375.10	2195.42
375.31	2265.05
375.52	2267.10
375.73	2232.29
375.94	2158.56
376.15	2412.51
376.36	2193.37
376.57	2176.99
376.78	2191.33
376.99	2240.48
377.20	2385.88
377.40	2275.29
377.61	2301.92
377.82	2148.32
378.03	2332.64
378.24	2361.31
378.45	2283.49
378.66	2316.25
378.87	2074.59
379.08	2129.89
379.29	2162.66
379.50	2361.31
379.71	2154.46
379.91	2299.87
380.12	2176.99
380.33	2254.81
380.54	2283.49
380.75	2250.72
380.96	2254.81
381.17	2306.01
381.38	2275.29
381.59	2340.83
381.80	2234.33
382.00	2414.56
382.21	2293.72
382.42	2467.80
382.63	2496.47
382.84	2318.30
383.05	2338.78
383.26	2416.60
383.47	2293.72
383.68	2310.11
383.88	2351.07
384.09	2271.20
384.30	2383.84
384.51	2306.01
384.72	2281.44
384.93	2064.35
385.14	2289.63
385.35	2299.87
385.55	2162.66
385.76	2359.26
385.97	2222.05
386.18	2129.89
386.39	2215.90
386.60	2224.09
386.81	2207.71
387.02	2158.56
387.22	2111.46
387.43	2416.60
387.64	2371.55
387.85	2412.51
388.06	2465.75
388.27	3983.30
388.48	8152.96
388.68	11736.91
388.89	13952.81
389.10	15068.95
389.31	13989.67
389.52	10893.15
389.73	9406.32
389.93	8660.86
390.14	8032.13
390.35	7110.55
390.56	6401.95
390.77	5203.89
390.98	4081.60
391.18	3248.08
391.39	2736.09
391.60	2430.94
391.81	2367.45
392.02	2140.13
392.23	2482.14
392.43	2344.92
392.64	2351.07
392.85	2215.90
393.06	2455.51
393.27	2267.10
393.47	2154.46
393.68	2242.53
393.89	2150.37
394.10	2404.32
394.31	2187.23
394.52	2187.23
394.72	2220.00
394.93	2412.51
395.14	2170.85
395.35	2238.43
395.56	2185.18
395.76	2287.58
395.97	2295.77
396.18	2412.51
396.39	2414.56
396.60	2764.76
396.80	2547.67
397.01	2422.75
397.22	2432.99
397.43	2439.13
397.64	2238.43
397.84	2351.07
398.05	2449.37
398.26	2271.20
398.47	2248.67
398.67	2377.69
398.88	2283.49
399.09	2361.31
399.30	2238.43
399.51	2342.88
399.71	2220.00
399.92	2293.72
400.13	2359.26
400.34	2232.29
400.54	2209.76
400.75	2426.84
400.96	2281.44
401.17	2445.27
401.37	2326.49
401.58	2236.38
401.79	2228.19
402.00	2439.13
402.21	2686.94
402.41	2529.24
402.62	2654.17
402.83	2654.17
403.04	2627.54
403.24	2799.57
403.45	2359.26
403.66	2385.88
403.87	2482.14
404.07	2539.48
404.28	2461.66
404.49	2449.37
404.70	2349.02
404.90	2377.69
405.11	2324.44
405.32	2283.49
405.52	2181.09
405.73	2244.57
405.94	2201.57
406.15	2265.05
406.35	2342.88
406.56	2322.40
406.77	2240.48
406.98	2234.33
407.18	2113.50
407.39	2432.99
407.60	2170.85
407.80	2293.72
408.01	2191.33
408.22	2326.49
408.43	2187.23
408.63	2250.72
408.84	2363.36
409.05	2359.26
409.25	2213.85
409.46	2222.05
409.67	2252.77
409.88	2152.42
410.08	2152.42
410.29	2191.33
410.50	2424.80
410.70	2338.78
410.91	2166.75
411.12	2254.81
411.32	2222.05
411.53	2181.09
411.74	2351.07
411.95	2275.29
412.15	2301.92
412.36	2396.12
412.57	2353.12
412.77	2371.55
412.98	2215.90
413.19	2201.57
413.39	2273.25
413.60	2303.96
413.81	2416.60
414.01	2191.33
414.22	2273.25
414.43	2338.78
414.63	2271.20
414.84	2316.25
415.05	2252.77
415.25	2168.80
415.46	2375.64
415.67	2129.89
415.87	2168.80
416.08	2244.57
416.29	2230.24
416.49	2248.67
416.70	2162.66
416.91	2211.81
417.11	2185.18
417.32	2283.49
417.53	2308.06
417.73	2342.88
417.94	2252.77
418.15	2258.91
418.35	2234.33
418.56	2258.91
418.77	2564.06
418.97	2244.57
419.18	2240.48
419.38	1957.86
419.59	2269.15
419.80	2408.41
420.00	2228.19
420.21	2306.01
420.42	2402.27
420.62	2269.15
420.83	2164.70
421.04	2303.96
421.24	2236.38
421.45	2273.25
421.65	2252.77
421.86	2150.37
422.07	2351.07
422.27	2322.40
422.48	2297.82
422.69	2176.99
422.89	2236.38
423.10	2199.52
423.30	2103.26
423.51	2258.91
423.72	2371.55
423.92	2289.63
424.13	2191.33
424.33	2246.62
424.54	2369.50
424.75	2342.88
424.95	2353.12
425.16	2273.25
425.36	2234.33
425.57	2367.45
425.78	2346.97
425.98	2361.31
426.19	2254.81
426.39	2121.70
426.60	2228.19
426.81	2414.56
427.01	2342.88
427.22	2183.13
427.42	2119.65
427.63	2185.18
427.83	2310.11
428.04	2410.46
428.25	2328.54
428.45	2346.97
428.66	2342.88
428.86	2240.48
429.07	2236.38
429.28	2240.48
429.48	2193.37
429.69	2250.72
429.89	2187.23
430.10	2193.37
430.30	2342.88
430.51	2357.21
430.71	2088.93
430.92	2306.01
431.13	2232.29
431.33	2295.77
431.54	2269.15
431.74	2430.94
431.95	2473.95
432.15	2220.00
432.36	2215.90
432.56	2279.39
432.77	2498.52
432.98	2467.80
433.18	2299.87
433.39	2279.39
433.59	2179.04
433.80	2506.71
434.00	2471.90
434.21	2201.57
434.41	2170.85
434.62	2531.29
434.82	2228.19
435.03	2256.86
435.23	2293.72
435.44	2117.60
435.64	2220.00
435.85	2303.96
436.06	2365.40
436.26	2351.07
436.47	2293.72
436.67	2156.51
436.88	2211.81
437.08	2330.59
437.29	2338.78
437.49	2312.16
437.70	2400.22
437.90	2232.29
438.11	2482.14
438.31	2330.59
438.52	2338.78
438.72	2330.59
438.93	2600.92
439.13	2318.30
439.34	2373.60
439.54	2258.91
439.75	2375.64
439.95	2344.92
440.16	2187.23
440.36	2310.11
440.57	2303.96
440.77	2279.39
440.98	2263.01
441.18	2285.53
441.39	2271.20
441.59	2179.04
441.80	2478.04
442.00	2273.25
442.21	2373.60
442.41	2113.50
442.62	2351.07
442.82	2236.38
443.02	2258.91
443.23	2318.30
443.43	2228.19
443.64	2381.79
443.84	2244.57
444.05	2385.88
444.25	2277.34
444.46	2220.00
444.66	2267.10
444.87	2449.37
445.07	2164.70
445.28	2334.68
445.48	2392.03
445.69	2332.64
445.89	2514.91
446.09	2291.68
446.30	2566.10
446.50	2764.76
446.71	4466.62
446.91	5531.56
447.12	6293.41
447.32	6746.01
447.53	6143.91
447.73	5142.45
447.93	4476.86
448.14	4239.30
448.34	4075.46
448.55	3659.72
448.75	3631.05
448.96	3289.04
449.16	2996.18
449.36	2846.68
449.57	2498.52
449.77	2383.84
449.98	2248.67
450.18	2279.39
450.39	2332.64
450.59	2439.13
450.79	2236.38
451.00	2226.14
451.20	2361.31
451.41	2138.08
451.61	2299.87
451.81	2193.37
452.02	2285.53
452.22	2230.24
452.43	2281.44
452.63	2265.05
452.84	2289.63
453.04	2133.98
453.24	2281.44
453.45	2179.04
453.65	2207.71
453.86	2277.34
454.06	2252.77
454.26	2267.10
454.47	2162.66
454.67	2342.88
454.87	2351.07
455.08	2213.85
455.28	2435.03
455.49	2310.11
455.69	2211.81
455.89	2478.04
456.10	2355.16
456.30	2258.91
456.51	2310.11
456.71	2308.06
456.91	2342.88
457.12	2254.81
457.32	2205.66
457.52	2084.83
457.73	2312.16
457.93	2297.82
458.14	2215.90
458.34	2191.33
458.54	2154.46
458.75	2203.61
458.95	2357.21
459.15	2314.20
459.36	2295.77
459.56	2318.30
459.76	2475.99
459.97	2215.90
460.17	2230.24
460.37	2357.21
460.58	2189.28
460.78	2322.40
460.99	2248.67
461.19	2256.86
461.39	2226.14
461.60	2224.09
461.80	2281.44
462.00	2080.74
462.21	2246.62
462.41	2181.09
462.61	2142.18
462.82	2183.13
463.02	2367.45
463.22	2248.67
463.43	2275.29
463.63	2275.29
463.83	2412.51
464.04	2273.25
464.24	2226.14
464.44	2211.81
464.64	2330.59
464.85	2328.54
465.05	2351.07
465.25	2260.96
465.46	2242.53
465.66	2410.46
465.86	2252.77
466.07	2275.29
466.27	2248.67
466.47	2125.79
466.68	2129.89
466.88	2420.70
467.08	2371.55
467.29	2365.40
467.49	2344.92
467.69	2326.49
467.89	2265.05
468.10	2267.10
468.30	2340.83
468.50	2328.54
468.71	2416.60
468.91	2142.18
469.11	2400.22
469.31	2238.43
469.52	2170.85
469.72	2381.79
469.92	2492.38
470.13	2199.52
470.33	2293.72
470.53	2314.20
470.73	2602.97
470.94	2953.17
471.14	3272.65
471.34	3430.35
471.54	3370.96
471.75	3028.95
471.95	2899.92
472.15	2672.60
472.36	2772.95
472.56	2693.08
472.76	2746.33
472.96	2660.31
473.17	2521.05
473.37	2469.85
473.57	2285.53
473.77	2361.31
473.98	2367.45
474.18	2230.24
474.38	2592.73
474.58	2283.49
474.79	2088.93
474.99	2330.59
475.19	2340.83
475.39	2179.04
475.60	2277.34
475.80	2220.00
476.00	2269.15
476.20	2232.29
476.41	2273.25
476.61	2396.12
476.81	2469.85
477.01	2248.67
477.21	2402.27
477.42	2328.54
477.62	2263.01
477.82	2316.25
478.02	2224.09
478.23	2197.47
478.43	2203.61
478.63	2172.89
478.83	2301.92
479.03	2283.49
479.24	2424.80
479.44	2396.12
479.64	2228.19
479.84	2170.85
480.04	2174.94
480.25	2377.69
480.45	2154.46
480.65	2220.00
480.85	2400.22
481.06	2224.09
481.26	2357.21
481.46	2226.14
481.66	2363.36
481.86	2160.61
482.06	2377.69
482.27	2232.29
482.47	2244.57
482.67	2326.49
482.87	2254.81
483.07	2379.74
483.28	2269.15
483.48	2162.66
483.68	2293.72
483.88	2224.09
484.08	2086.88
484.29	2146.27
484.49	2316.25
484.69	2127.84
484.89	2381.79
485.09	2430.94
485.29	2342.88
485.50	2336.73
485.70	2211.81
485.90	2361.31
486.10	2295.77
486.30	2353.12
486.50	2316.25
486.71	2269.15
486.91	2332.64
487.11	2322.40
487.31	2156.51
487.51	2281.44
487.71	2105.31
487.91	2154.46
488.12	2152.42
488.32	2031.58
488.52	2162.66
488.72	2033.63
488.92	2328.54
489.12	2371.55
489.32	2392.03
489.53	2260.96
489.73	2142.18
489.93	2363.36
490.13	2203.61
490.33	2080.74
490.53	2269.15
490.73	2369.50
490.94	2154.46
491.14	2340.83
491.34	2326.49
491.54	2564.06
491.74	3170.26
491.94	3876.80
492.14	4063.17
492.34	4036.55
492.54	3792.84
492.75	3325.90
492.95	3243.98
493.15	2998.23
493.35	2955.22
493.55	2809.81
493.75	2736.09
493.95	2697.17
494.15	2512.86
494.35	2334.68
494.56	2330.59
494.76	2269.15
494.96	2330.59
495.16	2281.44
495.36	2263.01
495.56	2244.57
495.76	2246.62
495.96	2207.71
496.16	2121.70
496.36	2435.03
496.56	2232.29
496.77	2273.25
496.97	2293.72
497.17	2428.89
497.37	2166.75
497.57	2293.72
497.77	2207.71
497.97	2246.62
498.17	2240.48
498.37	2176.99
498.57	2312.16
498.77	2160.61
498.97	2330.59
499.17	2414.56
499.38	2230.24
499.58	2269.15
499.78	2355.16
499.98	2398.17
500.18	2267.10
500.38	2248.67
500.58	2465.75
500.78	2828.24
500.98	4995.00
501.18	7233.43
501.38	8855.42
501.58	9860.97
501.78	9647.98
501.98	7577.48
502.18	6377.37
502.38	5613.48
502.58	5269.42
502.78	4646.84
502.98	4380.61
503.18	4270.01
503.38	3846.09
503.59	3305.42
503.79	3266.51
503.99	2949.08
504.19	2787.29
504.39	2791.38
504.59	2895.83
504.79	2889.68
504.99	2818.00
505.19	2631.64
505.39	2543.58
505.59	2600.92
505.79	2471.90
505.99	2428.89
506.19	2340.83
506.39	2455.51
506.59	2252.77
506.79	2293.72
506.99	2463.71
507.19	2326.49
507.39	2308.06
507.59	2230.24
507.79	2224.09
507.99	2156.51
508.19	2293.72
508.39	2179.04
508.59	2234.33
508.79	2412.51
508.99	2514.91
509.19	2289.63
509.39	2306.01
509.59	2256.86
509.79	2215.90
509.99	2252.77
510.19	2349.02
510.39	2351.07
510.59	2326.49
510.79	2195.42
510.99	2176.99
511.19	2244.57
511.39	2332.64
511.59	2355.16
511.79	2361.31
511.99	2275.29
512.19	2422.75
512.38	2338.78
512.58	2203.61
512.78	2265.05
512.98	2330.59
513.18	2408.41
513.38	2160.61
513.58	2230.24
513.78	2275.29
513.98	2320.35
514.18	2308.06
514.38	2273.25
514.58	2416.60
514.78	2267.10
514.98	2195.42
515.18	2248.67
515.38	2179.04
515.58	2535.39
515.78	2187.23
515.98	2293.72
516.18	2371.55
516.38	2277.34
516.57	2273.25
516.77	2203.61
516.97	2338.78
517.17	2224.09
517.37	2088.93
517.57	2277.34
517.77	2326.49
517.97	2228.19
518.17	2283.49
518.37	2093.02
518.57	2228.19
518.77	2256.86
518.97	2201.57
519.16	2310.11
519.36	2340.83
519.56	2215.90
519.76	2281.44
519.96	2131.94
520.16	2457.56
520.36	2220.00
520.56	2398.17
520.76	2179.04
520.96	2316.25
521.16	2322.40
521.35	2389.98
521.55	2371.55
521.75	2293.72
521.95	2170.85
522.15	2258.91
522.35	2203.61
522.55	2230.24
522.75	2387.93
522.95	2220.00
523.14	2070.50
523.34	2283.49
523.54	2193.37
523.74	2295.77
523.94	2250.72
524.14	2088.93
524.34	2351.07
524.54	2441.18
524.73	2215.90
524.93	2361.31
525.13	2267.10
525.33	2168.80
525.53	2543.58
525.73	2447.32
525.93	2330.59
526.13	2228.19
526.32	2246.62
526.52	2375.64
526.72	2342.88
526.92	2230.24
527.12	2203.61
527.32	2222.05
527.52	2367.45
527.71	2283.49
527.91	2209.76
528.11	2220.00
528.31	2172.89
528.51	2236.38
528.71	2334.68
528.90	2297.82
529.10	2396.12
529.30	2389.98
529.50	2015.20
529.70	2254.81
529.90	2209.76
530.09	2285.53
530.29	2088.93
530.49	2203.61
530.69	2633.69
530.89	2301.92
531.09	2330.59
531.28	2174.94
531.48	2344.92
531.68	2234.33
531.88	2299.87
532.08	2349.02
532.28	2226.14
532.47	2306.01
532.67	2432.99
532.87	2392.03
533.07	2164.70
533.27	2277.34
533.46	2293.72
533.66	2265.05
533.86	2228.19
534.06	2244.57
534.26	2244.57
534.45	2295.77
534.65	2420.70
534.85	2174.94
535.05	2291.68
535.25	2400.22
535.44	2152.42
535.64	2326.49
535.84	2265.05
536.04	2244.57
536.24	2252.77
536.43	2195.42
536.63	2238.43
536.83	2301.92
537.03	2306.01
537.22	2136.03
537.42	2123.74
537.62	2322.40
537.82	2193.37
538.02	2392.03
538.21	2326.49
538.41	2611.16
538.61	2408.41
538.81	2228.19
539.00	2400.22
539.20	2174.94
539.40	2267.10
539.60	2271.20
539.79	2359.26
539.99	2232.29
540.19	2148.32
540.39	2250.72
540.58	2371.55
540.78	2400.22
540.98	2310.11
541.18	2400.22
541.37	2342.88
541.57	2170.85
541.77	2383.84
541.97	2170.85
542.16	2088.93
542.36	2240.48
542.56	2293.72
542.76	2402.27
542.95	2357.21
543.15	2273.25
543.35	2306.01
543.54	2234.33
543.74	2252.77
543.94	2412.51
544.14	2236.38
544.33	2291.68
544.53	2246.62
544.73	2314.20
544.93	2170.85
545.12	2187.23
545.32	2291.68
545.52	2205.66
545.71	2117.60
545.91	2234.33
546.11	2250.72
546.30	2095.07
546.50	2273.25
546.70	2263.01
546.90	2205.66
547.09	2043.87
547.29	2260.96
547.49	2320.35
547.68	2269.15
547.88	2176.99
548.08	2342.88
548.27	2686.94
548.47	2252.77
548.67	2121.70
548.87	2297.82
549.06	2252.77
549.26	2273.25
549.46	2367.45
549.65	2179.04
549.85	2275.29
550.05	2256.86
550.24	2140.13
550.44	2295.77
550.64	2267.10
550.83	2230.24
551.03	2336.73
551.23	2367.45
551.42	2250.72
551.62	2285.53
551.82	2240.48
552.01	2234.33
552.21	2422.75
552.41	2215.90
552.60	2301.92
552.80	2316.25
553.00	2176.99
553.19	2179.04
553.39	2432.99
553.59	2152.42
553.78	2293.72
553.98	2342.88
554.17	2133.98
554.37	2306.01
554.57	2371.55
554.76	2056.16
554.96	2142.18
555.16	2273.25
555.35	2195.42
555.55	2275.29
555.75	2387.93
555.94	2306.01
556.14	2138.08
556.33	2267.10
556.53	2293.72
556.73	2267.10
556.92	2310.11
557.12	2332.64
557.32	2473.95
557.51	2469.85
557.71	2230.24
557.90	2385.88
558.10	2351.07
558.30	2228.19
558.49	2228.19
558.69	2269.15
558.88	2334.68
559.08	2318.30
559.28	2285.53
559.47	2183.13
559.67	2332.64
559.86	2457.56
560.06	2269.15
560.26	2283.49
560.45	2314.20
560.65	2248.67
560.84	2338.78
561.04	2197.47
561.24	2346.97
561.43	2168.80
561.63	2404.32
561.82	2273.25
562.02	2297.82
562.22	2211.81
562.41	2160.61
562.61	2252.77
562.80	2160.61
563.00	2564.06
563.19	2332.64
563.39	2301.92
563.59	2318.30
563.78	2142.18
563.98	2097.12
564.17	2215.90
564.37	2136.03
564.56	2248.67
564.76	2195.42
564.96	2291.68
565.15	2334.68
565.35	2539.48
565.54	2224.09
565.74	2332.64
565.93	2369.50
566.13	2164.70
566.32	2285.53
566.52	2228.19
566.71	2281.44
566.91	2373.60
567.11	2318.30
567.30	2172.89
567.50	2291.68
567.69	2289.63
567.89	2191.33
568.08	2176.99
568.28	2273.25
568.47	2254.81
568.67	2248.67
568.86	2250.72
569.06	2398.17
569.25	2244.57
569.45	2172.89
569.64	2248.67
569.84	2176.99
570.04	2256.86
570.23	2265.05
570.43	2293.72
570.62	2260.96
570.82	2473.95
571.01	2199.52
571.21	2224.09
571.40	2164.70
571.60	2334.68
571.79	2375.64
571.99	2279.39
572.18	2201.57
572.38	2324.44
572.57	2224.09
572.77	2326.49
572.96	2551.77
573.16	2248.67
573.35	2260.96
573.55	2355.16
573.74	2342.88
573.94	2228.19
574.13	2172.89
574.33	2441.18
574.52	2357.21
574.71	2297.82
574.91	2277.34
575.10	2220.00
575.30	2244.57
575.49	2234.33
575.69	2168.80
575.88	2277.34
576.08	2275.29
576.27	2418.65
576.47	2269.15
576.66	2449.37
576.86	2396.12
577.05	2310.11
577.25	2373.60
577.44	2482.14
577.64	2342.88
577.83	2402.27
578.02	2232.29
578.22	2461.66
578.41	2445.27
578.61	2269.15
578.80	2119.65
579.00	2209.76
579.19	2252.77
579.39	2355.16
579.58	2332.64
579.77	2246.62
579.97	2447.32
580.16	2463.71
580.36	2420.70
580.55	2324.44
580.75	2334.68
580.94	2303.96
581.13	2428.89
581.33	2387.93
581.52	2338.78
581.72	2557.91
581.91	2467.80
582.11	2269.15
582.30	2394.08
582.49	2301.92
582.69	2369.50
582.88	2330.59
583.08	2295.77
583.27	2365.40
583.47	2328.54
583.66	2129.89
583.85	2252.77
584.05	2211.81
584.24	2301.92
584.44	2291.68
584.63	2412.51
584.82	2400.22
585.02	2516.95
585.21	2377.69
585.41	2441.18
585.60	2330.59
585.79	2529.24
585.99	2463.71
586.18	2416.60
586.37	2920.40
586.57	4669.37
586.76	13596.46
586.96	33351.17
587.15	46990.64
587.34	56020.14
587.54	61879.38
587.73	56044.71
587.93	39318.95
588.12	29873.72
588.31	24186.51
588.51	21112.51
588.70	19416.79
588.89	17796.85
589.09	15300.37
589.28	13076.28
589.47	10614.62
589.67	8284.03
589.86	6393.76
590.06	4769.72
590.25	3872.71
590.44	3250.13
590.64	2801.62
590.83	2668.50
591.02	2541.53
591.22	2351.07
591.41	2367.45
591.60	2308.06
591.80	2547.67
591.99	2179.04
592.18	2340.83
592.38	2400.22
592.57	2250.72
592.76	2265.05
592.96	2361.31
593.15	2326.49
593.34	2359.26
593.54	2234.33
593.73	2369.50
593.92	2451.42
594.12	2394.08
594.31	2361.31
594.50	2453.47
594.70	2412.51
594.89	2539.48
595.08	2174.94
595.28	2404.32
595.47	2570.20
595.66	2426.84
595.86	2240.48
596.05	2220.00
596.24	2256.86
596.43	2516.95
596.63	2389.98
596.82	2289.63
597.01	2389.98
597.21	2457.56
597.40	2355.16
597.59	2306.01
597.79	2209.76
597.98	2340.83
598.17	2328.54
598.36	2344.92
598.56	2344.92
598.75	2203.61
598.94	2367.45
599.14	2336.73
599.33	2324.44
599.52	2406.36
599.71	2242.53
599.91	2373.60
600.10	2365.40
600.29	2285.53
600.48	2408.41
600.68	2301.92
600.87	2240.48
601.06	2185.18
601.26	2332.64
601.45	2301.92
601.64	2228.19
601.83	2416.60
602.03	2236.38
602.22	2222.05
602.41	2418.65
602.60	2600.92
602.80	2404.32
602.99	2191.33
603.18	2195.42
603.37	2275.29
603.57	2267.10
603.76	2336.73
603.95	2408.41
604.14	2265.05
604.34	2179.04
604.53	2281.44
604.72	2176.99
604.91	2430.94
605.10	2301.92
605.30	2222.05
605.49	2539.48
605.68	2396.12
605.87	2232.29
606.07	2199.52
606.26	2228.19
606.45	2324.44
606.64	2306.01
606.84	2234.33
607.03	2330.59
607.22	2404.32
607.41	2179.04
607.60	2273.25
607.80	2367.45
607.99	2244.57
608.18	2285.53
608.37	2232.29
608.56	2250.72
608.76	2373.60
608.95	2453.47
609.14	2342.88
609.33	2461.66
609.52	2484.19
609.72	2310.11
609.91	2414.56
610.10	2281.44
610.29	2471.90
610.48	2359.26
610.68	2310.11
610.87	2275.29
611.06	2353.12
611.25	2301.92
611.44	2416.60
611.63	2254.81
611.83	2334.68
612.02	2183.13
612.21	2338.78
612.40	2160.61
612.59	2154.46
612.79	2195.42
612.98	2256.86
613.17	2432.99
613.36	2269.15
613.55	2465.75
613.74	2283.49
613.93	2439.13
614.13	2445.27
614.32	2494.43
614.51	2424.80
614.70	2308.06
614.89	2306.01
615.08	2408.41
615.28	2830.29
615.47	2246.62
615.66	2412.51
615.85	2406.36
616.04	2500.57
616.23	2211.81
616.42	2293.72
616.62	2332.64
616.81	2342.88
617.00	2373.60
617.19	2338.78
617.38	2252.77
617.57	2279.39
617.76	2342.88
617.95	2322.40
618.15	2324.44
618.34	2432.99
618.53	2144.22
618.72	2334.68
618.91	2396.12
619.10	2412.51
619.29	2324.44
619.48	2252.77
619.68	2168.80
619.87	2238.43
620.06	2193.37
620.25	2306.01
620.44	2250.72
620.63	2234.33
620.82	2254.81
621.01	2346.97
621.20	2199.52
621.39	2310.11
621.59	2316.25
621.78	2263.01
621.97	2240.48
622.16	2281.44
622.35	2260.96
622.54	2328.54
622.73	2412.51
622.92	2113.50
623.11	2424.80
623.30	2273.25
623.49	2303.96
623.68	2183.13
623.88	2369.50
624.07	2215.90
624.26	2285.53
624.45	2263.01
624.64	2217.95
624.83	2289.63
625.02	2220.00
625.21	2226.14
625.40	2277.34
625.59	2441.18
625.78	2271.20
625.97	2363.36
626.16	2480.09
626.35	2373.60
626.54	2301.92
626.74	2465.75
626.93	2283.49
627.12	2283.49
627.31	2408.41
627.50	2299.87
627.69	2400.22
627.88	2133.98
628.07	2187.23
628.26	2109.41
628.45	2199.52
628.64	2115.55
628.83	2289.63
629.02	2105.31
629.21	2330.59
629.40	2291.68
629.59	2277.34
629.78	2238.43
629.97	2299.87
630.16	2322.40
630.35	2269.15
630.54	2301.92
630.73	2226.14
630.92	2277.34
631.11	2144.22
631.30	2269.15
631.49	2336.73
631.68	2217.95
631.87	2303.96
632.06	2176.99
632.25	2424.80
632.44	2346.97
632.63	2287.58
632.82	2291.68
633.01	2365.40
633.20	2355.16
633.39	2277.34
633.58	2162.66
633.77	2357.21
633.96	2422.75
634.15	2408.41
634.34	2381.79
634.53	2308.06
634.72	2230.24
634.91	2093.02
635.10	2260.96
635.29	2367.45
635.48	2260.96
635.67	2209.76
635.86	2144.22
636.05	2480.09
636.24	2222.05
636.43	2291.68
636.62	2308.06
636.81	2013.15
637.00	2330.59
637.19	2346.97
637.38	2297.82
637.57	2277.34
637.76	2330.59
637.95	2412.51
638.14	2299.87
638.33	2363.36
638.52	2310.11
638.71	2164.70
638.89	2185.18
639.08	2639.83
639.27	2422.75
639.46	2420.70
639.65	2856.92
639.84	2772.95
640.03	2938.84
640.22	2838.48
640.41	2916.31
640.60	2430.94
640.79	2496.47
640.98	2471.90
641.17	2539.48
641.36	2424.80
641.55	2422.75
641.74	2256.86
641.92	2242.53
642.11	2236.38
642.30	2277.34
642.49	2199.52
642.68	2252.77
642.87	2291.68
643.06	2437.08
643.25	2236.38
643.44	2119.65
643.63	2236.38
643.82	2277.34
644.00	2179.04
644.19	2258.91
644.38	2144.22
644.57	2322.40
644.76	2232.29
644.95	2215.90
645.14	2197.47
645.33	2252.77
645.52	2273.25
645.71	2172.89
645.89	2133.98
646.08	2242.53
646.27	2258.91
646.46	2426.84
646.65	2179.04
646.84	2293.72
647.03	2146.27
647.22	2357.21
647.40	2250.72
647.59	2269.15
647.78	2138.08
647.97	2097.12
648.16	2164.70
648.35	2373.60
648.54	2385.88
648.73	2162.66
648.91	2355.16
649.10	2250.72
649.29	2179.04
649.48	2256.86
649.67	2303.96
649.86	2285.53
650.05	2359.26
650.23	2500.57
650.42	2351.07
650.61	2500.57
650.80	2373.60
650.99	2584.54
651.18	2432.99
651.36	2402.27
651.55	2269.15
651.74	2424.80
651.93	2301.92
652.12	2205.66
652.31	2301.92
652.49	2308.06
652.68	2242.53
652.87	2426.84
653.06	2334.68
653.25	2537.43
653.44	2252.77
653.62	2420.70
653.81	2269.15
654.00	2240.48
654.19	2338.78
654.38	2441.18
654.56	2269.15
654.75	2236.38
654.94	2398.17
655.13	2263.01
655.32	2185.18
655.51	2316.25
655.69	2291.68
655.88	2248.67
656.07	2086.88
656.26	2209.76
656.45	2140.13
656.63	2215.90
656.82	2277.34
657.01	2316.25
657.20	2203.61
657.38	2379.74
657.57	2242.53
657.76	2082.78
657.95	2387.93
658.14	2236.38
658.32	2310.11
658.51	2125.79
658.70	2213.85
658.89	2232.29
659.08	2236.38
659.26	2420.70
659.45	2252.77
659.64	2408.41
659.83	2244.57
660.01	2557.91
660.20	2236.38
660.39	2488.28
660.58	2133.98
660.76	2336.73
660.95	2172.89
661.14	2318.30
661.33	2123.74
661.51	2185.18
661.70	2172.89
661.89	2322.40
662.08	2258.91
662.26	2119.65
662.45	2217.95
662.64	2385.88
662.83	2392.03
663.01	2129.89
663.20	2144.22
663.39	2459.61
663.58	2187.23
663.76	2242.53
663.95	2371.55
664.14	2236.38
664.32	2113.50
664.51	2203.61
664.70	2138.08
664.89	2232.29
665.07	2103.26
665.26	2322.40
665.45	2107.36
665.64	2351.07
665.82	2215.90
666.01	2342.88
666.20	2236.38
666.38	2342.88
666.57	2488.28
666.76	3291.09
666.95	8200.07
667.13	16324.36
667.32	21210.81
667.51	25067.14
667.69	26783.34
667.88	24604.30
668.07	17305.34
668.25	13891.37
668.44	11370.32
668.63	9854.83
668.81	8695.68
669.00	7585.68
669.19	6852.50
669.38	5896.10
669.56	5169.07
669.75	4255.68
669.94	3600.33
670.12	3010.51
670.31	2826.20
670.50	2662.36
670.68	2525.15
670.87	2400.22
671.06	2396.12
671.24	2349.02
671.43	2400.22
671.62	2398.17
671.80	2340.83
671.99	2357.21
672.18	2222.05
672.36	2406.36
672.55	2265.05
672.74	2234.33
672.92	2222.05
673.11	2295.77
673.29	2199.52
673.48	2363.36
673.67	2240.48
673.85	2367.45
674.04	2158.56
674.23	2277.34
674.41	2402.27
674.60	2152.42
674.79	2095.07
674.97	2209.76
675.16	2310.11
675.34	2277.34
675.53	2236.38
675.72	2342.88
675.90	2484.19
676.09	2203.61
676.28	2236.38
676.46	2113.50
676.65	2252.77
676.83	2176.99
677.02	2285.53
677.21	2283.49
677.39	2324.44
677.58	2172.89
677.77	2183.13
677.95	2142.18
678.14	2293.72
678.32	2187.23
678.51	2228.19
678.70	2381.79
678.88	2267.10
679.07	2283.49
679.25	2222.05
679.44	2168.80
679.63	2136.03
679.81	2256.86
680.00	2457.56
680.18	2279.39
680.37	2432.99
680.55	2273.25
680.74	2127.84
680.93	2129.89
681.11	2301.92
681.30	2295.77
681.48	2260.96
681.67	2207.71
681.85	2344.92
682.04	2211.81
682.23	2301.92
682.41	2322.40
682.60	2258.91
682.78	2258.91
682.97	2158.56
683.15	2277.34
683.34	2265.05
683.53	2420.70
683.71	2176.99
683.90	2326.49
684.08	2414.56
684.27	2265.05
684.45	2332.64
684.64	2400.22
684.82	2174.94
685.01	2340.83
685.19	2269.15
685.38	2400.22
685.57	2285.53
685.75	2111.46
685.94	2183.13
686.12	2201.57
686.31	2258.91
686.49	2426.84
686.68	2119.65
686.86	2297.82
687.05	2258.91
687.23	2340.83
687.42	2164.70
687.60	2004.96
687.79	2322.40
687.97	2439.13
688.16	2473.95
688.34	2357.21
688.53	2117.60
688.71	2285.53
688.90	2351.07
689.08	2267.10
689.27	2111.46
689.45	2359.26
689.64	2351.07
689.82	2236.38
690.01	2336.73
690.19	2320.35
690.38	2244.57
690.56	2398.17
690.75	2185.18
690.93	2211.81
691.12	2240.48
691.30	2242.53
691.49	2127.84
691.67	2203.61
691.86	2383.84
692.04	2213.85
692.23	2244.57
692.41	2263.01
692.60	2490.33
692.78	2404.32
692.97	2303.96
693.15	2324.44
693.34	2469.85
693.52	2383.84
693.71	2203.61
693.89	2265.05
694.08	2105.31
694.26	2338.78
694.44	2299.87
694.63	2336.73
694.81	2170.85
695.00	2234.33
695.18	2398.17
695.37	2549.72
695.55	2199.52
695.74	2275.29
695.92	2220.00
696.10	2336.73
696.29	2136.03
696.47	2248.67
696.66	2170.85
696.84	2211.81
697.03	2273.25
697.21	2424.80
697.40	3278.80
697.58	2404.32
697.76	2146.27
697.95	2162.66
698.13	2113.50
698.32	2224.09
698.50	2271.20
698.68	2273.25
698.87	2252.77
699.05	2412.51
699.24	2318.30
699.42	2187.23
699.61	2248.67
699.79	2211.81
699.97	2226.14
700.16	2156.51
700.34	2160.61
700.53	2265.05
700.71	2346.97
700.89	2301.92
701.08	2244.57
701.26	2265.05
701.45	2858.96
701.63	2158.56
701.81	2246.62
702.00	2154.46
702.18	2244.57
702.37	2299.87
702.55	2416.60
702.73	2441.18
702.92	2314.20
703.10	2574.30
703.28	2541.53
703.47	2291.68
703.65	2432.99
703.84	2396.12
704.02	2322.40
704.20	2422.75
704.39	2301.92
704.57	2242.53
704.75	2359.26
704.94	2301.92
705.12	2283.49
705.30	2559.96
705.49	4429.76
705.67	10268.52
705.86	18040.56
706.04	21972.66
706.22	25034.37
706.41	25788.02
706.59	21923.51
706.77	15490.84
706.96	12840.76
707.14	11452.24
707.32	10010.47
707.51	8785.79
707.69	7305.10
707.87	5949.35
708.06	4722.62
708.24	3960.77
708.42	3164.11
708.61	3043.28
708.79	2467.80
708.97	2402.27
709.16	2437.08
709.34	2318.30
709.52	2287.58
709.71	2293.72
709.89	2332.64
710.07	2168.80
710.26	2232.29
710.44	2150.37
710.62	2457.56
710.80	2207.71
710.99	2310.11
711.17	2346.97
711.35	2250.72
711.54	2203.61
711.72	2396.12
711.90	2322.40
712.09	2349.02
712.27	2170.85
712.45	2303.96
712.63	2160.61
712.82	2285.53
713.00	2238.43
713.18	2349.02
713.37	2351.07
713.55	2267.10
713.73	2295.77
713.91	2359.26
714.10	2160.61
714.28	2248.67
714.46	2326.49
714.65	2234.33
714.83	2293.72
715.01	2342.88
715.19	2330.59
715.38	2164.70
715.56	2291.68
715.74	2205.66
715.92	2168.80
716.11	2430.94
716.29	2033.63
716.47	2277.34
716.65	2263.01
716.84	2095.07
717.02	2353.12
717.20	2052.06
717.38	2195.42
717.57	2314.20
717.75	2203.61
717.93	2299.87
718.11	2279.39
718.30	2142.18
718.48	2289.63
718.66	2351.07
718.84	2375.64
719.03	2226.14
719.21	2133.98
719.39	2355.16
719.57	2324.44
719.75	2351.07
719.94	2215.90
720.12	2240.48
720.30	2203.61
720.48	2306.01
720.67	2201.57
720.85	2187.23
721.03	2162.66
721.21	2129.89
721.39	2371.55
721.58	2324.44
721.76	2297.82
721.94	2310.11
722.12	2217.95
722.30	2375.64
722.49	2260.96
722.67	2267.10
722.85	2306.01
723.03	2121.70
723.21	2197.47
723.40	2287.58
723.58	2359.26
723.76	2338.78
723.94	2385.88
724.12	2326.49
724.30	2457.56
724.49	2394.08
724.67	2263.01
724.85	2455.51
725.03	2230.24
725.21	2281.44
725.40	2322.40
725.58	2181.09
725.76	2359.26
725.94	2342.88
726.12	2150.37
726.30	2277.34
726.49	2197.47
726.67	2217.95
726.85	2308.06
727.03	2555.86
727.21	3678.15
727.39	5015.48
727.57	5849.00
727.76	6555.55
727.94	6715.29
728.12	6377.37
728.30	5085.11
728.48	4546.49
728.66	4030.40
728.84	3807.17
729.03	3387.34
729.21	2979.79
729.39	2682.84
729.57	2465.75
729.75	2389.98
729.93	2465.75
730.11	2211.81
730.30	2207.71
730.48	2230.24
730.66	2308.06
730.84	2334.68
731.02	2222.05
731.20	2238.43
731.38	2287.58
731.56	2172.89
731.74	2074.59
731.93	2363.36
732.11	2342.88
732.29	2240.48
732.47	2240.48
732.65	2357.21
732.83	2435.03
733.01	2369.50
733.19	2242.53
733.37	2238.43
733.56	2301.92
733.74	2181.09
733.92	2389.98
734.10	2248.67
734.28	2293.72
734.46	2097.12
734.64	2179.04
734.82	2293.72
735.00	2170.85
735.18	2138.08
735.36	2252.77
735.54	2236.38
735.73	2220.00
735.91	2246.62
736.09	2301.92
736.27	2297.82
736.45	2285.53
736.63	2070.50
736.81	2234.33
736.99	2330.59
737.17	2377.69
737.35	2179.04
737.53	2283.49
737.71	2260.96
737.89	2404.32
738.07	2107.36
738.25	2189.28
738.43	2158.56
738.61	2191.33
738.80	2133.98
738.98	2228.19
739.16	2211.81
739.34	2168.80
739.52	2396.12
739.70	2283.49
739.88	2351.07
740.06	2389.98
740.24	2074.59
740.42	2406.36
740.60	2056.16
740.78	2236.38
740.96	2093.02
741.14	2265.05
741.32	2314.20
741.50	2062.30
741.68	2453.47
741.86	2324.44
742.04	2174.94
742.22	2152.42
742.40	2224.09
742.58	2236.38
742.76	2207.71
742.94	2383.84
743.12	2002.91
743.30	2238.43
743.48	2392.03
743.66	2174.94
743.84	2234.33
744.02	2203.61
744.20	2203.61
744.38	2117.60
744.56	2166.75
744.74	2361.31
744.92	2252.77
745.10	2387.93
745.28	2381.79
745.46	2457.56
745.64	2240.48
745.82	2316.25
746.00	2215.90
746.18	2279.39
746.36	2148.32
746.54	2254.81
746.72	2228.19
746.90	2140.13
747.08	2432.99
747.26	2238.43
747.44	2412.51
747.62	2320.35
747.80	2232.29
747.98	2373.60
748.15	2201.57
748.33	2449.37
748.51	2287.58
748.69	2256.86
748.87	2074.59
749.05	2244.57
749.23	2211.81
749.41	2269.15
749.59	2187.23
749.77	2361.31
749.95	2226.14
750.13	2179.04
750.31	2285.53
750.49	2244.57
750.67	2351.07
750.85	2375.64
751.03	2250.72
751.20	2412.51
751.38	2293.72
751.56	2267.10
751.74	2310.11
751.92	2228.19
752.10	2148.32
752.28	2340.83
752.46	2117.60
752.64	2224.09
752.82	2265.05
753.00	2439.13
753.18	2207.71
753.35	2189.28
753.53	2267.10
753.71	2195.42
753.89	2254.81
754.07	2258.91
754.25	2326.49
754.43	2303.96
754.61	2142.18
754.79	2322.40
754.97	2248.67
755.14	2328.54
755.32	2129.89
755.50	2238.43
755.68	2236.38
755.86	2166.75
756.04	2230.24
756.22	2101.22
756.40	2295.77
756.57	2412.51
756.75	2179.04
756.93	2346.97
757.11	2357.21
757.29	2166.75
757.47	2211.81
757.65	2133.98
757.82	2056.16
758.00	2183.13
758.18	2250.72
758.36	2185.18
758.54	2420.70
758.72	2148.32
758.90	2285.53
759.07	2230.24
759.25	2179.04
759.43	2205.66
759.61	2187.23
759.79	3090.38
759.97	2383.84
760.15	2179.04
760.32	2162.66
760.50	2314.20
760.68	2359.26
760.86	2111.46
761.04	2394.08
761.22	2312.16
761.39	2265.05
761.57	2260.96
761.75	2291.68
761.93	2306.01
762.11	2197.47
762.28	2252.77
762.46	2191.33
762.64	2316.25
762.82	2058.21
763.00	2162.66
763.18	2381.79
763.35	2179.04
763.53	2281.44
763.71	2273.25
763.89	2244.57
764.07	2355.16
764.24	2205.66
764.42	2369.50
764.60	2164.70
764.78	2324.44
764.96	2314.20
765.13	2371.55
765.31	2236.38
765.49	2346.97
765.67	2129.89
765.84	2133.98
766.02	2209.76
766.20	2084.83
766.38	2283.49
766.56	2269.15
766.73	2357.21
766.91	2240.48
767.09	2258.91
767.27	2211.81
767.44	2117.60
767.62	2383.84
767.80	2252.77
767.98	2144.22
768.15	2168.80
768.33	2275.29
768.51	2426.84
768.69	2287.58
768.87	2269.15
769.04	2273.25
769.22	2437.08
769.40	2463.71
769.58	2443.23
769.75	2324.44
769.93	2383.84
770.11	2228.19
770.28	2131.94
770.46	2367.45
770.64	2250.72
770.82	2170.85
770.99	2170.85
771.17	2271.20
771.35	2176.99
771.53	2283.49
771.70	2217.95
771.88	2244.57
772.06	2224.09
772.23	2195.42
772.41	2273.25
772.59	2226.14
772.77	2187.23
772.94	2238.43
773.12	2258.91
773.30	2181.09
773.47	2275.29
773.65	2146.27
773.83	2410.46
774.01	2256.86
774.18	2070.50
774.36	2312.16
774.54	2117.60
774.71	2310.11
774.89	2142.18
775.07	2158.56
775.24	2269.15
775.42	2228.19
775.60	2504.67
775.78	2252.77
775.95	2129.89
776.13	2033.63
776.31	2007.01
776.48	2295.77
776.66	2396.12
776.84	2224.09
777.01	2187.23
777.19	2152.42
777.37	2152.42
777.54	2375.64
777.72	2568.15
777.90	2269.15
778.07	2179.04
778.25	2514.91
778.43	2336.73
778.60	2207.71
778.78	2381.79
778.96	2299.87
779.13	2129.89
779.31	2293.72
779.49	2174.94
779.66	2260.96
779.84	2242.53
780.01	2181.09
780.19	2123.74
780.37	2398.17
780.54	2359.26
780.72	2062.30
780.90	2244.57
781.07	2107.36
781.25	2179.04
781.43	2271.20
781.60	2228.19
781.78	2396.12
781.95	2310.11
782.13	2095.07
782.31	2162.66
782.48	2088.93
782.66	2236.38
782.83	2482.14
783.01	2207.71
783.19	2340.83
783.36	2203.61
783.54	2187.23
783.72	2351.07
783.89	2115.55
784.07	2230.24
784.24	2328.54
784.42	2432.99
784.60	2232.29
784.77	2234.33
784.95	2052.06
785.12	2164.70
785.30	2232.29
785.47	2187.23
785.65	2217.95
785.83	2211.81
786.00	2201.57
786.18	2250.72
786.35	2084.83
786.53	2211.81
786.71	2389.98
786.88	2240.48
787.06	2328.54
787.23	2256.86
787.41	2125.79
787.58	2238.43
787.76	2138.08
787.94	2244.57
788.11	2170.85
788.29	2168.80
788.46	2222.05
788.64	2074.59
788.81	2170.85
788.99	2146.27
789.16	2156.51
789.34	2191.33
789.52	2154.46
789.69	2185.18
789.87	2088.93
790.04	2217.95
790.22	2222.05
790.39	2379.74
790.57	2201.57
790.74	2191.33
790.92	2318.30
791.09	2066.40
791.27	2254.81
791.44	2326.49
791.62	2228.19
791.79	2367.45
791.97	2301.92
792.15	2541.53
792.32	2256.86
792.50	2244.57
792.67	2377.69
792.85	2379.74
793.02	2291.68
793.20	2123.74
793.37	2084.83
793.55	2197.47
793.72	2187.23
793.90	2293.72
794.07	2187.23
794.25	2168.80
794.42	2281.44
794.60	2211.81
794.77	2297.82
794.95	2375.64
795.12	2293.72
795.30	2252.77
795.47	2054.11
795.65	2611.16
795.82	2258.91
796.00	2191.33
796.17	2283.49
796.34	2138.08
796.52	2320.35
796.69	2283.49
796.87	2314.20
797.04	2285.53
797.22	2267.10
797.39	2320.35
797.57	2314.20
797.74	2226.14
797.92	2318.30
798.09	2168.80
798.27	2308.06
798.44	2226.14
798.62	2148.32
798.79	2234.33
798.96	2256.86
799.14	2301.92
799.31	2523.10
799.49	2250.72
799.66	2150.37
799.84	2308.06
800.01	2170.85
800.19	2285.53
800.36	2142.18
800.53	2252.77
800.71	2244.57
800.88	2480.09
801.06	2154.46
801.23	2191.33
801.41	2232.29
801.58	2230.24
801.75	2170.85
801.93	2275.29
802.10	2301.92
802.28	2297.82
802.45	2152.42
802.63	2316.25
802.80	2443.23
802.97	2275.29
803.15	2277.34
803.32	2197.47
803.50	2160.61
803.67	2140.13
803.84	2111.46
804.02	2228.19
804.19	2211.81
804.37	1988.58
804.54	2129.89
804.71	2150.37
804.89	2297.82
805.06	2211.81
805.24	2213.85
805.41	2080.74
805.58	2230.24
805.76	2588.63
805.93	2232.29
806.10	2324.44
806.28	2316.25
806.45	2148.32
806.63	2291.68
806.80	2254.81
806.97	2316.25
807.15	2301.92
807.32	2340.83
807.49	2269.15
807.67	2136.03
807.84	2303.96
808.01	2093.02
808.19	2351.07
808.36	2514.91
808.54	2203.61
808.71	2170.85
808.88	2236.38
809.06	2381.79
809.23	2379.74
809.40	2174.94
809.58	2383.84
809.75	2256.86
809.92	2246.62
810.10	2449.37
810.27	2211.81
810.44	2267.10
810.62	2320.35
810.79	2271.20
810.96	2176.99
811.14	2252.77
811.31	2285.53
811.48	2342.88
811.66	2297.82
811.83	2308.06
812.00	2314.20
812.18	2322.40
812.35	2430.94
812.52	2211.81
812.69	2168.80
812.87	2195.42
813.04	2263.01
813.21	2267.10
813.39	2176.99
813.56	2107.36
813.73	2357.21
813.91	2113.50
814.08	2248.67
814.25	2303.96
814.42	2082.78
814.60	2189.28
814.77	2260.96
814.94	2258.91
815.12	2240.48
815.29	2432.99
815.46	2133.98
815.63	2240.48
815.81	2209.76
815.98	2195.42
816.15	2256.86
816.33	2252.77
816.50	2220.00
816.67	2281.44
816.84	2203.61
817.02	2158.56
817.19	2217.95
817.36	2267.10
817.53	2277.34
817.71	2213.85
817.88	2279.39
818.05	2273.25
818.22	2222.05
818.40	2439.13
818.57	2168.80
818.74	2265.05
818.91	2203.61
819.09	2308.06
819.26	2334.68
819.43	2166.75
819.60	2170.85
819.78	2322.40
819.95	2320.35
820.12	2179.04
820.29	2328.54
820.47	2355.16
820.64	2168.80
820.81	2103.26
820.98	2164.70
821.15	2277.34
821.33	2273.25
821.50	2080.74
821.67	2226.14
821.84	2129.89
822.02	2277.34
822.19	2379.74
822.36	2183.13
822.53	2197.47
822.70	2133.98
822.88	2217.95
823.05	2400.22
823.22	2226.14
823.39	2289.63
823.56	2224.09
823.74	2430.94
823.91	2133.98
824.08	2125.79
824.25	2113.50
824.42	2422.75
824.60	2090.98
824.77	2297.82
824.94	2176.99
825.11	2287.58
825.28	2111.46
825.45	2295.77
825.63	2240.48
825.80	2174.94
825.97	2316.25
826.14	2228.19
826.31	2103.26
826.48	2334.68
826.66	2162.66
826.83	2150.37
827.00	2201.57
827.17	2093.02
827.34	2187.23
827.51	2238.43
827.69	2254.81
827.86	2140.13
828.03	2224.09
828.20	2273.25
828.37	2172.89
828.54	2277.34
828.71	2191.33
828.89	2342.88
829.06	2220.00
829.23	2428.89
829.40	2170.85
829.57	2224.09
829.74	2308.06
829.91	2205.66
830.09	2193.37
830.26	2252.77
830.43	2400.22
830.60	2293.72
830.77	2346.97
830.94	2359.26
831.11	2357.21
831.28	2207.71
831.46	2326.49
831.63	2205.66
831.80	2375.64
831.97	2115.55
832.14	2111.46
832.31	2277.34
832.48	2299.87
832.65	2295.77
832.82	2236.38
832.99	2242.53
833.17	2187.23
833.34	2447.32
833.51	2338.78
833.68	1990.63
833.85	2318.30
834.02	2215.90
834.19	2064.35
834.36	2123.74
834.53	2258.91
834.70	2328.54
834.87	2277.34
835.04	2136.03
835.22	2125.79
835.39	2281.44
835.56	2129.89
835.73	2209.76
835.90	2381.79
836.07	2187.23
836.24	2279.39
836.41	2154.46
836.58	2136.03
836.75	2316.25
836.92	2205.66
837.09	2162.66
837.26	2328.54
837.43	2303.96
837.60	2263.01
837.77	2193.37
837.94	2287.58
838.12	2361.31
838.29	2197.47
838.46	2088.93
838.63	2166.75
838.80	2430.94
838.97	2287.58
839.14	2238.43
839.31	2222.05
839.48	2392.03
839.65	2258.91
839.82	2308.06
839.99	2322.40
840.16	2299.87
840.33	2226.14
840.50	2250.72
840.67	2129.89
840.84	1998.82
841.01	2271.20
841.18	2179.04
841.35	2252.77
841.52	2314.20
841.69	2375.64
841.86	2222.05
842.03	2277.34
842.20	2375.64
842.37	2226.14
842.54	2215.90
842.71	2254.81
842.88	2133.98
843.05	2209.76
843.22	2113.50
843.39	2248.67
843.56	2162.66
843.73	2197.47
843.90	2193.37
844.07	2203.61
844.24	2299.87
844.41	2277.34
844.58	2236.38
844.75	2260.96
844.92	2310.11
845.09	2258.91
845.26	2113.50
845.43	2256.86
845.60	2244.57
845.77	2275.29
845.94	2195.42
846.10	2336.73
846.27	2150.37
846.44	2174.94
846.61	2086.88
846.78	2306.01
846.95	2301.92
847.12	2127.84
847.29	2183.13
847.46	2121.70
847.63	2281.44
847.80	2176.99
847.97	2195.42
848.14	2445.27
848.31	2168.80
848.48	2052.06
848.65	2197.47
848.82	2168.80
848.98	2508.76
849.15	2308.06
849.32	2295.77
849.49	2303.96
849.66	2228.19
849.83	2105.31
850.00	2133.98
850.17	2361.31
850.34	2193.37
850.51	2119.65
850.68	2226.14
850.85	2402.27
851.01	2277.34
851.18	2211.81
851.35	2263.01
851.52	2332.64
851.69	2435.03
851.86	2111.46
852.03	2197.47
852.20	2375.64
852.37	2254.81
852.53	2029.54
852.70	2179.04
852.87	2287.58
853.04	2273.25
853.21	2164.70
853.38	2344.92
853.55	2396.12
853.72	2346.97
853.89	2164.70
854.05	2154.46
854.22	2271.20
854.39	2226.14
854.56	2234.33
854.73	2322.40
854.90	2152.42
855.07	2136.03
855.23	2174.94
855.40	2170.85
855.57	2121.70
855.74	2095.07
855.91	2488.28
856.08	2123.74
856.25	2115.55
856.41	2170.85
856.58	2179.04
856.75	2248.67
856.92	2080.74
857.09	2310.11
857.26	2074.59
857.42	2199.52
857.59	2308.06
857.76	2179.04
857.93	2228.19
858.10	2285.53
858.27	2129.89
858.43	2277.34
858.60	2097.12
858.77	2093.02
858.94	2220.00
859.11	2275.29
859.27	2176.99
859.44	2224.09
859.61	2523.10
859.78	2322.40
859.95	2197.47
860.12	2111.46
860.28	2449.37
860.45	2402.27
860.62	2201.57
860.79	2220.00
860.95	2232.29
861.12	2164.70
861.29	2103.26
861.46	2090.98
861.63	2220.00
861.79	2220.00
861.96	2095.07
862.13	2187.23
862.30	2400.22
862.47	2160.61
862.63	2203.61
862.80	2250.72
862.97	2432.99
863.14	2363.36
863.30	2193.37
863.47	2109.41
863.64	2461.66
863.81	2328.54
863.97	2146.27
864.14	2299.87
864.31	2187.23
864.48	2258.91
864.65	2250.72
864.81	2246.62
864.98	2269.15
865.15	2330.59
865.32	2252.77
865.48	2287.58
865.65	2387.93
865.82	2232.29
865.98	2197.47
866.15	2310.11
866.32	2185.18
866.49	2191.33
866.65	2254.81
866.82	2129.89
866.99	2232.29
867.16	2176.99
867.32	2107.36
867.49	2162.66
867.66	2211.81
867.83	2246.62
867.99	2054.11
868.16	2162.66
868.33	2060.26
868.49	2252.77
868.66	2168.80
868.83	2316.25
868.99	2226.14
869.16	2207.71
869.33	2275.29
869.50	2299.87
869.66	2267.10
869.83	2176.99
870.00	2129.89
870.16	2238.43
870.33	2250.72
870.50	2326.49
870.66	2236.38
870.83	2285.53
871.00	2289.63
871.17	2314.20
871.33	2228.19
871.50	2179.04
871.67	2226.14
871.83	2176.99
872.00	2301.92
872.17	2226.14
872.33	2414.56
872.50	2349.02
872.67	2230.24
872.83	2217.95
873.00	2289.63
873.17	2248.67
873.33	2263.01
873.50	2176.99
873.67	2107.36
873.83	2144.22
874.00	2170.85
874.16	2258.91
874.33	2301.92
874.50	2127.84
874.66	2207.71
874.83	2310.11
875.00	2332.64
875.16	2342.88
875.33	2340.83
875.50	2013.15
875.66	2193.37
875.83	2301.92
875.99	2248.67
876.16	2224.09
876.33	2181.09
876.49	2220.00
876.66	2275.29
876.83	2220.00
876.99	2097.12
877.16	2252.77
877.32	2166.75
877.49	2211.81
877.66	2226.14
877.82	2375.64
877.99	2203.61
878.15	2289.63
878.32	2310.11
878.49	2244.57
878.65	2199.52
878.82	2299.87
878.98	2133.98
879.15	2330.59
879.32	2236.38
879.48	2230.24
879.65	2250.72
879.81	2228.19
879.98	2170.85
880.15	2160.61
880.31	2314.20
880.48	2226.14
880.64	2334.68
880.81	2236.38
880.97	2437.08
881.14	2326.49
881.31	2144.22
881.47	2465.75
881.64	2299.87
881.80	2101.22
881.97	2256.86
882.13	2224.09
882.30	2150.37
882.47	2160.61
882.63	2138.08
882.80	2158.56
882.96	2277.34
883.13	2293.72
883.29	2172.89
883.46	2260.96
883.62	2441.18
883.79	2226.14
883.95	2365.40
884.12	2215.90
884.29	2357.21
884.45	2306.01
884.62	2301.92
884.78	2129.89
884.95	2383.84
885.11	2193.37
885.28	2301.92
885.44	2152.42
885.61	2338.78
885.77	2375.64
885.94	2250.72
886.10	2185.18
886.27	2256.86
886.43	2371.55
886.60	2277.34
886.76	2187.23
886.93	2220.00
887.09	2203.61
887.26	2090.98
887.42	2232.29
887.59	2379.74
887.75	2451.42
887.92	2295.77
888.08	2256.86
888.25	2367.45
888.41	2344.92
888.58	2267.10
888.74	2084.83
888.91	2158.56
>>>>>End Processed Spectral Data<<<<<
