SpectraSuite Data File
++++++++++++++++++++++++++++++++++++
Date: Thu May 05 13:21:16 CEST 2016
User: root
Dark Spectrum Present: No
Reference Spectrum Present: No
Number of Sampled Component Spectra: 1
Spectrometers: USB4C02835
Integration Time (usec): 100000 (USB4C02835)
Spectra Averaged: 1 (USB4C02835)
Boxcar Smoothing: 0 (USB4C02835)
Correct for Electrical Dark: No (USB4C02835)
Strobe/Lamp Enabled: No (USB4C02835)
Correct for Detector Non-linearity: No (USB4C02835)
Correct for Stray Light: No (USB4C02835)
Number of Pixels in Processed Spectrum: 3648
>>>>>Begin Processed Spectral Data<<<<<
177.47	1783.78
177.69	1783.78
177.91	1783.78
178.13	1816.55
178.36	1798.12
178.58	2179.04
178.80	2361.31
179.02	2093.02
179.24	2213.85
179.46	2209.76
179.68	2277.34
179.90	2263.01
180.13	2263.01
180.35	2127.84
180.57	2129.89
180.79	2326.49
181.01	2246.62
181.23	2220.00
181.45	2392.03
181.67	2351.07
181.90	2310.11
182.12	2146.27
182.34	2080.74
182.56	2289.63
182.78	2256.86
183.00	2152.42
183.22	2191.33
183.44	2078.69
183.66	2547.67
183.89	2281.44
184.11	2246.62
184.33	2351.07
184.55	2387.93
184.77	2213.85
184.99	2174.94
185.21	2195.42
185.43	2523.10
185.65	2191.33
185.87	2203.61
186.10	2525.15
186.32	2449.37
186.54	2248.67
186.76	2195.42
186.98	2361.31
187.20	2238.43
187.42	2260.96
187.64	2144.22
187.86	2328.54
188.08	2357.21
188.30	2203.61
188.52	2203.61
188.75	2439.13
188.97	2387.93
189.19	2109.41
189.41	2150.37
189.63	2250.72
189.85	2082.78
190.07	2154.46
190.29	2041.82
190.51	2338.78
190.73	2084.83
190.95	2301.92
191.17	2213.85
191.39	2150.37
191.61	2199.52
191.84	2203.61
192.06	2246.62
192.28	2142.18
192.50	2512.86
192.72	2236.38
192.94	2242.53
193.16	2361.31
193.38	2293.72
193.60	2133.98
193.82	2154.46
194.04	2383.84
194.26	2400.22
194.48	2222.05
194.70	2166.75
194.92	2195.42
195.14	2351.07
195.36	2170.85
195.58	2222.05
195.80	2217.95
196.02	2234.33
196.24	2142.18
196.46	2263.01
196.69	2213.85
196.91	2545.63
197.13	2121.70
197.35	2179.04
197.57	2445.27
197.79	2310.11
198.01	2258.91
198.23	2215.90
198.45	2250.72
198.67	2146.27
198.89	2183.13
199.11	2215.90
199.33	2136.03
199.55	2039.78
199.77	2123.74
199.99	2230.24
200.21	2191.33
200.43	2340.83
200.65	2086.88
200.87	2078.69
201.09	2322.40
201.31	2273.25
201.53	2158.56
201.75	2201.57
201.97	2236.38
202.19	2250.72
202.41	2207.71
202.63	2336.73
202.85	2242.53
203.07	2265.05
203.29	2215.90
203.51	2160.61
203.73	2158.56
203.95	2531.29
204.17	2176.99
204.39	2203.61
204.61	2252.77
204.83	2133.98
205.05	2250.72
205.27	2230.24
205.49	2430.94
205.71	2281.44
205.93	2127.84
206.15	2105.31
206.37	2293.72
206.59	2246.62
206.81	2136.03
207.03	2129.89
207.25	2160.61
207.47	2320.35
207.69	2203.61
207.91	2306.01
208.13	2410.46
208.34	2129.89
208.56	2123.74
208.78	2228.19
209.00	2193.37
209.22	2174.94
209.44	2172.89
209.66	2250.72
209.88	2203.61
210.10	2277.34
210.32	2138.08
210.54	2314.20
210.76	2211.81
210.98	2342.88
211.20	1986.53
211.42	2240.48
211.64	2478.04
211.86	2310.11
212.08	2275.29
212.30	2211.81
212.52	2215.90
212.74	2308.06
212.96	2226.14
213.17	2246.62
213.39	2312.16
213.61	2451.42
213.83	2142.18
214.05	2146.27
214.27	2299.87
214.49	2168.80
214.71	2162.66
214.93	2367.45
215.15	2289.63
215.37	2273.25
215.59	2029.54
215.81	2232.29
216.03	2408.41
216.24	2250.72
216.46	2158.56
216.68	2211.81
216.90	2338.78
217.12	2283.49
217.34	2117.60
217.56	2205.66
217.78	2336.73
218.00	2265.05
218.22	2220.00
218.44	2254.81
218.66	2275.29
218.87	2457.56
219.09	2158.56
219.31	2203.61
219.53	2318.30
219.75	2191.33
219.97	2273.25
220.19	2203.61
220.41	2209.76
220.63	2404.32
220.85	2234.33
221.06	2152.42
221.28	2426.84
221.50	2285.53
221.72	2232.29
221.94	2211.81
222.16	2220.00
222.38	2385.88
222.60	2187.23
222.82	2138.08
223.03	2326.49
223.25	2154.46
223.47	2226.14
223.69	2320.35
223.91	2392.03
224.13	2269.15
224.35	2103.26
224.57	2363.36
224.78	2207.71
225.00	2203.61
225.22	2250.72
225.44	2150.37
225.66	2248.67
225.88	2209.76
226.10	2199.52
226.32	2203.61
226.53	2457.56
226.75	2232.29
226.97	2183.13
227.19	2252.77
227.41	2209.76
227.63	2303.96
227.85	2101.22
228.06	2199.52
228.28	2252.77
228.50	2367.45
228.72	2076.64
228.94	2166.75
229.16	2052.06
229.37	2129.89
229.59	2136.03
229.81	2310.11
230.03	2250.72
230.25	2113.50
230.47	2037.73
230.69	2084.83
230.90	2414.56
231.12	2183.13
231.34	2170.85
231.56	2271.20
231.78	2154.46
232.00	2179.04
232.21	2191.33
232.43	2197.47
232.65	2076.64
232.87	2291.68
233.09	2027.49
233.30	2125.79
233.52	2303.96
233.74	2310.11
233.96	2187.23
234.18	2254.81
234.40	2217.95
234.61	2506.71
234.83	2068.45
235.05	2064.35
235.27	2473.95
235.49	2351.07
235.70	2111.46
235.92	2322.40
236.14	2324.44
236.36	2611.16
236.58	2078.69
236.79	2254.81
237.01	2226.14
237.23	2283.49
237.45	2375.64
237.67	2170.85
237.88	2263.01
238.10	2459.61
238.32	2179.04
238.54	2146.27
238.76	2162.66
238.97	2160.61
239.19	2050.02
239.41	2310.11
239.63	2392.03
239.85	2248.67
240.06	2207.71
240.28	2179.04
240.50	2297.82
240.72	2287.58
240.93	2121.70
241.15	2285.53
241.37	2205.66
241.59	2428.89
241.81	2205.66
242.02	2193.37
242.24	2322.40
242.46	2334.68
242.68	2148.32
242.89	2195.42
243.11	2332.64
243.33	2220.00
243.55	2168.80
243.76	2193.37
243.98	2189.28
244.20	2265.05
244.42	2154.46
244.64	2189.28
244.85	2064.35
245.07	2189.28
245.29	2174.94
245.51	2183.13
245.72	2318.30
245.94	2379.74
246.16	2248.67
246.38	2220.00
246.59	2144.22
246.81	2121.70
247.03	2127.84
247.24	2064.35
247.46	2195.42
247.68	2260.96
247.90	2097.12
248.11	2267.10
248.33	2289.63
248.55	2273.25
248.77	2213.85
248.98	2228.19
249.20	2439.13
249.42	2244.57
249.64	2174.94
249.85	2154.46
250.07	2154.46
250.29	2181.09
250.50	2258.91
250.72	2103.26
250.94	2338.78
251.16	2428.89
251.37	2273.25
251.59	2228.19
251.81	2293.72
252.02	2392.03
252.24	2056.16
252.46	2285.53
252.68	2179.04
252.89	2240.48
253.11	2039.78
253.33	2346.97
253.54	2416.60
253.76	2127.84
253.98	2189.28
254.20	2193.37
254.41	2168.80
254.63	2256.86
254.85	2099.17
255.06	2191.33
255.28	2338.78
255.50	2246.62
255.71	2117.60
255.93	2074.59
256.15	2246.62
256.36	2252.77
256.58	2162.66
256.80	2256.86
257.02	2160.61
257.23	2260.96
257.45	2193.37
257.67	2285.53
257.88	2152.42
258.10	2324.44
258.32	2146.27
258.53	2226.14
258.75	2416.60
258.97	2174.94
259.18	2113.50
259.40	2172.89
259.62	2387.93
259.83	2389.98
260.05	2265.05
260.27	2627.54
260.48	2359.26
260.70	2070.50
260.92	2162.66
261.13	2222.05
261.35	2279.39
261.57	2318.30
261.78	2052.06
262.00	2084.83
262.22	2355.16
262.43	2203.61
262.65	2263.01
262.86	2187.23
263.08	2480.09
263.30	2242.53
263.51	1998.82
263.73	2136.03
263.95	2414.56
264.16	2183.13
264.38	2127.84
264.60	2150.37
264.81	2287.58
265.03	2379.74
265.25	2389.98
265.46	2133.98
265.68	2414.56
265.89	2291.68
266.11	2088.93
266.33	2176.99
266.54	2361.31
266.76	2351.07
266.98	2291.68
267.19	2246.62
267.41	2316.25
267.62	2185.18
267.84	2078.69
268.06	2314.20
268.27	2285.53
268.49	2326.49
268.70	2277.34
268.92	2238.43
269.14	2136.03
269.35	2021.35
269.57	2226.14
269.79	2248.67
270.00	2211.81
270.22	2424.80
270.43	2107.36
270.65	1968.10
270.87	2265.05
271.08	2340.83
271.30	2281.44
271.51	2199.52
271.73	2355.16
271.95	2451.42
272.16	2156.51
272.38	2320.35
272.59	2203.61
272.81	2363.36
273.02	2086.88
273.24	2154.46
273.46	2275.29
273.67	2113.50
273.89	2136.03
274.10	2172.89
274.32	2365.40
274.54	2334.68
274.75	2213.85
274.97	2176.99
275.18	2336.73
275.40	2295.77
275.61	2115.55
275.83	2215.90
276.05	2146.27
276.26	2199.52
276.48	2183.13
276.69	2211.81
276.91	2162.66
277.12	2400.22
277.34	2269.15
277.55	2322.40
277.77	2199.52
277.99	2197.47
278.20	2125.79
278.42	2150.37
278.63	2146.27
278.85	2176.99
279.06	2131.94
279.28	2265.05
279.49	2330.59
279.71	2260.96
279.93	2301.92
280.14	2207.71
280.36	2176.99
280.57	2408.41
280.79	2326.49
281.00	2138.08
281.22	2113.50
281.43	2330.59
281.65	2029.54
281.86	2203.61
282.08	2336.73
282.29	2428.89
282.51	2041.82
282.73	2109.41
282.94	2115.55
283.16	2303.96
283.37	2318.30
283.59	2283.49
283.80	2326.49
284.02	2228.19
284.23	2338.78
284.45	2217.95
284.66	2197.47
284.88	2199.52
285.09	2271.20
285.31	2273.25
285.52	2306.01
285.74	2062.30
285.95	2277.34
286.17	2291.68
286.38	2301.92
286.60	2189.28
286.81	2158.56
287.03	2242.53
287.24	2279.39
287.46	2322.40
287.67	2260.96
287.89	2342.88
288.10	2260.96
288.32	2275.29
288.53	2267.10
288.75	2224.09
288.96	2289.63
289.18	2222.05
289.39	2322.40
289.61	2351.07
289.82	2523.10
290.04	2529.24
290.25	2107.36
290.47	2211.81
290.68	2248.67
290.90	2412.51
291.11	2041.82
291.33	2258.91
291.54	2215.90
291.76	2142.18
291.97	2318.30
292.18	2197.47
292.40	2181.09
292.61	2189.28
292.83	2437.08
293.04	2387.93
293.26	2281.44
293.47	2238.43
293.69	2095.07
293.90	2254.81
294.12	2320.35
294.33	2306.01
294.55	2174.94
294.76	2299.87
294.97	2377.69
295.19	2443.23
295.40	2105.31
295.62	2215.90
295.83	2328.54
296.05	2162.66
296.26	2314.20
296.48	2195.42
296.69	2220.00
296.90	2244.57
297.12	2226.14
297.33	2328.54
297.55	2340.83
297.76	2289.63
297.98	2310.11
298.19	2285.53
298.41	2244.57
298.62	2150.37
298.83	2281.44
299.05	2252.77
299.26	2215.90
299.48	2203.61
299.69	2316.25
299.90	2226.14
300.12	2138.08
300.33	2369.50
300.55	2228.19
300.76	2240.48
300.98	2176.99
301.19	2375.64
301.40	2228.19
301.62	2242.53
301.83	2258.91
302.05	2258.91
302.26	2185.18
302.47	2277.34
302.69	2154.46
302.90	2265.05
303.12	2107.36
303.33	2176.99
303.54	2349.02
303.76	2254.81
303.97	2234.33
304.19	2351.07
304.40	2105.31
304.61	2396.12
304.83	2371.55
305.04	2367.45
305.26	2209.76
305.47	2289.63
305.68	2211.81
305.90	2107.36
306.11	2299.87
306.33	2236.38
306.54	2142.18
306.75	2121.70
306.97	2166.75
307.18	2160.61
307.39	2166.75
307.61	2232.29
307.82	2187.23
308.04	2324.44
308.25	2187.23
308.46	2265.05
308.68	2217.95
308.89	2275.29
309.10	2316.25
309.32	2301.92
309.53	2285.53
309.74	2226.14
309.96	2224.09
310.17	2443.23
310.39	2187.23
310.60	2301.92
310.81	2195.42
311.03	2037.73
311.24	2283.49
311.45	2224.09
311.67	2437.08
311.88	2258.91
312.09	2191.33
312.31	2252.77
312.52	2275.29
312.73	2176.99
312.95	2142.18
313.16	2236.38
313.37	2273.25
313.59	2340.83
313.80	2357.21
314.01	2406.36
314.23	2291.68
314.44	2172.89
314.65	2127.84
314.87	2205.66
315.08	2164.70
315.29	2181.09
315.51	2133.98
315.72	2111.46
315.93	2351.07
316.15	2306.01
316.36	2187.23
316.57	2361.31
316.79	2250.72
317.00	2185.18
317.21	2322.40
317.43	2197.47
317.64	2258.91
317.85	2131.94
318.07	2183.13
318.28	2279.39
318.49	2396.12
318.70	2531.29
318.92	2437.08
319.13	2359.26
319.34	2430.94
319.56	2357.21
319.77	2381.79
319.98	2457.56
320.20	2385.88
320.41	2277.34
320.62	2273.25
320.83	2138.08
321.05	2490.33
321.26	2260.96
321.47	2140.13
321.69	2471.90
321.90	2105.31
322.11	2080.74
322.32	2258.91
322.54	2314.20
322.75	2215.90
322.96	2484.19
323.18	2150.37
323.39	2179.04
323.60	2201.57
323.81	2355.16
324.03	2199.52
324.24	2301.92
324.45	2217.95
324.66	2203.61
324.88	2318.30
325.09	2379.74
325.30	2213.85
325.52	2201.57
325.73	2342.88
325.94	2211.81
326.15	2070.50
326.37	2162.66
326.58	2277.34
326.79	2342.88
327.00	2076.64
327.22	2308.06
327.43	2256.86
327.64	2111.46
327.85	2269.15
328.07	2185.18
328.28	2537.43
328.49	2277.34
328.70	2215.90
328.92	2236.38
329.13	2195.42
329.34	2271.20
329.55	2480.09
329.76	2394.08
329.98	2246.62
330.19	2379.74
330.40	2312.16
330.61	2222.05
330.83	2351.07
331.04	2146.27
331.25	2260.96
331.46	2170.85
331.68	2125.79
331.89	2367.45
332.10	2244.57
332.31	2140.13
332.52	2236.38
332.74	2385.88
332.95	2138.08
333.16	2117.60
333.37	2371.55
333.58	2258.91
333.80	2260.96
334.01	2138.08
334.22	2273.25
334.43	2142.18
334.64	2162.66
334.86	2181.09
335.07	2183.13
335.28	2416.60
335.49	2103.26
335.70	2293.72
335.92	2416.60
336.13	2465.75
336.34	2306.01
336.55	2244.57
336.76	2269.15
336.98	2027.49
337.19	2211.81
337.40	2330.59
337.61	2508.76
337.82	2162.66
338.04	2279.39
338.25	2097.12
338.46	2215.90
338.67	2289.63
338.88	2162.66
339.09	2099.17
339.31	2271.20
339.52	2090.98
339.73	2170.85
339.94	2248.67
340.15	2394.08
340.36	2222.05
340.58	2260.96
340.79	2150.37
341.00	2297.82
341.21	2129.89
341.42	2490.33
341.63	2176.99
341.85	2353.12
342.06	2291.68
342.27	2158.56
342.48	2267.10
342.69	2152.42
342.90	2336.73
343.12	2346.97
343.33	2201.57
343.54	2349.02
343.75	2408.41
343.96	2215.90
344.17	2172.89
344.38	2172.89
344.60	2136.03
344.81	2170.85
345.02	2168.80
345.23	2338.78
345.44	2510.81
345.65	2338.78
345.86	2258.91
346.07	2277.34
346.29	2162.66
346.50	2342.88
346.71	2275.29
346.92	2392.03
347.13	2586.58
347.34	2228.19
347.55	2201.57
347.76	2281.44
347.98	2109.41
348.19	2185.18
348.40	2320.35
348.61	2246.62
348.82	2437.08
349.03	2322.40
349.24	2115.55
349.45	2447.32
349.66	2039.78
349.88	2275.29
350.09	2158.56
350.30	2400.22
350.51	2299.87
350.72	2271.20
350.93	2234.33
351.14	2224.09
351.35	2277.34
351.56	2263.01
351.77	2148.32
351.99	2254.81
352.20	2396.12
352.41	2295.77
352.62	2078.69
352.83	2320.35
353.04	2285.53
353.25	2217.95
353.46	2346.97
353.67	2373.60
353.88	2129.89
354.09	2252.77
354.30	2240.48
354.52	2379.74
354.73	2250.72
354.94	2226.14
355.15	2215.90
355.36	2371.55
355.57	2176.99
355.78	2244.57
355.99	2170.85
356.20	2162.66
356.41	2359.26
356.62	2285.53
356.83	2367.45
357.04	2414.56
357.25	2119.65
357.46	2209.76
357.68	2080.74
357.89	2244.57
358.10	2211.81
358.31	2240.48
358.52	2170.85
358.73	2129.89
358.94	2189.28
359.15	2168.80
359.36	2332.64
359.57	2295.77
359.78	2236.38
359.99	2203.61
360.20	2195.42
360.41	2293.72
360.62	2213.85
360.83	2234.33
361.04	2310.11
361.25	2179.04
361.46	2471.90
361.67	2275.29
361.88	2209.76
362.09	2260.96
362.30	2244.57
362.51	2125.79
362.72	2230.24
362.93	2338.78
363.14	2355.16
363.35	2203.61
363.56	2166.75
363.78	2387.93
363.99	2349.02
364.20	2203.61
364.41	2295.77
364.62	2465.75
364.83	2260.96
365.04	2181.09
365.25	2297.82
365.46	2467.80
365.67	2176.99
365.88	2224.09
366.09	2228.19
366.30	2260.96
366.51	2125.79
366.72	2129.89
366.93	2228.19
367.14	2228.19
367.35	2357.21
367.56	2211.81
367.77	2383.84
367.98	2244.57
368.18	2310.11
368.39	2301.92
368.60	2156.51
368.81	2402.27
369.02	2285.53
369.23	2250.72
369.44	2113.50
369.65	2207.71
369.86	2283.49
370.07	2346.97
370.28	2150.37
370.49	2340.83
370.70	2404.32
370.91	2170.85
371.12	2088.93
371.33	2320.35
371.54	2136.03
371.75	2357.21
371.96	2027.49
372.17	2299.87
372.38	2168.80
372.59	2285.53
372.80	2244.57
373.01	2220.00
373.22	2230.24
373.43	2207.71
373.64	2136.03
373.85	2418.65
374.06	2441.18
374.26	2322.40
374.47	2263.01
374.68	2392.03
374.89	2244.57
375.10	2236.38
375.31	2346.97
375.52	2170.85
375.73	2187.23
375.94	2197.47
376.15	2367.45
376.36	2201.57
376.57	2203.61
376.78	2217.95
376.99	2234.33
377.20	2408.41
377.40	2234.33
377.61	2414.56
377.82	2129.89
378.03	2367.45
378.24	2416.60
378.45	2271.20
378.66	2287.58
378.87	2119.65
379.08	2062.30
379.29	2234.33
379.50	2291.68
379.71	2228.19
379.91	2318.30
380.12	2174.94
380.33	2217.95
380.54	2199.52
380.75	2170.85
380.96	2170.85
381.17	2324.44
381.38	2228.19
381.59	2363.36
381.80	2293.72
382.00	2383.84
382.21	2318.30
382.42	2416.60
382.63	2557.91
382.84	2275.29
383.05	2301.92
383.26	2363.36
383.47	2197.47
383.68	2260.96
383.88	2254.81
384.09	2303.96
384.30	2430.94
384.51	2301.92
384.72	2279.39
384.93	2080.74
385.14	2254.81
385.35	2467.80
385.55	2131.94
385.76	2330.59
385.97	2244.57
386.18	2064.35
386.39	2240.48
386.60	2242.53
386.81	2256.86
387.02	2191.33
387.22	2174.94
387.43	2373.60
387.64	2248.67
387.85	2402.27
388.06	2514.91
388.27	3928.00
388.48	8097.67
388.68	11603.79
388.89	13881.13
389.10	14894.88
389.31	13879.08
389.52	10936.15
389.73	9318.26
389.93	8769.40
390.14	7896.97
390.35	6946.71
390.56	6225.82
390.77	5148.59
390.98	3997.64
391.18	3217.36
391.39	2826.20
391.60	2400.22
391.81	2478.04
392.02	2203.61
392.23	2582.49
392.43	2312.16
392.64	2349.02
392.85	2260.96
393.06	2453.47
393.27	2209.76
393.47	2183.13
393.68	2269.15
393.89	2217.95
394.10	2375.64
394.31	2205.66
394.52	2224.09
394.72	2179.04
394.93	2437.08
395.14	2086.88
395.35	2289.63
395.56	2185.18
395.76	2179.04
395.97	2254.81
396.18	2338.78
396.39	2357.21
396.60	2748.37
396.80	2490.33
397.01	2377.69
397.22	2416.60
397.43	2449.37
397.64	2297.82
397.84	2346.97
398.05	2435.03
398.26	2363.36
398.47	2357.21
398.67	2344.92
398.88	2285.53
399.09	2250.72
399.30	2252.77
399.51	2375.64
399.71	2232.29
399.92	2191.33
400.13	2295.77
400.34	2220.00
400.54	2217.95
400.75	2441.18
400.96	2330.59
401.17	2387.93
401.37	2250.72
401.58	2238.43
401.79	2170.85
402.00	2396.12
402.21	2650.07
402.41	2611.16
402.62	2568.15
402.83	2584.54
403.04	2721.75
403.24	2801.62
403.45	2349.02
403.66	2564.06
403.87	2482.14
404.07	2553.82
404.28	2492.38
404.49	2510.81
404.70	2299.87
404.90	2357.21
405.11	2301.92
405.32	2320.35
405.52	2174.94
405.73	2183.13
405.94	2103.26
406.15	2291.68
406.35	2269.15
406.56	2322.40
406.77	2283.49
406.98	2320.35
407.18	2203.61
407.39	2375.64
407.60	2150.37
407.80	2297.82
408.01	2230.24
408.22	2293.72
408.43	2244.57
408.63	2295.77
408.84	2396.12
409.05	2392.03
409.25	2240.48
409.46	2234.33
409.67	2191.33
409.88	2172.89
410.08	2230.24
410.29	2228.19
410.50	2260.96
410.70	2267.10
410.91	2113.50
411.12	2256.86
411.32	2211.81
411.53	2162.66
411.74	2299.87
411.95	2361.31
412.15	2326.49
412.36	2449.37
412.57	2363.36
412.77	2359.26
412.98	2185.18
413.19	2187.23
413.39	2330.59
413.60	2312.16
413.81	2389.98
414.01	2127.84
414.22	2285.53
414.43	2310.11
414.63	2203.61
414.84	2375.64
415.05	2215.90
415.25	2136.03
415.46	2332.64
415.67	2146.27
415.87	2338.78
416.08	2256.86
416.29	2238.43
416.49	2383.84
416.70	2160.61
416.91	2232.29
417.11	2220.00
417.32	2422.75
417.53	2349.02
417.73	2324.44
417.94	2260.96
418.15	2344.92
418.35	2326.49
418.56	2303.96
418.77	2467.80
418.97	2265.05
419.18	2172.89
419.38	2031.58
419.59	2248.67
419.80	2412.51
420.00	2234.33
420.21	2244.57
420.42	2455.51
420.62	2287.58
420.83	2195.42
421.04	2232.29
421.24	2240.48
421.45	2381.79
421.65	2271.20
421.86	2142.18
422.07	2357.21
422.27	2314.20
422.48	2236.38
422.69	2123.74
422.89	2252.77
423.10	2215.90
423.30	2129.89
423.51	2228.19
423.72	2340.83
423.92	2332.64
424.13	2103.26
424.33	2191.33
424.54	2367.45
424.75	2263.01
424.95	2349.02
425.16	2193.37
425.36	2207.71
425.57	2359.26
425.78	2248.67
425.98	2320.35
426.19	2236.38
426.39	2117.60
426.60	2287.58
426.81	2396.12
427.01	2320.35
427.22	2236.38
427.42	2142.18
427.63	2144.22
427.83	2367.45
428.04	2439.13
428.25	2322.40
428.45	2328.54
428.66	2428.89
428.86	2256.86
429.07	2203.61
429.28	2310.11
429.48	2351.07
429.69	2164.70
429.89	2306.01
430.10	2183.13
430.30	2306.01
430.51	2371.55
430.71	2066.40
430.92	2179.04
431.13	2123.74
431.33	2346.97
431.54	2359.26
431.74	2412.51
431.95	2500.57
432.15	2164.70
432.36	2230.24
432.56	2267.10
432.77	2486.23
432.98	2383.84
433.18	2258.91
433.39	2265.05
433.59	2260.96
433.80	2437.08
434.00	2430.94
434.21	2260.96
434.41	2201.57
434.62	2549.72
434.82	2183.13
435.03	2185.18
435.23	2195.42
435.44	2193.37
435.64	2213.85
435.85	2236.38
436.06	2428.89
436.26	2361.31
436.47	2220.00
436.67	2179.04
436.88	2293.72
437.08	2377.69
437.29	2385.88
437.49	2252.77
437.70	2392.03
437.90	2285.53
438.11	2400.22
438.31	2312.16
438.52	2412.51
438.72	2555.86
438.93	2498.52
439.13	2330.59
439.34	2428.89
439.54	2197.47
439.75	2318.30
439.95	2293.72
440.16	2242.53
440.36	2273.25
440.57	2297.82
440.77	2287.58
440.98	2260.96
441.18	2318.30
441.39	2187.23
441.59	2172.89
441.80	2457.56
442.00	2314.20
442.21	2377.69
442.41	2168.80
442.62	2312.16
442.82	2211.81
443.02	2336.73
443.23	2244.57
443.43	2226.14
443.64	2389.98
443.84	2207.71
444.05	2320.35
444.25	2279.39
444.46	2310.11
444.66	2250.72
444.87	2486.23
445.07	2123.74
445.28	2129.89
445.48	2447.32
445.69	2310.11
445.89	2523.10
446.09	2228.19
446.30	2568.15
446.50	2830.29
446.71	4431.80
446.91	5437.36
447.12	6336.42
447.32	6588.32
447.53	6133.67
447.73	5154.74
447.93	4620.22
448.14	4288.45
448.34	3973.06
448.55	3545.03
448.75	3538.89
448.96	3424.20
449.16	3030.99
449.36	2795.48
449.57	2600.92
449.77	2375.64
449.98	2193.37
450.18	2340.83
450.39	2291.68
450.59	2326.49
450.79	2254.81
451.00	2205.66
451.20	2273.25
451.41	2236.38
451.61	2281.44
451.81	2285.53
452.02	2148.32
452.22	2228.19
452.43	2244.57
452.63	2236.38
452.84	2228.19
453.04	2191.33
453.24	2387.93
453.45	2183.13
453.65	2217.95
453.86	2326.49
454.06	2267.10
454.26	2330.59
454.47	2258.91
454.67	2457.56
454.87	2326.49
455.08	2250.72
455.28	2457.56
455.49	2318.30
455.69	2228.19
455.89	2475.99
456.10	2420.70
456.30	2183.13
456.51	2369.50
456.71	2308.06
456.91	2293.72
457.12	2269.15
457.32	2349.02
457.52	2158.56
457.73	2349.02
457.93	2342.88
458.14	2271.20
458.34	2107.36
458.54	2207.71
458.75	2195.42
458.95	2328.54
459.15	2289.63
459.36	2316.25
459.56	2330.59
459.76	2523.10
459.97	2275.29
460.17	2236.38
460.37	2422.75
460.58	2228.19
460.78	2303.96
460.99	2277.34
461.19	2322.40
461.39	2193.37
461.60	2252.77
461.80	2342.88
462.00	2146.27
462.21	2285.53
462.41	2131.94
462.61	2115.55
462.82	2154.46
463.02	2342.88
463.22	2277.34
463.43	2359.26
463.63	2301.92
463.83	2430.94
464.04	2363.36
464.24	2174.94
464.44	2129.89
464.64	2326.49
464.85	2383.84
465.05	2351.07
465.25	2224.09
465.46	2203.61
465.66	2281.44
465.86	2342.88
466.07	2226.14
466.27	2240.48
466.47	2115.55
466.68	2058.21
466.88	2365.40
467.08	2332.64
467.29	2383.84
467.49	2269.15
467.69	2224.09
467.89	2306.01
468.10	2250.72
468.30	2236.38
468.50	2346.97
468.71	2367.45
468.91	2160.61
469.11	2392.03
469.31	2220.00
469.52	2170.85
469.72	2420.70
469.92	2451.42
470.13	2187.23
470.33	2396.12
470.53	2383.84
470.73	2742.23
470.94	3088.34
471.14	3112.91
471.34	3514.31
471.54	3436.49
471.75	3002.32
471.95	2848.72
472.15	2678.74
472.36	2711.51
472.56	2727.89
472.76	2779.09
472.96	2643.93
473.17	2557.91
473.37	2478.04
473.57	2355.16
473.77	2418.65
473.98	2277.34
474.18	2144.22
474.38	2506.71
474.58	2195.42
474.79	2248.67
474.99	2318.30
475.19	2392.03
475.39	2215.90
475.60	2324.44
475.80	2226.14
476.00	2236.38
476.20	2281.44
476.41	2205.66
476.61	2349.02
476.81	2369.50
477.01	2201.57
477.21	2359.26
477.42	2389.98
477.62	2191.33
477.82	2420.70
478.02	2185.18
478.23	2357.21
478.43	2168.80
478.63	2199.52
478.83	2250.72
479.03	2240.48
479.24	2392.03
479.44	2443.23
479.64	2144.22
479.84	2052.06
480.04	2226.14
480.25	2351.07
480.45	2193.37
480.65	2252.77
480.85	2414.56
481.06	2222.05
481.26	2318.30
481.46	2277.34
481.66	2293.72
481.86	2211.81
482.06	2400.22
482.27	2248.67
482.47	2195.42
482.67	2349.02
482.87	2236.38
483.07	2396.12
483.28	2201.57
483.48	2142.18
483.68	2207.71
483.88	2056.16
484.08	2101.22
484.29	2181.09
484.49	2244.57
484.69	2107.36
484.89	2514.91
485.09	2346.97
485.29	2285.53
485.50	2240.48
485.70	2283.49
485.90	2428.89
486.10	2338.78
486.30	2269.15
486.50	2349.02
486.71	2293.72
486.91	2406.36
487.11	2310.11
487.31	2127.84
487.51	2299.87
487.71	2228.19
487.91	2162.66
488.12	2080.74
488.32	2095.07
488.52	2217.95
488.72	2035.68
488.92	2191.33
489.12	2361.31
489.32	2406.36
489.53	2351.07
489.73	2142.18
489.93	2432.99
490.13	2181.09
490.33	2119.65
490.53	2273.25
490.73	2377.69
490.94	2136.03
491.14	2332.64
491.34	2340.83
491.54	2541.53
491.74	3223.50
491.94	3706.82
492.14	4063.17
492.34	4181.95
492.54	3659.72
492.75	3252.17
492.95	3227.60
493.15	2912.21
493.35	2940.88
493.55	2850.77
493.75	2750.42
493.95	2756.57
494.15	2568.15
494.35	2344.92
494.56	2328.54
494.76	2263.01
494.96	2269.15
495.16	2275.29
495.36	2170.85
495.56	2303.96
495.76	2207.71
495.96	2228.19
496.16	2193.37
496.36	2414.56
496.56	2263.01
496.77	2246.62
496.97	2285.53
497.17	2461.66
497.37	2095.07
497.57	2308.06
497.77	2316.25
497.97	2146.27
498.17	2230.24
498.37	2146.27
498.57	2326.49
498.77	2248.67
498.97	2310.11
499.17	2361.31
499.38	2224.09
499.58	2273.25
499.78	2412.51
499.98	2418.65
500.18	2252.77
500.38	2248.67
500.58	2439.13
500.78	2871.25
500.98	5021.62
501.18	7298.96
501.38	8812.41
501.58	9465.71
501.78	9461.62
501.98	7573.39
502.18	6315.94
502.38	5560.24
502.58	5150.64
502.78	4569.02
502.98	4380.61
503.18	4276.16
503.38	3878.85
503.59	3409.87
503.79	3155.92
503.99	2998.23
504.19	2815.96
504.39	2832.34
504.59	2764.76
504.79	2811.86
504.99	2783.19
505.19	2600.92
505.39	2459.61
505.59	2682.84
505.79	2582.49
505.99	2508.76
506.19	2363.36
506.39	2467.80
506.59	2281.44
506.79	2263.01
506.99	2496.47
507.19	2234.33
507.39	2334.68
507.59	2197.47
507.79	2144.22
507.99	2238.43
508.19	2287.58
508.39	2213.85
508.59	2281.44
508.79	2373.60
508.99	2496.47
509.19	2269.15
509.39	2355.16
509.59	2215.90
509.79	2158.56
509.99	2236.38
510.19	2312.16
510.39	2408.41
510.59	2295.77
510.79	2252.77
510.99	2174.94
511.19	2250.72
511.39	2471.90
511.59	2357.21
511.79	2420.70
511.99	2281.44
512.19	2465.75
512.38	2287.58
512.58	2160.61
512.78	2199.52
512.98	2428.89
513.18	2435.03
513.38	2129.89
513.58	2334.68
513.78	2185.18
513.98	2240.48
514.18	2250.72
514.38	2185.18
514.58	2299.87
514.78	2140.13
514.98	2154.46
515.18	2228.19
515.38	2187.23
515.58	2373.60
515.78	2246.62
515.98	2269.15
516.18	2283.49
516.38	2277.34
516.57	2176.99
516.77	2215.90
516.97	2344.92
517.17	2310.11
517.37	2121.70
517.57	2310.11
517.77	2289.63
517.97	2199.52
518.17	2289.63
518.37	2191.33
518.57	2205.66
518.77	2246.62
518.97	2228.19
519.16	2285.53
519.36	2318.30
519.56	2295.77
519.76	2234.33
519.96	2236.38
520.16	2443.23
520.36	2211.81
520.56	2379.74
520.76	2217.95
520.96	2203.61
521.16	2367.45
521.35	2375.64
521.55	2453.47
521.75	2240.48
521.95	2269.15
522.15	2211.81
522.35	2166.75
522.55	2242.53
522.75	2326.49
522.95	2224.09
523.14	2136.03
523.34	2252.77
523.54	2174.94
523.74	2306.01
523.94	2310.11
524.14	2162.66
524.34	2373.60
524.54	2404.32
524.73	2226.14
524.93	2318.30
525.13	2277.34
525.33	2078.69
525.53	2490.33
525.73	2379.74
525.93	2234.33
526.13	2152.42
526.32	2242.53
526.52	2432.99
526.72	2394.08
526.92	2230.24
527.12	2277.34
527.32	2160.61
527.52	2353.12
527.71	2269.15
527.91	2248.67
528.11	2242.53
528.31	2244.57
528.51	2199.52
528.71	2320.35
528.90	2371.55
529.10	2342.88
529.30	2369.50
529.50	2086.88
529.70	2338.78
529.90	2258.91
530.09	2236.38
530.29	2199.52
530.49	2164.70
530.69	2494.43
530.89	2267.10
531.09	2293.72
531.28	2228.19
531.48	2383.84
531.68	2303.96
531.88	2170.85
532.08	2334.68
532.28	2183.13
532.47	2340.83
532.67	2316.25
532.87	2359.26
533.07	2166.75
533.27	2316.25
533.46	2322.40
533.66	2269.15
533.86	2263.01
534.06	2267.10
534.26	2271.20
534.45	2263.01
534.65	2406.36
534.85	2318.30
535.05	2244.57
535.25	2355.16
535.44	2228.19
535.64	2389.98
535.84	2244.57
536.04	2209.76
536.24	2187.23
536.43	2201.57
536.63	2332.64
536.83	2291.68
537.03	2285.53
537.22	2031.58
537.42	2072.54
537.62	2287.58
537.82	2138.08
538.02	2359.26
538.21	2416.60
538.41	2516.95
538.61	2342.88
538.81	2273.25
539.00	2387.93
539.20	2113.50
539.40	2234.33
539.60	2273.25
539.79	2365.40
539.99	2260.96
540.19	2191.33
540.39	2291.68
540.58	2232.29
540.78	2381.79
540.98	2324.44
541.18	2324.44
541.37	2291.68
541.57	2277.34
541.77	2293.72
541.97	2189.28
542.16	2080.74
542.36	2211.81
542.56	2312.16
542.76	2389.98
542.95	2344.92
543.15	2336.73
543.35	2377.69
543.54	2170.85
543.74	2156.51
543.94	2457.56
544.14	2248.67
544.33	2322.40
544.53	2258.91
544.73	2269.15
544.93	2220.00
545.12	2265.05
545.32	2222.05
545.52	2258.91
545.71	2205.66
545.91	2244.57
546.11	2224.09
546.30	2195.42
546.50	2334.68
546.70	2314.20
546.90	2271.20
547.09	2086.88
547.29	2361.31
547.49	2260.96
547.68	2293.72
547.88	2236.38
548.08	2275.29
548.27	2715.61
548.47	2236.38
548.67	2220.00
548.87	2277.34
549.06	2181.09
549.26	2299.87
549.46	2260.96
549.65	2187.23
549.85	2301.92
550.05	2277.34
550.24	2154.46
550.44	2217.95
550.64	2312.16
550.83	2250.72
551.03	2334.68
551.23	2297.82
551.42	2310.11
551.62	2242.53
551.82	2226.14
552.01	2176.99
552.21	2334.68
552.41	2269.15
552.60	2422.75
552.80	2297.82
553.00	2150.37
553.19	2240.48
553.39	2416.60
553.59	2224.09
553.78	2236.38
553.98	2281.44
554.17	2162.66
554.37	2322.40
554.57	2367.45
554.76	2113.50
554.96	2275.29
555.16	2199.52
555.35	2265.05
555.55	2289.63
555.75	2330.59
555.94	2291.68
556.14	2062.30
556.33	2322.40
556.53	2310.11
556.73	2318.30
556.92	2269.15
557.12	2283.49
557.32	2480.09
557.51	2437.08
557.71	2324.44
557.90	2346.97
558.10	2414.56
558.30	2240.48
558.49	2248.67
558.69	2166.75
558.88	2265.05
559.08	2365.40
559.28	2203.61
559.47	2273.25
559.67	2281.44
559.86	2496.47
560.06	2226.14
560.26	2234.33
560.45	2324.44
560.65	2152.42
560.84	2349.02
561.04	2181.09
561.24	2346.97
561.43	2170.85
561.63	2318.30
561.82	2308.06
562.02	2373.60
562.22	2269.15
562.41	2160.61
562.61	2195.42
562.80	2197.47
563.00	2490.33
563.19	2291.68
563.39	2306.01
563.59	2310.11
563.78	2111.46
563.98	2039.78
564.17	2203.61
564.37	2080.74
564.56	2263.01
564.76	2113.50
564.96	2346.97
565.15	2291.68
565.35	2605.02
565.54	2209.76
565.74	2283.49
565.93	2318.30
566.13	2279.39
566.32	2371.55
566.52	2273.25
566.71	2279.39
566.91	2353.12
567.11	2258.91
567.30	2183.13
567.50	2336.73
567.69	2252.77
567.89	2275.29
568.08	2164.70
568.28	2222.05
568.47	2238.43
568.67	2297.82
568.86	2228.19
569.06	2324.44
569.25	2181.09
569.45	2129.89
569.64	2289.63
569.84	2299.87
570.04	2375.64
570.23	2228.19
570.43	2228.19
570.62	2289.63
570.82	2430.94
571.01	2185.18
571.21	2179.04
571.40	2234.33
571.60	2349.02
571.79	2332.64
571.99	2316.25
572.18	2209.76
572.38	2351.07
572.57	2215.90
572.77	2267.10
572.96	2652.12
573.16	2291.68
573.35	2295.77
573.55	2439.13
573.74	2400.22
573.94	2252.77
574.13	2176.99
574.33	2293.72
574.52	2379.74
574.71	2318.30
574.91	2326.49
575.10	2217.95
575.30	2248.67
575.49	2224.09
575.69	2289.63
575.88	2324.44
576.08	2283.49
576.27	2363.36
576.47	2236.38
576.66	2465.75
576.86	2473.95
577.05	2283.49
577.25	2295.77
577.44	2473.95
577.64	2303.96
577.83	2392.03
578.02	2269.15
578.22	2447.32
578.41	2412.51
578.61	2310.11
578.80	2121.70
579.00	2242.53
579.19	2203.61
579.39	2318.30
579.58	2260.96
579.77	2265.05
579.97	2441.18
580.16	2439.13
580.36	2336.73
580.55	2349.02
580.75	2351.07
580.94	2318.30
581.13	2379.74
581.33	2437.08
581.52	2326.49
581.72	2482.14
581.91	2453.47
582.11	2271.20
582.30	2439.13
582.49	2355.16
582.69	2523.10
582.88	2316.25
583.08	2293.72
583.27	2432.99
583.47	2293.72
583.66	2252.77
583.85	2187.23
584.05	2234.33
584.24	2349.02
584.44	2365.40
584.63	2334.68
584.82	2486.23
585.02	2428.89
585.21	2406.36
585.41	2375.64
585.60	2441.18
585.79	2564.06
585.99	2545.63
586.18	2441.18
586.37	2858.96
586.57	4683.70
586.76	13653.81
586.96	33064.46
587.15	46738.74
587.34	56267.94
587.54	60701.79
587.73	56472.74
587.93	39464.36
588.12	29845.05
588.31	23850.64
588.51	20981.44
588.70	19160.80
588.89	17272.57
589.09	14941.98
589.28	12959.55
589.47	10465.12
589.67	8120.20
589.86	6258.59
590.06	4634.55
590.25	3825.61
590.44	3145.68
590.64	2850.77
590.83	2594.78
591.02	2490.33
591.22	2373.60
591.41	2406.36
591.60	2404.32
591.80	2582.49
591.99	2160.61
592.18	2275.29
592.38	2414.56
592.57	2299.87
592.76	2242.53
592.96	2312.16
593.15	2267.10
593.34	2400.22
593.54	2236.38
593.73	2408.41
593.92	2365.40
594.12	2375.64
594.31	2310.11
594.50	2457.56
594.70	2367.45
594.89	2547.67
595.08	2224.09
595.28	2365.40
595.47	2617.30
595.66	2336.73
595.86	2213.85
596.05	2279.39
596.24	2295.77
596.43	2496.47
596.63	2359.26
596.82	2344.92
597.01	2344.92
597.21	2439.13
597.40	2301.92
597.59	2328.54
597.79	2215.90
597.98	2349.02
598.17	2301.92
598.36	2359.26
598.56	2381.79
598.75	2224.09
598.94	2299.87
599.14	2349.02
599.33	2207.71
599.52	2369.50
599.71	2303.96
599.91	2379.74
600.10	2394.08
600.29	2267.10
600.48	2330.59
600.68	2332.64
600.87	2334.68
601.06	2191.33
601.26	2224.09
601.45	2277.34
601.64	2197.47
601.83	2437.08
602.03	2176.99
602.22	2176.99
602.41	2437.08
602.60	2568.15
602.80	2306.01
602.99	2363.36
603.18	2252.77
603.37	2312.16
603.57	2277.34
603.76	2291.68
603.95	2459.61
604.14	2277.34
604.34	2113.50
604.53	2260.96
604.72	2308.06
604.91	2404.32
605.10	2236.38
605.30	2148.32
605.49	2527.19
605.68	2299.87
605.87	2334.68
606.07	2265.05
606.26	2334.68
606.45	2318.30
606.64	2250.72
606.84	2306.01
607.03	2289.63
607.22	2439.13
607.41	2351.07
607.60	2248.67
607.80	2363.36
607.99	2242.53
608.18	2340.83
608.37	2217.95
608.56	2236.38
608.76	2486.23
608.95	2529.24
609.14	2334.68
609.33	2404.32
609.52	2469.85
609.72	2346.97
609.91	2437.08
610.10	2430.94
610.29	2455.51
610.48	2365.40
610.68	2322.40
610.87	2211.81
611.06	2324.44
611.25	2213.85
611.44	2383.84
611.63	2201.57
611.83	2457.56
612.02	2162.66
612.21	2342.88
612.40	2136.03
612.59	2236.38
612.79	2160.61
612.98	2365.40
613.17	2389.98
613.36	2306.01
613.55	2439.13
613.74	2392.03
613.93	2330.59
614.13	2484.19
614.32	2519.00
614.51	2467.80
614.70	2342.88
614.89	2306.01
615.08	2316.25
615.28	2846.68
615.47	2193.37
615.66	2328.54
615.85	2342.88
616.04	2422.75
616.23	2338.78
616.42	2283.49
616.62	2389.98
616.81	2308.06
617.00	2316.25
617.19	2387.93
617.38	2267.10
617.57	2281.44
617.76	2269.15
617.95	2316.25
618.15	2267.10
618.34	2527.19
618.53	2170.85
618.72	2396.12
618.91	2375.64
619.10	2351.07
619.29	2258.91
619.48	2277.34
619.68	2187.23
619.87	2248.67
620.06	2113.50
620.25	2322.40
620.44	2187.23
620.63	2195.42
620.82	2256.86
621.01	2295.77
621.20	2293.72
621.39	2357.21
621.59	2353.12
621.78	2226.14
621.97	2293.72
622.16	2310.11
622.35	2357.21
622.54	2385.88
622.73	2443.23
622.92	2125.79
623.11	2389.98
623.30	2318.30
623.49	2416.60
623.68	2183.13
623.88	2373.60
624.07	2271.20
624.26	2230.24
624.45	2310.11
624.64	2242.53
624.83	2299.87
625.02	2213.85
625.21	2316.25
625.40	2273.25
625.59	2332.64
625.78	2260.96
625.97	2406.36
626.16	2439.13
626.35	2424.80
626.54	2285.53
626.74	2478.04
626.93	2312.16
627.12	2279.39
627.31	2414.56
627.50	2244.57
627.69	2273.25
627.88	2240.48
628.07	2248.67
628.26	2105.31
628.45	2183.13
628.64	2164.70
628.83	2316.25
629.02	2162.66
629.21	2389.98
629.40	2271.20
629.59	2244.57
629.78	2293.72
629.97	2279.39
630.16	2246.62
630.35	2273.25
630.54	2209.76
630.73	2185.18
630.92	2220.00
631.11	2170.85
631.30	2297.82
631.49	2314.20
631.68	2283.49
631.87	2289.63
632.06	2119.65
632.25	2533.34
632.44	2267.10
632.63	2277.34
632.82	2222.05
633.01	2252.77
633.20	2308.06
633.39	2285.53
633.58	2232.29
633.77	2392.03
633.96	2301.92
634.15	2365.40
634.34	2318.30
634.53	2246.62
634.72	2250.72
634.91	2162.66
635.10	2299.87
635.29	2295.77
635.48	2351.07
635.67	2236.38
635.86	2138.08
636.05	2361.31
636.24	2279.39
636.43	2314.20
636.62	2267.10
636.81	2084.83
637.00	2258.91
637.19	2314.20
637.38	2170.85
637.57	2256.86
637.76	2285.53
637.95	2324.44
638.14	2326.49
638.33	2379.74
638.52	2357.21
638.71	2299.87
638.89	2250.72
639.08	2514.91
639.27	2471.90
639.46	2551.77
639.65	2856.92
639.84	2834.39
640.03	3141.58
640.22	2908.12
640.41	2893.78
640.60	2566.10
640.79	2510.81
640.98	2367.45
641.17	2584.54
641.36	2473.95
641.55	2422.75
641.74	2254.81
641.92	2256.86
642.11	2228.19
642.30	2265.05
642.49	2236.38
642.68	2166.75
642.87	2346.97
643.06	2340.83
643.25	2242.53
643.44	2160.61
643.63	2260.96
643.82	2353.12
644.00	2150.37
644.19	2228.19
644.38	2174.94
644.57	2273.25
644.76	2265.05
644.95	2238.43
645.14	2254.81
645.33	2226.14
645.52	2269.15
645.71	2170.85
645.89	2138.08
646.08	2172.89
646.27	2252.77
646.46	2455.51
646.65	2103.26
646.84	2340.83
647.03	2179.04
647.22	2404.32
647.40	2269.15
647.59	2287.58
647.78	2101.22
647.97	2211.81
648.16	2211.81
648.35	2398.17
648.54	2422.75
648.73	2195.42
648.91	2392.03
649.10	2242.53
649.29	2191.33
649.48	2226.14
649.67	2263.01
649.86	2260.96
650.05	2332.64
650.23	2455.51
650.42	2334.68
650.61	2502.62
650.80	2432.99
650.99	2535.39
651.18	2389.98
651.36	2385.88
651.55	2301.92
651.74	2418.65
651.93	2277.34
652.12	2252.77
652.31	2320.35
652.49	2301.92
652.68	2168.80
652.87	2379.74
653.06	2228.19
653.25	2482.14
653.44	2316.25
653.62	2416.60
653.81	2224.09
654.00	2211.81
654.19	2400.22
654.38	2588.63
654.56	2336.73
654.75	2267.10
654.94	2359.26
655.13	2291.68
655.32	2267.10
655.51	2365.40
655.69	2201.57
655.88	2340.83
656.07	2187.23
656.26	2342.88
656.45	2111.46
656.63	2308.06
656.82	2340.83
657.01	2404.32
657.20	2220.00
657.38	2422.75
657.57	2269.15
657.76	2113.50
657.95	2346.97
658.14	2236.38
658.32	2238.43
658.51	2170.85
658.70	2287.58
658.89	2320.35
659.08	2260.96
659.26	2443.23
659.45	2179.04
659.64	2426.84
659.83	2285.53
660.01	2529.24
660.20	2252.77
660.39	2424.80
660.58	2043.87
660.76	2303.96
660.95	2107.36
661.14	2250.72
661.33	2150.37
661.51	2267.10
661.70	2154.46
661.89	2332.64
662.08	2318.30
662.26	2166.75
662.45	2146.27
662.64	2430.94
662.83	2357.21
663.01	2166.75
663.20	2170.85
663.39	2416.60
663.58	2146.27
663.76	2203.61
663.95	2324.44
664.14	2187.23
664.32	2195.42
664.51	2170.85
664.70	2152.42
664.89	2267.10
665.07	2144.22
665.26	2334.68
665.45	2162.66
665.64	2324.44
665.82	2197.47
666.01	2338.78
666.20	2179.04
666.38	2355.16
666.57	2424.80
666.76	3332.05
666.95	8134.53
667.13	16035.60
667.32	21309.11
667.51	24524.43
667.69	26642.03
667.88	24364.68
668.07	17202.94
668.25	13803.31
668.44	11423.57
668.63	10200.93
668.81	8884.09
669.00	7450.51
669.19	6893.46
669.38	5978.02
669.56	5189.55
669.75	4304.83
669.94	3620.81
670.12	2969.55
670.31	2742.23
670.50	2609.11
670.68	2428.89
670.87	2367.45
671.06	2398.17
671.24	2398.17
671.43	2408.41
671.62	2373.60
671.80	2260.96
671.99	2353.12
672.18	2316.25
672.36	2383.84
672.55	2340.83
672.74	2197.47
672.92	2195.42
673.11	2285.53
673.29	2242.53
673.48	2308.06
673.67	2303.96
673.85	2363.36
674.04	2240.48
674.23	2291.68
674.41	2389.98
674.60	2109.41
674.79	2041.82
674.97	2234.33
675.16	2338.78
675.34	2322.40
675.53	2199.52
675.72	2355.16
675.90	2375.64
676.09	2211.81
676.28	2217.95
676.46	2082.78
676.65	2297.82
676.83	2172.89
677.02	2224.09
677.21	2269.15
677.39	2312.16
677.58	2183.13
677.77	2203.61
677.95	2230.24
678.14	2199.52
678.32	2228.19
678.51	2176.99
678.70	2496.47
678.88	2293.72
679.07	2250.72
679.25	2185.18
679.44	2248.67
679.63	2152.42
679.81	2275.29
680.00	2334.68
680.18	2314.20
680.37	2351.07
680.55	2215.90
680.74	2107.36
680.93	2078.69
681.11	2308.06
681.30	2207.71
681.48	2301.92
681.67	2236.38
681.85	2242.53
682.04	2144.22
682.23	2351.07
682.41	2342.88
682.60	2217.95
682.78	2271.20
682.97	2226.14
683.15	2289.63
683.34	2260.96
683.53	2396.12
683.71	2045.92
683.90	2332.64
684.08	2457.56
684.27	2226.14
684.45	2207.71
684.64	2365.40
684.82	2256.86
685.01	2340.83
685.19	2158.56
685.38	2445.27
685.57	2308.06
685.75	2193.37
685.94	2154.46
686.12	2238.43
686.31	2133.98
686.49	2402.27
686.68	2070.50
686.86	2308.06
687.05	2185.18
687.23	2394.08
687.42	2240.48
687.60	2099.17
687.79	2351.07
687.97	2406.36
688.16	2389.98
688.34	2379.74
688.53	2068.45
688.71	2289.63
688.90	2365.40
689.08	2224.09
689.27	2088.93
689.45	2308.06
689.64	2291.68
689.82	2269.15
690.01	2248.67
690.19	2301.92
690.38	2295.77
690.56	2392.03
690.75	2121.70
690.93	2283.49
691.12	2273.25
691.30	2269.15
691.49	2279.39
691.67	2168.80
691.86	2512.86
692.04	2172.89
692.23	2193.37
692.41	2324.44
692.60	2514.91
692.78	2406.36
692.97	2316.25
693.15	2383.84
693.34	2420.70
693.52	2342.88
693.71	2226.14
693.89	2185.18
694.08	2197.47
694.26	2308.06
694.44	2346.97
694.63	2299.87
694.81	2136.03
695.00	2187.23
695.18	2328.54
695.37	2496.47
695.55	2306.01
695.74	2248.67
695.92	2142.18
696.10	2336.73
696.29	2127.84
696.47	2199.52
696.66	2115.55
696.84	2195.42
697.03	2295.77
697.21	2408.41
697.40	3381.20
697.58	2301.92
697.76	2244.57
697.95	2166.75
698.13	2078.69
698.32	2224.09
698.50	2234.33
698.68	2256.86
698.87	2312.16
699.05	2392.03
699.24	2271.20
699.42	2088.93
699.61	2310.11
699.79	2226.14
699.97	2277.34
700.16	2136.03
700.34	2097.12
700.53	2224.09
700.71	2437.08
700.89	2396.12
701.08	2275.29
701.26	2320.35
701.45	2830.29
701.63	2168.80
701.81	2226.14
702.00	2234.33
702.18	2250.72
702.37	2250.72
702.55	2521.05
702.73	2480.09
702.92	2363.36
703.10	2607.06
703.28	2457.56
703.47	2340.83
703.65	2531.29
703.84	2416.60
704.02	2228.19
704.20	2547.67
704.39	2285.53
704.57	2256.86
704.75	2443.23
704.94	2394.08
705.12	2269.15
705.30	2553.82
705.49	4421.56
705.67	10262.37
705.86	18241.26
706.04	21978.80
706.22	24805.00
706.41	25919.09
706.59	21900.98
706.77	15566.61
706.96	13156.15
707.14	11534.16
707.32	9985.90
707.51	8828.79
707.69	7200.66
707.87	5885.86
708.06	4800.44
708.24	3911.62
708.42	3248.08
708.61	3041.23
708.79	2482.14
708.97	2463.71
709.16	2375.64
709.34	2316.25
709.52	2297.82
709.71	2334.68
709.89	2340.83
710.07	2195.42
710.26	2181.09
710.44	2203.61
710.62	2326.49
710.80	2228.19
710.99	2318.30
711.17	2367.45
711.35	2244.57
711.54	2166.75
711.72	2387.93
711.90	2295.77
712.09	2203.61
712.27	2220.00
712.45	2334.68
712.63	2131.94
712.82	2256.86
713.00	2260.96
713.18	2340.83
713.37	2312.16
713.55	2357.21
713.73	2299.87
713.91	2269.15
714.10	2230.24
714.28	2170.85
714.46	2230.24
714.65	2275.29
714.83	2293.72
715.01	2295.77
715.19	2314.20
715.38	2236.38
715.56	2316.25
715.74	2164.70
715.92	2138.08
716.11	2432.99
716.29	2105.31
716.47	2228.19
716.65	2301.92
716.84	2060.26
717.02	2254.81
717.20	2117.60
717.38	2197.47
717.57	2349.02
717.75	2283.49
717.93	2203.61
718.11	2293.72
718.30	2181.09
718.48	2285.53
718.66	2250.72
718.84	2306.01
719.03	2275.29
719.21	2072.54
719.39	2432.99
719.57	2242.53
719.75	2387.93
719.94	2136.03
720.12	2267.10
720.30	2301.92
720.48	2334.68
720.67	2236.38
720.85	2160.61
721.03	2160.61
721.21	2187.23
721.39	2365.40
721.58	2250.72
721.76	2295.77
721.94	2277.34
722.12	2293.72
722.30	2465.75
722.49	2154.46
722.67	2310.11
722.85	2301.92
723.03	2043.87
723.21	2209.76
723.40	2375.64
723.58	2320.35
723.76	2353.12
723.94	2424.80
724.12	2359.26
724.30	2453.47
724.49	2359.26
724.67	2215.90
724.85	2424.80
725.03	2172.89
725.21	2267.10
725.40	2420.70
725.58	2183.13
725.76	2461.66
725.94	2310.11
726.12	2127.84
726.30	2299.87
726.49	2203.61
726.67	2138.08
726.85	2330.59
727.03	2533.34
727.21	3604.42
727.39	5052.34
727.57	5920.68
727.76	6487.96
727.94	6709.15
728.12	6481.82
728.30	5078.96
728.48	4558.78
728.66	4149.18
728.84	3821.51
729.03	3223.50
729.21	3004.37
729.39	2828.24
729.57	2545.63
729.75	2516.95
729.93	2330.59
730.11	2246.62
730.30	2199.52
730.48	2258.91
730.66	2359.26
730.84	2314.20
731.02	2193.37
731.20	2263.01
731.38	2332.64
731.56	2090.98
731.74	2142.18
731.93	2234.33
732.11	2283.49
732.29	2193.37
732.47	2314.20
732.65	2220.00
732.83	2359.26
733.01	2346.97
733.19	2179.04
733.37	2285.53
733.56	2252.77
733.74	2226.14
733.92	2357.21
734.10	2252.77
734.28	2269.15
734.46	2138.08
734.64	2248.67
734.82	2301.92
735.00	2203.61
735.18	2220.00
735.36	2224.09
735.54	2363.36
735.73	2209.76
735.91	2328.54
736.09	2306.01
736.27	2195.42
736.45	2283.49
736.63	2066.40
736.81	2144.22
736.99	2355.16
737.17	2383.84
737.35	2162.66
737.53	2222.05
737.71	2172.89
737.89	2301.92
738.07	2127.84
738.25	2199.52
738.43	2164.70
738.61	2170.85
738.80	2109.41
738.98	2154.46
739.16	2197.47
739.34	2166.75
739.52	2363.36
739.70	2215.90
739.88	2322.40
740.06	2213.85
740.24	2011.11
740.42	2340.83
740.60	2080.74
740.78	2158.56
740.96	2144.22
741.14	2246.62
741.32	2244.57
741.50	2119.65
741.68	2406.36
741.86	2420.70
742.04	2166.75
742.22	2187.23
742.40	2189.28
742.58	2310.11
742.76	2156.51
742.94	2326.49
743.12	2127.84
743.30	2250.72
743.48	2334.68
743.66	2234.33
743.84	2273.25
744.02	2191.33
744.20	2299.87
744.38	2174.94
744.56	2176.99
744.74	2441.18
744.92	2277.34
745.10	2281.44
745.28	2351.07
745.46	2367.45
745.64	2174.94
745.82	2332.64
746.00	2226.14
746.18	2285.53
746.36	2154.46
746.54	2236.38
746.72	2193.37
746.90	2146.27
747.08	2432.99
747.26	2187.23
747.44	2349.02
747.62	2342.88
747.80	2281.44
747.98	2328.54
748.15	2310.11
748.33	2404.32
748.51	2273.25
748.69	2351.07
748.87	2285.53
749.05	2230.24
749.23	2240.48
749.41	2220.00
749.59	2197.47
749.77	2316.25
749.95	2187.23
750.13	2240.48
750.31	2318.30
750.49	2269.15
750.67	2324.44
750.85	2471.90
751.03	2250.72
751.20	2484.19
751.38	2349.02
751.56	2275.29
751.74	2217.95
751.92	2185.18
752.10	2138.08
752.28	2396.12
752.46	2222.05
752.64	2273.25
752.82	2187.23
753.00	2306.01
753.18	2179.04
753.35	2299.87
753.53	2279.39
753.71	2193.37
753.89	2267.10
754.07	2277.34
754.25	2328.54
754.43	2252.77
754.61	2097.12
754.79	2260.96
754.97	2230.24
755.14	2336.73
755.32	2138.08
755.50	2185.18
755.68	2283.49
755.86	2148.32
756.04	2187.23
756.22	2031.58
756.40	2389.98
756.57	2525.15
756.75	2269.15
756.93	2349.02
757.11	2306.01
757.29	2154.46
757.47	2170.85
757.65	2099.17
757.82	2080.74
758.00	2189.28
758.18	2215.90
758.36	2201.57
758.54	2432.99
758.72	2140.13
758.90	2377.69
759.07	2306.01
759.25	2129.89
759.43	2277.34
759.61	2119.65
759.79	3129.30
759.97	2357.21
760.15	2244.57
760.32	2168.80
760.50	2279.39
760.68	2414.56
760.86	2103.26
761.04	2375.64
761.22	2277.34
761.39	2299.87
761.57	2283.49
761.75	2215.90
761.93	2340.83
762.11	2217.95
762.28	2258.91
762.46	2117.60
762.64	2363.36
762.82	2166.75
763.00	2232.29
763.18	2410.46
763.35	2127.84
763.53	2320.35
763.71	2306.01
763.89	2213.85
764.07	2310.11
764.24	2172.89
764.42	2324.44
764.60	2148.32
764.78	2234.33
764.96	2328.54
765.13	2306.01
765.31	2226.14
765.49	2271.20
765.67	2154.46
765.84	2215.90
766.02	2154.46
766.20	2088.93
766.38	2277.34
766.56	2258.91
766.73	2316.25
766.91	2176.99
767.09	2273.25
767.27	2318.30
767.44	2150.37
767.62	2351.07
767.80	2183.13
767.98	2176.99
768.15	2224.09
768.33	2312.16
768.51	2301.92
768.69	2291.68
768.87	2244.57
769.04	2209.76
769.22	2471.90
769.40	2320.35
769.58	2437.08
769.75	2338.78
769.93	2418.65
770.11	2271.20
770.28	2129.89
770.46	2338.78
770.64	2385.88
770.82	2168.80
770.99	2263.01
771.17	2330.59
771.35	2279.39
771.53	2203.61
771.70	2152.42
771.88	2308.06
772.06	2187.23
772.23	2215.90
772.41	2267.10
772.59	2174.94
772.77	2113.50
772.94	2248.67
773.12	2277.34
773.30	2179.04
773.47	2281.44
773.65	2176.99
773.83	2297.82
774.01	2306.01
774.18	1996.77
774.36	2209.76
774.54	2148.32
774.71	2267.10
774.89	2160.61
775.07	2224.09
775.24	2152.42
775.42	2164.70
775.60	2478.04
775.78	2228.19
775.95	2113.50
776.13	2121.70
776.31	2015.20
776.48	2260.96
776.66	2369.50
776.84	2244.57
777.01	2164.70
777.19	2187.23
777.37	2154.46
777.54	2349.02
777.72	2469.85
777.90	2297.82
778.07	2181.09
778.25	2488.28
778.43	2400.22
778.60	2185.18
778.78	2318.30
778.96	2301.92
779.13	2156.51
779.31	2342.88
779.49	2244.57
779.66	2303.96
779.84	2203.61
780.01	2166.75
780.19	2228.19
780.37	2355.16
780.54	2285.53
780.72	2103.26
780.90	2248.67
781.07	2293.72
781.25	2154.46
781.43	2367.45
781.60	2252.77
781.78	2398.17
781.95	2359.26
782.13	2197.47
782.31	2217.95
782.48	2101.22
782.66	2217.95
782.83	2379.74
783.01	2195.42
783.19	2373.60
783.36	2199.52
783.54	2109.41
783.72	2285.53
783.89	2170.85
784.07	2260.96
784.24	2265.05
784.42	2355.16
784.60	2351.07
784.77	2336.73
784.95	2080.74
785.12	2195.42
785.30	2277.34
785.47	2156.51
785.65	2193.37
785.83	2183.13
786.00	2236.38
786.18	2205.66
786.35	2179.04
786.53	2176.99
786.71	2351.07
786.88	2283.49
787.06	2301.92
787.23	2334.68
787.41	2162.66
787.58	2195.42
787.76	2160.61
787.94	2254.81
788.11	2256.86
788.29	2154.46
788.46	2181.09
788.64	2121.70
788.81	2207.71
788.99	2183.13
789.16	2121.70
789.34	2211.81
789.52	2195.42
789.69	2138.08
789.87	2088.93
790.04	2185.18
790.22	2254.81
790.39	2467.80
790.57	2140.13
790.74	2197.47
790.92	2322.40
791.09	2078.69
791.27	2222.05
791.44	2344.92
791.62	2162.66
791.79	2365.40
791.97	2285.53
792.15	2590.68
792.32	2263.01
792.50	2392.03
792.67	2426.84
792.85	2402.27
793.02	2242.53
793.20	2281.44
793.37	2107.36
793.55	2242.53
793.72	2172.89
793.90	2328.54
794.07	2209.76
794.25	2129.89
794.42	2203.61
794.60	2234.33
794.77	2179.04
794.95	2351.07
795.12	2265.05
795.30	2275.29
795.47	2086.88
795.65	2467.80
795.82	2297.82
796.00	2158.56
796.17	2244.57
796.34	2183.13
796.52	2238.43
796.69	2387.93
796.87	2334.68
797.04	2326.49
797.22	2299.87
797.39	2240.48
797.57	2299.87
797.74	2250.72
797.92	2303.96
798.09	2220.00
798.27	2357.21
798.44	2113.50
798.62	2226.14
798.79	2291.68
798.96	2269.15
799.14	2240.48
799.31	2457.56
799.49	2160.61
799.66	2138.08
799.84	2252.77
800.01	2095.07
800.19	2232.29
800.36	2101.22
800.53	2322.40
800.71	2308.06
800.88	2435.03
801.06	2136.03
801.23	2168.80
801.41	2226.14
801.58	2248.67
801.75	2195.42
801.93	2285.53
802.10	2371.55
802.28	2224.09
802.45	2199.52
802.63	2289.63
802.80	2457.56
802.97	2220.00
803.15	2220.00
803.32	2150.37
803.50	2185.18
803.67	2195.42
803.84	2154.46
804.02	2183.13
804.19	2287.58
804.37	2002.91
804.54	2111.46
804.71	2265.05
804.89	2281.44
805.06	2174.94
805.24	2224.09
805.41	2144.22
805.58	2193.37
805.76	2453.47
805.93	2217.95
806.10	2373.60
806.28	2351.07
806.45	2285.53
806.63	2236.38
806.80	2293.72
806.97	2306.01
807.15	2269.15
807.32	2318.30
807.49	2203.61
807.67	2117.60
807.84	2281.44
808.01	2133.98
808.19	2414.56
808.36	2469.85
808.54	2244.57
808.71	2095.07
808.88	2301.92
809.06	2326.49
809.23	2334.68
809.40	2191.33
809.58	2271.20
809.75	2258.91
809.92	2138.08
810.10	2418.65
810.27	2285.53
810.44	2230.24
810.62	2387.93
810.79	2322.40
810.96	2191.33
811.14	2215.90
811.31	2318.30
811.48	2293.72
811.66	2248.67
811.83	2351.07
812.00	2285.53
812.18	2308.06
812.35	2414.56
812.52	2269.15
812.69	2226.14
812.87	2222.05
813.04	2150.37
813.21	2226.14
813.39	2211.81
813.56	2236.38
813.73	2330.59
813.91	2125.79
814.08	2281.44
814.25	2312.16
814.42	2099.17
814.60	2242.53
814.77	2285.53
814.94	2230.24
815.12	2187.23
815.29	2385.88
815.46	2281.44
815.63	2179.04
815.81	2209.76
815.98	2295.77
816.15	2236.38
816.33	2238.43
816.50	2222.05
816.67	2308.06
816.84	2207.71
817.02	2121.70
817.19	2197.47
817.36	2285.53
817.53	2299.87
817.71	2176.99
817.88	2400.22
818.05	2258.91
818.22	2220.00
818.40	2482.14
818.57	2105.31
818.74	2289.63
818.91	2199.52
819.09	2320.35
819.26	2267.10
819.43	2158.56
819.60	2248.67
819.78	2316.25
819.95	2318.30
820.12	2181.09
820.29	2318.30
820.47	2351.07
820.64	2193.37
820.81	2084.83
820.98	2105.31
821.15	2195.42
821.33	2285.53
821.50	2058.21
821.67	2357.21
821.84	2179.04
822.02	2299.87
822.19	2410.46
822.36	2238.43
822.53	2195.42
822.70	2189.28
822.88	2189.28
823.05	2355.16
823.22	2197.47
823.39	2314.20
823.56	2179.04
823.74	2453.47
823.91	2183.13
824.08	2158.56
824.25	2103.26
824.42	2387.93
824.60	2127.84
824.77	2281.44
824.94	2211.81
825.11	2228.19
825.28	2119.65
825.45	2324.44
825.63	2244.57
825.80	2154.46
825.97	2252.77
826.14	2220.00
826.31	2138.08
826.48	2303.96
826.66	2121.70
826.83	2222.05
827.00	2144.22
827.17	2150.37
827.34	2256.86
827.51	2252.77
827.69	2215.90
827.86	2105.31
828.03	2265.05
828.20	2226.14
828.37	2191.33
828.54	2217.95
828.71	2113.50
828.89	2363.36
829.06	2338.78
829.23	2402.27
829.40	2156.51
829.57	2224.09
829.74	2322.40
829.91	2168.80
830.09	2140.13
830.26	2260.96
830.43	2322.40
830.60	2217.95
830.77	2332.64
830.94	2346.97
831.11	2330.59
831.28	2191.33
831.46	2334.68
831.63	2117.60
831.80	2359.26
831.97	2189.28
832.14	2185.18
832.31	2281.44
832.48	2246.62
832.65	2273.25
832.82	2224.09
832.99	2234.33
833.17	2121.70
833.34	2334.68
833.51	2291.68
833.68	2162.66
833.85	2326.49
834.02	2127.84
834.19	2181.09
834.36	2242.53
834.53	2209.76
834.70	2320.35
834.87	2256.86
835.04	2183.13
835.22	2211.81
835.39	2240.48
835.56	2121.70
835.73	2222.05
835.90	2310.11
836.07	2217.95
836.24	2260.96
836.41	2107.36
836.58	2152.42
836.75	2318.30
836.92	2295.77
837.09	2117.60
837.26	2281.44
837.43	2246.62
837.60	2334.68
837.77	2226.14
837.94	2291.68
838.12	2334.68
838.29	2215.90
838.46	2101.22
838.63	2150.37
838.80	2408.41
838.97	2265.05
839.14	2224.09
839.31	2289.63
839.48	2349.02
839.65	2076.64
839.82	2228.19
839.99	2240.48
840.16	2342.88
840.33	2140.13
840.50	2195.42
840.67	2201.57
840.84	2060.26
841.01	2176.99
841.18	2146.27
841.35	2285.53
841.52	2291.68
841.69	2447.32
841.86	2195.42
842.03	2150.37
842.20	2338.78
842.37	2242.53
842.54	2232.29
842.71	2234.33
842.88	2189.28
843.05	2240.48
843.22	2168.80
843.39	2351.07
843.56	2172.89
843.73	2176.99
843.90	2195.42
844.07	2301.92
844.24	2371.55
844.41	2289.63
844.58	2236.38
844.75	2285.53
844.92	2215.90
845.09	2236.38
845.26	2138.08
845.43	2297.82
845.60	2199.52
845.77	2254.81
845.94	2322.40
846.10	2293.72
846.27	2103.26
846.44	2035.68
846.61	2211.81
846.78	2326.49
846.95	2387.93
847.12	2240.48
847.29	2201.57
847.46	2166.75
847.63	2240.48
847.80	2148.32
847.97	2123.74
848.14	2529.24
848.31	2164.70
848.48	2056.16
848.65	2254.81
848.82	2191.33
848.98	2435.03
849.15	2353.12
849.32	2256.86
849.49	2340.83
849.66	2308.06
849.83	2217.95
850.00	2076.64
850.17	2318.30
850.34	2228.19
850.51	2162.66
850.68	2209.76
850.85	2562.01
851.01	2232.29
851.18	2215.90
851.35	2138.08
851.52	2277.34
851.69	2383.84
851.86	2136.03
852.03	2123.74
852.20	2301.92
852.37	2226.14
852.53	2076.64
852.70	2127.84
852.87	2244.57
853.04	2326.49
853.21	2250.72
853.38	2324.44
853.55	2355.16
853.72	2328.54
853.89	2084.83
854.05	2129.89
854.22	2158.56
854.39	2281.44
854.56	2260.96
854.73	2346.97
854.90	2101.22
855.07	2285.53
855.23	2133.98
855.40	2168.80
855.57	2250.72
855.74	2064.35
855.91	2387.93
856.08	2195.42
856.25	2168.80
856.41	2172.89
856.58	2144.22
856.75	2260.96
856.92	2127.84
857.09	2359.26
857.26	2101.22
857.42	2195.42
857.59	2338.78
857.76	2181.09
857.93	2197.47
858.10	2275.29
858.27	2146.27
858.43	2283.49
858.60	2129.89
858.77	2080.74
858.94	2172.89
859.11	2342.88
859.27	2222.05
859.44	2220.00
859.61	2336.73
859.78	2324.44
859.95	2154.46
860.12	2174.94
860.28	2424.80
860.45	2392.03
860.62	2154.46
860.79	2242.53
860.95	2209.76
861.12	2129.89
861.29	2164.70
861.46	2090.98
861.63	2193.37
861.79	2260.96
861.96	2162.66
862.13	2131.94
862.30	2455.51
862.47	2181.09
862.63	2117.60
862.80	2306.01
862.97	2334.68
863.14	2250.72
863.30	2187.23
863.47	2168.80
863.64	2422.75
863.81	2310.11
863.97	2160.61
864.14	2183.13
864.31	2248.67
864.48	2236.38
864.65	2207.71
864.81	2306.01
864.98	2404.32
865.15	2377.69
865.32	2240.48
865.48	2269.15
865.65	2363.36
865.82	2136.03
865.98	2199.52
866.15	2281.44
866.32	2228.19
866.49	2215.90
866.65	2314.20
866.82	2138.08
866.99	2242.53
867.16	2152.42
867.32	2179.04
867.49	2107.36
867.66	2236.38
867.83	2195.42
867.99	2039.78
868.16	2164.70
868.33	2084.83
868.49	2308.06
868.66	2166.75
868.83	2308.06
868.99	2236.38
869.16	2183.13
869.33	2265.05
869.50	2265.05
869.66	2217.95
869.83	2217.95
870.00	2121.70
870.16	2291.68
870.33	2215.90
870.50	2324.44
870.66	2220.00
870.83	2289.63
871.00	2252.77
871.17	2220.00
871.33	2285.53
871.50	2162.66
871.67	2258.91
871.83	2201.57
872.00	2379.74
872.17	2199.52
872.33	2443.23
872.50	2389.98
872.67	2101.22
872.83	2220.00
873.00	2293.72
873.17	2301.92
873.33	2314.20
873.50	2236.38
873.67	2127.84
873.83	2211.81
874.00	2152.42
874.16	2295.77
874.33	2283.49
874.50	2099.17
874.66	2230.24
874.83	2183.13
875.00	2318.30
875.16	2297.82
875.33	2357.21
875.50	2060.26
875.66	2174.94
875.83	2265.05
875.99	2285.53
876.16	2220.00
876.33	2140.13
876.49	2289.63
876.66	2246.62
876.83	2222.05
876.99	2158.56
877.16	2275.29
877.32	2127.84
877.49	2209.76
877.66	2310.11
877.82	2310.11
877.99	2273.25
878.15	2287.58
878.32	2244.57
878.49	2260.96
878.65	2166.75
878.82	2314.20
878.98	2226.14
879.15	2312.16
879.32	2297.82
879.48	2295.77
879.65	2164.70
879.81	2154.46
879.98	2195.42
880.15	2187.23
880.31	2283.49
880.48	2195.42
880.64	2228.19
880.81	2275.29
880.97	2408.41
881.14	2400.22
881.31	2199.52
881.47	2412.51
881.64	2291.68
881.80	2115.55
881.97	2240.48
882.13	2240.48
882.30	2113.50
882.47	2191.33
882.63	2146.27
882.80	2203.61
882.96	2234.33
883.13	2297.82
883.29	2240.48
883.46	2256.86
883.62	2404.32
883.79	2211.81
883.95	2240.48
884.12	2187.23
884.29	2392.03
884.45	2258.91
884.62	2236.38
884.78	2162.66
884.95	2432.99
885.11	2191.33
885.28	2277.34
885.44	2189.28
885.61	2265.05
885.77	2369.50
885.94	2289.63
886.10	2217.95
886.27	2240.48
886.43	2400.22
886.60	2301.92
886.76	2160.61
886.93	2191.33
887.09	2328.54
887.26	2140.13
887.42	2193.37
887.59	2314.20
887.75	2490.33
887.92	2334.68
888.08	2316.25
888.25	2463.71
888.41	2367.45
888.58	2244.57
888.74	2125.79
888.91	2154.46
>>>>>End Processed Spectral Data<<<<<
