SpectraSuite Data File
++++++++++++++++++++++++++++++++++++
Date: Thu May 05 13:20:58 CEST 2016
User: root
Dark Spectrum Present: No
Reference Spectrum Present: No
Number of Sampled Component Spectra: 1
Spectrometers: USB4C02835
Integration Time (usec): 100000 (USB4C02835)
Spectra Averaged: 1 (USB4C02835)
Boxcar Smoothing: 0 (USB4C02835)
Correct for Electrical Dark: No (USB4C02835)
Strobe/Lamp Enabled: No (USB4C02835)
Correct for Detector Non-linearity: No (USB4C02835)
Correct for Stray Light: No (USB4C02835)
Number of Pixels in Processed Spectrum: 3648
>>>>>Begin Processed Spectral Data<<<<<
177.47	1802.21
177.69	1802.21
177.91	1802.21
178.13	1843.17
178.36	1785.83
178.58	2136.03
178.80	2310.11
179.02	2154.46
179.24	2095.07
179.46	2176.99
179.68	2293.72
179.90	2197.47
180.13	2234.33
180.35	2084.83
180.57	2121.70
180.79	2310.11
181.01	2226.14
181.23	2246.62
181.45	2258.91
181.67	2340.83
181.90	2344.92
182.12	2138.08
182.34	2146.27
182.56	2308.06
182.78	2258.91
183.00	2142.18
183.22	2252.77
183.44	2101.22
183.66	2537.43
183.89	2283.49
184.11	2226.14
184.33	2365.40
184.55	2336.73
184.77	2162.66
184.99	2172.89
185.21	2220.00
185.43	2523.10
185.65	2140.13
185.87	2244.57
186.10	2430.94
186.32	2439.13
186.54	2179.04
186.76	2242.53
186.98	2310.11
187.20	2260.96
187.42	2172.89
187.64	2238.43
187.86	2301.92
188.08	2338.78
188.30	2162.66
188.52	2234.33
188.75	2357.21
188.97	2428.89
189.19	2185.18
189.41	2189.28
189.63	2265.05
189.85	2226.14
190.07	2103.26
190.29	2078.69
190.51	2277.34
190.73	2158.56
190.95	2244.57
191.17	2154.46
191.39	2056.16
191.61	2232.29
191.84	2265.05
192.06	2234.33
192.28	2043.87
192.50	2494.43
192.72	2240.48
192.94	2207.71
193.16	2314.20
193.38	2269.15
193.60	2062.30
193.82	2230.24
194.04	2357.21
194.26	2285.53
194.48	2172.89
194.70	2119.65
194.92	2181.09
195.14	2310.11
195.36	2144.22
195.58	2228.19
195.80	2185.18
196.02	2162.66
196.24	2154.46
196.46	2195.42
196.69	2240.48
196.91	2463.71
197.13	2176.99
197.35	2123.74
197.57	2377.69
197.79	2308.06
198.01	2199.52
198.23	2119.65
198.45	2383.84
198.67	2154.46
198.89	2109.41
199.11	2258.91
199.33	2156.51
199.55	2072.54
199.77	2170.85
199.99	2265.05
200.21	2189.28
200.43	2340.83
200.65	2125.79
200.87	2023.39
201.09	2269.15
201.31	2217.95
201.53	2224.09
201.75	2199.52
201.97	2275.29
202.19	2285.53
202.41	2258.91
202.63	2394.08
202.85	2279.39
203.07	2349.02
203.29	2150.37
203.51	2076.64
203.73	2269.15
203.95	2566.10
204.17	2170.85
204.39	2185.18
204.61	2187.23
204.83	2205.66
205.05	2293.72
205.27	2295.77
205.49	2439.13
205.71	2287.58
205.93	2086.88
206.15	2125.79
206.37	2277.34
206.59	2224.09
206.81	2078.69
207.03	2123.74
207.25	2160.61
207.47	2312.16
207.69	2103.26
207.91	2363.36
208.13	2463.71
208.34	2113.50
208.56	2119.65
208.78	2230.24
209.00	2201.57
209.22	2162.66
209.44	2195.42
209.66	2195.42
209.88	2279.39
210.10	2250.72
210.32	2152.42
210.54	2299.87
210.76	2269.15
210.98	2363.36
211.20	2047.97
211.42	2209.76
211.64	2443.23
211.86	2269.15
212.08	2228.19
212.30	2240.48
212.52	2260.96
212.74	2260.96
212.96	2207.71
213.17	2195.42
213.39	2342.88
213.61	2426.84
213.83	2211.81
214.05	2179.04
214.27	2367.45
214.49	2123.74
214.71	2105.31
214.93	2271.20
215.15	2207.71
215.37	2346.97
215.59	2138.08
215.81	2252.77
216.03	2451.42
216.24	2260.96
216.46	2133.98
216.68	2238.43
216.90	2306.01
217.12	2373.60
217.34	2074.59
217.56	2281.44
217.78	2377.69
218.00	2226.14
218.22	2187.23
218.44	2230.24
218.66	2314.20
218.87	2521.05
219.09	2148.32
219.31	2199.52
219.53	2308.06
219.75	2187.23
219.97	2252.77
220.19	2174.94
220.41	2320.35
220.63	2359.26
220.85	2256.86
221.06	2232.29
221.28	2387.93
221.50	2351.07
221.72	2252.77
221.94	2183.13
222.16	2281.44
222.38	2412.51
222.60	2220.00
222.82	2154.46
223.03	2303.96
223.25	2146.27
223.47	2271.20
223.69	2353.12
223.91	2322.40
224.13	2250.72
224.35	2179.04
224.57	2297.82
224.78	2301.92
225.00	2127.84
225.22	2176.99
225.44	2220.00
225.66	2336.73
225.88	2242.53
226.10	2193.37
226.32	2215.90
226.53	2398.17
226.75	2228.19
226.97	2228.19
227.19	2256.86
227.41	2140.13
227.63	2248.67
227.85	2068.45
228.06	2146.27
228.28	2148.32
228.50	2342.88
228.72	2150.37
228.94	2207.71
229.16	2107.36
229.37	2176.99
229.59	2121.70
229.81	2260.96
230.03	2166.75
230.25	2070.50
230.47	2033.63
230.69	2133.98
230.90	2351.07
231.12	2095.07
231.34	2310.11
231.56	2236.38
231.78	2193.37
232.00	2287.58
232.21	2179.04
232.43	2168.80
232.65	2058.21
232.87	2283.49
233.09	2086.88
233.30	2138.08
233.52	2285.53
233.74	2277.34
233.96	2205.66
234.18	2283.49
234.40	2291.68
234.61	2527.19
234.83	2121.70
235.05	2136.03
235.27	2498.52
235.49	2441.18
235.70	2109.41
235.92	2297.82
236.14	2301.92
236.36	2471.90
236.58	2123.74
236.79	2213.85
237.01	2291.68
237.23	2281.44
237.45	2265.05
237.67	2158.56
237.88	2271.20
238.10	2387.93
238.32	2107.36
238.54	2144.22
238.76	2258.91
238.97	2146.27
239.19	2152.42
239.41	2224.09
239.63	2359.26
239.85	2209.76
240.06	2170.85
240.28	2197.47
240.50	2310.11
240.72	2275.29
240.93	2129.89
241.15	2269.15
241.37	2215.90
241.59	2432.99
241.81	2156.51
242.02	2154.46
242.24	2234.33
242.46	2330.59
242.68	2093.02
242.89	2133.98
243.11	2351.07
243.33	2199.52
243.55	2260.96
243.76	2226.14
243.98	2187.23
244.20	2310.11
244.42	2189.28
244.64	2220.00
244.85	2072.54
245.07	2123.74
245.29	2244.57
245.51	2228.19
245.72	2228.19
245.94	2332.64
246.16	2193.37
246.38	2215.90
246.59	2211.81
246.81	2148.32
247.03	2056.16
247.24	2070.50
247.46	2205.66
247.68	2252.77
247.90	2117.60
248.11	2136.03
248.33	2408.41
248.55	2250.72
248.77	2209.76
248.98	2291.68
249.20	2435.03
249.42	2273.25
249.64	2152.42
249.85	2160.61
250.07	2138.08
250.29	2355.16
250.50	2205.66
250.72	2056.16
250.94	2273.25
251.16	2521.05
251.37	2170.85
251.59	2250.72
251.81	2320.35
252.02	2400.22
252.24	2121.70
252.46	2220.00
252.68	2203.61
252.89	2152.42
253.11	2078.69
253.33	2277.34
253.54	2299.87
253.76	2133.98
253.98	2156.51
254.20	2144.22
254.41	2127.84
254.63	2256.86
254.85	2125.79
255.06	2238.43
255.28	2330.59
255.50	2281.44
255.71	2170.85
255.93	2031.58
256.15	2254.81
256.36	2334.68
256.58	2074.59
256.80	2195.42
257.02	2181.09
257.23	2191.33
257.45	2236.38
257.67	2224.09
257.88	2224.09
258.10	2299.87
258.32	2084.83
258.53	2299.87
258.75	2303.96
258.97	2201.57
259.18	2146.27
259.40	2224.09
259.62	2424.80
259.83	2473.95
260.05	2185.18
260.27	2656.22
260.48	2344.92
260.70	2179.04
260.92	2072.54
261.13	2205.66
261.35	2281.44
261.57	2373.60
261.78	2101.22
262.00	2129.89
262.22	2256.86
262.43	2203.61
262.65	2213.85
262.86	2189.28
263.08	2500.57
263.30	2260.96
263.51	2035.68
263.73	2127.84
263.95	2418.65
264.16	2179.04
264.38	2148.32
264.60	2150.37
264.81	2236.38
265.03	2334.68
265.25	2283.49
265.46	2170.85
265.68	2445.27
265.89	2361.31
266.11	2043.87
266.33	2215.90
266.54	2379.74
266.76	2256.86
266.98	2250.72
267.19	2297.82
267.41	2400.22
267.62	2285.53
267.84	2047.97
268.06	2215.90
268.27	2297.82
268.49	2406.36
268.70	2281.44
268.92	2203.61
269.14	2207.71
269.35	2154.46
269.57	2220.00
269.79	2250.72
270.00	2146.27
270.22	2392.03
270.43	2105.31
270.65	2064.35
270.87	2297.82
271.08	2389.98
271.30	2338.78
271.51	2174.94
271.73	2334.68
271.95	2377.69
272.16	2207.71
272.38	2281.44
272.59	2203.61
272.81	2279.39
273.02	2203.61
273.24	2179.04
273.46	2340.83
273.67	2160.61
273.89	2088.93
274.10	2170.85
274.32	2410.46
274.54	2215.90
274.75	2193.37
274.97	2187.23
275.18	2355.16
275.40	2248.67
275.61	2146.27
275.83	2234.33
276.05	2129.89
276.26	2199.52
276.48	2258.91
276.69	2133.98
276.91	2254.81
277.12	2359.26
277.34	2336.73
277.55	2289.63
277.77	2220.00
277.99	2179.04
278.20	2168.80
278.42	2183.13
278.63	2133.98
278.85	2176.99
279.06	2127.84
279.28	2265.05
279.49	2291.68
279.71	2310.11
279.93	2275.29
280.14	2246.62
280.36	2170.85
280.57	2361.31
280.79	2211.81
281.00	2086.88
281.22	2244.57
281.43	2361.31
281.65	1980.39
281.86	2179.04
282.08	2291.68
282.29	2416.60
282.51	2144.22
282.73	2207.71
282.94	2072.54
283.16	2334.68
283.37	2299.87
283.59	2277.34
283.80	2328.54
284.02	2246.62
284.23	2263.01
284.45	2150.37
284.66	2203.61
284.88	2170.85
285.09	2242.53
285.31	2306.01
285.52	2342.88
285.74	2080.74
285.95	2369.50
286.17	2283.49
286.38	2301.92
286.60	2197.47
286.81	2209.76
287.03	2226.14
287.24	2310.11
287.46	2308.06
287.67	2303.96
287.89	2445.27
288.10	2191.33
288.32	2277.34
288.53	2357.21
288.75	2275.29
288.96	2308.06
289.18	2193.37
289.39	2179.04
289.61	2318.30
289.82	2578.39
290.04	2426.84
290.25	2168.80
290.47	2232.29
290.68	2275.29
290.90	2332.64
291.11	2113.50
291.33	2336.73
291.54	2187.23
291.76	2234.33
291.97	2230.24
292.18	2256.86
292.40	2232.29
292.61	2172.89
292.83	2414.56
293.04	2224.09
293.26	2250.72
293.47	2217.95
293.69	2154.46
293.90	2189.28
294.12	2396.12
294.33	2193.37
294.55	2267.10
294.76	2338.78
294.97	2324.44
295.19	2529.24
295.40	2220.00
295.62	2318.30
295.83	2326.49
296.05	2123.74
296.26	2318.30
296.48	2211.81
296.69	2283.49
296.90	2197.47
297.12	2250.72
297.33	2353.12
297.55	2318.30
297.76	2252.77
297.98	2365.40
298.19	2267.10
298.41	2252.77
298.62	2176.99
298.83	2293.72
299.05	2281.44
299.26	2230.24
299.48	2187.23
299.69	2260.96
299.90	2267.10
300.12	2209.76
300.33	2324.44
300.55	2236.38
300.76	2238.43
300.98	2168.80
301.19	2330.59
301.40	2207.71
301.62	2228.19
301.83	2240.48
302.05	2248.67
302.26	2195.42
302.47	2191.33
302.69	2095.07
302.90	2211.81
303.12	2025.44
303.33	2273.25
303.54	2512.86
303.76	2234.33
303.97	2301.92
304.19	2363.36
304.40	2146.27
304.61	2392.03
304.83	2367.45
305.04	2260.96
305.26	2326.49
305.47	2220.00
305.68	2236.38
305.90	2172.89
306.11	2416.60
306.33	2260.96
306.54	2103.26
306.75	2201.57
306.97	2007.01
307.18	2144.22
307.39	2105.31
307.61	2277.34
307.82	2246.62
308.04	2275.29
308.25	2101.22
308.46	2295.77
308.68	2275.29
308.89	2267.10
309.10	2340.83
309.32	2250.72
309.53	2252.77
309.74	2310.11
309.96	2220.00
310.17	2375.64
310.39	2228.19
310.60	2291.68
310.81	2242.53
311.03	2109.41
311.24	2306.01
311.45	2226.14
311.67	2430.94
311.88	2273.25
312.09	2150.37
312.31	2176.99
312.52	2238.43
312.73	2160.61
312.95	2117.60
313.16	2121.70
313.37	2351.07
313.59	2322.40
313.80	2279.39
314.01	2359.26
314.23	2250.72
314.44	2183.13
314.65	2158.56
314.87	2160.61
315.08	2217.95
315.29	2179.04
315.51	2183.13
315.72	2119.65
315.93	2297.82
316.15	2230.24
316.36	2220.00
316.57	2252.77
316.79	2240.48
317.00	2260.96
317.21	2265.05
317.43	2148.32
317.64	2217.95
317.85	2117.60
318.07	2162.66
318.28	2291.68
318.49	2349.02
318.70	2514.91
318.92	2398.17
319.13	2400.22
319.34	2441.18
319.56	2334.68
319.77	2465.75
319.98	2385.88
320.20	2400.22
320.41	2295.77
320.62	2260.96
320.83	2224.09
321.05	2514.91
321.26	2301.92
321.47	2252.77
321.69	2349.02
321.90	2142.18
322.11	2138.08
322.32	2273.25
322.54	2424.80
322.75	2342.88
322.96	2547.67
323.18	2064.35
323.39	2080.74
323.60	2244.57
323.81	2312.16
324.03	2193.37
324.24	2260.96
324.45	2258.91
324.66	2203.61
324.88	2332.64
325.09	2408.41
325.30	2252.77
325.52	2291.68
325.73	2213.85
325.94	2121.70
326.15	2084.83
326.37	2193.37
326.58	2369.50
326.79	2392.03
327.00	2131.94
327.22	2187.23
327.43	2283.49
327.64	2129.89
327.85	2277.34
328.07	2256.86
328.28	2322.40
328.49	2170.85
328.70	2185.18
328.92	2185.18
329.13	2195.42
329.34	2301.92
329.55	2412.51
329.76	2373.60
329.98	2201.57
330.19	2408.41
330.40	2306.01
330.61	2179.04
330.83	2310.11
331.04	2172.89
331.25	2224.09
331.46	2150.37
331.68	2062.30
331.89	2392.03
332.10	2232.29
332.31	2168.80
332.52	2217.95
332.74	2445.27
332.95	2082.78
333.16	2269.15
333.37	2281.44
333.58	2215.90
333.80	2199.52
334.01	2160.61
334.22	2193.37
334.43	2226.14
334.64	2242.53
334.86	2162.66
335.07	2199.52
335.28	2416.60
335.49	2086.88
335.70	2217.95
335.92	2301.92
336.13	2398.17
336.34	2273.25
336.55	2228.19
336.76	2289.63
336.98	2011.11
337.19	2211.81
337.40	2332.64
337.61	2605.02
337.82	2154.46
338.04	2334.68
338.25	2066.40
338.46	2226.14
338.67	2209.76
338.88	2154.46
339.09	2138.08
339.31	2228.19
339.52	2215.90
339.73	2156.51
339.94	2228.19
340.15	2359.26
340.36	2209.76
340.58	2205.66
340.79	2136.03
341.00	2342.88
341.21	2172.89
341.42	2349.02
341.63	2125.79
341.85	2246.62
342.06	2291.68
342.27	2199.52
342.48	2322.40
342.69	2146.27
342.90	2277.34
343.12	2332.64
343.33	2187.23
343.54	2416.60
343.75	2359.26
343.96	2242.53
344.17	2101.22
344.38	2306.01
344.60	2133.98
344.81	2179.04
345.02	2144.22
345.23	2324.44
345.44	2457.56
345.65	2318.30
345.86	2199.52
346.07	2295.77
346.29	2160.61
346.50	2226.14
346.71	2170.85
346.92	2410.46
347.13	2428.89
347.34	2277.34
347.55	2232.29
347.76	2291.68
347.98	2176.99
348.19	2236.38
348.40	2301.92
348.61	2179.04
348.82	2414.56
349.03	2318.30
349.24	2203.61
349.45	2478.04
349.66	2068.45
349.88	2299.87
350.09	2170.85
350.30	2463.71
350.51	2355.16
350.72	2267.10
350.93	2183.13
351.14	2226.14
351.35	2295.77
351.56	2234.33
351.77	2244.57
351.99	2252.77
352.20	2330.59
352.41	2373.60
352.62	2037.73
352.83	2281.44
353.04	2273.25
353.25	2224.09
353.46	2326.49
353.67	2297.82
353.88	2170.85
354.09	2224.09
354.30	2232.29
354.52	2310.11
354.73	2195.42
354.94	2234.33
355.15	2234.33
355.36	2422.75
355.57	2195.42
355.78	2269.15
355.99	2201.57
356.20	2244.57
356.41	2387.93
356.62	2240.48
356.83	2224.09
357.04	2389.98
357.25	2121.70
357.46	2199.52
357.68	2095.07
357.89	2197.47
358.10	2306.01
358.31	2174.94
358.52	2248.67
358.73	2195.42
358.94	2220.00
359.15	2168.80
359.36	2299.87
359.57	2265.05
359.78	2236.38
359.99	2332.64
360.20	2136.03
360.41	2201.57
360.62	2285.53
360.83	2224.09
361.04	2230.24
361.25	2371.55
361.46	2424.80
361.67	2361.31
361.88	2248.67
362.09	2355.16
362.30	2209.76
362.51	2170.85
362.72	2258.91
362.93	2258.91
363.14	2357.21
363.35	2174.94
363.56	2209.76
363.78	2408.41
363.99	2334.68
364.20	2250.72
364.41	2232.29
364.62	2441.18
364.83	2176.99
365.04	2236.38
365.25	2179.04
365.46	2498.52
365.67	2215.90
365.88	2187.23
366.09	2211.81
366.30	2220.00
366.51	2254.81
366.72	2121.70
366.93	2238.43
367.14	2310.11
367.35	2392.03
367.56	2201.57
367.77	2406.36
367.98	2308.06
368.18	2260.96
368.39	2279.39
368.60	2109.41
368.81	2256.86
369.02	2228.19
369.23	2172.89
369.44	2195.42
369.65	2238.43
369.86	2328.54
370.07	2342.88
370.28	2197.47
370.49	2324.44
370.70	2340.83
370.91	2242.53
371.12	2191.33
371.33	2367.45
371.54	2228.19
371.75	2367.45
371.96	1982.43
372.17	2187.23
372.38	2295.77
372.59	2297.82
372.80	2174.94
373.01	2254.81
373.22	2244.57
373.43	2215.90
373.64	2158.56
373.85	2426.84
374.06	2422.75
374.26	2379.74
374.47	2273.25
374.68	2439.13
374.89	2353.12
375.10	2193.37
375.31	2256.86
375.52	2205.66
375.73	2310.11
375.94	2107.36
376.15	2359.26
376.36	2207.71
376.57	2168.80
376.78	2271.20
376.99	2252.77
377.20	2365.40
377.40	2281.44
377.61	2432.99
377.82	2179.04
378.03	2406.36
378.24	2357.21
378.45	2252.77
378.66	2238.43
378.87	2144.22
379.08	2179.04
379.29	2181.09
379.50	2394.08
379.71	2179.04
379.91	2426.84
380.12	2252.77
380.33	2252.77
380.54	2306.01
380.75	2287.58
380.96	2273.25
381.17	2310.11
381.38	2252.77
381.59	2267.10
381.80	2228.19
382.00	2465.75
382.21	2328.54
382.42	2475.99
382.63	2502.62
382.84	2250.72
383.05	2346.97
383.26	2373.60
383.47	2322.40
383.68	2217.95
383.88	2361.31
384.09	2289.63
384.30	2414.56
384.51	2258.91
384.72	2226.14
384.93	2174.94
385.14	2207.71
385.35	2326.49
385.55	2058.21
385.76	2326.49
385.97	2224.09
386.18	2111.46
386.39	2209.76
386.60	2263.01
386.81	2265.05
387.02	2158.56
387.22	2148.32
387.43	2357.21
387.64	2357.21
387.85	2381.79
388.06	2406.36
388.27	3971.01
388.48	8152.96
388.68	11673.42
388.89	13977.39
389.10	14960.41
389.31	13967.15
389.52	10905.43
389.73	9523.05
389.93	8621.95
390.14	7997.32
390.35	7210.90
390.56	6381.47
390.77	5302.19
390.98	3930.05
391.18	3243.98
391.39	2818.00
391.60	2441.18
391.81	2365.40
392.02	2263.01
392.23	2496.47
392.43	2279.39
392.64	2404.32
392.85	2220.00
393.06	2465.75
393.27	2285.53
393.47	2166.75
393.68	2248.67
393.89	2263.01
394.10	2281.44
394.31	2209.76
394.52	2174.94
394.72	2201.57
394.93	2404.32
395.14	2117.60
395.35	2310.11
395.56	2148.32
395.76	2303.96
395.97	2220.00
396.18	2349.02
396.39	2400.22
396.60	2746.33
396.80	2531.29
397.01	2379.74
397.22	2404.32
397.43	2400.22
397.64	2193.37
397.84	2346.97
398.05	2514.91
398.26	2232.29
398.47	2318.30
398.67	2322.40
398.88	2236.38
399.09	2340.83
399.30	2234.33
399.51	2322.40
399.71	2174.94
399.92	2269.15
400.13	2375.64
400.34	2146.27
400.54	2293.72
400.75	2416.60
400.96	2256.86
401.17	2467.80
401.37	2271.20
401.58	2301.92
401.79	2185.18
402.00	2396.12
402.21	2615.26
402.41	2570.20
402.62	2670.55
402.83	2721.75
403.04	2705.37
403.24	2756.57
403.45	2404.32
403.66	2461.66
403.87	2545.63
404.07	2541.53
404.28	2512.86
404.49	2453.47
404.70	2379.74
404.90	2353.12
405.11	2265.05
405.32	2332.64
405.52	2269.15
405.73	2265.05
405.94	2150.37
406.15	2183.13
406.35	2373.60
406.56	2400.22
406.77	2291.68
406.98	2301.92
407.18	2185.18
407.39	2355.16
407.60	2258.91
407.80	2281.44
408.01	2220.00
408.22	2369.50
408.43	2154.46
408.63	2269.15
408.84	2342.88
409.05	2344.92
409.25	2187.23
409.46	2199.52
409.67	2203.61
409.88	2211.81
410.08	2160.61
410.29	2215.90
410.50	2371.55
410.70	2312.16
410.91	2121.70
411.12	2334.68
411.32	2240.48
411.53	2138.08
411.74	2346.97
411.95	2389.98
412.15	2318.30
412.36	2412.51
412.57	2346.97
412.77	2432.99
412.98	2357.21
413.19	2205.66
413.39	2318.30
413.60	2293.72
413.81	2455.51
414.01	2234.33
414.22	2338.78
414.43	2387.93
414.63	2215.90
414.84	2314.20
415.05	2220.00
415.25	2131.94
415.46	2277.34
415.67	2187.23
415.87	2220.00
416.08	2258.91
416.29	2209.76
416.49	2349.02
416.70	2275.29
416.91	2203.61
417.11	2312.16
417.32	2338.78
417.53	2389.98
417.73	2258.91
417.94	2230.24
418.15	2306.01
418.35	2201.57
418.56	2293.72
418.77	2527.19
418.97	2232.29
419.18	2213.85
419.38	2043.87
419.59	2203.61
419.80	2359.26
420.00	2228.19
420.21	2242.53
420.42	2396.12
420.62	2308.06
420.83	2293.72
421.04	2215.90
421.24	2228.19
421.45	2344.92
421.65	2299.87
421.86	2232.29
422.07	2332.64
422.27	2285.53
422.48	2248.67
422.69	2168.80
422.89	2291.68
423.10	2185.18
423.30	2189.28
423.51	2263.01
423.72	2308.06
423.92	2349.02
424.13	2131.94
424.33	2338.78
424.54	2373.60
424.75	2246.62
424.95	2357.21
425.16	2283.49
425.36	2248.67
425.57	2359.26
425.78	2312.16
425.98	2322.40
426.19	2220.00
426.39	2162.66
426.60	2330.59
426.81	2367.45
427.01	2332.64
427.22	2131.94
427.42	2111.46
427.63	2127.84
427.83	2359.26
428.04	2430.94
428.25	2342.88
428.45	2279.39
428.66	2324.44
428.86	2203.61
429.07	2228.19
429.28	2308.06
429.48	2213.85
429.69	2201.57
429.89	2263.01
430.10	2148.32
430.30	2277.34
430.51	2408.41
430.71	2285.53
430.92	2213.85
431.13	2207.71
431.33	2254.81
431.54	2254.81
431.74	2449.37
431.95	2432.99
432.15	2211.81
432.36	2301.92
432.56	2310.11
432.77	2424.80
432.98	2400.22
433.18	2306.01
433.39	2263.01
433.59	2176.99
433.80	2406.36
434.00	2422.75
434.21	2170.85
434.41	2152.42
434.62	2521.05
434.82	2142.18
435.03	2183.13
435.23	2277.34
435.44	2088.93
435.64	2220.00
435.85	2306.01
436.06	2363.36
436.26	2357.21
436.47	2320.35
436.67	2187.23
436.88	2306.01
437.08	2330.59
437.29	2453.47
437.49	2187.23
437.70	2361.31
437.90	2297.82
438.11	2445.27
438.31	2269.15
438.52	2506.71
438.72	2514.91
438.93	2543.58
439.13	2306.01
439.34	2316.25
439.54	2283.49
439.75	2400.22
439.95	2369.50
440.16	2293.72
440.36	2326.49
440.57	2289.63
440.77	2318.30
440.98	2330.59
441.18	2271.20
441.39	2213.85
441.59	2162.66
441.80	2514.91
442.00	2289.63
442.21	2342.88
442.41	2148.32
442.62	2351.07
442.82	2140.13
443.02	2211.81
443.23	2277.34
443.43	2195.42
443.64	2383.84
443.84	2199.52
444.05	2408.41
444.25	2250.72
444.46	2301.92
444.66	2211.81
444.87	2432.99
445.07	2117.60
445.28	2242.53
445.48	2381.79
445.69	2299.87
445.89	2568.15
446.09	2283.49
446.30	2504.67
446.50	2916.31
446.71	4421.56
446.91	5433.26
447.12	6287.26
447.32	6567.84
447.53	6268.83
447.73	5234.61
447.93	4546.49
448.14	4249.54
448.34	4102.08
448.55	3561.42
448.75	3637.19
448.96	3399.63
449.16	2990.03
449.36	2883.54
449.57	2584.54
449.77	2373.60
449.98	2254.81
450.18	2383.84
450.39	2353.12
450.59	2328.54
450.79	2279.39
451.00	2195.42
451.20	2432.99
451.41	2263.01
451.61	2260.96
451.81	2220.00
452.02	2220.00
452.22	2238.43
452.43	2193.37
452.63	2201.57
452.84	2275.29
453.04	2179.04
453.24	2256.86
453.45	2131.94
453.65	2265.05
453.86	2330.59
454.06	2275.29
454.26	2289.63
454.47	2203.61
454.67	2430.94
454.87	2322.40
455.08	2252.77
455.28	2482.14
455.49	2330.59
455.69	2150.37
455.89	2473.95
456.10	2351.07
456.30	2189.28
456.51	2383.84
456.71	2267.10
456.91	2310.11
457.12	2334.68
457.32	2287.58
457.52	2213.85
457.73	2277.34
457.93	2326.49
458.14	2226.14
458.34	2107.36
458.54	2211.81
458.75	2215.90
458.95	2400.22
459.15	2326.49
459.36	2318.30
459.56	2359.26
459.76	2465.75
459.97	2273.25
460.17	2316.25
460.37	2342.88
460.58	2260.96
460.78	2342.88
460.99	2232.29
461.19	2293.72
461.39	2273.25
461.60	2144.22
461.80	2269.15
462.00	2203.61
462.21	2244.57
462.41	2146.27
462.61	2142.18
462.82	2129.89
463.02	2301.92
463.22	2297.82
463.43	2377.69
463.63	2273.25
463.83	2367.45
464.04	2326.49
464.24	2324.44
464.44	2127.84
464.64	2291.68
464.85	2336.73
465.05	2334.68
465.25	2246.62
465.46	2168.80
465.66	2310.11
465.86	2310.11
466.07	2242.53
466.27	2250.72
466.47	2119.65
466.68	2138.08
466.88	2383.84
467.08	2316.25
467.29	2375.64
467.49	2250.72
467.69	2201.57
467.89	2394.08
468.10	2209.76
468.30	2310.11
468.50	2369.50
468.71	2392.03
468.91	2105.31
469.11	2490.33
469.31	2269.15
469.52	2162.66
469.72	2453.47
469.92	2410.46
470.13	2224.09
470.33	2269.15
470.53	2361.31
470.73	2643.93
470.94	3026.90
471.14	3203.02
471.34	3553.23
471.54	3456.97
471.75	3051.47
471.95	2836.44
472.15	2783.19
472.36	2768.85
472.56	2637.78
472.76	2654.17
472.96	2658.26
473.17	2570.20
473.37	2461.66
473.57	2301.92
473.77	2443.23
473.98	2250.72
474.18	2201.57
474.38	2654.17
474.58	2220.00
474.79	2265.05
474.99	2316.25
475.19	2359.26
475.39	2226.14
475.60	2392.03
475.80	2326.49
476.00	2322.40
476.20	2213.85
476.41	2338.78
476.61	2346.97
476.81	2422.75
477.01	2142.18
477.21	2387.93
477.42	2383.84
477.62	2138.08
477.82	2312.16
478.02	2230.24
478.23	2353.12
478.43	2185.18
478.63	2269.15
478.83	2248.67
479.03	2279.39
479.24	2432.99
479.44	2514.91
479.64	2220.00
479.84	2058.21
480.04	2131.94
480.25	2285.53
480.45	2172.89
480.65	2213.85
480.85	2445.27
481.06	2242.53
481.26	2316.25
481.46	2328.54
481.66	2308.06
481.86	2111.46
482.06	2416.60
482.27	2289.63
482.47	2293.72
482.67	2375.64
482.87	2254.81
483.07	2361.31
483.28	2176.99
483.48	2179.04
483.68	2236.38
483.88	2174.94
484.08	2111.46
484.29	2273.25
484.49	2285.53
484.69	2090.98
484.89	2361.31
485.09	2367.45
485.29	2398.17
485.50	2355.16
485.70	2310.11
485.90	2482.14
486.10	2316.25
486.30	2359.26
486.50	2383.84
486.71	2318.30
486.91	2318.30
487.11	2336.73
487.31	2193.37
487.51	2338.78
487.71	2220.00
487.91	2195.42
488.12	2172.89
488.32	2064.35
488.52	2222.05
488.72	2082.78
488.92	2269.15
489.12	2383.84
489.32	2306.01
489.53	2324.44
489.73	2080.74
489.93	2412.51
490.13	2244.57
490.33	2170.85
490.53	2260.96
490.73	2346.97
490.94	2121.70
491.14	2349.02
491.34	2383.84
491.54	2559.96
491.74	3184.59
491.94	3717.06
492.14	4190.14
492.34	4136.90
492.54	3831.75
492.75	3170.26
492.95	3252.17
493.15	2949.08
493.35	2971.60
493.55	2879.44
493.75	2711.51
493.95	2752.47
494.15	2578.39
494.35	2357.21
494.56	2326.49
494.76	2228.19
494.96	2248.67
495.16	2267.10
495.36	2342.88
495.56	2303.96
495.76	2176.99
495.96	2207.71
496.16	2228.19
496.36	2422.75
496.56	2193.37
496.77	2283.49
496.97	2275.29
497.17	2387.93
497.37	2121.70
497.57	2269.15
497.77	2248.67
497.97	2193.37
498.17	2187.23
498.37	2205.66
498.57	2308.06
498.77	2228.19
498.97	2406.36
499.17	2447.32
499.38	2273.25
499.58	2242.53
499.78	2342.88
499.98	2387.93
500.18	2250.72
500.38	2176.99
500.58	2439.13
500.78	2871.25
500.98	5234.61
501.18	7071.64
501.38	8822.65
501.58	9719.66
501.78	9426.80
501.98	7520.14
502.18	6320.03
502.38	5371.82
502.58	5183.41
502.78	4661.18
502.98	4341.69
503.18	4272.06
503.38	3872.71
503.59	3342.28
503.79	3143.63
503.99	2932.69
504.19	2793.43
504.39	2809.81
504.59	2924.50
504.79	2754.52
504.99	2863.06
505.19	2568.15
505.39	2455.51
505.59	2666.46
505.79	2578.39
505.99	2463.71
506.19	2340.83
506.39	2396.12
506.59	2269.15
506.79	2340.83
506.99	2375.64
507.19	2291.68
507.39	2244.57
507.59	2228.19
507.79	2164.70
507.99	2170.85
508.19	2224.09
508.39	2283.49
508.59	2316.25
508.79	2377.69
508.99	2426.84
509.19	2191.33
509.39	2293.72
509.59	2242.53
509.79	2250.72
509.99	2285.53
510.19	2367.45
510.39	2349.02
510.59	2263.01
510.79	2185.18
510.99	2187.23
511.19	2316.25
511.39	2443.23
511.59	2332.64
511.79	2412.51
511.99	2340.83
512.19	2484.19
512.38	2289.63
512.58	2250.72
512.78	2215.90
512.98	2416.60
513.18	2414.56
513.38	2138.08
513.58	2310.11
513.78	2160.61
513.98	2224.09
514.18	2183.13
514.38	2156.51
514.58	2314.20
514.78	2224.09
514.98	2217.95
515.18	2217.95
515.38	2133.98
515.58	2430.94
515.78	2123.74
515.98	2387.93
516.18	2332.64
516.38	2220.00
516.57	2224.09
516.77	2301.92
516.97	2316.25
517.17	2226.14
517.37	2064.35
517.57	2363.36
517.77	2332.64
517.97	2267.10
518.17	2250.72
518.37	2146.27
518.57	2195.42
518.77	2193.37
518.97	2254.81
519.16	2242.53
519.36	2416.60
519.56	2150.37
519.76	2293.72
519.96	2308.06
520.16	2496.47
520.36	2220.00
520.56	2396.12
520.76	2201.57
520.96	2244.57
521.16	2334.68
521.35	2408.41
521.55	2418.65
521.75	2265.05
521.95	2242.53
522.15	2232.29
522.35	2095.07
522.55	2189.28
522.75	2310.11
522.95	2226.14
523.14	2162.66
523.34	2293.72
523.54	2144.22
523.74	2267.10
523.94	2269.15
524.14	2152.42
524.34	2353.12
524.54	2351.07
524.73	2220.00
524.93	2293.72
525.13	2293.72
525.33	2133.98
525.53	2439.13
525.73	2404.32
525.93	2277.34
526.13	2203.61
526.32	2263.01
526.52	2396.12
526.72	2336.73
526.92	2162.66
527.12	2189.28
527.32	2138.08
527.52	2248.67
527.71	2224.09
527.91	2252.77
528.11	2226.14
528.31	2289.63
528.51	2195.42
528.71	2379.74
528.90	2375.64
529.10	2435.03
529.30	2293.72
529.50	1984.48
529.70	2375.64
529.90	2201.57
530.09	2308.06
530.29	2183.13
530.49	2191.33
530.69	2576.34
530.89	2250.72
531.09	2269.15
531.28	2244.57
531.48	2414.56
531.68	2244.57
531.88	2330.59
532.08	2336.73
532.28	2289.63
532.47	2326.49
532.67	2324.44
532.87	2392.03
533.07	2183.13
533.27	2375.64
533.46	2322.40
533.66	2326.49
533.86	2289.63
534.06	2258.91
534.26	2308.06
534.45	2164.70
534.65	2375.64
534.85	2353.12
535.05	2207.71
535.25	2349.02
535.44	2220.00
535.64	2346.97
535.84	2252.77
536.04	2289.63
536.24	2185.18
536.43	2209.76
536.63	2273.25
536.83	2297.82
537.03	2258.91
537.22	2062.30
537.42	2113.50
537.62	2295.77
537.82	2195.42
538.02	2367.45
538.21	2326.49
538.41	2453.47
538.61	2285.53
538.81	2293.72
539.00	2269.15
539.20	2166.75
539.40	2242.53
539.60	2258.91
539.79	2353.12
539.99	2230.24
540.19	2150.37
540.39	2258.91
540.58	2269.15
540.78	2344.92
540.98	2301.92
541.18	2291.68
541.37	2371.55
541.57	2330.59
541.77	2308.06
541.97	2142.18
542.16	2074.59
542.36	2226.14
542.56	2334.68
542.76	2500.57
542.95	2320.35
543.15	2310.11
543.35	2414.56
543.54	2187.23
543.74	2174.94
543.94	2363.36
544.14	2193.37
544.33	2310.11
544.53	2250.72
544.73	2289.63
544.93	2199.52
545.12	2269.15
545.32	2252.77
545.52	2195.42
545.71	2144.22
545.91	2256.86
546.11	2293.72
546.30	2152.42
546.50	2263.01
546.70	2306.01
546.90	2281.44
547.09	2150.37
547.29	2232.29
547.49	2424.80
547.68	2252.77
547.88	2246.62
548.08	2379.74
548.27	2734.04
548.47	2170.85
548.67	2203.61
548.87	2299.87
549.06	2252.77
549.26	2293.72
549.46	2228.19
549.65	2287.58
549.85	2357.21
550.05	2291.68
550.24	2119.65
550.44	2279.39
550.64	2273.25
550.83	2267.10
551.03	2359.26
551.23	2424.80
551.42	2273.25
551.62	2191.33
551.82	2330.59
552.01	2314.20
552.21	2408.41
552.41	2299.87
552.60	2324.44
552.80	2303.96
553.00	2201.57
553.19	2277.34
553.39	2500.57
553.59	2211.81
553.78	2283.49
553.98	2275.29
554.17	2088.93
554.37	2295.77
554.57	2312.16
554.76	2144.22
554.96	2217.95
555.16	2297.82
555.35	2176.99
555.55	2351.07
555.75	2332.64
555.94	2340.83
556.14	2189.28
556.33	2293.72
556.53	2238.43
556.73	2320.35
556.92	2265.05
557.12	2383.84
557.32	2449.37
557.51	2346.97
557.71	2301.92
557.90	2375.64
558.10	2394.08
558.30	2285.53
558.49	2211.81
558.69	2271.20
558.88	2324.44
559.08	2316.25
559.28	2303.96
559.47	2209.76
559.67	2328.54
559.86	2455.51
560.06	2303.96
560.26	2191.33
560.45	2338.78
560.65	2363.36
560.84	2379.74
561.04	2244.57
561.24	2332.64
561.43	2238.43
561.63	2424.80
561.82	2332.64
562.02	2326.49
562.22	2146.27
562.41	2224.09
562.61	2228.19
562.80	2158.56
563.00	2535.39
563.19	2334.68
563.39	2258.91
563.59	2338.78
563.78	2176.99
563.98	2095.07
564.17	2170.85
564.37	2068.45
564.56	2293.72
564.76	2191.33
564.96	2439.13
565.15	2332.64
565.35	2482.14
565.54	2228.19
565.74	2334.68
565.93	2404.32
566.13	2187.23
566.32	2260.96
566.52	2375.64
566.71	2293.72
566.91	2365.40
567.11	2330.59
567.30	2197.47
567.50	2308.06
567.69	2389.98
567.89	2232.29
568.08	2176.99
568.28	2289.63
568.47	2176.99
568.67	2301.92
568.86	2187.23
569.06	2359.26
569.25	2258.91
569.45	2211.81
569.64	2246.62
569.84	2217.95
570.04	2351.07
570.23	2125.79
570.43	2224.09
570.62	2310.11
570.82	2392.03
571.01	2156.51
571.21	2211.81
571.40	2205.66
571.60	2297.82
571.79	2316.25
571.99	2176.99
572.18	2242.53
572.38	2252.77
572.57	2185.18
572.77	2269.15
572.96	2508.76
573.16	2248.67
573.35	2260.96
573.55	2389.98
573.74	2326.49
573.94	2203.61
574.13	2240.48
574.33	2334.68
574.52	2408.41
574.71	2291.68
574.91	2285.53
575.10	2103.26
575.30	2258.91
575.49	2183.13
575.69	2224.09
575.88	2301.92
576.08	2310.11
576.27	2406.36
576.47	2281.44
576.66	2416.60
576.86	2482.14
577.05	2310.11
577.25	2316.25
577.44	2539.48
577.64	2154.46
577.83	2387.93
578.02	2260.96
578.22	2443.23
578.41	2441.18
578.61	2248.67
578.80	2088.93
579.00	2322.40
579.19	2252.77
579.39	2314.20
579.58	2357.21
579.77	2314.20
579.97	2396.12
580.16	2469.85
580.36	2383.84
580.55	2379.74
580.75	2365.40
580.94	2336.73
581.13	2432.99
581.33	2369.50
581.52	2217.95
581.72	2471.90
581.91	2480.09
582.11	2242.53
582.30	2363.36
582.49	2336.73
582.69	2455.51
582.88	2392.03
583.08	2316.25
583.27	2412.51
583.47	2342.88
583.66	2240.48
583.85	2271.20
584.05	2244.57
584.24	2437.08
584.44	2398.17
584.63	2365.40
584.82	2437.08
585.02	2418.65
585.21	2357.21
585.41	2486.23
585.60	2340.83
585.79	2619.35
585.99	2527.19
586.18	2473.95
586.37	3014.61
586.57	4589.50
586.76	13877.04
586.96	33148.42
587.15	46724.41
587.34	55997.61
587.54	61097.05
587.73	56296.61
587.93	39593.38
588.12	30043.70
588.31	24293.01
588.51	20936.38
588.70	19386.07
588.89	17454.84
589.09	15038.23
589.28	13141.82
589.47	10479.46
589.67	8189.83
589.86	6250.40
590.06	4685.75
590.25	3866.56
590.44	3162.06
590.64	2822.10
590.83	2658.26
591.02	2551.77
591.22	2375.64
591.41	2432.99
591.60	2277.34
591.80	2545.63
591.99	2189.28
592.18	2287.58
592.38	2418.65
592.57	2211.81
592.76	2308.06
592.96	2330.59
593.15	2230.24
593.34	2406.36
593.54	2349.02
593.73	2338.78
593.92	2361.31
594.12	2392.03
594.31	2283.49
594.50	2435.03
594.70	2381.79
594.89	2639.83
595.08	2187.23
595.28	2389.98
595.47	2580.44
595.66	2324.44
595.86	2140.13
596.05	2217.95
596.24	2283.49
596.43	2475.99
596.63	2422.75
596.82	2334.68
597.01	2447.32
597.21	2510.81
597.40	2248.67
597.59	2291.68
597.79	2353.12
597.98	2357.21
598.17	2326.49
598.36	2287.58
598.56	2340.83
598.75	2308.06
598.94	2353.12
599.14	2387.93
599.33	2260.96
599.52	2346.97
599.71	2301.92
599.91	2293.72
600.10	2271.20
600.29	2293.72
600.48	2359.26
600.68	2244.57
600.87	2359.26
601.06	2238.43
601.26	2283.49
601.45	2320.35
601.64	2248.67
601.83	2379.74
602.03	2189.28
602.22	2164.70
602.41	2404.32
602.60	2533.34
602.80	2287.58
602.99	2318.30
603.18	2234.33
603.37	2299.87
603.57	2371.55
603.76	2301.92
603.95	2416.60
604.14	2279.39
604.34	2228.19
604.53	2269.15
604.72	2301.92
604.91	2394.08
605.10	2392.03
605.30	2154.46
605.49	2430.94
605.68	2373.60
605.87	2291.68
606.07	2199.52
606.26	2267.10
606.45	2367.45
606.64	2349.02
606.84	2197.47
607.03	2250.72
607.22	2359.26
607.41	2267.10
607.60	2308.06
607.80	2367.45
607.99	2260.96
608.18	2260.96
608.37	2260.96
608.56	2203.61
608.76	2451.42
608.95	2439.13
609.14	2357.21
609.33	2424.80
609.52	2457.56
609.72	2275.29
609.91	2381.79
610.10	2324.44
610.29	2346.97
610.48	2353.12
610.68	2334.68
610.87	2310.11
611.06	2383.84
611.25	2201.57
611.44	2392.03
611.63	2250.72
611.83	2381.79
612.02	2129.89
612.21	2428.89
612.40	2119.65
612.59	2138.08
612.79	2187.23
612.98	2265.05
613.17	2371.55
613.36	2287.58
613.55	2465.75
613.74	2322.40
613.93	2437.08
614.13	2465.75
614.32	2475.99
614.51	2457.56
614.70	2320.35
614.89	2308.06
615.08	2371.55
615.28	2785.24
615.47	2222.05
615.66	2471.90
615.85	2252.77
616.04	2410.46
616.23	2332.64
616.42	2322.40
616.62	2346.97
616.81	2400.22
617.00	2310.11
617.19	2357.21
617.38	2205.66
617.57	2285.53
617.76	2332.64
617.95	2365.40
618.15	2363.36
618.34	2373.60
618.53	2111.46
618.72	2400.22
618.91	2398.17
619.10	2420.70
619.29	2326.49
619.48	2273.25
619.68	2203.61
619.87	2164.70
620.06	2207.71
620.25	2328.54
620.44	2242.53
620.63	2172.89
620.82	2244.57
621.01	2349.02
621.20	2164.70
621.39	2293.72
621.59	2260.96
621.78	2303.96
621.97	2179.04
622.16	2273.25
622.35	2250.72
622.54	2426.84
622.73	2379.74
622.92	2086.88
623.11	2455.51
623.30	2308.06
623.49	2228.19
623.68	2228.19
623.88	2383.84
624.07	2269.15
624.26	2267.10
624.45	2215.90
624.64	2215.90
624.83	2346.97
625.02	2203.61
625.21	2203.61
625.40	2353.12
625.59	2375.64
625.78	2383.84
625.97	2435.03
626.16	2412.51
626.35	2441.18
626.54	2258.91
626.74	2486.23
626.93	2289.63
627.12	2238.43
627.31	2338.78
627.50	2289.63
627.69	2398.17
627.88	2283.49
628.07	2265.05
628.26	2168.80
628.45	2172.89
628.64	2179.04
628.83	2252.77
629.02	2168.80
629.21	2369.50
629.40	2303.96
629.59	2240.48
629.78	2273.25
629.97	2277.34
630.16	2328.54
630.35	2330.59
630.54	2291.68
630.73	2189.28
630.92	2250.72
631.11	2158.56
631.30	2328.54
631.49	2396.12
631.68	2254.81
631.87	2316.25
632.06	2174.94
632.25	2568.15
632.44	2365.40
632.63	2258.91
632.82	2322.40
633.01	2328.54
633.20	2318.30
633.39	2328.54
633.58	2127.84
633.77	2353.12
633.96	2353.12
634.15	2326.49
634.34	2287.58
634.53	2301.92
634.72	2183.13
634.91	2078.69
635.10	2236.38
635.29	2342.88
635.48	2269.15
635.67	2160.61
635.86	2129.89
636.05	2437.08
636.24	2191.33
636.43	2318.30
636.62	2230.24
636.81	2035.68
637.00	2330.59
637.19	2326.49
637.38	2248.67
637.57	2232.29
637.76	2338.78
637.95	2389.98
638.14	2334.68
638.33	2357.21
638.52	2400.22
638.71	2228.19
638.89	2199.52
639.08	2562.01
639.27	2432.99
639.46	2480.09
639.65	2815.96
639.84	2844.63
640.03	3014.61
640.22	2832.34
640.41	2920.40
640.60	2586.58
640.79	2457.56
640.98	2441.18
641.17	2525.15
641.36	2443.23
641.55	2457.56
641.74	2236.38
641.92	2263.01
642.11	2215.90
642.30	2240.48
642.49	2267.10
642.68	2215.90
642.87	2260.96
643.06	2365.40
643.25	2222.05
643.44	2154.46
643.63	2283.49
643.82	2277.34
644.00	2115.55
644.19	2205.66
644.38	2179.04
644.57	2265.05
644.76	2258.91
644.95	2205.66
645.14	2285.53
645.33	2148.32
645.52	2314.20
645.71	2095.07
645.89	2185.18
646.08	2166.75
646.27	2273.25
646.46	2412.51
646.65	2172.89
646.84	2310.11
647.03	2185.18
647.22	2357.21
647.40	2363.36
647.59	2150.37
647.78	2097.12
647.97	2125.79
648.16	2193.37
648.35	2478.04
648.54	2359.26
648.73	2260.96
648.91	2326.49
649.10	2293.72
649.29	2217.95
649.48	2234.33
649.67	2263.01
649.86	2342.88
650.05	2211.81
650.23	2457.56
650.42	2308.06
650.61	2494.43
650.80	2543.58
650.99	2547.67
651.18	2344.92
651.36	2402.27
651.55	2275.29
651.74	2316.25
651.93	2244.57
652.12	2248.67
652.31	2260.96
652.49	2293.72
652.68	2299.87
652.87	2473.95
653.06	2334.68
653.25	2441.18
653.44	2338.78
653.62	2371.55
653.81	2269.15
654.00	2277.34
654.19	2297.82
654.38	2500.57
654.56	2265.05
654.75	2238.43
654.94	2402.27
655.13	2349.02
655.32	2162.66
655.51	2293.72
655.69	2242.53
655.88	2277.34
656.07	2168.80
656.26	2273.25
656.45	2144.22
656.63	2236.38
656.82	2303.96
657.01	2353.12
657.20	2256.86
657.38	2406.36
657.57	2277.34
657.76	2181.09
657.95	2301.92
658.14	2170.85
658.32	2316.25
658.51	2133.98
658.70	2308.06
658.89	2281.44
659.08	2258.91
659.26	2484.19
659.45	2195.42
659.64	2303.96
659.83	2215.90
660.01	2623.45
660.20	2353.12
660.39	2408.41
660.58	2062.30
660.76	2355.16
660.95	2103.26
661.14	2248.67
661.33	2144.22
661.51	2168.80
661.70	2291.68
661.89	2283.49
662.08	2240.48
662.26	2101.22
662.45	2199.52
662.64	2392.03
662.83	2314.20
663.01	2129.89
663.20	2183.13
663.39	2328.54
663.58	2242.53
663.76	2162.66
663.95	2346.97
664.14	2158.56
664.32	2267.10
664.51	2174.94
664.70	2103.26
664.89	2312.16
665.07	2166.75
665.26	2285.53
665.45	2152.42
665.64	2385.88
665.82	2222.05
666.01	2342.88
666.20	2152.42
666.38	2392.03
666.57	2506.71
666.76	3368.91
666.95	8263.55
667.13	16215.82
667.32	21194.43
667.51	24706.70
667.69	26584.68
667.88	24370.83
668.07	17596.15
668.25	13944.62
668.44	11562.83
668.63	9969.51
668.81	8791.93
669.00	7511.95
669.19	6811.54
669.38	5918.63
669.56	5066.67
669.75	4282.30
669.94	3620.81
670.12	3110.86
670.31	2818.00
670.50	2621.40
670.68	2490.33
670.87	2447.32
671.06	2387.93
671.24	2375.64
671.43	2404.32
671.62	2394.08
671.80	2258.91
671.99	2285.53
672.18	2332.64
672.36	2314.20
672.55	2275.29
672.74	2244.57
672.92	2238.43
673.11	2244.57
673.29	2172.89
673.48	2375.64
673.67	2193.37
673.85	2469.85
674.04	2226.14
674.23	2254.81
674.41	2516.95
674.60	2232.29
674.79	2113.50
674.97	2129.89
675.16	2367.45
675.34	2422.75
675.53	2146.27
675.72	2342.88
675.90	2414.56
676.09	2232.29
676.28	2310.11
676.46	2115.55
676.65	2267.10
676.83	2207.71
677.02	2222.05
677.21	2318.30
677.39	2291.68
677.58	2187.23
677.77	2195.42
677.95	2154.46
678.14	2203.61
678.32	2258.91
678.51	2224.09
678.70	2420.70
678.88	2205.66
679.07	2299.87
679.25	2260.96
679.44	2207.71
679.63	2176.99
679.81	2236.38
680.00	2465.75
680.18	2353.12
680.37	2467.80
680.55	2236.38
680.74	2189.28
680.93	2037.73
681.11	2297.82
681.30	2242.53
681.48	2256.86
681.67	2260.96
681.85	2332.64
682.04	2197.47
682.23	2326.49
682.41	2267.10
682.60	2250.72
682.78	2244.57
682.97	2213.85
683.15	2250.72
683.34	2260.96
683.53	2398.17
683.71	2203.61
683.90	2412.51
684.08	2426.84
684.27	2258.91
684.45	2301.92
684.64	2404.32
684.82	2232.29
685.01	2318.30
685.19	2195.42
685.38	2443.23
685.57	2367.45
685.75	2172.89
685.94	2166.75
686.12	2181.09
686.31	2183.13
686.49	2453.47
686.68	2070.50
686.86	2293.72
687.05	2263.01
687.23	2467.80
687.42	2185.18
687.60	2129.89
687.79	2351.07
687.97	2402.27
688.16	2398.17
688.34	2285.53
688.53	2047.97
688.71	2271.20
688.90	2398.17
689.08	2213.85
689.27	2113.50
689.45	2275.29
689.64	2359.26
689.82	2320.35
690.01	2250.72
690.19	2342.88
690.38	2203.61
690.56	2297.82
690.75	2195.42
690.93	2269.15
691.12	2164.70
691.30	2256.86
691.49	2201.57
691.67	2301.92
691.86	2363.36
692.04	2209.76
692.23	2318.30
692.41	2314.20
692.60	2457.56
692.78	2473.95
692.97	2279.39
693.15	2355.16
693.34	2445.27
693.52	2432.99
693.71	2254.81
693.89	2195.42
694.08	2117.60
694.26	2338.78
694.44	2385.88
694.63	2361.31
694.81	2160.61
695.00	2123.74
695.18	2406.36
695.37	2580.44
695.55	2297.82
695.74	2201.57
695.92	2187.23
696.10	2369.50
696.29	2086.88
696.47	2244.57
696.66	2072.54
696.84	2117.60
697.03	2250.72
697.21	2451.42
697.40	3358.67
697.58	2314.20
697.76	2217.95
697.95	2187.23
698.13	2162.66
698.32	2197.47
698.50	2318.30
698.68	2367.45
698.87	2217.95
699.05	2455.51
699.24	2279.39
699.42	2179.04
699.61	2234.33
699.79	2293.72
699.97	2224.09
700.16	2166.75
700.34	2209.76
700.53	2256.86
700.71	2385.88
700.89	2373.60
701.08	2240.48
701.26	2197.47
701.45	2797.53
701.63	2152.42
701.81	2174.94
702.00	2207.71
702.18	2289.63
702.37	2234.33
702.55	2531.29
702.73	2475.99
702.92	2387.93
703.10	2465.75
703.28	2564.06
703.47	2293.72
703.65	2449.37
703.84	2379.74
704.02	2330.59
704.20	2406.36
704.39	2324.44
704.57	2267.10
704.75	2375.64
704.94	2379.74
705.12	2340.83
705.30	2543.58
705.49	4435.90
705.67	10362.72
705.86	18185.96
706.04	21720.76
706.22	24954.50
706.41	25732.73
706.59	21657.27
706.77	15443.73
706.96	13111.10
707.14	11575.12
707.32	9674.60
707.51	8845.18
707.69	7323.54
707.87	5885.86
708.06	4751.29
708.24	3956.68
708.42	3211.22
708.61	3125.20
708.79	2568.15
708.97	2379.74
709.16	2383.84
709.34	2365.40
709.52	2301.92
709.71	2318.30
709.89	2275.29
710.07	2101.22
710.26	2142.18
710.44	2238.43
710.62	2334.68
710.80	2246.62
710.99	2322.40
711.17	2351.07
711.35	2244.57
711.54	2222.05
711.72	2334.68
711.90	2246.62
712.09	2238.43
712.27	2303.96
712.45	2269.15
712.63	2136.03
712.82	2312.16
713.00	2203.61
713.18	2308.06
713.37	2314.20
713.55	2367.45
713.73	2310.11
713.91	2308.06
714.10	2152.42
714.28	2238.43
714.46	2187.23
714.65	2310.11
714.83	2342.88
715.01	2260.96
715.19	2332.64
715.38	2183.13
715.56	2328.54
715.74	2084.83
715.92	2179.04
716.11	2351.07
716.29	2093.02
716.47	2252.77
716.65	2306.01
716.84	2129.89
717.02	2320.35
717.20	2220.00
717.38	2154.46
717.57	2326.49
717.75	2201.57
717.93	2154.46
718.11	2244.57
718.30	2072.54
718.48	2351.07
718.66	2328.54
718.84	2406.36
719.03	2183.13
719.21	2146.27
719.39	2482.14
719.57	2412.51
719.75	2406.36
719.94	2148.32
720.12	2254.81
720.30	2310.11
720.48	2381.79
720.67	2197.47
720.85	2148.32
721.03	2230.24
721.21	2144.22
721.39	2322.40
721.58	2357.21
721.76	2279.39
721.94	2297.82
722.12	2244.57
722.30	2402.27
722.49	2246.62
722.67	2211.81
722.85	2269.15
723.03	2101.22
723.21	2191.33
723.40	2314.20
723.58	2439.13
723.76	2389.98
723.94	2367.45
724.12	2353.12
724.30	2387.93
724.49	2478.04
724.67	2267.10
724.85	2533.34
725.03	2119.65
725.21	2324.44
725.40	2392.03
725.58	2146.27
725.76	2353.12
725.94	2312.16
726.12	2207.71
726.30	2263.01
726.49	2228.19
726.67	2138.08
726.85	2351.07
727.03	2539.48
727.21	3518.41
727.39	5046.20
727.57	5810.09
727.76	6500.25
727.94	6762.39
728.12	6373.28
728.30	5154.74
728.48	4423.61
728.66	4163.52
728.84	3866.56
729.03	3305.42
729.21	2981.84
729.39	2762.71
729.57	2516.95
729.75	2383.84
729.93	2422.75
730.11	2316.25
730.30	2228.19
730.48	2176.99
730.66	2396.12
730.84	2414.56
731.02	2187.23
731.20	2207.71
731.38	2267.10
731.56	2099.17
731.74	2066.40
731.93	2314.20
732.11	2195.42
732.29	2271.20
732.47	2334.68
732.65	2232.29
732.83	2308.06
733.01	2351.07
733.19	2269.15
733.37	2291.68
733.56	2351.07
733.74	2187.23
733.92	2338.78
734.10	2127.84
734.28	2330.59
734.46	2076.64
734.64	2199.52
734.82	2195.42
735.00	2269.15
735.18	2170.85
735.36	2250.72
735.54	2285.53
735.73	2232.29
735.91	2349.02
736.09	2332.64
736.27	2226.14
736.45	2318.30
736.63	2099.17
736.81	2220.00
736.99	2306.01
737.17	2359.26
737.35	2183.13
737.53	2310.11
737.71	2289.63
737.89	2326.49
738.07	2140.13
738.25	2109.41
738.43	2115.55
738.61	2168.80
738.80	2138.08
738.98	2205.66
739.16	2203.61
739.34	2152.42
739.52	2392.03
739.70	2306.01
739.88	2324.44
740.06	2396.12
740.24	2031.58
740.42	2400.22
740.60	2074.59
740.78	2209.76
740.96	2060.26
741.14	2136.03
741.32	2232.29
741.50	2109.41
741.68	2494.43
741.86	2320.35
742.04	2121.70
742.22	2129.89
742.40	2176.99
742.58	2351.07
742.76	2176.99
742.94	2373.60
743.12	2117.60
743.30	2179.04
743.48	2322.40
743.66	2138.08
743.84	2293.72
744.02	2301.92
744.20	2244.57
744.38	2156.51
744.56	2158.56
744.74	2400.22
744.92	2242.53
745.10	2355.16
745.28	2322.40
745.46	2424.80
745.64	2295.77
745.82	2357.21
746.00	2260.96
746.18	2232.29
746.36	2138.08
746.54	2260.96
746.72	2238.43
746.90	2228.19
747.08	2361.31
747.26	2142.18
747.44	2275.29
747.62	2250.72
747.80	2326.49
747.98	2408.41
748.15	2244.57
748.33	2351.07
748.51	2306.01
748.69	2420.70
748.87	2166.75
749.05	2236.38
749.23	2275.29
749.41	2322.40
749.59	2269.15
749.77	2361.31
749.95	2220.00
750.13	2222.05
750.31	2308.06
750.49	2220.00
750.67	2340.83
750.85	2269.15
751.03	2301.92
751.20	2494.43
751.38	2232.29
751.56	2176.99
751.74	2244.57
751.92	2260.96
752.10	2144.22
752.28	2318.30
752.46	2172.89
752.64	2179.04
752.82	2240.48
753.00	2324.44
753.18	2209.76
753.35	2205.66
753.53	2308.06
753.71	2250.72
753.89	2324.44
754.07	2238.43
754.25	2420.70
754.43	2320.35
754.61	2179.04
754.79	2277.34
754.97	2260.96
755.14	2340.83
755.32	2099.17
755.50	2211.81
755.68	2207.71
755.86	2160.61
756.04	2148.32
756.22	2090.98
756.40	2248.67
756.57	2432.99
756.75	2226.14
756.93	2342.88
757.11	2346.97
757.29	2199.52
757.47	2166.75
757.65	2160.61
757.82	2086.88
758.00	2158.56
758.18	2226.14
758.36	2199.52
758.54	2490.33
758.72	2152.42
758.90	2324.44
759.07	2297.82
759.25	2078.69
759.43	2285.53
759.61	2099.17
759.79	3149.78
759.97	2303.96
760.15	2351.07
760.32	2154.46
760.50	2265.05
760.68	2408.41
760.86	2086.88
761.04	2365.40
761.22	2367.45
761.39	2193.37
761.57	2346.97
761.75	2248.67
761.93	2250.72
762.11	2207.71
762.28	2252.77
762.46	2176.99
762.64	2332.64
762.82	2129.89
763.00	2238.43
763.18	2432.99
763.35	2123.74
763.53	2283.49
763.71	2226.14
763.89	2164.70
764.07	2318.30
764.24	2232.29
764.42	2271.20
764.60	2256.86
764.78	2281.44
764.96	2269.15
765.13	2349.02
765.31	2191.33
765.49	2351.07
765.67	2207.71
765.84	2179.04
766.02	2220.00
766.20	2084.83
766.38	2211.81
766.56	2301.92
766.73	2308.06
766.91	2215.90
767.09	2277.34
767.27	2375.64
767.44	2127.84
767.62	2320.35
767.80	2240.48
767.98	2209.76
768.15	2236.38
768.33	2381.79
768.51	2269.15
768.69	2308.06
768.87	2265.05
769.04	2252.77
769.22	2467.80
769.40	2342.88
769.58	2410.46
769.75	2326.49
769.93	2443.23
770.11	2256.86
770.28	2148.32
770.46	2340.83
770.64	2228.19
770.82	2232.29
770.99	2211.81
771.17	2416.60
771.35	2185.18
771.53	2281.44
771.70	2234.33
771.88	2277.34
772.06	2285.53
772.23	2127.84
772.41	2318.30
772.59	2191.33
772.77	2150.37
772.94	2258.91
773.12	2271.20
773.30	2176.99
773.47	2295.77
773.65	2154.46
773.83	2332.64
774.01	2211.81
774.18	2013.15
774.36	2256.86
774.54	2127.84
774.71	2326.49
774.89	2125.79
775.07	2172.89
775.24	2152.42
775.42	2226.14
775.60	2387.93
775.78	2232.29
775.95	2041.82
776.13	2105.31
776.31	2062.30
776.48	2322.40
776.66	2361.31
776.84	2217.95
777.01	2115.55
777.19	2160.61
777.37	2078.69
777.54	2318.30
777.72	2490.33
777.90	2234.33
778.07	2220.00
778.25	2578.39
778.43	2414.56
778.60	2191.33
778.78	2267.10
778.96	2369.50
779.13	2131.94
779.31	2326.49
779.49	2197.47
779.66	2248.67
779.84	2256.86
780.01	2248.67
780.19	2189.28
780.37	2383.84
780.54	2363.36
780.72	2144.22
780.90	2273.25
781.07	2285.53
781.25	2168.80
781.43	2279.39
781.60	2195.42
781.78	2314.20
781.95	2203.61
782.13	2103.26
782.31	2238.43
782.48	2103.26
782.66	2275.29
782.83	2414.56
783.01	2269.15
783.19	2363.36
783.36	2236.38
783.54	2131.94
783.72	2285.53
783.89	2160.61
784.07	2269.15
784.24	2324.44
784.42	2359.26
784.60	2199.52
784.77	2351.07
784.95	2095.07
785.12	2215.90
785.30	2267.10
785.47	2152.42
785.65	2088.93
785.83	2131.94
786.00	2156.51
786.18	2258.91
786.35	2107.36
786.53	2097.12
786.71	2193.37
786.88	2346.97
787.06	2273.25
787.23	2207.71
787.41	2125.79
787.58	2207.71
787.76	2138.08
787.94	2230.24
788.11	2306.01
788.29	2152.42
788.46	2195.42
788.64	2121.70
788.81	2162.66
788.99	2142.18
789.16	2133.98
789.34	2228.19
789.52	2185.18
789.69	2187.23
789.87	2084.83
790.04	2189.28
790.22	2193.37
790.39	2463.71
790.57	2203.61
790.74	2213.85
790.92	2349.02
791.09	2031.58
791.27	2215.90
791.44	2297.82
791.62	2197.47
791.79	2336.73
791.97	2326.49
792.15	2568.15
792.32	2199.52
792.50	2332.64
792.67	2371.55
792.85	2377.69
793.02	2297.82
793.20	2187.23
793.37	2138.08
793.55	2185.18
793.72	2088.93
793.90	2367.45
794.07	2197.47
794.25	2244.57
794.42	2289.63
794.60	2209.76
794.77	2256.86
794.95	2353.12
795.12	2326.49
795.30	2215.90
795.47	2035.68
795.65	2469.85
795.82	2279.39
796.00	2088.93
796.17	2183.13
796.34	2205.66
796.52	2322.40
796.69	2326.49
796.87	2383.84
797.04	2336.73
797.22	2377.69
797.39	2248.67
797.57	2250.72
797.74	2332.64
797.92	2269.15
798.09	2260.96
798.27	2375.64
798.44	2279.39
798.62	2213.85
798.79	2244.57
798.96	2316.25
799.14	2205.66
799.31	2553.82
799.49	2215.90
799.66	2195.42
799.84	2293.72
800.01	2129.89
800.19	2289.63
800.36	2121.70
800.53	2226.14
800.71	2308.06
800.88	2449.37
801.06	2129.89
801.23	2176.99
801.41	2217.95
801.58	2230.24
801.75	2242.53
801.93	2322.40
802.10	2369.50
802.28	2283.49
802.45	2205.66
802.63	2314.20
802.80	2410.46
802.97	2191.33
803.15	2252.77
803.32	2287.58
803.50	2193.37
803.67	2191.33
803.84	2129.89
804.02	2185.18
804.19	2211.81
804.37	1980.39
804.54	2158.56
804.71	2203.61
804.89	2277.34
805.06	2209.76
805.24	2166.75
805.41	2189.28
805.58	2224.09
805.76	2494.43
805.93	2220.00
806.10	2369.50
806.28	2351.07
806.45	2133.98
806.63	2234.33
806.80	2228.19
806.97	2381.79
807.15	2301.92
807.32	2232.29
807.49	2201.57
807.67	2052.06
807.84	2199.52
808.01	2160.61
808.19	2467.80
808.36	2461.66
808.54	2220.00
808.71	2105.31
808.88	2179.04
809.06	2346.97
809.23	2457.56
809.40	2201.57
809.58	2273.25
809.75	2224.09
809.92	2181.09
810.10	2447.32
810.27	2123.74
810.44	2314.20
810.62	2285.53
810.79	2365.40
810.96	2179.04
811.14	2179.04
811.31	2293.72
811.48	2297.82
811.66	2236.38
811.83	2396.12
812.00	2236.38
812.18	2312.16
812.35	2408.41
812.52	2230.24
812.69	2211.81
812.87	2207.71
813.04	2152.42
813.21	2334.68
813.39	2230.24
813.56	2121.70
813.73	2281.44
813.91	2088.93
814.08	2203.61
814.25	2258.91
814.42	2213.85
814.60	2156.51
814.77	2195.42
814.94	2244.57
815.12	2193.37
815.29	2316.25
815.46	2156.51
815.63	2267.10
815.81	2269.15
815.98	2226.14
816.15	2156.51
816.33	2154.46
816.50	2248.67
816.67	2244.57
816.84	2199.52
817.02	2113.50
817.19	2164.70
817.36	2260.96
817.53	2267.10
817.71	2070.50
817.88	2371.55
818.05	2179.04
818.22	2232.29
818.40	2416.60
818.57	2156.51
818.74	2285.53
818.91	2293.72
819.09	2275.29
819.26	2353.12
819.43	2148.32
819.60	2170.85
819.78	2273.25
819.95	2338.78
820.12	2228.19
820.29	2338.78
820.47	2326.49
820.64	2195.42
820.81	2140.13
820.98	2152.42
821.15	2265.05
821.33	2291.68
821.50	2103.26
821.67	2265.05
821.84	2226.14
822.02	2260.96
822.19	2291.68
822.36	2211.81
822.53	2150.37
822.70	2185.18
822.88	2205.66
823.05	2332.64
823.22	2248.67
823.39	2299.87
823.56	2226.14
823.74	2381.79
823.91	2164.70
824.08	2086.88
824.25	2162.66
824.42	2484.19
824.60	2097.12
824.77	2209.76
824.94	2242.53
825.11	2336.73
825.28	2101.22
825.45	2205.66
825.63	2263.01
825.80	2148.32
825.97	2291.68
826.14	2191.33
826.31	2084.83
826.48	2314.20
826.66	2201.57
826.83	2209.76
827.00	2228.19
827.17	2176.99
827.34	2205.66
827.51	2185.18
827.69	2138.08
827.86	2097.12
828.03	2271.20
828.20	2269.15
828.37	2283.49
828.54	2324.44
828.71	2224.09
828.89	2349.02
829.06	2244.57
829.23	2422.75
829.40	2158.56
829.57	2246.62
829.74	2312.16
829.91	2197.47
830.09	2220.00
830.26	2383.84
830.43	2334.68
830.60	2275.29
830.77	2279.39
830.94	2338.78
831.11	2318.30
831.28	2189.28
831.46	2293.72
831.63	2215.90
831.80	2381.79
831.97	2230.24
832.14	2209.76
832.31	2314.20
832.48	2297.82
832.65	2351.07
832.82	2242.53
832.99	2244.57
833.17	2154.46
833.34	2355.16
833.51	2291.68
833.68	2068.45
833.85	2349.02
834.02	2142.18
834.19	2201.57
834.36	2220.00
834.53	2283.49
834.70	2394.08
834.87	2283.49
835.04	2224.09
835.22	2187.23
835.39	2220.00
835.56	2115.55
835.73	2281.44
835.90	2398.17
836.07	2187.23
836.24	2252.77
836.41	2129.89
836.58	2191.33
836.75	2365.40
836.92	2285.53
837.09	2162.66
837.26	2359.26
837.43	2236.38
837.60	2228.19
837.77	2160.61
837.94	2310.11
838.12	2371.55
838.29	2168.80
838.46	2152.42
838.63	2039.78
838.80	2402.27
838.97	2277.34
839.14	2144.22
839.31	2209.76
839.48	2301.92
839.65	2162.66
839.82	2242.53
839.99	2277.34
840.16	2269.15
840.33	2113.50
840.50	2105.31
840.67	2160.61
840.84	2072.54
841.01	2211.81
841.18	2162.66
841.35	2168.80
841.52	2332.64
841.69	2338.78
841.86	2269.15
842.03	2226.14
842.20	2312.16
842.37	2209.76
842.54	2211.81
842.71	2256.86
842.88	2076.64
843.05	2228.19
843.22	2203.61
843.39	2314.20
843.56	2164.70
843.73	2195.42
843.90	2252.77
844.07	2162.66
844.24	2283.49
844.41	2209.76
844.58	2256.86
844.75	2252.77
844.92	2271.20
845.09	2211.81
845.26	2097.12
845.43	2312.16
845.60	2211.81
845.77	2273.25
845.94	2203.61
846.10	2293.72
846.27	2125.79
846.44	2185.18
846.61	2111.46
846.78	2281.44
846.95	2330.59
847.12	2195.42
847.29	2197.47
847.46	2195.42
847.63	2316.25
847.80	2142.18
847.97	2209.76
848.14	2500.57
848.31	2226.14
848.48	2043.87
848.65	2232.29
848.82	2183.13
848.98	2490.33
849.15	2160.61
849.32	2281.44
849.49	2367.45
849.66	2254.81
849.83	2193.37
850.00	2158.56
850.17	2326.49
850.34	2176.99
850.51	2127.84
850.68	2244.57
850.85	2420.70
851.01	2260.96
851.18	2254.81
851.35	2228.19
851.52	2316.25
851.69	2392.03
851.86	2146.27
852.03	2213.85
852.20	2283.49
852.37	2240.48
852.53	2066.40
852.70	2179.04
852.87	2277.34
853.04	2308.06
853.21	2260.96
853.38	2265.05
853.55	2310.11
853.72	2359.26
853.89	2138.08
854.05	2176.99
854.22	2252.77
854.39	2215.90
854.56	2213.85
854.73	2279.39
854.90	2158.56
855.07	2211.81
855.23	2213.85
855.40	2156.51
855.57	2226.14
855.74	2013.15
855.91	2389.98
856.08	2056.16
856.25	2121.70
856.41	2197.47
856.58	2189.28
856.75	2150.37
856.92	2185.18
857.09	2297.82
857.26	2121.70
857.42	2193.37
857.59	2279.39
857.76	2144.22
857.93	2138.08
858.10	2211.81
858.27	2179.04
858.43	2316.25
858.60	2138.08
858.77	2138.08
858.94	2242.53
859.11	2381.79
859.27	2193.37
859.44	2234.33
859.61	2473.95
859.78	2371.55
859.95	2242.53
860.12	2197.47
860.28	2463.71
860.45	2371.55
860.62	2164.70
860.79	2422.75
860.95	2211.81
861.12	2193.37
861.29	2183.13
861.46	2162.66
861.63	2291.68
861.79	2228.19
861.96	2115.55
862.13	2195.42
862.30	2459.61
862.47	2146.27
862.63	2183.13
862.80	2299.87
862.97	2424.80
863.14	2275.29
863.30	2222.05
863.47	2162.66
863.64	2310.11
863.81	2281.44
863.97	2144.22
864.14	2199.52
864.31	2263.01
864.48	2271.20
864.65	2193.37
864.81	2250.72
864.98	2260.96
865.15	2334.68
865.32	2195.42
865.48	2303.96
865.65	2459.61
865.82	2191.33
865.98	2246.62
866.15	2340.83
866.32	2244.57
866.49	2166.75
866.65	2267.10
866.82	2127.84
866.99	2236.38
867.16	2158.56
867.32	2187.23
867.49	2140.13
867.66	2179.04
867.83	2138.08
867.99	2121.70
868.16	2187.23
868.33	2080.74
868.49	2293.72
868.66	2136.03
868.83	2269.15
868.99	2273.25
869.16	2256.86
869.33	2334.68
869.50	2256.86
869.66	2209.76
869.83	2244.57
870.00	2152.42
870.16	2269.15
870.33	2207.71
870.50	2328.54
870.66	2254.81
870.83	2340.83
871.00	2222.05
871.17	2244.57
871.33	2236.38
871.50	2215.90
871.67	2193.37
871.83	2189.28
872.00	2297.82
872.17	2209.76
872.33	2451.42
872.50	2289.63
872.67	2240.48
872.83	2211.81
873.00	2314.20
873.17	2254.81
873.33	2269.15
873.50	2322.40
873.67	2125.79
873.83	2148.32
874.00	2179.04
874.16	2332.64
874.33	2285.53
874.50	2131.94
874.66	2320.35
874.83	2197.47
875.00	2349.02
875.16	2283.49
875.33	2303.96
875.50	2015.20
875.66	2150.37
875.83	2285.53
875.99	2252.77
876.16	2275.29
876.33	2146.27
876.49	2244.57
876.66	2195.42
876.83	2209.76
876.99	2187.23
877.16	2187.23
877.32	2232.29
877.49	2232.29
877.66	2220.00
877.82	2371.55
877.99	2244.57
878.15	2285.53
878.32	2328.54
878.49	2316.25
878.65	2103.26
878.82	2381.79
878.98	2203.61
879.15	2289.63
879.32	2265.05
879.48	2215.90
879.65	2260.96
879.81	2226.14
879.98	2138.08
880.15	2205.66
880.31	2369.50
880.48	2174.94
880.64	2252.77
880.81	2273.25
880.97	2449.37
881.14	2349.02
881.31	2127.84
881.47	2359.26
881.64	2252.77
881.80	2119.65
881.97	2301.92
882.13	2146.27
882.30	2136.03
882.47	2205.66
882.63	2095.07
882.80	2144.22
882.96	2277.34
883.13	2377.69
883.29	2205.66
883.46	2242.53
883.62	2414.56
883.79	2303.96
883.95	2246.62
884.12	2228.19
884.29	2326.49
884.45	2215.90
884.62	2306.01
884.78	2158.56
884.95	2396.12
885.11	2127.84
885.28	2283.49
885.44	2189.28
885.61	2291.68
885.77	2406.36
885.94	2260.96
886.10	2224.09
886.27	2215.90
886.43	2400.22
886.60	2306.01
886.76	2234.33
886.93	2099.17
887.09	2289.63
887.26	2068.45
887.42	2248.67
887.59	2320.35
887.75	2461.66
887.92	2267.10
888.08	2258.91
888.25	2381.79
888.41	2318.30
888.58	2213.85
888.74	2037.73
888.91	2166.75
>>>>>End Processed Spectral Data<<<<<
