SpectraSuite Data File
++++++++++++++++++++++++++++++++++++
Date: Thu May 05 13:21:01 CEST 2016
User: root
Dark Spectrum Present: No
Reference Spectrum Present: No
Number of Sampled Component Spectra: 1
Spectrometers: USB4C02835
Integration Time (usec): 100000 (USB4C02835)
Spectra Averaged: 1 (USB4C02835)
Boxcar Smoothing: 0 (USB4C02835)
Correct for Electrical Dark: No (USB4C02835)
Strobe/Lamp Enabled: No (USB4C02835)
Correct for Detector Non-linearity: No (USB4C02835)
Correct for Stray Light: No (USB4C02835)
Number of Pixels in Processed Spectrum: 3648
>>>>>Begin Processed Spectral Data<<<<<
177.47	1748.97
177.69	1748.97
177.91	1748.97
178.13	1849.32
178.36	1814.50
178.58	2103.26
178.80	2267.10
179.02	2185.18
179.24	2160.61
179.46	2119.65
179.68	2207.71
179.90	2207.71
180.13	2297.82
180.35	2113.50
180.57	2138.08
180.79	2246.62
181.01	2240.48
181.23	2228.19
181.45	2240.48
181.67	2265.05
181.90	2287.58
182.12	2162.66
182.34	2017.25
182.56	2310.11
182.78	2283.49
183.00	2136.03
183.22	2144.22
183.44	2111.46
183.66	2457.56
183.89	2301.92
184.11	2193.37
184.33	2265.05
184.55	2379.74
184.77	2160.61
184.99	2191.33
185.21	2129.89
185.43	2586.58
185.65	2154.46
185.87	2115.55
186.10	2404.32
186.32	2494.43
186.54	2230.24
186.76	2224.09
186.98	2353.12
187.20	2263.01
187.42	2144.22
187.64	2201.57
187.86	2312.16
188.08	2306.01
188.30	2117.60
188.52	2209.76
188.75	2402.27
188.97	2420.70
189.19	2195.42
189.41	2191.33
189.63	2332.64
189.85	2187.23
190.07	2113.50
190.29	2093.02
190.51	2293.72
190.73	2150.37
190.95	2306.01
191.17	2170.85
191.39	2109.41
191.61	2222.05
191.84	2111.46
192.06	2217.95
192.28	2176.99
192.50	2516.95
192.72	2303.96
192.94	2176.99
193.16	2326.49
193.38	2246.62
193.60	2021.35
193.82	2193.37
194.04	2279.39
194.26	2363.36
194.48	2238.43
194.70	2158.56
194.92	2252.77
195.14	2246.62
195.36	2078.69
195.58	2281.44
195.80	2222.05
196.02	2213.85
196.24	2142.18
196.46	2209.76
196.69	2193.37
196.91	2496.47
197.13	2269.15
197.35	2191.33
197.57	2324.44
197.79	2273.25
198.01	2234.33
198.23	2220.00
198.45	2277.34
198.67	2162.66
198.89	2131.94
199.11	2207.71
199.33	2170.85
199.55	2027.49
199.77	2222.05
199.99	2250.72
200.21	2269.15
200.43	2295.77
200.65	2125.79
200.87	2072.54
201.09	2250.72
201.31	2246.62
201.53	2273.25
201.75	2228.19
201.97	2267.10
202.19	2205.66
202.41	2256.86
202.63	2416.60
202.85	2211.81
203.07	2318.30
203.29	2154.46
203.51	2215.90
203.73	2166.75
203.95	2555.86
204.17	2136.03
204.39	2193.37
204.61	2267.10
204.83	2201.57
205.05	2299.87
205.27	2205.66
205.49	2420.70
205.71	2211.81
205.93	2068.45
206.15	2088.93
206.37	2224.09
206.59	2238.43
206.81	2045.92
207.03	2056.16
207.25	2154.46
207.47	2330.59
207.69	2215.90
207.91	2355.16
208.13	2381.79
208.34	2215.90
208.56	2185.18
208.78	2224.09
209.00	2203.61
209.22	2129.89
209.44	2203.61
209.66	2207.71
209.88	2285.53
210.10	2228.19
210.32	2107.36
210.54	2240.48
210.76	2246.62
210.98	2340.83
211.20	2088.93
211.42	2250.72
211.64	2355.16
211.86	2379.74
212.08	2226.14
212.30	2242.53
212.52	2258.91
212.74	2318.30
212.96	2181.09
213.17	2238.43
213.39	2351.07
213.61	2340.83
213.83	2154.46
214.05	2189.28
214.27	2441.18
214.49	2179.04
214.71	2133.98
214.93	2303.96
215.15	2285.53
215.37	2301.92
215.59	2070.50
215.81	2224.09
216.03	2349.02
216.24	2263.01
216.46	2193.37
216.68	2179.04
216.90	2291.68
217.12	2336.73
217.34	2129.89
217.56	2222.05
217.78	2359.26
218.00	2279.39
218.22	2181.09
218.44	2195.42
218.66	2289.63
218.87	2428.89
219.09	2105.31
219.31	2170.85
219.53	2267.10
219.75	2183.13
219.97	2201.57
220.19	2136.03
220.41	2256.86
220.63	2334.68
220.85	2170.85
221.06	2187.23
221.28	2363.36
221.50	2355.16
221.72	2275.29
221.94	2156.51
222.16	2275.29
222.38	2396.12
222.60	2195.42
222.82	2250.72
223.03	2332.64
223.25	2176.99
223.47	2162.66
223.69	2279.39
223.91	2332.64
224.13	2238.43
224.35	2133.98
224.57	2281.44
224.78	2269.15
225.00	2176.99
225.22	2220.00
225.44	2121.70
225.66	2254.81
225.88	2162.66
226.10	2277.34
226.32	2205.66
226.53	2349.02
226.75	2199.52
226.97	2250.72
227.19	2158.56
227.41	2222.05
227.63	2189.28
227.85	2035.68
228.06	2201.57
228.28	2203.61
228.50	2369.50
228.72	2088.93
228.94	2168.80
229.16	2097.12
229.37	2211.81
229.59	2136.03
229.81	2332.64
230.03	2131.94
230.25	2146.27
230.47	2097.12
230.69	1986.53
230.90	2314.20
231.12	2160.61
231.34	2265.05
231.56	2281.44
231.78	2154.46
232.00	2232.29
232.21	2162.66
232.43	2215.90
232.65	2015.20
232.87	2273.25
233.09	2174.94
233.30	2021.35
233.52	2367.45
233.74	2205.66
233.96	2209.76
234.18	2240.48
234.40	2236.38
234.61	2457.56
234.83	2080.74
235.05	2088.93
235.27	2441.18
235.49	2303.96
235.70	2154.46
235.92	2308.06
236.14	2336.73
236.36	2506.71
236.58	2097.12
236.79	2244.57
237.01	2299.87
237.23	2226.14
237.45	2349.02
237.67	2133.98
237.88	2404.32
238.10	2469.85
238.32	2111.46
238.54	2193.37
238.76	2207.71
238.97	2220.00
239.19	2097.12
239.41	2310.11
239.63	2353.12
239.85	2090.98
240.06	2117.60
240.28	2095.07
240.50	2336.73
240.72	2211.81
240.93	2088.93
241.15	2289.63
241.37	2297.82
241.59	2361.31
241.81	2211.81
242.02	2230.24
242.24	2269.15
242.46	2179.04
242.68	2095.07
242.89	2244.57
243.11	2377.69
243.33	2258.91
243.55	2228.19
243.76	2308.06
243.98	2113.50
244.20	2207.71
244.42	2242.53
244.64	2199.52
244.85	2152.42
245.07	2150.37
245.29	2203.61
245.51	2211.81
245.72	2238.43
245.94	2340.83
246.16	2146.27
246.38	2203.61
246.59	2176.99
246.81	2115.55
247.03	2148.32
247.24	2086.88
247.46	2252.77
247.68	2258.91
247.90	2080.74
248.11	2150.37
248.33	2312.16
248.55	2291.68
248.77	2195.42
248.98	2226.14
249.20	2457.56
249.42	2232.29
249.64	2232.29
249.85	2236.38
250.07	2168.80
250.29	2324.44
250.50	2338.78
250.72	2150.37
250.94	2285.53
251.16	2484.19
251.37	2189.28
251.59	2340.83
251.81	2285.53
252.02	2351.07
252.24	2093.02
252.46	2385.88
252.68	2195.42
252.89	2217.95
253.11	2011.11
253.33	2314.20
253.54	2353.12
253.76	2123.74
253.98	2090.98
254.20	2101.22
254.41	2127.84
254.63	2203.61
254.85	2078.69
255.06	2195.42
255.28	2320.35
255.50	2193.37
255.71	2179.04
255.93	2054.11
256.15	2217.95
256.36	2291.68
256.58	2101.22
256.80	2260.96
257.02	2185.18
257.23	2285.53
257.45	2162.66
257.67	2291.68
257.88	2215.90
258.10	2293.72
258.32	2240.48
258.53	2277.34
258.75	2414.56
258.97	2197.47
259.18	2191.33
259.40	2181.09
259.62	2437.08
259.83	2410.46
260.05	2260.96
260.27	2727.89
260.48	2389.98
260.70	2115.55
260.92	2107.36
261.13	2160.61
261.35	2310.11
261.57	2310.11
261.78	2072.54
262.00	2093.02
262.22	2236.38
262.43	2240.48
262.65	2209.76
262.86	2236.38
263.08	2492.38
263.30	2314.20
263.51	2019.30
263.73	2146.27
263.95	2332.64
264.16	2162.66
264.38	2113.50
264.60	2078.69
264.81	2203.61
265.03	2289.63
265.25	2273.25
265.46	2101.22
265.68	2404.32
265.89	2346.97
266.11	2066.40
266.33	2248.67
266.54	2365.40
266.76	2289.63
266.98	2260.96
267.19	2281.44
267.41	2365.40
267.62	2258.91
267.84	2093.02
268.06	2246.62
268.27	2248.67
268.49	2228.19
268.70	2260.96
268.92	2213.85
269.14	2213.85
269.35	2084.83
269.57	2185.18
269.79	2220.00
270.00	2203.61
270.22	2471.90
270.43	2162.66
270.65	2007.01
270.87	2312.16
271.08	2338.78
271.30	2301.92
271.51	2191.33
271.73	2324.44
271.95	2398.17
272.16	2172.89
272.38	2269.15
272.59	2207.71
272.81	2250.72
273.02	2185.18
273.24	2279.39
273.46	2396.12
273.67	2138.08
273.89	2101.22
274.10	2023.39
274.32	2340.83
274.54	2273.25
274.75	2277.34
274.97	2203.61
275.18	2314.20
275.40	2375.64
275.61	2232.29
275.83	2256.86
276.05	2215.90
276.26	2236.38
276.48	2359.26
276.69	2197.47
276.91	2240.48
277.12	2447.32
277.34	2269.15
277.55	2353.12
277.77	2222.05
277.99	2242.53
278.20	2168.80
278.42	2113.50
278.63	2162.66
278.85	2185.18
279.06	2097.12
279.28	2281.44
279.49	2191.33
279.71	2342.88
279.93	2236.38
280.14	2209.76
280.36	2185.18
280.57	2373.60
280.79	2217.95
281.00	2097.12
281.22	2205.66
281.43	2346.97
281.65	2054.11
281.86	2144.22
282.08	2328.54
282.29	2453.47
282.51	2076.64
282.73	2084.83
282.94	2195.42
283.16	2344.92
283.37	2322.40
283.59	2191.33
283.80	2346.97
284.02	2267.10
284.23	2191.33
284.45	2172.89
284.66	2174.94
284.88	2207.71
285.09	2179.04
285.31	2299.87
285.52	2320.35
285.74	2088.93
285.95	2291.68
286.17	2179.04
286.38	2418.65
286.60	2197.47
286.81	2215.90
287.03	2154.46
287.24	2234.33
287.46	2353.12
287.67	2316.25
287.89	2387.93
288.10	2226.14
288.32	2277.34
288.53	2408.41
288.75	2164.70
288.96	2316.25
289.18	2179.04
289.39	2093.02
289.61	2289.63
289.82	2426.84
290.04	2428.89
290.25	2084.83
290.47	2191.33
290.68	2310.11
290.90	2287.58
291.11	2056.16
291.33	2303.96
291.54	2211.81
291.76	2197.47
291.97	2277.34
292.18	2269.15
292.40	2166.75
292.61	2142.18
292.83	2506.71
293.04	2265.05
293.26	2269.15
293.47	2252.77
293.69	2146.27
293.90	2244.57
294.12	2455.51
294.33	2287.58
294.55	2154.46
294.76	2332.64
294.97	2406.36
295.19	2480.09
295.40	2138.08
295.62	2267.10
295.83	2324.44
296.05	2191.33
296.26	2320.35
296.48	2109.41
296.69	2230.24
296.90	2195.42
297.12	2281.44
297.33	2312.16
297.55	2199.52
297.76	2303.96
297.98	2269.15
298.19	2228.19
298.41	2162.66
298.62	2148.32
298.83	2322.40
299.05	2285.53
299.26	2150.37
299.48	2189.28
299.69	2285.53
299.90	2250.72
300.12	2168.80
300.33	2301.92
300.55	2240.48
300.76	2334.68
300.98	2191.33
301.19	2297.82
301.40	2201.57
301.62	2158.56
301.83	2342.88
302.05	2260.96
302.26	2201.57
302.47	2176.99
302.69	2125.79
302.90	2273.25
303.12	2074.59
303.33	2275.29
303.54	2449.37
303.76	2209.76
303.97	2267.10
304.19	2351.07
304.40	2129.89
304.61	2355.16
304.83	2389.98
305.04	2357.21
305.26	2396.12
305.47	2244.57
305.68	2199.52
305.90	2191.33
306.11	2365.40
306.33	2209.76
306.54	2240.48
306.75	2156.51
306.97	2056.16
307.18	2187.23
307.39	2168.80
307.61	2244.57
307.82	2197.47
308.04	2279.39
308.25	2234.33
308.46	2289.63
308.68	2230.24
308.89	2267.10
309.10	2363.36
309.32	2242.53
309.53	2215.90
309.74	2318.30
309.96	2156.51
310.17	2371.55
310.39	2269.15
310.60	2258.91
310.81	2258.91
311.03	2162.66
311.24	2310.11
311.45	2289.63
311.67	2420.70
311.88	2275.29
312.09	2228.19
312.31	2164.70
312.52	2191.33
312.73	2248.67
312.95	2117.60
313.16	2133.98
313.37	2349.02
313.59	2279.39
313.80	2359.26
314.01	2363.36
314.23	2211.81
314.44	2174.94
314.65	2199.52
314.87	2187.23
315.08	2215.90
315.29	2203.61
315.51	2193.37
315.72	2138.08
315.93	2310.11
316.15	2242.53
316.36	2265.05
316.57	2267.10
316.79	2285.53
317.00	2183.13
317.21	2224.09
317.43	2211.81
317.64	2234.33
317.85	2121.70
318.07	2197.47
318.28	2301.92
318.49	2379.74
318.70	2531.29
318.92	2367.45
319.13	2467.80
319.34	2363.36
319.56	2361.31
319.77	2408.41
319.98	2383.84
320.20	2373.60
320.41	2310.11
320.62	2416.60
320.83	2138.08
321.05	2422.75
321.26	2269.15
321.47	2220.00
321.69	2346.97
321.90	2144.22
322.11	2220.00
322.32	2215.90
322.54	2469.85
322.75	2187.23
322.96	2576.34
323.18	2107.36
323.39	2074.59
323.60	2142.18
323.81	2336.73
324.03	2252.77
324.24	2260.96
324.45	2301.92
324.66	2150.37
324.88	2383.84
325.09	2408.41
325.30	2246.62
325.52	2258.91
325.73	2248.67
325.94	2064.35
326.15	2039.78
326.37	2162.66
326.58	2334.68
326.79	2381.79
327.00	2183.13
327.22	2195.42
327.43	2138.08
327.64	2156.51
327.85	2260.96
328.07	2277.34
328.28	2394.08
328.49	2146.27
328.70	2222.05
328.92	2234.33
329.13	2232.29
329.34	2365.40
329.55	2389.98
329.76	2256.86
329.98	2318.30
330.19	2357.21
330.40	2265.05
330.61	2256.86
330.83	2338.78
331.04	2217.95
331.25	2295.77
331.46	2144.22
331.68	2152.42
331.89	2369.50
332.10	2199.52
332.31	2035.68
332.52	2252.77
332.74	2344.92
332.95	2093.02
333.16	2226.14
333.37	2291.68
333.58	2199.52
333.80	2267.10
334.01	2095.07
334.22	2203.61
334.43	2131.94
334.64	2236.38
334.86	2119.65
335.07	2230.24
335.28	2392.03
335.49	2154.46
335.70	2338.78
335.92	2383.84
336.13	2559.96
336.34	2256.86
336.55	2260.96
336.76	2273.25
336.98	2037.73
337.19	2224.09
337.40	2392.03
337.61	2482.14
337.82	2283.49
338.04	2326.49
338.25	2078.69
338.46	2203.61
338.67	2179.04
338.88	2181.09
339.09	2138.08
339.31	2162.66
339.52	2256.86
339.73	2170.85
339.94	2220.00
340.15	2295.77
340.36	2222.05
340.58	2181.09
340.79	2115.55
341.00	2346.97
341.21	2111.46
341.42	2357.21
341.63	2205.66
341.85	2324.44
342.06	2217.95
342.27	2142.18
342.48	2293.72
342.69	2215.90
342.90	2297.82
343.12	2308.06
343.33	2170.85
343.54	2361.31
343.75	2346.97
343.96	2236.38
344.17	2129.89
344.38	2283.49
344.60	2119.65
344.81	2160.61
345.02	2162.66
345.23	2371.55
345.44	2441.18
345.65	2281.44
345.86	2322.40
346.07	2271.20
346.29	2224.09
346.50	2273.25
346.71	2285.53
346.92	2430.94
347.13	2392.03
347.34	2291.68
347.55	2215.90
347.76	2316.25
347.98	2125.79
348.19	2199.52
348.40	2383.84
348.61	2193.37
348.82	2410.46
349.03	2226.14
349.24	2183.13
349.45	2422.75
349.66	2088.93
349.88	2197.47
350.09	2191.33
350.30	2340.83
350.51	2359.26
350.72	2244.57
350.93	2279.39
351.14	2162.66
351.35	2324.44
351.56	2291.68
351.77	2228.19
351.99	2340.83
352.20	2467.80
352.41	2324.44
352.62	2076.64
352.83	2316.25
353.04	2279.39
353.25	2179.04
353.46	2314.20
353.67	2385.88
353.88	2064.35
354.09	2246.62
354.30	2209.76
354.52	2379.74
354.73	2189.28
354.94	2207.71
355.15	2258.91
355.36	2435.03
355.57	2252.77
355.78	2244.57
355.99	2209.76
356.20	2256.86
356.41	2373.60
356.62	2224.09
356.83	2236.38
357.04	2418.65
357.25	2109.41
357.46	2136.03
357.68	2101.22
357.89	2144.22
358.10	2183.13
358.31	2172.89
358.52	2156.51
358.73	2213.85
358.94	2140.13
359.15	2220.00
359.36	2232.29
359.57	2342.88
359.78	2230.24
359.99	2301.92
360.20	2140.13
360.41	2269.15
360.62	2365.40
360.83	2260.96
361.04	2328.54
361.25	2336.73
361.46	2469.85
361.67	2365.40
361.88	2283.49
362.09	2318.30
362.30	2281.44
362.51	2187.23
362.72	2297.82
362.93	2375.64
363.14	2306.01
363.35	2359.26
363.56	2045.92
363.78	2301.92
363.99	2322.40
364.20	2185.18
364.41	2252.77
364.62	2465.75
364.83	2234.33
365.04	2230.24
365.25	2252.77
365.46	2379.74
365.67	2220.00
365.88	2127.84
366.09	2154.46
366.30	2271.20
366.51	2252.77
366.72	2111.46
366.93	2213.85
367.14	2289.63
367.35	2375.64
367.56	2217.95
367.77	2373.60
367.98	2234.33
368.18	2340.83
368.39	2254.81
368.60	2205.66
368.81	2267.10
369.02	2238.43
369.23	2213.85
369.44	2082.78
369.65	2263.01
369.86	2246.62
370.07	2357.21
370.28	2140.13
370.49	2248.67
370.70	2308.06
370.91	2150.37
371.12	2152.42
371.33	2332.64
371.54	2244.57
371.75	2455.51
371.96	2072.54
372.17	2285.53
372.38	2170.85
372.59	2154.46
372.80	2185.18
373.01	2242.53
373.22	2351.07
373.43	2230.24
373.64	2136.03
373.85	2357.21
374.06	2400.22
374.26	2318.30
374.47	2310.11
374.68	2398.17
374.89	2269.15
375.10	2185.18
375.31	2291.68
375.52	2301.92
375.73	2209.76
375.94	2121.70
376.15	2357.21
376.36	2199.52
376.57	2250.72
376.78	2252.77
376.99	2318.30
377.20	2426.84
377.40	2258.91
377.61	2418.65
377.82	2146.27
378.03	2404.32
378.24	2332.64
378.45	2234.33
378.66	2289.63
378.87	2129.89
379.08	2023.39
379.29	2170.85
379.50	2426.84
379.71	2193.37
379.91	2314.20
380.12	2160.61
380.33	2269.15
380.54	2211.81
380.75	2236.38
380.96	2189.28
381.17	2242.53
381.38	2258.91
381.59	2363.36
381.80	2310.11
382.00	2523.10
382.21	2232.29
382.42	2437.08
382.63	2457.56
382.84	2287.58
383.05	2299.87
383.26	2473.95
383.47	2342.88
383.68	2238.43
383.88	2267.10
384.09	2291.68
384.30	2416.60
384.51	2289.63
384.72	2179.04
384.93	2146.27
385.14	2281.44
385.35	2340.83
385.55	2154.46
385.76	2371.55
385.97	2281.44
386.18	2150.37
386.39	2099.17
386.60	2240.48
386.81	2215.90
387.02	2131.94
387.22	2093.02
387.43	2387.93
387.64	2355.16
387.85	2461.66
388.06	2508.76
388.27	3923.91
388.48	8220.55
388.68	11611.98
388.89	13831.98
389.10	14972.70
389.31	13936.43
389.52	11059.03
389.73	9576.30
389.93	8638.33
390.14	7925.64
390.35	7090.07
390.56	6553.50
390.77	5308.34
390.98	4097.99
391.18	3252.17
391.39	2785.24
391.60	2373.60
391.81	2381.79
392.02	2250.72
392.23	2555.86
392.43	2297.82
392.64	2338.78
392.85	2226.14
393.06	2381.79
393.27	2295.77
393.47	2209.76
393.68	2244.57
393.89	2244.57
394.10	2402.27
394.31	2258.91
394.52	2176.99
394.72	2111.46
394.93	2428.89
395.14	2129.89
395.35	2211.81
395.56	2199.52
395.76	2215.90
395.97	2248.67
396.18	2299.87
396.39	2365.40
396.60	2789.33
396.80	2478.04
397.01	2351.07
397.22	2334.68
397.43	2490.33
397.64	2308.06
397.84	2359.26
398.05	2576.34
398.26	2389.98
398.47	2324.44
398.67	2396.12
398.88	2334.68
399.09	2342.88
399.30	2179.04
399.51	2363.36
399.71	2125.79
399.92	2234.33
400.13	2293.72
400.34	2230.24
400.54	2314.20
400.75	2412.51
400.96	2338.78
401.17	2453.47
401.37	2342.88
401.58	2283.49
401.79	2265.05
402.00	2353.12
402.21	2672.60
402.41	2525.15
402.62	2588.63
402.83	2576.34
403.04	2596.82
403.24	2811.86
403.45	2324.44
403.66	2465.75
403.87	2471.90
404.07	2527.19
404.28	2506.71
404.49	2514.91
404.70	2414.56
404.90	2330.59
405.11	2260.96
405.32	2363.36
405.52	2170.85
405.73	2211.81
405.94	2240.48
406.15	2279.39
406.35	2285.53
406.56	2314.20
406.77	2260.96
406.98	2224.09
407.18	2144.22
407.39	2447.32
407.60	2322.40
407.80	2359.26
408.01	2228.19
408.22	2338.78
408.43	2236.38
408.63	2236.38
408.84	2289.63
409.05	2387.93
409.25	2136.03
409.46	2150.37
409.67	2244.57
409.88	2201.57
410.08	2265.05
410.29	2176.99
410.50	2265.05
410.70	2291.68
410.91	2193.37
411.12	2248.67
411.32	2228.19
411.53	2183.13
411.74	2310.11
411.95	2328.54
412.15	2406.36
412.36	2447.32
412.57	2379.74
412.77	2416.60
412.98	2283.49
413.19	2279.39
413.39	2277.34
413.60	2256.86
413.81	2365.40
414.01	2168.80
414.22	2299.87
414.43	2185.18
414.63	2244.57
414.84	2340.83
415.05	2318.30
415.25	2105.31
415.46	2283.49
415.67	2271.20
415.87	2344.92
416.08	2193.37
416.29	2228.19
416.49	2326.49
416.70	2213.85
416.91	2146.27
417.11	2217.95
417.32	2310.11
417.53	2310.11
417.73	2295.77
417.94	2267.10
418.15	2217.95
418.35	2281.44
418.56	2250.72
418.77	2473.95
418.97	2273.25
419.18	2242.53
419.38	2039.78
419.59	2207.71
419.80	2439.13
420.00	2160.61
420.21	2295.77
420.42	2363.36
420.62	2289.63
420.83	2170.85
421.04	2205.66
421.24	2179.04
421.45	2361.31
421.65	2279.39
421.86	2326.49
422.07	2316.25
422.27	2289.63
422.48	2187.23
422.69	2215.90
422.89	2236.38
423.10	2277.34
423.30	2125.79
423.51	2332.64
423.72	2260.96
423.92	2398.17
424.13	2152.42
424.33	2244.57
424.54	2289.63
424.75	2254.81
424.95	2381.79
425.16	2232.29
425.36	2183.13
425.57	2400.22
425.78	2306.01
425.98	2320.35
426.19	2281.44
426.39	2179.04
426.60	2250.72
426.81	2342.88
427.01	2269.15
427.22	2129.89
427.42	2007.01
427.63	2185.18
427.83	2291.68
428.04	2387.93
428.25	2332.64
428.45	2381.79
428.66	2365.40
428.86	2170.85
429.07	2166.75
429.28	2224.09
429.48	2187.23
429.69	2189.28
429.89	2236.38
430.10	2070.50
430.30	2338.78
430.51	2387.93
430.71	2162.66
430.92	2273.25
431.13	2142.18
431.33	2244.57
431.54	2297.82
431.74	2451.42
431.95	2412.51
432.15	2226.14
432.36	2242.53
432.56	2258.91
432.77	2410.46
432.98	2465.75
433.18	2297.82
433.39	2172.89
433.59	2322.40
433.80	2512.86
434.00	2461.66
434.21	2224.09
434.41	2187.23
434.62	2557.91
434.82	2144.22
435.03	2144.22
435.23	2338.78
435.44	2138.08
435.64	2265.05
435.85	2285.53
436.06	2387.93
436.26	2402.27
436.47	2170.85
436.67	2148.32
436.88	2265.05
437.08	2275.29
437.29	2463.71
437.49	2220.00
437.70	2404.32
437.90	2308.06
438.11	2418.65
438.31	2355.16
438.52	2502.62
438.72	2441.18
438.93	2496.47
439.13	2326.49
439.34	2357.21
439.54	2291.68
439.75	2293.72
439.95	2338.78
440.16	2217.95
440.36	2297.82
440.57	2230.24
440.77	2252.77
440.98	2230.24
441.18	2392.03
441.39	2127.84
441.59	2146.27
441.80	2478.04
442.00	2267.10
442.21	2342.88
442.41	2127.84
442.62	2332.64
442.82	2224.09
443.02	2220.00
443.23	2351.07
443.43	2234.33
443.64	2410.46
443.84	2263.01
444.05	2414.56
444.25	2246.62
444.46	2211.81
444.66	2205.66
444.87	2392.03
445.07	2152.42
445.28	2293.72
445.48	2392.03
445.69	2293.72
445.89	2465.75
446.09	2306.01
446.30	2516.95
446.50	2858.96
446.71	4394.94
446.91	5488.56
447.12	6418.33
447.32	6692.76
447.53	6332.32
447.73	5181.36
447.93	4456.38
448.14	4216.77
448.34	4120.51
448.55	3559.37
448.75	3624.90
448.96	3366.86
449.16	3104.72
449.36	2897.88
449.57	2584.54
449.77	2404.32
449.98	2318.30
450.18	2416.60
450.39	2367.45
450.59	2410.46
450.79	2260.96
451.00	2281.44
451.20	2342.88
451.41	2183.13
451.61	2351.07
451.81	2246.62
452.02	2187.23
452.22	2195.42
452.43	2285.53
452.63	2172.89
452.84	2250.72
453.04	2209.76
453.24	2252.77
453.45	2195.42
453.65	2195.42
453.86	2258.91
454.06	2322.40
454.26	2230.24
454.47	2185.18
454.67	2394.08
454.87	2306.01
455.08	2232.29
455.28	2498.52
455.49	2263.01
455.69	2195.42
455.89	2465.75
456.10	2398.17
456.30	2228.19
456.51	2387.93
456.71	2220.00
456.91	2273.25
457.12	2303.96
457.32	2254.81
457.52	2146.27
457.73	2328.54
457.93	2326.49
458.14	2263.01
458.34	2093.02
458.54	2234.33
458.75	2179.04
458.95	2422.75
459.15	2244.57
459.36	2203.61
459.56	2289.63
459.76	2465.75
459.97	2277.34
460.17	2236.38
460.37	2428.89
460.58	2285.53
460.78	2318.30
460.99	2215.90
461.19	2148.32
461.39	2236.38
461.60	2172.89
461.80	2295.77
462.00	2084.83
462.21	2232.29
462.41	2144.22
462.61	2111.46
462.82	2086.88
463.02	2328.54
463.22	2314.20
463.43	2379.74
463.63	2287.58
463.83	2334.68
464.04	2332.64
464.24	2277.34
464.44	2152.42
464.64	2299.87
464.85	2297.82
465.05	2340.83
465.25	2265.05
465.46	2156.51
465.66	2326.49
465.86	2408.41
466.07	2234.33
466.27	2244.57
466.47	2131.94
466.68	2164.70
466.88	2379.74
467.08	2254.81
467.29	2416.60
467.49	2269.15
467.69	2324.44
467.89	2285.53
468.10	2156.51
468.30	2301.92
468.50	2326.49
468.71	2428.89
468.91	2156.51
469.11	2482.14
469.31	2232.29
469.52	2172.89
469.72	2420.70
469.92	2398.17
470.13	2213.85
470.33	2318.30
470.53	2387.93
470.73	2762.71
470.94	2969.55
471.14	3250.13
471.34	3504.07
471.54	3377.10
471.75	3049.43
471.95	2856.92
472.15	2764.76
472.36	2760.66
472.56	2662.36
472.76	2830.29
472.96	2637.78
473.17	2492.38
473.37	2490.33
473.57	2310.11
473.77	2410.46
473.98	2334.68
474.18	2111.46
474.38	2539.48
474.58	2254.81
474.79	2187.23
474.99	2283.49
475.19	2377.69
475.39	2166.75
475.60	2314.20
475.80	2301.92
476.00	2260.96
476.20	2215.90
476.41	2293.72
476.61	2340.83
476.81	2422.75
477.01	2152.42
477.21	2420.70
477.42	2418.65
477.62	2142.18
477.82	2314.20
478.02	2248.67
478.23	2260.96
478.43	2179.04
478.63	2220.00
478.83	2277.34
479.03	2238.43
479.24	2414.56
479.44	2506.71
479.64	2228.19
479.84	2119.65
480.04	2220.00
480.25	2334.68
480.45	2232.29
480.65	2191.33
480.85	2424.80
481.06	2228.19
481.26	2332.64
481.46	2267.10
481.66	2287.58
481.86	2185.18
482.06	2385.88
482.27	2273.25
482.47	2199.52
482.67	2312.16
482.87	2277.34
483.07	2359.26
483.28	2240.48
483.48	2144.22
483.68	2146.27
483.88	2220.00
484.08	2045.92
484.29	2230.24
484.49	2277.34
484.69	2117.60
484.89	2439.13
485.09	2394.08
485.29	2303.96
485.50	2318.30
485.70	2326.49
485.90	2410.46
486.10	2363.36
486.30	2326.49
486.50	2367.45
486.71	2293.72
486.91	2355.16
487.11	2377.69
487.31	2093.02
487.51	2248.67
487.71	2185.18
487.91	2119.65
488.12	2179.04
488.32	2070.50
488.52	2256.86
488.72	2076.64
488.92	2320.35
489.12	2363.36
489.32	2408.41
489.53	2277.34
489.73	2191.33
489.93	2435.03
490.13	2183.13
490.33	2060.26
490.53	2236.38
490.73	2346.97
490.94	2144.22
491.14	2359.26
491.34	2330.59
491.54	2586.58
491.74	3215.31
491.94	3729.35
492.14	4071.36
492.34	4272.06
492.54	3821.51
492.75	3235.79
492.95	3192.78
493.15	2987.99
493.35	2881.49
493.55	2777.05
493.75	2785.24
493.95	2764.76
494.15	2551.77
494.35	2441.18
494.56	2299.87
494.76	2308.06
494.96	2322.40
495.16	2310.11
495.36	2224.09
495.56	2330.59
495.76	2301.92
495.96	2111.46
496.16	2232.29
496.36	2367.45
496.56	2260.96
496.77	2246.62
496.97	2246.62
497.17	2465.75
497.37	2111.46
497.57	2375.64
497.77	2351.07
497.97	2078.69
498.17	2234.33
498.37	2240.48
498.57	2291.68
498.77	2224.09
498.97	2349.02
499.17	2363.36
499.38	2265.05
499.58	2236.38
499.78	2383.84
499.98	2410.46
500.18	2258.91
500.38	2179.04
500.58	2424.80
500.78	2949.08
500.98	5119.92
501.18	7061.40
501.38	8879.99
501.58	9725.80
501.78	9625.45
501.98	7690.12
502.18	6422.43
502.38	5654.44
502.58	5111.73
502.78	4632.51
502.98	4497.34
503.18	4294.59
503.38	3852.23
503.59	3409.87
503.79	3248.08
503.99	3078.10
504.19	2750.42
504.39	2815.96
504.59	2856.92
504.79	2838.48
504.99	2848.72
505.19	2664.41
505.39	2486.23
505.59	2578.39
505.79	2482.14
505.99	2465.75
506.19	2346.97
506.39	2514.91
506.59	2234.33
506.79	2254.81
506.99	2346.97
507.19	2330.59
507.39	2326.49
507.59	2181.09
507.79	2265.05
507.99	2222.05
508.19	2215.90
508.39	2191.33
508.59	2295.77
508.79	2428.89
508.99	2547.67
509.19	2226.14
509.39	2406.36
509.59	2265.05
509.79	2238.43
509.99	2250.72
510.19	2387.93
510.39	2287.58
510.59	2332.64
510.79	2217.95
510.99	2174.94
511.19	2349.02
511.39	2443.23
511.59	2326.49
511.79	2359.26
511.99	2244.57
512.19	2398.17
512.38	2279.39
512.58	2217.95
512.78	2244.57
512.98	2371.55
513.18	2463.71
513.38	2129.89
513.58	2334.68
513.78	2244.57
513.98	2248.67
514.18	2248.67
514.38	2316.25
514.58	2289.63
514.78	2252.77
514.98	2193.37
515.18	2256.86
515.38	2220.00
515.58	2359.26
515.78	2271.20
515.98	2287.58
516.18	2383.84
516.38	2279.39
516.57	2170.85
516.77	2181.09
516.97	2334.68
517.17	2248.67
517.37	2154.46
517.57	2363.36
517.77	2242.53
517.97	2131.94
518.17	2328.54
518.37	2209.76
518.57	2258.91
518.77	2246.62
518.97	2277.34
519.16	2285.53
519.36	2389.98
519.56	2279.39
519.76	2232.29
519.96	2293.72
520.16	2504.67
520.36	2258.91
520.56	2379.74
520.76	2240.48
520.96	2181.09
521.16	2293.72
521.35	2334.68
521.55	2359.26
521.75	2322.40
521.95	2224.09
522.15	2136.03
522.35	2105.31
522.55	2209.76
522.75	2435.03
522.95	2183.13
523.14	2220.00
523.34	2340.83
523.54	2281.44
523.74	2310.11
523.94	2271.20
524.14	2195.42
524.34	2330.59
524.54	2299.87
524.73	2295.77
524.93	2351.07
525.13	2238.43
525.33	2078.69
525.53	2535.39
525.73	2336.73
525.93	2240.48
526.13	2269.15
526.32	2191.33
526.52	2334.68
526.72	2363.36
526.92	2277.34
527.12	2211.81
527.32	2103.26
527.52	2273.25
527.71	2324.44
527.91	2258.91
528.11	2222.05
528.31	2195.42
528.51	2142.18
528.71	2396.12
528.90	2404.32
529.10	2404.32
529.30	2367.45
529.50	2050.02
529.70	2254.81
529.90	2224.09
530.09	2232.29
530.29	2197.47
530.49	2211.81
530.69	2594.78
530.89	2242.53
531.09	2289.63
531.28	2291.68
531.48	2385.88
531.68	2301.92
531.88	2283.49
532.08	2351.07
532.28	2207.71
532.47	2316.25
532.67	2338.78
532.87	2310.11
533.07	2205.66
533.27	2310.11
533.46	2334.68
533.66	2236.38
533.86	2232.29
534.06	2314.20
534.26	2310.11
534.45	2326.49
534.65	2371.55
534.85	2369.50
535.05	2179.04
535.25	2408.41
535.44	2154.46
535.64	2322.40
535.84	2250.72
536.04	2238.43
536.24	2238.43
536.43	2136.03
536.63	2293.72
536.83	2252.77
537.03	2267.10
537.22	2162.66
537.42	2109.41
537.62	2250.72
537.82	2230.24
538.02	2322.40
538.21	2408.41
538.41	2592.73
538.61	2277.34
538.81	2256.86
539.00	2355.16
539.20	2123.74
539.40	2195.42
539.60	2269.15
539.79	2318.30
539.99	2166.75
540.19	2205.66
540.39	2248.67
540.58	2299.87
540.78	2416.60
540.98	2344.92
541.18	2441.18
541.37	2326.49
541.57	2295.77
541.77	2289.63
541.97	2088.93
542.16	2156.51
542.36	2197.47
542.56	2240.48
542.76	2412.51
542.95	2394.08
543.15	2285.53
543.35	2373.60
543.54	2170.85
543.74	2158.56
543.94	2555.86
544.14	2191.33
544.33	2250.72
544.53	2211.81
544.73	2244.57
544.93	2256.86
545.12	2174.94
545.32	2240.48
545.52	2291.68
545.71	2170.85
545.91	2117.60
546.11	2301.92
546.30	2170.85
546.50	2172.89
546.70	2308.06
546.90	2242.53
547.09	2090.98
547.29	2326.49
547.49	2365.40
547.68	2269.15
547.88	2160.61
548.08	2310.11
548.27	2740.18
548.47	2127.84
548.67	2228.19
548.87	2316.25
549.06	2193.37
549.26	2338.78
549.46	2299.87
549.65	2236.38
549.85	2297.82
550.05	2293.72
550.24	2181.09
550.44	2318.30
550.64	2295.77
550.83	2252.77
551.03	2369.50
551.23	2383.84
551.42	2301.92
551.62	2226.14
551.82	2234.33
552.01	2353.12
552.21	2383.84
552.41	2299.87
552.60	2396.12
552.80	2226.14
553.00	2232.29
553.19	2289.63
553.39	2408.41
553.59	2152.42
553.78	2396.12
553.98	2252.77
554.17	2154.46
554.37	2310.11
554.57	2357.21
554.76	2113.50
554.96	2213.85
555.16	2344.92
555.35	2281.44
555.55	2281.44
555.75	2303.96
555.94	2359.26
556.14	2170.85
556.33	2254.81
556.53	2353.12
556.73	2232.29
556.92	2277.34
557.12	2377.69
557.32	2553.82
557.51	2408.41
557.71	2301.92
557.90	2398.17
558.10	2385.88
558.30	2316.25
558.49	2228.19
558.69	2353.12
558.88	2326.49
559.08	2267.10
559.28	2244.57
559.47	2222.05
559.67	2392.03
559.86	2412.51
560.06	2260.96
560.26	2234.33
560.45	2334.68
560.65	2271.20
560.84	2430.94
561.04	2166.75
561.24	2312.16
561.43	2232.29
561.63	2367.45
561.82	2263.01
562.02	2326.49
562.22	2136.03
562.41	2179.04
562.61	2199.52
562.80	2191.33
563.00	2664.41
563.19	2318.30
563.39	2310.11
563.59	2396.12
563.78	2168.80
563.98	2068.45
564.17	2248.67
564.37	2152.42
564.56	2275.29
564.76	2111.46
564.96	2416.60
565.15	2369.50
565.35	2523.10
565.54	2228.19
565.74	2273.25
565.93	2328.54
566.13	2332.64
566.32	2277.34
566.52	2330.59
566.71	2250.72
566.91	2375.64
567.11	2322.40
567.30	2269.15
567.50	2265.05
567.69	2334.68
567.89	2154.46
568.08	2097.12
568.28	2316.25
568.47	2252.77
568.67	2379.74
568.86	2209.76
569.06	2367.45
569.25	2258.91
569.45	2224.09
569.64	2152.42
569.84	2283.49
570.04	2351.07
570.23	2101.22
570.43	2236.38
570.62	2230.24
570.82	2478.04
571.01	2191.33
571.21	2207.71
571.40	2187.23
571.60	2265.05
571.79	2357.21
571.99	2246.62
572.18	2176.99
572.38	2303.96
572.57	2256.86
572.77	2299.87
572.96	2545.63
573.16	2312.16
573.35	2250.72
573.55	2396.12
573.74	2289.63
573.94	2326.49
574.13	2228.19
574.33	2332.64
574.52	2336.73
574.71	2326.49
574.91	2301.92
575.10	2117.60
575.30	2242.53
575.49	2170.85
575.69	2234.33
575.88	2379.74
576.08	2277.34
576.27	2385.88
576.47	2297.82
576.66	2543.58
576.86	2465.75
577.05	2318.30
577.25	2326.49
577.44	2420.70
577.64	2205.66
577.83	2385.88
578.02	2252.77
578.22	2432.99
578.41	2473.95
578.61	2281.44
578.80	2109.41
579.00	2277.34
579.19	2383.84
579.39	2287.58
579.58	2377.69
579.77	2224.09
579.97	2437.08
580.16	2414.56
580.36	2449.37
580.55	2357.21
580.75	2322.40
580.94	2338.78
581.13	2463.71
581.33	2441.18
581.52	2377.69
581.72	2535.39
581.91	2404.32
582.11	2310.11
582.30	2394.08
582.49	2283.49
582.69	2459.61
582.88	2316.25
583.08	2351.07
583.27	2416.60
583.47	2303.96
583.66	2285.53
583.85	2185.18
584.05	2260.96
584.24	2389.98
584.44	2258.91
584.63	2416.60
584.82	2443.23
585.02	2506.71
585.21	2422.75
585.41	2441.18
585.60	2428.89
585.79	2498.52
585.99	2500.57
586.18	2500.57
586.37	3078.10
586.57	4630.46
586.76	13887.28
586.96	33244.68
587.15	47062.32
587.34	56226.98
587.54	61324.38
587.73	56145.06
587.93	39671.20
588.12	29935.16
588.31	24147.60
588.51	21079.74
588.70	19455.70
588.89	17489.65
589.09	14909.21
589.28	12855.10
589.47	10540.90
589.67	8288.13
589.86	6352.80
590.06	4667.32
590.25	3833.80
590.44	3215.31
590.64	2824.15
590.83	2637.78
591.02	2553.82
591.22	2377.69
591.41	2324.44
591.60	2324.44
591.80	2523.10
591.99	2226.14
592.18	2248.67
592.38	2342.88
592.57	2191.33
592.76	2371.55
592.96	2308.06
593.15	2269.15
593.34	2488.28
593.54	2269.15
593.73	2365.40
593.92	2367.45
594.12	2308.06
594.31	2369.50
594.50	2437.08
594.70	2379.74
594.89	2609.11
595.08	2236.38
595.28	2320.35
595.47	2531.29
595.66	2447.32
595.86	2183.13
596.05	2189.28
596.24	2256.86
596.43	2463.71
596.63	2420.70
596.82	2289.63
597.01	2355.16
597.21	2437.08
597.40	2351.07
597.59	2312.16
597.79	2297.82
597.98	2361.31
598.17	2283.49
598.36	2211.81
598.56	2277.34
598.75	2154.46
598.94	2359.26
599.14	2201.57
599.33	2203.61
599.52	2320.35
599.71	2277.34
599.91	2306.01
600.10	2389.98
600.29	2392.03
600.48	2275.29
600.68	2365.40
600.87	2297.82
601.06	2224.09
601.26	2250.72
601.45	2408.41
601.64	2224.09
601.83	2332.64
602.03	2213.85
602.22	2168.80
602.41	2410.46
602.60	2568.15
602.80	2396.12
602.99	2353.12
603.18	2314.20
603.37	2252.77
603.57	2279.39
603.76	2357.21
603.95	2369.50
604.14	2226.14
604.34	2166.75
604.53	2285.53
604.72	2299.87
604.91	2377.69
605.10	2318.30
605.30	2123.74
605.49	2484.19
605.68	2328.54
605.87	2340.83
606.07	2183.13
606.26	2303.96
606.45	2379.74
606.64	2281.44
606.84	2230.24
607.03	2283.49
607.22	2416.60
607.41	2242.53
607.60	2228.19
607.80	2396.12
607.99	2285.53
608.18	2217.95
608.37	2228.19
608.56	2256.86
608.76	2412.51
608.95	2441.18
609.14	2287.58
609.33	2494.43
609.52	2424.80
609.72	2406.36
609.91	2379.74
610.10	2254.81
610.29	2453.47
610.48	2357.21
610.68	2283.49
610.87	2273.25
611.06	2392.03
611.25	2291.68
611.44	2357.21
611.63	2260.96
611.83	2396.12
612.02	2168.80
612.21	2361.31
612.40	2117.60
612.59	2129.89
612.79	2224.09
612.98	2211.81
613.17	2410.46
613.36	2240.48
613.55	2453.47
613.74	2326.49
613.93	2389.98
614.13	2473.95
614.32	2469.85
614.51	2494.43
614.70	2334.68
614.89	2326.49
615.08	2289.63
615.28	2744.28
615.47	2222.05
615.66	2371.55
615.85	2338.78
616.04	2424.80
616.23	2351.07
616.42	2236.38
616.62	2271.20
616.81	2269.15
617.00	2260.96
617.19	2396.12
617.38	2260.96
617.57	2275.29
617.76	2277.34
617.95	2416.60
618.15	2346.97
618.34	2387.93
618.53	2072.54
618.72	2439.13
618.91	2453.47
619.10	2379.74
619.29	2322.40
619.48	2258.91
619.68	2176.99
619.87	2232.29
620.06	2142.18
620.25	2275.29
620.44	2222.05
620.63	2234.33
620.82	2316.25
621.01	2359.26
621.20	2252.77
621.39	2226.14
621.59	2295.77
621.78	2230.24
621.97	2279.39
622.16	2285.53
622.35	2297.82
622.54	2410.46
622.73	2373.60
622.92	2156.51
623.11	2355.16
623.30	2260.96
623.49	2334.68
623.68	2179.04
623.88	2424.80
624.07	2252.77
624.26	2269.15
624.45	2312.16
624.64	2258.91
624.83	2310.11
625.02	2306.01
625.21	2252.77
625.40	2277.34
625.59	2363.36
625.78	2234.33
625.97	2346.97
626.16	2430.94
626.35	2422.75
626.54	2365.40
626.74	2531.29
626.93	2375.64
627.12	2193.37
627.31	2373.60
627.50	2371.55
627.69	2400.22
627.88	2265.05
628.07	2244.57
628.26	2179.04
628.45	2252.77
628.64	2316.25
628.83	2220.00
629.02	2138.08
629.21	2344.92
629.40	2275.29
629.59	2246.62
629.78	2236.38
629.97	2260.96
630.16	2338.78
630.35	2277.34
630.54	2318.30
630.73	2205.66
630.92	2281.44
631.11	2213.85
631.30	2303.96
631.49	2410.46
631.68	2297.82
631.87	2232.29
632.06	2199.52
632.25	2539.48
632.44	2301.92
632.63	2344.92
632.82	2349.02
633.01	2226.14
633.20	2416.60
633.39	2250.72
633.58	2166.75
633.77	2373.60
633.96	2330.59
634.15	2342.88
634.34	2293.72
634.53	2318.30
634.72	2273.25
634.91	2099.17
635.10	2330.59
635.29	2299.87
635.48	2312.16
635.67	2226.14
635.86	2181.09
636.05	2416.60
636.24	2217.95
636.43	2318.30
636.62	2312.16
636.81	2031.58
637.00	2267.10
637.19	2271.20
637.38	2220.00
637.57	2291.68
637.76	2334.68
637.95	2418.65
638.14	2209.76
638.33	2293.72
638.52	2316.25
638.71	2205.66
638.89	2197.47
639.08	2541.53
639.27	2359.26
639.46	2488.28
639.65	2809.81
639.84	2879.44
640.03	3084.24
640.22	2961.36
640.41	2848.72
640.60	2443.23
640.79	2555.86
640.98	2512.86
641.17	2478.04
641.36	2488.28
641.55	2424.80
641.74	2299.87
641.92	2267.10
642.11	2191.33
642.30	2271.20
642.49	2256.86
642.68	2211.81
642.87	2310.11
643.06	2336.73
643.25	2129.89
643.44	2281.44
643.63	2275.29
643.82	2416.60
644.00	2168.80
644.19	2287.58
644.38	2176.99
644.57	2349.02
644.76	2230.24
644.95	2289.63
645.14	2222.05
645.33	2232.29
645.52	2209.76
645.71	2101.22
645.89	2162.66
646.08	2220.00
646.27	2226.14
646.46	2422.75
646.65	2125.79
646.84	2263.01
647.03	2138.08
647.22	2342.88
647.40	2252.77
647.59	2287.58
647.78	2093.02
647.97	2146.27
648.16	2279.39
648.35	2392.03
648.54	2428.89
648.73	2224.09
648.91	2357.21
649.10	2250.72
649.29	2179.04
649.48	2263.01
649.67	2363.36
649.86	2236.38
650.05	2273.25
650.23	2490.33
650.42	2328.54
650.61	2439.13
650.80	2416.60
650.99	2516.95
651.18	2467.80
651.36	2414.56
651.55	2283.49
651.74	2306.01
651.93	2185.18
652.12	2263.01
652.31	2244.57
652.49	2349.02
652.68	2224.09
652.87	2408.41
653.06	2285.53
653.25	2422.75
653.44	2291.68
653.62	2447.32
653.81	2228.19
654.00	2252.77
654.19	2310.11
654.38	2478.04
654.56	2269.15
654.75	2252.77
654.94	2314.20
655.13	2267.10
655.32	2269.15
655.51	2299.87
655.69	2193.37
655.88	2293.72
656.07	2146.27
656.26	2254.81
656.45	2027.49
656.63	2316.25
656.82	2234.33
657.01	2359.26
657.20	2144.22
657.38	2349.02
657.57	2205.66
657.76	2105.31
657.95	2316.25
658.14	2154.46
658.32	2291.68
658.51	2103.26
658.70	2301.92
658.89	2277.34
659.08	2326.49
659.26	2353.12
659.45	2242.53
659.64	2398.17
659.83	2187.23
660.01	2572.25
660.20	2369.50
660.39	2457.56
660.58	2138.08
660.76	2308.06
660.95	2187.23
661.14	2269.15
661.33	2080.74
661.51	2209.76
661.70	2193.37
661.89	2310.11
662.08	2273.25
662.26	2160.61
662.45	2127.84
662.64	2488.28
662.83	2275.29
663.01	2127.84
663.20	2179.04
663.39	2408.41
663.58	2152.42
663.76	2199.52
663.95	2324.44
664.14	2244.57
664.32	2187.23
664.51	2168.80
664.70	2109.41
664.89	2289.63
665.07	2095.07
665.26	2371.55
665.45	2093.02
665.64	2308.06
665.82	2248.67
666.01	2306.01
666.20	2138.08
666.38	2404.32
666.57	2392.03
666.76	3383.24
666.95	8167.30
667.13	16162.57
667.32	21393.08
667.51	24979.07
667.69	26484.33
667.88	24534.67
668.07	17149.69
668.25	13715.25
668.44	11560.78
668.63	9994.09
668.81	8765.31
669.00	7614.35
669.19	6825.88
669.38	6006.69
669.56	5207.98
669.75	4304.83
669.94	3674.06
670.12	3106.77
670.31	2818.00
670.50	2680.79
670.68	2490.33
670.87	2402.27
671.06	2351.07
671.24	2381.79
671.43	2529.24
671.62	2371.55
671.80	2326.49
671.99	2312.16
672.18	2324.44
672.36	2367.45
672.55	2332.64
672.74	2281.44
672.92	2193.37
673.11	2355.16
673.29	2154.46
673.48	2342.88
673.67	2236.38
673.85	2299.87
674.04	2238.43
674.23	2242.53
674.41	2394.08
674.60	2179.04
674.79	2166.75
674.97	2232.29
675.16	2316.25
675.34	2351.07
675.53	2207.71
675.72	2236.38
675.90	2432.99
676.09	2199.52
676.28	2215.90
676.46	2154.46
676.65	2385.88
676.83	2152.42
677.02	2289.63
677.21	2232.29
677.39	2244.57
677.58	2193.37
677.77	2211.81
677.95	2215.90
678.14	2234.33
678.32	2226.14
678.51	2236.38
678.70	2463.71
678.88	2234.33
679.07	2269.15
679.25	2232.29
679.44	2234.33
679.63	2197.47
679.81	2226.14
680.00	2363.36
680.18	2346.97
680.37	2416.60
680.55	2316.25
680.74	2197.47
680.93	2097.12
681.11	2244.57
681.30	2318.30
681.48	2228.19
681.67	2179.04
681.85	2205.66
682.04	2156.51
682.23	2334.68
682.41	2312.16
682.60	2152.42
682.78	2203.61
682.97	2187.23
683.15	2332.64
683.34	2308.06
683.53	2375.64
683.71	2072.54
683.90	2332.64
684.08	2437.08
684.27	2271.20
684.45	2244.57
684.64	2398.17
684.82	2228.19
685.01	2326.49
685.19	2297.82
685.38	2469.85
685.57	2269.15
685.75	2201.57
685.94	2201.57
686.12	2117.60
686.31	2189.28
686.49	2445.27
686.68	2062.30
686.86	2287.58
687.05	2230.24
687.23	2398.17
687.42	2220.00
687.60	2109.41
687.79	2334.68
687.97	2441.18
688.16	2301.92
688.34	2336.73
688.53	2072.54
688.71	2324.44
688.90	2418.65
689.08	2232.29
689.27	2068.45
689.45	2383.84
689.64	2379.74
689.82	2260.96
690.01	2330.59
690.19	2260.96
690.38	2303.96
690.56	2371.55
690.75	2172.89
690.93	2220.00
691.12	2183.13
691.30	2324.44
691.49	2209.76
691.67	2314.20
691.86	2404.32
692.04	2162.66
692.23	2217.95
692.41	2334.68
692.60	2459.61
692.78	2424.80
692.97	2353.12
693.15	2363.36
693.34	2484.19
693.52	2396.12
693.71	2273.25
693.89	2222.05
694.08	2060.26
694.26	2293.72
694.44	2328.54
694.63	2387.93
694.81	2174.94
695.00	2228.19
695.18	2455.51
695.37	2498.52
695.55	2242.53
695.74	2289.63
695.92	2158.56
696.10	2398.17
696.29	2164.70
696.47	2240.48
696.66	2086.88
696.84	2168.80
697.03	2289.63
697.21	2457.56
697.40	3248.08
697.58	2375.64
697.76	2207.71
697.95	2230.24
698.13	2179.04
698.32	2176.99
698.50	2246.62
698.68	2287.58
698.87	2326.49
699.05	2461.66
699.24	2242.53
699.42	2150.37
699.61	2267.10
699.79	2267.10
699.97	2281.44
700.16	2113.50
700.34	2119.65
700.53	2308.06
700.71	2416.60
700.89	2306.01
701.08	2176.99
701.26	2250.72
701.45	2818.00
701.63	2138.08
701.81	2197.47
702.00	2254.81
702.18	2183.13
702.37	2230.24
702.55	2480.09
702.73	2422.75
702.92	2359.26
703.10	2568.15
703.28	2465.75
703.47	2344.92
703.65	2535.39
703.84	2389.98
704.02	2373.60
704.20	2480.09
704.39	2234.33
704.57	2244.57
704.75	2367.45
704.94	2334.68
705.12	2236.38
705.30	2590.68
705.49	4577.21
705.67	10641.25
705.86	18126.57
706.04	22101.68
706.22	24823.43
706.41	25923.19
706.59	22034.10
706.77	15712.02
706.96	13074.23
707.14	11700.05
707.32	9998.18
707.51	8974.20
707.69	7430.03
707.87	5861.29
708.06	4839.35
708.24	3999.68
708.42	3203.02
708.61	3057.62
708.79	2465.75
708.97	2426.84
709.16	2357.21
709.34	2314.20
709.52	2228.19
709.71	2308.06
709.89	2306.01
710.07	2164.70
710.26	2250.72
710.44	2240.48
710.62	2373.60
710.80	2248.67
710.99	2295.77
711.17	2344.92
711.35	2240.48
711.54	2187.23
711.72	2291.68
711.90	2365.40
712.09	2254.81
712.27	2189.28
712.45	2273.25
712.63	2209.76
712.82	2275.29
713.00	2172.89
713.18	2277.34
713.37	2355.16
713.55	2422.75
713.73	2301.92
713.91	2363.36
714.10	2246.62
714.28	2275.29
714.46	2267.10
714.65	2281.44
714.83	2256.86
715.01	2295.77
715.19	2338.78
715.38	2170.85
715.56	2301.92
715.74	2148.32
715.92	2123.74
716.11	2404.32
716.29	2133.98
716.47	2203.61
716.65	2183.13
716.84	2111.46
717.02	2412.51
717.20	2125.79
717.38	2174.94
717.57	2242.53
717.75	2252.77
717.93	2256.86
718.11	2299.87
718.30	2127.84
718.48	2330.59
718.66	2377.69
718.84	2330.59
719.03	2228.19
719.21	2179.04
719.39	2461.66
719.57	2281.44
719.75	2367.45
719.94	2138.08
720.12	2234.33
720.30	2297.82
720.48	2334.68
720.67	2269.15
720.85	2176.99
721.03	2187.23
721.21	2199.52
721.39	2301.92
721.58	2326.49
721.76	2260.96
721.94	2232.29
722.12	2312.16
722.30	2445.27
722.49	2293.72
722.67	2244.57
722.85	2226.14
723.03	2125.79
723.21	2285.53
723.40	2299.87
723.58	2328.54
723.76	2252.77
723.94	2394.08
724.12	2336.73
724.30	2514.91
724.49	2379.74
724.67	2166.75
724.85	2400.22
725.03	2105.31
725.21	2406.36
725.40	2367.45
725.58	2209.76
725.76	2322.40
725.94	2283.49
726.12	2181.09
726.30	2183.13
726.49	2256.86
726.67	2195.42
726.85	2240.48
727.03	2502.62
727.21	3526.60
727.39	5001.14
727.57	5969.83
727.76	6324.13
727.94	6819.74
728.12	6281.12
728.30	5150.64
728.48	4571.07
728.66	4102.08
728.84	3739.59
729.03	3315.66
729.21	3030.99
729.39	2627.54
729.57	2523.10
729.75	2408.41
729.93	2416.60
730.11	2301.92
730.30	2211.81
730.48	2250.72
730.66	2459.61
730.84	2357.21
731.02	2295.77
731.20	2195.42
731.38	2316.25
731.56	2179.04
731.74	2105.31
731.93	2322.40
732.11	2351.07
732.29	2281.44
732.47	2383.84
732.65	2191.33
732.83	2373.60
733.01	2324.44
733.19	2129.89
733.37	2312.16
733.56	2252.77
733.74	2232.29
733.92	2326.49
734.10	2207.71
734.28	2252.77
734.46	2070.50
734.64	2283.49
734.82	2267.10
735.00	2217.95
735.18	2207.71
735.36	2203.61
735.54	2299.87
735.73	2226.14
735.91	2248.67
736.09	2303.96
736.27	2260.96
736.45	2328.54
736.63	2107.36
736.81	2217.95
736.99	2351.07
737.17	2435.03
737.35	2224.09
737.53	2203.61
737.71	2250.72
737.89	2281.44
738.07	2187.23
738.25	2152.42
738.43	2144.22
738.61	2248.67
738.80	2158.56
738.98	2154.46
739.16	2228.19
739.34	2176.99
739.52	2312.16
739.70	2242.53
739.88	2318.30
740.06	2381.79
740.24	2121.70
740.42	2334.68
740.60	2127.84
740.78	2236.38
740.96	2066.40
741.14	2179.04
741.32	2211.81
741.50	2121.70
741.68	2432.99
741.86	2326.49
742.04	2176.99
742.22	2185.18
742.40	2236.38
742.58	2357.21
742.76	2150.37
742.94	2392.03
743.12	2062.30
743.30	2220.00
743.48	2312.16
743.66	2193.37
743.84	2254.81
744.02	2242.53
744.20	2289.63
744.38	2156.51
744.56	2187.23
744.74	2389.98
744.92	2383.84
745.10	2406.36
745.28	2265.05
745.46	2359.26
745.64	2232.29
745.82	2301.92
746.00	2318.30
746.18	2287.58
746.36	2164.70
746.54	2281.44
746.72	2211.81
746.90	2222.05
747.08	2389.98
747.26	2250.72
747.44	2303.96
747.62	2299.87
747.80	2246.62
747.98	2230.24
748.15	2176.99
748.33	2359.26
748.51	2324.44
748.69	2351.07
748.87	2162.66
749.05	2263.01
749.23	2232.29
749.41	2303.96
749.59	2295.77
749.77	2217.95
749.95	2201.57
750.13	2183.13
750.31	2281.44
750.49	2279.39
750.67	2285.53
750.85	2342.88
751.03	2291.68
751.20	2445.27
751.38	2236.38
751.56	2183.13
751.74	2211.81
751.92	2299.87
752.10	2185.18
752.28	2412.51
752.46	2211.81
752.64	2176.99
752.82	2269.15
753.00	2406.36
753.18	2248.67
753.35	2295.77
753.53	2279.39
753.71	2203.61
753.89	2318.30
754.07	2256.86
754.25	2361.31
754.43	2289.63
754.61	2191.33
754.79	2224.09
754.97	2224.09
755.14	2338.78
755.32	2148.32
755.50	2334.68
755.68	2203.61
755.86	2191.33
756.04	2211.81
756.22	2054.11
756.40	2357.21
756.57	2471.90
756.75	2187.23
756.93	2322.40
757.11	2287.58
757.29	2158.56
757.47	2207.71
757.65	2113.50
757.82	2037.73
758.00	2090.98
758.18	2236.38
758.36	2226.14
758.54	2365.40
758.72	2131.94
758.90	2367.45
759.07	2269.15
759.25	2203.61
759.43	2301.92
759.61	2181.09
759.79	3149.78
759.97	2275.29
760.15	2215.90
760.32	2222.05
760.50	2306.01
760.68	2387.93
760.86	2156.51
761.04	2396.12
761.22	2367.45
761.39	2185.18
761.57	2320.35
761.75	2273.25
761.93	2334.68
762.11	2179.04
762.28	2236.38
762.46	2183.13
762.64	2373.60
762.82	2125.79
763.00	2248.67
763.18	2334.68
763.35	2187.23
763.53	2322.40
763.71	2263.01
763.89	2250.72
764.07	2248.67
764.24	2289.63
764.42	2320.35
764.60	2187.23
764.78	2326.49
764.96	2308.06
765.13	2328.54
765.31	2240.48
765.49	2228.19
765.67	2179.04
765.84	2181.09
766.02	2176.99
766.20	2080.74
766.38	2308.06
766.56	2269.15
766.73	2312.16
766.91	2258.91
767.09	2250.72
767.27	2349.02
767.44	2170.85
767.62	2349.02
767.80	2279.39
767.98	2297.82
768.15	2187.23
768.33	2363.36
768.51	2318.30
768.69	2336.73
768.87	2328.54
769.04	2250.72
769.22	2508.76
769.40	2420.70
769.58	2381.79
769.75	2328.54
769.93	2377.69
770.11	2176.99
770.28	2111.46
770.46	2340.83
770.64	2220.00
770.82	2213.85
770.99	2256.86
771.17	2240.48
771.35	2213.85
771.53	2242.53
771.70	2324.44
771.88	2367.45
772.06	2258.91
772.23	2185.18
772.41	2299.87
772.59	2228.19
772.77	2195.42
772.94	2232.29
773.12	2285.53
773.30	2236.38
773.47	2330.59
773.65	2125.79
773.83	2394.08
774.01	2244.57
774.18	2121.70
774.36	2236.38
774.54	2136.03
774.71	2351.07
774.89	2113.50
775.07	2133.98
775.24	2211.81
775.42	2215.90
775.60	2422.75
775.78	2179.04
775.95	2142.18
776.13	2125.79
776.31	2095.07
776.48	2273.25
776.66	2355.16
776.84	2201.57
777.01	2154.46
777.19	2195.42
777.37	2242.53
777.54	2258.91
777.72	2414.56
777.90	2289.63
778.07	2125.79
778.25	2582.49
778.43	2346.97
778.60	2129.89
778.78	2361.31
778.96	2365.40
779.13	2090.98
779.31	2367.45
779.49	2156.51
779.66	2271.20
779.84	2269.15
780.01	2185.18
780.19	2146.27
780.37	2394.08
780.54	2310.11
780.72	2154.46
780.90	2201.57
781.07	2250.72
781.25	2136.03
781.43	2346.97
781.60	2215.90
781.78	2363.36
781.95	2314.20
782.13	2107.36
782.31	2207.71
782.48	2088.93
782.66	2226.14
782.83	2394.08
783.01	2310.11
783.19	2441.18
783.36	2158.56
783.54	2154.46
783.72	2316.25
783.89	2265.05
784.07	2310.11
784.24	2256.86
784.42	2426.84
784.60	2263.01
784.77	2277.34
784.95	2105.31
785.12	2203.61
785.30	2240.48
785.47	2146.27
785.65	2103.26
785.83	2211.81
786.00	2174.94
786.18	2205.66
786.35	2211.81
786.53	2168.80
786.71	2330.59
786.88	2344.92
787.06	2316.25
787.23	2250.72
787.41	2136.03
787.58	2166.75
787.76	2146.27
787.94	2220.00
788.11	2291.68
788.29	2156.51
788.46	2172.89
788.64	2191.33
788.81	2195.42
788.99	2183.13
789.16	2242.53
789.34	2314.20
789.52	2174.94
789.69	2228.19
789.87	2072.54
790.04	2176.99
790.22	2236.38
790.39	2400.22
790.57	2127.84
790.74	2154.46
790.92	2342.88
791.09	2078.69
791.27	2234.33
791.44	2326.49
791.62	2244.57
791.79	2361.31
791.97	2312.16
792.15	2539.48
792.32	2342.88
792.50	2367.45
792.67	2385.88
792.85	2394.08
793.02	2138.08
793.20	2205.66
793.37	2160.61
793.55	2232.29
793.72	2062.30
793.90	2273.25
794.07	2187.23
794.25	2144.22
794.42	2295.77
794.60	2205.66
794.77	2269.15
794.95	2344.92
795.12	2310.11
795.30	2156.51
795.47	2078.69
795.65	2529.24
795.82	2285.53
796.00	2191.33
796.17	2203.61
796.34	2166.75
796.52	2254.81
796.69	2308.06
796.87	2283.49
797.04	2324.44
797.22	2353.12
797.39	2297.82
797.57	2291.68
797.74	2205.66
797.92	2314.20
798.09	2244.57
798.27	2394.08
798.44	2213.85
798.62	2174.94
798.79	2277.34
798.96	2295.77
799.14	2146.27
799.31	2531.29
799.49	2213.85
799.66	2203.61
799.84	2236.38
800.01	2127.84
800.19	2312.16
800.36	2076.64
800.53	2299.87
800.71	2263.01
800.88	2414.56
801.06	2174.94
801.23	2191.33
801.41	2211.81
801.58	2195.42
801.75	2205.66
801.93	2314.20
802.10	2310.11
802.28	2252.77
802.45	2181.09
802.63	2256.86
802.80	2406.36
802.97	2244.57
803.15	2168.80
803.32	2240.48
803.50	2127.84
803.67	2176.99
803.84	2107.36
804.02	2246.62
804.19	2228.19
804.37	2043.87
804.54	2105.31
804.71	2207.71
804.89	2295.77
805.06	2179.04
805.24	2113.50
805.41	2144.22
805.58	2150.37
805.76	2439.13
805.93	2275.29
806.10	2355.16
806.28	2340.83
806.45	2269.15
806.63	2242.53
806.80	2318.30
806.97	2217.95
807.15	2234.33
807.32	2322.40
807.49	2183.13
807.67	2144.22
807.84	2256.86
808.01	2121.70
808.19	2367.45
808.36	2547.67
808.54	2170.85
808.71	2154.46
808.88	2256.86
809.06	2371.55
809.23	2416.60
809.40	2179.04
809.58	2226.14
809.75	2240.48
809.92	2119.65
810.10	2408.41
810.27	2238.43
810.44	2258.91
810.62	2316.25
810.79	2217.95
810.96	2099.17
811.14	2154.46
811.31	2277.34
811.48	2299.87
811.66	2297.82
811.83	2314.20
812.00	2301.92
812.18	2267.10
812.35	2389.98
812.52	2283.49
812.69	2242.53
812.87	2185.18
813.04	2191.33
813.21	2242.53
813.39	2248.67
813.56	2054.11
813.73	2289.63
813.91	2095.07
814.08	2297.82
814.25	2263.01
814.42	2088.93
814.60	2152.42
814.77	2248.67
814.94	2269.15
815.12	2236.38
815.29	2402.27
815.46	2152.42
815.63	2209.76
815.81	2236.38
815.98	2152.42
816.15	2267.10
816.33	2193.37
816.50	2195.42
816.67	2271.20
816.84	2215.90
817.02	2152.42
817.19	2211.81
817.36	2273.25
817.53	2291.68
817.71	2113.50
817.88	2295.77
818.05	2193.37
818.22	2275.29
818.40	2414.56
818.57	2172.89
818.74	2299.87
818.91	2215.90
819.09	2279.39
819.26	2318.30
819.43	2203.61
819.60	2193.37
819.78	2377.69
819.95	2383.84
820.12	2156.51
820.29	2367.45
820.47	2346.97
820.64	2097.12
820.81	2138.08
820.98	2158.56
821.15	2244.57
821.33	2258.91
821.50	2086.88
821.67	2334.68
821.84	2263.01
822.02	2226.14
822.19	2408.41
822.36	2164.70
822.53	2181.09
822.70	2146.27
822.88	2158.56
823.05	2396.12
823.22	2220.00
823.39	2301.92
823.56	2203.61
823.74	2404.32
823.91	2166.75
824.08	2101.22
824.25	2107.36
824.42	2432.99
824.60	2097.12
824.77	2258.91
824.94	2260.96
825.11	2326.49
825.28	2146.27
825.45	2271.20
825.63	2263.01
825.80	2205.66
825.97	2254.81
826.14	2267.10
826.31	2015.20
826.48	2314.20
826.66	2183.13
826.83	2160.61
827.00	2193.37
827.17	2187.23
827.34	2244.57
827.51	2242.53
827.69	2203.61
827.86	2070.50
828.03	2250.72
828.20	2250.72
828.37	2242.53
828.54	2326.49
828.71	2197.47
828.89	2351.07
829.06	2271.20
829.23	2461.66
829.40	2170.85
829.57	2176.99
829.74	2291.68
829.91	2269.15
830.09	2195.42
830.26	2265.05
830.43	2369.50
830.60	2215.90
830.77	2357.21
830.94	2336.73
831.11	2342.88
831.28	2203.61
831.46	2340.83
831.63	2297.82
831.80	2275.29
831.97	2152.42
832.14	2230.24
832.31	2320.35
832.48	2277.34
832.65	2267.10
832.82	2224.09
832.99	2320.35
833.17	2103.26
833.34	2377.69
833.51	2285.53
833.68	2072.54
833.85	2340.83
834.02	2170.85
834.19	2111.46
834.36	2170.85
834.53	2252.77
834.70	2334.68
834.87	2248.67
835.04	2168.80
835.22	2236.38
835.39	2228.19
835.56	2068.45
835.73	2211.81
835.90	2367.45
836.07	2168.80
836.24	2322.40
836.41	2119.65
836.58	2179.04
836.75	2447.32
836.92	2211.81
837.09	2117.60
837.26	2314.20
837.43	2232.29
837.60	2295.77
837.77	2097.12
837.94	2260.96
838.12	2303.96
838.29	2146.27
838.46	2113.50
838.63	2093.02
838.80	2336.73
838.97	2265.05
839.14	2156.51
839.31	2281.44
839.48	2334.68
839.65	2170.85
839.82	2287.58
839.99	2297.82
840.16	2303.96
840.33	2119.65
840.50	2246.62
840.67	2154.46
840.84	1988.58
841.01	2129.89
841.18	2115.55
841.35	2258.91
841.52	2267.10
841.69	2359.26
841.86	2176.99
842.03	2297.82
842.20	2375.64
842.37	2187.23
842.54	2234.33
842.71	2275.29
842.88	2113.50
843.05	2293.72
843.22	2176.99
843.39	2332.64
843.56	2181.09
843.73	2195.42
843.90	2283.49
844.07	2260.96
844.24	2285.53
844.41	2303.96
844.58	2099.17
844.75	2250.72
844.92	2269.15
845.09	2228.19
845.26	2125.79
845.43	2295.77
845.60	2224.09
845.77	2301.92
845.94	2236.38
846.10	2301.92
846.27	2201.57
846.44	2095.07
846.61	2138.08
846.78	2357.21
846.95	2293.72
847.12	2166.75
847.29	2162.66
847.46	2144.22
847.63	2389.98
847.80	2193.37
847.97	2150.37
848.14	2449.37
848.31	2263.01
848.48	2095.07
848.65	2228.19
848.82	2234.33
848.98	2492.38
849.15	2238.43
849.32	2322.40
849.49	2301.92
849.66	2254.81
849.83	2203.61
850.00	2133.98
850.17	2242.53
850.34	2230.24
850.51	2119.65
850.68	2211.81
850.85	2439.13
851.01	2299.87
851.18	2263.01
851.35	2203.61
851.52	2310.11
851.69	2396.12
851.86	2082.78
852.03	2105.31
852.20	2301.92
852.37	2252.77
852.53	2136.03
852.70	2156.51
852.87	2301.92
853.04	2301.92
853.21	2152.42
853.38	2351.07
853.55	2359.26
853.72	2418.65
853.89	2185.18
854.05	2166.75
854.22	2254.81
854.39	2183.13
854.56	2215.90
854.73	2256.86
854.90	2138.08
855.07	2236.38
855.23	2138.08
855.40	2103.26
855.57	2152.42
855.74	2086.88
855.91	2383.84
856.08	2113.50
856.25	2191.33
856.41	2195.42
856.58	2234.33
856.75	2242.53
856.92	2103.26
857.09	2256.86
857.26	2025.44
857.42	2316.25
857.59	2254.81
857.76	2250.72
857.93	2293.72
858.10	2222.05
858.27	2187.23
858.43	2258.91
858.60	2211.81
858.77	2080.74
858.94	2244.57
859.11	2379.74
859.27	2211.81
859.44	2146.27
859.61	2453.47
859.78	2279.39
859.95	2189.28
860.12	2121.70
860.28	2447.32
860.45	2439.13
860.62	2193.37
860.79	2242.53
860.95	2166.75
861.12	2246.62
861.29	2113.50
861.46	2240.48
861.63	2232.29
861.79	2349.02
861.96	2095.07
862.13	2131.94
862.30	2344.92
862.47	2215.90
862.63	2095.07
862.80	2269.15
862.97	2400.22
863.14	2242.53
863.30	2183.13
863.47	2195.42
863.64	2418.65
863.81	2326.49
863.97	2185.18
864.14	2281.44
864.31	2170.85
864.48	2211.81
864.65	2201.57
864.81	2283.49
864.98	2303.96
865.15	2344.92
865.32	2263.01
865.48	2265.05
865.65	2414.56
865.82	2205.66
865.98	2265.05
866.15	2293.72
866.32	2127.84
866.49	2244.57
866.65	2281.44
866.82	2142.18
866.99	2252.77
867.16	2205.66
867.32	2183.13
867.49	2107.36
867.66	2185.18
867.83	2176.99
867.99	2117.60
868.16	2170.85
868.33	2088.93
868.49	2240.48
868.66	2168.80
868.83	2252.77
868.99	2299.87
869.16	2226.14
869.33	2281.44
869.50	2228.19
869.66	2254.81
869.83	2226.14
870.00	2072.54
870.16	2232.29
870.33	2197.47
870.50	2301.92
870.66	2226.14
870.83	2351.07
871.00	2220.00
871.17	2277.34
871.33	2291.68
871.50	2224.09
871.67	2250.72
871.83	2201.57
872.00	2363.36
872.17	2211.81
872.33	2443.23
872.50	2324.44
872.67	2117.60
872.83	2187.23
873.00	2211.81
873.17	2306.01
873.33	2246.62
873.50	2277.34
873.67	2195.42
873.83	2127.84
874.00	2189.28
874.16	2346.97
874.33	2271.20
874.50	2033.63
874.66	2158.56
874.83	2303.96
875.00	2351.07
875.16	2326.49
875.33	2252.77
875.50	2015.20
875.66	2197.47
875.83	2277.34
875.99	2242.53
876.16	2263.01
876.33	2170.85
876.49	2215.90
876.66	2236.38
876.83	2156.51
876.99	2056.16
877.16	2220.00
877.32	2209.76
877.49	2152.42
877.66	2207.71
877.82	2367.45
877.99	2224.09
878.15	2256.86
878.32	2187.23
878.49	2344.92
878.65	2111.46
878.82	2400.22
878.98	2172.89
879.15	2267.10
879.32	2256.86
879.48	2275.29
879.65	2263.01
879.81	2187.23
879.98	2201.57
880.15	2220.00
880.31	2322.40
880.48	2215.90
880.64	2291.68
880.81	2228.19
880.97	2387.93
881.14	2414.56
881.31	2158.56
881.47	2420.70
881.64	2226.14
881.80	2156.51
881.97	2267.10
882.13	2252.77
882.30	2105.31
882.47	2133.98
882.63	2191.33
882.80	2187.23
882.96	2168.80
883.13	2326.49
883.29	2176.99
883.46	2170.85
883.62	2365.40
883.79	2410.46
883.95	2258.91
884.12	2283.49
884.29	2412.51
884.45	2289.63
884.62	2297.82
884.78	2117.60
884.95	2408.41
885.11	2246.62
885.28	2236.38
885.44	2240.48
885.61	2342.88
885.77	2416.60
885.94	2250.72
886.10	2269.15
886.27	2258.91
886.43	2428.89
886.60	2318.30
886.76	2142.18
886.93	2109.41
887.09	2299.87
887.26	2052.06
887.42	2172.89
887.59	2324.44
887.75	2424.80
887.92	2355.16
888.08	2258.91
888.25	2398.17
888.41	2412.51
888.58	2256.86
888.74	2201.57
888.91	2224.09
>>>>>End Processed Spectral Data<<<<<
