SpectraSuite Data File
++++++++++++++++++++++++++++++++++++
Date: Thu May 05 13:20:56 CEST 2016
User: root
Dark Spectrum Present: No
Reference Spectrum Present: No
Number of Sampled Component Spectra: 1
Spectrometers: USB4C02835
Integration Time (usec): 100000 (USB4C02835)
Spectra Averaged: 1 (USB4C02835)
Boxcar Smoothing: 0 (USB4C02835)
Correct for Electrical Dark: No (USB4C02835)
Strobe/Lamp Enabled: No (USB4C02835)
Correct for Detector Non-linearity: No (USB4C02835)
Correct for Stray Light: No (USB4C02835)
Number of Pixels in Processed Spectrum: 3648
>>>>>Begin Processed Spectral Data<<<<<
177.47	1738.73
177.69	1738.73
177.91	1738.73
178.13	1773.54
178.36	1841.12
178.58	2160.61
178.80	2285.53
179.02	2140.13
179.24	2148.32
179.46	2144.22
179.68	2260.96
179.90	2170.85
180.13	2312.16
180.35	2105.31
180.57	2162.66
180.79	2334.68
181.01	2246.62
181.23	2234.33
181.45	2303.96
181.67	2297.82
181.90	2412.51
182.12	2170.85
182.34	2054.11
182.56	2301.92
182.78	2279.39
183.00	2160.61
183.22	2271.20
183.44	2174.94
183.66	2568.15
183.89	2273.25
184.11	2158.56
184.33	2248.67
184.55	2355.16
184.77	2170.85
184.99	2195.42
185.21	2199.52
185.43	2457.56
185.65	2123.74
185.87	2187.23
186.10	2445.27
186.32	2410.46
186.54	2242.53
186.76	2228.19
186.98	2289.63
187.20	2209.76
187.42	2113.50
187.64	2238.43
187.86	2306.01
188.08	2381.79
188.30	2105.31
188.52	2203.61
188.75	2396.12
188.97	2447.32
189.19	2109.41
189.41	2133.98
189.63	2283.49
189.85	2152.42
190.07	2105.31
190.29	2113.50
190.51	2373.60
190.73	2133.98
190.95	2234.33
191.17	2183.13
191.39	2133.98
191.61	2260.96
191.84	2199.52
192.06	2217.95
192.28	2103.26
192.50	2533.34
192.72	2193.37
192.94	2265.05
193.16	2396.12
193.38	2258.91
193.60	2117.60
193.82	2211.81
194.04	2344.92
194.26	2275.29
194.48	2211.81
194.70	2162.66
194.92	2197.47
195.14	2351.07
195.36	2088.93
195.58	2316.25
195.80	2195.42
196.02	2252.77
196.24	2240.48
196.46	2217.95
196.69	2144.22
196.91	2551.77
197.13	2187.23
197.35	2197.47
197.57	2406.36
197.79	2281.44
198.01	2187.23
198.23	2234.33
198.45	2258.91
198.67	2090.98
198.89	2119.65
199.11	2289.63
199.33	2150.37
199.55	2080.74
199.77	2176.99
199.99	2277.34
200.21	2244.57
200.43	2248.67
200.65	2064.35
200.87	2035.68
201.09	2240.48
201.31	2252.77
201.53	2211.81
201.75	2185.18
201.97	2326.49
202.19	2217.95
202.41	2205.66
202.63	2375.64
202.85	2289.63
203.07	2250.72
203.29	2125.79
203.51	2111.46
203.73	2146.27
203.95	2461.66
204.17	2234.33
204.39	2236.38
204.61	2248.67
204.83	2222.05
205.05	2256.86
205.27	2277.34
205.49	2627.54
205.71	2160.61
205.93	2117.60
206.15	2084.83
206.37	2301.92
206.59	2191.33
206.81	2060.26
207.03	2121.70
207.25	2150.37
207.47	2349.02
207.69	2195.42
207.91	2326.49
208.13	2404.32
208.34	2238.43
208.56	2115.55
208.78	2199.52
209.00	2220.00
209.22	2193.37
209.44	2179.04
209.66	2105.31
209.88	2234.33
210.10	2267.10
210.32	2166.75
210.54	2279.39
210.76	2170.85
210.98	2346.97
211.20	2113.50
211.42	2217.95
211.64	2295.77
211.86	2283.49
212.08	2312.16
212.30	2187.23
212.52	2228.19
212.74	2291.68
212.96	2199.52
213.17	2250.72
213.39	2392.03
213.61	2385.88
213.83	2140.13
214.05	2209.76
214.27	2389.98
214.49	2258.91
214.71	2086.88
214.93	2244.57
215.15	2299.87
215.37	2363.36
215.59	2115.55
215.81	2273.25
216.03	2420.70
216.24	2283.49
216.46	2201.57
216.68	2205.66
216.90	2373.60
217.12	2273.25
217.34	2113.50
217.56	2258.91
217.78	2387.93
218.00	2293.72
218.22	2203.61
218.44	2242.53
218.66	2244.57
218.87	2420.70
219.09	2142.18
219.31	2146.27
219.53	2324.44
219.75	2228.19
219.97	2187.23
220.19	2224.09
220.41	2152.42
220.63	2373.60
220.85	2252.77
221.06	2248.67
221.28	2387.93
221.50	2381.79
221.72	2211.81
221.94	2189.28
222.16	2238.43
222.38	2369.50
222.60	2185.18
222.82	2260.96
223.03	2381.79
223.25	2148.32
223.47	2109.41
223.69	2340.83
223.91	2299.87
224.13	2271.20
224.35	2109.41
224.57	2220.00
224.78	2314.20
225.00	2174.94
225.22	2125.79
225.44	2279.39
225.66	2283.49
225.88	2199.52
226.10	2289.63
226.32	2140.13
226.53	2416.60
226.75	2217.95
226.97	2203.61
227.19	2162.66
227.41	2217.95
227.63	2203.61
227.85	2007.01
228.06	2174.94
228.28	2244.57
228.50	2301.92
228.72	2101.22
228.94	2179.04
229.16	2033.63
229.37	2193.37
229.59	2181.09
229.81	2330.59
230.03	2252.77
230.25	2113.50
230.47	1990.63
230.69	2156.51
230.90	2328.54
231.12	2176.99
231.34	2205.66
231.56	2277.34
231.78	2224.09
232.00	2308.06
232.21	2193.37
232.43	2154.46
232.65	2072.54
232.87	2326.49
233.09	2129.89
233.30	2146.27
233.52	2344.92
233.74	2240.48
233.96	2162.66
234.18	2293.72
234.40	2306.01
234.61	2455.51
234.83	2136.03
235.05	2152.42
235.27	2535.39
235.49	2351.07
235.70	2082.78
235.92	2258.91
236.14	2324.44
236.36	2523.10
236.58	2121.70
236.79	2197.47
237.01	2273.25
237.23	2193.37
237.45	2392.03
237.67	2234.33
237.88	2291.68
238.10	2461.66
238.32	2162.66
238.54	2213.85
238.76	2246.62
238.97	2193.37
239.19	2125.79
239.41	2340.83
239.63	2285.53
239.85	2220.00
240.06	2220.00
240.28	2150.37
240.50	2322.40
240.72	2179.04
240.93	2170.85
241.15	2254.81
241.37	2285.53
241.59	2430.94
241.81	2203.61
242.02	2138.08
242.24	2334.68
242.46	2367.45
242.68	2082.78
242.89	2150.37
243.11	2353.12
243.33	2269.15
243.55	2252.77
243.76	2213.85
243.98	2203.61
244.20	2224.09
244.42	2119.65
244.64	2232.29
244.85	2162.66
245.07	2162.66
245.29	2283.49
245.51	2187.23
245.72	2308.06
245.94	2432.99
246.16	2195.42
246.38	2158.56
246.59	2267.10
246.81	2179.04
247.03	2168.80
247.24	2076.64
247.46	2195.42
247.68	2320.35
247.90	2109.41
248.11	2084.83
248.33	2400.22
248.55	2197.47
248.77	2205.66
248.98	2226.14
249.20	2422.75
249.42	2256.86
249.64	2127.84
249.85	2144.22
250.07	2136.03
250.29	2342.88
250.50	2193.37
250.72	2064.35
250.94	2293.72
251.16	2469.85
251.37	2265.05
251.59	2256.86
251.81	2199.52
252.02	2365.40
252.24	2181.09
252.46	2293.72
252.68	2209.76
252.89	2162.66
253.11	2047.97
253.33	2287.58
253.54	2365.40
253.76	2195.42
253.98	2187.23
254.20	2228.19
254.41	2072.54
254.63	2228.19
254.85	2041.82
255.06	2238.43
255.28	2340.83
255.50	2185.18
255.71	2203.61
255.93	2037.73
256.15	2193.37
256.36	2336.73
256.58	2109.41
256.80	2174.94
257.02	2220.00
257.23	2260.96
257.45	2207.71
257.67	2228.19
257.88	2207.71
258.10	2314.20
258.32	2138.08
258.53	2240.48
258.75	2457.56
258.97	2203.61
259.18	2154.46
259.40	2176.99
259.62	2471.90
259.83	2383.84
260.05	2162.66
260.27	2658.26
260.48	2289.63
260.70	2144.22
260.92	2103.26
261.13	2166.75
261.35	2310.11
261.57	2297.82
261.78	2129.89
262.00	2133.98
262.22	2285.53
262.43	2217.95
262.65	2285.53
262.86	2174.94
263.08	2523.10
263.30	2254.81
263.51	2060.26
263.73	2093.02
263.95	2367.45
264.16	2136.03
264.38	2082.78
264.60	2203.61
264.81	2283.49
265.03	2281.44
265.25	2293.72
265.46	2199.52
265.68	2400.22
265.89	2344.92
266.11	2109.41
266.33	2179.04
266.54	2334.68
266.76	2295.77
266.98	2254.81
267.19	2220.00
267.41	2306.01
267.62	2242.53
267.84	2105.31
268.06	2199.52
268.27	2191.33
268.49	2342.88
268.70	2291.68
268.92	2127.84
269.14	2136.03
269.35	2152.42
269.57	2217.95
269.79	2256.86
270.00	2158.56
270.22	2420.70
270.43	2078.69
270.65	1957.86
270.87	2215.90
271.08	2297.82
271.30	2238.43
271.51	2187.23
271.73	2308.06
271.95	2373.60
272.16	2273.25
272.38	2172.89
272.59	2164.70
272.81	2375.64
273.02	2176.99
273.24	2189.28
273.46	2308.06
273.67	2150.37
273.89	2125.79
274.10	2170.85
274.32	2467.80
274.54	2228.19
274.75	2281.44
274.97	2193.37
275.18	2338.78
275.40	2263.01
275.61	2215.90
275.83	2203.61
276.05	2109.41
276.26	2220.00
276.48	2316.25
276.69	2238.43
276.91	2285.53
277.12	2314.20
277.34	2230.24
277.55	2346.97
277.77	2289.63
277.99	2191.33
278.20	2172.89
278.42	2025.44
278.63	2187.23
278.85	2109.41
279.06	2152.42
279.28	2269.15
279.49	2297.82
279.71	2254.81
279.93	2220.00
280.14	2287.58
280.36	2138.08
280.57	2322.40
280.79	2289.63
281.00	2090.98
281.22	2238.43
281.43	2293.72
281.65	2045.92
281.86	2146.27
282.08	2234.33
282.29	2426.84
282.51	2097.12
282.73	2156.51
282.94	2056.16
283.16	2371.55
283.37	2389.98
283.59	2179.04
283.80	2293.72
284.02	2269.15
284.23	2254.81
284.45	2269.15
284.66	2119.65
284.88	2123.74
285.09	2211.81
285.31	2260.96
285.52	2260.96
285.74	2121.70
285.95	2293.72
286.17	2228.19
286.38	2459.61
286.60	2205.66
286.81	2170.85
287.03	2275.29
287.24	2295.77
287.46	2357.21
287.67	2244.57
287.89	2359.26
288.10	2240.48
288.32	2258.91
288.53	2346.97
288.75	2220.00
288.96	2267.10
289.18	2183.13
289.39	2154.46
289.61	2205.66
289.82	2443.23
290.04	2480.09
290.25	2170.85
290.47	2281.44
290.68	2258.91
290.90	2361.31
291.11	2056.16
291.33	2326.49
291.54	2187.23
291.76	2187.23
291.97	2293.72
292.18	2248.67
292.40	2248.67
292.61	2181.09
292.83	2432.99
293.04	2275.29
293.26	2297.82
293.47	2209.76
293.69	2107.36
293.90	2232.29
294.12	2308.06
294.33	2258.91
294.55	2285.53
294.76	2367.45
294.97	2426.84
295.19	2486.23
295.40	2224.09
295.62	2209.76
295.83	2303.96
296.05	2154.46
296.26	2338.78
296.48	2138.08
296.69	2217.95
296.90	2293.72
297.12	2351.07
297.33	2303.96
297.55	2260.96
297.76	2277.34
297.98	2340.83
298.19	2265.05
298.41	2265.05
298.62	2150.37
298.83	2361.31
299.05	2209.76
299.26	2185.18
299.48	2217.95
299.69	2283.49
299.90	2263.01
300.12	2179.04
300.33	2375.64
300.55	2236.38
300.76	2269.15
300.98	2121.70
301.19	2379.74
301.40	2191.33
301.62	2265.05
301.83	2363.36
302.05	2201.57
302.26	2217.95
302.47	2287.58
302.69	2127.84
302.90	2240.48
303.12	2060.26
303.33	2230.24
303.54	2478.04
303.76	2144.22
303.97	2217.95
304.19	2355.16
304.40	2236.38
304.61	2285.53
304.83	2471.90
305.04	2265.05
305.26	2275.29
305.47	2185.18
305.68	2217.95
305.90	2150.37
306.11	2373.60
306.33	2209.76
306.54	2203.61
306.75	2226.14
306.97	2119.65
307.18	2170.85
307.39	2244.57
307.61	2295.77
307.82	2217.95
308.04	2279.39
308.25	2101.22
308.46	2195.42
308.68	2222.05
308.89	2297.82
309.10	2379.74
309.32	2295.77
309.53	2263.01
309.74	2355.16
309.96	2222.05
310.17	2336.73
310.39	2224.09
310.60	2314.20
310.81	2326.49
311.03	2068.45
311.24	2291.68
311.45	2297.82
311.67	2455.51
311.88	2269.15
312.09	2176.99
312.31	2191.33
312.52	2248.67
312.73	2203.61
312.95	2197.47
313.16	2238.43
313.37	2392.03
313.59	2281.44
313.80	2351.07
314.01	2475.99
314.23	2203.61
314.44	2150.37
314.65	2105.31
314.87	2121.70
315.08	2209.76
315.29	2205.66
315.51	2131.94
315.72	2052.06
315.93	2328.54
316.15	2312.16
316.36	2267.10
316.57	2336.73
316.79	2330.59
317.00	2207.71
317.21	2318.30
317.43	2187.23
317.64	2312.16
317.85	2267.10
318.07	2154.46
318.28	2269.15
318.49	2340.83
318.70	2432.99
318.92	2422.75
319.13	2422.75
319.34	2521.05
319.56	2209.76
319.77	2344.92
319.98	2365.40
320.20	2357.21
320.41	2295.77
320.62	2287.58
320.83	2150.37
321.05	2406.36
321.26	2211.81
321.47	2256.86
321.69	2332.64
321.90	2031.58
322.11	2207.71
322.32	2281.44
322.54	2377.69
322.75	2228.19
322.96	2519.00
323.18	2078.69
323.39	2133.98
323.60	2142.18
323.81	2363.36
324.03	2263.01
324.24	2211.81
324.45	2203.61
324.66	2244.57
324.88	2365.40
325.09	2400.22
325.30	2195.42
325.52	2250.72
325.73	2326.49
325.94	2121.70
326.15	2127.84
326.37	2088.93
326.58	2342.88
326.79	2439.13
327.00	2152.42
327.22	2267.10
327.43	2203.61
327.64	2197.47
327.85	2287.58
328.07	2207.71
328.28	2531.29
328.49	2275.29
328.70	2207.71
328.92	2193.37
329.13	2185.18
329.34	2236.38
329.55	2383.84
329.76	2392.03
329.98	2254.81
330.19	2432.99
330.40	2256.86
330.61	2316.25
330.83	2361.31
331.04	2183.13
331.25	2265.05
331.46	2197.47
331.68	2146.27
331.89	2367.45
332.10	2217.95
332.31	2162.66
332.52	2277.34
332.74	2322.40
332.95	2136.03
333.16	2217.95
333.37	2322.40
333.58	2209.76
333.80	2310.11
334.01	2095.07
334.22	2242.53
334.43	2203.61
334.64	2258.91
334.86	2181.09
335.07	2160.61
335.28	2424.80
335.49	2088.93
335.70	2297.82
335.92	2359.26
336.13	2496.47
336.34	2228.19
336.55	2228.19
336.76	2260.96
336.98	2076.64
337.19	2228.19
337.40	2310.11
337.61	2480.09
337.82	2220.00
338.04	2267.10
338.25	2068.45
338.46	2277.34
338.67	2226.14
338.88	2146.27
339.09	2084.83
339.31	2195.42
339.52	2129.89
339.73	2156.51
339.94	2195.42
340.15	2361.31
340.36	2220.00
340.58	2234.33
340.79	2162.66
341.00	2301.92
341.21	2119.65
341.42	2396.12
341.63	2193.37
341.85	2365.40
342.06	2297.82
342.27	2121.70
342.48	2232.29
342.69	2113.50
342.90	2283.49
343.12	2367.45
343.33	2183.13
343.54	2342.88
343.75	2424.80
343.96	2244.57
344.17	2136.03
344.38	2201.57
344.60	2162.66
344.81	2084.83
345.02	2111.46
345.23	2398.17
345.44	2568.15
345.65	2291.68
345.86	2230.24
346.07	2271.20
346.29	2209.76
346.50	2293.72
346.71	2254.81
346.92	2398.17
347.13	2400.22
347.34	2273.25
347.55	2176.99
347.76	2359.26
347.98	2125.79
348.19	2199.52
348.40	2293.72
348.61	2170.85
348.82	2400.22
349.03	2281.44
349.24	2197.47
349.45	2351.07
349.66	2078.69
349.88	2291.68
350.09	2236.38
350.30	2455.51
350.51	2392.03
350.72	2306.01
350.93	2326.49
351.14	2269.15
351.35	2326.49
351.56	2183.13
351.77	2277.34
351.99	2310.11
352.20	2435.03
352.41	2359.26
352.62	2095.07
352.83	2166.75
353.04	2201.57
353.25	2127.84
353.46	2306.01
353.67	2351.07
353.88	2054.11
354.09	2203.61
354.30	2283.49
354.52	2277.34
354.73	2228.19
354.94	2166.75
355.15	2203.61
355.36	2504.67
355.57	2226.14
355.78	2234.33
355.99	2168.80
356.20	2228.19
356.41	2344.92
356.62	2289.63
356.83	2205.66
357.04	2392.03
357.25	2039.78
357.46	2166.75
357.68	2117.60
357.89	2185.18
358.10	2252.77
358.31	2209.76
358.52	2193.37
358.73	2111.46
358.94	2181.09
359.15	2176.99
359.36	2344.92
359.57	2263.01
359.78	2271.20
359.99	2281.44
360.20	2140.13
360.41	2189.28
360.62	2320.35
360.83	2301.92
361.04	2285.53
361.25	2328.54
361.46	2459.61
361.67	2312.16
361.88	2273.25
362.09	2338.78
362.30	2303.96
362.51	2217.95
362.72	2287.58
362.93	2389.98
363.14	2334.68
363.35	2228.19
363.56	2138.08
363.78	2353.12
363.99	2318.30
364.20	2248.67
364.41	2242.53
364.62	2406.36
364.83	2252.77
365.04	2220.00
365.25	2260.96
365.46	2404.32
365.67	2138.08
365.88	2209.76
366.09	2220.00
366.30	2271.20
366.51	2275.29
366.72	2150.37
366.93	2213.85
367.14	2299.87
367.35	2441.18
367.56	2228.19
367.77	2392.03
367.98	2226.14
368.18	2306.01
368.39	2269.15
368.60	2181.09
368.81	2338.78
369.02	2295.77
369.23	2183.13
369.44	2101.22
369.65	2242.53
369.86	2269.15
370.07	2361.31
370.28	2195.42
370.49	2293.72
370.70	2301.92
370.91	2035.68
371.12	2152.42
371.33	2277.34
371.54	2258.91
371.75	2361.31
371.96	2007.01
372.17	2283.49
372.38	2154.46
372.59	2269.15
372.80	2230.24
373.01	2263.01
373.22	2289.63
373.43	2215.90
373.64	2115.55
373.85	2371.55
374.06	2353.12
374.26	2324.44
374.47	2308.06
374.68	2359.26
374.89	2195.42
375.10	2168.80
375.31	2281.44
375.52	2396.12
375.73	2314.20
375.94	2168.80
376.15	2340.83
376.36	2199.52
376.57	2191.33
376.78	2168.80
376.99	2273.25
377.20	2351.07
377.40	2187.23
377.61	2437.08
377.82	2052.06
378.03	2432.99
378.24	2299.87
378.45	2285.53
378.66	2258.91
378.87	2127.84
379.08	2101.22
379.29	2228.19
379.50	2359.26
379.71	2258.91
379.91	2342.88
380.12	2142.18
380.33	2279.39
380.54	2232.29
380.75	2293.72
380.96	2168.80
381.17	2269.15
381.38	2224.09
381.59	2265.05
381.80	2258.91
382.00	2439.13
382.21	2357.21
382.42	2441.18
382.63	2555.86
382.84	2316.25
383.05	2287.58
383.26	2424.80
383.47	2189.28
383.68	2273.25
383.88	2459.61
384.09	2289.63
384.30	2408.41
384.51	2230.24
384.72	2179.04
384.93	2125.79
385.14	2224.09
385.35	2367.45
385.55	2162.66
385.76	2318.30
385.97	2230.24
386.18	2176.99
386.39	2256.86
386.60	2183.13
386.81	2166.75
387.02	2133.98
387.22	2115.55
387.43	2385.88
387.64	2324.44
387.85	2441.18
388.06	2441.18
388.27	3891.14
388.48	7935.88
388.68	11444.05
388.89	14042.92
389.10	14712.61
389.31	13727.53
389.52	10866.52
389.73	9516.91
389.93	8519.55
390.14	7966.60
390.35	7067.54
390.56	6322.08
390.77	5210.03
390.98	4014.02
391.18	3264.46
391.39	2783.19
391.60	2349.02
391.81	2389.98
392.02	2203.61
392.23	2480.09
392.43	2310.11
392.64	2346.97
392.85	2250.72
393.06	2400.22
393.27	2209.76
393.47	2193.37
393.68	2314.20
393.89	2185.18
394.10	2408.41
394.31	2168.80
394.52	2244.57
394.72	2252.77
394.93	2473.95
395.14	2123.74
395.35	2351.07
395.56	2191.33
395.76	2297.82
395.97	2285.53
396.18	2328.54
396.39	2404.32
396.60	2736.09
396.80	2527.19
397.01	2430.94
397.22	2326.49
397.43	2414.56
397.64	2285.53
397.84	2400.22
398.05	2539.48
398.26	2301.92
398.47	2340.83
398.67	2324.44
398.88	2203.61
399.09	2332.64
399.30	2123.74
399.51	2326.49
399.71	2209.76
399.92	2209.76
400.13	2267.10
400.34	2316.25
400.54	2207.71
400.75	2428.89
400.96	2355.16
401.17	2475.99
401.37	2301.92
401.58	2217.95
401.79	2277.34
402.00	2322.40
402.21	2684.89
402.41	2641.88
402.62	2619.35
402.83	2654.17
403.04	2711.51
403.24	2705.37
403.45	2330.59
403.66	2615.26
403.87	2473.95
404.07	2471.90
404.28	2504.67
404.49	2439.13
404.70	2279.39
404.90	2308.06
405.11	2269.15
405.32	2355.16
405.52	2162.66
405.73	2205.66
405.94	2170.85
406.15	2205.66
406.35	2361.31
406.56	2306.01
406.77	2217.95
406.98	2400.22
407.18	2267.10
407.39	2375.64
407.60	2258.91
407.80	2320.35
408.01	2260.96
408.22	2301.92
408.43	2224.09
408.63	2322.40
408.84	2371.55
409.05	2310.11
409.25	2160.61
409.46	2203.61
409.67	2224.09
409.88	2238.43
410.08	2283.49
410.29	2238.43
410.50	2383.84
410.70	2326.49
410.91	2084.83
411.12	2295.77
411.32	2217.95
411.53	2187.23
411.74	2332.64
411.95	2363.36
412.15	2312.16
412.36	2340.83
412.57	2353.12
412.77	2377.69
412.98	2314.20
413.19	2265.05
413.39	2400.22
413.60	2211.81
413.81	2447.32
414.01	2162.66
414.22	2303.96
414.43	2318.30
414.63	2267.10
414.84	2412.51
415.05	2176.99
415.25	2072.54
415.46	2430.94
415.67	2115.55
415.87	2256.86
416.08	2170.85
416.29	2217.95
416.49	2299.87
416.70	2172.89
416.91	2228.19
417.11	2226.14
417.32	2336.73
417.53	2293.72
417.73	2277.34
417.94	2289.63
418.15	2306.01
418.35	2197.47
418.56	2353.12
418.77	2465.75
418.97	2234.33
419.18	2197.47
419.38	2025.44
419.59	2232.29
419.80	2439.13
420.00	2195.42
420.21	2265.05
420.42	2342.88
420.62	2312.16
420.83	2199.52
421.04	2228.19
421.24	2314.20
421.45	2338.78
421.65	2258.91
421.86	2211.81
422.07	2365.40
422.27	2232.29
422.48	2236.38
422.69	2152.42
422.89	2226.14
423.10	2252.77
423.30	2105.31
423.51	2238.43
423.72	2291.68
423.92	2346.97
424.13	2109.41
424.33	2209.76
424.54	2420.70
424.75	2279.39
424.95	2455.51
425.16	2224.09
425.36	2252.77
425.57	2336.73
425.78	2373.60
425.98	2398.17
426.19	2273.25
426.39	2113.50
426.60	2168.80
426.81	2365.40
427.01	2289.63
427.22	2172.89
427.42	2150.37
427.63	2144.22
427.83	2334.68
428.04	2400.22
428.25	2361.31
428.45	2379.74
428.66	2303.96
428.86	2248.67
429.07	2240.48
429.28	2226.14
429.48	2322.40
429.69	2232.29
429.89	2277.34
430.10	2086.88
430.30	2373.60
430.51	2230.24
430.71	2195.42
430.92	2197.47
431.13	2269.15
431.33	2236.38
431.54	2250.72
431.74	2394.08
431.95	2529.24
432.15	2121.70
432.36	2207.71
432.56	2351.07
432.77	2424.80
432.98	2453.47
433.18	2213.85
433.39	2269.15
433.59	2222.05
433.80	2400.22
434.00	2449.37
434.21	2213.85
434.41	2193.37
434.62	2539.48
434.82	2123.74
435.03	2211.81
435.23	2289.63
435.44	2113.50
435.64	2250.72
435.85	2293.72
436.06	2336.73
436.26	2367.45
436.47	2258.91
436.67	2199.52
436.88	2187.23
437.08	2404.32
437.29	2441.18
437.49	2308.06
437.70	2361.31
437.90	2236.38
438.11	2437.08
438.31	2281.44
438.52	2449.37
438.72	2449.37
438.93	2549.72
439.13	2260.96
439.34	2430.94
439.54	2226.14
439.75	2328.54
439.95	2314.20
440.16	2162.66
440.36	2312.16
440.57	2349.02
440.77	2252.77
440.98	2269.15
441.18	2301.92
441.39	2236.38
441.59	2187.23
441.80	2482.14
442.00	2308.06
442.21	2355.16
442.41	2146.27
442.62	2490.33
442.82	2193.37
443.02	2256.86
443.23	2318.30
443.43	2301.92
443.64	2441.18
443.84	2174.94
444.05	2416.60
444.25	2357.21
444.46	2310.11
444.66	2260.96
444.87	2441.18
445.07	2052.06
445.28	2183.13
445.48	2392.03
445.69	2338.78
445.89	2533.34
446.09	2256.86
446.30	2551.77
446.50	2820.05
446.71	4427.71
446.91	5683.11
447.12	6444.96
447.32	6485.92
447.53	6174.63
447.73	5062.58
447.93	4523.96
448.14	4190.14
448.34	4063.17
448.55	3565.51
448.75	3596.23
448.96	3395.53
449.16	3010.51
449.36	2805.72
449.57	2668.50
449.77	2277.34
449.98	2301.92
450.18	2385.88
450.39	2318.30
450.59	2293.72
450.79	2336.73
451.00	2213.85
451.20	2318.30
451.41	2271.20
451.61	2336.73
451.81	2234.33
452.02	2256.86
452.22	2256.86
452.43	2234.33
452.63	2226.14
452.84	2252.77
453.04	2238.43
453.24	2306.01
453.45	2140.13
453.65	2312.16
453.86	2299.87
454.06	2316.25
454.26	2242.53
454.47	2240.48
454.67	2381.79
454.87	2281.44
455.08	2285.53
455.28	2379.74
455.49	2381.79
455.69	2179.04
455.89	2400.22
456.10	2324.44
456.30	2207.71
456.51	2406.36
456.71	2326.49
456.91	2330.59
457.12	2211.81
457.32	2306.01
457.52	2172.89
457.73	2342.88
457.93	2353.12
458.14	2183.13
458.34	2152.42
458.54	2295.77
458.75	2277.34
458.95	2326.49
459.15	2316.25
459.36	2236.38
459.56	2322.40
459.76	2537.43
459.97	2318.30
460.17	2267.10
460.37	2318.30
460.58	2340.83
460.78	2297.82
460.99	2166.75
461.19	2277.34
461.39	2220.00
461.60	2271.20
461.80	2244.57
462.00	2099.17
462.21	2293.72
462.41	2117.60
462.61	2099.17
462.82	2025.44
463.02	2250.72
463.22	2314.20
463.43	2367.45
463.63	2279.39
463.83	2400.22
464.04	2326.49
464.24	2252.77
464.44	2199.52
464.64	2338.78
464.85	2373.60
465.05	2342.88
465.25	2224.09
465.46	2293.72
465.66	2328.54
465.86	2363.36
466.07	2248.67
466.27	2301.92
466.47	2072.54
466.68	2187.23
466.88	2414.56
467.08	2299.87
467.29	2432.99
467.49	2318.30
467.69	2281.44
467.89	2293.72
468.10	2203.61
468.30	2267.10
468.50	2369.50
468.71	2306.01
468.91	2195.42
469.11	2475.99
469.31	2291.68
469.52	2209.76
469.72	2504.67
469.92	2461.66
470.13	2240.48
470.33	2271.20
470.53	2344.92
470.73	2648.02
470.94	2981.84
471.14	3200.98
471.34	3487.69
471.54	3448.78
471.75	3076.05
471.95	2795.48
472.15	2686.94
472.36	2723.80
472.56	2703.32
472.76	2693.08
472.96	2627.54
473.17	2580.44
473.37	2445.27
473.57	2336.73
473.77	2344.92
473.98	2217.95
474.18	2162.66
474.38	2627.54
474.58	2205.66
474.79	2244.57
474.99	2349.02
475.19	2340.83
475.39	2158.56
475.60	2332.64
475.80	2283.49
476.00	2287.58
476.20	2189.28
476.41	2267.10
476.61	2365.40
476.81	2437.08
477.01	2207.71
477.21	2451.42
477.42	2457.56
477.62	2269.15
477.82	2383.84
478.02	2226.14
478.23	2283.49
478.43	2197.47
478.63	2172.89
478.83	2297.82
479.03	2240.48
479.24	2389.98
479.44	2465.75
479.64	2115.55
479.84	2062.30
480.04	2236.38
480.25	2355.16
480.45	2160.61
480.65	2244.57
480.85	2437.08
481.06	2129.89
481.26	2338.78
481.46	2301.92
481.66	2281.44
481.86	2209.76
482.06	2369.50
482.27	2193.37
482.47	2187.23
482.67	2256.86
482.87	2203.61
483.07	2324.44
483.28	2197.47
483.48	2127.84
483.68	2240.48
483.88	2183.13
484.08	2080.74
484.29	2191.33
484.49	2228.19
484.69	2123.74
484.89	2400.22
485.09	2344.92
485.29	2389.98
485.50	2273.25
485.70	2267.10
485.90	2353.12
486.10	2242.53
486.30	2295.77
486.50	2351.07
486.71	2359.26
486.91	2277.34
487.11	2363.36
487.31	2119.65
487.51	2252.77
487.71	2160.61
487.91	2213.85
488.12	2127.84
488.32	2047.97
488.52	2228.19
488.72	2088.93
488.92	2306.01
489.12	2404.32
489.32	2392.03
489.53	2310.11
489.73	2199.52
489.93	2408.41
490.13	2211.81
490.33	2176.99
490.53	2324.44
490.73	2367.45
490.94	2162.66
491.14	2332.64
491.34	2381.79
491.54	2553.82
491.74	3196.88
491.94	3686.34
492.14	4091.84
492.34	4239.30
492.54	3829.70
492.75	3239.89
492.95	3196.88
493.15	2953.17
493.35	2971.60
493.55	2856.92
493.75	2674.65
493.95	2729.94
494.15	2592.73
494.35	2414.56
494.56	2363.36
494.76	2293.72
494.96	2303.96
495.16	2338.78
495.36	2207.71
495.56	2310.11
495.76	2306.01
495.96	2299.87
496.16	2271.20
496.36	2439.13
496.56	2250.72
496.77	2351.07
496.97	2252.77
497.17	2439.13
497.37	2158.56
497.57	2320.35
497.77	2277.34
497.97	2189.28
498.17	2222.05
498.37	2234.33
498.57	2318.30
498.77	2160.61
498.97	2361.31
499.17	2519.00
499.38	2318.30
499.58	2287.58
499.78	2324.44
499.98	2361.31
500.18	2213.85
500.38	2174.94
500.58	2365.40
500.78	2889.68
500.98	4980.66
501.18	7018.39
501.38	8886.14
501.58	9690.99
501.78	9613.17
501.98	7538.57
502.18	6553.50
502.38	5447.60
502.58	5150.64
502.78	4536.25
502.98	4550.59
503.18	4140.99
503.38	3923.91
503.59	3383.24
503.79	3192.78
503.99	3041.23
504.19	2756.57
504.39	2797.53
504.59	2842.58
504.79	2758.61
504.99	2783.19
505.19	2564.06
505.39	2471.90
505.59	2637.78
505.79	2523.10
505.99	2402.27
506.19	2353.12
506.39	2568.15
506.59	2267.10
506.79	2306.01
506.99	2342.88
507.19	2326.49
507.39	2285.53
507.59	2166.75
507.79	2193.37
507.99	2203.61
508.19	2242.53
508.39	2271.20
508.59	2213.85
508.79	2314.20
508.99	2521.05
509.19	2217.95
509.39	2357.21
509.59	2222.05
509.79	2240.48
509.99	2361.31
510.19	2349.02
510.39	2312.16
510.59	2342.88
510.79	2265.05
510.99	2183.13
511.19	2314.20
511.39	2369.50
511.59	2344.92
511.79	2422.75
511.99	2209.76
512.19	2422.75
512.38	2203.61
512.58	2129.89
512.78	2285.53
512.98	2377.69
513.18	2406.36
513.38	2113.50
513.58	2369.50
513.78	2252.77
513.98	2246.62
514.18	2240.48
514.38	2267.10
514.58	2363.36
514.78	2234.33
514.98	2152.42
515.18	2228.19
515.38	2195.42
515.58	2471.90
515.78	2142.18
515.98	2244.57
516.18	2363.36
516.38	2275.29
516.57	2275.29
516.77	2211.81
516.97	2332.64
517.17	2217.95
517.37	2123.74
517.57	2334.68
517.77	2324.44
517.97	2228.19
518.17	2316.25
518.37	2160.61
518.57	2299.87
518.77	2285.53
518.97	2306.01
519.16	2283.49
519.36	2355.16
519.56	2121.70
519.76	2260.96
519.96	2256.86
520.16	2457.56
520.36	2236.38
520.56	2377.69
520.76	2224.09
520.96	2263.01
521.16	2265.05
521.35	2379.74
521.55	2424.80
521.75	2273.25
521.95	2162.66
522.15	2248.67
522.35	2189.28
522.55	2174.94
522.75	2279.39
522.95	2254.81
523.14	2213.85
523.34	2269.15
523.54	2220.00
523.74	2357.21
523.94	2174.94
524.14	2150.37
524.34	2310.11
524.54	2392.03
524.73	2195.42
524.93	2283.49
525.13	2287.58
525.33	2119.65
525.53	2475.99
525.73	2303.96
525.93	2314.20
526.13	2170.85
526.32	2260.96
526.52	2398.17
526.72	2359.26
526.92	2277.34
527.12	2254.81
527.32	2207.71
527.52	2299.87
527.71	2400.22
527.91	2234.33
528.11	2217.95
528.31	2269.15
528.51	2193.37
528.71	2361.31
528.90	2330.59
529.10	2359.26
529.30	2310.11
529.50	2043.87
529.70	2314.20
529.90	2289.63
530.09	2277.34
530.29	2084.83
530.49	2176.99
530.69	2424.80
530.89	2328.54
531.09	2351.07
531.28	2199.52
531.48	2273.25
531.68	2265.05
531.88	2254.81
532.08	2392.03
532.28	2246.62
532.47	2283.49
532.67	2291.68
532.87	2291.68
533.07	2193.37
533.27	2375.64
533.46	2293.72
533.66	2344.92
533.86	2236.38
534.06	2230.24
534.26	2299.87
534.45	2242.53
534.65	2303.96
534.85	2355.16
535.05	2213.85
535.25	2430.94
535.44	2121.70
535.64	2320.35
535.84	2146.27
536.04	2285.53
536.24	2217.95
536.43	2148.32
536.63	2203.61
536.83	2301.92
537.03	2308.06
537.22	2103.26
537.42	2074.59
537.62	2289.63
537.82	2197.47
538.02	2392.03
538.21	2375.64
538.41	2609.11
538.61	2338.78
538.81	2185.18
539.00	2377.69
539.20	2072.54
539.40	2252.77
539.60	2291.68
539.79	2355.16
539.99	2258.91
540.19	2240.48
540.39	2244.57
540.58	2342.88
540.78	2406.36
540.98	2244.57
541.18	2365.40
541.37	2281.44
541.57	2265.05
541.77	2285.53
541.97	2191.33
542.16	2045.92
542.36	2236.38
542.56	2172.89
542.76	2473.95
542.95	2375.64
543.15	2342.88
543.35	2353.12
543.54	2226.14
543.74	2179.04
543.94	2408.41
544.14	2256.86
544.33	2324.44
544.53	2232.29
544.73	2301.92
544.93	2258.91
545.12	2285.53
545.32	2201.57
545.52	2220.00
545.71	2193.37
545.91	2232.29
546.11	2238.43
546.30	2220.00
546.50	2318.30
546.70	2357.21
546.90	2232.29
547.09	2117.60
547.29	2314.20
547.49	2363.36
547.68	2211.81
547.88	2187.23
548.08	2310.11
548.27	2834.39
548.47	2232.29
548.67	2240.48
548.87	2252.77
549.06	2244.57
549.26	2232.29
549.46	2346.97
549.65	2230.24
549.85	2334.68
550.05	2250.72
550.24	2187.23
550.44	2281.44
550.64	2250.72
550.83	2213.85
551.03	2326.49
551.23	2377.69
551.42	2310.11
551.62	2252.77
551.82	2326.49
552.01	2170.85
552.21	2316.25
552.41	2154.46
552.60	2408.41
552.80	2299.87
553.00	2191.33
553.19	2285.53
553.39	2416.60
553.59	2160.61
553.78	2320.35
553.98	2269.15
554.17	2148.32
554.37	2240.48
554.57	2342.88
554.76	2136.03
554.96	2279.39
555.16	2238.43
555.35	2275.29
555.55	2293.72
555.75	2320.35
555.94	2420.70
556.14	2103.26
556.33	2318.30
556.53	2267.10
556.73	2301.92
556.92	2330.59
557.12	2375.64
557.32	2441.18
557.51	2420.70
557.71	2355.16
557.90	2367.45
558.10	2441.18
558.30	2217.95
558.49	2252.77
558.69	2285.53
558.88	2379.74
559.08	2215.90
559.28	2242.53
559.47	2250.72
559.67	2342.88
559.86	2523.10
560.06	2269.15
560.26	2281.44
560.45	2277.34
560.65	2222.05
560.84	2363.36
561.04	2209.76
561.24	2312.16
561.43	2244.57
561.63	2400.22
561.82	2230.24
562.02	2392.03
562.22	2232.29
562.41	2252.77
562.61	2207.71
562.80	2187.23
563.00	2545.63
563.19	2289.63
563.39	2285.53
563.59	2330.59
563.78	2131.94
563.98	2097.12
564.17	2174.94
564.37	2111.46
564.56	2250.72
564.76	2222.05
564.96	2363.36
565.15	2269.15
565.35	2510.81
565.54	2193.37
565.74	2314.20
565.93	2293.72
566.13	2224.09
566.32	2312.16
566.52	2392.03
566.71	2291.68
566.91	2301.92
567.11	2285.53
567.30	2183.13
567.50	2340.83
567.69	2301.92
567.89	2199.52
568.08	2228.19
568.28	2281.44
568.47	2082.78
568.67	2293.72
568.86	2312.16
569.06	2400.22
569.25	2187.23
569.45	2154.46
569.64	2236.38
569.84	2258.91
570.04	2355.16
570.23	2236.38
570.43	2236.38
570.62	2275.29
570.82	2404.32
571.01	2115.55
571.21	2179.04
571.40	2207.71
571.60	2357.21
571.79	2203.61
571.99	2320.35
572.18	2187.23
572.38	2328.54
572.57	2240.48
572.77	2248.67
572.96	2514.91
573.16	2326.49
573.35	2275.29
573.55	2322.40
573.74	2392.03
573.94	2285.53
574.13	2252.77
574.33	2392.03
574.52	2432.99
574.71	2285.53
574.91	2320.35
575.10	2160.61
575.30	2252.77
575.49	2170.85
575.69	2260.96
575.88	2389.98
576.08	2301.92
576.27	2461.66
576.47	2299.87
576.66	2482.14
576.86	2494.43
577.05	2322.40
577.25	2363.36
577.44	2414.56
577.64	2279.39
577.83	2349.02
578.02	2224.09
578.22	2379.74
578.41	2480.09
578.61	2277.34
578.80	2152.42
579.00	2269.15
579.19	2285.53
579.39	2312.16
579.58	2426.84
579.77	2293.72
579.97	2424.80
580.16	2484.19
580.36	2326.49
580.55	2424.80
580.75	2318.30
580.94	2336.73
581.13	2475.99
581.33	2445.27
581.52	2236.38
581.72	2500.57
581.91	2414.56
582.11	2279.39
582.30	2377.69
582.49	2252.77
582.69	2461.66
582.88	2332.64
583.08	2269.15
583.27	2367.45
583.47	2326.49
583.66	2203.61
583.85	2209.76
584.05	2308.06
584.24	2361.31
584.44	2301.92
584.63	2381.79
584.82	2465.75
585.02	2467.80
585.21	2435.03
585.41	2432.99
585.60	2365.40
585.79	2535.39
585.99	2535.39
586.18	2521.05
586.37	3004.37
586.57	4501.44
586.76	13473.59
586.96	32822.80
587.15	46634.30
587.34	55772.33
587.54	60900.45
587.73	55616.69
587.93	39249.32
588.12	29924.92
588.31	23879.32
588.51	20977.34
588.70	19230.43
588.89	17233.66
589.09	14833.44
589.28	12951.35
589.47	10637.15
589.67	8116.10
589.86	6336.42
590.06	4681.66
590.25	3946.44
590.44	3203.02
590.64	2830.29
590.83	2613.21
591.02	2527.19
591.22	2324.44
591.41	2439.13
591.60	2318.30
591.80	2584.54
591.99	2170.85
592.18	2285.53
592.38	2363.36
592.57	2326.49
592.76	2353.12
592.96	2297.82
593.15	2320.35
593.34	2396.12
593.54	2236.38
593.73	2332.64
593.92	2301.92
594.12	2435.03
594.31	2320.35
594.50	2404.32
594.70	2336.73
594.89	2611.16
595.08	2187.23
595.28	2295.77
595.47	2670.55
595.66	2351.07
595.86	2123.74
596.05	2297.82
596.24	2265.05
596.43	2478.04
596.63	2459.61
596.82	2252.77
597.01	2377.69
597.21	2494.43
597.40	2291.68
597.59	2349.02
597.79	2314.20
597.98	2336.73
598.17	2394.08
598.36	2312.16
598.56	2326.49
598.75	2293.72
598.94	2295.77
599.14	2316.25
599.33	2224.09
599.52	2371.55
599.71	2220.00
599.91	2414.56
600.10	2322.40
600.29	2201.57
600.48	2293.72
600.68	2293.72
600.87	2365.40
601.06	2248.67
601.26	2267.10
601.45	2318.30
601.64	2267.10
601.83	2365.40
602.03	2277.34
602.22	2125.79
602.41	2371.55
602.60	2541.53
602.80	2324.44
602.99	2271.20
603.18	2236.38
603.37	2338.78
603.57	2289.63
603.76	2340.83
603.95	2469.85
604.14	2236.38
604.34	2238.43
604.53	2244.57
604.72	2269.15
604.91	2291.68
605.10	2267.10
605.30	2111.46
605.49	2432.99
605.68	2359.26
605.87	2260.96
606.07	2228.19
606.26	2275.29
606.45	2250.72
606.64	2256.86
606.84	2242.53
607.03	2383.84
607.22	2396.12
607.41	2330.59
607.60	2203.61
607.80	2455.51
607.99	2246.62
608.18	2283.49
608.37	2285.53
608.56	2170.85
608.76	2424.80
608.95	2455.51
609.14	2400.22
609.33	2424.80
609.52	2443.23
609.72	2389.98
609.91	2437.08
610.10	2324.44
610.29	2342.88
610.48	2258.91
610.68	2267.10
610.87	2250.72
611.06	2283.49
611.25	2277.34
611.44	2492.38
611.63	2283.49
611.83	2371.55
612.02	2267.10
612.21	2281.44
612.40	2072.54
612.59	2181.09
612.79	2142.18
612.98	2277.34
613.17	2367.45
613.36	2265.05
613.55	2430.94
613.74	2379.74
613.93	2416.60
614.13	2535.39
614.32	2527.19
614.51	2443.23
614.70	2383.84
614.89	2271.20
615.08	2367.45
615.28	2783.19
615.47	2201.57
615.66	2410.46
615.85	2314.20
616.04	2461.66
616.23	2355.16
616.42	2340.83
616.62	2332.64
616.81	2295.77
617.00	2252.77
617.19	2342.88
617.38	2250.72
617.57	2318.30
617.76	2326.49
617.95	2377.69
618.15	2308.06
618.34	2349.02
618.53	2211.81
618.72	2416.60
618.91	2359.26
619.10	2355.16
619.29	2252.77
619.48	2277.34
619.68	2211.81
619.87	2213.85
620.06	2125.79
620.25	2340.83
620.44	2144.22
620.63	2179.04
620.82	2252.77
621.01	2273.25
621.20	2242.53
621.39	2295.77
621.59	2389.98
621.78	2277.34
621.97	2248.67
622.16	2273.25
622.35	2244.57
622.54	2367.45
622.73	2326.49
622.92	2168.80
623.11	2363.36
623.30	2291.68
623.49	2322.40
623.68	2242.53
623.88	2375.64
624.07	2215.90
624.26	2230.24
624.45	2252.77
624.64	2156.51
624.83	2297.82
625.02	2240.48
625.21	2240.48
625.40	2361.31
625.59	2455.51
625.78	2277.34
625.97	2369.50
626.16	2389.98
626.35	2465.75
626.54	2318.30
626.74	2412.51
626.93	2351.07
627.12	2291.68
627.31	2373.60
627.50	2365.40
627.69	2445.27
627.88	2232.29
628.07	2256.86
628.26	2191.33
628.45	2236.38
628.64	2213.85
628.83	2295.77
629.02	2045.92
629.21	2293.72
629.40	2242.53
629.59	2248.67
629.78	2232.29
629.97	2310.11
630.16	2285.53
630.35	2242.53
630.54	2260.96
630.73	2228.19
630.92	2224.09
631.11	2185.18
631.30	2281.44
631.49	2273.25
631.68	2215.90
631.87	2297.82
632.06	2176.99
632.25	2506.71
632.44	2279.39
632.63	2314.20
632.82	2281.44
633.01	2269.15
633.20	2394.08
633.39	2346.97
633.58	2220.00
633.77	2340.83
633.96	2279.39
634.15	2326.49
634.34	2400.22
634.53	2250.72
634.72	2213.85
634.91	2156.51
635.10	2248.67
635.29	2375.64
635.48	2220.00
635.67	2195.42
635.86	2154.46
636.05	2383.84
636.24	2293.72
636.43	2297.82
636.62	2326.49
636.81	2023.39
637.00	2281.44
637.19	2250.72
637.38	2316.25
637.57	2228.19
637.76	2297.82
637.95	2412.51
638.14	2291.68
638.33	2373.60
638.52	2326.49
638.71	2267.10
638.89	2213.85
639.08	2482.14
639.27	2443.23
639.46	2498.52
639.65	2744.28
639.84	2867.16
640.03	2918.36
640.22	2916.31
640.41	2951.12
640.60	2504.67
640.79	2498.52
640.98	2441.18
641.17	2529.24
641.36	2334.68
641.55	2455.51
641.74	2308.06
641.92	2283.49
642.11	2181.09
642.30	2320.35
642.49	2207.71
642.68	2211.81
642.87	2351.07
643.06	2316.25
643.25	2213.85
643.44	2176.99
643.63	2197.47
643.82	2293.72
644.00	2203.61
644.19	2232.29
644.38	2140.13
644.57	2340.83
644.76	2330.59
644.95	2248.67
645.14	2236.38
645.33	2258.91
645.52	2260.96
645.71	2168.80
645.89	2209.76
646.08	2220.00
646.27	2150.37
646.46	2402.27
646.65	2099.17
646.84	2265.05
647.03	2170.85
647.22	2398.17
647.40	2238.43
647.59	2195.42
647.78	2123.74
647.97	2136.03
648.16	2168.80
648.35	2420.70
648.54	2408.41
648.73	2199.52
648.91	2363.36
649.10	2297.82
649.29	2277.34
649.48	2281.44
649.67	2293.72
649.86	2285.53
650.05	2346.97
650.23	2428.89
650.42	2287.58
650.61	2486.23
650.80	2392.03
650.99	2471.90
651.18	2473.95
651.36	2377.69
651.55	2265.05
651.74	2392.03
651.93	2248.67
652.12	2301.92
652.31	2375.64
652.49	2242.53
652.68	2211.81
652.87	2482.14
653.06	2322.40
653.25	2443.23
653.44	2256.86
653.62	2428.89
653.81	2267.10
654.00	2295.77
654.19	2400.22
654.38	2588.63
654.56	2283.49
654.75	2236.38
654.94	2400.22
655.13	2267.10
655.32	2260.96
655.51	2299.87
655.69	2244.57
655.88	2379.74
656.07	2142.18
656.26	2293.72
656.45	2158.56
656.63	2213.85
656.82	2244.57
657.01	2371.55
657.20	2252.77
657.38	2365.40
657.57	2252.77
657.76	2183.13
657.95	2400.22
658.14	2213.85
658.32	2254.81
658.51	2119.65
658.70	2281.44
658.89	2211.81
659.08	2351.07
659.26	2400.22
659.45	2131.94
659.64	2402.27
659.83	2242.53
660.01	2574.30
660.20	2250.72
660.39	2469.85
660.58	2101.22
660.76	2328.54
660.95	2160.61
661.14	2248.67
661.33	2160.61
661.51	2299.87
661.70	2265.05
661.89	2336.73
662.08	2283.49
662.26	2109.41
662.45	2144.22
662.64	2471.90
662.83	2338.78
663.01	2103.26
663.20	2185.18
663.39	2461.66
663.58	2250.72
663.76	2246.62
663.95	2338.78
664.14	2133.98
664.32	2195.42
664.51	2144.22
664.70	2117.60
664.89	2314.20
665.07	2209.76
665.26	2334.68
665.45	2160.61
665.64	2428.89
665.82	2174.94
666.01	2357.21
666.20	2254.81
666.38	2328.54
666.57	2381.79
666.76	3434.44
666.95	8140.68
667.13	16084.75
667.32	21253.82
667.51	24379.02
667.69	26547.82
667.88	24172.18
668.07	17168.12
668.25	13881.13
668.44	11409.23
668.63	9817.96
668.81	8658.81
669.00	7739.27
669.19	6913.94
669.38	6006.69
669.56	5048.24
669.75	4317.12
669.94	3721.16
670.12	3157.97
670.31	2818.00
670.50	2654.17
670.68	2549.72
670.87	2437.08
671.06	2273.25
671.24	2342.88
671.43	2502.62
671.62	2351.07
671.80	2254.81
671.99	2396.12
672.18	2412.51
672.36	2295.77
672.55	2265.05
672.74	2277.34
672.92	2240.48
673.11	2336.73
673.29	2129.89
673.48	2351.07
673.67	2220.00
673.85	2291.68
674.04	2187.23
674.23	2306.01
674.41	2373.60
674.60	2164.70
674.79	2160.61
674.97	2185.18
675.16	2357.21
675.34	2418.65
675.53	2172.89
675.72	2293.72
675.90	2445.27
676.09	2306.01
676.28	2285.53
676.46	2088.93
676.65	2326.49
676.83	2125.79
677.02	2256.86
677.21	2203.61
677.39	2228.19
677.58	2224.09
677.77	2234.33
677.95	2244.57
678.14	2301.92
678.32	2250.72
678.51	2162.66
678.70	2437.08
678.88	2127.84
679.07	2248.67
679.25	2273.25
679.44	2236.38
679.63	2154.46
679.81	2349.02
680.00	2383.84
680.18	2336.73
680.37	2381.79
680.55	2215.90
680.74	2183.13
680.93	2056.16
681.11	2293.72
681.30	2250.72
681.48	2256.86
681.67	2277.34
681.85	2293.72
682.04	2252.77
682.23	2389.98
682.41	2252.77
682.60	2240.48
682.78	2312.16
682.97	2160.61
683.15	2226.14
683.34	2351.07
683.53	2318.30
683.71	2131.94
683.90	2435.03
684.08	2365.40
684.27	2131.94
684.45	2338.78
684.64	2389.98
684.82	2234.33
685.01	2281.44
685.19	2213.85
685.38	2383.84
685.57	2299.87
685.75	2244.57
685.94	2193.37
686.12	2152.42
686.31	2244.57
686.49	2482.14
686.68	2090.98
686.86	2281.44
687.05	2228.19
687.23	2385.88
687.42	2193.37
687.60	2138.08
687.79	2308.06
687.97	2455.51
688.16	2324.44
688.34	2373.60
688.53	2060.26
688.71	2232.29
688.90	2439.13
689.08	2246.62
689.27	2084.83
689.45	2316.25
689.64	2357.21
689.82	2322.40
690.01	2267.10
690.19	2256.86
690.38	2308.06
690.56	2408.41
690.75	2133.98
690.93	2158.56
691.12	2156.51
691.30	2234.33
691.49	2228.19
691.67	2201.57
691.86	2533.34
692.04	2287.58
692.23	2203.61
692.41	2260.96
692.60	2512.86
692.78	2435.03
692.97	2258.91
693.15	2424.80
693.34	2414.56
693.52	2416.60
693.71	2236.38
693.89	2281.44
694.08	2158.56
694.26	2281.44
694.44	2281.44
694.63	2310.11
694.81	2244.57
695.00	2148.32
695.18	2318.30
695.37	2478.04
695.55	2285.53
695.74	2242.53
695.92	2187.23
696.10	2379.74
696.29	2179.04
696.47	2215.90
696.66	2088.93
696.84	2250.72
697.03	2291.68
697.21	2428.89
697.40	3401.68
697.58	2353.12
697.76	2174.94
697.95	2136.03
698.13	2168.80
698.32	2203.61
698.50	2185.18
698.68	2215.90
698.87	2277.34
699.05	2439.13
699.24	2277.34
699.42	2187.23
699.61	2252.77
699.79	2310.11
699.97	2244.57
700.16	2152.42
700.34	2162.66
700.53	2297.82
700.71	2367.45
700.89	2306.01
701.08	2220.00
701.26	2248.67
701.45	2807.77
701.63	2203.61
701.81	2193.37
702.00	2228.19
702.18	2265.05
702.37	2267.10
702.55	2467.80
702.73	2543.58
702.92	2412.51
703.10	2514.91
703.28	2473.95
703.47	2293.72
703.65	2459.61
703.84	2392.03
704.02	2336.73
704.20	2392.03
704.39	2236.38
704.57	2250.72
704.75	2363.36
704.94	2424.80
705.12	2424.80
705.30	2613.21
705.49	4577.21
705.67	10411.87
705.86	18173.67
706.04	22036.14
706.22	24718.98
706.41	25726.58
706.59	21978.80
706.77	15427.35
706.96	12918.59
707.14	11392.85
707.32	9731.95
707.51	8849.27
707.69	7241.62
707.87	5865.38
708.06	4765.62
708.24	3891.14
708.42	3274.70
708.61	3033.04
708.79	2449.37
708.97	2408.41
709.16	2367.45
709.34	2367.45
709.52	2289.63
709.71	2301.92
709.89	2383.84
710.07	2250.72
710.26	2224.09
710.44	2203.61
710.62	2353.12
710.80	2265.05
710.99	2310.11
711.17	2291.68
711.35	2213.85
711.54	2211.81
711.72	2353.12
711.90	2363.36
712.09	2273.25
712.27	2162.66
712.45	2459.61
712.63	2244.57
712.82	2234.33
713.00	2250.72
713.18	2310.11
713.37	2326.49
713.55	2344.92
713.73	2367.45
713.91	2297.82
714.10	2203.61
714.28	2228.19
714.46	2367.45
714.65	2285.53
714.83	2316.25
715.01	2291.68
715.19	2297.82
715.38	2232.29
715.56	2299.87
715.74	2185.18
715.92	2185.18
716.11	2351.07
716.29	2074.59
716.47	2236.38
716.65	2236.38
716.84	2088.93
717.02	2338.78
717.20	2109.41
717.38	2236.38
717.57	2287.58
717.75	2281.44
717.93	2236.38
718.11	2318.30
718.30	2109.41
718.48	2265.05
718.66	2424.80
718.84	2342.88
719.03	2318.30
719.21	2199.52
719.39	2355.16
719.57	2310.11
719.75	2303.96
719.94	2136.03
720.12	2275.29
720.30	2258.91
720.48	2336.73
720.67	2154.46
720.85	2146.27
721.03	2185.18
721.21	2146.27
721.39	2355.16
721.58	2285.53
721.76	2328.54
721.94	2260.96
722.12	2314.20
722.30	2475.99
722.49	2183.13
722.67	2244.57
722.85	2176.99
723.03	2121.70
723.21	2158.56
723.40	2224.09
723.58	2381.79
723.76	2291.68
723.94	2416.60
724.12	2351.07
724.30	2402.27
724.49	2349.02
724.67	2115.55
724.85	2316.25
725.03	2166.75
725.21	2306.01
725.40	2359.26
725.58	2217.95
725.76	2387.93
725.94	2355.16
726.12	2195.42
726.30	2211.81
726.49	2256.86
726.67	2201.57
726.85	2250.72
727.03	2559.96
727.21	3596.23
727.39	5035.96
727.57	5877.67
727.76	6442.91
727.94	6657.95
728.12	6320.03
728.30	5085.11
728.48	4446.14
728.66	4128.70
728.84	3739.59
729.03	3397.58
729.21	2944.98
729.39	2752.47
729.57	2410.46
729.75	2375.64
729.93	2408.41
730.11	2232.29
730.30	2217.95
730.48	2269.15
730.66	2338.78
730.84	2349.02
731.02	2211.81
731.20	2267.10
731.38	2275.29
731.56	2121.70
731.74	2076.64
731.93	2258.91
732.11	2277.34
732.29	2250.72
732.47	2373.60
732.65	2217.95
732.83	2359.26
733.01	2310.11
733.19	2176.99
733.37	2306.01
733.56	2301.92
733.74	2236.38
733.92	2385.88
734.10	2226.14
734.28	2244.57
734.46	2140.13
734.64	2162.66
734.82	2258.91
735.00	2211.81
735.18	2224.09
735.36	2240.48
735.54	2191.33
735.73	2246.62
735.91	2209.76
736.09	2334.68
736.27	2265.05
736.45	2310.11
736.63	2103.26
736.81	2203.61
736.99	2310.11
737.17	2318.30
737.35	2269.15
737.53	2224.09
737.71	2209.76
737.89	2422.75
738.07	2152.42
738.25	2232.29
738.43	2140.13
738.61	2205.66
738.80	2080.74
738.98	2168.80
739.16	2230.24
739.34	2234.33
739.52	2467.80
739.70	2252.77
739.88	2293.72
740.06	2365.40
740.24	1994.72
740.42	2392.03
740.60	2072.54
740.78	2232.29
740.96	2111.46
741.14	2205.66
741.32	2297.82
741.50	2168.80
741.68	2504.67
741.86	2387.93
742.04	2084.83
742.22	2129.89
742.40	2265.05
742.58	2285.53
742.76	2203.61
742.94	2365.40
743.12	2062.30
743.30	2244.57
743.48	2256.86
743.66	2283.49
743.84	2340.83
744.02	2244.57
744.20	2295.77
744.38	2170.85
744.56	2179.04
744.74	2492.38
744.92	2316.25
745.10	2414.56
745.28	2289.63
745.46	2439.13
745.64	2244.57
745.82	2291.68
746.00	2179.04
746.18	2326.49
746.36	2217.95
746.54	2252.77
746.72	2195.42
746.90	2181.09
747.08	2349.02
747.26	2236.38
747.44	2310.11
747.62	2338.78
747.80	2342.88
747.98	2308.06
748.15	2185.18
748.33	2467.80
748.51	2238.43
748.69	2422.75
748.87	2215.90
749.05	2267.10
749.23	2301.92
749.41	2211.81
749.59	2252.77
749.77	2351.07
749.95	2263.01
750.13	2246.62
750.31	2281.44
750.49	2220.00
750.67	2387.93
750.85	2418.65
751.03	2250.72
751.20	2531.29
751.38	2263.01
751.56	2217.95
751.74	2277.34
751.92	2217.95
752.10	2160.61
752.28	2277.34
752.46	2179.04
752.64	2228.19
752.82	2314.20
753.00	2383.84
753.18	2189.28
753.35	2228.19
753.53	2244.57
753.71	2203.61
753.89	2377.69
754.07	2226.14
754.25	2326.49
754.43	2260.96
754.61	2152.42
754.79	2334.68
754.97	2228.19
755.14	2355.16
755.32	2146.27
755.50	2308.06
755.68	2324.44
755.86	2133.98
756.04	2179.04
756.22	2168.80
756.40	2281.44
756.57	2420.70
756.75	2236.38
756.93	2346.97
757.11	2404.32
757.29	2146.27
757.47	2129.89
757.65	2142.18
757.82	2000.87
758.00	2105.31
758.18	2172.89
758.36	2121.70
758.54	2406.36
758.72	2050.02
758.90	2289.63
759.07	2334.68
759.25	2168.80
759.43	2301.92
759.61	2070.50
759.79	3149.78
759.97	2342.88
760.15	2267.10
760.32	2236.38
760.50	2267.10
760.68	2504.67
760.86	2127.84
761.04	2387.93
761.22	2303.96
761.39	2277.34
761.57	2295.77
761.75	2226.14
761.93	2326.49
762.11	2187.23
762.28	2273.25
762.46	2121.70
762.64	2334.68
762.82	2125.79
763.00	2162.66
763.18	2367.45
763.35	2209.76
763.53	2353.12
763.71	2275.29
763.89	2205.66
764.07	2271.20
764.24	2254.81
764.42	2346.97
764.60	2209.76
764.78	2279.39
764.96	2338.78
765.13	2301.92
765.31	2197.47
765.49	2332.64
765.67	2101.22
765.84	2097.12
766.02	2187.23
766.20	2115.55
766.38	2256.86
766.56	2301.92
766.73	2260.96
766.91	2293.72
767.09	2244.57
767.27	2291.68
767.44	2199.52
767.62	2287.58
767.80	2314.20
767.98	2201.57
768.15	2222.05
768.33	2316.25
768.51	2404.32
768.69	2332.64
768.87	2283.49
769.04	2283.49
769.22	2510.81
769.40	2424.80
769.58	2494.43
769.75	2301.92
769.93	2400.22
770.11	2277.34
770.28	2152.42
770.46	2328.54
770.64	2281.44
770.82	2226.14
770.99	2199.52
771.17	2299.87
771.35	2281.44
771.53	2211.81
771.70	2234.33
771.88	2293.72
772.06	2189.28
772.23	2252.77
772.41	2330.59
772.59	2267.10
772.77	2150.37
772.94	2265.05
773.12	2273.25
773.30	2256.86
773.47	2324.44
773.65	2203.61
773.83	2404.32
774.01	2273.25
774.18	2000.87
774.36	2191.33
774.54	2103.26
774.71	2410.46
774.89	2133.98
775.07	2150.37
775.24	2240.48
775.42	2246.62
775.60	2443.23
775.78	2217.95
775.95	2107.36
776.13	2117.60
776.31	2052.06
776.48	2250.72
776.66	2408.41
776.84	2185.18
777.01	2129.89
777.19	2168.80
777.37	2154.46
777.54	2275.29
777.72	2428.89
777.90	2306.01
778.07	2193.37
778.25	2619.35
778.43	2338.78
778.60	2142.18
778.78	2342.88
778.96	2367.45
779.13	2088.93
779.31	2215.90
779.49	2232.29
779.66	2359.26
779.84	2244.57
780.01	2240.48
780.19	2189.28
780.37	2441.18
780.54	2344.92
780.72	2207.71
780.90	2207.71
781.07	2283.49
781.25	2156.51
781.43	2269.15
781.60	2232.29
781.78	2342.88
781.95	2316.25
782.13	2162.66
782.31	2244.57
782.48	2068.45
782.66	2308.06
782.83	2435.03
783.01	2332.64
783.19	2371.55
783.36	2226.14
783.54	2181.09
783.72	2318.30
783.89	2207.71
784.07	2230.24
784.24	2314.20
784.42	2349.02
784.60	2240.48
784.77	2289.63
784.95	2123.74
785.12	2170.85
785.30	2224.09
785.47	2150.37
785.65	2187.23
785.83	2211.81
786.00	2152.42
786.18	2299.87
786.35	2105.31
786.53	2195.42
786.71	2342.88
786.88	2379.74
787.06	2293.72
787.23	2267.10
787.41	2160.61
787.58	2236.38
787.76	2183.13
787.94	2258.91
788.11	2236.38
788.29	2260.96
788.46	2246.62
788.64	2084.83
788.81	2152.42
788.99	2187.23
789.16	2117.60
789.34	2236.38
789.52	2154.46
789.69	2217.95
789.87	2088.93
790.04	2281.44
790.22	2226.14
790.39	2467.80
790.57	2205.66
790.74	2189.28
790.92	2299.87
791.09	2101.22
791.27	2250.72
791.44	2389.98
791.62	2273.25
791.79	2351.07
791.97	2211.81
792.15	2598.87
792.32	2379.74
792.50	2355.16
792.67	2408.41
792.85	2351.07
793.02	2301.92
793.20	2250.72
793.37	2056.16
793.55	2179.04
793.72	2095.07
793.90	2361.31
794.07	2127.84
794.25	2129.89
794.42	2193.37
794.60	2277.34
794.77	2293.72
794.95	2383.84
795.12	2318.30
795.30	2224.09
795.47	2080.74
795.65	2478.04
795.82	2373.60
796.00	2232.29
796.17	2162.66
796.34	2240.48
796.52	2242.53
796.69	2334.68
796.87	2244.57
797.04	2308.06
797.22	2312.16
797.39	2326.49
797.57	2430.94
797.74	2252.77
797.92	2291.68
798.09	2228.19
798.27	2373.60
798.44	2154.46
798.62	2150.37
798.79	2293.72
798.96	2299.87
799.14	2207.71
799.31	2455.51
799.49	2285.53
799.66	2181.09
799.84	2254.81
800.01	2170.85
800.19	2299.87
800.36	2127.84
800.53	2187.23
800.71	2301.92
800.88	2447.32
801.06	2095.07
801.23	2187.23
801.41	2181.09
801.58	2166.75
801.75	2088.93
801.93	2236.38
802.10	2301.92
802.28	2277.34
802.45	2203.61
802.63	2334.68
802.80	2467.80
802.97	2236.38
803.15	2344.92
803.32	2174.94
803.50	2131.94
803.67	2207.71
803.84	2201.57
804.02	2230.24
804.19	2179.04
804.37	2088.93
804.54	2138.08
804.71	2226.14
804.89	2297.82
805.06	2129.89
805.24	2191.33
805.41	2179.04
805.58	2203.61
805.76	2465.75
805.93	2256.86
806.10	2449.37
806.28	2308.06
806.45	2310.11
806.63	2258.91
806.80	2244.57
806.97	2228.19
807.15	2316.25
807.32	2275.29
807.49	2267.10
807.67	2088.93
807.84	2283.49
808.01	2031.58
808.19	2400.22
808.36	2459.61
808.54	2201.57
808.71	2127.84
808.88	2193.37
809.06	2346.97
809.23	2344.92
809.40	2154.46
809.58	2310.11
809.75	2256.86
809.92	2166.75
810.10	2422.75
810.27	2236.38
810.44	2275.29
810.62	2324.44
810.79	2269.15
810.96	2185.18
811.14	2199.52
811.31	2260.96
811.48	2342.88
811.66	2250.72
811.83	2310.11
812.00	2342.88
812.18	2355.16
812.35	2435.03
812.52	2220.00
812.69	2220.00
812.87	2209.76
813.04	2109.41
813.21	2293.72
813.39	2144.22
813.56	2179.04
813.73	2258.91
813.91	2058.21
814.08	2301.92
814.25	2222.05
814.42	2097.12
814.60	2203.61
814.77	2285.53
814.94	2244.57
815.12	2236.38
815.29	2435.03
815.46	2179.04
815.63	2260.96
815.81	2209.76
815.98	2248.67
816.15	2269.15
816.33	2217.95
816.50	2275.29
816.67	2252.77
816.84	2228.19
817.02	2109.41
817.19	2215.90
817.36	2258.91
817.53	2238.43
817.71	2170.85
817.88	2361.31
818.05	2162.66
818.22	2248.67
818.40	2387.93
818.57	2183.13
818.74	2244.57
818.91	2267.10
819.09	2258.91
819.26	2328.54
819.43	2195.42
819.60	2183.13
819.78	2260.96
819.95	2355.16
820.12	2136.03
820.29	2492.38
820.47	2326.49
820.64	2140.13
820.81	2105.31
820.98	2117.60
821.15	2246.62
821.33	2351.07
821.50	2121.70
821.67	2377.69
821.84	2193.37
822.02	2215.90
822.19	2389.98
822.36	2258.91
822.53	2236.38
822.70	2133.98
822.88	2258.91
823.05	2420.70
823.22	2240.48
823.39	2226.14
823.56	2238.43
823.74	2508.76
823.91	2111.46
824.08	2220.00
824.25	2131.94
824.42	2334.68
824.60	2189.28
824.77	2287.58
824.94	2256.86
825.11	2256.86
825.28	2031.58
825.45	2297.82
825.63	2230.24
825.80	2195.42
825.97	2336.73
826.14	2240.48
826.31	2156.51
826.48	2299.87
826.66	2265.05
826.83	2152.42
827.00	2193.37
827.17	2226.14
827.34	2193.37
827.51	2199.52
827.69	2211.81
827.86	2162.66
828.03	2217.95
828.20	2215.90
828.37	2179.04
828.54	2316.25
828.71	2244.57
828.89	2396.12
829.06	2211.81
829.23	2406.36
829.40	2170.85
829.57	2152.42
829.74	2385.88
829.91	2201.57
830.09	2195.42
830.26	2293.72
830.43	2340.83
830.60	2256.86
830.77	2316.25
830.94	2414.56
831.11	2389.98
831.28	2246.62
831.46	2299.87
831.63	2170.85
831.80	2359.26
831.97	2174.94
832.14	2181.09
832.31	2275.29
832.48	2250.72
832.65	2400.22
832.82	2240.48
832.99	2238.43
833.17	2129.89
833.34	2379.74
833.51	2228.19
833.68	2097.12
833.85	2254.81
834.02	2140.13
834.19	2187.23
834.36	2158.56
834.53	2318.30
834.70	2285.53
834.87	2371.55
835.04	2158.56
835.22	2211.81
835.39	2203.61
835.56	2097.12
835.73	2160.61
835.90	2320.35
836.07	2111.46
836.24	2271.20
836.41	2166.75
836.58	2185.18
836.75	2281.44
836.92	2260.96
837.09	2203.61
837.26	2332.64
837.43	2234.33
837.60	2234.33
837.77	2248.67
837.94	2355.16
838.12	2363.36
838.29	2176.99
838.46	2029.54
838.63	2174.94
838.80	2392.03
838.97	2267.10
839.14	2215.90
839.31	2222.05
839.48	2322.40
839.65	2211.81
839.82	2224.09
839.99	2273.25
840.16	2211.81
840.33	2236.38
840.50	2234.33
840.67	2203.61
840.84	1953.76
841.01	2217.95
841.18	2195.42
841.35	2162.66
841.52	2291.68
841.69	2412.51
841.86	2269.15
842.03	2201.57
842.20	2351.07
842.37	2256.86
842.54	2234.33
842.71	2215.90
842.88	2189.28
843.05	2222.05
843.22	2215.90
843.39	2336.73
843.56	2248.67
843.73	2203.61
843.90	2220.00
844.07	2207.71
844.24	2342.88
844.41	2295.77
844.58	2213.85
844.75	2185.18
844.92	2238.43
845.09	2211.81
845.26	2201.57
845.43	2322.40
845.60	2174.94
845.77	2293.72
845.94	2230.24
846.10	2318.30
846.27	2111.46
846.44	2174.94
846.61	2107.36
846.78	2316.25
846.95	2291.68
847.12	2203.61
847.29	2119.65
847.46	2138.08
847.63	2351.07
847.80	2156.51
847.97	2213.85
848.14	2457.56
848.31	2303.96
848.48	2095.07
848.65	2170.85
848.82	2185.18
848.98	2437.08
849.15	2308.06
849.32	2332.64
849.49	2293.72
849.66	2238.43
849.83	2234.33
850.00	2220.00
850.17	2334.68
850.34	2207.71
850.51	2203.61
850.68	2185.18
850.85	2435.03
851.01	2242.53
851.18	2238.43
851.35	2240.48
851.52	2334.68
851.69	2394.08
851.86	2129.89
852.03	2105.31
852.20	2342.88
852.37	2234.33
852.53	2111.46
852.70	2220.00
852.87	2301.92
853.04	2318.30
853.21	2195.42
853.38	2342.88
853.55	2406.36
853.72	2367.45
853.89	2154.46
854.05	2160.61
854.22	2168.80
854.39	2187.23
854.56	2133.98
854.73	2267.10
854.90	2209.76
855.07	2156.51
855.23	2101.22
855.40	2246.62
855.57	2265.05
855.74	2045.92
855.91	2449.37
856.08	2154.46
856.25	2129.89
856.41	2301.92
856.58	2152.42
856.75	2242.53
856.92	2113.50
857.09	2322.40
857.26	2029.54
857.42	2179.04
857.59	2267.10
857.76	2170.85
857.93	2193.37
858.10	2308.06
858.27	2142.18
858.43	2293.72
858.60	2160.61
858.77	2068.45
858.94	2164.70
859.11	2279.39
859.27	2183.13
859.44	2150.37
859.61	2496.47
859.78	2230.24
859.95	2127.84
860.12	2187.23
860.28	2465.75
860.45	2404.32
860.62	2121.70
860.79	2236.38
860.95	2220.00
861.12	2152.42
861.29	2187.23
861.46	2109.41
861.63	2172.89
861.79	2244.57
861.96	2121.70
862.13	2142.18
862.30	2392.03
862.47	2197.47
862.63	2127.84
862.80	2267.10
862.97	2254.81
863.14	2267.10
863.30	2244.57
863.47	2113.50
863.64	2439.13
863.81	2224.09
863.97	2136.03
864.14	2244.57
864.31	2240.48
864.48	2322.40
864.65	2142.18
864.81	2322.40
864.98	2308.06
865.15	2351.07
865.32	2271.20
865.48	2234.33
865.65	2443.23
865.82	2263.01
865.98	2314.20
866.15	2330.59
866.32	2217.95
866.49	2176.99
866.65	2357.21
866.82	2144.22
866.99	2244.57
867.16	2195.42
867.32	2191.33
867.49	2150.37
867.66	2217.95
867.83	2283.49
867.99	2156.51
868.16	2142.18
868.33	2164.70
868.49	2250.72
868.66	2203.61
868.83	2291.68
868.99	2187.23
869.16	2283.49
869.33	2215.90
869.50	2246.62
869.66	2285.53
869.83	2281.44
870.00	2142.18
870.16	2316.25
870.33	2271.20
870.50	2389.98
870.66	2199.52
870.83	2297.82
871.00	2256.86
871.17	2215.90
871.33	2256.86
871.50	2244.57
871.67	2228.19
871.83	2152.42
872.00	2283.49
872.17	2195.42
872.33	2449.37
872.50	2389.98
872.67	2154.46
872.83	2129.89
873.00	2349.02
873.17	2234.33
873.33	2213.85
873.50	2275.29
873.67	2121.70
873.83	2154.46
874.00	2213.85
874.16	2326.49
874.33	2209.76
874.50	2158.56
874.66	2324.44
874.83	2271.20
875.00	2398.17
875.16	2351.07
875.33	2252.77
875.50	2052.06
875.66	2195.42
875.83	2277.34
875.99	2277.34
876.16	2199.52
876.33	2193.37
876.49	2260.96
876.66	2279.39
876.83	2234.33
876.99	2080.74
877.16	2203.61
877.32	2191.33
877.49	2213.85
877.66	2267.10
877.82	2324.44
877.99	2244.57
878.15	2295.77
878.32	2252.77
878.49	2263.01
878.65	2228.19
878.82	2377.69
878.98	2250.72
879.15	2357.21
879.32	2244.57
879.48	2359.26
879.65	2162.66
879.81	2215.90
879.98	2162.66
880.15	2203.61
880.31	2332.64
880.48	2174.94
880.64	2340.83
880.81	2322.40
880.97	2445.27
881.14	2383.84
881.31	2203.61
881.47	2367.45
881.64	2228.19
881.80	2095.07
881.97	2297.82
882.13	2273.25
882.30	2146.27
882.47	2179.04
882.63	2193.37
882.80	2215.90
882.96	2203.61
883.13	2426.84
883.29	2158.56
883.46	2170.85
883.62	2519.00
883.79	2263.01
883.95	2297.82
884.12	2248.67
884.29	2334.68
884.45	2377.69
884.62	2250.72
884.78	2121.70
884.95	2387.93
885.11	2162.66
885.28	2273.25
885.44	2076.64
885.61	2250.72
885.77	2379.74
885.94	2267.10
886.10	2238.43
886.27	2248.67
886.43	2432.99
886.60	2330.59
886.76	2215.90
886.93	2154.46
887.09	2240.48
887.26	2050.02
887.42	2168.80
887.59	2346.97
887.75	2465.75
887.92	2340.83
888.08	2240.48
888.25	2404.32
888.41	2342.88
888.58	2195.42
888.74	2164.70
888.91	2211.81
>>>>>End Processed Spectral Data<<<<<
