SpectraSuite Data File
++++++++++++++++++++++++++++++++++++
Date: Thu May 05 13:21:32 CEST 2016
User: root
Dark Spectrum Present: No
Reference Spectrum Present: No
Number of Sampled Component Spectra: 1
Spectrometers: USB4C02835
Integration Time (usec): 100000 (USB4C02835)
Spectra Averaged: 1 (USB4C02835)
Boxcar Smoothing: 0 (USB4C02835)
Correct for Electrical Dark: No (USB4C02835)
Strobe/Lamp Enabled: No (USB4C02835)
Correct for Detector Non-linearity: No (USB4C02835)
Correct for Stray Light: No (USB4C02835)
Number of Pixels in Processed Spectrum: 3648
>>>>>Begin Processed Spectral Data<<<<<
177.47	1834.98
177.69	1834.98
177.91	1834.98
178.13	1722.34
178.36	1808.36
178.58	2133.98
178.80	2287.58
179.02	2127.84
179.24	2136.03
179.46	2136.03
179.68	2228.19
179.90	2228.19
180.13	2252.77
180.35	2090.98
180.57	2244.57
180.79	2301.92
181.01	2279.39
181.23	2242.53
181.45	2295.77
181.67	2463.71
181.90	2351.07
182.12	2101.22
182.34	2052.06
182.56	2277.34
182.78	2334.68
183.00	2164.70
183.22	2260.96
183.44	2084.83
183.66	2574.30
183.89	2369.50
184.11	2232.29
184.33	2289.63
184.55	2381.79
184.77	2183.13
184.99	2236.38
185.21	2207.71
185.43	2551.77
185.65	2160.61
185.87	2203.61
186.10	2523.10
186.32	2463.71
186.54	2318.30
186.76	2195.42
186.98	2273.25
187.20	2181.09
187.42	2136.03
187.64	2174.94
187.86	2248.67
188.08	2273.25
188.30	2148.32
188.52	2154.46
188.75	2416.60
188.97	2318.30
189.19	2189.28
189.41	2125.79
189.63	2260.96
189.85	2193.37
190.07	2045.92
190.29	2115.55
190.51	2303.96
190.73	2117.60
190.95	2299.87
191.17	2189.28
191.39	2129.89
191.61	2260.96
191.84	2111.46
192.06	2293.72
192.28	2113.50
192.50	2588.63
192.72	2193.37
192.94	2191.33
193.16	2260.96
193.38	2269.15
193.60	2138.08
193.82	2191.33
194.04	2385.88
194.26	2383.84
194.48	2287.58
194.70	2131.94
194.92	2187.23
195.14	2346.97
195.36	2127.84
195.58	2258.91
195.80	2236.38
196.02	2267.10
196.24	2129.89
196.46	2179.04
196.69	2170.85
196.91	2512.86
197.13	2197.47
197.35	2189.28
197.57	2439.13
197.79	2254.81
198.01	2226.14
198.23	2254.81
198.45	2349.02
198.67	2095.07
198.89	2160.61
199.11	2248.67
199.33	2187.23
199.55	2062.30
199.77	2123.74
199.99	2222.05
200.21	2207.71
200.43	2314.20
200.65	2103.26
200.87	2047.97
201.09	2260.96
201.31	2269.15
201.53	2191.33
201.75	2240.48
201.97	2238.43
202.19	2234.33
202.41	2203.61
202.63	2285.53
202.85	2303.96
203.07	2330.59
203.29	2152.42
203.51	2103.26
203.73	2113.50
203.95	2572.25
204.17	2226.14
204.39	2240.48
204.61	2301.92
204.83	2273.25
205.05	2299.87
205.27	2228.19
205.49	2488.28
205.71	2232.29
205.93	2131.94
206.15	2179.04
206.37	2373.60
206.59	2224.09
206.81	2127.84
207.03	2119.65
207.25	2207.71
207.47	2285.53
207.69	2193.37
207.91	2310.11
208.13	2514.91
208.34	2176.99
208.56	2131.94
208.78	2213.85
209.00	2293.72
209.22	2263.01
209.44	2242.53
209.66	2172.89
209.88	2215.90
210.10	2236.38
210.32	2174.94
210.54	2310.11
210.76	2187.23
210.98	2381.79
211.20	2080.74
211.42	2228.19
211.64	2326.49
211.86	2252.77
212.08	2285.53
212.30	2242.53
212.52	2252.77
212.74	2271.20
212.96	2236.38
213.17	2250.72
213.39	2312.16
213.61	2445.27
213.83	2136.03
214.05	2185.18
214.27	2357.21
214.49	2154.46
214.71	2150.37
214.93	2271.20
215.15	2252.77
215.37	2263.01
215.59	2158.56
215.81	2254.81
216.03	2316.25
216.24	2303.96
216.46	2215.90
216.68	2170.85
216.90	2295.77
217.12	2328.54
217.34	2193.37
217.56	2209.76
217.78	2351.07
218.00	2322.40
218.22	2273.25
218.44	2236.38
218.66	2265.05
218.87	2428.89
219.09	2154.46
219.31	2193.37
219.53	2220.00
219.75	2250.72
219.97	2213.85
220.19	2220.00
220.41	2299.87
220.63	2451.42
220.85	2150.37
221.06	2187.23
221.28	2396.12
221.50	2353.12
221.72	2203.61
221.94	2162.66
222.16	2342.88
222.38	2285.53
222.60	2136.03
222.82	2254.81
223.03	2328.54
223.25	2113.50
223.47	2185.18
223.69	2351.07
223.91	2334.68
224.13	2318.30
224.35	2088.93
224.57	2246.62
224.78	2252.77
225.00	2189.28
225.22	2191.33
225.44	2146.27
225.66	2332.64
225.88	2154.46
226.10	2256.86
226.32	2172.89
226.53	2373.60
226.75	2183.13
226.97	2183.13
227.19	2207.71
227.41	2220.00
227.63	2252.77
227.85	1994.72
228.06	2185.18
228.28	2269.15
228.50	2361.31
228.72	2072.54
228.94	2187.23
229.16	2078.69
229.37	2160.61
229.59	2140.13
229.81	2392.03
230.03	2203.61
230.25	2148.32
230.47	2109.41
230.69	2133.98
230.90	2318.30
231.12	2185.18
231.34	2250.72
231.56	2224.09
231.78	2127.84
232.00	2299.87
232.21	2136.03
232.43	2199.52
232.65	2019.30
232.87	2277.34
233.09	2146.27
233.30	2158.56
233.52	2297.82
233.74	2113.50
233.96	2133.98
234.18	2179.04
234.40	2195.42
234.61	2484.19
234.83	2129.89
235.05	2056.16
235.27	2545.63
235.49	2340.83
235.70	2142.18
235.92	2299.87
236.14	2310.11
236.36	2455.51
236.58	2123.74
236.79	2240.48
237.01	2263.01
237.23	2187.23
237.45	2328.54
237.67	2179.04
237.88	2248.67
238.10	2426.84
238.32	2039.78
238.54	2197.47
238.76	2242.53
238.97	2232.29
239.19	2168.80
239.41	2187.23
239.63	2328.54
239.85	2199.52
240.06	2205.66
240.28	2209.76
240.50	2375.64
240.72	2244.57
240.93	2154.46
241.15	2254.81
241.37	2170.85
241.59	2441.18
241.81	2195.42
242.02	2185.18
242.24	2326.49
242.46	2357.21
242.68	2107.36
242.89	2213.85
243.11	2326.49
243.33	2203.61
243.55	2162.66
243.76	2256.86
243.98	2199.52
244.20	2248.67
244.42	2183.13
244.64	2238.43
244.85	2113.50
245.07	2107.36
245.29	2207.71
245.51	2172.89
245.72	2310.11
245.94	2375.64
246.16	2234.33
246.38	2277.34
246.59	2195.42
246.81	2172.89
247.03	2207.71
247.24	2007.01
247.46	2176.99
247.68	2191.33
247.90	2152.42
248.11	2133.98
248.33	2416.60
248.55	2254.81
248.77	2209.76
248.98	2242.53
249.20	2342.88
249.42	2355.16
249.64	2191.33
249.85	2209.76
250.07	2181.09
250.29	2250.72
250.50	2275.29
250.72	2123.74
250.94	2324.44
251.16	2494.43
251.37	2269.15
251.59	2246.62
251.81	2306.01
252.02	2400.22
252.24	2095.07
252.46	2306.01
252.68	2154.46
252.89	2168.80
253.11	2103.26
253.33	2320.35
253.54	2365.40
253.76	2080.74
253.98	2148.32
254.20	2174.94
254.41	2129.89
254.63	2308.06
254.85	2027.49
255.06	2248.67
255.28	2236.38
255.50	2166.75
255.71	2146.27
255.93	2070.50
256.15	2260.96
256.36	2357.21
256.58	2136.03
256.80	2076.64
257.02	2203.61
257.23	2176.99
257.45	2170.85
257.67	2285.53
257.88	2258.91
258.10	2277.34
258.32	2187.23
258.53	2234.33
258.75	2494.43
258.97	2160.61
259.18	2195.42
259.40	2138.08
259.62	2482.14
259.83	2334.68
260.05	2230.24
260.27	2684.89
260.48	2404.32
260.70	2164.70
260.92	2148.32
261.13	2193.37
261.35	2314.20
261.57	2351.07
261.78	2058.21
262.00	2191.33
262.22	2301.92
262.43	2187.23
262.65	2183.13
262.86	2213.85
263.08	2488.28
263.30	2308.06
263.51	2121.70
263.73	2105.31
263.95	2398.17
264.16	2176.99
264.38	2131.94
264.60	2193.37
264.81	2203.61
265.03	2322.40
265.25	2324.44
265.46	2183.13
265.68	2443.23
265.89	2289.63
266.11	2076.64
266.33	2228.19
266.54	2316.25
266.76	2357.21
266.98	2285.53
267.19	2263.01
267.41	2355.16
267.62	2213.85
267.84	2039.78
268.06	2244.57
268.27	2267.10
268.49	2406.36
268.70	2222.05
268.92	2164.70
269.14	2228.19
269.35	2142.18
269.57	2201.57
269.79	2201.57
270.00	2224.09
270.22	2414.56
270.43	2133.98
270.65	2043.87
270.87	2324.44
271.08	2346.97
271.30	2189.28
271.51	2174.94
271.73	2258.91
271.95	2422.75
272.16	2142.18
272.38	2195.42
272.59	2220.00
272.81	2310.11
273.02	2156.51
273.24	2217.95
273.46	2383.84
273.67	2119.65
273.89	2097.12
274.10	2097.12
274.32	2437.08
274.54	2207.71
274.75	2269.15
274.97	2250.72
275.18	2369.50
275.40	2226.14
275.61	2199.52
275.83	2316.25
276.05	2160.61
276.26	2197.47
276.48	2303.96
276.69	2254.81
276.91	2240.48
277.12	2396.12
277.34	2344.92
277.55	2273.25
277.77	2269.15
277.99	2236.38
278.20	2185.18
278.42	2136.03
278.63	2191.33
278.85	2213.85
279.06	2127.84
279.28	2240.48
279.49	2375.64
279.71	2281.44
279.93	2285.53
280.14	2195.42
280.36	2205.66
280.57	2308.06
280.79	2285.53
281.00	2148.32
281.22	2234.33
281.43	2426.84
281.65	2097.12
281.86	2152.42
282.08	2230.24
282.29	2441.18
282.51	2111.46
282.73	2142.18
282.94	2068.45
283.16	2318.30
283.37	2318.30
283.59	2232.29
283.80	2279.39
284.02	2260.96
284.23	2240.48
284.45	2191.33
284.66	2195.42
284.88	2136.03
285.09	2199.52
285.31	2293.72
285.52	2269.15
285.74	2152.42
285.95	2260.96
286.17	2330.59
286.38	2324.44
286.60	2215.90
286.81	2209.76
287.03	2295.77
287.24	2244.57
287.46	2318.30
287.67	2226.14
287.89	2387.93
288.10	2277.34
288.32	2207.71
288.53	2392.03
288.75	2303.96
288.96	2301.92
289.18	2228.19
289.39	2160.61
289.61	2351.07
289.82	2465.75
290.04	2473.95
290.25	2119.65
290.47	2193.37
290.68	2232.29
290.90	2330.59
291.11	2090.98
291.33	2371.55
291.54	2207.71
291.76	2230.24
291.97	2291.68
292.18	2344.92
292.40	2181.09
292.61	2203.61
292.83	2422.75
293.04	2224.09
293.26	2246.62
293.47	2224.09
293.69	2076.64
293.90	2119.65
294.12	2389.98
294.33	2273.25
294.55	2234.33
294.76	2363.36
294.97	2400.22
295.19	2566.10
295.40	2146.27
295.62	2324.44
295.83	2344.92
296.05	2207.71
296.26	2383.84
296.48	2121.70
296.69	2303.96
296.90	2230.24
297.12	2332.64
297.33	2349.02
297.55	2285.53
297.76	2277.34
297.98	2385.88
298.19	2236.38
298.41	2234.33
298.62	2269.15
298.83	2402.27
299.05	2287.58
299.26	2228.19
299.48	2176.99
299.69	2252.77
299.90	2228.19
300.12	2152.42
300.33	2283.49
300.55	2263.01
300.76	2220.00
300.98	2211.81
301.19	2293.72
301.40	2203.61
301.62	2230.24
301.83	2310.11
302.05	2203.61
302.26	2267.10
302.47	2273.25
302.69	2166.75
302.90	2265.05
303.12	2086.88
303.33	2238.43
303.54	2519.00
303.76	2215.90
303.97	2191.33
304.19	2375.64
304.40	2154.46
304.61	2312.16
304.83	2314.20
305.04	2336.73
305.26	2285.53
305.47	2199.52
305.68	2242.53
305.90	2166.75
306.11	2392.03
306.33	2232.29
306.54	2228.19
306.75	2226.14
306.97	2121.70
307.18	2189.28
307.39	2224.09
307.61	2308.06
307.82	2265.05
308.04	2291.68
308.25	2127.84
308.46	2228.19
308.68	2275.29
308.89	2275.29
309.10	2416.60
309.32	2220.00
309.53	2367.45
309.74	2375.64
309.96	2187.23
310.17	2332.64
310.39	2162.66
310.60	2289.63
310.81	2181.09
311.03	2113.50
311.24	2277.34
311.45	2295.77
311.67	2408.41
311.88	2220.00
312.09	2183.13
312.31	2129.89
312.52	2234.33
312.73	2176.99
312.95	2170.85
313.16	2179.04
313.37	2432.99
313.59	2299.87
313.80	2258.91
314.01	2416.60
314.23	2267.10
314.44	2060.26
314.65	2113.50
314.87	2211.81
315.08	2166.75
315.29	2187.23
315.51	2166.75
315.72	2060.26
315.93	2375.64
316.15	2301.92
316.36	2230.24
316.57	2275.29
316.79	2306.01
317.00	2260.96
317.21	2283.49
317.43	2152.42
317.64	2273.25
317.85	2242.53
318.07	2236.38
318.28	2244.57
318.49	2340.83
318.70	2457.56
318.92	2379.74
319.13	2414.56
319.34	2439.13
319.56	2332.64
319.77	2412.51
319.98	2396.12
320.20	2383.84
320.41	2306.01
320.62	2332.64
320.83	2154.46
321.05	2510.81
321.26	2254.81
321.47	2303.96
321.69	2408.41
321.90	2074.59
322.11	2209.76
322.32	2244.57
322.54	2367.45
322.75	2209.76
322.96	2627.54
323.18	2080.74
323.39	2029.54
323.60	2150.37
323.81	2355.16
324.03	2140.13
324.24	2213.85
324.45	2301.92
324.66	2189.28
324.88	2422.75
325.09	2379.74
325.30	2195.42
325.52	2226.14
325.73	2375.64
325.94	2095.07
326.15	2080.74
326.37	2140.13
326.58	2330.59
326.79	2408.41
327.00	2162.66
327.22	2154.46
327.43	2174.94
327.64	2142.18
327.85	2269.15
328.07	2211.81
328.28	2457.56
328.49	2250.72
328.70	2265.05
328.92	2195.42
329.13	2236.38
329.34	2316.25
329.55	2478.04
329.76	2322.40
329.98	2260.96
330.19	2369.50
330.40	2267.10
330.61	2260.96
330.83	2349.02
331.04	2211.81
331.25	2256.86
331.46	2299.87
331.68	2187.23
331.89	2351.07
332.10	2258.91
332.31	2121.70
332.52	2203.61
332.74	2449.37
332.95	2133.98
333.16	2260.96
333.37	2326.49
333.58	2265.05
333.80	2250.72
334.01	2035.68
334.22	2203.61
334.43	2176.99
334.64	2187.23
334.86	2133.98
335.07	2101.22
335.28	2383.84
335.49	2099.17
335.70	2211.81
335.92	2349.02
336.13	2484.19
336.34	2269.15
336.55	2287.58
336.76	2285.53
336.98	2060.26
337.19	2217.95
337.40	2363.36
337.61	2498.52
337.82	2174.94
338.04	2326.49
338.25	2105.31
338.46	2252.77
338.67	2228.19
338.88	2179.04
339.09	2164.70
339.31	2232.29
339.52	2088.93
339.73	2166.75
339.94	2277.34
340.15	2283.49
340.36	2138.08
340.58	2232.29
340.79	2185.18
341.00	2260.96
341.21	2138.08
341.42	2359.26
341.63	2232.29
341.85	2277.34
342.06	2267.10
342.27	2213.85
342.48	2342.88
342.69	2105.31
342.90	2269.15
343.12	2326.49
343.33	2242.53
343.54	2355.16
343.75	2432.99
343.96	2306.01
344.17	2160.61
344.38	2240.48
344.60	2195.42
344.81	2136.03
345.02	2207.71
345.23	2445.27
345.44	2473.95
345.65	2246.62
345.86	2242.53
346.07	2293.72
346.29	2224.09
346.50	2226.14
346.71	2263.01
346.92	2365.40
347.13	2396.12
347.34	2277.34
347.55	2097.12
347.76	2269.15
347.98	2121.70
348.19	2211.81
348.40	2359.26
348.61	2201.57
348.82	2439.13
349.03	2318.30
349.24	2156.51
349.45	2443.23
349.66	2068.45
349.88	2244.57
350.09	2133.98
350.30	2389.98
350.51	2375.64
350.72	2326.49
350.93	2193.37
351.14	2185.18
351.35	2328.54
351.56	2228.19
351.77	2260.96
351.99	2287.58
352.20	2381.79
352.41	2318.30
352.62	2002.91
352.83	2234.33
353.04	2265.05
353.25	2113.50
353.46	2303.96
353.67	2414.56
353.88	1996.77
354.09	2267.10
354.30	2263.01
354.52	2342.88
354.73	2228.19
354.94	2170.85
355.15	2232.29
355.36	2447.32
355.57	2203.61
355.78	2252.77
355.99	2187.23
356.20	2179.04
356.41	2383.84
356.62	2369.50
356.83	2211.81
357.04	2416.60
357.25	2070.50
357.46	2236.38
357.68	2125.79
357.89	2121.70
358.10	2308.06
358.31	2248.67
358.52	2236.38
358.73	2088.93
358.94	2136.03
359.15	2187.23
359.36	2303.96
359.57	2297.82
359.78	2150.37
359.99	2330.59
360.20	2152.42
360.41	2252.77
360.62	2375.64
360.83	2215.90
361.04	2250.72
361.25	2293.72
361.46	2449.37
361.67	2260.96
361.88	2275.29
362.09	2441.18
362.30	2295.77
362.51	2228.19
362.72	2236.38
362.93	2318.30
363.14	2357.21
363.35	2207.71
363.56	2187.23
363.78	2359.26
363.99	2379.74
364.20	2138.08
364.41	2254.81
364.62	2408.41
364.83	2285.53
365.04	2213.85
365.25	2240.48
365.46	2514.91
365.67	2097.12
365.88	2228.19
366.09	2183.13
366.30	2220.00
366.51	2308.06
366.72	2215.90
366.93	2168.80
367.14	2242.53
367.35	2383.84
367.56	2240.48
367.77	2365.40
367.98	2269.15
368.18	2322.40
368.39	2330.59
368.60	2170.85
368.81	2387.93
369.02	2330.59
369.23	2236.38
369.44	2078.69
369.65	2260.96
369.86	2363.36
370.07	2281.44
370.28	2160.61
370.49	2283.49
370.70	2291.68
370.91	2162.66
371.12	2131.94
371.33	2389.98
371.54	2197.47
371.75	2383.84
371.96	2047.97
372.17	2310.11
372.38	2250.72
372.59	2314.20
372.80	2133.98
373.01	2293.72
373.22	2244.57
373.43	2271.20
373.64	2125.79
373.85	2455.51
374.06	2408.41
374.26	2277.34
374.47	2291.68
374.68	2445.27
374.89	2328.54
375.10	2224.09
375.31	2303.96
375.52	2293.72
375.73	2291.68
375.94	2101.22
376.15	2324.44
376.36	2224.09
376.57	2244.57
376.78	2179.04
376.99	2226.14
377.20	2353.12
377.40	2191.33
377.61	2375.64
377.82	2064.35
378.03	2428.89
378.24	2238.43
378.45	2254.81
378.66	2224.09
378.87	2160.61
379.08	2152.42
379.29	2220.00
379.50	2389.98
379.71	2283.49
379.91	2318.30
380.12	2193.37
380.33	2176.99
380.54	2293.72
380.75	2281.44
380.96	2170.85
381.17	2336.73
381.38	2308.06
381.59	2400.22
381.80	2326.49
382.00	2435.03
382.21	2394.08
382.42	2371.55
382.63	2525.15
382.84	2328.54
383.05	2420.70
383.26	2439.13
383.47	2269.15
383.68	2301.92
383.88	2273.25
384.09	2232.29
384.30	2435.03
384.51	2351.07
384.72	2273.25
384.93	2138.08
385.14	2258.91
385.35	2365.40
385.55	2148.32
385.76	2334.68
385.97	2211.81
386.18	2201.57
386.39	2084.83
386.60	2260.96
386.81	2215.90
387.02	2205.66
387.22	2158.56
387.43	2287.58
387.64	2365.40
387.85	2359.26
388.06	2484.19
388.27	4063.17
388.48	8216.45
388.68	11720.53
388.89	13854.51
389.10	15062.81
389.31	14024.49
389.52	10870.62
389.73	9459.57
389.93	8517.50
390.14	8099.72
390.35	7194.51
390.56	6381.47
390.77	5226.42
390.98	4065.22
391.18	3268.56
391.39	2756.57
391.60	2428.89
391.81	2447.32
392.02	2234.33
392.23	2486.23
392.43	2320.35
392.64	2332.64
392.85	2265.05
393.06	2457.56
393.27	2398.17
393.47	2238.43
393.68	2273.25
393.89	2166.75
394.10	2371.55
394.31	2121.70
394.52	2183.13
394.72	2185.18
394.93	2482.14
395.14	2131.94
395.35	2306.01
395.56	2236.38
395.76	2283.49
395.97	2342.88
396.18	2475.99
396.39	2400.22
396.60	2637.78
396.80	2502.62
397.01	2424.80
397.22	2404.32
397.43	2465.75
397.64	2195.42
397.84	2346.97
398.05	2553.82
398.26	2330.59
398.47	2332.64
398.67	2340.83
398.88	2316.25
399.09	2265.05
399.30	2150.37
399.51	2273.25
399.71	2209.76
399.92	2256.86
400.13	2301.92
400.34	2228.19
400.54	2228.19
400.75	2392.03
400.96	2265.05
401.17	2383.84
401.37	2340.83
401.58	2232.29
401.79	2256.86
402.00	2437.08
402.21	2650.07
402.41	2576.34
402.62	2709.46
402.83	2748.37
403.04	2627.54
403.24	2873.30
403.45	2408.41
403.66	2457.56
403.87	2437.08
404.07	2508.76
404.28	2486.23
404.49	2531.29
404.70	2428.89
404.90	2453.47
405.11	2375.64
405.32	2285.53
405.52	2197.47
405.73	2230.24
405.94	2121.70
406.15	2277.34
406.35	2306.01
406.56	2269.15
406.77	2228.19
406.98	2269.15
407.18	2146.27
407.39	2441.18
407.60	2193.37
407.80	2291.68
408.01	2129.89
408.22	2250.72
408.43	2170.85
408.63	2330.59
408.84	2383.84
409.05	2357.21
409.25	2170.85
409.46	2191.33
409.67	2244.57
409.88	2258.91
410.08	2267.10
410.29	2179.04
410.50	2301.92
410.70	2334.68
410.91	2138.08
411.12	2332.64
411.32	2267.10
411.53	2146.27
411.74	2318.30
411.95	2324.44
412.15	2326.49
412.36	2394.08
412.57	2418.65
412.77	2404.32
412.98	2334.68
413.19	2244.57
413.39	2324.44
413.60	2217.95
413.81	2377.69
414.01	2150.37
414.22	2271.20
414.43	2277.34
414.63	2285.53
414.84	2361.31
415.05	2244.57
415.25	2172.89
415.46	2293.72
415.67	2256.86
415.87	2308.06
416.08	2179.04
416.29	2201.57
416.49	2314.20
416.70	2199.52
416.91	2242.53
417.11	2236.38
417.32	2357.21
417.53	2275.29
417.73	2285.53
417.94	2250.72
418.15	2301.92
418.35	2240.48
418.56	2260.96
418.77	2521.05
418.97	2267.10
419.18	2179.04
419.38	1996.77
419.59	2244.57
419.80	2469.85
420.00	2168.80
420.21	2260.96
420.42	2441.18
420.62	2238.43
420.83	2217.95
421.04	2199.52
421.24	2271.20
421.45	2363.36
421.65	2258.91
421.86	2199.52
422.07	2310.11
422.27	2310.11
422.48	2238.43
422.69	2195.42
422.89	2293.72
423.10	2238.43
423.30	2244.57
423.51	2240.48
423.72	2287.58
423.92	2334.68
424.13	2152.42
424.33	2269.15
424.54	2367.45
424.75	2203.61
424.95	2383.84
425.16	2316.25
425.36	2232.29
425.57	2379.74
425.78	2269.15
425.98	2351.07
426.19	2267.10
426.39	2056.16
426.60	2306.01
426.81	2392.03
427.01	2211.81
427.22	2207.71
427.42	2084.83
427.63	2166.75
427.83	2306.01
428.04	2385.88
428.25	2375.64
428.45	2334.68
428.66	2342.88
428.86	2342.88
429.07	2174.94
429.28	2236.38
429.48	2291.68
429.69	2187.23
429.89	2244.57
430.10	2107.36
430.30	2269.15
430.51	2369.50
430.71	2119.65
430.92	2236.38
431.13	2179.04
431.33	2342.88
431.54	2195.42
431.74	2418.65
431.95	2484.19
432.15	2189.28
432.36	2244.57
432.56	2277.34
432.77	2498.52
432.98	2439.13
433.18	2203.61
433.39	2207.71
433.59	2244.57
433.80	2449.37
434.00	2484.19
434.21	2258.91
434.41	2146.27
434.62	2478.04
434.82	2160.61
435.03	2164.70
435.23	2342.88
435.44	2113.50
435.64	2250.72
435.85	2283.49
436.06	2342.88
436.26	2283.49
436.47	2297.82
436.67	2193.37
436.88	2258.91
437.08	2371.55
437.29	2392.03
437.49	2179.04
437.70	2398.17
437.90	2306.01
438.11	2461.66
438.31	2351.07
438.52	2486.23
438.72	2449.37
438.93	2539.48
439.13	2396.12
439.34	2392.03
439.54	2295.77
439.75	2394.08
439.95	2351.07
440.16	2150.37
440.36	2383.84
440.57	2310.11
440.77	2275.29
440.98	2269.15
441.18	2371.55
441.39	2195.42
441.59	2097.12
441.80	2494.43
442.00	2230.24
442.21	2367.45
442.41	2172.89
442.62	2363.36
442.82	2179.04
443.02	2217.95
443.23	2293.72
443.43	2310.11
443.64	2400.22
443.84	2224.09
444.05	2408.41
444.25	2291.68
444.46	2209.76
444.66	2291.68
444.87	2430.94
445.07	2078.69
445.28	2187.23
445.48	2375.64
445.69	2322.40
445.89	2519.00
446.09	2289.63
446.30	2549.72
446.50	2832.34
446.71	4425.66
446.91	5619.63
447.12	6221.73
447.32	6604.70
447.53	6152.10
447.73	5167.03
447.93	4648.89
448.14	4218.82
448.34	4102.08
448.55	3495.88
448.75	3653.58
448.96	3416.01
449.16	3020.75
449.36	2842.58
449.57	2572.25
449.77	2432.99
449.98	2260.96
450.18	2367.45
450.39	2297.82
450.59	2306.01
450.79	2263.01
451.00	2226.14
451.20	2324.44
451.41	2289.63
451.61	2297.82
451.81	2273.25
452.02	2199.52
452.22	2209.76
452.43	2263.01
452.63	2224.09
452.84	2220.00
453.04	2158.56
453.24	2293.72
453.45	2162.66
453.65	2195.42
453.86	2263.01
454.06	2265.05
454.26	2260.96
454.47	2142.18
454.67	2359.26
454.87	2389.98
455.08	2242.53
455.28	2373.60
455.49	2324.44
455.69	2138.08
455.89	2441.18
456.10	2301.92
456.30	2226.14
456.51	2353.12
456.71	2240.48
456.91	2273.25
457.12	2228.19
457.32	2283.49
457.52	2211.81
457.73	2332.64
457.93	2324.44
458.14	2230.24
458.34	2125.79
458.54	2187.23
458.75	2263.01
458.95	2355.16
459.15	2287.58
459.36	2306.01
459.56	2301.92
459.76	2562.01
459.97	2267.10
460.17	2256.86
460.37	2404.32
460.58	2273.25
460.78	2422.75
460.99	2166.75
461.19	2312.16
461.39	2246.62
461.60	2275.29
461.80	2308.06
462.00	2107.36
462.21	2267.10
462.41	2160.61
462.61	2131.94
462.82	2107.36
463.02	2332.64
463.22	2246.62
463.43	2398.17
463.63	2293.72
463.83	2424.80
464.04	2398.17
464.24	2269.15
464.44	2287.58
464.64	2340.83
464.85	2353.12
465.05	2373.60
465.25	2289.63
465.46	2263.01
465.66	2328.54
465.86	2285.53
466.07	2275.29
466.27	2156.51
466.47	2209.76
466.68	2125.79
466.88	2437.08
467.08	2312.16
467.29	2418.65
467.49	2281.44
467.69	2277.34
467.89	2367.45
468.10	2199.52
468.30	2310.11
468.50	2330.59
468.71	2349.02
468.91	2193.37
469.11	2392.03
469.31	2279.39
469.52	2260.96
469.72	2332.64
469.92	2463.71
470.13	2256.86
470.33	2258.91
470.53	2359.26
470.73	2637.78
470.94	2969.55
471.14	3174.35
471.34	3549.13
471.54	3440.59
471.75	3080.14
471.95	2867.16
472.15	2760.66
472.36	2797.53
472.56	2662.36
472.76	2768.85
472.96	2680.79
473.17	2535.39
473.37	2531.29
473.57	2260.96
473.77	2361.31
473.98	2283.49
474.18	2197.47
474.38	2578.39
474.58	2273.25
474.79	2140.13
474.99	2322.40
475.19	2351.07
475.39	2220.00
475.60	2252.77
475.80	2306.01
476.00	2187.23
476.20	2222.05
476.41	2277.34
476.61	2306.01
476.81	2412.51
477.01	2209.76
477.21	2402.27
477.42	2332.64
477.62	2207.71
477.82	2353.12
478.02	2250.72
478.23	2332.64
478.43	2133.98
478.63	2228.19
478.83	2224.09
479.03	2275.29
479.24	2406.36
479.44	2449.37
479.64	2220.00
479.84	2154.46
480.04	2140.13
480.25	2379.74
480.45	2121.70
480.65	2277.34
480.85	2453.47
481.06	2201.57
481.26	2342.88
481.46	2306.01
481.66	2328.54
481.86	2228.19
482.06	2398.17
482.27	2258.91
482.47	2232.29
482.67	2256.86
482.87	2166.75
483.07	2293.72
483.28	2189.28
483.48	2160.61
483.68	2250.72
483.88	2084.83
484.08	2093.02
484.29	2107.36
484.49	2250.72
484.69	2195.42
484.89	2367.45
485.09	2344.92
485.29	2287.58
485.50	2324.44
485.70	2351.07
485.90	2471.90
486.10	2306.01
486.30	2291.68
486.50	2383.84
486.71	2324.44
486.91	2369.50
487.11	2410.46
487.31	2082.78
487.51	2330.59
487.71	2160.61
487.91	2156.51
488.12	2160.61
488.32	2021.35
488.52	2228.19
488.72	2144.22
488.92	2246.62
489.12	2406.36
489.32	2342.88
489.53	2277.34
489.73	2209.76
489.93	2463.71
490.13	2185.18
490.33	2156.51
490.53	2306.01
490.73	2392.03
490.94	2068.45
491.14	2340.83
491.34	2342.88
491.54	2555.86
491.74	3200.98
491.94	3829.70
492.14	3930.05
492.34	4085.70
492.54	3899.33
492.75	3309.52
492.95	3221.45
493.15	2973.65
493.35	2973.65
493.55	2783.19
493.75	2699.22
493.95	2668.50
494.15	2494.43
494.35	2447.32
494.56	2334.68
494.76	2273.25
494.96	2285.53
495.16	2318.30
495.36	2306.01
495.56	2258.91
495.76	2209.76
495.96	2224.09
496.16	2244.57
496.36	2406.36
496.56	2179.04
496.77	2236.38
496.97	2310.11
497.17	2375.64
497.37	2095.07
497.57	2316.25
497.77	2289.63
497.97	2160.61
498.17	2246.62
498.37	2256.86
498.57	2353.12
498.77	2185.18
498.97	2351.07
499.17	2484.19
499.38	2289.63
499.58	2326.49
499.78	2338.78
499.98	2379.74
500.18	2269.15
500.38	2230.24
500.58	2523.10
500.78	2766.81
500.98	5224.37
501.18	7196.56
501.38	8828.79
501.58	9723.76
501.78	9596.78
501.98	7628.68
502.18	6490.01
502.38	5463.98
502.58	5109.68
502.78	4634.55
502.98	4534.20
503.18	4165.57
503.38	3850.18
503.59	3430.35
503.79	3307.47
503.99	2944.98
504.19	2856.92
504.39	2729.94
504.59	2803.67
504.79	2854.87
504.99	2861.01
505.19	2535.39
505.39	2441.18
505.59	2674.65
505.79	2471.90
505.99	2455.51
506.19	2367.45
506.39	2471.90
506.59	2275.29
506.79	2287.58
506.99	2381.79
507.19	2379.74
507.39	2258.91
507.59	2150.37
507.79	2232.29
507.99	2185.18
508.19	2277.34
508.39	2220.00
508.59	2265.05
508.79	2396.12
508.99	2447.32
509.19	2170.85
509.39	2375.64
509.59	2174.94
509.79	2252.77
509.99	2332.64
510.19	2375.64
510.39	2365.40
510.59	2283.49
510.79	2230.24
510.99	2179.04
511.19	2242.53
511.39	2457.56
511.59	2281.44
511.79	2342.88
511.99	2301.92
512.19	2441.18
512.38	2301.92
512.58	2209.76
512.78	2185.18
512.98	2402.27
513.18	2334.68
513.38	2144.22
513.58	2375.64
513.78	2244.57
513.98	2269.15
514.18	2207.71
514.38	2181.09
514.58	2283.49
514.78	2162.66
514.98	2160.61
515.18	2230.24
515.38	2172.89
515.58	2510.81
515.78	2176.99
515.98	2197.47
516.18	2387.93
516.38	2209.76
516.57	2220.00
516.77	2209.76
516.97	2267.10
517.17	2207.71
517.37	2082.78
517.57	2351.07
517.77	2289.63
517.97	2224.09
518.17	2273.25
518.37	2197.47
518.57	2185.18
518.77	2234.33
518.97	2187.23
519.16	2238.43
519.36	2349.02
519.56	2213.85
519.76	2263.01
519.96	2166.75
520.16	2406.36
520.36	2170.85
520.56	2363.36
520.76	2252.77
520.96	2197.47
521.16	2326.49
521.35	2310.11
521.55	2475.99
521.75	2320.35
521.95	2295.77
522.15	2277.34
522.35	2142.18
522.55	2224.09
522.75	2344.92
522.95	2197.47
523.14	2138.08
523.34	2314.20
523.54	2258.91
523.74	2332.64
523.94	2340.83
524.14	2142.18
524.34	2361.31
524.54	2414.56
524.73	2297.82
524.93	2412.51
525.13	2252.77
525.33	2230.24
525.53	2562.01
525.73	2404.32
525.93	2193.37
526.13	2179.04
526.32	2209.76
526.52	2353.12
526.72	2267.10
526.92	2267.10
527.12	2267.10
527.32	2121.70
527.52	2400.22
527.71	2260.96
527.91	2162.66
528.11	2203.61
528.31	2326.49
528.51	2154.46
528.71	2293.72
528.90	2318.30
529.10	2371.55
529.30	2353.12
529.50	2021.35
529.70	2211.81
529.90	2332.64
530.09	2224.09
530.29	2166.75
530.49	2185.18
530.69	2596.82
530.89	2334.68
531.09	2279.39
531.28	2248.67
531.48	2310.11
531.68	2244.57
531.88	2387.93
532.08	2416.60
532.28	2220.00
532.47	2293.72
532.67	2361.31
532.87	2318.30
533.07	2209.76
533.27	2291.68
533.46	2369.50
533.66	2240.48
533.86	2240.48
534.06	2279.39
534.26	2250.72
534.45	2275.29
534.65	2322.40
534.85	2385.88
535.05	2275.29
535.25	2385.88
535.44	2131.94
535.64	2363.36
535.84	2269.15
536.04	2285.53
536.24	2269.15
536.43	2203.61
536.63	2306.01
536.83	2301.92
537.03	2281.44
537.22	2160.61
537.42	2086.88
537.62	2248.67
537.82	2254.81
538.02	2414.56
538.21	2414.56
538.41	2602.97
538.61	2330.59
538.81	2273.25
539.00	2324.44
539.20	2142.18
539.40	2269.15
539.60	2242.53
539.79	2381.79
539.99	2228.19
540.19	2154.46
540.39	2273.25
540.58	2293.72
540.78	2389.98
540.98	2293.72
541.18	2387.93
541.37	2293.72
541.57	2252.77
541.77	2363.36
541.97	2211.81
542.16	2115.55
542.36	2207.71
542.56	2236.38
542.76	2428.89
542.95	2387.93
543.15	2338.78
543.35	2351.07
543.54	2209.76
543.74	2195.42
543.94	2265.05
544.14	2127.84
544.33	2346.97
544.53	2234.33
544.73	2244.57
544.93	2203.61
545.12	2281.44
545.32	2367.45
545.52	2275.29
545.71	2179.04
545.91	2213.85
546.11	2289.63
546.30	2250.72
546.50	2256.86
546.70	2267.10
546.90	2242.53
547.09	2187.23
547.29	2211.81
547.49	2283.49
547.68	2269.15
547.88	2179.04
548.08	2297.82
548.27	2699.22
548.47	2127.84
548.67	2195.42
548.87	2295.77
549.06	2179.04
549.26	2273.25
549.46	2324.44
549.65	2234.33
549.85	2299.87
550.05	2277.34
550.24	2105.31
550.44	2248.67
550.64	2246.62
550.83	2314.20
551.03	2437.08
551.23	2346.97
551.42	2293.72
551.62	2189.28
551.82	2234.33
552.01	2244.57
552.21	2371.55
552.41	2195.42
552.60	2432.99
552.80	2301.92
553.00	2285.53
553.19	2238.43
553.39	2447.32
553.59	2183.13
553.78	2279.39
553.98	2293.72
554.17	2193.37
554.37	2324.44
554.57	2369.50
554.76	2105.31
554.96	2138.08
555.16	2297.82
555.35	2291.68
555.55	2244.57
555.75	2293.72
555.94	2332.64
556.14	2070.50
556.33	2285.53
556.53	2285.53
556.73	2303.96
556.92	2273.25
557.12	2449.37
557.32	2480.09
557.51	2387.93
557.71	2336.73
557.90	2392.03
558.10	2424.80
558.30	2162.66
558.49	2334.68
558.69	2330.59
558.88	2330.59
559.08	2297.82
559.28	2256.86
559.47	2220.00
559.67	2301.92
559.86	2465.75
560.06	2240.48
560.26	2248.67
560.45	2349.02
560.65	2230.24
560.84	2389.98
561.04	2258.91
561.24	2383.84
561.43	2191.33
561.63	2426.84
561.82	2236.38
562.02	2322.40
562.22	2310.11
562.41	2160.61
562.61	2238.43
562.80	2207.71
563.00	2484.19
563.19	2252.77
563.39	2320.35
563.59	2310.11
563.78	2220.00
563.98	2129.89
564.17	2125.79
564.37	2099.17
564.56	2230.24
564.76	2117.60
564.96	2439.13
565.15	2324.44
565.35	2510.81
565.54	2301.92
565.74	2330.59
565.93	2338.78
566.13	2240.48
566.32	2318.30
566.52	2318.30
566.71	2312.16
566.91	2357.21
567.11	2271.20
567.30	2158.56
567.50	2326.49
567.69	2301.92
567.89	2269.15
568.08	2232.29
568.28	2346.97
568.47	2162.66
568.67	2346.97
568.86	2191.33
569.06	2375.64
569.25	2293.72
569.45	2127.84
569.64	2246.62
569.84	2269.15
570.04	2332.64
570.23	2179.04
570.43	2244.57
570.62	2340.83
570.82	2467.80
571.01	2138.08
571.21	2176.99
571.40	2152.42
571.60	2379.74
571.79	2283.49
571.99	2299.87
572.18	2185.18
572.38	2301.92
572.57	2224.09
572.77	2363.36
572.96	2564.06
573.16	2203.61
573.35	2228.19
573.55	2332.64
573.74	2379.74
573.94	2273.25
574.13	2254.81
574.33	2326.49
574.52	2412.51
574.71	2328.54
574.91	2377.69
575.10	2115.55
575.30	2293.72
575.49	2201.57
575.69	2156.51
575.88	2322.40
576.08	2295.77
576.27	2408.41
576.47	2406.36
576.66	2492.38
576.86	2514.91
577.05	2383.84
577.25	2308.06
577.44	2430.94
577.64	2220.00
577.83	2420.70
578.02	2357.21
578.22	2424.80
578.41	2471.90
578.61	2236.38
578.80	2170.85
579.00	2353.12
579.19	2285.53
579.39	2351.07
579.58	2416.60
579.77	2310.11
579.97	2445.27
580.16	2408.41
580.36	2336.73
580.55	2349.02
580.75	2324.44
580.94	2334.68
581.13	2486.23
581.33	2529.24
581.52	2283.49
581.72	2504.67
581.91	2449.37
582.11	2215.90
582.30	2342.88
582.49	2361.31
582.69	2537.43
582.88	2394.08
583.08	2334.68
583.27	2338.78
583.47	2326.49
583.66	2166.75
583.85	2152.42
584.05	2289.63
584.24	2381.79
584.44	2318.30
584.63	2426.84
584.82	2412.51
585.02	2408.41
585.21	2465.75
585.41	2416.60
585.60	2396.12
585.79	2547.67
585.99	2521.05
586.18	2443.23
586.37	2897.88
586.57	4628.41
586.76	13874.99
586.96	33140.23
587.15	46761.27
587.34	56163.50
587.54	61379.67
587.73	56282.28
587.93	40097.18
588.12	30123.57
588.31	24215.18
588.51	20903.62
588.70	19248.86
588.89	17463.03
589.09	15138.58
589.28	13102.90
589.47	10528.61
589.67	8382.34
589.86	6463.39
590.06	4777.91
590.25	3796.93
590.44	3139.54
590.64	2699.22
590.83	2586.58
591.02	2580.44
591.22	2355.16
591.41	2355.16
591.60	2273.25
591.80	2584.54
591.99	2281.44
592.18	2236.38
592.38	2332.64
592.57	2228.19
592.76	2308.06
592.96	2310.11
593.15	2254.81
593.34	2453.47
593.54	2275.29
593.73	2326.49
593.92	2404.32
594.12	2351.07
594.31	2414.56
594.50	2406.36
594.70	2369.50
594.89	2572.25
595.08	2170.85
595.28	2430.94
595.47	2672.60
595.66	2312.16
595.86	2215.90
596.05	2275.29
596.24	2267.10
596.43	2445.27
596.63	2389.98
596.82	2322.40
597.01	2346.97
597.21	2455.51
597.40	2367.45
597.59	2330.59
597.79	2273.25
597.98	2326.49
598.17	2351.07
598.36	2330.59
598.56	2400.22
598.75	2189.28
598.94	2301.92
599.14	2244.57
599.33	2195.42
599.52	2344.92
599.71	2324.44
599.91	2375.64
600.10	2316.25
600.29	2314.20
600.48	2387.93
600.68	2256.86
600.87	2324.44
601.06	2258.91
601.26	2283.49
601.45	2285.53
601.64	2246.62
601.83	2441.18
602.03	2172.89
602.22	2150.37
602.41	2398.17
602.60	2494.43
602.80	2351.07
602.99	2299.87
603.18	2273.25
603.37	2236.38
603.57	2306.01
603.76	2383.84
603.95	2369.50
604.14	2211.81
604.34	2226.14
604.53	2213.85
604.72	2400.22
604.91	2367.45
605.10	2308.06
605.30	2201.57
605.49	2473.95
605.68	2301.92
605.87	2283.49
606.07	2230.24
606.26	2275.29
606.45	2277.34
606.64	2297.82
606.84	2195.42
607.03	2353.12
607.22	2271.20
607.41	2263.01
607.60	2224.09
607.80	2402.27
607.99	2285.53
608.18	2318.30
608.37	2297.82
608.56	2203.61
608.76	2416.60
608.95	2498.52
609.14	2301.92
609.33	2451.42
609.52	2432.99
609.72	2383.84
609.91	2367.45
610.10	2312.16
610.29	2453.47
610.48	2299.87
610.68	2398.17
610.87	2244.57
611.06	2353.12
611.25	2260.96
611.44	2369.50
611.63	2285.53
611.83	2396.12
612.02	2131.94
612.21	2326.49
612.40	2103.26
612.59	2189.28
612.79	2138.08
612.98	2318.30
613.17	2486.23
613.36	2312.16
613.55	2422.75
613.74	2310.11
613.93	2344.92
614.13	2416.60
614.32	2527.19
614.51	2432.99
614.70	2322.40
614.89	2283.49
615.08	2416.60
615.28	2699.22
615.47	2211.81
615.66	2338.78
615.85	2308.06
616.04	2490.33
616.23	2289.63
616.42	2240.48
616.62	2361.31
616.81	2306.01
617.00	2308.06
617.19	2306.01
617.38	2240.48
617.57	2281.44
617.76	2351.07
617.95	2363.36
618.15	2279.39
618.34	2359.26
618.53	2172.89
618.72	2346.97
618.91	2361.31
619.10	2342.88
619.29	2310.11
619.48	2265.05
619.68	2144.22
619.87	2213.85
620.06	2203.61
620.25	2297.82
620.44	2258.91
620.63	2240.48
620.82	2252.77
621.01	2340.83
621.20	2244.57
621.39	2289.63
621.59	2342.88
621.78	2242.53
621.97	2293.72
622.16	2414.56
622.35	2293.72
622.54	2342.88
622.73	2422.75
622.92	2047.97
623.11	2402.27
623.30	2240.48
623.49	2248.67
623.68	2236.38
623.88	2369.50
624.07	2238.43
624.26	2164.70
624.45	2252.77
624.64	2217.95
624.83	2322.40
625.02	2168.80
625.21	2242.53
625.40	2267.10
625.59	2392.03
625.78	2324.44
625.97	2432.99
626.16	2408.41
626.35	2408.41
626.54	2344.92
626.74	2392.03
626.93	2363.36
627.12	2336.73
627.31	2275.29
627.50	2334.68
627.69	2432.99
627.88	2160.61
628.07	2277.34
628.26	2138.08
628.45	2211.81
628.64	2195.42
628.83	2215.90
629.02	2158.56
629.21	2306.01
629.40	2260.96
629.59	2254.81
629.78	2193.37
629.97	2303.96
630.16	2299.87
630.35	2260.96
630.54	2207.71
630.73	2183.13
630.92	2324.44
631.11	2193.37
631.30	2277.34
631.49	2439.13
631.68	2314.20
631.87	2244.57
632.06	2179.04
632.25	2453.47
632.44	2260.96
632.63	2310.11
632.82	2242.53
633.01	2189.28
633.20	2346.97
633.39	2324.44
633.58	2232.29
633.77	2332.64
633.96	2308.06
634.15	2314.20
634.34	2342.88
634.53	2310.11
634.72	2275.29
634.91	2152.42
635.10	2269.15
635.29	2369.50
635.48	2387.93
635.67	2207.71
635.86	2117.60
636.05	2422.75
636.24	2260.96
636.43	2336.73
636.62	2334.68
636.81	2045.92
637.00	2269.15
637.19	2334.68
637.38	2215.90
637.57	2326.49
637.76	2254.81
637.95	2334.68
638.14	2377.69
638.33	2404.32
638.52	2349.02
638.71	2220.00
638.89	2179.04
639.08	2490.33
639.27	2504.67
639.46	2400.22
639.65	2781.14
639.84	2924.50
640.03	3020.75
640.22	2891.73
640.41	2863.06
640.60	2471.90
640.79	2478.04
640.98	2508.76
641.17	2473.95
641.36	2473.95
641.55	2516.95
641.74	2203.61
641.92	2207.71
642.11	2260.96
642.30	2318.30
642.49	2215.90
642.68	2271.20
642.87	2314.20
643.06	2301.92
643.25	2273.25
643.44	2144.22
643.63	2226.14
643.82	2389.98
644.00	2146.27
644.19	2226.14
644.38	2203.61
644.57	2346.97
644.76	2277.34
644.95	2254.81
645.14	2342.88
645.33	2193.37
645.52	2326.49
645.71	2125.79
645.89	2170.85
646.08	2289.63
646.27	2213.85
646.46	2449.37
646.65	2162.66
646.84	2299.87
647.03	2127.84
647.22	2295.77
647.40	2252.77
647.59	2205.66
647.78	2021.35
647.97	2195.42
648.16	2209.76
648.35	2439.13
648.54	2389.98
648.73	2312.16
648.91	2299.87
649.10	2291.68
649.29	2179.04
649.48	2187.23
649.67	2240.48
649.86	2258.91
650.05	2291.68
650.23	2473.95
650.42	2402.27
650.61	2570.20
650.80	2535.39
650.99	2525.15
651.18	2359.26
651.36	2404.32
651.55	2228.19
651.74	2408.41
651.93	2263.01
652.12	2211.81
652.31	2332.64
652.49	2217.95
652.68	2179.04
652.87	2338.78
653.06	2361.31
653.25	2396.12
653.44	2324.44
653.62	2453.47
653.81	2289.63
654.00	2203.61
654.19	2400.22
654.38	2465.75
654.56	2287.58
654.75	2207.71
654.94	2301.92
655.13	2275.29
655.32	2242.53
655.51	2273.25
655.69	2187.23
655.88	2336.73
656.07	2197.47
656.26	2252.77
656.45	2152.42
656.63	2310.11
656.82	2340.83
657.01	2410.46
657.20	2201.57
657.38	2469.85
657.57	2228.19
657.76	2148.32
657.95	2379.74
658.14	2187.23
658.32	2258.91
658.51	2101.22
658.70	2375.64
658.89	2312.16
659.08	2277.34
659.26	2416.60
659.45	2195.42
659.64	2373.60
659.83	2293.72
660.01	2523.10
660.20	2281.44
660.39	2457.56
660.58	2088.93
660.76	2389.98
660.95	2170.85
661.14	2258.91
661.33	2088.93
661.51	2158.56
661.70	2252.77
661.89	2265.05
662.08	2277.34
662.26	2117.60
662.45	2164.70
662.64	2506.71
662.83	2355.16
663.01	2117.60
663.20	2222.05
663.39	2361.31
663.58	2252.77
663.76	2269.15
663.95	2254.81
664.14	2185.18
664.32	2220.00
664.51	2136.03
664.70	2097.12
664.89	2310.11
665.07	2199.52
665.26	2371.55
665.45	2047.97
665.64	2381.79
665.82	2236.38
666.01	2322.40
666.20	2222.05
666.38	2441.18
666.57	2416.60
666.76	3325.90
666.95	8243.07
667.13	16453.38
667.32	21427.90
667.51	24811.14
667.69	27049.57
667.88	24204.94
668.07	17358.58
668.25	14004.01
668.44	11466.58
668.63	9729.90
668.81	8687.48
669.00	7634.83
669.19	6868.89
669.38	6008.74
669.56	5238.70
669.75	4349.89
669.94	3649.48
670.12	3049.43
670.31	2830.29
670.50	2602.97
670.68	2519.00
670.87	2416.60
671.06	2340.83
671.24	2314.20
671.43	2422.75
671.62	2400.22
671.80	2170.85
671.99	2408.41
672.18	2359.26
672.36	2361.31
672.55	2281.44
672.74	2228.19
672.92	2248.67
673.11	2267.10
673.29	2156.51
673.48	2367.45
673.67	2230.24
673.85	2406.36
674.04	2185.18
674.23	2314.20
674.41	2486.23
674.60	2170.85
674.79	2070.50
674.97	2195.42
675.16	2367.45
675.34	2328.54
675.53	2168.80
675.72	2314.20
675.90	2389.98
676.09	2224.09
676.28	2248.67
676.46	2148.32
676.65	2334.68
676.83	2226.14
677.02	2310.11
677.21	2297.82
677.39	2351.07
677.58	2256.86
677.77	2228.19
677.95	2156.51
678.14	2244.57
678.32	2258.91
678.51	2222.05
678.70	2482.14
678.88	2203.61
679.07	2220.00
679.25	2260.96
679.44	2258.91
679.63	2176.99
679.81	2328.54
680.00	2453.47
680.18	2277.34
680.37	2424.80
680.55	2217.95
680.74	2095.07
680.93	2105.31
681.11	2260.96
681.30	2170.85
681.48	2254.81
681.67	2256.86
681.85	2281.44
682.04	2113.50
682.23	2314.20
682.41	2242.53
682.60	2269.15
682.78	2277.34
682.97	2172.89
683.15	2285.53
683.34	2301.92
683.53	2351.07
683.71	2043.87
683.90	2408.41
684.08	2396.12
684.27	2185.18
684.45	2236.38
684.64	2359.26
684.82	2220.00
685.01	2361.31
685.19	2230.24
685.38	2361.31
685.57	2258.91
685.75	2256.86
685.94	2228.19
686.12	2201.57
686.31	2158.56
686.49	2357.21
686.68	2127.84
686.86	2301.92
687.05	2201.57
687.23	2410.46
687.42	2269.15
687.60	2101.22
687.79	2285.53
687.97	2379.74
688.16	2389.98
688.34	2363.36
688.53	2054.11
688.71	2248.67
688.90	2336.73
689.08	2191.33
689.27	2064.35
689.45	2316.25
689.64	2320.35
689.82	2314.20
690.01	2248.67
690.19	2291.68
690.38	2252.77
690.56	2283.49
690.75	2191.33
690.93	2220.00
691.12	2154.46
691.30	2320.35
691.49	2273.25
691.67	2351.07
691.86	2471.90
692.04	2242.53
692.23	2279.39
692.41	2244.57
692.60	2564.06
692.78	2310.11
692.97	2334.68
693.15	2361.31
693.34	2383.84
693.52	2355.16
693.71	2260.96
693.89	2244.57
694.08	2176.99
694.26	2308.06
694.44	2420.70
694.63	2332.64
694.81	2228.19
695.00	2150.37
695.18	2420.70
695.37	2551.77
695.55	2234.33
695.74	2215.90
695.92	2226.14
696.10	2406.36
696.29	2103.26
696.47	2162.66
696.66	2105.31
696.84	2203.61
697.03	2291.68
697.21	2478.04
697.40	3364.81
697.58	2412.51
697.76	2207.71
697.95	2136.03
698.13	2215.90
698.32	2213.85
698.50	2256.86
698.68	2277.34
698.87	2273.25
699.05	2400.22
699.24	2240.48
699.42	2207.71
699.61	2320.35
699.79	2258.91
699.97	2244.57
700.16	2187.23
700.34	2113.50
700.53	2299.87
700.71	2412.51
700.89	2246.62
701.08	2172.89
701.26	2211.81
701.45	2832.34
701.63	2144.22
701.81	2277.34
702.00	2181.09
702.18	2234.33
702.37	2191.33
702.55	2516.95
702.73	2535.39
702.92	2412.51
703.10	2568.15
703.28	2406.36
703.47	2310.11
703.65	2463.71
703.84	2424.80
704.02	2291.68
704.20	2424.80
704.39	2265.05
704.57	2273.25
704.75	2394.08
704.94	2316.25
705.12	2310.11
705.30	2551.77
705.49	4507.58
705.67	10438.50
705.86	18259.69
706.04	21878.45
706.22	25226.88
706.41	25972.34
706.59	21661.37
706.77	15484.69
706.96	13053.75
707.14	11433.81
707.32	9885.55
707.51	8681.34
707.69	7260.05
707.87	5965.73
708.06	4775.86
708.24	3917.76
708.42	3186.64
708.61	3145.68
708.79	2510.81
708.97	2441.18
709.16	2400.22
709.34	2320.35
709.52	2273.25
709.71	2246.62
709.89	2396.12
710.07	2199.52
710.26	2211.81
710.44	2299.87
710.62	2287.58
710.80	2250.72
710.99	2342.88
711.17	2275.29
711.35	2228.19
711.54	2211.81
711.72	2349.02
711.90	2293.72
712.09	2260.96
712.27	2236.38
712.45	2336.73
712.63	2224.09
712.82	2265.05
713.00	2287.58
713.18	2289.63
713.37	2224.09
713.55	2342.88
713.73	2265.05
713.91	2306.01
714.10	2220.00
714.28	2166.75
714.46	2287.58
714.65	2338.78
714.83	2269.15
715.01	2265.05
715.19	2301.92
715.38	2179.04
715.56	2277.34
715.74	2230.24
715.92	2154.46
716.11	2439.13
716.29	2088.93
716.47	2252.77
716.65	2213.85
716.84	2052.06
717.02	2359.26
717.20	2031.58
717.38	2252.77
717.57	2310.11
717.75	2299.87
717.93	2338.78
718.11	2310.11
718.30	2119.65
718.48	2334.68
718.66	2326.49
718.84	2353.12
719.03	2189.28
719.21	2148.32
719.39	2398.17
719.57	2338.78
719.75	2318.30
719.94	2197.47
720.12	2281.44
720.30	2269.15
720.48	2367.45
720.67	2193.37
720.85	2197.47
721.03	2244.57
721.21	2181.09
721.39	2375.64
721.58	2328.54
721.76	2334.68
721.94	2283.49
722.12	2291.68
722.30	2365.40
722.49	2252.77
722.67	2332.64
722.85	2275.29
723.03	2111.46
723.21	2213.85
723.40	2228.19
723.58	2349.02
723.76	2392.03
723.94	2416.60
724.12	2400.22
724.30	2441.18
724.49	2402.27
724.67	2199.52
724.85	2371.55
725.03	2103.26
725.21	2355.16
725.40	2420.70
725.58	2203.61
725.76	2406.36
725.94	2342.88
726.12	2146.27
726.30	2220.00
726.49	2195.42
726.67	2191.33
726.85	2346.97
727.03	2596.82
727.21	3614.66
727.39	5087.15
727.57	5789.61
727.76	6418.33
727.94	6688.67
728.12	6356.90
728.30	5078.96
728.48	4480.96
728.66	4042.69
728.84	3766.21
729.03	3291.09
729.21	2990.03
729.39	2766.81
729.57	2437.08
729.75	2389.98
729.93	2373.60
730.11	2242.53
730.30	2170.85
730.48	2230.24
730.66	2424.80
730.84	2392.03
731.02	2306.01
731.20	2213.85
731.38	2285.53
731.56	2246.62
731.74	2127.84
731.93	2222.05
732.11	2193.37
732.29	2250.72
732.47	2228.19
732.65	2295.77
732.83	2414.56
733.01	2242.53
733.19	2189.28
733.37	2326.49
733.56	2236.38
733.74	2176.99
733.92	2451.42
734.10	2242.53
734.28	2275.29
734.46	2107.36
734.64	2199.52
734.82	2291.68
735.00	2195.42
735.18	2263.01
735.36	2199.52
735.54	2195.42
735.73	2244.57
735.91	2306.01
736.09	2349.02
736.27	2228.19
736.45	2359.26
736.63	2043.87
736.81	2131.94
736.99	2361.31
737.17	2432.99
737.35	2195.42
737.53	2269.15
737.71	2142.18
737.89	2459.61
738.07	2179.04
738.25	2154.46
738.43	2185.18
738.61	2246.62
738.80	2113.50
738.98	2244.57
739.16	2226.14
739.34	2176.99
739.52	2371.55
739.70	2242.53
739.88	2351.07
740.06	2389.98
740.24	2047.97
740.42	2441.18
740.60	2109.41
740.78	2185.18
740.96	2062.30
741.14	2232.29
741.32	2260.96
741.50	2140.13
741.68	2471.90
741.86	2291.68
742.04	2185.18
742.22	2197.47
742.40	2289.63
742.58	2349.02
742.76	2166.75
742.94	2367.45
743.12	2140.13
743.30	2213.85
743.48	2301.92
743.66	2166.75
743.84	2226.14
744.02	2236.38
744.20	2326.49
744.38	2101.22
744.56	2209.76
744.74	2451.42
744.92	2340.83
745.10	2402.27
745.28	2285.53
745.46	2426.84
745.64	2244.57
745.82	2402.27
746.00	2232.29
746.18	2349.02
746.36	2191.33
746.54	2256.86
746.72	2289.63
746.90	2179.04
747.08	2357.21
747.26	2220.00
747.44	2353.12
747.62	2324.44
747.80	2254.81
747.98	2344.92
748.15	2248.67
748.33	2392.03
748.51	2318.30
748.69	2281.44
748.87	2168.80
749.05	2260.96
749.23	2224.09
749.41	2269.15
749.59	2230.24
749.77	2328.54
749.95	2193.37
750.13	2244.57
750.31	2342.88
750.49	2248.67
750.67	2373.60
750.85	2406.36
751.03	2260.96
751.20	2432.99
751.38	2275.29
751.56	2187.23
751.74	2226.14
751.92	2230.24
752.10	2217.95
752.28	2389.98
752.46	2162.66
752.64	2187.23
752.82	2209.76
753.00	2293.72
753.18	2211.81
753.35	2250.72
753.53	2369.50
753.71	2199.52
753.89	2381.79
754.07	2349.02
754.25	2379.74
754.43	2353.12
754.61	2097.12
754.79	2392.03
754.97	2209.76
755.14	2426.84
755.32	2133.98
755.50	2228.19
755.68	2312.16
755.86	2097.12
756.04	2129.89
756.22	2121.70
756.40	2369.50
756.57	2523.10
756.75	2197.47
756.93	2430.94
757.11	2334.68
757.29	2127.84
757.47	2140.13
757.65	2097.12
757.82	2000.87
758.00	2166.75
758.18	2168.80
758.36	2172.89
758.54	2404.32
758.72	2140.13
758.90	2338.78
759.07	2383.84
759.25	2162.66
759.43	2373.60
759.61	2123.74
759.79	3131.34
759.97	2353.12
760.15	2283.49
760.32	2248.67
760.50	2228.19
760.68	2447.32
760.86	2117.60
761.04	2297.82
761.22	2301.92
761.39	2320.35
761.57	2369.50
761.75	2189.28
761.93	2277.34
762.11	2226.14
762.28	2228.19
762.46	2193.37
762.64	2340.83
762.82	2140.13
763.00	2193.37
763.18	2459.61
763.35	2095.07
763.53	2291.68
763.71	2265.05
763.89	2191.33
764.07	2277.34
764.24	2222.05
764.42	2340.83
764.60	2269.15
764.78	2416.60
764.96	2303.96
765.13	2324.44
765.31	2217.95
765.49	2310.11
765.67	2170.85
765.84	2154.46
766.02	2170.85
766.20	2088.93
766.38	2328.54
766.56	2310.11
766.73	2330.59
766.91	2185.18
767.09	2201.57
767.27	2285.53
767.44	2097.12
767.62	2256.86
767.80	2301.92
767.98	2185.18
768.15	2279.39
768.33	2381.79
768.51	2402.27
768.69	2303.96
768.87	2301.92
769.04	2267.10
769.22	2457.56
769.40	2334.68
769.58	2410.46
769.75	2269.15
769.93	2373.60
770.11	2248.67
770.28	2162.66
770.46	2318.30
770.64	2265.05
770.82	2207.71
770.99	2228.19
771.17	2303.96
771.35	2213.85
771.53	2217.95
771.70	2205.66
771.88	2318.30
772.06	2256.86
772.23	2154.46
772.41	2164.70
772.59	2258.91
772.77	2158.56
772.94	2260.96
773.12	2318.30
773.30	2211.81
773.47	2248.67
773.65	2217.95
773.83	2457.56
774.01	2234.33
774.18	2064.35
774.36	2267.10
774.54	2183.13
774.71	2324.44
774.89	2084.83
775.07	2166.75
775.24	2267.10
775.42	2187.23
775.60	2482.14
775.78	2195.42
775.95	2103.26
776.13	1972.19
776.31	2090.98
776.48	2244.57
776.66	2392.03
776.84	2213.85
777.01	2179.04
777.19	2154.46
777.37	2187.23
777.54	2394.08
777.72	2523.10
777.90	2336.73
778.07	2176.99
778.25	2471.90
778.43	2371.55
778.60	2131.94
778.78	2279.39
778.96	2398.17
779.13	2125.79
779.31	2365.40
779.49	2273.25
779.66	2252.77
779.84	2199.52
780.01	2211.81
780.19	2101.22
780.37	2357.21
780.54	2371.55
780.72	2162.66
780.90	2211.81
781.07	2166.75
781.25	2203.61
781.43	2334.68
781.60	2224.09
781.78	2408.41
781.95	2254.81
782.13	2187.23
782.31	2213.85
782.48	2097.12
782.66	2201.57
782.83	2473.95
783.01	2248.67
783.19	2328.54
783.36	2346.97
783.54	2203.61
783.72	2357.21
783.89	2236.38
784.07	2230.24
784.24	2340.83
784.42	2344.92
784.60	2314.20
784.77	2275.29
784.95	2133.98
785.12	2220.00
785.30	2222.05
785.47	2205.66
785.65	2129.89
785.83	2209.76
786.00	2275.29
786.18	2279.39
786.35	2205.66
786.53	2181.09
786.71	2308.06
786.88	2273.25
787.06	2342.88
787.23	2179.04
787.41	2138.08
787.58	2215.90
787.76	2162.66
787.94	2330.59
788.11	2267.10
788.29	2195.42
788.46	2226.14
788.64	2101.22
788.81	2166.75
788.99	2138.08
789.16	2133.98
789.34	2271.20
789.52	2260.96
789.69	2181.09
789.87	2166.75
790.04	2226.14
790.22	2318.30
790.39	2498.52
790.57	2224.09
790.74	2162.66
790.92	2344.92
791.09	2097.12
791.27	2295.77
791.44	2293.72
791.62	2236.38
791.79	2310.11
791.97	2260.96
792.15	2541.53
792.32	2340.83
792.50	2279.39
792.67	2367.45
792.85	2439.13
793.02	2269.15
793.20	2222.05
793.37	2142.18
793.55	2226.14
793.72	2154.46
793.90	2314.20
794.07	2203.61
794.25	2185.18
794.42	2269.15
794.60	2242.53
794.77	2267.10
794.95	2316.25
795.12	2342.88
795.30	2220.00
795.47	2064.35
795.65	2469.85
795.82	2312.16
796.00	2160.61
796.17	2267.10
796.34	2181.09
796.52	2232.29
796.69	2308.06
796.87	2306.01
797.04	2269.15
797.22	2303.96
797.39	2287.58
797.57	2277.34
797.74	2252.77
797.92	2291.68
798.09	2250.72
798.27	2355.16
798.44	2330.59
798.62	2215.90
798.79	2252.77
798.96	2330.59
799.14	2170.85
799.31	2447.32
799.49	2224.09
799.66	2166.75
799.84	2273.25
800.01	2111.46
800.19	2297.82
800.36	2121.70
800.53	2277.34
800.71	2215.90
800.88	2441.18
801.06	2168.80
801.23	2205.66
801.41	2168.80
801.58	2176.99
801.75	2156.51
801.93	2301.92
802.10	2277.34
802.28	2215.90
802.45	2236.38
802.63	2365.40
802.80	2293.72
802.97	2215.90
803.15	2220.00
803.32	2267.10
803.50	2197.47
803.67	2201.57
803.84	2144.22
804.02	2191.33
804.19	2252.77
804.37	2035.68
804.54	2176.99
804.71	2250.72
804.89	2287.58
805.06	2183.13
805.24	2138.08
805.41	2166.75
805.58	2170.85
805.76	2516.95
805.93	2176.99
806.10	2357.21
806.28	2326.49
806.45	2240.48
806.63	2285.53
806.80	2258.91
806.97	2217.95
807.15	2209.76
807.32	2250.72
807.49	2291.68
807.67	2146.27
807.84	2269.15
808.01	2043.87
808.19	2463.71
808.36	2523.10
808.54	2232.29
808.71	2138.08
808.88	2269.15
809.06	2383.84
809.23	2316.25
809.40	2162.66
809.58	2281.44
809.75	2297.82
809.92	2144.22
810.10	2473.95
810.27	2228.19
810.44	2209.76
810.62	2263.01
810.79	2328.54
810.96	2189.28
811.14	2222.05
811.31	2316.25
811.48	2394.08
811.66	2254.81
811.83	2396.12
812.00	2310.11
812.18	2318.30
812.35	2412.51
812.52	2138.08
812.69	2285.53
812.87	2201.57
813.04	2220.00
813.21	2267.10
813.39	2162.66
813.56	2121.70
813.73	2316.25
813.91	2129.89
814.08	2299.87
814.25	2224.09
814.42	2076.64
814.60	2152.42
814.77	2207.71
814.94	2232.29
815.12	2281.44
815.29	2424.80
815.46	2205.66
815.63	2238.43
815.81	2220.00
815.98	2162.66
816.15	2246.62
816.33	2179.04
816.50	2209.76
816.67	2230.24
816.84	2269.15
817.02	2129.89
817.19	2220.00
817.36	2269.15
817.53	2322.40
817.71	2179.04
817.88	2357.21
818.05	2260.96
818.22	2215.90
818.40	2392.03
818.57	2142.18
818.74	2256.86
818.91	2215.90
819.09	2312.16
819.26	2346.97
819.43	2179.04
819.60	2191.33
819.78	2310.11
819.95	2342.88
820.12	2123.74
820.29	2414.56
820.47	2283.49
820.64	2242.53
820.81	2117.60
820.98	2152.42
821.15	2195.42
821.33	2373.60
821.50	2095.07
821.67	2252.77
821.84	2154.46
822.02	2277.34
822.19	2349.02
822.36	2183.13
822.53	2230.24
822.70	2162.66
822.88	2258.91
823.05	2406.36
823.22	2234.33
823.39	2265.05
823.56	2220.00
823.74	2498.52
823.91	2195.42
824.08	2125.79
824.25	2164.70
824.42	2504.67
824.60	2154.46
824.77	2275.29
824.94	2189.28
825.11	2297.82
825.28	2029.54
825.45	2299.87
825.63	2285.53
825.80	2142.18
825.97	2279.39
826.14	2254.81
826.31	2105.31
826.48	2340.83
826.66	2136.03
826.83	2136.03
827.00	2195.42
827.17	2121.70
827.34	2162.66
827.51	2215.90
827.69	2211.81
827.86	2113.50
828.03	2142.18
828.20	2185.18
828.37	2166.75
828.54	2250.72
828.71	2211.81
828.89	2312.16
829.06	2220.00
829.23	2377.69
829.40	2146.27
829.57	2195.42
829.74	2340.83
829.91	2308.06
830.09	2154.46
830.26	2318.30
830.43	2521.05
830.60	2236.38
830.77	2297.82
830.94	2367.45
831.11	2326.49
831.28	2181.09
831.46	2334.68
831.63	2209.76
831.80	2455.51
831.97	2248.67
832.14	2279.39
832.31	2330.59
832.48	2273.25
832.65	2328.54
832.82	2203.61
832.99	2291.68
833.17	2125.79
833.34	2396.12
833.51	2267.10
833.68	2029.54
833.85	2291.68
834.02	2160.61
834.19	2129.89
834.36	2174.94
834.53	2330.59
834.70	2265.05
834.87	2271.20
835.04	2156.51
835.22	2088.93
835.39	2187.23
835.56	2195.42
835.73	2133.98
835.90	2346.97
836.07	2154.46
836.24	2301.92
836.41	2220.00
836.58	2150.37
836.75	2342.88
836.92	2250.72
837.09	2168.80
837.26	2324.44
837.43	2254.81
837.60	2136.03
837.77	2267.10
837.94	2375.64
838.12	2394.08
838.29	2193.37
838.46	2052.06
838.63	2144.22
838.80	2379.74
838.97	2310.11
839.14	2234.33
839.31	2273.25
839.48	2394.08
839.65	2195.42
839.82	2265.05
839.99	2342.88
840.16	2215.90
840.33	2125.79
840.50	2207.71
840.67	2117.60
840.84	2007.01
841.01	2291.68
841.18	2101.22
841.35	2240.48
841.52	2334.68
841.69	2394.08
841.86	2236.38
842.03	2154.46
842.20	2361.31
842.37	2211.81
842.54	2154.46
842.71	2240.48
842.88	2129.89
843.05	2285.53
843.22	2236.38
843.39	2289.63
843.56	2203.61
843.73	2160.61
843.90	2277.34
844.07	2293.72
844.24	2355.16
844.41	2289.63
844.58	2291.68
844.75	2203.61
844.92	2301.92
845.09	2179.04
845.26	2179.04
845.43	2355.16
845.60	2265.05
845.77	2277.34
845.94	2224.09
846.10	2349.02
846.27	2099.17
846.44	2129.89
846.61	2095.07
846.78	2310.11
846.95	2359.26
847.12	2129.89
847.29	2195.42
847.46	2138.08
847.63	2373.60
847.80	2174.94
847.97	2224.09
848.14	2531.29
848.31	2195.42
848.48	2195.42
848.65	2228.19
848.82	2170.85
848.98	2510.81
849.15	2281.44
849.32	2258.91
849.49	2285.53
849.66	2265.05
849.83	2220.00
850.00	2129.89
850.17	2314.20
850.34	2228.19
850.51	2174.94
850.68	2156.51
850.85	2475.99
851.01	2203.61
851.18	2234.33
851.35	2185.18
851.52	2342.88
851.69	2353.12
851.86	2080.74
852.03	2183.13
852.20	2303.96
852.37	2234.33
852.53	2185.18
852.70	2174.94
852.87	2226.14
853.04	2308.06
853.21	2183.13
853.38	2365.40
853.55	2424.80
853.72	2351.07
853.89	2115.55
854.05	2131.94
854.22	2260.96
854.39	2248.67
854.56	2174.94
854.73	2357.21
854.90	2146.27
855.07	2283.49
855.23	2105.31
855.40	2111.46
855.57	2289.63
855.74	2047.97
855.91	2414.56
856.08	2074.59
856.25	2172.89
856.41	2234.33
856.58	2140.13
856.75	2222.05
856.92	2127.84
857.09	2344.92
857.26	2111.46
857.42	2191.33
857.59	2367.45
857.76	2170.85
857.93	2252.77
858.10	2260.96
858.27	2076.64
858.43	2291.68
858.60	2164.70
858.77	2015.20
858.94	2154.46
859.11	2342.88
859.27	2256.86
859.44	2144.22
859.61	2451.42
859.78	2293.72
859.95	2244.57
860.12	2138.08
860.28	2422.75
860.45	2443.23
860.62	2076.64
860.79	2254.81
860.95	2176.99
861.12	2209.76
861.29	2199.52
861.46	2174.94
861.63	2240.48
861.79	2209.76
861.96	2123.74
862.13	2172.89
862.30	2408.41
862.47	2265.05
862.63	2179.04
862.80	2314.20
862.97	2299.87
863.14	2281.44
863.30	2215.90
863.47	2199.52
863.64	2426.84
863.81	2283.49
863.97	2176.99
864.14	2129.89
864.31	2220.00
864.48	2162.66
864.65	2187.23
864.81	2306.01
864.98	2275.29
865.15	2389.98
865.32	2267.10
865.48	2316.25
865.65	2416.60
865.82	2236.38
865.98	2285.53
866.15	2308.06
866.32	2242.53
866.49	2203.61
866.65	2299.87
866.82	2187.23
866.99	2232.29
867.16	2109.41
867.32	2189.28
867.49	2111.46
867.66	2318.30
867.83	2172.89
867.99	2150.37
868.16	2248.67
868.33	2105.31
868.49	2267.10
868.66	2105.31
868.83	2295.77
868.99	2260.96
869.16	2213.85
869.33	2369.50
869.50	2346.97
869.66	2267.10
869.83	2303.96
870.00	2070.50
870.16	2293.72
870.33	2269.15
870.50	2273.25
870.66	2203.61
870.83	2396.12
871.00	2199.52
871.17	2242.53
871.33	2217.95
871.50	2193.37
871.67	2246.62
871.83	2183.13
872.00	2301.92
872.17	2211.81
872.33	2435.03
872.50	2359.26
872.67	2166.75
872.83	2142.18
873.00	2334.68
873.17	2250.72
873.33	2308.06
873.50	2275.29
873.67	2121.70
873.83	2187.23
874.00	2228.19
874.16	2217.95
874.33	2250.72
874.50	2166.75
874.66	2244.57
874.83	2172.89
875.00	2271.20
875.16	2351.07
875.33	2297.82
875.50	2039.78
875.66	2199.52
875.83	2199.52
875.99	2238.43
876.16	2213.85
876.33	2174.94
876.49	2240.48
876.66	2179.04
876.83	2211.81
876.99	2078.69
877.16	2191.33
877.32	2220.00
877.49	2146.27
877.66	2252.77
877.82	2412.51
877.99	2230.24
878.15	2353.12
878.32	2269.15
878.49	2318.30
878.65	2146.27
878.82	2426.84
878.98	2242.53
879.15	2410.46
879.32	2273.25
879.48	2377.69
879.65	2162.66
879.81	2189.28
879.98	2160.61
880.15	2158.56
880.31	2340.83
880.48	2183.13
880.64	2361.31
880.81	2250.72
880.97	2373.60
881.14	2322.40
881.31	2113.50
881.47	2275.29
881.64	2211.81
881.80	2035.68
881.97	2281.44
882.13	2260.96
882.30	2146.27
882.47	2228.19
882.63	2142.18
882.80	2166.75
882.96	2226.14
883.13	2394.08
883.29	2205.66
883.46	2236.38
883.62	2514.91
883.79	2240.48
883.95	2310.11
884.12	2183.13
884.29	2398.17
884.45	2244.57
884.62	2244.57
884.78	2203.61
884.95	2363.36
885.11	2164.70
885.28	2285.53
885.44	2189.28
885.61	2357.21
885.77	2367.45
885.94	2236.38
886.10	2281.44
886.27	2168.80
886.43	2463.71
886.60	2375.64
886.76	2170.85
886.93	2127.84
887.09	2220.00
887.26	2037.73
887.42	2254.81
887.59	2404.32
887.75	2486.23
887.92	2314.20
888.08	2363.36
888.25	2392.03
888.41	2310.11
888.58	2232.29
888.74	2101.22
888.91	2250.72
>>>>>End Processed Spectral Data<<<<<
