SpectraSuite Data File
++++++++++++++++++++++++++++++++++++
Date: Thu May 05 13:21:24 CEST 2016
User: root
Dark Spectrum Present: No
Reference Spectrum Present: No
Number of Sampled Component Spectra: 1
Spectrometers: USB4C02835
Integration Time (usec): 100000 (USB4C02835)
Spectra Averaged: 1 (USB4C02835)
Boxcar Smoothing: 0 (USB4C02835)
Correct for Electrical Dark: No (USB4C02835)
Strobe/Lamp Enabled: No (USB4C02835)
Correct for Detector Non-linearity: No (USB4C02835)
Correct for Stray Light: No (USB4C02835)
Number of Pixels in Processed Spectrum: 3648
>>>>>Begin Processed Spectral Data<<<<<
177.47	1769.44
177.69	1769.44
177.91	1769.44
178.13	1814.50
178.36	1810.40
178.58	2193.37
178.80	2281.44
179.02	2058.21
179.24	2146.27
179.46	2136.03
179.68	2189.28
179.90	2189.28
180.13	2260.96
180.35	2199.52
180.57	2099.17
180.79	2308.06
181.01	2306.01
181.23	2199.52
181.45	2283.49
181.67	2228.19
181.90	2324.44
182.12	2170.85
182.34	2072.54
182.56	2293.72
182.78	2246.62
183.00	2170.85
183.22	2228.19
183.44	2095.07
183.66	2547.67
183.89	2299.87
184.11	2193.37
184.33	2301.92
184.55	2383.84
184.77	2256.86
184.99	2252.77
185.21	2158.56
185.43	2572.25
185.65	2138.08
185.87	2119.65
186.10	2504.67
186.32	2492.38
186.54	2277.34
186.76	2265.05
186.98	2277.34
187.20	2220.00
187.42	2246.62
187.64	2095.07
187.86	2297.82
188.08	2332.64
188.30	2080.74
188.52	2168.80
188.75	2396.12
188.97	2361.31
189.19	2140.13
189.41	2195.42
189.63	2316.25
189.85	2244.57
190.07	2080.74
190.29	2105.31
190.51	2260.96
190.73	2133.98
190.95	2244.57
191.17	2213.85
191.39	2187.23
191.61	2230.24
191.84	2179.04
192.06	2310.11
192.28	2176.99
192.50	2572.25
192.72	2185.18
192.94	2187.23
193.16	2332.64
193.38	2240.48
193.60	2142.18
193.82	2220.00
194.04	2346.97
194.26	2293.72
194.48	2181.09
194.70	2154.46
194.92	2127.84
195.14	2314.20
195.36	2064.35
195.58	2166.75
195.80	2220.00
196.02	2170.85
196.24	2047.97
196.46	2191.33
196.69	2226.14
196.91	2557.91
197.13	2250.72
197.35	2176.99
197.57	2334.68
197.79	2414.56
198.01	2285.53
198.23	2271.20
198.45	2232.29
198.67	2136.03
198.89	2113.50
199.11	2301.92
199.33	2133.98
199.55	2119.65
199.77	2195.42
199.99	2301.92
200.21	2197.47
200.43	2211.81
200.65	2068.45
200.87	2035.68
201.09	2301.92
201.31	2187.23
201.53	2166.75
201.75	2170.85
201.97	2248.67
202.19	2217.95
202.41	2236.38
202.63	2326.49
202.85	2357.21
203.07	2273.25
203.29	2242.53
203.51	2033.63
203.73	2228.19
203.95	2473.95
204.17	2246.62
204.39	2174.94
204.61	2283.49
204.83	2168.80
205.05	2254.81
205.27	2301.92
205.49	2455.51
205.71	2277.34
205.93	2070.50
206.15	2203.61
206.37	2291.68
206.59	2232.29
206.81	2088.93
207.03	2080.74
207.25	2191.33
207.47	2392.03
207.69	2191.33
207.91	2326.49
208.13	2445.27
208.34	2111.46
208.56	2115.55
208.78	2195.42
209.00	2234.33
209.22	2195.42
209.44	2142.18
209.66	2172.89
209.88	2297.82
210.10	2248.67
210.32	2209.76
210.54	2244.57
210.76	2236.38
210.98	2303.96
211.20	2056.16
211.42	2224.09
211.64	2355.16
211.86	2289.63
212.08	2207.71
212.30	2185.18
212.52	2199.52
212.74	2324.44
212.96	2205.66
213.17	2215.90
213.39	2389.98
213.61	2449.37
213.83	2117.60
214.05	2222.05
214.27	2346.97
214.49	2136.03
214.71	2168.80
214.93	2349.02
215.15	2232.29
215.37	2299.87
215.59	2031.58
215.81	2236.38
216.03	2289.63
216.24	2215.90
216.46	2181.09
216.68	2240.48
216.90	2387.93
217.12	2318.30
217.34	2160.61
217.56	2299.87
217.78	2373.60
218.00	2326.49
218.22	2207.71
218.44	2170.85
218.66	2267.10
218.87	2312.16
219.09	2154.46
219.31	2265.05
219.53	2316.25
219.75	2248.67
219.97	2195.42
220.19	2179.04
220.41	2260.96
220.63	2455.51
220.85	2209.76
221.06	2154.46
221.28	2426.84
221.50	2314.20
221.72	2252.77
221.94	2150.37
222.16	2291.68
222.38	2332.64
222.60	2187.23
222.82	2127.84
223.03	2344.92
223.25	2191.33
223.47	2211.81
223.69	2265.05
223.91	2285.53
224.13	2363.36
224.35	2113.50
224.57	2316.25
224.78	2308.06
225.00	2205.66
225.22	2174.94
225.44	2086.88
225.66	2351.07
225.88	2293.72
226.10	2170.85
226.32	2240.48
226.53	2338.78
226.75	2150.37
226.97	2201.57
227.19	2138.08
227.41	2146.27
227.63	2211.81
227.85	2054.11
228.06	2185.18
228.28	2287.58
228.50	2308.06
228.72	2054.11
228.94	2162.66
229.16	2039.78
229.37	2117.60
229.59	2152.42
229.81	2326.49
230.03	2246.62
230.25	2068.45
230.47	2101.22
230.69	2138.08
230.90	2381.79
231.12	2191.33
231.34	2226.14
231.56	2228.19
231.78	2193.37
232.00	2295.77
232.21	2215.90
232.43	2150.37
232.65	2070.50
232.87	2310.11
233.09	2123.74
233.30	2084.83
233.52	2342.88
233.74	2211.81
233.96	2260.96
234.18	2232.29
234.40	2201.57
234.61	2402.27
234.83	2146.27
235.05	2064.35
235.27	2441.18
235.49	2406.36
235.70	2226.14
235.92	2248.67
236.14	2314.20
236.36	2602.97
236.58	2082.78
236.79	2222.05
237.01	2232.29
237.23	2293.72
237.45	2310.11
237.67	2109.41
237.88	2389.98
238.10	2469.85
238.32	2076.64
238.54	2217.95
238.76	2179.04
238.97	2179.04
239.19	2170.85
239.41	2230.24
239.63	2373.60
239.85	2195.42
240.06	2170.85
240.28	2170.85
240.50	2424.80
240.72	2215.90
240.93	2205.66
241.15	2256.86
241.37	2258.91
241.59	2408.41
241.81	2136.03
242.02	2236.38
242.24	2209.76
242.46	2336.73
242.68	2078.69
242.89	2160.61
243.11	2301.92
243.33	2207.71
243.55	2222.05
243.76	2269.15
243.98	2121.70
244.20	2295.77
244.42	2220.00
244.64	2195.42
244.85	2107.36
245.07	2156.51
245.29	2176.99
245.51	2125.79
245.72	2209.76
245.94	2369.50
246.16	2191.33
246.38	2189.28
246.59	2205.66
246.81	2224.09
247.03	2072.54
247.24	2117.60
247.46	2211.81
247.68	2293.72
247.90	2129.89
248.11	2146.27
248.33	2344.92
248.55	2285.53
248.77	2234.33
248.98	2256.86
249.20	2478.04
249.42	2205.66
249.64	2209.76
249.85	2088.93
250.07	2244.57
250.29	2234.33
250.50	2232.29
250.72	2127.84
250.94	2285.53
251.16	2457.56
251.37	2215.90
251.59	2258.91
251.81	2357.21
252.02	2371.55
252.24	2105.31
252.46	2367.45
252.68	2228.19
252.89	2197.47
253.11	2078.69
253.33	2291.68
253.54	2373.60
253.76	2115.55
253.98	2203.61
254.20	2170.85
254.41	2183.13
254.63	2179.04
254.85	2105.31
255.06	2213.85
255.28	2277.34
255.50	2250.72
255.71	2115.55
255.93	2058.21
256.15	2297.82
256.36	2297.82
256.58	2166.75
256.80	2172.89
257.02	2152.42
257.23	2164.70
257.45	2207.71
257.67	2297.82
257.88	2181.09
258.10	2295.77
258.32	2080.74
258.53	2211.81
258.75	2322.40
258.97	2170.85
259.18	2215.90
259.40	2205.66
259.62	2422.75
259.83	2465.75
260.05	2228.19
260.27	2717.65
260.48	2383.84
260.70	2183.13
260.92	2187.23
261.13	2168.80
261.35	2297.82
261.57	2396.12
261.78	2146.27
262.00	2109.41
262.22	2318.30
262.43	2215.90
262.65	2185.18
262.86	2203.61
263.08	2494.43
263.30	2215.90
263.51	2070.50
263.73	2148.32
263.95	2459.61
264.16	2232.29
264.38	2119.65
264.60	2172.89
264.81	2299.87
265.03	2318.30
265.25	2383.84
265.46	2146.27
265.68	2418.65
265.89	2289.63
266.11	2033.63
266.33	2193.37
266.54	2355.16
266.76	2254.81
266.98	2236.38
267.19	2301.92
267.41	2310.11
267.62	2236.38
267.84	2095.07
268.06	2297.82
268.27	2340.83
268.49	2396.12
268.70	2318.30
268.92	2195.42
269.14	2215.90
269.35	2162.66
269.57	2203.61
269.79	2256.86
270.00	2197.47
270.22	2449.37
270.43	2103.26
270.65	2035.68
270.87	2203.61
271.08	2316.25
271.30	2242.53
271.51	2170.85
271.73	2349.02
271.95	2392.03
272.16	2195.42
272.38	2224.09
272.59	2256.86
272.81	2334.68
273.02	2217.95
273.24	2158.56
273.46	2263.01
273.67	2172.89
273.89	2138.08
274.10	2131.94
274.32	2394.08
274.54	2238.43
274.75	2217.95
274.97	2230.24
275.18	2287.58
275.40	2267.10
275.61	2211.81
275.83	2203.61
276.05	2064.35
276.26	2211.81
276.48	2258.91
276.69	2217.95
276.91	2172.89
277.12	2396.12
277.34	2228.19
277.55	2375.64
277.77	2256.86
277.99	2291.68
278.20	2236.38
278.42	2043.87
278.63	2174.94
278.85	2172.89
279.06	2160.61
279.28	2303.96
279.49	2338.78
279.71	2351.07
279.93	2224.09
280.14	2181.09
280.36	2176.99
280.57	2404.32
280.79	2271.20
281.00	2183.13
281.22	2150.37
281.43	2383.84
281.65	2050.02
281.86	2193.37
282.08	2306.01
282.29	2490.33
282.51	2189.28
282.73	2162.66
282.94	2156.51
283.16	2297.82
283.37	2416.60
283.59	2250.72
283.80	2342.88
284.02	2244.57
284.23	2158.56
284.45	2265.05
284.66	2195.42
284.88	2213.85
285.09	2201.57
285.31	2308.06
285.52	2256.86
285.74	2121.70
285.95	2275.29
286.17	2263.01
286.38	2357.21
286.60	2152.42
286.81	2205.66
287.03	2236.38
287.24	2240.48
287.46	2342.88
287.67	2240.48
287.89	2385.88
288.10	2232.29
288.32	2260.96
288.53	2367.45
288.75	2220.00
288.96	2342.88
289.18	2160.61
289.39	2226.14
289.61	2375.64
289.82	2463.71
290.04	2451.42
290.25	2095.07
290.47	2240.48
290.68	2232.29
290.90	2258.91
291.11	2088.93
291.33	2322.40
291.54	2136.03
291.76	2267.10
291.97	2222.05
292.18	2320.35
292.40	2293.72
292.61	2187.23
292.83	2482.14
293.04	2273.25
293.26	2289.63
293.47	2193.37
293.69	2142.18
293.90	2121.70
294.12	2285.53
294.33	2248.67
294.55	2230.24
294.76	2314.20
294.97	2400.22
295.19	2480.09
295.40	2234.33
295.62	2283.49
295.83	2324.44
296.05	2217.95
296.26	2308.06
296.48	2193.37
296.69	2244.57
296.90	2193.37
297.12	2232.29
297.33	2351.07
297.55	2293.72
297.76	2285.53
297.98	2330.59
298.19	2217.95
298.41	2279.39
298.62	2187.23
298.83	2355.16
299.05	2297.82
299.26	2252.77
299.48	2170.85
299.69	2244.57
299.90	2183.13
300.12	2179.04
300.33	2310.11
300.55	2226.14
300.76	2289.63
300.98	2111.46
301.19	2340.83
301.40	2236.38
301.62	2181.09
301.83	2303.96
302.05	2256.86
302.26	2168.80
302.47	2236.38
302.69	2187.23
302.90	2269.15
303.12	2007.01
303.33	2324.44
303.54	2420.70
303.76	2211.81
303.97	2250.72
304.19	2369.50
304.40	2064.35
304.61	2260.96
304.83	2369.50
305.04	2295.77
305.26	2293.72
305.47	2209.76
305.68	2295.77
305.90	2127.84
306.11	2351.07
306.33	2234.33
306.54	2213.85
306.75	2146.27
306.97	2119.65
307.18	2258.91
307.39	2203.61
307.61	2332.64
307.82	2258.91
308.04	2283.49
308.25	2043.87
308.46	2326.49
308.68	2179.04
308.89	2275.29
309.10	2342.88
309.32	2287.58
309.53	2306.01
309.74	2226.14
309.96	2179.04
310.17	2357.21
310.39	2207.71
310.60	2226.14
310.81	2197.47
311.03	2078.69
311.24	2248.67
311.45	2244.57
311.67	2383.84
311.88	2269.15
312.09	2252.77
312.31	2146.27
312.52	2193.37
312.73	2179.04
312.95	2127.84
313.16	2199.52
313.37	2381.79
313.59	2281.44
313.80	2340.83
314.01	2463.71
314.23	2203.61
314.44	2154.46
314.65	2119.65
314.87	2185.18
315.08	2267.10
315.29	2203.61
315.51	2125.79
315.72	2115.55
315.93	2373.60
316.15	2287.58
316.36	2230.24
316.57	2277.34
316.79	2224.09
317.00	2230.24
317.21	2230.24
317.43	2209.76
317.64	2234.33
317.85	2187.23
318.07	2201.57
318.28	2170.85
318.49	2379.74
318.70	2523.10
318.92	2385.88
319.13	2346.97
319.34	2412.51
319.56	2406.36
319.77	2383.84
319.98	2426.84
320.20	2389.98
320.41	2342.88
320.62	2373.60
320.83	2263.01
321.05	2469.85
321.26	2211.81
321.47	2334.68
321.69	2312.16
321.90	2123.74
322.11	2199.52
322.32	2299.87
322.54	2367.45
322.75	2187.23
322.96	2480.09
323.18	2058.21
323.39	2082.78
323.60	2090.98
323.81	2277.34
324.03	2199.52
324.24	2263.01
324.45	2230.24
324.66	2203.61
324.88	2416.60
325.09	2428.89
325.30	2193.37
325.52	2250.72
325.73	2359.26
325.94	2154.46
326.15	2129.89
326.37	2211.81
326.58	2316.25
326.79	2363.36
327.00	2179.04
327.22	2318.30
327.43	2152.42
327.64	2199.52
327.85	2242.53
328.07	2260.96
328.28	2408.41
328.49	2207.71
328.70	2193.37
328.92	2207.71
329.13	2224.09
329.34	2269.15
329.55	2457.56
329.76	2291.68
329.98	2258.91
330.19	2408.41
330.40	2387.93
330.61	2256.86
330.83	2359.26
331.04	2220.00
331.25	2293.72
331.46	2234.33
331.68	2160.61
331.89	2349.02
332.10	2217.95
332.31	2031.58
332.52	2246.62
332.74	2392.03
332.95	2119.65
333.16	2191.33
333.37	2389.98
333.58	2242.53
333.80	2250.72
334.01	2088.93
334.22	2342.88
334.43	2101.22
334.64	2228.19
334.86	2117.60
335.07	2088.93
335.28	2359.26
335.49	2125.79
335.70	2244.57
335.92	2365.40
336.13	2441.18
336.34	2293.72
336.55	2281.44
336.76	2258.91
336.98	2070.50
337.19	2093.02
337.40	2428.89
337.61	2596.82
337.82	2281.44
338.04	2250.72
338.25	2058.21
338.46	2293.72
338.67	2318.30
338.88	2133.98
339.09	2193.37
339.31	2201.57
339.52	2144.22
339.73	2160.61
339.94	2273.25
340.15	2349.02
340.36	2217.95
340.58	2179.04
340.79	2133.98
341.00	2326.49
341.21	2197.47
341.42	2400.22
341.63	2187.23
341.85	2349.02
342.06	2226.14
342.27	2086.88
342.48	2297.82
342.69	2103.26
342.90	2326.49
343.12	2299.87
343.33	2166.75
343.54	2306.01
343.75	2367.45
343.96	2209.76
344.17	2215.90
344.38	2256.86
344.60	2097.12
344.81	2209.76
345.02	2242.53
345.23	2355.16
345.44	2494.43
345.65	2281.44
345.86	2263.01
346.07	2258.91
346.29	2252.77
346.50	2281.44
346.71	2316.25
346.92	2340.83
347.13	2521.05
347.34	2220.00
347.55	2217.95
347.76	2365.40
347.98	2078.69
348.19	2224.09
348.40	2344.92
348.61	2138.08
348.82	2416.60
349.03	2297.82
349.24	2129.89
349.45	2363.36
349.66	2119.65
349.88	2254.81
350.09	2123.74
350.30	2406.36
350.51	2396.12
350.72	2220.00
350.93	2232.29
351.14	2234.33
351.35	2287.58
351.56	2330.59
351.77	2224.09
351.99	2355.16
352.20	2465.75
352.41	2318.30
352.62	2152.42
352.83	2213.85
353.04	2314.20
353.25	2183.13
353.46	2336.73
353.67	2406.36
353.88	2099.17
354.09	2263.01
354.30	2187.23
354.52	2301.92
354.73	2232.29
354.94	2203.61
355.15	2232.29
355.36	2553.82
355.57	2119.65
355.78	2236.38
355.99	2211.81
356.20	2187.23
356.41	2400.22
356.62	2252.77
356.83	2314.20
357.04	2310.11
357.25	2052.06
357.46	2105.31
357.68	2093.02
357.89	2203.61
358.10	2281.44
358.31	2215.90
358.52	2191.33
358.73	2181.09
358.94	2154.46
359.15	2168.80
359.36	2289.63
359.57	2224.09
359.78	2301.92
359.99	2299.87
360.20	2127.84
360.41	2271.20
360.62	2324.44
360.83	2316.25
361.04	2217.95
361.25	2334.68
361.46	2408.41
361.67	2312.16
361.88	2275.29
362.09	2232.29
362.30	2275.29
362.51	2285.53
362.72	2199.52
362.93	2359.26
363.14	2295.77
363.35	2281.44
363.56	2193.37
363.78	2383.84
363.99	2389.98
364.20	2193.37
364.41	2293.72
364.62	2490.33
364.83	2359.26
365.04	2199.52
365.25	2246.62
365.46	2435.03
365.67	2152.42
365.88	2232.29
366.09	2236.38
366.30	2226.14
366.51	2252.77
366.72	2154.46
366.93	2176.99
367.14	2189.28
367.35	2355.16
367.56	2224.09
367.77	2279.39
367.98	2254.81
368.18	2244.57
368.39	2314.20
368.60	2105.31
368.81	2338.78
369.02	2330.59
369.23	2242.53
369.44	2138.08
369.65	2189.28
369.86	2275.29
370.07	2363.36
370.28	2107.36
370.49	2324.44
370.70	2342.88
370.91	2174.94
371.12	2097.12
371.33	2441.18
371.54	2193.37
371.75	2363.36
371.96	2088.93
372.17	2275.29
372.38	2158.56
372.59	2326.49
372.80	2226.14
373.01	2195.42
373.22	2322.40
373.43	2287.58
373.64	2052.06
373.85	2367.45
374.06	2414.56
374.26	2295.77
374.47	2275.29
374.68	2455.51
374.89	2344.92
375.10	2220.00
375.31	2275.29
375.52	2275.29
375.73	2260.96
375.94	2236.38
376.15	2400.22
376.36	2201.57
376.57	2209.76
376.78	2142.18
376.99	2312.16
377.20	2416.60
377.40	2265.05
377.61	2400.22
377.82	2136.03
378.03	2385.88
378.24	2416.60
378.45	2220.00
378.66	2226.14
378.87	2090.98
379.08	2113.50
379.29	2170.85
379.50	2439.13
379.71	2260.96
379.91	2363.36
380.12	2252.77
380.33	2248.67
380.54	2283.49
380.75	2228.19
380.96	2215.90
381.17	2318.30
381.38	2265.05
381.59	2291.68
381.80	2234.33
382.00	2385.88
382.21	2277.34
382.42	2504.67
382.63	2449.37
382.84	2242.53
383.05	2336.73
383.26	2502.62
383.47	2224.09
383.68	2252.77
383.88	2273.25
384.09	2334.68
384.30	2416.60
384.51	2277.34
384.72	2240.48
384.93	2146.27
385.14	2254.81
385.35	2330.59
385.55	2187.23
385.76	2357.21
385.97	2205.66
386.18	2203.61
386.39	2142.18
386.60	2199.52
386.81	2234.33
387.02	2195.42
387.22	2117.60
387.43	2398.17
387.64	2248.67
387.85	2351.07
388.06	2432.99
388.27	3966.92
388.48	8243.07
388.68	11474.77
388.89	14075.69
389.10	15218.46
389.31	13743.92
389.52	10915.67
389.73	9357.17
389.93	8484.73
390.14	7956.36
390.35	7100.31
390.56	6338.46
390.77	5158.83
390.98	4052.93
391.18	3282.89
391.39	2713.56
391.60	2346.97
391.81	2475.99
392.02	2252.77
392.23	2611.16
392.43	2295.77
392.64	2449.37
392.85	2271.20
393.06	2449.37
393.27	2287.58
393.47	2172.89
393.68	2236.38
393.89	2207.71
394.10	2338.78
394.31	2193.37
394.52	2195.42
394.72	2230.24
394.93	2455.51
395.14	2117.60
395.35	2293.72
395.56	2170.85
395.76	2277.34
395.97	2299.87
396.18	2351.07
396.39	2408.41
396.60	2625.50
396.80	2457.56
397.01	2365.40
397.22	2465.75
397.43	2490.33
397.64	2267.10
397.84	2322.40
398.05	2502.62
398.26	2217.95
398.47	2316.25
398.67	2316.25
398.88	2320.35
399.09	2320.35
399.30	2228.19
399.51	2263.01
399.71	2211.81
399.92	2267.10
400.13	2392.03
400.34	2232.29
400.54	2258.91
400.75	2392.03
400.96	2260.96
401.17	2449.37
401.37	2400.22
401.58	2234.33
401.79	2318.30
402.00	2389.98
402.21	2625.50
402.41	2529.24
402.62	2570.20
402.83	2654.17
403.04	2731.99
403.24	2740.18
403.45	2461.66
403.66	2535.39
403.87	2494.43
404.07	2473.95
404.28	2553.82
404.49	2465.75
404.70	2234.33
404.90	2326.49
405.11	2285.53
405.32	2277.34
405.52	2281.44
405.73	2220.00
405.94	2156.51
406.15	2205.66
406.35	2375.64
406.56	2297.82
406.77	2326.49
406.98	2346.97
407.18	2170.85
407.39	2418.65
407.60	2183.13
407.80	2322.40
408.01	2158.56
408.22	2308.06
408.43	2242.53
408.63	2334.68
408.84	2371.55
409.05	2357.21
409.25	2211.81
409.46	2207.71
409.67	2226.14
409.88	2127.84
410.08	2293.72
410.29	2217.95
410.50	2342.88
410.70	2349.02
410.91	2234.33
411.12	2301.92
411.32	2285.53
411.53	2095.07
411.74	2389.98
411.95	2318.30
412.15	2336.73
412.36	2400.22
412.57	2357.21
412.77	2422.75
412.98	2285.53
413.19	2215.90
413.39	2236.38
413.60	2351.07
413.81	2377.69
414.01	2224.09
414.22	2277.34
414.43	2367.45
414.63	2252.77
414.84	2412.51
415.05	2203.61
415.25	2058.21
415.46	2285.53
415.67	2246.62
415.87	2301.92
416.08	2248.67
416.29	2193.37
416.49	2293.72
416.70	2244.57
416.91	2195.42
417.11	2265.05
417.32	2449.37
417.53	2318.30
417.73	2258.91
417.94	2226.14
418.15	2332.64
418.35	2267.10
418.56	2277.34
418.77	2574.30
418.97	2281.44
419.18	2295.77
419.38	2066.40
419.59	2236.38
419.80	2441.18
420.00	2246.62
420.21	2213.85
420.42	2363.36
420.62	2265.05
420.83	2185.18
421.04	2183.13
421.24	2269.15
421.45	2310.11
421.65	2326.49
421.86	2179.04
422.07	2371.55
422.27	2310.11
422.48	2250.72
422.69	2217.95
422.89	2195.42
423.10	2236.38
423.30	2179.04
423.51	2285.53
423.72	2258.91
423.92	2316.25
424.13	2191.33
424.33	2293.72
424.54	2392.03
424.75	2238.43
424.95	2365.40
425.16	2185.18
425.36	2244.57
425.57	2404.32
425.78	2310.11
425.98	2260.96
426.19	2224.09
426.39	2109.41
426.60	2324.44
426.81	2369.50
427.01	2191.33
427.22	2187.23
427.42	2105.31
427.63	2146.27
427.83	2320.35
428.04	2447.32
428.25	2389.98
428.45	2351.07
428.66	2416.60
428.86	2303.96
429.07	2279.39
429.28	2283.49
429.48	2242.53
429.69	2129.89
429.89	2308.06
430.10	2127.84
430.30	2269.15
430.51	2410.46
430.71	2185.18
430.92	2342.88
431.13	2117.60
431.33	2295.77
431.54	2256.86
431.74	2416.60
431.95	2469.85
432.15	2140.13
432.36	2306.01
432.56	2260.96
432.77	2449.37
432.98	2455.51
433.18	2215.90
433.39	2205.66
433.59	2217.95
433.80	2516.95
434.00	2478.04
434.21	2234.33
434.41	2222.05
434.62	2488.28
434.82	2133.98
435.03	2203.61
435.23	2324.44
435.44	2185.18
435.64	2160.61
435.85	2265.05
436.06	2242.53
436.26	2340.83
436.47	2244.57
436.67	2152.42
436.88	2252.77
437.08	2367.45
437.29	2420.70
437.49	2260.96
437.70	2400.22
437.90	2312.16
438.11	2510.81
438.31	2267.10
438.52	2443.23
438.72	2443.23
438.93	2525.15
439.13	2381.79
439.34	2369.50
439.54	2185.18
439.75	2381.79
439.95	2357.21
440.16	2269.15
440.36	2217.95
440.57	2277.34
440.77	2258.91
440.98	2220.00
441.18	2387.93
441.39	2248.67
441.59	2078.69
441.80	2498.52
442.00	2351.07
442.21	2379.74
442.41	2185.18
442.62	2359.26
442.82	2176.99
443.02	2193.37
443.23	2293.72
443.43	2240.48
443.64	2408.41
443.84	2172.89
444.05	2336.73
444.25	2330.59
444.46	2211.81
444.66	2242.53
444.87	2392.03
445.07	2222.05
445.28	2213.85
445.48	2359.26
445.69	2234.33
445.89	2545.63
446.09	2281.44
446.30	2543.58
446.50	2869.20
446.71	4409.28
446.91	5648.30
447.12	6338.46
447.32	6606.75
447.53	6072.23
447.73	5089.20
447.93	4552.63
448.14	4263.87
448.34	4100.03
448.55	3602.38
448.75	3487.69
448.96	3389.39
449.16	3088.34
449.36	2858.96
449.57	2611.16
449.77	2381.79
449.98	2248.67
450.18	2363.36
450.39	2332.64
450.59	2359.26
450.79	2181.09
451.00	2244.57
451.20	2375.64
451.41	2170.85
451.61	2236.38
451.81	2334.68
452.02	2275.29
452.22	2275.29
452.43	2252.77
452.63	2226.14
452.84	2287.58
453.04	2191.33
453.24	2285.53
453.45	2224.09
453.65	2203.61
453.86	2287.58
454.06	2256.86
454.26	2187.23
454.47	2246.62
454.67	2416.60
454.87	2279.39
455.08	2211.81
455.28	2420.70
455.49	2359.26
455.69	2154.46
455.89	2420.70
456.10	2400.22
456.30	2271.20
456.51	2357.21
456.71	2328.54
456.91	2244.57
457.12	2330.59
457.32	2308.06
457.52	2256.86
457.73	2332.64
457.93	2283.49
458.14	2209.76
458.34	2052.06
458.54	2164.70
458.75	2215.90
458.95	2342.88
459.15	2349.02
459.36	2279.39
459.56	2240.48
459.76	2531.29
459.97	2308.06
460.17	2203.61
460.37	2316.25
460.58	2285.53
460.78	2258.91
460.99	2201.57
461.19	2267.10
461.39	2254.81
461.60	2199.52
461.80	2299.87
462.00	2222.05
462.21	2256.86
462.41	2162.66
462.61	2150.37
462.82	2111.46
463.02	2324.44
463.22	2191.33
463.43	2324.44
463.63	2228.19
463.83	2488.28
464.04	2287.58
464.24	2301.92
464.44	2133.98
464.64	2334.68
464.85	2299.87
465.05	2336.73
465.25	2238.43
465.46	2277.34
465.66	2293.72
465.86	2252.77
466.07	2244.57
466.27	2273.25
466.47	2174.94
466.68	2127.84
466.88	2385.88
467.08	2334.68
467.29	2441.18
467.49	2324.44
467.69	2248.67
467.89	2340.83
468.10	2306.01
468.30	2248.67
468.50	2400.22
468.71	2267.10
468.91	2150.37
469.11	2449.37
469.31	2320.35
469.52	2138.08
469.72	2404.32
469.92	2385.88
470.13	2269.15
470.33	2215.90
470.53	2394.08
470.73	2648.02
470.94	3094.48
471.14	3069.91
471.34	3475.40
471.54	3452.88
471.75	3043.28
471.95	2877.40
472.15	2799.57
472.36	2752.47
472.56	2719.70
472.76	2715.61
472.96	2631.64
473.17	2457.56
473.37	2484.19
473.57	2353.12
473.77	2369.50
473.98	2299.87
474.18	2125.79
474.38	2627.54
474.58	2185.18
474.79	2164.70
474.99	2342.88
475.19	2310.11
475.39	2183.13
475.60	2389.98
475.80	2318.30
476.00	2301.92
476.20	2211.81
476.41	2297.82
476.61	2326.49
476.81	2492.38
477.01	2211.81
477.21	2332.64
477.42	2404.32
477.62	2263.01
477.82	2392.03
478.02	2244.57
478.23	2265.05
478.43	2144.22
478.63	2201.57
478.83	2301.92
479.03	2269.15
479.24	2367.45
479.44	2498.52
479.64	2119.65
479.84	2090.98
480.04	2226.14
480.25	2318.30
480.45	2185.18
480.65	2217.95
480.85	2379.74
481.06	2154.46
481.26	2306.01
481.46	2283.49
481.66	2308.06
481.86	2189.28
482.06	2398.17
482.27	2191.33
482.47	2224.09
482.67	2377.69
482.87	2250.72
483.07	2377.69
483.28	2240.48
483.48	2211.81
483.68	2260.96
483.88	2230.24
484.08	2056.16
484.29	2172.89
484.49	2271.20
484.69	2129.89
484.89	2451.42
485.09	2326.49
485.29	2234.33
485.50	2273.25
485.70	2283.49
485.90	2371.55
486.10	2283.49
486.30	2318.30
486.50	2387.93
486.71	2275.29
486.91	2381.79
487.11	2383.84
487.31	2215.90
487.51	2285.53
487.71	2250.72
487.91	2197.47
488.12	2248.67
488.32	2084.83
488.52	2195.42
488.72	2152.42
488.92	2242.53
489.12	2428.89
489.32	2369.50
489.53	2346.97
489.73	2154.46
489.93	2475.99
490.13	2211.81
490.33	2133.98
490.53	2291.68
490.73	2445.27
490.94	2172.89
491.14	2320.35
491.34	2342.88
491.54	2600.92
491.74	3192.78
491.94	3747.78
492.14	3995.59
492.34	4140.99
492.54	3844.04
492.75	3170.26
492.95	3147.73
493.15	2959.31
493.35	2877.40
493.55	2801.62
493.75	2688.98
493.95	2756.57
494.15	2611.16
494.35	2392.03
494.56	2402.27
494.76	2293.72
494.96	2285.53
495.16	2289.63
495.36	2293.72
495.56	2312.16
495.76	2279.39
495.96	2191.33
496.16	2193.37
496.36	2510.81
496.56	2189.28
496.77	2349.02
496.97	2303.96
497.17	2387.93
497.37	2158.56
497.57	2279.39
497.77	2224.09
497.97	2156.51
498.17	2301.92
498.37	2211.81
498.57	2326.49
498.77	2250.72
498.97	2332.64
499.17	2408.41
499.38	2232.29
499.58	2332.64
499.78	2432.99
499.98	2410.46
500.18	2260.96
500.38	2195.42
500.58	2432.99
500.78	2838.48
500.98	5164.98
501.18	7194.51
501.38	8968.06
501.58	9590.64
501.78	9625.45
501.98	7747.47
502.18	6481.82
502.38	5515.18
502.58	5279.66
502.78	4523.96
502.98	4521.92
503.18	4247.49
503.38	3880.90
503.59	3375.05
503.79	3235.79
503.99	3008.47
504.19	2791.38
504.39	2904.02
504.59	2772.95
504.79	2912.21
504.99	2813.91
505.19	2523.10
505.39	2449.37
505.59	2605.02
505.79	2531.29
505.99	2396.12
506.19	2306.01
506.39	2439.13
506.59	2242.53
506.79	2291.68
506.99	2389.98
507.19	2342.88
507.39	2291.68
507.59	2150.37
507.79	2232.29
507.99	2185.18
508.19	2250.72
508.39	2217.95
508.59	2205.66
508.79	2408.41
508.99	2441.18
509.19	2228.19
509.39	2314.20
509.59	2217.95
509.79	2172.89
509.99	2271.20
510.19	2318.30
510.39	2285.53
510.59	2349.02
510.79	2193.37
510.99	2156.51
511.19	2344.92
511.39	2424.80
511.59	2369.50
511.79	2398.17
511.99	2232.29
512.19	2500.57
512.38	2236.38
512.58	2201.57
512.78	2248.67
512.98	2394.08
513.18	2435.03
513.38	2150.37
513.58	2238.43
513.78	2185.18
513.98	2306.01
514.18	2275.29
514.38	2179.04
514.58	2301.92
514.78	2285.53
514.98	2154.46
515.18	2320.35
515.38	2140.13
515.58	2457.56
515.78	2168.80
515.98	2205.66
516.18	2396.12
516.38	2297.82
516.57	2226.14
516.77	2197.47
516.97	2371.55
517.17	2234.33
517.37	2154.46
517.57	2283.49
517.77	2353.12
517.97	2185.18
518.17	2310.11
518.37	2211.81
518.57	2265.05
518.77	2226.14
518.97	2308.06
519.16	2260.96
519.36	2336.73
519.56	2256.86
519.76	2299.87
519.96	2299.87
520.16	2369.50
520.36	2142.18
520.56	2424.80
520.76	2226.14
520.96	2232.29
521.16	2445.27
521.35	2320.35
521.55	2416.60
521.75	2224.09
521.95	2207.71
522.15	2269.15
522.35	2029.54
522.55	2203.61
522.75	2369.50
522.95	2220.00
523.14	2211.81
523.34	2332.64
523.54	2248.67
523.74	2326.49
523.94	2285.53
524.14	2119.65
524.34	2361.31
524.54	2377.69
524.73	2252.77
524.93	2277.34
525.13	2252.77
525.33	2082.78
525.53	2512.86
525.73	2316.25
525.93	2258.91
526.13	2172.89
526.32	2240.48
526.52	2353.12
526.72	2299.87
526.92	2269.15
527.12	2207.71
527.32	2162.66
527.52	2306.01
527.71	2269.15
527.91	2199.52
528.11	2273.25
528.31	2244.57
528.51	2250.72
528.71	2322.40
528.90	2357.21
529.10	2463.71
529.30	2398.17
529.50	2070.50
529.70	2244.57
529.90	2213.85
530.09	2244.57
530.29	2211.81
530.49	2226.14
530.69	2547.67
530.89	2211.81
531.09	2250.72
531.28	2240.48
531.48	2365.40
531.68	2379.74
531.88	2308.06
532.08	2351.07
532.28	2306.01
532.47	2326.49
532.67	2377.69
532.87	2289.63
533.07	2248.67
533.27	2322.40
533.46	2275.29
533.66	2260.96
533.86	2310.11
534.06	2334.68
534.26	2273.25
534.45	2185.18
534.65	2363.36
534.85	2361.31
535.05	2220.00
535.25	2437.08
535.44	2111.46
535.64	2340.83
535.84	2250.72
536.04	2158.56
536.24	2203.61
536.43	2226.14
536.63	2303.96
536.83	2340.83
537.03	2289.63
537.22	2187.23
537.42	2117.60
537.62	2359.26
537.82	2269.15
538.02	2439.13
538.21	2308.06
538.41	2594.78
538.61	2371.55
538.81	2211.81
539.00	2387.93
539.20	2136.03
539.40	2246.62
539.60	2392.03
539.79	2410.46
539.99	2295.77
540.19	2191.33
540.39	2258.91
540.58	2297.82
540.78	2306.01
540.98	2269.15
541.18	2318.30
541.37	2267.10
541.57	2338.78
541.77	2295.77
541.97	2279.39
542.16	2123.74
542.36	2252.77
542.56	2232.29
542.76	2416.60
542.95	2285.53
543.15	2416.60
543.35	2373.60
543.54	2176.99
543.74	2150.37
543.94	2351.07
544.14	2256.86
544.33	2316.25
544.53	2301.92
544.73	2179.04
544.93	2289.63
545.12	2273.25
545.32	2185.18
545.52	2234.33
545.71	2172.89
545.91	2217.95
546.11	2234.33
546.30	2252.77
546.50	2181.09
546.70	2224.09
546.90	2269.15
547.09	2076.64
547.29	2340.83
547.49	2273.25
547.68	2236.38
547.88	2154.46
548.08	2387.93
548.27	2848.72
548.47	2203.61
548.67	2269.15
548.87	2269.15
549.06	2189.28
549.26	2295.77
549.46	2324.44
549.65	2220.00
549.85	2248.67
550.05	2236.38
550.24	2107.36
550.44	2252.77
550.64	2297.82
550.83	2238.43
551.03	2408.41
551.23	2381.79
551.42	2336.73
551.62	2242.53
551.82	2322.40
552.01	2306.01
552.21	2334.68
552.41	2303.96
552.60	2410.46
552.80	2373.60
553.00	2172.89
553.19	2326.49
553.39	2480.09
553.59	2179.04
553.78	2332.64
553.98	2195.42
554.17	2166.75
554.37	2316.25
554.57	2349.02
554.76	2090.98
554.96	2260.96
555.16	2334.68
555.35	2232.29
555.55	2260.96
555.75	2375.64
555.94	2320.35
556.14	2080.74
556.33	2273.25
556.53	2232.29
556.73	2256.86
556.92	2295.77
557.12	2334.68
557.32	2447.32
557.51	2484.19
557.71	2248.67
557.90	2365.40
558.10	2453.47
558.30	2281.44
558.49	2258.91
558.69	2217.95
558.88	2328.54
559.08	2287.58
559.28	2187.23
559.47	2269.15
559.67	2344.92
559.86	2508.76
560.06	2301.92
560.26	2314.20
560.45	2252.77
560.65	2211.81
560.84	2398.17
561.04	2211.81
561.24	2283.49
561.43	2136.03
561.63	2447.32
561.82	2291.68
562.02	2314.20
562.22	2191.33
562.41	2187.23
562.61	2187.23
562.80	2211.81
563.00	2570.20
563.19	2273.25
563.39	2342.88
563.59	2381.79
563.78	2123.74
563.98	2029.54
564.17	2263.01
564.37	2084.83
564.56	2363.36
564.76	2070.50
564.96	2424.80
565.15	2301.92
565.35	2539.48
565.54	2279.39
565.74	2228.19
565.93	2357.21
566.13	2252.77
566.32	2322.40
566.52	2365.40
566.71	2326.49
566.91	2361.31
567.11	2355.16
567.30	2203.61
567.50	2314.20
567.69	2363.36
567.89	2217.95
568.08	2162.66
568.28	2324.44
568.47	2123.74
568.67	2330.59
568.86	2224.09
569.06	2342.88
569.25	2187.23
569.45	2168.80
569.64	2170.85
569.84	2293.72
570.04	2314.20
570.23	2215.90
570.43	2234.33
570.62	2328.54
570.82	2418.65
571.01	2166.75
571.21	2234.33
571.40	2187.23
571.60	2334.68
571.79	2312.16
571.99	2324.44
572.18	2164.70
572.38	2334.68
572.57	2283.49
572.77	2295.77
572.96	2582.49
573.16	2334.68
573.35	2250.72
573.55	2316.25
573.74	2410.46
573.94	2267.10
574.13	2209.76
574.33	2289.63
574.52	2435.03
574.71	2279.39
574.91	2244.57
575.10	2142.18
575.30	2238.43
575.49	2168.80
575.69	2183.13
575.88	2389.98
576.08	2318.30
576.27	2430.94
576.47	2306.01
576.66	2441.18
576.86	2510.81
577.05	2349.02
577.25	2332.64
577.44	2484.19
577.64	2250.72
577.83	2430.94
578.02	2224.09
578.22	2369.50
578.41	2502.62
578.61	2265.05
578.80	2224.09
579.00	2332.64
579.19	2273.25
579.39	2340.83
579.58	2330.59
579.77	2215.90
579.97	2512.86
580.16	2410.46
580.36	2428.89
580.55	2338.78
580.75	2342.88
580.94	2289.63
581.13	2392.03
581.33	2432.99
581.52	2250.72
581.72	2424.80
581.91	2430.94
582.11	2207.71
582.30	2406.36
582.49	2320.35
582.69	2473.95
582.88	2328.54
583.08	2303.96
583.27	2383.84
583.47	2314.20
583.66	2250.72
583.85	2179.04
584.05	2242.53
584.24	2377.69
584.44	2293.72
584.63	2389.98
584.82	2445.27
585.02	2498.52
585.21	2404.32
585.41	2473.95
585.60	2435.03
585.79	2555.86
585.99	2502.62
586.18	2439.13
586.37	2949.08
586.57	4573.11
586.76	13885.23
586.96	33013.26
587.15	46738.74
587.34	56419.49
587.54	61351.00
587.73	55837.87
587.93	39579.04
588.12	30230.07
588.31	23981.71
588.51	21046.97
588.70	19390.17
588.89	17604.34
589.09	15265.56
589.28	13127.48
589.47	10403.68
589.67	8445.82
589.86	6387.61
590.06	4648.89
590.25	3825.61
590.44	3186.64
590.64	2828.24
590.83	2684.89
591.02	2557.91
591.22	2365.40
591.41	2414.56
591.60	2338.78
591.80	2594.78
591.99	2179.04
592.18	2265.05
592.38	2402.27
592.57	2297.82
592.76	2342.88
592.96	2283.49
593.15	2197.47
593.34	2389.98
593.54	2287.58
593.73	2310.11
593.92	2412.51
594.12	2314.20
594.31	2287.58
594.50	2504.67
594.70	2334.68
594.89	2551.77
595.08	2220.00
595.28	2392.03
595.47	2691.03
595.66	2414.56
595.86	2140.13
596.05	2191.33
596.24	2260.96
596.43	2533.34
596.63	2449.37
596.82	2349.02
597.01	2293.72
597.21	2492.38
597.40	2400.22
597.59	2260.96
597.79	2346.97
597.98	2285.53
598.17	2297.82
598.36	2314.20
598.56	2330.59
598.75	2226.14
598.94	2269.15
599.14	2283.49
599.33	2222.05
599.52	2449.37
599.71	2263.01
599.91	2338.78
600.10	2310.11
600.29	2293.72
600.48	2308.06
600.68	2342.88
600.87	2303.96
601.06	2275.29
601.26	2293.72
601.45	2203.61
601.64	2195.42
601.83	2404.32
602.03	2170.85
602.22	2125.79
602.41	2478.04
602.60	2500.57
602.80	2316.25
602.99	2389.98
603.18	2295.77
603.37	2326.49
603.57	2299.87
603.76	2301.92
603.95	2342.88
604.14	2217.95
604.34	2211.81
604.53	2213.85
604.72	2361.31
604.91	2363.36
605.10	2355.16
605.30	2131.94
605.49	2486.23
605.68	2297.82
605.87	2316.25
606.07	2217.95
606.26	2242.53
606.45	2297.82
606.64	2318.30
606.84	2201.57
607.03	2332.64
607.22	2455.51
607.41	2287.58
607.60	2234.33
607.80	2381.79
607.99	2291.68
608.18	2287.58
608.37	2297.82
608.56	2224.09
608.76	2482.14
608.95	2469.85
609.14	2299.87
609.33	2529.24
609.52	2525.15
609.72	2361.31
609.91	2379.74
610.10	2320.35
610.29	2414.56
610.48	2310.11
610.68	2346.97
610.87	2285.53
611.06	2359.26
611.25	2267.10
611.44	2445.27
611.63	2209.76
611.83	2357.21
612.02	2117.60
612.21	2357.21
612.40	2174.94
612.59	2154.46
612.79	2154.46
612.98	2293.72
613.17	2439.13
613.36	2306.01
613.55	2424.80
613.74	2336.73
613.93	2439.13
614.13	2490.33
614.32	2523.10
614.51	2471.90
614.70	2412.51
614.89	2318.30
615.08	2402.27
615.28	2815.96
615.47	2193.37
615.66	2301.92
615.85	2228.19
616.04	2467.80
616.23	2332.64
616.42	2281.44
616.62	2273.25
616.81	2316.25
617.00	2416.60
617.19	2224.09
617.38	2269.15
617.57	2256.86
617.76	2392.03
617.95	2424.80
618.15	2357.21
618.34	2514.91
618.53	2213.85
618.72	2398.17
618.91	2416.60
619.10	2418.65
619.29	2252.77
619.48	2357.21
619.68	2170.85
619.87	2250.72
620.06	2193.37
620.25	2410.46
620.44	2230.24
620.63	2215.90
620.82	2287.58
621.01	2301.92
621.20	2281.44
621.39	2287.58
621.59	2277.34
621.78	2287.58
621.97	2244.57
622.16	2314.20
622.35	2340.83
622.54	2400.22
622.73	2349.02
622.92	2154.46
623.11	2404.32
623.30	2250.72
623.49	2310.11
623.68	2215.90
623.88	2412.51
624.07	2299.87
624.26	2215.90
624.45	2197.47
624.64	2185.18
624.83	2293.72
625.02	2289.63
625.21	2244.57
625.40	2289.63
625.59	2480.09
625.78	2211.81
625.97	2277.34
626.16	2453.47
626.35	2310.11
626.54	2301.92
626.74	2414.56
626.93	2265.05
627.12	2213.85
627.31	2373.60
627.50	2355.16
627.69	2318.30
627.88	2236.38
628.07	2185.18
628.26	2090.98
628.45	2179.04
628.64	2162.66
628.83	2285.53
629.02	2054.11
629.21	2291.68
629.40	2338.78
629.59	2203.61
629.78	2246.62
629.97	2281.44
630.16	2283.49
630.35	2236.38
630.54	2238.43
630.73	2242.53
630.92	2197.47
631.11	2203.61
631.30	2301.92
631.49	2365.40
631.68	2263.01
631.87	2303.96
632.06	2193.37
632.25	2564.06
632.44	2275.29
632.63	2330.59
632.82	2310.11
633.01	2285.53
633.20	2398.17
633.39	2201.57
633.58	2238.43
633.77	2293.72
633.96	2328.54
634.15	2334.68
634.34	2332.64
634.53	2351.07
634.72	2236.38
634.91	2097.12
635.10	2297.82
635.29	2326.49
635.48	2220.00
635.67	2187.23
635.86	2170.85
636.05	2451.42
636.24	2230.24
636.43	2306.01
636.62	2250.72
636.81	2060.26
637.00	2320.35
637.19	2367.45
637.38	2260.96
637.57	2263.01
637.76	2279.39
637.95	2392.03
638.14	2263.01
638.33	2355.16
638.52	2326.49
638.71	2181.09
638.89	2154.46
639.08	2533.34
639.27	2389.98
639.46	2441.18
639.65	2879.44
639.84	2914.26
640.03	2912.21
640.22	2901.97
640.41	2920.40
640.60	2498.52
640.79	2539.48
640.98	2340.83
641.17	2555.86
641.36	2445.27
641.55	2453.47
641.74	2187.23
641.92	2306.01
642.11	2314.20
642.30	2187.23
642.49	2240.48
642.68	2297.82
642.87	2277.34
643.06	2334.68
643.25	2179.04
643.44	2160.61
643.63	2275.29
643.82	2267.10
644.00	2127.84
644.19	2226.14
644.38	2136.03
644.57	2334.68
644.76	2236.38
644.95	2252.77
645.14	2285.53
645.33	2252.77
645.52	2281.44
645.71	2140.13
645.89	2215.90
646.08	2248.67
646.27	2136.03
646.46	2478.04
646.65	2093.02
646.84	2342.88
647.03	2148.32
647.22	2422.75
647.40	2293.72
647.59	2220.00
647.78	2109.41
647.97	2187.23
648.16	2162.66
648.35	2398.17
648.54	2383.84
648.73	2242.53
648.91	2379.74
649.10	2332.64
649.29	2238.43
649.48	2293.72
649.67	2267.10
649.86	2326.49
650.05	2269.15
650.23	2463.71
650.42	2346.97
650.61	2512.86
650.80	2432.99
650.99	2539.48
651.18	2420.70
651.36	2447.32
651.55	2269.15
651.74	2314.20
651.93	2248.67
652.12	2322.40
652.31	2250.72
652.49	2185.18
652.68	2273.25
652.87	2457.56
653.06	2355.16
653.25	2447.32
653.44	2297.82
653.62	2404.32
653.81	2285.53
654.00	2240.48
654.19	2326.49
654.38	2533.34
654.56	2293.72
654.75	2240.48
654.94	2439.13
655.13	2367.45
655.32	2260.96
655.51	2260.96
655.69	2189.28
655.88	2351.07
656.07	2142.18
656.26	2322.40
656.45	2136.03
656.63	2254.81
656.82	2297.82
657.01	2308.06
657.20	2275.29
657.38	2308.06
657.57	2258.91
657.76	2129.89
657.95	2371.55
658.14	2142.18
658.32	2332.64
658.51	2170.85
658.70	2320.35
658.89	2258.91
659.08	2248.67
659.26	2480.09
659.45	2220.00
659.64	2394.08
659.83	2191.33
660.01	2602.97
660.20	2263.01
660.39	2416.60
660.58	2023.39
660.76	2379.74
660.95	2195.42
661.14	2230.24
661.33	2123.74
661.51	2224.09
661.70	2203.61
661.89	2295.77
662.08	2226.14
662.26	2164.70
662.45	2146.27
662.64	2455.51
662.83	2256.86
663.01	2260.96
663.20	2246.62
663.39	2394.08
663.58	2260.96
663.76	2291.68
663.95	2349.02
664.14	2181.09
664.32	2146.27
664.51	2176.99
664.70	2109.41
664.89	2260.96
665.07	2136.03
665.26	2359.26
665.45	2127.84
665.64	2291.68
665.82	2226.14
666.01	2416.60
666.20	2097.12
666.38	2381.79
666.57	2441.18
666.76	3280.85
666.95	8288.13
667.13	16285.45
667.32	21288.64
667.51	24565.39
667.69	26459.76
667.88	24053.39
668.07	17090.30
668.25	13965.10
668.44	11681.61
668.63	10069.86
668.81	8714.11
669.00	7733.13
669.19	6862.74
669.38	5906.34
669.56	5207.98
669.75	4267.97
669.94	3669.96
670.12	3104.72
670.31	2856.92
670.50	2555.86
670.68	2555.86
670.87	2443.23
671.06	2367.45
671.24	2310.11
671.43	2453.47
671.62	2351.07
671.80	2260.96
671.99	2332.64
672.18	2314.20
672.36	2392.03
672.55	2357.21
672.74	2254.81
672.92	2236.38
673.11	2367.45
673.29	2117.60
673.48	2357.21
673.67	2260.96
673.85	2389.98
674.04	2140.13
674.23	2273.25
674.41	2523.10
674.60	2144.22
674.79	2072.54
674.97	2146.27
675.16	2289.63
675.34	2351.07
675.53	2195.42
675.72	2269.15
675.90	2531.29
676.09	2242.53
676.28	2316.25
676.46	2086.88
676.65	2310.11
676.83	2185.18
677.02	2316.25
677.21	2263.01
677.39	2326.49
677.58	2154.46
677.77	2230.24
677.95	2203.61
678.14	2236.38
678.32	2344.92
678.51	2105.31
678.70	2465.75
678.88	2203.61
679.07	2271.20
679.25	2277.34
679.44	2232.29
679.63	2158.56
679.81	2351.07
680.00	2346.97
680.18	2299.87
680.37	2363.36
680.55	2308.06
680.74	2176.99
680.93	2086.88
681.11	2355.16
681.30	2217.95
681.48	2377.69
681.67	2244.57
681.85	2277.34
682.04	2144.22
682.23	2269.15
682.41	2269.15
682.60	2228.19
682.78	2256.86
682.97	2086.88
683.15	2174.94
683.34	2342.88
683.53	2416.60
683.71	2105.31
683.90	2418.65
684.08	2469.85
684.27	2154.46
684.45	2285.53
684.64	2387.93
684.82	2195.42
685.01	2400.22
685.19	2228.19
685.38	2432.99
685.57	2248.67
685.75	2158.56
685.94	2201.57
686.12	2129.89
686.31	2195.42
686.49	2463.71
686.68	2109.41
686.86	2258.91
687.05	2232.29
687.23	2443.23
687.42	2240.48
687.60	2158.56
687.79	2340.83
687.97	2441.18
688.16	2402.27
688.34	2439.13
688.53	2183.13
688.71	2392.03
688.90	2406.36
689.08	2265.05
689.27	2072.54
689.45	2379.74
689.64	2308.06
689.82	2275.29
690.01	2330.59
690.19	2226.14
690.38	2207.71
690.56	2412.51
690.75	2234.33
690.93	2271.20
691.12	2152.42
691.30	2285.53
691.49	2236.38
691.67	2230.24
691.86	2439.13
692.04	2201.57
692.23	2195.42
692.41	2256.86
692.60	2459.61
692.78	2404.32
692.97	2332.64
693.15	2420.70
693.34	2508.76
693.52	2303.96
693.71	2224.09
693.89	2199.52
694.08	2154.46
694.26	2340.83
694.44	2293.72
694.63	2295.77
694.81	2193.37
695.00	2103.26
695.18	2414.56
695.37	2531.29
695.55	2324.44
695.74	2283.49
695.92	2166.75
696.10	2396.12
696.29	2160.61
696.47	2193.37
696.66	2179.04
696.84	2136.03
697.03	2242.53
697.21	2467.80
697.40	3239.89
697.58	2369.50
697.76	2207.71
697.95	2299.87
698.13	2162.66
698.32	2207.71
698.50	2260.96
698.68	2256.86
698.87	2301.92
699.05	2443.23
699.24	2269.15
699.42	2105.31
699.61	2316.25
699.79	2293.72
699.97	2244.57
700.16	2117.60
700.34	2125.79
700.53	2293.72
700.71	2498.52
700.89	2265.05
701.08	2328.54
701.26	2285.53
701.45	2826.20
701.63	2220.00
701.81	2211.81
702.00	2170.85
702.18	2265.05
702.37	2256.86
702.55	2564.06
702.73	2422.75
702.92	2367.45
703.10	2494.43
703.28	2559.96
703.47	2273.25
703.65	2437.08
703.84	2418.65
704.02	2242.53
704.20	2449.37
704.39	2193.37
704.57	2340.83
704.75	2326.49
704.94	2400.22
705.12	2357.21
705.30	2605.02
705.49	4427.71
705.67	10270.56
705.86	18034.41
706.04	21778.10
706.22	24831.62
706.41	25859.70
706.59	21943.99
706.77	15666.96
706.96	13076.28
707.14	11370.32
707.32	9832.30
707.51	8769.40
707.69	7274.38
707.87	5914.53
708.06	4784.06
708.24	4057.03
708.42	3252.17
708.61	2975.70
708.79	2461.66
708.97	2328.54
709.16	2346.97
709.34	2289.63
709.52	2277.34
709.71	2303.96
709.89	2383.84
710.07	2187.23
710.26	2205.66
710.44	2215.90
710.62	2392.03
710.80	2291.68
710.99	2297.82
711.17	2346.97
711.35	2252.77
711.54	2201.57
711.72	2439.13
711.90	2316.25
712.09	2222.05
712.27	2236.38
712.45	2248.67
712.63	2260.96
712.82	2303.96
713.00	2250.72
713.18	2351.07
713.37	2389.98
713.55	2334.68
713.73	2346.97
713.91	2316.25
714.10	2176.99
714.28	2226.14
714.46	2275.29
714.65	2326.49
714.83	2236.38
715.01	2252.77
715.19	2332.64
715.38	2224.09
715.56	2342.88
715.74	2144.22
715.92	2213.85
716.11	2402.27
716.29	2088.93
716.47	2240.48
716.65	2273.25
716.84	2131.94
717.02	2379.74
717.20	2142.18
717.38	2207.71
717.57	2316.25
717.75	2217.95
717.93	2236.38
718.11	2373.60
718.30	2179.04
718.48	2277.34
718.66	2326.49
718.84	2396.12
719.03	2195.42
719.21	2088.93
719.39	2412.51
719.57	2334.68
719.75	2326.49
719.94	2211.81
720.12	2236.38
720.30	2314.20
720.48	2299.87
720.67	2242.53
720.85	2164.70
721.03	2267.10
721.21	2125.79
721.39	2334.68
721.58	2301.92
721.76	2244.57
721.94	2269.15
722.12	2328.54
722.30	2457.56
722.49	2240.48
722.67	2244.57
722.85	2277.34
723.03	2115.55
723.21	2260.96
723.40	2310.11
723.58	2385.88
723.76	2371.55
723.94	2420.70
724.12	2299.87
724.30	2422.75
724.49	2400.22
724.67	2185.18
724.85	2383.84
725.03	2187.23
725.21	2385.88
725.40	2412.51
725.58	2236.38
725.76	2428.89
725.94	2332.64
726.12	2158.56
726.30	2281.44
726.49	2183.13
726.67	2224.09
726.85	2303.96
727.03	2531.29
727.21	3526.60
727.39	5046.20
727.57	5963.68
727.76	6422.43
727.94	6969.24
728.12	6352.80
728.30	5181.36
728.48	4466.62
728.66	4116.42
728.84	3786.69
729.03	3342.28
729.21	3045.33
729.39	2711.51
729.57	2432.99
729.75	2424.80
729.93	2357.21
730.11	2185.18
730.30	2236.38
730.48	2260.96
730.66	2400.22
730.84	2318.30
731.02	2267.10
731.20	2228.19
731.38	2246.62
731.56	2142.18
731.74	2121.70
731.93	2256.86
732.11	2267.10
732.29	2250.72
732.47	2394.08
732.65	2310.11
732.83	2422.75
733.01	2334.68
733.19	2234.33
733.37	2299.87
733.56	2277.34
733.74	2277.34
733.92	2340.83
734.10	2281.44
734.28	2293.72
734.46	2099.17
734.64	2308.06
734.82	2312.16
735.00	2209.76
735.18	2211.81
735.36	2248.67
735.54	2295.77
735.73	2303.96
735.91	2277.34
736.09	2306.01
736.27	2228.19
736.45	2269.15
736.63	2078.69
736.81	2228.19
736.99	2334.68
737.17	2340.83
737.35	2179.04
737.53	2209.76
737.71	2191.33
737.89	2365.40
738.07	2281.44
738.25	2222.05
738.43	2160.61
738.61	2215.90
738.80	2035.68
738.98	2113.50
739.16	2248.67
739.34	2185.18
739.52	2371.55
739.70	2250.72
739.88	2383.84
740.06	2355.16
740.24	2084.83
740.42	2400.22
740.60	2050.02
740.78	2226.14
740.96	2117.60
741.14	2234.33
741.32	2299.87
741.50	2156.51
741.68	2389.98
741.86	2406.36
742.04	2174.94
742.22	2187.23
742.40	2285.53
742.58	2271.20
742.76	2211.81
742.94	2318.30
743.12	2121.70
743.30	2267.10
743.48	2254.81
743.66	2150.37
743.84	2342.88
744.02	2201.57
744.20	2293.72
744.38	2183.13
744.56	2162.66
744.74	2402.27
744.92	2322.40
745.10	2359.26
745.28	2277.34
745.46	2478.04
745.64	2203.61
745.82	2412.51
746.00	2240.48
746.18	2299.87
746.36	2199.52
746.54	2355.16
746.72	2293.72
746.90	2144.22
747.08	2373.60
747.26	2152.42
747.44	2316.25
747.62	2299.87
747.80	2281.44
747.98	2297.82
748.15	2226.14
748.33	2402.27
748.51	2289.63
748.69	2260.96
748.87	2099.17
749.05	2238.43
749.23	2230.24
749.41	2277.34
749.59	2211.81
749.77	2369.50
749.95	2215.90
750.13	2185.18
750.31	2308.06
750.49	2211.81
750.67	2318.30
750.85	2398.17
751.03	2252.77
751.20	2424.80
751.38	2265.05
751.56	2205.66
751.74	2269.15
751.92	2234.33
752.10	2156.51
752.28	2387.93
752.46	2215.90
752.64	2265.05
752.82	2193.37
753.00	2342.88
753.18	2238.43
753.35	2308.06
753.53	2269.15
753.71	2256.86
753.89	2275.29
754.07	2287.58
754.25	2330.59
754.43	2336.73
754.61	2088.93
754.79	2367.45
754.97	2252.77
755.14	2303.96
755.32	2158.56
755.50	2230.24
755.68	2332.64
755.86	2162.66
756.04	2207.71
756.22	2113.50
756.40	2371.55
756.57	2408.41
756.75	2199.52
756.93	2285.53
757.11	2269.15
757.29	2088.93
757.47	2191.33
757.65	2101.22
757.82	2109.41
758.00	2160.61
758.18	2220.00
758.36	2217.95
758.54	2422.75
758.72	2150.37
758.90	2291.68
759.07	2318.30
759.25	2176.99
759.43	2250.72
759.61	2146.27
759.79	3080.14
759.97	2342.88
760.15	2160.61
760.32	2252.77
760.50	2330.59
760.68	2426.84
760.86	2131.94
761.04	2336.73
761.22	2383.84
761.39	2322.40
761.57	2346.97
761.75	2250.72
761.93	2275.29
762.11	2283.49
762.28	2279.39
762.46	2133.98
762.64	2369.50
762.82	2187.23
763.00	2312.16
763.18	2400.22
763.35	2191.33
763.53	2357.21
763.71	2244.57
763.89	2226.14
764.07	2346.97
764.24	2209.76
764.42	2359.26
764.60	2242.53
764.78	2316.25
764.96	2260.96
765.13	2293.72
765.31	2224.09
765.49	2318.30
765.67	2115.55
765.84	2211.81
766.02	2174.94
766.20	2095.07
766.38	2281.44
766.56	2267.10
766.73	2318.30
766.91	2152.42
767.09	2252.77
767.27	2299.87
767.44	2136.03
767.62	2289.63
767.80	2250.72
767.98	2109.41
768.15	2181.09
768.33	2357.21
768.51	2369.50
768.69	2336.73
768.87	2275.29
769.04	2310.11
769.22	2512.86
769.40	2400.22
769.58	2416.60
769.75	2297.82
769.93	2340.83
770.11	2226.14
770.28	2144.22
770.46	2260.96
770.64	2291.68
770.82	2203.61
770.99	2217.95
771.17	2220.00
771.35	2203.61
771.53	2222.05
771.70	2228.19
771.88	2228.19
772.06	2260.96
772.23	2187.23
772.41	2303.96
772.59	2242.53
772.77	2201.57
772.94	2256.86
773.12	2285.53
773.30	2201.57
773.47	2318.30
773.65	2080.74
773.83	2371.55
774.01	2224.09
774.18	2080.74
774.36	2279.39
774.54	2170.85
774.71	2254.81
774.89	2062.30
775.07	2160.61
775.24	2162.66
775.42	2238.43
775.60	2482.14
775.78	2203.61
775.95	2070.50
776.13	2117.60
776.31	2041.82
776.48	2244.57
776.66	2312.16
776.84	2199.52
777.01	2172.89
777.19	2146.27
777.37	2222.05
777.54	2326.49
777.72	2553.82
777.90	2260.96
778.07	2156.51
778.25	2519.00
778.43	2351.07
778.60	2187.23
778.78	2351.07
778.96	2402.27
779.13	2080.74
779.31	2293.72
779.49	2203.61
779.66	2238.43
779.84	2207.71
780.01	2224.09
780.19	2181.09
780.37	2324.44
780.54	2258.91
780.72	2121.70
780.90	2250.72
781.07	2252.77
781.25	2220.00
781.43	2420.70
781.60	2203.61
781.78	2383.84
781.95	2269.15
782.13	2252.77
782.31	2230.24
782.48	2060.26
782.66	2244.57
782.83	2422.75
783.01	2269.15
783.19	2359.26
783.36	2217.95
783.54	2113.50
783.72	2357.21
783.89	2158.56
784.07	2277.34
784.24	2310.11
784.42	2351.07
784.60	2228.19
784.77	2297.82
784.95	2033.63
785.12	2189.28
785.30	2230.24
785.47	2168.80
785.65	2115.55
785.83	2185.18
786.00	2170.85
786.18	2285.53
786.35	2187.23
786.53	2179.04
786.71	2353.12
786.88	2252.77
787.06	2236.38
787.23	2226.14
787.41	2150.37
787.58	2162.66
787.76	2185.18
787.94	2201.57
788.11	2244.57
788.29	2148.32
788.46	2240.48
788.64	2072.54
788.81	2242.53
788.99	2203.61
789.16	2166.75
789.34	2275.29
789.52	2269.15
789.69	2228.19
789.87	2138.08
790.04	2205.66
790.22	2189.28
790.39	2555.86
790.57	2193.37
790.74	2109.41
790.92	2289.63
791.09	2105.31
791.27	2256.86
791.44	2299.87
791.62	2203.61
791.79	2369.50
791.97	2275.29
792.15	2455.51
792.32	2340.83
792.50	2279.39
792.67	2404.32
792.85	2392.03
793.02	2318.30
793.20	2283.49
793.37	2088.93
793.55	2281.44
793.72	2080.74
793.90	2301.92
794.07	2162.66
794.25	2158.56
794.42	2193.37
794.60	2273.25
794.77	2248.67
794.95	2314.20
795.12	2316.25
795.30	2242.53
795.47	2090.98
795.65	2482.14
795.82	2283.49
796.00	2111.46
796.17	2226.14
796.34	2105.31
796.52	2285.53
796.69	2318.30
796.87	2324.44
797.04	2285.53
797.22	2293.72
797.39	2314.20
797.57	2211.81
797.74	2244.57
797.92	2275.29
798.09	2211.81
798.27	2346.97
798.44	2217.95
798.62	2193.37
798.79	2316.25
798.96	2342.88
799.14	2260.96
799.31	2529.24
799.49	2250.72
799.66	2258.91
799.84	2267.10
800.01	2113.50
800.19	2273.25
800.36	2111.46
800.53	2265.05
800.71	2396.12
800.88	2396.12
801.06	2238.43
801.23	2160.61
801.41	2230.24
801.58	2172.89
801.75	2224.09
801.93	2310.11
802.10	2318.30
802.28	2299.87
802.45	2228.19
802.63	2269.15
802.80	2396.12
802.97	2244.57
803.15	2260.96
803.32	2226.14
803.50	2181.09
803.67	2183.13
803.84	2236.38
804.02	2205.66
804.19	2230.24
804.37	2007.01
804.54	2160.61
804.71	2248.67
804.89	2232.29
805.06	2146.27
805.24	2142.18
805.41	2099.17
805.58	2215.90
805.76	2480.09
805.93	2252.77
806.10	2318.30
806.28	2281.44
806.45	2236.38
806.63	2269.15
806.80	2301.92
806.97	2285.53
807.15	2281.44
807.32	2240.48
807.49	2250.72
807.67	2103.26
807.84	2269.15
808.01	2074.59
808.19	2408.41
808.36	2471.90
808.54	2187.23
808.71	2168.80
808.88	2201.57
809.06	2316.25
809.23	2500.57
809.40	2166.75
809.58	2244.57
809.75	2275.29
809.92	2119.65
810.10	2506.71
810.27	2211.81
810.44	2291.68
810.62	2379.74
810.79	2217.95
810.96	2140.13
811.14	2172.89
811.31	2265.05
811.48	2330.59
811.66	2230.24
811.83	2293.72
812.00	2326.49
812.18	2260.96
812.35	2439.13
812.52	2226.14
812.69	2166.75
812.87	2211.81
813.04	2215.90
813.21	2162.66
813.39	2105.31
813.56	2129.89
813.73	2332.64
813.91	2236.38
814.08	2285.53
814.25	2228.19
814.42	2160.61
814.60	2263.01
814.77	2287.58
814.94	2217.95
815.12	2324.44
815.29	2293.72
815.46	2144.22
815.63	2269.15
815.81	2217.95
815.98	2242.53
816.15	2246.62
816.33	2265.05
816.50	2156.51
816.67	2226.14
816.84	2256.86
817.02	2158.56
817.19	2260.96
817.36	2326.49
817.53	2303.96
817.71	2236.38
817.88	2365.40
818.05	2263.01
818.22	2195.42
818.40	2379.74
818.57	2162.66
818.74	2250.72
818.91	2185.18
819.09	2187.23
819.26	2267.10
819.43	2146.27
819.60	2236.38
819.78	2281.44
819.95	2346.97
820.12	2183.13
820.29	2334.68
820.47	2357.21
820.64	2203.61
820.81	2076.64
820.98	2185.18
821.15	2256.86
821.33	2269.15
821.50	2133.98
821.67	2244.57
821.84	2170.85
822.02	2303.96
822.19	2387.93
822.36	2189.28
822.53	2129.89
822.70	2113.50
822.88	2228.19
823.05	2379.74
823.22	2150.37
823.39	2363.36
823.56	2246.62
823.74	2449.37
823.91	2109.41
824.08	2181.09
824.25	2080.74
824.42	2432.99
824.60	2097.12
824.77	2271.20
824.94	2191.33
825.11	2322.40
825.28	2082.78
825.45	2250.72
825.63	2193.37
825.80	2162.66
825.97	2252.77
826.14	2228.19
826.31	2039.78
826.48	2234.33
826.66	2154.46
826.83	2195.42
827.00	2220.00
827.17	2117.60
827.34	2220.00
827.51	2203.61
827.69	2217.95
827.86	2121.70
828.03	2203.61
828.20	2238.43
828.37	2191.33
828.54	2283.49
828.71	2207.71
828.89	2344.92
829.06	2152.42
829.23	2383.84
829.40	2121.70
829.57	2244.57
829.74	2318.30
829.91	2181.09
830.09	2154.46
830.26	2316.25
830.43	2435.03
830.60	2242.53
830.77	2275.29
830.94	2389.98
831.11	2318.30
831.28	2232.29
831.46	2267.10
831.63	2168.80
831.80	2404.32
831.97	2207.71
832.14	2258.91
832.31	2232.29
832.48	2236.38
832.65	2367.45
832.82	2252.77
832.99	2281.44
833.17	2123.74
833.34	2398.17
833.51	2299.87
833.68	2088.93
833.85	2353.12
834.02	2144.22
834.19	2111.46
834.36	2146.27
834.53	2279.39
834.70	2318.30
834.87	2269.15
835.04	2201.57
835.22	2195.42
835.39	2199.52
835.56	2148.32
835.73	2136.03
835.90	2324.44
836.07	2113.50
836.24	2232.29
836.41	2213.85
836.58	2150.37
836.75	2273.25
836.92	2279.39
837.09	2166.75
837.26	2295.77
837.43	2306.01
837.60	2252.77
837.77	2197.47
837.94	2340.83
838.12	2408.41
838.29	2191.33
838.46	2103.26
838.63	2119.65
838.80	2398.17
838.97	2291.68
839.14	2217.95
839.31	2281.44
839.48	2385.88
839.65	2183.13
839.82	2252.77
839.99	2236.38
840.16	2285.53
840.33	2209.76
840.50	2205.66
840.67	2174.94
840.84	2041.82
841.01	2217.95
841.18	2189.28
841.35	2318.30
841.52	2365.40
841.69	2326.49
841.86	2195.42
842.03	2232.29
842.20	2287.58
842.37	2160.61
842.54	2162.66
842.71	2217.95
842.88	2144.22
843.05	2236.38
843.22	2234.33
843.39	2236.38
843.56	2213.85
843.73	2244.57
843.90	2342.88
844.07	2260.96
844.24	2371.55
844.41	2346.97
844.58	2187.23
844.75	2197.47
844.92	2267.10
845.09	2187.23
845.26	2111.46
845.43	2330.59
845.60	2228.19
845.77	2334.68
845.94	2230.24
846.10	2334.68
846.27	2111.46
846.44	2166.75
846.61	2154.46
846.78	2256.86
846.95	2357.21
847.12	2144.22
847.29	2203.61
847.46	2121.70
847.63	2314.20
847.80	2193.37
847.97	2164.70
848.14	2531.29
848.31	2279.39
848.48	2164.70
848.65	2230.24
848.82	2203.61
848.98	2461.66
849.15	2301.92
849.32	2285.53
849.49	2351.07
849.66	2252.77
849.83	2224.09
850.00	2119.65
850.17	2392.03
850.34	2252.77
850.51	2103.26
850.68	2140.13
850.85	2498.52
851.01	2299.87
851.18	2273.25
851.35	2244.57
851.52	2281.44
851.69	2385.88
851.86	2103.26
852.03	2222.05
852.20	2392.03
852.37	2297.82
852.53	2095.07
852.70	2189.28
852.87	2250.72
853.04	2318.30
853.21	2193.37
853.38	2400.22
853.55	2363.36
853.72	2334.68
853.89	2125.79
854.05	2158.56
854.22	2269.15
854.39	2220.00
854.56	2195.42
854.73	2322.40
854.90	2101.22
855.07	2209.76
855.23	2121.70
855.40	2129.89
855.57	2150.37
855.74	2052.06
855.91	2357.21
856.08	2125.79
856.25	2109.41
856.41	2162.66
856.58	2246.62
856.75	2162.66
856.92	2127.84
857.09	2312.16
857.26	2111.46
857.42	2170.85
857.59	2269.15
857.76	2203.61
857.93	2203.61
858.10	2234.33
858.27	2105.31
858.43	2240.48
858.60	2197.47
858.77	2064.35
858.94	2152.42
859.11	2289.63
859.27	2056.16
859.44	2226.14
859.61	2435.03
859.78	2203.61
859.95	2144.22
860.12	2203.61
860.28	2500.57
860.45	2449.37
860.62	2193.37
860.79	2293.72
860.95	2220.00
861.12	2201.57
861.29	2199.52
861.46	2121.70
861.63	2242.53
861.79	2285.53
861.96	2086.88
862.13	2121.70
862.30	2375.64
862.47	2158.56
862.63	2119.65
862.80	2228.19
862.97	2322.40
863.14	2246.62
863.30	2181.09
863.47	2234.33
863.64	2439.13
863.81	2297.82
863.97	2230.24
864.14	2217.95
864.31	2232.29
864.48	2240.48
864.65	2187.23
864.81	2269.15
864.98	2285.53
865.15	2351.07
865.32	2158.56
865.48	2342.88
865.65	2410.46
865.82	2201.57
865.98	2252.77
866.15	2318.30
866.32	2248.67
866.49	2211.81
866.65	2392.03
866.82	2215.90
866.99	2242.53
867.16	2129.89
867.32	2176.99
867.49	2232.29
867.66	2260.96
867.83	2138.08
867.99	2052.06
868.16	2236.38
868.33	2150.37
868.49	2236.38
868.66	2215.90
868.83	2312.16
868.99	2238.43
869.16	2324.44
869.33	2291.68
869.50	2285.53
869.66	2244.57
869.83	2297.82
870.00	2125.79
870.16	2234.33
870.33	2168.80
870.50	2256.86
870.66	2232.29
870.83	2322.40
871.00	2320.35
871.17	2291.68
871.33	2299.87
871.50	2199.52
871.67	2203.61
871.83	2160.61
872.00	2349.02
872.17	2136.03
872.33	2414.56
872.50	2306.01
872.67	2238.43
872.83	2207.71
873.00	2277.34
873.17	2254.81
873.33	2293.72
873.50	2242.53
873.67	2179.04
873.83	2154.46
874.00	2179.04
874.16	2318.30
874.33	2326.49
874.50	2093.02
874.66	2244.57
874.83	2215.90
875.00	2396.12
875.16	2289.63
875.33	2306.01
875.50	2090.98
875.66	2260.96
875.83	2291.68
875.99	2240.48
876.16	2179.04
876.33	2160.61
876.49	2179.04
876.66	2281.44
876.83	2213.85
876.99	2131.94
877.16	2156.51
877.32	2170.85
877.49	2195.42
877.66	2318.30
877.82	2355.16
877.99	2308.06
878.15	2340.83
878.32	2203.61
878.49	2271.20
878.65	2203.61
878.82	2392.03
878.98	2136.03
879.15	2349.02
879.32	2322.40
879.48	2330.59
879.65	2248.67
879.81	2113.50
879.98	2250.72
880.15	2215.90
880.31	2371.55
880.48	2115.55
880.64	2351.07
880.81	2220.00
880.97	2400.22
881.14	2383.84
881.31	2142.18
881.47	2346.97
881.64	2271.20
881.80	2052.06
881.97	2269.15
882.13	2244.57
882.30	2113.50
882.47	2142.18
882.63	2097.12
882.80	2199.52
882.96	2176.99
883.13	2408.41
883.29	2234.33
883.46	2271.20
883.62	2426.84
883.79	2299.87
883.95	2322.40
884.12	2207.71
884.29	2369.50
884.45	2353.12
884.62	2176.99
884.78	2269.15
884.95	2381.79
885.11	2088.93
885.28	2258.91
885.44	2199.52
885.61	2330.59
885.77	2336.73
885.94	2263.01
886.10	2242.53
886.27	2228.19
886.43	2293.72
886.60	2340.83
886.76	2217.95
886.93	2195.42
887.09	2299.87
887.26	2047.97
887.42	2148.32
887.59	2361.31
887.75	2381.79
887.92	2318.30
888.08	2312.16
888.25	2463.71
888.41	2375.64
888.58	2228.19
888.74	2209.76
888.91	2232.29
>>>>>End Processed Spectral Data<<<<<
