SpectraSuite Data File
++++++++++++++++++++++++++++++++++++
Date: Thu May 05 13:20:57 CEST 2016
User: root
Dark Spectrum Present: No
Reference Spectrum Present: No
Number of Sampled Component Spectra: 1
Spectrometers: USB4C02835
Integration Time (usec): 100000 (USB4C02835)
Spectra Averaged: 1 (USB4C02835)
Boxcar Smoothing: 0 (USB4C02835)
Correct for Electrical Dark: No (USB4C02835)
Strobe/Lamp Enabled: No (USB4C02835)
Correct for Detector Non-linearity: No (USB4C02835)
Correct for Stray Light: No (USB4C02835)
Number of Pixels in Processed Spectrum: 3648
>>>>>Begin Processed Spectral Data<<<<<
177.47	1830.88
177.69	1830.88
177.91	1830.88
178.13	1824.74
178.36	1847.27
178.58	2193.37
178.80	2195.42
179.02	2193.37
179.24	2125.79
179.46	2146.27
179.68	2226.14
179.90	2258.91
180.13	2183.13
180.35	2105.31
180.57	2088.93
180.79	2326.49
181.01	2267.10
181.23	2246.62
181.45	2269.15
181.67	2342.88
181.90	2330.59
182.12	2158.56
182.34	2043.87
182.56	2306.01
182.78	2310.11
183.00	2150.37
183.22	2260.96
183.44	2140.13
183.66	2504.67
183.89	2316.25
184.11	2199.52
184.33	2256.86
184.55	2342.88
184.77	2185.18
184.99	2217.95
185.21	2246.62
185.43	2424.80
185.65	2129.89
185.87	2144.22
186.10	2486.23
186.32	2439.13
186.54	2258.91
186.76	2220.00
186.98	2408.41
187.20	2205.66
187.42	2162.66
187.64	2152.42
187.86	2295.77
188.08	2377.69
188.30	2125.79
188.52	2144.22
188.75	2392.03
188.97	2412.51
189.19	2166.75
189.41	2097.12
189.63	2291.68
189.85	2361.31
190.07	2052.06
190.29	2097.12
190.51	2299.87
190.73	2179.04
190.95	2277.34
191.17	2211.81
191.39	2072.54
191.61	2258.91
191.84	2115.55
192.06	2260.96
192.28	2033.63
192.50	2521.05
192.72	2303.96
192.94	2154.46
193.16	2416.60
193.38	2281.44
193.60	2195.42
193.82	2185.18
194.04	2338.78
194.26	2203.61
194.48	2250.72
194.70	2179.04
194.92	2334.68
195.14	2351.07
195.36	2174.94
195.58	2228.19
195.80	2150.37
196.02	2209.76
196.24	2193.37
196.46	2195.42
196.69	2201.57
196.91	2486.23
197.13	2183.13
197.35	2226.14
197.57	2416.60
197.79	2283.49
198.01	2224.09
198.23	2252.77
198.45	2289.63
198.67	2187.23
198.89	2197.47
199.11	2185.18
199.33	2318.30
199.55	2064.35
199.77	2185.18
199.99	2271.20
200.21	2211.81
200.43	2230.24
200.65	2107.36
200.87	2021.35
201.09	2205.66
201.31	2314.20
201.53	2215.90
201.75	2195.42
201.97	2252.77
202.19	2252.77
202.41	2187.23
202.63	2301.92
202.85	2365.40
203.07	2148.32
203.29	2138.08
203.51	2064.35
203.73	2052.06
203.95	2525.15
204.17	2215.90
204.39	2203.61
204.61	2234.33
204.83	2183.13
205.05	2244.57
205.27	2246.62
205.49	2553.82
205.71	2263.01
205.93	2146.27
206.15	2131.94
206.37	2277.34
206.59	2242.53
206.81	2052.06
207.03	2138.08
207.25	2129.89
207.47	2375.64
207.69	2144.22
207.91	2301.92
208.13	2371.55
208.34	2277.34
208.56	2117.60
208.78	2224.09
209.00	2191.33
209.22	2254.81
209.44	2183.13
209.66	2183.13
209.88	2273.25
210.10	2228.19
210.32	2230.24
210.54	2299.87
210.76	2250.72
210.98	2328.54
211.20	2023.39
211.42	2238.43
211.64	2394.08
211.86	2181.09
212.08	2228.19
212.30	2228.19
212.52	2232.29
212.74	2324.44
212.96	2191.33
213.17	2283.49
213.39	2340.83
213.61	2430.94
213.83	2170.85
214.05	2263.01
214.27	2369.50
214.49	2162.66
214.71	2123.74
214.93	2318.30
215.15	2250.72
215.37	2248.67
215.59	2029.54
215.81	2260.96
216.03	2412.51
216.24	2279.39
216.46	2185.18
216.68	2265.05
216.90	2330.59
217.12	2340.83
217.34	2250.72
217.56	2224.09
217.78	2346.97
218.00	2240.48
218.22	2207.71
218.44	2320.35
218.66	2240.48
218.87	2465.75
219.09	2121.70
219.31	2211.81
219.53	2320.35
219.75	2187.23
219.97	2164.70
220.19	2310.11
220.41	2236.38
220.63	2365.40
220.85	2232.29
221.06	2113.50
221.28	2406.36
221.50	2365.40
221.72	2154.46
221.94	2125.79
222.16	2254.81
222.38	2383.84
222.60	2097.12
222.82	2138.08
223.03	2346.97
223.25	2179.04
223.47	2244.57
223.69	2310.11
223.91	2353.12
224.13	2281.44
224.35	2082.78
224.57	2334.68
224.78	2330.59
225.00	2193.37
225.22	2176.99
225.44	2162.66
225.66	2318.30
225.88	2164.70
226.10	2217.95
226.32	2222.05
226.53	2373.60
226.75	2193.37
226.97	2209.76
227.19	2170.85
227.41	2152.42
227.63	2224.09
227.85	2060.26
228.06	2158.56
228.28	2258.91
228.50	2250.72
228.72	2138.08
228.94	2099.17
229.16	2082.78
229.37	2172.89
229.59	2144.22
229.81	2297.82
230.03	2258.91
230.25	2156.51
230.47	2129.89
230.69	2121.70
230.90	2334.68
231.12	2162.66
231.34	2285.53
231.56	2256.86
231.78	2121.70
232.00	2258.91
232.21	2230.24
232.43	2154.46
232.65	2080.74
232.87	2308.06
233.09	2093.02
233.30	2125.79
233.52	2334.68
233.74	2244.57
233.96	2117.60
234.18	2252.77
234.40	2265.05
234.61	2449.37
234.83	2097.12
235.05	2146.27
235.27	2580.44
235.49	2416.60
235.70	2222.05
235.92	2281.44
236.14	2242.53
236.36	2490.33
236.58	2052.06
236.79	2277.34
237.01	2301.92
237.23	2224.09
237.45	2326.49
237.67	2138.08
237.88	2301.92
238.10	2451.42
238.32	2158.56
238.54	2107.36
238.76	2244.57
238.97	2117.60
239.19	2185.18
239.41	2260.96
239.63	2349.02
239.85	2250.72
240.06	2193.37
240.28	2115.55
240.50	2338.78
240.72	2250.72
240.93	2176.99
241.15	2256.86
241.37	2244.57
241.59	2340.83
241.81	2248.67
242.02	2230.24
242.24	2260.96
242.46	2295.77
242.68	2080.74
242.89	2133.98
243.11	2285.53
243.33	2211.81
243.55	2199.52
243.76	2154.46
243.98	2179.04
244.20	2269.15
244.42	2191.33
244.64	2224.09
244.85	2144.22
245.07	2187.23
245.29	2201.57
245.51	2119.65
245.72	2293.72
245.94	2408.41
246.16	2189.28
246.38	2244.57
246.59	2179.04
246.81	2156.51
247.03	2160.61
247.24	2109.41
247.46	2166.75
247.68	2199.52
247.90	2138.08
248.11	2166.75
248.33	2336.73
248.55	2254.81
248.77	2193.37
248.98	2228.19
249.20	2389.98
249.42	2303.96
249.64	2140.13
249.85	2187.23
250.07	2148.32
250.29	2342.88
250.50	2211.81
250.72	2056.16
250.94	2277.34
251.16	2512.86
251.37	2168.80
251.59	2217.95
251.81	2299.87
252.02	2394.08
252.24	2179.04
252.46	2283.49
252.68	2207.71
252.89	2166.75
253.11	2017.25
253.33	2285.53
253.54	2418.65
253.76	2152.42
253.98	2187.23
254.20	2146.27
254.41	2117.60
254.63	2187.23
254.85	2058.21
255.06	2133.98
255.28	2301.92
255.50	2273.25
255.71	2115.55
255.93	2066.40
256.15	2258.91
256.36	2285.53
256.58	2156.51
256.80	2250.72
257.02	2291.68
257.23	2232.29
257.45	2244.57
257.67	2213.85
257.88	2162.66
258.10	2285.53
258.32	2201.57
258.53	2291.68
258.75	2465.75
258.97	2197.47
259.18	2146.27
259.40	2123.74
259.62	2396.12
259.83	2410.46
260.05	2144.22
260.27	2633.69
260.48	2435.03
260.70	2150.37
260.92	2181.09
261.13	2176.99
261.35	2265.05
261.57	2238.43
261.78	2097.12
262.00	2127.84
262.22	2318.30
262.43	2197.47
262.65	2187.23
262.86	2203.61
263.08	2529.24
263.30	2322.40
263.51	2066.40
263.73	2093.02
263.95	2414.56
264.16	2170.85
264.38	2113.50
264.60	2170.85
264.81	2228.19
265.03	2373.60
265.25	2349.02
265.46	2236.38
265.68	2332.64
265.89	2256.86
266.11	2121.70
266.33	2246.62
266.54	2326.49
266.76	2342.88
266.98	2263.01
267.19	2310.11
267.41	2322.40
267.62	2226.14
267.84	2039.78
268.06	2258.91
268.27	2277.34
268.49	2275.29
268.70	2179.04
268.92	2129.89
269.14	2117.60
269.35	2109.41
269.57	2217.95
269.79	2269.15
270.00	2222.05
270.22	2402.27
270.43	2084.83
270.65	2078.69
270.87	2281.44
271.08	2375.64
271.30	2246.62
271.51	2160.61
271.73	2342.88
271.95	2408.41
272.16	2250.72
272.38	2293.72
272.59	2308.06
272.81	2314.20
273.02	2140.13
273.24	2248.67
273.46	2330.59
273.67	2162.66
273.89	2070.50
274.10	2168.80
274.32	2326.49
274.54	2308.06
274.75	2158.56
274.97	2226.14
275.18	2338.78
275.40	2242.53
275.61	2222.05
275.83	2295.77
276.05	2140.13
276.26	2150.37
276.48	2220.00
276.69	2189.28
276.91	2179.04
277.12	2373.60
277.34	2324.44
277.55	2308.06
277.77	2230.24
277.99	2158.56
278.20	2107.36
278.42	2088.93
278.63	2170.85
278.85	2166.75
279.06	2015.20
279.28	2322.40
279.49	2367.45
279.71	2351.07
279.93	2260.96
280.14	2275.29
280.36	2109.41
280.57	2351.07
280.79	2332.64
281.00	2125.79
281.22	2144.22
281.43	2373.60
281.65	2052.06
281.86	2133.98
282.08	2318.30
282.29	2498.52
282.51	2117.60
282.73	2111.46
282.94	2150.37
283.16	2320.35
283.37	2367.45
283.59	2181.09
283.80	2269.15
284.02	2152.42
284.23	2273.25
284.45	2193.37
284.66	2203.61
284.88	2154.46
285.09	2263.01
285.31	2308.06
285.52	2340.83
285.74	2121.70
285.95	2211.81
286.17	2236.38
286.38	2344.92
286.60	2117.60
286.81	2166.75
287.03	2254.81
287.24	2342.88
287.46	2336.73
287.67	2326.49
287.89	2449.37
288.10	2301.92
288.32	2211.81
288.53	2394.08
288.75	2209.76
288.96	2363.36
289.18	2170.85
289.39	2217.95
289.61	2301.92
289.82	2457.56
290.04	2416.60
290.25	2144.22
290.47	2230.24
290.68	2152.42
290.90	2361.31
291.11	2095.07
291.33	2324.44
291.54	2136.03
291.76	2123.74
291.97	2281.44
292.18	2283.49
292.40	2142.18
292.61	2217.95
292.83	2410.46
293.04	2279.39
293.26	2269.15
293.47	2220.00
293.69	2185.18
293.90	2199.52
294.12	2400.22
294.33	2289.63
294.55	2244.57
294.76	2318.30
294.97	2361.31
295.19	2467.80
295.40	2246.62
295.62	2293.72
295.83	2269.15
296.05	2242.53
296.26	2367.45
296.48	2213.85
296.69	2222.05
296.90	2213.85
297.12	2369.50
297.33	2252.77
297.55	2244.57
297.76	2275.29
297.98	2314.20
298.19	2240.48
298.41	2303.96
298.62	2203.61
298.83	2396.12
299.05	2318.30
299.26	2244.57
299.48	2185.18
299.69	2220.00
299.90	2244.57
300.12	2211.81
300.33	2316.25
300.55	2258.91
300.76	2269.15
300.98	2136.03
301.19	2291.68
301.40	2193.37
301.62	2152.42
301.83	2291.68
302.05	2258.91
302.26	2277.34
302.47	2260.96
302.69	2090.98
302.90	2297.82
303.12	2164.70
303.33	2306.01
303.54	2498.52
303.76	2162.66
303.97	2236.38
304.19	2424.80
304.40	2140.13
304.61	2340.83
304.83	2357.21
305.04	2310.11
305.26	2240.48
305.47	2185.18
305.68	2193.37
305.90	2095.07
306.11	2342.88
306.33	2265.05
306.54	2127.84
306.75	2107.36
306.97	2097.12
307.18	2168.80
307.39	2127.84
307.61	2273.25
307.82	2179.04
308.04	2265.05
308.25	2136.03
308.46	2240.48
308.68	2293.72
308.89	2297.82
309.10	2326.49
309.32	2297.82
309.53	2260.96
309.74	2318.30
309.96	2226.14
310.17	2369.50
310.39	2203.61
310.60	2326.49
310.81	2172.89
311.03	2121.70
311.24	2359.26
311.45	2162.66
311.67	2430.94
311.88	2322.40
312.09	2240.48
312.31	2291.68
312.52	2217.95
312.73	2236.38
312.95	2133.98
313.16	2228.19
313.37	2359.26
313.59	2334.68
313.80	2371.55
314.01	2408.41
314.23	2228.19
314.44	2176.99
314.65	2158.56
314.87	2168.80
315.08	2230.24
315.29	2160.61
315.51	2144.22
315.72	2103.26
315.93	2359.26
316.15	2383.84
316.36	2246.62
316.57	2240.48
316.79	2310.11
317.00	2115.55
317.21	2367.45
317.43	2152.42
317.64	2252.77
317.85	2217.95
318.07	2217.95
318.28	2179.04
318.49	2346.97
318.70	2494.43
318.92	2408.41
319.13	2410.46
319.34	2496.47
319.56	2365.40
319.77	2359.26
319.98	2293.72
320.20	2357.21
320.41	2291.68
320.62	2408.41
320.83	2197.47
321.05	2480.09
321.26	2238.43
321.47	2297.82
321.69	2373.60
321.90	2074.59
322.11	2197.47
322.32	2392.03
322.54	2306.01
322.75	2215.90
322.96	2600.92
323.18	2103.26
323.39	2043.87
323.60	2123.74
323.81	2373.60
324.03	2170.85
324.24	2252.77
324.45	2267.10
324.66	2209.76
324.88	2443.23
325.09	2488.28
325.30	2209.76
325.52	2211.81
325.73	2326.49
325.94	2179.04
326.15	2140.13
326.37	2162.66
326.58	2349.02
326.79	2406.36
327.00	2105.31
327.22	2306.01
327.43	2244.57
327.64	2133.98
327.85	2248.67
328.07	2215.90
328.28	2379.74
328.49	2228.19
328.70	2174.94
328.92	2183.13
329.13	2226.14
329.34	2252.77
329.55	2422.75
329.76	2330.59
329.98	2244.57
330.19	2365.40
330.40	2265.05
330.61	2260.96
330.83	2299.87
331.04	2142.18
331.25	2265.05
331.46	2187.23
331.68	2074.59
331.89	2340.83
332.10	2195.42
332.31	2113.50
332.52	2242.53
332.74	2392.03
332.95	2088.93
333.16	2277.34
333.37	2244.57
333.58	2195.42
333.80	2277.34
334.01	2050.02
334.22	2176.99
334.43	2154.46
334.64	2170.85
334.86	2125.79
335.07	2095.07
335.28	2383.84
335.49	2201.57
335.70	2256.86
335.92	2387.93
336.13	2519.00
336.34	2275.29
336.55	2203.61
336.76	2279.39
336.98	2064.35
337.19	2201.57
337.40	2408.41
337.61	2484.19
337.82	2246.62
338.04	2334.68
338.25	2084.83
338.46	2263.01
338.67	2232.29
338.88	2140.13
339.09	2113.50
339.31	2226.14
339.52	2240.48
339.73	2127.84
339.94	2332.64
340.15	2293.72
340.36	2232.29
340.58	2242.53
340.79	2207.71
341.00	2410.46
341.21	2095.07
341.42	2392.03
341.63	2205.66
341.85	2324.44
342.06	2271.20
342.27	2146.27
342.48	2314.20
342.69	2176.99
342.90	2260.96
343.12	2283.49
343.33	2164.70
343.54	2336.73
343.75	2422.75
343.96	2205.66
344.17	2172.89
344.38	2211.81
344.60	2185.18
344.81	2256.86
345.02	2215.90
345.23	2351.07
345.44	2510.81
345.65	2267.10
345.86	2312.16
346.07	2279.39
346.29	2301.92
346.50	2277.34
346.71	2285.53
346.92	2389.98
347.13	2475.99
347.34	2191.33
347.55	2174.94
347.76	2342.88
347.98	2115.55
348.19	2267.10
348.40	2324.44
348.61	2211.81
348.82	2441.18
349.03	2260.96
349.24	2187.23
349.45	2402.27
349.66	2060.26
349.88	2142.18
350.09	2150.37
350.30	2408.41
350.51	2398.17
350.72	2334.68
350.93	2248.67
351.14	2258.91
351.35	2351.07
351.56	2228.19
351.77	2217.95
351.99	2295.77
352.20	2418.65
352.41	2400.22
352.62	2080.74
352.83	2277.34
353.04	2230.24
353.25	2174.94
353.46	2349.02
353.67	2328.54
353.88	2007.01
354.09	2265.05
354.30	2199.52
354.52	2322.40
354.73	2189.28
354.94	2209.76
355.15	2217.95
355.36	2463.71
355.57	2236.38
355.78	2256.86
355.99	2168.80
356.20	2215.90
356.41	2379.74
356.62	2263.01
356.83	2215.90
357.04	2408.41
357.25	2113.50
357.46	2181.09
357.68	2031.58
357.89	2103.26
358.10	2205.66
358.31	2174.94
358.52	2234.33
358.73	2150.37
358.94	2197.47
359.15	2207.71
359.36	2340.83
359.57	2209.76
359.78	2271.20
359.99	2291.68
360.20	2166.75
360.41	2269.15
360.62	2322.40
360.83	2222.05
361.04	2258.91
361.25	2297.82
361.46	2406.36
361.67	2371.55
361.88	2289.63
362.09	2318.30
362.30	2260.96
362.51	2156.51
362.72	2230.24
362.93	2375.64
363.14	2365.40
363.35	2277.34
363.56	2103.26
363.78	2334.68
363.99	2289.63
364.20	2138.08
364.41	2234.33
364.62	2398.17
364.83	2281.44
365.04	2287.58
365.25	2232.29
365.46	2426.84
365.67	2138.08
365.88	2314.20
366.09	2236.38
366.30	2215.90
366.51	2211.81
366.72	2119.65
366.93	2238.43
367.14	2211.81
367.35	2426.84
367.56	2236.38
367.77	2383.84
367.98	2310.11
368.18	2295.77
368.39	2277.34
368.60	2113.50
368.81	2330.59
369.02	2316.25
369.23	2179.04
369.44	2097.12
369.65	2203.61
369.86	2291.68
370.07	2353.12
370.28	2152.42
370.49	2277.34
370.70	2336.73
370.91	2111.46
371.12	2142.18
371.33	2281.44
371.54	2170.85
371.75	2357.21
371.96	2011.11
372.17	2361.31
372.38	2232.29
372.59	2293.72
372.80	2199.52
373.01	2289.63
373.22	2289.63
373.43	2199.52
373.64	2095.07
373.85	2363.36
374.06	2412.51
374.26	2357.21
374.47	2303.96
374.68	2465.75
374.89	2260.96
375.10	2213.85
375.31	2281.44
375.52	2256.86
375.73	2324.44
375.94	2123.74
376.15	2371.55
376.36	2236.38
376.57	2228.19
376.78	2258.91
376.99	2314.20
377.20	2406.36
377.40	2220.00
377.61	2404.32
377.82	2205.66
378.03	2437.08
378.24	2396.12
378.45	2187.23
378.66	2250.72
378.87	2133.98
379.08	2121.70
379.29	2136.03
379.50	2379.74
379.71	2170.85
379.91	2279.39
380.12	2189.28
380.33	2232.29
380.54	2285.53
380.75	2240.48
380.96	2185.18
381.17	2377.69
381.38	2211.81
381.59	2287.58
381.80	2277.34
382.00	2463.71
382.21	2277.34
382.42	2537.43
382.63	2527.19
382.84	2238.43
383.05	2373.60
383.26	2480.09
383.47	2220.00
383.68	2265.05
383.88	2273.25
384.09	2277.34
384.30	2398.17
384.51	2324.44
384.72	2185.18
384.93	2152.42
385.14	2318.30
385.35	2445.27
385.55	2183.13
385.76	2369.50
385.97	2267.10
386.18	2179.04
386.39	2144.22
386.60	2254.81
386.81	2199.52
387.02	2095.07
387.22	2111.46
387.43	2392.03
387.64	2400.22
387.85	2467.80
388.06	2555.86
388.27	3968.96
388.48	8335.23
388.68	11667.28
388.89	14004.01
389.10	14956.32
389.31	14063.40
389.52	10889.05
389.73	9510.77
389.93	8746.87
390.14	7933.83
390.35	7081.88
390.56	6236.06
390.77	5287.86
390.98	4001.73
391.18	3213.26
391.39	2705.37
391.60	2521.05
391.81	2398.17
392.02	2269.15
392.23	2523.10
392.43	2295.77
392.64	2303.96
392.85	2244.57
393.06	2367.45
393.27	2185.18
393.47	2209.76
393.68	2260.96
393.89	2244.57
394.10	2322.40
394.31	2123.74
394.52	2117.60
394.72	2207.71
394.93	2363.36
395.14	2195.42
395.35	2244.57
395.56	2236.38
395.76	2234.33
395.97	2244.57
396.18	2355.16
396.39	2357.21
396.60	2770.90
396.80	2553.82
397.01	2437.08
397.22	2402.27
397.43	2475.99
397.64	2299.87
397.84	2381.79
398.05	2504.67
398.26	2260.96
398.47	2326.49
398.67	2322.40
398.88	2285.53
399.09	2301.92
399.30	2258.91
399.51	2295.77
399.71	2181.09
399.92	2260.96
400.13	2349.02
400.34	2246.62
400.54	2220.00
400.75	2439.13
400.96	2338.78
401.17	2394.08
401.37	2285.53
401.58	2222.05
401.79	2160.61
402.00	2400.22
402.21	2768.85
402.41	2551.77
402.62	2592.73
402.83	2625.50
403.04	2699.22
403.24	2813.91
403.45	2344.92
403.66	2568.15
403.87	2492.38
404.07	2490.33
404.28	2531.29
404.49	2455.51
404.70	2334.68
404.90	2316.25
405.11	2267.10
405.32	2308.06
405.52	2162.66
405.73	2117.60
405.94	2275.29
406.15	2263.01
406.35	2293.72
406.56	2359.26
406.77	2346.97
406.98	2209.76
407.18	2189.28
407.39	2340.83
407.60	2176.99
407.80	2281.44
408.01	2187.23
408.22	2265.05
408.43	2191.33
408.63	2346.97
408.84	2236.38
409.05	2361.31
409.25	2088.93
409.46	2197.47
409.67	2168.80
409.88	2230.24
410.08	2228.19
410.29	2213.85
410.50	2299.87
410.70	2275.29
410.91	2168.80
411.12	2291.68
411.32	2226.14
411.53	2191.33
411.74	2316.25
411.95	2412.51
412.15	2215.90
412.36	2439.13
412.57	2326.49
412.77	2351.07
412.98	2242.53
413.19	2174.94
413.39	2246.62
413.60	2236.38
413.81	2441.18
414.01	2258.91
414.22	2293.72
414.43	2326.49
414.63	2234.33
414.84	2408.41
415.05	2238.43
415.25	2187.23
415.46	2344.92
415.67	2236.38
415.87	2248.67
416.08	2277.34
416.29	2211.81
416.49	2287.58
416.70	2193.37
416.91	2224.09
417.11	2166.75
417.32	2318.30
417.53	2232.29
417.73	2271.20
417.94	2297.82
418.15	2275.29
418.35	2291.68
418.56	2301.92
418.77	2572.25
418.97	2260.96
419.18	2244.57
419.38	2068.45
419.59	2277.34
419.80	2396.12
420.00	2263.01
420.21	2277.34
420.42	2351.07
420.62	2275.29
420.83	2154.46
421.04	2183.13
421.24	2244.57
421.45	2363.36
421.65	2340.83
421.86	2277.34
422.07	2291.68
422.27	2267.10
422.48	2203.61
422.69	2123.74
422.89	2293.72
423.10	2205.66
423.30	2101.22
423.51	2377.69
423.72	2324.44
423.92	2297.82
424.13	2105.31
424.33	2248.67
424.54	2336.73
424.75	2273.25
424.95	2400.22
425.16	2256.86
425.36	2162.66
425.57	2465.75
425.78	2355.16
425.98	2373.60
426.19	2252.77
426.39	2193.37
426.60	2326.49
426.81	2322.40
427.01	2301.92
427.22	2228.19
427.42	2119.65
427.63	2174.94
427.83	2269.15
428.04	2490.33
428.25	2361.31
428.45	2389.98
428.66	2342.88
428.86	2197.47
429.07	2201.57
429.28	2222.05
429.48	2267.10
429.69	2113.50
429.89	2351.07
430.10	2193.37
430.30	2353.12
430.51	2312.16
430.71	2215.90
430.92	2244.57
431.13	2181.09
431.33	2359.26
431.54	2281.44
431.74	2457.56
431.95	2437.08
432.15	2123.74
432.36	2260.96
432.56	2250.72
432.77	2510.81
432.98	2416.60
433.18	2256.86
433.39	2125.79
433.59	2201.57
433.80	2385.88
434.00	2496.47
434.21	2129.89
434.41	2138.08
434.62	2555.86
434.82	2072.54
435.03	2191.33
435.23	2277.34
435.44	2045.92
435.64	2250.72
435.85	2254.81
436.06	2392.03
436.26	2314.20
436.47	2236.38
436.67	2224.09
436.88	2256.86
437.08	2410.46
437.29	2346.97
437.49	2349.02
437.70	2385.88
437.90	2217.95
438.11	2432.99
438.31	2367.45
438.52	2514.91
438.72	2439.13
438.93	2602.97
439.13	2330.59
439.34	2488.28
439.54	2195.42
439.75	2342.88
439.95	2340.83
440.16	2244.57
440.36	2260.96
440.57	2260.96
440.77	2283.49
440.98	2318.30
441.18	2248.67
441.39	2244.57
441.59	2129.89
441.80	2465.75
442.00	2242.53
442.21	2392.03
442.41	2162.66
442.62	2349.02
442.82	2197.47
443.02	2297.82
443.23	2271.20
443.43	2273.25
443.64	2408.41
443.84	2146.27
444.05	2357.21
444.25	2256.86
444.46	2342.88
444.66	2277.34
444.87	2428.89
445.07	2127.84
445.28	2285.53
445.48	2490.33
445.69	2344.92
445.89	2543.58
446.09	2252.77
446.30	2572.25
446.50	2881.49
446.71	4390.84
446.91	5337.01
447.12	6301.60
447.32	6813.59
447.53	6242.21
447.73	5162.93
447.93	4575.16
448.14	4159.42
448.34	4022.21
448.55	3651.53
448.75	3481.55
448.96	3356.62
449.16	2990.03
449.36	2818.00
449.57	2553.82
449.77	2324.44
449.98	2265.05
450.18	2342.88
450.39	2375.64
450.59	2359.26
450.79	2308.06
451.00	2285.53
451.20	2338.78
451.41	2220.00
451.61	2428.89
451.81	2297.82
452.02	2150.37
452.22	2201.57
452.43	2156.51
452.63	2127.84
452.84	2228.19
453.04	2277.34
453.24	2252.77
453.45	2246.62
453.65	2265.05
453.86	2301.92
454.06	2379.74
454.26	2316.25
454.47	2187.23
454.67	2404.32
454.87	2293.72
455.08	2312.16
455.28	2428.89
455.49	2238.43
455.69	2187.23
455.89	2506.71
456.10	2340.83
456.30	2195.42
456.51	2306.01
456.71	2318.30
456.91	2289.63
457.12	2324.44
457.32	2252.77
457.52	2242.53
457.73	2332.64
457.93	2351.07
458.14	2207.71
458.34	2136.03
458.54	2211.81
458.75	2193.37
458.95	2351.07
459.15	2318.30
459.36	2283.49
459.56	2357.21
459.76	2428.89
459.97	2256.86
460.17	2287.58
460.37	2332.64
460.58	2228.19
460.78	2379.74
460.99	2189.28
461.19	2242.53
461.39	2271.20
461.60	2281.44
461.80	2283.49
462.00	2148.32
462.21	2301.92
462.41	2234.33
462.61	2195.42
462.82	2140.13
463.02	2355.16
463.22	2265.05
463.43	2346.97
463.63	2250.72
463.83	2426.84
464.04	2277.34
464.24	2359.26
464.44	2152.42
464.64	2297.82
464.85	2293.72
465.05	2355.16
465.25	2269.15
465.46	2209.76
465.66	2289.63
465.86	2375.64
466.07	2293.72
466.27	2326.49
466.47	2138.08
466.68	2172.89
466.88	2334.68
467.08	2328.54
467.29	2404.32
467.49	2308.06
467.69	2224.09
467.89	2361.31
468.10	2256.86
468.30	2242.53
468.50	2385.88
468.71	2428.89
468.91	2187.23
469.11	2498.52
469.31	2306.01
469.52	2203.61
469.72	2426.84
469.92	2504.67
470.13	2250.72
470.33	2197.47
470.53	2414.56
470.73	2666.46
470.94	2990.03
471.14	3160.02
471.34	3493.83
471.54	3430.35
471.75	2977.75
471.95	2895.83
472.15	2756.57
472.36	2705.37
472.56	2738.13
472.76	2701.27
472.96	2551.77
473.17	2531.29
473.37	2537.43
473.57	2332.64
473.77	2375.64
473.98	2310.11
474.18	2123.74
474.38	2492.38
474.58	2203.61
474.79	2183.13
474.99	2248.67
475.19	2422.75
475.39	2226.14
475.60	2299.87
475.80	2189.28
476.00	2334.68
476.20	2222.05
476.41	2215.90
476.61	2377.69
476.81	2418.65
477.01	2244.57
477.21	2439.13
477.42	2357.21
477.62	2154.46
477.82	2404.32
478.02	2201.57
478.23	2281.44
478.43	2168.80
478.63	2242.53
478.83	2250.72
479.03	2236.38
479.24	2420.70
479.44	2447.32
479.64	2252.77
479.84	2066.40
480.04	2236.38
480.25	2392.03
480.45	2144.22
480.65	2195.42
480.85	2449.37
481.06	2236.38
481.26	2332.64
481.46	2340.83
481.66	2287.58
481.86	2162.66
482.06	2404.32
482.27	2226.14
482.47	2277.34
482.67	2314.20
482.87	2158.56
483.07	2277.34
483.28	2217.95
483.48	2172.89
483.68	2324.44
483.88	2099.17
484.08	2125.79
484.29	2041.82
484.49	2353.12
484.69	2129.89
484.89	2351.07
485.09	2344.92
485.29	2324.44
485.50	2318.30
485.70	2273.25
485.90	2392.03
486.10	2285.53
486.30	2291.68
486.50	2414.56
486.71	2293.72
486.91	2281.44
487.11	2310.11
487.31	2195.42
487.51	2332.64
487.71	2222.05
487.91	2133.98
488.12	2228.19
488.32	2047.97
488.52	2166.75
488.72	2062.30
488.92	2250.72
489.12	2385.88
489.32	2275.29
489.53	2228.19
489.73	2066.40
489.93	2492.38
490.13	2156.51
490.33	2138.08
490.53	2269.15
490.73	2357.21
490.94	2170.85
491.14	2312.16
491.34	2383.84
491.54	2549.72
491.74	3250.13
491.94	3794.89
492.14	4005.83
492.34	4181.95
492.54	3809.22
492.75	3301.33
492.95	3112.91
493.15	3090.38
493.35	2930.64
493.55	2822.10
493.75	2713.56
493.95	2781.14
494.15	2459.61
494.35	2398.17
494.56	2342.88
494.76	2338.78
494.96	2361.31
495.16	2273.25
495.36	2301.92
495.56	2301.92
495.76	2224.09
495.96	2220.00
496.16	2142.18
496.36	2439.13
496.56	2197.47
496.77	2275.29
496.97	2281.44
497.17	2406.36
497.37	2113.50
497.57	2279.39
497.77	2299.87
497.97	2201.57
498.17	2326.49
498.37	2287.58
498.57	2301.92
498.77	2293.72
498.97	2330.59
499.17	2404.32
499.38	2334.68
499.58	2293.72
499.78	2355.16
499.98	2363.36
500.18	2217.95
500.38	2187.23
500.58	2473.95
500.78	2885.59
500.98	5218.22
501.18	7194.51
501.38	8841.08
501.58	9805.67
501.78	9645.93
501.98	7733.13
502.18	6354.85
502.38	5500.84
502.58	5089.20
502.78	4626.36
502.98	4464.57
503.18	4276.16
503.38	3825.61
503.59	3325.90
503.79	3241.93
503.99	2924.50
504.19	2832.34
504.39	2818.00
504.59	2846.68
504.79	2818.00
504.99	2813.91
505.19	2539.48
505.39	2498.52
505.59	2643.93
505.79	2535.39
505.99	2521.05
506.19	2332.64
506.39	2539.48
506.59	2254.81
506.79	2242.53
506.99	2351.07
507.19	2215.90
507.39	2291.68
507.59	2189.28
507.79	2230.24
507.99	2172.89
508.19	2205.66
508.39	2252.77
508.59	2277.34
508.79	2359.26
508.99	2490.33
509.19	2187.23
509.39	2289.63
509.59	2189.28
509.79	2222.05
509.99	2295.77
510.19	2263.01
510.39	2324.44
510.59	2273.25
510.79	2215.90
510.99	2113.50
511.19	2334.68
511.39	2529.24
511.59	2383.84
511.79	2383.84
511.99	2285.53
512.19	2416.60
512.38	2324.44
512.58	2209.76
512.78	2224.09
512.98	2457.56
513.18	2451.42
513.38	2093.02
513.58	2293.72
513.78	2246.62
513.98	2281.44
514.18	2199.52
514.38	2209.76
514.58	2324.44
514.78	2191.33
514.98	2119.65
515.18	2224.09
515.38	2115.55
515.58	2482.14
515.78	2240.48
515.98	2220.00
516.18	2306.01
516.38	2185.18
516.57	2213.85
516.77	2160.61
516.97	2279.39
517.17	2205.66
517.37	2160.61
517.57	2383.84
517.77	2289.63
517.97	2248.67
518.17	2289.63
518.37	2191.33
518.57	2133.98
518.77	2207.71
518.97	2260.96
519.16	2285.53
519.36	2389.98
519.56	2211.81
519.76	2254.81
519.96	2267.10
520.16	2330.59
520.36	2201.57
520.56	2402.27
520.76	2195.42
520.96	2232.29
521.16	2303.96
521.35	2314.20
521.55	2441.18
521.75	2258.91
521.95	2226.14
522.15	2203.61
522.35	2148.32
522.55	2152.42
522.75	2322.40
522.95	2297.82
523.14	2084.83
523.34	2287.58
523.54	2074.59
523.74	2316.25
523.94	2283.49
524.14	2168.80
524.34	2254.81
524.54	2349.02
524.73	2168.80
524.93	2326.49
525.13	2269.15
525.33	2133.98
525.53	2484.19
525.73	2353.12
525.93	2258.91
526.13	2187.23
526.32	2226.14
526.52	2318.30
526.72	2322.40
526.92	2285.53
527.12	2252.77
527.32	2185.18
527.52	2308.06
527.71	2318.30
527.91	2242.53
528.11	2232.29
528.31	2273.25
528.51	2211.81
528.71	2349.02
528.90	2299.87
529.10	2482.14
529.30	2363.36
529.50	2129.89
529.70	2324.44
529.90	2260.96
530.09	2248.67
530.29	2064.35
530.49	2154.46
530.69	2541.53
530.89	2244.57
531.09	2353.12
531.28	2217.95
531.48	2387.93
531.68	2193.37
531.88	2344.92
532.08	2363.36
532.28	2236.38
532.47	2342.88
532.67	2389.98
532.87	2224.09
533.07	2150.37
533.27	2340.83
533.46	2330.59
533.66	2297.82
533.86	2277.34
534.06	2273.25
534.26	2342.88
534.45	2238.43
534.65	2412.51
534.85	2293.72
535.05	2144.22
535.25	2344.92
535.44	2113.50
535.64	2369.50
535.84	2228.19
536.04	2265.05
536.24	2234.33
536.43	2156.51
536.63	2322.40
536.83	2267.10
537.03	2238.43
537.22	2111.46
537.42	2101.22
537.62	2310.11
537.82	2232.29
538.02	2398.17
538.21	2349.02
538.41	2627.54
538.61	2342.88
538.81	2238.43
539.00	2461.66
539.20	2119.65
539.40	2203.61
539.60	2297.82
539.79	2260.96
539.99	2260.96
540.19	2179.04
540.39	2217.95
540.58	2293.72
540.78	2285.53
540.98	2254.81
541.18	2404.32
541.37	2312.16
541.57	2215.90
541.77	2306.01
541.97	2154.46
542.16	2121.70
542.36	2269.15
542.56	2254.81
542.76	2516.95
542.95	2297.82
543.15	2338.78
543.35	2326.49
543.54	2244.57
543.74	2248.67
543.94	2387.93
544.14	2242.53
544.33	2269.15
544.53	2209.76
544.73	2283.49
544.93	2273.25
545.12	2236.38
545.32	2234.33
545.52	2338.78
545.71	2158.56
545.91	2222.05
546.11	2170.85
546.30	2152.42
546.50	2234.33
546.70	2291.68
546.90	2224.09
547.09	2123.74
547.29	2269.15
547.49	2326.49
547.68	2236.38
547.88	2189.28
548.08	2396.12
548.27	2678.74
548.47	2197.47
548.67	2250.72
548.87	2381.79
549.06	2205.66
549.26	2232.29
549.46	2371.55
549.65	2209.76
549.85	2281.44
550.05	2265.05
550.24	2086.88
550.44	2324.44
550.64	2269.15
550.83	2244.57
551.03	2400.22
551.23	2420.70
551.42	2346.97
551.62	2162.66
551.82	2318.30
552.01	2220.00
552.21	2383.84
552.41	2244.57
552.60	2467.80
552.80	2295.77
553.00	2187.23
553.19	2314.20
553.39	2447.32
553.59	2205.66
553.78	2318.30
553.98	2277.34
554.17	2185.18
554.37	2349.02
554.57	2389.98
554.76	2150.37
554.96	2228.19
555.16	2301.92
555.35	2248.67
555.55	2351.07
555.75	2301.92
555.94	2338.78
556.14	2138.08
556.33	2308.06
556.53	2273.25
556.73	2299.87
556.92	2314.20
557.12	2306.01
557.32	2506.71
557.51	2406.36
557.71	2353.12
557.90	2457.56
558.10	2383.84
558.30	2260.96
558.49	2242.53
558.69	2310.11
558.88	2330.59
559.08	2297.82
559.28	2275.29
559.47	2205.66
559.67	2281.44
559.86	2484.19
560.06	2279.39
560.26	2168.80
560.45	2330.59
560.65	2279.39
560.84	2422.75
561.04	2164.70
561.24	2246.62
561.43	2164.70
561.63	2453.47
561.82	2314.20
562.02	2441.18
562.22	2164.70
562.41	2158.56
562.61	2172.89
562.80	2179.04
563.00	2506.71
563.19	2365.40
563.39	2289.63
563.59	2379.74
563.78	2174.94
563.98	2076.64
564.17	2234.33
564.37	2007.01
564.56	2256.86
564.76	2121.70
564.96	2465.75
565.15	2308.06
565.35	2475.99
565.54	2207.71
565.74	2297.82
565.93	2316.25
566.13	2256.86
566.32	2293.72
566.52	2406.36
566.71	2293.72
566.91	2316.25
567.11	2273.25
567.30	2203.61
567.50	2379.74
567.69	2361.31
567.89	2236.38
568.08	2166.75
568.28	2326.49
568.47	2119.65
568.67	2306.01
568.86	2172.89
569.06	2338.78
569.25	2228.19
569.45	2111.46
569.64	2211.81
569.84	2263.01
570.04	2297.82
570.23	2240.48
570.43	2220.00
570.62	2271.20
570.82	2412.51
571.01	2117.60
571.21	2248.67
571.40	2209.76
571.60	2353.12
571.79	2346.97
571.99	2326.49
572.18	2162.66
572.38	2297.82
572.57	2191.33
572.77	2271.20
572.96	2553.82
573.16	2334.68
573.35	2275.29
573.55	2344.92
573.74	2263.01
573.94	2269.15
574.13	2340.83
574.33	2385.88
574.52	2408.41
574.71	2236.38
574.91	2310.11
575.10	2162.66
575.30	2250.72
575.49	2203.61
575.69	2197.47
575.88	2324.44
576.08	2314.20
576.27	2432.99
576.47	2252.77
576.66	2428.89
576.86	2379.74
577.05	2359.26
577.25	2310.11
577.44	2473.95
577.64	2318.30
577.83	2359.26
578.02	2271.20
578.22	2457.56
578.41	2459.61
578.61	2279.39
578.80	2152.42
579.00	2299.87
579.19	2334.68
579.39	2406.36
579.58	2293.72
579.77	2273.25
579.97	2435.03
580.16	2504.67
580.36	2408.41
580.55	2346.97
580.75	2316.25
580.94	2318.30
581.13	2519.00
581.33	2432.99
581.52	2338.78
581.72	2584.54
581.91	2459.61
582.11	2295.77
582.30	2432.99
582.49	2387.93
582.69	2406.36
582.88	2320.35
583.08	2318.30
583.27	2375.64
583.47	2269.15
583.66	2226.14
583.85	2252.77
584.05	2314.20
584.24	2324.44
584.44	2277.34
584.63	2428.89
584.82	2478.04
585.02	2430.94
585.21	2424.80
585.41	2488.28
585.60	2324.44
585.79	2525.15
585.99	2539.48
586.18	2471.90
586.37	3028.95
586.57	4546.49
586.76	13961.00
586.96	33633.79
587.15	47039.79
587.34	56632.48
587.54	61400.15
587.73	56218.79
587.93	39730.59
588.12	30086.71
588.31	24231.57
588.51	21309.11
588.70	19310.30
588.89	17440.50
589.09	15206.17
589.28	13072.18
589.47	10686.30
589.67	8347.52
589.86	6487.96
590.06	4626.36
590.25	3885.00
590.44	3194.83
590.64	2858.96
590.83	2541.53
591.02	2512.86
591.22	2389.98
591.41	2439.13
591.60	2340.83
591.80	2537.43
591.99	2170.85
592.18	2260.96
592.38	2404.32
592.57	2281.44
592.76	2314.20
592.96	2326.49
593.15	2363.36
593.34	2383.84
593.54	2242.53
593.73	2346.97
593.92	2392.03
594.12	2408.41
594.31	2349.02
594.50	2451.42
594.70	2402.27
594.89	2588.63
595.08	2258.91
595.28	2381.79
595.47	2629.59
595.66	2396.12
595.86	2248.67
596.05	2291.68
596.24	2170.85
596.43	2435.03
596.63	2385.88
596.82	2289.63
597.01	2344.92
597.21	2467.80
597.40	2326.49
597.59	2281.44
597.79	2316.25
597.98	2279.39
598.17	2342.88
598.36	2254.81
598.56	2381.79
598.75	2314.20
598.94	2285.53
599.14	2252.77
599.33	2310.11
599.52	2367.45
599.71	2293.72
599.91	2320.35
600.10	2367.45
600.29	2299.87
600.48	2246.62
600.68	2258.91
600.87	2365.40
601.06	2244.57
601.26	2248.67
601.45	2220.00
601.64	2211.81
601.83	2367.45
602.03	2228.19
602.22	2088.93
602.41	2365.40
602.60	2531.29
602.80	2361.31
602.99	2293.72
603.18	2222.05
603.37	2281.44
603.57	2363.36
603.76	2371.55
603.95	2408.41
604.14	2269.15
604.34	2185.18
604.53	2291.68
604.72	2318.30
604.91	2346.97
605.10	2260.96
605.30	2115.55
605.49	2506.71
605.68	2394.08
605.87	2379.74
606.07	2220.00
606.26	2265.05
606.45	2211.81
606.64	2316.25
606.84	2281.44
607.03	2271.20
607.22	2357.21
607.41	2240.48
607.60	2203.61
607.80	2398.17
607.99	2285.53
608.18	2275.29
608.37	2256.86
608.56	2310.11
608.76	2424.80
608.95	2439.13
609.14	2389.98
609.33	2494.43
609.52	2500.57
609.72	2373.60
609.91	2459.61
610.10	2244.57
610.29	2412.51
610.48	2326.49
610.68	2330.59
610.87	2285.53
611.06	2306.01
611.25	2260.96
611.44	2392.03
611.63	2299.87
611.83	2408.41
612.02	2215.90
612.21	2289.63
612.40	2127.84
612.59	2174.94
612.79	2236.38
612.98	2220.00
613.17	2473.95
613.36	2244.57
613.55	2392.03
613.74	2297.82
613.93	2340.83
614.13	2441.18
614.32	2463.71
614.51	2408.41
614.70	2371.55
614.89	2301.92
615.08	2480.09
615.28	2781.14
615.47	2168.80
615.66	2387.93
615.85	2328.54
616.04	2473.95
616.23	2330.59
616.42	2308.06
616.62	2220.00
616.81	2334.68
617.00	2277.34
617.19	2310.11
617.38	2299.87
617.57	2314.20
617.76	2361.31
617.95	2355.16
618.15	2330.59
618.34	2322.40
618.53	2176.99
618.72	2340.83
618.91	2361.31
619.10	2375.64
619.29	2217.95
619.48	2357.21
619.68	2181.09
619.87	2197.47
620.06	2181.09
620.25	2285.53
620.44	2183.13
620.63	2170.85
620.82	2310.11
621.01	2316.25
621.20	2269.15
621.39	2314.20
621.59	2447.32
621.78	2330.59
621.97	2252.77
622.16	2269.15
622.35	2297.82
622.54	2328.54
622.73	2465.75
622.92	2195.42
623.11	2439.13
623.30	2187.23
623.49	2392.03
623.68	2197.47
623.88	2432.99
624.07	2324.44
624.26	2252.77
624.45	2254.81
624.64	2220.00
624.83	2299.87
625.02	2078.69
625.21	2211.81
625.40	2310.11
625.59	2463.71
625.78	2289.63
625.97	2412.51
626.16	2465.75
626.35	2326.49
626.54	2297.82
626.74	2471.90
626.93	2252.77
627.12	2310.11
627.31	2424.80
627.50	2353.12
627.69	2334.68
627.88	2203.61
628.07	2150.37
628.26	2160.61
628.45	2224.09
628.64	2228.19
628.83	2213.85
629.02	2195.42
629.21	2375.64
629.40	2265.05
629.59	2279.39
629.78	2201.57
629.97	2342.88
630.16	2250.72
630.35	2181.09
630.54	2299.87
630.73	2193.37
630.92	2279.39
631.11	2187.23
631.30	2246.62
631.49	2349.02
631.68	2203.61
631.87	2383.84
632.06	2185.18
632.25	2549.72
632.44	2361.31
632.63	2338.78
632.82	2326.49
633.01	2293.72
633.20	2367.45
633.39	2340.83
633.58	2193.37
633.77	2428.89
633.96	2318.30
634.15	2365.40
634.34	2326.49
634.53	2334.68
634.72	2191.33
634.91	2146.27
635.10	2324.44
635.29	2283.49
635.48	2275.29
635.67	2252.77
635.86	2093.02
636.05	2342.88
636.24	2285.53
636.43	2236.38
636.62	2265.05
636.81	2041.82
637.00	2310.11
637.19	2287.58
637.38	2277.34
637.57	2217.95
637.76	2281.44
637.95	2346.97
638.14	2244.57
638.33	2332.64
638.52	2359.26
638.71	2191.33
638.89	2179.04
639.08	2551.77
639.27	2422.75
639.46	2451.42
639.65	2807.77
639.84	2775.00
640.03	2951.12
640.22	2934.74
640.41	2844.63
640.60	2453.47
640.79	2539.48
640.98	2381.79
641.17	2516.95
641.36	2389.98
641.55	2488.28
641.74	2252.77
641.92	2226.14
642.11	2240.48
642.30	2232.29
642.49	2168.80
642.68	2197.47
642.87	2320.35
643.06	2349.02
643.25	2154.46
643.44	2176.99
643.63	2267.10
643.82	2308.06
644.00	2269.15
644.19	2220.00
644.38	2193.37
644.57	2260.96
644.76	2224.09
644.95	2252.77
645.14	2314.20
645.33	2244.57
645.52	2240.48
645.71	2220.00
645.89	2154.46
646.08	2248.67
646.27	2211.81
646.46	2465.75
646.65	2109.41
646.84	2330.59
647.03	2121.70
647.22	2289.63
647.40	2260.96
647.59	2322.40
647.78	2088.93
647.97	2121.70
648.16	2179.04
648.35	2457.56
648.54	2346.97
648.73	2158.56
648.91	2330.59
649.10	2318.30
649.29	2228.19
649.48	2256.86
649.67	2271.20
649.86	2273.25
650.05	2293.72
650.23	2422.75
650.42	2367.45
650.61	2492.38
650.80	2424.80
650.99	2463.71
651.18	2437.08
651.36	2428.89
651.55	2283.49
651.74	2357.21
651.93	2279.39
652.12	2250.72
652.31	2195.42
652.49	2195.42
652.68	2250.72
652.87	2408.41
653.06	2342.88
653.25	2553.82
653.44	2330.59
653.62	2463.71
653.81	2265.05
654.00	2260.96
654.19	2306.01
654.38	2555.86
654.56	2252.77
654.75	2238.43
654.94	2355.16
655.13	2301.92
655.32	2234.33
655.51	2324.44
655.69	2183.13
655.88	2346.97
656.07	2154.46
656.26	2324.44
656.45	2156.51
656.63	2365.40
656.82	2312.16
657.01	2316.25
657.20	2285.53
657.38	2377.69
657.57	2211.81
657.76	2148.32
657.95	2289.63
658.14	2252.77
658.32	2228.19
658.51	2070.50
658.70	2326.49
658.89	2244.57
659.08	2273.25
659.26	2400.22
659.45	2205.66
659.64	2330.59
659.83	2244.57
660.01	2623.45
660.20	2291.68
660.39	2437.08
660.58	2095.07
660.76	2373.60
660.95	2199.52
661.14	2228.19
661.33	2121.70
661.51	2195.42
661.70	2297.82
661.89	2349.02
662.08	2285.53
662.26	2156.51
662.45	2181.09
662.64	2416.60
662.83	2314.20
663.01	2146.27
663.20	2209.76
663.39	2355.16
663.58	2129.89
663.76	2263.01
663.95	2414.56
664.14	2154.46
664.32	2220.00
664.51	2125.79
664.70	2039.78
664.89	2291.68
665.07	2111.46
665.26	2381.79
665.45	2217.95
665.64	2342.88
665.82	2310.11
666.01	2316.25
666.20	2170.85
666.38	2392.03
666.57	2432.99
666.76	3358.67
666.95	8320.90
667.13	16434.95
667.32	21456.57
667.51	24823.43
667.69	26981.99
667.88	24510.09
668.07	17389.30
668.25	13971.24
668.44	11493.20
668.63	10002.28
668.81	8871.80
669.00	7872.39
669.19	6879.13
669.38	6043.56
669.56	5160.88
669.75	4390.84
669.94	3686.34
670.12	3147.73
670.31	2793.43
670.50	2656.22
670.68	2512.86
670.87	2428.89
671.06	2277.34
671.24	2361.31
671.43	2545.63
671.62	2357.21
671.80	2316.25
671.99	2301.92
672.18	2236.38
672.36	2318.30
672.55	2342.88
672.74	2248.67
672.92	2136.03
673.11	2336.73
673.29	2162.66
673.48	2342.88
673.67	2213.85
673.85	2408.41
674.04	2258.91
674.23	2293.72
674.41	2504.67
674.60	2117.60
674.79	2088.93
674.97	2222.05
675.16	2211.81
675.34	2338.78
675.53	2183.13
675.72	2346.97
675.90	2375.64
676.09	2197.47
676.28	2211.81
676.46	2066.40
676.65	2367.45
676.83	2220.00
677.02	2234.33
677.21	2271.20
677.39	2295.77
677.58	2193.37
677.77	2205.66
677.95	2197.47
678.14	2240.48
678.32	2207.71
678.51	2193.37
678.70	2451.42
678.88	2224.09
679.07	2242.53
679.25	2267.10
679.44	2314.20
679.63	2142.18
679.81	2303.96
680.00	2338.78
680.18	2330.59
680.37	2439.13
680.55	2209.76
680.74	2166.75
680.93	2158.56
681.11	2289.63
681.30	2267.10
681.48	2209.76
681.67	2256.86
681.85	2193.37
682.04	2185.18
682.23	2379.74
682.41	2306.01
682.60	2183.13
682.78	2234.33
682.97	2148.32
683.15	2277.34
683.34	2322.40
683.53	2396.12
683.71	2133.98
683.90	2398.17
684.08	2488.28
684.27	2269.15
684.45	2252.77
684.64	2408.41
684.82	2258.91
685.01	2293.72
685.19	2191.33
685.38	2410.46
685.57	2226.14
685.75	2267.10
685.94	2277.34
686.12	2133.98
686.31	2220.00
686.49	2432.99
686.68	2097.12
686.86	2291.68
687.05	2226.14
687.23	2400.22
687.42	2242.53
687.60	2133.98
687.79	2285.53
687.97	2420.70
688.16	2412.51
688.34	2410.46
688.53	2078.69
688.71	2301.92
688.90	2389.98
689.08	2220.00
689.27	2133.98
689.45	2346.97
689.64	2349.02
689.82	2279.39
690.01	2295.77
690.19	2244.57
690.38	2228.19
690.56	2394.08
690.75	2115.55
690.93	2217.95
691.12	2113.50
691.30	2277.34
691.49	2236.38
691.67	2291.68
691.86	2473.95
692.04	2265.05
692.23	2287.58
692.41	2234.33
692.60	2510.81
692.78	2439.13
692.97	2250.72
693.15	2342.88
693.34	2402.27
693.52	2353.12
693.71	2226.14
693.89	2248.67
694.08	1998.82
694.26	2342.88
694.44	2334.68
694.63	2324.44
694.81	2220.00
695.00	2074.59
695.18	2324.44
695.37	2455.51
695.55	2260.96
695.74	2193.37
695.92	2209.76
696.10	2416.60
696.29	2158.56
696.47	2211.81
696.66	2080.74
696.84	2166.75
697.03	2324.44
697.21	2473.95
697.40	3358.67
697.58	2371.55
697.76	2166.75
697.95	2248.67
698.13	2238.43
698.32	2185.18
698.50	2260.96
698.68	2346.97
698.87	2277.34
699.05	2396.12
699.24	2244.57
699.42	2185.18
699.61	2254.81
699.79	2277.34
699.97	2136.03
700.16	2146.27
700.34	2187.23
700.53	2285.53
700.71	2430.94
700.89	2373.60
701.08	2252.77
701.26	2195.42
701.45	2777.05
701.63	2252.77
701.81	2269.15
702.00	2228.19
702.18	2267.10
702.37	2228.19
702.55	2465.75
702.73	2435.03
702.92	2285.53
703.10	2553.82
703.28	2449.37
703.47	2322.40
703.65	2461.66
703.84	2340.83
704.02	2260.96
704.20	2451.42
704.39	2193.37
704.57	2213.85
704.75	2400.22
704.94	2320.35
705.12	2301.92
705.30	2559.96
705.49	4462.52
705.67	10452.83
705.86	18069.23
706.04	21853.87
706.22	25198.21
706.41	26228.34
706.59	21685.94
706.77	15646.48
706.96	13147.96
707.14	11511.63
707.32	9963.37
707.51	8775.55
707.69	7282.58
707.87	6004.64
708.06	4685.75
708.24	3960.77
708.42	3110.86
708.61	3059.67
708.79	2492.38
708.97	2445.27
709.16	2426.84
709.34	2269.15
709.52	2191.33
709.71	2269.15
709.89	2361.31
710.07	2174.94
710.26	2201.57
710.44	2273.25
710.62	2342.88
710.80	2267.10
710.99	2355.16
711.17	2326.49
711.35	2170.85
711.54	2119.65
711.72	2371.55
711.90	2371.55
712.09	2289.63
712.27	2234.33
712.45	2334.68
712.63	2277.34
712.82	2283.49
713.00	2172.89
713.18	2291.68
713.37	2310.11
713.55	2361.31
713.73	2269.15
713.91	2297.82
714.10	2187.23
714.28	2269.15
714.46	2242.53
714.65	2308.06
714.83	2318.30
715.01	2310.11
715.19	2328.54
715.38	2211.81
715.56	2312.16
715.74	2250.72
715.92	2179.04
716.11	2351.07
716.29	2072.54
716.47	2246.62
716.65	2217.95
716.84	2111.46
717.02	2349.02
717.20	2097.12
717.38	2217.95
717.57	2269.15
717.75	2279.39
717.93	2140.13
718.11	2281.44
718.30	2109.41
718.48	2338.78
718.66	2334.68
718.84	2392.03
719.03	2250.72
719.21	2183.13
719.39	2389.98
719.57	2244.57
719.75	2412.51
719.94	2228.19
720.12	2240.48
720.30	2297.82
720.48	2338.78
720.67	2174.94
720.85	2265.05
721.03	2127.84
721.21	2117.60
721.39	2338.78
721.58	2271.20
721.76	2265.05
721.94	2330.59
722.12	2248.67
722.30	2420.70
722.49	2209.76
722.67	2263.01
722.85	2285.53
723.03	2093.02
723.21	2164.70
723.40	2234.33
723.58	2359.26
723.76	2408.41
723.94	2396.12
724.12	2312.16
724.30	2437.08
724.49	2424.80
724.67	2265.05
724.85	2447.32
725.03	2117.60
725.21	2324.44
725.40	2375.64
725.58	2203.61
725.76	2359.26
725.94	2330.59
726.12	2150.37
726.30	2252.77
726.49	2226.14
726.67	2269.15
726.85	2324.44
727.03	2568.15
727.21	3512.27
727.39	5052.34
727.57	5908.39
727.76	6498.20
727.94	6651.80
728.12	6258.59
728.30	5275.57
728.48	4409.28
728.66	4132.80
728.84	3852.23
729.03	3196.88
729.21	3026.90
729.39	2787.29
729.57	2492.38
729.75	2482.14
729.93	2334.68
730.11	2244.57
730.30	2277.34
730.48	2260.96
730.66	2340.83
730.84	2310.11
731.02	2267.10
731.20	2234.33
731.38	2254.81
731.56	2129.89
731.74	2213.85
731.93	2373.60
732.11	2228.19
732.29	2275.29
732.47	2349.02
732.65	2197.47
732.83	2404.32
733.01	2301.92
733.19	2213.85
733.37	2342.88
733.56	2303.96
733.74	2162.66
733.92	2449.37
734.10	2228.19
734.28	2263.01
734.46	2164.70
734.64	2220.00
734.82	2252.77
735.00	2150.37
735.18	2226.14
735.36	2242.53
735.54	2256.86
735.73	2293.72
735.91	2293.72
736.09	2353.12
736.27	2250.72
736.45	2310.11
736.63	2023.39
736.81	2185.18
736.99	2308.06
737.17	2310.11
737.35	2185.18
737.53	2275.29
737.71	2252.77
737.89	2365.40
738.07	2187.23
738.25	2195.42
738.43	2138.08
738.61	2199.52
738.80	2160.61
738.98	2152.42
739.16	2195.42
739.34	2244.57
739.52	2387.93
739.70	2220.00
739.88	2459.61
740.06	2367.45
740.24	2002.91
740.42	2330.59
740.60	2086.88
740.78	2154.46
740.96	2162.66
741.14	2228.19
741.32	2289.63
741.50	2119.65
741.68	2484.19
741.86	2365.40
742.04	2125.79
742.22	2166.75
742.40	2232.29
742.58	2334.68
742.76	2224.09
742.94	2359.26
743.12	2097.12
743.30	2277.34
743.48	2293.72
743.66	2226.14
743.84	2367.45
744.02	2275.29
744.20	2240.48
744.38	2164.70
744.56	2236.38
744.74	2484.19
744.92	2308.06
745.10	2310.11
745.28	2228.19
745.46	2408.41
745.64	2156.51
745.82	2367.45
746.00	2236.38
746.18	2199.52
746.36	2271.20
746.54	2240.48
746.72	2330.59
746.90	2133.98
747.08	2422.75
747.26	2217.95
747.44	2303.96
747.62	2306.01
747.80	2246.62
747.98	2406.36
748.15	2232.29
748.33	2449.37
748.51	2193.37
748.69	2326.49
748.87	2191.33
749.05	2287.58
749.23	2213.85
749.41	2226.14
749.59	2207.71
749.77	2375.64
749.95	2193.37
750.13	2193.37
750.31	2342.88
750.49	2183.13
750.67	2365.40
750.85	2396.12
751.03	2285.53
751.20	2490.33
751.38	2236.38
751.56	2195.42
751.74	2244.57
751.92	2162.66
752.10	2183.13
752.28	2260.96
752.46	2179.04
752.64	2232.29
752.82	2162.66
753.00	2408.41
753.18	2215.90
753.35	2254.81
753.53	2269.15
753.71	2207.71
753.89	2303.96
754.07	2357.21
754.25	2310.11
754.43	2217.95
754.61	2179.04
754.79	2326.49
754.97	2211.81
755.14	2285.53
755.32	2156.51
755.50	2271.20
755.68	2289.63
755.86	2166.75
756.04	2176.99
756.22	2013.15
756.40	2367.45
756.57	2506.71
756.75	2269.15
756.93	2310.11
757.11	2289.63
757.29	2197.47
757.47	2197.47
757.65	2072.54
757.82	2068.45
758.00	2203.61
758.18	2142.18
758.36	2181.09
758.54	2414.56
758.72	2086.88
758.90	2256.86
759.07	2326.49
759.25	2070.50
759.43	2258.91
759.61	2166.75
759.79	3170.26
759.97	2344.92
760.15	2293.72
760.32	2250.72
760.50	2285.53
760.68	2389.98
760.86	2146.27
761.04	2346.97
761.22	2379.74
761.39	2242.53
761.57	2328.54
761.75	2203.61
761.93	2359.26
762.11	2209.76
762.28	2291.68
762.46	2144.22
762.64	2369.50
762.82	2080.74
763.00	2220.00
763.18	2422.75
763.35	2203.61
763.53	2297.82
763.71	2299.87
763.89	2217.95
764.07	2234.33
764.24	2273.25
764.42	2369.50
764.60	2211.81
764.78	2365.40
764.96	2336.73
765.13	2338.78
765.31	2277.34
765.49	2250.72
765.67	2168.80
765.84	2181.09
766.02	2273.25
766.20	2105.31
766.38	2334.68
766.56	2267.10
766.73	2279.39
766.91	2148.32
767.09	2252.77
767.27	2314.20
767.44	2176.99
767.62	2306.01
767.80	2283.49
767.98	2228.19
768.15	2269.15
768.33	2400.22
768.51	2314.20
768.69	2301.92
768.87	2158.56
769.04	2220.00
769.22	2527.19
769.40	2322.40
769.58	2432.99
769.75	2263.01
769.93	2385.88
770.11	2306.01
770.28	2205.66
770.46	2375.64
770.64	2271.20
770.82	2211.81
770.99	2244.57
771.17	2224.09
771.35	2154.46
771.53	2242.53
771.70	2142.18
771.88	2275.29
772.06	2230.24
772.23	2226.14
772.41	2193.37
772.59	2209.76
772.77	2162.66
772.94	2258.91
773.12	2246.62
773.30	2213.85
773.47	2176.99
773.65	2170.85
773.83	2402.27
774.01	2242.53
774.18	2088.93
774.36	2236.38
774.54	2064.35
774.71	2232.29
774.89	2076.64
775.07	2138.08
775.24	2213.85
775.42	2144.22
775.60	2435.03
775.78	2138.08
775.95	2125.79
776.13	2054.11
776.31	2140.13
776.48	2285.53
776.66	2394.08
776.84	2256.86
777.01	2133.98
777.19	2125.79
777.37	2226.14
777.54	2344.92
777.72	2424.80
777.90	2228.19
778.07	2168.80
778.25	2580.44
778.43	2400.22
778.60	2209.76
778.78	2369.50
778.96	2439.13
779.13	2142.18
779.31	2322.40
779.49	2232.29
779.66	2260.96
779.84	2254.81
780.01	2170.85
780.19	2236.38
780.37	2330.59
780.54	2252.77
780.72	2207.71
780.90	2277.34
781.07	2230.24
781.25	2131.94
781.43	2260.96
781.60	2195.42
781.78	2334.68
781.95	2338.78
782.13	2301.92
782.31	2215.90
782.48	1990.63
782.66	2232.29
782.83	2400.22
783.01	2310.11
783.19	2357.21
783.36	2181.09
783.54	2119.65
783.72	2314.20
783.89	2297.82
784.07	2283.49
784.24	2297.82
784.42	2369.50
784.60	2236.38
784.77	2289.63
784.95	1998.82
785.12	2211.81
785.30	2349.02
785.47	2181.09
785.65	2097.12
785.83	2160.61
786.00	2176.99
786.18	2275.29
786.35	2121.70
786.53	2140.13
786.71	2451.42
786.88	2293.72
787.06	2232.29
787.23	2195.42
787.41	2152.42
787.58	2238.43
787.76	2215.90
787.94	2230.24
788.11	2224.09
788.29	2105.31
788.46	2160.61
788.64	2136.03
788.81	2179.04
788.99	2023.39
789.16	2187.23
789.34	2232.29
789.52	2211.81
789.69	2222.05
789.87	2078.69
790.04	2133.98
790.22	2269.15
790.39	2484.19
790.57	2156.51
790.74	2209.76
790.92	2351.07
791.09	2185.18
791.27	2222.05
791.44	2371.55
791.62	2193.37
791.79	2357.21
791.97	2228.19
792.15	2572.25
792.32	2322.40
792.50	2308.06
792.67	2416.60
792.85	2392.03
793.02	2230.24
793.20	2238.43
793.37	2156.51
793.55	2224.09
793.72	2082.78
793.90	2275.29
794.07	2199.52
794.25	2183.13
794.42	2248.67
794.60	2142.18
794.77	2297.82
794.95	2248.67
795.12	2324.44
795.30	2283.49
795.47	2113.50
795.65	2605.02
795.82	2240.48
796.00	2138.08
796.17	2199.52
796.34	2150.37
796.52	2324.44
796.69	2332.64
796.87	2273.25
797.04	2285.53
797.22	2310.11
797.39	2312.16
797.57	2248.67
797.74	2260.96
797.92	2250.72
798.09	2144.22
798.27	2338.78
798.44	2236.38
798.62	2199.52
798.79	2301.92
798.96	2269.15
799.14	2158.56
799.31	2465.75
799.49	2222.05
799.66	2195.42
799.84	2285.53
800.01	2086.88
800.19	2293.72
800.36	2054.11
800.53	2256.86
800.71	2324.44
800.88	2363.36
801.06	2183.13
801.23	2236.38
801.41	2211.81
801.58	2254.81
801.75	2170.85
801.93	2207.71
802.10	2332.64
802.28	2170.85
802.45	2170.85
802.63	2211.81
802.80	2318.30
802.97	2269.15
803.15	2252.77
803.32	2162.66
803.50	2129.89
803.67	2125.79
803.84	2086.88
804.02	2279.39
804.19	2176.99
804.37	1998.82
804.54	2074.59
804.71	2256.86
804.89	2240.48
805.06	2170.85
805.24	2082.78
805.41	2125.79
805.58	2222.05
805.76	2422.75
805.93	2248.67
806.10	2404.32
806.28	2379.74
806.45	2293.72
806.63	2232.29
806.80	2342.88
806.97	2396.12
807.15	2277.34
807.32	2367.45
807.49	2211.81
807.67	2131.94
807.84	2275.29
808.01	2090.98
808.19	2389.98
808.36	2502.62
808.54	2277.34
808.71	2078.69
808.88	2220.00
809.06	2359.26
809.23	2273.25
809.40	2174.94
809.58	2320.35
809.75	2310.11
809.92	2170.85
810.10	2525.15
810.27	2275.29
810.44	2285.53
810.62	2385.88
810.79	2285.53
810.96	2140.13
811.14	2293.72
811.31	2240.48
811.48	2291.68
811.66	2232.29
811.83	2330.59
812.00	2316.25
812.18	2244.57
812.35	2420.70
812.52	2193.37
812.69	2187.23
812.87	2179.04
813.04	2156.51
813.21	2144.22
813.39	2193.37
813.56	2228.19
813.73	2295.77
813.91	2039.78
814.08	2314.20
814.25	2269.15
814.42	2133.98
814.60	2240.48
814.77	2289.63
814.94	2211.81
815.12	2279.39
815.29	2389.98
815.46	2211.81
815.63	2275.29
815.81	2285.53
815.98	2170.85
816.15	2232.29
816.33	2230.24
816.50	2203.61
816.67	2209.76
816.84	2176.99
817.02	2207.71
817.19	2189.28
817.36	2281.44
817.53	2246.62
817.71	2111.46
817.88	2289.63
818.05	2260.96
818.22	2197.47
818.40	2410.46
818.57	2207.71
818.74	2297.82
818.91	2152.42
819.09	2285.53
819.26	2318.30
819.43	2166.75
819.60	2213.85
819.78	2258.91
819.95	2359.26
820.12	2144.22
820.29	2439.13
820.47	2342.88
820.64	2174.94
820.81	2047.97
820.98	2084.83
821.15	2265.05
821.33	2318.30
821.50	2111.46
821.67	2392.03
821.84	2195.42
822.02	2299.87
822.19	2367.45
822.36	2201.57
822.53	2199.52
822.70	2121.70
822.88	2217.95
823.05	2430.94
823.22	2226.14
823.39	2275.29
823.56	2269.15
823.74	2430.94
823.91	2119.65
824.08	2166.75
824.25	2232.29
824.42	2385.88
824.60	2013.15
824.77	2422.75
824.94	2263.01
825.11	2351.07
825.28	2099.17
825.45	2322.40
825.63	2275.29
825.80	2179.04
825.97	2234.33
826.14	2209.76
826.31	2119.65
826.48	2269.15
826.66	2158.56
826.83	2185.18
827.00	2203.61
827.17	2181.09
827.34	2275.29
827.51	2187.23
827.69	2201.57
827.86	2117.60
828.03	2158.56
828.20	2291.68
828.37	2170.85
828.54	2299.87
828.71	2215.90
828.89	2295.77
829.06	2287.58
829.23	2400.22
829.40	2142.18
829.57	2148.32
829.74	2310.11
829.91	2181.09
830.09	2195.42
830.26	2228.19
830.43	2359.26
830.60	2179.04
830.77	2297.82
830.94	2416.60
831.11	2357.21
831.28	2162.66
831.46	2342.88
831.63	2195.42
831.80	2361.31
831.97	2232.29
832.14	2236.38
832.31	2277.34
832.48	2293.72
832.65	2314.20
832.82	2254.81
832.99	2252.77
833.17	2121.70
833.34	2449.37
833.51	2297.82
833.68	2039.78
833.85	2340.83
834.02	2189.28
834.19	2166.75
834.36	2201.57
834.53	2303.96
834.70	2357.21
834.87	2340.83
835.04	2183.13
835.22	2176.99
835.39	2197.47
835.56	2133.98
835.73	2205.66
835.90	2367.45
836.07	2146.27
836.24	2269.15
836.41	2185.18
836.58	2127.84
836.75	2385.88
836.92	2230.24
837.09	2123.74
837.26	2318.30
837.43	2297.82
837.60	2269.15
837.77	2195.42
837.94	2238.43
838.12	2377.69
838.29	2162.66
838.46	2064.35
838.63	2121.70
838.80	2383.84
838.97	2220.00
839.14	2211.81
839.31	2226.14
839.48	2336.73
839.65	2142.18
839.82	2279.39
839.99	2236.38
840.16	2260.96
840.33	2187.23
840.50	2226.14
840.67	2129.89
840.84	1994.72
841.01	2172.89
841.18	2166.75
841.35	2168.80
841.52	2320.35
841.69	2383.84
841.86	2162.66
842.03	2252.77
842.20	2289.63
842.37	2209.76
842.54	2138.08
842.71	2244.57
842.88	2088.93
843.05	2258.91
843.22	2187.23
843.39	2299.87
843.56	2224.09
843.73	2244.57
843.90	2189.28
844.07	2299.87
844.24	2326.49
844.41	2301.92
844.58	2207.71
844.75	2265.05
844.92	2250.72
845.09	2258.91
845.26	2166.75
845.43	2357.21
845.60	2236.38
845.77	2254.81
845.94	2293.72
846.10	2289.63
846.27	2146.27
846.44	2136.03
846.61	2099.17
846.78	2293.72
846.95	2322.40
847.12	2140.13
847.29	2203.61
847.46	2117.60
847.63	2342.88
847.80	2123.74
847.97	2201.57
848.14	2533.34
848.31	2215.90
848.48	2064.35
848.65	2291.68
848.82	2107.36
848.98	2510.81
849.15	2316.25
849.32	2306.01
849.49	2357.21
849.66	2213.85
849.83	2154.46
850.00	2068.45
850.17	2357.21
850.34	2070.50
850.51	2162.66
850.68	2189.28
850.85	2445.27
851.01	2306.01
851.18	2236.38
851.35	2230.24
851.52	2310.11
851.69	2361.31
851.86	2121.70
852.03	2113.50
852.20	2287.58
852.37	2222.05
852.53	2117.60
852.70	2224.09
852.87	2248.67
853.04	2320.35
853.21	2220.00
853.38	2371.55
853.55	2381.79
853.72	2392.03
853.89	2121.70
854.05	2162.66
854.22	2136.03
854.39	2238.43
854.56	2201.57
854.73	2295.77
854.90	2211.81
855.07	2156.51
855.23	2181.09
855.40	2176.99
855.57	2195.42
855.74	2140.13
855.91	2381.79
856.08	2060.26
856.25	2115.55
856.41	2201.57
856.58	2193.37
856.75	2211.81
856.92	2140.13
857.09	2240.48
857.26	2105.31
857.42	2170.85
857.59	2359.26
857.76	2187.23
857.93	2299.87
858.10	2205.66
858.27	2117.60
858.43	2228.19
858.60	2133.98
858.77	2093.02
858.94	2217.95
859.11	2346.97
859.27	2265.05
859.44	2136.03
859.61	2471.90
859.78	2275.29
859.95	2203.61
860.12	2228.19
860.28	2457.56
860.45	2459.61
860.62	2158.56
860.79	2320.35
860.95	2185.18
861.12	2146.27
861.29	2127.84
861.46	2140.13
861.63	2318.30
861.79	2295.77
861.96	2111.46
862.13	2164.70
862.30	2408.41
862.47	2250.72
862.63	2138.08
862.80	2326.49
862.97	2301.92
863.14	2310.11
863.30	2277.34
863.47	2185.18
863.64	2359.26
863.81	2285.53
863.97	2154.46
864.14	2238.43
864.31	2185.18
864.48	2234.33
864.65	2215.90
864.81	2324.44
864.98	2326.49
865.15	2326.49
865.32	2232.29
865.48	2357.21
865.65	2408.41
865.82	2162.66
865.98	2330.59
866.15	2258.91
866.32	2277.34
866.49	2291.68
866.65	2252.77
866.82	2064.35
866.99	2187.23
867.16	2215.90
867.32	2207.71
867.49	2213.85
867.66	2291.68
867.83	2199.52
867.99	2146.27
868.16	2123.74
868.33	2105.31
868.49	2273.25
868.66	2205.66
868.83	2275.29
868.99	2234.33
869.16	2209.76
869.33	2289.63
869.50	2263.01
869.66	2232.29
869.83	2217.95
870.00	2129.89
870.16	2301.92
870.33	2256.86
870.50	2322.40
870.66	2232.29
870.83	2351.07
871.00	2291.68
871.17	2230.24
871.33	2236.38
871.50	2052.06
871.67	2248.67
871.83	2203.61
872.00	2318.30
872.17	2166.75
872.33	2447.32
872.50	2373.60
872.67	2238.43
872.83	2275.29
873.00	2260.96
873.17	2316.25
873.33	2306.01
873.50	2226.14
873.67	2140.13
873.83	2131.94
874.00	2179.04
874.16	2324.44
874.33	2297.82
874.50	2133.98
874.66	2248.67
874.83	2224.09
875.00	2301.92
875.16	2355.16
875.33	2332.64
875.50	2019.30
875.66	2152.42
875.83	2250.72
875.99	2224.09
876.16	2283.49
876.33	2136.03
876.49	2224.09
876.66	2281.44
876.83	2166.75
876.99	2066.40
877.16	2226.14
877.32	2160.61
877.49	2220.00
877.66	2269.15
877.82	2398.17
877.99	2222.05
878.15	2258.91
878.32	2217.95
878.49	2201.57
878.65	2226.14
878.82	2375.64
878.98	2209.76
879.15	2332.64
879.32	2310.11
879.48	2277.34
879.65	2217.95
879.81	2244.57
879.98	2150.37
880.15	2164.70
880.31	2349.02
880.48	2125.79
880.64	2273.25
880.81	2256.86
880.97	2365.40
881.14	2342.88
881.31	2187.23
881.47	2377.69
881.64	2234.33
881.80	2144.22
881.97	2220.00
882.13	2246.62
882.30	2191.33
882.47	2224.09
882.63	2154.46
882.80	2152.42
882.96	2176.99
883.13	2396.12
883.29	2215.90
883.46	2209.76
883.62	2381.79
883.79	2254.81
883.95	2232.29
884.12	2203.61
884.29	2383.84
884.45	2236.38
884.62	2334.68
884.78	2170.85
884.95	2383.84
885.11	2170.85
885.28	2230.24
885.44	2203.61
885.61	2252.77
885.77	2400.22
885.94	2287.58
886.10	2242.53
886.27	2273.25
886.43	2457.56
886.60	2326.49
886.76	2228.19
886.93	2240.48
887.09	2301.92
887.26	2070.50
887.42	2195.42
887.59	2377.69
887.75	2400.22
887.92	2287.58
888.08	2244.57
888.25	2363.36
888.41	2346.97
888.58	2250.72
888.74	2074.59
888.91	2252.77
>>>>>End Processed Spectral Data<<<<<
