SpectraSuite Data File
++++++++++++++++++++++++++++++++++++
Date: Thu May 05 13:21:08 CEST 2016
User: root
Dark Spectrum Present: No
Reference Spectrum Present: No
Number of Sampled Component Spectra: 1
Spectrometers: USB4C02835
Integration Time (usec): 100000 (USB4C02835)
Spectra Averaged: 1 (USB4C02835)
Boxcar Smoothing: 0 (USB4C02835)
Correct for Electrical Dark: No (USB4C02835)
Strobe/Lamp Enabled: No (USB4C02835)
Correct for Detector Non-linearity: No (USB4C02835)
Correct for Stray Light: No (USB4C02835)
Number of Pixels in Processed Spectrum: 3648
>>>>>Begin Processed Spectral Data<<<<<
177.47	1837.03
177.69	1837.03
177.91	1837.03
178.13	1759.21
178.36	1814.50
178.58	2119.65
178.80	2265.05
179.02	2074.59
179.24	2078.69
179.46	2168.80
179.68	2299.87
179.90	2191.33
180.13	2252.77
180.35	2056.16
180.57	2172.89
180.79	2312.16
181.01	2263.01
181.23	2195.42
181.45	2303.96
181.67	2400.22
181.90	2334.68
182.12	2160.61
182.34	2111.46
182.56	2299.87
182.78	2334.68
183.00	2187.23
183.22	2269.15
183.44	2023.39
183.66	2504.67
183.89	2316.25
184.11	2209.76
184.33	2285.53
184.55	2416.60
184.77	2191.33
184.99	2183.13
185.21	2215.90
185.43	2441.18
185.65	2136.03
185.87	2125.79
186.10	2480.09
186.32	2568.15
186.54	2291.68
186.76	2291.68
186.98	2287.58
187.20	2215.90
187.42	2187.23
187.64	2215.90
187.86	2269.15
188.08	2424.80
188.30	2070.50
188.52	2160.61
188.75	2398.17
188.97	2369.50
189.19	2207.71
189.41	2140.13
189.63	2306.01
189.85	2183.13
190.07	2095.07
190.29	2084.83
190.51	2383.84
190.73	2187.23
190.95	2244.57
191.17	2191.33
191.39	2138.08
191.61	2254.81
191.84	2179.04
192.06	2179.04
192.28	2056.16
192.50	2555.86
192.72	2306.01
192.94	2148.32
193.16	2359.26
193.38	2314.20
193.60	2113.50
193.82	2172.89
194.04	2349.02
194.26	2326.49
194.48	2164.70
194.70	2119.65
194.92	2193.37
195.14	2285.53
195.36	2211.81
195.58	2166.75
195.80	2193.37
196.02	2250.72
196.24	2158.56
196.46	2254.81
196.69	2158.56
196.91	2523.10
197.13	2275.29
197.35	2158.56
197.57	2406.36
197.79	2326.49
198.01	2346.97
198.23	2215.90
198.45	2342.88
198.67	2160.61
198.89	2105.31
199.11	2258.91
199.33	2140.13
199.55	2031.58
199.77	2148.32
199.99	2322.40
200.21	2179.04
200.43	2285.53
200.65	2088.93
200.87	1966.05
201.09	2269.15
201.31	2193.37
201.53	2242.53
201.75	2267.10
201.97	2324.44
202.19	2281.44
202.41	2166.75
202.63	2322.40
202.85	2383.84
203.07	2275.29
203.29	2103.26
203.51	2082.78
203.73	2197.47
203.95	2529.24
204.17	2172.89
204.39	2193.37
204.61	2179.04
204.83	2279.39
205.05	2234.33
205.27	2250.72
205.49	2441.18
205.71	2236.38
205.93	2162.66
206.15	2041.82
206.37	2230.24
206.59	2162.66
206.81	2072.54
207.03	2080.74
207.25	2203.61
207.47	2371.55
207.69	2199.52
207.91	2381.79
208.13	2392.03
208.34	2205.66
208.56	2101.22
208.78	2222.05
209.00	2203.61
209.22	2242.53
209.44	2176.99
209.66	2174.94
209.88	2226.14
210.10	2269.15
210.32	2170.85
210.54	2242.53
210.76	2211.81
210.98	2322.40
211.20	2062.30
211.42	2260.96
211.64	2439.13
211.86	2398.17
212.08	2220.00
212.30	2170.85
212.52	2232.29
212.74	2351.07
212.96	2265.05
213.17	2234.33
213.39	2306.01
213.61	2310.11
213.83	2160.61
214.05	2246.62
214.27	2349.02
214.49	2115.55
214.71	2123.74
214.93	2215.90
215.15	2244.57
215.37	2291.68
215.59	2043.87
215.81	2285.53
216.03	2414.56
216.24	2238.43
216.46	2185.18
216.68	2146.27
216.90	2392.03
217.12	2375.64
217.34	2187.23
217.56	2238.43
217.78	2375.64
218.00	2265.05
218.22	2211.81
218.44	2176.99
218.66	2344.92
218.87	2453.47
219.09	2211.81
219.31	2176.99
219.53	2160.61
219.75	2189.28
219.97	2185.18
220.19	2232.29
220.41	2228.19
220.63	2394.08
220.85	2176.99
221.06	2156.51
221.28	2367.45
221.50	2277.34
221.72	2148.32
221.94	2150.37
222.16	2236.38
222.38	2355.16
222.60	2201.57
222.82	2199.52
223.03	2424.80
223.25	2236.38
223.47	2226.14
223.69	2361.31
223.91	2301.92
224.13	2242.53
224.35	2183.13
224.57	2322.40
224.78	2293.72
225.00	2228.19
225.22	2146.27
225.44	2205.66
225.66	2213.85
225.88	2248.67
226.10	2236.38
226.32	2131.94
226.53	2389.98
226.75	2203.61
226.97	2195.42
227.19	2209.76
227.41	2119.65
227.63	2256.86
227.85	2097.12
228.06	2238.43
228.28	2277.34
228.50	2293.72
228.72	2043.87
228.94	2273.25
229.16	2062.30
229.37	2168.80
229.59	2170.85
229.81	2260.96
230.03	2234.33
230.25	2172.89
230.47	2021.35
230.69	2031.58
230.90	2332.64
231.12	2181.09
231.34	2220.00
231.56	2252.77
231.78	2138.08
232.00	2291.68
232.21	2250.72
232.43	2207.71
232.65	2072.54
232.87	2301.92
233.09	2119.65
233.30	2162.66
233.52	2342.88
233.74	2236.38
233.96	2183.13
234.18	2195.42
234.40	2236.38
234.61	2437.08
234.83	2166.75
235.05	2088.93
235.27	2432.99
235.49	2369.50
235.70	2105.31
235.92	2244.57
236.14	2318.30
236.36	2523.10
236.58	2105.31
236.79	2318.30
237.01	2207.71
237.23	2260.96
237.45	2318.30
237.67	2150.37
237.88	2308.06
238.10	2449.37
238.32	2138.08
238.54	2181.09
238.76	2244.57
238.97	2238.43
239.19	2095.07
239.41	2314.20
239.63	2328.54
239.85	2211.81
240.06	2244.57
240.28	2197.47
240.50	2269.15
240.72	2271.20
240.93	2127.84
241.15	2234.33
241.37	2250.72
241.59	2418.65
241.81	2207.71
242.02	2142.18
242.24	2375.64
242.46	2236.38
242.68	2203.61
242.89	2123.74
243.11	2349.02
243.33	2213.85
243.55	2187.23
243.76	2232.29
243.98	2183.13
244.20	2248.67
244.42	2203.61
244.64	2226.14
244.85	2123.74
245.07	2166.75
245.29	2244.57
245.51	2207.71
245.72	2275.29
245.94	2328.54
246.16	2260.96
246.38	2170.85
246.59	2252.77
246.81	2193.37
247.03	2123.74
247.24	2123.74
247.46	2203.61
247.68	2209.76
247.90	2242.53
248.11	2181.09
248.33	2293.72
248.55	2213.85
248.77	2252.77
248.98	2252.77
249.20	2418.65
249.42	2324.44
249.64	2154.46
249.85	2131.94
250.07	2293.72
250.29	2344.92
250.50	2267.10
250.72	2105.31
250.94	2330.59
251.16	2465.75
251.37	2162.66
251.59	2172.89
251.81	2306.01
252.02	2418.65
252.24	2152.42
252.46	2334.68
252.68	2181.09
252.89	2170.85
253.11	1990.63
253.33	2353.12
253.54	2273.25
253.76	2023.39
253.98	2113.50
254.20	2203.61
254.41	2187.23
254.63	2220.00
254.85	2133.98
255.06	2246.62
255.28	2244.57
255.50	2230.24
255.71	2160.61
255.93	2050.02
256.15	2220.00
256.36	2308.06
256.58	2174.94
256.80	2209.76
257.02	2267.10
257.23	2179.04
257.45	2191.33
257.67	2226.14
257.88	2193.37
258.10	2256.86
258.32	2144.22
258.53	2201.57
258.75	2480.09
258.97	2199.52
259.18	2189.28
259.40	2183.13
259.62	2379.74
259.83	2404.32
260.05	2215.90
260.27	2633.69
260.48	2408.41
260.70	2129.89
260.92	2166.75
261.13	2209.76
261.35	2326.49
261.57	2256.86
261.78	2103.26
262.00	2099.17
262.22	2324.44
262.43	2154.46
262.65	2205.66
262.86	2211.81
263.08	2514.91
263.30	2295.77
263.51	2015.20
263.73	2121.70
263.95	2432.99
264.16	2150.37
264.38	2121.70
264.60	2176.99
264.81	2213.85
265.03	2367.45
265.25	2359.26
265.46	2166.75
265.68	2322.40
265.89	2346.97
266.11	2090.98
266.33	2232.29
266.54	2392.03
266.76	2213.85
266.98	2250.72
267.19	2394.08
267.41	2355.16
267.62	2289.63
267.84	2054.11
268.06	2291.68
268.27	2326.49
268.49	2299.87
268.70	2215.90
268.92	2150.37
269.14	2144.22
269.35	2095.07
269.57	2217.95
269.79	2310.11
270.00	2236.38
270.22	2379.74
270.43	2074.59
270.65	2052.06
270.87	2277.34
271.08	2373.60
271.30	2244.57
271.51	2238.43
271.73	2338.78
271.95	2338.78
272.16	2193.37
272.38	2199.52
272.59	2222.05
272.81	2285.53
273.02	2250.72
273.24	2136.03
273.46	2279.39
273.67	2154.46
273.89	2115.55
274.10	2097.12
274.32	2416.60
274.54	2310.11
274.75	2211.81
274.97	2185.18
275.18	2217.95
275.40	2344.92
275.61	2199.52
275.83	2211.81
276.05	2142.18
276.26	2168.80
276.48	2234.33
276.69	2213.85
276.91	2273.25
277.12	2359.26
277.34	2308.06
277.55	2314.20
277.77	2244.57
277.99	2236.38
278.20	2160.61
278.42	2138.08
278.63	2162.66
278.85	2191.33
279.06	2105.31
279.28	2242.53
279.49	2293.72
279.71	2355.16
279.93	2283.49
280.14	2228.19
280.36	2277.34
280.57	2346.97
280.79	2250.72
281.00	2199.52
281.22	2101.22
281.43	2363.36
281.65	2023.39
281.86	2127.84
282.08	2332.64
282.29	2416.60
282.51	2088.93
282.73	2162.66
282.94	2121.70
283.16	2377.69
283.37	2408.41
283.59	2252.77
283.80	2310.11
284.02	2260.96
284.23	2310.11
284.45	2117.60
284.66	2209.76
284.88	2203.61
285.09	2172.89
285.31	2293.72
285.52	2346.97
285.74	2109.41
285.95	2349.02
286.17	2248.67
286.38	2303.96
286.60	2244.57
286.81	2176.99
287.03	2166.75
287.24	2269.15
287.46	2312.16
287.67	2279.39
287.89	2414.56
288.10	2248.67
288.32	2344.92
288.53	2389.98
288.75	2197.47
288.96	2396.12
289.18	2176.99
289.39	2097.12
289.61	2244.57
289.82	2478.04
290.04	2332.64
290.25	2097.12
290.47	2226.14
290.68	2201.57
290.90	2392.03
291.11	2105.31
291.33	2285.53
291.54	2199.52
291.76	2152.42
291.97	2301.92
292.18	2258.91
292.40	2195.42
292.61	2248.67
292.83	2478.04
293.04	2273.25
293.26	2277.34
293.47	2285.53
293.69	2181.09
293.90	2232.29
294.12	2406.36
294.33	2242.53
294.55	2246.62
294.76	2308.06
294.97	2484.19
295.19	2510.81
295.40	2207.71
295.62	2293.72
295.83	2277.34
296.05	2209.76
296.26	2314.20
296.48	2127.84
296.69	2203.61
296.90	2236.38
297.12	2357.21
297.33	2273.25
297.55	2342.88
297.76	2336.73
297.98	2346.97
298.19	2334.68
298.41	2254.81
298.62	2226.14
298.83	2349.02
299.05	2226.14
299.26	2156.51
299.48	2189.28
299.69	2258.91
299.90	2226.14
300.12	2252.77
300.33	2297.82
300.55	2232.29
300.76	2291.68
300.98	2133.98
301.19	2287.58
301.40	2285.53
301.62	2105.31
301.83	2303.96
302.05	2269.15
302.26	2195.42
302.47	2265.05
302.69	2164.70
302.90	2349.02
303.12	2097.12
303.33	2291.68
303.54	2426.84
303.76	2236.38
303.97	2228.19
304.19	2293.72
304.40	2113.50
304.61	2267.10
304.83	2381.79
305.04	2324.44
305.26	2363.36
305.47	2258.91
305.68	2244.57
305.90	2056.16
306.11	2408.41
306.33	2179.04
306.54	2133.98
306.75	2217.95
306.97	2107.36
307.18	2187.23
307.39	2230.24
307.61	2342.88
307.82	2312.16
308.04	2316.25
308.25	2160.61
308.46	2277.34
308.68	2256.86
308.89	2217.95
309.10	2355.16
309.32	2254.81
309.53	2176.99
309.74	2334.68
309.96	2211.81
310.17	2316.25
310.39	2189.28
310.60	2363.36
310.81	2258.91
311.03	2162.66
311.24	2318.30
311.45	2314.20
311.67	2416.60
311.88	2306.01
312.09	2303.96
312.31	2209.76
312.52	2201.57
312.73	2252.77
312.95	2119.65
313.16	2228.19
313.37	2324.44
313.59	2328.54
313.80	2281.44
314.01	2394.08
314.23	2209.76
314.44	2211.81
314.65	2097.12
314.87	2185.18
315.08	2176.99
315.29	2160.61
315.51	2068.45
315.72	2047.97
315.93	2402.27
316.15	2289.63
316.36	2179.04
316.57	2293.72
316.79	2263.01
317.00	2211.81
317.21	2283.49
317.43	2197.47
317.64	2215.90
317.85	2205.66
318.07	2271.20
318.28	2269.15
318.49	2398.17
318.70	2533.34
318.92	2330.59
319.13	2414.56
319.34	2404.32
319.56	2320.35
319.77	2375.64
319.98	2392.03
320.20	2334.68
320.41	2340.83
320.62	2269.15
320.83	2220.00
321.05	2488.28
321.26	2217.95
321.47	2217.95
321.69	2369.50
321.90	2138.08
322.11	2211.81
322.32	2326.49
322.54	2439.13
322.75	2234.33
322.96	2494.43
323.18	2162.66
323.39	2004.96
323.60	2170.85
323.81	2301.92
324.03	2207.71
324.24	2275.29
324.45	2322.40
324.66	2164.70
324.88	2340.83
325.09	2430.94
325.30	2176.99
325.52	2281.44
325.73	2342.88
325.94	2136.03
326.15	2123.74
326.37	2179.04
326.58	2299.87
326.79	2398.17
327.00	2197.47
327.22	2326.49
327.43	2197.47
327.64	2150.37
327.85	2281.44
328.07	2258.91
328.28	2430.94
328.49	2158.56
328.70	2123.74
328.92	2183.13
329.13	2277.34
329.34	2324.44
329.55	2414.56
329.76	2297.82
329.98	2222.05
330.19	2392.03
330.40	2230.24
330.61	2228.19
330.83	2285.53
331.04	2084.83
331.25	2277.34
331.46	2183.13
331.68	2160.61
331.89	2349.02
332.10	2250.72
332.31	2095.07
332.52	2238.43
332.74	2400.22
332.95	2076.64
333.16	2150.37
333.37	2373.60
333.58	2185.18
333.80	2215.90
334.01	2093.02
334.22	2201.57
334.43	2115.55
334.64	2166.75
334.86	2121.70
335.07	2183.13
335.28	2363.36
335.49	2088.93
335.70	2306.01
335.92	2445.27
336.13	2531.29
336.34	2273.25
336.55	2199.52
336.76	2314.20
336.98	2072.54
337.19	2224.09
337.40	2387.93
337.61	2519.00
337.82	2230.24
338.04	2252.77
338.25	2117.60
338.46	2256.86
338.67	2226.14
338.88	2195.42
339.09	2162.66
339.31	2220.00
339.52	2127.84
339.73	2138.08
339.94	2242.53
340.15	2396.12
340.36	2185.18
340.58	2213.85
340.79	2199.52
341.00	2269.15
341.21	2168.80
341.42	2422.75
341.63	2183.13
341.85	2441.18
342.06	2326.49
342.27	2179.04
342.48	2330.59
342.69	2129.89
342.90	2275.29
343.12	2312.16
343.33	2232.29
343.54	2322.40
343.75	2435.03
343.96	2256.86
344.17	2170.85
344.38	2228.19
344.60	2150.37
344.81	2166.75
345.02	2271.20
345.23	2392.03
345.44	2406.36
345.65	2271.20
345.86	2191.33
346.07	2209.76
346.29	2238.43
346.50	2340.83
346.71	2211.81
346.92	2432.99
347.13	2525.15
347.34	2303.96
347.55	2211.81
347.76	2252.77
347.98	2121.70
348.19	2156.51
348.40	2332.64
348.61	2217.95
348.82	2369.50
349.03	2250.72
349.24	2193.37
349.45	2338.78
349.66	2086.88
349.88	2248.67
350.09	2138.08
350.30	2334.68
350.51	2465.75
350.72	2285.53
350.93	2314.20
351.14	2197.47
351.35	2248.67
351.56	2271.20
351.77	2275.29
351.99	2316.25
352.20	2406.36
352.41	2367.45
352.62	2058.21
352.83	2256.86
353.04	2340.83
353.25	2160.61
353.46	2353.12
353.67	2373.60
353.88	2111.46
354.09	2215.90
354.30	2199.52
354.52	2240.48
354.73	2242.53
354.94	2195.42
355.15	2232.29
355.36	2437.08
355.57	2209.76
355.78	2244.57
355.99	2187.23
356.20	2195.42
356.41	2387.93
356.62	2312.16
356.83	2236.38
357.04	2357.21
357.25	2125.79
357.46	2209.76
357.68	2093.02
357.89	2164.70
358.10	2164.70
358.31	2273.25
358.52	2148.32
358.73	2105.31
358.94	2168.80
359.15	2195.42
359.36	2234.33
359.57	2248.67
359.78	2136.03
359.99	2326.49
360.20	2086.88
360.41	2242.53
360.62	2320.35
360.83	2258.91
361.04	2248.67
361.25	2183.13
361.46	2465.75
361.67	2285.53
361.88	2289.63
362.09	2346.97
362.30	2320.35
362.51	2224.09
362.72	2306.01
362.93	2338.78
363.14	2312.16
363.35	2220.00
363.56	2107.36
363.78	2416.60
363.99	2373.60
364.20	2162.66
364.41	2238.43
364.62	2471.90
364.83	2260.96
365.04	2187.23
365.25	2238.43
365.46	2463.71
365.67	2183.13
365.88	2224.09
366.09	2152.42
366.30	2195.42
366.51	2234.33
366.72	2138.08
366.93	2240.48
367.14	2316.25
367.35	2357.21
367.56	2199.52
367.77	2383.84
367.98	2228.19
368.18	2228.19
368.39	2252.77
368.60	2113.50
368.81	2316.25
369.02	2285.53
369.23	2265.05
369.44	2101.22
369.65	2211.81
369.86	2402.27
370.07	2263.01
370.28	2158.56
370.49	2363.36
370.70	2287.58
370.91	2170.85
371.12	2035.68
371.33	2277.34
371.54	2197.47
371.75	2346.97
371.96	2086.88
372.17	2269.15
372.38	2199.52
372.59	2211.81
372.80	2228.19
373.01	2269.15
373.22	2301.92
373.43	2258.91
373.64	2113.50
373.85	2314.20
374.06	2519.00
374.26	2342.88
374.47	2351.07
374.68	2381.79
374.89	2238.43
375.10	2193.37
375.31	2344.92
375.52	2236.38
375.73	2359.26
375.94	2127.84
376.15	2432.99
376.36	2174.94
376.57	2236.38
376.78	2195.42
376.99	2310.11
377.20	2445.27
377.40	2209.76
377.61	2406.36
377.82	2160.61
378.03	2424.80
378.24	2332.64
378.45	2310.11
378.66	2220.00
378.87	2099.17
379.08	2138.08
379.29	2168.80
379.50	2301.92
379.71	2316.25
379.91	2346.97
380.12	2146.27
380.33	2275.29
380.54	2250.72
380.75	2207.71
380.96	2244.57
381.17	2297.82
381.38	2271.20
381.59	2314.20
381.80	2285.53
382.00	2441.18
382.21	2373.60
382.42	2469.85
382.63	2523.10
382.84	2346.97
383.05	2363.36
383.26	2375.64
383.47	2220.00
383.68	2289.63
383.88	2285.53
384.09	2273.25
384.30	2404.32
384.51	2328.54
384.72	2232.29
384.93	2164.70
385.14	2156.51
385.35	2334.68
385.55	2101.22
385.76	2471.90
385.97	2181.09
386.18	2213.85
386.39	2207.71
386.60	2160.61
386.81	2248.67
387.02	2179.04
387.22	2174.94
387.43	2381.79
387.64	2318.30
387.85	2449.37
388.06	2488.28
388.27	3979.20
388.48	8144.77
388.68	11822.92
388.89	13954.86
389.10	15193.88
389.31	14028.59
389.52	10755.93
389.73	9547.63
389.93	8650.62
390.14	7780.23
390.35	7075.73
390.56	6506.40
390.77	5341.10
390.98	4046.79
391.18	3258.32
391.39	2807.77
391.60	2394.08
391.81	2430.94
392.02	2301.92
392.23	2428.89
392.43	2258.91
392.64	2357.21
392.85	2283.49
393.06	2408.41
393.27	2291.68
393.47	2260.96
393.68	2312.16
393.89	2279.39
394.10	2414.56
394.31	2232.29
394.52	2189.28
394.72	2213.85
394.93	2486.23
395.14	2172.89
395.35	2248.67
395.56	2172.89
395.76	2310.11
395.97	2252.77
396.18	2435.03
396.39	2424.80
396.60	2703.32
396.80	2492.38
397.01	2455.51
397.22	2428.89
397.43	2326.49
397.64	2191.33
397.84	2316.25
398.05	2531.29
398.26	2269.15
398.47	2381.79
398.67	2334.68
398.88	2248.67
399.09	2301.92
399.30	2199.52
399.51	2342.88
399.71	2240.48
399.92	2275.29
400.13	2293.72
400.34	2224.09
400.54	2277.34
400.75	2519.00
400.96	2351.07
401.17	2439.13
401.37	2242.53
401.58	2252.77
401.79	2322.40
402.00	2400.22
402.21	2645.98
402.41	2580.44
402.62	2715.61
402.83	2695.13
403.04	2719.70
403.24	2826.20
403.45	2367.45
403.66	2553.82
403.87	2408.41
404.07	2519.00
404.28	2490.33
404.49	2521.05
404.70	2398.17
404.90	2428.89
405.11	2308.06
405.32	2275.29
405.52	2154.46
405.73	2224.09
405.94	2187.23
406.15	2293.72
406.35	2299.87
406.56	2314.20
406.77	2252.77
406.98	2303.96
407.18	2217.95
407.39	2383.84
407.60	2201.57
407.80	2269.15
408.01	2142.18
408.22	2258.91
408.43	2203.61
408.63	2263.01
408.84	2326.49
409.05	2422.75
409.25	2162.66
409.46	2228.19
409.67	2207.71
409.88	2125.79
410.08	2357.21
410.29	2230.24
410.50	2387.93
410.70	2365.40
410.91	2183.13
411.12	2295.77
411.32	2244.57
411.53	2199.52
411.74	2387.93
411.95	2387.93
412.15	2412.51
412.36	2461.66
412.57	2324.44
412.77	2375.64
412.98	2316.25
413.19	2277.34
413.39	2349.02
413.60	2260.96
413.81	2359.26
414.01	2142.18
414.22	2281.44
414.43	2310.11
414.63	2209.76
414.84	2398.17
415.05	2265.05
415.25	2125.79
415.46	2279.39
415.67	2187.23
415.87	2293.72
416.08	2234.33
416.29	2211.81
416.49	2277.34
416.70	2136.03
416.91	2199.52
417.11	2160.61
417.32	2383.84
417.53	2295.77
417.73	2351.07
417.94	2324.44
418.15	2277.34
418.35	2256.86
418.56	2252.77
418.77	2506.71
418.97	2256.86
419.18	2209.76
419.38	1974.24
419.59	2260.96
419.80	2373.60
420.00	2209.76
420.21	2248.67
420.42	2414.56
420.62	2242.53
420.83	2203.61
421.04	2217.95
421.24	2234.33
421.45	2359.26
421.65	2277.34
421.86	2252.77
422.07	2291.68
422.27	2316.25
422.48	2258.91
422.69	2179.04
422.89	2265.05
423.10	2205.66
423.30	2121.70
423.51	2240.48
423.72	2301.92
423.92	2392.03
424.13	2146.27
424.33	2293.72
424.54	2332.64
424.75	2234.33
424.95	2389.98
425.16	2246.62
425.36	2269.15
425.57	2371.55
425.78	2250.72
425.98	2324.44
426.19	2158.56
426.39	2136.03
426.60	2252.77
426.81	2342.88
427.01	2281.44
427.22	2113.50
427.42	2035.68
427.63	2183.13
427.83	2316.25
428.04	2506.71
428.25	2326.49
428.45	2322.40
428.66	2392.03
428.86	2279.39
429.07	2303.96
429.28	2193.37
429.48	2269.15
429.69	2191.33
429.89	2322.40
430.10	2260.96
430.30	2340.83
430.51	2330.59
430.71	2166.75
430.92	2209.76
431.13	2203.61
431.33	2293.72
431.54	2303.96
431.74	2410.46
431.95	2492.38
432.15	2191.33
432.36	2224.09
432.56	2340.83
432.77	2492.38
432.98	2400.22
433.18	2326.49
433.39	2226.14
433.59	2299.87
433.80	2461.66
434.00	2435.03
434.21	2121.70
434.41	2193.37
434.62	2523.10
434.82	2121.70
435.03	2138.08
435.23	2312.16
435.44	2129.89
435.64	2306.01
435.85	2320.35
436.06	2332.64
436.26	2330.59
436.47	2199.52
436.67	2224.09
436.88	2310.11
437.08	2240.48
437.29	2400.22
437.49	2359.26
437.70	2400.22
437.90	2256.86
438.11	2369.50
438.31	2293.72
438.52	2449.37
438.72	2422.75
438.93	2590.68
439.13	2267.10
439.34	2392.03
439.54	2316.25
439.75	2357.21
439.95	2301.92
440.16	2168.80
440.36	2316.25
440.57	2273.25
440.77	2308.06
440.98	2328.54
441.18	2344.92
441.39	2199.52
441.59	2174.94
441.80	2549.72
442.00	2283.49
442.21	2410.46
442.41	2213.85
442.62	2318.30
442.82	2238.43
443.02	2342.88
443.23	2279.39
443.43	2242.53
443.64	2383.84
443.84	2213.85
444.05	2381.79
444.25	2236.38
444.46	2277.34
444.66	2252.77
444.87	2340.83
445.07	2156.51
445.28	2228.19
445.48	2387.93
445.69	2301.92
445.89	2523.10
446.09	2320.35
446.30	2510.81
446.50	2811.86
446.71	4288.45
446.91	5316.53
447.12	6344.61
447.32	6717.34
447.53	6211.49
447.73	5154.74
447.93	4640.70
448.14	4214.72
448.34	4112.32
448.55	3631.05
448.75	3676.10
448.96	3379.15
449.16	3051.47
449.36	2924.50
449.57	2588.63
449.77	2408.41
449.98	2285.53
450.18	2396.12
450.39	2322.40
450.59	2336.73
450.79	2289.63
451.00	2207.71
451.20	2383.84
451.41	2277.34
451.61	2342.88
451.81	2291.68
452.02	2203.61
452.22	2281.44
452.43	2244.57
452.63	2209.76
452.84	2291.68
453.04	2244.57
453.24	2365.40
453.45	2205.66
453.65	2187.23
453.86	2271.20
454.06	2314.20
454.26	2250.72
454.47	2187.23
454.67	2410.46
454.87	2357.21
455.08	2238.43
455.28	2478.04
455.49	2318.30
455.69	2181.09
455.89	2478.04
456.10	2389.98
456.30	2242.53
456.51	2332.64
456.71	2334.68
456.91	2310.11
457.12	2248.67
457.32	2408.41
457.52	2125.79
457.73	2324.44
457.93	2293.72
458.14	2170.85
458.34	2146.27
458.54	2207.71
458.75	2238.43
458.95	2373.60
459.15	2340.83
459.36	2269.15
459.56	2283.49
459.76	2471.90
459.97	2303.96
460.17	2258.91
460.37	2342.88
460.58	2387.93
460.78	2285.53
460.99	2244.57
461.19	2258.91
461.39	2273.25
461.60	2279.39
461.80	2299.87
462.00	2181.09
462.21	2258.91
462.41	2150.37
462.61	2162.66
462.82	2084.83
463.02	2334.68
463.22	2301.92
463.43	2369.50
463.63	2234.33
463.83	2373.60
464.04	2314.20
464.24	2222.05
464.44	2131.94
464.64	2230.24
464.85	2318.30
465.05	2320.35
465.25	2252.77
465.46	2240.48
465.66	2340.83
465.86	2312.16
466.07	2248.67
466.27	2332.64
466.47	2101.22
466.68	2090.98
466.88	2383.84
467.08	2365.40
467.29	2389.98
467.49	2250.72
467.69	2267.10
467.89	2269.15
468.10	2181.09
468.30	2297.82
468.50	2396.12
468.71	2375.64
468.91	2193.37
469.11	2387.93
469.31	2306.01
469.52	2220.00
469.72	2404.32
469.92	2527.19
470.13	2228.19
470.33	2318.30
470.53	2353.12
470.73	2744.28
470.94	2947.03
471.14	3182.54
471.34	3594.19
471.54	3426.25
471.75	3063.76
471.95	2822.10
472.15	2748.37
472.36	2842.58
472.56	2764.76
472.76	2826.20
472.96	2674.65
473.17	2512.86
473.37	2488.28
473.57	2334.68
473.77	2392.03
473.98	2275.29
474.18	2228.19
474.38	2570.20
474.58	2158.56
474.79	2209.76
474.99	2285.53
475.19	2414.56
475.39	2187.23
475.60	2310.11
475.80	2242.53
476.00	2269.15
476.20	2185.18
476.41	2359.26
476.61	2252.77
476.81	2326.49
477.01	2209.76
477.21	2389.98
477.42	2371.55
477.62	2242.53
477.82	2394.08
478.02	2160.61
478.23	2359.26
478.43	2195.42
478.63	2199.52
478.83	2215.90
479.03	2207.71
479.24	2412.51
479.44	2539.48
479.64	2236.38
479.84	2152.42
480.04	2220.00
480.25	2392.03
480.45	2170.85
480.65	2211.81
480.85	2400.22
481.06	2217.95
481.26	2281.44
481.46	2375.64
481.66	2308.06
481.86	2183.13
482.06	2351.07
482.27	2217.95
482.47	2252.77
482.67	2316.25
482.87	2275.29
483.07	2375.64
483.28	2179.04
483.48	2166.75
483.68	2234.33
483.88	2183.13
484.08	2105.31
484.29	2195.42
484.49	2263.01
484.69	2187.23
484.89	2420.70
485.09	2392.03
485.29	2291.68
485.50	2320.35
485.70	2215.90
485.90	2379.74
486.10	2297.82
486.30	2256.86
486.50	2373.60
486.71	2213.85
486.91	2310.11
487.11	2291.68
487.31	2154.46
487.51	2404.32
487.71	2172.89
487.91	2250.72
488.12	2158.56
488.32	2002.91
488.52	2154.46
488.72	2107.36
488.92	2285.53
489.12	2385.88
489.32	2392.03
489.53	2275.29
489.73	2181.09
489.93	2490.33
490.13	2158.56
490.33	2144.22
490.53	2277.34
490.73	2310.11
490.94	2133.98
491.14	2260.96
491.34	2414.56
491.54	2576.34
491.74	3184.59
491.94	3743.69
492.14	4014.02
492.34	4147.14
492.54	3715.02
492.75	3262.41
492.95	3246.03
493.15	2961.36
493.35	2973.65
493.55	2758.61
493.75	2734.04
493.95	2818.00
494.15	2660.31
494.35	2416.60
494.56	2269.15
494.76	2318.30
494.96	2338.78
495.16	2275.29
495.36	2215.90
495.56	2277.34
495.76	2250.72
495.96	2201.57
496.16	2199.52
496.36	2387.93
496.56	2273.25
496.77	2320.35
496.97	2234.33
497.17	2297.82
497.37	2154.46
497.57	2441.18
497.77	2244.57
497.97	2217.95
498.17	2248.67
498.37	2252.77
498.57	2379.74
498.77	2220.00
498.97	2363.36
499.17	2406.36
499.38	2279.39
499.58	2324.44
499.78	2371.55
499.98	2424.80
500.18	2258.91
500.38	2279.39
500.58	2496.47
500.78	2947.03
500.98	5181.36
501.18	7225.23
501.38	9011.06
501.58	9779.05
501.78	9428.85
501.98	7690.12
502.18	6340.51
502.38	5590.95
502.58	5160.88
502.78	4509.63
502.98	4558.78
503.18	4274.11
503.38	3938.24
503.59	3334.09
503.79	3274.70
503.99	3094.48
504.19	2793.43
504.39	2805.72
504.59	2822.10
504.79	2854.87
504.99	2815.96
505.19	2576.34
505.39	2471.90
505.59	2652.12
505.79	2564.06
505.99	2488.28
506.19	2334.68
506.39	2535.39
506.59	2308.06
506.79	2226.14
506.99	2342.88
507.19	2234.33
507.39	2310.11
507.59	2138.08
507.79	2183.13
507.99	2203.61
508.19	2201.57
508.39	2269.15
508.59	2252.77
508.79	2351.07
508.99	2455.51
509.19	2211.81
509.39	2324.44
509.59	2170.85
509.79	2205.66
509.99	2285.53
510.19	2316.25
510.39	2291.68
510.59	2234.33
510.79	2205.66
510.99	2121.70
511.19	2308.06
511.39	2400.22
511.59	2351.07
511.79	2326.49
511.99	2344.92
512.19	2408.41
512.38	2215.90
512.58	2201.57
512.78	2256.86
512.98	2451.42
513.18	2428.89
513.38	2041.82
513.58	2322.40
513.78	2217.95
513.98	2230.24
514.18	2269.15
514.38	2238.43
514.58	2234.33
514.78	2195.42
514.98	2236.38
515.18	2187.23
515.38	2179.04
515.58	2398.17
515.78	2230.24
515.98	2277.34
516.18	2324.44
516.38	2254.81
516.57	2220.00
516.77	2140.13
516.97	2289.63
517.17	2220.00
517.37	2105.31
517.57	2412.51
517.77	2258.91
517.97	2162.66
518.17	2232.29
518.37	2133.98
518.57	2226.14
518.77	2195.42
518.97	2226.14
519.16	2301.92
519.36	2306.01
519.56	2213.85
519.76	2222.05
519.96	2195.42
520.16	2381.79
520.36	2144.22
520.56	2365.40
520.76	2095.07
520.96	2203.61
521.16	2441.18
521.35	2326.49
521.55	2490.33
521.75	2351.07
521.95	2289.63
522.15	2222.05
522.35	2095.07
522.55	2287.58
522.75	2310.11
522.95	2174.94
523.14	2154.46
523.34	2291.68
523.54	2181.09
523.74	2301.92
523.94	2254.81
524.14	2088.93
524.34	2328.54
524.54	2412.51
524.73	2179.04
524.93	2349.02
525.13	2242.53
525.33	2220.00
525.53	2543.58
525.73	2377.69
525.93	2326.49
526.13	2203.61
526.32	2191.33
526.52	2359.26
526.72	2387.93
526.92	2236.38
527.12	2203.61
527.32	2119.65
527.52	2392.03
527.71	2338.78
527.91	2256.86
528.11	2228.19
528.31	2277.34
528.51	2160.61
528.71	2332.64
528.90	2324.44
529.10	2424.80
529.30	2340.83
529.50	2123.74
529.70	2295.77
529.90	2265.05
530.09	2203.61
530.29	2209.76
530.49	2152.42
530.69	2500.57
530.89	2316.25
531.09	2273.25
531.28	2236.38
531.48	2346.97
531.68	2191.33
531.88	2285.53
532.08	2351.07
532.28	2228.19
532.47	2349.02
532.67	2340.83
532.87	2334.68
533.07	2242.53
533.27	2332.64
533.46	2363.36
533.66	2260.96
533.86	2248.67
534.06	2289.63
534.26	2340.83
534.45	2226.14
534.65	2437.08
534.85	2297.82
535.05	2179.04
535.25	2396.12
535.44	2150.37
535.64	2310.11
535.84	2269.15
536.04	2211.81
536.24	2269.15
536.43	2203.61
536.63	2310.11
536.83	2285.53
537.03	2353.12
537.22	2095.07
537.42	2115.55
537.62	2256.86
537.82	2250.72
538.02	2269.15
538.21	2406.36
538.41	2588.63
538.61	2387.93
538.81	2230.24
539.00	2379.74
539.20	2142.18
539.40	2203.61
539.60	2238.43
539.79	2355.16
539.99	2271.20
540.19	2242.53
540.39	2301.92
540.58	2310.11
540.78	2303.96
540.98	2308.06
541.18	2326.49
541.37	2375.64
541.57	2330.59
541.77	2295.77
541.97	2209.76
542.16	2164.70
542.36	2277.34
542.56	2252.77
542.76	2453.47
542.95	2359.26
543.15	2355.16
543.35	2377.69
543.54	2138.08
543.74	2269.15
543.94	2400.22
544.14	2199.52
544.33	2301.92
544.53	2320.35
544.73	2314.20
544.93	2193.37
545.12	2283.49
545.32	2242.53
545.52	2236.38
545.71	2146.27
545.91	2240.48
546.11	2232.29
546.30	2101.22
546.50	2256.86
546.70	2310.11
546.90	2308.06
547.09	2109.41
547.29	2213.85
547.49	2379.74
547.68	2256.86
547.88	2228.19
548.08	2281.44
548.27	2752.47
548.47	2187.23
548.67	2211.81
548.87	2316.25
549.06	2242.53
549.26	2318.30
549.46	2299.87
549.65	2183.13
549.85	2291.68
550.05	2346.97
550.24	2160.61
550.44	2260.96
550.64	2203.61
550.83	2265.05
551.03	2400.22
551.23	2410.46
551.42	2301.92
551.62	2191.33
551.82	2269.15
552.01	2275.29
552.21	2338.78
552.41	2254.81
552.60	2406.36
552.80	2260.96
553.00	2285.53
553.19	2222.05
553.39	2426.84
553.59	2195.42
553.78	2334.68
553.98	2297.82
554.17	2162.66
554.37	2285.53
554.57	2355.16
554.76	2144.22
554.96	2308.06
555.16	2306.01
555.35	2275.29
555.55	2301.92
555.75	2316.25
555.94	2363.36
556.14	2113.50
556.33	2310.11
556.53	2306.01
556.73	2252.77
556.92	2273.25
557.12	2293.72
557.32	2502.62
557.51	2453.47
557.71	2217.95
557.90	2355.16
558.10	2430.94
558.30	2267.10
558.49	2203.61
558.69	2179.04
558.88	2316.25
559.08	2330.59
559.28	2176.99
559.47	2269.15
559.67	2377.69
559.86	2506.71
560.06	2277.34
560.26	2277.34
560.45	2273.25
560.65	2252.77
560.84	2367.45
561.04	2179.04
561.24	2349.02
561.43	2150.37
561.63	2424.80
561.82	2279.39
562.02	2324.44
562.22	2162.66
562.41	2185.18
562.61	2213.85
562.80	2195.42
563.00	2463.71
563.19	2293.72
563.39	2258.91
563.59	2396.12
563.78	2148.32
563.98	2084.83
564.17	2220.00
564.37	2119.65
564.56	2244.57
564.76	2199.52
564.96	2346.97
565.15	2314.20
565.35	2435.03
565.54	2217.95
565.74	2293.72
565.93	2308.06
566.13	2275.29
566.32	2369.50
566.52	2314.20
566.71	2230.24
566.91	2312.16
567.11	2398.17
567.30	2230.24
567.50	2338.78
567.69	2301.92
567.89	2234.33
568.08	2271.20
568.28	2322.40
568.47	2074.59
568.67	2265.05
568.86	2224.09
569.06	2381.79
569.25	2387.93
569.45	2211.81
569.64	2138.08
569.84	2260.96
570.04	2383.84
570.23	2207.71
570.43	2244.57
570.62	2279.39
570.82	2428.89
571.01	2174.94
571.21	2242.53
571.40	2201.57
571.60	2392.03
571.79	2285.53
571.99	2269.15
572.18	2133.98
572.38	2256.86
572.57	2220.00
572.77	2299.87
572.96	2490.33
573.16	2277.34
573.35	2269.15
573.55	2441.18
573.74	2373.60
573.94	2314.20
574.13	2306.01
574.33	2351.07
574.52	2398.17
574.71	2271.20
574.91	2277.34
575.10	2148.32
575.30	2211.81
575.49	2234.33
575.69	2242.53
575.88	2299.87
576.08	2244.57
576.27	2373.60
576.47	2334.68
576.66	2435.03
576.86	2502.62
577.05	2357.21
577.25	2387.93
577.44	2498.52
577.64	2181.09
577.83	2379.74
578.02	2215.90
578.22	2406.36
578.41	2441.18
578.61	2220.00
578.80	2097.12
579.00	2275.29
579.19	2330.59
579.39	2412.51
579.58	2353.12
579.77	2269.15
579.97	2441.18
580.16	2361.31
580.36	2447.32
580.55	2373.60
580.75	2293.72
580.94	2310.11
581.13	2406.36
581.33	2430.94
581.52	2267.10
581.72	2580.44
581.91	2363.36
582.11	2277.34
582.30	2500.57
582.49	2363.36
582.69	2523.10
582.88	2404.32
583.08	2424.80
583.27	2412.51
583.47	2277.34
583.66	2164.70
583.85	2224.09
584.05	2265.05
584.24	2340.83
584.44	2310.11
584.63	2453.47
584.82	2414.56
585.02	2504.67
585.21	2449.37
585.41	2463.71
585.60	2349.02
585.79	2533.34
585.99	2586.58
586.18	2404.32
586.37	2953.17
586.57	4546.49
586.76	13991.72
586.96	33211.91
587.15	47138.10
587.34	56407.20
587.54	61193.31
587.73	56171.69
587.93	39544.23
588.12	30117.43
588.31	23850.64
588.51	21022.40
588.70	19570.39
588.89	17784.56
589.09	15333.14
589.28	12951.35
589.47	10420.06
589.67	8261.51
589.86	6176.67
590.06	4675.51
590.25	3866.56
590.44	3266.51
590.64	2805.72
590.83	2557.91
591.02	2482.14
591.22	2367.45
591.41	2375.64
591.60	2258.91
591.80	2562.01
591.99	2271.20
592.18	2306.01
592.38	2432.99
592.57	2281.44
592.76	2351.07
592.96	2367.45
593.15	2277.34
593.34	2375.64
593.54	2301.92
593.73	2291.68
593.92	2441.18
594.12	2404.32
594.31	2316.25
594.50	2467.80
594.70	2359.26
594.89	2514.91
595.08	2162.66
595.28	2312.16
595.47	2731.99
595.66	2406.36
595.86	2197.47
596.05	2209.76
596.24	2351.07
596.43	2486.23
596.63	2342.88
596.82	2359.26
597.01	2342.88
597.21	2537.43
597.40	2324.44
597.59	2293.72
597.79	2326.49
597.98	2400.22
598.17	2342.88
598.36	2301.92
598.56	2301.92
598.75	2252.77
598.94	2299.87
599.14	2349.02
599.33	2265.05
599.52	2340.83
599.71	2211.81
599.91	2314.20
600.10	2344.92
600.29	2228.19
600.48	2334.68
600.68	2346.97
600.87	2301.92
601.06	2203.61
601.26	2254.81
601.45	2310.11
601.64	2176.99
601.83	2435.03
602.03	2205.66
602.22	2101.22
602.41	2465.75
602.60	2478.04
602.80	2379.74
602.99	2324.44
603.18	2267.10
603.37	2256.86
603.57	2359.26
603.76	2306.01
603.95	2424.80
604.14	2293.72
604.34	2121.70
604.53	2285.53
604.72	2269.15
604.91	2303.96
605.10	2324.44
605.30	2156.51
605.49	2559.96
605.68	2355.16
605.87	2303.96
606.07	2232.29
606.26	2297.82
606.45	2230.24
606.64	2277.34
606.84	2324.44
607.03	2336.73
607.22	2355.16
607.41	2250.72
607.60	2238.43
607.80	2379.74
607.99	2279.39
608.18	2228.19
608.37	2232.29
608.56	2191.33
608.76	2418.65
608.95	2437.08
609.14	2318.30
609.33	2482.14
609.52	2396.12
609.72	2375.64
609.91	2383.84
610.10	2324.44
610.29	2449.37
610.48	2430.94
610.68	2281.44
610.87	2297.82
611.06	2349.02
611.25	2285.53
611.44	2359.26
611.63	2328.54
611.83	2416.60
612.02	2133.98
612.21	2445.27
612.40	2115.55
612.59	2201.57
612.79	2160.61
612.98	2209.76
613.17	2453.47
613.36	2246.62
613.55	2535.39
613.74	2371.55
613.93	2398.17
614.13	2496.47
614.32	2482.14
614.51	2500.57
614.70	2328.54
614.89	2346.97
615.08	2410.46
615.28	2758.61
615.47	2191.33
615.66	2383.84
615.85	2273.25
616.04	2514.91
616.23	2299.87
616.42	2303.96
616.62	2353.12
616.81	2377.69
617.00	2342.88
617.19	2281.44
617.38	2256.86
617.57	2269.15
617.76	2275.29
617.95	2385.88
618.15	2400.22
618.34	2338.78
618.53	2152.42
618.72	2428.89
618.91	2377.69
619.10	2375.64
619.29	2310.11
619.48	2299.87
619.68	2170.85
619.87	2256.86
620.06	2078.69
620.25	2287.58
620.44	2228.19
620.63	2170.85
620.82	2306.01
621.01	2228.19
621.20	2324.44
621.39	2254.81
621.59	2316.25
621.78	2332.64
621.97	2336.73
622.16	2349.02
622.35	2273.25
622.54	2293.72
622.73	2342.88
622.92	2058.21
623.11	2342.88
623.30	2361.31
623.49	2318.30
623.68	2240.48
623.88	2387.93
624.07	2201.57
624.26	2250.72
624.45	2318.30
624.64	2301.92
624.83	2301.92
625.02	2273.25
625.21	2326.49
625.40	2291.68
625.59	2404.32
625.78	2373.60
625.97	2428.89
626.16	2402.27
626.35	2383.84
626.54	2306.01
626.74	2416.60
626.93	2306.01
627.12	2291.68
627.31	2389.98
627.50	2283.49
627.69	2295.77
627.88	2248.67
628.07	2318.30
628.26	2121.70
628.45	2224.09
628.64	2127.84
628.83	2269.15
629.02	2121.70
629.21	2379.74
629.40	2324.44
629.59	2279.39
629.78	2207.71
629.97	2340.83
630.16	2306.01
630.35	2285.53
630.54	2269.15
630.73	2211.81
630.92	2332.64
631.11	2213.85
631.30	2351.07
631.49	2357.21
631.68	2277.34
631.87	2273.25
632.06	2154.46
632.25	2465.75
632.44	2295.77
632.63	2344.92
632.82	2299.87
633.01	2281.44
633.20	2377.69
633.39	2267.10
633.58	2224.09
633.77	2367.45
633.96	2447.32
634.15	2351.07
634.34	2320.35
634.53	2299.87
634.72	2308.06
634.91	2111.46
635.10	2244.57
635.29	2375.64
635.48	2174.94
635.67	2209.76
635.86	2197.47
636.05	2424.80
636.24	2234.33
636.43	2289.63
636.62	2324.44
636.81	2103.26
637.00	2174.94
637.19	2275.29
637.38	2275.29
637.57	2234.33
637.76	2326.49
637.95	2420.70
638.14	2281.44
638.33	2381.79
638.52	2326.49
638.71	2244.57
638.89	2256.86
639.08	2555.86
639.27	2445.27
639.46	2424.80
639.65	2795.48
639.84	2844.63
640.03	3026.90
640.22	2895.83
640.41	2918.36
640.60	2521.05
640.79	2541.53
640.98	2420.70
641.17	2539.48
641.36	2482.14
641.55	2498.52
641.74	2211.81
641.92	2301.92
642.11	2176.99
642.30	2232.29
642.49	2176.99
642.68	2228.19
642.87	2295.77
643.06	2281.44
643.25	2265.05
643.44	2138.08
643.63	2318.30
643.82	2367.45
644.00	2113.50
644.19	2318.30
644.38	2189.28
644.57	2285.53
644.76	2289.63
644.95	2326.49
645.14	2340.83
645.33	2269.15
645.52	2312.16
645.71	2195.42
645.89	2144.22
646.08	2172.89
646.27	2258.91
646.46	2441.18
646.65	2125.79
646.84	2250.72
647.03	2150.37
647.22	2289.63
647.40	2306.01
647.59	2244.57
647.78	2150.37
647.97	2181.09
648.16	2209.76
648.35	2392.03
648.54	2346.97
648.73	2217.95
648.91	2326.49
649.10	2203.61
649.29	2179.04
649.48	2250.72
649.67	2283.49
649.86	2273.25
650.05	2324.44
650.23	2447.32
650.42	2355.16
650.61	2430.94
650.80	2394.08
650.99	2529.24
651.18	2473.95
651.36	2426.84
651.55	2258.91
651.74	2418.65
651.93	2220.00
652.12	2250.72
652.31	2263.01
652.49	2199.52
652.68	2271.20
652.87	2432.99
653.06	2349.02
653.25	2457.56
653.44	2226.14
653.62	2367.45
653.81	2265.05
654.00	2310.11
654.19	2328.54
654.38	2488.28
654.56	2326.49
654.75	2197.47
654.94	2254.81
655.13	2299.87
655.32	2265.05
655.51	2242.53
655.69	2203.61
655.88	2383.84
656.07	2123.74
656.26	2220.00
656.45	2097.12
656.63	2324.44
656.82	2322.40
657.01	2295.77
657.20	2201.57
657.38	2441.18
657.57	2207.71
657.76	2150.37
657.95	2404.32
658.14	2168.80
658.32	2285.53
658.51	2148.32
658.70	2326.49
658.89	2299.87
659.08	2271.20
659.26	2416.60
659.45	2250.72
659.64	2285.53
659.83	2183.13
660.01	2711.51
660.20	2330.59
660.39	2432.99
660.58	2115.55
660.76	2291.68
660.95	2127.84
661.14	2267.10
661.33	2166.75
661.51	2220.00
661.70	2179.04
661.89	2244.57
662.08	2246.62
662.26	2150.37
662.45	2213.85
662.64	2449.37
662.83	2328.54
663.01	2148.32
663.20	2226.14
663.39	2435.03
663.58	2258.91
663.76	2207.71
663.95	2324.44
664.14	2146.27
664.32	2185.18
664.51	2230.24
664.70	2140.13
664.89	2293.72
665.07	2154.46
665.26	2316.25
665.45	2121.70
665.64	2297.82
665.82	2301.92
666.01	2260.96
666.20	2168.80
666.38	2455.51
666.57	2383.84
666.76	3411.92
666.95	8200.07
667.13	16154.38
667.32	21401.27
667.51	24882.82
667.69	26793.58
667.88	24589.96
668.07	17186.55
668.25	13897.52
668.44	11644.75
668.63	9701.23
668.81	8601.47
669.00	7600.01
669.19	6959.00
669.38	5914.53
669.56	5142.45
669.75	4210.62
669.94	3751.88
670.12	3071.95
670.31	2731.99
670.50	2596.82
670.68	2449.37
670.87	2379.74
671.06	2260.96
671.24	2482.14
671.43	2537.43
671.62	2303.96
671.80	2224.09
671.99	2344.92
672.18	2258.91
672.36	2422.75
672.55	2267.10
672.74	2207.71
672.92	2351.07
673.11	2283.49
673.29	2136.03
673.48	2371.55
673.67	2285.53
673.85	2447.32
674.04	2260.96
674.23	2275.29
674.41	2471.90
674.60	2111.46
674.79	2158.56
674.97	2127.84
675.16	2361.31
675.34	2367.45
675.53	2170.85
675.72	2310.11
675.90	2480.09
676.09	2209.76
676.28	2342.88
676.46	2152.42
676.65	2400.22
676.83	2232.29
677.02	2234.33
677.21	2260.96
677.39	2269.15
677.58	2164.70
677.77	2176.99
677.95	2254.81
678.14	2291.68
678.32	2258.91
678.51	2252.77
678.70	2506.71
678.88	2220.00
679.07	2252.77
679.25	2293.72
679.44	2291.68
679.63	2115.55
679.81	2265.05
680.00	2338.78
680.18	2379.74
680.37	2422.75
680.55	2228.19
680.74	2215.90
680.93	2076.64
681.11	2351.07
681.30	2273.25
681.48	2330.59
681.67	2187.23
681.85	2324.44
682.04	2129.89
682.23	2363.36
682.41	2287.58
682.60	2209.76
682.78	2267.10
682.97	2183.13
683.15	2275.29
683.34	2316.25
683.53	2389.98
683.71	2168.80
683.90	2379.74
684.08	2428.89
684.27	2234.33
684.45	2308.06
684.64	2363.36
684.82	2328.54
685.01	2310.11
685.19	2258.91
685.38	2365.40
685.57	2220.00
685.75	2185.18
685.94	2138.08
686.12	2154.46
686.31	2156.51
686.49	2451.42
686.68	2121.70
686.86	2248.67
687.05	2176.99
687.23	2451.42
687.42	2185.18
687.60	2136.03
687.79	2328.54
687.97	2418.65
688.16	2353.12
688.34	2353.12
688.53	2111.46
688.71	2316.25
688.90	2349.02
689.08	2236.38
689.27	2095.07
689.45	2334.68
689.64	2277.34
689.82	2285.53
690.01	2275.29
690.19	2285.53
690.38	2260.96
690.56	2351.07
690.75	2156.51
690.93	2209.76
691.12	2156.51
691.30	2232.29
691.49	2260.96
691.67	2287.58
691.86	2392.03
692.04	2310.11
692.23	2299.87
692.41	2246.62
692.60	2508.76
692.78	2359.26
692.97	2277.34
693.15	2418.65
693.34	2414.56
693.52	2338.78
693.71	2248.67
693.89	2226.14
694.08	2138.08
694.26	2336.73
694.44	2310.11
694.63	2320.35
694.81	2213.85
695.00	2260.96
695.18	2373.60
695.37	2537.43
695.55	2293.72
695.74	2277.34
695.92	2203.61
696.10	2373.60
696.29	2148.32
696.47	2146.27
696.66	2187.23
696.84	2176.99
697.03	2195.42
697.21	2478.04
697.40	3377.10
697.58	2349.02
697.76	2228.19
697.95	2170.85
698.13	2127.84
698.32	2215.90
698.50	2232.29
698.68	2256.86
698.87	2263.01
699.05	2430.94
699.24	2144.22
699.42	2099.17
699.61	2295.77
699.79	2222.05
699.97	2234.33
700.16	2076.64
700.34	2154.46
700.53	2250.72
700.71	2416.60
700.89	2322.40
701.08	2226.14
701.26	2224.09
701.45	2781.14
701.63	2183.13
701.81	2254.81
702.00	2154.46
702.18	2301.92
702.37	2248.67
702.55	2432.99
702.73	2402.27
702.92	2416.60
703.10	2510.81
703.28	2498.52
703.47	2256.86
703.65	2508.76
703.84	2475.99
704.02	2213.85
704.20	2480.09
704.39	2283.49
704.57	2238.43
704.75	2439.13
704.94	2406.36
705.12	2310.11
705.30	2504.67
705.49	4392.89
705.67	10544.99
705.86	18151.15
706.04	21954.22
706.22	25040.51
706.41	25943.67
706.59	22101.68
706.77	15652.63
706.96	13262.65
707.14	11528.02
707.32	9826.15
707.51	8882.04
707.69	7397.26
707.87	5873.57
708.06	4702.14
708.24	3936.20
708.42	3184.59
708.61	3086.29
708.79	2506.71
708.97	2465.75
709.16	2381.79
709.34	2379.74
709.52	2213.85
709.71	2326.49
709.89	2371.55
710.07	2224.09
710.26	2146.27
710.44	2187.23
710.62	2328.54
710.80	2236.38
710.99	2361.31
711.17	2367.45
711.35	2217.95
711.54	2209.76
711.72	2394.08
711.90	2342.88
712.09	2291.68
712.27	2273.25
712.45	2291.68
712.63	2205.66
712.82	2277.34
713.00	2203.61
713.18	2340.83
713.37	2289.63
713.55	2334.68
713.73	2250.72
713.91	2281.44
714.10	2136.03
714.28	2211.81
714.46	2306.01
714.65	2273.25
714.83	2322.40
715.01	2303.96
715.19	2281.44
715.38	2224.09
715.56	2220.00
715.74	2179.04
715.92	2185.18
716.11	2334.68
716.29	2113.50
716.47	2275.29
716.65	2252.77
716.84	2105.31
717.02	2400.22
717.20	2176.99
717.38	2224.09
717.57	2301.92
717.75	2256.86
717.93	2191.33
718.11	2281.44
718.30	2103.26
718.48	2242.53
718.66	2336.73
718.84	2379.74
719.03	2236.38
719.21	2117.60
719.39	2367.45
719.57	2320.35
719.75	2367.45
719.94	2189.28
720.12	2170.85
720.30	2263.01
720.48	2367.45
720.67	2187.23
720.85	2179.04
721.03	2203.61
721.21	2252.77
721.39	2346.97
721.58	2336.73
721.76	2263.01
721.94	2244.57
722.12	2242.53
722.30	2344.92
722.49	2176.99
722.67	2234.33
722.85	2326.49
723.03	2064.35
723.21	2179.04
723.40	2275.29
723.58	2330.59
723.76	2314.20
723.94	2373.60
724.12	2326.49
724.30	2428.89
724.49	2371.55
724.67	2183.13
724.85	2357.21
725.03	2140.13
725.21	2432.99
725.40	2285.53
725.58	2160.61
725.76	2332.64
725.94	2248.67
726.12	2166.75
726.30	2273.25
726.49	2232.29
726.67	2271.20
726.85	2289.63
727.03	2549.72
727.21	3520.46
727.39	5148.59
727.57	5797.80
727.76	6348.70
727.94	6872.98
728.12	6344.61
728.30	5154.74
728.48	4423.61
728.66	4140.99
728.84	3805.13
729.03	3194.83
729.21	2957.27
729.39	2693.08
729.57	2496.47
729.75	2445.27
729.93	2367.45
730.11	2230.24
730.30	2334.68
730.48	2168.80
730.66	2336.73
730.84	2320.35
731.02	2240.48
731.20	2238.43
731.38	2267.10
731.56	2082.78
731.74	2133.98
731.93	2314.20
732.11	2275.29
732.29	2131.94
732.47	2293.72
732.65	2242.53
732.83	2389.98
733.01	2353.12
733.19	2207.71
733.37	2320.35
733.56	2330.59
733.74	2174.94
733.92	2404.32
734.10	2158.56
734.28	2260.96
734.46	2158.56
734.64	2209.76
734.82	2217.95
735.00	2187.23
735.18	2195.42
735.36	2256.86
735.54	2285.53
735.73	2242.53
735.91	2273.25
736.09	2334.68
736.27	2277.34
736.45	2265.05
736.63	2039.78
736.81	2162.66
736.99	2301.92
737.17	2340.83
737.35	2183.13
737.53	2222.05
737.71	2191.33
737.89	2363.36
738.07	2217.95
738.25	2195.42
738.43	1986.53
738.61	2244.57
738.80	2133.98
738.98	2121.70
739.16	2197.47
739.34	2138.08
739.52	2387.93
739.70	2211.81
739.88	2254.81
740.06	2383.84
740.24	2101.22
740.42	2351.07
740.60	2119.65
740.78	2142.18
740.96	2111.46
741.14	2211.81
741.32	2265.05
741.50	2174.94
741.68	2430.94
741.86	2414.56
742.04	2127.84
742.22	2082.78
742.40	2275.29
742.58	2238.43
742.76	2228.19
742.94	2349.02
743.12	2140.13
743.30	2267.10
743.48	2250.72
743.66	2250.72
743.84	2238.43
744.02	2228.19
744.20	2232.29
744.38	2203.61
744.56	2121.70
744.74	2375.64
744.92	2279.39
745.10	2359.26
745.28	2226.14
745.46	2439.13
745.64	2193.37
745.82	2289.63
746.00	2215.90
746.18	2375.64
746.36	2125.79
746.54	2293.72
746.72	2211.81
746.90	2117.60
747.08	2392.03
747.26	2179.04
747.44	2351.07
747.62	2306.01
747.80	2295.77
747.98	2396.12
748.15	2246.62
748.33	2469.85
748.51	2248.67
748.69	2322.40
748.87	2170.85
749.05	2260.96
749.23	2220.00
749.41	2306.01
749.59	2197.47
749.77	2422.75
749.95	2195.42
750.13	2179.04
750.31	2265.05
750.49	2199.52
750.67	2346.97
750.85	2398.17
751.03	2340.83
751.20	2486.23
751.38	2279.39
751.56	2146.27
751.74	2260.96
751.92	2226.14
752.10	2142.18
752.28	2351.07
752.46	2160.61
752.64	2244.57
752.82	2299.87
753.00	2308.06
753.18	2220.00
753.35	2248.67
753.53	2256.86
753.71	2265.05
753.89	2363.36
754.07	2273.25
754.25	2373.60
754.43	2295.77
754.61	2152.42
754.79	2367.45
754.97	2203.61
755.14	2387.93
755.32	2183.13
755.50	2228.19
755.68	2199.52
755.86	2215.90
756.04	2142.18
756.22	2033.63
756.40	2332.64
756.57	2355.16
756.75	2258.91
756.93	2392.03
757.11	2404.32
757.29	2084.83
757.47	2136.03
757.65	2146.27
757.82	2019.30
758.00	2183.13
758.18	2193.37
758.36	2154.46
758.54	2521.05
758.72	2088.93
758.90	2273.25
759.07	2211.81
759.25	2185.18
759.43	2273.25
759.61	2158.56
759.79	3145.68
759.97	2297.82
760.15	2207.71
760.32	2211.81
760.50	2289.63
760.68	2418.65
760.86	2080.74
761.04	2314.20
761.22	2256.86
761.39	2322.40
761.57	2240.48
761.75	2248.67
761.93	2299.87
762.11	2269.15
762.28	2277.34
762.46	2193.37
762.64	2332.64
762.82	2150.37
763.00	2166.75
763.18	2414.56
763.35	2127.84
763.53	2289.63
763.71	2269.15
763.89	2334.68
764.07	2244.57
764.24	2199.52
764.42	2326.49
764.60	2195.42
764.78	2287.58
764.96	2377.69
765.13	2330.59
765.31	2301.92
765.49	2250.72
765.67	2111.46
765.84	2195.42
766.02	2129.89
766.20	2054.11
766.38	2293.72
766.56	2301.92
766.73	2232.29
766.91	2269.15
767.09	2176.99
767.27	2367.45
767.44	2146.27
767.62	2328.54
767.80	2232.29
767.98	2176.99
768.15	2269.15
768.33	2328.54
768.51	2326.49
768.69	2293.72
768.87	2267.10
769.04	2246.62
769.22	2523.10
769.40	2402.27
769.58	2428.89
769.75	2338.78
769.93	2351.07
770.11	2267.10
770.28	2127.84
770.46	2387.93
770.64	2283.49
770.82	2275.29
770.99	2187.23
771.17	2308.06
771.35	2179.04
771.53	2246.62
771.70	2138.08
771.88	2359.26
772.06	2263.01
772.23	2211.81
772.41	2299.87
772.59	2209.76
772.77	2144.22
772.94	2174.94
773.12	2275.29
773.30	2148.32
773.47	2297.82
773.65	2152.42
773.83	2328.54
774.01	2209.76
774.18	2101.22
774.36	2301.92
774.54	2101.22
774.71	2316.25
774.89	2080.74
775.07	2181.09
775.24	2125.79
775.42	2158.56
775.60	2473.95
775.78	2187.23
775.95	2138.08
776.13	2166.75
776.31	2164.70
776.48	2299.87
776.66	2285.53
776.84	2220.00
777.01	2146.27
777.19	2140.13
777.37	2205.66
777.54	2383.84
777.72	2475.99
777.90	2269.15
778.07	2195.42
778.25	2553.82
778.43	2357.21
778.60	2154.46
778.78	2334.68
778.96	2402.27
779.13	2117.60
779.31	2314.20
779.49	2236.38
779.66	2340.83
779.84	2211.81
780.01	2322.40
780.19	2144.22
780.37	2373.60
780.54	2326.49
780.72	2154.46
780.90	2226.14
781.07	2234.33
781.25	2197.47
781.43	2373.60
781.60	2195.42
781.78	2295.77
781.95	2248.67
782.13	2129.89
782.31	2160.61
782.48	2109.41
782.66	2228.19
782.83	2469.85
783.01	2289.63
783.19	2332.64
783.36	2215.90
783.54	2125.79
783.72	2316.25
783.89	2273.25
784.07	2267.10
784.24	2299.87
784.42	2371.55
784.60	2240.48
784.77	2277.34
784.95	2052.06
785.12	2158.56
785.30	2291.68
785.47	2111.46
785.65	2152.42
785.83	2236.38
786.00	2240.48
786.18	2277.34
786.35	2133.98
786.53	2156.51
786.71	2224.09
786.88	2351.07
787.06	2242.53
787.23	2183.13
787.41	2160.61
787.58	2213.85
787.76	2109.41
787.94	2250.72
788.11	2310.11
788.29	2211.81
788.46	2205.66
788.64	2121.70
788.81	2170.85
788.99	2179.04
789.16	2121.70
789.34	2248.67
789.52	2215.90
789.69	2228.19
789.87	2107.36
790.04	2170.85
790.22	2193.37
790.39	2392.03
790.57	2113.50
790.74	2179.04
790.92	2299.87
791.09	2035.68
791.27	2265.05
791.44	2365.40
791.62	2238.43
791.79	2375.64
791.97	2277.34
792.15	2506.71
792.32	2346.97
792.50	2303.96
792.67	2394.08
792.85	2428.89
793.02	2250.72
793.20	2195.42
793.37	2060.26
793.55	2236.38
793.72	2121.70
793.90	2326.49
794.07	2170.85
794.25	2154.46
794.42	2281.44
794.60	2236.38
794.77	2334.68
794.95	2310.11
795.12	2346.97
795.30	2269.15
795.47	2076.64
795.65	2490.33
795.82	2346.97
796.00	2136.03
796.17	2277.34
796.34	2222.05
796.52	2285.53
796.69	2342.88
796.87	2291.68
797.04	2222.05
797.22	2318.30
797.39	2281.44
797.57	2324.44
797.74	2291.68
797.92	2338.78
798.09	2187.23
798.27	2277.34
798.44	2254.81
798.62	2228.19
798.79	2115.55
798.96	2316.25
799.14	2240.48
799.31	2523.10
799.49	2240.48
799.66	2283.49
799.84	2281.44
800.01	2199.52
800.19	2236.38
800.36	2111.46
800.53	2322.40
800.71	2326.49
800.88	2379.74
801.06	2142.18
801.23	2197.47
801.41	2160.61
801.58	2187.23
801.75	2148.32
801.93	2242.53
802.10	2318.30
802.28	2215.90
802.45	2252.77
802.63	2271.20
802.80	2457.56
802.97	2187.23
803.15	2256.86
803.32	2234.33
803.50	2097.12
803.67	2244.57
803.84	2209.76
804.02	2275.29
804.19	2205.66
804.37	2015.20
804.54	2101.22
804.71	2129.89
804.89	2312.16
805.06	2164.70
805.24	2174.94
805.41	2220.00
805.58	2187.23
805.76	2447.32
805.93	2240.48
806.10	2363.36
806.28	2269.15
806.45	2299.87
806.63	2232.29
806.80	2254.81
806.97	2228.19
807.15	2326.49
807.32	2265.05
807.49	2275.29
807.67	2203.61
807.84	2369.50
808.01	2090.98
808.19	2404.32
808.36	2480.09
808.54	2170.85
808.71	2197.47
808.88	2187.23
809.06	2342.88
809.23	2428.89
809.40	2252.77
809.58	2303.96
809.75	2334.68
809.92	2047.97
810.10	2514.91
810.27	2267.10
810.44	2299.87
810.62	2361.31
810.79	2295.77
810.96	2164.70
811.14	2201.57
811.31	2263.01
811.48	2252.77
811.66	2170.85
811.83	2373.60
812.00	2316.25
812.18	2242.53
812.35	2435.03
812.52	2254.81
812.69	2176.99
812.87	2224.09
813.04	2140.13
813.21	2234.33
813.39	2248.67
813.56	2144.22
813.73	2385.88
813.91	2088.93
814.08	2293.72
814.25	2220.00
814.42	2109.41
814.60	2242.53
814.77	2207.71
814.94	2277.34
815.12	2240.48
815.29	2432.99
815.46	2179.04
815.63	2254.81
815.81	2246.62
815.98	2162.66
816.15	2228.19
816.33	2213.85
816.50	2250.72
816.67	2187.23
816.84	2301.92
817.02	2131.94
817.19	2217.95
817.36	2359.26
817.53	2273.25
817.71	2144.22
817.88	2320.35
818.05	2183.13
818.22	2267.10
818.40	2430.94
818.57	2181.09
818.74	2240.48
818.91	2222.05
819.09	2346.97
819.26	2263.01
819.43	2209.76
819.60	2234.33
819.78	2252.77
819.95	2326.49
820.12	2138.08
820.29	2402.27
820.47	2349.02
820.64	2101.22
820.81	2111.46
820.98	2191.33
821.15	2174.94
821.33	2291.68
821.50	2050.02
821.67	2236.38
821.84	2168.80
822.02	2306.01
822.19	2402.27
822.36	2224.09
822.53	2209.76
822.70	2105.31
822.88	2205.66
823.05	2379.74
823.22	2232.29
823.39	2267.10
823.56	2138.08
823.74	2443.23
823.91	2162.66
824.08	2146.27
824.25	2146.27
824.42	2416.60
824.60	2154.46
824.77	2242.53
824.94	2207.71
825.11	2291.68
825.28	2117.60
825.45	2293.72
825.63	2238.43
825.80	2179.04
825.97	2256.86
826.14	2252.77
826.31	2129.89
826.48	2301.92
826.66	2215.90
826.83	2209.76
827.00	2252.77
827.17	2142.18
827.34	2201.57
827.51	2187.23
827.69	2220.00
827.86	2093.02
828.03	2224.09
828.20	2310.11
828.37	2228.19
828.54	2318.30
828.71	2179.04
828.89	2308.06
829.06	2213.85
829.23	2355.16
829.40	2228.19
829.57	2199.52
829.74	2236.38
829.91	2191.33
830.09	2133.98
830.26	2277.34
830.43	2432.99
830.60	2308.06
830.77	2275.29
830.94	2379.74
831.11	2310.11
831.28	2166.75
831.46	2285.53
831.63	2211.81
831.80	2318.30
831.97	2217.95
832.14	2138.08
832.31	2369.50
832.48	2285.53
832.65	2324.44
832.82	2220.00
832.99	2383.84
833.17	2093.02
833.34	2414.56
833.51	2205.66
833.68	2072.54
833.85	2414.56
834.02	2166.75
834.19	2103.26
834.36	2176.99
834.53	2291.68
834.70	2314.20
834.87	2306.01
835.04	2131.94
835.22	2220.00
835.39	2213.85
835.56	2152.42
835.73	2195.42
835.90	2392.03
836.07	2150.37
836.24	2250.72
836.41	2084.83
836.58	2246.62
836.75	2346.97
836.92	2250.72
837.09	2113.50
837.26	2324.44
837.43	2289.63
837.60	2222.05
837.77	2187.23
837.94	2285.53
838.12	2385.88
838.29	2203.61
838.46	2097.12
838.63	2136.03
838.80	2420.70
838.97	2334.68
839.14	2191.33
839.31	2267.10
839.48	2385.88
839.65	2220.00
839.82	2222.05
839.99	2158.56
840.16	2394.08
840.33	2113.50
840.50	2215.90
840.67	2211.81
840.84	2109.41
841.01	2228.19
841.18	2142.18
841.35	2277.34
841.52	2316.25
841.69	2414.56
841.86	2230.24
842.03	2226.14
842.20	2353.12
842.37	2193.37
842.54	2242.53
842.71	2291.68
842.88	2105.31
843.05	2217.95
843.22	2166.75
843.39	2346.97
843.56	2201.57
843.73	2152.42
843.90	2265.05
844.07	2228.19
844.24	2254.81
844.41	2267.10
844.58	2240.48
844.75	2271.20
844.92	2293.72
845.09	2121.70
845.26	2179.04
845.43	2244.57
845.60	2234.33
845.77	2392.03
845.94	2203.61
846.10	2293.72
846.27	2086.88
846.44	2144.22
846.61	2064.35
846.78	2207.71
846.95	2273.25
847.12	2154.46
847.29	2172.89
847.46	2185.18
847.63	2312.16
847.80	2156.51
847.97	2203.61
848.14	2437.08
848.31	2133.98
848.48	2117.60
848.65	2242.53
848.82	2220.00
848.98	2543.58
849.15	2301.92
849.32	2283.49
849.49	2359.26
849.66	2258.91
849.83	2187.23
850.00	2129.89
850.17	2365.40
850.34	2258.91
850.51	2144.22
850.68	2211.81
850.85	2480.09
851.01	2295.77
851.18	2267.10
851.35	2246.62
851.52	2289.63
851.69	2389.98
851.86	2105.31
852.03	2146.27
852.20	2379.74
852.37	2236.38
852.53	2119.65
852.70	2250.72
852.87	2301.92
853.04	2344.92
853.21	2228.19
853.38	2316.25
853.55	2334.68
853.72	2408.41
853.89	2121.70
854.05	2125.79
854.22	2224.09
854.39	2234.33
854.56	2181.09
854.73	2351.07
854.90	2170.85
855.07	2260.96
855.23	2084.83
855.40	2172.89
855.57	2158.56
855.74	2064.35
855.91	2383.84
856.08	2140.13
856.25	2154.46
856.41	2275.29
856.58	2105.31
856.75	2220.00
856.92	2133.98
857.09	2312.16
857.26	2093.02
857.42	2265.05
857.59	2312.16
857.76	2199.52
857.93	2240.48
858.10	2312.16
858.27	2162.66
858.43	2242.53
858.60	2142.18
858.77	2050.02
858.94	2256.86
859.11	2371.55
859.27	2250.72
859.44	2189.28
859.61	2441.18
859.78	2303.96
859.95	2146.27
860.12	2111.46
860.28	2377.69
860.45	2428.89
860.62	2138.08
860.79	2250.72
860.95	2209.76
861.12	2215.90
861.29	2164.70
861.46	2164.70
861.63	2248.67
861.79	2277.34
861.96	2162.66
862.13	2193.37
862.30	2346.97
862.47	2136.03
862.63	2105.31
862.80	2293.72
862.97	2297.82
863.14	2254.81
863.30	2217.95
863.47	2131.94
863.64	2416.60
863.81	2342.88
863.97	2162.66
864.14	2199.52
864.31	2203.61
864.48	2275.29
864.65	2193.37
864.81	2244.57
864.98	2310.11
865.15	2336.73
865.32	2291.68
865.48	2351.07
865.65	2389.98
865.82	2140.13
865.98	2258.91
866.15	2234.33
866.32	2193.37
866.49	2172.89
866.65	2279.39
866.82	2156.51
866.99	2250.72
867.16	2174.94
867.32	2250.72
867.49	2191.33
867.66	2234.33
867.83	2174.94
867.99	2084.83
868.16	2236.38
868.33	2111.46
868.49	2301.92
868.66	2240.48
868.83	2275.29
868.99	2299.87
869.16	2359.26
869.33	2328.54
869.50	2187.23
869.66	2199.52
869.83	2275.29
870.00	2129.89
870.16	2359.26
870.33	2234.33
870.50	2308.06
870.66	2228.19
870.83	2346.97
871.00	2252.77
871.17	2258.91
871.33	2250.72
871.50	2224.09
871.67	2242.53
871.83	2144.22
872.00	2379.74
872.17	2187.23
872.33	2299.87
872.50	2367.45
872.67	2160.61
872.83	2142.18
873.00	2207.71
873.17	2301.92
873.33	2291.68
873.50	2254.81
873.67	2148.32
873.83	2158.56
874.00	2234.33
874.16	2211.81
874.33	2238.43
874.50	2154.46
874.66	2209.76
874.83	2160.61
875.00	2316.25
875.16	2379.74
875.33	2279.39
875.50	1998.82
875.66	2181.09
875.83	2342.88
875.99	2342.88
876.16	2176.99
876.33	2105.31
876.49	2228.19
876.66	2252.77
876.83	2215.90
876.99	2127.84
877.16	2260.96
877.32	2170.85
877.49	2162.66
877.66	2369.50
877.82	2416.60
877.99	2242.53
878.15	2320.35
878.32	2277.34
878.49	2308.06
878.65	2199.52
878.82	2267.10
878.98	2224.09
879.15	2316.25
879.32	2267.10
879.48	2301.92
879.65	2220.00
879.81	2211.81
879.98	2234.33
880.15	2246.62
880.31	2306.01
880.48	2211.81
880.64	2273.25
880.81	2187.23
880.97	2344.92
881.14	2424.80
881.31	2191.33
881.47	2430.94
881.64	2191.33
881.80	2031.58
881.97	2260.96
882.13	2242.53
882.30	2187.23
882.47	2154.46
882.63	2215.90
882.80	2152.42
882.96	2240.48
883.13	2295.77
883.29	2179.04
883.46	2236.38
883.62	2455.51
883.79	2240.48
883.95	2314.20
884.12	2193.37
884.29	2381.79
884.45	2260.96
884.62	2195.42
884.78	2170.85
884.95	2426.84
885.11	2195.42
885.28	2267.10
885.44	2201.57
885.61	2420.70
885.77	2402.27
885.94	2326.49
886.10	2277.34
886.27	2260.96
886.43	2346.97
886.60	2400.22
886.76	2150.37
886.93	2176.99
887.09	2277.34
887.26	2136.03
887.42	2195.42
887.59	2310.11
887.75	2459.61
887.92	2340.83
888.08	2320.35
888.25	2473.95
888.41	2281.44
888.58	2199.52
888.74	2125.79
888.91	2320.35
>>>>>End Processed Spectral Data<<<<<
