SpectraSuite Data File
++++++++++++++++++++++++++++++++++++
Date: Thu May 05 13:21:17 CEST 2016
User: root
Dark Spectrum Present: No
Reference Spectrum Present: No
Number of Sampled Component Spectra: 1
Spectrometers: USB4C02835
Integration Time (usec): 100000 (USB4C02835)
Spectra Averaged: 1 (USB4C02835)
Boxcar Smoothing: 0 (USB4C02835)
Correct for Electrical Dark: No (USB4C02835)
Strobe/Lamp Enabled: No (USB4C02835)
Correct for Detector Non-linearity: No (USB4C02835)
Correct for Stray Light: No (USB4C02835)
Number of Pixels in Processed Spectrum: 3648
>>>>>Begin Processed Spectral Data<<<<<
177.47	1802.21
177.69	1802.21
177.91	1802.21
178.13	1783.78
178.36	1777.64
178.58	2211.81
178.80	2322.40
179.02	2138.08
179.24	2183.13
179.46	2185.18
179.68	2275.29
179.90	2189.28
180.13	2279.39
180.35	2093.02
180.57	2168.80
180.79	2326.49
181.01	2273.25
181.23	2240.48
181.45	2263.01
181.67	2336.73
181.90	2334.68
182.12	2179.04
182.34	2095.07
182.56	2318.30
182.78	2318.30
183.00	2150.37
183.22	2183.13
183.44	2068.45
183.66	2525.15
183.89	2260.96
184.11	2213.85
184.33	2344.92
184.55	2359.26
184.77	2226.14
184.99	2166.75
185.21	2195.42
185.43	2480.09
185.65	2115.55
185.87	2154.46
186.10	2504.67
186.32	2553.82
186.54	2275.29
186.76	2222.05
186.98	2412.51
187.20	2357.21
187.42	2187.23
187.64	2095.07
187.86	2301.92
188.08	2363.36
188.30	2101.22
188.52	2203.61
188.75	2332.64
188.97	2361.31
189.19	2109.41
189.41	2244.57
189.63	2203.61
189.85	2199.52
190.07	2072.54
190.29	2066.40
190.51	2285.53
190.73	2195.42
190.95	2351.07
191.17	2195.42
191.39	2056.16
191.61	2263.01
191.84	2133.98
192.06	2209.76
192.28	2056.16
192.50	2588.63
192.72	2244.57
192.94	2248.67
193.16	2318.30
193.38	2301.92
193.60	2150.37
193.82	2234.33
194.04	2387.93
194.26	2310.11
194.48	2162.66
194.70	2185.18
194.92	2185.18
195.14	2338.78
195.36	2097.12
195.58	2211.81
195.80	2203.61
196.02	2199.52
196.24	2189.28
196.46	2254.81
196.69	2258.91
196.91	2492.38
197.13	2174.94
197.35	2148.32
197.57	2445.27
197.79	2334.68
198.01	2217.95
198.23	2215.90
198.45	2232.29
198.67	2150.37
198.89	2146.27
199.11	2236.38
199.33	2203.61
199.55	2021.35
199.77	2179.04
199.99	2211.81
200.21	2199.52
200.43	2281.44
200.65	2002.91
200.87	2072.54
201.09	2258.91
201.31	2277.34
201.53	2324.44
201.75	2236.38
201.97	2232.29
202.19	2320.35
202.41	2205.66
202.63	2344.92
202.85	2232.29
203.07	2258.91
203.29	2240.48
203.51	2179.04
203.73	2271.20
203.95	2449.37
204.17	2179.04
204.39	2326.49
204.61	2226.14
204.83	2248.67
205.05	2293.72
205.27	2269.15
205.49	2465.75
205.71	2224.09
205.93	2074.59
206.15	2187.23
206.37	2236.38
206.59	2185.18
206.81	2050.02
207.03	2113.50
207.25	2119.65
207.47	2326.49
207.69	2215.90
207.91	2310.11
208.13	2342.88
208.34	2174.94
208.56	2080.74
208.78	2197.47
209.00	2252.77
209.22	2279.39
209.44	2133.98
209.66	2148.32
209.88	2269.15
210.10	2263.01
210.32	2174.94
210.54	2252.77
210.76	2133.98
210.98	2322.40
211.20	2068.45
211.42	2263.01
211.64	2301.92
211.86	2301.92
212.08	2220.00
212.30	2185.18
212.52	2277.34
212.74	2273.25
212.96	2265.05
213.17	2246.62
213.39	2301.92
213.61	2383.84
213.83	2082.78
214.05	2189.28
214.27	2351.07
214.49	2154.46
214.71	2144.22
214.93	2269.15
215.15	2291.68
215.37	2310.11
215.59	2080.74
215.81	2248.67
216.03	2414.56
216.24	2306.01
216.46	2179.04
216.68	2209.76
216.90	2334.68
217.12	2295.77
217.34	2078.69
217.56	2232.29
217.78	2432.99
218.00	2316.25
218.22	2250.72
218.44	2293.72
218.66	2340.83
218.87	2457.56
219.09	2154.46
219.31	2228.19
219.53	2246.62
219.75	2205.66
219.97	2207.71
220.19	2179.04
220.41	2293.72
220.63	2449.37
220.85	2226.14
221.06	2187.23
221.28	2359.26
221.50	2322.40
221.72	2142.18
221.94	2138.08
222.16	2244.57
222.38	2316.25
222.60	2238.43
222.82	2146.27
223.03	2363.36
223.25	2142.18
223.47	2103.26
223.69	2306.01
223.91	2361.31
224.13	2310.11
224.35	2111.46
224.57	2291.68
224.78	2174.94
225.00	2148.32
225.22	2201.57
225.44	2240.48
225.66	2285.53
225.88	2265.05
226.10	2314.20
226.32	2170.85
226.53	2469.85
226.75	2222.05
226.97	2195.42
227.19	2183.13
227.41	2179.04
227.63	2220.00
227.85	2084.83
228.06	2179.04
228.28	2295.77
228.50	2306.01
228.72	2107.36
228.94	2279.39
229.16	2056.16
229.37	2156.51
229.59	2144.22
229.81	2310.11
230.03	2152.42
230.25	2125.79
230.47	2086.88
230.69	2131.94
230.90	2258.91
231.12	2183.13
231.34	2195.42
231.56	2310.11
231.78	2199.52
232.00	2271.20
232.21	2174.94
232.43	2158.56
232.65	2023.39
232.87	2279.39
233.09	2076.64
233.30	2111.46
233.52	2373.60
233.74	2236.38
233.96	2113.50
234.18	2211.81
234.40	2236.38
234.61	2488.28
234.83	2062.30
235.05	2136.03
235.27	2486.23
235.49	2451.42
235.70	2176.99
235.92	2273.25
236.14	2281.44
236.36	2432.99
236.58	2080.74
236.79	2252.77
237.01	2236.38
237.23	2299.87
237.45	2361.31
237.67	2084.83
237.88	2351.07
238.10	2392.03
238.32	2136.03
238.54	2150.37
238.76	2273.25
238.97	2146.27
239.19	2166.75
239.41	2220.00
239.63	2367.45
239.85	2156.51
240.06	2166.75
240.28	2150.37
240.50	2357.21
240.72	2174.94
240.93	2160.61
241.15	2250.72
241.37	2236.38
241.59	2318.30
241.81	2129.89
242.02	2131.94
242.24	2201.57
242.46	2318.30
242.68	2121.70
242.89	2170.85
243.11	2316.25
243.33	2316.25
243.55	2215.90
243.76	2279.39
243.98	2166.75
244.20	2269.15
244.42	2195.42
244.64	2203.61
244.85	2183.13
245.07	2179.04
245.29	2201.57
245.51	2158.56
245.72	2336.73
245.94	2301.92
246.16	2207.71
246.38	2183.13
246.59	2244.57
246.81	2162.66
247.03	2107.36
247.24	1961.95
247.46	2195.42
247.68	2236.38
247.90	2076.64
248.11	2176.99
248.33	2242.53
248.55	2236.38
248.77	2199.52
248.98	2236.38
249.20	2416.60
249.42	2293.72
249.64	2183.13
249.85	2203.61
250.07	2140.13
250.29	2273.25
250.50	2297.82
250.72	2093.02
250.94	2332.64
251.16	2412.51
251.37	2285.53
251.59	2250.72
251.81	2314.20
252.02	2412.51
252.24	2101.22
252.46	2318.30
252.68	2252.77
252.89	2215.90
253.11	2056.16
253.33	2287.58
253.54	2383.84
253.76	2105.31
253.98	2138.08
254.20	2144.22
254.41	2111.46
254.63	2195.42
254.85	2013.15
255.06	2242.53
255.28	2220.00
255.50	2224.09
255.71	2203.61
255.93	2072.54
256.15	2187.23
256.36	2326.49
256.58	2125.79
256.80	2201.57
257.02	2211.81
257.23	2197.47
257.45	2265.05
257.67	2301.92
257.88	2201.57
258.10	2322.40
258.32	2150.37
258.53	2166.75
258.75	2381.79
258.97	2187.23
259.18	2133.98
259.40	2222.05
259.62	2480.09
259.83	2392.03
260.05	2238.43
260.27	2662.36
260.48	2334.68
260.70	2121.70
260.92	2129.89
261.13	2224.09
261.35	2260.96
261.57	2220.00
261.78	2078.69
262.00	2142.18
262.22	2232.29
262.43	2121.70
262.65	2277.34
262.86	2181.09
263.08	2430.94
263.30	2287.58
263.51	2050.02
263.73	2176.99
263.95	2437.08
264.16	2148.32
264.38	2142.18
264.60	2144.22
264.81	2234.33
265.03	2344.92
265.25	2289.63
265.46	2183.13
265.68	2338.78
265.89	2299.87
266.11	2093.02
266.33	2211.81
266.54	2277.34
266.76	2306.01
266.98	2205.66
267.19	2365.40
267.41	2310.11
267.62	2209.76
267.84	2050.02
268.06	2244.57
268.27	2271.20
268.49	2332.64
268.70	2301.92
268.92	2215.90
269.14	2242.53
269.35	2129.89
269.57	2234.33
269.79	2248.67
270.00	2140.13
270.22	2424.80
270.43	2123.74
270.65	2045.92
270.87	2273.25
271.08	2373.60
271.30	2250.72
271.51	2179.04
271.73	2269.15
271.95	2369.50
272.16	2228.19
272.38	2252.77
272.59	2222.05
272.81	2336.73
273.02	2203.61
273.24	2256.86
273.46	2361.31
273.67	2156.51
273.89	1978.34
274.10	2160.61
274.32	2295.77
274.54	2267.10
274.75	2183.13
274.97	2162.66
275.18	2365.40
275.40	2226.14
275.61	2150.37
275.83	2277.34
276.05	2220.00
276.26	2252.77
276.48	2277.34
276.69	2189.28
276.91	2240.48
277.12	2398.17
277.34	2332.64
277.55	2297.82
277.77	2281.44
277.99	2258.91
278.20	2138.08
278.42	2183.13
278.63	2226.14
278.85	2127.84
279.06	2121.70
279.28	2308.06
279.49	2314.20
279.71	2281.44
279.93	2248.67
280.14	2248.67
280.36	2138.08
280.57	2385.88
280.79	2246.62
281.00	2152.42
281.22	2250.72
281.43	2346.97
281.65	2121.70
281.86	2160.61
282.08	2254.81
282.29	2439.13
282.51	2072.54
282.73	2172.89
282.94	2162.66
283.16	2359.26
283.37	2404.32
283.59	2209.76
283.80	2297.82
284.02	2179.04
284.23	2336.73
284.45	2166.75
284.66	2117.60
284.88	2162.66
285.09	2265.05
285.31	2357.21
285.52	2363.36
285.74	2088.93
285.95	2291.68
286.17	2215.90
286.38	2371.55
286.60	2283.49
286.81	2127.84
287.03	2254.81
287.24	2316.25
287.46	2324.44
287.67	2228.19
287.89	2383.84
288.10	2193.37
288.32	2252.77
288.53	2408.41
288.75	2201.57
288.96	2334.68
289.18	2138.08
289.39	2185.18
289.61	2265.05
289.82	2473.95
290.04	2369.50
290.25	2189.28
290.47	2195.42
290.68	2293.72
290.90	2346.97
291.11	2066.40
291.33	2346.97
291.54	2166.75
291.76	2215.90
291.97	2252.77
292.18	2236.38
292.40	2232.29
292.61	2195.42
292.83	2510.81
293.04	2258.91
293.26	2271.20
293.47	2172.89
293.69	2119.65
293.90	2217.95
294.12	2383.84
294.33	2224.09
294.55	2187.23
294.76	2248.67
294.97	2459.61
295.19	2484.19
295.40	2203.61
295.62	2283.49
295.83	2375.64
296.05	2199.52
296.26	2334.68
296.48	2183.13
296.69	2238.43
296.90	2254.81
297.12	2242.53
297.33	2332.64
297.55	2291.68
297.76	2369.50
297.98	2334.68
298.19	2258.91
298.41	2291.68
298.62	2109.41
298.83	2414.56
299.05	2283.49
299.26	2179.04
299.48	2127.84
299.69	2291.68
299.90	2260.96
300.12	2154.46
300.33	2252.77
300.55	2187.23
300.76	2260.96
300.98	2129.89
301.19	2346.97
301.40	2195.42
301.62	2144.22
301.83	2334.68
302.05	2228.19
302.26	2144.22
302.47	2172.89
302.69	2183.13
302.90	2265.05
303.12	2035.68
303.33	2365.40
303.54	2445.27
303.76	2228.19
303.97	2236.38
304.19	2414.56
304.40	2199.52
304.61	2293.72
304.83	2389.98
305.04	2353.12
305.26	2324.44
305.47	2207.71
305.68	2138.08
305.90	2138.08
306.11	2375.64
306.33	2228.19
306.54	2131.94
306.75	2193.37
306.97	2162.66
307.18	2109.41
307.39	2179.04
307.61	2260.96
307.82	2236.38
308.04	2277.34
308.25	2166.75
308.46	2301.92
308.68	2232.29
308.89	2256.86
309.10	2318.30
309.32	2252.77
309.53	2217.95
309.74	2330.59
309.96	2203.61
310.17	2269.15
310.39	2187.23
310.60	2209.76
310.81	2246.62
311.03	2160.61
311.24	2351.07
311.45	2277.34
311.67	2420.70
311.88	2254.81
312.09	2211.81
312.31	2097.12
312.52	2248.67
312.73	2232.29
312.95	2162.66
313.16	2166.75
313.37	2326.49
313.59	2199.52
313.80	2349.02
314.01	2344.92
314.23	2236.38
314.44	2170.85
314.65	2129.89
314.87	2170.85
315.08	2170.85
315.29	2230.24
315.51	2136.03
315.72	2129.89
315.93	2342.88
316.15	2316.25
316.36	2254.81
316.57	2324.44
316.79	2271.20
317.00	2228.19
317.21	2308.06
317.43	2162.66
317.64	2250.72
317.85	2181.09
318.07	2193.37
318.28	2220.00
318.49	2357.21
318.70	2549.72
318.92	2410.46
319.13	2424.80
319.34	2459.61
319.56	2346.97
319.77	2285.53
319.98	2375.64
320.20	2416.60
320.41	2328.54
320.62	2291.68
320.83	2179.04
321.05	2351.07
321.26	2320.35
321.47	2281.44
321.69	2308.06
321.90	2201.57
322.11	2226.14
322.32	2244.57
322.54	2312.16
322.75	2248.67
322.96	2471.90
323.18	2107.36
323.39	2121.70
323.60	2201.57
323.81	2277.34
324.03	2195.42
324.24	2228.19
324.45	2234.33
324.66	2217.95
324.88	2447.32
325.09	2453.47
325.30	2234.33
325.52	2226.14
325.73	2349.02
325.94	2183.13
326.15	2029.54
326.37	2113.50
326.58	2394.08
326.79	2400.22
327.00	2162.66
327.22	2217.95
327.43	2170.85
327.64	2125.79
327.85	2263.01
328.07	2217.95
328.28	2426.84
328.49	2244.57
328.70	2213.85
328.92	2271.20
329.13	2176.99
329.34	2344.92
329.55	2383.84
329.76	2340.83
329.98	2224.09
330.19	2394.08
330.40	2256.86
330.61	2277.34
330.83	2342.88
331.04	2203.61
331.25	2267.10
331.46	2283.49
331.68	2131.94
331.89	2367.45
332.10	2146.27
332.31	2166.75
332.52	2285.53
332.74	2404.32
332.95	2150.37
333.16	2187.23
333.37	2322.40
333.58	2226.14
333.80	2250.72
334.01	2019.30
334.22	2211.81
334.43	2232.29
334.64	2220.00
334.86	2156.51
335.07	2199.52
335.28	2412.51
335.49	2103.26
335.70	2242.53
335.92	2351.07
336.13	2435.03
336.34	2340.83
336.55	2244.57
336.76	2265.05
336.98	2082.78
337.19	2273.25
337.40	2363.36
337.61	2525.15
337.82	2213.85
338.04	2285.53
338.25	2125.79
338.46	2187.23
338.67	2236.38
338.88	2199.52
339.09	2201.57
339.31	2224.09
339.52	2164.70
339.73	2156.51
339.94	2263.01
340.15	2361.31
340.36	2189.28
340.58	2269.15
340.79	2226.14
341.00	2334.68
341.21	2090.98
341.42	2412.51
341.63	2162.66
341.85	2310.11
342.06	2222.05
342.27	2099.17
342.48	2342.88
342.69	2152.42
342.90	2258.91
343.12	2369.50
343.33	2146.27
343.54	2273.25
343.75	2418.65
343.96	2320.35
344.17	2174.94
344.38	2228.19
344.60	2250.72
344.81	2154.46
345.02	2146.27
345.23	2359.26
345.44	2516.95
345.65	2236.38
345.86	2260.96
346.07	2228.19
346.29	2265.05
346.50	2291.68
346.71	2355.16
346.92	2314.20
347.13	2408.41
347.34	2205.66
347.55	2242.53
347.76	2244.57
347.98	2093.02
348.19	2150.37
348.40	2320.35
348.61	2234.33
348.82	2410.46
349.03	2273.25
349.24	2117.60
349.45	2496.47
349.66	2068.45
349.88	2244.57
350.09	2203.61
350.30	2367.45
350.51	2301.92
350.72	2277.34
350.93	2256.86
351.14	2230.24
351.35	2342.88
351.56	2170.85
351.77	2213.85
351.99	2291.68
352.20	2363.36
352.41	2318.30
352.62	2138.08
352.83	2199.52
353.04	2201.57
353.25	2170.85
353.46	2277.34
353.67	2381.79
353.88	2123.74
354.09	2199.52
354.30	2275.29
354.52	2404.32
354.73	2220.00
354.94	2199.52
355.15	2301.92
355.36	2486.23
355.57	2242.53
355.78	2328.54
355.99	2154.46
356.20	2297.82
356.41	2351.07
356.62	2297.82
356.83	2133.98
357.04	2310.11
357.25	2103.26
357.46	2156.51
357.68	2127.84
357.89	2179.04
358.10	2228.19
358.31	2240.48
358.52	2316.25
358.73	2103.26
358.94	2172.89
359.15	2254.81
359.36	2281.44
359.57	2234.33
359.78	2244.57
359.99	2256.86
360.20	2078.69
360.41	2183.13
360.62	2353.12
360.83	2281.44
361.04	2252.77
361.25	2209.76
361.46	2416.60
361.67	2322.40
361.88	2310.11
362.09	2330.59
362.30	2275.29
362.51	2166.75
362.72	2244.57
362.93	2373.60
363.14	2291.68
363.35	2346.97
363.56	2113.50
363.78	2346.97
363.99	2342.88
364.20	2222.05
364.41	2265.05
364.62	2371.55
364.83	2363.36
365.04	2211.81
365.25	2242.53
365.46	2455.51
365.67	2236.38
365.88	2289.63
366.09	2187.23
366.30	2215.90
366.51	2246.62
366.72	2115.55
366.93	2213.85
367.14	2269.15
367.35	2373.60
367.56	2269.15
367.77	2295.77
367.98	2222.05
368.18	2260.96
368.39	2293.72
368.60	2121.70
368.81	2379.74
369.02	2324.44
369.23	2224.09
369.44	2166.75
369.65	2240.48
369.86	2316.25
370.07	2258.91
370.28	2146.27
370.49	2336.73
370.70	2342.88
370.91	2172.89
371.12	2176.99
371.33	2375.64
371.54	2170.85
371.75	2334.68
371.96	2072.54
372.17	2301.92
372.38	2265.05
372.59	2336.73
372.80	2164.70
373.01	2197.47
373.22	2355.16
373.43	2211.81
373.64	2097.12
373.85	2455.51
374.06	2521.05
374.26	2320.35
374.47	2285.53
374.68	2408.41
374.89	2242.53
375.10	2217.95
375.31	2265.05
375.52	2215.90
375.73	2277.34
375.94	2138.08
376.15	2371.55
376.36	2164.70
376.57	2172.89
376.78	2215.90
376.99	2215.90
377.20	2432.99
377.40	2199.52
377.61	2394.08
377.82	2226.14
378.03	2338.78
378.24	2324.44
378.45	2217.95
378.66	2242.53
378.87	2068.45
379.08	2111.46
379.29	2226.14
379.50	2383.84
379.71	2174.94
379.91	2248.67
380.12	2254.81
380.33	2357.21
380.54	2310.11
380.75	2265.05
380.96	2144.22
381.17	2275.29
381.38	2252.77
381.59	2248.67
381.80	2252.77
382.00	2392.03
382.21	2330.59
382.42	2420.70
382.63	2527.19
382.84	2324.44
383.05	2422.75
383.26	2367.45
383.47	2222.05
383.68	2324.44
383.88	2269.15
384.09	2334.68
384.30	2482.14
384.51	2277.34
384.72	2195.42
384.93	2121.70
385.14	2236.38
385.35	2324.44
385.55	2103.26
385.76	2377.69
385.97	2211.81
386.18	2105.31
386.39	2187.23
386.60	2207.71
386.81	2162.66
387.02	2123.74
387.22	2228.19
387.43	2369.50
387.64	2320.35
387.85	2396.12
388.06	2447.32
388.27	3909.57
388.48	8101.76
388.68	11687.76
388.89	13958.96
389.10	15146.78
389.31	14268.20
389.52	10880.86
389.73	9584.49
389.93	8648.57
390.14	7905.16
390.35	7096.21
390.56	6354.85
390.77	5160.88
390.98	4026.31
391.18	3317.71
391.39	2783.19
391.60	2398.17
391.81	2375.64
392.02	2244.57
392.23	2537.43
392.43	2228.19
392.64	2389.98
392.85	2297.82
393.06	2410.46
393.27	2242.53
393.47	2185.18
393.68	2234.33
393.89	2162.66
394.10	2385.88
394.31	2121.70
394.52	2244.57
394.72	2211.81
394.93	2484.19
395.14	2224.09
395.35	2293.72
395.56	2154.46
395.76	2252.77
395.97	2285.53
396.18	2416.60
396.39	2414.56
396.60	2695.13
396.80	2531.29
397.01	2353.12
397.22	2398.17
397.43	2426.84
397.64	2244.57
397.84	2408.41
398.05	2525.15
398.26	2213.85
398.47	2365.40
398.67	2301.92
398.88	2273.25
399.09	2318.30
399.30	2207.71
399.51	2252.77
399.71	2197.47
399.92	2338.78
400.13	2256.86
400.34	2258.91
400.54	2228.19
400.75	2416.60
400.96	2285.53
401.17	2422.75
401.37	2299.87
401.58	2265.05
401.79	2246.62
402.00	2373.60
402.21	2664.41
402.41	2506.71
402.62	2572.25
402.83	2740.18
403.04	2666.46
403.24	2875.35
403.45	2422.75
403.66	2531.29
403.87	2435.03
404.07	2494.43
404.28	2514.91
404.49	2465.75
404.70	2426.84
404.90	2359.26
405.11	2277.34
405.32	2238.43
405.52	2232.29
405.73	2154.46
405.94	2226.14
406.15	2293.72
406.35	2342.88
406.56	2301.92
406.77	2320.35
406.98	2244.57
407.18	2242.53
407.39	2406.36
407.60	2322.40
407.80	2297.82
408.01	2265.05
408.22	2289.63
408.43	2207.71
408.63	2310.11
408.84	2318.30
409.05	2361.31
409.25	2179.04
409.46	2150.37
409.67	2172.89
409.88	2234.33
410.08	2271.20
410.29	2232.29
410.50	2336.73
410.70	2373.60
410.91	2201.57
411.12	2334.68
411.32	2324.44
411.53	2115.55
411.74	2346.97
411.95	2205.66
412.15	2308.06
412.36	2346.97
412.57	2301.92
412.77	2320.35
412.98	2238.43
413.19	2234.33
413.39	2265.05
413.60	2287.58
413.81	2381.79
414.01	2150.37
414.22	2277.34
414.43	2299.87
414.63	2228.19
414.84	2379.74
415.05	2269.15
415.25	2117.60
415.46	2379.74
415.67	2234.33
415.87	2224.09
416.08	2252.77
416.29	2299.87
416.49	2277.34
416.70	2252.77
416.91	2222.05
417.11	2236.38
417.32	2326.49
417.53	2383.84
417.73	2279.39
417.94	2265.05
418.15	2267.10
418.35	2242.53
418.56	2205.66
418.77	2504.67
418.97	2281.44
419.18	2303.96
419.38	2023.39
419.59	2281.44
419.80	2437.08
420.00	2285.53
420.21	2258.91
420.42	2406.36
420.62	2265.05
420.83	2148.32
421.04	2185.18
421.24	2297.82
421.45	2365.40
421.65	2314.20
421.86	2136.03
422.07	2381.79
422.27	2314.20
422.48	2242.53
422.69	2080.74
422.89	2234.33
423.10	2244.57
423.30	2195.42
423.51	2230.24
423.72	2373.60
423.92	2357.21
424.13	2170.85
424.33	2258.91
424.54	2322.40
424.75	2269.15
424.95	2398.17
425.16	2281.44
425.36	2279.39
425.57	2332.64
425.78	2293.72
425.98	2349.02
426.19	2193.37
426.39	2170.85
426.60	2371.55
426.81	2316.25
427.01	2260.96
427.22	2250.72
427.42	2068.45
427.63	2152.42
427.83	2373.60
428.04	2439.13
428.25	2287.58
428.45	2301.92
428.66	2416.60
428.86	2320.35
429.07	2234.33
429.28	2306.01
429.48	2236.38
429.69	2176.99
429.89	2228.19
430.10	2115.55
430.30	2342.88
430.51	2369.50
430.71	2117.60
430.92	2263.01
431.13	2260.96
431.33	2383.84
431.54	2256.86
431.74	2430.94
431.95	2506.71
432.15	2138.08
432.36	2220.00
432.56	2260.96
432.77	2482.14
432.98	2519.00
433.18	2314.20
433.39	2213.85
433.59	2209.76
433.80	2498.52
434.00	2383.84
434.21	2191.33
434.41	2209.76
434.62	2547.67
434.82	2131.94
435.03	2138.08
435.23	2320.35
435.44	2215.90
435.64	2314.20
435.85	2289.63
436.06	2252.77
436.26	2344.92
436.47	2152.42
436.67	2148.32
436.88	2236.38
437.08	2377.69
437.29	2410.46
437.49	2310.11
437.70	2353.12
437.90	2277.34
438.11	2430.94
438.31	2230.24
438.52	2439.13
438.72	2484.19
438.93	2617.30
439.13	2426.84
439.34	2396.12
439.54	2207.71
439.75	2371.55
439.95	2351.07
440.16	2215.90
440.36	2310.11
440.57	2283.49
440.77	2224.09
440.98	2283.49
441.18	2310.11
441.39	2189.28
441.59	2140.13
441.80	2541.53
442.00	2326.49
442.21	2334.68
442.41	2187.23
442.62	2316.25
442.82	2162.66
443.02	2234.33
443.23	2195.42
443.43	2289.63
443.64	2359.26
443.84	2187.23
444.05	2318.30
444.25	2203.61
444.46	2230.24
444.66	2248.67
444.87	2414.56
445.07	2138.08
445.28	2201.57
445.48	2369.50
445.69	2363.36
445.89	2568.15
446.09	2254.81
446.30	2498.52
446.50	2838.48
446.71	4396.99
446.91	5578.67
447.12	6404.00
447.32	6741.91
447.53	6191.01
447.73	5144.50
447.93	4552.63
448.14	4140.99
448.34	4188.10
448.55	3579.85
448.75	3596.23
448.96	3389.39
449.16	3084.24
449.36	2889.68
449.57	2559.96
449.77	2408.41
449.98	2222.05
450.18	2332.64
450.39	2277.34
450.59	2346.97
450.79	2349.02
451.00	2220.00
451.20	2340.83
451.41	2236.38
451.61	2287.58
451.81	2277.34
452.02	2179.04
452.22	2166.75
452.43	2248.67
452.63	2260.96
452.84	2250.72
453.04	2152.42
453.24	2242.53
453.45	2195.42
453.65	2258.91
453.86	2297.82
454.06	2365.40
454.26	2332.64
454.47	2146.27
454.67	2416.60
454.87	2299.87
455.08	2220.00
455.28	2400.22
455.49	2326.49
455.69	2170.85
455.89	2494.43
456.10	2379.74
456.30	2226.14
456.51	2447.32
456.71	2273.25
456.91	2375.64
457.12	2281.44
457.32	2312.16
457.52	2189.28
457.73	2310.11
457.93	2285.53
458.14	2236.38
458.34	2144.22
458.54	2330.59
458.75	2215.90
458.95	2437.08
459.15	2273.25
459.36	2359.26
459.56	2310.11
459.76	2473.95
459.97	2301.92
460.17	2220.00
460.37	2316.25
460.58	2318.30
460.78	2314.20
460.99	2248.67
461.19	2234.33
461.39	2232.29
461.60	2230.24
461.80	2387.93
462.00	2117.60
462.21	2297.82
462.41	2140.13
462.61	2111.46
462.82	2099.17
463.02	2297.82
463.22	2318.30
463.43	2277.34
463.63	2252.77
463.83	2351.07
464.04	2336.73
464.24	2291.68
464.44	2195.42
464.64	2193.37
464.85	2359.26
465.05	2338.78
465.25	2195.42
465.46	2222.05
465.66	2301.92
465.86	2326.49
466.07	2244.57
466.27	2265.05
466.47	2136.03
466.68	2123.74
466.88	2385.88
467.08	2355.16
467.29	2353.12
467.49	2324.44
467.69	2260.96
467.89	2228.19
468.10	2244.57
468.30	2322.40
468.50	2303.96
468.71	2416.60
468.91	2127.84
469.11	2506.71
469.31	2328.54
469.52	2152.42
469.72	2418.65
469.92	2432.99
470.13	2271.20
470.33	2277.34
470.53	2375.64
470.73	2719.70
470.94	3014.61
471.14	3180.50
471.34	3545.03
471.54	3344.33
471.75	3078.10
471.95	2791.38
472.15	2801.62
472.36	2772.95
472.56	2775.00
472.76	2731.99
472.96	2621.40
473.17	2504.67
473.37	2574.30
473.57	2330.59
473.77	2435.03
473.98	2254.81
474.18	2193.37
474.38	2564.06
474.58	2187.23
474.79	2275.29
474.99	2295.77
475.19	2293.72
475.39	2220.00
475.60	2326.49
475.80	2226.14
476.00	2275.29
476.20	2207.71
476.41	2252.77
476.61	2383.84
476.81	2428.89
477.01	2138.08
477.21	2408.41
477.42	2408.41
477.62	2103.26
477.82	2332.64
478.02	2222.05
478.23	2332.64
478.43	2191.33
478.63	2197.47
478.83	2260.96
479.03	2228.19
479.24	2312.16
479.44	2400.22
479.64	2195.42
479.84	2082.78
480.04	2242.53
480.25	2357.21
480.45	2183.13
480.65	2170.85
480.85	2377.69
481.06	2273.25
481.26	2285.53
481.46	2277.34
481.66	2289.63
481.86	2127.84
482.06	2379.74
482.27	2191.33
482.47	2187.23
482.67	2357.21
482.87	2150.37
483.07	2346.97
483.28	2277.34
483.48	2170.85
483.68	2166.75
483.88	2220.00
484.08	2064.35
484.29	2131.94
484.49	2195.42
484.69	2070.50
484.89	2383.84
485.09	2357.21
485.29	2195.42
485.50	2295.77
485.70	2263.01
485.90	2394.08
486.10	2295.77
486.30	2250.72
486.50	2379.74
486.71	2375.64
486.91	2332.64
487.11	2338.78
487.31	2152.42
487.51	2240.48
487.71	2142.18
487.91	2199.52
488.12	2146.27
488.32	1957.86
488.52	2185.18
488.72	2101.22
488.92	2273.25
489.12	2359.26
489.32	2359.26
489.53	2293.72
489.73	2097.12
489.93	2473.95
490.13	2287.58
490.33	2174.94
490.53	2303.96
490.73	2334.68
490.94	2136.03
491.14	2377.69
491.34	2285.53
491.54	2537.43
491.74	3207.12
491.94	3743.69
492.14	4050.88
492.34	4116.42
492.54	3782.60
492.75	3143.63
492.95	3172.30
493.15	3047.38
493.35	2955.22
493.55	2826.20
493.75	2699.22
493.95	2731.99
494.15	2584.54
494.35	2396.12
494.56	2283.49
494.76	2209.76
494.96	2265.05
495.16	2330.59
495.36	2289.63
495.56	2254.81
495.76	2256.86
495.96	2250.72
496.16	2166.75
496.36	2486.23
496.56	2250.72
496.77	2314.20
496.97	2267.10
497.17	2389.98
497.37	2117.60
497.57	2289.63
497.77	2306.01
497.97	2195.42
498.17	2275.29
498.37	2217.95
498.57	2340.83
498.77	2203.61
498.97	2357.21
499.17	2420.70
499.38	2258.91
499.58	2316.25
499.78	2338.78
499.98	2439.13
500.18	2244.57
500.38	2230.24
500.58	2445.27
500.78	2781.14
500.98	4990.90
501.18	7178.13
501.38	8847.22
501.58	9666.41
501.78	9658.22
501.98	7520.14
502.18	6332.32
502.38	5562.28
502.58	5117.87
502.78	4642.75
502.98	4390.84
503.18	4184.00
503.38	3889.09
503.59	3379.15
503.79	3225.55
503.99	2947.03
504.19	2922.45
504.39	2775.00
504.59	2883.54
504.79	2863.06
504.99	2826.20
505.19	2570.20
505.39	2449.37
505.59	2656.22
505.79	2641.88
505.99	2453.47
506.19	2359.26
506.39	2482.14
506.59	2314.20
506.79	2320.35
506.99	2398.17
507.19	2310.11
507.39	2349.02
507.59	2146.27
507.79	2172.89
507.99	2224.09
508.19	2258.91
508.39	2252.77
508.59	2256.86
508.79	2408.41
508.99	2461.66
509.19	2140.13
509.39	2306.01
509.59	2226.14
509.79	2242.53
509.99	2308.06
510.19	2242.53
510.39	2338.78
510.59	2244.57
510.79	2129.89
510.99	2109.41
511.19	2340.83
511.39	2414.56
511.59	2355.16
511.79	2404.32
511.99	2230.24
512.19	2424.80
512.38	2258.91
512.58	2195.42
512.78	2265.05
512.98	2361.31
513.18	2385.88
513.38	2164.70
513.58	2414.56
513.78	2336.73
513.98	2203.61
514.18	2254.81
514.38	2269.15
514.58	2342.88
514.78	2217.95
514.98	2217.95
515.18	2228.19
515.38	2129.89
515.58	2445.27
515.78	2256.86
515.98	2283.49
516.18	2383.84
516.38	2316.25
516.57	2220.00
516.77	2160.61
516.97	2357.21
517.17	2213.85
517.37	2144.22
517.57	2301.92
517.77	2258.91
517.97	2152.42
518.17	2326.49
518.37	2174.94
518.57	2220.00
518.77	2267.10
518.97	2185.18
519.16	2326.49
519.36	2394.08
519.56	2152.42
519.76	2203.61
519.96	2281.44
520.16	2461.66
520.36	2195.42
520.56	2338.78
520.76	2224.09
520.96	2160.61
521.16	2410.46
521.35	2383.84
521.55	2383.84
521.75	2297.82
521.95	2201.57
522.15	2217.95
522.35	2160.61
522.55	2254.81
522.75	2340.83
522.95	2263.01
523.14	2215.90
523.34	2279.39
523.54	2203.61
523.74	2359.26
523.94	2289.63
524.14	2072.54
524.34	2316.25
524.54	2402.27
524.73	2176.99
524.93	2328.54
525.13	2330.59
525.33	2101.22
525.53	2488.28
525.73	2359.26
525.93	2265.05
526.13	2189.28
526.32	2129.89
526.52	2377.69
526.72	2383.84
526.92	2236.38
527.12	2197.47
527.32	2148.32
527.52	2324.44
527.71	2267.10
527.91	2226.14
528.11	2164.70
528.31	2217.95
528.51	2160.61
528.71	2371.55
528.90	2363.36
529.10	2449.37
529.30	2359.26
529.50	2088.93
529.70	2240.48
529.90	2244.57
530.09	2271.20
530.29	2115.55
530.49	2187.23
530.69	2566.10
530.89	2265.05
531.09	2396.12
531.28	2275.29
531.48	2418.65
531.68	2283.49
531.88	2250.72
532.08	2369.50
532.28	2191.33
532.47	2412.51
532.67	2330.59
532.87	2299.87
533.07	2136.03
533.27	2260.96
533.46	2306.01
533.66	2332.64
533.86	2275.29
534.06	2295.77
534.26	2252.77
534.45	2246.62
534.65	2342.88
534.85	2342.88
535.05	2277.34
535.25	2334.68
535.44	2138.08
535.64	2291.68
535.84	2306.01
536.04	2183.13
536.24	2314.20
536.43	2209.76
536.63	2275.29
536.83	2236.38
537.03	2236.38
537.22	2109.41
537.42	2109.41
537.62	2291.68
537.82	2174.94
538.02	2373.60
538.21	2279.39
538.41	2514.91
538.61	2281.44
538.81	2265.05
539.00	2381.79
539.20	2144.22
539.40	2289.63
539.60	2275.29
539.79	2306.01
539.99	2334.68
540.19	2191.33
540.39	2201.57
540.58	2306.01
540.78	2404.32
540.98	2289.63
541.18	2342.88
541.37	2373.60
541.57	2242.53
541.77	2279.39
541.97	2142.18
542.16	2035.68
542.36	2312.16
542.56	2195.42
542.76	2488.28
542.95	2330.59
543.15	2375.64
543.35	2365.40
543.54	2260.96
543.74	2220.00
543.94	2459.61
544.14	2203.61
544.33	2346.97
544.53	2199.52
544.73	2275.29
544.93	2265.05
545.12	2220.00
545.32	2209.76
545.52	2297.82
545.71	2097.12
545.91	2238.43
546.11	2244.57
546.30	2193.37
546.50	2363.36
546.70	2273.25
546.90	2269.15
547.09	2039.78
547.29	2248.67
547.49	2301.92
547.68	2269.15
547.88	2187.23
548.08	2357.21
548.27	2736.09
548.47	2179.04
548.67	2246.62
548.87	2392.03
549.06	2246.62
549.26	2299.87
549.46	2250.72
549.65	2244.57
549.85	2271.20
550.05	2230.24
550.24	2162.66
550.44	2220.00
550.64	2318.30
550.83	2275.29
551.03	2404.32
551.23	2432.99
551.42	2217.95
551.62	2287.58
551.82	2252.77
552.01	2254.81
552.21	2457.56
552.41	2234.33
552.60	2482.14
552.80	2332.64
553.00	2215.90
553.19	2291.68
553.39	2527.19
553.59	2136.03
553.78	2310.11
553.98	2174.94
554.17	2162.66
554.37	2357.21
554.57	2279.39
554.76	2220.00
554.96	2271.20
555.16	2351.07
555.35	2295.77
555.55	2324.44
555.75	2228.19
555.94	2344.92
556.14	2154.46
556.33	2328.54
556.53	2293.72
556.73	2281.44
556.92	2297.82
557.12	2351.07
557.32	2392.03
557.51	2369.50
557.71	2355.16
557.90	2453.47
558.10	2482.14
558.30	2213.85
558.49	2318.30
558.69	2228.19
558.88	2346.97
559.08	2340.83
559.28	2244.57
559.47	2260.96
559.67	2365.40
559.86	2486.23
560.06	2277.34
560.26	2318.30
560.45	2316.25
560.65	2318.30
560.84	2346.97
561.04	2185.18
561.24	2371.55
561.43	2131.94
561.63	2408.41
561.82	2334.68
562.02	2338.78
562.22	2176.99
562.41	2174.94
562.61	2232.29
562.80	2185.18
563.00	2574.30
563.19	2301.92
563.39	2203.61
563.59	2283.49
563.78	2111.46
563.98	2027.49
564.17	2265.05
564.37	2056.16
564.56	2263.01
564.76	2144.22
564.96	2430.94
565.15	2326.49
565.35	2590.68
565.54	2322.40
565.74	2400.22
565.93	2299.87
566.13	2220.00
566.32	2306.01
566.52	2263.01
566.71	2312.16
566.91	2312.16
567.11	2344.92
567.30	2148.32
567.50	2367.45
567.69	2379.74
567.89	2240.48
568.08	2197.47
568.28	2267.10
568.47	2150.37
568.67	2342.88
568.86	2203.61
569.06	2332.64
569.25	2215.90
569.45	2170.85
569.64	2217.95
569.84	2281.44
570.04	2363.36
570.23	2213.85
570.43	2265.05
570.62	2295.77
570.82	2439.13
571.01	2162.66
571.21	2119.65
571.40	2174.94
571.60	2351.07
571.79	2299.87
571.99	2215.90
572.18	2217.95
572.38	2295.77
572.57	2244.57
572.77	2340.83
572.96	2549.72
573.16	2281.44
573.35	2242.53
573.55	2406.36
573.74	2357.21
573.94	2246.62
574.13	2265.05
574.33	2297.82
574.52	2301.92
574.71	2299.87
574.91	2308.06
575.10	2052.06
575.30	2207.71
575.49	2207.71
575.69	2224.09
575.88	2314.20
576.08	2330.59
576.27	2375.64
576.47	2316.25
576.66	2416.60
576.86	2412.51
577.05	2318.30
577.25	2330.59
577.44	2498.52
577.64	2295.77
577.83	2432.99
578.02	2310.11
578.22	2461.66
578.41	2449.37
578.61	2306.01
578.80	2152.42
579.00	2346.97
579.19	2285.53
579.39	2400.22
579.58	2332.64
579.77	2258.91
579.97	2445.27
580.16	2371.55
580.36	2439.13
580.55	2340.83
580.75	2334.68
580.94	2299.87
581.13	2478.04
581.33	2353.12
581.52	2291.68
581.72	2498.52
581.91	2445.27
582.11	2205.66
582.30	2430.94
582.49	2267.10
582.69	2441.18
582.88	2387.93
583.08	2365.40
583.27	2443.23
583.47	2367.45
583.66	2226.14
583.85	2260.96
584.05	2240.48
584.24	2404.32
584.44	2289.63
584.63	2473.95
584.82	2463.71
585.02	2512.86
585.21	2467.80
585.41	2465.75
585.60	2404.32
585.79	2594.78
585.99	2453.47
586.18	2467.80
586.37	3020.75
586.57	4822.97
586.76	13721.39
586.96	33457.67
587.15	47050.03
587.34	56007.85
587.54	61246.55
587.73	56114.34
587.93	39730.59
588.12	30137.91
588.31	24086.16
588.51	21319.35
588.70	19042.01
588.89	17585.91
589.09	15163.16
589.28	13088.57
589.47	10520.42
589.67	8284.03
589.86	6557.60
590.06	4691.90
590.25	3774.41
590.44	3176.40
590.64	2750.42
590.83	2631.64
591.02	2535.39
591.22	2396.12
591.41	2353.12
591.60	2314.20
591.80	2592.73
591.99	2277.34
592.18	2256.86
592.38	2381.79
592.57	2293.72
592.76	2252.77
592.96	2351.07
593.15	2197.47
593.34	2490.33
593.54	2299.87
593.73	2451.42
593.92	2398.17
594.12	2351.07
594.31	2383.84
594.50	2443.23
594.70	2381.79
594.89	2471.90
595.08	2211.81
595.28	2361.31
595.47	2705.37
595.66	2443.23
595.86	2215.90
596.05	2203.61
596.24	2201.57
596.43	2437.08
596.63	2400.22
596.82	2383.84
597.01	2344.92
597.21	2541.53
597.40	2291.68
597.59	2330.59
597.79	2367.45
597.98	2383.84
598.17	2375.64
598.36	2379.74
598.56	2478.04
598.75	2281.44
598.94	2228.19
599.14	2291.68
599.33	2320.35
599.52	2422.75
599.71	2318.30
599.91	2336.73
600.10	2359.26
600.29	2351.07
600.48	2316.25
600.68	2314.20
600.87	2293.72
601.06	2285.53
601.26	2258.91
601.45	2355.16
601.64	2199.52
601.83	2426.84
602.03	2205.66
602.22	2152.42
602.41	2371.55
602.60	2514.91
602.80	2371.55
602.99	2301.92
603.18	2142.18
603.37	2275.29
603.57	2252.77
603.76	2265.05
603.95	2367.45
604.14	2236.38
604.34	2138.08
604.53	2242.53
604.72	2287.58
604.91	2351.07
605.10	2306.01
605.30	2140.13
605.49	2555.86
605.68	2314.20
605.87	2379.74
606.07	2217.95
606.26	2299.87
606.45	2297.82
606.64	2273.25
606.84	2314.20
607.03	2318.30
607.22	2416.60
607.41	2252.77
607.60	2271.20
607.80	2342.88
607.99	2295.77
608.18	2310.11
608.37	2263.01
608.56	2136.03
608.76	2318.30
608.95	2449.37
609.14	2349.02
609.33	2496.47
609.52	2473.95
609.72	2437.08
609.91	2461.66
610.10	2281.44
610.29	2432.99
610.48	2377.69
610.68	2285.53
610.87	2310.11
611.06	2346.97
611.25	2234.33
611.44	2363.36
611.63	2220.00
611.83	2453.47
612.02	2203.61
612.21	2461.66
612.40	2105.31
612.59	2152.42
612.79	2156.51
612.98	2213.85
613.17	2447.32
613.36	2293.72
613.55	2351.07
613.74	2308.06
613.93	2506.71
614.13	2494.43
614.32	2455.51
614.51	2496.47
614.70	2306.01
614.89	2260.96
615.08	2340.83
615.28	2768.85
615.47	2205.66
615.66	2322.40
615.85	2353.12
616.04	2471.90
616.23	2293.72
616.42	2351.07
616.62	2377.69
616.81	2252.77
617.00	2269.15
617.19	2265.05
617.38	2187.23
617.57	2326.49
617.76	2441.18
617.95	2394.08
618.15	2303.96
618.34	2467.80
618.53	2103.26
618.72	2359.26
618.91	2361.31
619.10	2418.65
619.29	2297.82
619.48	2256.86
619.68	2220.00
619.87	2275.29
620.06	2113.50
620.25	2326.49
620.44	2244.57
620.63	2248.67
620.82	2387.93
621.01	2303.96
621.20	2193.37
621.39	2349.02
621.59	2330.59
621.78	2238.43
621.97	2303.96
622.16	2398.17
622.35	2258.91
622.54	2306.01
622.73	2351.07
622.92	2105.31
623.11	2363.36
623.30	2314.20
623.49	2310.11
623.68	2121.70
623.88	2435.03
624.07	2260.96
624.26	2244.57
624.45	2293.72
624.64	2314.20
624.83	2320.35
625.02	2209.76
625.21	2342.88
625.40	2203.61
625.59	2316.25
625.78	2355.16
625.97	2367.45
626.16	2482.14
626.35	2361.31
626.54	2222.05
626.74	2451.42
626.93	2295.77
627.12	2330.59
627.31	2357.21
627.50	2308.06
627.69	2385.88
627.88	2133.98
628.07	2224.09
628.26	2148.32
628.45	2160.61
628.64	2242.53
628.83	2244.57
629.02	2150.37
629.21	2365.40
629.40	2334.68
629.59	2277.34
629.78	2265.05
629.97	2291.68
630.16	2297.82
630.35	2265.05
630.54	2220.00
630.73	2258.91
630.92	2168.80
631.11	2154.46
631.30	2258.91
631.49	2324.44
631.68	2209.76
631.87	2308.06
632.06	2093.02
632.25	2605.02
632.44	2254.81
632.63	2351.07
632.82	2240.48
633.01	2365.40
633.20	2338.78
633.39	2306.01
633.58	2238.43
633.77	2293.72
633.96	2344.92
634.15	2328.54
634.34	2357.21
634.53	2281.44
634.72	2277.34
634.91	2105.31
635.10	2301.92
635.29	2359.26
635.48	2301.92
635.67	2154.46
635.86	2187.23
636.05	2455.51
636.24	2306.01
636.43	2207.71
636.62	2246.62
636.81	2107.36
637.00	2271.20
637.19	2207.71
637.38	2215.90
637.57	2211.81
637.76	2340.83
637.95	2367.45
638.14	2326.49
638.33	2392.03
638.52	2312.16
638.71	2234.33
638.89	2228.19
639.08	2484.19
639.27	2469.85
639.46	2502.62
639.65	2820.05
639.84	2840.53
640.03	2926.55
640.22	2848.72
640.41	2865.11
640.60	2543.58
640.79	2543.58
640.98	2490.33
641.17	2498.52
641.36	2469.85
641.55	2387.93
641.74	2170.85
641.92	2220.00
642.11	2265.05
642.30	2301.92
642.49	2240.48
642.68	2199.52
642.87	2232.29
643.06	2318.30
643.25	2199.52
643.44	2181.09
643.63	2224.09
643.82	2389.98
644.00	2140.13
644.19	2299.87
644.38	2154.46
644.57	2322.40
644.76	2291.68
644.95	2209.76
645.14	2361.31
645.33	2236.38
645.52	2332.64
645.71	2097.12
645.89	2148.32
646.08	2258.91
646.27	2138.08
646.46	2457.56
646.65	2195.42
646.84	2220.00
647.03	2039.78
647.22	2426.84
647.40	2334.68
647.59	2215.90
647.78	2095.07
647.97	2136.03
648.16	2191.33
648.35	2404.32
648.54	2398.17
648.73	2209.76
648.91	2299.87
649.10	2236.38
649.29	2179.04
649.48	2213.85
649.67	2342.88
649.86	2275.29
650.05	2349.02
650.23	2529.24
650.42	2308.06
650.61	2510.81
650.80	2492.38
650.99	2580.44
651.18	2430.94
651.36	2383.84
651.55	2252.77
651.74	2338.78
651.93	2301.92
652.12	2303.96
652.31	2242.53
652.49	2316.25
652.68	2283.49
652.87	2445.27
653.06	2392.03
653.25	2545.63
653.44	2228.19
653.62	2408.41
653.81	2281.44
654.00	2301.92
654.19	2371.55
654.38	2539.48
654.56	2291.68
654.75	2170.85
654.94	2412.51
655.13	2256.86
655.32	2232.29
655.51	2310.11
655.69	2242.53
655.88	2367.45
656.07	2164.70
656.26	2224.09
656.45	2146.27
656.63	2293.72
656.82	2258.91
657.01	2349.02
657.20	2269.15
657.38	2424.80
657.57	2246.62
657.76	2195.42
657.95	2375.64
658.14	2215.90
658.32	2230.24
658.51	2160.61
658.70	2265.05
658.89	2297.82
659.08	2248.67
659.26	2498.52
659.45	2185.18
659.64	2293.72
659.83	2301.92
660.01	2633.69
660.20	2342.88
660.39	2443.23
660.58	2152.42
660.76	2404.32
660.95	2207.71
661.14	2334.68
661.33	2117.60
661.51	2263.01
661.70	2244.57
661.89	2334.68
662.08	2203.61
662.26	2095.07
662.45	2195.42
662.64	2363.36
662.83	2273.25
663.01	2183.13
663.20	2228.19
663.39	2367.45
663.58	2254.81
663.76	2166.75
663.95	2291.68
664.14	2193.37
664.32	2197.47
664.51	2148.32
664.70	2113.50
664.89	2301.92
665.07	2142.18
665.26	2412.51
665.45	2168.80
665.64	2330.59
665.82	2201.57
666.01	2334.68
666.20	2162.66
666.38	2371.55
666.57	2486.23
666.76	3411.92
666.95	8384.38
667.13	16076.55
667.32	21290.68
667.51	25022.08
667.69	26599.02
667.88	24491.66
668.07	17114.87
668.25	13872.94
668.44	11607.89
668.63	10018.66
668.81	8812.41
669.00	7585.68
669.19	6846.36
669.38	5826.47
669.56	5167.03
669.75	4399.04
669.94	3655.62
670.12	3147.73
670.31	2869.20
670.50	2711.51
670.68	2490.33
670.87	2453.47
671.06	2244.57
671.24	2367.45
671.43	2531.29
671.62	2301.92
671.80	2228.19
671.99	2377.69
672.18	2326.49
672.36	2293.72
672.55	2334.68
672.74	2285.53
672.92	2207.71
673.11	2359.26
673.29	2172.89
673.48	2322.40
673.67	2250.72
673.85	2394.08
674.04	2224.09
674.23	2275.29
674.41	2445.27
674.60	2234.33
674.79	2105.31
674.97	2154.46
675.16	2369.50
675.34	2402.27
675.53	2125.79
675.72	2308.06
675.90	2467.80
676.09	2189.28
676.28	2258.91
676.46	2076.64
676.65	2328.54
676.83	2244.57
677.02	2277.34
677.21	2265.05
677.39	2293.72
677.58	2170.85
677.77	2279.39
677.95	2220.00
678.14	2201.57
678.32	2236.38
678.51	2168.80
678.70	2416.60
678.88	2254.81
679.07	2252.77
679.25	2252.77
679.44	2174.94
679.63	2144.22
679.81	2312.16
680.00	2316.25
680.18	2306.01
680.37	2424.80
680.55	2195.42
680.74	2183.13
680.93	2088.93
681.11	2291.68
681.30	2199.52
681.48	2238.43
681.67	2265.05
681.85	2277.34
682.04	2244.57
682.23	2355.16
682.41	2334.68
682.60	2187.23
682.78	2256.86
682.97	2187.23
683.15	2238.43
683.34	2291.68
683.53	2381.79
683.71	2099.17
683.90	2306.01
684.08	2379.74
684.27	2308.06
684.45	2207.71
684.64	2328.54
684.82	2289.63
685.01	2330.59
685.19	2287.58
685.38	2465.75
685.57	2297.82
685.75	2176.99
685.94	2201.57
686.12	2220.00
686.31	2172.89
686.49	2449.37
686.68	2113.50
686.86	2318.30
687.05	2303.96
687.23	2357.21
687.42	2277.34
687.60	2097.12
687.79	2322.40
687.97	2367.45
688.16	2338.78
688.34	2326.49
688.53	2084.83
688.71	2297.82
688.90	2349.02
689.08	2222.05
689.27	2146.27
689.45	2381.79
689.64	2260.96
689.82	2392.03
690.01	2338.78
690.19	2322.40
690.38	2267.10
690.56	2381.79
690.75	2172.89
690.93	2228.19
691.12	2125.79
691.30	2236.38
691.49	2211.81
691.67	2293.72
691.86	2435.03
692.04	2279.39
692.23	2240.48
692.41	2308.06
692.60	2498.52
692.78	2389.98
692.97	2316.25
693.15	2297.82
693.34	2457.56
693.52	2371.55
693.71	2201.57
693.89	2238.43
694.08	2156.51
694.26	2404.32
694.44	2346.97
694.63	2338.78
694.81	2158.56
695.00	2222.05
695.18	2383.84
695.37	2564.06
695.55	2277.34
695.74	2252.77
695.92	2205.66
696.10	2414.56
696.29	2062.30
696.47	2211.81
696.66	2150.37
696.84	2232.29
697.03	2277.34
697.21	2422.75
697.40	3243.98
697.58	2314.20
697.76	2179.04
697.95	2127.84
698.13	2281.44
698.32	2273.25
698.50	2236.38
698.68	2279.39
698.87	2316.25
699.05	2404.32
699.24	2238.43
699.42	2117.60
699.61	2238.43
699.79	2226.14
699.97	2258.91
700.16	2054.11
700.34	2138.08
700.53	2314.20
700.71	2453.47
700.89	2355.16
701.08	2195.42
701.26	2271.20
701.45	2791.38
701.63	2220.00
701.81	2215.90
702.00	2160.61
702.18	2277.34
702.37	2236.38
702.55	2576.34
702.73	2396.12
702.92	2410.46
703.10	2539.48
703.28	2461.66
703.47	2361.31
703.65	2451.42
703.84	2375.64
704.02	2252.77
704.20	2383.84
704.39	2248.67
704.57	2297.82
704.75	2351.07
704.94	2318.30
705.12	2301.92
705.30	2592.73
705.49	4480.96
705.67	10336.10
705.86	18382.57
706.04	21743.28
706.22	24774.28
706.41	25615.99
706.59	21712.56
706.77	15582.99
706.96	13027.13
707.14	11435.86
707.32	9879.40
707.51	8693.63
707.69	7352.21
707.87	5928.87
708.06	4814.77
708.24	3952.58
708.42	3192.78
708.61	3057.62
708.79	2449.37
708.97	2439.13
709.16	2453.47
709.34	2389.98
709.52	2281.44
709.71	2222.05
709.89	2357.21
710.07	2207.71
710.26	2236.38
710.44	2314.20
710.62	2404.32
710.80	2279.39
710.99	2379.74
711.17	2342.88
711.35	2220.00
711.54	2220.00
711.72	2447.32
711.90	2387.93
712.09	2273.25
712.27	2187.23
712.45	2351.07
712.63	2207.71
712.82	2224.09
713.00	2289.63
713.18	2301.92
713.37	2389.98
713.55	2326.49
713.73	2322.40
713.91	2283.49
714.10	2295.77
714.28	2199.52
714.46	2242.53
714.65	2287.58
714.83	2283.49
715.01	2267.10
715.19	2283.49
715.38	2224.09
715.56	2318.30
715.74	2197.47
715.92	2263.01
716.11	2424.80
716.29	2086.88
716.47	2283.49
716.65	2295.77
716.84	2097.12
717.02	2342.88
717.20	2093.02
717.38	2150.37
717.57	2328.54
717.75	2312.16
717.93	2174.94
718.11	2277.34
718.30	2088.93
718.48	2287.58
718.66	2236.38
718.84	2387.93
719.03	2281.44
719.21	2090.98
719.39	2424.80
719.57	2379.74
719.75	2310.11
719.94	2140.13
720.12	2238.43
720.30	2330.59
720.48	2414.56
720.67	2205.66
720.85	2179.04
721.03	2199.52
721.21	2174.94
721.39	2371.55
721.58	2299.87
721.76	2254.81
721.94	2301.92
722.12	2338.78
722.30	2424.80
722.49	2220.00
722.67	2244.57
722.85	2291.68
723.03	2148.32
723.21	2203.61
723.40	2301.92
723.58	2338.78
723.76	2273.25
723.94	2412.51
724.12	2373.60
724.30	2400.22
724.49	2389.98
724.67	2144.22
724.85	2387.93
725.03	2199.52
725.21	2338.78
725.40	2381.79
725.58	2201.57
725.76	2392.03
725.94	2318.30
726.12	2170.85
726.30	2254.81
726.49	2234.33
726.67	2150.37
726.85	2265.05
727.03	2502.62
727.21	3629.00
727.39	4906.93
727.57	5939.11
727.76	6487.96
727.94	6739.87
728.12	6266.78
728.30	5091.25
728.48	4528.06
728.66	4126.66
728.84	3864.52
729.03	3264.46
729.21	2990.03
729.39	2725.85
729.57	2519.00
729.75	2392.03
729.93	2369.50
730.11	2244.57
730.30	2279.39
730.48	2277.34
730.66	2340.83
730.84	2299.87
731.02	2203.61
731.20	2142.18
731.38	2299.87
731.56	2154.46
731.74	2117.60
731.93	2285.53
732.11	2215.90
732.29	2191.33
732.47	2269.15
732.65	2346.97
732.83	2334.68
733.01	2211.81
733.19	2140.13
733.37	2314.20
733.56	2308.06
733.74	2172.89
733.92	2387.93
734.10	2232.29
734.28	2308.06
734.46	2062.30
734.64	2140.13
734.82	2232.29
735.00	2213.85
735.18	2248.67
735.36	2228.19
735.54	2217.95
735.73	2269.15
735.91	2234.33
736.09	2344.92
736.27	2203.61
736.45	2310.11
736.63	2084.83
736.81	2226.14
736.99	2320.35
737.17	2342.88
737.35	2209.76
737.53	2367.45
737.71	2195.42
737.89	2392.03
738.07	2215.90
738.25	2213.85
738.43	2129.89
738.61	2211.81
738.80	2131.94
738.98	2144.22
739.16	2291.68
739.34	2195.42
739.52	2398.17
739.70	2281.44
739.88	2355.16
740.06	2306.01
740.24	2045.92
740.42	2387.93
740.60	2187.23
740.78	2127.84
740.96	2125.79
741.14	2283.49
741.32	2234.33
741.50	2164.70
741.68	2461.66
741.86	2392.03
742.04	2125.79
742.22	2097.12
742.40	2281.44
742.58	2318.30
742.76	2156.51
742.94	2406.36
743.12	2187.23
743.30	2273.25
743.48	2316.25
743.66	2183.13
743.84	2260.96
744.02	2281.44
744.20	2250.72
744.38	2201.57
744.56	2187.23
744.74	2342.88
744.92	2310.11
745.10	2465.75
745.28	2281.44
745.46	2404.32
745.64	2187.23
745.82	2349.02
746.00	2211.81
746.18	2254.81
746.36	2187.23
746.54	2271.20
746.72	2314.20
746.90	2170.85
747.08	2375.64
747.26	2140.13
747.44	2389.98
747.62	2375.64
747.80	2281.44
747.98	2324.44
748.15	2258.91
748.33	2463.71
748.51	2293.72
748.69	2316.25
748.87	2236.38
749.05	2232.29
749.23	2263.01
749.41	2308.06
749.59	2207.71
749.77	2338.78
749.95	2203.61
750.13	2201.57
750.31	2281.44
750.49	2174.94
750.67	2297.82
750.85	2336.73
751.03	2203.61
751.20	2455.51
751.38	2234.33
751.56	2232.29
751.74	2299.87
751.92	2166.75
752.10	2226.14
752.28	2406.36
752.46	2236.38
752.64	2127.84
752.82	2226.14
753.00	2367.45
753.18	2238.43
753.35	2189.28
753.53	2226.14
753.71	2295.77
753.89	2275.29
754.07	2281.44
754.25	2351.07
754.43	2260.96
754.61	2101.22
754.79	2355.16
754.97	2209.76
755.14	2422.75
755.32	2123.74
755.50	2283.49
755.68	2254.81
755.86	2220.00
756.04	2242.53
756.22	2088.93
756.40	2351.07
756.57	2353.12
756.75	2248.67
756.93	2310.11
757.11	2273.25
757.29	2183.13
757.47	2168.80
757.65	2113.50
757.82	1964.00
758.00	2176.99
758.18	2176.99
758.36	2191.33
758.54	2451.42
758.72	2166.75
758.90	2398.17
759.07	2277.34
759.25	2105.31
759.43	2306.01
759.61	2226.14
759.79	3121.10
759.97	2318.30
760.15	2252.77
760.32	2228.19
760.50	2295.77
760.68	2457.56
760.86	2084.83
761.04	2357.21
761.22	2367.45
761.39	2203.61
761.57	2289.63
761.75	2236.38
761.93	2326.49
762.11	2195.42
762.28	2230.24
762.46	2129.89
762.64	2365.40
762.82	2144.22
763.00	2256.86
763.18	2363.36
763.35	2174.94
763.53	2328.54
763.71	2146.27
763.89	2248.67
764.07	2226.14
764.24	2191.33
764.42	2310.11
764.60	2263.01
764.78	2324.44
764.96	2281.44
765.13	2318.30
765.31	2181.09
765.49	2363.36
765.67	2193.37
765.84	2197.47
766.02	2160.61
766.20	2138.08
766.38	2301.92
766.56	2371.55
766.73	2324.44
766.91	2176.99
767.09	2238.43
767.27	2310.11
767.44	2121.70
767.62	2277.34
767.80	2310.11
767.98	2140.13
768.15	2207.71
768.33	2314.20
768.51	2363.36
768.69	2363.36
768.87	2277.34
769.04	2281.44
769.22	2592.73
769.40	2346.97
769.58	2478.04
769.75	2283.49
769.93	2363.36
770.11	2187.23
770.28	2172.89
770.46	2314.20
770.64	2281.44
770.82	2226.14
770.99	2279.39
771.17	2385.88
771.35	2160.61
771.53	2252.77
771.70	2207.71
771.88	2277.34
772.06	2246.62
772.23	2248.67
772.41	2215.90
772.59	2217.95
772.77	2080.74
772.94	2119.65
773.12	2258.91
773.30	2267.10
773.47	2244.57
773.65	2146.27
773.83	2367.45
774.01	2230.24
774.18	2185.18
774.36	2256.86
774.54	2154.46
774.71	2256.86
774.89	2152.42
775.07	2191.33
775.24	2160.61
775.42	2193.37
775.60	2490.33
775.78	2187.23
775.95	2105.31
776.13	2064.35
776.31	2074.59
776.48	2240.48
776.66	2328.54
776.84	2242.53
777.01	2072.54
777.19	2146.27
777.37	2170.85
777.54	2281.44
777.72	2426.84
777.90	2242.53
778.07	2158.56
778.25	2621.40
778.43	2332.64
778.60	2121.70
778.78	2297.82
778.96	2314.20
779.13	2154.46
779.31	2367.45
779.49	2240.48
779.66	2281.44
779.84	2211.81
780.01	2226.14
780.19	2136.03
780.37	2406.36
780.54	2263.01
780.72	2146.27
780.90	2162.66
781.07	2281.44
781.25	2203.61
781.43	2273.25
781.60	2191.33
781.78	2373.60
781.95	2275.29
782.13	2150.37
782.31	2269.15
782.48	2062.30
782.66	2285.53
782.83	2424.80
783.01	2277.34
783.19	2396.12
783.36	2238.43
783.54	2115.55
783.72	2351.07
783.89	2170.85
784.07	2269.15
784.24	2224.09
784.42	2324.44
784.60	2271.20
784.77	2299.87
784.95	1980.39
785.12	2125.79
785.30	2250.72
785.47	2121.70
785.65	2172.89
785.83	2183.13
786.00	2228.19
786.18	2263.01
786.35	2123.74
786.53	2166.75
786.71	2353.12
786.88	2322.40
787.06	2303.96
787.23	2191.33
787.41	2199.52
787.58	2334.68
787.76	2146.27
787.94	2269.15
788.11	2265.05
788.29	2224.09
788.46	2248.67
788.64	2103.26
788.81	2172.89
788.99	2265.05
789.16	2113.50
789.34	2230.24
789.52	2170.85
789.69	2289.63
789.87	2037.73
790.04	2162.66
790.22	2260.96
790.39	2424.80
790.57	2133.98
790.74	2174.94
790.92	2365.40
791.09	2150.37
791.27	2275.29
791.44	2353.12
791.62	2265.05
791.79	2252.77
791.97	2234.33
792.15	2578.39
792.32	2287.58
792.50	2355.16
792.67	2375.64
792.85	2457.56
793.02	2232.29
793.20	2179.04
793.37	2179.04
793.55	2213.85
793.72	2191.33
793.90	2234.33
794.07	2195.42
794.25	2154.46
794.42	2236.38
794.60	2203.61
794.77	2301.92
794.95	2355.16
795.12	2287.58
795.30	2228.19
795.47	2045.92
795.65	2527.19
795.82	2297.82
796.00	2136.03
796.17	2252.77
796.34	2191.33
796.52	2322.40
796.69	2357.21
796.87	2283.49
797.04	2277.34
797.22	2293.72
797.39	2316.25
797.57	2359.26
797.74	2281.44
797.92	2353.12
798.09	2138.08
798.27	2349.02
798.44	2265.05
798.62	2125.79
798.79	2189.28
798.96	2310.11
799.14	2240.48
799.31	2500.57
799.49	2207.71
799.66	2146.27
799.84	2273.25
800.01	2160.61
800.19	2254.81
800.36	2103.26
800.53	2254.81
800.71	2211.81
800.88	2410.46
801.06	2289.63
801.23	2240.48
801.41	2220.00
801.58	2263.01
801.75	2246.62
801.93	2308.06
802.10	2320.35
802.28	2222.05
802.45	2224.09
802.63	2252.77
802.80	2414.56
802.97	2193.37
803.15	2236.38
803.32	2131.94
803.50	2226.14
803.67	2088.93
803.84	2211.81
804.02	2228.19
804.19	2275.29
804.37	2035.68
804.54	2068.45
804.71	2211.81
804.89	2260.96
805.06	2156.51
805.24	2207.71
805.41	2117.60
805.58	2207.71
805.76	2519.00
805.93	2224.09
806.10	2394.08
806.28	2326.49
806.45	2160.61
806.63	2283.49
806.80	2283.49
806.97	2226.14
807.15	2183.13
807.32	2220.00
807.49	2193.37
807.67	2117.60
807.84	2250.72
808.01	2125.79
808.19	2346.97
808.36	2430.94
808.54	2162.66
808.71	2131.94
808.88	2211.81
809.06	2375.64
809.23	2324.44
809.40	2187.23
809.58	2252.77
809.75	2248.67
809.92	2093.02
810.10	2457.56
810.27	2326.49
810.44	2330.59
810.62	2289.63
810.79	2246.62
810.96	2150.37
811.14	2234.33
811.31	2285.53
811.48	2373.60
811.66	2244.57
811.83	2443.23
812.00	2312.16
812.18	2289.63
812.35	2392.03
812.52	2176.99
812.69	2217.95
812.87	2138.08
813.04	2209.76
813.21	2228.19
813.39	2174.94
813.56	2197.47
813.73	2392.03
813.91	2158.56
814.08	2252.77
814.25	2193.37
814.42	2123.74
814.60	2211.81
814.77	2205.66
814.94	2252.77
815.12	2176.99
815.29	2367.45
815.46	2230.24
815.63	2263.01
815.81	2170.85
815.98	2222.05
816.15	2213.85
816.33	2258.91
816.50	2250.72
816.67	2252.77
816.84	2185.18
817.02	2162.66
817.19	2220.00
817.36	2373.60
817.53	2211.81
817.71	2217.95
817.88	2277.34
818.05	2133.98
818.22	2242.53
818.40	2439.13
818.57	2150.37
818.74	2297.82
818.91	2205.66
819.09	2326.49
819.26	2340.83
819.43	2205.66
819.60	2168.80
819.78	2293.72
819.95	2416.60
820.12	2144.22
820.29	2306.01
820.47	2314.20
820.64	2246.62
820.81	2158.56
820.98	2140.13
821.15	2258.91
821.33	2291.68
821.50	2119.65
821.67	2320.35
821.84	2252.77
822.02	2248.67
822.19	2328.54
822.36	2166.75
822.53	2213.85
822.70	2064.35
822.88	2260.96
823.05	2394.08
823.22	2275.29
823.39	2293.72
823.56	2308.06
823.74	2459.61
823.91	2138.08
824.08	2160.61
824.25	2160.61
824.42	2398.17
824.60	2138.08
824.77	2316.25
824.94	2246.62
825.11	2312.16
825.28	2162.66
825.45	2293.72
825.63	2236.38
825.80	2166.75
825.97	2281.44
826.14	2220.00
826.31	2070.50
826.48	2287.58
826.66	2123.74
826.83	2248.67
827.00	2193.37
827.17	2115.55
827.34	2252.77
827.51	2226.14
827.69	2222.05
827.86	2119.65
828.03	2228.19
828.20	2275.29
828.37	2144.22
828.54	2316.25
828.71	2107.36
828.89	2322.40
829.06	2336.73
829.23	2410.46
829.40	2146.27
829.57	2129.89
829.74	2371.55
829.91	2164.70
830.09	2283.49
830.26	2199.52
830.43	2449.37
830.60	2158.56
830.77	2234.33
830.94	2355.16
831.11	2326.49
831.28	2158.56
831.46	2316.25
831.63	2248.67
831.80	2277.34
831.97	2195.42
832.14	2140.13
832.31	2303.96
832.48	2258.91
832.65	2359.26
832.82	2248.67
832.99	2351.07
833.17	2119.65
833.34	2365.40
833.51	2310.11
833.68	2090.98
833.85	2357.21
834.02	2224.09
834.19	2105.31
834.36	2211.81
834.53	2209.76
834.70	2297.82
834.87	2310.11
835.04	2189.28
835.22	2193.37
835.39	2150.37
835.56	2117.60
835.73	2097.12
835.90	2342.88
836.07	2166.75
836.24	2299.87
836.41	2127.84
836.58	2150.37
836.75	2400.22
836.92	2211.81
837.09	2181.09
837.26	2260.96
837.43	2275.29
837.60	2277.34
837.77	2170.85
837.94	2349.02
838.12	2346.97
838.29	2224.09
838.46	2054.11
838.63	2105.31
838.80	2447.32
838.97	2164.70
839.14	2275.29
839.31	2193.37
839.48	2273.25
839.65	2193.37
839.82	2312.16
839.99	2283.49
840.16	2291.68
840.33	2074.59
840.50	2281.44
840.67	2144.22
840.84	2007.01
841.01	2273.25
841.18	2211.81
841.35	2244.57
841.52	2328.54
841.69	2369.50
841.86	2244.57
842.03	2215.90
842.20	2291.68
842.37	2203.61
842.54	2263.01
842.71	2232.29
842.88	2113.50
843.05	2148.32
843.22	2203.61
843.39	2361.31
843.56	2187.23
843.73	2248.67
843.90	2176.99
844.07	2281.44
844.24	2330.59
844.41	2277.34
844.58	2203.61
844.75	2234.33
844.92	2299.87
845.09	2203.61
845.26	2133.98
845.43	2375.64
845.60	2236.38
845.77	2230.24
845.94	2217.95
846.10	2310.11
846.27	2179.04
846.44	2207.71
846.61	2142.18
846.78	2260.96
846.95	2351.07
847.12	2195.42
847.29	2215.90
847.46	2166.75
847.63	2351.07
847.80	2228.19
847.97	2172.89
848.14	2445.27
848.31	2136.03
848.48	2154.46
848.65	2258.91
848.82	2201.57
848.98	2570.20
849.15	2297.82
849.32	2275.29
849.49	2355.16
849.66	2314.20
849.83	2185.18
850.00	2029.54
850.17	2285.53
850.34	2250.72
850.51	2082.78
850.68	2211.81
850.85	2480.09
851.01	2312.16
851.18	2183.13
851.35	2234.33
851.52	2367.45
851.69	2361.31
851.86	2117.60
852.03	2138.08
852.20	2332.64
852.37	2232.29
852.53	2074.59
852.70	2260.96
852.87	2310.11
853.04	2250.72
853.21	2254.81
853.38	2275.29
853.55	2392.03
853.72	2367.45
853.89	2136.03
854.05	2152.42
854.22	2222.05
854.39	2263.01
854.56	2310.11
854.73	2322.40
854.90	2226.14
855.07	2252.77
855.23	2191.33
855.40	2162.66
855.57	2179.04
855.74	2121.70
855.91	2416.60
856.08	2160.61
856.25	2095.07
856.41	2209.76
856.58	2174.94
856.75	2226.14
856.92	2174.94
857.09	2357.21
857.26	2072.54
857.42	2185.18
857.59	2328.54
857.76	2299.87
857.93	2281.44
858.10	2150.37
858.27	2152.42
858.43	2332.64
858.60	2095.07
858.77	2150.37
858.94	2158.56
859.11	2400.22
859.27	2236.38
859.44	2215.90
859.61	2414.56
859.78	2351.07
859.95	2164.70
860.12	2179.04
860.28	2443.23
860.45	2394.08
860.62	2170.85
860.79	2258.91
860.95	2254.81
861.12	2166.75
861.29	2154.46
861.46	2164.70
861.63	2258.91
861.79	2293.72
861.96	2144.22
862.13	2146.27
862.30	2414.56
862.47	2236.38
862.63	2146.27
862.80	2326.49
862.97	2379.74
863.14	2301.92
863.30	2279.39
863.47	2105.31
863.64	2375.64
863.81	2240.48
863.97	2156.51
864.14	2195.42
864.31	2142.18
864.48	2215.90
864.65	2230.24
864.81	2322.40
864.98	2326.49
865.15	2340.83
865.32	2193.37
865.48	2371.55
865.65	2402.27
865.82	2209.76
865.98	2281.44
866.15	2236.38
866.32	2215.90
866.49	2230.24
866.65	2334.68
866.82	2195.42
866.99	2148.32
867.16	2199.52
867.32	2181.09
867.49	2199.52
867.66	2199.52
867.83	2209.76
867.99	2060.26
868.16	2203.61
868.33	2131.94
868.49	2215.90
868.66	2205.66
868.83	2287.58
868.99	2236.38
869.16	2252.77
869.33	2269.15
869.50	2277.34
869.66	2338.78
869.83	2172.89
870.00	2080.74
870.16	2281.44
870.33	2164.70
870.50	2318.30
870.66	2207.71
870.83	2344.92
871.00	2240.48
871.17	2293.72
871.33	2183.13
871.50	2215.90
871.67	2195.42
871.83	2199.52
872.00	2344.92
872.17	2176.99
872.33	2396.12
872.50	2324.44
872.67	2228.19
872.83	2140.13
873.00	2355.16
873.17	2252.77
873.33	2336.73
873.50	2330.59
873.67	2148.32
873.83	2179.04
874.00	2248.67
874.16	2365.40
874.33	2269.15
874.50	2093.02
874.66	2185.18
874.83	2205.66
875.00	2383.84
875.16	2308.06
875.33	2248.67
875.50	2047.97
875.66	2154.46
875.83	2256.86
875.99	2258.91
876.16	2232.29
876.33	2211.81
876.49	2199.52
876.66	2183.13
876.83	2213.85
876.99	2168.80
877.16	2209.76
877.32	2195.42
877.49	2136.03
877.66	2303.96
877.82	2422.75
877.99	2330.59
878.15	2299.87
878.32	2316.25
878.49	2287.58
878.65	2174.94
878.82	2406.36
878.98	2203.61
879.15	2363.36
879.32	2301.92
879.48	2254.81
879.65	2215.90
879.81	2213.85
879.98	2056.16
880.15	2117.60
880.31	2299.87
880.48	2187.23
880.64	2338.78
880.81	2301.92
880.97	2428.89
881.14	2322.40
881.31	2084.83
881.47	2426.84
881.64	2287.58
881.80	2146.27
881.97	2260.96
882.13	2277.34
882.30	2150.37
882.47	2220.00
882.63	2103.26
882.80	2105.31
882.96	2228.19
883.13	2406.36
883.29	2250.72
883.46	2242.53
883.62	2416.60
883.79	2283.49
883.95	2285.53
884.12	2156.51
884.29	2293.72
884.45	2287.58
884.62	2205.66
884.78	2127.84
884.95	2383.84
885.11	2123.74
885.28	2248.67
885.44	2183.13
885.61	2308.06
885.77	2340.83
885.94	2293.72
886.10	2166.75
886.27	2260.96
886.43	2367.45
886.60	2322.40
886.76	2168.80
886.93	2144.22
887.09	2260.96
887.26	2023.39
887.42	2265.05
887.59	2349.02
887.75	2498.52
887.92	2306.01
888.08	2287.58
888.25	2398.17
888.41	2334.68
888.58	2275.29
888.74	2179.04
888.91	2162.66
>>>>>End Processed Spectral Data<<<<<
