SpectraSuite Data File
++++++++++++++++++++++++++++++++++++
Date: Thu May 05 13:20:37 CEST 2016
User: root
Dark Spectrum Present: No
Reference Spectrum Present: No
Number of Sampled Component Spectra: 1
Spectrometers: USB4C02835
Integration Time (usec): 100000 (USB4C02835)
Spectra Averaged: 1 (USB4C02835)
Boxcar Smoothing: 0 (USB4C02835)
Correct for Electrical Dark: No (USB4C02835)
Strobe/Lamp Enabled: No (USB4C02835)
Correct for Detector Non-linearity: No (USB4C02835)
Correct for Stray Light: No (USB4C02835)
Number of Pixels in Processed Spectrum: 3648
>>>>>Begin Processed Spectral Data<<<<<
177.47	1806.31
177.69	1806.31
177.91	1806.31
178.13	1818.60
178.36	1820.64
178.58	2080.74
178.80	2217.95
179.02	2179.04
179.24	2140.13
179.46	2154.46
179.68	2193.37
179.90	2195.42
180.13	2209.76
180.35	2113.50
180.57	2125.79
180.79	2392.03
181.01	2248.67
181.23	2269.15
181.45	2299.87
181.67	2351.07
181.90	2265.05
182.12	2242.53
182.34	2080.74
182.56	2248.67
182.78	2355.16
183.00	2136.03
183.22	2303.96
183.44	2074.59
183.66	2373.60
183.89	2285.53
184.11	2187.23
184.33	2277.34
184.55	2389.98
184.77	2185.18
184.99	2138.08
185.21	2213.85
185.43	2432.99
185.65	2146.27
185.87	2152.42
186.10	2480.09
186.32	2580.44
186.54	2314.20
186.76	2246.62
186.98	2316.25
187.20	2279.39
187.42	2183.13
187.64	2170.85
187.86	2275.29
188.08	2359.26
188.30	2082.78
188.52	2220.00
188.75	2385.88
188.97	2373.60
189.19	2183.13
189.41	2187.23
189.63	2316.25
189.85	2224.09
190.07	2041.82
190.29	2109.41
190.51	2291.68
190.73	2109.41
190.95	2322.40
191.17	2140.13
191.39	2121.70
191.61	2162.66
191.84	2209.76
192.06	2271.20
192.28	2129.89
192.50	2635.74
192.72	2158.56
192.94	2148.32
193.16	2410.46
193.38	2285.53
193.60	2133.98
193.82	2156.51
194.04	2357.21
194.26	2236.38
194.48	2185.18
194.70	2150.37
194.92	2146.27
195.14	2289.63
195.36	2187.23
195.58	2203.61
195.80	2279.39
196.02	2127.84
196.24	2236.38
196.46	2248.67
196.69	2170.85
196.91	2457.56
197.13	2187.23
197.35	2181.09
197.57	2467.80
197.79	2340.83
198.01	2187.23
198.23	2269.15
198.45	2359.26
198.67	2183.13
198.89	2125.79
199.11	2240.48
199.33	2281.44
199.55	2080.74
199.77	2129.89
199.99	2316.25
200.21	2168.80
200.43	2224.09
200.65	2140.13
200.87	1988.58
201.09	2195.42
201.31	2211.81
201.53	2258.91
201.75	2275.29
201.97	2283.49
202.19	2220.00
202.41	2260.96
202.63	2408.41
202.85	2318.30
203.07	2277.34
203.29	2138.08
203.51	2099.17
203.73	2164.70
203.95	2488.28
204.17	2207.71
204.39	2265.05
204.61	2207.71
204.83	2193.37
205.05	2254.81
205.27	2252.77
205.49	2512.86
205.71	2232.29
205.93	2123.74
206.15	2138.08
206.37	2301.92
206.59	2289.63
206.81	2043.87
207.03	2090.98
207.25	2146.27
207.47	2328.54
207.69	2199.52
207.91	2379.74
208.13	2316.25
208.34	2148.32
208.56	2148.32
208.78	2201.57
209.00	2172.89
209.22	2226.14
209.44	2193.37
209.66	2146.27
209.88	2187.23
210.10	2179.04
210.32	2150.37
210.54	2248.67
210.76	2238.43
210.98	2373.60
211.20	2047.97
211.42	2287.58
211.64	2361.31
211.86	2232.29
212.08	2258.91
212.30	2195.42
212.52	2193.37
212.74	2332.64
212.96	2193.37
213.17	2256.86
213.39	2344.92
213.61	2383.84
213.83	2164.70
214.05	2179.04
214.27	2373.60
214.49	2193.37
214.71	2086.88
214.93	2260.96
215.15	2267.10
215.37	2326.49
215.59	2035.68
215.81	2230.24
216.03	2330.59
216.24	2263.01
216.46	2138.08
216.68	2228.19
216.90	2375.64
217.12	2349.02
217.34	2056.16
217.56	2215.90
217.78	2346.97
218.00	2273.25
218.22	2228.19
218.44	2324.44
218.66	2324.44
218.87	2457.56
219.09	2062.30
219.31	2236.38
219.53	2310.11
219.75	2215.90
219.97	2265.05
220.19	2228.19
220.41	2283.49
220.63	2404.32
220.85	2185.18
221.06	2168.80
221.28	2389.98
221.50	2293.72
221.72	2156.51
221.94	2170.85
222.16	2301.92
222.38	2246.62
222.60	2195.42
222.82	2187.23
223.03	2396.12
223.25	2138.08
223.47	2197.47
223.69	2346.97
223.91	2299.87
224.13	2217.95
224.35	2125.79
224.57	2344.92
224.78	2289.63
225.00	2121.70
225.22	2166.75
225.44	2244.57
225.66	2236.38
225.88	2211.81
226.10	2301.92
226.32	2242.53
226.53	2465.75
226.75	2215.90
226.97	2162.66
227.19	2230.24
227.41	2183.13
227.63	2150.37
227.85	2072.54
228.06	2258.91
228.28	2252.77
228.50	2336.73
228.72	2088.93
228.94	2146.27
229.16	2105.31
229.37	2144.22
229.59	2131.94
229.81	2330.59
230.03	2189.28
230.25	2220.00
230.47	2072.54
230.69	2129.89
230.90	2303.96
231.12	2146.27
231.34	2170.85
231.56	2205.66
231.78	2154.46
232.00	2252.77
232.21	2066.40
232.43	2179.04
232.65	2013.15
232.87	2330.59
233.09	2160.61
233.30	2183.13
233.52	2324.44
233.74	2230.24
233.96	2168.80
234.18	2222.05
234.40	2240.48
234.61	2598.87
234.83	2133.98
235.05	2058.21
235.27	2523.10
235.49	2363.36
235.70	2150.37
235.92	2263.01
236.14	2250.72
236.36	2537.43
236.58	2101.22
236.79	2275.29
237.01	2285.53
237.23	2217.95
237.45	2365.40
237.67	2097.12
237.88	2310.11
238.10	2389.98
238.32	2133.98
238.54	2156.51
238.76	2279.39
238.97	2183.13
239.19	2072.54
239.41	2279.39
239.63	2334.68
239.85	2246.62
240.06	2105.31
240.28	2191.33
240.50	2291.68
240.72	2246.62
240.93	2205.66
241.15	2308.06
241.37	2168.80
241.59	2392.03
241.81	2211.81
242.02	2244.57
242.24	2353.12
242.46	2377.69
242.68	2072.54
242.89	2084.83
243.11	2291.68
243.33	2185.18
243.55	2252.77
243.76	2215.90
243.98	2170.85
244.20	2189.28
244.42	2189.28
244.64	2172.89
244.85	2127.84
245.07	2164.70
245.29	2191.33
245.51	2150.37
245.72	2269.15
245.94	2320.35
246.16	2220.00
246.38	2154.46
246.59	2199.52
246.81	2150.37
247.03	2129.89
247.24	2064.35
247.46	2209.76
247.68	2258.91
247.90	2047.97
248.11	2133.98
248.33	2308.06
248.55	2238.43
248.77	2181.09
248.98	2267.10
249.20	2408.41
249.42	2289.63
249.64	2254.81
249.85	2156.51
250.07	2166.75
250.29	2355.16
250.50	2254.81
250.72	2004.96
250.94	2297.82
251.16	2449.37
251.37	2166.75
251.59	2230.24
251.81	2287.58
252.02	2361.31
252.24	2109.41
252.46	2285.53
252.68	2105.31
252.89	2062.30
253.11	2011.11
253.33	2269.15
253.54	2420.70
253.76	2189.28
253.98	2160.61
254.20	2146.27
254.41	2099.17
254.63	2240.48
254.85	2078.69
255.06	2140.13
255.28	2228.19
255.50	2209.76
255.71	2162.66
255.93	2064.35
256.15	2258.91
256.36	2402.27
256.58	2097.12
256.80	2230.24
257.02	2183.13
257.23	2195.42
257.45	2207.71
257.67	2250.72
257.88	2115.55
258.10	2244.57
258.32	2187.23
258.53	2179.04
258.75	2387.93
258.97	2295.77
259.18	2183.13
259.40	2181.09
259.62	2428.89
259.83	2404.32
260.05	2179.04
260.27	2607.06
260.48	2357.21
260.70	2121.70
260.92	2129.89
261.13	2203.61
261.35	2318.30
261.57	2346.97
261.78	2066.40
262.00	2117.60
262.22	2269.15
262.43	2176.99
262.65	2170.85
262.86	2224.09
263.08	2547.67
263.30	2224.09
263.51	2056.16
263.73	2111.46
263.95	2441.18
264.16	2250.72
264.38	2047.97
264.60	2203.61
264.81	2238.43
265.03	2424.80
265.25	2326.49
265.46	2117.60
265.68	2404.32
265.89	2310.11
266.11	2086.88
266.33	2140.13
266.54	2396.12
266.76	2318.30
266.98	2267.10
267.19	2260.96
267.41	2324.44
267.62	2265.05
267.84	2015.20
268.06	2244.57
268.27	2285.53
268.49	2322.40
268.70	2248.67
268.92	2260.96
269.14	2148.32
269.35	2054.11
269.57	2240.48
269.79	2326.49
270.00	2211.81
270.22	2404.32
270.43	2166.75
270.65	1978.34
270.87	2246.62
271.08	2328.54
271.30	2295.77
271.51	2191.33
271.73	2351.07
271.95	2392.03
272.16	2164.70
272.38	2277.34
272.59	2138.08
272.81	2328.54
273.02	2168.80
273.24	2152.42
273.46	2406.36
273.67	2181.09
273.89	2088.93
274.10	2119.65
274.32	2316.25
274.54	2197.47
274.75	2207.71
274.97	2267.10
275.18	2359.26
275.40	2328.54
275.61	2195.42
275.83	2277.34
276.05	2189.28
276.26	2299.87
276.48	2269.15
276.69	2283.49
276.91	2273.25
277.12	2385.88
277.34	2303.96
277.55	2342.88
277.77	2344.92
277.99	2248.67
278.20	2136.03
278.42	2088.93
278.63	2168.80
278.85	2211.81
279.06	2158.56
279.28	2234.33
279.49	2293.72
279.71	2322.40
279.93	2224.09
280.14	2291.68
280.36	2191.33
280.57	2367.45
280.79	2340.83
281.00	2138.08
281.22	2179.04
281.43	2297.82
281.65	2041.82
281.86	2078.69
282.08	2236.38
282.29	2480.09
282.51	2097.12
282.73	2203.61
282.94	2121.70
283.16	2330.59
283.37	2351.07
283.59	2238.43
283.80	2248.67
284.02	2273.25
284.23	2258.91
284.45	2140.13
284.66	2203.61
284.88	2176.99
285.09	2267.10
285.31	2230.24
285.52	2375.64
285.74	2072.54
285.95	2322.40
286.17	2211.81
286.38	2365.40
286.60	2197.47
286.81	2125.79
287.03	2168.80
287.24	2228.19
287.46	2408.41
287.67	2191.33
287.89	2324.44
288.10	2236.38
288.32	2297.82
288.53	2373.60
288.75	2232.29
288.96	2328.54
289.18	2265.05
289.39	2101.22
289.61	2326.49
289.82	2494.43
290.04	2455.51
290.25	2187.23
290.47	2287.58
290.68	2269.15
290.90	2344.92
291.11	2125.79
291.33	2328.54
291.54	2176.99
291.76	2183.13
291.97	2303.96
292.18	2279.39
292.40	2238.43
292.61	2236.38
292.83	2453.47
293.04	2279.39
293.26	2297.82
293.47	2258.91
293.69	2093.02
293.90	2158.56
294.12	2344.92
294.33	2234.33
294.55	2273.25
294.76	2334.68
294.97	2389.98
295.19	2566.10
295.40	2193.37
295.62	2236.38
295.83	2355.16
296.05	2203.61
296.26	2287.58
296.48	2162.66
296.69	2281.44
296.90	2215.90
297.12	2336.73
297.33	2242.53
297.55	2275.29
297.76	2301.92
297.98	2297.82
298.19	2236.38
298.41	2269.15
298.62	2129.89
298.83	2373.60
299.05	2275.29
299.26	2207.71
299.48	2107.36
299.69	2351.07
299.90	2160.61
300.12	2127.84
300.33	2258.91
300.55	2275.29
300.76	2217.95
300.98	2121.70
301.19	2301.92
301.40	2121.70
301.62	2115.55
301.83	2258.91
302.05	2265.05
302.26	2211.81
302.47	2269.15
302.69	2144.22
302.90	2297.82
303.12	2070.50
303.33	2242.53
303.54	2463.71
303.76	2164.70
303.97	2170.85
304.19	2324.44
304.40	2185.18
304.61	2273.25
304.83	2375.64
305.04	2246.62
305.26	2275.29
305.47	2168.80
305.68	2189.28
305.90	2203.61
306.11	2355.16
306.33	2166.75
306.54	2211.81
306.75	2181.09
306.97	2133.98
307.18	2146.27
307.39	2232.29
307.61	2303.96
307.82	2174.94
308.04	2230.24
308.25	2136.03
308.46	2215.90
308.68	2236.38
308.89	2277.34
309.10	2281.44
309.32	2289.63
309.53	2203.61
309.74	2383.84
309.96	2138.08
310.17	2367.45
310.39	2248.67
310.60	2285.53
310.81	2154.46
311.03	2117.60
311.24	2377.69
311.45	2258.91
311.67	2430.94
311.88	2263.01
312.09	2207.71
312.31	2170.85
312.52	2181.09
312.73	2273.25
312.95	2097.12
313.16	2119.65
313.37	2310.11
313.59	2226.14
313.80	2320.35
314.01	2432.99
314.23	2187.23
314.44	2121.70
314.65	2199.52
314.87	2252.77
315.08	2158.56
315.29	2201.57
315.51	2189.28
315.72	2045.92
315.93	2316.25
316.15	2365.40
316.36	2174.94
316.57	2230.24
316.79	2293.72
317.00	2207.71
317.21	2334.68
317.43	2168.80
317.64	2293.72
317.85	2179.04
318.07	2064.35
318.28	2252.77
318.49	2371.55
318.70	2480.09
318.92	2420.70
319.13	2420.70
319.34	2459.61
319.56	2312.16
319.77	2312.16
319.98	2349.02
320.20	2377.69
320.41	2338.78
320.62	2314.20
320.83	2138.08
321.05	2516.95
321.26	2228.19
321.47	2224.09
321.69	2365.40
321.90	2183.13
322.11	2201.57
322.32	2265.05
322.54	2383.84
322.75	2244.57
322.96	2500.57
323.18	2088.93
323.39	2117.60
323.60	2088.93
323.81	2314.20
324.03	2232.29
324.24	2205.66
324.45	2279.39
324.66	2234.33
324.88	2443.23
325.09	2379.74
325.30	2256.86
325.52	2183.13
325.73	2240.48
325.94	2129.89
326.15	2041.82
326.37	2187.23
326.58	2322.40
326.79	2342.88
327.00	2146.27
327.22	2224.09
327.43	2199.52
327.64	2293.72
327.85	2228.19
328.07	2222.05
328.28	2437.08
328.49	2215.90
328.70	2179.04
328.92	2201.57
329.13	2256.86
329.34	2285.53
329.55	2375.64
329.76	2291.68
329.98	2205.66
330.19	2449.37
330.40	2252.77
330.61	2275.29
330.83	2322.40
331.04	2197.47
331.25	2375.64
331.46	2213.85
331.68	2054.11
331.89	2301.92
332.10	2217.95
332.31	2064.35
332.52	2211.81
332.74	2355.16
332.95	2056.16
333.16	2203.61
333.37	2367.45
333.58	2185.18
333.80	2238.43
334.01	2045.92
334.22	2230.24
334.43	2242.53
334.64	2179.04
334.86	2142.18
335.07	2234.33
335.28	2342.88
335.49	2078.69
335.70	2269.15
335.92	2363.36
336.13	2510.81
336.34	2273.25
336.55	2263.01
336.76	2281.44
336.98	2029.54
337.19	2181.09
337.40	2363.36
337.61	2531.29
337.82	2166.75
338.04	2314.20
338.25	2111.46
338.46	2213.85
338.67	2226.14
338.88	2142.18
339.09	2088.93
339.31	2228.19
339.52	2138.08
339.73	2168.80
339.94	2195.42
340.15	2383.84
340.36	2158.56
340.58	2217.95
340.79	2172.89
341.00	2318.30
341.21	2074.59
341.42	2334.68
341.63	2217.95
341.85	2392.03
342.06	2334.68
342.27	2111.46
342.48	2326.49
342.69	2166.75
342.90	2203.61
343.12	2367.45
343.33	2207.71
343.54	2392.03
343.75	2383.84
343.96	2179.04
344.17	2088.93
344.38	2215.90
344.60	2197.47
344.81	2133.98
345.02	2195.42
345.23	2365.40
345.44	2457.56
345.65	2326.49
345.86	2263.01
346.07	2185.18
346.29	2162.66
346.50	2287.58
346.71	2265.05
346.92	2428.89
347.13	2500.57
347.34	2156.51
347.55	2179.04
347.76	2279.39
347.98	2127.84
348.19	2220.00
348.40	2396.12
348.61	2174.94
348.82	2394.08
349.03	2342.88
349.24	2166.75
349.45	2402.27
349.66	2068.45
349.88	2234.33
350.09	2174.94
350.30	2424.80
350.51	2367.45
350.72	2248.67
350.93	2254.81
351.14	2234.33
351.35	2316.25
351.56	2246.62
351.77	2263.01
351.99	2322.40
352.20	2387.93
352.41	2402.27
352.62	2074.59
352.83	2224.09
353.04	2234.33
353.25	2160.61
353.46	2316.25
353.67	2367.45
353.88	2070.50
354.09	2236.38
354.30	2160.61
354.52	2312.16
354.73	2269.15
354.94	2170.85
355.15	2144.22
355.36	2432.99
355.57	2211.81
355.78	2289.63
355.99	2301.92
356.20	2269.15
356.41	2453.47
356.62	2275.29
356.83	2234.33
357.04	2435.03
357.25	2166.75
357.46	2160.61
357.68	2101.22
357.89	2113.50
358.10	2260.96
358.31	2267.10
358.52	2199.52
358.73	2162.66
358.94	2133.98
359.15	2193.37
359.36	2289.63
359.57	2226.14
359.78	2301.92
359.99	2353.12
360.20	2121.70
360.41	2209.76
360.62	2256.86
360.83	2226.14
361.04	2224.09
361.25	2260.96
361.46	2346.97
361.67	2324.44
361.88	2379.74
362.09	2389.98
362.30	2303.96
362.51	2127.84
362.72	2281.44
362.93	2392.03
363.14	2420.70
363.35	2226.14
363.56	2162.66
363.78	2373.60
363.99	2392.03
364.20	2146.27
364.41	2234.33
364.62	2486.23
364.83	2306.01
365.04	2183.13
365.25	2279.39
365.46	2486.23
365.67	2191.33
365.88	2232.29
366.09	2183.13
366.30	2154.46
366.51	2281.44
366.72	2093.02
366.93	2252.77
367.14	2256.86
367.35	2328.54
367.56	2244.57
367.77	2363.36
367.98	2162.66
368.18	2316.25
368.39	2324.44
368.60	2191.33
368.81	2287.58
369.02	2355.16
369.23	2197.47
369.44	2127.84
369.65	2273.25
369.86	2377.69
370.07	2275.29
370.28	2121.70
370.49	2326.49
370.70	2258.91
370.91	2066.40
371.12	2109.41
371.33	2375.64
371.54	2189.28
371.75	2375.64
371.96	1998.82
372.17	2340.83
372.38	2293.72
372.59	2324.44
372.80	2220.00
373.01	2209.76
373.22	2250.72
373.43	2189.28
373.64	2088.93
373.85	2381.79
374.06	2410.46
374.26	2365.40
374.47	2330.59
374.68	2373.60
374.89	2226.14
375.10	2185.18
375.31	2367.45
375.52	2265.05
375.73	2351.07
375.94	2097.12
376.15	2363.36
376.36	2187.23
376.57	2209.76
376.78	2201.57
376.99	2281.44
377.20	2322.40
377.40	2146.27
377.61	2404.32
377.82	2209.76
378.03	2412.51
378.24	2310.11
378.45	2211.81
378.66	2211.81
378.87	2015.20
379.08	2160.61
379.29	2187.23
379.50	2342.88
379.71	2222.05
379.91	2295.77
380.12	2215.90
380.33	2189.28
380.54	2160.61
380.75	2170.85
380.96	2258.91
381.17	2314.20
381.38	2250.72
381.59	2285.53
381.80	2301.92
382.00	2404.32
382.21	2273.25
382.42	2471.90
382.63	2480.09
382.84	2285.53
383.05	2326.49
383.26	2467.80
383.47	2295.77
383.68	2273.25
383.88	2297.82
384.09	2271.20
384.30	2314.20
384.51	2291.68
384.72	2191.33
384.93	2119.65
385.14	2258.91
385.35	2308.06
385.55	2123.74
385.76	2351.07
385.97	2209.76
386.18	2129.89
386.39	2154.46
386.60	2201.57
386.81	2209.76
387.02	2168.80
387.22	2138.08
387.43	2301.92
387.64	2291.68
387.85	2369.50
388.06	2523.10
388.27	3993.54
388.48	8116.10
388.68	11874.12
388.89	14024.49
389.10	15312.66
389.31	14202.66
389.52	11048.79
389.73	9494.38
389.93	8597.37
390.14	7935.88
390.35	7032.72
390.56	6379.42
390.77	5248.94
390.98	3968.96
391.18	3153.87
391.39	2815.96
391.60	2383.84
391.81	2308.06
392.02	2220.00
392.23	2500.57
392.43	2312.16
392.64	2338.78
392.85	2252.77
393.06	2428.89
393.27	2269.15
393.47	2170.85
393.68	2291.68
393.89	2258.91
394.10	2351.07
394.31	2232.29
394.52	2148.32
394.72	2228.19
394.93	2451.42
395.14	2123.74
395.35	2312.16
395.56	2185.18
395.76	2215.90
395.97	2328.54
396.18	2400.22
396.39	2365.40
396.60	2715.61
396.80	2432.99
397.01	2355.16
397.22	2412.51
397.43	2408.41
397.64	2138.08
397.84	2361.31
398.05	2523.10
398.26	2263.01
398.47	2316.25
398.67	2375.64
398.88	2199.52
399.09	2316.25
399.30	2183.13
399.51	2338.78
399.71	2236.38
399.92	2224.09
400.13	2289.63
400.34	2179.04
400.54	2256.86
400.75	2426.84
400.96	2273.25
401.17	2381.79
401.37	2289.63
401.58	2209.76
401.79	2254.81
402.00	2408.41
402.21	2580.44
402.41	2478.04
402.62	2592.73
402.83	2686.94
403.04	2736.09
403.24	2727.89
403.45	2400.22
403.66	2473.95
403.87	2574.30
404.07	2564.06
404.28	2519.00
404.49	2441.18
404.70	2351.07
404.90	2359.26
405.11	2260.96
405.32	2316.25
405.52	2179.04
405.73	2209.76
405.94	2152.42
406.15	2289.63
406.35	2287.58
406.56	2312.16
406.77	2277.34
406.98	2289.63
407.18	2207.71
407.39	2445.27
407.60	2271.20
407.80	2293.72
408.01	2203.61
408.22	2236.38
408.43	2236.38
408.63	2238.43
408.84	2365.40
409.05	2418.65
409.25	2154.46
409.46	2133.98
409.67	2273.25
409.88	2242.53
410.08	2324.44
410.29	2283.49
410.50	2310.11
410.70	2199.52
410.91	2113.50
411.12	2265.05
411.32	2351.07
411.53	2164.70
411.74	2420.70
411.95	2314.20
412.15	2281.44
412.36	2416.60
412.57	2271.20
412.77	2340.83
412.98	2244.57
413.19	2226.14
413.39	2299.87
413.60	2285.53
413.81	2392.03
414.01	2191.33
414.22	2346.97
414.43	2381.79
414.63	2181.09
414.84	2383.84
415.05	2285.53
415.25	2133.98
415.46	2289.63
415.67	2170.85
415.87	2211.81
416.08	2244.57
416.29	2271.20
416.49	2256.86
416.70	2193.37
416.91	2138.08
417.11	2189.28
417.32	2398.17
417.53	2400.22
417.73	2263.01
417.94	2183.13
418.15	2283.49
418.35	2252.77
418.56	2283.49
418.77	2432.99
418.97	2224.09
419.18	2244.57
419.38	2052.06
419.59	2299.87
419.80	2363.36
420.00	2213.85
420.21	2189.28
420.42	2295.77
420.62	2273.25
420.83	2138.08
421.04	2211.81
421.24	2244.57
421.45	2308.06
421.65	2353.12
421.86	2189.28
422.07	2363.36
422.27	2316.25
422.48	2281.44
422.69	2174.94
422.89	2250.72
423.10	2248.67
423.30	2168.80
423.51	2277.34
423.72	2293.72
423.92	2293.72
424.13	2176.99
424.33	2199.52
424.54	2332.64
424.75	2203.61
424.95	2392.03
425.16	2320.35
425.36	2215.90
425.57	2361.31
425.78	2334.68
425.98	2342.88
426.19	2244.57
426.39	2117.60
426.60	2283.49
426.81	2424.80
427.01	2299.87
427.22	2256.86
427.42	2019.30
427.63	2197.47
427.83	2324.44
428.04	2445.27
428.25	2306.01
428.45	2449.37
428.66	2435.03
428.86	2226.14
429.07	2258.91
429.28	2240.48
429.48	2185.18
429.69	2179.04
429.89	2275.29
430.10	2138.08
430.30	2240.48
430.51	2344.92
430.71	2295.77
430.92	2256.86
431.13	2162.66
431.33	2412.51
431.54	2238.43
431.74	2377.69
431.95	2482.14
432.15	2164.70
432.36	2285.53
432.56	2234.33
432.77	2439.13
432.98	2467.80
433.18	2265.05
433.39	2213.85
433.59	2195.42
433.80	2480.09
434.00	2484.19
434.21	2205.66
434.41	2258.91
434.62	2494.43
434.82	2133.98
435.03	2125.79
435.23	2297.82
435.44	2078.69
435.64	2263.01
435.85	2326.49
436.06	2293.72
436.26	2392.03
436.47	2250.72
436.67	2220.00
436.88	2197.47
437.08	2400.22
437.29	2400.22
437.49	2258.91
437.70	2387.93
437.90	2215.90
438.11	2412.51
438.31	2285.53
438.52	2406.36
438.72	2383.84
438.93	2500.57
439.13	2277.34
439.34	2420.70
439.54	2211.81
439.75	2322.40
439.95	2330.59
440.16	2242.53
440.36	2240.48
440.57	2349.02
440.77	2267.10
440.98	2295.77
441.18	2346.97
441.39	2193.37
441.59	2158.56
441.80	2457.56
442.00	2277.34
442.21	2326.49
442.41	2105.31
442.62	2320.35
442.82	2265.05
443.02	2234.33
443.23	2344.92
443.43	2263.01
443.64	2365.40
443.84	2195.42
444.05	2363.36
444.25	2250.72
444.46	2263.01
444.66	2185.18
444.87	2439.13
445.07	2072.54
445.28	2224.09
445.48	2371.55
445.69	2281.44
445.89	2508.76
446.09	2263.01
446.30	2559.96
446.50	2809.81
446.71	4423.61
446.91	5517.23
447.12	6377.37
447.32	6674.33
447.53	6334.37
447.73	5130.16
447.93	4462.52
448.14	4208.58
448.34	4059.07
448.55	3571.66
448.75	3545.03
448.96	3440.59
449.16	3063.76
449.36	2879.44
449.57	2582.49
449.77	2314.20
449.98	2326.49
450.18	2375.64
450.39	2338.78
450.59	2363.36
450.79	2242.53
451.00	2199.52
451.20	2353.12
451.41	2256.86
451.61	2312.16
451.81	2176.99
452.02	2232.29
452.22	2199.52
452.43	2220.00
452.63	2220.00
452.84	2293.72
453.04	2228.19
453.24	2220.00
453.45	2203.61
453.65	2301.92
453.86	2228.19
454.06	2353.12
454.26	2224.09
454.47	2097.12
454.67	2430.94
454.87	2281.44
455.08	2293.72
455.28	2385.88
455.49	2320.35
455.69	2179.04
455.89	2572.25
456.10	2410.46
456.30	2230.24
456.51	2326.49
456.71	2232.29
456.91	2271.20
457.12	2260.96
457.32	2306.01
457.52	2185.18
457.73	2320.35
457.93	2338.78
458.14	2209.76
458.34	2101.22
458.54	2226.14
458.75	2242.53
458.95	2334.68
459.15	2269.15
459.36	2244.57
459.56	2308.06
459.76	2471.90
459.97	2285.53
460.17	2201.57
460.37	2365.40
460.58	2220.00
460.78	2328.54
460.99	2201.57
461.19	2293.72
461.39	2176.99
461.60	2252.77
461.80	2244.57
462.00	2195.42
462.21	2230.24
462.41	2203.61
462.61	2213.85
462.82	2062.30
463.02	2320.35
463.22	2275.29
463.43	2371.55
463.63	2254.81
463.83	2418.65
464.04	2299.87
464.24	2224.09
464.44	2222.05
464.64	2277.34
464.85	2269.15
465.05	2383.84
465.25	2293.72
465.46	2170.85
465.66	2248.67
465.86	2349.02
466.07	2351.07
466.27	2289.63
466.47	2146.27
466.68	2136.03
466.88	2389.98
467.08	2293.72
467.29	2361.31
467.49	2316.25
467.69	2293.72
467.89	2334.68
468.10	2234.33
468.30	2220.00
468.50	2359.26
468.71	2408.41
468.91	2166.75
469.11	2396.12
469.31	2267.10
469.52	2158.56
469.72	2435.03
469.92	2420.70
470.13	2205.66
470.33	2301.92
470.53	2252.77
470.73	2682.84
470.94	3049.43
471.14	3129.30
471.34	3569.61
471.54	3416.01
471.75	3114.96
471.95	2842.58
472.15	2750.42
472.36	2777.05
472.56	2674.65
472.76	2699.22
472.96	2633.69
473.17	2635.74
473.37	2455.51
473.57	2346.97
473.77	2467.80
473.98	2224.09
474.18	2197.47
474.38	2582.49
474.58	2232.29
474.79	2203.61
474.99	2330.59
475.19	2424.80
475.39	2150.37
475.60	2273.25
475.80	2250.72
476.00	2344.92
476.20	2289.63
476.41	2308.06
476.61	2318.30
476.81	2334.68
477.01	2238.43
477.21	2498.52
477.42	2322.40
477.62	2117.60
477.82	2308.06
478.02	2203.61
478.23	2316.25
478.43	2093.02
478.63	2228.19
478.83	2340.83
479.03	2226.14
479.24	2326.49
479.44	2428.89
479.64	2252.77
479.84	2127.84
480.04	2220.00
480.25	2371.55
480.45	2185.18
480.65	2226.14
480.85	2422.75
481.06	2220.00
481.26	2299.87
481.46	2318.30
481.66	2283.49
481.86	2205.66
482.06	2351.07
482.27	2217.95
482.47	2234.33
482.67	2293.72
482.87	2283.49
483.07	2375.64
483.28	2162.66
483.48	2146.27
483.68	2242.53
483.88	2113.50
484.08	2095.07
484.29	2074.59
484.49	2291.68
484.69	2127.84
484.89	2408.41
485.09	2316.25
485.29	2244.57
485.50	2342.88
485.70	2273.25
485.90	2316.25
486.10	2314.20
486.30	2275.29
486.50	2326.49
486.71	2260.96
486.91	2367.45
487.11	2310.11
487.31	2095.07
487.51	2283.49
487.71	2185.18
487.91	2220.00
488.12	2174.94
488.32	2031.58
488.52	2260.96
488.72	2021.35
488.92	2285.53
489.12	2383.84
489.32	2342.88
489.53	2326.49
489.73	2117.60
489.93	2523.10
490.13	2138.08
490.33	2113.50
490.53	2293.72
490.73	2357.21
490.94	2113.50
491.14	2357.21
491.34	2351.07
491.54	2535.39
491.74	3184.59
491.94	3694.54
492.14	4114.37
492.34	4089.79
492.54	3784.65
492.75	3211.22
492.95	3239.89
493.15	3014.61
493.35	2938.84
493.55	2938.84
493.75	2799.57
493.95	2766.81
494.15	2555.86
494.35	2373.60
494.56	2385.88
494.76	2285.53
494.96	2396.12
495.16	2314.20
495.36	2205.66
495.56	2334.68
495.76	2195.42
495.96	2195.42
496.16	2176.99
496.36	2478.04
496.56	2273.25
496.77	2244.57
496.97	2273.25
497.17	2504.67
497.37	2097.12
497.57	2363.36
497.77	2297.82
497.97	2201.57
498.17	2308.06
498.37	2207.71
498.57	2269.15
498.77	2244.57
498.97	2398.17
499.17	2375.64
499.38	2252.77
499.58	2289.63
499.78	2314.20
499.98	2344.92
500.18	2142.18
500.38	2293.72
500.58	2461.66
500.78	2897.88
500.98	5193.65
501.18	7200.66
501.38	8851.32
501.58	10055.53
501.78	9557.87
501.98	7698.31
502.18	6406.05
502.38	5490.60
502.58	5210.03
502.78	4564.92
502.98	4581.31
503.18	4265.92
503.38	3784.65
503.59	3346.38
503.79	3178.45
503.99	2971.60
504.19	2766.81
504.39	2799.57
504.59	3022.80
504.79	2850.77
504.99	2842.58
505.19	2623.45
505.39	2392.03
505.59	2607.06
505.79	2527.19
505.99	2461.66
506.19	2412.51
506.39	2416.60
506.59	2275.29
506.79	2283.49
506.99	2408.41
507.19	2285.53
507.39	2332.64
507.59	2133.98
507.79	2195.42
507.99	2156.51
508.19	2179.04
508.39	2267.10
508.59	2301.92
508.79	2392.03
508.99	2482.14
509.19	2242.53
509.39	2371.55
509.59	2179.04
509.79	2220.00
509.99	2238.43
510.19	2404.32
510.39	2353.12
510.59	2244.57
510.79	2189.28
510.99	2127.84
511.19	2271.20
511.39	2414.56
511.59	2383.84
511.79	2437.08
511.99	2355.16
512.19	2406.36
512.38	2312.16
512.58	2228.19
512.78	2265.05
512.98	2422.75
513.18	2484.19
513.38	2152.42
513.58	2328.54
513.78	2170.85
513.98	2195.42
514.18	2273.25
514.38	2207.71
514.58	2334.68
514.78	2217.95
514.98	2224.09
515.18	2220.00
515.38	2131.94
515.58	2416.60
515.78	2248.67
515.98	2250.72
516.18	2318.30
516.38	2242.53
516.57	2195.42
516.77	2232.29
516.97	2291.68
517.17	2199.52
517.37	2047.97
517.57	2271.20
517.77	2263.01
517.97	2226.14
518.17	2273.25
518.37	2121.70
518.57	2170.85
518.77	2250.72
518.97	2207.71
519.16	2277.34
519.36	2439.13
519.56	2146.27
519.76	2279.39
519.96	2263.01
520.16	2410.46
520.36	2150.37
520.56	2412.51
520.76	2183.13
520.96	2250.72
521.16	2408.41
521.35	2392.03
521.55	2381.79
521.75	2281.44
521.95	2191.33
522.15	2197.47
522.35	2152.42
522.55	2213.85
522.75	2236.38
522.95	2195.42
523.14	2160.61
523.34	2318.30
523.54	2209.76
523.74	2346.97
523.94	2265.05
524.14	2127.84
524.34	2303.96
524.54	2375.64
524.73	2254.81
524.93	2375.64
525.13	2238.43
525.33	2131.94
525.53	2545.63
525.73	2394.08
525.93	2295.77
526.13	2213.85
526.32	2275.29
526.52	2330.59
526.72	2406.36
526.92	2256.86
527.12	2176.99
527.32	2109.41
527.52	2359.26
527.71	2330.59
527.91	2191.33
528.11	2240.48
528.31	2289.63
528.51	2136.03
528.71	2291.68
528.90	2258.91
529.10	2441.18
529.30	2355.16
529.50	2050.02
529.70	2326.49
529.90	2252.77
530.09	2222.05
530.29	2105.31
530.49	2248.67
530.69	2494.43
530.89	2211.81
531.09	2379.74
531.28	2193.37
531.48	2346.97
531.68	2283.49
531.88	2252.77
532.08	2379.74
532.28	2195.42
532.47	2295.77
532.67	2387.93
532.87	2357.21
533.07	2201.57
533.27	2326.49
533.46	2355.16
533.66	2359.26
533.86	2267.10
534.06	2291.68
534.26	2289.63
534.45	2287.58
534.65	2392.03
534.85	2265.05
535.05	2234.33
535.25	2375.64
535.44	2121.70
535.64	2310.11
535.84	2293.72
536.04	2217.95
536.24	2263.01
536.43	2187.23
536.63	2330.59
536.83	2213.85
537.03	2269.15
537.22	2127.84
537.42	2111.46
537.62	2285.53
537.82	2088.93
538.02	2441.18
538.21	2346.97
538.41	2580.44
538.61	2320.35
538.81	2273.25
539.00	2363.36
539.20	2101.22
539.40	2226.14
539.60	2297.82
539.79	2314.20
539.99	2217.95
540.19	2191.33
540.39	2209.76
540.58	2271.20
540.78	2318.30
540.98	2238.43
541.18	2361.31
541.37	2334.68
541.57	2240.48
541.77	2310.11
541.97	2217.95
542.16	2121.70
542.36	2260.96
542.56	2291.68
542.76	2422.75
542.95	2340.83
543.15	2301.92
543.35	2332.64
543.54	2215.90
543.74	2199.52
543.94	2369.50
544.14	2232.29
544.33	2363.36
544.53	2220.00
544.73	2277.34
544.93	2220.00
545.12	2267.10
545.32	2283.49
545.52	2246.62
545.71	2209.76
545.91	2154.46
546.11	2207.71
546.30	2095.07
546.50	2365.40
546.70	2392.03
546.90	2234.33
547.09	2097.12
547.29	2295.77
547.49	2318.30
547.68	2148.32
547.88	2246.62
548.08	2361.31
548.27	2772.95
548.47	2121.70
548.67	2129.89
548.87	2342.88
549.06	2195.42
549.26	2293.72
549.46	2303.96
549.65	2154.46
549.85	2334.68
550.05	2295.77
550.24	2174.94
550.44	2330.59
550.64	2220.00
550.83	2220.00
551.03	2332.64
551.23	2334.68
551.42	2363.36
551.62	2258.91
551.82	2199.52
552.01	2224.09
552.21	2400.22
552.41	2224.09
552.60	2449.37
552.80	2361.31
553.00	2117.60
553.19	2222.05
553.39	2486.23
553.59	2181.09
553.78	2299.87
553.98	2289.63
554.17	2152.42
554.37	2318.30
554.57	2355.16
554.76	2140.13
554.96	2258.91
555.16	2316.25
555.35	2240.48
555.55	2293.72
555.75	2328.54
555.94	2369.50
556.14	2088.93
556.33	2277.34
556.53	2285.53
556.73	2277.34
556.92	2373.60
557.12	2383.84
557.32	2398.17
557.51	2406.36
557.71	2324.44
557.90	2457.56
558.10	2498.52
558.30	2281.44
558.49	2199.52
558.69	2285.53
558.88	2324.44
559.08	2351.07
559.28	2295.77
559.47	2285.53
559.67	2383.84
559.86	2568.15
560.06	2334.68
560.26	2244.57
560.45	2310.11
560.65	2287.58
560.84	2408.41
561.04	2158.56
561.24	2349.02
561.43	2162.66
561.63	2371.55
561.82	2297.82
562.02	2346.97
562.22	2195.42
562.41	2289.63
562.61	2260.96
562.80	2176.99
563.00	2535.39
563.19	2338.78
563.39	2334.68
563.59	2308.06
563.78	2144.22
563.98	2033.63
564.17	2252.77
564.37	2103.26
564.56	2222.05
564.76	2168.80
564.96	2359.26
565.15	2303.96
565.35	2492.38
565.54	2228.19
565.74	2308.06
565.93	2281.44
566.13	2301.92
566.32	2359.26
566.52	2269.15
566.71	2303.96
566.91	2353.12
567.11	2291.68
567.30	2222.05
567.50	2332.64
567.69	2289.63
567.89	2281.44
568.08	2140.13
568.28	2346.97
568.47	2183.13
568.67	2355.16
568.86	2199.52
569.06	2314.20
569.25	2152.42
569.45	2256.86
569.64	2193.37
569.84	2138.08
570.04	2320.35
570.23	2176.99
570.43	2226.14
570.62	2328.54
570.82	2451.42
571.01	2185.18
571.21	2215.90
571.40	2172.89
571.60	2355.16
571.79	2267.10
571.99	2228.19
572.18	2195.42
572.38	2336.73
572.57	2246.62
572.77	2351.07
572.96	2490.33
573.16	2244.57
573.35	2316.25
573.55	2402.27
573.74	2228.19
573.94	2199.52
574.13	2267.10
574.33	2342.88
574.52	2336.73
574.71	2199.52
574.91	2332.64
575.10	2154.46
575.30	2312.16
575.49	2303.96
575.69	2201.57
575.88	2342.88
576.08	2287.58
576.27	2445.27
576.47	2357.21
576.66	2473.95
576.86	2418.65
577.05	2361.31
577.25	2326.49
577.44	2478.04
577.64	2277.34
577.83	2371.55
578.02	2279.39
578.22	2449.37
578.41	2469.85
578.61	2248.67
578.80	2121.70
579.00	2310.11
579.19	2310.11
579.39	2406.36
579.58	2326.49
579.77	2244.57
579.97	2326.49
580.16	2324.44
580.36	2430.94
580.55	2326.49
580.75	2318.30
580.94	2332.64
581.13	2420.70
581.33	2471.90
581.52	2310.11
581.72	2553.82
581.91	2441.18
582.11	2273.25
582.30	2506.71
582.49	2340.83
582.69	2447.32
582.88	2424.80
583.08	2349.02
583.27	2383.84
583.47	2359.26
583.66	2242.53
583.85	2222.05
584.05	2252.77
584.24	2365.40
584.44	2293.72
584.63	2455.51
584.82	2449.37
585.02	2408.41
585.21	2412.51
585.41	2441.18
585.60	2430.94
585.79	2600.92
585.99	2498.52
586.18	2441.18
586.37	3035.09
586.57	4628.41
586.76	13946.67
586.96	33228.29
587.15	46896.44
587.34	56130.73
587.54	61031.52
587.73	55850.16
587.93	39493.03
588.12	29779.51
588.31	23781.01
588.51	20971.20
588.70	19298.01
588.89	17420.02
589.09	15007.52
589.28	13201.21
589.47	10526.56
589.67	8159.11
589.86	6401.95
590.06	4767.67
590.25	3743.69
590.44	3174.35
590.64	2834.39
590.83	2637.78
591.02	2635.74
591.22	2349.02
591.41	2392.03
591.60	2383.84
591.80	2543.58
591.99	2176.99
592.18	2303.96
592.38	2330.59
592.57	2248.67
592.76	2254.81
592.96	2334.68
593.15	2306.01
593.34	2441.18
593.54	2252.77
593.73	2267.10
593.92	2338.78
594.12	2363.36
594.31	2385.88
594.50	2469.85
594.70	2379.74
594.89	2570.20
595.08	2228.19
595.28	2404.32
595.47	2578.39
595.66	2422.75
595.86	2217.95
596.05	2189.28
596.24	2242.53
596.43	2424.80
596.63	2389.98
596.82	2355.16
597.01	2418.65
597.21	2492.38
597.40	2365.40
597.59	2256.86
597.79	2232.29
597.98	2357.21
598.17	2328.54
598.36	2306.01
598.56	2349.02
598.75	2318.30
598.94	2297.82
599.14	2314.20
599.33	2283.49
599.52	2406.36
599.71	2269.15
599.91	2318.30
600.10	2291.68
600.29	2281.44
600.48	2248.67
600.68	2371.55
600.87	2265.05
601.06	2215.90
601.26	2260.96
601.45	2285.53
601.64	2310.11
601.83	2445.27
602.03	2215.90
602.22	2146.27
602.41	2340.83
602.60	2527.19
602.80	2297.82
602.99	2281.44
603.18	2220.00
603.37	2244.57
603.57	2326.49
603.76	2263.01
603.95	2361.31
604.14	2217.95
604.34	2162.66
604.53	2254.81
604.72	2349.02
604.91	2322.40
605.10	2299.87
605.30	2201.57
605.49	2531.29
605.68	2367.45
605.87	2414.56
606.07	2250.72
606.26	2277.34
606.45	2256.86
606.64	2279.39
606.84	2256.86
607.03	2250.72
607.22	2455.51
607.41	2265.05
607.60	2275.29
607.80	2258.91
607.99	2277.34
608.18	2260.96
608.37	2238.43
608.56	2148.32
608.76	2383.84
608.95	2471.90
609.14	2361.31
609.33	2455.51
609.52	2392.03
609.72	2318.30
609.91	2428.89
610.10	2301.92
610.29	2428.89
610.48	2422.75
610.68	2385.88
610.87	2215.90
611.06	2447.32
611.25	2269.15
611.44	2398.17
611.63	2228.19
611.83	2465.75
612.02	2107.36
612.21	2355.16
612.40	2146.27
612.59	2154.46
612.79	2156.51
612.98	2234.33
613.17	2420.70
613.36	2213.85
613.55	2439.13
613.74	2406.36
613.93	2469.85
614.13	2457.56
614.32	2500.57
614.51	2490.33
614.70	2334.68
614.89	2228.19
615.08	2389.98
615.28	2783.19
615.47	2289.63
615.66	2375.64
615.85	2244.57
616.04	2459.61
616.23	2349.02
616.42	2363.36
616.62	2320.35
616.81	2224.09
617.00	2293.72
617.19	2408.41
617.38	2168.80
617.57	2242.53
617.76	2332.64
617.95	2428.89
618.15	2363.36
618.34	2392.03
618.53	2181.09
618.72	2367.45
618.91	2430.94
619.10	2392.03
619.29	2328.54
619.48	2226.14
619.68	2113.50
619.87	2299.87
620.06	2045.92
620.25	2314.20
620.44	2283.49
620.63	2230.24
620.82	2215.90
621.01	2293.72
621.20	2248.67
621.39	2344.92
621.59	2332.64
621.78	2269.15
621.97	2244.57
622.16	2381.79
622.35	2260.96
622.54	2379.74
622.73	2342.88
622.92	2129.89
623.11	2326.49
623.30	2228.19
623.49	2310.11
623.68	2215.90
623.88	2428.89
624.07	2316.25
624.26	2199.52
624.45	2293.72
624.64	2220.00
624.83	2258.91
625.02	2187.23
625.21	2252.77
625.40	2338.78
625.59	2408.41
625.78	2256.86
625.97	2379.74
626.16	2424.80
626.35	2400.22
626.54	2371.55
626.74	2455.51
626.93	2254.81
627.12	2138.08
627.31	2367.45
627.50	2326.49
627.69	2330.59
627.88	2211.81
628.07	2209.76
628.26	2162.66
628.45	2172.89
628.64	2158.56
628.83	2258.91
629.02	2103.26
629.21	2252.77
629.40	2314.20
629.59	2195.42
629.78	2209.76
629.97	2340.83
630.16	2297.82
630.35	2215.90
630.54	2318.30
630.73	2146.27
630.92	2273.25
631.11	2144.22
631.30	2332.64
631.49	2424.80
631.68	2176.99
631.87	2226.14
632.06	2203.61
632.25	2529.24
632.44	2301.92
632.63	2316.25
632.82	2220.00
633.01	2228.19
633.20	2291.68
633.39	2269.15
633.58	2209.76
633.77	2351.07
633.96	2430.94
634.15	2336.73
634.34	2392.03
634.53	2328.54
634.72	2176.99
634.91	2136.03
635.10	2234.33
635.29	2340.83
635.48	2283.49
635.67	2269.15
635.86	2156.51
636.05	2408.41
636.24	2263.01
636.43	2252.77
636.62	2267.10
636.81	2088.93
637.00	2205.66
637.19	2277.34
637.38	2176.99
637.57	2213.85
637.76	2281.44
637.95	2367.45
638.14	2379.74
638.33	2314.20
638.52	2392.03
638.71	2265.05
638.89	2215.90
639.08	2592.73
639.27	2435.03
639.46	2484.19
639.65	2820.05
639.84	2863.06
640.03	2963.41
640.22	2944.98
640.41	2906.07
640.60	2543.58
640.79	2506.71
640.98	2467.80
641.17	2418.65
641.36	2502.62
641.55	2447.32
641.74	2283.49
641.92	2277.34
642.11	2250.72
642.30	2217.95
642.49	2318.30
642.68	2199.52
642.87	2230.24
643.06	2295.77
643.25	2258.91
643.44	2199.52
643.63	2308.06
643.82	2349.02
644.00	2183.13
644.19	2250.72
644.38	2156.51
644.57	2308.06
644.76	2316.25
644.95	2205.66
645.14	2263.01
645.33	2252.77
645.52	2244.57
645.71	2142.18
645.89	2115.55
646.08	2209.76
646.27	2207.71
646.46	2408.41
646.65	2131.94
646.84	2256.86
647.03	2064.35
647.22	2269.15
647.40	2240.48
647.59	2183.13
647.78	2023.39
647.97	2228.19
648.16	2142.18
648.35	2371.55
648.54	2359.26
648.73	2154.46
648.91	2377.69
649.10	2316.25
649.29	2228.19
649.48	2211.81
649.67	2314.20
649.86	2287.58
650.05	2310.11
650.23	2426.84
650.42	2308.06
650.61	2543.58
650.80	2441.18
650.99	2592.73
651.18	2484.19
651.36	2463.71
651.55	2285.53
651.74	2398.17
651.93	2275.29
652.12	2201.57
652.31	2258.91
652.49	2234.33
652.68	2215.90
652.87	2437.08
653.06	2334.68
653.25	2480.09
653.44	2256.86
653.62	2480.09
653.81	2316.25
654.00	2308.06
654.19	2375.64
654.38	2543.58
654.56	2351.07
654.75	2183.13
654.94	2267.10
655.13	2291.68
655.32	2191.33
655.51	2256.86
655.69	2228.19
655.88	2375.64
656.07	2193.37
656.26	2387.93
656.45	2172.89
656.63	2342.88
656.82	2211.81
657.01	2213.85
657.20	2166.75
657.38	2441.18
657.57	2201.57
657.76	2095.07
657.95	2342.88
658.14	2244.57
658.32	2303.96
658.51	2166.75
658.70	2326.49
658.89	2336.73
659.08	2228.19
659.26	2396.12
659.45	2226.14
659.64	2267.10
659.83	2236.38
660.01	2605.02
660.20	2334.68
660.39	2334.68
660.58	2060.26
660.76	2400.22
660.95	2179.04
661.14	2336.73
661.33	2093.02
661.51	2242.53
661.70	2232.29
661.89	2375.64
662.08	2207.71
662.26	2039.78
662.45	2136.03
662.64	2430.94
662.83	2346.97
663.01	2148.32
663.20	2195.42
663.39	2408.41
663.58	2207.71
663.76	2187.23
663.95	2285.53
664.14	2213.85
664.32	2232.29
664.51	2103.26
664.70	2043.87
664.89	2314.20
665.07	2023.39
665.26	2379.74
665.45	2125.79
665.64	2349.02
665.82	2228.19
666.01	2238.43
666.20	2144.22
666.38	2389.98
666.57	2396.12
666.76	3325.90
666.95	8214.40
667.13	16287.50
667.32	21235.39
667.51	25298.56
667.69	26852.97
667.88	24295.05
668.07	17151.74
668.25	13977.39
668.44	11419.47
668.63	9930.60
668.81	8937.34
669.00	7593.87
669.19	6975.38
669.38	6176.67
669.56	5005.24
669.75	4290.49
669.94	3710.92
670.12	3112.91
670.31	2791.38
670.50	2605.02
670.68	2566.10
670.87	2314.20
671.06	2324.44
671.24	2375.64
671.43	2482.14
671.62	2381.79
671.80	2260.96
671.99	2371.55
672.18	2297.82
672.36	2355.16
672.55	2242.53
672.74	2271.20
672.92	2244.57
673.11	2285.53
673.29	2215.90
673.48	2281.44
673.67	2342.88
673.85	2392.03
674.04	2191.33
674.23	2248.67
674.41	2461.66
674.60	2201.57
674.79	2121.70
674.97	2158.56
675.16	2287.58
675.34	2430.94
675.53	2154.46
675.72	2330.59
675.90	2512.86
676.09	2162.66
676.28	2197.47
676.46	2111.46
676.65	2332.64
676.83	2236.38
677.02	2248.67
677.21	2277.34
677.39	2312.16
677.58	2183.13
677.77	2240.48
677.95	2310.11
678.14	2197.47
678.32	2201.57
678.51	2217.95
678.70	2459.61
678.88	2260.96
679.07	2306.01
679.25	2301.92
679.44	2273.25
679.63	2193.37
679.81	2287.58
680.00	2439.13
680.18	2340.83
680.37	2441.18
680.55	2230.24
680.74	2166.75
680.93	2136.03
681.11	2217.95
681.30	2312.16
681.48	2308.06
681.67	2195.42
681.85	2324.44
682.04	2168.80
682.23	2299.87
682.41	2293.72
682.60	2275.29
682.78	2236.38
682.97	2154.46
683.15	2174.94
683.34	2273.25
683.53	2385.88
683.71	2136.03
683.90	2418.65
684.08	2508.76
684.27	2209.76
684.45	2310.11
684.64	2310.11
684.82	2273.25
685.01	2334.68
685.19	2220.00
685.38	2408.41
685.57	2277.34
685.75	2105.31
685.94	2142.18
686.12	2148.32
686.31	2125.79
686.49	2410.46
686.68	2054.11
686.86	2277.34
687.05	2203.61
687.23	2428.89
687.42	2220.00
687.60	2086.88
687.79	2381.79
687.97	2449.37
688.16	2314.20
688.34	2351.07
688.53	2054.11
688.71	2334.68
688.90	2387.93
689.08	2189.28
689.27	2123.74
689.45	2269.15
689.64	2375.64
689.82	2291.68
690.01	2375.64
690.19	2269.15
690.38	2297.82
690.56	2357.21
690.75	2170.85
690.93	2201.57
691.12	2162.66
691.30	2340.83
691.49	2267.10
691.67	2289.63
691.86	2355.16
692.04	2263.01
692.23	2240.48
692.41	2211.81
692.60	2598.87
692.78	2389.98
692.97	2344.92
693.15	2381.79
693.34	2519.00
693.52	2346.97
693.71	2209.76
693.89	2197.47
694.08	2125.79
694.26	2342.88
694.44	2314.20
694.63	2322.40
694.81	2230.24
695.00	2168.80
695.18	2314.20
695.37	2533.34
695.55	2336.73
695.74	2240.48
695.92	2240.48
696.10	2418.65
696.29	2113.50
696.47	2138.08
696.66	2084.83
696.84	2201.57
697.03	2318.30
697.21	2428.89
697.40	3346.38
697.58	2439.13
697.76	2187.23
697.95	2176.99
698.13	2187.23
698.32	2160.61
698.50	2271.20
698.68	2281.44
698.87	2238.43
699.05	2449.37
699.24	2267.10
699.42	2152.42
699.61	2258.91
699.79	2252.77
699.97	2293.72
700.16	2199.52
700.34	2078.69
700.53	2277.34
700.71	2400.22
700.89	2383.84
701.08	2207.71
701.26	2349.02
701.45	2801.62
701.63	2168.80
701.81	2215.90
702.00	2187.23
702.18	2211.81
702.37	2205.66
702.55	2482.14
702.73	2422.75
702.92	2355.16
703.10	2512.86
703.28	2447.32
703.47	2217.95
703.65	2443.23
703.84	2453.47
704.02	2277.34
704.20	2457.56
704.39	2240.48
704.57	2291.68
704.75	2394.08
704.94	2385.88
705.12	2285.53
705.30	2590.68
705.49	4540.35
705.67	10434.40
705.86	18325.22
706.04	22193.84
706.22	25048.71
706.41	26246.77
706.59	22060.72
706.77	15679.25
706.96	13113.14
707.14	11509.58
707.32	9797.48
707.51	8832.89
707.69	7200.66
707.87	5910.44
708.06	4759.48
708.24	3991.49
708.42	3305.42
708.61	3172.30
708.79	2506.71
708.97	2324.44
709.16	2420.70
709.34	2299.87
709.52	2314.20
709.71	2265.05
709.89	2318.30
710.07	2193.37
710.26	2228.19
710.44	2207.71
710.62	2371.55
710.80	2240.48
710.99	2346.97
711.17	2318.30
711.35	2162.66
711.54	2209.76
711.72	2351.07
711.90	2295.77
712.09	2392.03
712.27	2176.99
712.45	2316.25
712.63	2164.70
712.82	2267.10
713.00	2252.77
713.18	2281.44
713.37	2312.16
713.55	2383.84
713.73	2301.92
713.91	2322.40
714.10	2260.96
714.28	2277.34
714.46	2238.43
714.65	2301.92
714.83	2322.40
715.01	2215.90
715.19	2258.91
715.38	2195.42
715.56	2336.73
715.74	2133.98
715.92	2168.80
716.11	2398.17
716.29	2054.11
716.47	2271.20
716.65	2242.53
716.84	2097.12
717.02	2361.31
717.20	2088.93
717.38	2160.61
717.57	2308.06
717.75	2244.57
717.93	2199.52
718.11	2240.48
718.30	2070.50
718.48	2244.57
718.66	2297.82
718.84	2303.96
719.03	2152.42
719.21	2142.18
719.39	2396.12
719.57	2326.49
719.75	2375.64
719.94	2154.46
720.12	2209.76
720.30	2281.44
720.48	2322.40
720.67	2119.65
720.85	2179.04
721.03	2250.72
721.21	2199.52
721.39	2342.88
721.58	2295.77
721.76	2332.64
721.94	2377.69
722.12	2226.14
722.30	2422.75
722.49	2232.29
722.67	2252.77
722.85	2318.30
723.03	2142.18
723.21	2123.74
723.40	2258.91
723.58	2396.12
723.76	2373.60
723.94	2338.78
724.12	2392.03
724.30	2465.75
724.49	2447.32
724.67	2185.18
724.85	2447.32
725.03	2131.94
725.21	2363.36
725.40	2310.11
725.58	2220.00
725.76	2342.88
725.94	2342.88
726.12	2154.46
726.30	2199.52
726.49	2195.42
726.67	2217.95
726.85	2371.55
727.03	2586.58
727.21	3643.34
727.39	5042.10
727.57	5783.46
727.76	6578.08
727.94	6797.21
728.12	6369.18
728.30	5232.56
728.48	4399.04
728.66	4132.80
728.84	3846.09
729.03	3217.36
729.21	3069.91
729.39	2686.94
729.57	2355.16
729.75	2416.60
729.93	2428.89
730.11	2203.61
730.30	2226.14
730.48	2328.54
730.66	2432.99
730.84	2332.64
731.02	2232.29
731.20	2248.67
731.38	2279.39
731.56	2201.57
731.74	2162.66
731.93	2277.34
732.11	2291.68
732.29	2199.52
732.47	2314.20
732.65	2258.91
732.83	2291.68
733.01	2252.77
733.19	2224.09
733.37	2199.52
733.56	2244.57
733.74	2179.04
733.92	2355.16
734.10	2217.95
734.28	2250.72
734.46	2129.89
734.64	2289.63
734.82	2222.05
735.00	2193.37
735.18	2144.22
735.36	2342.88
735.54	2232.29
735.73	2273.25
735.91	2256.86
736.09	2308.06
736.27	2297.82
736.45	2332.64
736.63	2043.87
736.81	2195.42
736.99	2412.51
737.17	2355.16
737.35	2232.29
737.53	2340.83
737.71	2238.43
737.89	2308.06
738.07	2154.46
738.25	2168.80
738.43	2140.13
738.61	2267.10
738.80	2084.83
738.98	2127.84
739.16	2183.13
739.34	2185.18
739.52	2369.50
739.70	2146.27
739.88	2293.72
740.06	2318.30
740.24	2097.12
740.42	2412.51
740.60	2097.12
740.78	2220.00
740.96	2062.30
741.14	2236.38
741.32	2281.44
741.50	2121.70
741.68	2475.99
741.86	2408.41
742.04	2117.60
742.22	2131.94
742.40	2209.76
742.58	2320.35
742.76	2146.27
742.94	2402.27
743.12	2156.51
743.30	2269.15
743.48	2324.44
743.66	2230.24
743.84	2316.25
744.02	2205.66
744.20	2295.77
744.38	2176.99
744.56	2146.27
744.74	2383.84
744.92	2328.54
745.10	2351.07
745.28	2326.49
745.46	2389.98
745.64	2179.04
745.82	2308.06
746.00	2162.66
746.18	2213.85
746.36	2131.94
746.54	2265.05
746.72	2269.15
746.90	2103.26
747.08	2412.51
747.26	2230.24
747.44	2326.49
747.62	2283.49
747.80	2318.30
747.98	2396.12
748.15	2258.91
748.33	2502.62
748.51	2271.20
748.69	2377.69
748.87	2183.13
749.05	2166.75
749.23	2191.33
749.41	2306.01
749.59	2248.67
749.77	2326.49
749.95	2236.38
750.13	2195.42
750.31	2334.68
750.49	2187.23
750.67	2240.48
750.85	2355.16
751.03	2240.48
751.20	2422.75
751.38	2248.67
751.56	2224.09
751.74	2242.53
751.92	2236.38
752.10	2191.33
752.28	2455.51
752.46	2176.99
752.64	2271.20
752.82	2236.38
753.00	2406.36
753.18	2142.18
753.35	2207.71
753.53	2230.24
753.71	2203.61
753.89	2234.33
754.07	2330.59
754.25	2392.03
754.43	2287.58
754.61	2164.70
754.79	2336.73
754.97	2158.56
755.14	2422.75
755.32	2146.27
755.50	2269.15
755.68	2275.29
755.86	2144.22
756.04	2183.13
756.22	2076.64
756.40	2338.78
756.57	2437.08
756.75	2228.19
756.93	2324.44
757.11	2312.16
757.29	2136.03
757.47	2105.31
757.65	2111.46
757.82	2033.63
758.00	2121.70
758.18	2195.42
758.36	2195.42
758.54	2422.75
758.72	2119.65
758.90	2351.07
759.07	2226.14
759.25	2133.98
759.43	2236.38
759.61	2131.94
759.79	3094.48
759.97	2269.15
760.15	2217.95
760.32	2242.53
760.50	2285.53
760.68	2310.11
760.86	2168.80
761.04	2326.49
761.22	2295.77
761.39	2213.85
761.57	2207.71
761.75	2207.71
761.93	2338.78
762.11	2242.53
762.28	2299.87
762.46	2222.05
762.64	2326.49
762.82	2168.80
763.00	2174.94
763.18	2263.01
763.35	2129.89
763.53	2306.01
763.71	2287.58
763.89	2252.77
764.07	2310.11
764.24	2256.86
764.42	2340.83
764.60	2310.11
764.78	2265.05
764.96	2279.39
765.13	2334.68
765.31	2232.29
765.49	2349.02
765.67	2133.98
765.84	2148.32
766.02	2144.22
766.20	2088.93
766.38	2310.11
766.56	2271.20
766.73	2336.73
766.91	2195.42
767.09	2334.68
767.27	2308.06
767.44	2201.57
767.62	2279.39
767.80	2265.05
767.98	2181.09
768.15	2240.48
768.33	2295.77
768.51	2375.64
768.69	2279.39
768.87	2322.40
769.04	2314.20
769.22	2588.63
769.40	2432.99
769.58	2449.37
769.75	2303.96
769.93	2392.03
770.11	2228.19
770.28	2097.12
770.46	2336.73
770.64	2263.01
770.82	2199.52
770.99	2174.94
771.17	2316.25
771.35	2140.13
771.53	2250.72
771.70	2220.00
771.88	2303.96
772.06	2228.19
772.23	2242.53
772.41	2289.63
772.59	2127.84
772.77	2195.42
772.94	2293.72
773.12	2297.82
773.30	2234.33
773.47	2217.95
773.65	2203.61
773.83	2383.84
774.01	2248.67
774.18	2066.40
774.36	2183.13
774.54	2176.99
774.71	2260.96
774.89	2170.85
775.07	2162.66
775.24	2230.24
775.42	2228.19
775.60	2424.80
775.78	2232.29
775.95	2064.35
776.13	2070.50
776.31	2162.66
776.48	2228.19
776.66	2365.40
776.84	2203.61
777.01	2150.37
777.19	2170.85
777.37	2138.08
777.54	2228.19
777.72	2428.89
777.90	2195.42
778.07	2195.42
778.25	2629.59
778.43	2361.31
778.60	2224.09
778.78	2293.72
778.96	2387.93
779.13	2129.89
779.31	2340.83
779.49	2244.57
779.66	2269.15
779.84	2152.42
780.01	2228.19
780.19	2099.17
780.37	2418.65
780.54	2291.68
780.72	2193.37
780.90	2277.34
781.07	2183.13
781.25	2234.33
781.43	2371.55
781.60	2195.42
781.78	2332.64
781.95	2244.57
782.13	2195.42
782.31	2160.61
782.48	2142.18
782.66	2230.24
782.83	2420.70
783.01	2299.87
783.19	2340.83
783.36	2138.08
783.54	2185.18
783.72	2394.08
783.89	2179.04
784.07	2271.20
784.24	2359.26
784.42	2332.64
784.60	2275.29
784.77	2260.96
784.95	2150.37
785.12	2230.24
785.30	2271.20
785.47	2168.80
785.65	2170.85
785.83	2258.91
786.00	2201.57
786.18	2269.15
786.35	2140.13
786.53	2115.55
786.71	2310.11
786.88	2326.49
787.06	2289.63
787.23	2172.89
787.41	2129.89
787.58	2256.86
787.76	2158.56
787.94	2199.52
788.11	2316.25
788.29	2121.70
788.46	2179.04
788.64	2021.35
788.81	2209.76
788.99	2162.66
789.16	2129.89
789.34	2166.75
789.52	2224.09
789.69	2156.51
789.87	2084.83
790.04	2220.00
790.22	2267.10
790.39	2400.22
790.57	2138.08
790.74	2189.28
790.92	2344.92
791.09	2101.22
791.27	2242.53
791.44	2297.82
791.62	2226.14
791.79	2387.93
791.97	2285.53
792.15	2523.10
792.32	2275.29
792.50	2283.49
792.67	2392.03
792.85	2371.55
793.02	2220.00
793.20	2179.04
793.37	2113.50
793.55	2295.77
793.72	2086.88
793.90	2273.25
794.07	2215.90
794.25	2164.70
794.42	2252.77
794.60	2310.11
794.77	2228.19
794.95	2236.38
795.12	2406.36
795.30	2224.09
795.47	2101.22
795.65	2562.01
795.82	2260.96
796.00	2138.08
796.17	2236.38
796.34	2232.29
796.52	2306.01
796.69	2346.97
796.87	2265.05
797.04	2248.67
797.22	2359.26
797.39	2275.29
797.57	2312.16
797.74	2260.96
797.92	2248.67
798.09	2195.42
798.27	2355.16
798.44	2217.95
798.62	2185.18
798.79	2275.29
798.96	2324.44
799.14	2203.61
799.31	2502.62
799.49	2265.05
799.66	2211.81
799.84	2199.52
800.01	2115.55
800.19	2234.33
800.36	2136.03
800.53	2263.01
800.71	2260.96
800.88	2316.25
801.06	2189.28
801.23	2179.04
801.41	2193.37
801.58	2220.00
801.75	2164.70
801.93	2236.38
802.10	2301.92
802.28	2250.72
802.45	2183.13
802.63	2289.63
802.80	2328.54
802.97	2150.37
803.15	2285.53
803.32	2191.33
803.50	2240.48
803.67	2195.42
803.84	2160.61
804.02	2226.14
804.19	2179.04
804.37	2047.97
804.54	2121.70
804.71	2226.14
804.89	2291.68
805.06	2168.80
805.24	2174.94
805.41	2119.65
805.58	2164.70
805.76	2504.67
805.93	2209.76
806.10	2322.40
806.28	2383.84
806.45	2275.29
806.63	2273.25
806.80	2318.30
806.97	2252.77
807.15	2297.82
807.32	2373.60
807.49	2277.34
807.67	2136.03
807.84	2267.10
808.01	2062.30
808.19	2420.70
808.36	2484.19
808.54	2195.42
808.71	2183.13
808.88	2269.15
809.06	2373.60
809.23	2406.36
809.40	2234.33
809.58	2211.81
809.75	2316.25
809.92	2183.13
810.10	2455.51
810.27	2201.57
810.44	2357.21
810.62	2293.72
810.79	2203.61
810.96	2236.38
811.14	2215.90
811.31	2293.72
811.48	2277.34
811.66	2318.30
811.83	2336.73
812.00	2285.53
812.18	2316.25
812.35	2449.37
812.52	2252.77
812.69	2187.23
812.87	2248.67
813.04	2285.53
813.21	2162.66
813.39	2164.70
813.56	2117.60
813.73	2310.11
813.91	2041.82
814.08	2248.67
814.25	2256.86
814.42	2138.08
814.60	2201.57
814.77	2299.87
814.94	2203.61
815.12	2316.25
815.29	2424.80
815.46	2232.29
815.63	2308.06
815.81	2260.96
815.98	2213.85
816.15	2217.95
816.33	2174.94
816.50	2209.76
816.67	2215.90
816.84	2232.29
817.02	2162.66
817.19	2285.53
817.36	2230.24
817.53	2303.96
817.71	2236.38
817.88	2324.44
818.05	2242.53
818.22	2183.13
818.40	2338.78
818.57	2205.66
818.74	2289.63
818.91	2201.57
819.09	2314.20
819.26	2289.63
819.43	2236.38
819.60	2176.99
819.78	2277.34
819.95	2400.22
820.12	2191.33
820.29	2367.45
820.47	2344.92
820.64	2136.03
820.81	2121.70
820.98	2183.13
821.15	2246.62
821.33	2351.07
821.50	2150.37
821.67	2299.87
821.84	2181.09
822.02	2228.19
822.19	2334.68
822.36	2213.85
822.53	2146.27
822.70	2158.56
822.88	2105.31
823.05	2410.46
823.22	2203.61
823.39	2291.68
823.56	2291.68
823.74	2475.99
823.91	2146.27
824.08	2179.04
824.25	2150.37
824.42	2383.84
824.60	2084.83
824.77	2353.12
824.94	2232.29
825.11	2310.11
825.28	2099.17
825.45	2269.15
825.63	2258.91
825.80	2125.79
825.97	2297.82
826.14	2195.42
826.31	2170.85
826.48	2287.58
826.66	2121.70
826.83	2234.33
827.00	2172.89
827.17	2197.47
827.34	2224.09
827.51	2176.99
827.69	2228.19
827.86	2152.42
828.03	2269.15
828.20	2185.18
828.37	2199.52
828.54	2254.81
828.71	2197.47
828.89	2365.40
829.06	2256.86
829.23	2334.68
829.40	2195.42
829.57	2158.56
829.74	2279.39
829.91	2146.27
830.09	2142.18
830.26	2381.79
830.43	2412.51
830.60	2246.62
830.77	2232.29
830.94	2369.50
831.11	2291.68
831.28	2215.90
831.46	2306.01
831.63	2234.33
831.80	2342.88
831.97	2195.42
832.14	2250.72
832.31	2326.49
832.48	2252.77
832.65	2338.78
832.82	2248.67
832.99	2275.29
833.17	2183.13
833.34	2473.95
833.51	2258.91
833.68	2093.02
833.85	2289.63
834.02	2176.99
834.19	2187.23
834.36	2131.94
834.53	2297.82
834.70	2316.25
834.87	2277.34
835.04	2160.61
835.22	2248.67
835.39	2242.53
835.56	2062.30
835.73	2129.89
835.90	2326.49
836.07	2097.12
836.24	2301.92
836.41	2131.94
836.58	2133.98
836.75	2359.26
836.92	2330.59
837.09	2136.03
837.26	2381.79
837.43	2308.06
837.60	2240.48
837.77	2207.71
837.94	2365.40
838.12	2344.92
838.29	2170.85
838.46	2074.59
838.63	2105.31
838.80	2459.61
838.97	2228.19
839.14	2236.38
839.31	2217.95
839.48	2318.30
839.65	2166.75
839.82	2306.01
839.99	2254.81
840.16	2238.43
840.33	2148.32
840.50	2215.90
840.67	2156.51
840.84	2054.11
841.01	2205.66
841.18	2093.02
841.35	2281.44
841.52	2344.92
841.69	2387.93
841.86	2215.90
842.03	2211.81
842.20	2326.49
842.37	2211.81
842.54	2129.89
842.71	2260.96
842.88	2129.89
843.05	2228.19
843.22	2146.27
843.39	2392.03
843.56	2220.00
843.73	2209.76
843.90	2185.18
844.07	2232.29
844.24	2293.72
844.41	2260.96
844.58	2248.67
844.75	2265.05
844.92	2297.82
845.09	2263.01
845.26	2138.08
845.43	2267.10
845.60	2150.37
845.77	2275.29
845.94	2191.33
846.10	2287.58
846.27	2107.36
846.44	2097.12
846.61	2095.07
846.78	2306.01
846.95	2346.97
847.12	2195.42
847.29	2232.29
847.46	2170.85
847.63	2265.05
847.80	2232.29
847.97	2125.79
848.14	2463.71
848.31	2185.18
848.48	2170.85
848.65	2252.77
848.82	2203.61
848.98	2465.75
849.15	2213.85
849.32	2291.68
849.49	2357.21
849.66	2246.62
849.83	2162.66
850.00	2142.18
850.17	2357.21
850.34	2211.81
850.51	2086.88
850.68	2181.09
850.85	2428.89
851.01	2310.11
851.18	2197.47
851.35	2172.89
851.52	2324.44
851.69	2349.02
851.86	2056.16
852.03	2146.27
852.20	2342.88
852.37	2306.01
852.53	2127.84
852.70	2205.66
852.87	2283.49
853.04	2236.38
853.21	2181.09
853.38	2359.26
853.55	2336.73
853.72	2357.21
853.89	2097.12
854.05	2154.46
854.22	2332.64
854.39	2215.90
854.56	2287.58
854.73	2287.58
854.90	2129.89
855.07	2263.01
855.23	2058.21
855.40	2158.56
855.57	2260.96
855.74	2088.93
855.91	2320.35
856.08	2109.41
856.25	2133.98
856.41	2193.37
856.58	2179.04
856.75	2250.72
856.92	2088.93
857.09	2340.83
857.26	2000.87
857.42	2199.52
857.59	2277.34
857.76	2220.00
857.93	2185.18
858.10	2176.99
858.27	2140.13
858.43	2330.59
858.60	2160.61
858.77	2152.42
858.94	2199.52
859.11	2328.54
859.27	2138.08
859.44	2183.13
859.61	2445.27
859.78	2340.83
859.95	2203.61
860.12	2148.32
860.28	2514.91
860.45	2424.80
860.62	2215.90
860.79	2211.81
860.95	2197.47
861.12	2174.94
861.29	2133.98
861.46	2136.03
861.63	2197.47
861.79	2234.33
861.96	2129.89
862.13	2207.71
862.30	2340.83
862.47	2220.00
862.63	2088.93
862.80	2234.33
862.97	2346.97
863.14	2277.34
863.30	2306.01
863.47	2215.90
863.64	2310.11
863.81	2293.72
863.97	2183.13
864.14	2303.96
864.31	2207.71
864.48	2301.92
864.65	2185.18
864.81	2299.87
864.98	2273.25
865.15	2400.22
865.32	2285.53
865.48	2240.48
865.65	2316.25
865.82	2183.13
865.98	2281.44
866.15	2351.07
866.32	2232.29
866.49	2252.77
866.65	2324.44
866.82	2160.61
866.99	2258.91
867.16	2197.47
867.32	2129.89
867.49	2138.08
867.66	2267.10
867.83	2158.56
867.99	2021.35
868.16	2197.47
868.33	2150.37
868.49	2228.19
868.66	2201.57
868.83	2271.20
868.99	2226.14
869.16	2201.57
869.33	2267.10
869.50	2228.19
869.66	2236.38
869.83	2199.52
870.00	2041.82
870.16	2293.72
870.33	2136.03
870.50	2310.11
870.66	2252.77
870.83	2359.26
871.00	2238.43
871.17	2224.09
871.33	2310.11
871.50	2195.42
871.67	2195.42
871.83	2080.74
872.00	2367.45
872.17	2121.70
872.33	2432.99
872.50	2334.68
872.67	2215.90
872.83	2160.61
873.00	2283.49
873.17	2191.33
873.33	2260.96
873.50	2240.48
873.67	2217.95
873.83	2205.66
874.00	2129.89
874.16	2258.91
874.33	2244.57
874.50	2107.36
874.66	2260.96
874.83	2183.13
875.00	2381.79
875.16	2414.56
875.33	2316.25
875.50	2039.78
875.66	2189.28
875.83	2291.68
875.99	2338.78
876.16	2154.46
876.33	2222.05
876.49	2203.61
876.66	2258.91
876.83	2252.77
876.99	2121.70
877.16	2252.77
877.32	2121.70
877.49	2226.14
877.66	2293.72
877.82	2381.79
877.99	2220.00
878.15	2295.77
878.32	2273.25
878.49	2234.33
878.65	2195.42
878.82	2314.20
878.98	2258.91
879.15	2383.84
879.32	2322.40
879.48	2318.30
879.65	2260.96
879.81	2140.13
879.98	2156.51
880.15	2254.81
880.31	2324.44
880.48	2111.46
880.64	2195.42
880.81	2295.77
880.97	2490.33
881.14	2381.79
881.31	2105.31
881.47	2351.07
881.64	2228.19
881.80	2009.06
881.97	2228.19
882.13	2215.90
882.30	2144.22
882.47	2187.23
882.63	2125.79
882.80	2119.65
882.96	2162.66
883.13	2422.75
883.29	2181.09
883.46	2263.01
883.62	2465.75
883.79	2277.34
883.95	2326.49
884.12	2176.99
884.29	2330.59
884.45	2170.85
884.62	2263.01
884.78	2154.46
884.95	2402.27
885.11	2193.37
885.28	2260.96
885.44	2209.76
885.61	2312.16
885.77	2396.12
885.94	2322.40
886.10	2207.71
886.27	2254.81
886.43	2389.98
886.60	2340.83
886.76	2187.23
886.93	2142.18
887.09	2265.05
887.26	2119.65
887.42	2209.76
887.59	2379.74
887.75	2492.38
887.92	2334.68
888.08	2263.01
888.25	2418.65
888.41	2308.06
888.58	2267.10
888.74	2097.12
888.91	2189.28
>>>>>End Processed Spectral Data<<<<<
