SpectraSuite Data File
++++++++++++++++++++++++++++++++++++
Date: Thu May 05 13:20:40 CEST 2016
User: root
Dark Spectrum Present: No
Reference Spectrum Present: No
Number of Sampled Component Spectra: 1
Spectrometers: USB4C02835
Integration Time (usec): 100000 (USB4C02835)
Spectra Averaged: 1 (USB4C02835)
Boxcar Smoothing: 0 (USB4C02835)
Correct for Electrical Dark: No (USB4C02835)
Strobe/Lamp Enabled: No (USB4C02835)
Correct for Detector Non-linearity: No (USB4C02835)
Correct for Stray Light: No (USB4C02835)
Number of Pixels in Processed Spectrum: 3648
>>>>>Begin Processed Spectral Data<<<<<
177.47	1773.54
177.69	1773.54
177.91	1773.54
178.13	1892.32
178.36	1773.54
178.58	2140.13
178.80	2357.21
179.02	2023.39
179.24	2095.07
179.46	2117.60
179.68	2181.09
179.90	2236.38
180.13	2312.16
180.35	2101.22
180.57	2179.04
180.79	2293.72
181.01	2260.96
181.23	2228.19
181.45	2252.77
181.67	2338.78
181.90	2314.20
182.12	2209.76
182.34	2084.83
182.56	2312.16
182.78	2355.16
183.00	2207.71
183.22	2209.76
183.44	2113.50
183.66	2455.51
183.89	2252.77
184.11	2213.85
184.33	2265.05
184.55	2277.34
184.77	2209.76
184.99	2164.70
185.21	2263.01
185.43	2598.87
185.65	2211.81
185.87	2195.42
186.10	2496.47
186.32	2457.56
186.54	2226.14
186.76	2269.15
186.98	2301.92
187.20	2256.86
187.42	2201.57
187.64	2131.94
187.86	2269.15
188.08	2367.45
188.30	2199.52
188.52	2222.05
188.75	2349.02
188.97	2430.94
189.19	2179.04
189.41	2150.37
189.63	2252.77
189.85	2220.00
190.07	2052.06
190.29	2097.12
190.51	2277.34
190.73	2152.42
190.95	2318.30
191.17	2258.91
191.39	2129.89
191.61	2260.96
191.84	2174.94
192.06	2254.81
192.28	2029.54
192.50	2545.63
192.72	2250.72
192.94	2176.99
193.16	2363.36
193.38	2314.20
193.60	2185.18
193.82	2176.99
194.04	2324.44
194.26	2316.25
194.48	2222.05
194.70	2115.55
194.92	2203.61
195.14	2320.35
195.36	2185.18
195.58	2205.66
195.80	2269.15
196.02	2230.24
196.24	2121.70
196.46	2203.61
196.69	2199.52
196.91	2504.67
197.13	2213.85
197.35	2097.12
197.57	2422.75
197.79	2295.77
198.01	2211.81
198.23	2195.42
198.45	2334.68
198.67	2101.22
198.89	2164.70
199.11	2281.44
199.33	2217.95
199.55	2088.93
199.77	2168.80
199.99	2330.59
200.21	2211.81
200.43	2191.33
200.65	2107.36
200.87	2113.50
201.09	2258.91
201.31	2215.90
201.53	2174.94
201.75	2183.13
201.97	2322.40
202.19	2267.10
202.41	2220.00
202.63	2322.40
202.85	2351.07
203.07	2215.90
203.29	2166.75
203.51	2174.94
203.73	2240.48
203.95	2506.71
204.17	2183.13
204.39	2252.77
204.61	2162.66
204.83	2195.42
205.05	2203.61
205.27	2265.05
205.49	2465.75
205.71	2215.90
205.93	2176.99
206.15	2164.70
206.37	2328.54
206.59	2287.58
206.81	2150.37
207.03	2076.64
207.25	2170.85
207.47	2353.12
207.69	2195.42
207.91	2346.97
208.13	2340.83
208.34	2209.76
208.56	2111.46
208.78	2203.61
209.00	2193.37
209.22	2125.79
209.44	2226.14
209.66	2226.14
209.88	2265.05
210.10	2244.57
210.32	2234.33
210.54	2289.63
210.76	2213.85
210.98	2377.69
211.20	2072.54
211.42	2244.57
211.64	2295.77
211.86	2203.61
212.08	2228.19
212.30	2185.18
212.52	2306.01
212.74	2265.05
212.96	2203.61
213.17	2252.77
213.39	2316.25
213.61	2408.41
213.83	2172.89
214.05	2254.81
214.27	2373.60
214.49	2156.51
214.71	2101.22
214.93	2215.90
215.15	2297.82
215.37	2271.20
215.59	2105.31
215.81	2275.29
216.03	2455.51
216.24	2213.85
216.46	2232.29
216.68	2185.18
216.90	2373.60
217.12	2379.74
217.34	2117.60
217.56	2224.09
217.78	2418.65
218.00	2303.96
218.22	2205.66
218.44	2330.59
218.66	2260.96
218.87	2465.75
219.09	2201.57
219.31	2174.94
219.53	2260.96
219.75	2203.61
219.97	2203.61
220.19	2197.47
220.41	2291.68
220.63	2439.13
220.85	2238.43
221.06	2103.26
221.28	2361.31
221.50	2277.34
221.72	2203.61
221.94	2054.11
222.16	2287.58
222.38	2314.20
222.60	2213.85
222.82	2191.33
223.03	2322.40
223.25	2105.31
223.47	2105.31
223.69	2432.99
223.91	2326.49
224.13	2330.59
224.35	2123.74
224.57	2375.64
224.78	2308.06
225.00	2160.61
225.22	2162.66
225.44	2150.37
225.66	2306.01
225.88	2217.95
226.10	2240.48
226.32	2258.91
226.53	2404.32
226.75	2176.99
226.97	2224.09
227.19	2144.22
227.41	2201.57
227.63	2234.33
227.85	2064.35
228.06	2217.95
228.28	2258.91
228.50	2369.50
228.72	2105.31
228.94	2220.00
229.16	2113.50
229.37	2152.42
229.59	2136.03
229.81	2379.74
230.03	2213.85
230.25	2144.22
230.47	2090.98
230.69	2103.26
230.90	2334.68
231.12	2183.13
231.34	2187.23
231.56	2256.86
231.78	2133.98
232.00	2234.33
232.21	2150.37
232.43	2209.76
232.65	2023.39
232.87	2236.38
233.09	2078.69
233.30	2060.26
233.52	2359.26
233.74	2236.38
233.96	2142.18
234.18	2279.39
234.40	2252.77
234.61	2551.77
234.83	2054.11
235.05	2101.22
235.27	2488.28
235.49	2459.61
235.70	2152.42
235.92	2312.16
236.14	2281.44
236.36	2482.14
236.58	2072.54
236.79	2269.15
237.01	2220.00
237.23	2301.92
237.45	2342.88
237.67	2203.61
237.88	2250.72
238.10	2375.64
238.32	2080.74
238.54	2129.89
238.76	2213.85
238.97	2117.60
239.19	2113.50
239.41	2301.92
239.63	2359.26
239.85	2242.53
240.06	2154.46
240.28	2172.89
240.50	2428.89
240.72	2254.81
240.93	2181.09
241.15	2230.24
241.37	2250.72
241.59	2473.95
241.81	2105.31
242.02	2154.46
242.24	2322.40
242.46	2273.25
242.68	2154.46
242.89	2211.81
243.11	2340.83
243.33	2228.19
243.55	2193.37
243.76	2252.77
243.98	2154.46
244.20	2217.95
244.42	2166.75
244.64	2113.50
244.85	2052.06
245.07	2250.72
245.29	2174.94
245.51	2152.42
245.72	2273.25
245.94	2377.69
246.16	2144.22
246.38	2197.47
246.59	2220.00
246.81	2127.84
247.03	2064.35
247.24	2047.97
247.46	2181.09
247.68	2230.24
247.90	2191.33
248.11	2119.65
248.33	2301.92
248.55	2322.40
248.77	2236.38
248.98	2248.67
249.20	2473.95
249.42	2260.96
249.64	2215.90
249.85	2181.09
250.07	2240.48
250.29	2326.49
250.50	2195.42
250.72	2074.59
250.94	2228.19
251.16	2523.10
251.37	2154.46
251.59	2291.68
251.81	2269.15
252.02	2398.17
252.24	2133.98
252.46	2289.63
252.68	2187.23
252.89	2172.89
253.11	2017.25
253.33	2306.01
253.54	2404.32
253.76	2176.99
253.98	2127.84
254.20	2144.22
254.41	2105.31
254.63	2281.44
254.85	2080.74
255.06	2236.38
255.28	2217.95
255.50	2252.77
255.71	2088.93
255.93	2070.50
256.15	2179.04
256.36	2250.72
256.58	2179.04
256.80	2146.27
257.02	2260.96
257.23	2248.67
257.45	2176.99
257.67	2166.75
257.88	2146.27
258.10	2355.16
258.32	2181.09
258.53	2217.95
258.75	2357.21
258.97	2238.43
259.18	2183.13
259.40	2174.94
259.62	2414.56
259.83	2443.23
260.05	2256.86
260.27	2580.44
260.48	2265.05
260.70	2080.74
260.92	2105.31
261.13	2197.47
261.35	2310.11
261.57	2234.33
261.78	2150.37
262.00	2185.18
262.22	2306.01
262.43	2179.04
262.65	2195.42
262.86	2187.23
263.08	2500.57
263.30	2170.85
263.51	2064.35
263.73	2136.03
263.95	2365.40
264.16	2158.56
264.38	2187.23
264.60	2191.33
264.81	2256.86
265.03	2314.20
265.25	2381.79
265.46	2205.66
265.68	2330.59
265.89	2289.63
266.11	2047.97
266.33	2211.81
266.54	2338.78
266.76	2291.68
266.98	2269.15
267.19	2310.11
267.41	2392.03
267.62	2189.28
267.84	2021.35
268.06	2269.15
268.27	2269.15
268.49	2392.03
268.70	2271.20
268.92	2226.14
269.14	2150.37
269.35	2191.33
269.57	2281.44
269.79	2295.77
270.00	2199.52
270.22	2400.22
270.43	2050.02
270.65	2035.68
270.87	2226.14
271.08	2220.00
271.30	2199.52
271.51	2179.04
271.73	2340.83
271.95	2326.49
272.16	2193.37
272.38	2224.09
272.59	2162.66
272.81	2328.54
273.02	2179.04
273.24	2203.61
273.46	2332.64
273.67	2113.50
273.89	2113.50
274.10	2119.65
274.32	2306.01
274.54	2244.57
274.75	2228.19
274.97	2199.52
275.18	2357.21
275.40	2295.77
275.61	2226.14
275.83	2240.48
276.05	2179.04
276.26	2203.61
276.48	2258.91
276.69	2168.80
276.91	2189.28
277.12	2367.45
277.34	2322.40
277.55	2291.68
277.77	2242.53
277.99	2269.15
278.20	2197.47
278.42	2113.50
278.63	2199.52
278.85	2160.61
279.06	2084.83
279.28	2314.20
279.49	2301.92
279.71	2275.29
279.93	2185.18
280.14	2205.66
280.36	2226.14
280.57	2299.87
280.79	2336.73
281.00	2146.27
281.22	2193.37
281.43	2330.59
281.65	2021.35
281.86	2138.08
282.08	2258.91
282.29	2459.61
282.51	2090.98
282.73	2113.50
282.94	2054.11
283.16	2275.29
283.37	2396.12
283.59	2228.19
283.80	2281.44
284.02	2226.14
284.23	2154.46
284.45	2256.86
284.66	2162.66
284.88	2191.33
285.09	2183.13
285.31	2314.20
285.52	2389.98
285.74	2109.41
285.95	2342.88
286.17	2252.77
286.38	2359.26
286.60	2113.50
286.81	2195.42
287.03	2213.85
287.24	2353.12
287.46	2275.29
287.67	2240.48
287.89	2467.80
288.10	2242.53
288.32	2260.96
288.53	2322.40
288.75	2293.72
288.96	2326.49
289.18	2213.85
289.39	2187.23
289.61	2289.63
289.82	2453.47
290.04	2383.84
290.25	2179.04
290.47	2183.13
290.68	2250.72
290.90	2363.36
291.11	2062.30
291.33	2357.21
291.54	2222.05
291.76	2240.48
291.97	2150.37
292.18	2224.09
292.40	2242.53
292.61	2185.18
292.83	2392.03
293.04	2260.96
293.26	2334.68
293.47	2146.27
293.69	2127.84
293.90	2205.66
294.12	2365.40
294.33	2275.29
294.55	2244.57
294.76	2326.49
294.97	2332.64
295.19	2469.85
295.40	2277.34
295.62	2244.57
295.83	2383.84
296.05	2244.57
296.26	2334.68
296.48	2156.51
296.69	2250.72
296.90	2191.33
297.12	2269.15
297.33	2371.55
297.55	2258.91
297.76	2260.96
297.98	2301.92
298.19	2236.38
298.41	2275.29
298.62	2101.22
298.83	2414.56
299.05	2232.29
299.26	2164.70
299.48	2172.89
299.69	2301.92
299.90	2281.44
300.12	2127.84
300.33	2299.87
300.55	2289.63
300.76	2291.68
300.98	2199.52
301.19	2340.83
301.40	2228.19
301.62	2203.61
301.83	2412.51
302.05	2234.33
302.26	2277.34
302.47	2226.14
302.69	2203.61
302.90	2281.44
303.12	2103.26
303.33	2273.25
303.54	2408.41
303.76	2201.57
303.97	2260.96
304.19	2363.36
304.40	2195.42
304.61	2308.06
304.83	2344.92
305.04	2281.44
305.26	2244.57
305.47	2236.38
305.68	2250.72
305.90	2111.46
306.11	2414.56
306.33	2220.00
306.54	2168.80
306.75	2125.79
306.97	2064.35
307.18	2133.98
307.39	2207.71
307.61	2232.29
307.82	2150.37
308.04	2326.49
308.25	2185.18
308.46	2295.77
308.68	2197.47
308.89	2260.96
309.10	2367.45
309.32	2318.30
309.53	2203.61
309.74	2318.30
309.96	2193.37
310.17	2371.55
310.39	2275.29
310.60	2240.48
310.81	2287.58
311.03	2119.65
311.24	2269.15
311.45	2232.29
311.67	2318.30
311.88	2293.72
312.09	2244.57
312.31	2260.96
312.52	2193.37
312.73	2185.18
312.95	2127.84
313.16	2160.61
313.37	2349.02
313.59	2254.81
313.80	2310.11
314.01	2349.02
314.23	2220.00
314.44	2185.18
314.65	2078.69
314.87	2129.89
315.08	2162.66
315.29	2203.61
315.51	2121.70
315.72	2101.22
315.93	2324.44
316.15	2281.44
316.36	2244.57
316.57	2299.87
316.79	2279.39
317.00	2176.99
317.21	2312.16
317.43	2189.28
317.64	2238.43
317.85	2209.76
318.07	2168.80
318.28	2303.96
318.49	2332.64
318.70	2488.28
318.92	2445.27
319.13	2357.21
319.34	2385.88
319.56	2340.83
319.77	2361.31
319.98	2418.65
320.20	2320.35
320.41	2275.29
320.62	2312.16
320.83	2148.32
321.05	2408.41
321.26	2314.20
321.47	2265.05
321.69	2357.21
321.90	2111.46
322.11	2236.38
322.32	2162.66
322.54	2428.89
322.75	2191.33
322.96	2633.69
323.18	2152.42
323.39	2035.68
323.60	2129.89
323.81	2342.88
324.03	2146.27
324.24	2271.20
324.45	2244.57
324.66	2236.38
324.88	2326.49
325.09	2334.68
325.30	2144.22
325.52	2158.56
325.73	2252.77
325.94	2148.32
326.15	2078.69
326.37	2258.91
326.58	2324.44
326.79	2428.89
327.00	2050.02
327.22	2279.39
327.43	2215.90
327.64	2119.65
327.85	2281.44
328.07	2220.00
328.28	2430.94
328.49	2121.70
328.70	2250.72
328.92	2205.66
329.13	2283.49
329.34	2332.64
329.55	2367.45
329.76	2367.45
329.98	2265.05
330.19	2346.97
330.40	2230.24
330.61	2252.77
330.83	2357.21
331.04	2090.98
331.25	2168.80
331.46	2320.35
331.68	2193.37
331.89	2420.70
332.10	2236.38
332.31	2111.46
332.52	2260.96
332.74	2328.54
332.95	2111.46
333.16	2258.91
333.37	2310.11
333.58	2232.29
333.80	2320.35
334.01	2105.31
334.22	2195.42
334.43	2195.42
334.64	2168.80
334.86	2088.93
335.07	2203.61
335.28	2447.32
335.49	2097.12
335.70	2248.67
335.92	2404.32
336.13	2416.60
336.34	2326.49
336.55	2269.15
336.76	2265.05
336.98	2078.69
337.19	2181.09
337.40	2402.27
337.61	2449.37
337.82	2203.61
338.04	2279.39
338.25	2105.31
338.46	2322.40
338.67	2236.38
338.88	2168.80
339.09	2166.75
339.31	2252.77
339.52	2162.66
339.73	2168.80
339.94	2146.27
340.15	2238.43
340.36	2252.77
340.58	2273.25
340.79	2136.03
341.00	2299.87
341.21	2191.33
341.42	2375.64
341.63	2260.96
341.85	2265.05
342.06	2238.43
342.27	2215.90
342.48	2330.59
342.69	2158.56
342.90	2285.53
343.12	2402.27
343.33	2168.80
343.54	2357.21
343.75	2369.50
343.96	2297.82
344.17	2148.32
344.38	2195.42
344.60	2154.46
344.81	2193.37
345.02	2275.29
345.23	2271.20
345.44	2512.86
345.65	2334.68
345.86	2226.14
346.07	2232.29
346.29	2209.76
346.50	2301.92
346.71	2273.25
346.92	2377.69
347.13	2510.81
347.34	2154.46
347.55	2146.27
347.76	2287.58
347.98	2078.69
348.19	2160.61
348.40	2338.78
348.61	2146.27
348.82	2420.70
349.03	2291.68
349.24	2197.47
349.45	2449.37
349.66	2056.16
349.88	2215.90
350.09	2121.70
350.30	2332.64
350.51	2465.75
350.72	2332.64
350.93	2269.15
351.14	2224.09
351.35	2316.25
351.56	2117.60
351.77	2164.70
351.99	2338.78
352.20	2406.36
352.41	2310.11
352.62	2060.26
352.83	2267.10
353.04	2306.01
353.25	2156.51
353.46	2254.81
353.67	2406.36
353.88	2062.30
354.09	2185.18
354.30	2285.53
354.52	2275.29
354.73	2258.91
354.94	2193.37
355.15	2226.14
355.36	2420.70
355.57	2195.42
355.78	2269.15
355.99	2129.89
356.20	2170.85
356.41	2365.40
356.62	2285.53
356.83	2248.67
357.04	2383.84
357.25	2146.27
357.46	2205.66
357.68	2138.08
357.89	2179.04
358.10	2222.05
358.31	2273.25
358.52	2242.53
358.73	2101.22
358.94	2097.12
359.15	2234.33
359.36	2314.20
359.57	2236.38
359.78	2162.66
359.99	2301.92
360.20	2115.55
360.41	2252.77
360.62	2346.97
360.83	2211.81
361.04	2258.91
361.25	2291.68
361.46	2471.90
361.67	2394.08
361.88	2265.05
362.09	2293.72
362.30	2299.87
362.51	2195.42
362.72	2160.61
362.93	2324.44
363.14	2338.78
363.35	2242.53
363.56	2138.08
363.78	2361.31
363.99	2254.81
364.20	2183.13
364.41	2271.20
364.62	2402.27
364.83	2361.31
365.04	2220.00
365.25	2242.53
365.46	2504.67
365.67	2144.22
365.88	2320.35
366.09	2174.94
366.30	2242.53
366.51	2205.66
366.72	2133.98
366.93	2285.53
367.14	2222.05
367.35	2398.17
367.56	2211.81
367.77	2367.45
367.98	2201.57
368.18	2355.16
368.39	2293.72
368.60	2062.30
368.81	2275.29
369.02	2332.64
369.23	2195.42
369.44	2123.74
369.65	2252.77
369.86	2209.76
370.07	2396.12
370.28	2082.78
370.49	2295.77
370.70	2303.96
370.91	2138.08
371.12	2119.65
371.33	2389.98
371.54	2179.04
371.75	2379.74
371.96	2025.44
372.17	2244.57
372.38	2226.14
372.59	2265.05
372.80	2181.09
373.01	2267.10
373.22	2330.59
373.43	2240.48
373.64	2166.75
373.85	2439.13
374.06	2375.64
374.26	2263.01
374.47	2353.12
374.68	2373.60
374.89	2330.59
375.10	2250.72
375.31	2303.96
375.52	2359.26
375.73	2322.40
375.94	2152.42
376.15	2375.64
376.36	2195.42
376.57	2201.57
376.78	2213.85
376.99	2203.61
377.20	2365.40
377.40	2232.29
377.61	2441.18
377.82	2170.85
378.03	2359.26
378.24	2326.49
378.45	2228.19
378.66	2326.49
378.87	2109.41
379.08	2093.02
379.29	2197.47
379.50	2328.54
379.71	2275.29
379.91	2297.82
380.12	2226.14
380.33	2199.52
380.54	2244.57
380.75	2258.91
380.96	2217.95
381.17	2342.88
381.38	2232.29
381.59	2301.92
381.80	2312.16
382.00	2432.99
382.21	2308.06
382.42	2504.67
382.63	2471.90
382.84	2334.68
383.05	2392.03
383.26	2412.51
383.47	2265.05
383.68	2289.63
383.88	2244.57
384.09	2265.05
384.30	2346.97
384.51	2260.96
384.72	2209.76
384.93	2115.55
385.14	2324.44
385.35	2322.40
385.55	2125.79
385.76	2373.60
385.97	2215.90
386.18	2191.33
386.39	2199.52
386.60	2195.42
386.81	2142.18
387.02	2213.85
387.22	2211.81
387.43	2349.02
387.64	2349.02
387.85	2396.12
388.06	2553.82
388.27	3973.06
388.48	8011.65
388.68	11915.08
388.89	13961.00
389.10	15122.20
389.31	13893.42
389.52	10944.34
389.73	9586.54
389.93	8642.43
390.14	7843.72
390.35	7024.53
390.56	6340.51
390.77	5291.95
390.98	3960.77
391.18	3227.60
391.39	2783.19
391.60	2392.03
391.81	2420.70
392.02	2269.15
392.23	2531.29
392.43	2248.67
392.64	2398.17
392.85	2195.42
393.06	2414.56
393.27	2297.82
393.47	2164.70
393.68	2322.40
393.89	2265.05
394.10	2428.89
394.31	2220.00
394.52	2156.51
394.72	2308.06
394.93	2297.82
395.14	2131.94
395.35	2256.86
395.56	2195.42
395.76	2269.15
395.97	2318.30
396.18	2336.73
396.39	2412.51
396.60	2711.51
396.80	2510.81
397.01	2383.84
397.22	2369.50
397.43	2459.61
397.64	2236.38
397.84	2340.83
398.05	2521.05
398.26	2256.86
398.47	2379.74
398.67	2363.36
398.88	2226.14
399.09	2330.59
399.30	2187.23
399.51	2215.90
399.71	2189.28
399.92	2209.76
400.13	2293.72
400.34	2314.20
400.54	2250.72
400.75	2326.49
400.96	2271.20
401.17	2385.88
401.37	2258.91
401.58	2314.20
401.79	2299.87
402.00	2422.75
402.21	2711.51
402.41	2625.50
402.62	2643.93
402.83	2717.65
403.04	2639.83
403.24	2807.77
403.45	2373.60
403.66	2418.65
403.87	2414.56
404.07	2521.05
404.28	2437.08
404.49	2424.80
404.70	2406.36
404.90	2396.12
405.11	2256.86
405.32	2316.25
405.52	2142.18
405.73	2187.23
405.94	2187.23
406.15	2179.04
406.35	2353.12
406.56	2285.53
406.77	2271.20
406.98	2324.44
407.18	2162.66
407.39	2392.03
407.60	2242.53
407.80	2310.11
408.01	2199.52
408.22	2252.77
408.43	2121.70
408.63	2277.34
408.84	2353.12
409.05	2400.22
409.25	2150.37
409.46	2176.99
409.67	2185.18
409.88	2179.04
410.08	2306.01
410.29	2203.61
410.50	2324.44
410.70	2396.12
410.91	2154.46
411.12	2242.53
411.32	2228.19
411.53	2146.27
411.74	2260.96
411.95	2326.49
412.15	2375.64
412.36	2326.49
412.57	2340.83
412.77	2416.60
412.98	2273.25
413.19	2224.09
413.39	2336.73
413.60	2277.34
413.81	2398.17
414.01	2191.33
414.22	2322.40
414.43	2297.82
414.63	2138.08
414.84	2342.88
415.05	2250.72
415.25	2070.50
415.46	2334.68
415.67	2269.15
415.87	2207.71
416.08	2279.39
416.29	2226.14
416.49	2326.49
416.70	2230.24
416.91	2166.75
417.11	2220.00
417.32	2404.32
417.53	2293.72
417.73	2265.05
417.94	2306.01
418.15	2252.77
418.35	2258.91
418.56	2318.30
418.77	2543.58
418.97	2328.54
419.18	2217.95
419.38	2093.02
419.59	2240.48
419.80	2432.99
420.00	2191.33
420.21	2299.87
420.42	2389.98
420.62	2273.25
420.83	2138.08
421.04	2236.38
421.24	2234.33
421.45	2310.11
421.65	2269.15
421.86	2238.43
422.07	2367.45
422.27	2322.40
422.48	2310.11
422.69	2168.80
422.89	2244.57
423.10	2283.49
423.30	2152.42
423.51	2265.05
423.72	2293.72
423.92	2310.11
424.13	2176.99
424.33	2316.25
424.54	2334.68
424.75	2322.40
424.95	2365.40
425.16	2232.29
425.36	2281.44
425.57	2445.27
425.78	2260.96
425.98	2355.16
426.19	2211.81
426.39	2097.12
426.60	2285.53
426.81	2355.16
427.01	2338.78
427.22	2191.33
427.42	2045.92
427.63	2115.55
427.83	2297.82
428.04	2406.36
428.25	2432.99
428.45	2334.68
428.66	2281.44
428.86	2168.80
429.07	2195.42
429.28	2234.33
429.48	2275.29
429.69	2191.33
429.89	2314.20
430.10	2181.09
430.30	2357.21
430.51	2338.78
430.71	2242.53
430.92	2263.01
431.13	2228.19
431.33	2324.44
431.54	2228.19
431.74	2357.21
431.95	2467.80
432.15	2150.37
432.36	2140.13
432.56	2316.25
432.77	2455.51
432.98	2461.66
433.18	2226.14
433.39	2269.15
433.59	2199.52
433.80	2469.85
434.00	2480.09
434.21	2205.66
434.41	2168.80
434.62	2478.04
434.82	2138.08
435.03	2043.87
435.23	2326.49
435.44	2039.78
435.64	2191.33
435.85	2291.68
436.06	2400.22
436.26	2359.26
436.47	2209.76
436.67	2209.76
436.88	2209.76
437.08	2258.91
437.29	2297.82
437.49	2336.73
437.70	2367.45
437.90	2273.25
438.11	2465.75
438.31	2312.16
438.52	2420.70
438.72	2510.81
438.93	2504.67
439.13	2373.60
439.34	2373.60
439.54	2228.19
439.75	2258.91
439.95	2357.21
440.16	2230.24
440.36	2342.88
440.57	2275.29
440.77	2242.53
440.98	2242.53
441.18	2258.91
441.39	2160.61
441.59	2115.55
441.80	2439.13
442.00	2211.81
442.21	2428.89
442.41	2183.13
442.62	2322.40
442.82	2162.66
443.02	2252.77
443.23	2205.66
443.43	2318.30
443.64	2420.70
443.84	2156.51
444.05	2359.26
444.25	2197.47
444.46	2267.10
444.66	2248.67
444.87	2461.66
445.07	2129.89
445.28	2211.81
445.48	2394.08
445.69	2269.15
445.89	2519.00
446.09	2263.01
446.30	2574.30
446.50	2818.00
446.71	4337.60
446.91	5429.17
447.12	6471.58
447.32	6717.34
447.53	6217.63
447.73	5083.06
447.93	4480.96
448.14	4300.73
448.34	4118.47
448.55	3629.00
448.75	3626.95
448.96	3358.67
449.16	3028.95
449.36	2883.54
449.57	2549.72
449.77	2453.47
449.98	2215.90
450.18	2414.56
450.39	2367.45
450.59	2349.02
450.79	2256.86
451.00	2228.19
451.20	2357.21
451.41	2303.96
451.61	2314.20
451.81	2252.77
452.02	2252.77
452.22	2176.99
452.43	2263.01
452.63	2207.71
452.84	2277.34
453.04	2183.13
453.24	2269.15
453.45	2146.27
453.65	2244.57
453.86	2244.57
454.06	2342.88
454.26	2222.05
454.47	2217.95
454.67	2424.80
454.87	2371.55
455.08	2234.33
455.28	2320.35
455.49	2312.16
455.69	2164.70
455.89	2416.60
456.10	2363.36
456.30	2269.15
456.51	2314.20
456.71	2412.51
456.91	2338.78
457.12	2252.77
457.32	2377.69
457.52	2150.37
457.73	2297.82
457.93	2340.83
458.14	2191.33
458.34	2174.94
458.54	2271.20
458.75	2154.46
458.95	2377.69
459.15	2271.20
459.36	2244.57
459.56	2363.36
459.76	2443.23
459.97	2301.92
460.17	2265.05
460.37	2367.45
460.58	2285.53
460.78	2353.12
460.99	2211.81
461.19	2203.61
461.39	2246.62
461.60	2275.29
461.80	2295.77
462.00	2183.13
462.21	2267.10
462.41	2164.70
462.61	2187.23
462.82	2088.93
463.02	2365.40
463.22	2289.63
463.43	2283.49
463.63	2248.67
463.83	2412.51
464.04	2312.16
464.24	2228.19
464.44	2256.86
464.64	2244.57
464.85	2308.06
465.05	2293.72
465.25	2199.52
465.46	2230.24
465.66	2375.64
465.86	2312.16
466.07	2209.76
466.27	2236.38
466.47	2158.56
466.68	2146.27
466.88	2389.98
467.08	2357.21
467.29	2330.59
467.49	2344.92
467.69	2248.67
467.89	2324.44
468.10	2228.19
468.30	2314.20
468.50	2422.75
468.71	2422.75
468.91	2146.27
469.11	2396.12
469.31	2260.96
469.52	2138.08
469.72	2459.61
469.92	2437.08
470.13	2191.33
470.33	2289.63
470.53	2332.64
470.73	2680.79
470.94	3100.62
471.14	3162.06
471.34	3538.89
471.54	3471.31
471.75	3074.00
471.95	2795.48
472.15	2723.80
472.36	2840.53
472.56	2727.89
472.76	2818.00
472.96	2594.78
473.17	2527.19
473.37	2490.33
473.57	2316.25
473.77	2406.36
473.98	2287.58
474.18	2179.04
474.38	2613.21
474.58	2236.38
474.79	2203.61
474.99	2373.60
475.19	2375.64
475.39	2160.61
475.60	2226.14
475.80	2273.25
476.00	2324.44
476.20	2263.01
476.41	2379.74
476.61	2400.22
476.81	2400.22
477.01	2222.05
477.21	2375.64
477.42	2357.21
477.62	2197.47
477.82	2383.84
478.02	2236.38
478.23	2289.63
478.43	2150.37
478.63	2228.19
478.83	2301.92
479.03	2191.33
479.24	2361.31
479.44	2533.34
479.64	2244.57
479.84	2056.16
480.04	2133.98
480.25	2359.26
480.45	2201.57
480.65	2211.81
480.85	2420.70
481.06	2234.33
481.26	2256.86
481.46	2215.90
481.66	2314.20
481.86	2220.00
482.06	2322.40
482.27	2265.05
482.47	2269.15
482.67	2297.82
482.87	2211.81
483.07	2322.40
483.28	2281.44
483.48	2150.37
483.68	2260.96
483.88	2187.23
484.08	2099.17
484.29	2162.66
484.49	2379.74
484.69	2160.61
484.89	2381.79
485.09	2353.12
485.29	2334.68
485.50	2349.02
485.70	2234.33
485.90	2400.22
486.10	2250.72
486.30	2310.11
486.50	2383.84
486.71	2279.39
486.91	2346.97
487.11	2342.88
487.31	2168.80
487.51	2246.62
487.71	2205.66
487.91	2117.60
488.12	2201.57
488.32	2058.21
488.52	2209.76
488.72	2056.16
488.92	2283.49
489.12	2346.97
489.32	2349.02
489.53	2394.08
489.73	2176.99
489.93	2488.28
490.13	2201.57
490.33	2039.78
490.53	2322.40
490.73	2400.22
490.94	2146.27
491.14	2297.82
491.34	2359.26
491.54	2615.26
491.74	3323.85
491.94	3715.02
492.14	3977.16
492.34	4100.03
492.54	3790.79
492.75	3139.54
492.95	3219.41
493.15	2930.64
493.35	2965.46
493.55	2815.96
493.75	2717.65
493.95	2731.99
494.15	2641.88
494.35	2361.31
494.56	2371.55
494.76	2269.15
494.96	2291.68
495.16	2363.36
495.36	2256.86
495.56	2232.29
495.76	2226.14
495.96	2252.77
496.16	2154.46
496.36	2463.71
496.56	2334.68
496.77	2230.24
496.97	2293.72
497.17	2389.98
497.37	2191.33
497.57	2252.77
497.77	2301.92
497.97	2185.18
498.17	2209.76
498.37	2277.34
498.57	2269.15
498.77	2111.46
498.97	2349.02
499.17	2531.29
499.38	2242.53
499.58	2336.73
499.78	2375.64
499.98	2346.97
500.18	2203.61
500.38	2267.10
500.58	2465.75
500.78	2785.24
500.98	5218.22
501.18	7153.55
501.38	8789.88
501.58	9846.63
501.78	9582.45
501.98	7636.88
502.18	6227.87
502.38	5521.32
502.58	5142.45
502.78	4544.44
502.98	4456.38
503.18	4190.14
503.38	3874.76
503.59	3459.02
503.79	3182.54
503.99	2987.99
504.19	2760.66
504.39	2809.81
504.59	2760.66
504.79	2885.59
504.99	2889.68
505.19	2600.92
505.39	2508.76
505.59	2627.54
505.79	2490.33
505.99	2369.50
506.19	2340.83
506.39	2502.62
506.59	2252.77
506.79	2269.15
506.99	2432.99
507.19	2299.87
507.39	2310.11
507.59	2150.37
507.79	2197.47
507.99	2195.42
508.19	2299.87
508.39	2150.37
508.59	2293.72
508.79	2445.27
508.99	2521.05
509.19	2199.52
509.39	2281.44
509.59	2176.99
509.79	2166.75
509.99	2252.77
510.19	2330.59
510.39	2424.80
510.59	2291.68
510.79	2238.43
510.99	2170.85
511.19	2291.68
511.39	2439.13
511.59	2355.16
511.79	2396.12
511.99	2224.09
512.19	2443.23
512.38	2263.01
512.58	2238.43
512.78	2258.91
512.98	2385.88
513.18	2406.36
513.38	2082.78
513.58	2281.44
513.78	2199.52
513.98	2342.88
514.18	2189.28
514.38	2215.90
514.58	2301.92
514.78	2158.56
514.98	2154.46
515.18	2285.53
515.38	2217.95
515.58	2441.18
515.78	2191.33
515.98	2279.39
516.18	2346.97
516.38	2220.00
516.57	2144.22
516.77	2189.28
516.97	2277.34
517.17	2195.42
517.37	2043.87
517.57	2295.77
517.77	2228.19
517.97	2220.00
518.17	2318.30
518.37	2187.23
518.57	2244.57
518.77	2236.38
518.97	2160.61
519.16	2287.58
519.36	2404.32
519.56	2217.95
519.76	2215.90
519.96	2310.11
520.16	2437.08
520.36	2195.42
520.56	2416.60
520.76	2228.19
520.96	2285.53
521.16	2363.36
521.35	2389.98
521.55	2441.18
521.75	2283.49
521.95	2236.38
522.15	2199.52
522.35	2068.45
522.55	2172.89
522.75	2303.96
522.95	2226.14
523.14	2168.80
523.34	2277.34
523.54	2242.53
523.74	2363.36
523.94	2273.25
524.14	2125.79
524.34	2318.30
524.54	2355.16
524.73	2207.71
524.93	2351.07
525.13	2285.53
525.33	2101.22
525.53	2492.38
525.73	2340.83
525.93	2250.72
526.13	2265.05
526.32	2306.01
526.52	2330.59
526.72	2318.30
526.92	2258.91
527.12	2179.04
527.32	2133.98
527.52	2365.40
527.71	2314.20
527.91	2250.72
528.11	2285.53
528.31	2248.67
528.51	2140.13
528.71	2263.01
528.90	2338.78
529.10	2359.26
529.30	2441.18
529.50	2052.06
529.70	2252.77
529.90	2232.29
530.09	2256.86
530.29	2150.37
530.49	2195.42
530.69	2545.63
530.89	2289.63
531.09	2338.78
531.28	2324.44
531.48	2432.99
531.68	2306.01
531.88	2170.85
532.08	2367.45
532.28	2256.86
532.47	2387.93
532.67	2418.65
532.87	2301.92
533.07	2193.37
533.27	2342.88
533.46	2301.92
533.66	2330.59
533.86	2246.62
534.06	2287.58
534.26	2381.79
534.45	2281.44
534.65	2396.12
534.85	2299.87
535.05	2183.13
535.25	2396.12
535.44	2154.46
535.64	2252.77
535.84	2260.96
536.04	2185.18
536.24	2176.99
536.43	2248.67
536.63	2242.53
536.83	2170.85
537.03	2283.49
537.22	2072.54
537.42	2013.15
537.62	2293.72
537.82	2113.50
538.02	2445.27
538.21	2349.02
538.41	2557.91
538.61	2365.40
538.81	2242.53
539.00	2445.27
539.20	2203.61
539.40	2250.72
539.60	2322.40
539.79	2314.20
539.99	2289.63
540.19	2195.42
540.39	2238.43
540.58	2275.29
540.78	2316.25
540.98	2351.07
541.18	2482.14
541.37	2275.29
541.57	2297.82
541.77	2346.97
541.97	2189.28
542.16	2183.13
542.36	2260.96
542.56	2129.89
542.76	2418.65
542.95	2357.21
543.15	2330.59
543.35	2357.21
543.54	2144.22
543.74	2220.00
543.94	2357.21
544.14	2170.85
544.33	2346.97
544.53	2226.14
544.73	2252.77
544.93	2252.77
545.12	2277.34
545.32	2172.89
545.52	2220.00
545.71	2185.18
545.91	2250.72
546.11	2263.01
546.30	2170.85
546.50	2273.25
546.70	2330.59
546.90	2308.06
547.09	2066.40
547.29	2291.68
547.49	2336.73
547.68	2209.76
547.88	2201.57
548.08	2349.02
548.27	2815.96
548.47	2191.33
548.67	2189.28
548.87	2289.63
549.06	2162.66
549.26	2240.48
549.46	2320.35
549.65	2211.81
549.85	2228.19
550.05	2285.53
550.24	2254.81
550.44	2254.81
550.64	2191.33
550.83	2213.85
551.03	2457.56
551.23	2447.32
551.42	2265.05
551.62	2222.05
551.82	2269.15
552.01	2265.05
552.21	2365.40
552.41	2254.81
552.60	2461.66
552.80	2277.34
553.00	2203.61
553.19	2283.49
553.39	2512.86
553.59	2279.39
553.78	2297.82
553.98	2297.82
554.17	2217.95
554.37	2318.30
554.57	2297.82
554.76	2181.09
554.96	2201.57
555.16	2291.68
555.35	2209.76
555.55	2326.49
555.75	2326.49
555.94	2310.11
556.14	2222.05
556.33	2371.55
556.53	2258.91
556.73	2252.77
556.92	2308.06
557.12	2351.07
557.32	2379.74
557.51	2455.51
557.71	2260.96
557.90	2351.07
558.10	2361.31
558.30	2273.25
558.49	2248.67
558.69	2136.03
558.88	2359.26
559.08	2308.06
559.28	2217.95
559.47	2285.53
559.67	2344.92
559.86	2363.36
560.06	2328.54
560.26	2273.25
560.45	2265.05
560.65	2181.09
560.84	2375.64
561.04	2232.29
561.24	2346.97
561.43	2224.09
561.63	2408.41
561.82	2269.15
562.02	2371.55
562.22	2226.14
562.41	2277.34
562.61	2185.18
562.80	2170.85
563.00	2506.71
563.19	2287.58
563.39	2252.77
563.59	2365.40
563.78	2217.95
563.98	2021.35
564.17	2242.53
564.37	2109.41
564.56	2236.38
564.76	2154.46
564.96	2389.98
565.15	2260.96
565.35	2506.71
565.54	2226.14
565.74	2303.96
565.93	2349.02
566.13	2285.53
566.32	2297.82
566.52	2387.93
566.71	2224.09
566.91	2420.70
567.11	2322.40
567.30	2158.56
567.50	2357.21
567.69	2338.78
567.89	2234.33
568.08	2162.66
568.28	2289.63
568.47	2209.76
568.67	2209.76
568.86	2170.85
569.06	2338.78
569.25	2228.19
569.45	2162.66
569.64	2222.05
569.84	2185.18
570.04	2340.83
570.23	2271.20
570.43	2283.49
570.62	2258.91
570.82	2420.70
571.01	2113.50
571.21	2207.71
571.40	2176.99
571.60	2416.60
571.79	2387.93
571.99	2293.72
572.18	2209.76
572.38	2320.35
572.57	2158.56
572.77	2281.44
572.96	2510.81
573.16	2299.87
573.35	2287.58
573.55	2373.60
573.74	2306.01
573.94	2236.38
574.13	2238.43
574.33	2326.49
574.52	2353.12
574.71	2336.73
574.91	2310.11
575.10	2185.18
575.30	2269.15
575.49	2209.76
575.69	2154.46
575.88	2277.34
576.08	2258.91
576.27	2398.17
576.47	2332.64
576.66	2453.47
576.86	2408.41
577.05	2301.92
577.25	2328.54
577.44	2516.95
577.64	2340.83
577.83	2373.60
578.02	2267.10
578.22	2342.88
578.41	2523.10
578.61	2293.72
578.80	2209.76
579.00	2269.15
579.19	2338.78
579.39	2412.51
579.58	2326.49
579.77	2258.91
579.97	2447.32
580.16	2402.27
580.36	2457.56
580.55	2355.16
580.75	2308.06
580.94	2281.44
581.13	2486.23
581.33	2449.37
581.52	2232.29
581.72	2568.15
581.91	2519.00
582.11	2260.96
582.30	2324.44
582.49	2289.63
582.69	2478.04
582.88	2377.69
583.08	2301.92
583.27	2439.13
583.47	2291.68
583.66	2269.15
583.85	2187.23
584.05	2260.96
584.24	2400.22
584.44	2265.05
584.63	2402.27
584.82	2426.84
585.02	2414.56
585.21	2459.61
585.41	2465.75
585.60	2389.98
585.79	2578.39
585.99	2578.39
586.18	2430.94
586.37	3030.99
586.57	4747.19
586.76	13674.29
586.96	33003.02
587.15	47093.04
587.34	55911.59
587.54	61226.07
587.73	55774.38
587.93	39445.93
588.12	29929.02
588.31	23916.18
588.51	20897.47
588.70	19400.41
588.89	17512.18
589.09	15085.34
589.28	12869.44
589.47	10434.40
589.67	8228.74
589.86	6338.46
590.06	4591.55
590.25	3825.61
590.44	3260.37
590.64	2861.01
590.83	2613.21
591.02	2535.39
591.22	2430.94
591.41	2410.46
591.60	2326.49
591.80	2572.25
591.99	2205.66
592.18	2244.57
592.38	2422.75
592.57	2193.37
592.76	2324.44
592.96	2295.77
593.15	2310.11
593.34	2445.27
593.54	2215.90
593.73	2324.44
593.92	2377.69
594.12	2334.68
594.31	2367.45
594.50	2447.32
594.70	2326.49
594.89	2514.91
595.08	2160.61
595.28	2209.76
595.47	2537.43
595.66	2320.35
595.86	2207.71
596.05	2201.57
596.24	2254.81
596.43	2392.03
596.63	2488.28
596.82	2353.12
597.01	2361.31
597.21	2402.27
597.40	2377.69
597.59	2332.64
597.79	2277.34
597.98	2355.16
598.17	2326.49
598.36	2365.40
598.56	2392.03
598.75	2260.96
598.94	2340.83
599.14	2297.82
599.33	2291.68
599.52	2351.07
599.71	2351.07
599.91	2365.40
600.10	2303.96
600.29	2295.77
600.48	2406.36
600.68	2336.73
600.87	2269.15
601.06	2217.95
601.26	2316.25
601.45	2283.49
601.64	2220.00
601.83	2465.75
602.03	2226.14
602.22	2156.51
602.41	2357.21
602.60	2519.00
602.80	2340.83
602.99	2326.49
603.18	2293.72
603.37	2342.88
603.57	2342.88
603.76	2375.64
603.95	2392.03
604.14	2260.96
604.34	2197.47
604.53	2301.92
604.72	2285.53
604.91	2357.21
605.10	2306.01
605.30	2205.66
605.49	2490.33
605.68	2314.20
605.87	2408.41
606.07	2230.24
606.26	2232.29
606.45	2318.30
606.64	2228.19
606.84	2201.57
607.03	2308.06
607.22	2392.03
607.41	2220.00
607.60	2279.39
607.80	2412.51
607.99	2232.29
608.18	2275.29
608.37	2318.30
608.56	2179.04
608.76	2308.06
608.95	2506.71
609.14	2334.68
609.33	2473.95
609.52	2441.18
609.72	2299.87
609.91	2387.93
610.10	2365.40
610.29	2502.62
610.48	2398.17
610.68	2283.49
610.87	2283.49
611.06	2281.44
611.25	2203.61
611.44	2437.08
611.63	2246.62
611.83	2441.18
612.02	2215.90
612.21	2394.08
612.40	2166.75
612.59	2211.81
612.79	2195.42
612.98	2244.57
613.17	2463.71
613.36	2240.48
613.55	2414.56
613.74	2258.91
613.93	2392.03
614.13	2428.89
614.32	2420.70
614.51	2480.09
614.70	2324.44
614.89	2342.88
615.08	2379.74
615.28	2742.23
615.47	2220.00
615.66	2410.46
615.85	2379.74
616.04	2404.32
616.23	2316.25
616.42	2342.88
616.62	2336.73
616.81	2318.30
617.00	2242.53
617.19	2392.03
617.38	2205.66
617.57	2248.67
617.76	2287.58
617.95	2404.32
618.15	2367.45
618.34	2435.03
618.53	2260.96
618.72	2383.84
618.91	2418.65
619.10	2453.47
619.29	2260.96
619.48	2306.01
619.68	2187.23
619.87	2308.06
620.06	2160.61
620.25	2379.74
620.44	2236.38
620.63	2211.81
620.82	2234.33
621.01	2306.01
621.20	2168.80
621.39	2332.64
621.59	2396.12
621.78	2256.86
621.97	2287.58
622.16	2328.54
622.35	2277.34
622.54	2344.92
622.73	2387.93
622.92	2160.61
623.11	2392.03
623.30	2267.10
623.49	2338.78
623.68	2195.42
623.88	2428.89
624.07	2187.23
624.26	2330.59
624.45	2263.01
624.64	2217.95
624.83	2295.77
625.02	2258.91
625.21	2269.15
625.40	2287.58
625.59	2416.60
625.78	2287.58
625.97	2359.26
626.16	2428.89
626.35	2359.26
626.54	2334.68
626.74	2455.51
626.93	2267.10
627.12	2230.24
627.31	2365.40
627.50	2277.34
627.69	2377.69
627.88	2154.46
628.07	2281.44
628.26	2074.59
628.45	2256.86
628.64	2150.37
628.83	2187.23
629.02	2127.84
629.21	2338.78
629.40	2281.44
629.59	2211.81
629.78	2281.44
629.97	2342.88
630.16	2271.20
630.35	2287.58
630.54	2217.95
630.73	2269.15
630.92	2267.10
631.11	2232.29
631.30	2318.30
631.49	2432.99
631.68	2271.20
631.87	2308.06
632.06	2101.22
632.25	2508.76
632.44	2232.29
632.63	2303.96
632.82	2244.57
633.01	2295.77
633.20	2310.11
633.39	2297.82
633.58	2260.96
633.77	2314.20
633.96	2338.78
634.15	2324.44
634.34	2365.40
634.53	2281.44
634.72	2230.24
634.91	2199.52
635.10	2201.57
635.29	2355.16
635.48	2299.87
635.67	2226.14
635.86	2140.13
636.05	2457.56
636.24	2250.72
636.43	2242.53
636.62	2277.34
636.81	2074.59
637.00	2267.10
637.19	2316.25
637.38	2195.42
637.57	2277.34
637.76	2389.98
637.95	2392.03
638.14	2365.40
638.33	2375.64
638.52	2285.53
638.71	2269.15
638.89	2191.33
639.08	2621.40
639.27	2369.50
639.46	2512.86
639.65	2924.50
639.84	2877.40
640.03	3012.56
640.22	2908.12
640.41	2885.59
640.60	2498.52
640.79	2557.91
640.98	2332.64
641.17	2432.99
641.36	2465.75
641.55	2496.47
641.74	2269.15
641.92	2273.25
642.11	2211.81
642.30	2281.44
642.49	2201.57
642.68	2197.47
642.87	2320.35
643.06	2289.63
643.25	2187.23
643.44	2179.04
643.63	2355.16
643.82	2367.45
644.00	2111.46
644.19	2250.72
644.38	2164.70
644.57	2338.78
644.76	2297.82
644.95	2263.01
645.14	2234.33
645.33	2240.48
645.52	2267.10
645.71	2246.62
645.89	2195.42
646.08	2211.81
646.27	2199.52
646.46	2439.13
646.65	2193.37
646.84	2213.85
647.03	2195.42
647.22	2310.11
647.40	2281.44
647.59	2228.19
647.78	2140.13
647.97	2179.04
648.16	2160.61
648.35	2435.03
648.54	2361.31
648.73	2220.00
648.91	2359.26
649.10	2279.39
649.29	2203.61
649.48	2310.11
649.67	2326.49
649.86	2349.02
650.05	2308.06
650.23	2455.51
650.42	2338.78
650.61	2527.19
650.80	2441.18
650.99	2541.53
651.18	2449.37
651.36	2441.18
651.55	2260.96
651.74	2349.02
651.93	2326.49
652.12	2297.82
652.31	2269.15
652.49	2308.06
652.68	2226.14
652.87	2480.09
653.06	2301.92
653.25	2383.84
653.44	2297.82
653.62	2459.61
653.81	2252.77
654.00	2232.29
654.19	2324.44
654.38	2574.30
654.56	2281.44
654.75	2179.04
654.94	2336.73
655.13	2260.96
655.32	2183.13
655.51	2351.07
655.69	2170.85
655.88	2344.92
656.07	2076.64
656.26	2263.01
656.45	2072.54
656.63	2265.05
656.82	2308.06
657.01	2363.36
657.20	2217.95
657.38	2475.99
657.57	2213.85
657.76	2228.19
657.95	2349.02
658.14	2217.95
658.32	2346.97
658.51	2150.37
658.70	2269.15
658.89	2303.96
659.08	2346.97
659.26	2490.33
659.45	2152.42
659.64	2447.32
659.83	2279.39
660.01	2551.77
660.20	2349.02
660.39	2473.95
660.58	2064.35
660.76	2346.97
660.95	2195.42
661.14	2265.05
661.33	2088.93
661.51	2258.91
661.70	2217.95
661.89	2260.96
662.08	2260.96
662.26	2248.67
662.45	2220.00
662.64	2467.80
662.83	2349.02
663.01	2129.89
663.20	2164.70
663.39	2432.99
663.58	2195.42
663.76	2260.96
663.95	2326.49
664.14	2234.33
664.32	2148.32
664.51	2152.42
664.70	2074.59
664.89	2338.78
665.07	2133.98
665.26	2316.25
665.45	2072.54
665.64	2369.50
665.82	2236.38
666.01	2328.54
666.20	2176.99
666.38	2410.46
666.57	2441.18
666.76	3409.87
666.95	8167.30
667.13	16400.13
667.32	21382.84
667.51	24729.22
667.69	26457.71
667.88	24379.02
668.07	17211.13
668.25	13891.37
668.44	11489.10
668.63	9785.19
668.81	8677.24
669.00	7595.92
669.19	6756.25
669.38	6002.60
669.56	5201.84
669.75	4327.36
669.94	3704.78
670.12	3067.86
670.31	2846.68
670.50	2613.21
670.68	2547.67
670.87	2394.08
671.06	2283.49
671.24	2387.93
671.43	2439.13
671.62	2301.92
671.80	2228.19
671.99	2361.31
672.18	2246.62
672.36	2355.16
672.55	2326.49
672.74	2301.92
672.92	2275.29
673.11	2342.88
673.29	2119.65
673.48	2254.81
673.67	2168.80
673.85	2324.44
674.04	2183.13
674.23	2297.82
674.41	2482.14
674.60	2058.21
674.79	2142.18
674.97	2133.98
675.16	2312.16
675.34	2293.72
675.53	2162.66
675.72	2248.67
675.90	2469.85
676.09	2240.48
676.28	2220.00
676.46	2056.16
676.65	2275.29
676.83	2215.90
677.02	2260.96
677.21	2252.77
677.39	2322.40
677.58	2213.85
677.77	2226.14
677.95	2189.28
678.14	2215.90
678.32	2209.76
678.51	2154.46
678.70	2346.97
678.88	2281.44
679.07	2279.39
679.25	2318.30
679.44	2285.53
679.63	2203.61
679.81	2273.25
680.00	2375.64
680.18	2318.30
680.37	2326.49
680.55	2277.34
680.74	2168.80
680.93	2074.59
681.11	2332.64
681.30	2306.01
681.48	2269.15
681.67	2146.27
681.85	2283.49
682.04	2199.52
682.23	2281.44
682.41	2314.20
682.60	2285.53
682.78	2226.14
682.97	2115.55
683.15	2244.57
683.34	2287.58
683.53	2326.49
683.71	2193.37
683.90	2342.88
684.08	2445.27
684.27	2232.29
684.45	2306.01
684.64	2416.60
684.82	2273.25
685.01	2320.35
685.19	2303.96
685.38	2349.02
685.57	2373.60
685.75	2209.76
685.94	2150.37
686.12	2181.09
686.31	2220.00
686.49	2441.18
686.68	2058.21
686.86	2291.68
687.05	2201.57
687.23	2404.32
687.42	2244.57
687.60	2060.26
687.79	2344.92
687.97	2432.99
688.16	2301.92
688.34	2324.44
688.53	2031.58
688.71	2287.58
688.90	2383.84
689.08	2267.10
689.27	2076.64
689.45	2211.81
689.64	2285.53
689.82	2207.71
690.01	2291.68
690.19	2267.10
690.38	2232.29
690.56	2365.40
690.75	2203.61
690.93	2263.01
691.12	2086.88
691.30	2301.92
691.49	2242.53
691.67	2244.57
691.86	2426.84
692.04	2217.95
692.23	2254.81
692.41	2332.64
692.60	2537.43
692.78	2422.75
692.97	2285.53
693.15	2303.96
693.34	2402.27
693.52	2295.77
693.71	2148.32
693.89	2203.61
694.08	2144.22
694.26	2377.69
694.44	2369.50
694.63	2346.97
694.81	2166.75
695.00	2176.99
695.18	2457.56
695.37	2447.32
695.55	2344.92
695.74	2269.15
695.92	2140.13
696.10	2365.40
696.29	2160.61
696.47	2248.67
696.66	2158.56
696.84	2099.17
697.03	2281.44
697.21	2514.91
697.40	3315.66
697.58	2402.27
697.76	2123.74
697.95	2187.23
698.13	2158.56
698.32	2150.37
698.50	2201.57
698.68	2322.40
698.87	2342.88
699.05	2377.69
699.24	2283.49
699.42	2195.42
699.61	2299.87
699.79	2277.34
699.97	2240.48
700.16	2176.99
700.34	2060.26
700.53	2293.72
700.71	2451.42
700.89	2353.12
701.08	2215.90
701.26	2289.63
701.45	2727.89
701.63	2211.81
701.81	2250.72
702.00	2162.66
702.18	2207.71
702.37	2197.47
702.55	2504.67
702.73	2447.32
702.92	2342.88
703.10	2496.47
703.28	2490.33
703.47	2265.05
703.65	2400.22
703.84	2453.47
704.02	2367.45
704.20	2445.27
704.39	2310.11
704.57	2187.23
704.75	2426.84
704.94	2349.02
705.12	2269.15
705.30	2643.93
705.49	4480.96
705.67	10583.90
705.86	18157.29
706.04	21810.87
706.22	25159.30
706.41	25775.73
706.59	21872.31
706.77	15425.30
706.96	13078.33
707.14	11614.03
707.32	9940.84
707.51	8744.83
707.69	7258.00
707.87	6045.60
708.06	4667.32
708.24	3901.38
708.42	3227.60
708.61	3129.30
708.79	2449.37
708.97	2424.80
709.16	2469.85
709.34	2351.07
709.52	2217.95
709.71	2316.25
709.89	2314.20
710.07	2181.09
710.26	2185.18
710.44	2260.96
710.62	2334.68
710.80	2273.25
710.99	2314.20
711.17	2303.96
711.35	2154.46
711.54	2256.86
711.72	2371.55
711.90	2271.20
712.09	2326.49
712.27	2150.37
712.45	2324.44
712.63	2174.94
712.82	2260.96
713.00	2195.42
713.18	2260.96
713.37	2342.88
713.55	2371.55
713.73	2256.86
713.91	2332.64
714.10	2203.61
714.28	2224.09
714.46	2301.92
714.65	2336.73
714.83	2258.91
715.01	2267.10
715.19	2324.44
715.38	2181.09
715.56	2271.20
715.74	2156.51
715.92	2220.00
716.11	2359.26
716.29	2111.46
716.47	2297.82
716.65	2277.34
716.84	2097.12
717.02	2346.97
717.20	2113.50
717.38	2228.19
717.57	2324.44
717.75	2240.48
717.93	2166.75
718.11	2293.72
718.30	2088.93
718.48	2263.01
718.66	2367.45
718.84	2322.40
719.03	2211.81
719.21	2152.42
719.39	2402.27
719.57	2293.72
719.75	2351.07
719.94	2205.66
720.12	2154.46
720.30	2342.88
720.48	2328.54
720.67	2201.57
720.85	2084.83
721.03	2189.28
721.21	2176.99
721.39	2263.01
721.58	2299.87
721.76	2185.18
721.94	2281.44
722.12	2295.77
722.30	2357.21
722.49	2191.33
722.67	2318.30
722.85	2281.44
723.03	2191.33
723.21	2203.61
723.40	2199.52
723.58	2334.68
723.76	2289.63
723.94	2408.41
724.12	2308.06
724.30	2443.23
724.49	2396.12
724.67	2220.00
724.85	2351.07
725.03	2185.18
725.21	2338.78
725.40	2398.17
725.58	2258.91
725.76	2410.46
725.94	2383.84
726.12	2183.13
726.30	2187.23
726.49	2215.90
726.67	2228.19
726.85	2379.74
727.03	2531.29
727.21	3659.72
727.39	4954.04
727.57	5883.81
727.76	6416.29
727.94	6885.27
728.12	6496.16
728.30	5173.17
728.48	4550.59
728.66	4087.75
728.84	3807.17
729.03	3217.36
729.21	2971.60
729.39	2772.95
729.57	2492.38
729.75	2404.32
729.93	2379.74
730.11	2310.11
730.30	2303.96
730.48	2287.58
730.66	2373.60
730.84	2334.68
731.02	2234.33
731.20	2207.71
731.38	2185.18
731.56	2144.22
731.74	2172.89
731.93	2346.97
732.11	2260.96
732.29	2179.04
732.47	2289.63
732.65	2306.01
732.83	2402.27
733.01	2346.97
733.19	2203.61
733.37	2318.30
733.56	2322.40
733.74	2222.05
733.92	2389.98
734.10	2215.90
734.28	2301.92
734.46	2070.50
734.64	2187.23
734.82	2211.81
735.00	2234.33
735.18	2211.81
735.36	2215.90
735.54	2209.76
735.73	2244.57
735.91	2281.44
736.09	2318.30
736.27	2213.85
736.45	2301.92
736.63	2131.94
736.81	2199.52
736.99	2275.29
737.17	2437.08
737.35	2154.46
737.53	2285.53
737.71	2211.81
737.89	2383.84
738.07	2176.99
738.25	2193.37
738.43	2148.32
738.61	2201.57
738.80	2142.18
738.98	2162.66
739.16	2220.00
739.34	2201.57
739.52	2424.80
739.70	2285.53
739.88	2336.73
740.06	2432.99
740.24	2045.92
740.42	2330.59
740.60	2113.50
740.78	2113.50
740.96	1998.82
741.14	2211.81
741.32	2275.29
741.50	2160.61
741.68	2447.32
741.86	2424.80
742.04	2109.41
742.22	2179.04
742.40	2211.81
742.58	2267.10
742.76	2158.56
742.94	2316.25
743.12	2097.12
743.30	2324.44
743.48	2318.30
743.66	2131.94
743.84	2349.02
744.02	2240.48
744.20	2285.53
744.38	2187.23
744.56	2195.42
744.74	2396.12
744.92	2265.05
745.10	2383.84
745.28	2336.73
745.46	2414.56
745.64	2082.78
745.82	2328.54
746.00	2271.20
746.18	2248.67
746.36	2205.66
746.54	2271.20
746.72	2260.96
746.90	2275.29
747.08	2387.93
747.26	2172.89
747.44	2318.30
747.62	2334.68
747.80	2258.91
747.98	2314.20
748.15	2213.85
748.33	2412.51
748.51	2185.18
748.69	2357.21
748.87	2187.23
749.05	2252.77
749.23	2187.23
749.41	2285.53
749.59	2174.94
749.77	2475.99
749.95	2299.87
750.13	2162.66
750.31	2281.44
750.49	2217.95
750.67	2277.34
750.85	2338.78
751.03	2297.82
751.20	2531.29
751.38	2201.57
751.56	2187.23
751.74	2183.13
751.92	2242.53
752.10	2150.37
752.28	2363.36
752.46	2166.75
752.64	2279.39
752.82	2185.18
753.00	2310.11
753.18	2215.90
753.35	2168.80
753.53	2232.29
753.71	2250.72
753.89	2291.68
754.07	2281.44
754.25	2281.44
754.43	2320.35
754.61	2080.74
754.79	2293.72
754.97	2166.75
755.14	2324.44
755.32	2113.50
755.50	2205.66
755.68	2285.53
755.86	2170.85
756.04	2234.33
756.22	2088.93
756.40	2326.49
756.57	2480.09
756.75	2187.23
756.93	2430.94
757.11	2365.40
757.29	2224.09
757.47	2101.22
757.65	2127.84
757.82	2039.78
758.00	2187.23
758.18	2183.13
758.36	2197.47
758.54	2437.08
758.72	2154.46
758.90	2297.82
759.07	2316.25
759.25	2146.27
759.43	2271.20
759.61	2154.46
759.79	3078.10
759.97	2260.96
760.15	2265.05
760.32	2246.62
760.50	2269.15
760.68	2461.66
760.86	2142.18
761.04	2287.58
761.22	2303.96
761.39	2263.01
761.57	2213.85
761.75	2297.82
761.93	2308.06
762.11	2179.04
762.28	2209.76
762.46	2195.42
762.64	2316.25
762.82	2121.70
763.00	2260.96
763.18	2346.97
763.35	2101.22
763.53	2299.87
763.71	2232.29
763.89	2318.30
764.07	2271.20
764.24	2193.37
764.42	2301.92
764.60	2279.39
764.78	2303.96
764.96	2303.96
765.13	2314.20
765.31	2154.46
765.49	2340.83
765.67	2162.66
765.84	2123.74
766.02	2248.67
766.20	2045.92
766.38	2308.06
766.56	2326.49
766.73	2303.96
766.91	2285.53
767.09	2224.09
767.27	2289.63
767.44	2242.53
767.62	2326.49
767.80	2236.38
767.98	2213.85
768.15	2123.74
768.33	2301.92
768.51	2316.25
768.69	2285.53
768.87	2340.83
769.04	2279.39
769.22	2562.01
769.40	2346.97
769.58	2459.61
769.75	2328.54
769.93	2387.93
770.11	2201.57
770.28	2127.84
770.46	2334.68
770.64	2326.49
770.82	2201.57
770.99	2236.38
771.17	2400.22
771.35	2117.60
771.53	2234.33
771.70	2246.62
771.88	2279.39
772.06	2125.79
772.23	2170.85
772.41	2344.92
772.59	2179.04
772.77	2299.87
772.94	2203.61
773.12	2293.72
773.30	2222.05
773.47	2260.96
773.65	2213.85
773.83	2412.51
774.01	2150.37
774.18	2138.08
774.36	2314.20
774.54	2150.37
774.71	2232.29
774.89	2140.13
775.07	2172.89
775.24	2207.71
775.42	2217.95
775.60	2430.94
775.78	2152.42
775.95	2054.11
776.13	2113.50
776.31	2047.97
776.48	2316.25
776.66	2426.84
776.84	2195.42
777.01	2213.85
777.19	2088.93
777.37	2209.76
777.54	2273.25
777.72	2492.38
777.90	2308.06
778.07	2187.23
778.25	2523.10
778.43	2291.68
778.60	2201.57
778.78	2349.02
778.96	2351.07
779.13	2146.27
779.31	2334.68
779.49	2252.77
779.66	2197.47
779.84	2273.25
780.01	2211.81
780.19	2095.07
780.37	2363.36
780.54	2310.11
780.72	2170.85
780.90	2189.28
781.07	2258.91
781.25	2207.71
781.43	2328.54
781.60	2220.00
781.78	2330.59
781.95	2232.29
782.13	2170.85
782.31	2246.62
782.48	2033.63
782.66	2265.05
782.83	2361.31
783.01	2306.01
783.19	2359.26
783.36	2222.05
783.54	2195.42
783.72	2349.02
783.89	2189.28
784.07	2213.85
784.24	2260.96
784.42	2394.08
784.60	2283.49
784.77	2279.39
784.95	2037.73
785.12	2220.00
785.30	2260.96
785.47	2195.42
785.65	2160.61
785.83	2209.76
786.00	2162.66
786.18	2267.10
786.35	2150.37
786.53	2133.98
786.71	2289.63
786.88	2256.86
787.06	2217.95
787.23	2269.15
787.41	2080.74
787.58	2254.81
787.76	2162.66
787.94	2242.53
788.11	2224.09
788.29	2088.93
788.46	2152.42
788.64	2146.27
788.81	2224.09
788.99	2138.08
789.16	2172.89
789.34	2230.24
789.52	2150.37
789.69	2158.56
789.87	2068.45
790.04	2125.79
790.22	2283.49
790.39	2447.32
790.57	2168.80
790.74	2154.46
790.92	2320.35
791.09	2168.80
791.27	2297.82
791.44	2351.07
791.62	2250.72
791.79	2383.84
791.97	2316.25
792.15	2578.39
792.32	2291.68
792.50	2308.06
792.67	2463.71
792.85	2416.60
793.02	2222.05
793.20	2234.33
793.37	2043.87
793.55	2242.53
793.72	2140.13
793.90	2295.77
794.07	2232.29
794.25	2146.27
794.42	2338.78
794.60	2209.76
794.77	2234.33
794.95	2275.29
795.12	2326.49
795.30	2244.57
795.47	2054.11
795.65	2533.34
795.82	2287.58
796.00	2174.94
796.17	2203.61
796.34	2144.22
796.52	2263.01
796.69	2293.72
796.87	2295.77
797.04	2242.53
797.22	2289.63
797.39	2234.33
797.57	2349.02
797.74	2248.67
797.92	2244.57
798.09	2220.00
798.27	2381.79
798.44	2152.42
798.62	2170.85
798.79	2215.90
798.96	2256.86
799.14	2176.99
799.31	2486.23
799.49	2269.15
799.66	2156.51
799.84	2273.25
800.01	2099.17
800.19	2248.67
800.36	2136.03
800.53	2252.77
800.71	2277.34
800.88	2457.56
801.06	2150.37
801.23	2080.74
801.41	2215.90
801.58	2209.76
801.75	2220.00
801.93	2342.88
802.10	2295.77
802.28	2220.00
802.45	2193.37
802.63	2220.00
802.80	2416.60
802.97	2258.91
803.15	2265.05
803.32	2207.71
803.50	2080.74
803.67	2144.22
803.84	2138.08
804.02	2256.86
804.19	2220.00
804.37	2058.21
804.54	2144.22
804.71	2181.09
804.89	2166.75
805.06	2183.13
805.24	2162.66
805.41	2176.99
805.58	2166.75
805.76	2525.15
805.93	2176.99
806.10	2383.84
806.28	2320.35
806.45	2252.77
806.63	2293.72
806.80	2301.92
806.97	2211.81
807.15	2260.96
807.32	2240.48
807.49	2232.29
807.67	2113.50
807.84	2285.53
808.01	2080.74
808.19	2381.79
808.36	2459.61
808.54	2277.34
808.71	2220.00
808.88	2205.66
809.06	2445.27
809.23	2449.37
809.40	2142.18
809.58	2310.11
809.75	2217.95
809.92	2166.75
810.10	2443.23
810.27	2242.53
810.44	2283.49
810.62	2330.59
810.79	2236.38
810.96	2203.61
811.14	2174.94
811.31	2281.44
811.48	2291.68
811.66	2211.81
811.83	2301.92
812.00	2271.20
812.18	2308.06
812.35	2445.27
812.52	2240.48
812.69	2213.85
812.87	2166.75
813.04	2232.29
813.21	2215.90
813.39	2195.42
813.56	2146.27
813.73	2293.72
813.91	2058.21
814.08	2279.39
814.25	2217.95
814.42	2076.64
814.60	2267.10
814.77	2314.20
814.94	2154.46
815.12	2217.95
815.29	2447.32
815.46	2224.09
815.63	2211.81
815.81	2240.48
815.98	2191.33
816.15	2287.58
816.33	2228.19
816.50	2164.70
816.67	2242.53
816.84	2205.66
817.02	2133.98
817.19	2226.14
817.36	2301.92
817.53	2269.15
817.71	2166.75
817.88	2353.12
818.05	2222.05
818.22	2260.96
818.40	2430.94
818.57	2183.13
818.74	2303.96
818.91	2193.37
819.09	2269.15
819.26	2392.03
819.43	2146.27
819.60	2193.37
819.78	2211.81
819.95	2398.17
820.12	2152.42
820.29	2320.35
820.47	2277.34
820.64	2228.19
820.81	2168.80
820.98	2150.37
821.15	2273.25
821.33	2301.92
821.50	2170.85
821.67	2385.88
821.84	2181.09
822.02	2306.01
822.19	2340.83
822.36	2195.42
822.53	2203.61
822.70	2052.06
822.88	2189.28
823.05	2443.23
823.22	2252.77
823.39	2359.26
823.56	2238.43
823.74	2412.51
823.91	2242.53
824.08	2142.18
824.25	2203.61
824.42	2455.51
824.60	2162.66
824.77	2203.61
824.94	2220.00
825.11	2232.29
825.28	2115.55
825.45	2265.05
825.63	2275.29
825.80	2174.94
825.97	2299.87
826.14	2232.29
826.31	2097.12
826.48	2328.54
826.66	2138.08
826.83	2228.19
827.00	2244.57
827.17	2162.66
827.34	2181.09
827.51	2154.46
827.69	2283.49
827.86	2084.83
828.03	2129.89
828.20	2217.95
828.37	2158.56
828.54	2254.81
828.71	2205.66
828.89	2291.68
829.06	2250.72
829.23	2387.93
829.40	2215.90
829.57	2181.09
829.74	2308.06
829.91	2252.77
830.09	2172.89
830.26	2226.14
830.43	2371.55
830.60	2209.76
830.77	2346.97
830.94	2394.08
831.11	2252.77
831.28	2236.38
831.46	2269.15
831.63	2226.14
831.80	2326.49
831.97	2154.46
832.14	2211.81
832.31	2289.63
832.48	2306.01
832.65	2330.59
832.82	2244.57
832.99	2291.68
833.17	2088.93
833.34	2396.12
833.51	2267.10
833.68	2144.22
833.85	2379.74
834.02	2195.42
834.19	2146.27
834.36	2211.81
834.53	2217.95
834.70	2312.16
834.87	2193.37
835.04	2148.32
835.22	2162.66
835.39	2232.29
835.56	2185.18
835.73	2158.56
835.90	2330.59
836.07	2154.46
836.24	2269.15
836.41	2129.89
836.58	2174.94
836.75	2269.15
836.92	2240.48
837.09	2152.42
837.26	2283.49
837.43	2297.82
837.60	2301.92
837.77	2236.38
837.94	2406.36
838.12	2357.21
838.29	2183.13
838.46	2101.22
838.63	2093.02
838.80	2406.36
838.97	2176.99
839.14	2248.67
839.31	2252.77
839.48	2371.55
839.65	2160.61
839.82	2373.60
839.99	2269.15
840.16	2213.85
840.33	2129.89
840.50	2191.33
840.67	2203.61
840.84	2066.40
841.01	2236.38
841.18	2176.99
841.35	2240.48
841.52	2349.02
841.69	2357.21
841.86	2242.53
842.03	2242.53
842.20	2424.80
842.37	2170.85
842.54	2189.28
842.71	2281.44
842.88	2121.70
843.05	2258.91
843.22	2199.52
843.39	2281.44
843.56	2224.09
843.73	2244.57
843.90	2273.25
844.07	2328.54
844.24	2326.49
844.41	2279.39
844.58	2254.81
844.75	2179.04
844.92	2295.77
845.09	2174.94
845.26	2162.66
845.43	2326.49
845.60	2146.27
845.77	2273.25
845.94	2248.67
846.10	2330.59
846.27	2047.97
846.44	2090.98
846.61	2176.99
846.78	2306.01
846.95	2316.25
847.12	2162.66
847.29	2181.09
847.46	2154.46
847.63	2326.49
847.80	2123.74
847.97	2129.89
848.14	2457.56
848.31	2252.77
848.48	2090.98
848.65	2230.24
848.82	2211.81
848.98	2523.10
849.15	2275.29
849.32	2351.07
849.49	2332.64
849.66	2230.24
849.83	2150.37
850.00	2072.54
850.17	2359.26
850.34	2226.14
850.51	2170.85
850.68	2179.04
850.85	2473.95
851.01	2250.72
851.18	2236.38
851.35	2291.68
851.52	2203.61
851.69	2400.22
851.86	2103.26
852.03	2078.69
852.20	2293.72
852.37	2248.67
852.53	2117.60
852.70	2220.00
852.87	2301.92
853.04	2324.44
853.21	2152.42
853.38	2334.68
853.55	2303.96
853.72	2310.11
853.89	2136.03
854.05	2150.37
854.22	2279.39
854.39	2162.66
854.56	2224.09
854.73	2326.49
854.90	2179.04
855.07	2277.34
855.23	2133.98
855.40	2152.42
855.57	2203.61
855.74	2033.63
855.91	2432.99
856.08	2047.97
856.25	2176.99
856.41	2228.19
856.58	2162.66
856.75	2183.13
856.92	2144.22
857.09	2385.88
857.26	2058.21
857.42	2258.91
857.59	2316.25
857.76	2197.47
857.93	2250.72
858.10	2269.15
858.27	2129.89
858.43	2252.77
858.60	2181.09
858.77	2088.93
858.94	2271.20
859.11	2369.50
859.27	2256.86
859.44	2211.81
859.61	2443.23
859.78	2334.68
859.95	2166.75
860.12	2156.51
860.28	2514.91
860.45	2416.60
860.62	2236.38
860.79	2205.66
860.95	2291.68
861.12	2207.71
861.29	2127.84
861.46	2131.94
861.63	2193.37
861.79	2252.77
861.96	2156.51
862.13	2099.17
862.30	2310.11
862.47	2162.66
862.63	2068.45
862.80	2265.05
862.97	2371.55
863.14	2275.29
863.30	2211.81
863.47	2203.61
863.64	2398.17
863.81	2275.29
863.97	2154.46
864.14	2189.28
864.31	2295.77
864.48	2168.80
864.65	2158.56
864.81	2220.00
864.98	2310.11
865.15	2291.68
865.32	2199.52
865.48	2303.96
865.65	2400.22
865.82	2199.52
865.98	2230.24
866.15	2209.76
866.32	2299.87
866.49	2260.96
866.65	2281.44
866.82	2203.61
866.99	2254.81
867.16	2138.08
867.32	2109.41
867.49	2168.80
867.66	2195.42
867.83	2220.00
867.99	2080.74
868.16	2207.71
868.33	2101.22
868.49	2310.11
868.66	2203.61
868.83	2281.44
868.99	2326.49
869.16	2258.91
869.33	2273.25
869.50	2293.72
869.66	2213.85
869.83	2250.72
870.00	2027.49
870.16	2318.30
870.33	2263.01
870.50	2285.53
870.66	2199.52
870.83	2285.53
871.00	2279.39
871.17	2252.77
871.33	2293.72
871.50	2242.53
871.67	2240.48
871.83	2119.65
872.00	2338.78
872.17	2166.75
872.33	2426.84
872.50	2303.96
872.67	2187.23
872.83	2281.44
873.00	2297.82
873.17	2234.33
873.33	2248.67
873.50	2263.01
873.67	2201.57
873.83	2197.47
874.00	2230.24
874.16	2351.07
874.33	2252.77
874.50	2176.99
874.66	2226.14
874.83	2244.57
875.00	2293.72
875.16	2324.44
875.33	2258.91
875.50	2074.59
875.66	2258.91
875.83	2275.29
875.99	2334.68
876.16	2111.46
876.33	2166.75
876.49	2172.89
876.66	2228.19
876.83	2172.89
876.99	2123.74
877.16	2203.61
877.32	2129.89
877.49	2154.46
877.66	2316.25
877.82	2355.16
877.99	2297.82
878.15	2338.78
878.32	2349.02
878.49	2197.47
878.65	2258.91
878.82	2351.07
878.98	2170.85
879.15	2351.07
879.32	2217.95
879.48	2250.72
879.65	2236.38
879.81	2189.28
879.98	2211.81
880.15	2166.75
880.31	2267.10
880.48	2150.37
880.64	2359.26
880.81	2252.77
880.97	2394.08
881.14	2351.07
881.31	2158.56
881.47	2373.60
881.64	2168.80
881.80	2084.83
881.97	2312.16
882.13	2236.38
882.30	2176.99
882.47	2162.66
882.63	2195.42
882.80	2138.08
882.96	2158.56
883.13	2373.60
883.29	2181.09
883.46	2224.09
883.62	2410.46
883.79	2191.33
883.95	2244.57
884.12	2267.10
884.29	2392.03
884.45	2217.95
884.62	2228.19
884.78	2136.03
884.95	2437.08
885.11	2203.61
885.28	2228.19
885.44	2176.99
885.61	2324.44
885.77	2396.12
885.94	2351.07
886.10	2136.03
886.27	2318.30
886.43	2422.75
886.60	2316.25
886.76	2166.75
886.93	2179.04
887.09	2244.57
887.26	2072.54
887.42	2285.53
887.59	2324.44
887.75	2473.95
887.92	2297.82
888.08	2346.97
888.25	2406.36
888.41	2349.02
888.58	2242.53
888.74	2090.98
888.91	2187.23
>>>>>End Processed Spectral Data<<<<<
