SpectraSuite Data File
++++++++++++++++++++++++++++++++++++
Date: Thu May 05 13:21:03 CEST 2016
User: root
Dark Spectrum Present: No
Reference Spectrum Present: No
Number of Sampled Component Spectra: 1
Spectrometers: USB4C02835
Integration Time (usec): 100000 (USB4C02835)
Spectra Averaged: 1 (USB4C02835)
Boxcar Smoothing: 0 (USB4C02835)
Correct for Electrical Dark: No (USB4C02835)
Strobe/Lamp Enabled: No (USB4C02835)
Correct for Detector Non-linearity: No (USB4C02835)
Correct for Stray Light: No (USB4C02835)
Number of Pixels in Processed Spectrum: 3648
>>>>>Begin Processed Spectral Data<<<<<
177.47	1806.31
177.69	1806.31
177.91	1806.31
178.13	1794.02
178.36	1695.72
178.58	2160.61
178.80	2285.53
179.02	2121.70
179.24	2142.18
179.46	2220.00
179.68	2220.00
179.90	2195.42
180.13	2271.20
180.35	2078.69
180.57	2140.13
180.79	2351.07
181.01	2211.81
181.23	2250.72
181.45	2248.67
181.67	2250.72
181.90	2344.92
182.12	2168.80
182.34	2146.27
182.56	2324.44
182.78	2322.40
183.00	2160.61
183.22	2199.52
183.44	2047.97
183.66	2586.58
183.89	2295.77
184.11	2234.33
184.33	2330.59
184.55	2357.21
184.77	2209.76
184.99	2191.33
185.21	2228.19
185.43	2494.43
185.65	2179.04
185.87	2150.37
186.10	2435.03
186.32	2508.76
186.54	2314.20
186.76	2232.29
186.98	2301.92
187.20	2203.61
187.42	2154.46
187.64	2187.23
187.86	2301.92
188.08	2318.30
188.30	2074.59
188.52	2211.81
188.75	2428.89
188.97	2367.45
189.19	2195.42
189.41	2156.51
189.63	2252.77
189.85	2166.75
190.07	2136.03
190.29	2088.93
190.51	2338.78
190.73	2086.88
190.95	2301.92
191.17	2224.09
191.39	2107.36
191.61	2260.96
191.84	2148.32
192.06	2277.34
192.28	2047.97
192.50	2562.01
192.72	2207.71
192.94	2277.34
193.16	2285.53
193.38	2283.49
193.60	2076.64
193.82	2201.57
194.04	2340.83
194.26	2240.48
194.48	2154.46
194.70	2158.56
194.92	2252.77
195.14	2310.11
195.36	2183.13
195.58	2176.99
195.80	2195.42
196.02	2240.48
196.24	2095.07
196.46	2179.04
196.69	2142.18
196.91	2537.43
197.13	2240.48
197.35	2164.70
197.57	2445.27
197.79	2318.30
198.01	2248.67
198.23	2187.23
198.45	2310.11
198.67	2185.18
198.89	2121.70
199.11	2244.57
199.33	2111.46
199.55	2019.30
199.77	2187.23
199.99	2301.92
200.21	2293.72
200.43	2404.32
200.65	2076.64
200.87	2011.11
201.09	2209.76
201.31	2220.00
201.53	2248.67
201.75	2258.91
201.97	2293.72
202.19	2234.33
202.41	2191.33
202.63	2326.49
202.85	2308.06
203.07	2250.72
203.29	2181.09
203.51	2080.74
203.73	2174.94
203.95	2531.29
204.17	2179.04
204.39	2275.29
204.61	2244.57
204.83	2230.24
205.05	2252.77
205.27	2215.90
205.49	2525.15
205.71	2281.44
205.93	2068.45
206.15	2090.98
206.37	2287.58
206.59	2220.00
206.81	2031.58
207.03	2056.16
207.25	2152.42
207.47	2351.07
207.69	2144.22
207.91	2310.11
208.13	2383.84
208.34	2211.81
208.56	2097.12
208.78	2195.42
209.00	2252.77
209.22	2191.33
209.44	2154.46
209.66	2187.23
209.88	2281.44
210.10	2201.57
210.32	2164.70
210.54	2310.11
210.76	2205.66
210.98	2267.10
211.20	2062.30
211.42	2254.81
211.64	2351.07
211.86	2322.40
212.08	2308.06
212.30	2156.51
212.52	2232.29
212.74	2260.96
212.96	2260.96
213.17	2328.54
213.39	2398.17
213.61	2361.31
213.83	2138.08
214.05	2232.29
214.27	2377.69
214.49	2205.66
214.71	2138.08
214.93	2252.77
215.15	2281.44
215.37	2275.29
215.59	2035.68
215.81	2267.10
216.03	2379.74
216.24	2326.49
216.46	2121.70
216.68	2230.24
216.90	2291.68
217.12	2371.55
217.34	2129.89
217.56	2310.11
217.78	2359.26
218.00	2279.39
218.22	2209.76
218.44	2250.72
218.66	2283.49
218.87	2428.89
219.09	2129.89
219.31	2170.85
219.53	2244.57
219.75	2111.46
219.97	2158.56
220.19	2164.70
220.41	2154.46
220.63	2416.60
220.85	2250.72
221.06	2187.23
221.28	2404.32
221.50	2252.77
221.72	2269.15
221.94	2133.98
222.16	2258.91
222.38	2357.21
222.60	2230.24
222.82	2195.42
223.03	2351.07
223.25	2129.89
223.47	2195.42
223.69	2355.16
223.91	2318.30
224.13	2265.05
224.35	2074.59
224.57	2301.92
224.78	2342.88
225.00	2121.70
225.22	2228.19
225.44	2160.61
225.66	2336.73
225.88	2209.76
226.10	2273.25
226.32	2185.18
226.53	2437.08
226.75	2260.96
226.97	2220.00
227.19	2154.46
227.41	2226.14
227.63	2136.03
227.85	2080.74
228.06	2172.89
228.28	2246.62
228.50	2293.72
228.72	2095.07
228.94	2201.57
229.16	2080.74
229.37	2131.94
229.59	2138.08
229.81	2332.64
230.03	2242.53
230.25	2185.18
230.47	2039.78
230.69	2078.69
230.90	2308.06
231.12	2150.37
231.34	2250.72
231.56	2242.53
231.78	2088.93
232.00	2265.05
232.21	2179.04
232.43	2140.13
232.65	2068.45
232.87	2371.55
233.09	2095.07
233.30	2146.27
233.52	2334.68
233.74	2242.53
233.96	2181.09
234.18	2187.23
234.40	2195.42
234.61	2555.86
234.83	2129.89
235.05	2097.12
235.27	2486.23
235.49	2404.32
235.70	2185.18
235.92	2373.60
236.14	2258.91
236.36	2523.10
236.58	2080.74
236.79	2220.00
237.01	2220.00
237.23	2203.61
237.45	2424.80
237.67	2090.98
237.88	2328.54
238.10	2435.03
238.32	2078.69
238.54	2209.76
238.76	2232.29
238.97	2172.89
239.19	2133.98
239.41	2236.38
239.63	2351.07
239.85	2205.66
240.06	2203.61
240.28	2183.13
240.50	2297.82
240.72	2230.24
240.93	2215.90
241.15	2281.44
241.37	2332.64
241.59	2428.89
241.81	2166.75
242.02	2211.81
242.24	2381.79
242.46	2332.64
242.68	2009.06
242.89	2209.76
243.11	2342.88
243.33	2226.14
243.55	2201.57
243.76	2279.39
243.98	2154.46
244.20	2299.87
244.42	2187.23
244.64	2258.91
244.85	2113.50
245.07	2162.66
245.29	2187.23
245.51	2244.57
245.72	2293.72
245.94	2359.26
246.16	2195.42
246.38	2252.77
246.59	2197.47
246.81	2162.66
247.03	2117.60
247.24	2095.07
247.46	2256.86
247.68	2285.53
247.90	2181.09
248.11	2142.18
248.33	2334.68
248.55	2248.67
248.77	2363.36
248.98	2217.95
249.20	2389.98
249.42	2203.61
249.64	2164.70
249.85	2150.37
250.07	2195.42
250.29	2301.92
250.50	2277.34
250.72	1974.24
250.94	2295.77
251.16	2592.73
251.37	2211.81
251.59	2301.92
251.81	2375.64
252.02	2422.75
252.24	2154.46
252.46	2322.40
252.68	2193.37
252.89	2158.56
253.11	2007.01
253.33	2271.20
253.54	2367.45
253.76	2203.61
253.98	2133.98
254.20	2179.04
254.41	2078.69
254.63	2246.62
254.85	2070.50
255.06	2252.77
255.28	2267.10
255.50	2228.19
255.71	2162.66
255.93	2093.02
256.15	2150.37
256.36	2316.25
256.58	2060.26
256.80	2127.84
257.02	2273.25
257.23	2170.85
257.45	2248.67
257.67	2289.63
257.88	2123.74
258.10	2277.34
258.32	2197.47
258.53	2236.38
258.75	2363.36
258.97	2166.75
259.18	2146.27
259.40	2207.71
259.62	2457.56
259.83	2344.92
260.05	2256.86
260.27	2695.13
260.48	2334.68
260.70	2136.03
260.92	2140.13
261.13	2236.38
261.35	2195.42
261.57	2275.29
261.78	2111.46
262.00	2105.31
262.22	2326.49
262.43	2152.42
262.65	2207.71
262.86	2217.95
263.08	2541.53
263.30	2273.25
263.51	2123.74
263.73	2105.31
263.95	2437.08
264.16	2197.47
264.38	2119.65
264.60	2125.79
264.81	2226.14
265.03	2389.98
265.25	2363.36
265.46	2058.21
265.68	2410.46
265.89	2318.30
266.11	2056.16
266.33	2265.05
266.54	2324.44
266.76	2226.14
266.98	2238.43
267.19	2242.53
267.41	2361.31
267.62	2183.13
267.84	2064.35
268.06	2265.05
268.27	2295.77
268.49	2383.84
268.70	2256.86
268.92	2205.66
269.14	2187.23
269.35	2113.50
269.57	2181.09
269.79	2238.43
270.00	2213.85
270.22	2359.26
270.43	2119.65
270.65	2080.74
270.87	2340.83
271.08	2367.45
271.30	2238.43
271.51	2179.04
271.73	2351.07
271.95	2363.36
272.16	2152.42
272.38	2238.43
272.59	2199.52
272.81	2293.72
273.02	2185.18
273.24	2215.90
273.46	2322.40
273.67	2158.56
273.89	2144.22
274.10	2144.22
274.32	2394.08
274.54	2285.53
274.75	2230.24
274.97	2199.52
275.18	2279.39
275.40	2365.40
275.61	2197.47
275.83	2295.77
276.05	2115.55
276.26	2242.53
276.48	2281.44
276.69	2209.76
276.91	2248.67
277.12	2439.13
277.34	2301.92
277.55	2287.58
277.77	2289.63
277.99	2187.23
278.20	2080.74
278.42	2101.22
278.63	2226.14
278.85	2150.37
279.06	2187.23
279.28	2285.53
279.49	2357.21
279.71	2271.20
279.93	2258.91
280.14	2181.09
280.36	2172.89
280.57	2322.40
280.79	2267.10
281.00	2082.78
281.22	2172.89
281.43	2295.77
281.65	2064.35
281.86	2119.65
282.08	2324.44
282.29	2496.47
282.51	2121.70
282.73	2090.98
282.94	2133.98
283.16	2367.45
283.37	2355.16
283.59	2197.47
283.80	2312.16
284.02	2271.20
284.23	2232.29
284.45	2156.51
284.66	2150.37
284.88	2168.80
285.09	2291.68
285.31	2236.38
285.52	2285.53
285.74	2088.93
285.95	2316.25
286.17	2306.01
286.38	2387.93
286.60	2170.85
286.81	2154.46
287.03	2146.27
287.24	2316.25
287.46	2326.49
287.67	2258.91
287.89	2387.93
288.10	2252.77
288.32	2209.76
288.53	2351.07
288.75	2205.66
288.96	2316.25
289.18	2197.47
289.39	2248.67
289.61	2322.40
289.82	2531.29
290.04	2469.85
290.25	2037.73
290.47	2201.57
290.68	2207.71
290.90	2404.32
291.11	2088.93
291.33	2289.63
291.54	2138.08
291.76	2228.19
291.97	2308.06
292.18	2283.49
292.40	2170.85
292.61	2230.24
292.83	2389.98
293.04	2275.29
293.26	2273.25
293.47	2240.48
293.69	2174.94
293.90	2267.10
294.12	2381.79
294.33	2252.77
294.55	2250.72
294.76	2306.01
294.97	2334.68
295.19	2519.00
295.40	2248.67
295.62	2207.71
295.83	2289.63
296.05	2209.76
296.26	2320.35
296.48	2172.89
296.69	2244.57
296.90	2244.57
297.12	2310.11
297.33	2379.74
297.55	2301.92
297.76	2363.36
297.98	2308.06
298.19	2228.19
298.41	2277.34
298.62	2164.70
298.83	2344.92
299.05	2314.20
299.26	2222.05
299.48	2129.89
299.69	2269.15
299.90	2236.38
300.12	2160.61
300.33	2310.11
300.55	2244.57
300.76	2299.87
300.98	2152.42
301.19	2312.16
301.40	2168.80
301.62	2103.26
301.83	2310.11
302.05	2238.43
302.26	2146.27
302.47	2258.91
302.69	2203.61
302.90	2263.01
303.12	2058.21
303.33	2349.02
303.54	2414.56
303.76	2146.27
303.97	2222.05
304.19	2359.26
304.40	2158.56
304.61	2346.97
304.83	2371.55
305.04	2281.44
305.26	2228.19
305.47	2273.25
305.68	2154.46
305.90	2088.93
306.11	2359.26
306.33	2179.04
306.54	2203.61
306.75	2199.52
306.97	2156.51
307.18	2170.85
307.39	2162.66
307.61	2232.29
307.82	2260.96
308.04	2289.63
308.25	2086.88
308.46	2234.33
308.68	2285.53
308.89	2281.44
309.10	2340.83
309.32	2269.15
309.53	2250.72
309.74	2289.63
309.96	2215.90
310.17	2349.02
310.39	2209.76
310.60	2273.25
310.81	2349.02
311.03	2117.60
311.24	2267.10
311.45	2203.61
311.67	2377.69
311.88	2242.53
312.09	2179.04
312.31	2181.09
312.52	2183.13
312.73	2228.19
312.95	2138.08
313.16	2146.27
313.37	2371.55
313.59	2320.35
313.80	2314.20
314.01	2392.03
314.23	2170.85
314.44	2144.22
314.65	2117.60
314.87	2199.52
315.08	2265.05
315.29	2220.00
315.51	2183.13
315.72	2099.17
315.93	2441.18
316.15	2279.39
316.36	2293.72
316.57	2273.25
316.79	2295.77
317.00	2224.09
317.21	2267.10
317.43	2170.85
317.64	2197.47
317.85	2164.70
318.07	2158.56
318.28	2260.96
318.49	2416.60
318.70	2445.27
318.92	2396.12
319.13	2418.65
319.34	2484.19
319.56	2297.82
319.77	2457.56
319.98	2398.17
320.20	2342.88
320.41	2281.44
320.62	2310.11
320.83	2174.94
321.05	2359.26
321.26	2301.92
321.47	2162.66
321.69	2385.88
321.90	2154.46
322.11	2176.99
322.32	2252.77
322.54	2359.26
322.75	2256.86
322.96	2551.77
323.18	2142.18
323.39	2097.12
323.60	2215.90
323.81	2297.82
324.03	2228.19
324.24	2199.52
324.45	2168.80
324.66	2248.67
324.88	2334.68
325.09	2377.69
325.30	2226.14
325.52	2189.28
325.73	2281.44
325.94	2183.13
326.15	2072.54
326.37	2176.99
326.58	2365.40
326.79	2406.36
327.00	2154.46
327.22	2220.00
327.43	2187.23
327.64	2109.41
327.85	2301.92
328.07	2228.19
328.28	2416.60
328.49	2215.90
328.70	2236.38
328.92	2283.49
329.13	2174.94
329.34	2318.30
329.55	2392.03
329.76	2256.86
329.98	2226.14
330.19	2379.74
330.40	2174.94
330.61	2301.92
330.83	2375.64
331.04	2174.94
331.25	2265.05
331.46	2260.96
331.68	2105.31
331.89	2451.42
332.10	2207.71
332.31	2162.66
332.52	2203.61
332.74	2365.40
332.95	2174.94
333.16	2123.74
333.37	2346.97
333.58	2248.67
333.80	2254.81
334.01	2064.35
334.22	2260.96
334.43	2142.18
334.64	2152.42
334.86	2150.37
335.07	2127.84
335.28	2432.99
335.49	2064.35
335.70	2244.57
335.92	2428.89
336.13	2416.60
336.34	2297.82
336.55	2242.53
336.76	2269.15
336.98	2041.82
337.19	2201.57
337.40	2334.68
337.61	2504.67
337.82	2263.01
338.04	2217.95
338.25	2123.74
338.46	2244.57
338.67	2248.67
338.88	2133.98
339.09	2138.08
339.31	2234.33
339.52	2205.66
339.73	2164.70
339.94	2115.55
340.15	2314.20
340.36	2209.76
340.58	2236.38
340.79	2058.21
341.00	2318.30
341.21	2103.26
341.42	2383.84
341.63	2308.06
341.85	2367.45
342.06	2271.20
342.27	2133.98
342.48	2289.63
342.69	2170.85
342.90	2293.72
343.12	2367.45
343.33	2201.57
343.54	2310.11
343.75	2408.41
343.96	2228.19
344.17	2174.94
344.38	2277.34
344.60	2127.84
344.81	2097.12
345.02	2154.46
345.23	2400.22
345.44	2523.10
345.65	2379.74
345.86	2220.00
346.07	2215.90
346.29	2275.29
346.50	2318.30
346.71	2318.30
346.92	2406.36
347.13	2484.19
347.34	2279.39
347.55	2156.51
347.76	2383.84
347.98	2117.60
348.19	2269.15
348.40	2338.78
348.61	2203.61
348.82	2363.36
349.03	2293.72
349.24	2213.85
349.45	2430.94
349.66	2090.98
349.88	2193.37
350.09	2267.10
350.30	2424.80
350.51	2430.94
350.72	2209.76
350.93	2226.14
351.14	2232.29
351.35	2355.16
351.56	2211.81
351.77	2269.15
351.99	2271.20
352.20	2414.56
352.41	2324.44
352.62	2062.30
352.83	2263.01
353.04	2248.67
353.25	2260.96
353.46	2269.15
353.67	2430.94
353.88	2062.30
354.09	2232.29
354.30	2240.48
354.52	2240.48
354.73	2209.76
354.94	2197.47
355.15	2220.00
355.36	2506.71
355.57	2248.67
355.78	2142.18
355.99	2152.42
356.20	2244.57
356.41	2359.26
356.62	2316.25
356.83	2211.81
357.04	2488.28
357.25	2158.56
357.46	2166.75
357.68	2095.07
357.89	2179.04
358.10	2199.52
358.31	2162.66
358.52	2211.81
358.73	2131.94
358.94	2105.31
359.15	2248.67
359.36	2367.45
359.57	2226.14
359.78	2189.28
359.99	2324.44
360.20	2097.12
360.41	2185.18
360.62	2328.54
360.83	2211.81
361.04	2220.00
361.25	2375.64
361.46	2392.03
361.67	2279.39
361.88	2297.82
362.09	2318.30
362.30	2297.82
362.51	2160.61
362.72	2215.90
362.93	2359.26
363.14	2344.92
363.35	2197.47
363.56	2113.50
363.78	2357.21
363.99	2416.60
364.20	2179.04
364.41	2222.05
364.62	2424.80
364.83	2301.92
365.04	2226.14
365.25	2220.00
365.46	2392.03
365.67	2187.23
365.88	2283.49
366.09	2209.76
366.30	2293.72
366.51	2353.12
366.72	2176.99
366.93	2164.70
367.14	2299.87
367.35	2432.99
367.56	2146.27
367.77	2408.41
367.98	2342.88
368.18	2279.39
368.39	2174.94
368.60	2133.98
368.81	2418.65
369.02	2265.05
369.23	2246.62
369.44	2068.45
369.65	2226.14
369.86	2254.81
370.07	2318.30
370.28	2084.83
370.49	2301.92
370.70	2285.53
370.91	2117.60
371.12	2142.18
371.33	2357.21
371.54	2183.13
371.75	2441.18
371.96	2015.20
372.17	2242.53
372.38	2248.67
372.59	2228.19
372.80	2260.96
373.01	2240.48
373.22	2205.66
373.43	2228.19
373.64	2103.26
373.85	2334.68
374.06	2437.08
374.26	2330.59
374.47	2217.95
374.68	2496.47
374.89	2293.72
375.10	2119.65
375.31	2367.45
375.52	2265.05
375.73	2256.86
375.94	2111.46
376.15	2412.51
376.36	2185.18
376.57	2248.67
376.78	2125.79
376.99	2213.85
377.20	2353.12
377.40	2140.13
377.61	2469.85
377.82	2170.85
378.03	2369.50
378.24	2363.36
378.45	2244.57
378.66	2297.82
378.87	2084.83
379.08	2088.93
379.29	2236.38
379.50	2373.60
379.71	2254.81
379.91	2275.29
380.12	2185.18
380.33	2201.57
380.54	2258.91
380.75	2260.96
380.96	2170.85
381.17	2299.87
381.38	2267.10
381.59	2293.72
381.80	2248.67
382.00	2420.70
382.21	2299.87
382.42	2514.91
382.63	2389.98
382.84	2320.35
383.05	2328.54
383.26	2404.32
383.47	2289.63
383.68	2236.38
383.88	2342.88
384.09	2263.01
384.30	2396.12
384.51	2232.29
384.72	2222.05
384.93	2142.18
385.14	2359.26
385.35	2381.79
385.55	2138.08
385.76	2330.59
385.97	2228.19
386.18	2107.36
386.39	2193.37
386.60	2244.57
386.81	2275.29
387.02	2146.27
387.22	2191.33
387.43	2306.01
387.64	2334.68
387.85	2461.66
388.06	2533.34
388.27	3973.06
388.48	8273.79
388.68	11626.32
388.89	13918.00
389.10	15126.30
389.31	13989.67
389.52	10948.44
389.73	9557.87
389.93	8585.08
390.14	7751.56
390.35	6987.67
390.56	6412.19
390.77	5107.63
390.98	4128.70
391.18	3274.70
391.39	2727.89
391.60	2357.21
391.81	2381.79
392.02	2222.05
392.23	2512.86
392.43	2357.21
392.64	2396.12
392.85	2275.29
393.06	2533.34
393.27	2293.72
393.47	2170.85
393.68	2263.01
393.89	2260.96
394.10	2365.40
394.31	2213.85
394.52	2140.13
394.72	2203.61
394.93	2361.31
395.14	2168.80
395.35	2312.16
395.56	2215.90
395.76	2234.33
395.97	2310.11
396.18	2361.31
396.39	2410.46
396.60	2760.66
396.80	2525.15
397.01	2389.98
397.22	2396.12
397.43	2422.75
397.64	2269.15
397.84	2406.36
398.05	2512.86
398.26	2314.20
398.47	2324.44
398.67	2344.92
398.88	2295.77
399.09	2314.20
399.30	2185.18
399.51	2326.49
399.71	2201.57
399.92	2187.23
400.13	2316.25
400.34	2211.81
400.54	2363.36
400.75	2389.98
400.96	2322.40
401.17	2367.45
401.37	2258.91
401.58	2275.29
401.79	2318.30
402.00	2349.02
402.21	2572.25
402.41	2463.71
402.62	2543.58
402.83	2721.75
403.04	2742.23
403.24	2885.59
403.45	2424.80
403.66	2488.28
403.87	2512.86
404.07	2598.87
404.28	2547.67
404.49	2514.91
404.70	2373.60
404.90	2342.88
405.11	2289.63
405.32	2314.20
405.52	2209.76
405.73	2146.27
405.94	2181.09
406.15	2215.90
406.35	2242.53
406.56	2260.96
406.77	2260.96
406.98	2238.43
407.18	2181.09
407.39	2451.42
407.60	2250.72
407.80	2256.86
408.01	2250.72
408.22	2242.53
408.43	2144.22
408.63	2248.67
408.84	2381.79
409.05	2367.45
409.25	2168.80
409.46	2146.27
409.67	2252.77
409.88	2123.74
410.08	2301.92
410.29	2244.57
410.50	2355.16
410.70	2351.07
410.91	2162.66
411.12	2340.83
411.32	2242.53
411.53	2217.95
411.74	2365.40
411.95	2359.26
412.15	2408.41
412.36	2361.31
412.57	2400.22
412.77	2412.51
412.98	2254.81
413.19	2162.66
413.39	2308.06
413.60	2236.38
413.81	2447.32
414.01	2166.75
414.22	2297.82
414.43	2320.35
414.63	2242.53
414.84	2326.49
415.05	2205.66
415.25	2142.18
415.46	2351.07
415.67	2226.14
415.87	2279.39
416.08	2273.25
416.29	2217.95
416.49	2306.01
416.70	2193.37
416.91	2172.89
417.11	2244.57
417.32	2408.41
417.53	2258.91
417.73	2332.64
417.94	2248.67
418.15	2256.86
418.35	2285.53
418.56	2191.33
418.77	2430.94
418.97	2295.77
419.18	2193.37
419.38	2031.58
419.59	2215.90
419.80	2359.26
420.00	2238.43
420.21	2232.29
420.42	2353.12
420.62	2256.86
420.83	2211.81
421.04	2203.61
421.24	2342.88
421.45	2359.26
421.65	2320.35
421.86	2258.91
422.07	2246.62
422.27	2318.30
422.48	2211.81
422.69	2224.09
422.89	2211.81
423.10	2232.29
423.30	2195.42
423.51	2271.20
423.72	2308.06
423.92	2383.84
424.13	2086.88
424.33	2306.01
424.54	2400.22
424.75	2299.87
424.95	2402.27
425.16	2258.91
425.36	2220.00
425.57	2310.11
425.78	2316.25
425.98	2392.03
426.19	2187.23
426.39	2058.21
426.60	2234.33
426.81	2381.79
427.01	2299.87
427.22	2207.71
427.42	2084.83
427.63	2164.70
427.83	2349.02
428.04	2373.60
428.25	2301.92
428.45	2371.55
428.66	2371.55
428.86	2228.19
429.07	2248.67
429.28	2252.77
429.48	2260.96
429.69	2144.22
429.89	2199.52
430.10	2189.28
430.30	2346.97
430.51	2346.97
430.71	2213.85
430.92	2256.86
431.13	2226.14
431.33	2400.22
431.54	2279.39
431.74	2330.59
431.95	2506.71
432.15	2129.89
432.36	2263.01
432.56	2365.40
432.77	2475.99
432.98	2441.18
433.18	2289.63
433.39	2240.48
433.59	2213.85
433.80	2396.12
434.00	2521.05
434.21	2211.81
434.41	2211.81
434.62	2521.05
434.82	2195.42
435.03	2080.74
435.23	2318.30
435.44	2146.27
435.64	2240.48
435.85	2207.71
436.06	2342.88
436.26	2353.12
436.47	2228.19
436.67	2203.61
436.88	2193.37
437.08	2340.83
437.29	2359.26
437.49	2279.39
437.70	2330.59
437.90	2277.34
438.11	2469.85
438.31	2275.29
438.52	2420.70
438.72	2502.62
438.93	2457.56
439.13	2269.15
439.34	2422.75
439.54	2289.63
439.75	2367.45
439.95	2324.44
440.16	2211.81
440.36	2281.44
440.57	2250.72
440.77	2308.06
440.98	2242.53
441.18	2328.54
441.39	2172.89
441.59	2123.74
441.80	2539.48
442.00	2205.66
442.21	2396.12
442.41	2183.13
442.62	2312.16
442.82	2248.67
443.02	2310.11
443.23	2250.72
443.43	2244.57
443.64	2365.40
443.84	2269.15
444.05	2363.36
444.25	2230.24
444.46	2256.86
444.66	2267.10
444.87	2432.99
445.07	2060.26
445.28	2207.71
445.48	2383.84
445.69	2320.35
445.89	2521.05
446.09	2232.29
446.30	2584.54
446.50	2924.50
446.71	4362.17
446.91	5550.00
447.12	6270.88
447.32	6733.72
447.53	6234.02
447.73	5148.59
447.93	4706.23
448.14	4151.23
448.34	4057.03
448.55	3622.86
448.75	3542.99
448.96	3387.34
449.16	3119.06
449.36	2897.88
449.57	2621.40
449.77	2420.70
449.98	2201.57
450.18	2414.56
450.39	2432.99
450.59	2301.92
450.79	2381.79
451.00	2256.86
451.20	2416.60
451.41	2203.61
451.61	2338.78
451.81	2269.15
452.02	2250.72
452.22	2248.67
452.43	2207.71
452.63	2256.86
452.84	2295.77
453.04	2256.86
453.24	2351.07
453.45	2152.42
453.65	2291.68
453.86	2322.40
454.06	2316.25
454.26	2238.43
454.47	2131.94
454.67	2367.45
454.87	2291.68
455.08	2250.72
455.28	2396.12
455.49	2291.68
455.69	2267.10
455.89	2484.19
456.10	2359.26
456.30	2234.33
456.51	2351.07
456.71	2275.29
456.91	2334.68
457.12	2273.25
457.32	2340.83
457.52	2170.85
457.73	2318.30
457.93	2324.44
458.14	2283.49
458.34	2125.79
458.54	2238.43
458.75	2260.96
458.95	2342.88
459.15	2310.11
459.36	2283.49
459.56	2371.55
459.76	2478.04
459.97	2301.92
460.17	2228.19
460.37	2285.53
460.58	2154.46
460.78	2412.51
460.99	2236.38
461.19	2232.29
461.39	2187.23
461.60	2220.00
461.80	2340.83
462.00	2187.23
462.21	2269.15
462.41	2203.61
462.61	2179.04
462.82	2160.61
463.02	2297.82
463.22	2250.72
463.43	2422.75
463.63	2217.95
463.83	2361.31
464.04	2326.49
464.24	2310.11
464.44	2174.94
464.64	2359.26
464.85	2361.31
465.05	2287.58
465.25	2299.87
465.46	2142.18
465.66	2314.20
465.86	2332.64
466.07	2183.13
466.27	2291.68
466.47	2152.42
466.68	2101.22
466.88	2387.93
467.08	2308.06
467.29	2406.36
467.49	2308.06
467.69	2320.35
467.89	2332.64
468.10	2236.38
468.30	2242.53
468.50	2387.93
468.71	2396.12
468.91	2146.27
469.11	2453.47
469.31	2250.72
469.52	2162.66
469.72	2312.16
469.92	2420.70
470.13	2146.27
470.33	2308.06
470.53	2426.84
470.73	2619.35
470.94	2979.79
471.14	3147.73
471.34	3493.83
471.54	3467.21
471.75	3114.96
471.95	2846.68
472.15	2656.22
472.36	2725.85
472.56	2697.17
472.76	2742.23
472.96	2652.12
473.17	2584.54
473.37	2488.28
473.57	2293.72
473.77	2369.50
473.98	2277.34
474.18	2172.89
474.38	2578.39
474.58	2220.00
474.79	2217.95
474.99	2318.30
475.19	2310.11
475.39	2228.19
475.60	2275.29
475.80	2242.53
476.00	2236.38
476.20	2217.95
476.41	2293.72
476.61	2299.87
476.81	2404.32
477.01	2195.42
477.21	2480.09
477.42	2334.68
477.62	2146.27
477.82	2383.84
478.02	2215.90
478.23	2230.24
478.43	2256.86
478.63	2275.29
478.83	2197.47
479.03	2207.71
479.24	2389.98
479.44	2455.51
479.64	2226.14
479.84	2072.54
480.04	2174.94
480.25	2357.21
480.45	2152.42
480.65	2236.38
480.85	2428.89
481.06	2203.61
481.26	2314.20
481.46	2273.25
481.66	2316.25
481.86	2209.76
482.06	2355.16
482.27	2217.95
482.47	2238.43
482.67	2283.49
482.87	2287.58
483.07	2326.49
483.28	2238.43
483.48	2154.46
483.68	2226.14
483.88	2117.60
484.08	2129.89
484.29	2176.99
484.49	2263.01
484.69	2076.64
484.89	2398.17
485.09	2301.92
485.29	2306.01
485.50	2250.72
485.70	2267.10
485.90	2318.30
486.10	2256.86
486.30	2375.64
486.50	2449.37
486.71	2308.06
486.91	2353.12
487.11	2285.53
487.31	2099.17
487.51	2336.73
487.71	2176.99
487.91	2166.75
488.12	2250.72
488.32	2013.15
488.52	2191.33
488.72	2060.26
488.92	2252.77
489.12	2342.88
489.32	2408.41
489.53	2297.82
489.73	2072.54
489.93	2359.26
490.13	2260.96
490.33	2176.99
490.53	2283.49
490.73	2387.93
490.94	2097.12
491.14	2301.92
491.34	2351.07
491.54	2564.06
491.74	3219.41
491.94	3766.21
492.14	4059.07
492.34	4220.86
492.54	3817.41
492.75	3258.32
492.95	3131.34
493.15	2985.94
493.35	3004.37
493.55	2899.92
493.75	2713.56
493.95	2783.19
494.15	2521.05
494.35	2402.27
494.56	2439.13
494.76	2250.72
494.96	2349.02
495.16	2312.16
495.36	2273.25
495.56	2277.34
495.76	2267.10
495.96	2312.16
496.16	2187.23
496.36	2426.84
496.56	2148.32
496.77	2334.68
496.97	2263.01
497.17	2461.66
497.37	2158.56
497.57	2285.53
497.77	2299.87
497.97	2179.04
498.17	2299.87
498.37	2193.37
498.57	2400.22
498.77	2197.47
498.97	2301.92
499.17	2463.71
499.38	2250.72
499.58	2381.79
499.78	2346.97
499.98	2291.68
500.18	2213.85
500.38	2144.22
500.58	2394.08
500.78	2858.96
500.98	5103.54
501.18	7149.46
501.38	8687.48
501.58	9807.72
501.78	9643.88
501.98	7511.95
502.18	6406.05
502.38	5539.76
502.58	5185.46
502.78	4681.66
502.98	4495.29
503.18	4220.86
503.38	3815.37
503.59	3438.54
503.79	3276.75
503.99	2944.98
504.19	2850.77
504.39	2820.05
504.59	2875.35
504.79	2891.73
504.99	2713.56
505.19	2504.67
505.39	2469.85
505.59	2619.35
505.79	2596.82
505.99	2504.67
506.19	2359.26
506.39	2482.14
506.59	2336.73
506.79	2258.91
506.99	2445.27
507.19	2306.01
507.39	2273.25
507.59	2072.54
507.79	2164.70
507.99	2293.72
508.19	2224.09
508.39	2277.34
508.59	2248.67
508.79	2398.17
508.99	2551.77
509.19	2258.91
509.39	2310.11
509.59	2170.85
509.79	2146.27
509.99	2263.01
510.19	2291.68
510.39	2297.82
510.59	2326.49
510.79	2131.94
510.99	2138.08
511.19	2271.20
511.39	2414.56
511.59	2379.74
511.79	2408.41
511.99	2244.57
512.19	2469.85
512.38	2297.82
512.58	2213.85
512.78	2256.86
512.98	2383.84
513.18	2430.94
513.38	2111.46
513.58	2351.07
513.78	2191.33
513.98	2187.23
514.18	2254.81
514.38	2258.91
514.58	2318.30
514.78	2232.29
514.98	2176.99
515.18	2271.20
515.38	2215.90
515.58	2494.43
515.78	2220.00
515.98	2297.82
516.18	2295.77
516.38	2289.63
516.57	2226.14
516.77	2127.84
516.97	2346.97
517.17	2209.76
517.37	2068.45
517.57	2326.49
517.77	2232.29
517.97	2201.57
518.17	2338.78
518.37	2170.85
518.57	2256.86
518.77	2226.14
518.97	2226.14
519.16	2326.49
519.36	2342.88
519.56	2289.63
519.76	2250.72
519.96	2265.05
520.16	2441.18
520.36	2203.61
520.56	2404.32
520.76	2174.94
520.96	2306.01
521.16	2398.17
521.35	2416.60
521.55	2439.13
521.75	2250.72
521.95	2260.96
522.15	2240.48
522.35	2127.84
522.55	2201.57
522.75	2326.49
522.95	2246.62
523.14	2207.71
523.34	2287.58
523.54	2252.77
523.74	2269.15
523.94	2306.01
524.14	2187.23
524.34	2301.92
524.54	2420.70
524.73	2211.81
524.93	2295.77
525.13	2306.01
525.33	2156.51
525.53	2449.37
525.73	2332.64
525.93	2224.09
526.13	2220.00
526.32	2113.50
526.52	2377.69
526.72	2342.88
526.92	2226.14
527.12	2265.05
527.32	2107.36
527.52	2228.19
527.71	2277.34
527.91	2232.29
528.11	2297.82
528.31	2256.86
528.51	2150.37
528.71	2228.19
528.90	2367.45
529.10	2308.06
529.30	2416.60
529.50	2060.26
529.70	2269.15
529.90	2289.63
530.09	2318.30
530.29	2170.85
530.49	2179.04
530.69	2512.86
530.89	2297.82
531.09	2322.40
531.28	2185.18
531.48	2346.97
531.68	2263.01
531.88	2336.73
532.08	2326.49
532.28	2217.95
532.47	2306.01
532.67	2342.88
532.87	2367.45
533.07	2203.61
533.27	2416.60
533.46	2258.91
533.66	2279.39
533.86	2287.58
534.06	2250.72
534.26	2277.34
534.45	2322.40
534.65	2451.42
534.85	2195.42
535.05	2252.77
535.25	2275.29
535.44	2133.98
535.64	2267.10
535.84	2250.72
536.04	2244.57
536.24	2174.94
536.43	2258.91
536.63	2207.71
536.83	2224.09
537.03	2263.01
537.22	2113.50
537.42	2226.14
537.62	2299.87
537.82	2146.27
538.02	2375.64
538.21	2428.89
538.41	2580.44
538.61	2312.16
538.81	2273.25
539.00	2373.60
539.20	2105.31
539.40	2250.72
539.60	2295.77
539.79	2353.12
539.99	2242.53
540.19	2152.42
540.39	2265.05
540.58	2310.11
540.78	2389.98
540.98	2312.16
541.18	2381.79
541.37	2312.16
541.57	2359.26
541.77	2312.16
541.97	2222.05
542.16	2203.61
542.36	2293.72
542.56	2275.29
542.76	2455.51
542.95	2410.46
543.15	2281.44
543.35	2373.60
543.54	2209.76
543.74	2222.05
543.94	2473.95
544.14	2228.19
544.33	2267.10
544.53	2248.67
544.73	2295.77
544.93	2260.96
545.12	2267.10
545.32	2330.59
545.52	2250.72
545.71	2103.26
545.91	2217.95
546.11	2191.33
546.30	2242.53
546.50	2301.92
546.70	2281.44
546.90	2299.87
547.09	2062.30
547.29	2226.14
547.49	2265.05
547.68	2283.49
547.88	2181.09
548.08	2381.79
548.27	2772.95
548.47	2240.48
548.67	2220.00
548.87	2359.26
549.06	2201.57
549.26	2273.25
549.46	2275.29
549.65	2238.43
549.85	2246.62
550.05	2301.92
550.24	2160.61
550.44	2287.58
550.64	2263.01
550.83	2244.57
551.03	2367.45
551.23	2396.12
551.42	2283.49
551.62	2220.00
551.82	2285.53
552.01	2306.01
552.21	2381.79
552.41	2265.05
552.60	2447.32
552.80	2318.30
553.00	2195.42
553.19	2289.63
553.39	2420.70
553.59	2195.42
553.78	2293.72
553.98	2295.77
554.17	2209.76
554.37	2277.34
554.57	2316.25
554.76	2125.79
554.96	2240.48
555.16	2271.20
555.35	2322.40
555.55	2363.36
555.75	2420.70
555.94	2371.55
556.14	2076.64
556.33	2293.72
556.53	2267.10
556.73	2269.15
556.92	2289.63
557.12	2281.44
557.32	2473.95
557.51	2381.79
557.71	2334.68
557.90	2379.74
558.10	2377.69
558.30	2248.67
558.49	2263.01
558.69	2236.38
558.88	2344.92
559.08	2248.67
559.28	2283.49
559.47	2334.68
559.67	2260.96
559.86	2473.95
560.06	2324.44
560.26	2242.53
560.45	2406.36
560.65	2267.10
560.84	2381.79
561.04	2260.96
561.24	2373.60
561.43	2246.62
561.63	2320.35
561.82	2248.67
562.02	2320.35
562.22	2162.66
562.41	2236.38
562.61	2215.90
562.80	2195.42
563.00	2527.19
563.19	2301.92
563.39	2273.25
563.59	2332.64
563.78	2189.28
563.98	2121.70
564.17	2185.18
564.37	2170.85
564.56	2265.05
564.76	2138.08
564.96	2351.07
565.15	2250.72
565.35	2506.71
565.54	2201.57
565.74	2297.82
565.93	2301.92
566.13	2244.57
566.32	2310.11
566.52	2291.68
566.71	2252.77
566.91	2369.50
567.11	2293.72
567.30	2199.52
567.50	2344.92
567.69	2344.92
567.89	2181.09
568.08	2113.50
568.28	2263.01
568.47	2170.85
568.67	2295.77
568.86	2283.49
569.06	2367.45
569.25	2308.06
569.45	2080.74
569.64	2263.01
569.84	2179.04
570.04	2291.68
570.23	2220.00
570.43	2267.10
570.62	2316.25
570.82	2375.64
571.01	2168.80
571.21	2211.81
571.40	2203.61
571.60	2299.87
571.79	2346.97
571.99	2314.20
572.18	2240.48
572.38	2297.82
572.57	2283.49
572.77	2349.02
572.96	2533.34
573.16	2303.96
573.35	2260.96
573.55	2400.22
573.74	2322.40
573.94	2205.66
574.13	2230.24
574.33	2346.97
574.52	2387.93
574.71	2310.11
574.91	2217.95
575.10	2179.04
575.30	2234.33
575.49	2170.85
575.69	2174.94
575.88	2340.83
576.08	2328.54
576.27	2437.08
576.47	2277.34
576.66	2465.75
576.86	2502.62
577.05	2289.63
577.25	2361.31
577.44	2490.33
577.64	2203.61
577.83	2330.59
578.02	2193.37
578.22	2441.18
578.41	2414.56
578.61	2256.86
578.80	2146.27
579.00	2252.77
579.19	2285.53
579.39	2342.88
579.58	2365.40
579.77	2277.34
579.97	2379.74
580.16	2301.92
580.36	2392.03
580.55	2353.12
580.75	2365.40
580.94	2357.21
581.13	2420.70
581.33	2426.84
581.52	2228.19
581.72	2529.24
581.91	2484.19
582.11	2363.36
582.30	2459.61
582.49	2269.15
582.69	2461.66
582.88	2318.30
583.08	2265.05
583.27	2455.51
583.47	2281.44
583.66	2277.34
583.85	2228.19
584.05	2256.86
584.24	2244.57
584.44	2324.44
584.63	2424.80
584.82	2506.71
585.02	2424.80
585.21	2432.99
585.41	2437.08
585.60	2408.41
585.79	2555.86
585.99	2629.59
586.18	2400.22
586.37	2994.13
586.57	4642.75
586.76	13864.75
586.96	33060.36
587.15	46845.24
587.34	56231.08
587.54	60816.48
587.73	56321.19
587.93	39691.68
588.12	30271.03
588.31	23969.43
588.51	21055.17
588.70	19093.21
588.89	17506.04
589.09	15216.41
589.28	13205.30
589.47	10510.18
589.67	8200.07
589.86	6346.66
590.06	4667.32
590.25	3872.71
590.44	3256.27
590.64	2879.44
590.83	2631.64
591.02	2582.49
591.22	2394.08
591.41	2447.32
591.60	2320.35
591.80	2590.68
591.99	2170.85
592.18	2330.59
592.38	2359.26
592.57	2248.67
592.76	2377.69
592.96	2291.68
593.15	2306.01
593.34	2394.08
593.54	2334.68
593.73	2392.03
593.92	2383.84
594.12	2406.36
594.31	2439.13
594.50	2465.75
594.70	2299.87
594.89	2578.39
595.08	2129.89
595.28	2344.92
595.47	2559.96
595.66	2383.84
595.86	2166.75
596.05	2209.76
596.24	2334.68
596.43	2537.43
596.63	2361.31
596.82	2301.92
597.01	2359.26
597.21	2494.43
597.40	2277.34
597.59	2336.73
597.79	2310.11
597.98	2392.03
598.17	2320.35
598.36	2277.34
598.56	2387.93
598.75	2232.29
598.94	2240.48
599.14	2244.57
599.33	2250.72
599.52	2367.45
599.71	2371.55
599.91	2273.25
600.10	2383.84
600.29	2248.67
600.48	2322.40
600.68	2256.86
600.87	2359.26
601.06	2179.04
601.26	2260.96
601.45	2340.83
601.64	2283.49
601.83	2369.50
602.03	2183.13
602.22	2166.75
602.41	2402.27
602.60	2486.23
602.80	2330.59
602.99	2324.44
603.18	2234.33
603.37	2267.10
603.57	2297.82
603.76	2269.15
603.95	2332.64
604.14	2299.87
604.34	2113.50
604.53	2263.01
604.72	2295.77
604.91	2408.41
605.10	2398.17
605.30	2211.81
605.49	2490.33
605.68	2361.31
605.87	2353.12
606.07	2213.85
606.26	2232.29
606.45	2338.78
606.64	2240.48
606.84	2248.67
607.03	2232.29
607.22	2463.71
607.41	2285.53
607.60	2195.42
607.80	2334.68
607.99	2283.49
608.18	2267.10
608.37	2174.94
608.56	2201.57
608.76	2402.27
608.95	2449.37
609.14	2312.16
609.33	2387.93
609.52	2439.13
609.72	2365.40
609.91	2371.55
610.10	2293.72
610.29	2404.32
610.48	2342.88
610.68	2349.02
610.87	2301.92
611.06	2338.78
611.25	2232.29
611.44	2355.16
611.63	2332.64
611.83	2402.27
612.02	2217.95
612.21	2367.45
612.40	2078.69
612.59	2215.90
612.79	2148.32
612.98	2306.01
613.17	2408.41
613.36	2252.77
613.55	2447.32
613.74	2318.30
613.93	2394.08
614.13	2408.41
614.32	2428.89
614.51	2486.23
614.70	2424.80
614.89	2385.88
615.08	2396.12
615.28	2760.66
615.47	2224.09
615.66	2373.60
615.85	2363.36
616.04	2455.51
616.23	2283.49
616.42	2338.78
616.62	2351.07
616.81	2252.77
617.00	2269.15
617.19	2328.54
617.38	2197.47
617.57	2242.53
617.76	2340.83
617.95	2320.35
618.15	2291.68
618.34	2387.93
618.53	2162.66
618.72	2404.32
618.91	2412.51
619.10	2346.97
619.29	2306.01
619.48	2250.72
619.68	2195.42
619.87	2301.92
620.06	2185.18
620.25	2344.92
620.44	2234.33
620.63	2269.15
620.82	2269.15
621.01	2334.68
621.20	2359.26
621.39	2365.40
621.59	2351.07
621.78	2314.20
621.97	2314.20
622.16	2404.32
622.35	2389.98
622.54	2273.25
622.73	2457.56
622.92	2136.03
623.11	2357.21
623.30	2295.77
623.49	2338.78
623.68	2224.09
623.88	2301.92
624.07	2342.88
624.26	2230.24
624.45	2217.95
624.64	2222.05
624.83	2342.88
625.02	2220.00
625.21	2248.67
625.40	2308.06
625.59	2394.08
625.78	2271.20
625.97	2320.35
626.16	2441.18
626.35	2420.70
626.54	2334.68
626.74	2410.46
626.93	2279.39
627.12	2332.64
627.31	2435.03
627.50	2265.05
627.69	2295.77
627.88	2236.38
628.07	2187.23
628.26	2105.31
628.45	2166.75
628.64	2220.00
628.83	2269.15
629.02	2097.12
629.21	2283.49
629.40	2267.10
629.59	2211.81
629.78	2228.19
629.97	2254.81
630.16	2355.16
630.35	2232.29
630.54	2238.43
630.73	2228.19
630.92	2277.34
631.11	2168.80
631.30	2275.29
631.49	2322.40
631.68	2187.23
631.87	2346.97
632.06	2162.66
632.25	2600.92
632.44	2263.01
632.63	2312.16
632.82	2242.53
633.01	2260.96
633.20	2361.31
633.39	2369.50
633.58	2158.56
633.77	2326.49
633.96	2365.40
634.15	2306.01
634.34	2363.36
634.53	2379.74
634.72	2166.75
634.91	2056.16
635.10	2310.11
635.29	2351.07
635.48	2326.49
635.67	2140.13
635.86	2170.85
636.05	2414.56
636.24	2303.96
636.43	2320.35
636.62	2297.82
636.81	2037.73
637.00	2265.05
637.19	2322.40
637.38	2273.25
637.57	2220.00
637.76	2301.92
637.95	2357.21
638.14	2316.25
638.33	2281.44
638.52	2293.72
638.71	2154.46
638.89	2176.99
639.08	2596.82
639.27	2451.42
639.46	2445.27
639.65	2838.48
639.84	2875.35
640.03	2994.13
640.22	2916.31
640.41	2942.93
640.60	2527.19
640.79	2486.23
640.98	2420.70
641.17	2461.66
641.36	2414.56
641.55	2400.22
641.74	2267.10
641.92	2207.71
642.11	2267.10
642.30	2269.15
642.49	2209.76
642.68	2209.76
642.87	2277.34
643.06	2371.55
643.25	2121.70
643.44	2277.34
643.63	2244.57
643.82	2367.45
644.00	2205.66
644.19	2244.57
644.38	2136.03
644.57	2330.59
644.76	2283.49
644.95	2121.70
645.14	2244.57
645.33	2258.91
645.52	2220.00
645.71	2154.46
645.89	2160.61
646.08	2252.77
646.27	2224.09
646.46	2473.95
646.65	2072.54
646.84	2312.16
647.03	2154.46
647.22	2318.30
647.40	2318.30
647.59	2238.43
647.78	2060.26
647.97	2232.29
648.16	2160.61
648.35	2365.40
648.54	2342.88
648.73	2215.90
648.91	2293.72
649.10	2242.53
649.29	2256.86
649.48	2265.05
649.67	2359.26
649.86	2351.07
650.05	2269.15
650.23	2406.36
650.42	2359.26
650.61	2432.99
650.80	2424.80
650.99	2584.54
651.18	2377.69
651.36	2396.12
651.55	2273.25
651.74	2340.83
651.93	2250.72
652.12	2238.43
652.31	2281.44
652.49	2217.95
652.68	2289.63
652.87	2465.75
653.06	2338.78
653.25	2400.22
653.44	2361.31
653.62	2406.36
653.81	2303.96
654.00	2263.01
654.19	2318.30
654.38	2584.54
654.56	2334.68
654.75	2179.04
654.94	2330.59
655.13	2256.86
655.32	2281.44
655.51	2273.25
655.69	2203.61
655.88	2279.39
656.07	2234.33
656.26	2242.53
656.45	2136.03
656.63	2324.44
656.82	2303.96
657.01	2289.63
657.20	2228.19
657.38	2371.55
657.57	2215.90
657.76	2113.50
657.95	2349.02
658.14	2195.42
658.32	2246.62
658.51	2166.75
658.70	2332.64
658.89	2318.30
659.08	2203.61
659.26	2465.75
659.45	2226.14
659.64	2322.40
659.83	2283.49
660.01	2557.91
660.20	2291.68
660.39	2445.27
660.58	2088.93
660.76	2250.72
660.95	2187.23
661.14	2285.53
661.33	2146.27
661.51	2205.66
661.70	2154.46
661.89	2275.29
662.08	2283.49
662.26	2115.55
662.45	2146.27
662.64	2441.18
662.83	2353.12
663.01	2136.03
663.20	2121.70
663.39	2392.03
663.58	2273.25
663.76	2217.95
663.95	2318.30
664.14	2179.04
664.32	2248.67
664.51	2220.00
664.70	2125.79
664.89	2285.53
665.07	2133.98
665.26	2457.56
665.45	2166.75
665.64	2252.77
665.82	2226.14
666.01	2375.64
666.20	2193.37
666.38	2334.68
666.57	2443.23
666.76	3422.16
666.95	8161.16
667.13	16174.86
667.32	21276.35
667.51	24669.83
667.69	26492.52
667.88	24424.08
668.07	17325.82
668.25	13977.39
668.44	11620.17
668.63	9781.10
668.81	8748.92
669.00	7817.10
669.19	6909.85
669.38	5943.21
669.56	5152.69
669.75	4200.38
669.94	3532.75
670.12	3100.62
670.31	2781.14
670.50	2621.40
670.68	2521.05
670.87	2385.88
671.06	2281.44
671.24	2359.26
671.43	2473.95
671.62	2332.64
671.80	2285.53
671.99	2359.26
672.18	2291.68
672.36	2371.55
672.55	2334.68
672.74	2373.60
672.92	2320.35
673.11	2371.55
673.29	2220.00
673.48	2308.06
673.67	2263.01
673.85	2422.75
674.04	2179.04
674.23	2236.38
674.41	2574.30
674.60	2113.50
674.79	2146.27
674.97	2136.03
675.16	2301.92
675.34	2275.29
675.53	2172.89
675.72	2400.22
675.90	2437.08
676.09	2152.42
676.28	2267.10
676.46	2088.93
676.65	2318.30
676.83	2201.57
677.02	2209.76
677.21	2236.38
677.39	2244.57
677.58	2154.46
677.77	2168.80
677.95	2187.23
678.14	2246.62
678.32	2254.81
678.51	2117.60
678.70	2457.56
678.88	2244.57
679.07	2303.96
679.25	2254.81
679.44	2273.25
679.63	2232.29
679.81	2267.10
680.00	2330.59
680.18	2250.72
680.37	2312.16
680.55	2324.44
680.74	2107.36
680.93	2052.06
681.11	2342.88
681.30	2179.04
681.48	2256.86
681.67	2324.44
681.85	2265.05
682.04	2158.56
682.23	2394.08
682.41	2201.57
682.60	2228.19
682.78	2250.72
682.97	2220.00
683.15	2283.49
683.34	2238.43
683.53	2365.40
683.71	2113.50
683.90	2412.51
684.08	2435.03
684.27	2215.90
684.45	2289.63
684.64	2432.99
684.82	2193.37
685.01	2299.87
685.19	2242.53
685.38	2392.03
685.57	2170.85
685.75	2250.72
685.94	2183.13
686.12	2142.18
686.31	2226.14
686.49	2394.08
686.68	2064.35
686.86	2340.83
687.05	2306.01
687.23	2394.08
687.42	2181.09
687.60	2154.46
687.79	2293.72
687.97	2359.26
688.16	2250.72
688.34	2363.36
688.53	2066.40
688.71	2265.05
688.90	2459.61
689.08	2220.00
689.27	2142.18
689.45	2312.16
689.64	2271.20
689.82	2275.29
690.01	2328.54
690.19	2295.77
690.38	2220.00
690.56	2316.25
690.75	2127.84
690.93	2170.85
691.12	2205.66
691.30	2215.90
691.49	2240.48
691.67	2252.77
691.86	2428.89
692.04	2273.25
692.23	2236.38
692.41	2328.54
692.60	2523.10
692.78	2332.64
692.97	2291.68
693.15	2373.60
693.34	2437.08
693.52	2416.60
693.71	2224.09
693.89	2187.23
694.08	2068.45
694.26	2244.57
694.44	2301.92
694.63	2273.25
694.81	2172.89
695.00	2224.09
695.18	2277.34
695.37	2588.63
695.55	2242.53
695.74	2220.00
695.92	2174.94
696.10	2363.36
696.29	2072.54
696.47	2140.13
696.66	2189.28
696.84	2189.28
697.03	2244.57
697.21	2439.13
697.40	3364.81
697.58	2416.60
697.76	2215.90
697.95	2168.80
698.13	2109.41
698.32	2199.52
698.50	2351.07
698.68	2301.92
698.87	2314.20
699.05	2410.46
699.24	2201.57
699.42	2179.04
699.61	2234.33
699.79	2273.25
699.97	2316.25
700.16	2185.18
700.34	2193.37
700.53	2234.33
700.71	2385.88
700.89	2334.68
701.08	2197.47
701.26	2224.09
701.45	2756.57
701.63	2172.89
701.81	2232.29
702.00	2103.26
702.18	2260.96
702.37	2220.00
702.55	2414.56
702.73	2533.34
702.92	2359.26
703.10	2570.20
703.28	2504.67
703.47	2263.01
703.65	2412.51
703.84	2402.27
704.02	2287.58
704.20	2490.33
704.39	2301.92
704.57	2385.88
704.75	2430.94
704.94	2320.35
705.12	2383.84
705.30	2639.83
705.49	4485.05
705.67	10418.02
705.86	18093.80
706.04	21905.07
706.22	24673.93
706.41	25611.90
706.59	21872.31
706.77	15580.95
706.96	12941.11
707.14	11401.04
707.32	10022.76
707.51	8869.75
707.69	7208.85
707.87	5906.34
708.06	4827.06
708.24	3956.68
708.42	3137.49
708.61	3112.91
708.79	2484.19
708.97	2447.32
709.16	2416.60
709.34	2338.78
709.52	2281.44
709.71	2293.72
709.89	2355.16
710.07	2191.33
710.26	2220.00
710.44	2213.85
710.62	2381.79
710.80	2275.29
710.99	2355.16
711.17	2289.63
711.35	2250.72
711.54	2199.52
711.72	2344.92
711.90	2316.25
712.09	2332.64
712.27	2279.39
712.45	2320.35
712.63	2197.47
712.82	2232.29
713.00	2209.76
713.18	2310.11
713.37	2260.96
713.55	2359.26
713.73	2273.25
713.91	2254.81
714.10	2240.48
714.28	2250.72
714.46	2263.01
714.65	2301.92
714.83	2265.05
715.01	2207.71
715.19	2340.83
715.38	2185.18
715.56	2328.54
715.74	2228.19
715.92	2236.38
716.11	2351.07
716.29	2054.11
716.47	2285.53
716.65	2187.23
716.84	2105.31
717.02	2346.97
717.20	2029.54
717.38	2240.48
717.57	2283.49
717.75	2289.63
717.93	2174.94
718.11	2404.32
718.30	2187.23
718.48	2316.25
718.66	2306.01
718.84	2428.89
719.03	2222.05
719.21	2047.97
719.39	2414.56
719.57	2363.36
719.75	2269.15
719.94	2183.13
720.12	2195.42
720.30	2308.06
720.48	2199.52
720.67	2172.89
720.85	2168.80
721.03	2170.85
721.21	2084.83
721.39	2338.78
721.58	2400.22
721.76	2150.37
721.94	2306.01
722.12	2303.96
722.30	2367.45
722.49	2220.00
722.67	2232.29
722.85	2252.77
723.03	2140.13
723.21	2090.98
723.40	2242.53
723.58	2346.97
723.76	2351.07
723.94	2375.64
724.12	2283.49
724.30	2398.17
724.49	2375.64
724.67	2244.57
724.85	2473.95
725.03	2154.46
725.21	2297.82
725.40	2367.45
725.58	2267.10
725.76	2416.60
725.94	2236.38
726.12	2160.61
726.30	2228.19
726.49	2263.01
726.67	2174.94
726.85	2310.11
727.03	2551.77
727.21	3669.96
727.39	5070.77
727.57	5861.29
727.76	6422.43
727.94	6561.69
728.12	6313.89
728.30	5128.11
728.48	4503.48
728.66	4188.10
728.84	3733.45
729.03	3250.13
729.21	3039.19
729.39	2717.65
729.57	2437.08
729.75	2367.45
729.93	2379.74
730.11	2256.86
730.30	2248.67
730.48	2314.20
730.66	2363.36
730.84	2396.12
731.02	2193.37
731.20	2244.57
731.38	2267.10
731.56	2074.59
731.74	2088.93
731.93	2193.37
732.11	2260.96
732.29	2197.47
732.47	2299.87
732.65	2279.39
732.83	2367.45
733.01	2295.77
733.19	2258.91
733.37	2349.02
733.56	2283.49
733.74	2248.67
733.92	2355.16
734.10	2248.67
734.28	2379.74
734.46	2148.32
734.64	2179.04
734.82	2240.48
735.00	2138.08
735.18	2242.53
735.36	2301.92
735.54	2246.62
735.73	2193.37
735.91	2326.49
736.09	2330.59
736.27	2183.13
736.45	2277.34
736.63	2131.94
736.81	2187.23
736.99	2361.31
737.17	2416.60
737.35	2224.09
737.53	2252.77
737.71	2256.86
737.89	2392.03
738.07	2160.61
738.25	2166.75
738.43	2064.35
738.61	2215.90
738.80	2166.75
738.98	2127.84
739.16	2203.61
739.34	2123.74
739.52	2285.53
739.70	2240.48
739.88	2324.44
740.06	2402.27
740.24	2078.69
740.42	2326.49
740.60	2047.97
740.78	2224.09
740.96	2144.22
741.14	2211.81
741.32	2244.57
741.50	2140.13
741.68	2404.32
741.86	2332.64
742.04	2080.74
742.22	2260.96
742.40	2195.42
742.58	2359.26
742.76	2183.13
742.94	2291.68
743.12	2078.69
743.30	2273.25
743.48	2273.25
743.66	2162.66
743.84	2279.39
744.02	2209.76
744.20	2191.33
744.38	2154.46
744.56	2187.23
744.74	2383.84
744.92	2277.34
745.10	2383.84
745.28	2351.07
745.46	2398.17
745.64	2170.85
745.82	2396.12
746.00	2281.44
746.18	2236.38
746.36	2176.99
746.54	2363.36
746.72	2265.05
746.90	2181.09
747.08	2346.97
747.26	2281.44
747.44	2324.44
747.62	2224.09
747.80	2308.06
747.98	2394.08
748.15	2232.29
748.33	2430.94
748.51	2260.96
748.69	2265.05
748.87	2086.88
749.05	2195.42
749.23	2222.05
749.41	2340.83
749.59	2244.57
749.77	2455.51
749.95	2238.43
750.13	2248.67
750.31	2220.00
750.49	2287.58
750.67	2369.50
750.85	2404.32
751.03	2265.05
751.20	2480.09
751.38	2222.05
751.56	2150.37
751.74	2236.38
751.92	2152.42
752.10	2172.89
752.28	2422.75
752.46	2236.38
752.64	2277.34
752.82	2222.05
753.00	2267.10
753.18	2234.33
753.35	2201.57
753.53	2234.33
753.71	2308.06
753.89	2322.40
754.07	2277.34
754.25	2404.32
754.43	2291.68
754.61	2236.38
754.79	2285.53
754.97	2181.09
755.14	2365.40
755.32	2187.23
755.50	2226.14
755.68	2277.34
755.86	2121.70
756.04	2181.09
756.22	2125.79
756.40	2365.40
756.57	2439.13
756.75	2207.71
756.93	2324.44
757.11	2357.21
757.29	2072.54
757.47	2170.85
757.65	2080.74
757.82	2023.39
758.00	2103.26
758.18	2150.37
758.36	2232.29
758.54	2449.37
758.72	2189.28
758.90	2301.92
759.07	2244.57
759.25	2193.37
759.43	2291.68
759.61	2164.70
759.79	3102.67
759.97	2406.36
760.15	2263.01
760.32	2201.57
760.50	2265.05
760.68	2387.93
760.86	2172.89
761.04	2398.17
761.22	2394.08
761.39	2207.71
761.57	2303.96
761.75	2181.09
761.93	2324.44
762.11	2308.06
762.28	2273.25
762.46	2109.41
762.64	2357.21
762.82	2146.27
763.00	2181.09
763.18	2398.17
763.35	2220.00
763.53	2357.21
763.71	2252.77
763.89	2248.67
764.07	2265.05
764.24	2275.29
764.42	2273.25
764.60	2222.05
764.78	2220.00
764.96	2365.40
765.13	2242.53
765.31	2265.05
765.49	2342.88
765.67	2187.23
765.84	2187.23
766.02	2217.95
766.20	2097.12
766.38	2252.77
766.56	2224.09
766.73	2357.21
766.91	2351.07
767.09	2207.71
767.27	2252.77
767.44	2107.36
767.62	2338.78
767.80	2236.38
767.98	2224.09
768.15	2179.04
768.33	2330.59
768.51	2412.51
768.69	2310.11
768.87	2250.72
769.04	2318.30
769.22	2510.81
769.40	2420.70
769.58	2533.34
769.75	2338.78
769.93	2432.99
770.11	2213.85
770.28	2148.32
770.46	2330.59
770.64	2217.95
770.82	2156.51
770.99	2179.04
771.17	2312.16
771.35	2170.85
771.53	2217.95
771.70	2187.23
771.88	2211.81
772.06	2232.29
772.23	2226.14
772.41	2265.05
772.59	2271.20
772.77	2150.37
772.94	2236.38
773.12	2267.10
773.30	2258.91
773.47	2340.83
773.65	2103.26
773.83	2361.31
774.01	2328.54
774.18	2029.54
774.36	2244.57
774.54	2131.94
774.71	2342.88
774.89	2158.56
775.07	2168.80
775.24	2201.57
775.42	2240.48
775.60	2357.21
775.78	2150.37
775.95	2172.89
776.13	2158.56
776.31	2050.02
776.48	2263.01
776.66	2318.30
776.84	2240.48
777.01	2154.46
777.19	2152.42
777.37	2152.42
777.54	2361.31
777.72	2400.22
777.90	2256.86
778.07	2217.95
778.25	2631.64
778.43	2406.36
778.60	2187.23
778.78	2289.63
778.96	2367.45
779.13	2133.98
779.31	2279.39
779.49	2228.19
779.66	2254.81
779.84	2244.57
780.01	2193.37
780.19	2158.56
780.37	2416.60
780.54	2334.68
780.72	2179.04
780.90	2189.28
781.07	2203.61
781.25	2238.43
781.43	2361.31
781.60	2215.90
781.78	2400.22
781.95	2267.10
782.13	2246.62
782.31	2265.05
782.48	2146.27
782.66	2281.44
782.83	2381.79
783.01	2287.58
783.19	2383.84
783.36	2183.13
783.54	2156.51
783.72	2377.69
783.89	2209.76
784.07	2277.34
784.24	2179.04
784.42	2367.45
784.60	2228.19
784.77	2256.86
784.95	2121.70
785.12	2193.37
785.30	2211.81
785.47	2160.61
785.65	2129.89
785.83	2197.47
786.00	2191.33
786.18	2312.16
786.35	2191.33
786.53	2199.52
786.71	2256.86
786.88	2301.92
787.06	2318.30
787.23	2238.43
787.41	2097.12
787.58	2275.29
787.76	2197.47
787.94	2295.77
788.11	2220.00
788.29	2097.12
788.46	2148.32
788.64	2170.85
788.81	2242.53
788.99	2158.56
789.16	2170.85
789.34	2260.96
789.52	2185.18
789.69	2205.66
789.87	2037.73
790.04	2138.08
790.22	2320.35
790.39	2445.27
790.57	2179.04
790.74	2179.04
790.92	2330.59
791.09	2133.98
791.27	2244.57
791.44	2324.44
791.62	2203.61
791.79	2256.86
791.97	2246.62
792.15	2594.78
792.32	2310.11
792.50	2338.78
792.67	2375.64
792.85	2326.49
793.02	2142.18
793.20	2260.96
793.37	2105.31
793.55	2197.47
793.72	2111.46
793.90	2295.77
794.07	2179.04
794.25	2052.06
794.42	2267.10
794.60	2226.14
794.77	2285.53
794.95	2254.81
795.12	2344.92
795.30	2226.14
795.47	2039.78
795.65	2519.00
795.82	2342.88
796.00	2136.03
796.17	2193.37
796.34	2080.74
796.52	2254.81
796.69	2328.54
796.87	2328.54
797.04	2301.92
797.22	2318.30
797.39	2248.67
797.57	2357.21
797.74	2301.92
797.92	2285.53
798.09	2246.62
798.27	2371.55
798.44	2199.52
798.62	2187.23
798.79	2295.77
798.96	2195.42
799.14	2213.85
799.31	2455.51
799.49	2246.62
799.66	2199.52
799.84	2213.85
800.01	2185.18
800.19	2330.59
800.36	2064.35
800.53	2246.62
800.71	2275.29
800.88	2375.64
801.06	2183.13
801.23	2142.18
801.41	2207.71
801.58	2185.18
801.75	2220.00
801.93	2289.63
802.10	2326.49
802.28	2236.38
802.45	2176.99
802.63	2269.15
802.80	2338.78
802.97	2215.90
803.15	2250.72
803.32	2254.81
803.50	2279.39
803.67	2199.52
803.84	2168.80
804.02	2211.81
804.19	2236.38
804.37	2000.87
804.54	2127.84
804.71	2181.09
804.89	2263.01
805.06	2166.75
805.24	2113.50
805.41	2174.94
805.58	2215.90
805.76	2449.37
805.93	2295.77
806.10	2435.03
806.28	2293.72
806.45	2252.77
806.63	2228.19
806.80	2275.29
806.97	2308.06
807.15	2283.49
807.32	2336.73
807.49	2193.37
807.67	2179.04
807.84	2289.63
808.01	2136.03
808.19	2432.99
808.36	2463.71
808.54	2260.96
808.71	2185.18
808.88	2363.36
809.06	2312.16
809.23	2412.51
809.40	2191.33
809.58	2279.39
809.75	2291.68
809.92	2144.22
810.10	2453.47
810.27	2189.28
810.44	2308.06
810.62	2301.92
810.79	2224.09
810.96	2166.75
811.14	2215.90
811.31	2185.18
811.48	2285.53
811.66	2193.37
811.83	2410.46
812.00	2260.96
812.18	2308.06
812.35	2461.66
812.52	2318.30
812.69	2220.00
812.87	2160.61
813.04	2172.89
813.21	2260.96
813.39	2168.80
813.56	2148.32
813.73	2314.20
813.91	2174.94
814.08	2285.53
814.25	2226.14
814.42	2105.31
814.60	2191.33
814.77	2258.91
814.94	2244.57
815.12	2252.77
815.29	2416.60
815.46	2240.48
815.63	2289.63
815.81	2226.14
815.98	2236.38
816.15	2185.18
816.33	2234.33
816.50	2215.90
816.67	2256.86
816.84	2185.18
817.02	2062.30
817.19	2142.18
817.36	2252.77
817.53	2297.82
817.71	2119.65
817.88	2258.91
818.05	2283.49
818.22	2197.47
818.40	2437.08
818.57	2234.33
818.74	2310.11
818.91	2185.18
819.09	2369.50
819.26	2289.63
819.43	2187.23
819.60	2160.61
819.78	2267.10
819.95	2357.21
820.12	2133.98
820.29	2326.49
820.47	2332.64
820.64	2193.37
820.81	2160.61
820.98	2201.57
821.15	2146.27
821.33	2414.56
821.50	2129.89
821.67	2328.54
821.84	2203.61
822.02	2250.72
822.19	2324.44
822.36	2195.42
822.53	2220.00
822.70	2150.37
822.88	2129.89
823.05	2334.68
823.22	2228.19
823.39	2398.17
823.56	2224.09
823.74	2445.27
823.91	2179.04
824.08	2121.70
824.25	2095.07
824.42	2367.45
824.60	2183.13
824.77	2273.25
824.94	2248.67
825.11	2299.87
825.28	2170.85
825.45	2365.40
825.63	2226.14
825.80	2176.99
825.97	2308.06
826.14	2211.81
826.31	2154.46
826.48	2267.10
826.66	2168.80
826.83	2258.91
827.00	2289.63
827.17	2103.26
827.34	2224.09
827.51	2150.37
827.69	2244.57
827.86	2088.93
828.03	2244.57
828.20	2250.72
828.37	2138.08
828.54	2308.06
828.71	2179.04
828.89	2363.36
829.06	2283.49
829.23	2418.65
829.40	2144.22
829.57	2179.04
829.74	2314.20
829.91	2232.29
830.09	2213.85
830.26	2357.21
830.43	2369.50
830.60	2277.34
830.77	2332.64
830.94	2318.30
831.11	2322.40
831.28	2162.66
831.46	2265.05
831.63	2207.71
831.80	2385.88
831.97	2209.76
832.14	2146.27
832.31	2289.63
832.48	2281.44
832.65	2340.83
832.82	2326.49
832.99	2289.63
833.17	2138.08
833.34	2416.60
833.51	2338.78
833.68	2113.50
833.85	2365.40
834.02	2168.80
834.19	2215.90
834.36	2119.65
834.53	2254.81
834.70	2414.56
834.87	2424.80
835.04	2226.14
835.22	2191.33
835.39	2197.47
835.56	2183.13
835.73	2224.09
835.90	2336.73
836.07	2179.04
836.24	2242.53
836.41	2144.22
836.58	2146.27
836.75	2293.72
836.92	2183.13
837.09	2107.36
837.26	2310.11
837.43	2258.91
837.60	2195.42
837.77	2228.19
837.94	2375.64
838.12	2439.13
838.29	2156.51
838.46	2109.41
838.63	2125.79
838.80	2351.07
838.97	2267.10
839.14	2258.91
839.31	2248.67
839.48	2338.78
839.65	2125.79
839.82	2283.49
839.99	2308.06
840.16	2273.25
840.33	2170.85
840.50	2242.53
840.67	2228.19
840.84	2037.73
841.01	2179.04
841.18	2146.27
841.35	2199.52
841.52	2254.81
841.69	2412.51
841.86	2183.13
842.03	2224.09
842.20	2310.11
842.37	2164.70
842.54	2226.14
842.71	2230.24
842.88	2181.09
843.05	2252.77
843.22	2236.38
843.39	2389.98
843.56	2142.18
843.73	2201.57
843.90	2238.43
844.07	2248.67
844.24	2330.59
844.41	2252.77
844.58	2236.38
844.75	2273.25
844.92	2297.82
845.09	2154.46
845.26	2164.70
845.43	2287.58
845.60	2228.19
845.77	2260.96
845.94	2181.09
846.10	2306.01
846.27	2154.46
846.44	2045.92
846.61	2031.58
846.78	2263.01
846.95	2359.26
847.12	2187.23
847.29	2170.85
847.46	2168.80
847.63	2291.68
847.80	2140.13
847.97	2140.13
848.14	2439.13
848.31	2209.76
848.48	2125.79
848.65	2213.85
848.82	2176.99
848.98	2494.43
849.15	2275.29
849.32	2340.83
849.49	2260.96
849.66	2250.72
849.83	2203.61
850.00	2148.32
850.17	2316.25
850.34	2174.94
850.51	2179.04
850.68	2146.27
850.85	2402.27
851.01	2207.71
851.18	2189.28
851.35	2232.29
851.52	2213.85
851.69	2283.49
851.86	2111.46
852.03	2189.28
852.20	2334.68
852.37	2215.90
852.53	2117.60
852.70	2207.71
852.87	2242.53
853.04	2318.30
853.21	2217.95
853.38	2316.25
853.55	2414.56
853.72	2363.36
853.89	2117.60
854.05	2162.66
854.22	2244.57
854.39	2256.86
854.56	2275.29
854.73	2322.40
854.90	2136.03
855.07	2281.44
855.23	2127.84
855.40	2224.09
855.57	2213.85
855.74	2062.30
855.91	2367.45
856.08	2093.02
856.25	2140.13
856.41	2140.13
856.58	2156.51
856.75	2197.47
856.92	2146.27
857.09	2193.37
857.26	2129.89
857.42	2181.09
857.59	2351.07
857.76	2228.19
857.93	2154.46
858.10	2287.58
858.27	2084.83
858.43	2275.29
858.60	2166.75
858.77	2064.35
858.94	2162.66
859.11	2387.93
859.27	2220.00
859.44	2154.46
859.61	2435.03
859.78	2383.84
859.95	2129.89
860.12	2117.60
860.28	2377.69
860.45	2506.71
860.62	2078.69
860.79	2195.42
860.95	2127.84
861.12	2158.56
861.29	2152.42
861.46	2144.22
861.63	2187.23
861.79	2291.68
861.96	2074.59
862.13	2191.33
862.30	2344.92
862.47	2185.18
862.63	2209.76
862.80	2295.77
862.97	2400.22
863.14	2269.15
863.30	2285.53
863.47	2113.50
863.64	2381.79
863.81	2250.72
863.97	2195.42
864.14	2222.05
864.31	2269.15
864.48	2263.01
864.65	2172.89
864.81	2265.05
864.98	2316.25
865.15	2295.77
865.32	2342.88
865.48	2324.44
865.65	2412.51
865.82	2258.91
865.98	2240.48
866.15	2166.75
866.32	2250.72
866.49	2232.29
866.65	2324.44
866.82	2099.17
866.99	2215.90
867.16	2234.33
867.32	2170.85
867.49	2189.28
867.66	2234.33
867.83	2240.48
867.99	2095.07
868.16	2226.14
868.33	2179.04
868.49	2220.00
868.66	2170.85
868.83	2271.20
868.99	2226.14
869.16	2310.11
869.33	2324.44
869.50	2213.85
869.66	2187.23
869.83	2222.05
870.00	2125.79
870.16	2283.49
870.33	2187.23
870.50	2357.21
870.66	2193.37
870.83	2277.34
871.00	2291.68
871.17	2379.74
871.33	2263.01
871.50	2226.14
871.67	2273.25
871.83	2199.52
872.00	2351.07
872.17	2207.71
872.33	2486.23
872.50	2387.93
872.67	2234.33
872.83	2166.75
873.00	2293.72
873.17	2285.53
873.33	2281.44
873.50	2312.16
873.67	2195.42
873.83	2162.66
874.00	2220.00
874.16	2332.64
874.33	2236.38
874.50	2158.56
874.66	2220.00
874.83	2240.48
875.00	2412.51
875.16	2371.55
875.33	2326.49
875.50	2002.91
875.66	2181.09
875.83	2285.53
875.99	2226.14
876.16	2183.13
876.33	2054.11
876.49	2238.43
876.66	2187.23
876.83	2205.66
876.99	2078.69
877.16	2220.00
877.32	2185.18
877.49	2179.04
877.66	2228.19
877.82	2342.88
877.99	2289.63
878.15	2252.77
878.32	2277.34
878.49	2242.53
878.65	2224.09
878.82	2361.31
878.98	2160.61
879.15	2314.20
879.32	2346.97
879.48	2248.67
879.65	2199.52
879.81	2164.70
879.98	2131.94
880.15	2176.99
880.31	2291.68
880.48	2152.42
880.64	2289.63
880.81	2291.68
880.97	2445.27
881.14	2281.44
881.31	2121.70
881.47	2338.78
881.64	2220.00
881.80	2013.15
881.97	2228.19
882.13	2252.77
882.30	2154.46
882.47	2193.37
882.63	2144.22
882.80	2222.05
882.96	2193.37
883.13	2383.84
883.29	2226.14
883.46	2252.77
883.62	2484.19
883.79	2240.48
883.95	2326.49
884.12	2166.75
884.29	2367.45
884.45	2271.20
884.62	2250.72
884.78	2111.46
884.95	2404.32
885.11	2199.52
885.28	2267.10
885.44	2164.70
885.61	2301.92
885.77	2365.40
885.94	2336.73
886.10	2176.99
886.27	2174.94
886.43	2441.18
886.60	2330.59
886.76	2199.52
886.93	2166.75
887.09	2220.00
887.26	2068.45
887.42	2187.23
887.59	2308.06
887.75	2459.61
887.92	2346.97
888.08	2260.96
888.25	2387.93
888.41	2314.20
888.58	2248.67
888.74	2138.08
888.91	2209.76
>>>>>End Processed Spectral Data<<<<<
