SpectraSuite Data File
++++++++++++++++++++++++++++++++++++
Date: Thu May 05 13:20:41 CEST 2016
User: root
Dark Spectrum Present: No
Reference Spectrum Present: No
Number of Sampled Component Spectra: 1
Spectrometers: USB4C02835
Integration Time (usec): 100000 (USB4C02835)
Spectra Averaged: 1 (USB4C02835)
Boxcar Smoothing: 0 (USB4C02835)
Correct for Electrical Dark: No (USB4C02835)
Strobe/Lamp Enabled: No (USB4C02835)
Correct for Detector Non-linearity: No (USB4C02835)
Correct for Stray Light: No (USB4C02835)
Number of Pixels in Processed Spectrum: 3648
>>>>>Begin Processed Spectral Data<<<<<
177.47	1773.54
177.69	1773.54
177.91	1773.54
178.13	1771.49
178.36	1767.40
178.58	2129.89
178.80	2295.77
179.02	2146.27
179.24	2150.37
179.46	2152.42
179.68	2152.42
179.90	2256.86
180.13	2271.20
180.35	2101.22
180.57	2201.57
180.79	2320.35
181.01	2234.33
181.23	2267.10
181.45	2236.38
181.67	2334.68
181.90	2361.31
182.12	2170.85
182.34	2090.98
182.56	2306.01
182.78	2301.92
183.00	2174.94
183.22	2236.38
183.44	2072.54
183.66	2543.58
183.89	2285.53
184.11	2209.76
184.33	2338.78
184.55	2349.02
184.77	2207.71
184.99	2144.22
185.21	2170.85
185.43	2449.37
185.65	2195.42
185.87	2189.28
186.10	2432.99
186.32	2457.56
186.54	2242.53
186.76	2209.76
186.98	2381.79
187.20	2289.63
187.42	2095.07
187.64	2176.99
187.86	2308.06
188.08	2316.25
188.30	2105.31
188.52	2195.42
188.75	2381.79
188.97	2297.82
189.19	2146.27
189.41	2240.48
189.63	2291.68
189.85	2187.23
190.07	2119.65
190.29	2113.50
190.51	2232.29
190.73	2129.89
190.95	2277.34
191.17	2228.19
191.39	2191.33
191.61	2244.57
191.84	2154.46
192.06	2203.61
192.28	2119.65
192.50	2574.30
192.72	2244.57
192.94	2195.42
193.16	2353.12
193.38	2279.39
193.60	2086.88
193.82	2187.23
194.04	2424.80
194.26	2193.37
194.48	2213.85
194.70	2074.59
194.92	2179.04
195.14	2285.53
195.36	2148.32
195.58	2154.46
195.80	2277.34
196.02	2209.76
196.24	2160.61
196.46	2265.05
196.69	2217.95
196.91	2498.52
197.13	2154.46
197.35	2113.50
197.57	2338.78
197.79	2363.36
198.01	2222.05
198.23	2226.14
198.45	2226.14
198.67	2047.97
198.89	2162.66
199.11	2260.96
199.33	2215.90
199.55	2025.44
199.77	2150.37
199.99	2375.64
200.21	2191.33
200.43	2299.87
200.65	2070.50
200.87	1939.43
201.09	2250.72
201.31	2217.95
201.53	2172.89
201.75	2172.89
201.97	2258.91
202.19	2209.76
202.41	2215.90
202.63	2289.63
202.85	2277.34
203.07	2301.92
203.29	2142.18
203.51	2086.88
203.73	2203.61
203.95	2469.85
204.17	2105.31
204.39	2242.53
204.61	2252.77
204.83	2242.53
205.05	2281.44
205.27	2250.72
205.49	2482.14
205.71	2217.95
205.93	2090.98
206.15	2138.08
206.37	2291.68
206.59	2191.33
206.81	2068.45
207.03	2093.02
207.25	2119.65
207.47	2312.16
207.69	2152.42
207.91	2314.20
208.13	2420.70
208.34	2217.95
208.56	2088.93
208.78	2248.67
209.00	2250.72
209.22	2244.57
209.44	2172.89
209.66	2215.90
209.88	2277.34
210.10	2170.85
210.32	2101.22
210.54	2277.34
210.76	2299.87
210.98	2355.16
211.20	2052.06
211.42	2199.52
211.64	2404.32
211.86	2318.30
212.08	2232.29
212.30	2138.08
212.52	2236.38
212.74	2242.53
212.96	2209.76
213.17	2285.53
213.39	2285.53
213.61	2375.64
213.83	2176.99
214.05	2193.37
214.27	2359.26
214.49	2052.06
214.71	2103.26
214.93	2265.05
215.15	2336.73
215.37	2269.15
215.59	2070.50
215.81	2287.58
216.03	2365.40
216.24	2287.58
216.46	2174.94
216.68	2252.77
216.90	2359.26
217.12	2375.64
217.34	2144.22
217.56	2181.09
217.78	2408.41
218.00	2322.40
218.22	2260.96
218.44	2205.66
218.66	2222.05
218.87	2459.61
219.09	2117.60
219.31	2203.61
219.53	2250.72
219.75	2179.04
219.97	2176.99
220.19	2162.66
220.41	2166.75
220.63	2351.07
220.85	2217.95
221.06	2111.46
221.28	2324.44
221.50	2385.88
221.72	2195.42
221.94	2172.89
222.16	2289.63
222.38	2271.20
222.60	2187.23
222.82	2166.75
223.03	2383.84
223.25	2127.84
223.47	2158.56
223.69	2326.49
223.91	2346.97
224.13	2269.15
224.35	2144.22
224.57	2338.78
224.78	2252.77
225.00	2209.76
225.22	2201.57
225.44	2205.66
225.66	2301.92
225.88	2242.53
226.10	2267.10
226.32	2213.85
226.53	2365.40
226.75	2242.53
226.97	2244.57
227.19	2160.61
227.41	2187.23
227.63	2205.66
227.85	2095.07
228.06	2230.24
228.28	2285.53
228.50	2336.73
228.72	2183.13
228.94	2154.46
229.16	2097.12
229.37	2183.13
229.59	2095.07
229.81	2394.08
230.03	2330.59
230.25	2080.74
230.47	2138.08
230.69	2021.35
230.90	2357.21
231.12	2156.51
231.34	2269.15
231.56	2322.40
231.78	2136.03
232.00	2285.53
232.21	2168.80
232.43	2088.93
232.65	2031.58
232.87	2295.77
233.09	2095.07
233.30	2138.08
233.52	2375.64
233.74	2125.79
233.96	2154.46
234.18	2213.85
234.40	2228.19
234.61	2478.04
234.83	2111.46
235.05	2123.74
235.27	2545.63
235.49	2387.93
235.70	2193.37
235.92	2271.20
236.14	2291.68
236.36	2537.43
236.58	2072.54
236.79	2256.86
237.01	2228.19
237.23	2224.09
237.45	2318.30
237.67	2195.42
237.88	2258.91
238.10	2428.89
238.32	2185.18
238.54	2205.66
238.76	2217.95
238.97	2123.74
239.19	2146.27
239.41	2242.53
239.63	2342.88
239.85	2150.37
240.06	2166.75
240.28	2174.94
240.50	2275.29
240.72	2279.39
240.93	2111.46
241.15	2236.38
241.37	2299.87
241.59	2400.22
241.81	2142.18
242.02	2236.38
242.24	2351.07
242.46	2342.88
242.68	2101.22
242.89	2215.90
243.11	2328.54
243.33	2240.48
243.55	2256.86
243.76	2162.66
243.98	2136.03
244.20	2295.77
244.42	2236.38
244.64	2187.23
244.85	2152.42
245.07	2148.32
245.29	2295.77
245.51	2197.47
245.72	2312.16
245.94	2308.06
246.16	2174.94
246.38	2224.09
246.59	2179.04
246.81	2166.75
247.03	2103.26
247.24	2043.87
247.46	2160.61
247.68	2252.77
247.90	2152.42
248.11	2197.47
248.33	2260.96
248.55	2250.72
248.77	2170.85
248.98	2203.61
249.20	2392.03
249.42	2289.63
249.64	2246.62
249.85	2181.09
250.07	2146.27
250.29	2357.21
250.50	2248.67
250.72	2066.40
250.94	2228.19
251.16	2469.85
251.37	2267.10
251.59	2176.99
251.81	2258.91
252.02	2359.26
252.24	2127.84
252.46	2334.68
252.68	2187.23
252.89	2164.70
253.11	2037.73
253.33	2258.91
253.54	2457.56
253.76	2174.94
253.98	2129.89
254.20	2080.74
254.41	2158.56
254.63	2211.81
254.85	2068.45
255.06	2158.56
255.28	2340.83
255.50	2199.52
255.71	2207.71
255.93	2027.49
256.15	2217.95
256.36	2256.86
256.58	2160.61
256.80	2234.33
257.02	2303.96
257.23	2115.55
257.45	2240.48
257.67	2195.42
257.88	2179.04
258.10	2252.77
258.32	2220.00
258.53	2140.13
258.75	2428.89
258.97	2187.23
259.18	2119.65
259.40	2162.66
259.62	2445.27
259.83	2402.27
260.05	2207.71
260.27	2641.88
260.48	2332.64
260.70	2156.51
260.92	2129.89
261.13	2232.29
261.35	2211.81
261.57	2232.29
261.78	2054.11
262.00	2088.93
262.22	2326.49
262.43	2138.08
262.65	2220.00
262.86	2256.86
263.08	2521.05
263.30	2228.19
263.51	2068.45
263.73	2129.89
263.95	2404.32
264.16	2150.37
264.38	2129.89
264.60	2213.85
264.81	2199.52
265.03	2359.26
265.25	2314.20
265.46	2136.03
265.68	2455.51
265.89	2379.74
266.11	2070.50
266.33	2148.32
266.54	2430.94
266.76	2316.25
266.98	2232.29
267.19	2275.29
267.41	2291.68
267.62	2291.68
267.84	2095.07
268.06	2213.85
268.27	2334.68
268.49	2371.55
268.70	2207.71
268.92	2166.75
269.14	2158.56
269.35	2054.11
269.57	2117.60
269.79	2248.67
270.00	2152.42
270.22	2453.47
270.43	2127.84
270.65	2043.87
270.87	2291.68
271.08	2320.35
271.30	2183.13
271.51	2211.81
271.73	2334.68
271.95	2365.40
272.16	2133.98
272.38	2174.94
272.59	2199.52
272.81	2351.07
273.02	2160.61
273.24	2226.14
273.46	2332.64
273.67	2152.42
273.89	2093.02
274.10	2199.52
274.32	2367.45
274.54	2260.96
274.75	2306.01
274.97	2185.18
275.18	2310.11
275.40	2334.68
275.61	2217.95
275.83	2269.15
276.05	2129.89
276.26	2211.81
276.48	2242.53
276.69	2269.15
276.91	2160.61
277.12	2318.30
277.34	2336.73
277.55	2357.21
277.77	2289.63
277.99	2248.67
278.20	2111.46
278.42	2136.03
278.63	2195.42
278.85	2125.79
279.06	2154.46
279.28	2351.07
279.49	2326.49
279.71	2301.92
279.93	2318.30
280.14	2127.84
280.36	2170.85
280.57	2396.12
280.79	2310.11
281.00	2185.18
281.22	2160.61
281.43	2293.72
281.65	1990.63
281.86	2103.26
282.08	2283.49
282.29	2432.99
282.51	2133.98
282.73	2133.98
282.94	2170.85
283.16	2301.92
283.37	2346.97
283.59	2168.80
283.80	2258.91
284.02	2236.38
284.23	2289.63
284.45	2195.42
284.66	2193.37
284.88	2113.50
285.09	2236.38
285.31	2340.83
285.52	2314.20
285.74	2144.22
285.95	2244.57
286.17	2170.85
286.38	2387.93
286.60	2187.23
286.81	2201.57
287.03	2152.42
287.24	2291.68
287.46	2260.96
287.67	2228.19
287.89	2451.42
288.10	2189.28
288.32	2224.09
288.53	2293.72
288.75	2207.71
288.96	2324.44
289.18	2211.81
289.39	2185.18
289.61	2258.91
289.82	2484.19
290.04	2355.16
290.25	2144.22
290.47	2250.72
290.68	2258.91
290.90	2361.31
291.11	2070.50
291.33	2234.33
291.54	2158.56
291.76	2220.00
291.97	2246.62
292.18	2293.72
292.40	2222.05
292.61	2154.46
292.83	2432.99
293.04	2234.33
293.26	2273.25
293.47	2203.61
293.69	2146.27
293.90	2222.05
294.12	2373.60
294.33	2252.77
294.55	2230.24
294.76	2387.93
294.97	2359.26
295.19	2461.66
295.40	2279.39
295.62	2207.71
295.83	2293.72
296.05	2181.09
296.26	2402.27
296.48	2269.15
296.69	2201.57
296.90	2205.66
297.12	2377.69
297.33	2357.21
297.55	2281.44
297.76	2310.11
297.98	2258.91
298.19	2269.15
298.41	2183.13
298.62	2203.61
298.83	2316.25
299.05	2265.05
299.26	2193.37
299.48	2160.61
299.69	2236.38
299.90	2205.66
300.12	2154.46
300.33	2279.39
300.55	2306.01
300.76	2260.96
300.98	2183.13
301.19	2377.69
301.40	2215.90
301.62	2199.52
301.83	2277.34
302.05	2246.62
302.26	2267.10
302.47	2246.62
302.69	2090.98
302.90	2297.82
303.12	2043.87
303.33	2273.25
303.54	2471.90
303.76	2193.37
303.97	2248.67
304.19	2357.21
304.40	2113.50
304.61	2373.60
304.83	2336.73
305.04	2383.84
305.26	2228.19
305.47	2246.62
305.68	2211.81
305.90	2166.75
306.11	2404.32
306.33	2224.09
306.54	2193.37
306.75	2088.93
306.97	2043.87
307.18	2158.56
307.39	2144.22
307.61	2289.63
307.82	2215.90
308.04	2295.77
308.25	2131.94
308.46	2260.96
308.68	2197.47
308.89	2265.05
309.10	2303.96
309.32	2338.78
309.53	2168.80
309.74	2322.40
309.96	2228.19
310.17	2353.12
310.39	2168.80
310.60	2310.11
310.81	2299.87
311.03	2047.97
311.24	2297.82
311.45	2217.95
311.67	2392.03
311.88	2256.86
312.09	2260.96
312.31	2193.37
312.52	2113.50
312.73	2136.03
312.95	2103.26
313.16	2127.84
313.37	2293.72
313.59	2252.77
313.80	2344.92
314.01	2400.22
314.23	2258.91
314.44	2189.28
314.65	2136.03
314.87	2146.27
315.08	2197.47
315.29	2248.67
315.51	2123.74
315.72	2138.08
315.93	2336.73
316.15	2289.63
316.36	2183.13
316.57	2351.07
316.79	2310.11
317.00	2240.48
317.21	2281.44
317.43	2166.75
317.64	2215.90
317.85	2213.85
318.07	2154.46
318.28	2211.81
318.49	2512.86
318.70	2578.39
318.92	2361.31
319.13	2514.91
319.34	2482.14
319.56	2365.40
319.77	2353.12
319.98	2432.99
320.20	2349.02
320.41	2258.91
320.62	2277.34
320.83	2107.36
321.05	2402.27
321.26	2217.95
321.47	2277.34
321.69	2316.25
321.90	2129.89
322.11	2189.28
322.32	2299.87
322.54	2361.31
322.75	2166.75
322.96	2490.33
323.18	2084.83
323.39	2058.21
323.60	2179.04
323.81	2367.45
324.03	2232.29
324.24	2273.25
324.45	2195.42
324.66	2176.99
324.88	2312.16
325.09	2353.12
325.30	2275.29
325.52	2220.00
325.73	2187.23
325.94	2260.96
326.15	2138.08
326.37	2131.94
326.58	2379.74
326.79	2441.18
327.00	2150.37
327.22	2244.57
327.43	2207.71
327.64	2191.33
327.85	2246.62
328.07	2326.49
328.28	2369.50
328.49	2320.35
328.70	2254.81
328.92	2195.42
329.13	2217.95
329.34	2371.55
329.55	2357.21
329.76	2275.29
329.98	2310.11
330.19	2404.32
330.40	2246.62
330.61	2187.23
330.83	2295.77
331.04	2252.77
331.25	2244.57
331.46	2211.81
331.68	2168.80
331.89	2412.51
332.10	2250.72
332.31	2103.26
332.52	2293.72
332.74	2412.51
332.95	2140.13
333.16	2209.76
333.37	2271.20
333.58	2187.23
333.80	2299.87
334.01	2113.50
334.22	2297.82
334.43	2170.85
334.64	2187.23
334.86	2099.17
335.07	2179.04
335.28	2379.74
335.49	2064.35
335.70	2217.95
335.92	2371.55
336.13	2512.86
336.34	2340.83
336.55	2209.76
336.76	2281.44
336.98	2031.58
337.19	2254.81
337.40	2369.50
337.61	2516.95
337.82	2314.20
338.04	2273.25
338.25	2146.27
338.46	2201.57
338.67	2279.39
338.88	2164.70
339.09	2107.36
339.31	2224.09
339.52	2109.41
339.73	2170.85
339.94	2260.96
340.15	2318.30
340.36	2189.28
340.58	2252.77
340.79	2113.50
341.00	2293.72
341.21	2144.22
341.42	2338.78
341.63	2183.13
341.85	2359.26
342.06	2281.44
342.27	2242.53
342.48	2285.53
342.69	2146.27
342.90	2244.57
343.12	2361.31
343.33	2203.61
343.54	2359.26
343.75	2392.03
343.96	2246.62
344.17	2166.75
344.38	2258.91
344.60	2109.41
344.81	2154.46
345.02	2226.14
345.23	2355.16
345.44	2531.29
345.65	2275.29
345.86	2281.44
346.07	2236.38
346.29	2176.99
346.50	2324.44
346.71	2281.44
346.92	2457.56
347.13	2408.41
347.34	2199.52
347.55	2191.33
347.76	2324.44
347.98	2109.41
348.19	2260.96
348.40	2273.25
348.61	2217.95
348.82	2404.32
349.03	2389.98
349.24	2181.09
349.45	2521.05
349.66	2133.98
349.88	2254.81
350.09	2097.12
350.30	2424.80
350.51	2392.03
350.72	2297.82
350.93	2246.62
351.14	2183.13
351.35	2291.68
351.56	2232.29
351.77	2230.24
351.99	2250.72
352.20	2482.14
352.41	2334.68
352.62	2084.83
352.83	2258.91
353.04	2232.29
353.25	2187.23
353.46	2316.25
353.67	2346.97
353.88	2019.30
354.09	2144.22
354.30	2187.23
354.52	2381.79
354.73	2244.57
354.94	2179.04
355.15	2199.52
355.36	2400.22
355.57	2170.85
355.78	2269.15
355.99	2183.13
356.20	2183.13
356.41	2377.69
356.62	2310.11
356.83	2279.39
357.04	2400.22
357.25	2220.00
357.46	2181.09
357.68	2113.50
357.89	2183.13
358.10	2207.71
358.31	2252.77
358.52	2172.89
358.73	2176.99
358.94	2179.04
359.15	2236.38
359.36	2273.25
359.57	2277.34
359.78	2215.90
359.99	2293.72
360.20	2174.94
360.41	2250.72
360.62	2260.96
360.83	2277.34
361.04	2336.73
361.25	2326.49
361.46	2371.55
361.67	2269.15
361.88	2256.86
362.09	2318.30
362.30	2256.86
362.51	2197.47
362.72	2213.85
362.93	2340.83
363.14	2398.17
363.35	2277.34
363.56	2162.66
363.78	2330.59
363.99	2318.30
364.20	2185.18
364.41	2220.00
364.62	2549.72
364.83	2258.91
365.04	2199.52
365.25	2232.29
365.46	2506.71
365.67	2129.89
365.88	2228.19
366.09	2138.08
366.30	2220.00
366.51	2242.53
366.72	2174.94
366.93	2197.47
367.14	2265.05
367.35	2496.47
367.56	2273.25
367.77	2396.12
367.98	2234.33
368.18	2281.44
368.39	2293.72
368.60	2129.89
368.81	2297.82
369.02	2271.20
369.23	2285.53
369.44	2099.17
369.65	2138.08
369.86	2297.82
370.07	2326.49
370.28	2150.37
370.49	2344.92
370.70	2303.96
370.91	2105.31
371.12	2170.85
371.33	2396.12
371.54	2238.43
371.75	2420.70
371.96	2047.97
372.17	2293.72
372.38	2252.77
372.59	2308.06
372.80	2217.95
373.01	2156.51
373.22	2236.38
373.43	2191.33
373.64	2138.08
373.85	2355.16
374.06	2437.08
374.26	2316.25
374.47	2308.06
374.68	2297.82
374.89	2236.38
375.10	2224.09
375.31	2271.20
375.52	2217.95
375.73	2332.64
375.94	2080.74
376.15	2387.93
376.36	2209.76
376.57	2258.91
376.78	2185.18
376.99	2338.78
377.20	2363.36
377.40	2209.76
377.61	2424.80
377.82	2183.13
378.03	2371.55
378.24	2248.67
378.45	2207.71
378.66	2215.90
378.87	2076.64
379.08	2119.65
379.29	2113.50
379.50	2336.73
379.71	2340.83
379.91	2281.44
380.12	2220.00
380.33	2279.39
380.54	2226.14
380.75	2240.48
380.96	2203.61
381.17	2322.40
381.38	2224.09
381.59	2340.83
381.80	2252.77
382.00	2367.45
382.21	2338.78
382.42	2336.73
382.63	2449.37
382.84	2299.87
383.05	2357.21
383.26	2451.42
383.47	2273.25
383.68	2273.25
383.88	2338.78
384.09	2295.77
384.30	2400.22
384.51	2244.57
384.72	2179.04
384.93	2152.42
385.14	2346.97
385.35	2303.96
385.55	2082.78
385.76	2363.36
385.97	2154.46
386.18	2099.17
386.39	2187.23
386.60	2246.62
386.81	2226.14
387.02	2154.46
387.22	2207.71
387.43	2389.98
387.64	2355.16
387.85	2449.37
388.06	2406.36
388.27	3956.68
388.48	8208.26
388.68	11769.68
388.89	14094.12
389.10	15259.42
389.31	14239.53
389.52	10909.53
389.73	9662.32
389.93	8642.43
390.14	8032.13
390.35	7200.66
390.56	6373.28
390.77	5259.18
390.98	3964.87
391.18	3235.79
391.39	2764.76
391.60	2389.98
391.81	2295.77
392.02	2260.96
392.23	2564.06
392.43	2328.54
392.64	2351.07
392.85	2213.85
393.06	2463.71
393.27	2279.39
393.47	2144.22
393.68	2256.86
393.89	2265.05
394.10	2482.14
394.31	2217.95
394.52	2187.23
394.72	2215.90
394.93	2449.37
395.14	2162.66
395.35	2232.29
395.56	2166.75
395.76	2297.82
395.97	2293.72
396.18	2269.15
396.39	2414.56
396.60	2729.94
396.80	2471.90
397.01	2432.99
397.22	2342.88
397.43	2473.95
397.64	2306.01
397.84	2306.01
398.05	2512.86
398.26	2314.20
398.47	2308.06
398.67	2392.03
398.88	2285.53
399.09	2412.51
399.30	2203.61
399.51	2289.63
399.71	2220.00
399.92	2207.71
400.13	2240.48
400.34	2240.48
400.54	2199.52
400.75	2367.45
400.96	2342.88
401.17	2404.32
401.37	2283.49
401.58	2203.61
401.79	2320.35
402.00	2396.12
402.21	2637.78
402.41	2539.48
402.62	2693.08
402.83	2701.27
403.04	2717.65
403.24	2775.00
403.45	2408.41
403.66	2500.57
403.87	2441.18
404.07	2521.05
404.28	2480.09
404.49	2516.95
404.70	2365.40
404.90	2330.59
405.11	2310.11
405.32	2265.05
405.52	2201.57
405.73	2197.47
405.94	2226.14
406.15	2189.28
406.35	2295.77
406.56	2342.88
406.77	2277.34
406.98	2236.38
407.18	2193.37
407.39	2361.31
407.60	2265.05
407.80	2346.97
408.01	2197.47
408.22	2312.16
408.43	2146.27
408.63	2279.39
408.84	2361.31
409.05	2281.44
409.25	2138.08
409.46	2199.52
409.67	2281.44
409.88	2236.38
410.08	2285.53
410.29	2217.95
410.50	2326.49
410.70	2353.12
410.91	2138.08
411.12	2256.86
411.32	2295.77
411.53	2168.80
411.74	2338.78
411.95	2334.68
412.15	2392.03
412.36	2314.20
412.57	2381.79
412.77	2387.93
412.98	2238.43
413.19	2277.34
413.39	2265.05
413.60	2207.71
413.81	2349.02
414.01	2154.46
414.22	2201.57
414.43	2322.40
414.63	2318.30
414.84	2289.63
415.05	2297.82
415.25	2123.74
415.46	2291.68
415.67	2187.23
415.87	2285.53
416.08	2254.81
416.29	2240.48
416.49	2369.50
416.70	2269.15
416.91	2170.85
417.11	2217.95
417.32	2291.68
417.53	2322.40
417.73	2275.29
417.94	2238.43
418.15	2260.96
418.35	2220.00
418.56	2281.44
418.77	2473.95
418.97	2273.25
419.18	2217.95
419.38	2039.78
419.59	2232.29
419.80	2387.93
420.00	2232.29
420.21	2191.33
420.42	2408.41
420.62	2351.07
420.83	2193.37
421.04	2265.05
421.24	2170.85
421.45	2242.53
421.65	2265.05
421.86	2195.42
422.07	2342.88
422.27	2318.30
422.48	2109.41
422.69	2146.27
422.89	2285.53
423.10	2183.13
423.30	2179.04
423.51	2234.33
423.72	2301.92
423.92	2273.25
424.13	2162.66
424.33	2277.34
424.54	2326.49
424.75	2287.58
424.95	2398.17
425.16	2176.99
425.36	2246.62
425.57	2375.64
425.78	2316.25
425.98	2346.97
426.19	2234.33
426.39	2205.66
426.60	2283.49
426.81	2402.27
427.01	2277.34
427.22	2170.85
427.42	2064.35
427.63	2129.89
427.83	2316.25
428.04	2363.36
428.25	2363.36
428.45	2355.16
428.66	2328.54
428.86	2224.09
429.07	2230.24
429.28	2246.62
429.48	2211.81
429.69	2234.33
429.89	2306.01
430.10	2131.94
430.30	2357.21
430.51	2301.92
430.71	2166.75
430.92	2197.47
431.13	2154.46
431.33	2301.92
431.54	2283.49
431.74	2461.66
431.95	2506.71
432.15	2228.19
432.36	2238.43
432.56	2316.25
432.77	2445.27
432.98	2428.89
433.18	2332.64
433.39	2152.42
433.59	2244.57
433.80	2459.61
434.00	2432.99
434.21	2263.01
434.41	2230.24
434.62	2465.75
434.82	2174.94
435.03	2158.56
435.23	2351.07
435.44	2039.78
435.64	2258.91
435.85	2256.86
436.06	2263.01
436.26	2326.49
436.47	2316.25
436.67	2201.57
436.88	2234.33
437.08	2365.40
437.29	2340.83
437.49	2211.81
437.70	2344.92
437.90	2267.10
438.11	2418.65
438.31	2326.49
438.52	2439.13
438.72	2392.03
438.93	2572.25
439.13	2303.96
439.34	2375.64
439.54	2207.71
439.75	2326.49
439.95	2328.54
440.16	2176.99
440.36	2254.81
440.57	2332.64
440.77	2240.48
440.98	2320.35
441.18	2248.67
441.39	2246.62
441.59	2129.89
441.80	2441.18
442.00	2273.25
442.21	2349.02
442.41	2133.98
442.62	2275.29
442.82	2201.57
443.02	2263.01
443.23	2215.90
443.43	2242.53
443.64	2416.60
443.84	2226.14
444.05	2357.21
444.25	2299.87
444.46	2205.66
444.66	2289.63
444.87	2422.75
445.07	2131.94
445.28	2267.10
445.48	2375.64
445.69	2322.40
445.89	2553.82
446.09	2232.29
446.30	2516.95
446.50	2891.73
446.71	4421.56
446.91	5560.24
447.12	6199.20
447.32	6668.19
447.53	6307.74
447.73	5140.40
447.93	4636.60
448.14	4224.96
448.34	4054.98
448.55	3680.20
448.75	3491.79
448.96	3397.58
449.16	3078.10
449.36	2897.88
449.57	2559.96
449.77	2332.64
449.98	2283.49
450.18	2338.78
450.39	2277.34
450.59	2306.01
450.79	2183.13
451.00	2217.95
451.20	2322.40
451.41	2205.66
451.61	2297.82
451.81	2293.72
452.02	2199.52
452.22	2240.48
452.43	2220.00
452.63	2211.81
452.84	2277.34
453.04	2273.25
453.24	2299.87
453.45	2129.89
453.65	2228.19
453.86	2203.61
454.06	2267.10
454.26	2379.74
454.47	2222.05
454.67	2316.25
454.87	2322.40
455.08	2232.29
455.28	2424.80
455.49	2340.83
455.69	2176.99
455.89	2494.43
456.10	2310.11
456.30	2174.94
456.51	2334.68
456.71	2334.68
456.91	2322.40
457.12	2242.53
457.32	2275.29
457.52	2166.75
457.73	2330.59
457.93	2324.44
458.14	2217.95
458.34	2138.08
458.54	2240.48
458.75	2289.63
458.95	2408.41
459.15	2361.31
459.36	2232.29
459.56	2281.44
459.76	2449.37
459.97	2265.05
460.17	2230.24
460.37	2346.97
460.58	2293.72
460.78	2287.58
460.99	2301.92
461.19	2176.99
461.39	2250.72
461.60	2289.63
461.80	2308.06
462.00	2197.47
462.21	2263.01
462.41	2174.94
462.61	2127.84
462.82	2029.54
463.02	2357.21
463.22	2267.10
463.43	2349.02
463.63	2263.01
463.83	2418.65
464.04	2269.15
464.24	2342.88
464.44	2142.18
464.64	2342.88
464.85	2275.29
465.05	2383.84
465.25	2289.63
465.46	2244.57
465.66	2281.44
465.86	2263.01
466.07	2252.77
466.27	2236.38
466.47	2220.00
466.68	2121.70
466.88	2439.13
467.08	2342.88
467.29	2453.47
467.49	2269.15
467.69	2275.29
467.89	2299.87
468.10	2273.25
468.30	2379.74
468.50	2318.30
468.71	2383.84
468.91	2172.89
469.11	2342.88
469.31	2232.29
469.52	2140.13
469.72	2455.51
469.92	2437.08
470.13	2215.90
470.33	2332.64
470.53	2379.74
470.73	2574.30
470.94	3024.85
471.14	3192.78
471.34	3567.56
471.54	3342.28
471.75	3028.95
471.95	2899.92
472.15	2766.81
472.36	2770.90
472.56	2731.99
472.76	2719.70
472.96	2645.98
473.17	2545.63
473.37	2482.14
473.57	2303.96
473.77	2367.45
473.98	2293.72
474.18	2187.23
474.38	2488.28
474.58	2291.68
474.79	2228.19
474.99	2303.96
475.19	2351.07
475.39	2226.14
475.60	2344.92
475.80	2203.61
476.00	2260.96
476.20	2205.66
476.41	2242.53
476.61	2408.41
476.81	2398.17
477.01	2127.84
477.21	2437.08
477.42	2330.59
477.62	2199.52
477.82	2277.34
478.02	2254.81
478.23	2279.39
478.43	2140.13
478.63	2201.57
478.83	2301.92
479.03	2293.72
479.24	2441.18
479.44	2420.70
479.64	2185.18
479.84	2119.65
480.04	2230.24
480.25	2396.12
480.45	2185.18
480.65	2258.91
480.85	2389.98
481.06	2267.10
481.26	2301.92
481.46	2267.10
481.66	2381.79
481.86	2195.42
482.06	2351.07
482.27	2195.42
482.47	2285.53
482.67	2371.55
482.87	2185.18
483.07	2349.02
483.28	2195.42
483.48	2146.27
483.68	2320.35
483.88	2084.83
484.08	2086.88
484.29	2187.23
484.49	2338.78
484.69	2123.74
484.89	2418.65
485.09	2344.92
485.29	2324.44
485.50	2371.55
485.70	2299.87
485.90	2416.60
486.10	2271.20
486.30	2267.10
486.50	2301.92
486.71	2312.16
486.91	2420.70
487.11	2455.51
487.31	2179.04
487.51	2340.83
487.71	2179.04
487.91	2142.18
488.12	2172.89
488.32	2070.50
488.52	2181.09
488.72	2041.82
488.92	2289.63
489.12	2480.09
489.32	2394.08
489.53	2271.20
489.73	2105.31
489.93	2422.75
490.13	2144.22
490.33	2201.57
490.53	2330.59
490.73	2326.49
490.94	2086.88
491.14	2297.82
491.34	2389.98
491.54	2570.20
491.74	3246.03
491.94	3780.55
492.14	4065.22
492.34	4048.83
492.54	3850.18
492.75	3252.17
492.95	3137.49
493.15	2990.03
493.35	2994.13
493.55	2719.70
493.75	2785.24
493.95	2734.04
494.15	2629.59
494.35	2383.84
494.56	2295.77
494.76	2269.15
494.96	2330.59
495.16	2265.05
495.36	2211.81
495.56	2357.21
495.76	2248.67
495.96	2226.14
496.16	2154.46
496.36	2543.58
496.56	2306.01
496.77	2340.83
496.97	2277.34
497.17	2410.46
497.37	2080.74
497.57	2293.72
497.77	2301.92
497.97	2166.75
498.17	2242.53
498.37	2191.33
498.57	2379.74
498.77	2179.04
498.97	2414.56
499.17	2371.55
499.38	2236.38
499.58	2365.40
499.78	2375.64
499.98	2363.36
500.18	2193.37
500.38	2252.77
500.58	2480.09
500.78	2852.82
500.98	5212.08
501.18	7245.71
501.38	8808.31
501.58	9846.63
501.78	9570.16
501.98	7681.93
502.18	6459.29
502.38	5504.94
502.58	5066.67
502.78	4573.11
502.98	4464.57
503.18	4208.58
503.38	3921.86
503.59	3407.82
503.79	3246.03
503.99	3043.28
504.19	2785.24
504.39	2813.91
504.59	2861.01
504.79	2854.87
504.99	2856.92
505.19	2568.15
505.39	2486.23
505.59	2607.06
505.79	2523.10
505.99	2428.89
506.19	2398.17
506.39	2441.18
506.59	2273.25
506.79	2187.23
506.99	2432.99
507.19	2250.72
507.39	2349.02
507.59	2148.32
507.79	2193.37
507.99	2170.85
508.19	2240.48
508.39	2228.19
508.59	2217.95
508.79	2363.36
508.99	2496.47
509.19	2226.14
509.39	2357.21
509.59	2183.13
509.79	2195.42
509.99	2340.83
510.19	2353.12
510.39	2273.25
510.59	2297.82
510.79	2265.05
510.99	2228.19
511.19	2299.87
511.39	2418.65
511.59	2377.69
511.79	2355.16
511.99	2258.91
512.19	2424.80
512.38	2254.81
512.58	2195.42
512.78	2133.98
512.98	2383.84
513.18	2383.84
513.38	2195.42
513.58	2301.92
513.78	2179.04
513.98	2226.14
514.18	2187.23
514.38	2285.53
514.58	2299.87
514.78	2215.90
514.98	2176.99
515.18	2242.53
515.38	2201.57
515.58	2455.51
515.78	2164.70
515.98	2314.20
516.18	2293.72
516.38	2334.68
516.57	2195.42
516.77	2230.24
516.97	2351.07
517.17	2242.53
517.37	2045.92
517.57	2377.69
517.77	2269.15
517.97	2201.57
518.17	2211.81
518.37	2111.46
518.57	2220.00
518.77	2234.33
518.97	2263.01
519.16	2277.34
519.36	2332.64
519.56	2179.04
519.76	2301.92
519.96	2238.43
520.16	2422.75
520.36	2240.48
520.56	2361.31
520.76	2215.90
520.96	2176.99
521.16	2310.11
521.35	2334.68
521.55	2383.84
521.75	2263.01
521.95	2162.66
522.15	2168.80
522.35	2050.02
522.55	2125.79
522.75	2383.84
522.95	2234.33
523.14	2172.89
523.34	2353.12
523.54	2209.76
523.74	2326.49
523.94	2299.87
524.14	2076.64
524.34	2326.49
524.54	2383.84
524.73	2346.97
524.93	2297.82
525.13	2332.64
525.33	2170.85
525.53	2453.47
525.73	2314.20
525.93	2224.09
526.13	2187.23
526.32	2248.67
526.52	2277.34
526.72	2461.66
526.92	2215.90
527.12	2254.81
527.32	2119.65
527.52	2256.86
527.71	2242.53
527.91	2158.56
528.11	2197.47
528.31	2248.67
528.51	2162.66
528.71	2363.36
528.90	2297.82
529.10	2353.12
529.30	2318.30
529.50	2080.74
529.70	2234.33
529.90	2269.15
530.09	2310.11
530.29	2138.08
530.49	2197.47
530.69	2557.91
530.89	2344.92
531.09	2326.49
531.28	2224.09
531.48	2306.01
531.68	2285.53
531.88	2303.96
532.08	2367.45
532.28	2217.95
532.47	2416.60
532.67	2353.12
532.87	2248.67
533.07	2318.30
533.27	2396.12
533.46	2320.35
533.66	2375.64
533.86	2338.78
534.06	2260.96
534.26	2299.87
534.45	2222.05
534.65	2392.03
534.85	2258.91
535.05	2242.53
535.25	2412.51
535.44	2113.50
535.64	2287.58
535.84	2258.91
536.04	2197.47
536.24	2232.29
536.43	2183.13
536.63	2281.44
536.83	2224.09
537.03	2271.20
537.22	2199.52
537.42	2095.07
537.62	2289.63
537.82	2240.48
538.02	2392.03
538.21	2359.26
538.41	2578.39
538.61	2299.87
538.81	2252.77
539.00	2400.22
539.20	2185.18
539.40	2228.19
539.60	2240.48
539.79	2308.06
539.99	2189.28
540.19	2166.75
540.39	2209.76
540.58	2287.58
540.78	2383.84
540.98	2234.33
541.18	2316.25
541.37	2252.77
541.57	2246.62
541.77	2314.20
541.97	2215.90
542.16	2117.60
542.36	2228.19
542.56	2289.63
542.76	2420.70
542.95	2314.20
543.15	2353.12
543.35	2326.49
543.54	2080.74
543.74	2207.71
543.94	2430.94
544.14	2185.18
544.33	2285.53
544.53	2191.33
544.73	2236.38
544.93	2207.71
545.12	2240.48
545.32	2265.05
545.52	2279.39
545.71	2174.94
545.91	2179.04
546.11	2172.89
546.30	2170.85
546.50	2222.05
546.70	2373.60
546.90	2201.57
547.09	2052.06
547.29	2346.97
547.49	2340.83
547.68	2215.90
547.88	2166.75
548.08	2322.40
548.27	2731.99
548.47	2205.66
548.67	2211.81
548.87	2326.49
549.06	2293.72
549.26	2248.67
549.46	2295.77
549.65	2226.14
549.85	2252.77
550.05	2373.60
550.24	2129.89
550.44	2293.72
550.64	2314.20
550.83	2236.38
551.03	2486.23
551.23	2363.36
551.42	2371.55
551.62	2285.53
551.82	2297.82
552.01	2234.33
552.21	2342.88
552.41	2301.92
552.60	2373.60
552.80	2308.06
553.00	2133.98
553.19	2328.54
553.39	2467.80
553.59	2154.46
553.78	2363.36
553.98	2293.72
554.17	2111.46
554.37	2310.11
554.57	2371.55
554.76	2203.61
554.96	2244.57
555.16	2301.92
555.35	2248.67
555.55	2293.72
555.75	2301.92
555.94	2299.87
556.14	2160.61
556.33	2195.42
556.53	2283.49
556.73	2275.29
556.92	2361.31
557.12	2361.31
557.32	2521.05
557.51	2467.80
557.71	2318.30
557.90	2408.41
558.10	2422.75
558.30	2166.75
558.49	2232.29
558.69	2205.66
558.88	2310.11
559.08	2258.91
559.28	2236.38
559.47	2220.00
559.67	2328.54
559.86	2437.08
560.06	2254.81
560.26	2205.66
560.45	2328.54
560.65	2228.19
560.84	2402.27
561.04	2133.98
561.24	2310.11
561.43	2189.28
561.63	2404.32
561.82	2260.96
562.02	2379.74
562.22	2138.08
562.41	2263.01
562.61	2256.86
562.80	2205.66
563.00	2553.82
563.19	2256.86
563.39	2289.63
563.59	2306.01
563.78	2070.50
563.98	2131.94
564.17	2142.18
564.37	2093.02
564.56	2195.42
564.76	2203.61
564.96	2459.61
565.15	2377.69
565.35	2525.15
565.54	2193.37
565.74	2326.49
565.93	2351.07
566.13	2181.09
566.32	2236.38
566.52	2392.03
566.71	2240.48
566.91	2353.12
567.11	2324.44
567.30	2256.86
567.50	2332.64
567.69	2357.21
567.89	2242.53
568.08	2230.24
568.28	2359.26
568.47	2097.12
568.67	2340.83
568.86	2121.70
569.06	2353.12
569.25	2258.91
569.45	2095.07
569.64	2230.24
569.84	2283.49
570.04	2293.72
570.23	2195.42
570.43	2301.92
570.62	2285.53
570.82	2432.99
571.01	2156.51
571.21	2217.95
571.40	2154.46
571.60	2312.16
571.79	2281.44
571.99	2232.29
572.18	2146.27
572.38	2265.05
572.57	2187.23
572.77	2252.77
572.96	2512.86
573.16	2385.88
573.35	2207.71
573.55	2400.22
573.74	2291.68
573.94	2222.05
574.13	2189.28
574.33	2377.69
574.52	2428.89
574.71	2316.25
574.91	2236.38
575.10	2131.94
575.30	2240.48
575.49	2191.33
575.69	2205.66
575.88	2322.40
576.08	2289.63
576.27	2359.26
576.47	2322.40
576.66	2420.70
576.86	2441.18
577.05	2316.25
577.25	2330.59
577.44	2469.85
577.64	2215.90
577.83	2424.80
578.02	2291.68
578.22	2416.60
578.41	2416.60
578.61	2269.15
578.80	2164.70
579.00	2203.61
579.19	2197.47
579.39	2357.21
579.58	2338.78
579.77	2320.35
579.97	2455.51
580.16	2457.56
580.36	2426.84
580.55	2394.08
580.75	2332.64
580.94	2289.63
581.13	2435.03
581.33	2449.37
581.52	2295.77
581.72	2531.29
581.91	2432.99
582.11	2252.77
582.30	2443.23
582.49	2336.73
582.69	2432.99
582.88	2289.63
583.08	2330.59
583.27	2469.85
583.47	2275.29
583.66	2213.85
583.85	2207.71
584.05	2267.10
584.24	2392.03
584.44	2275.29
584.63	2398.17
584.82	2488.28
585.02	2478.04
585.21	2502.62
585.41	2432.99
585.60	2404.32
585.79	2600.92
585.99	2506.71
586.18	2457.56
586.37	2938.84
586.57	4595.64
586.76	13840.17
586.96	33596.93
587.15	46947.64
587.34	56722.59
587.54	61396.06
587.73	56771.74
587.93	40076.70
588.12	30094.90
588.31	24479.37
588.51	21294.78
588.70	19424.98
588.89	17678.07
589.09	15259.42
589.28	13113.14
589.47	10678.11
589.67	8314.75
589.86	6248.35
590.06	4857.78
590.25	3835.85
590.44	3178.45
590.64	2801.62
590.83	2539.48
591.02	2609.11
591.22	2351.07
591.41	2346.97
591.60	2279.39
591.80	2574.30
591.99	2258.91
592.18	2285.53
592.38	2373.60
592.57	2312.16
592.76	2293.72
592.96	2332.64
593.15	2228.19
593.34	2324.44
593.54	2285.53
593.73	2414.56
593.92	2349.02
594.12	2324.44
594.31	2383.84
594.50	2457.56
594.70	2371.55
594.89	2658.26
595.08	2117.60
595.28	2377.69
595.47	2607.06
595.66	2365.40
595.86	2176.99
596.05	2258.91
596.24	2203.61
596.43	2482.14
596.63	2418.65
596.82	2387.93
597.01	2359.26
597.21	2496.47
597.40	2389.98
597.59	2383.84
597.79	2283.49
597.98	2357.21
598.17	2365.40
598.36	2322.40
598.56	2373.60
598.75	2242.53
598.94	2363.36
599.14	2310.11
599.33	2271.20
599.52	2359.26
599.71	2375.64
599.91	2349.02
600.10	2338.78
600.29	2314.20
600.48	2340.83
600.68	2334.68
600.87	2310.11
601.06	2228.19
601.26	2265.05
601.45	2250.72
601.64	2242.53
601.83	2394.08
602.03	2250.72
602.22	2217.95
602.41	2379.74
602.60	2502.62
602.80	2320.35
602.99	2334.68
603.18	2230.24
603.37	2242.53
603.57	2387.93
603.76	2306.01
603.95	2377.69
604.14	2281.44
604.34	2168.80
604.53	2287.58
604.72	2306.01
604.91	2385.88
605.10	2351.07
605.30	2105.31
605.49	2498.52
605.68	2299.87
605.87	2326.49
606.07	2281.44
606.26	2318.30
606.45	2293.72
606.64	2277.34
606.84	2226.14
607.03	2367.45
607.22	2418.65
607.41	2275.29
607.60	2281.44
607.80	2392.03
607.99	2310.11
608.18	2285.53
608.37	2310.11
608.56	2234.33
608.76	2387.93
608.95	2506.71
609.14	2351.07
609.33	2432.99
609.52	2486.23
609.72	2381.79
609.91	2420.70
610.10	2334.68
610.29	2422.75
610.48	2281.44
610.68	2334.68
610.87	2285.53
611.06	2396.12
611.25	2297.82
611.44	2367.45
611.63	2260.96
611.83	2408.41
612.02	2240.48
612.21	2346.97
612.40	2082.78
612.59	2242.53
612.79	2234.33
612.98	2244.57
613.17	2400.22
613.36	2203.61
613.55	2449.37
613.74	2344.92
613.93	2334.68
614.13	2447.32
614.32	2488.28
614.51	2473.95
614.70	2383.84
614.89	2332.64
615.08	2416.60
615.28	2758.61
615.47	2226.14
615.66	2359.26
615.85	2316.25
616.04	2494.43
616.23	2269.15
616.42	2224.09
616.62	2293.72
616.81	2379.74
617.00	2260.96
617.19	2308.06
617.38	2201.57
617.57	2279.39
617.76	2367.45
617.95	2334.68
618.15	2342.88
618.34	2508.76
618.53	2234.33
618.72	2389.98
618.91	2422.75
619.10	2412.51
619.29	2267.10
619.48	2222.05
619.68	2191.33
619.87	2170.85
620.06	2220.00
620.25	2330.59
620.44	2254.81
620.63	2187.23
620.82	2234.33
621.01	2258.91
621.20	2359.26
621.39	2285.53
621.59	2310.11
621.78	2265.05
621.97	2336.73
622.16	2336.73
622.35	2267.10
622.54	2430.94
622.73	2371.55
622.92	2107.36
623.11	2394.08
623.30	2283.49
623.49	2306.01
623.68	2232.29
623.88	2316.25
624.07	2394.08
624.26	2236.38
624.45	2291.68
624.64	2287.58
624.83	2353.12
625.02	2207.71
625.21	2258.91
625.40	2324.44
625.59	2351.07
625.78	2340.83
625.97	2375.64
626.16	2465.75
626.35	2396.12
626.54	2355.16
626.74	2465.75
626.93	2332.64
627.12	2201.57
627.31	2293.72
627.50	2324.44
627.69	2363.36
627.88	2181.09
628.07	2248.67
628.26	2080.74
628.45	2248.67
628.64	2156.51
628.83	2246.62
629.02	2142.18
629.21	2308.06
629.40	2267.10
629.59	2183.13
629.78	2287.58
629.97	2275.29
630.16	2252.77
630.35	2244.57
630.54	2299.87
630.73	2187.23
630.92	2236.38
631.11	2176.99
631.30	2279.39
631.49	2326.49
631.68	2263.01
631.87	2240.48
632.06	2144.22
632.25	2510.81
632.44	2301.92
632.63	2314.20
632.82	2328.54
633.01	2263.01
633.20	2338.78
633.39	2308.06
633.58	2207.71
633.77	2330.59
633.96	2426.84
634.15	2349.02
634.34	2404.32
634.53	2287.58
634.72	2267.10
634.91	2154.46
635.10	2267.10
635.29	2351.07
635.48	2269.15
635.67	2228.19
635.86	2095.07
636.05	2342.88
636.24	2275.29
636.43	2215.90
636.62	2342.88
636.81	2123.74
637.00	2254.81
637.19	2295.77
637.38	2285.53
637.57	2336.73
637.76	2310.11
637.95	2443.23
638.14	2316.25
638.33	2408.41
638.52	2400.22
638.71	2238.43
638.89	2238.43
639.08	2594.78
639.27	2379.74
639.46	2521.05
639.65	2838.48
639.84	2885.59
640.03	2936.79
640.22	2858.96
640.41	2854.87
640.60	2508.76
640.79	2535.39
640.98	2502.62
641.17	2562.01
641.36	2406.36
641.55	2426.84
641.74	2226.14
641.92	2224.09
642.11	2283.49
642.30	2211.81
642.49	2222.05
642.68	2162.66
642.87	2338.78
643.06	2224.09
643.25	2174.94
643.44	2211.81
643.63	2250.72
643.82	2375.64
644.00	2056.16
644.19	2326.49
644.38	2115.55
644.57	2351.07
644.76	2263.01
644.95	2324.44
645.14	2275.29
645.33	2232.29
645.52	2316.25
645.71	2097.12
645.89	2144.22
646.08	2234.33
646.27	2152.42
646.46	2463.71
646.65	2050.02
646.84	2236.38
647.03	2144.22
647.22	2389.98
647.40	2314.20
647.59	2236.38
647.78	2187.23
647.97	2146.27
648.16	2201.57
648.35	2392.03
648.54	2334.68
648.73	2246.62
648.91	2416.60
649.10	2234.33
649.29	2144.22
649.48	2183.13
649.67	2340.83
649.86	2346.97
650.05	2285.53
650.23	2498.52
650.42	2320.35
650.61	2480.09
650.80	2455.51
650.99	2455.51
651.18	2389.98
651.36	2506.71
651.55	2299.87
651.74	2320.35
651.93	2228.19
652.12	2193.37
652.31	2238.43
652.49	2211.81
652.68	2260.96
652.87	2365.40
653.06	2295.77
653.25	2408.41
653.44	2260.96
653.62	2457.56
653.81	2273.25
654.00	2181.09
654.19	2342.88
654.38	2529.24
654.56	2346.97
654.75	2260.96
654.94	2416.60
655.13	2217.95
655.32	2285.53
655.51	2353.12
655.69	2297.82
655.88	2340.83
656.07	2187.23
656.26	2281.44
656.45	2113.50
656.63	2244.57
656.82	2289.63
657.01	2324.44
657.20	2226.14
657.38	2432.99
657.57	2187.23
657.76	2111.46
657.95	2365.40
658.14	2222.05
658.32	2277.34
658.51	2164.70
658.70	2318.30
658.89	2226.14
659.08	2260.96
659.26	2475.99
659.45	2265.05
659.64	2424.80
659.83	2203.61
660.01	2559.96
660.20	2299.87
660.39	2424.80
660.58	2072.54
660.76	2312.16
660.95	2131.94
661.14	2234.33
661.33	2146.27
661.51	2244.57
661.70	2129.89
661.89	2240.48
662.08	2299.87
662.26	2068.45
662.45	2117.60
662.64	2453.47
662.83	2316.25
663.01	2166.75
663.20	2209.76
663.39	2355.16
663.58	2185.18
663.76	2199.52
663.95	2363.36
664.14	2150.37
664.32	2279.39
664.51	2172.89
664.70	2043.87
664.89	2346.97
665.07	2144.22
665.26	2441.18
665.45	2088.93
665.64	2273.25
665.82	2269.15
666.01	2310.11
666.20	2176.99
666.38	2324.44
666.57	2463.71
666.76	3399.63
666.95	8288.13
667.13	16250.63
667.32	21509.82
667.51	24983.17
667.69	26857.06
667.88	24503.95
668.07	17460.98
668.25	14047.02
668.44	11550.54
668.63	10035.05
668.81	8968.06
669.00	7643.02
669.19	6952.85
669.38	6035.36
669.56	5226.42
669.75	4274.11
669.94	3682.25
670.12	3209.17
670.31	2723.80
670.50	2678.74
670.68	2525.15
670.87	2455.51
671.06	2265.05
671.24	2404.32
671.43	2465.75
671.62	2357.21
671.80	2260.96
671.99	2289.63
672.18	2254.81
672.36	2351.07
672.55	2301.92
672.74	2254.81
672.92	2234.33
673.11	2316.25
673.29	2144.22
673.48	2310.11
673.67	2260.96
673.85	2318.30
674.04	2224.09
674.23	2287.58
674.41	2426.84
674.60	2232.29
674.79	2111.46
674.97	2156.51
675.16	2310.11
675.34	2349.02
675.53	2162.66
675.72	2265.05
675.90	2428.89
676.09	2220.00
676.28	2285.53
676.46	2162.66
676.65	2340.83
676.83	2150.37
677.02	2252.77
677.21	2283.49
677.39	2220.00
677.58	2191.33
677.77	2224.09
677.95	2174.94
678.14	2189.28
678.32	2244.57
678.51	2209.76
678.70	2404.32
678.88	2222.05
679.07	2430.94
679.25	2248.67
679.44	2185.18
679.63	2097.12
679.81	2281.44
680.00	2338.78
680.18	2369.50
680.37	2396.12
680.55	2248.67
680.74	2043.87
680.93	2068.45
681.11	2258.91
681.30	2299.87
681.48	2306.01
681.67	2166.75
681.85	2230.24
682.04	2146.27
682.23	2383.84
682.41	2340.83
682.60	2211.81
682.78	2349.02
682.97	2203.61
683.15	2240.48
683.34	2246.62
683.53	2498.52
683.71	2095.07
683.90	2404.32
684.08	2463.71
684.27	2224.09
684.45	2248.67
684.64	2340.83
684.82	2267.10
685.01	2285.53
685.19	2269.15
685.38	2324.44
685.57	2234.33
685.75	2205.66
685.94	2199.52
686.12	2181.09
686.31	2203.61
686.49	2412.51
686.68	2109.41
686.86	2312.16
687.05	2256.86
687.23	2418.65
687.42	2269.15
687.60	2142.18
687.79	2326.49
687.97	2365.40
688.16	2303.96
688.34	2389.98
688.53	2095.07
688.71	2408.41
688.90	2322.40
689.08	2203.61
689.27	2144.22
689.45	2301.92
689.64	2316.25
689.82	2236.38
690.01	2318.30
690.19	2299.87
690.38	2252.77
690.56	2471.90
690.75	2140.13
690.93	2232.29
691.12	2166.75
691.30	2263.01
691.49	2244.57
691.67	2236.38
691.86	2490.33
692.04	2250.72
692.23	2322.40
692.41	2303.96
692.60	2547.67
692.78	2400.22
692.97	2252.77
693.15	2338.78
693.34	2408.41
693.52	2457.56
693.71	2269.15
693.89	2258.91
694.08	2133.98
694.26	2406.36
694.44	2299.87
694.63	2334.68
694.81	2172.89
695.00	2121.70
695.18	2387.93
695.37	2473.95
695.55	2326.49
695.74	2228.19
695.92	2152.42
696.10	2357.21
696.29	2140.13
696.47	2232.29
696.66	2101.22
696.84	2152.42
697.03	2322.40
697.21	2494.43
697.40	3327.95
697.58	2363.36
697.76	2246.62
697.95	2228.19
698.13	2211.81
698.32	2179.04
698.50	2199.52
698.68	2326.49
698.87	2310.11
699.05	2461.66
699.24	2195.42
699.42	2142.18
699.61	2295.77
699.79	2281.44
699.97	2195.42
700.16	2088.93
700.34	2125.79
700.53	2224.09
700.71	2387.93
700.89	2314.20
701.08	2191.33
701.26	2242.53
701.45	2826.20
701.63	2127.84
701.81	2252.77
702.00	2195.42
702.18	2342.88
702.37	2260.96
702.55	2439.13
702.73	2373.60
702.92	2416.60
703.10	2580.44
703.28	2545.63
703.47	2252.77
703.65	2383.84
703.84	2447.32
704.02	2260.96
704.20	2482.14
704.39	2269.15
704.57	2273.25
704.75	2412.51
704.94	2422.75
705.12	2375.64
705.30	2627.54
705.49	4437.95
705.67	10544.99
705.86	18083.56
706.04	22351.53
706.22	25216.64
706.41	26211.95
706.59	21941.94
706.77	15607.57
706.96	13061.94
707.14	11362.13
707.32	10049.38
707.51	9000.82
707.69	7341.97
707.87	6018.98
708.06	4777.91
708.24	4011.97
708.42	3225.55
708.61	3076.05
708.79	2482.14
708.97	2361.31
709.16	2430.94
709.34	2320.35
709.52	2293.72
709.71	2260.96
709.89	2351.07
710.07	2201.57
710.26	2211.81
710.44	2244.57
710.62	2402.27
710.80	2267.10
710.99	2349.02
711.17	2326.49
711.35	2217.95
711.54	2181.09
711.72	2400.22
711.90	2230.24
712.09	2291.68
712.27	2201.57
712.45	2281.44
712.63	2258.91
712.82	2265.05
713.00	2324.44
713.18	2363.36
713.37	2367.45
713.55	2310.11
713.73	2242.53
713.91	2308.06
714.10	2195.42
714.28	2215.90
714.46	2252.77
714.65	2308.06
714.83	2267.10
715.01	2324.44
715.19	2236.38
715.38	2183.13
715.56	2357.21
715.74	2136.03
715.92	2220.00
716.11	2396.12
716.29	2154.46
716.47	2220.00
716.65	2316.25
716.84	2131.94
717.02	2342.88
717.20	2093.02
717.38	2203.61
717.57	2277.34
717.75	2242.53
717.93	2209.76
718.11	2338.78
718.30	2172.89
718.48	2189.28
718.66	2346.97
718.84	2293.72
719.03	2277.34
719.21	2105.31
719.39	2338.78
719.57	2314.20
719.75	2432.99
719.94	2183.13
720.12	2226.14
720.30	2263.01
720.48	2334.68
720.67	2226.14
720.85	2226.14
721.03	2267.10
721.21	2168.80
721.39	2330.59
721.58	2289.63
721.76	2195.42
721.94	2248.67
722.12	2289.63
722.30	2381.79
722.49	2125.79
722.67	2346.97
722.85	2301.92
723.03	2195.42
723.21	2224.09
723.40	2297.82
723.58	2342.88
723.76	2277.34
723.94	2428.89
724.12	2332.64
724.30	2375.64
724.49	2351.07
724.67	2191.33
724.85	2326.49
725.03	2080.74
725.21	2375.64
725.40	2375.64
725.58	2187.23
725.76	2334.68
725.94	2285.53
726.12	2195.42
726.30	2299.87
726.49	2181.09
726.67	2228.19
726.85	2375.64
727.03	2514.91
727.21	3624.90
727.39	4997.04
727.57	5793.70
727.76	6573.98
727.94	6850.46
728.12	6404.00
728.30	5140.40
728.48	4595.64
728.66	4044.74
728.84	3782.60
729.03	3350.48
729.21	2889.68
729.39	2752.47
729.57	2443.23
729.75	2506.71
729.93	2361.31
730.11	2203.61
730.30	2258.91
730.48	2260.96
730.66	2363.36
730.84	2334.68
731.02	2297.82
731.20	2195.42
731.38	2306.01
731.56	2146.27
731.74	2115.55
731.93	2273.25
732.11	2201.57
732.29	2242.53
732.47	2349.02
732.65	2326.49
732.83	2377.69
733.01	2258.91
733.19	2097.12
733.37	2324.44
733.56	2260.96
733.74	2187.23
733.92	2332.64
734.10	2250.72
734.28	2293.72
734.46	2056.16
734.64	2289.63
734.82	2195.42
735.00	2240.48
735.18	2277.34
735.36	2217.95
735.54	2334.68
735.73	2285.53
735.91	2293.72
736.09	2322.40
736.27	2242.53
736.45	2349.02
736.63	2088.93
736.81	2174.94
736.99	2297.82
737.17	2289.63
737.35	2179.04
737.53	2349.02
737.71	2207.71
737.89	2349.02
738.07	2217.95
738.25	2174.94
738.43	2107.36
738.61	2320.35
738.80	2160.61
738.98	2203.61
739.16	2115.55
739.34	2220.00
739.52	2361.31
739.70	2254.81
739.88	2220.00
740.06	2346.97
740.24	2080.74
740.42	2277.34
740.60	2111.46
740.78	2318.30
740.96	2076.64
741.14	2265.05
741.32	2224.09
741.50	2099.17
741.68	2394.08
741.86	2400.22
742.04	2125.79
742.22	2166.75
742.40	2246.62
742.58	2336.73
742.76	2125.79
742.94	2349.02
743.12	2093.02
743.30	2291.68
743.48	2289.63
743.66	2138.08
743.84	2244.57
744.02	2162.66
744.20	2242.53
744.38	2174.94
744.56	2123.74
744.74	2408.41
744.92	2326.49
745.10	2414.56
745.28	2363.36
745.46	2396.12
745.64	2275.29
745.82	2334.68
746.00	2201.57
746.18	2295.77
746.36	2109.41
746.54	2248.67
746.72	2226.14
746.90	2160.61
747.08	2410.46
747.26	2117.60
747.44	2361.31
747.62	2322.40
747.80	2303.96
747.98	2400.22
748.15	2179.04
748.33	2420.70
748.51	2246.62
748.69	2396.12
748.87	2133.98
749.05	2224.09
749.23	2217.95
749.41	2344.92
749.59	2154.46
749.77	2344.92
749.95	2154.46
750.13	2228.19
750.31	2332.64
750.49	2224.09
750.67	2344.92
750.85	2486.23
751.03	2289.63
751.20	2480.09
751.38	2197.47
751.56	2215.90
751.74	2265.05
751.92	2230.24
752.10	2133.98
752.28	2336.73
752.46	2220.00
752.64	2176.99
752.82	2281.44
753.00	2301.92
753.18	2238.43
753.35	2181.09
753.53	2244.57
753.71	2244.57
753.89	2318.30
754.07	2291.68
754.25	2416.60
754.43	2228.19
754.61	2160.61
754.79	2285.53
754.97	2232.29
755.14	2394.08
755.32	2072.54
755.50	2326.49
755.68	2224.09
755.86	2158.56
756.04	2240.48
756.22	2119.65
756.40	2277.34
756.57	2422.75
756.75	2232.29
756.93	2336.73
757.11	2351.07
757.29	2111.46
757.47	2211.81
757.65	2095.07
757.82	2080.74
758.00	2156.51
758.18	2222.05
758.36	2176.99
758.54	2482.14
758.72	2078.69
758.90	2301.92
759.07	2281.44
759.25	2146.27
759.43	2332.64
759.61	2136.03
759.79	3086.29
759.97	2295.77
760.15	2146.27
760.32	2211.81
760.50	2301.92
760.68	2428.89
760.86	2093.02
761.04	2324.44
761.22	2297.82
761.39	2293.72
761.57	2277.34
761.75	2211.81
761.93	2416.60
762.11	2213.85
762.28	2281.44
762.46	2260.96
762.64	2260.96
762.82	2138.08
763.00	2209.76
763.18	2398.17
763.35	2144.22
763.53	2332.64
763.71	2220.00
763.89	2226.14
764.07	2289.63
764.24	2265.05
764.42	2377.69
764.60	2203.61
764.78	2285.53
764.96	2367.45
765.13	2299.87
765.31	2170.85
765.49	2365.40
765.67	2136.03
765.84	2183.13
766.02	2131.94
766.20	2152.42
766.38	2312.16
766.56	2336.73
766.73	2269.15
766.91	2211.81
767.09	2179.04
767.27	2248.67
767.44	2183.13
767.62	2326.49
767.80	2244.57
767.98	2156.51
768.15	2158.56
768.33	2396.12
768.51	2357.21
768.69	2260.96
768.87	2265.05
769.04	2191.33
769.22	2531.29
769.40	2381.79
769.58	2473.95
769.75	2349.02
769.93	2379.74
770.11	2203.61
770.28	2187.23
770.46	2316.25
770.64	2263.01
770.82	2256.86
770.99	2234.33
771.17	2318.30
771.35	2158.56
771.53	2174.94
771.70	2213.85
771.88	2281.44
772.06	2238.43
772.23	2220.00
772.41	2289.63
772.59	2187.23
772.77	2183.13
772.94	2277.34
773.12	2258.91
773.30	2269.15
773.47	2271.20
773.65	2236.38
773.83	2334.68
774.01	2252.77
774.18	2105.31
774.36	2156.51
774.54	2080.74
774.71	2224.09
774.89	2082.78
775.07	2160.61
775.24	2244.57
775.42	2217.95
775.60	2492.38
775.78	2154.46
775.95	2117.60
776.13	2121.70
776.31	2105.31
776.48	2285.53
776.66	2289.63
776.84	2289.63
777.01	2234.33
777.19	2215.90
777.37	2183.13
777.54	2248.67
777.72	2420.70
777.90	2228.19
778.07	2129.89
778.25	2619.35
778.43	2367.45
778.60	2242.53
778.78	2285.53
778.96	2373.60
779.13	2097.12
779.31	2318.30
779.49	2252.77
779.66	2289.63
779.84	2228.19
780.01	2267.10
780.19	2211.81
780.37	2396.12
780.54	2355.16
780.72	2181.09
780.90	2170.85
781.07	2133.98
781.25	2174.94
781.43	2437.08
781.60	2203.61
781.78	2291.68
781.95	2281.44
782.13	2168.80
782.31	2285.53
782.48	2029.54
782.66	2220.00
782.83	2406.36
783.01	2275.29
783.19	2267.10
783.36	2205.66
783.54	2185.18
783.72	2295.77
783.89	2273.25
784.07	2285.53
784.24	2297.82
784.42	2428.89
784.60	2310.11
784.77	2201.57
784.95	2103.26
785.12	2242.53
785.30	2295.77
785.47	2203.61
785.65	2174.94
785.83	2355.16
786.00	2215.90
786.18	2260.96
786.35	2047.97
786.53	2174.94
786.71	2377.69
786.88	2238.43
787.06	2287.58
787.23	2209.76
787.41	2150.37
787.58	2377.69
787.76	2150.37
787.94	2275.29
788.11	2242.53
788.29	2152.42
788.46	2185.18
788.64	2078.69
788.81	2185.18
788.99	2160.61
789.16	2138.08
789.34	2220.00
789.52	2197.47
789.69	2230.24
789.87	2150.37
790.04	2226.14
790.22	2187.23
790.39	2428.89
790.57	2097.12
790.74	2189.28
790.92	2359.26
791.09	2133.98
791.27	2201.57
791.44	2385.88
791.62	2289.63
791.79	2338.78
791.97	2263.01
792.15	2545.63
792.32	2291.68
792.50	2256.86
792.67	2418.65
792.85	2426.84
793.02	2265.05
793.20	2232.29
793.37	2119.65
793.55	2271.20
793.72	2152.42
793.90	2297.82
794.07	2154.46
794.25	2195.42
794.42	2289.63
794.60	2215.90
794.77	2260.96
794.95	2252.77
795.12	2353.12
795.30	2273.25
795.47	2095.07
795.65	2547.67
795.82	2320.35
796.00	2181.09
796.17	2279.39
796.34	2207.71
796.52	2252.77
796.69	2318.30
796.87	2359.26
797.04	2349.02
797.22	2291.68
797.39	2244.57
797.57	2277.34
797.74	2306.01
797.92	2271.20
798.09	2211.81
798.27	2369.50
798.44	2252.77
798.62	2170.85
798.79	2256.86
798.96	2328.54
799.14	2269.15
799.31	2496.47
799.49	2246.62
799.66	2152.42
799.84	2265.05
800.01	2168.80
800.19	2263.01
800.36	1988.58
800.53	2213.85
800.71	2250.72
800.88	2301.92
801.06	2174.94
801.23	2207.71
801.41	2248.67
801.58	2183.13
801.75	2172.89
801.93	2271.20
802.10	2252.77
802.28	2166.75
802.45	2170.85
802.63	2263.01
802.80	2346.97
802.97	2238.43
803.15	2242.53
803.32	2129.89
803.50	2156.51
803.67	2154.46
803.84	2170.85
804.02	2287.58
804.19	2129.89
804.37	2037.73
804.54	2117.60
804.71	2240.48
804.89	2199.52
805.06	2181.09
805.24	2150.37
805.41	2144.22
805.58	2119.65
805.76	2594.78
805.93	2158.56
806.10	2330.59
806.28	2363.36
806.45	2222.05
806.63	2346.97
806.80	2207.71
806.97	2287.58
807.15	2332.64
807.32	2185.18
807.49	2314.20
807.67	2127.84
807.84	2260.96
808.01	2093.02
808.19	2420.70
808.36	2449.37
808.54	2234.33
808.71	2127.84
808.88	2252.77
809.06	2318.30
809.23	2367.45
809.40	2191.33
809.58	2316.25
809.75	2203.61
809.92	2176.99
810.10	2428.89
810.27	2277.34
810.44	2236.38
810.62	2287.58
810.79	2297.82
810.96	2226.14
811.14	2207.71
811.31	2228.19
811.48	2240.48
811.66	2326.49
811.83	2400.22
812.00	2176.99
812.18	2271.20
812.35	2404.32
812.52	2176.99
812.69	2220.00
812.87	2209.76
813.04	2193.37
813.21	2265.05
813.39	2236.38
813.56	2109.41
813.73	2310.11
813.91	2064.35
814.08	2326.49
814.25	2244.57
814.42	2115.55
814.60	2195.42
814.77	2226.14
814.94	2176.99
815.12	2260.96
815.29	2457.56
815.46	2121.70
815.63	2265.05
815.81	2236.38
815.98	2174.94
816.15	2279.39
816.33	2176.99
816.50	2166.75
816.67	2310.11
816.84	2256.86
817.02	2136.03
817.19	2183.13
817.36	2244.57
817.53	2277.34
817.71	2109.41
817.88	2332.64
818.05	2215.90
818.22	2174.94
818.40	2443.23
818.57	2156.51
818.74	2310.11
818.91	2234.33
819.09	2277.34
819.26	2332.64
819.43	2197.47
819.60	2144.22
819.78	2334.68
819.95	2412.51
820.12	2203.61
820.29	2443.23
820.47	2334.68
820.64	2144.22
820.81	2146.27
820.98	2129.89
821.15	2174.94
821.33	2316.25
821.50	2101.22
821.67	2252.77
821.84	2142.18
822.02	2269.15
822.19	2283.49
822.36	2207.71
822.53	2176.99
822.70	2097.12
822.88	2111.46
823.05	2369.50
823.22	2269.15
823.39	2279.39
823.56	2306.01
823.74	2420.70
823.91	2052.06
824.08	2172.89
824.25	2093.02
824.42	2480.09
824.60	2117.60
824.77	2256.86
824.94	2244.57
825.11	2334.68
825.28	2174.94
825.45	2230.24
825.63	2267.10
825.80	2121.70
825.97	2265.05
826.14	2287.58
826.31	2076.64
826.48	2281.44
826.66	2152.42
826.83	2080.74
827.00	2228.19
827.17	2181.09
827.34	2170.85
827.51	2265.05
827.69	2226.14
827.86	2113.50
828.03	2260.96
828.20	2174.94
828.37	2185.18
828.54	2344.92
828.71	2209.76
828.89	2381.79
829.06	2232.29
829.23	2383.84
829.40	2174.94
829.57	2174.94
829.74	2314.20
829.91	2111.46
830.09	2189.28
830.26	2293.72
830.43	2469.85
830.60	2162.66
830.77	2299.87
830.94	2353.12
831.11	2373.60
831.28	2244.57
831.46	2258.91
831.63	2215.90
831.80	2301.92
831.97	2220.00
832.14	2187.23
832.31	2244.57
832.48	2301.92
832.65	2349.02
832.82	2269.15
832.99	2299.87
833.17	2207.71
833.34	2408.41
833.51	2301.92
833.68	2047.97
833.85	2349.02
834.02	2131.94
834.19	2170.85
834.36	2187.23
834.53	2252.77
834.70	2334.68
834.87	2285.53
835.04	2209.76
835.22	2207.71
835.39	2162.66
835.56	2156.51
835.73	2238.43
835.90	2349.02
836.07	2158.56
836.24	2271.20
836.41	2146.27
836.58	2154.46
836.75	2271.20
836.92	2103.26
837.09	2152.42
837.26	2359.26
837.43	2240.48
837.60	2220.00
837.77	2156.51
837.94	2310.11
838.12	2346.97
838.29	2152.42
838.46	2054.11
838.63	2101.22
838.80	2410.46
838.97	2287.58
839.14	2211.81
839.31	2275.29
839.48	2396.12
839.65	2191.33
839.82	2220.00
839.99	2265.05
840.16	2236.38
840.33	2111.46
840.50	2215.90
840.67	2183.13
840.84	2029.54
841.01	2189.28
841.18	2179.04
841.35	2222.05
841.52	2361.31
841.69	2375.64
841.86	2236.38
842.03	2263.01
842.20	2318.30
842.37	2179.04
842.54	2195.42
842.71	2252.77
842.88	2076.64
843.05	2269.15
843.22	2154.46
843.39	2314.20
843.56	2197.47
843.73	2220.00
843.90	2197.47
844.07	2289.63
844.24	2379.74
844.41	2269.15
844.58	2185.18
844.75	2252.77
844.92	2373.60
845.09	2189.28
845.26	2226.14
845.43	2314.20
845.60	2217.95
845.77	2293.72
845.94	2220.00
846.10	2291.68
846.27	2164.70
846.44	2127.84
846.61	2158.56
846.78	2310.11
846.95	2346.97
847.12	2240.48
847.29	2217.95
847.46	2146.27
847.63	2285.53
847.80	2150.37
847.97	2127.84
848.14	2492.38
848.31	2201.57
848.48	2054.11
848.65	2263.01
848.82	2176.99
848.98	2465.75
849.15	2269.15
849.32	2342.88
849.49	2324.44
849.66	2197.47
849.83	2209.76
850.00	2168.80
850.17	2273.25
850.34	2209.76
850.51	2105.31
850.68	2113.50
850.85	2541.53
851.01	2256.86
851.18	2275.29
851.35	2244.57
851.52	2269.15
851.69	2416.60
851.86	2045.92
852.03	2185.18
852.20	2357.21
852.37	2269.15
852.53	2068.45
852.70	2211.81
852.87	2236.38
853.04	2310.11
853.21	2269.15
853.38	2332.64
853.55	2299.87
853.72	2258.91
853.89	2142.18
854.05	2093.02
854.22	2252.77
854.39	2189.28
854.56	2207.71
854.73	2406.36
854.90	2105.31
855.07	2228.19
855.23	2142.18
855.40	2179.04
855.57	2207.71
855.74	2031.58
855.91	2463.71
856.08	2058.21
856.25	2136.03
856.41	2187.23
856.58	2158.56
856.75	2211.81
856.92	2125.79
857.09	2336.73
857.26	2045.92
857.42	2256.86
857.59	2285.53
857.76	2138.08
857.93	2158.56
858.10	2263.01
858.27	2129.89
858.43	2258.91
858.60	2152.42
858.77	2113.50
858.94	2203.61
859.11	2396.12
859.27	2199.52
859.44	2105.31
859.61	2514.91
859.78	2310.11
859.95	2138.08
860.12	2066.40
860.28	2400.22
860.45	2459.61
860.62	2080.74
860.79	2238.43
860.95	2224.09
861.12	2156.51
861.29	2082.78
861.46	2193.37
861.63	2211.81
861.79	2246.62
861.96	2203.61
862.13	2166.75
862.30	2412.51
862.47	2146.27
862.63	2113.50
862.80	2246.62
862.97	2328.54
863.14	2281.44
863.30	2228.19
863.47	2152.42
863.64	2435.03
863.81	2318.30
863.97	2152.42
864.14	2170.85
864.31	2238.43
864.48	2256.86
864.65	2164.70
864.81	2310.11
864.98	2265.05
865.15	2336.73
865.32	2285.53
865.48	2314.20
865.65	2396.12
865.82	2146.27
865.98	2306.01
866.15	2318.30
866.32	2133.98
866.49	2164.70
866.65	2256.86
866.82	2123.74
866.99	2230.24
867.16	2201.57
867.32	2127.84
867.49	2203.61
867.66	2230.24
867.83	2222.05
867.99	2105.31
868.16	2213.85
868.33	2043.87
868.49	2265.05
868.66	2103.26
868.83	2260.96
868.99	2244.57
869.16	2240.48
869.33	2367.45
869.50	2271.20
869.66	2322.40
869.83	2230.24
870.00	2070.50
870.16	2267.10
870.33	2260.96
870.50	2293.72
870.66	2260.96
870.83	2301.92
871.00	2236.38
871.17	2344.92
871.33	2228.19
871.50	2125.79
871.67	2236.38
871.83	2105.31
872.00	2283.49
872.17	2256.86
872.33	2461.66
872.50	2371.55
872.67	2170.85
872.83	2187.23
873.00	2199.52
873.17	2250.72
873.33	2324.44
873.50	2234.33
873.67	2123.74
873.83	2152.42
874.00	2168.80
874.16	2342.88
874.33	2256.86
874.50	2117.60
874.66	2238.43
874.83	2158.56
875.00	2342.88
875.16	2248.67
875.33	2342.88
875.50	1914.85
875.66	2164.70
875.83	2260.96
875.99	2224.09
876.16	2189.28
876.33	2179.04
876.49	2213.85
876.66	2248.67
876.83	2203.61
876.99	2107.36
877.16	2256.86
877.32	2213.85
877.49	2187.23
877.66	2306.01
877.82	2422.75
877.99	2367.45
878.15	2283.49
878.32	2158.56
878.49	2220.00
878.65	2193.37
878.82	2330.59
878.98	2150.37
879.15	2340.83
879.32	2285.53
879.48	2258.91
879.65	2267.10
879.81	2156.51
879.98	2080.74
880.15	2236.38
880.31	2297.82
880.48	2109.41
880.64	2215.90
880.81	2279.39
880.97	2404.32
881.14	2342.88
881.31	2093.02
881.47	2322.40
881.64	2144.22
881.80	2117.60
881.97	2267.10
882.13	2297.82
882.30	2195.42
882.47	2129.89
882.63	2160.61
882.80	2133.98
882.96	2230.24
883.13	2285.53
883.29	2220.00
883.46	2242.53
883.62	2430.94
883.79	2179.04
883.95	2310.11
884.12	2172.89
884.29	2342.88
884.45	2324.44
884.62	2283.49
884.78	2164.70
884.95	2396.12
885.11	2121.70
885.28	2244.57
885.44	2176.99
885.61	2367.45
885.77	2361.31
885.94	2256.86
886.10	2242.53
886.27	2244.57
886.43	2344.92
886.60	2306.01
886.76	2152.42
886.93	2189.28
887.09	2318.30
887.26	2064.35
887.42	2209.76
887.59	2289.63
887.75	2449.37
887.92	2299.87
888.08	2355.16
888.25	2412.51
888.41	2289.63
888.58	2228.19
888.74	2166.75
888.91	2203.61
>>>>>End Processed Spectral Data<<<<<
