SpectraSuite Data File
++++++++++++++++++++++++++++++++++++
Date: Thu May 05 13:21:06 CEST 2016
User: root
Dark Spectrum Present: No
Reference Spectrum Present: No
Number of Sampled Component Spectra: 1
Spectrometers: USB4C02835
Integration Time (usec): 100000 (USB4C02835)
Spectra Averaged: 1 (USB4C02835)
Boxcar Smoothing: 0 (USB4C02835)
Correct for Electrical Dark: No (USB4C02835)
Strobe/Lamp Enabled: No (USB4C02835)
Correct for Detector Non-linearity: No (USB4C02835)
Correct for Stray Light: No (USB4C02835)
Number of Pixels in Processed Spectrum: 3648
>>>>>Begin Processed Spectral Data<<<<<
177.47	1867.75
177.69	1867.75
177.91	1867.75
178.13	1744.87
178.36	1783.78
178.58	2115.55
178.80	2179.04
179.02	2125.79
179.24	2127.84
179.46	2224.09
179.68	2154.46
179.90	2217.95
180.13	2226.14
180.35	2076.64
180.57	2127.84
180.79	2357.21
181.01	2244.57
181.23	2189.28
181.45	2308.06
181.67	2332.64
181.90	2379.74
182.12	2183.13
182.34	2072.54
182.56	2240.48
182.78	2234.33
183.00	2168.80
183.22	2197.47
183.44	2133.98
183.66	2596.82
183.89	2291.68
184.11	2226.14
184.33	2371.55
184.55	2365.40
184.77	2179.04
184.99	2191.33
185.21	2250.72
185.43	2457.56
185.65	2160.61
185.87	2133.98
186.10	2449.37
186.32	2490.33
186.54	2269.15
186.76	2326.49
186.98	2369.50
187.20	2211.81
187.42	2158.56
187.64	2228.19
187.86	2277.34
188.08	2379.74
188.30	2150.37
188.52	2176.99
188.75	2334.68
188.97	2351.07
189.19	2144.22
189.41	2183.13
189.63	2410.46
189.85	2154.46
190.07	2107.36
190.29	2084.83
190.51	2263.01
190.73	2117.60
190.95	2318.30
191.17	2146.27
191.39	2080.74
191.61	2160.61
191.84	2144.22
192.06	2168.80
192.28	2056.16
192.50	2478.04
192.72	2308.06
192.94	2101.22
193.16	2392.03
193.38	2291.68
193.60	2111.46
193.82	2187.23
194.04	2379.74
194.26	2154.46
194.48	2199.52
194.70	2131.94
194.92	2256.86
195.14	2367.45
195.36	2224.09
195.58	2238.43
195.80	2228.19
196.02	2138.08
196.24	2111.46
196.46	2170.85
196.69	2183.13
196.91	2494.43
197.13	2185.18
197.35	2080.74
197.57	2389.98
197.79	2318.30
198.01	2179.04
198.23	2232.29
198.45	2314.20
198.67	2154.46
198.89	2158.56
199.11	2217.95
199.33	2154.46
199.55	2111.46
199.77	2174.94
199.99	2324.44
200.21	2168.80
200.43	2236.38
200.65	2174.94
200.87	2068.45
201.09	2211.81
201.31	2287.58
201.53	2244.57
201.75	2166.75
201.97	2256.86
202.19	2248.67
202.41	2195.42
202.63	2357.21
202.85	2353.12
203.07	2277.34
203.29	2195.42
203.51	2133.98
203.73	2201.57
203.95	2562.01
204.17	2226.14
204.39	2299.87
204.61	2185.18
204.83	2109.41
205.05	2314.20
205.27	2254.81
205.49	2435.03
205.71	2222.05
205.93	2056.16
206.15	2144.22
206.37	2281.44
206.59	2220.00
206.81	2133.98
207.03	2133.98
207.25	2070.50
207.47	2351.07
207.69	2174.94
207.91	2392.03
208.13	2408.41
208.34	2226.14
208.56	2115.55
208.78	2232.29
209.00	2195.42
209.22	2269.15
209.44	2224.09
209.66	2123.74
209.88	2201.57
210.10	2254.81
210.32	2220.00
210.54	2295.77
210.76	2246.62
210.98	2326.49
211.20	2111.46
211.42	2301.92
211.64	2430.94
211.86	2273.25
212.08	2234.33
212.30	2209.76
212.52	2238.43
212.74	2301.92
212.96	2168.80
213.17	2228.19
213.39	2353.12
213.61	2379.74
213.83	2179.04
214.05	2207.71
214.27	2365.40
214.49	2127.84
214.71	2164.70
214.93	2301.92
215.15	2267.10
215.37	2359.26
215.59	2105.31
215.81	2162.66
216.03	2457.56
216.24	2248.67
216.46	2236.38
216.68	2240.48
216.90	2310.11
217.12	2359.26
217.34	2179.04
217.56	2193.37
217.78	2445.27
218.00	2234.33
218.22	2273.25
218.44	2252.77
218.66	2234.33
218.87	2441.18
219.09	2240.48
219.31	2271.20
219.53	2269.15
219.75	2199.52
219.97	2211.81
220.19	2275.29
220.41	2287.58
220.63	2394.08
220.85	2273.25
221.06	2150.37
221.28	2412.51
221.50	2316.25
221.72	2172.89
221.94	2162.66
222.16	2269.15
222.38	2351.07
222.60	2195.42
222.82	2146.27
223.03	2355.16
223.25	2090.98
223.47	2248.67
223.69	2408.41
223.91	2392.03
224.13	2269.15
224.35	2176.99
224.57	2297.82
224.78	2211.81
225.00	2101.22
225.22	2117.60
225.44	2117.60
225.66	2316.25
225.88	2166.75
226.10	2260.96
226.32	2252.77
226.53	2435.03
226.75	2199.52
226.97	2183.13
227.19	2168.80
227.41	2146.27
227.63	2209.76
227.85	2047.97
228.06	2185.18
228.28	2303.96
228.50	2353.12
228.72	2064.35
228.94	2203.61
229.16	2080.74
229.37	2125.79
229.59	2090.98
229.81	2349.02
230.03	2160.61
230.25	2146.27
230.47	2086.88
230.69	2162.66
230.90	2353.12
231.12	2195.42
231.34	2187.23
231.56	2281.44
231.78	2244.57
232.00	2230.24
232.21	2174.94
232.43	2267.10
232.65	2088.93
232.87	2408.41
233.09	2127.84
233.30	2170.85
233.52	2330.59
233.74	2252.77
233.96	2168.80
234.18	2226.14
234.40	2162.66
234.61	2496.47
234.83	2064.35
235.05	2121.70
235.27	2502.62
235.49	2424.80
235.70	2193.37
235.92	2220.00
236.14	2308.06
236.36	2465.75
236.58	2105.31
236.79	2301.92
237.01	2283.49
237.23	2201.57
237.45	2273.25
237.67	2131.94
237.88	2330.59
238.10	2383.84
238.32	2084.83
238.54	2195.42
238.76	2236.38
238.97	2154.46
239.19	2127.84
239.41	2174.94
239.63	2389.98
239.85	2207.71
240.06	2207.71
240.28	2123.74
240.50	2375.64
240.72	2213.85
240.93	2121.70
241.15	2297.82
241.37	2246.62
241.59	2394.08
241.81	2160.61
242.02	2146.27
242.24	2267.10
242.46	2349.02
242.68	2144.22
242.89	2191.33
243.11	2338.78
243.33	2287.58
243.55	2250.72
243.76	2215.90
243.98	2187.23
244.20	2256.86
244.42	2281.44
244.64	2195.42
244.85	2133.98
245.07	2168.80
245.29	2181.09
245.51	2170.85
245.72	2285.53
245.94	2357.21
246.16	2236.38
246.38	2230.24
246.59	2136.03
246.81	2154.46
247.03	2080.74
247.24	2080.74
247.46	2185.18
247.68	2301.92
247.90	2209.76
248.11	2172.89
248.33	2435.03
248.55	2273.25
248.77	2252.77
248.98	2299.87
249.20	2416.60
249.42	2195.42
249.64	2226.14
249.85	2158.56
250.07	2166.75
250.29	2332.64
250.50	2228.19
250.72	2080.74
250.94	2215.90
251.16	2463.71
251.37	2240.48
251.59	2226.14
251.81	2211.81
252.02	2404.32
252.24	2176.99
252.46	2328.54
252.68	2211.81
252.89	2242.53
253.11	2076.64
253.33	2375.64
253.54	2381.79
253.76	2154.46
253.98	2211.81
254.20	2142.18
254.41	2217.95
254.63	2193.37
254.85	2021.35
255.06	2207.71
255.28	2260.96
255.50	2195.42
255.71	2144.22
255.93	2068.45
256.15	2220.00
256.36	2273.25
256.58	2068.45
256.80	2158.56
257.02	2326.49
257.23	2213.85
257.45	2160.61
257.67	2283.49
257.88	2232.29
258.10	2306.01
258.32	2109.41
258.53	2269.15
258.75	2416.60
258.97	2189.28
259.18	2183.13
259.40	2158.56
259.62	2361.31
259.83	2297.82
260.05	2197.47
260.27	2670.55
260.48	2254.81
260.70	2150.37
260.92	2127.84
261.13	2232.29
261.35	2269.15
261.57	2269.15
261.78	2129.89
262.00	2164.70
262.22	2285.53
262.43	2127.84
262.65	2236.38
262.86	2226.14
263.08	2494.43
263.30	2269.15
263.51	2080.74
263.73	2119.65
263.95	2373.60
264.16	2191.33
264.38	2133.98
264.60	2158.56
264.81	2217.95
265.03	2383.84
265.25	2392.03
265.46	2109.41
265.68	2437.08
265.89	2275.29
266.11	2133.98
266.33	2211.81
266.54	2344.92
266.76	2326.49
266.98	2265.05
267.19	2244.57
267.41	2344.92
267.62	2224.09
267.84	2027.49
268.06	2258.91
268.27	2355.16
268.49	2324.44
268.70	2220.00
268.92	2158.56
269.14	2176.99
269.35	2179.04
269.57	2195.42
269.79	2217.95
270.00	2213.85
270.22	2437.08
270.43	2121.70
270.65	2027.49
270.87	2312.16
271.08	2293.72
271.30	2367.45
271.51	2205.66
271.73	2363.36
271.95	2389.98
272.16	2207.71
272.38	2285.53
272.59	2133.98
272.81	2328.54
273.02	2193.37
273.24	2310.11
273.46	2363.36
273.67	2109.41
273.89	2097.12
274.10	2119.65
274.32	2385.88
274.54	2318.30
274.75	2316.25
274.97	2220.00
275.18	2357.21
275.40	2342.88
275.61	2183.13
275.83	2211.81
276.05	2125.79
276.26	2179.04
276.48	2187.23
276.69	2160.61
276.91	2215.90
277.12	2412.51
277.34	2277.34
277.55	2351.07
277.77	2265.05
277.99	2242.53
278.20	2117.60
278.42	2215.90
278.63	2236.38
278.85	2090.98
279.06	2148.32
279.28	2314.20
279.49	2308.06
279.71	2314.20
279.93	2277.34
280.14	2222.05
280.36	2183.13
280.57	2381.79
280.79	2265.05
281.00	2144.22
281.22	2252.77
281.43	2297.82
281.65	2029.54
281.86	2144.22
282.08	2318.30
282.29	2377.69
282.51	2113.50
282.73	2162.66
282.94	2146.27
283.16	2359.26
283.37	2320.35
283.59	2260.96
283.80	2357.21
284.02	2297.82
284.23	2244.57
284.45	2275.29
284.66	2142.18
284.88	2195.42
285.09	2252.77
285.31	2236.38
285.52	2281.44
285.74	2097.12
285.95	2316.25
286.17	2297.82
286.38	2301.92
286.60	2181.09
286.81	2133.98
287.03	2181.09
287.24	2217.95
287.46	2371.55
287.67	2252.77
287.89	2320.35
288.10	2260.96
288.32	2289.63
288.53	2336.73
288.75	2283.49
288.96	2275.29
289.18	2113.50
289.39	2205.66
289.61	2318.30
289.82	2439.13
290.04	2404.32
290.25	2152.42
290.47	2306.01
290.68	2271.20
290.90	2349.02
291.11	2142.18
291.33	2303.96
291.54	2176.99
291.76	2199.52
291.97	2195.42
292.18	2297.82
292.40	2238.43
292.61	2160.61
292.83	2519.00
293.04	2248.67
293.26	2277.34
293.47	2215.90
293.69	2209.76
293.90	2267.10
294.12	2314.20
294.33	2252.77
294.55	2201.57
294.76	2375.64
294.97	2406.36
295.19	2512.86
295.40	2267.10
295.62	2287.58
295.83	2236.38
296.05	2138.08
296.26	2318.30
296.48	2125.79
296.69	2199.52
296.90	2269.15
297.12	2265.05
297.33	2320.35
297.55	2258.91
297.76	2273.25
297.98	2365.40
298.19	2232.29
298.41	2299.87
298.62	2181.09
298.83	2424.80
299.05	2222.05
299.26	2183.13
299.48	2062.30
299.69	2263.01
299.90	2314.20
300.12	2203.61
300.33	2291.68
300.55	2330.59
300.76	2258.91
300.98	2123.74
301.19	2357.21
301.40	2166.75
301.62	2181.09
301.83	2328.54
302.05	2328.54
302.26	2217.95
302.47	2271.20
302.69	2125.79
302.90	2297.82
303.12	2025.44
303.33	2263.01
303.54	2412.51
303.76	2220.00
303.97	2166.75
304.19	2392.03
304.40	2105.31
304.61	2373.60
304.83	2392.03
305.04	2269.15
305.26	2344.92
305.47	2220.00
305.68	2211.81
305.90	2109.41
306.11	2385.88
306.33	2224.09
306.54	2125.79
306.75	2179.04
306.97	2101.22
307.18	2121.70
307.39	2144.22
307.61	2220.00
307.82	2211.81
308.04	2324.44
308.25	2131.94
308.46	2277.34
308.68	2240.48
308.89	2303.96
309.10	2404.32
309.32	2234.33
309.53	2244.57
309.74	2299.87
309.96	2170.85
310.17	2338.78
310.39	2220.00
310.60	2332.64
310.81	2222.05
311.03	2140.13
311.24	2355.16
311.45	2277.34
311.67	2334.68
311.88	2242.53
312.09	2199.52
312.31	2197.47
312.52	2236.38
312.73	2197.47
312.95	2181.09
313.16	2138.08
313.37	2330.59
313.59	2254.81
313.80	2338.78
314.01	2451.42
314.23	2181.09
314.44	2195.42
314.65	2109.41
314.87	2154.46
315.08	2226.14
315.29	2250.72
315.51	2119.65
315.72	2170.85
315.93	2408.41
316.15	2285.53
316.36	2152.42
316.57	2256.86
316.79	2269.15
317.00	2168.80
317.21	2320.35
317.43	2138.08
317.64	2234.33
317.85	2232.29
318.07	2193.37
318.28	2269.15
318.49	2320.35
318.70	2469.85
318.92	2435.03
319.13	2459.61
319.34	2424.80
319.56	2271.20
319.77	2408.41
319.98	2406.36
320.20	2330.59
320.41	2224.09
320.62	2394.08
320.83	2172.89
321.05	2463.71
321.26	2226.14
321.47	2168.80
321.69	2320.35
321.90	2109.41
322.11	2136.03
322.32	2349.02
322.54	2392.03
322.75	2195.42
322.96	2541.53
323.18	2154.46
323.39	2101.22
323.60	2191.33
323.81	2283.49
324.03	2152.42
324.24	2314.20
324.45	2330.59
324.66	2150.37
324.88	2308.06
325.09	2385.88
325.30	2183.13
325.52	2197.47
325.73	2285.53
325.94	2203.61
326.15	2084.83
326.37	2168.80
326.58	2373.60
326.79	2420.70
327.00	2211.81
327.22	2220.00
327.43	2201.57
327.64	2138.08
327.85	2265.05
328.07	2244.57
328.28	2414.56
328.49	2244.57
328.70	2199.52
328.92	2203.61
329.13	2101.22
329.34	2326.49
329.55	2318.30
329.76	2244.57
329.98	2183.13
330.19	2367.45
330.40	2228.19
330.61	2289.63
330.83	2371.55
331.04	2207.71
331.25	2303.96
331.46	2203.61
331.68	2125.79
331.89	2387.93
332.10	2265.05
332.31	2168.80
332.52	2228.19
332.74	2353.12
332.95	2140.13
333.16	2226.14
333.37	2371.55
333.58	2242.53
333.80	2185.18
334.01	2111.46
334.22	2209.76
334.43	2211.81
334.64	2168.80
334.86	2045.92
335.07	2162.66
335.28	2351.07
335.49	2099.17
335.70	2293.72
335.92	2408.41
336.13	2502.62
336.34	2244.57
336.55	2234.33
336.76	2359.26
336.98	2099.17
337.19	2244.57
337.40	2412.51
337.61	2494.43
337.82	2211.81
338.04	2293.72
338.25	2117.60
338.46	2179.04
338.67	2228.19
338.88	2144.22
339.09	2156.51
339.31	2201.57
339.52	2142.18
339.73	2176.99
339.94	2287.58
340.15	2314.20
340.36	2133.98
340.58	2295.77
340.79	2162.66
341.00	2324.44
341.21	2125.79
341.42	2398.17
341.63	2207.71
341.85	2281.44
342.06	2308.06
342.27	2158.56
342.48	2287.58
342.69	2168.80
342.90	2324.44
343.12	2383.84
343.33	2162.66
343.54	2324.44
343.75	2353.12
343.96	2234.33
344.17	2156.51
344.38	2310.11
344.60	2185.18
344.81	2121.70
345.02	2195.42
345.23	2334.68
345.44	2490.33
345.65	2269.15
345.86	2263.01
346.07	2324.44
346.29	2195.42
346.50	2330.59
346.71	2240.48
346.92	2326.49
347.13	2494.43
347.34	2207.71
347.55	2226.14
347.76	2340.83
347.98	2107.36
348.19	2191.33
348.40	2320.35
348.61	2144.22
348.82	2451.42
349.03	2342.88
349.24	2152.42
349.45	2457.56
349.66	2119.65
349.88	2283.49
350.09	2166.75
350.30	2338.78
350.51	2371.55
350.72	2209.76
350.93	2277.34
351.14	2222.05
351.35	2256.86
351.56	2209.76
351.77	2250.72
351.99	2277.34
352.20	2381.79
352.41	2330.59
352.62	2109.41
352.83	2281.44
353.04	2220.00
353.25	2179.04
353.46	2312.16
353.67	2332.64
353.88	2090.98
354.09	2195.42
354.30	2195.42
354.52	2326.49
354.73	2285.53
354.94	2164.70
355.15	2224.09
355.36	2422.75
355.57	2170.85
355.78	2248.67
355.99	2129.89
356.20	2211.81
356.41	2318.30
356.62	2256.86
356.83	2213.85
357.04	2422.75
357.25	2144.22
357.46	2166.75
357.68	2062.30
357.89	2158.56
358.10	2226.14
358.31	2138.08
358.52	2189.28
358.73	2193.37
358.94	2176.99
359.15	2205.66
359.36	2285.53
359.57	2176.99
359.78	2291.68
359.99	2334.68
360.20	2156.51
360.41	2203.61
360.62	2303.96
360.83	2263.01
361.04	2277.34
361.25	2258.91
361.46	2392.03
361.67	2310.11
361.88	2269.15
362.09	2371.55
362.30	2277.34
362.51	2176.99
362.72	2240.48
362.93	2297.82
363.14	2201.57
363.35	2252.77
363.56	2201.57
363.78	2392.03
363.99	2330.59
364.20	2158.56
364.41	2248.67
364.62	2428.89
364.83	2295.77
365.04	2248.67
365.25	2215.90
365.46	2510.81
365.67	2199.52
365.88	2250.72
366.09	2189.28
366.30	2228.19
366.51	2263.01
366.72	2236.38
366.93	2281.44
367.14	2299.87
367.35	2449.37
367.56	2250.72
367.77	2326.49
367.98	2193.37
368.18	2213.85
368.39	2201.57
368.60	2166.75
368.81	2400.22
369.02	2277.34
369.23	2168.80
369.44	2166.75
369.65	2187.23
369.86	2228.19
370.07	2275.29
370.28	2099.17
370.49	2324.44
370.70	2234.33
370.91	2209.76
371.12	2115.55
371.33	2365.40
371.54	2220.00
371.75	2379.74
371.96	2062.30
372.17	2236.38
372.38	2265.05
372.59	2287.58
372.80	2129.89
373.01	2213.85
373.22	2207.71
373.43	2248.67
373.64	2129.89
373.85	2443.23
374.06	2414.56
374.26	2344.92
374.47	2217.95
374.68	2385.88
374.89	2277.34
375.10	2244.57
375.31	2297.82
375.52	2244.57
375.73	2185.18
375.94	2062.30
376.15	2359.26
376.36	2224.09
376.57	2246.62
376.78	2220.00
376.99	2240.48
377.20	2359.26
377.40	2217.95
377.61	2455.51
377.82	2090.98
378.03	2428.89
378.24	2269.15
378.45	2146.27
378.66	2228.19
378.87	2037.73
379.08	2144.22
379.29	2179.04
379.50	2383.84
379.71	2226.14
379.91	2338.78
380.12	2234.33
380.33	2211.81
380.54	2213.85
380.75	2222.05
380.96	2254.81
381.17	2256.86
381.38	2236.38
381.59	2285.53
381.80	2269.15
382.00	2441.18
382.21	2250.72
382.42	2469.85
382.63	2475.99
382.84	2363.36
383.05	2381.79
383.26	2453.47
383.47	2289.63
383.68	2242.53
383.88	2342.88
384.09	2242.53
384.30	2441.18
384.51	2332.64
384.72	2269.15
384.93	2103.26
385.14	2265.05
385.35	2349.02
385.55	2158.56
385.76	2371.55
385.97	2287.58
386.18	2093.02
386.39	2224.09
386.60	2211.81
386.81	2154.46
387.02	2179.04
387.22	2203.61
387.43	2265.05
387.64	2328.54
387.85	2529.24
388.06	2529.24
388.27	3928.00
388.48	8202.11
388.68	11898.70
388.89	13948.72
389.10	15216.41
389.31	13860.65
389.52	10932.06
389.73	9639.79
389.93	8728.44
390.14	7915.40
390.35	7149.46
390.56	6328.22
390.77	5154.74
390.98	4046.79
391.18	3280.85
391.39	2775.00
391.60	2447.32
391.81	2408.41
392.02	2217.95
392.23	2494.43
392.43	2269.15
392.64	2406.36
392.85	2289.63
393.06	2383.84
393.27	2258.91
393.47	2191.33
393.68	2252.77
393.89	2207.71
394.10	2410.46
394.31	2181.09
394.52	2113.50
394.72	2205.66
394.93	2320.35
395.14	2131.94
395.35	2297.82
395.56	2195.42
395.76	2244.57
395.97	2265.05
396.18	2344.92
396.39	2346.97
396.60	2746.33
396.80	2490.33
397.01	2439.13
397.22	2451.42
397.43	2340.83
397.64	2211.81
397.84	2293.72
398.05	2449.37
398.26	2252.77
398.47	2297.82
398.67	2445.27
398.88	2211.81
399.09	2324.44
399.30	2125.79
399.51	2385.88
399.71	2232.29
399.92	2136.03
400.13	2326.49
400.34	2318.30
400.54	2260.96
400.75	2387.93
400.96	2293.72
401.17	2418.65
401.37	2353.12
401.58	2220.00
401.79	2226.14
402.00	2412.51
402.21	2695.13
402.41	2557.91
402.62	2643.93
402.83	2684.89
403.04	2740.18
403.24	2875.35
403.45	2318.30
403.66	2514.91
403.87	2422.75
404.07	2535.39
404.28	2535.39
404.49	2592.73
404.70	2375.64
404.90	2283.49
405.11	2289.63
405.32	2260.96
405.52	2197.47
405.73	2191.33
405.94	2146.27
406.15	2254.81
406.35	2365.40
406.56	2256.86
406.77	2299.87
406.98	2324.44
407.18	2193.37
407.39	2426.84
407.60	2179.04
407.80	2283.49
408.01	2260.96
408.22	2205.66
408.43	2201.57
408.63	2269.15
408.84	2387.93
409.05	2289.63
409.25	2164.70
409.46	2090.98
409.67	2228.19
409.88	2189.28
410.08	2244.57
410.29	2129.89
410.50	2297.82
410.70	2340.83
410.91	2203.61
411.12	2236.38
411.32	2267.10
411.53	2185.18
411.74	2377.69
411.95	2340.83
412.15	2291.68
412.36	2420.70
412.57	2392.03
412.77	2430.94
412.98	2330.59
413.19	2238.43
413.39	2314.20
413.60	2269.15
413.81	2394.08
414.01	2127.84
414.22	2301.92
414.43	2312.16
414.63	2256.86
414.84	2340.83
415.05	2238.43
415.25	2064.35
415.46	2334.68
415.67	2215.90
415.87	2228.19
416.08	2191.33
416.29	2166.75
416.49	2267.10
416.70	2176.99
416.91	2170.85
417.11	2283.49
417.32	2389.98
417.53	2389.98
417.73	2363.36
417.94	2226.14
418.15	2281.44
418.35	2215.90
418.56	2234.33
418.77	2469.85
418.97	2277.34
419.18	2224.09
419.38	2023.39
419.59	2197.47
419.80	2412.51
420.00	2179.04
420.21	2199.52
420.42	2408.41
420.62	2340.83
420.83	2287.58
421.04	2267.10
421.24	2240.48
421.45	2314.20
421.65	2250.72
421.86	2260.96
422.07	2357.21
422.27	2342.88
422.48	2248.67
422.69	2138.08
422.89	2193.37
423.10	2236.38
423.30	2193.37
423.51	2222.05
423.72	2265.05
423.92	2353.12
424.13	2142.18
424.33	2299.87
424.54	2297.82
424.75	2318.30
424.95	2514.91
425.16	2293.72
425.36	2176.99
425.57	2381.79
425.78	2316.25
425.98	2310.11
426.19	2232.29
426.39	2121.70
426.60	2211.81
426.81	2355.16
427.01	2359.26
427.22	2228.19
427.42	2064.35
427.63	2133.98
427.83	2375.64
428.04	2400.22
428.25	2332.64
428.45	2353.12
428.66	2373.60
428.86	2195.42
429.07	2277.34
429.28	2258.91
429.48	2293.72
429.69	2176.99
429.89	2199.52
430.10	2185.18
430.30	2326.49
430.51	2435.03
430.71	2158.56
430.92	2283.49
431.13	2162.66
431.33	2342.88
431.54	2318.30
431.74	2342.88
431.95	2463.71
432.15	2220.00
432.36	2238.43
432.56	2226.14
432.77	2512.86
432.98	2420.70
433.18	2297.82
433.39	2217.95
433.59	2269.15
433.80	2449.37
434.00	2492.38
434.21	2301.92
434.41	2125.79
434.62	2533.34
434.82	2172.89
435.03	2133.98
435.23	2338.78
435.44	2109.41
435.64	2217.95
435.85	2197.47
436.06	2367.45
436.26	2340.83
436.47	2242.53
436.67	2215.90
436.88	2154.46
437.08	2297.82
437.29	2392.03
437.49	2293.72
437.70	2318.30
437.90	2263.01
438.11	2355.16
438.31	2310.11
438.52	2512.86
438.72	2510.81
438.93	2416.60
439.13	2375.64
439.34	2365.40
439.54	2330.59
439.75	2373.60
439.95	2242.53
440.16	2215.90
440.36	2361.31
440.57	2220.00
440.77	2269.15
440.98	2242.53
441.18	2299.87
441.39	2275.29
441.59	2172.89
441.80	2473.95
442.00	2246.62
442.21	2340.83
442.41	2166.75
442.62	2400.22
442.82	2152.42
443.02	2283.49
443.23	2297.82
443.43	2252.77
443.64	2346.97
443.84	2113.50
444.05	2404.32
444.25	2285.53
444.46	2209.76
444.66	2324.44
444.87	2420.70
445.07	2195.42
445.28	2308.06
445.48	2445.27
445.69	2252.77
445.89	2432.99
446.09	2271.20
446.30	2539.48
446.50	2877.40
446.71	4462.52
446.91	5484.46
447.12	6430.62
447.32	6692.76
447.53	6270.88
447.73	5146.55
447.93	4626.36
448.14	4143.04
448.34	4151.23
448.55	3571.66
448.75	3590.09
448.96	3413.96
449.16	3092.43
449.36	2873.30
449.57	2598.87
449.77	2385.88
449.98	2301.92
450.18	2349.02
450.39	2349.02
450.59	2252.77
450.79	2230.24
451.00	2217.95
451.20	2342.88
451.41	2232.29
451.61	2277.34
451.81	2213.85
452.02	2228.19
452.22	2203.61
452.43	2228.19
452.63	2162.66
452.84	2254.81
453.04	2168.80
453.24	2275.29
453.45	2248.67
453.65	2250.72
453.86	2265.05
454.06	2301.92
454.26	2232.29
454.47	2187.23
454.67	2306.01
454.87	2340.83
455.08	2203.61
455.28	2379.74
455.49	2324.44
455.69	2244.57
455.89	2465.75
456.10	2379.74
456.30	2201.57
456.51	2293.72
456.71	2338.78
456.91	2271.20
457.12	2334.68
457.32	2297.82
457.52	2088.93
457.73	2297.82
457.93	2289.63
458.14	2215.90
458.34	2107.36
458.54	2195.42
458.75	2144.22
458.95	2432.99
459.15	2392.03
459.36	2217.95
459.56	2342.88
459.76	2490.33
459.97	2312.16
460.17	2207.71
460.37	2385.88
460.58	2308.06
460.78	2359.26
460.99	2172.89
461.19	2265.05
461.39	2154.46
461.60	2252.77
461.80	2357.21
462.00	2158.56
462.21	2246.62
462.41	2256.86
462.61	2131.94
462.82	2084.83
463.02	2283.49
463.22	2277.34
463.43	2287.58
463.63	2326.49
463.83	2383.84
464.04	2367.45
464.24	2277.34
464.44	2166.75
464.64	2322.40
464.85	2330.59
465.05	2383.84
465.25	2293.72
465.46	2236.38
465.66	2365.40
465.86	2293.72
466.07	2279.39
466.27	2230.24
466.47	2127.84
466.68	2062.30
466.88	2383.84
467.08	2250.72
467.29	2357.21
467.49	2332.64
467.69	2310.11
467.89	2349.02
468.10	2256.86
468.30	2299.87
468.50	2396.12
468.71	2447.32
468.91	2150.37
469.11	2432.99
469.31	2256.86
469.52	2158.56
469.72	2441.18
469.92	2414.56
470.13	2209.76
470.33	2330.59
470.53	2392.03
470.73	2643.93
470.94	3000.27
471.14	3260.37
471.34	3567.56
471.54	3352.52
471.75	3170.26
471.95	2871.25
472.15	2775.00
472.36	2777.05
472.56	2719.70
472.76	2717.65
472.96	2582.49
473.17	2529.24
473.37	2467.80
473.57	2326.49
473.77	2355.16
473.98	2265.05
474.18	2138.08
474.38	2508.76
474.58	2199.52
474.79	2195.42
474.99	2318.30
475.19	2332.64
475.39	2146.27
475.60	2359.26
475.80	2269.15
476.00	2252.77
476.20	2277.34
476.41	2308.06
476.61	2338.78
476.81	2334.68
477.01	2244.57
477.21	2424.80
477.42	2328.54
477.62	2133.98
477.82	2418.65
478.02	2293.72
478.23	2295.77
478.43	2170.85
478.63	2195.42
478.83	2308.06
479.03	2244.57
479.24	2383.84
479.44	2498.52
479.64	2150.37
479.84	2045.92
480.04	2093.02
480.25	2332.64
480.45	2117.60
480.65	2226.14
480.85	2346.97
481.06	2254.81
481.26	2297.82
481.46	2281.44
481.66	2357.21
481.86	2228.19
482.06	2389.98
482.27	2232.29
482.47	2244.57
482.67	2349.02
482.87	2211.81
483.07	2359.26
483.28	2236.38
483.48	2041.82
483.68	2215.90
483.88	2160.61
484.08	2078.69
484.29	2228.19
484.49	2267.10
484.69	2097.12
484.89	2387.93
485.09	2420.70
485.29	2244.57
485.50	2287.58
485.70	2283.49
485.90	2385.88
486.10	2375.64
486.30	2244.57
486.50	2385.88
486.71	2236.38
486.91	2357.21
487.11	2281.44
487.31	2142.18
487.51	2334.68
487.71	2211.81
487.91	2148.32
488.12	2115.55
488.32	2076.64
488.52	2183.13
488.72	2033.63
488.92	2342.88
489.12	2416.60
489.32	2375.64
489.53	2328.54
489.73	2129.89
489.93	2373.60
490.13	2217.95
490.33	2095.07
490.53	2322.40
490.73	2387.93
490.94	2097.12
491.14	2355.16
491.34	2338.78
491.54	2588.63
491.74	3243.98
491.94	3758.02
492.14	4106.18
492.34	4116.42
492.54	3833.80
492.75	3166.16
492.95	3186.64
493.15	2971.60
493.35	2938.84
493.55	2813.91
493.75	2756.57
493.95	2752.47
494.15	2605.02
494.35	2371.55
494.56	2357.21
494.76	2242.53
494.96	2406.36
495.16	2308.06
495.36	2148.32
495.56	2267.10
495.76	2299.87
495.96	2275.29
496.16	2146.27
496.36	2439.13
496.56	2248.67
496.77	2291.68
496.97	2308.06
497.17	2353.12
497.37	2162.66
497.57	2310.11
497.77	2234.33
497.97	2242.53
498.17	2185.18
498.37	2146.27
498.57	2336.73
498.77	2185.18
498.97	2318.30
499.17	2432.99
499.38	2244.57
499.58	2351.07
499.78	2430.94
499.98	2324.44
500.18	2258.91
500.38	2326.49
500.58	2422.75
500.78	2891.73
500.98	5111.73
501.18	7245.71
501.38	8626.04
501.58	9803.63
501.78	9469.81
501.98	7591.82
502.18	6281.12
502.38	5482.41
502.58	5195.70
502.78	4640.70
502.98	4489.15
503.18	4335.55
503.38	3891.14
503.59	3377.10
503.79	3327.95
503.99	3002.32
504.19	2789.33
504.39	2777.05
504.59	2752.47
504.79	2791.38
504.99	2836.44
505.19	2699.22
505.39	2490.33
505.59	2578.39
505.79	2539.48
505.99	2408.41
506.19	2394.08
506.39	2484.19
506.59	2240.48
506.79	2326.49
506.99	2330.59
507.19	2281.44
507.39	2306.01
507.59	2123.74
507.79	2209.76
507.99	2226.14
508.19	2244.57
508.39	2256.86
508.59	2308.06
508.79	2377.69
508.99	2521.05
509.19	2228.19
509.39	2375.64
509.59	2232.29
509.79	2273.25
509.99	2301.92
510.19	2312.16
510.39	2230.24
510.59	2349.02
510.79	2254.81
510.99	2211.81
511.19	2215.90
511.39	2453.47
511.59	2359.26
511.79	2351.07
511.99	2330.59
512.19	2404.32
512.38	2236.38
512.58	2252.77
512.78	2258.91
512.98	2426.84
513.18	2432.99
513.38	2170.85
513.58	2281.44
513.78	2166.75
513.98	2275.29
514.18	2250.72
514.38	2248.67
514.58	2269.15
514.78	2166.75
514.98	2232.29
515.18	2256.86
515.38	2119.65
515.58	2428.89
515.78	2283.49
515.98	2310.11
516.18	2367.45
516.38	2256.86
516.57	2289.63
516.77	2201.57
516.97	2258.91
517.17	2215.90
517.37	2111.46
517.57	2277.34
517.77	2256.86
517.97	2248.67
518.17	2265.05
518.37	2191.33
518.57	2133.98
518.77	2254.81
518.97	2226.14
519.16	2256.86
519.36	2408.41
519.56	2207.71
519.76	2258.91
519.96	2273.25
520.16	2402.27
520.36	2121.70
520.56	2418.65
520.76	2228.19
520.96	2224.09
521.16	2357.21
521.35	2414.56
521.55	2432.99
521.75	2277.34
521.95	2170.85
522.15	2170.85
522.35	2097.12
522.55	2215.90
522.75	2377.69
522.95	2209.76
523.14	2156.51
523.34	2367.45
523.54	2263.01
523.74	2400.22
523.94	2289.63
524.14	2166.75
524.34	2310.11
524.54	2392.03
524.73	2252.77
524.93	2334.68
525.13	2258.91
525.33	2117.60
525.53	2498.52
525.73	2340.83
525.93	2271.20
526.13	2195.42
526.32	2195.42
526.52	2359.26
526.72	2346.97
526.92	2201.57
527.12	2252.77
527.32	2154.46
527.52	2371.55
527.71	2314.20
527.91	2195.42
528.11	2228.19
528.31	2289.63
528.51	2250.72
528.71	2260.96
528.90	2379.74
529.10	2297.82
529.30	2332.64
529.50	2000.87
529.70	2256.86
529.90	2273.25
530.09	2353.12
530.29	2179.04
530.49	2230.24
530.69	2553.82
530.89	2240.48
531.09	2334.68
531.28	2168.80
531.48	2322.40
531.68	2320.35
531.88	2367.45
532.08	2275.29
532.28	2256.86
532.47	2283.49
532.67	2357.21
532.87	2342.88
533.07	2213.85
533.27	2396.12
533.46	2297.82
533.66	2349.02
533.86	2252.77
534.06	2322.40
534.26	2310.11
534.45	2252.77
534.65	2392.03
534.85	2322.40
535.05	2211.81
535.25	2318.30
535.44	2168.80
535.64	2334.68
535.84	2238.43
536.04	2228.19
536.24	2240.48
536.43	2220.00
536.63	2297.82
536.83	2211.81
537.03	2281.44
537.22	2103.26
537.42	2129.89
537.62	2344.92
537.82	2273.25
538.02	2334.68
538.21	2375.64
538.41	2574.30
538.61	2346.97
538.81	2179.04
539.00	2330.59
539.20	2078.69
539.40	2162.66
539.60	2297.82
539.79	2377.69
539.99	2207.71
540.19	2162.66
540.39	2187.23
540.58	2301.92
540.78	2322.40
540.98	2297.82
541.18	2404.32
541.37	2289.63
541.57	2195.42
541.77	2260.96
541.97	2201.57
542.16	2138.08
542.36	2260.96
542.56	2181.09
542.76	2432.99
542.95	2273.25
543.15	2326.49
543.35	2312.16
543.54	2156.51
543.74	2154.46
543.94	2377.69
544.14	2181.09
544.33	2324.44
544.53	2265.05
544.73	2250.72
544.93	2252.77
545.12	2285.53
545.32	2252.77
545.52	2232.29
545.71	2176.99
545.91	2291.68
546.11	2265.05
546.30	2129.89
546.50	2324.44
546.70	2213.85
546.90	2242.53
547.09	2068.45
547.29	2322.40
547.49	2365.40
547.68	2265.05
547.88	2191.33
548.08	2412.51
548.27	2711.51
548.47	2181.09
548.67	2213.85
548.87	2326.49
549.06	2191.33
549.26	2234.33
549.46	2242.53
549.65	2246.62
549.85	2211.81
550.05	2248.67
550.24	2193.37
550.44	2314.20
550.64	2281.44
550.83	2258.91
551.03	2342.88
551.23	2326.49
551.42	2330.59
551.62	2174.94
551.82	2299.87
552.01	2263.01
552.21	2414.56
552.41	2213.85
552.60	2416.60
552.80	2252.77
553.00	2195.42
553.19	2228.19
553.39	2492.38
553.59	2150.37
553.78	2375.64
553.98	2271.20
554.17	2133.98
554.37	2371.55
554.57	2349.02
554.76	2142.18
554.96	2215.90
555.16	2248.67
555.35	2279.39
555.55	2359.26
555.75	2297.82
555.94	2346.97
556.14	2140.13
556.33	2291.68
556.53	2211.81
556.73	2195.42
556.92	2316.25
557.12	2355.16
557.32	2473.95
557.51	2293.72
557.71	2346.97
557.90	2365.40
558.10	2412.51
558.30	2312.16
558.49	2228.19
558.69	2318.30
558.88	2334.68
559.08	2293.72
559.28	2269.15
559.47	2320.35
559.67	2310.11
559.86	2543.58
560.06	2195.42
560.26	2228.19
560.45	2265.05
560.65	2228.19
560.84	2392.03
561.04	2220.00
561.24	2324.44
561.43	2127.84
561.63	2402.27
561.82	2359.26
562.02	2201.57
562.22	2168.80
562.41	2082.78
562.61	2209.76
562.80	2179.04
563.00	2553.82
563.19	2242.53
563.39	2346.97
563.59	2342.88
563.78	2129.89
563.98	2066.40
564.17	2213.85
564.37	2025.44
564.56	2320.35
564.76	2224.09
564.96	2379.74
565.15	2197.47
565.35	2435.03
565.54	2201.57
565.74	2295.77
565.93	2336.73
566.13	2314.20
566.32	2361.31
566.52	2285.53
566.71	2252.77
566.91	2453.47
567.11	2322.40
567.30	2260.96
567.50	2263.01
567.69	2357.21
567.89	2242.53
568.08	2203.61
568.28	2244.57
568.47	2125.79
568.67	2369.50
568.86	2179.04
569.06	2342.88
569.25	2281.44
569.45	2207.71
569.64	2242.53
569.84	2174.94
570.04	2299.87
570.23	2228.19
570.43	2279.39
570.62	2260.96
570.82	2445.27
571.01	2150.37
571.21	2158.56
571.40	2193.37
571.60	2357.21
571.79	2316.25
571.99	2328.54
572.18	2138.08
572.38	2275.29
572.57	2220.00
572.77	2246.62
572.96	2627.54
573.16	2306.01
573.35	2205.66
573.55	2324.44
573.74	2303.96
573.94	2260.96
574.13	2326.49
574.33	2400.22
574.52	2416.60
574.71	2299.87
574.91	2365.40
575.10	2119.65
575.30	2199.52
575.49	2236.38
575.69	2158.56
575.88	2355.16
576.08	2285.53
576.27	2318.30
576.47	2314.20
576.66	2449.37
576.86	2457.56
577.05	2293.72
577.25	2398.17
577.44	2475.99
577.64	2318.30
577.83	2422.75
578.02	2273.25
578.22	2330.59
578.41	2439.13
578.61	2203.61
578.80	2183.13
579.00	2254.81
579.19	2303.96
579.39	2273.25
579.58	2357.21
579.77	2224.09
579.97	2435.03
580.16	2467.80
580.36	2396.12
580.55	2361.31
580.75	2283.49
580.94	2281.44
581.13	2432.99
581.33	2400.22
581.52	2334.68
581.72	2588.63
581.91	2414.56
582.11	2273.25
582.30	2375.64
582.49	2351.07
582.69	2377.69
582.88	2338.78
583.08	2293.72
583.27	2387.93
583.47	2308.06
583.66	2308.06
583.85	2164.70
584.05	2355.16
584.24	2367.45
584.44	2291.68
584.63	2404.32
584.82	2465.75
585.02	2473.95
585.21	2430.94
585.41	2387.93
585.60	2441.18
585.79	2504.67
585.99	2490.33
586.18	2447.32
586.37	2947.03
586.57	4589.50
586.76	14153.51
586.96	33285.64
587.15	47101.23
587.34	56710.30
587.54	61451.35
587.73	56372.39
587.93	40005.02
588.12	30225.97
588.31	24088.21
588.51	21262.01
588.70	19365.59
588.89	17366.78
589.09	15589.14
589.28	12801.85
589.47	10762.08
589.67	8245.12
589.86	6356.90
590.06	4710.33
590.25	3753.93
590.44	3190.74
590.64	2793.43
590.83	2494.43
591.02	2564.06
591.22	2453.47
591.41	2365.40
591.60	2342.88
591.80	2588.63
591.99	2220.00
592.18	2289.63
592.38	2361.31
592.57	2236.38
592.76	2293.72
592.96	2351.07
593.15	2213.85
593.34	2418.65
593.54	2213.85
593.73	2420.70
593.92	2381.79
594.12	2410.46
594.31	2328.54
594.50	2443.23
594.70	2355.16
594.89	2600.92
595.08	2193.37
595.28	2326.49
595.47	2590.68
595.66	2408.41
595.86	2189.28
596.05	2346.97
596.24	2287.58
596.43	2506.71
596.63	2463.71
596.82	2359.26
597.01	2389.98
597.21	2461.66
597.40	2301.92
597.59	2357.21
597.79	2306.01
597.98	2383.84
598.17	2394.08
598.36	2318.30
598.56	2377.69
598.75	2285.53
598.94	2295.77
599.14	2285.53
599.33	2242.53
599.52	2285.53
599.71	2267.10
599.91	2396.12
600.10	2373.60
600.29	2297.82
600.48	2387.93
600.68	2351.07
600.87	2242.53
601.06	2224.09
601.26	2303.96
601.45	2242.53
601.64	2269.15
601.83	2457.56
602.03	2195.42
602.22	2125.79
602.41	2301.92
602.60	2482.14
602.80	2363.36
602.99	2328.54
603.18	2217.95
603.37	2224.09
603.57	2293.72
603.76	2367.45
603.95	2392.03
604.14	2193.37
604.34	2234.33
604.53	2258.91
604.72	2275.29
604.91	2359.26
605.10	2322.40
605.30	2154.46
605.49	2473.95
605.68	2398.17
605.87	2258.91
606.07	2207.71
606.26	2365.40
606.45	2314.20
606.64	2289.63
606.84	2289.63
607.03	2297.82
607.22	2490.33
607.41	2258.91
607.60	2291.68
607.80	2375.64
607.99	2297.82
608.18	2273.25
608.37	2291.68
608.56	2236.38
608.76	2379.74
608.95	2455.51
609.14	2396.12
609.33	2422.75
609.52	2519.00
609.72	2336.73
609.91	2469.85
610.10	2273.25
610.29	2445.27
610.48	2330.59
610.68	2308.06
610.87	2248.67
611.06	2396.12
611.25	2236.38
611.44	2324.44
611.63	2199.52
611.83	2398.17
612.02	2142.18
612.21	2437.08
612.40	2105.31
612.59	2138.08
612.79	2129.89
612.98	2295.77
613.17	2430.94
613.36	2228.19
613.55	2467.80
613.74	2392.03
613.93	2379.74
614.13	2461.66
614.32	2502.62
614.51	2400.22
614.70	2342.88
614.89	2340.83
615.08	2379.74
615.28	2793.43
615.47	2170.85
615.66	2377.69
615.85	2308.06
616.04	2445.27
616.23	2283.49
616.42	2291.68
616.62	2363.36
616.81	2346.97
617.00	2330.59
617.19	2383.84
617.38	2181.09
617.57	2324.44
617.76	2375.64
617.95	2414.56
618.15	2361.31
618.34	2412.51
618.53	2150.37
618.72	2334.68
618.91	2383.84
619.10	2340.83
619.29	2183.13
619.48	2306.01
619.68	2242.53
619.87	2236.38
620.06	2136.03
620.25	2320.35
620.44	2256.86
620.63	2236.38
620.82	2291.68
621.01	2289.63
621.20	2271.20
621.39	2334.68
621.59	2316.25
621.78	2256.86
621.97	2258.91
622.16	2351.07
622.35	2293.72
622.54	2308.06
622.73	2351.07
622.92	2033.63
623.11	2398.17
623.30	2330.59
623.49	2330.59
623.68	2215.90
623.88	2301.92
624.07	2234.33
624.26	2179.04
624.45	2281.44
624.64	2269.15
624.83	2326.49
625.02	2187.23
625.21	2211.81
625.40	2277.34
625.59	2506.71
625.78	2324.44
625.97	2396.12
626.16	2385.88
626.35	2414.56
626.54	2346.97
626.74	2414.56
626.93	2234.33
627.12	2295.77
627.31	2291.68
627.50	2402.27
627.69	2402.27
627.88	2269.15
628.07	2267.10
628.26	2170.85
628.45	2220.00
628.64	2193.37
628.83	2310.11
629.02	2195.42
629.21	2301.92
629.40	2203.61
629.59	2242.53
629.78	2269.15
629.97	2234.33
630.16	2303.96
630.35	2238.43
630.54	2287.58
630.73	2236.38
630.92	2365.40
631.11	2242.53
631.30	2301.92
631.49	2301.92
631.68	2301.92
631.87	2291.68
632.06	2156.51
632.25	2582.49
632.44	2346.97
632.63	2383.84
632.82	2260.96
633.01	2152.42
633.20	2396.12
633.39	2277.34
633.58	2146.27
633.77	2240.48
633.96	2426.84
634.15	2389.98
634.34	2381.79
634.53	2295.77
634.72	2281.44
634.91	2211.81
635.10	2310.11
635.29	2412.51
635.48	2312.16
635.67	2187.23
635.86	2131.94
636.05	2432.99
636.24	2213.85
636.43	2275.29
636.62	2248.67
636.81	2013.15
637.00	2324.44
637.19	2252.77
637.38	2269.15
637.57	2277.34
637.76	2297.82
637.95	2340.83
638.14	2365.40
638.33	2277.34
638.52	2404.32
638.71	2193.37
638.89	2170.85
639.08	2590.68
639.27	2418.65
639.46	2453.47
639.65	2897.88
639.84	2873.30
640.03	2861.01
640.22	2914.26
640.41	2887.64
640.60	2516.95
640.79	2523.10
640.98	2439.13
641.17	2471.90
641.36	2527.19
641.55	2432.99
641.74	2211.81
641.92	2275.29
642.11	2162.66
642.30	2273.25
642.49	2211.81
642.68	2215.90
642.87	2256.86
643.06	2301.92
643.25	2209.76
643.44	2125.79
643.63	2179.04
643.82	2406.36
644.00	2215.90
644.19	2230.24
644.38	2162.66
644.57	2371.55
644.76	2248.67
644.95	2267.10
645.14	2267.10
645.33	2244.57
645.52	2273.25
645.71	2146.27
645.89	2158.56
646.08	2195.42
646.27	2215.90
646.46	2455.51
646.65	2070.50
646.84	2260.96
647.03	2160.61
647.22	2330.59
647.40	2281.44
647.59	2254.81
647.78	2138.08
647.97	2183.13
648.16	2179.04
648.35	2412.51
648.54	2320.35
648.73	2176.99
648.91	2332.64
649.10	2355.16
649.29	2142.18
649.48	2240.48
649.67	2244.57
649.86	2349.02
650.05	2285.53
650.23	2490.33
650.42	2275.29
650.61	2514.91
650.80	2486.23
650.99	2598.87
651.18	2373.60
651.36	2346.97
651.55	2349.02
651.74	2371.55
651.93	2236.38
652.12	2318.30
652.31	2293.72
652.49	2217.95
652.68	2220.00
652.87	2490.33
653.06	2342.88
653.25	2529.24
653.44	2277.34
653.62	2408.41
653.81	2285.53
654.00	2275.29
654.19	2400.22
654.38	2496.47
654.56	2310.11
654.75	2228.19
654.94	2351.07
655.13	2285.53
655.32	2244.57
655.51	2291.68
655.69	2269.15
655.88	2310.11
656.07	2256.86
656.26	2283.49
656.45	2162.66
656.63	2306.01
656.82	2236.38
657.01	2394.08
657.20	2086.88
657.38	2400.22
657.57	2256.86
657.76	2097.12
657.95	2342.88
658.14	2185.18
658.32	2303.96
658.51	2133.98
658.70	2285.53
658.89	2275.29
659.08	2322.40
659.26	2432.99
659.45	2234.33
659.64	2326.49
659.83	2205.66
660.01	2662.36
660.20	2291.68
660.39	2326.49
660.58	2088.93
660.76	2314.20
660.95	2129.89
661.14	2281.44
661.33	2158.56
661.51	2232.29
661.70	2222.05
661.89	2281.44
662.08	2326.49
662.26	2146.27
662.45	2121.70
662.64	2418.65
662.83	2324.44
663.01	2090.98
663.20	2217.95
663.39	2412.51
663.58	2250.72
663.76	2209.76
663.95	2400.22
664.14	2121.70
664.32	2228.19
664.51	2154.46
664.70	2078.69
664.89	2289.63
665.07	2156.51
665.26	2306.01
665.45	2234.33
665.64	2379.74
665.82	2244.57
666.01	2375.64
666.20	2205.66
666.38	2416.60
666.57	2418.65
666.76	3405.77
666.95	8206.21
667.13	16410.37
667.32	21624.50
667.51	24833.67
667.69	26895.97
667.88	24444.56
668.07	17440.50
668.25	13965.10
668.44	11499.34
668.63	10092.39
668.81	8892.28
669.00	7731.08
669.19	6897.56
669.38	6049.70
669.56	5142.45
669.75	4362.17
669.94	3733.45
670.12	3100.62
670.31	2703.32
670.50	2668.50
670.68	2467.80
670.87	2332.64
671.06	2349.02
671.24	2369.50
671.43	2506.71
671.62	2367.45
671.80	2334.68
671.99	2340.83
672.18	2310.11
672.36	2381.79
672.55	2174.94
672.74	2205.66
672.92	2250.72
673.11	2355.16
673.29	2158.56
673.48	2312.16
673.67	2211.81
673.85	2363.36
674.04	2205.66
674.23	2250.72
674.41	2469.85
674.60	2205.66
674.79	2060.26
674.97	2187.23
675.16	2400.22
675.34	2330.59
675.53	2168.80
675.72	2256.86
675.90	2377.69
676.09	2203.61
676.28	2306.01
676.46	2093.02
676.65	2293.72
676.83	2105.31
677.02	2254.81
677.21	2170.85
677.39	2267.10
677.58	2193.37
677.77	2195.42
677.95	2238.43
678.14	2246.62
678.32	2301.92
678.51	2193.37
678.70	2461.66
678.88	2211.81
679.07	2314.20
679.25	2334.68
679.44	2244.57
679.63	2193.37
679.81	2289.63
680.00	2418.65
680.18	2338.78
680.37	2443.23
680.55	2211.81
680.74	2088.93
680.93	2111.46
681.11	2357.21
681.30	2158.56
681.48	2263.01
681.67	2179.04
681.85	2222.05
682.04	2138.08
682.23	2365.40
682.41	2256.86
682.60	2240.48
682.78	2236.38
682.97	2142.18
683.15	2234.33
683.34	2314.20
683.53	2400.22
683.71	2195.42
683.90	2392.03
684.08	2328.54
684.27	2238.43
684.45	2291.68
684.64	2332.64
684.82	2283.49
685.01	2310.11
685.19	2275.29
685.38	2310.11
685.57	2297.82
685.75	2234.33
685.94	2160.61
686.12	2113.50
686.31	2228.19
686.49	2437.08
686.68	2078.69
686.86	2314.20
687.05	2203.61
687.23	2416.60
687.42	2220.00
687.60	2154.46
687.79	2353.12
687.97	2318.30
688.16	2328.54
688.34	2359.26
688.53	2084.83
688.71	2244.57
688.90	2322.40
689.08	2228.19
689.27	2140.13
689.45	2326.49
689.64	2422.75
689.82	2314.20
690.01	2260.96
690.19	2291.68
690.38	2203.61
690.56	2377.69
690.75	2170.85
690.93	2205.66
691.12	2197.47
691.30	2183.13
691.49	2215.90
691.67	2271.20
691.86	2408.41
692.04	2236.38
692.23	2189.28
692.41	2273.25
692.60	2502.62
692.78	2400.22
692.97	2377.69
693.15	2291.68
693.34	2443.23
693.52	2424.80
693.71	2260.96
693.89	2187.23
694.08	2152.42
694.26	2273.25
694.44	2303.96
694.63	2349.02
694.81	2144.22
695.00	2142.18
695.18	2310.11
695.37	2506.71
695.55	2256.86
695.74	2260.96
695.92	2232.29
696.10	2326.49
696.29	2129.89
696.47	2187.23
696.66	2127.84
696.84	2185.18
697.03	2301.92
697.21	2553.82
697.40	3231.69
697.58	2314.20
697.76	2211.81
697.95	2197.47
698.13	2142.18
698.32	2224.09
698.50	2211.81
698.68	2308.06
698.87	2209.76
699.05	2387.93
699.24	2244.57
699.42	2136.03
699.61	2295.77
699.79	2217.95
699.97	2267.10
700.16	2121.70
700.34	2129.89
700.53	2308.06
700.71	2301.92
700.89	2381.79
701.08	2150.37
701.26	2314.20
701.45	2793.43
701.63	2211.81
701.81	2195.42
702.00	2193.37
702.18	2222.05
702.37	2220.00
702.55	2478.04
702.73	2469.85
702.92	2412.51
703.10	2525.15
703.28	2451.42
703.47	2258.91
703.65	2510.81
703.84	2392.03
704.02	2285.53
704.20	2404.32
704.39	2267.10
704.57	2238.43
704.75	2412.51
704.94	2398.17
705.12	2314.20
705.30	2562.01
705.49	4423.61
705.67	10616.67
705.86	18568.93
706.04	22075.06
706.22	25157.25
706.41	26050.16
706.59	22107.82
706.77	15566.61
706.96	13039.42
707.14	11540.30
707.32	9940.84
707.51	8875.90
707.69	7364.50
707.87	5930.92
708.06	4861.88
708.24	3897.28
708.42	3217.36
708.61	2981.84
708.79	2406.36
708.97	2482.14
709.16	2375.64
709.34	2400.22
709.52	2293.72
709.71	2246.62
709.89	2379.74
710.07	2174.94
710.26	2201.57
710.44	2285.53
710.62	2357.21
710.80	2224.09
710.99	2312.16
711.17	2361.31
711.35	2209.76
711.54	2187.23
711.72	2346.97
711.90	2330.59
712.09	2250.72
712.27	2197.47
712.45	2211.81
712.63	2205.66
712.82	2283.49
713.00	2342.88
713.18	2260.96
713.37	2355.16
713.55	2295.77
713.73	2287.58
713.91	2316.25
714.10	2187.23
714.28	2234.33
714.46	2301.92
714.65	2258.91
714.83	2271.20
715.01	2283.49
715.19	2340.83
715.38	2129.89
715.56	2299.87
715.74	2152.42
715.92	2256.86
716.11	2430.94
716.29	2078.69
716.47	2277.34
716.65	2252.77
716.84	2129.89
717.02	2324.44
717.20	2076.64
717.38	2187.23
717.57	2279.39
717.75	2281.44
717.93	2209.76
718.11	2328.54
718.30	2101.22
718.48	2310.11
718.66	2369.50
718.84	2369.50
719.03	2211.81
719.21	2168.80
719.39	2473.95
719.57	2256.86
719.75	2301.92
719.94	2146.27
720.12	2297.82
720.30	2306.01
720.48	2226.14
720.67	2160.61
720.85	2170.85
721.03	2191.33
721.21	2142.18
721.39	2355.16
721.58	2293.72
721.76	2252.77
721.94	2281.44
722.12	2326.49
722.30	2398.17
722.49	2195.42
722.67	2283.49
722.85	2269.15
723.03	2240.48
723.21	2160.61
723.40	2185.18
723.58	2342.88
723.76	2359.26
723.94	2437.08
724.12	2369.50
724.30	2457.56
724.49	2377.69
724.67	2236.38
724.85	2379.74
725.03	2166.75
725.21	2340.83
725.40	2367.45
725.58	2164.70
725.76	2387.93
725.94	2240.48
726.12	2125.79
726.30	2324.44
726.49	2193.37
726.67	2191.33
726.85	2269.15
727.03	2527.19
727.21	3577.80
727.39	4949.94
727.57	5836.71
727.76	6551.45
727.94	6846.36
728.12	6377.37
728.30	5097.39
728.48	4456.38
728.66	4112.32
728.84	3758.02
729.03	3362.76
729.21	2990.03
729.39	2744.28
729.57	2461.66
729.75	2424.80
729.93	2408.41
730.11	2275.29
730.30	2203.61
730.48	2303.96
730.66	2406.36
730.84	2236.38
731.02	2252.77
731.20	2260.96
731.38	2320.35
731.56	2101.22
731.74	2113.50
731.93	2314.20
732.11	2303.96
732.29	2281.44
732.47	2297.82
732.65	2240.48
732.83	2400.22
733.01	2336.73
733.19	2183.13
733.37	2297.82
733.56	2248.67
733.74	2283.49
733.92	2365.40
734.10	2224.09
734.28	2283.49
734.46	2105.31
734.64	2293.72
734.82	2228.19
735.00	2142.18
735.18	2213.85
735.36	2267.10
735.54	2254.81
735.73	2222.05
735.91	2324.44
736.09	2392.03
736.27	2217.95
736.45	2314.20
736.63	2072.54
736.81	2193.37
736.99	2342.88
737.17	2303.96
737.35	2199.52
737.53	2316.25
737.71	2185.18
737.89	2338.78
738.07	2154.46
738.25	2222.05
738.43	2109.41
738.61	2224.09
738.80	2133.98
738.98	2166.75
739.16	2187.23
739.34	2211.81
739.52	2353.12
739.70	2285.53
739.88	2228.19
740.06	2346.97
740.24	2031.58
740.42	2379.74
740.60	2181.09
740.78	2234.33
740.96	2107.36
741.14	2119.65
741.32	2209.76
741.50	2119.65
741.68	2432.99
741.86	2371.55
742.04	2152.42
742.22	2203.61
742.40	2273.25
742.58	2269.15
742.76	2150.37
742.94	2310.11
743.12	2138.08
743.30	2228.19
743.48	2324.44
743.66	2170.85
743.84	2252.77
744.02	2263.01
744.20	2283.49
744.38	2189.28
744.56	2105.31
744.74	2392.03
744.92	2265.05
745.10	2506.71
745.28	2258.91
745.46	2449.37
745.64	2230.24
745.82	2342.88
746.00	2375.64
746.18	2242.53
746.36	2199.52
746.54	2330.59
746.72	2232.29
746.90	2113.50
747.08	2381.79
747.26	2121.70
747.44	2353.12
747.62	2314.20
747.80	2275.29
747.98	2342.88
748.15	2269.15
748.33	2430.94
748.51	2308.06
748.69	2312.16
748.87	2232.29
749.05	2301.92
749.23	2140.13
749.41	2283.49
749.59	2303.96
749.77	2340.83
749.95	2232.29
750.13	2162.66
750.31	2297.82
750.49	2244.57
750.67	2340.83
750.85	2389.98
751.03	2217.95
751.20	2482.14
751.38	2291.68
751.56	2285.53
751.74	2187.23
751.92	2160.61
752.10	2142.18
752.28	2334.68
752.46	2252.77
752.64	2250.72
752.82	2248.67
753.00	2346.97
753.18	2174.94
753.35	2258.91
753.53	2310.11
753.71	2189.28
753.89	2318.30
754.07	2260.96
754.25	2293.72
754.43	2330.59
754.61	2119.65
754.79	2334.68
754.97	2172.89
755.14	2308.06
755.32	2133.98
755.50	2277.34
755.68	2205.66
755.86	2113.50
756.04	2125.79
756.22	2111.46
756.40	2306.01
756.57	2445.27
756.75	2207.71
756.93	2326.49
757.11	2381.79
757.29	2115.55
757.47	2242.53
757.65	2105.31
757.82	2017.25
758.00	2152.42
758.18	2238.43
758.36	2224.09
758.54	2424.80
758.72	2084.83
758.90	2303.96
759.07	2283.49
759.25	2152.42
759.43	2314.20
759.61	2105.31
759.79	3127.25
759.97	2385.88
760.15	2164.70
760.32	2199.52
760.50	2281.44
760.68	2398.17
760.86	2123.74
761.04	2383.84
761.22	2367.45
761.39	2273.25
761.57	2310.11
761.75	2215.90
761.93	2342.88
762.11	2297.82
762.28	2244.57
762.46	2162.66
762.64	2381.79
762.82	2107.36
763.00	2228.19
763.18	2392.03
763.35	2117.60
763.53	2291.68
763.71	2224.09
763.89	2201.57
764.07	2316.25
764.24	2260.96
764.42	2238.43
764.60	2088.93
764.78	2306.01
764.96	2334.68
765.13	2338.78
765.31	2285.53
765.49	2330.59
765.67	2224.09
765.84	2123.74
766.02	2197.47
766.20	2107.36
766.38	2260.96
766.56	2310.11
766.73	2312.16
766.91	2232.29
767.09	2271.20
767.27	2342.88
767.44	2080.74
767.62	2330.59
767.80	2267.10
767.98	2160.61
768.15	2201.57
768.33	2402.27
768.51	2252.77
768.69	2320.35
768.87	2228.19
769.04	2285.53
769.22	2473.95
769.40	2369.50
769.58	2385.88
769.75	2320.35
769.93	2361.31
770.11	2142.18
770.28	2152.42
770.46	2326.49
770.64	2275.29
770.82	2228.19
770.99	2275.29
771.17	2209.76
771.35	2156.51
771.53	2205.66
771.70	2224.09
771.88	2295.77
772.06	2244.57
772.23	2351.07
772.41	2269.15
772.59	2265.05
772.77	2072.54
772.94	2273.25
773.12	2316.25
773.30	2109.41
773.47	2263.01
773.65	2244.57
773.83	2326.49
774.01	2252.77
774.18	2076.64
774.36	2306.01
774.54	2076.64
774.71	2342.88
774.89	2129.89
775.07	2107.36
775.24	2240.48
775.42	2187.23
775.60	2435.03
775.78	2174.94
775.95	2060.26
776.13	2047.97
776.31	2045.92
776.48	2250.72
776.66	2314.20
776.84	2158.56
777.01	2191.33
777.19	2127.84
777.37	2211.81
777.54	2363.36
777.72	2437.08
777.90	2258.91
778.07	2183.13
778.25	2475.99
778.43	2400.22
778.60	2187.23
778.78	2299.87
778.96	2359.26
779.13	2097.12
779.31	2289.63
779.49	2338.78
779.66	2312.16
779.84	2213.85
780.01	2176.99
780.19	2205.66
780.37	2375.64
780.54	2285.53
780.72	2129.89
780.90	2246.62
781.07	2179.04
781.25	2187.23
781.43	2306.01
781.60	2232.29
781.78	2437.08
781.95	2220.00
782.13	2152.42
782.31	2228.19
782.48	2070.50
782.66	2240.48
782.83	2420.70
783.01	2224.09
783.19	2236.38
783.36	2260.96
783.54	2162.66
783.72	2289.63
783.89	2226.14
784.07	2228.19
784.24	2324.44
784.42	2375.64
784.60	2242.53
784.77	2234.33
784.95	2037.73
785.12	2197.47
785.30	2246.62
785.47	2181.09
785.65	2152.42
785.83	2246.62
786.00	2162.66
786.18	2291.68
786.35	2236.38
786.53	2136.03
786.71	2275.29
786.88	2265.05
787.06	2260.96
787.23	2228.19
787.41	2158.56
787.58	2211.81
787.76	2201.57
787.94	2215.90
788.11	2260.96
788.29	2168.80
788.46	2234.33
788.64	2242.53
788.81	2211.81
788.99	2142.18
789.16	2191.33
789.34	2185.18
789.52	2168.80
789.69	2183.13
789.87	2029.54
790.04	2226.14
790.22	2310.11
790.39	2512.86
790.57	2131.94
790.74	2148.32
790.92	2363.36
791.09	2125.79
791.27	2242.53
791.44	2340.83
791.62	2185.18
791.79	2320.35
791.97	2213.85
792.15	2498.52
792.32	2279.39
792.50	2301.92
792.67	2422.75
792.85	2408.41
793.02	2318.30
793.20	2199.52
793.37	2193.37
793.55	2260.96
793.72	2109.41
793.90	2418.65
794.07	2199.52
794.25	2133.98
794.42	2301.92
794.60	2220.00
794.77	2244.57
794.95	2293.72
795.12	2349.02
795.30	2183.13
795.47	2007.01
795.65	2521.05
795.82	2248.67
796.00	2197.47
796.17	2197.47
796.34	2168.80
796.52	2301.92
796.69	2326.49
796.87	2195.42
797.04	2355.16
797.22	2308.06
797.39	2244.57
797.57	2379.74
797.74	2263.01
797.92	2299.87
798.09	2203.61
798.27	2285.53
798.44	2154.46
798.62	2205.66
798.79	2297.82
798.96	2316.25
799.14	2228.19
799.31	2478.04
799.49	2271.20
799.66	2160.61
799.84	2207.71
800.01	2121.70
800.19	2279.39
800.36	2097.12
800.53	2252.77
800.71	2254.81
800.88	2408.41
801.06	2205.66
801.23	2179.04
801.41	2273.25
801.58	2123.74
801.75	2197.47
801.93	2283.49
802.10	2324.44
802.28	2236.38
802.45	2162.66
802.63	2322.40
802.80	2375.64
802.97	2162.66
803.15	2281.44
803.32	2203.61
803.50	2201.57
803.67	2199.52
803.84	2183.13
804.02	2222.05
804.19	2154.46
804.37	2041.82
804.54	2170.85
804.71	2222.05
804.89	2252.77
805.06	2097.12
805.24	2160.61
805.41	2183.13
805.58	2191.33
805.76	2437.08
805.93	2260.96
806.10	2375.64
806.28	2314.20
806.45	2252.77
806.63	2232.29
806.80	2363.36
806.97	2244.57
807.15	2320.35
807.32	2234.33
807.49	2205.66
807.67	2201.57
807.84	2316.25
808.01	2150.37
808.19	2467.80
808.36	2523.10
808.54	2269.15
808.71	2187.23
808.88	2254.81
809.06	2402.27
809.23	2373.60
809.40	2152.42
809.58	2293.72
809.75	2222.05
809.92	2041.82
810.10	2406.36
810.27	2232.29
810.44	2301.92
810.62	2299.87
810.79	2318.30
810.96	2236.38
811.14	2197.47
811.31	2324.44
811.48	2267.10
811.66	2228.19
811.83	2385.88
812.00	2316.25
812.18	2332.64
812.35	2457.56
812.52	2215.90
812.69	2142.18
812.87	2220.00
813.04	2127.84
813.21	2228.19
813.39	2125.79
813.56	2203.61
813.73	2426.84
813.91	2181.09
814.08	2195.42
814.25	2244.57
814.42	2158.56
814.60	2146.27
814.77	2256.86
814.94	2252.77
815.12	2297.82
815.29	2414.56
815.46	2150.37
815.63	2256.86
815.81	2203.61
815.98	2166.75
816.15	2316.25
816.33	2244.57
816.50	2260.96
816.67	2222.05
816.84	2283.49
817.02	2205.66
817.19	2244.57
817.36	2283.49
817.53	2322.40
817.71	2205.66
817.88	2291.68
818.05	2285.53
818.22	2232.29
818.40	2424.80
818.57	2179.04
818.74	2285.53
818.91	2287.58
819.09	2355.16
819.26	2256.86
819.43	2189.28
819.60	2244.57
819.78	2246.62
819.95	2340.83
820.12	2195.42
820.29	2394.08
820.47	2322.40
820.64	2158.56
820.81	2056.16
820.98	2088.93
821.15	2207.71
821.33	2330.59
821.50	2103.26
821.67	2281.44
821.84	2193.37
822.02	2306.01
822.19	2383.84
822.36	2213.85
822.53	2226.14
822.70	2228.19
822.88	2191.33
823.05	2387.93
823.22	2293.72
823.39	2306.01
823.56	2209.76
823.74	2490.33
823.91	2185.18
824.08	2220.00
824.25	2074.59
824.42	2373.60
824.60	2097.12
824.77	2299.87
824.94	2213.85
825.11	2301.92
825.28	2105.31
825.45	2277.34
825.63	2336.73
825.80	2213.85
825.97	2207.71
826.14	2213.85
826.31	2088.93
826.48	2303.96
826.66	2185.18
826.83	2209.76
827.00	2217.95
827.17	2183.13
827.34	2224.09
827.51	2224.09
827.69	2244.57
827.86	2107.36
828.03	2240.48
828.20	2244.57
828.37	2203.61
828.54	2228.19
828.71	2127.84
828.89	2389.98
829.06	2240.48
829.23	2375.64
829.40	2138.08
829.57	2203.61
829.74	2310.11
829.91	2179.04
830.09	2162.66
830.26	2326.49
830.43	2453.47
830.60	2224.09
830.77	2295.77
830.94	2338.78
831.11	2324.44
831.28	2220.00
831.46	2324.44
831.63	2166.75
831.80	2359.26
831.97	2301.92
832.14	2140.13
832.31	2283.49
832.48	2185.18
832.65	2346.97
832.82	2236.38
832.99	2248.67
833.17	2217.95
833.34	2441.18
833.51	2162.66
833.68	2045.92
833.85	2351.07
834.02	2123.74
834.19	2144.22
834.36	2244.57
834.53	2330.59
834.70	2369.50
834.87	2236.38
835.04	2119.65
835.22	2195.42
835.39	2144.22
835.56	2088.93
835.73	2185.18
835.90	2316.25
836.07	2121.70
836.24	2328.54
836.41	2168.80
836.58	2189.28
836.75	2398.17
836.92	2242.53
837.09	2086.88
837.26	2318.30
837.43	2256.86
837.60	2306.01
837.77	2250.72
837.94	2308.06
838.12	2406.36
838.29	2228.19
838.46	2129.89
838.63	2129.89
838.80	2465.75
838.97	2310.11
839.14	2252.77
839.31	2150.37
839.48	2363.36
839.65	2183.13
839.82	2209.76
839.99	2375.64
840.16	2226.14
840.33	2150.37
840.50	2199.52
840.67	2197.47
840.84	2037.73
841.01	2189.28
841.18	2179.04
841.35	2187.23
841.52	2224.09
841.69	2441.18
841.86	2189.28
842.03	2230.24
842.20	2342.88
842.37	2240.48
842.54	2244.57
842.71	2265.05
842.88	2181.09
843.05	2234.33
843.22	2174.94
843.39	2353.12
843.56	2170.85
843.73	2129.89
843.90	2267.10
844.07	2244.57
844.24	2287.58
844.41	2258.91
844.58	2281.44
844.75	2277.34
844.92	2322.40
845.09	2205.66
845.26	2127.84
845.43	2279.39
845.60	2267.10
845.77	2297.82
845.94	2179.04
846.10	2396.12
846.27	2103.26
846.44	2142.18
846.61	2133.98
846.78	2320.35
846.95	2371.55
847.12	2156.51
847.29	2131.94
847.46	2185.18
847.63	2322.40
847.80	2164.70
847.97	2160.61
848.14	2502.62
848.31	2271.20
848.48	2115.55
848.65	2269.15
848.82	2170.85
848.98	2531.29
849.15	2314.20
849.32	2258.91
849.49	2357.21
849.66	2275.29
849.83	2109.41
850.00	2158.56
850.17	2340.83
850.34	2160.61
850.51	2166.75
850.68	2217.95
850.85	2484.19
851.01	2320.35
851.18	2252.77
851.35	2162.66
851.52	2349.02
851.69	2396.12
851.86	2105.31
852.03	2220.00
852.20	2406.36
852.37	2187.23
852.53	2070.50
852.70	2150.37
852.87	2258.91
853.04	2312.16
853.21	2142.18
853.38	2330.59
853.55	2387.93
853.72	2342.88
853.89	2043.87
854.05	2179.04
854.22	2228.19
854.39	2260.96
854.56	2285.53
854.73	2224.09
854.90	2183.13
855.07	2258.91
855.23	2129.89
855.40	2156.51
855.57	2211.81
855.74	2123.74
855.91	2318.30
856.08	2119.65
856.25	2076.64
856.41	2197.47
856.58	2142.18
856.75	2236.38
856.92	2146.27
857.09	2324.44
857.26	2076.64
857.42	2195.42
857.59	2351.07
857.76	2258.91
857.93	2217.95
858.10	2252.77
858.27	2111.46
858.43	2258.91
858.60	2138.08
858.77	2045.92
858.94	2168.80
859.11	2342.88
859.27	2187.23
859.44	2226.14
859.61	2506.71
859.78	2275.29
859.95	2199.52
860.12	2144.22
860.28	2449.37
860.45	2402.27
860.62	2185.18
860.79	2187.23
860.95	2232.29
861.12	2207.71
861.29	2111.46
861.46	2154.46
861.63	2228.19
861.79	2277.34
861.96	2154.46
862.13	2123.74
862.30	2392.03
862.47	2146.27
862.63	2160.61
862.80	2277.34
862.97	2412.51
863.14	2316.25
863.30	2250.72
863.47	2193.37
863.64	2373.60
863.81	2277.34
863.97	2244.57
864.14	2260.96
864.31	2207.71
864.48	2254.81
864.65	2166.75
864.81	2291.68
864.98	2234.33
865.15	2263.01
865.32	2285.53
865.48	2326.49
865.65	2379.74
865.82	2193.37
865.98	2256.86
866.15	2256.86
866.32	2217.95
866.49	2211.81
866.65	2301.92
866.82	2103.26
866.99	2172.89
867.16	2166.75
867.32	2115.55
867.49	2191.33
867.66	2217.95
867.83	2189.28
867.99	2154.46
868.16	2195.42
868.33	2131.94
868.49	2228.19
868.66	2162.66
868.83	2207.71
868.99	2285.53
869.16	2330.59
869.33	2260.96
869.50	2295.77
869.66	2277.34
869.83	2260.96
870.00	2152.42
870.16	2303.96
870.33	2140.13
870.50	2363.36
870.66	2183.13
870.83	2351.07
871.00	2224.09
871.17	2334.68
871.33	2232.29
871.50	2172.89
871.67	2283.49
871.83	2228.19
872.00	2318.30
872.17	2117.60
872.33	2379.74
872.50	2303.96
872.67	2209.76
872.83	2242.53
873.00	2310.11
873.17	2258.91
873.33	2273.25
873.50	2320.35
873.67	2162.66
873.83	2152.42
874.00	2193.37
874.16	2289.63
874.33	2220.00
874.50	2133.98
874.66	2189.28
874.83	2148.32
875.00	2326.49
875.16	2392.03
875.33	2277.34
875.50	2074.59
875.66	2179.04
875.83	2254.81
875.99	2275.29
876.16	2197.47
876.33	2148.32
876.49	2220.00
876.66	2240.48
876.83	2213.85
876.99	2097.12
877.16	2166.75
877.32	2146.27
877.49	2166.75
877.66	2271.20
877.82	2389.98
877.99	2181.09
878.15	2301.92
878.32	2252.77
878.49	2246.62
878.65	2127.84
878.82	2394.08
878.98	2242.53
879.15	2387.93
879.32	2281.44
879.48	2269.15
879.65	2285.53
879.81	2236.38
879.98	2097.12
880.15	2142.18
880.31	2340.83
880.48	2121.70
880.64	2357.21
880.81	2289.63
880.97	2408.41
881.14	2346.97
881.31	2109.41
881.47	2379.74
881.64	2258.91
881.80	2052.06
881.97	2269.15
882.13	2248.67
882.30	2168.80
882.47	2170.85
882.63	2119.65
882.80	2162.66
882.96	2258.91
883.13	2426.84
883.29	2260.96
883.46	2183.13
883.62	2416.60
883.79	2179.04
883.95	2263.01
884.12	2174.94
884.29	2320.35
884.45	2295.77
884.62	2279.39
884.78	2121.70
884.95	2359.26
885.11	2234.33
885.28	2271.20
885.44	2207.71
885.61	2324.44
885.77	2365.40
885.94	2338.78
886.10	2224.09
886.27	2279.39
886.43	2383.84
886.60	2287.58
886.76	2191.33
886.93	2111.46
887.09	2316.25
887.26	2062.30
887.42	2258.91
887.59	2297.82
887.75	2426.84
887.92	2377.69
888.08	2269.15
888.25	2377.69
888.41	2318.30
888.58	2240.48
888.74	2076.64
888.91	2269.15
>>>>>End Processed Spectral Data<<<<<
