SpectraSuite Data File
++++++++++++++++++++++++++++++++++++
Date: Thu May 05 13:20:34 CEST 2016
User: root
Dark Spectrum Present: No
Reference Spectrum Present: No
Number of Sampled Component Spectra: 1
Spectrometers: USB4C02835
Integration Time (usec): 100000 (USB4C02835)
Spectra Averaged: 1 (USB4C02835)
Boxcar Smoothing: 0 (USB4C02835)
Correct for Electrical Dark: No (USB4C02835)
Strobe/Lamp Enabled: No (USB4C02835)
Correct for Detector Non-linearity: No (USB4C02835)
Correct for Stray Light: No (USB4C02835)
Number of Pixels in Processed Spectrum: 3648
>>>>>Begin Processed Spectral Data<<<<<
177.47	1851.36
177.69	1851.36
177.91	1851.36
178.13	1726.44
178.36	1916.90
178.58	2187.23
178.80	2250.72
179.02	2078.69
179.24	2195.42
179.46	2154.46
179.68	2207.71
179.90	2205.66
180.13	2275.29
180.35	2148.32
180.57	2185.18
180.79	2260.96
181.01	2263.01
181.23	2232.29
181.45	2303.96
181.67	2306.01
181.90	2385.88
182.12	2168.80
182.34	2047.97
182.56	2287.58
182.78	2285.53
183.00	2131.94
183.22	2191.33
183.44	2033.63
183.66	2523.10
183.89	2287.58
184.11	2185.18
184.33	2301.92
184.55	2402.27
184.77	2109.41
184.99	2203.61
185.21	2136.03
185.43	2424.80
185.65	2123.74
185.87	2123.74
186.10	2455.51
186.32	2463.71
186.54	2252.77
186.76	2152.42
186.98	2308.06
187.20	2320.35
187.42	2146.27
187.64	2150.37
187.86	2265.05
188.08	2408.41
188.30	2154.46
188.52	2176.99
188.75	2373.60
188.97	2310.11
189.19	2170.85
189.41	2125.79
189.63	2277.34
189.85	2181.09
190.07	2076.64
190.29	2150.37
190.51	2201.57
190.73	2109.41
190.95	2299.87
191.17	2201.57
191.39	2037.73
191.61	2232.29
191.84	2176.99
192.06	2301.92
192.28	2148.32
192.50	2607.06
192.72	2260.96
192.94	2187.23
193.16	2422.75
193.38	2277.34
193.60	2105.31
193.82	2201.57
194.04	2422.75
194.26	2275.29
194.48	2160.61
194.70	2150.37
194.92	2220.00
195.14	2381.79
195.36	2093.02
195.58	2191.33
195.80	2187.23
196.02	2209.76
196.24	2189.28
196.46	2191.33
196.69	2179.04
196.91	2557.91
197.13	2199.52
197.35	2125.79
197.57	2430.94
197.79	2351.07
198.01	2189.28
198.23	2191.33
198.45	2351.07
198.67	2072.54
198.89	2109.41
199.11	2234.33
199.33	2136.03
199.55	2017.25
199.77	2195.42
199.99	2299.87
200.21	2248.67
200.43	2279.39
200.65	2088.93
200.87	1935.33
201.09	2228.19
201.31	2252.77
201.53	2238.43
201.75	2244.57
201.97	2193.37
202.19	2164.70
202.41	2244.57
202.63	2422.75
202.85	2308.06
203.07	2213.85
203.29	2148.32
203.51	2119.65
203.73	2201.57
203.95	2564.06
204.17	2209.76
204.39	2138.08
204.61	2136.03
204.83	2232.29
205.05	2267.10
205.27	2201.57
205.49	2504.67
205.71	2195.42
205.93	2119.65
206.15	2152.42
206.37	2324.44
206.59	2297.82
206.81	2060.26
207.03	2062.30
207.25	2166.75
207.47	2310.11
207.69	2220.00
207.91	2310.11
208.13	2453.47
208.34	2213.85
208.56	2113.50
208.78	2160.61
209.00	2142.18
209.22	2162.66
209.44	2220.00
209.66	2187.23
209.88	2236.38
210.10	2250.72
210.32	2211.81
210.54	2217.95
210.76	2174.94
210.98	2357.21
211.20	2023.39
211.42	2244.57
211.64	2357.21
211.86	2205.66
212.08	2193.37
212.30	2160.61
212.52	2207.71
212.74	2301.92
212.96	2160.61
213.17	2207.71
213.39	2357.21
213.61	2430.94
213.83	2129.89
214.05	2273.25
214.27	2301.92
214.49	2129.89
214.71	2164.70
214.93	2330.59
215.15	2308.06
215.37	2277.34
215.59	2099.17
215.81	2207.71
216.03	2392.03
216.24	2267.10
216.46	2181.09
216.68	2244.57
216.90	2295.77
217.12	2265.05
217.34	2107.36
217.56	2228.19
217.78	2424.80
218.00	2287.58
218.22	2185.18
218.44	2187.23
218.66	2310.11
218.87	2406.36
219.09	2160.61
219.31	2215.90
219.53	2269.15
219.75	2187.23
219.97	2217.95
220.19	2234.33
220.41	2281.44
220.63	2430.94
220.85	2228.19
221.06	2220.00
221.28	2424.80
221.50	2377.69
221.72	2220.00
221.94	2113.50
222.16	2234.33
222.38	2269.15
222.60	2230.24
222.82	2113.50
223.03	2310.11
223.25	2099.17
223.47	2195.42
223.69	2344.92
223.91	2265.05
224.13	2287.58
224.35	2136.03
224.57	2301.92
224.78	2303.96
225.00	2236.38
225.22	2162.66
225.44	2158.56
225.66	2334.68
225.88	2162.66
226.10	2265.05
226.32	2168.80
226.53	2428.89
226.75	2162.66
226.97	2185.18
227.19	2146.27
227.41	2174.94
227.63	2183.13
227.85	2078.69
228.06	2187.23
228.28	2234.33
228.50	2316.25
228.72	2068.45
228.94	2170.85
229.16	2074.59
229.37	2154.46
229.59	2119.65
229.81	2306.01
230.03	2240.48
230.25	2162.66
230.47	2121.70
230.69	2056.16
230.90	2244.57
231.12	2133.98
231.34	2232.29
231.56	2269.15
231.78	2109.41
232.00	2269.15
232.21	2191.33
232.43	2146.27
232.65	2009.06
232.87	2228.19
233.09	2023.39
233.30	2162.66
233.52	2269.15
233.74	2234.33
233.96	2269.15
234.18	2236.38
234.40	2195.42
234.61	2473.95
234.83	2136.03
235.05	2033.63
235.27	2523.10
235.49	2432.99
235.70	2121.70
235.92	2301.92
236.14	2289.63
236.36	2432.99
236.58	2097.12
236.79	2277.34
237.01	2230.24
237.23	2256.86
237.45	2363.36
237.67	2191.33
237.88	2279.39
238.10	2465.75
238.32	2072.54
238.54	2142.18
238.76	2283.49
238.97	2150.37
239.19	2084.83
239.41	2281.44
239.63	2308.06
239.85	2197.47
240.06	2191.33
240.28	2166.75
240.50	2338.78
240.72	2176.99
240.93	2136.03
241.15	2248.67
241.37	2238.43
241.59	2361.31
241.81	2193.37
242.02	2199.52
242.24	2260.96
242.46	2326.49
242.68	2103.26
242.89	2271.20
243.11	2367.45
243.33	2234.33
243.55	2224.09
243.76	2220.00
243.98	2226.14
244.20	2277.34
244.42	2189.28
244.64	2301.92
244.85	2152.42
245.07	2179.04
245.29	2256.86
245.51	2133.98
245.72	2283.49
245.94	2392.03
246.16	2176.99
246.38	2209.76
246.59	2240.48
246.81	2148.32
247.03	2150.37
247.24	2004.96
247.46	2250.72
247.68	2248.67
247.90	2164.70
248.11	2152.42
248.33	2381.79
248.55	2215.90
248.77	2136.03
248.98	2211.81
249.20	2355.16
249.42	2189.28
249.64	2252.77
249.85	2185.18
250.07	2215.90
250.29	2379.74
250.50	2260.96
250.72	2121.70
250.94	2240.48
251.16	2445.27
251.37	2228.19
251.59	2277.34
251.81	2258.91
252.02	2314.20
252.24	2207.71
252.46	2228.19
252.68	2220.00
252.89	2213.85
253.11	2113.50
253.33	2314.20
253.54	2406.36
253.76	2109.41
253.98	2162.66
254.20	2119.65
254.41	2174.94
254.63	2256.86
254.85	2050.02
255.06	2199.52
255.28	2342.88
255.50	2299.87
255.71	2220.00
255.93	2062.30
256.15	2285.53
256.36	2318.30
256.58	2201.57
256.80	2195.42
257.02	2230.24
257.23	2156.51
257.45	2084.83
257.67	2342.88
257.88	2181.09
258.10	2310.11
258.32	2084.83
258.53	2265.05
258.75	2492.38
258.97	2174.94
259.18	2174.94
259.40	2164.70
259.62	2475.99
259.83	2400.22
260.05	2195.42
260.27	2637.78
260.48	2334.68
260.70	2150.37
260.92	2138.08
261.13	2252.77
261.35	2252.77
261.57	2291.68
261.78	2004.96
262.00	2074.59
262.22	2326.49
262.43	2131.94
262.65	2252.77
262.86	2156.51
263.08	2525.15
263.30	2279.39
263.51	2064.35
263.73	2117.60
263.95	2387.93
264.16	2168.80
264.38	2072.54
264.60	2217.95
264.81	2232.29
265.03	2357.21
265.25	2303.96
265.46	2129.89
265.68	2422.75
265.89	2248.67
266.11	2021.35
266.33	2185.18
266.54	2326.49
266.76	2254.81
266.98	2303.96
267.19	2275.29
267.41	2396.12
267.62	2269.15
267.84	2078.69
268.06	2222.05
268.27	2283.49
268.49	2353.12
268.70	2267.10
268.92	2170.85
269.14	2152.42
269.35	2072.54
269.57	2179.04
269.79	2207.71
270.00	2191.33
270.22	2416.60
270.43	2068.45
270.65	1982.43
270.87	2250.72
271.08	2359.26
271.30	2232.29
271.51	2256.86
271.73	2326.49
271.95	2404.32
272.16	2187.23
272.38	2176.99
272.59	2222.05
272.81	2275.29
273.02	2166.75
273.24	2201.57
273.46	2334.68
273.67	2097.12
273.89	2099.17
274.10	2160.61
274.32	2334.68
274.54	2346.97
274.75	2279.39
274.97	2187.23
275.18	2363.36
275.40	2308.06
275.61	2146.27
275.83	2224.09
276.05	2119.65
276.26	2220.00
276.48	2232.29
276.69	2236.38
276.91	2250.72
277.12	2359.26
277.34	2318.30
277.55	2314.20
277.77	2269.15
277.99	2228.19
278.20	2176.99
278.42	2125.79
278.63	2082.78
278.85	2215.90
279.06	2095.07
279.28	2293.72
279.49	2322.40
279.71	2363.36
279.93	2236.38
280.14	2238.43
280.36	2154.46
280.57	2402.27
280.79	2211.81
281.00	2146.27
281.22	2220.00
281.43	2359.26
281.65	2056.16
281.86	2228.19
282.08	2338.78
282.29	2445.27
282.51	2037.73
282.73	2162.66
282.94	2080.74
283.16	2248.67
283.37	2414.56
283.59	2291.68
283.80	2211.81
284.02	2246.62
284.23	2299.87
284.45	2146.27
284.66	2172.89
284.88	2226.14
285.09	2316.25
285.31	2371.55
285.52	2303.96
285.74	2060.26
285.95	2310.11
286.17	2269.15
286.38	2389.98
286.60	2205.66
286.81	2226.14
287.03	2187.23
287.24	2269.15
287.46	2312.16
287.67	2234.33
287.89	2363.36
288.10	2195.42
288.32	2285.53
288.53	2359.26
288.75	2207.71
288.96	2316.25
289.18	2207.71
289.39	2172.89
289.61	2318.30
289.82	2490.33
290.04	2547.67
290.25	2084.83
290.47	2211.81
290.68	2232.29
290.90	2361.31
291.11	2148.32
291.33	2340.83
291.54	2099.17
291.76	2189.28
291.97	2248.67
292.18	2170.85
292.40	2195.42
292.61	2142.18
292.83	2475.99
293.04	2265.05
293.26	2324.44
293.47	2236.38
293.69	2152.42
293.90	2267.10
294.12	2291.68
294.33	2252.77
294.55	2238.43
294.76	2371.55
294.97	2371.55
295.19	2498.52
295.40	2283.49
295.62	2238.43
295.83	2408.41
296.05	2150.37
296.26	2383.84
296.48	2170.85
296.69	2248.67
296.90	2203.61
297.12	2281.44
297.33	2375.64
297.55	2220.00
297.76	2281.44
297.98	2383.84
298.19	2269.15
298.41	2203.61
298.62	2205.66
298.83	2422.75
299.05	2265.05
299.26	2185.18
299.48	2109.41
299.69	2349.02
299.90	2252.77
300.12	2152.42
300.33	2291.68
300.55	2244.57
300.76	2324.44
300.98	2193.37
301.19	2289.63
301.40	2133.98
301.62	2248.67
301.83	2285.53
302.05	2246.62
302.26	2258.91
302.47	2297.82
302.69	2168.80
302.90	2279.39
303.12	2127.84
303.33	2269.15
303.54	2455.51
303.76	2234.33
303.97	2269.15
304.19	2338.78
304.40	2142.18
304.61	2351.07
304.83	2398.17
305.04	2342.88
305.26	2318.30
305.47	2183.13
305.68	2256.86
305.90	2025.44
306.11	2351.07
306.33	2222.05
306.54	2213.85
306.75	2138.08
306.97	2074.59
307.18	2152.42
307.39	2170.85
307.61	2260.96
307.82	2265.05
308.04	2318.30
308.25	2199.52
308.46	2303.96
308.68	2211.81
308.89	2193.37
309.10	2371.55
309.32	2269.15
309.53	2232.29
309.74	2256.86
309.96	2138.08
310.17	2328.54
310.39	2228.19
310.60	2265.05
310.81	2246.62
311.03	2127.84
311.24	2291.68
311.45	2183.13
311.67	2414.56
311.88	2228.19
312.09	2195.42
312.31	2142.18
312.52	2205.66
312.73	2263.01
312.95	2084.83
313.16	2084.83
313.37	2301.92
313.59	2275.29
313.80	2394.08
314.01	2432.99
314.23	2191.33
314.44	2138.08
314.65	2144.22
314.87	2207.71
315.08	2168.80
315.29	2146.27
315.51	2213.85
315.72	2176.99
315.93	2293.72
316.15	2326.49
316.36	2211.81
316.57	2312.16
316.79	2314.20
317.00	2176.99
317.21	2342.88
317.43	2197.47
317.64	2226.14
317.85	2238.43
318.07	2154.46
318.28	2224.09
318.49	2349.02
318.70	2486.23
318.92	2430.94
319.13	2402.27
319.34	2547.67
319.56	2344.92
319.77	2361.31
319.98	2357.21
320.20	2291.68
320.41	2269.15
320.62	2406.36
320.83	2179.04
321.05	2463.71
321.26	2281.44
321.47	2220.00
321.69	2353.12
321.90	2121.70
322.11	2220.00
322.32	2289.63
322.54	2371.55
322.75	2211.81
322.96	2488.28
323.18	2133.98
323.39	2062.30
323.60	2217.95
323.81	2291.68
324.03	2164.70
324.24	2215.90
324.45	2242.53
324.66	2267.10
324.88	2424.80
325.09	2334.68
325.30	2256.86
325.52	2203.61
325.73	2308.06
325.94	2099.17
326.15	2080.74
326.37	2127.84
326.58	2359.26
326.79	2422.75
327.00	2166.75
327.22	2244.57
327.43	2254.81
327.64	2125.79
327.85	2283.49
328.07	2193.37
328.28	2467.80
328.49	2295.77
328.70	2193.37
328.92	2240.48
329.13	2240.48
329.34	2351.07
329.55	2412.51
329.76	2363.36
329.98	2238.43
330.19	2344.92
330.40	2258.91
330.61	2260.96
330.83	2422.75
331.04	2191.33
331.25	2279.39
331.46	2179.04
331.68	2201.57
331.89	2318.30
332.10	2217.95
332.31	2138.08
332.52	2289.63
332.74	2398.17
332.95	2082.78
333.16	2244.57
333.37	2437.08
333.58	2267.10
333.80	2283.49
334.01	2109.41
334.22	2248.67
334.43	2146.27
334.64	2119.65
334.86	2201.57
335.07	2121.70
335.28	2426.84
335.49	2068.45
335.70	2326.49
335.92	2402.27
336.13	2473.95
336.34	2332.64
336.55	2244.57
336.76	2201.57
336.98	2039.78
337.19	2242.53
337.40	2432.99
337.61	2562.01
337.82	2142.18
338.04	2248.67
338.25	2043.87
338.46	2230.24
338.67	2252.77
338.88	2146.27
339.09	2115.55
339.31	2138.08
339.52	2109.41
339.73	2156.51
339.94	2293.72
340.15	2351.07
340.36	2129.89
340.58	2224.09
340.79	2148.32
341.00	2342.88
341.21	2111.46
341.42	2396.12
341.63	2199.52
341.85	2396.12
342.06	2291.68
342.27	2111.46
342.48	2310.11
342.69	2097.12
342.90	2357.21
343.12	2355.16
343.33	2170.85
343.54	2416.60
343.75	2394.08
343.96	2322.40
344.17	2158.56
344.38	2160.61
344.60	2160.61
344.81	2154.46
345.02	2193.37
345.23	2357.21
345.44	2469.85
345.65	2285.53
345.86	2256.86
346.07	2191.33
346.29	2176.99
346.50	2238.43
346.71	2256.86
346.92	2359.26
347.13	2480.09
347.34	2203.61
347.55	2136.03
347.76	2359.26
347.98	2117.60
348.19	2217.95
348.40	2326.49
348.61	2193.37
348.82	2394.08
349.03	2275.29
349.24	2162.66
349.45	2461.66
349.66	2072.54
349.88	2215.90
350.09	2093.02
350.30	2398.17
350.51	2414.56
350.72	2209.76
350.93	2332.64
351.14	2084.83
351.35	2308.06
351.56	2222.05
351.77	2226.14
351.99	2314.20
352.20	2365.40
352.41	2326.49
352.62	2076.64
352.83	2293.72
353.04	2275.29
353.25	2162.66
353.46	2342.88
353.67	2342.88
353.88	2127.84
354.09	2138.08
354.30	2267.10
354.52	2269.15
354.73	2170.85
354.94	2142.18
355.15	2289.63
355.36	2463.71
355.57	2150.37
355.78	2267.10
355.99	2162.66
356.20	2228.19
356.41	2346.97
356.62	2269.15
356.83	2277.34
357.04	2432.99
357.25	2080.74
357.46	2156.51
357.68	2090.98
357.89	2168.80
358.10	2297.82
358.31	2217.95
358.52	2240.48
358.73	2125.79
358.94	2160.61
359.15	2146.27
359.36	2277.34
359.57	2236.38
359.78	2222.05
359.99	2373.60
360.20	2138.08
360.41	2211.81
360.62	2330.59
360.83	2250.72
361.04	2181.09
361.25	2293.72
361.46	2346.97
361.67	2385.88
361.88	2322.40
362.09	2279.39
362.30	2267.10
362.51	2170.85
362.72	2277.34
362.93	2398.17
363.14	2310.11
363.35	2326.49
363.56	2197.47
363.78	2271.20
363.99	2346.97
364.20	2176.99
364.41	2308.06
364.62	2422.75
364.83	2236.38
365.04	2138.08
365.25	2220.00
365.46	2488.28
365.67	2129.89
365.88	2215.90
366.09	2228.19
366.30	2179.04
366.51	2273.25
366.72	2070.50
366.93	2213.85
367.14	2203.61
367.35	2392.03
367.56	2193.37
367.77	2373.60
367.98	2224.09
368.18	2314.20
368.39	2308.06
368.60	2154.46
368.81	2283.49
369.02	2252.77
369.23	2154.46
369.44	2119.65
369.65	2166.75
369.86	2310.11
370.07	2285.53
370.28	2150.37
370.49	2260.96
370.70	2220.00
370.91	2156.51
371.12	2133.98
371.33	2357.21
371.54	2246.62
371.75	2303.96
371.96	2062.30
372.17	2293.72
372.38	2285.53
372.59	2281.44
372.80	2260.96
373.01	2301.92
373.22	2203.61
373.43	2232.29
373.64	2111.46
373.85	2424.80
374.06	2416.60
374.26	2392.03
374.47	2291.68
374.68	2361.31
374.89	2291.68
375.10	2246.62
375.31	2353.12
375.52	2281.44
375.73	2269.15
375.94	2170.85
376.15	2373.60
376.36	2179.04
376.57	2265.05
376.78	2146.27
376.99	2162.66
377.20	2432.99
377.40	2207.71
377.61	2387.93
377.82	2185.18
378.03	2326.49
378.24	2365.40
378.45	2228.19
378.66	2232.29
378.87	2029.54
379.08	2111.46
379.29	2140.13
379.50	2412.51
379.71	2236.38
379.91	2324.44
380.12	2267.10
380.33	2303.96
380.54	2170.85
380.75	2199.52
380.96	2168.80
381.17	2281.44
381.38	2260.96
381.59	2281.44
381.80	2181.09
382.00	2322.40
382.21	2320.35
382.42	2447.32
382.63	2533.34
382.84	2240.48
383.05	2359.26
383.26	2416.60
383.47	2228.19
383.68	2299.87
383.88	2316.25
384.09	2273.25
384.30	2441.18
384.51	2291.68
384.72	2250.72
384.93	2136.03
385.14	2244.57
385.35	2361.31
385.55	2111.46
385.76	2303.96
385.97	2306.01
386.18	2170.85
386.39	2164.70
386.60	2248.67
386.81	2275.29
387.02	2146.27
387.22	2176.99
387.43	2383.84
387.64	2396.12
387.85	2428.89
388.06	2508.76
388.27	3968.96
388.48	8304.51
388.68	11648.85
388.89	14255.91
389.10	15320.85
389.31	13961.00
389.52	10954.58
389.73	9619.31
389.93	8554.37
390.14	8038.28
390.35	7200.66
390.56	6340.51
390.77	5328.81
390.98	4011.97
391.18	3205.07
391.39	2822.10
391.60	2371.55
391.81	2381.79
392.02	2199.52
392.23	2486.23
392.43	2176.99
392.64	2404.32
392.85	2297.82
393.06	2461.66
393.27	2213.85
393.47	2123.74
393.68	2252.77
393.89	2213.85
394.10	2310.11
394.31	2224.09
394.52	2138.08
394.72	2238.43
394.93	2463.71
395.14	2113.50
395.35	2318.30
395.56	2121.70
395.76	2297.82
395.97	2285.53
396.18	2363.36
396.39	2406.36
396.60	2643.93
396.80	2471.90
397.01	2404.32
397.22	2295.77
397.43	2412.51
397.64	2306.01
397.84	2373.60
398.05	2430.94
398.26	2265.05
398.47	2332.64
398.67	2314.20
398.88	2248.67
399.09	2285.53
399.30	2197.47
399.51	2301.92
399.71	2138.08
399.92	2238.43
400.13	2310.11
400.34	2228.19
400.54	2187.23
400.75	2435.03
400.96	2244.57
401.17	2422.75
401.37	2242.53
401.58	2265.05
401.79	2211.81
402.00	2371.55
402.21	2658.26
402.41	2580.44
402.62	2539.48
402.83	2660.31
403.04	2621.40
403.24	2725.85
403.45	2404.32
403.66	2471.90
403.87	2570.20
404.07	2549.72
404.28	2533.34
404.49	2486.23
404.70	2277.34
404.90	2396.12
405.11	2252.77
405.32	2291.68
405.52	2226.14
405.73	2093.02
405.94	2215.90
406.15	2115.55
406.35	2244.57
406.56	2326.49
406.77	2363.36
406.98	2224.09
407.18	2224.09
407.39	2441.18
407.60	2195.42
407.80	2392.03
408.01	2232.29
408.22	2310.11
408.43	2144.22
408.63	2310.11
408.84	2285.53
409.05	2299.87
409.25	2197.47
409.46	2187.23
409.67	2271.20
409.88	2242.53
410.08	2228.19
410.29	2246.62
410.50	2355.16
410.70	2275.29
410.91	2138.08
411.12	2265.05
411.32	2213.85
411.53	2176.99
411.74	2332.64
411.95	2365.40
412.15	2408.41
412.36	2432.99
412.57	2428.89
412.77	2422.75
412.98	2260.96
413.19	2242.53
413.39	2299.87
413.60	2310.11
413.81	2351.07
414.01	2244.57
414.22	2267.10
414.43	2355.16
414.63	2265.05
414.84	2326.49
415.05	2236.38
415.25	2082.78
415.46	2322.40
415.67	2160.61
415.87	2293.72
416.08	2275.29
416.29	2187.23
416.49	2291.68
416.70	2174.94
416.91	2203.61
417.11	2176.99
417.32	2346.97
417.53	2322.40
417.73	2265.05
417.94	2312.16
418.15	2283.49
418.35	2252.77
418.56	2260.96
418.77	2539.48
418.97	2191.33
419.18	2234.33
419.38	2043.87
419.59	2246.62
419.80	2389.98
420.00	2187.23
420.21	2258.91
420.42	2361.31
420.62	2236.38
420.83	2162.66
421.04	2209.76
421.24	2199.52
421.45	2430.94
421.65	2256.86
421.86	2127.84
422.07	2355.16
422.27	2295.77
422.48	2265.05
422.69	2136.03
422.89	2316.25
423.10	2197.47
423.30	2123.74
423.51	2273.25
423.72	2248.67
423.92	2371.55
424.13	2232.29
424.33	2285.53
424.54	2332.64
424.75	2303.96
424.95	2418.65
425.16	2273.25
425.36	2201.57
425.57	2426.84
425.78	2289.63
425.98	2318.30
426.19	2207.71
426.39	2146.27
426.60	2256.86
426.81	2367.45
427.01	2295.77
427.22	2095.07
427.42	2150.37
427.63	2146.27
427.83	2349.02
428.04	2426.84
428.25	2383.84
428.45	2312.16
428.66	2459.61
428.86	2220.00
429.07	2213.85
429.28	2209.76
429.48	2232.29
429.69	2170.85
429.89	2318.30
430.10	2129.89
430.30	2359.26
430.51	2379.74
430.71	2174.94
430.92	2252.77
431.13	2201.57
431.33	2340.83
431.54	2232.29
431.74	2416.60
431.95	2453.47
432.15	2162.66
432.36	2240.48
432.56	2310.11
432.77	2365.40
432.98	2371.55
433.18	2228.19
433.39	2226.14
433.59	2277.34
433.80	2531.29
434.00	2531.29
434.21	2170.85
434.41	2129.89
434.62	2492.38
434.82	2226.14
435.03	2183.13
435.23	2269.15
435.44	2064.35
435.64	2148.32
435.85	2250.72
436.06	2342.88
436.26	2379.74
436.47	2226.14
436.67	2203.61
436.88	2203.61
437.08	2412.51
437.29	2432.99
437.49	2324.44
437.70	2361.31
437.90	2273.25
438.11	2400.22
438.31	2402.27
438.52	2521.05
438.72	2400.22
438.93	2498.52
439.13	2351.07
439.34	2359.26
439.54	2285.53
439.75	2283.49
439.95	2320.35
440.16	2308.06
440.36	2195.42
440.57	2324.44
440.77	2289.63
440.98	2342.88
441.18	2310.11
441.39	2193.37
441.59	2162.66
441.80	2525.15
442.00	2336.73
442.21	2369.50
442.41	2093.02
442.62	2408.41
442.82	2254.81
443.02	2277.34
443.23	2269.15
443.43	2254.81
443.64	2351.07
443.84	2207.71
444.05	2408.41
444.25	2236.38
444.46	2267.10
444.66	2224.09
444.87	2475.99
445.07	2086.88
445.28	2230.24
445.48	2441.18
445.69	2359.26
445.89	2539.48
446.09	2310.11
446.30	2600.92
446.50	2797.53
446.71	4358.08
446.91	5400.49
447.12	6332.32
447.32	6586.27
447.53	6291.36
447.73	5113.78
447.93	4569.02
448.14	4212.67
448.34	4026.31
448.55	3598.28
448.75	3571.66
448.96	3450.83
449.16	3065.81
449.36	2891.73
449.57	2537.43
449.77	2381.79
449.98	2371.55
450.18	2385.88
450.39	2318.30
450.59	2424.80
450.79	2279.39
451.00	2195.42
451.20	2430.94
451.41	2269.15
451.61	2338.78
451.81	2250.72
452.02	2244.57
452.22	2144.22
452.43	2170.85
452.63	2230.24
452.84	2299.87
453.04	2203.61
453.24	2269.15
453.45	2246.62
453.65	2273.25
453.86	2207.71
454.06	2283.49
454.26	2299.87
454.47	2199.52
454.67	2439.13
454.87	2326.49
455.08	2254.81
455.28	2410.46
455.49	2254.81
455.69	2201.57
455.89	2480.09
456.10	2332.64
456.30	2197.47
456.51	2404.32
456.71	2314.20
456.91	2289.63
457.12	2336.73
457.32	2326.49
457.52	2076.64
457.73	2306.01
457.93	2338.78
458.14	2215.90
458.34	2121.70
458.54	2211.81
458.75	2193.37
458.95	2359.26
459.15	2328.54
459.36	2314.20
459.56	2318.30
459.76	2471.90
459.97	2297.82
460.17	2240.48
460.37	2351.07
460.58	2263.01
460.78	2250.72
460.99	2242.53
461.19	2248.67
461.39	2279.39
461.60	2248.67
461.80	2301.92
462.00	2172.89
462.21	2258.91
462.41	2142.18
462.61	2258.91
462.82	2207.71
463.02	2324.44
463.22	2303.96
463.43	2314.20
463.63	2232.29
463.83	2322.40
464.04	2213.85
464.24	2252.77
464.44	2113.50
464.64	2285.53
464.85	2310.11
465.05	2342.88
465.25	2199.52
465.46	2201.57
465.66	2344.92
465.86	2351.07
466.07	2250.72
466.27	2287.58
466.47	2176.99
466.68	2076.64
466.88	2453.47
467.08	2314.20
467.29	2375.64
467.49	2277.34
467.69	2166.75
467.89	2297.82
468.10	2201.57
468.30	2324.44
468.50	2361.31
468.71	2375.64
468.91	2115.55
469.11	2441.18
469.31	2295.77
469.52	2127.84
469.72	2512.86
469.92	2461.66
470.13	2250.72
470.33	2275.29
470.53	2400.22
470.73	2715.61
470.94	3135.44
471.14	3260.37
471.34	3604.42
471.54	3346.38
471.75	3164.11
471.95	2770.90
472.15	2775.00
472.36	2828.24
472.56	2676.70
472.76	2719.70
472.96	2629.59
473.17	2605.02
473.37	2453.47
473.57	2308.06
473.77	2328.54
473.98	2318.30
474.18	2181.09
474.38	2625.50
474.58	2154.46
474.79	2170.85
474.99	2306.01
475.19	2428.89
475.39	2168.80
475.60	2306.01
475.80	2328.54
476.00	2351.07
476.20	2168.80
476.41	2224.09
476.61	2353.12
476.81	2408.41
477.01	2191.33
477.21	2437.08
477.42	2328.54
477.62	2201.57
477.82	2404.32
478.02	2269.15
478.23	2316.25
478.43	2129.89
478.63	2250.72
478.83	2152.42
479.03	2316.25
479.24	2447.32
479.44	2416.60
479.64	2275.29
479.84	2064.35
480.04	2207.71
480.25	2367.45
480.45	2146.27
480.65	2226.14
480.85	2414.56
481.06	2183.13
481.26	2199.52
481.46	2346.97
481.66	2322.40
481.86	2199.52
482.06	2420.70
482.27	2203.61
482.47	2176.99
482.67	2254.81
482.87	2187.23
483.07	2418.65
483.28	2162.66
483.48	2170.85
483.68	2267.10
483.88	2185.18
484.08	2062.30
484.29	2181.09
484.49	2250.72
484.69	2093.02
484.89	2478.04
485.09	2314.20
485.29	2279.39
485.50	2217.95
485.70	2228.19
485.90	2367.45
486.10	2310.11
486.30	2301.92
486.50	2392.03
486.71	2297.82
486.91	2330.59
487.11	2336.73
487.31	2193.37
487.51	2306.01
487.71	2154.46
487.91	2164.70
488.12	2211.81
488.32	2050.02
488.52	2281.44
488.72	2078.69
488.92	2287.58
489.12	2330.59
489.32	2349.02
489.53	2293.72
489.73	2179.04
489.93	2363.36
490.13	2289.63
490.33	2146.27
490.53	2250.72
490.73	2420.70
490.94	2166.75
491.14	2359.26
491.34	2342.88
491.54	2637.78
491.74	3145.68
491.94	3712.97
492.14	4065.22
492.34	4110.27
492.54	3895.24
492.75	3248.08
492.95	3174.35
493.15	2848.72
493.35	2846.68
493.55	2840.53
493.75	2725.85
493.95	2744.28
494.15	2580.44
494.35	2482.14
494.56	2357.21
494.76	2207.71
494.96	2318.30
495.16	2269.15
495.36	2211.81
495.56	2301.92
495.76	2291.68
495.96	2248.67
496.16	2209.76
496.36	2469.85
496.56	2263.01
496.77	2342.88
496.97	2244.57
497.17	2412.51
497.37	2207.71
497.57	2322.40
497.77	2287.58
497.97	2170.85
498.17	2310.11
498.37	2121.70
498.57	2367.45
498.77	2191.33
498.97	2330.59
499.17	2428.89
499.38	2287.58
499.58	2226.14
499.78	2379.74
499.98	2441.18
500.18	2297.82
500.38	2193.37
500.58	2441.18
500.78	2957.27
500.98	5109.68
501.18	7079.83
501.38	8877.94
501.58	9863.02
501.78	9719.66
501.98	7581.58
502.18	6401.95
502.38	5490.60
502.58	5246.90
502.78	4657.08
502.98	4579.26
503.18	4290.49
503.38	3870.66
503.59	3430.35
503.79	3223.50
503.99	2944.98
504.19	2863.06
504.39	2805.72
504.59	2912.21
504.79	2758.61
504.99	2811.86
505.19	2541.53
505.39	2473.95
505.59	2713.56
505.79	2584.54
505.99	2478.04
506.19	2326.49
506.39	2478.04
506.59	2285.53
506.79	2269.15
506.99	2314.20
507.19	2293.72
507.39	2291.68
507.59	2213.85
507.79	2146.27
507.99	2166.75
508.19	2252.77
508.39	2256.86
508.59	2289.63
508.79	2457.56
508.99	2443.23
509.19	2222.05
509.39	2332.64
509.59	2224.09
509.79	2215.90
509.99	2351.07
510.19	2340.83
510.39	2252.77
510.59	2301.92
510.79	2199.52
510.99	2113.50
511.19	2232.29
511.39	2428.89
511.59	2396.12
511.79	2432.99
511.99	2273.25
512.19	2449.37
512.38	2265.05
512.58	2217.95
512.78	2246.62
512.98	2449.37
513.18	2426.84
513.38	2136.03
513.58	2295.77
513.78	2158.56
513.98	2232.29
514.18	2250.72
514.38	2211.81
514.58	2365.40
514.78	2215.90
514.98	2125.79
515.18	2183.13
515.38	2172.89
515.58	2412.51
515.78	2187.23
515.98	2279.39
516.18	2392.03
516.38	2258.91
516.57	2234.33
516.77	2226.14
516.97	2283.49
517.17	2217.95
517.37	2125.79
517.57	2342.88
517.77	2234.33
517.97	2224.09
518.17	2254.81
518.37	2172.89
518.57	2191.33
518.77	2252.77
518.97	2291.68
519.16	2260.96
519.36	2291.68
519.56	2263.01
519.76	2252.77
519.96	2111.46
520.16	2441.18
520.36	2230.24
520.56	2385.88
520.76	2267.10
520.96	2283.49
521.16	2297.82
521.35	2371.55
521.55	2430.94
521.75	2297.82
521.95	2301.92
522.15	2205.66
522.35	2113.50
522.55	2240.48
522.75	2310.11
522.95	2228.19
523.14	2150.37
523.34	2230.24
523.54	2185.18
523.74	2367.45
523.94	2283.49
524.14	2090.98
524.34	2267.10
524.54	2365.40
524.73	2176.99
524.93	2351.07
525.13	2258.91
525.33	2146.27
525.53	2435.03
525.73	2365.40
525.93	2260.96
526.13	2234.33
526.32	2191.33
526.52	2316.25
526.72	2351.07
526.92	2197.47
527.12	2250.72
527.32	2150.37
527.52	2310.11
527.71	2265.05
527.91	2312.16
528.11	2236.38
528.31	2168.80
528.51	2207.71
528.71	2295.77
528.90	2385.88
529.10	2273.25
529.30	2314.20
529.50	2060.26
529.70	2285.53
529.90	2238.43
530.09	2256.86
530.29	2213.85
530.49	2213.85
530.69	2609.11
530.89	2269.15
531.09	2271.20
531.28	2185.18
531.48	2367.45
531.68	2252.77
531.88	2275.29
532.08	2344.92
532.28	2209.76
532.47	2367.45
532.67	2318.30
532.87	2320.35
533.07	2244.57
533.27	2277.34
533.46	2359.26
533.66	2336.73
533.86	2363.36
534.06	2291.68
534.26	2332.64
534.45	2242.53
534.65	2379.74
534.85	2244.57
535.05	2220.00
535.25	2410.46
535.44	2166.75
535.64	2314.20
535.84	2277.34
536.04	2256.86
536.24	2256.86
536.43	2187.23
536.63	2269.15
536.83	2287.58
537.03	2211.81
537.22	2193.37
537.42	2142.18
537.62	2240.48
537.82	2238.43
538.02	2375.64
538.21	2314.20
538.41	2535.39
538.61	2322.40
538.81	2236.38
539.00	2308.06
539.20	2113.50
539.40	2232.29
539.60	2308.06
539.79	2363.36
539.99	2277.34
540.19	2181.09
540.39	2174.94
540.58	2340.83
540.78	2392.03
540.98	2269.15
541.18	2359.26
541.37	2334.68
541.57	2342.88
541.77	2320.35
541.97	2181.09
542.16	2103.26
542.36	2244.57
542.56	2252.77
542.76	2441.18
542.95	2240.48
543.15	2367.45
543.35	2242.53
543.54	2220.00
543.74	2228.19
543.94	2424.80
544.14	2181.09
544.33	2363.36
544.53	2242.53
544.73	2271.20
544.93	2197.47
545.12	2256.86
545.32	2291.68
545.52	2279.39
545.71	2166.75
545.91	2203.61
546.11	2228.19
546.30	2176.99
546.50	2189.28
546.70	2365.40
546.90	2279.39
547.09	2080.74
547.29	2267.10
547.49	2310.11
547.68	2256.86
547.88	2187.23
548.08	2351.07
548.27	2727.89
548.47	2207.71
548.67	2183.13
548.87	2209.76
549.06	2136.03
549.26	2322.40
549.46	2363.36
549.65	2142.18
549.85	2252.77
550.05	2291.68
550.24	2185.18
550.44	2203.61
550.64	2248.67
550.83	2293.72
551.03	2369.50
551.23	2340.83
551.42	2330.59
551.62	2113.50
551.82	2244.57
552.01	2172.89
552.21	2389.98
552.41	2265.05
552.60	2387.93
552.80	2297.82
553.00	2099.17
553.19	2220.00
553.39	2480.09
553.59	2222.05
553.78	2357.21
553.98	2281.44
554.17	2236.38
554.37	2373.60
554.57	2252.77
554.76	2133.98
554.96	2220.00
555.16	2355.16
555.35	2240.48
555.55	2353.12
555.75	2260.96
555.94	2346.97
556.14	2097.12
556.33	2334.68
556.53	2242.53
556.73	2244.57
556.92	2322.40
557.12	2324.44
557.32	2467.80
557.51	2420.70
557.71	2301.92
557.90	2437.08
558.10	2383.84
558.30	2256.86
558.49	2273.25
558.69	2252.77
558.88	2301.92
559.08	2308.06
559.28	2215.90
559.47	2269.15
559.67	2404.32
559.86	2478.04
560.06	2203.61
560.26	2250.72
560.45	2330.59
560.65	2217.95
560.84	2353.12
561.04	2138.08
561.24	2369.50
561.43	2183.13
561.63	2392.03
561.82	2324.44
562.02	2244.57
562.22	2144.22
562.41	2144.22
562.61	2220.00
562.80	2174.94
563.00	2494.43
563.19	2263.01
563.39	2293.72
563.59	2322.40
563.78	2152.42
563.98	2168.80
564.17	2162.66
564.37	2047.97
564.56	2265.05
564.76	2084.83
564.96	2463.71
565.15	2389.98
565.35	2480.09
565.54	2164.70
565.74	2306.01
565.93	2349.02
566.13	2254.81
566.32	2222.05
566.52	2273.25
566.71	2332.64
566.91	2359.26
567.11	2349.02
567.30	2234.33
567.50	2396.12
567.69	2387.93
567.89	2260.96
568.08	2201.57
568.28	2277.34
568.47	2246.62
568.67	2256.86
568.86	2185.18
569.06	2389.98
569.25	2293.72
569.45	2226.14
569.64	2228.19
569.84	2252.77
570.04	2375.64
570.23	2203.61
570.43	2148.32
570.62	2295.77
570.82	2447.32
571.01	2146.27
571.21	2154.46
571.40	2201.57
571.60	2318.30
571.79	2349.02
571.99	2234.33
572.18	2207.71
572.38	2318.30
572.57	2201.57
572.77	2308.06
572.96	2570.20
573.16	2263.01
573.35	2232.29
573.55	2385.88
573.74	2326.49
573.94	2232.29
574.13	2269.15
574.33	2414.56
574.52	2473.95
574.71	2275.29
574.91	2211.81
575.10	2138.08
575.30	2285.53
575.49	2230.24
575.69	2273.25
575.88	2281.44
576.08	2238.43
576.27	2414.56
576.47	2342.88
576.66	2422.75
576.86	2437.08
577.05	2334.68
577.25	2324.44
577.44	2523.10
577.64	2246.62
577.83	2437.08
578.02	2260.96
578.22	2379.74
578.41	2449.37
578.61	2248.67
578.80	2158.56
579.00	2310.11
579.19	2306.01
579.39	2320.35
579.58	2340.83
579.77	2269.15
579.97	2412.51
580.16	2451.42
580.36	2371.55
580.55	2394.08
580.75	2361.31
580.94	2365.40
581.13	2430.94
581.33	2459.61
581.52	2275.29
581.72	2439.13
581.91	2445.27
582.11	2314.20
582.30	2365.40
582.49	2314.20
582.69	2496.47
582.88	2269.15
583.08	2392.03
583.27	2408.41
583.47	2320.35
583.66	2168.80
583.85	2283.49
584.05	2260.96
584.24	2275.29
584.44	2353.12
584.63	2455.51
584.82	2367.45
585.02	2402.27
585.21	2353.12
585.41	2482.14
585.60	2449.37
585.79	2553.82
585.99	2490.33
586.18	2482.14
586.37	3057.62
586.57	4657.08
586.76	13997.87
586.96	33287.68
587.15	47269.17
587.34	56134.82
587.54	61422.68
587.73	56399.01
587.93	39884.19
588.12	30189.11
588.31	24209.04
588.51	20987.58
588.70	19287.77
588.89	17469.17
589.09	15132.44
589.28	13025.08
589.47	10674.01
589.67	8361.86
589.86	6352.80
590.06	4581.31
590.25	3862.47
590.44	3258.32
590.64	2789.33
590.83	2590.68
591.02	2568.15
591.22	2496.47
591.41	2447.32
591.60	2342.88
591.80	2570.20
591.99	2197.47
592.18	2293.72
592.38	2398.17
592.57	2301.92
592.76	2326.49
592.96	2389.98
593.15	2306.01
593.34	2361.31
593.54	2281.44
593.73	2330.59
593.92	2340.83
594.12	2381.79
594.31	2236.38
594.50	2510.81
594.70	2371.55
594.89	2543.58
595.08	2105.31
595.28	2359.26
595.47	2586.58
595.66	2381.79
595.86	2201.57
596.05	2293.72
596.24	2312.16
596.43	2482.14
596.63	2394.08
596.82	2361.31
597.01	2254.81
597.21	2562.01
597.40	2379.74
597.59	2355.16
597.79	2226.14
597.98	2316.25
598.17	2351.07
598.36	2285.53
598.56	2373.60
598.75	2256.86
598.94	2334.68
599.14	2299.87
599.33	2248.67
599.52	2351.07
599.71	2277.34
599.91	2459.61
600.10	2394.08
600.29	2301.92
600.48	2379.74
600.68	2342.88
600.87	2258.91
601.06	2203.61
601.26	2244.57
601.45	2392.03
601.64	2230.24
601.83	2394.08
602.03	2207.71
602.22	2168.80
602.41	2383.84
602.60	2584.54
602.80	2340.83
602.99	2377.69
603.18	2258.91
603.37	2340.83
603.57	2287.58
603.76	2375.64
603.95	2512.86
604.14	2234.33
604.34	2228.19
604.53	2279.39
604.72	2334.68
604.91	2297.82
605.10	2389.98
605.30	2193.37
605.49	2531.29
605.68	2299.87
605.87	2295.77
606.07	2052.06
606.26	2217.95
606.45	2349.02
606.64	2324.44
606.84	2209.76
607.03	2346.97
607.22	2346.97
607.41	2308.06
607.60	2293.72
607.80	2365.40
607.99	2324.44
608.18	2287.58
608.37	2271.20
608.56	2236.38
608.76	2392.03
608.95	2504.67
609.14	2340.83
609.33	2455.51
609.52	2377.69
609.72	2410.46
609.91	2367.45
610.10	2291.68
610.29	2387.93
610.48	2273.25
610.68	2301.92
610.87	2252.77
611.06	2371.55
611.25	2228.19
611.44	2443.23
611.63	2195.42
611.83	2473.95
612.02	2156.51
612.21	2408.41
612.40	2111.46
612.59	2101.22
612.79	2195.42
612.98	2365.40
613.17	2385.88
613.36	2289.63
613.55	2461.66
613.74	2336.73
613.93	2342.88
614.13	2432.99
614.32	2455.51
614.51	2531.29
614.70	2369.50
614.89	2287.58
615.08	2389.98
615.28	2783.19
615.47	2142.18
615.66	2361.31
615.85	2351.07
616.04	2486.23
616.23	2289.63
616.42	2271.20
616.62	2275.29
616.81	2328.54
617.00	2250.72
617.19	2361.31
617.38	2197.47
617.57	2273.25
617.76	2330.59
617.95	2359.26
618.15	2353.12
618.34	2424.80
618.53	2160.61
618.72	2461.66
618.91	2441.18
619.10	2412.51
619.29	2281.44
619.48	2273.25
619.68	2172.89
619.87	2224.09
620.06	2111.46
620.25	2269.15
620.44	2193.37
620.63	2283.49
620.82	2220.00
621.01	2392.03
621.20	2265.05
621.39	2312.16
621.59	2330.59
621.78	2252.77
621.97	2297.82
622.16	2299.87
622.35	2357.21
622.54	2367.45
622.73	2461.66
622.92	2101.22
623.11	2306.01
623.30	2279.39
623.49	2381.79
623.68	2158.56
623.88	2430.94
624.07	2258.91
624.26	2232.29
624.45	2306.01
624.64	2183.13
624.83	2252.77
625.02	2222.05
625.21	2263.01
625.40	2281.44
625.59	2361.31
625.78	2211.81
625.97	2416.60
626.16	2424.80
626.35	2445.27
626.54	2346.97
626.74	2473.95
626.93	2291.68
627.12	2338.78
627.31	2295.77
627.50	2287.58
627.69	2328.54
627.88	2183.13
628.07	2258.91
628.26	2201.57
628.45	2197.47
628.64	2181.09
628.83	2318.30
629.02	2080.74
629.21	2283.49
629.40	2303.96
629.59	2113.50
629.78	2193.37
629.97	2250.72
630.16	2250.72
630.35	2226.14
630.54	2295.77
630.73	2199.52
630.92	2303.96
631.11	2193.37
631.30	2344.92
631.49	2285.53
631.68	2291.68
631.87	2269.15
632.06	2230.24
632.25	2541.53
632.44	2303.96
632.63	2297.82
632.82	2377.69
633.01	2308.06
633.20	2334.68
633.39	2273.25
633.58	2211.81
633.77	2420.70
633.96	2318.30
634.15	2346.97
634.34	2318.30
634.53	2318.30
634.72	2275.29
634.91	2150.37
635.10	2269.15
635.29	2308.06
635.48	2250.72
635.67	2189.28
635.86	2105.31
636.05	2340.83
636.24	2260.96
636.43	2275.29
636.62	2355.16
636.81	1998.82
637.00	2277.34
637.19	2301.92
637.38	2312.16
637.57	2281.44
637.76	2301.92
637.95	2430.94
638.14	2316.25
638.33	2338.78
638.52	2410.46
638.71	2154.46
638.89	2197.47
639.08	2555.86
639.27	2430.94
639.46	2439.13
639.65	2844.63
639.84	2914.26
640.03	2998.23
640.22	2809.81
640.41	2963.41
640.60	2523.10
640.79	2582.49
640.98	2453.47
641.17	2451.42
641.36	2457.56
641.55	2492.38
641.74	2295.77
641.92	2301.92
642.11	2213.85
642.30	2293.72
642.49	2201.57
642.68	2260.96
642.87	2265.05
643.06	2318.30
643.25	2166.75
643.44	2129.89
643.63	2283.49
643.82	2361.31
644.00	2160.61
644.19	2269.15
644.38	2195.42
644.57	2389.98
644.76	2246.62
644.95	2217.95
645.14	2209.76
645.33	2209.76
645.52	2265.05
645.71	2123.74
645.89	2187.23
646.08	2230.24
646.27	2144.22
646.46	2484.19
646.65	2146.27
646.84	2328.54
647.03	2160.61
647.22	2340.83
647.40	2340.83
647.59	2195.42
647.78	2088.93
647.97	2129.89
648.16	2152.42
648.35	2420.70
648.54	2387.93
648.73	2238.43
648.91	2338.78
649.10	2232.29
649.29	2205.66
649.48	2160.61
649.67	2338.78
649.86	2295.77
650.05	2316.25
650.23	2478.04
650.42	2301.92
650.61	2510.81
650.80	2512.86
650.99	2486.23
651.18	2338.78
651.36	2381.79
651.55	2209.76
651.74	2381.79
651.93	2363.36
652.12	2238.43
652.31	2260.96
652.49	2252.77
652.68	2301.92
652.87	2400.22
653.06	2224.09
653.25	2420.70
653.44	2242.53
653.62	2533.34
653.81	2248.67
654.00	2217.95
654.19	2367.45
654.38	2494.43
654.56	2316.25
654.75	2203.61
654.94	2297.82
655.13	2293.72
655.32	2162.66
655.51	2308.06
655.69	2193.37
655.88	2310.11
656.07	2176.99
656.26	2332.64
656.45	2013.15
656.63	2287.58
656.82	2250.72
657.01	2363.36
657.20	2285.53
657.38	2359.26
657.57	2250.72
657.76	2068.45
657.95	2344.92
658.14	2172.89
658.32	2269.15
658.51	2162.66
658.70	2389.98
658.89	2301.92
659.08	2246.62
659.26	2408.41
659.45	2164.70
659.64	2365.40
659.83	2295.77
660.01	2523.10
660.20	2299.87
660.39	2478.04
660.58	2158.56
660.76	2281.44
660.95	2187.23
661.14	2195.42
661.33	2170.85
661.51	2211.81
661.70	2285.53
661.89	2256.86
662.08	2162.66
662.26	2136.03
662.45	2199.52
662.64	2449.37
662.83	2371.55
663.01	2150.37
663.20	2185.18
663.39	2383.84
663.58	2203.61
663.76	2232.29
663.95	2359.26
664.14	2168.80
664.32	2183.13
664.51	2166.75
664.70	2101.22
664.89	2318.30
665.07	2129.89
665.26	2424.80
665.45	2170.85
665.64	2336.73
665.82	2291.68
666.01	2379.74
666.20	2265.05
666.38	2392.03
666.57	2357.21
666.76	3391.44
666.95	8069.00
667.13	16381.70
667.32	21311.16
667.51	25040.51
667.69	26672.74
667.88	24176.27
668.07	17260.28
668.25	13997.87
668.44	11568.98
668.63	9932.65
668.81	8564.61
669.00	7647.12
669.19	6893.46
669.38	5877.67
669.56	5191.60
669.75	4349.89
669.94	3585.99
670.12	3078.10
670.31	2770.90
670.50	2611.16
670.68	2549.72
670.87	2435.03
671.06	2373.60
671.24	2373.60
671.43	2420.70
671.62	2359.26
671.80	2303.96
671.99	2308.06
672.18	2392.03
672.36	2465.75
672.55	2275.29
672.74	2199.52
672.92	2162.66
673.11	2377.69
673.29	2113.50
673.48	2322.40
673.67	2230.24
673.85	2383.84
674.04	2166.75
674.23	2213.85
674.41	2463.71
674.60	2168.80
674.79	2146.27
674.97	2205.66
675.16	2267.10
675.34	2303.96
675.53	2201.57
675.72	2265.05
675.90	2488.28
676.09	2322.40
676.28	2250.72
676.46	2136.03
676.65	2330.59
676.83	2156.51
677.02	2252.77
677.21	2297.82
677.39	2295.77
677.58	2136.03
677.77	2131.94
677.95	2140.13
678.14	2148.32
678.32	2193.37
678.51	2238.43
678.70	2525.15
678.88	2183.13
679.07	2250.72
679.25	2273.25
679.44	2232.29
679.63	2158.56
679.81	2301.92
680.00	2326.49
680.18	2351.07
680.37	2359.26
680.55	2254.81
680.74	2160.61
680.93	2209.76
681.11	2357.21
681.30	2244.57
681.48	2277.34
681.67	2154.46
681.85	2187.23
682.04	2158.56
682.23	2342.88
682.41	2238.43
682.60	2222.05
682.78	2267.10
682.97	2109.41
683.15	2287.58
683.34	2271.20
683.53	2437.08
683.71	2142.18
683.90	2332.64
684.08	2414.56
684.27	2189.28
684.45	2236.38
684.64	2416.60
684.82	2269.15
685.01	2310.11
685.19	2242.53
685.38	2418.65
685.57	2267.10
685.75	2174.94
685.94	2170.85
686.12	2176.99
686.31	2179.04
686.49	2449.37
686.68	2074.59
686.86	2349.02
687.05	2297.82
687.23	2414.56
687.42	2220.00
687.60	2052.06
687.79	2240.48
687.97	2367.45
688.16	2291.68
688.34	2342.88
688.53	2080.74
688.71	2297.82
688.90	2363.36
689.08	2258.91
689.27	2121.70
689.45	2271.20
689.64	2367.45
689.82	2301.92
690.01	2279.39
690.19	2314.20
690.38	2232.29
690.56	2326.49
690.75	2138.08
690.93	2224.09
691.12	2226.14
691.30	2242.53
691.49	2248.67
691.67	2254.81
691.86	2504.67
692.04	2215.90
692.23	2228.19
692.41	2269.15
692.60	2473.95
692.78	2430.94
692.97	2301.92
693.15	2256.86
693.34	2414.56
693.52	2375.64
693.71	2207.71
693.89	2267.10
694.08	2105.31
694.26	2369.50
694.44	2326.49
694.63	2349.02
694.81	2170.85
695.00	2172.89
695.18	2322.40
695.37	2490.33
695.55	2211.81
695.74	2236.38
695.92	2136.03
696.10	2412.51
696.29	2111.46
696.47	2226.14
696.66	2131.94
696.84	2226.14
697.03	2310.11
697.21	2416.60
697.40	3348.43
697.58	2406.36
697.76	2154.46
697.95	2187.23
698.13	2148.32
698.32	2211.81
698.50	2217.95
698.68	2301.92
698.87	2258.91
699.05	2430.94
699.24	2242.53
699.42	2144.22
699.61	2258.91
699.79	2236.38
699.97	2181.09
700.16	2162.66
700.34	2152.42
700.53	2271.20
700.71	2400.22
700.89	2273.25
701.08	2254.81
701.26	2293.72
701.45	2742.23
701.63	2228.19
701.81	2172.89
702.00	2197.47
702.18	2326.49
702.37	2308.06
702.55	2498.52
702.73	2400.22
702.92	2379.74
703.10	2609.11
703.28	2504.67
703.47	2248.67
703.65	2521.05
703.84	2392.03
704.02	2263.01
704.20	2471.90
704.39	2263.01
704.57	2283.49
704.75	2402.27
704.94	2367.45
705.12	2330.59
705.30	2498.52
705.49	4444.09
705.67	10440.54
705.86	18288.36
706.04	21841.59
706.22	25169.54
706.41	25966.20
706.59	22187.69
706.77	15603.47
706.96	13063.99
707.14	11466.58
707.32	9836.39
707.51	8867.70
707.69	7352.21
707.87	5840.81
708.06	4816.82
708.24	3909.57
708.42	3286.99
708.61	3014.61
708.79	2455.51
708.97	2439.13
709.16	2404.32
709.34	2326.49
709.52	2297.82
709.71	2303.96
709.89	2367.45
710.07	2248.67
710.26	2191.33
710.44	2273.25
710.62	2387.93
710.80	2244.57
710.99	2402.27
711.17	2273.25
711.35	2183.13
711.54	2164.70
711.72	2293.72
711.90	2260.96
712.09	2207.71
712.27	2211.81
712.45	2322.40
712.63	2232.29
712.82	2240.48
713.00	2220.00
713.18	2392.03
713.37	2371.55
713.55	2295.77
713.73	2320.35
713.91	2344.92
714.10	2263.01
714.28	2217.95
714.46	2201.57
714.65	2363.36
714.83	2244.57
715.01	2263.01
715.19	2265.05
715.38	2105.31
715.56	2318.30
715.74	2179.04
715.92	2191.33
716.11	2383.84
716.29	2066.40
716.47	2252.77
716.65	2273.25
716.84	2105.31
717.02	2281.44
717.20	2121.70
717.38	2215.90
717.57	2248.67
717.75	2326.49
717.93	2179.04
718.11	2301.92
718.30	2152.42
718.48	2359.26
718.66	2301.92
718.84	2396.12
719.03	2291.68
719.21	2099.17
719.39	2414.56
719.57	2330.59
719.75	2285.53
719.94	2181.09
720.12	2215.90
720.30	2310.11
720.48	2334.68
720.67	2166.75
720.85	2201.57
721.03	2252.77
721.21	2195.42
721.39	2324.44
721.58	2287.58
721.76	2303.96
721.94	2400.22
722.12	2369.50
722.30	2383.84
722.49	2234.33
722.67	2295.77
722.85	2283.49
723.03	2170.85
723.21	2174.94
723.40	2226.14
723.58	2389.98
723.76	2379.74
723.94	2396.12
724.12	2344.92
724.30	2412.51
724.49	2449.37
724.67	2187.23
724.85	2430.94
725.03	2174.94
725.21	2412.51
725.40	2367.45
725.58	2209.76
725.76	2291.68
725.94	2344.92
726.12	2168.80
726.30	2279.39
726.49	2185.18
726.67	2226.14
726.85	2260.96
727.03	2543.58
727.21	3538.89
727.39	5111.73
727.57	5920.68
727.76	6494.11
727.94	6907.80
728.12	6473.63
728.30	5199.79
728.48	4513.72
728.66	4143.04
728.84	3715.02
729.03	3323.85
729.21	3006.42
729.39	2789.33
729.57	2480.09
729.75	2404.32
729.93	2381.79
730.11	2228.19
730.30	2283.49
730.48	2242.53
730.66	2340.83
730.84	2367.45
731.02	2220.00
731.20	2211.81
731.38	2252.77
731.56	2101.22
731.74	2176.99
731.93	2277.34
732.11	2176.99
732.29	2187.23
732.47	2211.81
732.65	2265.05
732.83	2435.03
733.01	2293.72
733.19	2093.02
733.37	2326.49
733.56	2242.53
733.74	2195.42
733.92	2420.70
734.10	2265.05
734.28	2328.54
734.46	2045.92
734.64	2217.95
734.82	2164.70
735.00	2191.33
735.18	2220.00
735.36	2283.49
735.54	2220.00
735.73	2222.05
735.91	2275.29
736.09	2260.96
736.27	2265.05
736.45	2334.68
736.63	2054.11
736.81	2133.98
736.99	2277.34
737.17	2383.84
737.35	2191.33
737.53	2281.44
737.71	2248.67
737.89	2432.99
738.07	2228.19
738.25	2224.09
738.43	2101.22
738.61	2252.77
738.80	2119.65
738.98	2193.37
739.16	2248.67
739.34	2127.84
739.52	2406.36
739.70	2230.24
739.88	2306.01
740.06	2351.07
740.24	2037.73
740.42	2328.54
740.60	2150.37
740.78	2203.61
740.96	2123.74
741.14	2201.57
741.32	2267.10
741.50	2062.30
741.68	2473.95
741.86	2457.56
742.04	2252.77
742.22	2129.89
742.40	2281.44
742.58	2310.11
742.76	2201.57
742.94	2375.64
743.12	2095.07
743.30	2244.57
743.48	2232.29
743.66	2209.76
743.84	2205.66
744.02	2183.13
744.20	2207.71
744.38	2097.12
744.56	2144.22
744.74	2430.94
744.92	2326.49
745.10	2437.08
745.28	2357.21
745.46	2392.03
745.64	2185.18
745.82	2234.33
746.00	2201.57
746.18	2293.72
746.36	2197.47
746.54	2236.38
746.72	2244.57
746.90	2228.19
747.08	2316.25
747.26	2269.15
747.44	2324.44
747.62	2308.06
747.80	2256.86
747.98	2301.92
748.15	2246.62
748.33	2471.90
748.51	2224.09
748.69	2340.83
748.87	2166.75
749.05	2269.15
749.23	2271.20
749.41	2381.79
749.59	2248.67
749.77	2439.13
749.95	2242.53
750.13	2138.08
750.31	2291.68
750.49	2185.18
750.67	2318.30
750.85	2367.45
751.03	2297.82
751.20	2473.95
751.38	2265.05
751.56	2236.38
751.74	2209.76
751.92	2193.37
752.10	2058.21
752.28	2316.25
752.46	2232.29
752.64	2271.20
752.82	2312.16
753.00	2369.50
753.18	2156.51
753.35	2291.68
753.53	2269.15
753.71	2258.91
753.89	2279.39
754.07	2240.48
754.25	2363.36
754.43	2260.96
754.61	2142.18
754.79	2287.58
754.97	2156.51
755.14	2377.69
755.32	2176.99
755.50	2220.00
755.68	2240.48
755.86	2129.89
756.04	2201.57
756.22	2099.17
756.40	2310.11
756.57	2435.03
756.75	2205.66
756.93	2312.16
757.11	2336.73
757.29	2097.12
757.47	2160.61
757.65	2107.36
757.82	2033.63
758.00	2109.41
758.18	2146.27
758.36	2170.85
758.54	2426.84
758.72	2035.68
758.90	2432.99
759.07	2238.43
759.25	2166.75
759.43	2281.44
759.61	2078.69
759.79	3133.39
759.97	2349.02
760.15	2179.04
760.32	2203.61
760.50	2172.89
760.68	2410.46
760.86	2179.04
761.04	2326.49
761.22	2346.97
761.39	2267.10
761.57	2252.77
761.75	2277.34
761.93	2252.77
762.11	2293.72
762.28	2203.61
762.46	2199.52
762.64	2293.72
762.82	2115.55
763.00	2244.57
763.18	2351.07
763.35	2160.61
763.53	2402.27
763.71	2244.57
763.89	2301.92
764.07	2215.90
764.24	2125.79
764.42	2320.35
764.60	2183.13
764.78	2306.01
764.96	2254.81
765.13	2297.82
765.31	2193.37
765.49	2383.84
765.67	2105.31
765.84	2187.23
766.02	2224.09
766.20	2103.26
766.38	2234.33
766.56	2217.95
766.73	2367.45
766.91	2279.39
767.09	2258.91
767.27	2379.74
767.44	2185.18
767.62	2318.30
767.80	2211.81
767.98	2152.42
768.15	2185.18
768.33	2301.92
768.51	2400.22
768.69	2275.29
768.87	2301.92
769.04	2279.39
769.22	2465.75
769.40	2336.73
769.58	2508.76
769.75	2273.25
769.93	2334.68
770.11	2220.00
770.28	2220.00
770.46	2375.64
770.64	2232.29
770.82	2170.85
770.99	2209.76
771.17	2275.29
771.35	2183.13
771.53	2252.77
771.70	2160.61
771.88	2271.20
772.06	2207.71
772.23	2238.43
772.41	2359.26
772.59	2222.05
772.77	2054.11
772.94	2224.09
773.12	2314.20
773.30	2179.04
773.47	2287.58
773.65	2148.32
773.83	2357.21
774.01	2269.15
774.18	2064.35
774.36	2203.61
774.54	2156.51
774.71	2195.42
774.89	2064.35
775.07	2162.66
775.24	2168.80
775.42	2220.00
775.60	2389.98
775.78	2271.20
775.95	2066.40
776.13	2064.35
776.31	2095.07
776.48	2203.61
776.66	2379.74
776.84	2230.24
777.01	2148.32
777.19	2146.27
777.37	2170.85
777.54	2461.66
777.72	2498.52
777.90	2269.15
778.07	2201.57
778.25	2586.58
778.43	2299.87
778.60	2197.47
778.78	2303.96
778.96	2344.92
779.13	2201.57
779.31	2289.63
779.49	2269.15
779.66	2260.96
779.84	2242.53
780.01	2310.11
780.19	2158.56
780.37	2377.69
780.54	2334.68
780.72	2162.66
780.90	2273.25
781.07	2258.91
781.25	2162.66
781.43	2330.59
781.60	2207.71
781.78	2406.36
781.95	2267.10
782.13	2152.42
782.31	2183.13
782.48	2047.97
782.66	2301.92
782.83	2420.70
783.01	2232.29
783.19	2301.92
783.36	2144.22
783.54	2170.85
783.72	2289.63
783.89	2207.71
784.07	2236.38
784.24	2324.44
784.42	2291.68
784.60	2314.20
784.77	2283.49
784.95	2097.12
785.12	2215.90
785.30	2273.25
785.47	2195.42
785.65	2156.51
785.83	2220.00
786.00	2176.99
786.18	2236.38
786.35	2133.98
786.53	2136.03
786.71	2346.97
786.88	2349.02
787.06	2267.10
787.23	2224.09
787.41	2088.93
787.58	2230.24
787.76	2133.98
787.94	2183.13
788.11	2342.88
788.29	2164.70
788.46	2211.81
788.64	2025.44
788.81	2136.03
788.99	2088.93
789.16	2123.74
789.34	2201.57
789.52	2154.46
789.69	2277.34
789.87	2121.70
790.04	2285.53
790.22	2211.81
790.39	2396.12
790.57	2181.09
790.74	2125.79
790.92	2449.37
791.09	2105.31
791.27	2238.43
791.44	2359.26
791.62	2201.57
791.79	2306.01
791.97	2193.37
792.15	2514.91
792.32	2318.30
792.50	2385.88
792.67	2322.40
792.85	2344.92
793.02	2267.10
793.20	2230.24
793.37	2119.65
793.55	2211.81
793.72	2088.93
793.90	2351.07
794.07	2158.56
794.25	2097.12
794.42	2301.92
794.60	2285.53
794.77	2322.40
794.95	2318.30
795.12	2381.79
795.30	2260.96
795.47	2088.93
795.65	2500.57
795.82	2285.53
796.00	2152.42
796.17	2232.29
796.34	2185.18
796.52	2203.61
796.69	2392.03
796.87	2316.25
797.04	2269.15
797.22	2283.49
797.39	2342.88
797.57	2346.97
797.74	2254.81
797.92	2224.09
798.09	2226.14
798.27	2396.12
798.44	2240.48
798.62	2146.27
798.79	2340.83
798.96	2215.90
799.14	2322.40
799.31	2453.47
799.49	2189.28
799.66	2154.46
799.84	2228.19
800.01	2109.41
800.19	2291.68
800.36	2031.58
800.53	2271.20
800.71	2293.72
800.88	2414.56
801.06	2152.42
801.23	2172.89
801.41	2250.72
801.58	2254.81
801.75	2228.19
801.93	2316.25
802.10	2322.40
802.28	2166.75
802.45	2179.04
802.63	2285.53
802.80	2349.02
802.97	2205.66
803.15	2201.57
803.32	2248.67
803.50	2203.61
803.67	2238.43
803.84	2133.98
804.02	2252.77
804.19	2277.34
804.37	2015.20
804.54	2105.31
804.71	2152.42
804.89	2248.67
805.06	2133.98
805.24	2193.37
805.41	2154.46
805.58	2095.07
805.76	2488.28
805.93	2215.90
806.10	2414.56
806.28	2265.05
806.45	2275.29
806.63	2181.09
806.80	2185.18
806.97	2279.39
807.15	2267.10
807.32	2189.28
807.49	2230.24
807.67	2086.88
807.84	2303.96
808.01	2146.27
808.19	2412.51
808.36	2498.52
808.54	2191.33
808.71	2105.31
808.88	2224.09
809.06	2285.53
809.23	2410.46
809.40	2199.52
809.58	2207.71
809.75	2146.27
809.92	2152.42
810.10	2416.60
810.27	2199.52
810.44	2283.49
810.62	2267.10
810.79	2314.20
810.96	2166.75
811.14	2250.72
811.31	2398.17
811.48	2318.30
811.66	2297.82
811.83	2359.26
812.00	2355.16
812.18	2340.83
812.35	2463.71
812.52	2174.94
812.69	2148.32
812.87	2213.85
813.04	2146.27
813.21	2250.72
813.39	2250.72
813.56	2191.33
813.73	2316.25
813.91	2004.96
814.08	2318.30
814.25	2260.96
814.42	2072.54
814.60	2183.13
814.77	2260.96
814.94	2258.91
815.12	2215.90
815.29	2367.45
815.46	2113.50
815.63	2217.95
815.81	2195.42
815.98	2201.57
816.15	2265.05
816.33	2275.29
816.50	2185.18
816.67	2244.57
816.84	2256.86
817.02	2076.64
817.19	2158.56
817.36	2281.44
817.53	2314.20
817.71	2088.93
817.88	2263.01
818.05	2215.90
818.22	2328.54
818.40	2389.98
818.57	2220.00
818.74	2267.10
818.91	2217.95
819.09	2267.10
819.26	2338.78
819.43	2150.37
819.60	2201.57
819.78	2346.97
819.95	2340.83
820.12	2176.99
820.29	2355.16
820.47	2387.93
820.64	2136.03
820.81	2117.60
820.98	2090.98
821.15	2215.90
821.33	2310.11
821.50	2078.69
821.67	2289.63
821.84	2199.52
822.02	2187.23
822.19	2359.26
822.36	2183.13
822.53	2201.57
822.70	2125.79
822.88	2230.24
823.05	2381.79
823.22	2267.10
823.39	2220.00
823.56	2232.29
823.74	2338.78
823.91	2230.24
824.08	2168.80
824.25	2179.04
824.42	2387.93
824.60	2109.41
824.77	2291.68
824.94	2168.80
825.11	2316.25
825.28	2138.08
825.45	2281.44
825.63	2234.33
825.80	2150.37
825.97	2256.86
826.14	2236.38
826.31	2080.74
826.48	2252.77
826.66	2170.85
826.83	2170.85
827.00	2160.61
827.17	2215.90
827.34	2314.20
827.51	2174.94
827.69	2287.58
827.86	2111.46
828.03	2162.66
828.20	2287.58
828.37	2125.79
828.54	2297.82
828.71	2220.00
828.89	2439.13
829.06	2232.29
829.23	2357.21
829.40	2144.22
829.57	2211.81
829.74	2277.34
829.91	2148.32
830.09	2156.51
830.26	2285.53
830.43	2447.32
830.60	2246.62
830.77	2375.64
830.94	2351.07
831.11	2383.84
831.28	2176.99
831.46	2328.54
831.63	2226.14
831.80	2254.81
831.97	2152.42
832.14	2211.81
832.31	2236.38
832.48	2328.54
832.65	2422.75
832.82	2226.14
832.99	2252.77
833.17	2164.70
833.34	2418.65
833.51	2234.33
833.68	2023.39
833.85	2310.11
834.02	2084.83
834.19	2121.70
834.36	2174.94
834.53	2291.68
834.70	2367.45
834.87	2269.15
835.04	2174.94
835.22	2187.23
835.39	2113.50
835.56	2037.73
835.73	2211.81
835.90	2371.55
836.07	2121.70
836.24	2365.40
836.41	2142.18
836.58	2205.66
836.75	2299.87
836.92	2242.53
837.09	2142.18
837.26	2310.11
837.43	2248.67
837.60	2211.81
837.77	2138.08
837.94	2373.60
838.12	2396.12
838.29	2166.75
838.46	2060.26
838.63	2080.74
838.80	2383.84
838.97	2338.78
839.14	2205.66
839.31	2260.96
839.48	2334.68
839.65	2156.51
839.82	2367.45
839.99	2242.53
840.16	2244.57
840.33	2199.52
840.50	2242.53
840.67	2201.57
840.84	1980.39
841.01	2166.75
841.18	2152.42
841.35	2199.52
841.52	2318.30
841.69	2412.51
841.86	2195.42
842.03	2283.49
842.20	2275.29
842.37	2142.18
842.54	2213.85
842.71	2160.61
842.88	2127.84
843.05	2181.09
843.22	2183.13
843.39	2349.02
843.56	2174.94
843.73	2146.27
843.90	2281.44
844.07	2258.91
844.24	2351.07
844.41	2199.52
844.58	2254.81
844.75	2183.13
844.92	2314.20
845.09	2187.23
845.26	2045.92
845.43	2299.87
845.60	2209.76
845.77	2383.84
845.94	2273.25
846.10	2334.68
846.27	2072.54
846.44	2119.65
846.61	2129.89
846.78	2389.98
846.95	2306.01
847.12	2105.31
847.29	2228.19
847.46	2156.51
847.63	2340.83
847.80	2119.65
847.97	2260.96
848.14	2523.10
848.31	2242.53
848.48	2082.78
848.65	2330.59
848.82	2158.56
848.98	2539.48
849.15	2263.01
849.32	2328.54
849.49	2336.73
849.66	2236.38
849.83	2222.05
850.00	2144.22
850.17	2322.40
850.34	2260.96
850.51	2144.22
850.68	2148.32
850.85	2404.32
851.01	2293.72
851.18	2244.57
851.35	2250.72
851.52	2310.11
851.69	2383.84
851.86	2031.58
852.03	2125.79
852.20	2351.07
852.37	2248.67
852.53	2115.55
852.70	2119.65
852.87	2201.57
853.04	2367.45
853.21	2228.19
853.38	2387.93
853.55	2385.88
853.72	2367.45
853.89	2193.37
854.05	2168.80
854.22	2189.28
854.39	2176.99
854.56	2166.75
854.73	2342.88
854.90	2156.51
855.07	2316.25
855.23	2138.08
855.40	2179.04
855.57	2234.33
855.74	2023.39
855.91	2353.12
856.08	2039.78
856.25	2070.50
856.41	2195.42
856.58	2269.15
856.75	2236.38
856.92	2123.74
857.09	2437.08
857.26	2138.08
857.42	2211.81
857.59	2328.54
857.76	2195.42
857.93	2189.28
858.10	2213.85
858.27	2179.04
858.43	2306.01
858.60	2103.26
858.77	2129.89
858.94	2162.66
859.11	2312.16
859.27	2133.98
859.44	2174.94
859.61	2428.89
859.78	2267.10
859.95	2142.18
860.12	2211.81
860.28	2490.33
860.45	2443.23
860.62	2250.72
860.79	2287.58
860.95	2299.87
861.12	2136.03
861.29	2129.89
861.46	2107.36
861.63	2258.91
861.79	2248.67
861.96	2199.52
862.13	2222.05
862.30	2359.26
862.47	2220.00
862.63	2093.02
862.80	2273.25
862.97	2377.69
863.14	2383.84
863.30	2162.66
863.47	2217.95
863.64	2383.84
863.81	2297.82
863.97	2136.03
864.14	2228.19
864.31	2226.14
864.48	2242.53
864.65	2162.66
864.81	2308.06
864.98	2308.06
865.15	2320.35
865.32	2256.86
865.48	2303.96
865.65	2383.84
865.82	2242.53
865.98	2228.19
866.15	2242.53
866.32	2209.76
866.49	2191.33
866.65	2289.63
866.82	2164.70
866.99	2242.53
867.16	2269.15
867.32	2170.85
867.49	2179.04
867.66	2232.29
867.83	2193.37
867.99	2123.74
868.16	2140.13
868.33	2123.74
868.49	2236.38
868.66	2238.43
868.83	2275.29
868.99	2351.07
869.16	2226.14
869.33	2396.12
869.50	2226.14
869.66	2170.85
869.83	2281.44
870.00	2084.83
870.16	2285.53
870.33	2195.42
870.50	2344.92
870.66	2285.53
870.83	2277.34
871.00	2230.24
871.17	2279.39
871.33	2242.53
871.50	2181.09
871.67	2281.44
871.83	2199.52
872.00	2349.02
872.17	2209.76
872.33	2449.37
872.50	2336.73
872.67	2146.27
872.83	2244.57
873.00	2275.29
873.17	2267.10
873.33	2252.77
873.50	2275.29
873.67	2160.61
873.83	2129.89
874.00	2246.62
874.16	2258.91
874.33	2273.25
874.50	2172.89
874.66	2232.29
874.83	2211.81
875.00	2355.16
875.16	2310.11
875.33	2260.96
875.50	2084.83
875.66	2170.85
875.83	2332.64
875.99	2258.91
876.16	2234.33
876.33	2131.94
876.49	2232.29
876.66	2260.96
876.83	2232.29
876.99	2170.85
877.16	2277.34
877.32	2172.89
877.49	2209.76
877.66	2301.92
877.82	2398.17
877.99	2248.67
878.15	2316.25
878.32	2269.15
878.49	2287.58
878.65	2244.57
878.82	2392.03
878.98	2162.66
879.15	2320.35
879.32	2295.77
879.48	2252.77
879.65	2213.85
879.81	2213.85
879.98	2199.52
880.15	2176.99
880.31	2318.30
880.48	2162.66
880.64	2349.02
880.81	2258.91
880.97	2400.22
881.14	2349.02
881.31	2158.56
881.47	2437.08
881.64	2289.63
881.80	2111.46
881.97	2170.85
882.13	2220.00
882.30	2209.76
882.47	2234.33
882.63	2138.08
882.80	2138.08
882.96	2140.13
883.13	2375.64
883.29	2226.14
883.46	2117.60
883.62	2480.09
883.79	2248.67
883.95	2277.34
884.12	2115.55
884.29	2297.82
884.45	2246.62
884.62	2244.57
884.78	2105.31
884.95	2379.74
885.11	2156.51
885.28	2220.00
885.44	2252.77
885.61	2267.10
885.77	2367.45
885.94	2258.91
886.10	2234.33
886.27	2263.01
886.43	2416.60
886.60	2324.44
886.76	2164.70
886.93	2187.23
887.09	2283.49
887.26	2023.39
887.42	2226.14
887.59	2344.92
887.75	2521.05
887.92	2297.82
888.08	2248.67
888.25	2330.59
888.41	2252.77
888.58	2226.14
888.74	2031.58
888.91	2125.79
>>>>>End Processed Spectral Data<<<<<
