SpectraSuite Data File
++++++++++++++++++++++++++++++++++++
Date: Thu May 05 13:21:12 CEST 2016
User: root
Dark Spectrum Present: No
Reference Spectrum Present: No
Number of Sampled Component Spectra: 1
Spectrometers: USB4C02835
Integration Time (usec): 100000 (USB4C02835)
Spectra Averaged: 1 (USB4C02835)
Boxcar Smoothing: 0 (USB4C02835)
Correct for Electrical Dark: No (USB4C02835)
Strobe/Lamp Enabled: No (USB4C02835)
Correct for Detector Non-linearity: No (USB4C02835)
Correct for Stray Light: No (USB4C02835)
Number of Pixels in Processed Spectrum: 3648
>>>>>Begin Processed Spectral Data<<<<<
177.47	1763.30
177.69	1763.30
177.91	1763.30
178.13	1818.60
178.36	1806.31
178.58	2187.23
178.80	2279.39
179.02	2146.27
179.24	2179.04
179.46	2113.50
179.68	2248.67
179.90	2201.57
180.13	2230.24
180.35	2185.18
180.57	2072.54
180.79	2324.44
181.01	2211.81
181.23	2217.95
181.45	2260.96
181.67	2324.44
181.90	2269.15
182.12	2205.66
182.34	2047.97
182.56	2334.68
182.78	2353.12
183.00	2160.61
183.22	2217.95
183.44	2125.79
183.66	2537.43
183.89	2318.30
184.11	2252.77
184.33	2342.88
184.55	2346.97
184.77	2176.99
184.99	2240.48
185.21	2242.53
185.43	2480.09
185.65	2168.80
185.87	2166.75
186.10	2559.96
186.32	2531.29
186.54	2269.15
186.76	2244.57
186.98	2330.59
187.20	2240.48
187.42	2183.13
187.64	2162.66
187.86	2310.11
188.08	2422.75
188.30	2166.75
188.52	2222.05
188.75	2469.85
188.97	2422.75
189.19	2203.61
189.41	2174.94
189.63	2308.06
189.85	2230.24
190.07	2072.54
190.29	2109.41
190.51	2310.11
190.73	2115.55
190.95	2324.44
191.17	2144.22
191.39	2176.99
191.61	2244.57
191.84	2203.61
192.06	2224.09
192.28	2119.65
192.50	2625.50
192.72	2228.19
192.94	2105.31
193.16	2351.07
193.38	2252.77
193.60	2052.06
193.82	2220.00
194.04	2406.36
194.26	2293.72
194.48	2213.85
194.70	2125.79
194.92	2207.71
195.14	2281.44
195.36	2131.94
195.58	2183.13
195.80	2252.77
196.02	2179.04
196.24	2121.70
196.46	2179.04
196.69	2197.47
196.91	2363.36
197.13	2277.34
197.35	2199.52
197.57	2443.23
197.79	2297.82
198.01	2152.42
198.23	2314.20
198.45	2248.67
198.67	2082.78
198.89	2047.97
199.11	2265.05
199.33	2211.81
199.55	2072.54
199.77	2133.98
199.99	2250.72
200.21	2154.46
200.43	2301.92
200.65	2176.99
200.87	1955.81
201.09	2232.29
201.31	2217.95
201.53	2252.77
201.75	2193.37
201.97	2271.20
202.19	2248.67
202.41	2287.58
202.63	2424.80
202.85	2283.49
203.07	2228.19
203.29	2170.85
203.51	2068.45
203.73	2174.94
203.95	2543.58
204.17	2172.89
204.39	2170.85
204.61	2248.67
204.83	2152.42
205.05	2297.82
205.27	2252.77
205.49	2428.89
205.71	2256.86
205.93	2111.46
206.15	2193.37
206.37	2328.54
206.59	2277.34
206.81	2088.93
207.03	2105.31
207.25	2140.13
207.47	2381.79
207.69	2263.01
207.91	2349.02
208.13	2322.40
208.34	2193.37
208.56	2189.28
208.78	2201.57
209.00	2205.66
209.22	2199.52
209.44	2144.22
209.66	2129.89
209.88	2207.71
210.10	2263.01
210.32	2117.60
210.54	2334.68
210.76	2244.57
210.98	2340.83
211.20	2023.39
211.42	2215.90
211.64	2342.88
211.86	2295.77
212.08	2267.10
212.30	2181.09
212.52	2267.10
212.74	2275.29
212.96	2160.61
213.17	2228.19
213.39	2326.49
213.61	2416.60
213.83	2131.94
214.05	2176.99
214.27	2369.50
214.49	2176.99
214.71	2129.89
214.93	2174.94
215.15	2310.11
215.37	2267.10
215.59	2101.22
215.81	2193.37
216.03	2381.79
216.24	2258.91
216.46	2113.50
216.68	2176.99
216.90	2381.79
217.12	2338.78
217.34	2172.89
217.56	2248.67
217.78	2336.73
218.00	2306.01
218.22	2263.01
218.44	2265.05
218.66	2353.12
218.87	2402.27
219.09	2183.13
219.31	2156.51
219.53	2265.05
219.75	2265.05
219.97	2195.42
220.19	2170.85
220.41	2195.42
220.63	2385.88
220.85	2197.47
221.06	2166.75
221.28	2432.99
221.50	2318.30
221.72	2187.23
221.94	2113.50
222.16	2271.20
222.38	2334.68
222.60	2176.99
222.82	2187.23
223.03	2318.30
223.25	2170.85
223.47	2199.52
223.69	2322.40
223.91	2346.97
224.13	2310.11
224.35	2172.89
224.57	2373.60
224.78	2324.44
225.00	2099.17
225.22	2187.23
225.44	2215.90
225.66	2346.97
225.88	2158.56
226.10	2252.77
226.32	2265.05
226.53	2297.82
226.75	2213.85
226.97	2285.53
227.19	2168.80
227.41	2199.52
227.63	2129.89
227.85	2027.49
228.06	2228.19
228.28	2318.30
228.50	2342.88
228.72	2103.26
228.94	2232.29
229.16	2004.96
229.37	2125.79
229.59	2125.79
229.81	2351.07
230.03	2220.00
230.25	2099.17
230.47	2133.98
230.69	2064.35
230.90	2316.25
231.12	2156.51
231.34	2164.70
231.56	2254.81
231.78	2086.88
232.00	2193.37
232.21	2160.61
232.43	2140.13
232.65	2047.97
232.87	2224.09
233.09	2090.98
233.30	2148.32
233.52	2275.29
233.74	2267.10
233.96	2101.22
234.18	2273.25
234.40	2248.67
234.61	2461.66
234.83	2070.50
235.05	2146.27
235.27	2521.05
235.49	2381.79
235.70	2144.22
235.92	2254.81
236.14	2220.00
236.36	2441.18
236.58	2084.83
236.79	2244.57
237.01	2258.91
237.23	2187.23
237.45	2322.40
237.67	2201.57
237.88	2201.57
238.10	2385.88
238.32	2111.46
238.54	2176.99
238.76	2191.33
238.97	2084.83
239.19	2109.41
239.41	2301.92
239.63	2340.83
239.85	2209.76
240.06	2224.09
240.28	2217.95
240.50	2410.46
240.72	2252.77
240.93	2127.84
241.15	2303.96
241.37	2209.76
241.59	2383.84
241.81	2181.09
242.02	2152.42
242.24	2326.49
242.46	2398.17
242.68	2174.94
242.89	2174.94
243.11	2398.17
243.33	2228.19
243.55	2195.42
243.76	2244.57
243.98	2187.23
244.20	2330.59
244.42	2103.26
244.64	2248.67
244.85	2121.70
245.07	2148.32
245.29	2271.20
245.51	2185.18
245.72	2244.57
245.94	2365.40
246.16	2236.38
246.38	2293.72
246.59	2093.02
246.81	2205.66
247.03	2160.61
247.24	2045.92
247.46	2152.42
247.68	2273.25
247.90	2154.46
248.11	2174.94
248.33	2369.50
248.55	2201.57
248.77	2195.42
248.98	2234.33
249.20	2379.74
249.42	2189.28
249.64	2207.71
249.85	2168.80
250.07	2168.80
250.29	2267.10
250.50	2314.20
250.72	2068.45
250.94	2293.72
251.16	2424.80
251.37	2203.61
251.59	2301.92
251.81	2316.25
252.02	2400.22
252.24	2144.22
252.46	2283.49
252.68	2183.13
252.89	2238.43
253.11	2113.50
253.33	2265.05
253.54	2404.32
253.76	2152.42
253.98	2189.28
254.20	2146.27
254.41	2084.83
254.63	2189.28
254.85	2080.74
255.06	2191.33
255.28	2289.63
255.50	2250.72
255.71	2152.42
255.93	2043.87
256.15	2224.09
256.36	2349.02
256.58	2160.61
256.80	2179.04
257.02	2234.33
257.23	2195.42
257.45	2154.46
257.67	2209.76
257.88	2228.19
258.10	2269.15
258.32	2183.13
258.53	2236.38
258.75	2408.41
258.97	2113.50
259.18	2203.61
259.40	2152.42
259.62	2484.19
259.83	2385.88
260.05	2193.37
260.27	2719.70
260.48	2320.35
260.70	2088.93
260.92	2138.08
261.13	2193.37
261.35	2269.15
261.57	2246.62
261.78	2000.87
262.00	2088.93
262.22	2342.88
262.43	2185.18
262.65	2230.24
262.86	2205.66
263.08	2529.24
263.30	2162.66
263.51	2084.83
263.73	2183.13
263.95	2471.90
264.16	2164.70
264.38	2168.80
264.60	2162.66
264.81	2283.49
265.03	2312.16
265.25	2367.45
265.46	2209.76
265.68	2383.84
265.89	2328.54
266.11	2072.54
266.33	2230.24
266.54	2392.03
266.76	2297.82
266.98	2203.61
267.19	2277.34
267.41	2232.29
267.62	2252.77
267.84	2043.87
268.06	2224.09
268.27	2269.15
268.49	2396.12
268.70	2277.34
268.92	2224.09
269.14	2168.80
269.35	2068.45
269.57	2203.61
269.79	2246.62
270.00	2150.37
270.22	2449.37
270.43	2113.50
270.65	2088.93
270.87	2367.45
271.08	2308.06
271.30	2166.75
271.51	2187.23
271.73	2314.20
271.95	2455.51
272.16	2211.81
272.38	2220.00
272.59	2189.28
272.81	2326.49
273.02	2115.55
273.24	2228.19
273.46	2392.03
273.67	2154.46
273.89	2060.26
274.10	2181.09
274.32	2334.68
274.54	2260.96
274.75	2224.09
274.97	2168.80
275.18	2260.96
275.40	2326.49
275.61	2195.42
275.83	2285.53
276.05	2103.26
276.26	2279.39
276.48	2213.85
276.69	2187.23
276.91	2236.38
277.12	2428.89
277.34	2357.21
277.55	2303.96
277.77	2312.16
277.99	2193.37
278.20	2121.70
278.42	2187.23
278.63	2133.98
278.85	2156.51
279.06	2097.12
279.28	2297.82
279.49	2414.56
279.71	2344.92
279.93	2260.96
280.14	2199.52
280.36	2125.79
280.57	2365.40
280.79	2310.11
281.00	2138.08
281.22	2181.09
281.43	2287.58
281.65	2056.16
281.86	2107.36
282.08	2308.06
282.29	2402.27
282.51	2217.95
282.73	2127.84
282.94	2156.51
283.16	2269.15
283.37	2346.97
283.59	2220.00
283.80	2306.01
284.02	2281.44
284.23	2236.38
284.45	2193.37
284.66	2176.99
284.88	2172.89
285.09	2279.39
285.31	2322.40
285.52	2351.07
285.74	2129.89
285.95	2318.30
286.17	2287.58
286.38	2389.98
286.60	2191.33
286.81	2220.00
287.03	2240.48
287.24	2297.82
287.46	2283.49
287.67	2236.38
287.89	2379.74
288.10	2244.57
288.32	2228.19
288.53	2342.88
288.75	2279.39
288.96	2371.55
289.18	2181.09
289.39	2193.37
289.61	2260.96
289.82	2422.75
290.04	2439.13
290.25	2088.93
290.47	2183.13
290.68	2275.29
290.90	2342.88
291.11	2021.35
291.33	2346.97
291.54	2129.89
291.76	2211.81
291.97	2289.63
292.18	2310.11
292.40	2242.53
292.61	2187.23
292.83	2414.56
293.04	2275.29
293.26	2285.53
293.47	2215.90
293.69	2146.27
293.90	2179.04
294.12	2355.16
294.33	2289.63
294.55	2277.34
294.76	2326.49
294.97	2324.44
295.19	2451.42
295.40	2217.95
295.62	2314.20
295.83	2400.22
296.05	2129.89
296.26	2355.16
296.48	2191.33
296.69	2195.42
296.90	2199.52
297.12	2285.53
297.33	2322.40
297.55	2318.30
297.76	2273.25
297.98	2310.11
298.19	2318.30
298.41	2291.68
298.62	2211.81
298.83	2392.03
299.05	2308.06
299.26	2187.23
299.48	2215.90
299.69	2291.68
299.90	2252.77
300.12	2138.08
300.33	2320.35
300.55	2224.09
300.76	2285.53
300.98	2156.51
301.19	2238.43
301.40	2224.09
301.62	2222.05
301.83	2340.83
302.05	2248.67
302.26	2258.91
302.47	2289.63
302.69	2224.09
302.90	2275.29
303.12	2064.35
303.33	2342.88
303.54	2478.04
303.76	2228.19
303.97	2150.37
304.19	2379.74
304.40	2185.18
304.61	2236.38
304.83	2430.94
305.04	2330.59
305.26	2326.49
305.47	2205.66
305.68	2277.34
305.90	2086.88
306.11	2406.36
306.33	2295.77
306.54	2179.04
306.75	2185.18
306.97	2113.50
307.18	2220.00
307.39	2170.85
307.61	2301.92
307.82	2224.09
308.04	2342.88
308.25	2187.23
308.46	2256.86
308.68	2277.34
308.89	2234.33
309.10	2320.35
309.32	2273.25
309.53	2234.33
309.74	2267.10
309.96	2215.90
310.17	2336.73
310.39	2203.61
310.60	2310.11
310.81	2217.95
311.03	2111.46
311.24	2340.83
311.45	2230.24
311.67	2383.84
311.88	2310.11
312.09	2191.33
312.31	2224.09
312.52	2176.99
312.73	2203.61
312.95	2090.98
313.16	2138.08
313.37	2359.26
313.59	2201.57
313.80	2334.68
314.01	2414.56
314.23	2240.48
314.44	2224.09
314.65	2150.37
314.87	2152.42
315.08	2220.00
315.29	2080.74
315.51	2187.23
315.72	2117.60
315.93	2383.84
316.15	2277.34
316.36	2224.09
316.57	2287.58
316.79	2252.77
317.00	2220.00
317.21	2203.61
317.43	2224.09
317.64	2228.19
317.85	2179.04
318.07	2162.66
318.28	2256.86
318.49	2392.03
318.70	2488.28
318.92	2467.80
319.13	2482.14
319.34	2502.62
319.56	2355.16
319.77	2396.12
319.98	2400.22
320.20	2361.31
320.41	2359.26
320.62	2310.11
320.83	2179.04
321.05	2457.56
321.26	2285.53
321.47	2211.81
321.69	2367.45
321.90	2093.02
322.11	2176.99
322.32	2285.53
322.54	2445.27
322.75	2189.28
322.96	2484.19
323.18	2093.02
323.39	2103.26
323.60	2136.03
323.81	2256.86
324.03	2185.18
324.24	2297.82
324.45	2236.38
324.66	2170.85
324.88	2389.98
325.09	2437.08
325.30	2207.71
325.52	2193.37
325.73	2332.64
325.94	2211.81
326.15	2107.36
326.37	2224.09
326.58	2301.92
326.79	2420.70
327.00	2070.50
327.22	2271.20
327.43	2193.37
327.64	2154.46
327.85	2277.34
328.07	2213.85
328.28	2453.47
328.49	2252.77
328.70	2232.29
328.92	2279.39
329.13	2283.49
329.34	2269.15
329.55	2418.65
329.76	2269.15
329.98	2258.91
330.19	2400.22
330.40	2230.24
330.61	2207.71
330.83	2357.21
331.04	2148.32
331.25	2273.25
331.46	2265.05
331.68	2172.89
331.89	2416.60
332.10	2228.19
332.31	2039.78
332.52	2176.99
332.74	2488.28
332.95	2054.11
333.16	2213.85
333.37	2328.54
333.58	2267.10
333.80	2242.53
334.01	2039.78
334.22	2248.67
334.43	2199.52
334.64	2164.70
334.86	2195.42
335.07	2127.84
335.28	2392.03
335.49	2086.88
335.70	2361.31
335.92	2283.49
336.13	2492.38
336.34	2301.92
336.55	2328.54
336.76	2291.68
336.98	2078.69
337.19	2258.91
337.40	2340.83
337.61	2500.57
337.82	2154.46
338.04	2285.53
338.25	2090.98
338.46	2217.95
338.67	2271.20
338.88	2187.23
339.09	2129.89
339.31	2236.38
339.52	2031.58
339.73	2146.27
339.94	2228.19
340.15	2277.34
340.36	2226.14
340.58	2328.54
340.79	2222.05
341.00	2291.68
341.21	2133.98
341.42	2361.31
341.63	2170.85
341.85	2330.59
342.06	2199.52
342.27	2232.29
342.48	2328.54
342.69	2119.65
342.90	2250.72
343.12	2385.88
343.33	2193.37
343.54	2301.92
343.75	2482.14
343.96	2201.57
344.17	2090.98
344.38	2279.39
344.60	2152.42
344.81	2113.50
345.02	2156.51
345.23	2349.02
345.44	2490.33
345.65	2306.01
345.86	2252.77
346.07	2363.36
346.29	2172.89
346.50	2236.38
346.71	2308.06
346.92	2404.32
347.13	2482.14
347.34	2191.33
347.55	2242.53
347.76	2318.30
347.98	2093.02
348.19	2285.53
348.40	2310.11
348.61	2144.22
348.82	2410.46
349.03	2256.86
349.24	2090.98
349.45	2498.52
349.66	2068.45
349.88	2273.25
350.09	2176.99
350.30	2455.51
350.51	2375.64
350.72	2260.96
350.93	2258.91
351.14	2222.05
351.35	2236.38
351.56	2283.49
351.77	2211.81
351.99	2316.25
352.20	2404.32
352.41	2332.64
352.62	2058.21
352.83	2203.61
353.04	2244.57
353.25	2187.23
353.46	2269.15
353.67	2351.07
353.88	2088.93
354.09	2267.10
354.30	2226.14
354.52	2293.72
354.73	2197.47
354.94	2244.57
355.15	2205.66
355.36	2500.57
355.57	2189.28
355.78	2269.15
355.99	2203.61
356.20	2158.56
356.41	2367.45
356.62	2267.10
356.83	2220.00
357.04	2385.88
357.25	2101.22
357.46	2142.18
357.68	2107.36
357.89	2160.61
358.10	2203.61
358.31	2285.53
358.52	2269.15
358.73	2211.81
358.94	2170.85
359.15	2213.85
359.36	2299.87
359.57	2258.91
359.78	2201.57
359.99	2293.72
360.20	2158.56
360.41	2254.81
360.62	2412.51
360.83	2295.77
361.04	2275.29
361.25	2295.77
361.46	2318.30
361.67	2349.02
361.88	2314.20
362.09	2371.55
362.30	2203.61
362.51	2183.13
362.72	2267.10
362.93	2357.21
363.14	2303.96
363.35	2279.39
363.56	2176.99
363.78	2396.12
363.99	2383.84
364.20	2224.09
364.41	2215.90
364.62	2486.23
364.83	2318.30
365.04	2242.53
365.25	2265.05
365.46	2439.13
365.67	2217.95
365.88	2271.20
366.09	2146.27
366.30	2176.99
366.51	2273.25
366.72	2088.93
366.93	2166.75
367.14	2258.91
367.35	2432.99
367.56	2203.61
367.77	2375.64
367.98	2252.77
368.18	2289.63
368.39	2322.40
368.60	2148.32
368.81	2383.84
369.02	2240.48
369.23	2244.57
369.44	2131.94
369.65	2207.71
369.86	2306.01
370.07	2273.25
370.28	2133.98
370.49	2234.33
370.70	2324.44
370.91	2195.42
371.12	2136.03
371.33	2338.78
371.54	2297.82
371.75	2322.40
371.96	2027.49
372.17	2277.34
372.38	2226.14
372.59	2265.05
372.80	2133.98
373.01	2250.72
373.22	2269.15
373.43	2265.05
373.64	2146.27
373.85	2367.45
374.06	2494.43
374.26	2392.03
374.47	2312.16
374.68	2406.36
374.89	2273.25
375.10	2285.53
375.31	2344.92
375.52	2297.82
375.73	2301.92
375.94	2127.84
376.15	2367.45
376.36	2148.32
376.57	2189.28
376.78	2179.04
376.99	2230.24
377.20	2428.89
377.40	2201.57
377.61	2424.80
377.82	2201.57
378.03	2387.93
378.24	2383.84
378.45	2187.23
378.66	2269.15
378.87	2074.59
379.08	2123.74
379.29	2146.27
379.50	2242.53
379.71	2150.37
379.91	2299.87
380.12	2285.53
380.33	2191.33
380.54	2236.38
380.75	2267.10
380.96	2258.91
381.17	2299.87
381.38	2217.95
381.59	2306.01
381.80	2238.43
382.00	2508.76
382.21	2260.96
382.42	2377.69
382.63	2529.24
382.84	2334.68
383.05	2289.63
383.26	2389.98
383.47	2324.44
383.68	2269.15
383.88	2283.49
384.09	2308.06
384.30	2334.68
384.51	2310.11
384.72	2170.85
384.93	2060.26
385.14	2228.19
385.35	2326.49
385.55	2136.03
385.76	2412.51
385.97	2224.09
386.18	2117.60
386.39	2281.44
386.60	2226.14
386.81	2207.71
387.02	2211.81
387.22	2191.33
387.43	2334.68
387.64	2297.82
387.85	2455.51
388.06	2494.43
388.27	4016.07
388.48	8271.75
388.68	11700.05
388.89	13944.62
389.10	15169.30
389.31	13975.34
389.52	11018.07
389.73	9414.51
389.93	8642.43
390.14	7995.27
390.35	7169.94
390.56	6432.67
390.77	5267.38
390.98	3987.40
391.18	3213.26
391.39	2748.37
391.60	2330.59
391.81	2371.55
392.02	2260.96
392.23	2504.67
392.43	2363.36
392.64	2422.75
392.85	2275.29
393.06	2463.71
393.27	2351.07
393.47	2170.85
393.68	2236.38
393.89	2140.13
394.10	2355.16
394.31	2156.51
394.52	2154.46
394.72	2258.91
394.93	2381.79
395.14	2144.22
395.35	2254.81
395.56	2217.95
395.76	2287.58
395.97	2332.64
396.18	2361.31
396.39	2334.68
396.60	2736.09
396.80	2488.28
397.01	2400.22
397.22	2418.65
397.43	2387.93
397.64	2207.71
397.84	2375.64
398.05	2482.14
398.26	2220.00
398.47	2310.11
398.67	2299.87
398.88	2277.34
399.09	2285.53
399.30	2197.47
399.51	2297.82
399.71	2131.94
399.92	2269.15
400.13	2269.15
400.34	2199.52
400.54	2320.35
400.75	2432.99
400.96	2277.34
401.17	2400.22
401.37	2365.40
401.58	2342.88
401.79	2254.81
402.00	2316.25
402.21	2703.32
402.41	2514.91
402.62	2539.48
402.83	2703.32
403.04	2680.79
403.24	2746.33
403.45	2396.12
403.66	2498.52
403.87	2422.75
404.07	2527.19
404.28	2523.10
404.49	2541.53
404.70	2404.32
404.90	2318.30
405.11	2295.77
405.32	2283.49
405.52	2226.14
405.73	2170.85
405.94	2162.66
406.15	2277.34
406.35	2310.11
406.56	2252.77
406.77	2267.10
406.98	2297.82
407.18	2170.85
407.39	2435.03
407.60	2234.33
407.80	2283.49
408.01	2244.57
408.22	2336.73
408.43	2138.08
408.63	2326.49
408.84	2236.38
409.05	2359.26
409.25	2166.75
409.46	2111.46
409.67	2195.42
409.88	2252.77
410.08	2301.92
410.29	2201.57
410.50	2330.59
410.70	2295.77
410.91	2234.33
411.12	2275.29
411.32	2179.04
411.53	2209.76
411.74	2287.58
411.95	2340.83
412.15	2297.82
412.36	2310.11
412.57	2238.43
412.77	2269.15
412.98	2248.67
413.19	2334.68
413.39	2279.39
413.60	2244.57
413.81	2402.27
414.01	2199.52
414.22	2314.20
414.43	2371.55
414.63	2254.81
414.84	2396.12
415.05	2338.78
415.25	2131.94
415.46	2330.59
415.67	2217.95
415.87	2232.29
416.08	2267.10
416.29	2199.52
416.49	2322.40
416.70	2275.29
416.91	2265.05
417.11	2213.85
417.32	2330.59
417.53	2369.50
417.73	2314.20
417.94	2187.23
418.15	2338.78
418.35	2234.33
418.56	2306.01
418.77	2482.14
418.97	2181.09
419.18	2217.95
419.38	1988.58
419.59	2211.81
419.80	2410.46
420.00	2232.29
420.21	2215.90
420.42	2357.21
420.62	2260.96
420.83	2230.24
421.04	2209.76
421.24	2224.09
421.45	2332.64
421.65	2287.58
421.86	2258.91
422.07	2375.64
422.27	2342.88
422.48	2183.13
422.69	2099.17
422.89	2248.67
423.10	2199.52
423.30	2119.65
423.51	2283.49
423.72	2267.10
423.92	2402.27
424.13	2076.64
424.33	2287.58
424.54	2310.11
424.75	2273.25
424.95	2533.34
425.16	2265.05
425.36	2258.91
425.57	2320.35
425.78	2332.64
425.98	2316.25
426.19	2195.42
426.39	2179.04
426.60	2318.30
426.81	2385.88
427.01	2265.05
427.22	2228.19
427.42	2136.03
427.63	2154.46
427.83	2342.88
428.04	2381.79
428.25	2340.83
428.45	2383.84
428.66	2351.07
428.86	2211.81
429.07	2289.63
429.28	2242.53
429.48	2252.77
429.69	2170.85
429.89	2252.77
430.10	2131.94
430.30	2336.73
430.51	2375.64
430.71	2226.14
430.92	2230.24
431.13	2195.42
431.33	2334.68
431.54	2277.34
431.74	2410.46
431.95	2555.86
432.15	2084.83
432.36	2271.20
432.56	2303.96
432.77	2523.10
432.98	2410.46
433.18	2228.19
433.39	2213.85
433.59	2220.00
433.80	2445.27
434.00	2453.47
434.21	2213.85
434.41	2142.18
434.62	2521.05
434.82	2086.88
435.03	2187.23
435.23	2242.53
435.44	2138.08
435.64	2344.92
435.85	2303.96
436.06	2277.34
436.26	2381.79
436.47	2242.53
436.67	2232.29
436.88	2215.90
437.08	2387.93
437.29	2437.08
437.49	2371.55
437.70	2381.79
437.90	2193.37
438.11	2459.61
438.31	2281.44
438.52	2482.14
438.72	2383.84
438.93	2568.15
439.13	2326.49
439.34	2392.03
439.54	2213.85
439.75	2412.51
439.95	2303.96
440.16	2193.37
440.36	2289.63
440.57	2389.98
440.77	2310.11
440.98	2269.15
441.18	2359.26
441.39	2187.23
441.59	2084.83
441.80	2461.66
442.00	2289.63
442.21	2322.40
442.41	2146.27
442.62	2381.79
442.82	2226.14
443.02	2297.82
443.23	2289.63
443.43	2301.92
443.64	2320.35
443.84	2258.91
444.05	2385.88
444.25	2314.20
444.46	2252.77
444.66	2238.43
444.87	2432.99
445.07	2093.02
445.28	2265.05
445.48	2318.30
445.69	2322.40
445.89	2461.66
446.09	2383.84
446.30	2559.96
446.50	2826.20
446.71	4284.35
446.91	5611.43
447.12	6313.89
447.32	6772.63
447.53	6240.16
447.73	5232.56
447.93	4460.48
448.14	4267.97
448.34	3975.11
448.55	3596.23
448.75	3499.98
448.96	3407.82
449.16	3045.33
449.36	2895.83
449.57	2539.48
449.77	2269.15
449.98	2269.15
450.18	2318.30
450.39	2260.96
450.59	2351.07
450.79	2176.99
451.00	2197.47
451.20	2291.68
451.41	2318.30
451.61	2340.83
451.81	2279.39
452.02	2226.14
452.22	2248.67
452.43	2244.57
452.63	2201.57
452.84	2222.05
453.04	2199.52
453.24	2326.49
453.45	2197.47
453.65	2297.82
453.86	2277.34
454.06	2334.68
454.26	2263.01
454.47	2146.27
454.67	2402.27
454.87	2365.40
455.08	2308.06
455.28	2308.06
455.49	2273.25
455.69	2168.80
455.89	2523.10
456.10	2375.64
456.30	2220.00
456.51	2248.67
456.71	2265.05
456.91	2248.67
457.12	2260.96
457.32	2320.35
457.52	2222.05
457.73	2291.68
457.93	2342.88
458.14	2187.23
458.34	2093.02
458.54	2207.71
458.75	2220.00
458.95	2367.45
459.15	2330.59
459.36	2260.96
459.56	2324.44
459.76	2494.43
459.97	2252.77
460.17	2269.15
460.37	2365.40
460.58	2250.72
460.78	2269.15
460.99	2179.04
461.19	2265.05
461.39	2207.71
461.60	2217.95
461.80	2346.97
462.00	2152.42
462.21	2203.61
462.41	2203.61
462.61	2185.18
462.82	2027.49
463.02	2342.88
463.22	2269.15
463.43	2396.12
463.63	2285.53
463.83	2371.55
464.04	2359.26
464.24	2244.57
464.44	2201.57
464.64	2252.77
464.85	2303.96
465.05	2326.49
465.25	2140.13
465.46	2238.43
465.66	2375.64
465.86	2293.72
466.07	2322.40
466.27	2248.67
466.47	2189.28
466.68	2154.46
466.88	2353.12
467.08	2267.10
467.29	2271.20
467.49	2351.07
467.69	2287.58
467.89	2320.35
468.10	2314.20
468.30	2250.72
468.50	2398.17
468.71	2375.64
468.91	2070.50
469.11	2414.56
469.31	2322.40
469.52	2105.31
469.72	2473.95
469.92	2486.23
470.13	2199.52
470.33	2326.49
470.53	2351.07
470.73	2617.30
470.94	3051.47
471.14	3192.78
471.34	3499.98
471.54	3512.27
471.75	3145.68
471.95	2867.16
472.15	2775.00
472.36	2799.57
472.56	2719.70
472.76	2711.51
472.96	2613.21
473.17	2633.69
473.37	2453.47
473.57	2346.97
473.77	2398.17
473.98	2293.72
474.18	2232.29
474.38	2607.06
474.58	2260.96
474.79	2166.75
474.99	2295.77
475.19	2379.74
475.39	2222.05
475.60	2258.91
475.80	2271.20
476.00	2344.92
476.20	2238.43
476.41	2283.49
476.61	2324.44
476.81	2346.97
477.01	2215.90
477.21	2379.74
477.42	2400.22
477.62	2181.09
477.82	2361.31
478.02	2316.25
478.23	2250.72
478.43	2146.27
478.63	2289.63
478.83	2320.35
479.03	2213.85
479.24	2392.03
479.44	2521.05
479.64	2201.57
479.84	2037.73
480.04	2176.99
480.25	2342.88
480.45	2211.81
480.65	2193.37
480.85	2482.14
481.06	2211.81
481.26	2277.34
481.46	2301.92
481.66	2349.02
481.86	2277.34
482.06	2312.16
482.27	2277.34
482.47	2258.91
482.67	2256.86
482.87	2213.85
483.07	2310.11
483.28	2203.61
483.48	2189.28
483.68	2312.16
483.88	2060.26
484.08	2060.26
484.29	2142.18
484.49	2312.16
484.69	2142.18
484.89	2416.60
485.09	2369.50
485.29	2314.20
485.50	2330.59
485.70	2285.53
485.90	2416.60
486.10	2281.44
486.30	2160.61
486.50	2357.21
486.71	2301.92
486.91	2359.26
487.11	2416.60
487.31	2056.16
487.51	2279.39
487.71	2213.85
487.91	2193.37
488.12	2217.95
488.32	2027.49
488.52	2258.91
488.72	2019.30
488.92	2303.96
489.12	2406.36
489.32	2422.75
489.53	2289.63
489.73	2185.18
489.93	2469.85
490.13	2252.77
490.33	2127.84
490.53	2322.40
490.73	2359.26
490.94	2140.13
491.14	2334.68
491.34	2342.88
491.54	2580.44
491.74	3153.87
491.94	3727.30
492.14	4020.16
492.34	4073.41
492.54	3796.93
492.75	3160.02
492.95	3100.62
493.15	2994.13
493.35	2957.27
493.55	2854.87
493.75	2750.42
493.95	2777.05
494.15	2521.05
494.35	2402.27
494.56	2287.58
494.76	2238.43
494.96	2306.01
495.16	2240.48
495.36	2383.84
495.56	2279.39
495.76	2312.16
495.96	2267.10
496.16	2215.90
496.36	2488.28
496.56	2322.40
496.77	2277.34
496.97	2281.44
497.17	2371.55
497.37	2097.12
497.57	2312.16
497.77	2316.25
497.97	2166.75
498.17	2301.92
498.37	2213.85
498.57	2408.41
498.77	2250.72
498.97	2340.83
499.17	2473.95
499.38	2252.77
499.58	2295.77
499.78	2361.31
499.98	2346.97
500.18	2254.81
500.38	2156.51
500.58	2504.67
500.78	2936.79
500.98	5117.87
501.18	7184.27
501.38	8826.75
501.58	9846.63
501.78	9523.05
501.98	7544.72
502.18	6424.48
502.38	5568.43
502.58	5220.27
502.78	4569.02
502.98	4544.44
503.18	4259.78
503.38	3958.72
503.59	3387.34
503.79	3225.55
503.99	2906.07
504.19	2834.39
504.39	2848.72
504.59	2832.34
504.79	2789.33
504.99	2775.00
505.19	2555.86
505.39	2531.29
505.59	2711.51
505.79	2529.24
505.99	2453.47
506.19	2371.55
506.39	2432.99
506.59	2295.77
506.79	2277.34
506.99	2396.12
507.19	2285.53
507.39	2205.66
507.59	2156.51
507.79	2250.72
507.99	2164.70
508.19	2291.68
508.39	2267.10
508.59	2256.86
508.79	2385.88
508.99	2463.71
509.19	2244.57
509.39	2256.86
509.59	2187.23
509.79	2152.42
509.99	2228.19
510.19	2291.68
510.39	2379.74
510.59	2260.96
510.79	2168.80
510.99	2168.80
511.19	2258.91
511.39	2523.10
511.59	2496.47
511.79	2404.32
511.99	2250.72
512.19	2441.18
512.38	2328.54
512.58	2203.61
512.78	2310.11
512.98	2441.18
513.18	2336.73
513.38	2080.74
513.58	2308.06
513.78	2187.23
513.98	2236.38
514.18	2228.19
514.38	2238.43
514.58	2318.30
514.78	2215.90
514.98	2162.66
515.18	2258.91
515.38	2174.94
515.58	2443.23
515.78	2283.49
515.98	2191.33
516.18	2285.53
516.38	2344.92
516.57	2166.75
516.77	2205.66
516.97	2330.59
517.17	2281.44
517.37	2111.46
517.57	2357.21
517.77	2277.34
517.97	2187.23
518.17	2254.81
518.37	2136.03
518.57	2199.52
518.77	2220.00
518.97	2252.77
519.16	2377.69
519.36	2377.69
519.56	2260.96
519.76	2224.09
519.96	2310.11
520.16	2383.84
520.36	2201.57
520.56	2349.02
520.76	2236.38
520.96	2283.49
521.16	2383.84
521.35	2447.32
521.55	2328.54
521.75	2238.43
521.95	2213.85
522.15	2185.18
522.35	2133.98
522.55	2176.99
522.75	2306.01
522.95	2187.23
523.14	2224.09
523.34	2265.05
523.54	2183.13
523.74	2349.02
523.94	2238.43
524.14	2170.85
524.34	2326.49
524.54	2432.99
524.73	2224.09
524.93	2265.05
525.13	2359.26
525.33	2121.70
525.53	2478.04
525.73	2322.40
525.93	2191.33
526.13	2250.72
526.32	2203.61
526.52	2381.79
526.72	2394.08
526.92	2275.29
527.12	2285.53
527.32	2138.08
527.52	2334.68
527.71	2310.11
527.91	2250.72
528.11	2195.42
528.31	2256.86
528.51	2078.69
528.71	2320.35
528.90	2244.57
529.10	2367.45
529.30	2381.79
529.50	2072.54
529.70	2318.30
529.90	2273.25
530.09	2293.72
530.29	2080.74
530.49	2187.23
530.69	2588.63
530.89	2289.63
531.09	2330.59
531.28	2199.52
531.48	2398.17
531.68	2260.96
531.88	2295.77
532.08	2334.68
532.28	2246.62
532.47	2252.77
532.67	2332.64
532.87	2326.49
533.07	2209.76
533.27	2375.64
533.46	2287.58
533.66	2351.07
533.86	2308.06
534.06	2275.29
534.26	2252.77
534.45	2285.53
534.65	2371.55
534.85	2301.92
535.05	2244.57
535.25	2310.11
535.44	2199.52
535.64	2322.40
535.84	2273.25
536.04	2195.42
536.24	2242.53
536.43	2176.99
536.63	2293.72
536.83	2269.15
537.03	2267.10
537.22	2160.61
537.42	2138.08
537.62	2326.49
537.82	2226.14
538.02	2359.26
538.21	2385.88
538.41	2605.02
538.61	2326.49
538.81	2197.47
539.00	2387.93
539.20	2129.89
539.40	2256.86
539.60	2291.68
539.79	2303.96
539.99	2277.34
540.19	2207.71
540.39	2242.53
540.58	2234.33
540.78	2375.64
540.98	2260.96
541.18	2420.70
541.37	2248.67
541.57	2318.30
541.77	2306.01
541.97	2174.94
542.16	2170.85
542.36	2211.81
542.56	2324.44
542.76	2482.14
542.95	2344.92
543.15	2326.49
543.35	2357.21
543.54	2203.61
543.74	2156.51
543.94	2357.21
544.14	2236.38
544.33	2332.64
544.53	2181.09
544.73	2179.04
544.93	2189.28
545.12	2213.85
545.32	2281.44
545.52	2125.79
545.71	2154.46
545.91	2217.95
546.11	2244.57
546.30	2150.37
546.50	2238.43
546.70	2285.53
546.90	2267.10
547.09	2168.80
547.29	2273.25
547.49	2293.72
547.68	2230.24
547.88	2242.53
548.08	2404.32
548.27	2731.99
548.47	2265.05
548.67	2217.95
548.87	2375.64
549.06	2217.95
549.26	2242.53
549.46	2265.05
549.65	2230.24
549.85	2326.49
550.05	2291.68
550.24	2133.98
550.44	2277.34
550.64	2230.24
550.83	2252.77
551.03	2357.21
551.23	2389.98
551.42	2314.20
551.62	2283.49
551.82	2211.81
552.01	2220.00
552.21	2379.74
552.41	2230.24
552.60	2432.99
552.80	2373.60
553.00	2258.91
553.19	2209.76
553.39	2365.40
553.59	2172.89
553.78	2275.29
553.98	2306.01
554.17	2101.22
554.37	2314.20
554.57	2207.71
554.76	2187.23
554.96	2183.13
555.16	2232.29
555.35	2334.68
555.55	2217.95
555.75	2346.97
555.94	2344.92
556.14	2109.41
556.33	2263.01
556.53	2224.09
556.73	2267.10
556.92	2263.01
557.12	2355.16
557.32	2453.47
557.51	2482.14
557.71	2351.07
557.90	2441.18
558.10	2439.13
558.30	2236.38
558.49	2179.04
558.69	2267.10
558.88	2310.11
559.08	2322.40
559.28	2287.58
559.47	2222.05
559.67	2318.30
559.86	2445.27
560.06	2199.52
560.26	2289.63
560.45	2400.22
560.65	2256.86
560.84	2412.51
561.04	2150.37
561.24	2377.69
561.43	2152.42
561.63	2455.51
561.82	2301.92
562.02	2349.02
562.22	2203.61
562.41	2158.56
562.61	2232.29
562.80	2230.24
563.00	2555.86
563.19	2226.14
563.39	2326.49
563.59	2416.60
563.78	2152.42
563.98	2095.07
564.17	2256.86
564.37	2064.35
564.56	2277.34
564.76	2162.66
564.96	2297.82
565.15	2293.72
565.35	2555.86
565.54	2160.61
565.74	2314.20
565.93	2346.97
566.13	2232.29
566.32	2260.96
566.52	2342.88
566.71	2334.68
566.91	2340.83
567.11	2332.64
567.30	2162.66
567.50	2383.84
567.69	2252.77
567.89	2281.44
568.08	2183.13
568.28	2273.25
568.47	2138.08
568.67	2287.58
568.86	2199.52
569.06	2342.88
569.25	2226.14
569.45	2174.94
569.64	2189.28
569.84	2228.19
570.04	2299.87
570.23	2265.05
570.43	2236.38
570.62	2340.83
570.82	2490.33
571.01	2101.22
571.21	2213.85
571.40	2111.46
571.60	2283.49
571.79	2285.53
571.99	2228.19
572.18	2179.04
572.38	2355.16
572.57	2217.95
572.77	2273.25
572.96	2553.82
573.16	2240.48
573.35	2222.05
573.55	2351.07
573.74	2400.22
573.94	2267.10
574.13	2250.72
574.33	2375.64
574.52	2385.88
574.71	2256.86
574.91	2277.34
575.10	2217.95
575.30	2267.10
575.49	2123.74
575.69	2150.37
575.88	2281.44
576.08	2338.78
576.27	2418.65
576.47	2324.44
576.66	2359.26
576.86	2408.41
577.05	2277.34
577.25	2359.26
577.44	2428.89
577.64	2265.05
577.83	2387.93
578.02	2230.24
578.22	2455.51
578.41	2383.84
578.61	2209.76
578.80	2252.77
579.00	2379.74
579.19	2340.83
579.39	2344.92
579.58	2396.12
579.77	2260.96
579.97	2447.32
580.16	2432.99
580.36	2408.41
580.55	2430.94
580.75	2412.51
580.94	2289.63
581.13	2389.98
581.33	2408.41
581.52	2289.63
581.72	2543.58
581.91	2451.42
582.11	2240.48
582.30	2408.41
582.49	2342.88
582.69	2527.19
582.88	2314.20
583.08	2349.02
583.27	2375.64
583.47	2330.59
583.66	2170.85
583.85	2154.46
584.05	2275.29
584.24	2328.54
584.44	2287.58
584.63	2377.69
584.82	2506.71
585.02	2412.51
585.21	2430.94
585.41	2400.22
585.60	2361.31
585.79	2592.73
585.99	2471.90
586.18	2437.08
586.37	2953.17
586.57	4638.65
586.76	13803.31
586.96	33271.30
587.15	47183.15
587.34	56628.38
587.54	61215.83
587.73	56345.76
587.93	39560.61
588.12	30099.00
588.31	24075.92
588.51	20874.95
588.70	19330.78
588.89	17622.77
589.09	15384.34
589.28	13000.51
589.47	10585.95
589.67	8359.81
589.86	6371.23
590.06	4685.75
590.25	3919.81
590.44	3145.68
590.64	2848.72
590.83	2660.31
591.02	2602.97
591.22	2418.65
591.41	2373.60
591.60	2326.49
591.80	2592.73
591.99	2240.48
592.18	2291.68
592.38	2392.03
592.57	2191.33
592.76	2326.49
592.96	2332.64
593.15	2267.10
593.34	2381.79
593.54	2187.23
593.73	2324.44
593.92	2342.88
594.12	2453.47
594.31	2353.12
594.50	2392.03
594.70	2410.46
594.89	2514.91
595.08	2176.99
595.28	2330.59
595.47	2701.27
595.66	2381.79
595.86	2179.04
596.05	2234.33
596.24	2267.10
596.43	2480.09
596.63	2389.98
596.82	2312.16
597.01	2310.11
597.21	2506.71
597.40	2400.22
597.59	2338.78
597.79	2363.36
597.98	2357.21
598.17	2338.78
598.36	2289.63
598.56	2400.22
598.75	2228.19
598.94	2244.57
599.14	2269.15
599.33	2244.57
599.52	2353.12
599.71	2367.45
599.91	2371.55
600.10	2349.02
600.29	2396.12
600.48	2387.93
600.68	2260.96
600.87	2326.49
601.06	2211.81
601.26	2228.19
601.45	2351.07
601.64	2224.09
601.83	2514.91
602.03	2179.04
602.22	2148.32
602.41	2392.03
602.60	2551.77
602.80	2306.01
602.99	2299.87
603.18	2183.13
603.37	2330.59
603.57	2328.54
603.76	2353.12
603.95	2432.99
604.14	2215.90
604.34	2174.94
604.53	2238.43
604.72	2256.86
604.91	2398.17
605.10	2306.01
605.30	2109.41
605.49	2488.28
605.68	2299.87
605.87	2295.77
606.07	2187.23
606.26	2314.20
606.45	2277.34
606.64	2289.63
606.84	2283.49
607.03	2334.68
607.22	2437.08
607.41	2299.87
607.60	2277.34
607.80	2369.50
607.99	2330.59
608.18	2285.53
608.37	2244.57
608.56	2244.57
608.76	2367.45
608.95	2455.51
609.14	2312.16
609.33	2408.41
609.52	2428.89
609.72	2392.03
609.91	2330.59
610.10	2381.79
610.29	2469.85
610.48	2324.44
610.68	2340.83
610.87	2328.54
611.06	2369.50
611.25	2240.48
611.44	2346.97
611.63	2308.06
611.83	2404.32
612.02	2187.23
612.21	2334.68
612.40	2152.42
612.59	2142.18
612.79	2138.08
612.98	2244.57
613.17	2392.03
613.36	2275.29
613.55	2492.38
613.74	2400.22
613.93	2441.18
614.13	2504.67
614.32	2473.95
614.51	2488.28
614.70	2301.92
614.89	2299.87
615.08	2394.08
615.28	2840.53
615.47	2168.80
615.66	2336.73
615.85	2312.16
616.04	2428.89
616.23	2349.02
616.42	2301.92
616.62	2273.25
616.81	2310.11
617.00	2287.58
617.19	2299.87
617.38	2176.99
617.57	2285.53
617.76	2293.72
617.95	2301.92
618.15	2353.12
618.34	2465.75
618.53	2170.85
618.72	2387.93
618.91	2379.74
619.10	2471.90
619.29	2252.77
619.48	2230.24
619.68	2154.46
619.87	2179.04
620.06	2207.71
620.25	2291.68
620.44	2267.10
620.63	2228.19
620.82	2217.95
621.01	2250.72
621.20	2318.30
621.39	2351.07
621.59	2301.92
621.78	2306.01
621.97	2332.64
622.16	2260.96
622.35	2314.20
622.54	2416.60
622.73	2383.84
622.92	2123.74
623.11	2363.36
623.30	2269.15
623.49	2330.59
623.68	2236.38
623.88	2396.12
624.07	2154.46
624.26	2281.44
624.45	2228.19
624.64	2236.38
624.83	2320.35
625.02	2193.37
625.21	2263.01
625.40	2293.72
625.59	2441.18
625.78	2314.20
625.97	2414.56
626.16	2502.62
626.35	2408.41
626.54	2330.59
626.74	2453.47
626.93	2398.17
627.12	2244.57
627.31	2414.56
627.50	2308.06
627.69	2353.12
627.88	2234.33
628.07	2189.28
628.26	2123.74
628.45	2248.67
628.64	2232.29
628.83	2236.38
629.02	2183.13
629.21	2334.68
629.40	2297.82
629.59	2215.90
629.78	2238.43
629.97	2301.92
630.16	2344.92
630.35	2316.25
630.54	2289.63
630.73	2252.77
630.92	2271.20
631.11	2197.47
631.30	2334.68
631.49	2336.73
631.68	2254.81
631.87	2371.55
632.06	2181.09
632.25	2553.82
632.44	2359.26
632.63	2308.06
632.82	2349.02
633.01	2176.99
633.20	2351.07
633.39	2320.35
633.58	2209.76
633.77	2275.29
633.96	2297.82
634.15	2379.74
634.34	2340.83
634.53	2326.49
634.72	2295.77
634.91	2117.60
635.10	2267.10
635.29	2375.64
635.48	2224.09
635.67	2213.85
635.86	2093.02
636.05	2381.79
636.24	2246.62
636.43	2299.87
636.62	2330.59
636.81	1998.82
637.00	2308.06
637.19	2240.48
637.38	2195.42
637.57	2260.96
637.76	2357.21
637.95	2346.97
638.14	2254.81
638.33	2404.32
638.52	2273.25
638.71	2228.19
638.89	2222.05
639.08	2564.06
639.27	2422.75
639.46	2392.03
639.65	2842.58
639.84	2873.30
640.03	2953.17
640.22	2826.20
640.41	2805.72
640.60	2519.00
640.79	2557.91
640.98	2424.80
641.17	2496.47
641.36	2412.51
641.55	2412.51
641.74	2248.67
641.92	2179.04
642.11	2295.77
642.30	2281.44
642.49	2240.48
642.68	2318.30
642.87	2240.48
643.06	2285.53
643.25	2138.08
643.44	2217.95
643.63	2283.49
643.82	2287.58
644.00	2203.61
644.19	2322.40
644.38	2172.89
644.57	2351.07
644.76	2306.01
644.95	2287.58
645.14	2242.53
645.33	2275.29
645.52	2338.78
645.71	2158.56
645.89	2189.28
646.08	2269.15
646.27	2232.29
646.46	2486.23
646.65	2099.17
646.84	2265.05
647.03	2088.93
647.22	2291.68
647.40	2254.81
647.59	2248.67
647.78	2115.55
647.97	2201.57
648.16	2215.90
648.35	2392.03
648.54	2387.93
648.73	2125.79
648.91	2330.59
649.10	2234.33
649.29	2232.29
649.48	2197.47
649.67	2389.98
649.86	2373.60
650.05	2310.11
650.23	2533.34
650.42	2357.21
650.61	2490.33
650.80	2420.70
650.99	2617.30
651.18	2441.18
651.36	2506.71
651.55	2213.85
651.74	2334.68
651.93	2215.90
652.12	2215.90
652.31	2293.72
652.49	2316.25
652.68	2324.44
652.87	2486.23
653.06	2265.05
653.25	2498.52
653.44	2267.10
653.62	2496.47
653.81	2220.00
654.00	2172.89
654.19	2412.51
654.38	2539.48
654.56	2283.49
654.75	2183.13
654.94	2377.69
655.13	2209.76
655.32	2250.72
655.51	2293.72
655.69	2164.70
655.88	2381.79
656.07	2129.89
656.26	2283.49
656.45	2154.46
656.63	2310.11
656.82	2283.49
657.01	2357.21
657.20	2293.72
657.38	2379.74
657.57	2174.94
657.76	2064.35
657.95	2328.54
658.14	2234.33
658.32	2297.82
658.51	2138.08
658.70	2330.59
658.89	2301.92
659.08	2250.72
659.26	2430.94
659.45	2213.85
659.64	2392.03
659.83	2269.15
660.01	2615.26
660.20	2297.82
660.39	2443.23
660.58	2095.07
660.76	2301.92
660.95	2146.27
661.14	2279.39
661.33	2109.41
661.51	2256.86
661.70	2242.53
661.89	2318.30
662.08	2191.33
662.26	2129.89
662.45	2146.27
662.64	2469.85
662.83	2308.06
663.01	2101.22
663.20	2238.43
663.39	2314.20
663.58	2217.95
663.76	2205.66
663.95	2346.97
664.14	2240.48
664.32	2187.23
664.51	2248.67
664.70	2060.26
664.89	2326.49
665.07	2121.70
665.26	2408.41
665.45	2168.80
665.64	2297.82
665.82	2201.57
666.01	2351.07
666.20	2226.14
666.38	2369.50
666.57	2404.32
666.76	3370.96
666.95	8134.53
667.13	16162.57
667.32	21356.22
667.51	24759.94
667.69	26568.30
667.88	24110.74
668.07	17063.68
668.25	13938.48
668.44	11450.19
668.63	9875.31
668.81	8724.35
669.00	7731.08
669.19	6854.55
669.38	5871.53
669.56	5087.15
669.75	4251.58
669.94	3657.67
670.12	3094.48
670.31	2750.42
670.50	2592.73
670.68	2521.05
670.87	2478.04
671.06	2332.64
671.24	2301.92
671.43	2449.37
671.62	2295.77
671.80	2293.72
671.99	2338.78
672.18	2342.88
672.36	2435.03
672.55	2289.63
672.74	2332.64
672.92	2301.92
673.11	2365.40
673.29	2224.09
673.48	2244.57
673.67	2308.06
673.85	2424.80
674.04	2232.29
674.23	2248.67
674.41	2469.85
674.60	2215.90
674.79	2123.74
674.97	2150.37
675.16	2301.92
675.34	2383.84
675.53	2230.24
675.72	2289.63
675.90	2432.99
676.09	2222.05
676.28	2248.67
676.46	2113.50
676.65	2422.75
676.83	2193.37
677.02	2226.14
677.21	2170.85
677.39	2318.30
677.58	2189.28
677.77	2271.20
677.95	2220.00
678.14	2265.05
678.32	2236.38
678.51	2070.50
678.70	2418.65
678.88	2189.28
679.07	2353.12
679.25	2289.63
679.44	2232.29
679.63	2187.23
679.81	2217.95
680.00	2383.84
680.18	2273.25
680.37	2414.56
680.55	2244.57
680.74	2084.83
680.93	2066.40
681.11	2248.67
681.30	2224.09
681.48	2234.33
681.67	2236.38
681.85	2228.19
682.04	2158.56
682.23	2252.77
682.41	2269.15
682.60	2205.66
682.78	2267.10
682.97	2193.37
683.15	2308.06
683.34	2271.20
683.53	2445.27
683.71	2074.59
683.90	2392.03
684.08	2285.53
684.27	2258.91
684.45	2283.49
684.64	2377.69
684.82	2269.15
685.01	2226.14
685.19	2201.57
685.38	2365.40
685.57	2269.15
685.75	2199.52
685.94	2275.29
686.12	2058.21
686.31	2207.71
686.49	2312.16
686.68	2113.50
686.86	2281.44
687.05	2215.90
687.23	2533.34
687.42	2279.39
687.60	2129.89
687.79	2400.22
687.97	2430.94
688.16	2318.30
688.34	2308.06
688.53	2101.22
688.71	2334.68
688.90	2408.41
689.08	2242.53
689.27	2146.27
689.45	2353.12
689.64	2242.53
689.82	2246.62
690.01	2318.30
690.19	2260.96
690.38	2250.72
690.56	2365.40
690.75	2170.85
690.93	2168.80
691.12	2238.43
691.30	2252.77
691.49	2166.75
691.67	2240.48
691.86	2437.08
692.04	2166.75
692.23	2179.04
692.41	2211.81
692.60	2504.67
692.78	2408.41
692.97	2289.63
693.15	2383.84
693.34	2420.70
693.52	2394.08
693.71	2236.38
693.89	2269.15
694.08	2207.71
694.26	2326.49
694.44	2363.36
694.63	2332.64
694.81	2144.22
695.00	2168.80
695.18	2383.84
695.37	2521.05
695.55	2269.15
695.74	2269.15
695.92	2138.08
696.10	2375.64
696.29	2101.22
696.47	2166.75
696.66	2066.40
696.84	2213.85
697.03	2211.81
697.21	2463.71
697.40	3350.48
697.58	2410.46
697.76	2189.28
697.95	2166.75
698.13	2195.42
698.32	2125.79
698.50	2203.61
698.68	2277.34
698.87	2228.19
699.05	2414.56
699.24	2252.77
699.42	2172.89
699.61	2318.30
699.79	2328.54
699.97	2283.49
700.16	2090.98
700.34	2158.56
700.53	2121.70
700.71	2414.56
700.89	2277.34
701.08	2242.53
701.26	2197.47
701.45	2789.33
701.63	2228.19
701.81	2258.91
702.00	2146.27
702.18	2244.57
702.37	2211.81
702.55	2521.05
702.73	2506.71
702.92	2365.40
703.10	2637.78
703.28	2490.33
703.47	2277.34
703.65	2437.08
703.84	2412.51
704.02	2281.44
704.20	2416.60
704.39	2217.95
704.57	2271.20
704.75	2424.80
704.94	2441.18
705.12	2359.26
705.30	2594.78
705.49	4413.37
705.67	10286.95
705.86	18390.76
706.04	21911.22
706.22	24532.62
706.41	25888.37
706.59	21921.46
706.77	15626.00
706.96	13055.80
707.14	11292.50
707.32	9938.79
707.51	8755.07
707.69	7288.72
707.87	5902.25
708.06	4818.87
708.24	3979.20
708.42	3239.89
708.61	3014.61
708.79	2400.22
708.97	2498.52
709.16	2453.47
709.34	2375.64
709.52	2203.61
709.71	2252.77
709.89	2308.06
710.07	2242.53
710.26	2183.13
710.44	2303.96
710.62	2420.70
710.80	2172.89
710.99	2301.92
711.17	2373.60
711.35	2215.90
711.54	2220.00
711.72	2355.16
711.90	2322.40
712.09	2322.40
712.27	2164.70
712.45	2301.92
712.63	2240.48
712.82	2234.33
713.00	2267.10
713.18	2357.21
713.37	2373.60
713.55	2428.89
713.73	2314.20
713.91	2320.35
714.10	2228.19
714.28	2244.57
714.46	2254.81
714.65	2269.15
714.83	2316.25
715.01	2234.33
715.19	2277.34
715.38	2099.17
715.56	2301.92
715.74	2277.34
715.92	2117.60
716.11	2430.94
716.29	2070.50
716.47	2234.33
716.65	2199.52
716.84	2062.30
717.02	2428.89
717.20	2007.01
717.38	2150.37
717.57	2299.87
717.75	2283.49
717.93	2170.85
718.11	2351.07
718.30	2072.54
718.48	2217.95
718.66	2349.02
718.84	2351.07
719.03	2185.18
719.21	2101.22
719.39	2387.93
719.57	2252.77
719.75	2363.36
719.94	2211.81
720.12	2279.39
720.30	2273.25
720.48	2287.58
720.67	2297.82
720.85	2146.27
721.03	2248.67
721.21	2152.42
721.39	2273.25
721.58	2281.44
721.76	2275.29
721.94	2273.25
722.12	2252.77
722.30	2473.95
722.49	2170.85
722.67	2252.77
722.85	2260.96
723.03	2146.27
723.21	2101.22
723.40	2277.34
723.58	2318.30
723.76	2316.25
723.94	2424.80
724.12	2242.53
724.30	2375.64
724.49	2396.12
724.67	2209.76
724.85	2316.25
725.03	2187.23
725.21	2281.44
725.40	2316.25
725.58	2252.77
725.76	2439.13
725.94	2310.11
726.12	2093.02
726.30	2314.20
726.49	2287.58
726.67	2207.71
726.85	2310.11
727.03	2484.19
727.21	3542.99
727.39	5044.15
727.57	5885.86
727.76	6459.29
727.94	6688.67
728.12	6369.18
728.30	5181.36
728.48	4437.95
728.66	4063.17
728.84	3719.11
729.03	3264.46
729.21	2928.60
729.39	2717.65
729.57	2494.43
729.75	2383.84
729.93	2342.88
730.11	2271.20
730.30	2244.57
730.48	2228.19
730.66	2449.37
730.84	2387.93
731.02	2275.29
731.20	2158.56
731.38	2269.15
731.56	2082.78
731.74	2142.18
731.93	2242.53
732.11	2244.57
732.29	2236.38
732.47	2295.77
732.65	2281.44
732.83	2363.36
733.01	2220.00
733.19	2174.94
733.37	2295.77
733.56	2263.01
733.74	2191.33
733.92	2392.03
734.10	2242.53
734.28	2281.44
734.46	2162.66
734.64	2234.33
734.82	2258.91
735.00	2234.33
735.18	2172.89
735.36	2220.00
735.54	2236.38
735.73	2279.39
735.91	2326.49
736.09	2269.15
736.27	2295.77
736.45	2260.96
736.63	2080.74
736.81	2170.85
736.99	2326.49
737.17	2473.95
737.35	2234.33
737.53	2250.72
737.71	2211.81
737.89	2330.59
738.07	2138.08
738.25	2195.42
738.43	2060.26
738.61	2203.61
738.80	2187.23
738.98	2129.89
739.16	2174.94
739.34	2195.42
739.52	2437.08
739.70	2256.86
739.88	2334.68
740.06	2351.07
740.24	2031.58
740.42	2402.27
740.60	2152.42
740.78	2181.09
740.96	2158.56
741.14	2248.67
741.32	2301.92
741.50	2084.83
741.68	2439.13
741.86	2375.64
742.04	2144.22
742.22	2164.70
742.40	2295.77
742.58	2316.25
742.76	2248.67
742.94	2359.26
743.12	2131.94
743.30	2244.57
743.48	2340.83
743.66	2238.43
743.84	2283.49
744.02	2258.91
744.20	2260.96
744.38	2144.22
744.56	2224.09
744.74	2453.47
744.92	2365.40
745.10	2392.03
745.28	2377.69
745.46	2367.45
745.64	2179.04
745.82	2244.57
746.00	2242.53
746.18	2260.96
746.36	2119.65
746.54	2250.72
746.72	2287.58
746.90	2158.56
747.08	2379.74
747.26	2211.81
747.44	2320.35
747.62	2308.06
747.80	2314.20
747.98	2334.68
748.15	2220.00
748.33	2373.60
748.51	2291.68
748.69	2316.25
748.87	2160.61
749.05	2234.33
749.23	2287.58
749.41	2316.25
749.59	2211.81
749.77	2318.30
749.95	2246.62
750.13	2146.27
750.31	2293.72
750.49	2281.44
750.67	2344.92
750.85	2383.84
751.03	2197.47
751.20	2482.14
751.38	2295.77
751.56	2209.76
751.74	2236.38
751.92	2228.19
752.10	2170.85
752.28	2342.88
752.46	2211.81
752.64	2242.53
752.82	2181.09
753.00	2367.45
753.18	2228.19
753.35	2240.48
753.53	2246.62
753.71	2224.09
753.89	2293.72
754.07	2293.72
754.25	2316.25
754.43	2205.66
754.61	2158.56
754.79	2256.86
754.97	2199.52
755.14	2342.88
755.32	2170.85
755.50	2254.81
755.68	2265.05
755.86	2127.84
756.04	2146.27
756.22	2064.35
756.40	2349.02
756.57	2385.88
756.75	2238.43
756.93	2389.98
757.11	2260.96
757.29	2136.03
757.47	2207.71
757.65	2131.94
757.82	2002.91
758.00	2179.04
758.18	2144.22
758.36	2207.71
758.54	2471.90
758.72	2105.31
758.90	2412.51
759.07	2303.96
759.25	2113.50
759.43	2238.43
759.61	2133.98
759.79	3166.16
759.97	2351.07
760.15	2195.42
760.32	2222.05
760.50	2236.38
760.68	2451.42
760.86	2086.88
761.04	2441.18
761.22	2367.45
761.39	2240.48
761.57	2291.68
761.75	2191.33
761.93	2285.53
762.11	2168.80
762.28	2308.06
762.46	2150.37
762.64	2334.68
762.82	2138.08
763.00	2248.67
763.18	2342.88
763.35	2158.56
763.53	2289.63
763.71	2285.53
763.89	2197.47
764.07	2281.44
764.24	2293.72
764.42	2308.06
764.60	2191.33
764.78	2340.83
764.96	2336.73
765.13	2400.22
765.31	2170.85
765.49	2351.07
765.67	2193.37
765.84	2203.61
766.02	2226.14
766.20	2105.31
766.38	2344.92
766.56	2330.59
766.73	2326.49
766.91	2248.67
767.09	2203.61
767.27	2322.40
767.44	2123.74
767.62	2209.76
767.80	2306.01
767.98	2179.04
768.15	2283.49
768.33	2338.78
768.51	2322.40
768.69	2340.83
768.87	2306.01
769.04	2269.15
769.22	2498.52
769.40	2396.12
769.58	2492.38
769.75	2314.20
769.93	2369.50
770.11	2260.96
770.28	2133.98
770.46	2301.92
770.64	2377.69
770.82	2232.29
770.99	2179.04
771.17	2291.68
771.35	2172.89
771.53	2232.29
771.70	2293.72
771.88	2330.59
772.06	2256.86
772.23	2224.09
772.41	2275.29
772.59	2258.91
772.77	2156.51
772.94	2217.95
773.12	2244.57
773.30	2201.57
773.47	2228.19
773.65	2174.94
773.83	2424.80
774.01	2269.15
774.18	2068.45
774.36	2148.32
774.54	2078.69
774.71	2297.82
774.89	2064.35
775.07	2121.70
775.24	2236.38
775.42	2232.29
775.60	2412.51
775.78	2166.75
775.95	2090.98
776.13	2043.87
776.31	2004.96
776.48	2349.02
776.66	2324.44
776.84	2197.47
777.01	2195.42
777.19	2211.81
777.37	2195.42
777.54	2303.96
777.72	2402.27
777.90	2267.10
778.07	2162.66
778.25	2523.10
778.43	2338.78
778.60	2131.94
778.78	2332.64
778.96	2383.84
779.13	2166.75
779.31	2340.83
779.49	2289.63
779.66	2293.72
779.84	2242.53
780.01	2306.01
780.19	2152.42
780.37	2416.60
780.54	2349.02
780.72	2166.75
780.90	2226.14
781.07	2228.19
781.25	2125.79
781.43	2258.91
781.60	2201.57
781.78	2437.08
781.95	2310.11
782.13	2228.19
782.31	2220.00
782.48	2080.74
782.66	2228.19
782.83	2418.65
783.01	2289.63
783.19	2328.54
783.36	2179.04
783.54	2170.85
783.72	2281.44
783.89	2195.42
784.07	2228.19
784.24	2320.35
784.42	2334.68
784.60	2283.49
784.77	2258.91
784.95	2011.11
785.12	2201.57
785.30	2269.15
785.47	2187.23
785.65	2191.33
785.83	2269.15
786.00	2154.46
786.18	2316.25
786.35	2078.69
786.53	2133.98
786.71	2277.34
786.88	2291.68
787.06	2289.63
787.23	2176.99
787.41	2095.07
787.58	2220.00
787.76	2166.75
787.94	2267.10
788.11	2228.19
788.29	2123.74
788.46	2217.95
788.64	2115.55
788.81	2174.94
788.99	2166.75
789.16	2162.66
789.34	2179.04
789.52	2211.81
789.69	2133.98
789.87	2054.11
790.04	2203.61
790.22	2285.53
790.39	2482.14
790.57	2076.64
790.74	2181.09
790.92	2326.49
791.09	2066.40
791.27	2199.52
791.44	2318.30
791.62	2258.91
791.79	2326.49
791.97	2285.53
792.15	2547.67
792.32	2334.68
792.50	2285.53
792.67	2428.89
792.85	2363.36
793.02	2281.44
793.20	2176.99
793.37	2140.13
793.55	2213.85
793.72	2138.08
793.90	2308.06
794.07	2158.56
794.25	2232.29
794.42	2318.30
794.60	2232.29
794.77	2228.19
794.95	2295.77
795.12	2308.06
795.30	2244.57
795.47	2095.07
795.65	2492.38
795.82	2338.78
796.00	2203.61
796.17	2226.14
796.34	2179.04
796.52	2213.85
796.69	2295.77
796.87	2375.64
797.04	2371.55
797.22	2363.36
797.39	2193.37
797.57	2326.49
797.74	2306.01
797.92	2314.20
798.09	2164.70
798.27	2412.51
798.44	2156.51
798.62	2195.42
798.79	2293.72
798.96	2285.53
799.14	2199.52
799.31	2432.99
799.49	2220.00
799.66	2183.13
799.84	2265.05
800.01	2090.98
800.19	2220.00
800.36	2097.12
800.53	2265.05
800.71	2301.92
800.88	2445.27
801.06	2250.72
801.23	2211.81
801.41	2201.57
801.58	2185.18
801.75	2152.42
801.93	2275.29
802.10	2346.97
802.28	2209.76
802.45	2220.00
802.63	2299.87
802.80	2377.69
802.97	2185.18
803.15	2213.85
803.32	2254.81
803.50	2152.42
803.67	2158.56
803.84	2174.94
804.02	2242.53
804.19	2207.71
804.37	2070.50
804.54	2127.84
804.71	2207.71
804.89	2265.05
805.06	2136.03
805.24	2105.31
805.41	2093.02
805.58	2209.76
805.76	2519.00
805.93	2195.42
806.10	2342.88
806.28	2273.25
806.45	2242.53
806.63	2297.82
806.80	2301.92
806.97	2279.39
807.15	2322.40
807.32	2289.63
807.49	2213.85
807.67	2168.80
807.84	2326.49
808.01	2070.50
808.19	2414.56
808.36	2574.30
808.54	2260.96
808.71	2203.61
808.88	2295.77
809.06	2447.32
809.23	2420.70
809.40	2271.20
809.58	2275.29
809.75	2273.25
809.92	2140.13
810.10	2424.80
810.27	2250.72
810.44	2254.81
810.62	2314.20
810.79	2220.00
810.96	2211.81
811.14	2320.35
811.31	2297.82
811.48	2322.40
811.66	2183.13
811.83	2369.50
812.00	2277.34
812.18	2310.11
812.35	2469.85
812.52	2191.33
812.69	2242.53
812.87	2133.98
813.04	2220.00
813.21	2256.86
813.39	2058.21
813.56	2199.52
813.73	2291.68
813.91	2203.61
814.08	2215.90
814.25	2322.40
814.42	2105.31
814.60	2215.90
814.77	2273.25
814.94	2258.91
815.12	2222.05
815.29	2351.07
815.46	2115.55
815.63	2269.15
815.81	2228.19
815.98	2088.93
816.15	2256.86
816.33	2256.86
816.50	2174.94
816.67	2244.57
816.84	2222.05
817.02	2133.98
817.19	2209.76
817.36	2310.11
817.53	2289.63
817.71	2187.23
817.88	2308.06
818.05	2260.96
818.22	2224.09
818.40	2400.22
818.57	2234.33
818.74	2301.92
818.91	2199.52
819.09	2285.53
819.26	2297.82
819.43	2127.84
819.60	2181.09
819.78	2232.29
819.95	2334.68
820.12	2146.27
820.29	2414.56
820.47	2367.45
820.64	2187.23
820.81	2105.31
820.98	2183.13
821.15	2156.51
821.33	2312.16
821.50	2123.74
821.67	2232.29
821.84	2179.04
822.02	2301.92
822.19	2363.36
822.36	2164.70
822.53	2275.29
822.70	2195.42
822.88	2236.38
823.05	2359.26
823.22	2244.57
823.39	2308.06
823.56	2187.23
823.74	2365.40
823.91	2119.65
824.08	2209.76
824.25	2162.66
824.42	2455.51
824.60	2080.74
824.77	2146.27
824.94	2211.81
825.11	2275.29
825.28	2043.87
825.45	2308.06
825.63	2310.11
825.80	2103.26
825.97	2285.53
826.14	2277.34
826.31	2115.55
826.48	2281.44
826.66	2215.90
826.83	2228.19
827.00	2187.23
827.17	2119.65
827.34	2211.81
827.51	2318.30
827.69	2193.37
827.86	2152.42
828.03	2217.95
828.20	2232.29
828.37	2158.56
828.54	2326.49
828.71	2150.37
828.89	2369.50
829.06	2230.24
829.23	2519.00
829.40	2248.67
829.57	2234.33
829.74	2308.06
829.91	2201.57
830.09	2160.61
830.26	2306.01
830.43	2412.51
830.60	2203.61
830.77	2346.97
830.94	2314.20
831.11	2375.64
831.28	2195.42
831.46	2344.92
831.63	2275.29
831.80	2334.68
831.97	2207.71
832.14	2162.66
832.31	2252.77
832.48	2306.01
832.65	2383.84
832.82	2254.81
832.99	2269.15
833.17	2168.80
833.34	2449.37
833.51	2258.91
833.68	2007.01
833.85	2320.35
834.02	2125.79
834.19	2170.85
834.36	2109.41
834.53	2271.20
834.70	2310.11
834.87	2295.77
835.04	2195.42
835.22	2176.99
835.39	2260.96
835.56	2166.75
835.73	2215.90
835.90	2363.36
836.07	2136.03
836.24	2228.19
836.41	2099.17
836.58	2179.04
836.75	2369.50
836.92	2215.90
837.09	2166.75
837.26	2303.96
837.43	2273.25
837.60	2267.10
837.77	2111.46
837.94	2324.44
838.12	2322.40
838.29	2269.15
838.46	2093.02
838.63	2148.32
838.80	2367.45
838.97	2336.73
839.14	2154.46
839.31	2205.66
839.48	2306.01
839.65	2222.05
839.82	2277.34
839.99	2260.96
840.16	2234.33
840.33	2148.32
840.50	2248.67
840.67	2193.37
840.84	2109.41
841.01	2265.05
841.18	2160.61
841.35	2238.43
841.52	2346.97
841.69	2406.36
841.86	2248.67
842.03	2254.81
842.20	2324.44
842.37	2220.00
842.54	2238.43
842.71	2316.25
842.88	2183.13
843.05	2228.19
843.22	2263.01
843.39	2318.30
843.56	2166.75
843.73	2160.61
843.90	2234.33
844.07	2326.49
844.24	2226.14
844.41	2246.62
844.58	2211.81
844.75	2234.33
844.92	2299.87
845.09	2162.66
845.26	2172.89
845.43	2346.97
845.60	2238.43
845.77	2250.72
845.94	2252.77
846.10	2369.50
846.27	2162.66
846.44	2156.51
846.61	2168.80
846.78	2301.92
846.95	2301.92
847.12	2158.56
847.29	2201.57
847.46	2170.85
847.63	2289.63
847.80	2105.31
847.97	2213.85
848.14	2435.03
848.31	2187.23
848.48	2047.97
848.65	2310.11
848.82	2154.46
848.98	2502.62
849.15	2326.49
849.32	2330.59
849.49	2363.36
849.66	2242.53
849.83	2166.75
850.00	2131.94
850.17	2324.44
850.34	2203.61
850.51	2187.23
850.68	2203.61
850.85	2504.67
851.01	2295.77
851.18	2217.95
851.35	2156.51
851.52	2248.67
851.69	2392.03
851.86	2088.93
852.03	2215.90
852.20	2334.68
852.37	2299.87
852.53	2072.54
852.70	2185.18
852.87	2242.53
853.04	2312.16
853.21	2211.81
853.38	2277.34
853.55	2381.79
853.72	2349.02
853.89	2115.55
854.05	2168.80
854.22	2211.81
854.39	2181.09
854.56	2240.48
854.73	2289.63
854.90	2136.03
855.07	2197.47
855.23	2146.27
855.40	2133.98
855.57	2191.33
855.74	2043.87
855.91	2324.44
856.08	2158.56
856.25	2090.98
856.41	2203.61
856.58	2162.66
856.75	2238.43
856.92	2103.26
857.09	2301.92
857.26	2113.50
857.42	2185.18
857.59	2338.78
857.76	2346.97
857.93	2209.76
858.10	2242.53
858.27	2179.04
858.43	2207.71
858.60	2209.76
858.77	2136.03
858.94	2207.71
859.11	2418.65
859.27	2154.46
859.44	2123.74
859.61	2408.41
859.78	2373.60
859.95	2176.99
860.12	2123.74
860.28	2432.99
860.45	2461.66
860.62	2166.75
860.79	2246.62
860.95	2176.99
861.12	2240.48
861.29	2150.37
861.46	2133.98
861.63	2254.81
861.79	2236.38
861.96	2136.03
862.13	2158.56
862.30	2379.74
862.47	2158.56
862.63	2080.74
862.80	2340.83
862.97	2240.48
863.14	2250.72
863.30	2240.48
863.47	2152.42
863.64	2326.49
863.81	2334.68
863.97	2170.85
864.14	2189.28
864.31	2226.14
864.48	2250.72
864.65	2170.85
864.81	2293.72
864.98	2314.20
865.15	2297.82
865.32	2349.02
865.48	2275.29
865.65	2383.84
865.82	2211.81
865.98	2244.57
866.15	2287.58
866.32	2209.76
866.49	2205.66
866.65	2260.96
866.82	2179.04
866.99	2277.34
867.16	2125.79
867.32	2142.18
867.49	2195.42
867.66	2244.57
867.83	2146.27
867.99	2078.69
868.16	2179.04
868.33	2138.08
868.49	2240.48
868.66	2226.14
868.83	2244.57
868.99	2211.81
869.16	2267.10
869.33	2330.59
869.50	2226.14
869.66	2250.72
869.83	2242.53
870.00	2121.70
870.16	2332.64
870.33	2191.33
870.50	2322.40
870.66	2236.38
870.83	2248.67
871.00	2211.81
871.17	2334.68
871.33	2293.72
871.50	2185.18
871.67	2203.61
871.83	2174.94
872.00	2381.79
872.17	2197.47
872.33	2396.12
872.50	2363.36
872.67	2236.38
872.83	2111.46
873.00	2269.15
873.17	2226.14
873.33	2230.24
873.50	2258.91
873.67	2179.04
873.83	2158.56
874.00	2226.14
874.16	2256.86
874.33	2254.81
874.50	2146.27
874.66	2265.05
874.83	2252.77
875.00	2371.55
875.16	2332.64
875.33	2316.25
875.50	2080.74
875.66	2150.37
875.83	2293.72
875.99	2193.37
876.16	2260.96
876.33	2170.85
876.49	2281.44
876.66	2340.83
876.83	2254.81
876.99	2047.97
877.16	2240.48
877.32	2144.22
877.49	2152.42
877.66	2258.91
877.82	2424.80
877.99	2250.72
878.15	2334.68
878.32	2248.67
878.49	2271.20
878.65	2242.53
878.82	2346.97
878.98	2174.94
879.15	2316.25
879.32	2269.15
879.48	2238.43
879.65	2303.96
879.81	2152.42
879.98	2166.75
880.15	2088.93
880.31	2293.72
880.48	2142.18
880.64	2328.54
880.81	2297.82
880.97	2420.70
881.14	2396.12
881.31	2179.04
881.47	2363.36
881.64	2234.33
881.80	2113.50
881.97	2277.34
882.13	2359.26
882.30	2117.60
882.47	2187.23
882.63	2162.66
882.80	2121.70
882.96	2150.37
883.13	2424.80
883.29	2203.61
883.46	2248.67
883.62	2475.99
883.79	2226.14
883.95	2340.83
884.12	2189.28
884.29	2404.32
884.45	2238.43
884.62	2217.95
884.78	2154.46
884.95	2424.80
885.11	2228.19
885.28	2328.54
885.44	2138.08
885.61	2338.78
885.77	2435.03
885.94	2308.06
886.10	2234.33
886.27	2203.61
886.43	2383.84
886.60	2267.10
886.76	2220.00
886.93	2103.26
887.09	2224.09
887.26	2113.50
887.42	2258.91
887.59	2277.34
887.75	2432.99
887.92	2316.25
888.08	2291.68
888.25	2383.84
888.41	2320.35
888.58	2260.96
888.74	2148.32
888.91	2203.61
>>>>>End Processed Spectral Data<<<<<
