SpectraSuite Data File
++++++++++++++++++++++++++++++++++++
Date: Thu May 05 13:20:49 CEST 2016
User: root
Dark Spectrum Present: No
Reference Spectrum Present: No
Number of Sampled Component Spectra: 1
Spectrometers: USB4C02835
Integration Time (usec): 100000 (USB4C02835)
Spectra Averaged: 1 (USB4C02835)
Boxcar Smoothing: 0 (USB4C02835)
Correct for Electrical Dark: No (USB4C02835)
Strobe/Lamp Enabled: No (USB4C02835)
Correct for Detector Non-linearity: No (USB4C02835)
Correct for Stray Light: No (USB4C02835)
Number of Pixels in Processed Spectrum: 3648
>>>>>Begin Processed Spectral Data<<<<<
177.47	1781.73
177.69	1781.73
177.91	1781.73
178.13	1814.50
178.36	1808.36
178.58	2158.56
178.80	2252.77
179.02	2097.12
179.24	2095.07
179.46	2172.89
179.68	2121.70
179.90	2199.52
180.13	2279.39
180.35	2107.36
180.57	2228.19
180.79	2424.80
181.01	2220.00
181.23	2246.62
181.45	2271.20
181.67	2369.50
181.90	2295.77
182.12	2158.56
182.34	2056.16
182.56	2285.53
182.78	2256.86
183.00	2160.61
183.22	2207.71
183.44	2037.73
183.66	2539.48
183.89	2299.87
184.11	2232.29
184.33	2297.82
184.55	2326.49
184.77	2176.99
184.99	2260.96
185.21	2199.52
185.43	2488.28
185.65	2160.61
185.87	2170.85
186.10	2453.47
186.32	2447.32
186.54	2222.05
186.76	2191.33
186.98	2289.63
187.20	2238.43
187.42	2146.27
187.64	2228.19
187.86	2312.16
188.08	2310.11
188.30	2127.84
188.52	2285.53
188.75	2365.40
188.97	2398.17
189.19	2191.33
189.41	2101.22
189.63	2357.21
189.85	2289.63
190.07	2050.02
190.29	2072.54
190.51	2299.87
190.73	2195.42
190.95	2293.72
191.17	2201.57
191.39	2105.31
191.61	2215.90
191.84	2195.42
192.06	2232.29
192.28	2138.08
192.50	2586.58
192.72	2246.62
192.94	2117.60
193.16	2293.72
193.38	2240.48
193.60	2136.03
193.82	2273.25
194.04	2379.74
194.26	2324.44
194.48	2172.89
194.70	2129.89
194.92	2279.39
195.14	2373.60
195.36	2158.56
195.58	2277.34
195.80	2222.05
196.02	2179.04
196.24	2097.12
196.46	2181.09
196.69	2211.81
196.91	2428.89
197.13	2136.03
197.35	2174.94
197.57	2342.88
197.79	2303.96
198.01	2193.37
198.23	2312.16
198.45	2373.60
198.67	2136.03
198.89	2150.37
199.11	2260.96
199.33	2217.95
199.55	1968.10
199.77	2138.08
199.99	2273.25
200.21	2252.77
200.43	2248.67
200.65	2160.61
200.87	2019.30
201.09	2291.68
201.31	2332.64
201.53	2166.75
201.75	2246.62
201.97	2306.01
202.19	2242.53
202.41	2269.15
202.63	2310.11
202.85	2301.92
203.07	2224.09
203.29	2174.94
203.51	2133.98
203.73	2203.61
203.95	2572.25
204.17	2117.60
204.39	2179.04
204.61	2242.53
204.83	2189.28
205.05	2330.59
205.27	2201.57
205.49	2562.01
205.71	2224.09
205.93	2121.70
206.15	2148.32
206.37	2236.38
206.59	2248.67
206.81	2101.22
207.03	2099.17
207.25	2174.94
207.47	2310.11
207.69	2150.37
207.91	2344.92
208.13	2465.75
208.34	2164.70
208.56	2138.08
208.78	2170.85
209.00	2166.75
209.22	2226.14
209.44	2146.27
209.66	2105.31
209.88	2142.18
210.10	2254.81
210.32	2195.42
210.54	2351.07
210.76	2201.57
210.98	2340.83
211.20	2054.11
211.42	2275.29
211.64	2334.68
211.86	2271.20
212.08	2195.42
212.30	2242.53
212.52	2217.95
212.74	2297.82
212.96	2232.29
213.17	2201.57
213.39	2324.44
213.61	2445.27
213.83	2154.46
214.05	2207.71
214.27	2369.50
214.49	2111.46
214.71	2068.45
214.93	2283.49
215.15	2193.37
215.37	2285.53
215.59	1988.58
215.81	2273.25
216.03	2334.68
216.24	2332.64
216.46	2162.66
216.68	2246.62
216.90	2306.01
217.12	2408.41
217.34	2146.27
217.56	2238.43
217.78	2357.21
218.00	2308.06
218.22	2226.14
218.44	2199.52
218.66	2297.82
218.87	2394.08
219.09	2152.42
219.31	2217.95
219.53	2293.72
219.75	2189.28
219.97	2269.15
220.19	2207.71
220.41	2242.53
220.63	2418.65
220.85	2236.38
221.06	2138.08
221.28	2320.35
221.50	2322.40
221.72	2195.42
221.94	2117.60
222.16	2318.30
222.38	2359.26
222.60	2142.18
222.82	2185.18
223.03	2326.49
223.25	2127.84
223.47	2228.19
223.69	2361.31
223.91	2250.72
224.13	2332.64
224.35	2119.65
224.57	2314.20
224.78	2179.04
225.00	2187.23
225.22	2172.89
225.44	2119.65
225.66	2324.44
225.88	2185.18
226.10	2275.29
226.32	2170.85
226.53	2398.17
226.75	2146.27
226.97	2174.94
227.19	2172.89
227.41	2193.37
227.63	2236.38
227.85	2156.51
228.06	2179.04
228.28	2260.96
228.50	2365.40
228.72	2027.49
228.94	2170.85
229.16	2129.89
229.37	2142.18
229.59	2101.22
229.81	2371.55
230.03	2252.77
230.25	2158.56
230.47	2084.83
230.69	2095.07
230.90	2342.88
231.12	2193.37
231.34	2209.76
231.56	2263.01
231.78	2166.75
232.00	2258.91
232.21	2217.95
232.43	2150.37
232.65	2004.96
232.87	2273.25
233.09	2070.50
233.30	2121.70
233.52	2371.55
233.74	2297.82
233.96	2224.09
234.18	2277.34
234.40	2203.61
234.61	2461.66
234.83	2088.93
235.05	2152.42
235.27	2537.43
235.49	2404.32
235.70	2054.11
235.92	2297.82
236.14	2316.25
236.36	2506.71
236.58	2045.92
236.79	2252.77
237.01	2195.42
237.23	2205.66
237.45	2367.45
237.67	2174.94
237.88	2236.38
238.10	2412.51
238.32	2113.50
238.54	2084.83
238.76	2232.29
238.97	2191.33
239.19	2109.41
239.41	2244.57
239.63	2334.68
239.85	2181.09
240.06	2244.57
240.28	2138.08
240.50	2314.20
240.72	2220.00
240.93	2162.66
241.15	2281.44
241.37	2297.82
241.59	2357.21
241.81	2172.89
242.02	2152.42
242.24	2338.78
242.46	2301.92
242.68	2070.50
242.89	2162.66
243.11	2340.83
243.33	2179.04
243.55	2201.57
243.76	2256.86
243.98	2246.62
244.20	2301.92
244.42	2195.42
244.64	2209.76
244.85	2088.93
245.07	2252.77
245.29	2297.82
245.51	2213.85
245.72	2291.68
245.94	2357.21
246.16	2242.53
246.38	2230.24
246.59	2164.70
246.81	2181.09
247.03	2129.89
247.24	2068.45
247.46	2228.19
247.68	2246.62
247.90	2140.13
248.11	2144.22
248.33	2355.16
248.55	2209.76
248.77	2215.90
248.98	2224.09
249.20	2373.60
249.42	2205.66
249.64	2297.82
249.85	2199.52
250.07	2189.28
250.29	2285.53
250.50	2297.82
250.72	2097.12
250.94	2193.37
251.16	2496.47
251.37	2193.37
251.59	2297.82
251.81	2252.77
252.02	2402.27
252.24	2119.65
252.46	2293.72
252.68	2144.22
252.89	2203.61
253.11	2105.31
253.33	2316.25
253.54	2424.80
253.76	2140.13
253.98	2181.09
254.20	2176.99
254.41	2088.93
254.63	2205.66
254.85	2015.20
255.06	2226.14
255.28	2303.96
255.50	2277.34
255.71	2160.61
255.93	2117.60
256.15	2205.66
256.36	2281.44
256.58	2146.27
256.80	2277.34
257.02	2203.61
257.23	2133.98
257.45	2176.99
257.67	2224.09
257.88	2187.23
258.10	2291.68
258.32	2199.52
258.53	2183.13
258.75	2420.70
258.97	2166.75
259.18	2172.89
259.40	2226.14
259.62	2365.40
259.83	2504.67
260.05	2199.52
260.27	2639.83
260.48	2297.82
260.70	2158.56
260.92	2129.89
261.13	2232.29
261.35	2283.49
261.57	2283.49
261.78	2088.93
262.00	2084.83
262.22	2260.96
262.43	2162.66
262.65	2193.37
262.86	2246.62
263.08	2441.18
263.30	2285.53
263.51	2068.45
263.73	2299.87
263.95	2355.16
264.16	2211.81
264.38	2133.98
264.60	2160.61
264.81	2281.44
265.03	2371.55
265.25	2334.68
265.46	2281.44
265.68	2377.69
265.89	2301.92
266.11	2109.41
266.33	2181.09
266.54	2359.26
266.76	2318.30
266.98	2226.14
267.19	2299.87
267.41	2328.54
267.62	2166.75
267.84	2074.59
268.06	2240.48
268.27	2197.47
268.49	2404.32
268.70	2195.42
268.92	2189.28
269.14	2215.90
269.35	2179.04
269.57	2203.61
269.79	2195.42
270.00	2220.00
270.22	2353.12
270.43	2111.46
270.65	2009.06
270.87	2301.92
271.08	2301.92
271.30	2213.85
271.51	2168.80
271.73	2287.58
271.95	2353.12
272.16	2152.42
272.38	2236.38
272.59	2191.33
272.81	2234.33
273.02	2267.10
273.24	2314.20
273.46	2428.89
273.67	2160.61
273.89	2146.27
274.10	2107.36
274.32	2387.93
274.54	2265.05
274.75	2211.81
274.97	2176.99
275.18	2377.69
275.40	2285.53
275.61	2222.05
275.83	2242.53
276.05	2142.18
276.26	2226.14
276.48	2293.72
276.69	2162.66
276.91	2148.32
277.12	2269.15
277.34	2293.72
277.55	2332.64
277.77	2258.91
277.99	2234.33
278.20	2127.84
278.42	2086.88
278.63	2176.99
278.85	2201.57
279.06	2007.01
279.28	2258.91
279.49	2314.20
279.71	2291.68
279.93	2265.05
280.14	2203.61
280.36	2181.09
280.57	2379.74
280.79	2244.57
281.00	2133.98
281.22	2234.33
281.43	2355.16
281.65	2039.78
281.86	2179.04
282.08	2326.49
282.29	2465.75
282.51	2131.94
282.73	2244.57
282.94	2113.50
283.16	2240.48
283.37	2412.51
283.59	2166.75
283.80	2238.43
284.02	2170.85
284.23	2215.90
284.45	2162.66
284.66	2226.14
284.88	2174.94
285.09	2232.29
285.31	2271.20
285.52	2351.07
285.74	2160.61
285.95	2359.26
286.17	2228.19
286.38	2326.49
286.60	2228.19
286.81	2244.57
287.03	2222.05
287.24	2279.39
287.46	2281.44
287.67	2187.23
287.89	2357.21
288.10	2306.01
288.32	2260.96
288.53	2336.73
288.75	2213.85
288.96	2314.20
289.18	2187.23
289.39	2199.52
289.61	2291.68
289.82	2400.22
290.04	2410.46
290.25	2168.80
290.47	2271.20
290.68	2318.30
290.90	2353.12
291.11	2064.35
291.33	2400.22
291.54	2170.85
291.76	2121.70
291.97	2297.82
292.18	2246.62
292.40	2240.48
292.61	2072.54
292.83	2437.08
293.04	2240.48
293.26	2209.76
293.47	2254.81
293.69	2131.94
293.90	2226.14
294.12	2353.12
294.33	2232.29
294.55	2263.01
294.76	2285.53
294.97	2379.74
295.19	2480.09
295.40	2209.76
295.62	2303.96
295.83	2301.92
296.05	2222.05
296.26	2281.44
296.48	2176.99
296.69	2228.19
296.90	2183.13
297.12	2349.02
297.33	2416.60
297.55	2211.81
297.76	2293.72
297.98	2289.63
298.19	2287.58
298.41	2267.10
298.62	2185.18
298.83	2369.50
299.05	2213.85
299.26	2174.94
299.48	2207.71
299.69	2326.49
299.90	2252.77
300.12	2168.80
300.33	2381.79
300.55	2277.34
300.76	2220.00
300.98	2162.66
301.19	2320.35
301.40	2297.82
301.62	2234.33
301.83	2277.34
302.05	2150.37
302.26	2183.13
302.47	2267.10
302.69	2183.13
302.90	2342.88
303.12	2017.25
303.33	2310.11
303.54	2422.75
303.76	2232.29
303.97	2187.23
304.19	2377.69
304.40	2207.71
304.61	2322.40
304.83	2351.07
305.04	2242.53
305.26	2306.01
305.47	2189.28
305.68	2203.61
305.90	2152.42
306.11	2383.84
306.33	2170.85
306.54	2195.42
306.75	2160.61
306.97	2068.45
307.18	2150.37
307.39	2232.29
307.61	2314.20
307.82	2289.63
308.04	2387.93
308.25	2154.46
308.46	2277.34
308.68	2240.48
308.89	2244.57
309.10	2279.39
309.32	2265.05
309.53	2199.52
309.74	2332.64
309.96	2093.02
310.17	2318.30
310.39	2127.84
310.60	2289.63
310.81	2195.42
311.03	2101.22
311.24	2269.15
311.45	2285.53
311.67	2367.45
311.88	2189.28
312.09	2185.18
312.31	2236.38
312.52	2129.89
312.73	2191.33
312.95	2074.59
313.16	2140.13
313.37	2326.49
313.59	2205.66
313.80	2355.16
314.01	2383.84
314.23	2209.76
314.44	2240.48
314.65	2142.18
314.87	2172.89
315.08	2170.85
315.29	2220.00
315.51	2146.27
315.72	2064.35
315.93	2334.68
316.15	2332.64
316.36	2203.61
316.57	2299.87
316.79	2267.10
317.00	2224.09
317.21	2334.68
317.43	2246.62
317.64	2297.82
317.85	2162.66
318.07	2187.23
318.28	2224.09
318.49	2381.79
318.70	2502.62
318.92	2310.11
319.13	2396.12
319.34	2394.08
319.56	2318.30
319.77	2353.12
319.98	2359.26
320.20	2297.82
320.41	2340.83
320.62	2346.97
320.83	2093.02
321.05	2482.14
321.26	2316.25
321.47	2234.33
321.69	2441.18
321.90	2076.64
322.11	2220.00
322.32	2258.91
322.54	2351.07
322.75	2160.61
322.96	2527.19
323.18	2113.50
323.39	2086.88
323.60	2242.53
323.81	2238.43
324.03	2150.37
324.24	2260.96
324.45	2250.72
324.66	2314.20
324.88	2357.21
325.09	2398.17
325.30	2232.29
325.52	2308.06
325.73	2234.33
325.94	2254.81
326.15	2152.42
326.37	2193.37
326.58	2301.92
326.79	2439.13
327.00	2148.32
327.22	2336.73
327.43	2236.38
327.64	2121.70
327.85	2228.19
328.07	2195.42
328.28	2492.38
328.49	2154.46
328.70	2236.38
328.92	2265.05
329.13	2193.37
329.34	2357.21
329.55	2426.84
329.76	2320.35
329.98	2267.10
330.19	2375.64
330.40	2252.77
330.61	2310.11
330.83	2301.92
331.04	2215.90
331.25	2252.77
331.46	2215.90
331.68	2111.46
331.89	2365.40
332.10	2260.96
332.31	2125.79
332.52	2293.72
332.74	2408.41
332.95	2058.21
333.16	2162.66
333.37	2260.96
333.58	2170.85
333.80	2324.44
334.01	2064.35
334.22	2293.72
334.43	2252.77
334.64	2150.37
334.86	2179.04
335.07	2195.42
335.28	2369.50
335.49	2095.07
335.70	2170.85
335.92	2404.32
336.13	2453.47
336.34	2326.49
336.55	2332.64
336.76	2285.53
336.98	2113.50
337.19	2197.47
337.40	2379.74
337.61	2449.37
337.82	2162.66
338.04	2236.38
338.25	2068.45
338.46	2193.37
338.67	2162.66
338.88	2209.76
339.09	2123.74
339.31	2224.09
339.52	2105.31
339.73	2043.87
339.94	2230.24
340.15	2324.44
340.36	2203.61
340.58	2215.90
340.79	2222.05
341.00	2346.97
341.21	2138.08
341.42	2392.03
341.63	2242.53
341.85	2346.97
342.06	2236.38
342.27	2224.09
342.48	2381.79
342.69	2127.84
342.90	2263.01
343.12	2400.22
343.33	2160.61
343.54	2328.54
343.75	2408.41
343.96	2215.90
344.17	2183.13
344.38	2220.00
344.60	2187.23
344.81	2191.33
345.02	2285.53
345.23	2392.03
345.44	2519.00
345.65	2340.83
345.86	2213.85
346.07	2150.37
346.29	2191.33
346.50	2396.12
346.71	2283.49
346.92	2367.45
347.13	2424.80
347.34	2211.81
347.55	2148.32
347.76	2273.25
347.98	2088.93
348.19	2199.52
348.40	2318.30
348.61	2203.61
348.82	2437.08
349.03	2293.72
349.24	2113.50
349.45	2473.95
349.66	2035.68
349.88	2334.68
350.09	2111.46
350.30	2426.84
350.51	2359.26
350.72	2224.09
350.93	2267.10
351.14	2150.37
351.35	2400.22
351.56	2220.00
351.77	2113.50
351.99	2295.77
352.20	2371.55
352.41	2342.88
352.62	2007.01
352.83	2211.81
353.04	2271.20
353.25	2185.18
353.46	2312.16
353.67	2308.06
353.88	2072.54
354.09	2310.11
354.30	2211.81
354.52	2242.53
354.73	2252.77
354.94	2170.85
355.15	2265.05
355.36	2506.71
355.57	2203.61
355.78	2285.53
355.99	2125.79
356.20	2183.13
356.41	2424.80
356.62	2232.29
356.83	2306.01
357.04	2375.64
357.25	2093.02
357.46	2236.38
357.68	2170.85
357.89	2195.42
358.10	2246.62
358.31	2281.44
358.52	2211.81
358.73	2140.13
358.94	2125.79
359.15	2183.13
359.36	2308.06
359.57	2236.38
359.78	2273.25
359.99	2285.53
360.20	2158.56
360.41	2236.38
360.62	2273.25
360.83	2162.66
361.04	2254.81
361.25	2297.82
361.46	2437.08
361.67	2250.72
361.88	2291.68
362.09	2363.36
362.30	2351.07
362.51	2193.37
362.72	2248.67
362.93	2406.36
363.14	2326.49
363.35	2232.29
363.56	2113.50
363.78	2373.60
363.99	2322.40
364.20	2201.57
364.41	2252.77
364.62	2414.56
364.83	2287.58
365.04	2242.53
365.25	2201.57
365.46	2519.00
365.67	2187.23
365.88	2318.30
366.09	2146.27
366.30	2215.90
366.51	2258.91
366.72	2170.85
366.93	2197.47
367.14	2351.07
367.35	2365.40
367.56	2244.57
367.77	2420.70
367.98	2250.72
368.18	2367.45
368.39	2392.03
368.60	2136.03
368.81	2326.49
369.02	2275.29
369.23	2246.62
369.44	2107.36
369.65	2148.32
369.86	2275.29
370.07	2232.29
370.28	2160.61
370.49	2242.53
370.70	2310.11
370.91	2183.13
371.12	2099.17
371.33	2320.35
371.54	2191.33
371.75	2406.36
371.96	1986.53
372.17	2285.53
372.38	2222.05
372.59	2281.44
372.80	2144.22
373.01	2224.09
373.22	2215.90
373.43	2252.77
373.64	2121.70
373.85	2385.88
374.06	2367.45
374.26	2326.49
374.47	2220.00
374.68	2422.75
374.89	2338.78
375.10	2179.04
375.31	2224.09
375.52	2295.77
375.73	2301.92
375.94	2076.64
376.15	2355.16
376.36	2195.42
376.57	2258.91
376.78	2179.04
376.99	2316.25
377.20	2383.84
377.40	2217.95
377.61	2355.16
377.82	2129.89
378.03	2363.36
378.24	2404.32
378.45	2279.39
378.66	2310.11
378.87	2029.54
379.08	2154.46
379.29	2199.52
379.50	2330.59
379.71	2263.01
379.91	2265.05
380.12	2230.24
380.33	2234.33
380.54	2277.34
380.75	2287.58
380.96	2271.20
381.17	2297.82
381.38	2211.81
381.59	2283.49
381.80	2228.19
382.00	2377.69
382.21	2238.43
382.42	2463.71
382.63	2535.39
382.84	2185.18
383.05	2267.10
383.26	2383.84
383.47	2220.00
383.68	2236.38
383.88	2240.48
384.09	2275.29
384.30	2453.47
384.51	2254.81
384.72	2154.46
384.93	2170.85
385.14	2273.25
385.35	2330.59
385.55	2113.50
385.76	2383.84
385.97	2244.57
386.18	2101.22
386.39	2250.72
386.60	2224.09
386.81	2228.19
387.02	2144.22
387.22	2183.13
387.43	2422.75
387.64	2342.88
387.85	2420.70
388.06	2400.22
388.27	3960.77
388.48	8228.74
388.68	11698.00
388.89	13905.71
389.10	15277.85
389.31	13924.14
389.52	10882.91
389.73	9508.72
389.93	8576.89
390.14	7927.69
390.35	7124.88
390.56	6320.03
390.77	5263.28
390.98	3993.54
391.18	3274.70
391.39	2734.04
391.60	2330.59
391.81	2426.84
392.02	2197.47
392.23	2531.29
392.43	2277.34
392.64	2320.35
392.85	2242.53
393.06	2402.27
393.27	2265.05
393.47	2146.27
393.68	2224.09
393.89	2242.53
394.10	2465.75
394.31	2168.80
394.52	2179.04
394.72	2260.96
394.93	2310.11
395.14	2121.70
395.35	2273.25
395.56	2166.75
395.76	2252.77
395.97	2228.19
396.18	2322.40
396.39	2338.78
396.60	2631.64
396.80	2527.19
397.01	2445.27
397.22	2473.95
397.43	2418.65
397.64	2293.72
397.84	2367.45
398.05	2482.14
398.26	2256.86
398.47	2451.42
398.67	2334.68
398.88	2226.14
399.09	2291.68
399.30	2168.80
399.51	2344.92
399.71	2209.76
399.92	2209.76
400.13	2224.09
400.34	2265.05
400.54	2215.90
400.75	2445.27
400.96	2326.49
401.17	2439.13
401.37	2252.77
401.58	2252.77
401.79	2281.44
402.00	2375.64
402.21	2627.54
402.41	2430.94
402.62	2568.15
402.83	2641.88
403.04	2736.09
403.24	2789.33
403.45	2389.98
403.66	2572.25
403.87	2392.03
404.07	2443.23
404.28	2549.72
404.49	2416.60
404.70	2320.35
404.90	2379.74
405.11	2265.05
405.32	2392.03
405.52	2242.53
405.73	2138.08
405.94	2220.00
406.15	2228.19
406.35	2283.49
406.56	2303.96
406.77	2277.34
406.98	2273.25
407.18	2133.98
407.39	2414.56
407.60	2256.86
407.80	2330.59
408.01	2224.09
408.22	2351.07
408.43	2131.94
408.63	2318.30
408.84	2316.25
409.05	2324.44
409.25	2142.18
409.46	2189.28
409.67	2166.75
409.88	2201.57
410.08	2285.53
410.29	2154.46
410.50	2355.16
410.70	2269.15
410.91	2142.18
411.12	2250.72
411.32	2289.63
411.53	2146.27
411.74	2355.16
411.95	2252.77
412.15	2289.63
412.36	2437.08
412.57	2400.22
412.77	2371.55
412.98	2228.19
413.19	2187.23
413.39	2301.92
413.60	2293.72
413.81	2406.36
414.01	2174.94
414.22	2373.60
414.43	2322.40
414.63	2250.72
414.84	2322.40
415.05	2258.91
415.25	2211.81
415.46	2340.83
415.67	2181.09
415.87	2267.10
416.08	2265.05
416.29	2217.95
416.49	2330.59
416.70	2295.77
416.91	2187.23
417.11	2293.72
417.32	2332.64
417.53	2361.31
417.73	2334.68
417.94	2236.38
418.15	2260.96
418.35	2256.86
418.56	2291.68
418.77	2539.48
418.97	2263.01
419.18	2258.91
419.38	1974.24
419.59	2203.61
419.80	2406.36
420.00	2242.53
420.21	2269.15
420.42	2375.64
420.62	2316.25
420.83	2203.61
421.04	2199.52
421.24	2244.57
421.45	2334.68
421.65	2334.68
421.86	2150.37
422.07	2336.73
422.27	2293.72
422.48	2185.18
422.69	2109.41
422.89	2263.01
423.10	2244.57
423.30	2107.36
423.51	2291.68
423.72	2281.44
423.92	2316.25
424.13	2129.89
424.33	2252.77
424.54	2371.55
424.75	2310.11
424.95	2424.80
425.16	2234.33
425.36	2183.13
425.57	2375.64
425.78	2322.40
425.98	2400.22
426.19	2176.99
426.39	2125.79
426.60	2375.64
426.81	2361.31
427.01	2275.29
427.22	2195.42
427.42	2082.78
427.63	2131.94
427.83	2344.92
428.04	2437.08
428.25	2318.30
428.45	2459.61
428.66	2369.50
428.86	2191.33
429.07	2254.81
429.28	2232.29
429.48	2232.29
429.69	2203.61
429.89	2287.58
430.10	2150.37
430.30	2326.49
430.51	2342.88
430.71	2203.61
430.92	2301.92
431.13	2234.33
431.33	2410.46
431.54	2359.26
431.74	2359.26
431.95	2394.08
432.15	2129.89
432.36	2275.29
432.56	2332.64
432.77	2453.47
432.98	2473.95
433.18	2217.95
433.39	2191.33
433.59	2265.05
433.80	2508.76
434.00	2412.51
434.21	2238.43
434.41	2203.61
434.62	2484.19
434.82	2176.99
435.03	2162.66
435.23	2279.39
435.44	2142.18
435.64	2258.91
435.85	2263.01
436.06	2389.98
436.26	2383.84
436.47	2265.05
436.67	2185.18
436.88	2260.96
437.08	2498.52
437.29	2375.64
437.49	2283.49
437.70	2334.68
437.90	2281.44
438.11	2416.60
438.31	2351.07
438.52	2426.84
438.72	2430.94
438.93	2559.96
439.13	2263.01
439.34	2383.84
439.54	2314.20
439.75	2406.36
439.95	2277.34
440.16	2197.47
440.36	2324.44
440.57	2340.83
440.77	2252.77
440.98	2281.44
441.18	2265.05
441.39	2195.42
441.59	2109.41
441.80	2445.27
442.00	2297.82
442.21	2373.60
442.41	2131.94
442.62	2357.21
442.82	2179.04
443.02	2203.61
443.23	2215.90
443.43	2285.53
443.64	2408.41
443.84	2203.61
444.05	2410.46
444.25	2246.62
444.46	2228.19
444.66	2252.77
444.87	2387.93
445.07	2136.03
445.28	2277.34
445.48	2367.45
445.69	2351.07
445.89	2428.89
446.09	2228.19
446.30	2529.24
446.50	2803.67
446.71	4401.08
446.91	5656.49
447.12	6303.65
447.32	6723.48
447.53	6246.30
447.73	5146.55
447.93	4558.78
448.14	4280.25
448.34	4093.89
448.55	3602.38
448.75	3542.99
448.96	3387.34
449.16	3020.75
449.36	2906.07
449.57	2559.96
449.77	2340.83
449.98	2275.29
450.18	2355.16
450.39	2291.68
450.59	2422.75
450.79	2236.38
451.00	2295.77
451.20	2338.78
451.41	2248.67
451.61	2242.53
451.81	2236.38
452.02	2238.43
452.22	2166.75
452.43	2154.46
452.63	2183.13
452.84	2244.57
453.04	2230.24
453.24	2330.59
453.45	2179.04
453.65	2275.29
453.86	2291.68
454.06	2328.54
454.26	2289.63
454.47	2136.03
454.67	2404.32
454.87	2367.45
455.08	2242.53
455.28	2377.69
455.49	2340.83
455.69	2127.84
455.89	2555.86
456.10	2375.64
456.30	2248.67
456.51	2375.64
456.71	2277.34
456.91	2363.36
457.12	2377.69
457.32	2297.82
457.52	2162.66
457.73	2351.07
457.93	2279.39
458.14	2232.29
458.34	2154.46
458.54	2252.77
458.75	2211.81
458.95	2439.13
459.15	2303.96
459.36	2254.81
459.56	2320.35
459.76	2514.91
459.97	2252.77
460.17	2211.81
460.37	2320.35
460.58	2252.77
460.78	2355.16
460.99	2215.90
461.19	2228.19
461.39	2209.76
461.60	2232.29
461.80	2220.00
462.00	2174.94
462.21	2209.76
462.41	2246.62
462.61	2160.61
462.82	2052.06
463.02	2336.73
463.22	2197.47
463.43	2351.07
463.63	2228.19
463.83	2416.60
464.04	2269.15
464.24	2310.11
464.44	2125.79
464.64	2273.25
464.85	2279.39
465.05	2283.49
465.25	2263.01
465.46	2234.33
465.66	2369.50
465.86	2289.63
466.07	2230.24
466.27	2152.42
466.47	2162.66
466.68	2109.41
466.88	2338.78
467.08	2379.74
467.29	2377.69
467.49	2242.53
467.69	2213.85
467.89	2301.92
468.10	2228.19
468.30	2263.01
468.50	2340.83
468.71	2306.01
468.91	2164.70
469.11	2387.93
469.31	2295.77
469.52	2215.90
469.72	2424.80
469.92	2484.19
470.13	2220.00
470.33	2236.38
470.53	2357.21
470.73	2758.61
470.94	3024.85
471.14	3086.29
471.34	3497.93
471.54	3440.59
471.75	3088.34
471.95	2844.63
472.15	2738.13
472.36	2777.05
472.56	2693.08
472.76	2662.36
472.96	2633.69
473.17	2539.48
473.37	2473.95
473.57	2285.53
473.77	2297.82
473.98	2287.58
474.18	2111.46
474.38	2600.92
474.58	2263.01
474.79	2164.70
474.99	2318.30
475.19	2404.32
475.39	2189.28
475.60	2416.60
475.80	2256.86
476.00	2279.39
476.20	2273.25
476.41	2236.38
476.61	2301.92
476.81	2379.74
477.01	2113.50
477.21	2455.51
477.42	2441.18
477.62	2205.66
477.82	2332.64
478.02	2209.76
478.23	2334.68
478.43	2088.93
478.63	2195.42
478.83	2312.16
479.03	2215.90
479.24	2387.93
479.44	2463.71
479.64	2148.32
479.84	2074.59
480.04	2193.37
480.25	2301.92
480.45	2203.61
480.65	2138.08
480.85	2449.37
481.06	2277.34
481.26	2252.77
481.46	2228.19
481.66	2291.68
481.86	2193.37
482.06	2355.16
482.27	2222.05
482.47	2185.18
482.67	2308.06
482.87	2236.38
483.07	2312.16
483.28	2136.03
483.48	2133.98
483.68	2240.48
483.88	2111.46
484.08	2052.06
484.29	2185.18
484.49	2228.19
484.69	2150.37
484.89	2377.69
485.09	2330.59
485.29	2236.38
485.50	2326.49
485.70	2281.44
485.90	2465.75
486.10	2336.73
486.30	2285.53
486.50	2365.40
486.71	2285.53
486.91	2342.88
487.11	2306.01
487.31	2150.37
487.51	2334.68
487.71	2215.90
487.91	2248.67
488.12	2183.13
488.32	2099.17
488.52	2258.91
488.72	2072.54
488.92	2228.19
489.12	2349.02
489.32	2355.16
489.53	2308.06
489.73	2119.65
489.93	2416.60
490.13	2322.40
490.33	2125.79
490.53	2244.57
490.73	2422.75
490.94	2070.50
491.14	2322.40
491.34	2375.64
491.54	2594.78
491.74	3219.41
491.94	3749.83
492.14	4061.12
492.34	4143.04
492.54	3921.86
492.75	3194.83
492.95	3198.93
493.15	3053.52
493.35	3008.47
493.55	2920.40
493.75	2740.18
493.95	2725.85
494.15	2602.97
494.35	2457.56
494.56	2373.60
494.76	2160.61
494.96	2279.39
495.16	2289.63
495.36	2355.16
495.56	2285.53
495.76	2265.05
495.96	2166.75
496.16	2193.37
496.36	2392.03
496.56	2273.25
496.77	2275.29
496.97	2170.85
497.17	2400.22
497.37	2179.04
497.57	2342.88
497.77	2318.30
497.97	2187.23
498.17	2396.12
498.37	2174.94
498.57	2435.03
498.77	2191.33
498.97	2336.73
499.17	2416.60
499.38	2342.88
499.58	2342.88
499.78	2275.29
499.98	2357.21
500.18	2306.01
500.38	2226.14
500.58	2504.67
500.78	2916.31
500.98	5124.02
501.18	7253.91
501.38	8828.79
501.58	9772.91
501.78	9547.63
501.98	7634.83
502.18	6410.14
502.38	5455.79
502.58	5081.01
502.78	4650.94
502.98	4349.89
503.18	4173.76
503.38	3887.04
503.59	3373.00
503.79	3280.85
503.99	2961.36
504.19	2854.87
504.39	2787.29
504.59	2863.06
504.79	2764.76
504.99	2783.19
505.19	2531.29
505.39	2463.71
505.59	2625.50
505.79	2490.33
505.99	2400.22
506.19	2338.78
506.39	2412.51
506.59	2324.44
506.79	2258.91
506.99	2437.08
507.19	2330.59
507.39	2297.82
507.59	2101.22
507.79	2228.19
507.99	2209.76
508.19	2226.14
508.39	2228.19
508.59	2287.58
508.79	2398.17
508.99	2467.80
509.19	2150.37
509.39	2373.60
509.59	2187.23
509.79	2244.57
509.99	2326.49
510.19	2308.06
510.39	2318.30
510.59	2211.81
510.79	2179.04
510.99	2168.80
511.19	2312.16
511.39	2414.56
511.59	2334.68
511.79	2336.73
511.99	2281.44
512.19	2437.08
512.38	2320.35
512.58	2209.76
512.78	2260.96
512.98	2357.21
513.18	2430.94
513.38	2119.65
513.58	2310.11
513.78	2201.57
513.98	2271.20
514.18	2256.86
514.38	2281.44
514.58	2258.91
514.78	2234.33
514.98	2133.98
515.18	2211.81
515.38	2138.08
515.58	2396.12
515.78	2217.95
515.98	2291.68
516.18	2408.41
516.38	2281.44
516.57	2176.99
516.77	2213.85
516.97	2328.54
517.17	2187.23
517.37	2133.98
517.57	2334.68
517.77	2338.78
517.97	2217.95
518.17	2420.70
518.37	2256.86
518.57	2181.09
518.77	2174.94
518.97	2236.38
519.16	2291.68
519.36	2449.37
519.56	2265.05
519.76	2176.99
519.96	2238.43
520.16	2432.99
520.36	2142.18
520.56	2328.54
520.76	2125.79
520.96	2267.10
521.16	2334.68
521.35	2291.68
521.55	2371.55
521.75	2289.63
521.95	2252.77
522.15	2187.23
522.35	2168.80
522.55	2252.77
522.75	2359.26
522.95	2258.91
523.14	2142.18
523.34	2211.81
523.54	2199.52
523.74	2303.96
523.94	2269.15
524.14	2117.60
524.34	2377.69
524.54	2459.61
524.73	2246.62
524.93	2244.57
525.13	2267.10
525.33	2095.07
525.53	2455.51
525.73	2482.14
525.93	2334.68
526.13	2203.61
526.32	2160.61
526.52	2398.17
526.72	2277.34
526.92	2263.01
527.12	2242.53
527.32	2078.69
527.52	2281.44
527.71	2381.79
527.91	2246.62
528.11	2256.86
528.31	2312.16
528.51	2172.89
528.71	2267.10
528.90	2287.58
529.10	2373.60
529.30	2377.69
529.50	2068.45
529.70	2279.39
529.90	2260.96
530.09	2260.96
530.29	2144.22
530.49	2176.99
530.69	2488.28
530.89	2242.53
531.09	2404.32
531.28	2179.04
531.48	2318.30
531.68	2109.41
531.88	2291.68
532.08	2252.77
532.28	2203.61
532.47	2330.59
532.67	2256.86
532.87	2371.55
533.07	2176.99
533.27	2416.60
533.46	2322.40
533.66	2328.54
533.86	2283.49
534.06	2250.72
534.26	2252.77
534.45	2277.34
534.65	2383.84
534.85	2263.01
535.05	2170.85
535.25	2338.78
535.44	2195.42
535.64	2314.20
535.84	2242.53
536.04	2293.72
536.24	2228.19
536.43	2154.46
536.63	2275.29
536.83	2267.10
537.03	2310.11
537.22	2109.41
537.42	2152.42
537.62	2267.10
537.82	2172.89
538.02	2381.79
538.21	2392.03
538.41	2611.16
538.61	2285.53
538.81	2187.23
539.00	2381.79
539.20	2121.70
539.40	2191.33
539.60	2275.29
539.79	2312.16
539.99	2252.77
540.19	2215.90
540.39	2209.76
540.58	2283.49
540.78	2424.80
540.98	2211.81
541.18	2340.83
541.37	2351.07
541.57	2308.06
541.77	2275.29
541.97	2142.18
542.16	2152.42
542.36	2207.71
542.56	2293.72
542.76	2457.56
542.95	2308.06
543.15	2265.05
543.35	2324.44
543.54	2187.23
543.74	2207.71
543.94	2432.99
544.14	2224.09
544.33	2318.30
544.53	2263.01
544.73	2228.19
544.93	2283.49
545.12	2193.37
545.32	2205.66
545.52	2236.38
545.71	2121.70
545.91	2263.01
546.11	2224.09
546.30	2113.50
546.50	2277.34
546.70	2314.20
546.90	2310.11
547.09	2097.12
547.29	2215.90
547.49	2310.11
547.68	2252.77
547.88	2160.61
548.08	2353.12
548.27	2719.70
548.47	2293.72
548.67	2279.39
548.87	2318.30
549.06	2269.15
549.26	2326.49
549.46	2279.39
549.65	2119.65
549.85	2258.91
550.05	2301.92
550.24	2158.56
550.44	2183.13
550.64	2293.72
550.83	2326.49
551.03	2357.21
551.23	2432.99
551.42	2416.60
551.62	2260.96
551.82	2236.38
552.01	2250.72
552.21	2318.30
552.41	2326.49
552.60	2416.60
552.80	2213.85
553.00	2162.66
553.19	2301.92
553.39	2467.80
553.59	2160.61
553.78	2346.97
553.98	2240.48
554.17	2101.22
554.37	2275.29
554.57	2363.36
554.76	2142.18
554.96	2279.39
555.16	2306.01
555.35	2258.91
555.55	2275.29
555.75	2277.34
555.94	2435.03
556.14	2072.54
556.33	2351.07
556.53	2285.53
556.73	2326.49
556.92	2301.92
557.12	2318.30
557.32	2521.05
557.51	2437.08
557.71	2232.29
557.90	2453.47
558.10	2346.97
558.30	2256.86
558.49	2277.34
558.69	2234.33
558.88	2267.10
559.08	2303.96
559.28	2306.01
559.47	2299.87
559.67	2285.53
559.86	2445.27
560.06	2271.20
560.26	2191.33
560.45	2396.12
560.65	2248.67
560.84	2346.97
561.04	2224.09
561.24	2248.67
561.43	2148.32
561.63	2381.79
561.82	2275.29
562.02	2342.88
562.22	2224.09
562.41	2185.18
562.61	2285.53
562.80	2195.42
563.00	2545.63
563.19	2332.64
563.39	2336.73
563.59	2369.50
563.78	2172.89
563.98	2127.84
564.17	2191.33
564.37	2162.66
564.56	2211.81
564.76	2107.36
564.96	2359.26
565.15	2318.30
565.35	2533.34
565.54	2224.09
565.74	2373.60
565.93	2213.85
566.13	2226.14
566.32	2367.45
566.52	2232.29
566.71	2287.58
566.91	2277.34
567.11	2402.27
567.30	2197.47
567.50	2365.40
567.69	2383.84
567.89	2215.90
568.08	2172.89
568.28	2275.29
568.47	2160.61
568.67	2359.26
568.86	2179.04
569.06	2424.80
569.25	2226.14
569.45	2138.08
569.64	2222.05
569.84	2240.48
570.04	2336.73
570.23	2222.05
570.43	2197.47
570.62	2303.96
570.82	2437.08
571.01	2187.23
571.21	2215.90
571.40	2156.51
571.60	2283.49
571.79	2238.43
571.99	2353.12
572.18	2179.04
572.38	2338.78
572.57	2207.71
572.77	2322.40
572.96	2578.39
573.16	2281.44
573.35	2267.10
573.55	2430.94
573.74	2306.01
573.94	2205.66
574.13	2246.62
574.33	2414.56
574.52	2381.79
574.71	2324.44
574.91	2205.66
575.10	2152.42
575.30	2285.53
575.49	2093.02
575.69	2162.66
575.88	2269.15
576.08	2203.61
576.27	2387.93
576.47	2279.39
576.66	2412.51
576.86	2412.51
577.05	2279.39
577.25	2346.97
577.44	2535.39
577.64	2250.72
577.83	2346.97
578.02	2277.34
578.22	2416.60
578.41	2510.81
578.61	2297.82
578.80	2095.07
579.00	2320.35
579.19	2279.39
579.39	2351.07
579.58	2344.92
579.77	2342.88
579.97	2408.41
580.16	2432.99
580.36	2367.45
580.55	2346.97
580.75	2365.40
580.94	2322.40
581.13	2410.46
581.33	2465.75
581.52	2312.16
581.72	2555.86
581.91	2461.66
582.11	2209.76
582.30	2361.31
582.49	2402.27
582.69	2521.05
582.88	2332.64
583.08	2267.10
583.27	2306.01
583.47	2293.72
583.66	2211.81
583.85	2205.66
584.05	2281.44
584.24	2314.20
584.44	2285.53
584.63	2439.13
584.82	2480.09
585.02	2439.13
585.21	2463.71
585.41	2461.66
585.60	2465.75
585.79	2596.82
585.99	2572.25
586.18	2471.90
586.37	2994.13
586.57	4689.85
586.76	13997.87
586.96	33351.17
587.15	47246.64
587.34	56659.10
587.54	61729.87
587.73	56444.07
587.93	39859.62
588.12	30080.56
588.31	24135.31
588.51	21231.29
588.70	19416.79
588.89	17602.29
589.09	15208.22
589.28	12887.87
589.47	10547.04
589.67	8255.36
589.86	6449.05
590.06	4687.80
590.25	3786.69
590.44	3243.98
590.64	2850.77
590.83	2568.15
591.02	2590.68
591.22	2351.07
591.41	2424.80
591.60	2359.26
591.80	2525.15
591.99	2183.13
592.18	2381.79
592.38	2449.37
592.57	2228.19
592.76	2281.44
592.96	2420.70
593.15	2242.53
593.34	2346.97
593.54	2291.68
593.73	2283.49
593.92	2342.88
594.12	2359.26
594.31	2310.11
594.50	2424.80
594.70	2299.87
594.89	2525.15
595.08	2269.15
595.28	2377.69
595.47	2553.82
595.66	2537.43
595.86	2162.66
596.05	2263.01
596.24	2170.85
596.43	2455.51
596.63	2373.60
596.82	2398.17
597.01	2293.72
597.21	2475.99
597.40	2328.54
597.59	2355.16
597.79	2338.78
597.98	2293.72
598.17	2398.17
598.36	2310.11
598.56	2379.74
598.75	2265.05
598.94	2334.68
599.14	2297.82
599.33	2220.00
599.52	2379.74
599.71	2318.30
599.91	2297.82
600.10	2375.64
600.29	2306.01
600.48	2301.92
600.68	2314.20
600.87	2361.31
601.06	2203.61
601.26	2322.40
601.45	2297.82
601.64	2308.06
601.83	2430.94
602.03	2203.61
602.22	2183.13
602.41	2394.08
602.60	2584.54
602.80	2351.07
602.99	2293.72
603.18	2179.04
603.37	2324.44
603.57	2351.07
603.76	2289.63
603.95	2340.83
604.14	2176.99
604.34	2121.70
604.53	2148.32
604.72	2310.11
604.91	2355.16
605.10	2332.64
605.30	2125.79
605.49	2519.00
605.68	2301.92
605.87	2359.26
606.07	2154.46
606.26	2295.77
606.45	2371.55
606.64	2306.01
606.84	2308.06
607.03	2252.77
607.22	2367.45
607.41	2236.38
607.60	2252.77
607.80	2371.55
607.99	2240.48
608.18	2357.21
608.37	2283.49
608.56	2199.52
608.76	2312.16
608.95	2414.56
609.14	2328.54
609.33	2400.22
609.52	2443.23
609.72	2330.59
609.91	2328.54
610.10	2330.59
610.29	2506.71
610.48	2359.26
610.68	2367.45
610.87	2322.40
611.06	2363.36
611.25	2254.81
611.44	2387.93
611.63	2228.19
611.83	2312.16
612.02	2129.89
612.21	2365.40
612.40	2142.18
612.59	2220.00
612.79	2148.32
612.98	2297.82
613.17	2387.93
613.36	2324.44
613.55	2432.99
613.74	2314.20
613.93	2439.13
614.13	2408.41
614.32	2592.73
614.51	2469.85
614.70	2285.53
614.89	2342.88
615.08	2383.84
615.28	2727.89
615.47	2230.24
615.66	2344.92
615.85	2326.49
616.04	2500.57
616.23	2283.49
616.42	2361.31
616.62	2258.91
616.81	2320.35
617.00	2322.40
617.19	2297.82
617.38	2260.96
617.57	2340.83
617.76	2308.06
617.95	2389.98
618.15	2308.06
618.34	2412.51
618.53	2211.81
618.72	2394.08
618.91	2379.74
619.10	2394.08
619.29	2273.25
619.48	2252.77
619.68	2162.66
619.87	2123.74
620.06	2127.84
620.25	2316.25
620.44	2209.76
620.63	2189.28
620.82	2211.81
621.01	2254.81
621.20	2285.53
621.39	2263.01
621.59	2334.68
621.78	2289.63
621.97	2234.33
622.16	2318.30
622.35	2310.11
622.54	2389.98
622.73	2379.74
622.92	2076.64
623.11	2406.36
623.30	2410.46
623.49	2260.96
623.68	2234.33
623.88	2430.94
624.07	2269.15
624.26	2273.25
624.45	2224.09
624.64	2228.19
624.83	2303.96
625.02	2279.39
625.21	2220.00
625.40	2228.19
625.59	2349.02
625.78	2224.09
625.97	2400.22
626.16	2322.40
626.35	2426.84
626.54	2306.01
626.74	2461.66
626.93	2273.25
627.12	2299.87
627.31	2359.26
627.50	2322.40
627.69	2369.50
627.88	2199.52
628.07	2183.13
628.26	2150.37
628.45	2160.61
628.64	2179.04
628.83	2281.44
629.02	2162.66
629.21	2299.87
629.40	2271.20
629.59	2181.09
629.78	2228.19
629.97	2246.62
630.16	2308.06
630.35	2242.53
630.54	2258.91
630.73	2220.00
630.92	2254.81
631.11	2199.52
631.30	2291.68
631.49	2299.87
631.68	2349.02
631.87	2301.92
632.06	2154.46
632.25	2473.95
632.44	2252.77
632.63	2342.88
632.82	2318.30
633.01	2277.34
633.20	2334.68
633.39	2322.40
633.58	2230.24
633.77	2351.07
633.96	2359.26
634.15	2351.07
634.34	2349.02
634.53	2336.73
634.72	2193.37
634.91	2109.41
635.10	2299.87
635.29	2342.88
635.48	2287.58
635.67	2289.63
635.86	2146.27
636.05	2381.79
636.24	2195.42
636.43	2310.11
636.62	2285.53
636.81	2045.92
637.00	2285.53
637.19	2263.01
637.38	2285.53
637.57	2297.82
637.76	2281.44
637.95	2336.73
638.14	2320.35
638.33	2336.73
638.52	2332.64
638.71	2252.77
638.89	2191.33
639.08	2539.48
639.27	2457.56
639.46	2484.19
639.65	2775.00
639.84	2842.58
640.03	2965.46
640.22	2854.87
640.41	2842.58
640.60	2535.39
640.79	2533.34
640.98	2422.75
641.17	2529.24
641.36	2387.93
641.55	2392.03
641.74	2279.39
641.92	2254.81
642.11	2230.24
642.30	2236.38
642.49	2211.81
642.68	2238.43
642.87	2281.44
643.06	2254.81
643.25	2156.51
643.44	2088.93
643.63	2281.44
643.82	2373.60
644.00	2148.32
644.19	2291.68
644.38	2189.28
644.57	2320.35
644.76	2289.63
644.95	2220.00
645.14	2322.40
645.33	2316.25
645.52	2303.96
645.71	2185.18
645.89	2236.38
646.08	2263.01
646.27	2203.61
646.46	2441.18
646.65	2131.94
646.84	2260.96
647.03	2166.75
647.22	2346.97
647.40	2283.49
647.59	2140.13
647.78	2052.06
647.97	2150.37
648.16	2203.61
648.35	2396.12
648.54	2346.97
648.73	2228.19
648.91	2359.26
649.10	2271.20
649.29	2226.14
649.48	2252.77
649.67	2308.06
649.86	2293.72
650.05	2328.54
650.23	2408.41
650.42	2349.02
650.61	2521.05
650.80	2467.80
650.99	2498.52
651.18	2457.56
651.36	2428.89
651.55	2295.77
651.74	2318.30
651.93	2224.09
652.12	2295.77
652.31	2299.87
652.49	2242.53
652.68	2281.44
652.87	2457.56
653.06	2258.91
653.25	2480.09
653.44	2250.72
653.62	2379.74
653.81	2299.87
654.00	2226.14
654.19	2359.26
654.38	2510.81
654.56	2314.20
654.75	2252.77
654.94	2346.97
655.13	2297.82
655.32	2267.10
655.51	2398.17
655.69	2111.46
655.88	2365.40
656.07	2127.84
656.26	2314.20
656.45	2189.28
656.63	2336.73
656.82	2289.63
657.01	2355.16
657.20	2224.09
657.38	2349.02
657.57	2113.50
657.76	2086.88
657.95	2334.68
658.14	2146.27
658.32	2228.19
658.51	2107.36
658.70	2273.25
658.89	2310.11
659.08	2236.38
659.26	2385.88
659.45	2170.85
659.64	2449.37
659.83	2207.71
660.01	2631.64
660.20	2310.11
660.39	2465.75
660.58	2052.06
660.76	2355.16
660.95	2117.60
661.14	2289.63
661.33	2152.42
661.51	2142.18
661.70	2310.11
661.89	2279.39
662.08	2209.76
662.26	2125.79
662.45	2152.42
662.64	2457.56
662.83	2318.30
663.01	2105.31
663.20	2207.71
663.39	2482.14
663.58	2265.05
663.76	2250.72
663.95	2344.92
664.14	2222.05
664.32	2222.05
664.51	2144.22
664.70	2168.80
664.89	2293.72
665.07	2105.31
665.26	2297.82
665.45	2193.37
665.64	2375.64
665.82	2254.81
666.01	2226.14
666.20	2164.70
666.38	2412.51
666.57	2373.60
666.76	3340.24
666.95	8333.18
667.13	16416.52
667.32	21319.35
667.51	25190.02
667.69	26625.64
667.88	24530.57
668.07	17299.19
668.25	13807.41
668.44	11446.10
668.63	9906.02
668.81	8740.73
669.00	7774.09
669.19	6928.28
669.38	6004.64
669.56	5078.96
669.75	4327.36
669.94	3665.86
670.12	3092.43
670.31	2832.34
670.50	2564.06
670.68	2482.14
670.87	2340.83
671.06	2353.12
671.24	2267.10
671.43	2490.33
671.62	2258.91
671.80	2244.57
671.99	2299.87
672.18	2277.34
672.36	2361.31
672.55	2342.88
672.74	2271.20
672.92	2289.63
673.11	2322.40
673.29	2230.24
673.48	2324.44
673.67	2263.01
673.85	2351.07
674.04	2220.00
674.23	2299.87
674.41	2461.66
674.60	2250.72
674.79	2146.27
674.97	2162.66
675.16	2254.81
675.34	2353.12
675.53	2224.09
675.72	2279.39
675.90	2371.55
676.09	2209.76
676.28	2273.25
676.46	2113.50
676.65	2306.01
676.83	2107.36
677.02	2310.11
677.21	2224.09
677.39	2248.67
677.58	2168.80
677.77	2238.43
677.95	2217.95
678.14	2232.29
678.32	2328.54
678.51	2316.25
678.70	2527.19
678.88	2195.42
679.07	2220.00
679.25	2246.62
679.44	2281.44
679.63	2119.65
679.81	2306.01
680.00	2326.49
680.18	2289.63
680.37	2398.17
680.55	2289.63
680.74	2127.84
680.93	2095.07
681.11	2308.06
681.30	2215.90
681.48	2287.58
681.67	2254.81
681.85	2281.44
682.04	2105.31
682.23	2389.98
682.41	2312.16
682.60	2226.14
682.78	2283.49
682.97	2164.70
683.15	2244.57
683.34	2187.23
683.53	2342.88
683.71	2142.18
683.90	2355.16
684.08	2371.55
684.27	2228.19
684.45	2267.10
684.64	2330.59
684.82	2246.62
685.01	2373.60
685.19	2277.34
685.38	2449.37
685.57	2220.00
685.75	2131.94
685.94	2228.19
686.12	2185.18
686.31	2211.81
686.49	2416.60
686.68	2086.88
686.86	2301.92
687.05	2265.05
687.23	2367.45
687.42	2250.72
687.60	2050.02
687.79	2332.64
687.97	2385.88
688.16	2330.59
688.34	2303.96
688.53	2119.65
688.71	2308.06
688.90	2387.93
689.08	2236.38
689.27	2056.16
689.45	2289.63
689.64	2355.16
689.82	2299.87
690.01	2342.88
690.19	2318.30
690.38	2273.25
690.56	2310.11
690.75	2154.46
690.93	2228.19
691.12	2203.61
691.30	2189.28
691.49	2197.47
691.67	2310.11
691.86	2457.56
692.04	2187.23
692.23	2236.38
692.41	2275.29
692.60	2512.86
692.78	2373.60
692.97	2314.20
693.15	2361.31
693.34	2465.75
693.52	2457.56
693.71	2267.10
693.89	2265.05
694.08	2123.74
694.26	2359.26
694.44	2383.84
694.63	2381.79
694.81	2193.37
695.00	2154.46
695.18	2447.32
695.37	2564.06
695.55	2285.53
695.74	2179.04
695.92	2166.75
696.10	2392.03
696.29	2097.12
696.47	2189.28
696.66	2166.75
696.84	2187.23
697.03	2283.49
697.21	2502.62
697.40	3266.51
697.58	2314.20
697.76	2115.55
697.95	2230.24
698.13	2176.99
698.32	2119.65
698.50	2220.00
698.68	2387.93
698.87	2324.44
699.05	2432.99
699.24	2277.34
699.42	2133.98
699.61	2252.77
699.79	2172.89
699.97	2275.29
700.16	2187.23
700.34	2166.75
700.53	2308.06
700.71	2426.84
700.89	2349.02
701.08	2232.29
701.26	2234.33
701.45	2752.47
701.63	2187.23
701.81	2093.02
702.00	2170.85
702.18	2269.15
702.37	2260.96
702.55	2537.43
702.73	2383.84
702.92	2416.60
703.10	2553.82
703.28	2471.90
703.47	2303.96
703.65	2443.23
703.84	2473.95
704.02	2258.91
704.20	2478.04
704.39	2193.37
704.57	2303.96
704.75	2308.06
704.94	2422.75
705.12	2349.02
705.30	2537.43
705.49	4458.43
705.67	10524.51
705.86	18308.84
706.04	22025.90
706.22	24852.10
706.41	25884.28
706.59	21900.98
706.77	15650.58
706.96	13328.18
707.14	11667.28
707.32	10098.53
707.51	8879.99
707.69	7303.06
707.87	5953.45
708.06	4743.10
708.24	3954.63
708.42	3137.49
708.61	3098.58
708.79	2492.38
708.97	2490.33
709.16	2392.03
709.34	2373.60
709.52	2275.29
709.71	2250.72
709.89	2283.49
710.07	2217.95
710.26	2074.59
710.44	2240.48
710.62	2375.64
710.80	2242.53
710.99	2303.96
711.17	2340.83
711.35	2234.33
711.54	2160.61
711.72	2383.84
711.90	2244.57
712.09	2283.49
712.27	2154.46
712.45	2308.06
712.63	2281.44
712.82	2297.82
713.00	2308.06
713.18	2332.64
713.37	2400.22
713.55	2330.59
713.73	2303.96
713.91	2351.07
714.10	2246.62
714.28	2203.61
714.46	2314.20
714.65	2215.90
714.83	2240.48
715.01	2269.15
715.19	2258.91
715.38	2125.79
715.56	2303.96
715.74	2199.52
715.92	2129.89
716.11	2441.18
716.29	2125.79
716.47	2308.06
716.65	2203.61
716.84	2095.07
717.02	2285.53
717.20	2093.02
717.38	2164.70
717.57	2297.82
717.75	2306.01
717.93	2242.53
718.11	2230.24
718.30	2129.89
718.48	2267.10
718.66	2346.97
718.84	2359.26
719.03	2281.44
719.21	2181.09
719.39	2496.47
719.57	2398.17
719.75	2334.68
719.94	2176.99
720.12	2285.53
720.30	2263.01
720.48	2295.77
720.67	2176.99
720.85	2176.99
721.03	2228.19
721.21	2174.94
721.39	2344.92
721.58	2279.39
721.76	2232.29
721.94	2308.06
722.12	2285.53
722.30	2424.80
722.49	2211.81
722.67	2166.75
722.85	2273.25
723.03	2056.16
723.21	2209.76
723.40	2269.15
723.58	2424.80
723.76	2308.06
723.94	2443.23
724.12	2349.02
724.30	2396.12
724.49	2432.99
724.67	2248.67
724.85	2375.64
725.03	2113.50
725.21	2289.63
725.40	2416.60
725.58	2199.52
725.76	2369.50
725.94	2316.25
726.12	2119.65
726.30	2209.76
726.49	2164.70
726.67	2248.67
726.85	2318.30
727.03	2488.28
727.21	3653.58
727.39	5052.34
727.57	5869.48
727.76	6487.96
727.94	6918.04
728.12	6350.75
728.30	5214.13
728.48	4560.83
728.66	4048.83
728.84	3749.83
729.03	3272.65
729.21	3063.76
729.39	2703.32
729.57	2416.60
729.75	2408.41
729.93	2367.45
730.11	2224.09
730.30	2244.57
730.48	2187.23
730.66	2394.08
730.84	2293.72
731.02	2293.72
731.20	2226.14
731.38	2250.72
731.56	2103.26
731.74	2109.41
731.93	2256.86
732.11	2252.77
732.29	2279.39
732.47	2316.25
732.65	2269.15
732.83	2383.84
733.01	2217.95
733.19	2197.47
733.37	2291.68
733.56	2306.01
733.74	2224.09
733.92	2432.99
734.10	2303.96
734.28	2263.01
734.46	2082.78
734.64	2226.14
734.82	2146.27
735.00	2230.24
735.18	2138.08
735.36	2283.49
735.54	2183.13
735.73	2293.72
735.91	2295.77
736.09	2291.68
736.27	2314.20
736.45	2322.40
736.63	2150.37
736.81	2318.30
736.99	2318.30
737.17	2439.13
737.35	2170.85
737.53	2260.96
737.71	2258.91
737.89	2367.45
738.07	2138.08
738.25	2176.99
738.43	2076.64
738.61	2215.90
738.80	2136.03
738.98	2220.00
739.16	2095.07
739.34	2215.90
739.52	2475.99
739.70	2275.29
739.88	2260.96
740.06	2383.84
740.24	2047.97
740.42	2353.12
740.60	2093.02
740.78	2203.61
740.96	2056.16
741.14	2201.57
741.32	2328.54
741.50	2121.70
741.68	2441.18
741.86	2381.79
742.04	2064.35
742.22	2127.84
742.40	2203.61
742.58	2328.54
742.76	2199.52
742.94	2357.21
743.12	2125.79
743.30	2267.10
743.48	2303.96
743.66	2244.57
743.84	2252.77
744.02	2215.90
744.20	2277.34
744.38	2115.55
744.56	2174.94
744.74	2480.09
744.92	2334.68
745.10	2367.45
745.28	2320.35
745.46	2486.23
745.64	2183.13
745.82	2349.02
746.00	2240.48
746.18	2308.06
746.36	2224.09
746.54	2299.87
746.72	2277.34
746.90	2164.70
747.08	2432.99
747.26	2195.42
747.44	2293.72
747.62	2332.64
747.80	2299.87
747.98	2306.01
748.15	2252.77
748.33	2457.56
748.51	2252.77
748.69	2301.92
748.87	2179.04
749.05	2254.81
749.23	2215.90
749.41	2277.34
749.59	2242.53
749.77	2383.84
749.95	2121.70
750.13	2252.77
750.31	2299.87
750.49	2228.19
750.67	2400.22
750.85	2408.41
751.03	2220.00
751.20	2447.32
751.38	2220.00
751.56	2123.74
751.74	2258.91
751.92	2166.75
752.10	2109.41
752.28	2357.21
752.46	2236.38
752.64	2265.05
752.82	2185.18
753.00	2334.68
753.18	2234.33
753.35	2250.72
753.53	2258.91
753.71	2195.42
753.89	2322.40
754.07	2310.11
754.25	2324.44
754.43	2314.20
754.61	2074.59
754.79	2273.25
754.97	2203.61
755.14	2392.03
755.32	2162.66
755.50	2281.44
755.68	2340.83
755.86	2238.43
756.04	2187.23
756.22	2052.06
756.40	2256.86
756.57	2412.51
756.75	2252.77
756.93	2357.21
757.11	2424.80
757.29	2224.09
757.47	2185.18
757.65	2101.22
757.82	2068.45
758.00	2166.75
758.18	2199.52
758.36	2187.23
758.54	2443.23
758.72	2047.97
758.90	2318.30
759.07	2240.48
759.25	2105.31
759.43	2263.01
759.61	2176.99
759.79	3094.48
759.97	2359.26
760.15	2199.52
760.32	2203.61
760.50	2158.56
760.68	2465.75
760.86	2121.70
761.04	2437.08
761.22	2324.44
761.39	2252.77
761.57	2334.68
761.75	2226.14
761.93	2291.68
762.11	2244.57
762.28	2203.61
762.46	2121.70
762.64	2357.21
762.82	2187.23
763.00	2281.44
763.18	2392.03
763.35	2166.75
763.53	2365.40
763.71	2176.99
763.89	2285.53
764.07	2207.71
764.24	2250.72
764.42	2328.54
764.60	2250.72
764.78	2336.73
764.96	2336.73
765.13	2301.92
765.31	2211.81
765.49	2287.58
765.67	2189.28
765.84	2179.04
766.02	2191.33
766.20	2144.22
766.38	2252.77
766.56	2299.87
766.73	2275.29
766.91	2273.25
767.09	2256.86
767.27	2316.25
767.44	2152.42
767.62	2336.73
767.80	2289.63
767.98	2215.90
768.15	2209.76
768.33	2316.25
768.51	2342.88
768.69	2260.96
768.87	2295.77
769.04	2281.44
769.22	2514.91
769.40	2373.60
769.58	2492.38
769.75	2320.35
769.93	2422.75
770.11	2203.61
770.28	2136.03
770.46	2295.77
770.64	2244.57
770.82	2224.09
770.99	2199.52
771.17	2310.11
771.35	2162.66
771.53	2361.31
771.70	2248.67
771.88	2324.44
772.06	2209.76
772.23	2232.29
772.41	2258.91
772.59	2244.57
772.77	2131.94
772.94	2277.34
773.12	2365.40
773.30	2220.00
773.47	2201.57
773.65	2168.80
773.83	2392.03
774.01	2195.42
774.18	2050.02
774.36	2183.13
774.54	2109.41
774.71	2283.49
774.89	2109.41
775.07	2207.71
775.24	2156.51
775.42	2211.81
775.60	2394.08
775.78	2209.76
775.95	2060.26
776.13	2056.16
776.31	2068.45
776.48	2222.05
776.66	2396.12
776.84	2211.81
777.01	2166.75
777.19	2242.53
777.37	2144.22
777.54	2328.54
777.72	2465.75
777.90	2293.72
778.07	2176.99
778.25	2478.04
778.43	2322.40
778.60	2162.66
778.78	2373.60
778.96	2381.79
779.13	2195.42
779.31	2334.68
779.49	2273.25
779.66	2338.78
779.84	2203.61
780.01	2269.15
780.19	2113.50
780.37	2430.94
780.54	2301.92
780.72	2179.04
780.90	2252.77
781.07	2195.42
781.25	2203.61
781.43	2273.25
781.60	2074.59
781.78	2389.98
781.95	2220.00
782.13	2203.61
782.31	2306.01
782.48	2047.97
782.66	2301.92
782.83	2316.25
783.01	2301.92
783.19	2334.68
783.36	2144.22
783.54	2150.37
783.72	2365.40
783.89	2244.57
784.07	2293.72
784.24	2295.77
784.42	2457.56
784.60	2297.82
784.77	2232.29
784.95	2090.98
785.12	2162.66
785.30	2273.25
785.47	2166.75
785.65	2123.74
785.83	2236.38
786.00	2228.19
786.18	2289.63
786.35	2136.03
786.53	2111.46
786.71	2289.63
786.88	2383.84
787.06	2314.20
787.23	2246.62
787.41	2119.65
787.58	2142.18
787.76	2152.42
787.94	2217.95
788.11	2299.87
788.29	2166.75
788.46	2236.38
788.64	2121.70
788.81	2258.91
788.99	2201.57
789.16	2174.94
789.34	2232.29
789.52	2138.08
789.69	2232.29
789.87	2023.39
790.04	2250.72
790.22	2293.72
790.39	2486.23
790.57	2146.27
790.74	2211.81
790.92	2320.35
791.09	2170.85
791.27	2234.33
791.44	2383.84
791.62	2310.11
791.79	2332.64
791.97	2220.00
792.15	2562.01
792.32	2258.91
792.50	2285.53
792.67	2375.64
792.85	2383.84
793.02	2340.83
793.20	2267.10
793.37	2144.22
793.55	2293.72
793.72	2105.31
793.90	2281.44
794.07	2174.94
794.25	2148.32
794.42	2260.96
794.60	2191.33
794.77	2281.44
794.95	2316.25
795.12	2316.25
795.30	2138.08
795.47	2039.78
795.65	2531.29
795.82	2263.01
796.00	2215.90
796.17	2154.46
796.34	2158.56
796.52	2293.72
796.69	2359.26
796.87	2306.01
797.04	2275.29
797.22	2355.16
797.39	2244.57
797.57	2258.91
797.74	2275.29
797.92	2258.91
798.09	2277.34
798.27	2277.34
798.44	2224.09
798.62	2160.61
798.79	2267.10
798.96	2244.57
799.14	2248.67
799.31	2480.09
799.49	2236.38
799.66	2185.18
799.84	2234.33
800.01	2146.27
800.19	2277.34
800.36	2115.55
800.53	2314.20
800.71	2267.10
800.88	2420.70
801.06	2258.91
801.23	2109.41
801.41	2244.57
801.58	2158.56
801.75	2260.96
801.93	2308.06
802.10	2316.25
802.28	2224.09
802.45	2121.70
802.63	2306.01
802.80	2441.18
802.97	2174.94
803.15	2244.57
803.32	2179.04
803.50	2220.00
803.67	2199.52
803.84	2117.60
804.02	2273.25
804.19	2215.90
804.37	2023.39
804.54	2146.27
804.71	2234.33
804.89	2203.61
805.06	2158.56
805.24	2174.94
805.41	2105.31
805.58	2140.13
805.76	2498.52
805.93	2301.92
806.10	2308.06
806.28	2385.88
806.45	2244.57
806.63	2349.02
806.80	2310.11
806.97	2209.76
807.15	2269.15
807.32	2260.96
807.49	2252.77
807.67	2107.36
807.84	2318.30
808.01	2043.87
808.19	2377.69
808.36	2516.95
808.54	2197.47
808.71	2183.13
808.88	2244.57
809.06	2406.36
809.23	2400.22
809.40	2168.80
809.58	2269.15
809.75	2252.77
809.92	2179.04
810.10	2394.08
810.27	2195.42
810.44	2314.20
810.62	2387.93
810.79	2195.42
810.96	2244.57
811.14	2195.42
811.31	2260.96
811.48	2256.86
811.66	2226.14
811.83	2353.12
812.00	2285.53
812.18	2258.91
812.35	2410.46
812.52	2306.01
812.69	2205.66
812.87	2238.43
813.04	2203.61
813.21	2220.00
813.39	2260.96
813.56	2168.80
813.73	2301.92
813.91	2064.35
814.08	2234.33
814.25	2258.91
814.42	2107.36
814.60	2176.99
814.77	2289.63
814.94	2152.42
815.12	2195.42
815.29	2373.60
815.46	2136.03
815.63	2351.07
815.81	2220.00
815.98	2236.38
816.15	2213.85
816.33	2209.76
816.50	2224.09
816.67	2281.44
816.84	2158.56
817.02	2146.27
817.19	2205.66
817.36	2203.61
817.53	2320.35
817.71	2127.84
817.88	2310.11
818.05	2203.61
818.22	2281.44
818.40	2422.75
818.57	2215.90
818.74	2330.59
818.91	2252.77
819.09	2303.96
819.26	2297.82
819.43	2234.33
819.60	2121.70
819.78	2242.53
819.95	2318.30
820.12	2172.89
820.29	2310.11
820.47	2308.06
820.64	2187.23
820.81	2119.65
820.98	2154.46
821.15	2195.42
821.33	2252.77
821.50	2131.94
821.67	2306.01
821.84	2164.70
822.02	2332.64
822.19	2385.88
822.36	2146.27
822.53	2138.08
822.70	2070.50
822.88	2203.61
823.05	2392.03
823.22	2191.33
823.39	2283.49
823.56	2203.61
823.74	2418.65
823.91	2097.12
824.08	2160.61
824.25	2185.18
824.42	2471.90
824.60	2228.19
824.77	2248.67
824.94	2330.59
825.11	2287.58
825.28	2064.35
825.45	2281.44
825.63	2220.00
825.80	2187.23
825.97	2228.19
826.14	2277.34
826.31	2156.51
826.48	2265.05
826.66	2158.56
826.83	2250.72
827.00	2236.38
827.17	2234.33
827.34	2187.23
827.51	2121.70
827.69	2265.05
827.86	2080.74
828.03	2275.29
828.20	2211.81
828.37	2242.53
828.54	2291.68
828.71	2158.56
828.89	2396.12
829.06	2228.19
829.23	2369.50
829.40	2070.50
829.57	2119.65
829.74	2316.25
829.91	2228.19
830.09	2154.46
830.26	2346.97
830.43	2416.60
830.60	2232.29
830.77	2318.30
830.94	2312.16
831.11	2318.30
831.28	2203.61
831.46	2373.60
831.63	2213.85
831.80	2310.11
831.97	2127.84
832.14	2275.29
832.31	2260.96
832.48	2320.35
832.65	2379.74
832.82	2191.33
832.99	2277.34
833.17	2201.57
833.34	2402.27
833.51	2306.01
833.68	2097.12
833.85	2318.30
834.02	2107.36
834.19	2166.75
834.36	2152.42
834.53	2301.92
834.70	2408.41
834.87	2265.05
835.04	2140.13
835.22	2191.33
835.39	2174.94
835.56	2267.10
835.73	2230.24
835.90	2242.53
836.07	2142.18
836.24	2316.25
836.41	2162.66
836.58	2117.60
836.75	2269.15
836.92	2220.00
837.09	2107.36
837.26	2334.68
837.43	2334.68
837.60	2263.01
837.77	2168.80
837.94	2289.63
838.12	2367.45
838.29	2152.42
838.46	2150.37
838.63	2109.41
838.80	2416.60
838.97	2285.53
839.14	2209.76
839.31	2301.92
839.48	2367.45
839.65	2183.13
839.82	2256.86
839.99	2338.78
840.16	2267.10
840.33	2205.66
840.50	2170.85
840.67	2138.08
840.84	2045.92
841.01	2201.57
841.18	2136.03
841.35	2213.85
841.52	2349.02
841.69	2424.80
841.86	2144.22
842.03	2213.85
842.20	2369.50
842.37	2232.29
842.54	2236.38
842.71	2289.63
842.88	2138.08
843.05	2191.33
843.22	2154.46
843.39	2297.82
843.56	2217.95
843.73	2193.37
843.90	2240.48
844.07	2252.77
844.24	2349.02
844.41	2275.29
844.58	2203.61
844.75	2306.01
844.92	2387.93
845.09	2179.04
845.26	2109.41
845.43	2328.54
845.60	2195.42
845.77	2289.63
845.94	2265.05
846.10	2248.67
846.27	2097.12
846.44	2086.88
846.61	2170.85
846.78	2299.87
846.95	2297.82
847.12	2138.08
847.29	2234.33
847.46	2187.23
847.63	2379.74
847.80	2109.41
847.97	2195.42
848.14	2449.37
848.31	2269.15
848.48	2138.08
848.65	2267.10
848.82	2181.09
848.98	2539.48
849.15	2205.66
849.32	2254.81
849.49	2408.41
849.66	2213.85
849.83	2185.18
850.00	2154.46
850.17	2291.68
850.34	2207.71
850.51	2185.18
850.68	2170.85
850.85	2461.66
851.01	2224.09
851.18	2195.42
851.35	2234.33
851.52	2234.33
851.69	2416.60
851.86	2154.46
852.03	2117.60
852.20	2301.92
852.37	2285.53
852.53	2095.07
852.70	2154.46
852.87	2273.25
853.04	2318.30
853.21	2250.72
853.38	2267.10
853.55	2349.02
853.72	2314.20
853.89	2082.78
854.05	2142.18
854.22	2250.72
854.39	2146.27
854.56	2232.29
854.73	2289.63
854.90	2109.41
855.07	2201.57
855.23	2187.23
855.40	2189.28
855.57	2215.90
855.74	2088.93
855.91	2346.97
856.08	2056.16
856.25	2101.22
856.41	2252.77
856.58	2170.85
856.75	2318.30
856.92	2150.37
857.09	2306.01
857.26	2088.93
857.42	2213.85
857.59	2324.44
857.76	2281.44
857.93	2236.38
858.10	2174.94
858.27	2111.46
858.43	2263.01
858.60	2236.38
858.77	2111.46
858.94	2220.00
859.11	2269.15
859.27	2179.04
859.44	2193.37
859.61	2277.34
859.78	2328.54
859.95	2185.18
860.12	2187.23
860.28	2449.37
860.45	2392.03
860.62	2076.64
860.79	2248.67
860.95	2271.20
861.12	2234.33
861.29	2170.85
861.46	2129.89
861.63	2203.61
861.79	2258.91
861.96	2226.14
862.13	2263.01
862.30	2349.02
862.47	2179.04
862.63	2154.46
862.80	2217.95
862.97	2328.54
863.14	2308.06
863.30	2297.82
863.47	2082.78
863.64	2369.50
863.81	2263.01
863.97	2179.04
864.14	2174.94
864.31	2248.67
864.48	2289.63
864.65	2101.22
864.81	2308.06
864.98	2312.16
865.15	2306.01
865.32	2226.14
865.48	2346.97
865.65	2506.71
865.82	2179.04
865.98	2174.94
866.15	2308.06
866.32	2185.18
866.49	2209.76
866.65	2260.96
866.82	2162.66
866.99	2244.57
867.16	2228.19
867.32	2193.37
867.49	2144.22
867.66	2187.23
867.83	2209.76
867.99	2084.83
868.16	2156.51
868.33	2088.93
868.49	2215.90
868.66	2179.04
868.83	2320.35
868.99	2277.34
869.16	2289.63
869.33	2342.88
869.50	2230.24
869.66	2273.25
869.83	2211.81
870.00	2072.54
870.16	2250.72
870.33	2246.62
870.50	2353.12
870.66	2187.23
870.83	2234.33
871.00	2217.95
871.17	2224.09
871.33	2224.09
871.50	2220.00
871.67	2211.81
871.83	2039.78
872.00	2260.96
872.17	2199.52
872.33	2461.66
872.50	2287.58
872.67	2189.28
872.83	2127.84
873.00	2242.53
873.17	2254.81
873.33	2269.15
873.50	2306.01
873.67	2170.85
873.83	2252.77
874.00	2156.51
874.16	2263.01
874.33	2283.49
874.50	2107.36
874.66	2164.70
874.83	2310.11
875.00	2334.68
875.16	2322.40
875.33	2238.43
875.50	2054.11
875.66	2174.94
875.83	2273.25
875.99	2295.77
876.16	2129.89
876.33	2111.46
876.49	2228.19
876.66	2260.96
876.83	2150.37
876.99	2156.51
877.16	2263.01
877.32	2176.99
877.49	2191.33
877.66	2224.09
877.82	2389.98
877.99	2189.28
878.15	2349.02
878.32	2281.44
878.49	2332.64
878.65	2226.14
878.82	2301.92
878.98	2217.95
879.15	2252.77
879.32	2265.05
879.48	2314.20
879.65	2138.08
879.81	2131.94
879.98	2136.03
880.15	2199.52
880.31	2222.05
880.48	2195.42
880.64	2291.68
880.81	2308.06
880.97	2351.07
881.14	2402.27
881.31	2195.42
881.47	2398.17
881.64	2242.53
881.80	2086.88
881.97	2291.68
882.13	2256.86
882.30	2150.37
882.47	2183.13
882.63	2140.13
882.80	2162.66
882.96	2271.20
883.13	2361.31
883.29	2273.25
883.46	2224.09
883.62	2408.41
883.79	2234.33
883.95	2230.24
884.12	2187.23
884.29	2394.08
884.45	2236.38
884.62	2316.25
884.78	2150.37
884.95	2375.64
885.11	2201.57
885.28	2283.49
885.44	2181.09
885.61	2334.68
885.77	2355.16
885.94	2258.91
886.10	2172.89
886.27	2209.76
886.43	2473.95
886.60	2269.15
886.76	2197.47
886.93	2138.08
887.09	2281.44
887.26	2056.16
887.42	2176.99
887.59	2342.88
887.75	2473.95
887.92	2310.11
888.08	2332.64
888.25	2314.20
888.41	2389.98
888.58	2236.38
888.74	2125.79
888.91	2136.03
>>>>>End Processed Spectral Data<<<<<
