SpectraSuite Data File
++++++++++++++++++++++++++++++++++++
Date: Thu May 05 13:20:39 CEST 2016
User: root
Dark Spectrum Present: No
Reference Spectrum Present: No
Number of Sampled Component Spectra: 1
Spectrometers: USB4C02835
Integration Time (usec): 100000 (USB4C02835)
Spectra Averaged: 1 (USB4C02835)
Boxcar Smoothing: 0 (USB4C02835)
Correct for Electrical Dark: No (USB4C02835)
Strobe/Lamp Enabled: No (USB4C02835)
Correct for Detector Non-linearity: No (USB4C02835)
Correct for Stray Light: No (USB4C02835)
Number of Pixels in Processed Spectrum: 3648
>>>>>Begin Processed Spectral Data<<<<<
177.47	1746.92
177.69	1746.92
177.91	1746.92
178.13	1761.25
178.36	1701.86
178.58	2170.85
178.80	2289.63
179.02	2154.46
179.24	2191.33
179.46	2203.61
179.68	2228.19
179.90	2220.00
180.13	2289.63
180.35	2078.69
180.57	2236.38
180.79	2367.45
181.01	2275.29
181.23	2158.56
181.45	2320.35
181.67	2293.72
181.90	2277.34
182.12	2164.70
182.34	2068.45
182.56	2312.16
182.78	2301.92
183.00	2113.50
183.22	2236.38
183.44	2097.12
183.66	2451.42
183.89	2277.34
184.11	2250.72
184.33	2367.45
184.55	2365.40
184.77	2181.09
184.99	2203.61
185.21	2166.75
185.43	2494.43
185.65	2176.99
185.87	2179.04
186.10	2473.95
186.32	2461.66
186.54	2271.20
186.76	2260.96
186.98	2377.69
187.20	2217.95
187.42	2215.90
187.64	2158.56
187.86	2285.53
188.08	2439.13
188.30	2086.88
188.52	2209.76
188.75	2375.64
188.97	2334.68
189.19	2123.74
189.41	2168.80
189.63	2332.64
189.85	2195.42
190.07	2056.16
190.29	2031.58
190.51	2392.03
190.73	2103.26
190.95	2293.72
191.17	2201.57
191.39	2070.50
191.61	2283.49
191.84	2197.47
192.06	2228.19
192.28	2142.18
192.50	2600.92
192.72	2244.57
192.94	2176.99
193.16	2310.11
193.38	2306.01
193.60	2090.98
193.82	2207.71
194.04	2326.49
194.26	2232.29
194.48	2217.95
194.70	2138.08
194.92	2203.61
195.14	2353.12
195.36	2125.79
195.58	2248.67
195.80	2220.00
196.02	2162.66
196.24	2154.46
196.46	2254.81
196.69	2236.38
196.91	2553.82
197.13	2209.76
197.35	2154.46
197.57	2324.44
197.79	2297.82
198.01	2222.05
198.23	2232.29
198.45	2320.35
198.67	2115.55
198.89	2113.50
199.11	2281.44
199.33	2232.29
199.55	2035.68
199.77	2162.66
199.99	2326.49
200.21	2146.27
200.43	2289.63
200.65	2156.51
200.87	2070.50
201.09	2234.33
201.31	2230.24
201.53	2168.80
201.75	2205.66
201.97	2273.25
202.19	2285.53
202.41	2209.76
202.63	2342.88
202.85	2369.50
203.07	2301.92
203.29	2205.66
203.51	2097.12
203.73	2224.09
203.95	2625.50
204.17	2273.25
204.39	2306.01
204.61	2246.62
204.83	2215.90
205.05	2283.49
205.27	2277.34
205.49	2447.32
205.71	2240.48
205.93	2119.65
206.15	2176.99
206.37	2228.19
206.59	2220.00
206.81	2168.80
207.03	2080.74
207.25	2109.41
207.47	2392.03
207.69	2176.99
207.91	2379.74
208.13	2373.60
208.34	2193.37
208.56	2072.54
208.78	2228.19
209.00	2215.90
209.22	2138.08
209.44	2195.42
209.66	2162.66
209.88	2275.29
210.10	2150.37
210.32	2127.84
210.54	2312.16
210.76	2185.18
210.98	2299.87
211.20	1974.24
211.42	2148.32
211.64	2330.59
211.86	2328.54
212.08	2228.19
212.30	2195.42
212.52	2191.33
212.74	2281.44
212.96	2215.90
213.17	2236.38
213.39	2346.97
213.61	2443.23
213.83	2142.18
214.05	2234.33
214.27	2334.68
214.49	2156.51
214.71	2129.89
214.93	2258.91
215.15	2207.71
215.37	2256.86
215.59	2041.82
215.81	2179.04
216.03	2351.07
216.24	2291.68
216.46	2111.46
216.68	2172.89
216.90	2383.84
217.12	2346.97
217.34	2252.77
217.56	2246.62
217.78	2308.06
218.00	2334.68
218.22	2246.62
218.44	2242.53
218.66	2217.95
218.87	2461.66
219.09	2154.46
219.31	2244.57
219.53	2297.82
219.75	2244.57
219.97	2187.23
220.19	2150.37
220.41	2240.48
220.63	2400.22
220.85	2207.71
221.06	2185.18
221.28	2441.18
221.50	2342.88
221.72	2185.18
221.94	2164.70
222.16	2263.01
222.38	2295.77
222.60	2203.61
222.82	2211.81
223.03	2344.92
223.25	2088.93
223.47	2164.70
223.69	2306.01
223.91	2281.44
224.13	2265.05
224.35	2138.08
224.57	2310.11
224.78	2240.48
225.00	2209.76
225.22	2306.01
225.44	2232.29
225.66	2428.89
225.88	2205.66
226.10	2250.72
226.32	2187.23
226.53	2402.27
226.75	2252.77
226.97	2187.23
227.19	2179.04
227.41	2185.18
227.63	2183.13
227.85	2013.15
228.06	2195.42
228.28	2308.06
228.50	2367.45
228.72	2109.41
228.94	2172.89
229.16	2060.26
229.37	2064.35
229.59	2156.51
229.81	2346.97
230.03	2189.28
230.25	2127.84
230.47	2093.02
230.69	2107.36
230.90	2283.49
231.12	2191.33
231.34	2277.34
231.56	2256.86
231.78	2142.18
232.00	2234.33
232.21	2199.52
232.43	2138.08
232.65	2058.21
232.87	2277.34
233.09	2045.92
233.30	2133.98
233.52	2301.92
233.74	2287.58
233.96	2146.27
234.18	2236.38
234.40	2283.49
234.61	2494.43
234.83	2070.50
235.05	2146.27
235.27	2471.90
235.49	2447.32
235.70	2127.84
235.92	2318.30
236.14	2342.88
236.36	2514.91
236.58	2095.07
236.79	2244.57
237.01	2258.91
237.23	2224.09
237.45	2359.26
237.67	2174.94
237.88	2324.44
238.10	2406.36
238.32	2058.21
238.54	2187.23
238.76	2240.48
238.97	2170.85
239.19	2129.89
239.41	2263.01
239.63	2383.84
239.85	2220.00
240.06	2269.15
240.28	2138.08
240.50	2275.29
240.72	2328.54
240.93	2152.42
241.15	2189.28
241.37	2279.39
241.59	2293.72
241.81	2211.81
242.02	2150.37
242.24	2263.01
242.46	2291.68
242.68	2101.22
242.89	2197.47
243.11	2342.88
243.33	2236.38
243.55	2220.00
243.76	2267.10
243.98	2220.00
244.20	2209.76
244.42	2162.66
244.64	2228.19
244.85	2189.28
245.07	2127.84
245.29	2240.48
245.51	2129.89
245.72	2301.92
245.94	2383.84
246.16	2254.81
246.38	2316.25
246.59	2168.80
246.81	2136.03
247.03	2084.83
247.24	2035.68
247.46	2250.72
247.68	2228.19
247.90	2113.50
248.11	2168.80
248.33	2332.64
248.55	2213.85
248.77	2224.09
248.98	2256.86
249.20	2408.41
249.42	2355.16
249.64	2129.89
249.85	2205.66
250.07	2258.91
250.29	2346.97
250.50	2256.86
250.72	2060.26
250.94	2316.25
251.16	2430.94
251.37	2215.90
251.59	2211.81
251.81	2316.25
252.02	2430.94
252.24	2119.65
252.46	2281.44
252.68	2166.75
252.89	2174.94
253.11	2066.40
253.33	2248.67
253.54	2420.70
253.76	2234.33
253.98	2119.65
254.20	2207.71
254.41	2164.70
254.63	2234.33
254.85	2074.59
255.06	2195.42
255.28	2310.11
255.50	2258.91
255.71	2111.46
255.93	2062.30
256.15	2205.66
256.36	2303.96
256.58	2154.46
256.80	2246.62
257.02	2297.82
257.23	2242.53
257.45	2170.85
257.67	2279.39
257.88	2242.53
258.10	2228.19
258.32	2176.99
258.53	2328.54
258.75	2375.64
258.97	2211.81
259.18	2105.31
259.40	2183.13
259.62	2428.89
259.83	2402.27
260.05	2174.94
260.27	2654.17
260.48	2310.11
260.70	2203.61
260.92	2172.89
261.13	2203.61
261.35	2289.63
261.57	2260.96
261.78	2033.63
262.00	2113.50
262.22	2281.44
262.43	2168.80
262.65	2306.01
262.86	2224.09
263.08	2537.43
263.30	2226.14
263.51	2041.82
263.73	2093.02
263.95	2418.65
264.16	2154.46
264.38	2123.74
264.60	2199.52
264.81	2228.19
265.03	2359.26
265.25	2404.32
265.46	2207.71
265.68	2375.64
265.89	2396.12
266.11	2031.58
266.33	2207.71
266.54	2469.85
266.76	2367.45
266.98	2256.86
267.19	2279.39
267.41	2293.72
267.62	2228.19
267.84	2039.78
268.06	2252.77
268.27	2355.16
268.49	2369.50
268.70	2326.49
268.92	2191.33
269.14	2070.50
269.35	2105.31
269.57	2187.23
269.79	2195.42
270.00	2217.95
270.22	2412.51
270.43	2095.07
270.65	2060.26
270.87	2217.95
271.08	2324.44
271.30	2281.44
271.51	2090.98
271.73	2258.91
271.95	2430.94
272.16	2209.76
272.38	2220.00
272.59	2211.81
272.81	2318.30
273.02	2179.04
273.24	2203.61
273.46	2285.53
273.67	2156.51
273.89	2138.08
274.10	2105.31
274.32	2338.78
274.54	2252.77
274.75	2246.62
274.97	2211.81
275.18	2263.01
275.40	2363.36
275.61	2142.18
275.83	2215.90
276.05	2211.81
276.26	2252.77
276.48	2279.39
276.69	2199.52
276.91	2250.72
277.12	2349.02
277.34	2342.88
277.55	2271.20
277.77	2324.44
277.99	2187.23
278.20	2260.96
278.42	2072.54
278.63	2185.18
278.85	2172.89
279.06	2103.26
279.28	2269.15
279.49	2277.34
279.71	2322.40
279.93	2242.53
280.14	2244.57
280.36	2172.89
280.57	2338.78
280.79	2260.96
281.00	2146.27
281.22	2129.89
281.43	2379.74
281.65	1998.82
281.86	2136.03
282.08	2357.21
282.29	2441.18
282.51	2162.66
282.73	2101.22
282.94	2117.60
283.16	2322.40
283.37	2322.40
283.59	2152.42
283.80	2357.21
284.02	2168.80
284.23	2252.77
284.45	2193.37
284.66	2195.42
284.88	2246.62
285.09	2254.81
285.31	2381.79
285.52	2351.07
285.74	2072.54
285.95	2316.25
286.17	2254.81
286.38	2340.83
286.60	2240.48
286.81	2187.23
287.03	2162.66
287.24	2299.87
287.46	2265.05
287.67	2267.10
287.89	2441.18
288.10	2232.29
288.32	2260.96
288.53	2351.07
288.75	2273.25
288.96	2277.34
289.18	2168.80
289.39	2256.86
289.61	2301.92
289.82	2344.92
290.04	2445.27
290.25	2179.04
290.47	2281.44
290.68	2332.64
290.90	2418.65
291.11	2144.22
291.33	2287.58
291.54	2203.61
291.76	2164.70
291.97	2301.92
292.18	2258.91
292.40	2258.91
292.61	2170.85
292.83	2381.79
293.04	2299.87
293.26	2250.72
293.47	2193.37
293.69	2179.04
293.90	2162.66
294.12	2342.88
294.33	2230.24
294.55	2217.95
294.76	2293.72
294.97	2381.79
295.19	2514.91
295.40	2254.81
295.62	2312.16
295.83	2394.08
296.05	2195.42
296.26	2338.78
296.48	2207.71
296.69	2215.90
296.90	2215.90
297.12	2332.64
297.33	2308.06
297.55	2269.15
297.76	2226.14
297.98	2342.88
298.19	2228.19
298.41	2293.72
298.62	2176.99
298.83	2377.69
299.05	2301.92
299.26	2205.66
299.48	2179.04
299.69	2228.19
299.90	2250.72
300.12	2203.61
300.33	2260.96
300.55	2236.38
300.76	2277.34
300.98	2131.94
301.19	2344.92
301.40	2230.24
301.62	2236.38
301.83	2269.15
302.05	2308.06
302.26	2234.33
302.47	2324.44
302.69	2220.00
302.90	2322.40
303.12	2097.12
303.33	2289.63
303.54	2435.03
303.76	2156.51
303.97	2230.24
304.19	2385.88
304.40	2170.85
304.61	2310.11
304.83	2379.74
305.04	2289.63
305.26	2295.77
305.47	2189.28
305.68	2236.38
305.90	2080.74
306.11	2400.22
306.33	2250.72
306.54	2203.61
306.75	2138.08
306.97	2129.89
307.18	2209.76
307.39	2185.18
307.61	2320.35
307.82	2252.77
308.04	2205.66
308.25	2166.75
308.46	2162.66
308.68	2252.77
308.89	2256.86
309.10	2320.35
309.32	2265.05
309.53	2279.39
309.74	2269.15
309.96	2265.05
310.17	2265.05
310.39	2170.85
310.60	2297.82
310.81	2226.14
311.03	2133.98
311.24	2289.63
311.45	2285.53
311.67	2367.45
311.88	2168.80
312.09	2168.80
312.31	2265.05
312.52	2236.38
312.73	2187.23
312.95	2136.03
313.16	2195.42
313.37	2332.64
313.59	2318.30
313.80	2301.92
314.01	2424.80
314.23	2213.85
314.44	2224.09
314.65	2109.41
314.87	2129.89
315.08	2205.66
315.29	2191.33
315.51	2181.09
315.72	2050.02
315.93	2396.12
316.15	2283.49
316.36	2187.23
316.57	2310.11
316.79	2273.25
317.00	2209.76
317.21	2269.15
317.43	2240.48
317.64	2287.58
317.85	2172.89
318.07	2273.25
318.28	2254.81
318.49	2287.58
318.70	2539.48
318.92	2346.97
319.13	2430.94
319.34	2392.03
319.56	2301.92
319.77	2351.07
319.98	2389.98
320.20	2371.55
320.41	2306.01
320.62	2412.51
320.83	2127.84
321.05	2349.02
321.26	2250.72
321.47	2258.91
321.69	2435.03
321.90	2195.42
322.11	2179.04
322.32	2287.58
322.54	2422.75
322.75	2203.61
322.96	2527.19
323.18	2168.80
323.39	2043.87
323.60	2119.65
323.81	2330.59
324.03	2088.93
324.24	2201.57
324.45	2287.58
324.66	2127.84
324.88	2357.21
325.09	2398.17
325.30	2224.09
325.52	2265.05
325.73	2273.25
325.94	2127.84
326.15	2105.31
326.37	2105.31
326.58	2299.87
326.79	2432.99
327.00	2138.08
327.22	2281.44
327.43	2174.94
327.64	2121.70
327.85	2289.63
328.07	2236.38
328.28	2545.63
328.49	2197.47
328.70	2226.14
328.92	2287.58
329.13	2236.38
329.34	2314.20
329.55	2406.36
329.76	2328.54
329.98	2248.67
330.19	2426.84
330.40	2220.00
330.61	2340.83
330.83	2297.82
331.04	2189.28
331.25	2316.25
331.46	2215.90
331.68	2140.13
331.89	2342.88
332.10	2277.34
332.31	2123.74
332.52	2207.71
332.74	2363.36
332.95	2097.12
333.16	2232.29
333.37	2248.67
333.58	2248.67
333.80	2285.53
334.01	2123.74
334.22	2195.42
334.43	2197.47
334.64	2176.99
334.86	2170.85
335.07	2144.22
335.28	2349.02
335.49	2086.88
335.70	2312.16
335.92	2351.07
336.13	2516.95
336.34	2287.58
336.55	2258.91
336.76	2283.49
336.98	2021.35
337.19	2226.14
337.40	2328.54
337.61	2529.24
337.82	2228.19
338.04	2308.06
338.25	2142.18
338.46	2228.19
338.67	2199.52
338.88	2217.95
339.09	2205.66
339.31	2228.19
339.52	2066.40
339.73	2146.27
339.94	2256.86
340.15	2349.02
340.36	2228.19
340.58	2228.19
340.79	2170.85
341.00	2285.53
341.21	2090.98
341.42	2412.51
341.63	2195.42
341.85	2275.29
342.06	2336.73
342.27	2129.89
342.48	2324.44
342.69	2166.75
342.90	2301.92
343.12	2338.78
343.33	2140.13
343.54	2217.95
343.75	2381.79
343.96	2236.38
344.17	2242.53
344.38	2228.19
344.60	2195.42
344.81	2121.70
345.02	2195.42
345.23	2383.84
345.44	2559.96
345.65	2279.39
345.86	2232.29
346.07	2349.02
346.29	2254.81
346.50	2301.92
346.71	2299.87
346.92	2375.64
347.13	2451.42
347.34	2195.42
347.55	2179.04
347.76	2314.20
347.98	2170.85
348.19	2220.00
348.40	2351.07
348.61	2152.42
348.82	2371.55
349.03	2267.10
349.24	2183.13
349.45	2410.46
349.66	2052.06
349.88	2242.53
350.09	2203.61
350.30	2457.56
350.51	2439.13
350.72	2318.30
350.93	2263.01
351.14	2238.43
351.35	2301.92
351.56	2240.48
351.77	2228.19
351.99	2328.54
352.20	2422.75
352.41	2312.16
352.62	2082.78
352.83	2189.28
353.04	2209.76
353.25	2238.43
353.46	2299.87
353.67	2330.59
353.88	2043.87
354.09	2226.14
354.30	2117.60
354.52	2285.53
354.73	2250.72
354.94	2250.72
355.15	2250.72
355.36	2437.08
355.57	2205.66
355.78	2250.72
355.99	2129.89
356.20	2193.37
356.41	2330.59
356.62	2308.06
356.83	2246.62
357.04	2383.84
357.25	2113.50
357.46	2199.52
357.68	2084.83
357.89	2199.52
358.10	2336.73
358.31	2228.19
358.52	2244.57
358.73	2193.37
358.94	2203.61
359.15	2117.60
359.36	2242.53
359.57	2246.62
359.78	2254.81
359.99	2258.91
360.20	2158.56
360.41	2181.09
360.62	2363.36
360.83	2238.43
361.04	2246.62
361.25	2322.40
361.46	2465.75
361.67	2318.30
361.88	2256.86
362.09	2381.79
362.30	2299.87
362.51	2156.51
362.72	2166.75
362.93	2357.21
363.14	2308.06
363.35	2185.18
363.56	2187.23
363.78	2338.78
363.99	2338.78
364.20	2191.33
364.41	2209.76
364.62	2504.67
364.83	2207.71
365.04	2281.44
365.25	2211.81
365.46	2465.75
365.67	2244.57
365.88	2246.62
366.09	2174.94
366.30	2258.91
366.51	2203.61
366.72	2101.22
366.93	2228.19
367.14	2265.05
367.35	2404.32
367.56	2244.57
367.77	2392.03
367.98	2240.48
368.18	2256.86
368.39	2220.00
368.60	2127.84
368.81	2332.64
369.02	2244.57
369.23	2187.23
369.44	2113.50
369.65	2138.08
369.86	2355.16
370.07	2326.49
370.28	2170.85
370.49	2283.49
370.70	2322.40
370.91	2197.47
371.12	2162.66
371.33	2328.54
371.54	2197.47
371.75	2324.44
371.96	2017.25
372.17	2314.20
372.38	2220.00
372.59	2314.20
372.80	2162.66
373.01	2258.91
373.22	2277.34
373.43	2332.64
373.64	2193.37
373.85	2318.30
374.06	2482.14
374.26	2301.92
374.47	2271.20
374.68	2383.84
374.89	2265.05
375.10	2189.28
375.31	2306.01
375.52	2283.49
375.73	2195.42
375.94	2164.70
376.15	2404.32
376.36	2148.32
376.57	2232.29
376.78	2230.24
376.99	2222.05
377.20	2443.23
377.40	2213.85
377.61	2428.89
377.82	2176.99
378.03	2412.51
378.24	2326.49
378.45	2258.91
378.66	2252.77
378.87	2064.35
379.08	2084.83
379.29	2236.38
379.50	2383.84
379.71	2197.47
379.91	2336.73
380.12	2183.13
380.33	2256.86
380.54	2254.81
380.75	2213.85
380.96	2217.95
381.17	2326.49
381.38	2357.21
381.59	2228.19
381.80	2310.11
382.00	2426.84
382.21	2299.87
382.42	2453.47
382.63	2490.33
382.84	2349.02
383.05	2377.69
383.26	2457.56
383.47	2301.92
383.68	2242.53
383.88	2379.74
384.09	2310.11
384.30	2404.32
384.51	2258.91
384.72	2254.81
384.93	2109.41
385.14	2232.29
385.35	2357.21
385.55	2131.94
385.76	2342.88
385.97	2285.53
386.18	2060.26
386.39	2058.21
386.60	2201.57
386.81	2207.71
387.02	2185.18
387.22	2185.18
387.43	2297.82
387.64	2344.92
387.85	2408.41
388.06	2439.13
388.27	3930.05
388.48	8126.34
388.68	11724.62
388.89	13883.18
389.10	14888.73
389.31	13860.65
389.52	10930.01
389.73	9420.66
389.93	8603.52
390.14	7931.78
390.35	7012.24
390.56	6436.77
390.77	5183.41
390.98	3995.59
391.18	3295.18
391.39	2736.09
391.60	2318.30
391.81	2396.12
392.02	2183.13
392.23	2506.71
392.43	2303.96
392.64	2363.36
392.85	2252.77
393.06	2459.61
393.27	2301.92
393.47	2209.76
393.68	2242.53
393.89	2215.90
394.10	2387.93
394.31	2240.48
394.52	2201.57
394.72	2193.37
394.93	2394.08
395.14	2113.50
395.35	2295.77
395.56	2236.38
395.76	2277.34
395.97	2263.01
396.18	2242.53
396.39	2383.84
396.60	2631.64
396.80	2562.01
397.01	2465.75
397.22	2400.22
397.43	2416.60
397.64	2289.63
397.84	2297.82
398.05	2443.23
398.26	2273.25
398.47	2373.60
398.67	2383.84
398.88	2195.42
399.09	2324.44
399.30	2213.85
399.51	2342.88
399.71	2228.19
399.92	2228.19
400.13	2330.59
400.34	2250.72
400.54	2205.66
400.75	2396.12
400.96	2287.58
401.17	2346.97
401.37	2252.77
401.58	2211.81
401.79	2267.10
402.00	2406.36
402.21	2686.94
402.41	2625.50
402.62	2611.16
402.83	2703.32
403.04	2740.18
403.24	2824.15
403.45	2408.41
403.66	2568.15
403.87	2398.17
404.07	2377.69
404.28	2508.76
404.49	2475.99
404.70	2402.27
404.90	2373.60
405.11	2244.57
405.32	2283.49
405.52	2195.42
405.73	2209.76
405.94	2154.46
406.15	2181.09
406.35	2306.01
406.56	2371.55
406.77	2293.72
406.98	2322.40
407.18	2205.66
407.39	2459.61
407.60	2224.09
407.80	2291.68
408.01	2203.61
408.22	2297.82
408.43	2174.94
408.63	2330.59
408.84	2355.16
409.05	2320.35
409.25	2150.37
409.46	2181.09
409.67	2289.63
409.88	2248.67
410.08	2226.14
410.29	2111.46
410.50	2230.24
410.70	2254.81
410.91	2140.13
411.12	2195.42
411.32	2260.96
411.53	2205.66
411.74	2332.64
411.95	2357.21
412.15	2349.02
412.36	2340.83
412.57	2396.12
412.77	2410.46
412.98	2277.34
413.19	2277.34
413.39	2340.83
413.60	2303.96
413.81	2441.18
414.01	2160.61
414.22	2277.34
414.43	2346.97
414.63	2248.67
414.84	2344.92
415.05	2207.71
415.25	2152.42
415.46	2365.40
415.67	2152.42
415.87	2238.43
416.08	2125.79
416.29	2256.86
416.49	2236.38
416.70	2146.27
416.91	2254.81
417.11	2160.61
417.32	2387.93
417.53	2351.07
417.73	2301.92
417.94	2277.34
418.15	2299.87
418.35	2277.34
418.56	2228.19
418.77	2498.52
418.97	2279.39
419.18	2185.18
419.38	2037.73
419.59	2244.57
419.80	2381.79
420.00	2252.77
420.21	2269.15
420.42	2285.53
420.62	2297.82
420.83	2234.33
421.04	2209.76
421.24	2191.33
421.45	2287.58
421.65	2244.57
421.86	2209.76
422.07	2279.39
422.27	2322.40
422.48	2238.43
422.69	2154.46
422.89	2330.59
423.10	2154.46
423.30	2215.90
423.51	2240.48
423.72	2281.44
423.92	2373.60
424.13	2129.89
424.33	2209.76
424.54	2258.91
424.75	2242.53
424.95	2400.22
425.16	2240.48
425.36	2250.72
425.57	2306.01
425.78	2273.25
425.98	2441.18
426.19	2195.42
426.39	2191.33
426.60	2283.49
426.81	2379.74
427.01	2316.25
427.22	2234.33
427.42	2043.87
427.63	2166.75
427.83	2301.92
428.04	2453.47
428.25	2342.88
428.45	2342.88
428.66	2297.82
428.86	2265.05
429.07	2179.04
429.28	2179.04
429.48	2230.24
429.69	2152.42
429.89	2289.63
430.10	2156.51
430.30	2379.74
430.51	2279.39
430.71	2211.81
430.92	2211.81
431.13	2207.71
431.33	2336.73
431.54	2217.95
431.74	2342.88
431.95	2463.71
432.15	2107.36
432.36	2299.87
432.56	2355.16
432.77	2514.91
432.98	2457.56
433.18	2338.78
433.39	2127.84
433.59	2183.13
433.80	2504.67
434.00	2473.95
434.21	2201.57
434.41	2203.61
434.62	2432.99
434.82	2191.33
435.03	2136.03
435.23	2283.49
435.44	2058.21
435.64	2187.23
435.85	2275.29
436.06	2322.40
436.26	2379.74
436.47	2220.00
436.67	2172.89
436.88	2314.20
437.08	2346.97
437.29	2404.32
437.49	2312.16
437.70	2363.36
437.90	2289.63
438.11	2363.36
438.31	2308.06
438.52	2396.12
438.72	2490.33
438.93	2463.71
439.13	2381.79
439.34	2416.60
439.54	2220.00
439.75	2314.20
439.95	2289.63
440.16	2185.18
440.36	2279.39
440.57	2236.38
440.77	2256.86
440.98	2351.07
441.18	2400.22
441.39	2254.81
441.59	2168.80
441.80	2496.47
442.00	2269.15
442.21	2379.74
442.41	2170.85
442.62	2291.68
442.82	2271.20
443.02	2318.30
443.23	2244.57
443.43	2260.96
443.64	2398.17
443.84	2211.81
444.05	2312.16
444.25	2301.92
444.46	2236.38
444.66	2252.77
444.87	2416.60
445.07	2127.84
445.28	2357.21
445.48	2387.93
445.69	2330.59
445.89	2553.82
446.09	2269.15
446.30	2553.82
446.50	2785.24
446.71	4513.72
446.91	5535.66
447.12	6393.76
447.32	6762.39
447.53	6111.14
447.73	5054.39
447.93	4546.49
448.14	4239.30
448.34	4077.51
448.55	3610.57
448.75	3571.66
448.96	3284.94
449.16	3088.34
449.36	2922.45
449.57	2615.26
449.77	2355.16
449.98	2285.53
450.18	2367.45
450.39	2291.68
450.59	2398.17
450.79	2201.57
451.00	2283.49
451.20	2318.30
451.41	2234.33
451.61	2312.16
451.81	2246.62
452.02	2189.28
452.22	2160.61
452.43	2230.24
452.63	2217.95
452.84	2170.85
453.04	2228.19
453.24	2258.91
453.45	2281.44
453.65	2199.52
453.86	2299.87
454.06	2228.19
454.26	2271.20
454.47	2168.80
454.67	2359.26
454.87	2379.74
455.08	2326.49
455.28	2387.93
455.49	2342.88
455.69	2220.00
455.89	2449.37
456.10	2326.49
456.30	2185.18
456.51	2363.36
456.71	2258.91
456.91	2291.68
457.12	2189.28
457.32	2320.35
457.52	2115.55
457.73	2306.01
457.93	2371.55
458.14	2185.18
458.34	2045.92
458.54	2220.00
458.75	2191.33
458.95	2338.78
459.15	2379.74
459.36	2336.73
459.56	2306.01
459.76	2469.85
459.97	2277.34
460.17	2176.99
460.37	2338.78
460.58	2265.05
460.78	2379.74
460.99	2193.37
461.19	2254.81
461.39	2244.57
461.60	2185.18
461.80	2326.49
462.00	2121.70
462.21	2250.72
462.41	2254.81
462.61	2187.23
462.82	2117.60
463.02	2334.68
463.22	2301.92
463.43	2306.01
463.63	2346.97
463.83	2400.22
464.04	2263.01
464.24	2236.38
464.44	2164.70
464.64	2217.95
464.85	2326.49
465.05	2316.25
465.25	2168.80
465.46	2209.76
465.66	2316.25
465.86	2371.55
466.07	2232.29
466.27	2277.34
466.47	2230.24
466.68	2164.70
466.88	2387.93
467.08	2353.12
467.29	2371.55
467.49	2332.64
467.69	2226.14
467.89	2351.07
468.10	2154.46
468.30	2256.86
468.50	2441.18
468.71	2404.32
468.91	2084.83
469.11	2439.13
469.31	2260.96
469.52	2209.76
469.72	2412.51
469.92	2418.65
470.13	2228.19
470.33	2224.09
470.53	2342.88
470.73	2611.16
470.94	3047.38
471.14	3162.06
471.34	3452.88
471.54	3391.44
471.75	3039.19
471.95	2850.77
472.15	2775.00
472.36	2740.18
472.56	2779.09
472.76	2760.66
472.96	2611.16
473.17	2543.58
473.37	2516.95
473.57	2316.25
473.77	2320.35
473.98	2318.30
474.18	2181.09
474.38	2547.67
474.58	2293.72
474.79	2238.43
474.99	2355.16
475.19	2330.59
475.39	2133.98
475.60	2387.93
475.80	2176.99
476.00	2349.02
476.20	2248.67
476.41	2281.44
476.61	2277.34
476.81	2457.56
477.01	2201.57
477.21	2441.18
477.42	2416.60
477.62	2136.03
477.82	2275.29
478.02	2195.42
478.23	2349.02
478.43	2207.71
478.63	2228.19
478.83	2248.67
479.03	2220.00
479.24	2430.94
479.44	2428.89
479.64	2179.04
479.84	2093.02
480.04	2187.23
480.25	2422.75
480.45	2154.46
480.65	2164.70
480.85	2389.98
481.06	2215.90
481.26	2220.00
481.46	2238.43
481.66	2263.01
481.86	2211.81
482.06	2355.16
482.27	2125.79
482.47	2203.61
482.67	2326.49
482.87	2260.96
483.07	2406.36
483.28	2308.06
483.48	2220.00
483.68	2258.91
483.88	2140.13
484.08	2047.97
484.29	2129.89
484.49	2263.01
484.69	2140.13
484.89	2404.32
485.09	2299.87
485.29	2346.97
485.50	2232.29
485.70	2258.91
485.90	2369.50
486.10	2275.29
486.30	2308.06
486.50	2365.40
486.71	2322.40
486.91	2301.92
487.11	2322.40
487.31	2074.59
487.51	2312.16
487.71	2129.89
487.91	2211.81
488.12	2160.61
488.32	2025.44
488.52	2193.37
488.72	2035.68
488.92	2326.49
489.12	2301.92
489.32	2404.32
489.53	2258.91
489.73	2129.89
489.93	2437.08
490.13	2168.80
490.33	2152.42
490.53	2281.44
490.73	2355.16
490.94	2090.98
491.14	2406.36
491.34	2299.87
491.54	2506.71
491.74	3157.97
491.94	3848.13
492.14	4052.93
492.34	4038.59
492.54	3846.09
492.75	3190.74
492.95	3088.34
493.15	3037.14
493.35	2899.92
493.55	2969.55
493.75	2768.85
493.95	2750.42
494.15	2516.95
494.35	2363.36
494.56	2367.45
494.76	2217.95
494.96	2301.92
495.16	2326.49
495.36	2316.25
495.56	2269.15
495.76	2246.62
495.96	2211.81
496.16	2148.32
496.36	2480.09
496.56	2164.70
496.77	2310.11
496.97	2291.68
497.17	2332.64
497.37	2179.04
497.57	2306.01
497.77	2301.92
497.97	2203.61
498.17	2275.29
498.37	2209.76
498.57	2265.05
498.77	2217.95
498.97	2326.49
499.17	2453.47
499.38	2222.05
499.58	2330.59
499.78	2426.84
499.98	2361.31
500.18	2193.37
500.38	2215.90
500.58	2449.37
500.78	2887.64
500.98	5160.88
501.18	7030.68
501.38	8646.52
501.58	9637.74
501.78	9398.13
501.98	7552.91
502.18	6330.27
502.38	5461.93
502.58	5111.73
502.78	4587.45
502.98	4468.67
503.18	4253.63
503.38	3805.13
503.59	3409.87
503.79	3248.08
503.99	2969.55
504.19	2826.20
504.39	2861.01
504.59	2787.29
504.79	2850.77
504.99	2824.15
505.19	2525.15
505.39	2514.91
505.59	2660.31
505.79	2457.56
505.99	2469.85
506.19	2373.60
506.39	2336.73
506.59	2240.48
506.79	2287.58
506.99	2422.75
507.19	2248.67
507.39	2357.21
507.59	2144.22
507.79	2222.05
507.99	2150.37
508.19	2260.96
508.39	2234.33
508.59	2308.06
508.79	2410.46
508.99	2512.86
509.19	2179.04
509.39	2334.68
509.59	2189.28
509.79	2232.29
509.99	2271.20
510.19	2361.31
510.39	2367.45
510.59	2322.40
510.79	2306.01
510.99	2211.81
511.19	2252.77
511.39	2420.70
511.59	2416.60
511.79	2349.02
511.99	2281.44
512.19	2447.32
512.38	2289.63
512.58	2193.37
512.78	2285.53
512.98	2301.92
513.18	2437.08
513.38	2088.93
513.58	2244.57
513.78	2301.92
513.98	2234.33
514.18	2191.33
514.38	2215.90
514.58	2357.21
514.78	2236.38
514.98	2193.37
515.18	2260.96
515.38	2172.89
515.58	2441.18
515.78	2156.51
515.98	2289.63
516.18	2351.07
516.38	2238.43
516.57	2191.33
516.77	2244.57
516.97	2242.53
517.17	2238.43
517.37	2121.70
517.57	2330.59
517.77	2301.92
517.97	2254.81
518.17	2340.83
518.37	2209.76
518.57	2217.95
518.77	2250.72
518.97	2154.46
519.16	2289.63
519.36	2457.56
519.56	2244.57
519.76	2269.15
519.96	2310.11
520.16	2420.70
520.36	2179.04
520.56	2404.32
520.76	2281.44
520.96	2228.19
521.16	2340.83
521.35	2457.56
521.55	2455.51
521.75	2209.76
521.95	2232.29
522.15	2164.70
522.35	2172.89
522.55	2220.00
522.75	2303.96
522.95	2170.85
523.14	2101.22
523.34	2387.93
523.54	2185.18
523.74	2326.49
523.94	2330.59
524.14	2131.94
524.34	2269.15
524.54	2424.80
524.73	2248.67
524.93	2353.12
525.13	2316.25
525.33	2107.36
525.53	2525.15
525.73	2379.74
525.93	2281.44
526.13	2140.13
526.32	2256.86
526.52	2383.84
526.72	2310.11
526.92	2217.95
527.12	2172.89
527.32	2158.56
527.52	2228.19
527.71	2342.88
527.91	2136.03
528.11	2217.95
528.31	2267.10
528.51	2199.52
528.71	2303.96
528.90	2283.49
529.10	2326.49
529.30	2441.18
529.50	2082.78
529.70	2308.06
529.90	2222.05
530.09	2289.63
530.29	2176.99
530.49	2203.61
530.69	2469.85
530.89	2260.96
531.09	2351.07
531.28	2273.25
531.48	2373.60
531.68	2287.58
531.88	2275.29
532.08	2375.64
532.28	2271.20
532.47	2293.72
532.67	2318.30
532.87	2406.36
533.07	2176.99
533.27	2355.16
533.46	2293.72
533.66	2381.79
533.86	2273.25
534.06	2258.91
534.26	2387.93
534.45	2316.25
534.65	2387.93
534.85	2291.68
535.05	2244.57
535.25	2392.03
535.44	2101.22
535.64	2392.03
535.84	2220.00
536.04	2256.86
536.24	2209.76
536.43	2205.66
536.63	2275.29
536.83	2256.86
537.03	2236.38
537.22	2187.23
537.42	2113.50
537.62	2211.81
537.82	2193.37
538.02	2363.36
538.21	2342.88
538.41	2539.48
538.61	2392.03
538.81	2193.37
539.00	2367.45
539.20	2093.02
539.40	2209.76
539.60	2220.00
539.79	2357.21
539.99	2256.86
540.19	2158.56
540.39	2330.59
540.58	2314.20
540.78	2375.64
540.98	2258.91
541.18	2324.44
541.37	2277.34
541.57	2306.01
541.77	2279.39
541.97	2129.89
542.16	2070.50
542.36	2228.19
542.56	2191.33
542.76	2463.71
542.95	2303.96
543.15	2310.11
543.35	2271.20
543.54	2191.33
543.74	2226.14
543.94	2379.74
544.14	2228.19
544.33	2420.70
544.53	2295.77
544.73	2238.43
544.93	2150.37
545.12	2248.67
545.32	2310.11
545.52	2234.33
545.71	2152.42
545.91	2207.71
546.11	2220.00
546.30	2265.05
546.50	2297.82
546.70	2406.36
546.90	2287.58
547.09	2154.46
547.29	2297.82
547.49	2330.59
547.68	2271.20
547.88	2154.46
548.08	2408.41
548.27	2715.61
548.47	2203.61
548.67	2256.86
548.87	2297.82
549.06	2236.38
549.26	2314.20
549.46	2285.53
549.65	2197.47
549.85	2301.92
550.05	2260.96
550.24	2160.61
550.44	2211.81
550.64	2322.40
550.83	2256.86
551.03	2422.75
551.23	2455.51
551.42	2301.92
551.62	2154.46
551.82	2324.44
552.01	2283.49
552.21	2361.31
552.41	2123.74
552.60	2357.21
552.80	2314.20
553.00	2201.57
553.19	2250.72
553.39	2439.13
553.59	2111.46
553.78	2275.29
553.98	2260.96
554.17	2142.18
554.37	2308.06
554.57	2265.05
554.76	2166.75
554.96	2234.33
555.16	2252.77
555.35	2273.25
555.55	2263.01
555.75	2297.82
555.94	2312.16
556.14	2166.75
556.33	2383.84
556.53	2234.33
556.73	2281.44
556.92	2404.32
557.12	2410.46
557.32	2488.28
557.51	2437.08
557.71	2291.68
557.90	2336.73
558.10	2408.41
558.30	2160.61
558.49	2238.43
558.69	2254.81
558.88	2293.72
559.08	2277.34
559.28	2258.91
559.47	2232.29
559.67	2406.36
559.86	2471.90
560.06	2289.63
560.26	2201.57
560.45	2232.29
560.65	2322.40
560.84	2334.68
561.04	2183.13
561.24	2375.64
561.43	2084.83
561.63	2484.19
561.82	2250.72
562.02	2389.98
562.22	2215.90
562.41	2193.37
562.61	2209.76
562.80	2168.80
563.00	2555.86
563.19	2301.92
563.39	2254.81
563.59	2318.30
563.78	2207.71
563.98	2056.16
564.17	2203.61
564.37	2105.31
564.56	2291.68
564.76	2146.27
564.96	2346.97
565.15	2283.49
565.35	2482.14
565.54	2289.63
565.74	2316.25
565.93	2338.78
566.13	2234.33
566.32	2254.81
566.52	2334.68
566.71	2289.63
566.91	2332.64
567.11	2310.11
567.30	2207.71
567.50	2322.40
567.69	2318.30
567.89	2295.77
568.08	2193.37
568.28	2273.25
568.47	2111.46
568.67	2285.53
568.86	2250.72
569.06	2318.30
569.25	2306.01
569.45	2111.46
569.64	2213.85
569.84	2232.29
570.04	2299.87
570.23	2238.43
570.43	2117.60
570.62	2316.25
570.82	2408.41
571.01	2203.61
571.21	2160.61
571.40	2191.33
571.60	2359.26
571.79	2326.49
571.99	2306.01
572.18	2150.37
572.38	2291.68
572.57	2228.19
572.77	2357.21
572.96	2539.48
573.16	2277.34
573.35	2205.66
573.55	2367.45
573.74	2269.15
573.94	2242.53
574.13	2209.76
574.33	2289.63
574.52	2410.46
574.71	2289.63
574.91	2310.11
575.10	2271.20
575.30	2330.59
575.49	2215.90
575.69	2160.61
575.88	2328.54
576.08	2224.09
576.27	2346.97
576.47	2295.77
576.66	2469.85
576.86	2385.88
577.05	2314.20
577.25	2412.51
577.44	2381.79
577.64	2226.14
577.83	2441.18
578.02	2267.10
578.22	2400.22
578.41	2490.33
578.61	2256.86
578.80	2117.60
579.00	2344.92
579.19	2256.86
579.39	2312.16
579.58	2392.03
579.77	2271.20
579.97	2379.74
580.16	2455.51
580.36	2432.99
580.55	2412.51
580.75	2357.21
580.94	2340.83
581.13	2457.56
581.33	2432.99
581.52	2340.83
581.72	2545.63
581.91	2494.43
582.11	2303.96
582.30	2334.68
582.49	2289.63
582.69	2461.66
582.88	2351.07
583.08	2267.10
583.27	2310.11
583.47	2236.38
583.66	2207.71
583.85	2150.37
584.05	2248.67
584.24	2365.40
584.44	2355.16
584.63	2473.95
584.82	2512.86
585.02	2447.32
585.21	2443.23
585.41	2412.51
585.60	2457.56
585.79	2545.63
585.99	2529.24
586.18	2400.22
586.37	3018.71
586.57	4652.98
586.76	13973.29
586.96	33046.02
587.15	46392.64
587.34	55714.99
587.54	60933.21
587.73	55755.95
587.93	39394.73
588.12	29857.34
588.31	23805.59
588.51	20987.58
588.70	19060.45
588.89	17338.10
589.09	15126.30
589.28	12900.16
589.47	10542.94
589.67	8171.40
589.86	6332.32
590.06	4669.37
590.25	3837.89
590.44	3186.64
590.64	2822.10
590.83	2629.59
591.02	2629.59
591.22	2373.60
591.41	2377.69
591.60	2312.16
591.80	2547.67
591.99	2240.48
592.18	2295.77
592.38	2389.98
592.57	2185.18
592.76	2283.49
592.96	2322.40
593.15	2326.49
593.34	2443.23
593.54	2277.34
593.73	2398.17
593.92	2400.22
594.12	2369.50
594.31	2443.23
594.50	2416.60
594.70	2351.07
594.89	2586.58
595.08	2193.37
595.28	2342.88
595.47	2666.46
595.66	2381.79
595.86	2228.19
596.05	2314.20
596.24	2281.44
596.43	2484.19
596.63	2482.14
596.82	2258.91
597.01	2326.49
597.21	2437.08
597.40	2357.21
597.59	2324.44
597.79	2314.20
597.98	2359.26
598.17	2367.45
598.36	2312.16
598.56	2398.17
598.75	2209.76
598.94	2371.55
599.14	2334.68
599.33	2273.25
599.52	2441.18
599.71	2326.49
599.91	2381.79
600.10	2320.35
600.29	2263.01
600.48	2369.50
600.68	2265.05
600.87	2355.16
601.06	2273.25
601.26	2252.77
601.45	2324.44
601.64	2275.29
601.83	2385.88
602.03	2256.86
602.22	2164.70
602.41	2428.89
602.60	2459.61
602.80	2357.21
602.99	2277.34
603.18	2291.68
603.37	2269.15
603.57	2297.82
603.76	2375.64
603.95	2351.07
604.14	2107.36
604.34	2179.04
604.53	2258.91
604.72	2340.83
604.91	2324.44
605.10	2342.88
605.30	2158.56
605.49	2471.90
605.68	2344.92
605.87	2312.16
606.07	2170.85
606.26	2244.57
606.45	2414.56
606.64	2369.50
606.84	2232.29
607.03	2291.68
607.22	2414.56
607.41	2240.48
607.60	2246.62
607.80	2336.73
607.99	2258.91
608.18	2273.25
608.37	2332.64
608.56	2205.66
608.76	2373.60
608.95	2445.27
609.14	2277.34
609.33	2445.27
609.52	2541.53
609.72	2365.40
609.91	2365.40
610.10	2340.83
610.29	2514.91
610.48	2363.36
610.68	2326.49
610.87	2346.97
611.06	2326.49
611.25	2306.01
611.44	2336.73
611.63	2271.20
611.83	2359.26
612.02	2129.89
612.21	2336.73
612.40	2121.70
612.59	2197.47
612.79	2121.70
612.98	2187.23
613.17	2449.37
613.36	2265.05
613.55	2387.93
613.74	2303.96
613.93	2295.77
614.13	2494.43
614.32	2496.47
614.51	2506.71
614.70	2346.97
614.89	2287.58
615.08	2357.21
615.28	2748.37
615.47	2277.34
615.66	2371.55
615.85	2252.77
616.04	2396.12
616.23	2283.49
616.42	2367.45
616.62	2301.92
616.81	2260.96
617.00	2260.96
617.19	2383.84
617.38	2226.14
617.57	2336.73
617.76	2283.49
617.95	2285.53
618.15	2351.07
618.34	2432.99
618.53	2195.42
618.72	2326.49
618.91	2387.93
619.10	2385.88
619.29	2154.46
619.48	2326.49
619.68	2230.24
619.87	2265.05
620.06	2174.94
620.25	2344.92
620.44	2258.91
620.63	2242.53
620.82	2357.21
621.01	2263.01
621.20	2293.72
621.39	2285.53
621.59	2281.44
621.78	2277.34
621.97	2260.96
622.16	2361.31
622.35	2230.24
622.54	2320.35
622.73	2367.45
622.92	2138.08
623.11	2349.02
623.30	2205.66
623.49	2299.87
623.68	2207.71
623.88	2396.12
624.07	2330.59
624.26	2224.09
624.45	2277.34
624.64	2230.24
624.83	2267.10
625.02	2187.23
625.21	2234.33
625.40	2318.30
625.59	2416.60
625.78	2228.19
625.97	2349.02
626.16	2420.70
626.35	2443.23
626.54	2389.98
626.74	2465.75
626.93	2283.49
627.12	2179.04
627.31	2392.03
627.50	2310.11
627.69	2371.55
627.88	2170.85
628.07	2220.00
628.26	2146.27
628.45	2119.65
628.64	2148.32
628.83	2267.10
629.02	2097.12
629.21	2349.02
629.40	2322.40
629.59	2217.95
629.78	2271.20
629.97	2312.16
630.16	2242.53
630.35	2277.34
630.54	2301.92
630.73	2230.24
630.92	2260.96
631.11	2162.66
631.30	2291.68
631.49	2400.22
631.68	2191.33
631.87	2314.20
632.06	2170.85
632.25	2523.10
632.44	2338.78
632.63	2316.25
632.82	2226.14
633.01	2285.53
633.20	2365.40
633.39	2250.72
633.58	2133.98
633.77	2326.49
633.96	2424.80
634.15	2318.30
634.34	2342.88
634.53	2283.49
634.72	2232.29
634.91	2084.83
635.10	2263.01
635.29	2426.84
635.48	2289.63
635.67	2125.79
635.86	2138.08
636.05	2400.22
636.24	2211.81
636.43	2244.57
636.62	2220.00
636.81	2039.78
637.00	2277.34
637.19	2252.77
637.38	2277.34
637.57	2295.77
637.76	2265.05
637.95	2301.92
638.14	2357.21
638.33	2392.03
638.52	2379.74
638.71	2215.90
638.89	2265.05
639.08	2531.29
639.27	2359.26
639.46	2553.82
639.65	2861.01
639.84	2854.87
640.03	3016.66
640.22	2865.11
640.41	2889.68
640.60	2512.86
640.79	2537.43
640.98	2410.46
641.17	2496.47
641.36	2453.47
641.55	2435.03
641.74	2217.95
641.92	2269.15
642.11	2217.95
642.30	2269.15
642.49	2258.91
642.68	2209.76
642.87	2277.34
643.06	2351.07
643.25	2213.85
643.44	2115.55
643.63	2301.92
643.82	2435.03
644.00	2197.47
644.19	2244.57
644.38	2138.08
644.57	2342.88
644.76	2217.95
644.95	2271.20
645.14	2244.57
645.33	2213.85
645.52	2230.24
645.71	2181.09
645.89	2170.85
646.08	2256.86
646.27	2201.57
646.46	2414.56
646.65	2097.12
646.84	2271.20
647.03	2179.04
647.22	2344.92
647.40	2265.05
647.59	2197.47
647.78	2062.30
647.97	2215.90
648.16	2146.27
648.35	2375.64
648.54	2367.45
648.73	2203.61
648.91	2389.98
649.10	2252.77
649.29	2211.81
649.48	2195.42
649.67	2297.82
649.86	2267.10
650.05	2248.67
650.23	2445.27
650.42	2316.25
650.61	2383.84
650.80	2465.75
650.99	2418.65
651.18	2473.95
651.36	2408.41
651.55	2293.72
651.74	2353.12
651.93	2222.05
652.12	2322.40
652.31	2308.06
652.49	2340.83
652.68	2254.81
652.87	2459.61
653.06	2359.26
653.25	2424.80
653.44	2297.82
653.62	2490.33
653.81	2248.67
654.00	2174.94
654.19	2381.79
654.38	2555.86
654.56	2389.98
654.75	2215.90
654.94	2330.59
655.13	2328.54
655.32	2277.34
655.51	2342.88
655.69	2193.37
655.88	2389.98
656.07	2238.43
656.26	2324.44
656.45	2152.42
656.63	2203.61
656.82	2293.72
657.01	2207.71
657.20	2209.76
657.38	2437.08
657.57	2187.23
657.76	2183.13
657.95	2379.74
658.14	2254.81
658.32	2285.53
658.51	2152.42
658.70	2256.86
658.89	2246.62
659.08	2295.77
659.26	2447.32
659.45	2162.66
659.64	2316.25
659.83	2269.15
660.01	2684.89
660.20	2303.96
660.39	2473.95
660.58	2054.11
660.76	2287.58
660.95	2125.79
661.14	2250.72
661.33	2183.13
661.51	2273.25
661.70	2228.19
661.89	2344.92
662.08	2301.92
662.26	2133.98
662.45	2185.18
662.64	2439.13
662.83	2234.33
663.01	2115.55
663.20	2121.70
663.39	2412.51
663.58	2215.90
663.76	2193.37
663.95	2308.06
664.14	2203.61
664.32	2267.10
664.51	2217.95
664.70	2160.61
664.89	2359.26
665.07	2179.04
665.26	2465.75
665.45	2197.47
665.64	2281.44
665.82	2308.06
666.01	2306.01
666.20	2168.80
666.38	2396.12
666.57	2412.51
666.76	3432.40
666.95	8169.35
667.13	16250.63
667.32	21167.80
667.51	24702.60
667.69	26334.83
667.88	24206.99
668.07	17260.28
668.25	13727.53
668.44	11229.01
668.63	9873.26
668.81	8697.72
669.00	7741.32
669.19	6909.85
669.38	5902.25
669.56	4997.04
669.75	4282.30
669.94	3508.17
670.12	3123.15
670.31	2822.10
670.50	2586.58
670.68	2553.82
670.87	2351.07
671.06	2324.44
671.24	2373.60
671.43	2441.18
671.62	2383.84
671.80	2297.82
671.99	2334.68
672.18	2375.64
672.36	2418.65
672.55	2242.53
672.74	2265.05
672.92	2230.24
673.11	2301.92
673.29	2236.38
673.48	2281.44
673.67	2220.00
673.85	2387.93
674.04	2205.66
674.23	2303.96
674.41	2447.32
674.60	2191.33
674.79	2185.18
674.97	2232.29
675.16	2381.79
675.34	2263.01
675.53	2215.90
675.72	2269.15
675.90	2465.75
676.09	2228.19
676.28	2271.20
676.46	2113.50
676.65	2324.44
676.83	2211.81
677.02	2213.85
677.21	2236.38
677.39	2232.29
677.58	2228.19
677.77	2179.04
677.95	2176.99
678.14	2250.72
678.32	2250.72
678.51	2193.37
678.70	2455.51
678.88	2252.77
679.07	2232.29
679.25	2301.92
679.44	2220.00
679.63	2156.51
679.81	2179.04
680.00	2389.98
680.18	2291.68
680.37	2422.75
680.55	2283.49
680.74	2152.42
680.93	2050.02
681.11	2338.78
681.30	2215.90
681.48	2283.49
681.67	2246.62
681.85	2275.29
682.04	2191.33
682.23	2271.20
682.41	2312.16
682.60	2220.00
682.78	2236.38
682.97	2162.66
683.15	2224.09
683.34	2265.05
683.53	2389.98
683.71	2148.32
683.90	2432.99
684.08	2447.32
684.27	2131.94
684.45	2244.57
684.64	2420.70
684.82	2273.25
685.01	2281.44
685.19	2244.57
685.38	2398.17
685.57	2267.10
685.75	2172.89
685.94	2170.85
686.12	2242.53
686.31	2203.61
686.49	2404.32
686.68	2029.54
686.86	2269.15
687.05	2265.05
687.23	2432.99
687.42	2185.18
687.60	2058.21
687.79	2301.92
687.97	2461.66
688.16	2371.55
688.34	2271.20
688.53	2097.12
688.71	2281.44
688.90	2357.21
689.08	2156.51
689.27	2129.89
689.45	2365.40
689.64	2318.30
689.82	2359.26
690.01	2320.35
690.19	2316.25
690.38	2189.28
690.56	2392.03
690.75	2097.12
690.93	2199.52
691.12	2193.37
691.30	2246.62
691.49	2209.76
691.67	2220.00
691.86	2447.32
692.04	2265.05
692.23	2222.05
692.41	2265.05
692.60	2582.49
692.78	2346.97
692.97	2308.06
693.15	2326.49
693.34	2547.67
693.52	2340.83
693.71	2211.81
693.89	2205.66
694.08	2056.16
694.26	2324.44
694.44	2344.92
694.63	2252.77
694.81	2183.13
695.00	2162.66
695.18	2402.27
695.37	2541.53
695.55	2330.59
695.74	2236.38
695.92	2203.61
696.10	2424.80
696.29	2129.89
696.47	2187.23
696.66	2070.50
696.84	2117.60
697.03	2224.09
697.21	2521.05
697.40	3260.37
697.58	2410.46
697.76	2226.14
697.95	2129.89
698.13	2242.53
698.32	2203.61
698.50	2346.97
698.68	2203.61
698.87	2248.67
699.05	2377.69
699.24	2273.25
699.42	2183.13
699.61	2285.53
699.79	2267.10
699.97	2250.72
700.16	2166.75
700.34	2113.50
700.53	2303.96
700.71	2465.75
700.89	2334.68
701.08	2236.38
701.26	2299.87
701.45	2750.42
701.63	2222.05
701.81	2244.57
702.00	2174.94
702.18	2316.25
702.37	2258.91
702.55	2357.21
702.73	2482.14
702.92	2324.44
703.10	2586.58
703.28	2506.71
703.47	2332.64
703.65	2494.43
703.84	2428.89
704.02	2260.96
704.20	2469.85
704.39	2217.95
704.57	2256.86
704.75	2445.27
704.94	2349.02
705.12	2289.63
705.30	2570.20
705.49	4419.52
705.67	10532.70
705.86	18196.20
706.04	22019.76
706.22	24891.01
706.41	25757.30
706.59	21831.35
706.77	15503.12
706.96	13068.09
707.14	11183.96
707.32	9856.87
707.51	8855.42
707.69	7305.10
707.87	6025.12
708.06	4767.67
708.24	3977.16
708.42	3262.41
708.61	3051.47
708.79	2449.37
708.97	2408.41
709.16	2428.89
709.34	2406.36
709.52	2338.78
709.71	2359.26
709.89	2330.59
710.07	2248.67
710.26	2195.42
710.44	2287.58
710.62	2412.51
710.80	2254.81
710.99	2326.49
711.17	2293.72
711.35	2220.00
711.54	2191.33
711.72	2424.80
711.90	2324.44
712.09	2285.53
712.27	2201.57
712.45	2363.36
712.63	2174.94
712.82	2285.53
713.00	2179.04
713.18	2367.45
713.37	2324.44
713.55	2426.84
713.73	2281.44
713.91	2326.49
714.10	2267.10
714.28	2136.03
714.46	2326.49
714.65	2297.82
714.83	2234.33
715.01	2263.01
715.19	2316.25
715.38	2158.56
715.56	2228.19
715.74	2199.52
715.92	2195.42
716.11	2408.41
716.29	2047.97
716.47	2301.92
716.65	2269.15
716.84	2078.69
717.02	2281.44
717.20	2131.94
717.38	2146.27
717.57	2293.72
717.75	2338.78
717.93	2203.61
718.11	2334.68
718.30	2236.38
718.48	2265.05
718.66	2285.53
718.84	2428.89
719.03	2203.61
719.21	2160.61
719.39	2422.75
719.57	2359.26
719.75	2383.84
719.94	2138.08
720.12	2158.56
720.30	2273.25
720.48	2371.55
720.67	2158.56
720.85	2142.18
721.03	2260.96
721.21	2183.13
721.39	2416.60
721.58	2361.31
721.76	2303.96
721.94	2277.34
722.12	2299.87
722.30	2369.50
722.49	2232.29
722.67	2201.57
722.85	2263.01
723.03	2142.18
723.21	2172.89
723.40	2289.63
723.58	2338.78
723.76	2312.16
723.94	2383.84
724.12	2260.96
724.30	2449.37
724.49	2375.64
724.67	2183.13
724.85	2301.92
725.03	2146.27
725.21	2357.21
725.40	2396.12
725.58	2113.50
725.76	2285.53
725.94	2381.79
726.12	2228.19
726.30	2250.72
726.49	2215.90
726.67	2236.38
726.85	2293.72
727.03	2627.54
727.21	3651.53
727.39	4986.80
727.57	5840.81
727.76	6602.65
727.94	6795.16
728.12	6404.00
728.30	5255.09
728.48	4521.92
728.66	4112.32
728.84	3792.84
729.03	3311.57
729.21	3043.28
729.39	2752.47
729.57	2473.95
729.75	2430.94
729.93	2326.49
730.11	2277.34
730.30	2295.77
730.48	2299.87
730.66	2291.68
730.84	2326.49
731.02	2236.38
731.20	2240.48
731.38	2285.53
731.56	2211.81
731.74	2211.81
731.93	2340.83
732.11	2220.00
732.29	2193.37
732.47	2375.64
732.65	2263.01
732.83	2342.88
733.01	2236.38
733.19	2138.08
733.37	2267.10
733.56	2263.01
733.74	2207.71
733.92	2355.16
734.10	2295.77
734.28	2342.88
734.46	2068.45
734.64	2254.81
734.82	2295.77
735.00	2166.75
735.18	2244.57
735.36	2301.92
735.54	2254.81
735.73	2260.96
735.91	2267.10
736.09	2326.49
736.27	2220.00
736.45	2273.25
736.63	2062.30
736.81	2220.00
736.99	2244.57
737.17	2367.45
737.35	2154.46
737.53	2297.82
737.71	2244.57
737.89	2396.12
738.07	2160.61
738.25	2240.48
738.43	2068.45
738.61	2193.37
738.80	2125.79
738.98	2117.60
739.16	2220.00
739.34	2187.23
739.52	2398.17
739.70	2258.91
739.88	2281.44
740.06	2340.83
740.24	1992.67
740.42	2404.32
740.60	2125.79
740.78	2129.89
740.96	2133.98
741.14	2250.72
741.32	2238.43
741.50	2185.18
741.68	2521.05
741.86	2385.88
742.04	2183.13
742.22	2078.69
742.40	2230.24
742.58	2281.44
742.76	2197.47
742.94	2308.06
743.12	2070.50
743.30	2299.87
743.48	2369.50
743.66	2258.91
743.84	2324.44
744.02	2256.86
744.20	2322.40
744.38	2127.84
744.56	2166.75
744.74	2369.50
744.92	2228.19
745.10	2400.22
745.28	2269.15
745.46	2506.71
745.64	2211.81
745.82	2365.40
746.00	2265.05
746.18	2336.73
746.36	2215.90
746.54	2160.61
746.72	2211.81
746.90	2101.22
747.08	2412.51
747.26	2275.29
747.44	2340.83
747.62	2375.64
747.80	2328.54
747.98	2336.73
748.15	2217.95
748.33	2430.94
748.51	2250.72
748.69	2256.86
748.87	2205.66
749.05	2301.92
749.23	2279.39
749.41	2228.19
749.59	2199.52
749.77	2357.21
749.95	2183.13
750.13	2142.18
750.31	2267.10
750.49	2250.72
750.67	2314.20
750.85	2389.98
751.03	2271.20
751.20	2459.61
751.38	2273.25
751.56	2170.85
751.74	2277.34
751.92	2285.53
752.10	2097.12
752.28	2308.06
752.46	2191.33
752.64	2269.15
752.82	2203.61
753.00	2359.26
753.18	2260.96
753.35	2176.99
753.53	2314.20
753.71	2203.61
753.89	2349.02
754.07	2246.62
754.25	2437.08
754.43	2283.49
754.61	2172.89
754.79	2297.82
754.97	2306.01
755.14	2428.89
755.32	2113.50
755.50	2256.86
755.68	2342.88
755.86	2144.22
756.04	2248.67
756.22	2060.26
756.40	2377.69
756.57	2426.84
756.75	2203.61
756.93	2355.16
757.11	2285.53
757.29	2103.26
757.47	2115.55
757.65	2076.64
757.82	2072.54
758.00	2148.32
758.18	2209.76
758.36	2207.71
758.54	2424.80
758.72	2084.83
758.90	2287.58
759.07	2279.39
759.25	2217.95
759.43	2277.34
759.61	2136.03
759.79	3102.67
759.97	2267.10
760.15	2152.42
760.32	2197.47
760.50	2310.11
760.68	2383.84
760.86	2152.42
761.04	2301.92
761.22	2363.36
761.39	2271.20
761.57	2260.96
761.75	2275.29
761.93	2306.01
762.11	2258.91
762.28	2238.43
762.46	2113.50
762.64	2371.55
762.82	2117.60
763.00	2220.00
763.18	2328.54
763.35	2197.47
763.53	2306.01
763.71	2291.68
763.89	2193.37
764.07	2308.06
764.24	2256.86
764.42	2346.97
764.60	2265.05
764.78	2340.83
764.96	2349.02
765.13	2349.02
765.31	2174.94
765.49	2301.92
765.67	2136.03
765.84	2127.84
766.02	2236.38
766.20	2088.93
766.38	2351.07
766.56	2408.41
766.73	2318.30
766.91	2207.71
767.09	2291.68
767.27	2281.44
767.44	2140.13
767.62	2349.02
767.80	2258.91
767.98	2183.13
768.15	2256.86
768.33	2394.08
768.51	2308.06
768.69	2295.77
768.87	2279.39
769.04	2205.66
769.22	2533.34
769.40	2369.50
769.58	2412.51
769.75	2267.10
769.93	2414.56
770.11	2232.29
770.28	2152.42
770.46	2316.25
770.64	2334.68
770.82	2244.57
770.99	2183.13
771.17	2250.72
771.35	2252.77
771.53	2176.99
771.70	2197.47
771.88	2244.57
772.06	2306.01
772.23	2217.95
772.41	2277.34
772.59	2236.38
772.77	2086.88
772.94	2236.38
773.12	2277.34
773.30	2203.61
773.47	2236.38
773.65	2170.85
773.83	2295.77
774.01	2240.48
774.18	2095.07
774.36	2203.61
774.54	2174.94
774.71	2310.11
774.89	2162.66
775.07	2109.41
775.24	2207.71
775.42	2174.94
775.60	2471.90
775.78	2160.61
775.95	2213.85
776.13	2074.59
776.31	2037.73
776.48	2269.15
776.66	2330.59
776.84	2232.29
777.01	2197.47
777.19	2162.66
777.37	2152.42
777.54	2275.29
777.72	2439.13
777.90	2285.53
778.07	2101.22
778.25	2531.29
778.43	2394.08
778.60	2193.37
778.78	2330.59
778.96	2449.37
779.13	2093.02
779.31	2332.64
779.49	2299.87
779.66	2299.87
779.84	2277.34
780.01	2220.00
780.19	2113.50
780.37	2355.16
780.54	2254.81
780.72	2133.98
780.90	2236.38
781.07	2187.23
781.25	2246.62
781.43	2277.34
781.60	2232.29
781.78	2383.84
781.95	2252.77
782.13	2168.80
782.31	2260.96
782.48	2021.35
782.66	2228.19
782.83	2383.84
783.01	2240.48
783.19	2291.68
783.36	2185.18
783.54	2199.52
783.72	2281.44
783.89	2226.14
784.07	2203.61
784.24	2289.63
784.42	2314.20
784.60	2158.56
784.77	2310.11
784.95	2113.50
785.12	2217.95
785.30	2330.59
785.47	2193.37
785.65	2160.61
785.83	2203.61
786.00	2144.22
786.18	2224.09
786.35	2172.89
786.53	2226.14
786.71	2285.53
786.88	2293.72
787.06	2322.40
787.23	2191.33
787.41	2144.22
787.58	2285.53
787.76	2203.61
787.94	2258.91
788.11	2267.10
788.29	2101.22
788.46	2160.61
788.64	2117.60
788.81	2220.00
788.99	2211.81
789.16	2228.19
789.34	2240.48
789.52	2179.04
789.69	2226.14
789.87	2037.73
790.04	2220.00
790.22	2246.62
790.39	2424.80
790.57	2236.38
790.74	2160.61
790.92	2373.60
791.09	2070.50
791.27	2277.34
791.44	2383.84
791.62	2185.18
791.79	2287.58
791.97	2258.91
792.15	2572.25
792.32	2332.64
792.50	2383.84
792.67	2422.75
792.85	2396.12
793.02	2355.16
793.20	2113.50
793.37	2150.37
793.55	2215.90
793.72	2240.48
793.90	2330.59
794.07	2152.42
794.25	2179.04
794.42	2297.82
794.60	2193.37
794.77	2267.10
794.95	2377.69
795.12	2351.07
795.30	2287.58
795.47	2076.64
795.65	2498.52
795.82	2166.75
796.00	2179.04
796.17	2168.80
796.34	2146.27
796.52	2252.77
796.69	2349.02
796.87	2396.12
797.04	2277.34
797.22	2277.34
797.39	2281.44
797.57	2324.44
797.74	2256.86
797.92	2203.61
798.09	2195.42
798.27	2435.03
798.44	2150.37
798.62	2187.23
798.79	2267.10
798.96	2230.24
799.14	2236.38
799.31	2496.47
799.49	2195.42
799.66	2170.85
799.84	2240.48
800.01	2119.65
800.19	2330.59
800.36	2107.36
800.53	2232.29
800.71	2371.55
800.88	2371.55
801.06	2154.46
801.23	2166.75
801.41	2240.48
801.58	2217.95
801.75	2226.14
801.93	2330.59
802.10	2260.96
802.28	2170.85
802.45	2179.04
802.63	2340.83
802.80	2334.68
802.97	2156.51
803.15	2205.66
803.32	2277.34
803.50	2146.27
803.67	2228.19
803.84	2176.99
804.02	2248.67
804.19	2275.29
804.37	2187.23
804.54	2172.89
804.71	2207.71
804.89	2185.18
805.06	2129.89
805.24	2146.27
805.41	2136.03
805.58	2226.14
805.76	2488.28
805.93	2224.09
806.10	2301.92
806.28	2338.78
806.45	2291.68
806.63	2281.44
806.80	2260.96
806.97	2250.72
807.15	2258.91
807.32	2303.96
807.49	2242.53
807.67	2093.02
807.84	2281.44
808.01	2109.41
808.19	2375.64
808.36	2451.42
808.54	2189.28
808.71	2084.83
808.88	2238.43
809.06	2349.02
809.23	2430.94
809.40	2209.76
809.58	2250.72
809.75	2160.61
809.92	2176.99
810.10	2441.18
810.27	2289.63
810.44	2283.49
810.62	2330.59
810.79	2340.83
810.96	2168.80
811.14	2150.37
811.31	2312.16
811.48	2318.30
811.66	2150.37
811.83	2342.88
812.00	2301.92
812.18	2342.88
812.35	2422.75
812.52	2187.23
812.69	2195.42
812.87	2256.86
813.04	2220.00
813.21	2269.15
813.39	2203.61
813.56	2111.46
813.73	2367.45
813.91	2162.66
814.08	2246.62
814.25	2265.05
814.42	2144.22
814.60	2213.85
814.77	2252.77
814.94	2265.05
815.12	2213.85
815.29	2422.75
815.46	2222.05
815.63	2271.20
815.81	2230.24
815.98	2174.94
816.15	2293.72
816.33	2308.06
816.50	2291.68
816.67	2291.68
816.84	2187.23
817.02	2176.99
817.19	2170.85
817.36	2297.82
817.53	2279.39
817.71	2099.17
817.88	2332.64
818.05	2224.09
818.22	2142.18
818.40	2478.04
818.57	2152.42
818.74	2244.57
818.91	2187.23
819.09	2299.87
819.26	2287.58
819.43	2176.99
819.60	2220.00
819.78	2273.25
819.95	2367.45
820.12	2162.66
820.29	2359.26
820.47	2443.23
820.64	2193.37
820.81	2162.66
820.98	2220.00
821.15	2211.81
821.33	2365.40
821.50	2041.82
821.67	2269.15
821.84	2166.75
822.02	2275.29
822.19	2310.11
822.36	2279.39
822.53	2203.61
822.70	2201.57
822.88	2138.08
823.05	2406.36
823.22	2211.81
823.39	2312.16
823.56	2275.29
823.74	2387.93
823.91	2146.27
824.08	1996.77
824.25	2162.66
824.42	2459.61
824.60	2136.03
824.77	2187.23
824.94	2215.90
825.11	2306.01
825.28	1994.72
825.45	2228.19
825.63	2275.29
825.80	2144.22
825.97	2310.11
826.14	2197.47
826.31	2119.65
826.48	2316.25
826.66	2119.65
826.83	2199.52
827.00	2220.00
827.17	2084.83
827.34	2269.15
827.51	2224.09
827.69	2209.76
827.86	2084.83
828.03	2228.19
828.20	2236.38
828.37	2183.13
828.54	2199.52
828.71	2170.85
828.89	2322.40
829.06	2213.85
829.23	2406.36
829.40	2226.14
829.57	2269.15
829.74	2252.77
829.91	2148.32
830.09	2127.84
830.26	2293.72
830.43	2465.75
830.60	2174.94
830.77	2308.06
830.94	2357.21
831.11	2332.64
831.28	2220.00
831.46	2359.26
831.63	2183.13
831.80	2334.68
831.97	2131.94
832.14	2199.52
832.31	2306.01
832.48	2244.57
832.65	2344.92
832.82	2246.62
832.99	2267.10
833.17	2101.22
833.34	2424.80
833.51	2346.97
833.68	2072.54
833.85	2353.12
834.02	2144.22
834.19	2107.36
834.36	2138.08
834.53	2379.74
834.70	2306.01
834.87	2301.92
835.04	2160.61
835.22	2203.61
835.39	2150.37
835.56	2185.18
835.73	2084.83
835.90	2277.34
836.07	2140.13
836.24	2240.48
836.41	2119.65
836.58	2199.52
836.75	2336.73
836.92	2228.19
837.09	2164.70
837.26	2299.87
837.43	2299.87
837.60	2174.94
837.77	2179.04
837.94	2277.34
838.12	2396.12
838.29	2209.76
838.46	2037.73
838.63	2117.60
838.80	2453.47
838.97	2320.35
839.14	2283.49
839.31	2252.77
839.48	2369.50
839.65	2252.77
839.82	2285.53
839.99	2248.67
840.16	2240.48
840.33	2154.46
840.50	2287.58
840.67	2222.05
840.84	2029.54
841.01	2217.95
841.18	2097.12
841.35	2248.67
841.52	2332.64
841.69	2361.31
841.86	2207.71
842.03	2140.13
842.20	2260.96
842.37	2166.75
842.54	2174.94
842.71	2285.53
842.88	2099.17
843.05	2293.72
843.22	2158.56
843.39	2359.26
843.56	2164.70
843.73	2136.03
843.90	2242.53
844.07	2228.19
844.24	2381.79
844.41	2281.44
844.58	2267.10
844.75	2207.71
844.92	2301.92
845.09	2230.24
845.26	2162.66
845.43	2277.34
845.60	2250.72
845.77	2359.26
845.94	2193.37
846.10	2301.92
846.27	2084.83
846.44	2136.03
846.61	2113.50
846.78	2322.40
846.95	2332.64
847.12	2158.56
847.29	2197.47
847.46	2179.04
847.63	2277.34
847.80	2199.52
847.97	2152.42
848.14	2449.37
848.31	2195.42
848.48	2105.31
848.65	2256.86
848.82	2189.28
848.98	2469.85
849.15	2217.95
849.32	2334.68
849.49	2328.54
849.66	2248.67
849.83	2252.77
850.00	2183.13
850.17	2387.93
850.34	2236.38
850.51	2166.75
850.68	2168.80
850.85	2457.56
851.01	2217.95
851.18	2144.22
851.35	2203.61
851.52	2281.44
851.69	2430.94
851.86	2107.36
852.03	2160.61
852.20	2267.10
852.37	2197.47
852.53	2127.84
852.70	2150.37
852.87	2324.44
853.04	2277.34
853.21	2121.70
853.38	2330.59
853.55	2420.70
853.72	2396.12
853.89	2127.84
854.05	2117.60
854.22	2203.61
854.39	2234.33
854.56	2232.29
854.73	2295.77
854.90	2086.88
855.07	2240.48
855.23	2105.31
855.40	2131.94
855.57	2234.33
855.74	2064.35
855.91	2349.02
856.08	2084.83
856.25	2129.89
856.41	2209.76
856.58	2138.08
856.75	2211.81
856.92	2158.56
857.09	2314.20
857.26	2193.37
857.42	2226.14
857.59	2404.32
857.76	2215.90
857.93	2203.61
858.10	2269.15
858.27	2117.60
858.43	2236.38
858.60	2109.41
858.77	2084.83
858.94	2152.42
859.11	2297.82
859.27	2191.33
859.44	2166.75
859.61	2469.85
859.78	2301.92
859.95	2168.80
860.12	2146.27
860.28	2338.78
860.45	2473.95
860.62	2236.38
860.79	2250.72
860.95	2242.53
861.12	2160.61
861.29	2144.22
861.46	2103.26
861.63	2236.38
861.79	2269.15
861.96	2158.56
862.13	2187.23
862.30	2398.17
862.47	2105.31
862.63	2146.27
862.80	2316.25
862.97	2318.30
863.14	2355.16
863.30	2228.19
863.47	2097.12
863.64	2328.54
863.81	2263.01
863.97	2174.94
864.14	2273.25
864.31	2162.66
864.48	2142.18
864.65	2195.42
864.81	2289.63
864.98	2316.25
865.15	2318.30
865.32	2275.29
865.48	2316.25
865.65	2342.88
865.82	2129.89
865.98	2226.14
866.15	2332.64
866.32	2283.49
866.49	2183.13
866.65	2402.27
866.82	2191.33
866.99	2244.57
867.16	2207.71
867.32	2240.48
867.49	2150.37
867.66	2240.48
867.83	2224.09
867.99	2123.74
868.16	2224.09
868.33	2181.09
868.49	2273.25
868.66	2185.18
868.83	2254.81
868.99	2334.68
869.16	2244.57
869.33	2275.29
869.50	2283.49
869.66	2267.10
869.83	2211.81
870.00	2146.27
870.16	2246.62
870.33	2258.91
870.50	2267.10
870.66	2297.82
870.83	2312.16
871.00	2232.29
871.17	2281.44
871.33	2260.96
871.50	2187.23
871.67	2187.23
871.83	2068.45
872.00	2400.22
872.17	2150.37
872.33	2443.23
872.50	2373.60
872.67	2230.24
872.83	2232.29
873.00	2355.16
873.17	2220.00
873.33	2269.15
873.50	2260.96
873.67	2201.57
873.83	2189.28
874.00	2181.09
874.16	2269.15
874.33	2271.20
874.50	2142.18
874.66	2228.19
874.83	2207.71
875.00	2363.36
875.16	2326.49
875.33	2314.20
875.50	2045.92
875.66	2187.23
875.83	2265.05
875.99	2277.34
876.16	2252.77
876.33	2166.75
876.49	2242.53
876.66	2252.77
876.83	2224.09
876.99	2076.64
877.16	2250.72
877.32	2154.46
877.49	2187.23
877.66	2312.16
877.82	2408.41
877.99	2269.15
878.15	2365.40
878.32	2252.77
878.49	2260.96
878.65	2220.00
878.82	2299.87
878.98	2131.94
879.15	2342.88
879.32	2269.15
879.48	2154.46
879.65	2199.52
879.81	2152.42
879.98	2138.08
880.15	2133.98
880.31	2283.49
880.48	2144.22
880.64	2318.30
880.81	2250.72
880.97	2414.56
881.14	2404.32
881.31	2160.61
881.47	2353.12
881.64	2220.00
881.80	2072.54
881.97	2326.49
882.13	2238.43
882.30	2072.54
882.47	2113.50
882.63	2125.79
882.80	2140.13
882.96	2193.37
883.13	2379.74
883.29	2217.95
883.46	2199.52
883.62	2459.61
883.79	2252.77
883.95	2269.15
884.12	2203.61
884.29	2336.73
884.45	2279.39
884.62	2258.91
884.78	2215.90
884.95	2351.07
885.11	2189.28
885.28	2244.57
885.44	2213.85
885.61	2301.92
885.77	2396.12
885.94	2328.54
886.10	2131.94
886.27	2306.01
886.43	2449.37
886.60	2396.12
886.76	2244.57
886.93	2220.00
887.09	2312.16
887.26	2054.11
887.42	2269.15
887.59	2369.50
887.75	2453.47
887.92	2334.68
888.08	2367.45
888.25	2422.75
888.41	2318.30
888.58	2236.38
888.74	2129.89
888.91	2228.19
>>>>>End Processed Spectral Data<<<<<
