SpectraSuite Data File
++++++++++++++++++++++++++++++++++++
Date: Thu May 05 13:21:33 CEST 2016
User: root
Dark Spectrum Present: No
Reference Spectrum Present: No
Number of Sampled Component Spectra: 1
Spectrometers: USB4C02835
Integration Time (usec): 100000 (USB4C02835)
Spectra Averaged: 1 (USB4C02835)
Boxcar Smoothing: 0 (USB4C02835)
Correct for Electrical Dark: No (USB4C02835)
Strobe/Lamp Enabled: No (USB4C02835)
Correct for Detector Non-linearity: No (USB4C02835)
Correct for Stray Light: No (USB4C02835)
Number of Pixels in Processed Spectrum: 3648
>>>>>Begin Processed Spectral Data<<<<<
177.47	1777.64
177.69	1777.64
177.91	1777.64
178.13	1816.55
178.36	1834.98
178.58	2144.22
178.80	2265.05
179.02	2086.88
179.24	2164.70
179.46	2187.23
179.68	2144.22
179.90	2211.81
180.13	2179.04
180.35	2129.89
180.57	2119.65
180.79	2342.88
181.01	2232.29
181.23	2185.18
181.45	2318.30
181.67	2316.25
181.90	2301.92
182.12	2201.57
182.34	2097.12
182.56	2367.45
182.78	2340.83
183.00	2201.57
183.22	2136.03
183.44	2144.22
183.66	2586.58
183.89	2250.72
184.11	2248.67
184.33	2303.96
184.55	2318.30
184.77	2189.28
184.99	2160.61
185.21	2185.18
185.43	2527.19
185.65	2260.96
185.87	2148.32
186.10	2414.56
186.32	2494.43
186.54	2246.62
186.76	2224.09
186.98	2312.16
187.20	2224.09
187.42	2140.13
187.64	2224.09
187.86	2330.59
188.08	2361.31
188.30	2103.26
188.52	2209.76
188.75	2422.75
188.97	2383.84
189.19	2119.65
189.41	2179.04
189.63	2306.01
189.85	2172.89
190.07	2080.74
190.29	2090.98
190.51	2326.49
190.73	2043.87
190.95	2326.49
191.17	2174.94
191.39	2099.17
191.61	2265.05
191.84	2183.13
192.06	2252.77
192.28	2043.87
192.50	2576.34
192.72	2222.05
192.94	2207.71
193.16	2377.69
193.38	2314.20
193.60	2107.36
193.82	2164.70
194.04	2371.55
194.26	2285.53
194.48	2168.80
194.70	2183.13
194.92	2146.27
195.14	2334.68
195.36	2160.61
195.58	2195.42
195.80	2191.33
196.02	2111.46
196.24	2088.93
196.46	2242.53
196.69	2170.85
196.91	2514.91
197.13	2154.46
197.35	2179.04
197.57	2406.36
197.79	2332.64
198.01	2258.91
198.23	2154.46
198.45	2332.64
198.67	2117.60
198.89	2121.70
199.11	2240.48
199.33	2205.66
199.55	2090.98
199.77	2117.60
199.99	2238.43
200.21	2244.57
200.43	2318.30
200.65	2095.07
200.87	2084.83
201.09	2260.96
201.31	2236.38
201.53	2217.95
201.75	2164.70
201.97	2260.96
202.19	2269.15
202.41	2267.10
202.63	2371.55
202.85	2293.72
203.07	2299.87
203.29	2179.04
203.51	2097.12
203.73	2162.66
203.95	2615.26
204.17	2191.33
204.39	2367.45
204.61	2232.29
204.83	2267.10
205.05	2283.49
205.27	2224.09
205.49	2514.91
205.71	2295.77
205.93	2099.17
206.15	2244.57
206.37	2176.99
206.59	2213.85
206.81	2109.41
207.03	2074.59
207.25	2187.23
207.47	2342.88
207.69	2160.61
207.91	2351.07
208.13	2346.97
208.34	2195.42
208.56	2105.31
208.78	2211.81
209.00	2213.85
209.22	2154.46
209.44	2197.47
209.66	2140.13
209.88	2222.05
210.10	2293.72
210.32	2168.80
210.54	2244.57
210.76	2293.72
210.98	2308.06
211.20	2047.97
211.42	2232.29
211.64	2412.51
211.86	2277.34
212.08	2258.91
212.30	2215.90
212.52	2154.46
212.74	2258.91
212.96	2211.81
213.17	2201.57
213.39	2285.53
213.61	2498.52
213.83	2236.38
214.05	2162.66
214.27	2387.93
214.49	2127.84
214.71	2093.02
214.93	2236.38
215.15	2328.54
215.37	2371.55
215.59	2199.52
215.81	2285.53
216.03	2373.60
216.24	2252.77
216.46	2213.85
216.68	2236.38
216.90	2320.35
217.12	2322.40
217.34	2207.71
217.56	2250.72
217.78	2338.78
218.00	2318.30
218.22	2258.91
218.44	2260.96
218.66	2228.19
218.87	2463.71
219.09	2207.71
219.31	2244.57
219.53	2275.29
219.75	2154.46
219.97	2140.13
220.19	2222.05
220.41	2254.81
220.63	2351.07
220.85	2168.80
221.06	2172.89
221.28	2316.25
221.50	2230.24
221.72	2150.37
221.94	2146.27
222.16	2248.67
222.38	2277.34
222.60	2209.76
222.82	2209.76
223.03	2394.08
223.25	2176.99
223.47	2256.86
223.69	2414.56
223.91	2371.55
224.13	2283.49
224.35	2166.75
224.57	2324.44
224.78	2275.29
225.00	2138.08
225.22	2256.86
225.44	2179.04
225.66	2312.16
225.88	2187.23
226.10	2256.86
226.32	2226.14
226.53	2430.94
226.75	2158.56
226.97	2230.24
227.19	2127.84
227.41	2127.84
227.63	2195.42
227.85	2064.35
228.06	2267.10
228.28	2244.57
228.50	2367.45
228.72	2109.41
228.94	2176.99
229.16	2109.41
229.37	2127.84
229.59	2162.66
229.81	2365.40
230.03	2191.33
230.25	2203.61
230.47	2133.98
230.69	2140.13
230.90	2351.07
231.12	2297.82
231.34	2248.67
231.56	2271.20
231.78	2119.65
232.00	2240.48
232.21	2203.61
232.43	2185.18
232.65	2070.50
232.87	2287.58
233.09	2144.22
233.30	2181.09
233.52	2361.31
233.74	2185.18
233.96	2111.46
234.18	2236.38
234.40	2248.67
234.61	2406.36
234.83	2072.54
235.05	2101.22
235.27	2488.28
235.49	2351.07
235.70	2183.13
235.92	2299.87
236.14	2283.49
236.36	2430.94
236.58	2078.69
236.79	2226.14
237.01	2217.95
237.23	2211.81
237.45	2316.25
237.67	2195.42
237.88	2357.21
238.10	2492.38
238.32	2080.74
238.54	2230.24
238.76	2238.43
238.97	2101.22
239.19	2066.40
239.41	2285.53
239.63	2367.45
239.85	2133.98
240.06	2303.96
240.28	2160.61
240.50	2342.88
240.72	2285.53
240.93	2136.03
241.15	2308.06
241.37	2199.52
241.59	2387.93
241.81	2152.42
242.02	2226.14
242.24	2306.01
242.46	2299.87
242.68	2105.31
242.89	2111.46
243.11	2295.77
243.33	2263.01
243.55	2166.75
243.76	2226.14
243.98	2146.27
244.20	2166.75
244.42	2176.99
244.64	2197.47
244.85	2115.55
245.07	2256.86
245.29	2248.67
245.51	2183.13
245.72	2310.11
245.94	2408.41
246.16	2242.53
246.38	2228.19
246.59	2283.49
246.81	2176.99
247.03	2136.03
247.24	2076.64
247.46	2242.53
247.68	2236.38
247.90	2127.84
248.11	2113.50
248.33	2351.07
248.55	2234.33
248.77	2217.95
248.98	2267.10
249.20	2461.66
249.42	2263.01
249.64	2228.19
249.85	2246.62
250.07	2160.61
250.29	2381.79
250.50	2252.77
250.72	2131.94
250.94	2242.53
251.16	2506.71
251.37	2183.13
251.59	2240.48
251.81	2324.44
252.02	2408.41
252.24	2170.85
252.46	2252.77
252.68	2191.33
252.89	2260.96
253.11	2136.03
253.33	2285.53
253.54	2359.26
253.76	2193.37
253.98	2107.36
254.20	2166.75
254.41	2162.66
254.63	2265.05
254.85	2060.26
255.06	2217.95
255.28	2322.40
255.50	2287.58
255.71	2174.94
255.93	2150.37
256.15	2127.84
256.36	2271.20
256.58	2113.50
256.80	2197.47
257.02	2275.29
257.23	2215.90
257.45	2148.32
257.67	2244.57
257.88	2138.08
258.10	2236.38
258.32	2258.91
258.53	2228.19
258.75	2414.56
258.97	2174.94
259.18	2172.89
259.40	2226.14
259.62	2400.22
259.83	2418.65
260.05	2201.57
260.27	2725.85
260.48	2353.12
260.70	2152.42
260.92	2078.69
261.13	2181.09
261.35	2205.66
261.57	2334.68
261.78	2062.30
262.00	2236.38
262.22	2285.53
262.43	2136.03
262.65	2127.84
262.86	2156.51
263.08	2441.18
263.30	2224.09
263.51	2101.22
263.73	2142.18
263.95	2306.01
264.16	2168.80
264.38	2121.70
264.60	2187.23
264.81	2297.82
265.03	2359.26
265.25	2349.02
265.46	2125.79
265.68	2367.45
265.89	2394.08
266.11	2111.46
266.33	2158.56
266.54	2375.64
266.76	2283.49
266.98	2179.04
267.19	2271.20
267.41	2404.32
267.62	2236.38
267.84	2062.30
268.06	2254.81
268.27	2349.02
268.49	2455.51
268.70	2226.14
268.92	2215.90
269.14	2146.27
269.35	2107.36
269.57	2170.85
269.79	2324.44
270.00	2176.99
270.22	2461.66
270.43	2076.64
270.65	2035.68
270.87	2246.62
271.08	2314.20
271.30	2273.25
271.51	2230.24
271.73	2396.12
271.95	2492.38
272.16	2215.90
272.38	2263.01
272.59	2179.04
272.81	2252.77
273.02	2172.89
273.24	2220.00
273.46	2389.98
273.67	2207.71
273.89	2105.31
274.10	2154.46
274.32	2424.80
274.54	2269.15
274.75	2256.86
274.97	2203.61
275.18	2334.68
275.40	2289.63
275.61	2176.99
275.83	2293.72
276.05	2170.85
276.26	2238.43
276.48	2254.81
276.69	2203.61
276.91	2199.52
277.12	2420.70
277.34	2330.59
277.55	2344.92
277.77	2344.92
277.99	2160.61
278.20	2086.88
278.42	2080.74
278.63	2160.61
278.85	2101.22
279.06	2127.84
279.28	2193.37
279.49	2314.20
279.71	2375.64
279.93	2260.96
280.14	2236.38
280.36	2217.95
280.57	2361.31
280.79	2275.29
281.00	2105.31
281.22	2256.86
281.43	2416.60
281.65	2013.15
281.86	2160.61
282.08	2222.05
282.29	2428.89
282.51	2103.26
282.73	2105.31
282.94	2072.54
283.16	2220.00
283.37	2310.11
283.59	2220.00
283.80	2201.57
284.02	2207.71
284.23	2244.57
284.45	2179.04
284.66	2232.29
284.88	2166.75
285.09	2174.94
285.31	2318.30
285.52	2310.11
285.74	2129.89
285.95	2252.77
286.17	2201.57
286.38	2389.98
286.60	2226.14
286.81	2174.94
287.03	2254.81
287.24	2217.95
287.46	2361.31
287.67	2193.37
287.89	2465.75
288.10	2220.00
288.32	2254.81
288.53	2375.64
288.75	2316.25
288.96	2269.15
289.18	2236.38
289.39	2248.67
289.61	2326.49
289.82	2453.47
290.04	2363.36
290.25	2131.94
290.47	2236.38
290.68	2240.48
290.90	2363.36
291.11	2035.68
291.33	2418.65
291.54	2127.84
291.76	2254.81
291.97	2289.63
292.18	2240.48
292.40	2166.75
292.61	2129.89
292.83	2473.95
293.04	2301.92
293.26	2273.25
293.47	2195.42
293.69	2111.46
293.90	2195.42
294.12	2437.08
294.33	2209.76
294.55	2187.23
294.76	2320.35
294.97	2414.56
295.19	2334.68
295.40	2258.91
295.62	2228.19
295.83	2308.06
296.05	2158.56
296.26	2332.64
296.48	2152.42
296.69	2269.15
296.90	2217.95
297.12	2248.67
297.33	2430.94
297.55	2283.49
297.76	2308.06
297.98	2269.15
298.19	2254.81
298.41	2252.77
298.62	2183.13
298.83	2308.06
299.05	2170.85
299.26	2172.89
299.48	2162.66
299.69	2308.06
299.90	2232.29
300.12	2176.99
300.33	2318.30
300.55	2273.25
300.76	2275.29
300.98	2195.42
301.19	2308.06
301.40	2217.95
301.62	2273.25
301.83	2310.11
302.05	2291.68
302.26	2193.37
302.47	2316.25
302.69	2144.22
302.90	2299.87
303.12	1992.67
303.33	2295.77
303.54	2389.98
303.76	2252.77
303.97	2299.87
304.19	2340.83
304.40	2176.99
304.61	2416.60
304.83	2379.74
305.04	2306.01
305.26	2285.53
305.47	2220.00
305.68	2291.68
305.90	2152.42
306.11	2379.74
306.33	2211.81
306.54	2170.85
306.75	2181.09
306.97	2095.07
307.18	2150.37
307.39	2111.46
307.61	2258.91
307.82	2234.33
308.04	2287.58
308.25	2215.90
308.46	2308.06
308.68	2252.77
308.89	2191.33
309.10	2338.78
309.32	2303.96
309.53	2170.85
309.74	2289.63
309.96	2222.05
310.17	2385.88
310.39	2185.18
310.60	2285.53
310.81	2236.38
311.03	2084.83
311.24	2359.26
311.45	2277.34
311.67	2371.55
311.88	2250.72
312.09	2220.00
312.31	2179.04
312.52	2203.61
312.73	2232.29
312.95	2185.18
313.16	2133.98
313.37	2330.59
313.59	2310.11
313.80	2318.30
314.01	2406.36
314.23	2164.70
314.44	2170.85
314.65	2142.18
314.87	2234.33
315.08	2168.80
315.29	2170.85
315.51	2238.43
315.72	2068.45
315.93	2340.83
316.15	2228.19
316.36	2226.14
316.57	2220.00
316.79	2301.92
317.00	2258.91
317.21	2269.15
317.43	2129.89
317.64	2263.01
317.85	2220.00
318.07	2129.89
318.28	2269.15
318.49	2359.26
318.70	2428.89
318.92	2402.27
319.13	2375.64
319.34	2437.08
319.56	2363.36
319.77	2398.17
319.98	2375.64
320.20	2308.06
320.41	2346.97
320.62	2353.12
320.83	2236.38
321.05	2467.80
321.26	2244.57
321.47	2150.37
321.69	2263.01
321.90	2121.70
322.11	2162.66
322.32	2330.59
322.54	2453.47
322.75	2197.47
322.96	2469.85
323.18	2121.70
323.39	2045.92
323.60	2183.13
323.81	2285.53
324.03	2211.81
324.24	2269.15
324.45	2267.10
324.66	2220.00
324.88	2371.55
325.09	2396.12
325.30	2220.00
325.52	2256.86
325.73	2281.44
325.94	2172.89
326.15	2158.56
326.37	2160.61
326.58	2322.40
326.79	2308.06
327.00	2181.09
327.22	2215.90
327.43	2203.61
327.64	2242.53
327.85	2293.72
328.07	2308.06
328.28	2461.66
328.49	2195.42
328.70	2250.72
328.92	2285.53
329.13	2224.09
329.34	2334.68
329.55	2353.12
329.76	2318.30
329.98	2242.53
330.19	2383.84
330.40	2275.29
330.61	2318.30
330.83	2377.69
331.04	2144.22
331.25	2258.91
331.46	2217.95
331.68	2121.70
331.89	2416.60
332.10	2285.53
332.31	2131.94
332.52	2199.52
332.74	2416.60
332.95	2050.02
333.16	2232.29
333.37	2355.16
333.58	2258.91
333.80	2213.85
334.01	2101.22
334.22	2242.53
334.43	2181.09
334.64	2160.61
334.86	2222.05
335.07	2113.50
335.28	2443.23
335.49	2109.41
335.70	2281.44
335.92	2402.27
336.13	2478.04
336.34	2293.72
336.55	2281.44
336.76	2310.11
336.98	2097.12
337.19	2176.99
337.40	2293.72
337.61	2465.75
337.82	2191.33
338.04	2263.01
338.25	2144.22
338.46	2185.18
338.67	2170.85
338.88	2176.99
339.09	2080.74
339.31	2205.66
339.52	2136.03
339.73	2109.41
339.94	2240.48
340.15	2289.63
340.36	2195.42
340.58	2236.38
340.79	2176.99
341.00	2314.20
341.21	2176.99
341.42	2365.40
341.63	2215.90
341.85	2328.54
342.06	2260.96
342.27	2164.70
342.48	2267.10
342.69	2136.03
342.90	2244.57
343.12	2334.68
343.33	2234.33
343.54	2285.53
343.75	2359.26
343.96	2205.66
344.17	2127.84
344.38	2220.00
344.60	2240.48
344.81	2244.57
345.02	2260.96
345.23	2402.27
345.44	2545.63
345.65	2285.53
345.86	2191.33
346.07	2334.68
346.29	2260.96
346.50	2228.19
346.71	2281.44
346.92	2398.17
347.13	2525.15
347.34	2199.52
347.55	2277.34
347.76	2275.29
347.98	2123.74
348.19	2234.33
348.40	2303.96
348.61	2172.89
348.82	2494.43
349.03	2281.44
349.24	2146.27
349.45	2478.04
349.66	2090.98
349.88	2217.95
350.09	2236.38
350.30	2365.40
350.51	2402.27
350.72	2277.34
350.93	2166.75
351.14	2203.61
351.35	2285.53
351.56	2273.25
351.77	2203.61
351.99	2398.17
352.20	2373.60
352.41	2326.49
352.62	2097.12
352.83	2242.53
353.04	2250.72
353.25	2144.22
353.46	2308.06
353.67	2441.18
353.88	2013.15
354.09	2183.13
354.30	2306.01
354.52	2256.86
354.73	2275.29
354.94	2154.46
355.15	2228.19
355.36	2430.94
355.57	2281.44
355.78	2230.24
355.99	2224.09
356.20	2109.41
356.41	2322.40
356.62	2234.33
356.83	2242.53
357.04	2510.81
357.25	2088.93
357.46	2220.00
357.68	2166.75
357.89	2144.22
358.10	2260.96
358.31	2193.37
358.52	2244.57
358.73	2252.77
358.94	2099.17
359.15	2269.15
359.36	2281.44
359.57	2224.09
359.78	2258.91
359.99	2320.35
360.20	2150.37
360.41	2170.85
360.62	2318.30
360.83	2281.44
361.04	2228.19
361.25	2322.40
361.46	2430.94
361.67	2299.87
361.88	2242.53
362.09	2396.12
362.30	2285.53
362.51	2138.08
362.72	2246.62
362.93	2375.64
363.14	2232.29
363.35	2318.30
363.56	2129.89
363.78	2349.02
363.99	2340.83
364.20	2125.79
364.41	2232.29
364.62	2404.32
364.83	2314.20
365.04	2197.47
365.25	2183.13
365.46	2537.43
365.67	2224.09
365.88	2234.33
366.09	2187.23
366.30	2197.47
366.51	2224.09
366.72	2240.48
366.93	2238.43
367.14	2203.61
367.35	2424.80
367.56	2357.21
367.77	2379.74
367.98	2220.00
368.18	2246.62
368.39	2318.30
368.60	2111.46
368.81	2344.92
369.02	2269.15
369.23	2187.23
369.44	2107.36
369.65	2242.53
369.86	2312.16
370.07	2344.92
370.28	2107.36
370.49	2285.53
370.70	2246.62
370.91	2095.07
371.12	2160.61
371.33	2299.87
371.54	2222.05
371.75	2346.97
371.96	2050.02
372.17	2283.49
372.38	2248.67
372.59	2226.14
372.80	2138.08
373.01	2246.62
373.22	2277.34
373.43	2193.37
373.64	2203.61
373.85	2357.21
374.06	2428.89
374.26	2340.83
374.47	2293.72
374.68	2359.26
374.89	2236.38
375.10	2242.53
375.31	2318.30
375.52	2203.61
375.73	2334.68
375.94	2113.50
376.15	2377.69
376.36	2240.48
376.57	2267.10
376.78	2133.98
376.99	2295.77
377.20	2330.59
377.40	2170.85
377.61	2445.27
377.82	2121.70
378.03	2392.03
378.24	2199.52
378.45	2215.90
378.66	2254.81
378.87	2113.50
379.08	2185.18
379.29	2252.77
379.50	2367.45
379.71	2254.81
379.91	2301.92
380.12	2179.04
380.33	2287.58
380.54	2185.18
380.75	2185.18
380.96	2203.61
381.17	2361.31
381.38	2244.57
381.59	2256.86
381.80	2195.42
382.00	2465.75
382.21	2326.49
382.42	2537.43
382.63	2514.91
382.84	2332.64
383.05	2342.88
383.26	2392.03
383.47	2324.44
383.68	2308.06
383.88	2369.50
384.09	2334.68
384.30	2424.80
384.51	2328.54
384.72	2181.09
384.93	2148.32
385.14	2299.87
385.35	2353.12
385.55	2176.99
385.76	2371.55
385.97	2228.19
386.18	2129.89
386.39	2199.52
386.60	2232.29
386.81	2228.19
387.02	2152.42
387.22	2193.37
387.43	2371.55
387.64	2351.07
387.85	2420.70
388.06	2486.23
388.27	3907.52
388.48	8130.44
388.68	11755.34
388.89	13852.46
389.10	15079.19
389.31	13754.16
389.52	10930.01
389.73	9451.38
389.93	8585.08
390.14	8062.85
390.35	7178.13
390.56	6514.59
390.77	5277.62
390.98	4071.36
391.18	3194.83
391.39	2768.85
391.60	2363.36
391.81	2377.69
392.02	2246.62
392.23	2432.99
392.43	2289.63
392.64	2400.22
392.85	2293.72
393.06	2404.32
393.27	2215.90
393.47	2179.04
393.68	2226.14
393.89	2236.38
394.10	2283.49
394.31	2174.94
394.52	2133.98
394.72	2162.66
394.93	2445.27
395.14	2228.19
395.35	2279.39
395.56	2170.85
395.76	2342.88
395.97	2224.09
396.18	2422.75
396.39	2424.80
396.60	2785.24
396.80	2562.01
397.01	2400.22
397.22	2420.70
397.43	2420.70
397.64	2224.09
397.84	2334.68
398.05	2482.14
398.26	2252.77
398.47	2357.21
398.67	2396.12
398.88	2256.86
399.09	2428.89
399.30	2203.61
399.51	2236.38
399.71	2187.23
399.92	2217.95
400.13	2217.95
400.34	2230.24
400.54	2279.39
400.75	2455.51
400.96	2353.12
401.17	2430.94
401.37	2332.64
401.58	2179.04
401.79	2238.43
402.00	2373.60
402.21	2668.50
402.41	2537.43
402.62	2525.15
402.83	2672.60
403.04	2623.45
403.24	2844.63
403.45	2488.28
403.66	2539.48
403.87	2430.94
404.07	2551.77
404.28	2494.43
404.49	2475.99
404.70	2351.07
404.90	2314.20
405.11	2287.58
405.32	2254.81
405.52	2142.18
405.73	2195.42
405.94	2236.38
406.15	2228.19
406.35	2359.26
406.56	2377.69
406.77	2303.96
406.98	2314.20
407.18	2138.08
407.39	2346.97
407.60	2211.81
407.80	2314.20
408.01	2248.67
408.22	2383.84
408.43	2174.94
408.63	2224.09
408.84	2334.68
409.05	2357.21
409.25	2119.65
409.46	2299.87
409.67	2154.46
409.88	2236.38
410.08	2228.19
410.29	2183.13
410.50	2316.25
410.70	2398.17
410.91	2170.85
411.12	2334.68
411.32	2236.38
411.53	2172.89
411.74	2334.68
411.95	2394.08
412.15	2369.50
412.36	2428.89
412.57	2332.64
412.77	2424.80
412.98	2271.20
413.19	2244.57
413.39	2267.10
413.60	2320.35
413.81	2310.11
414.01	2148.32
414.22	2301.92
414.43	2367.45
414.63	2248.67
414.84	2441.18
415.05	2242.53
415.25	2162.66
415.46	2357.21
415.67	2158.56
415.87	2238.43
416.08	2291.68
416.29	2150.37
416.49	2318.30
416.70	2209.76
416.91	2260.96
417.11	2228.19
417.32	2410.46
417.53	2318.30
417.73	2357.21
417.94	2265.05
418.15	2267.10
418.35	2281.44
418.56	2258.91
418.77	2510.81
418.97	2328.54
419.18	2195.42
419.38	2043.87
419.59	2250.72
419.80	2365.40
420.00	2199.52
420.21	2217.95
420.42	2355.16
420.62	2279.39
420.83	2150.37
421.04	2301.92
421.24	2285.53
421.45	2285.53
421.65	2275.29
421.86	2242.53
422.07	2332.64
422.27	2312.16
422.48	2220.00
422.69	2138.08
422.89	2232.29
423.10	2215.90
423.30	2129.89
423.51	2199.52
423.72	2316.25
423.92	2408.41
424.13	2113.50
424.33	2277.34
424.54	2344.92
424.75	2260.96
424.95	2410.46
425.16	2160.61
425.36	2238.43
425.57	2387.93
425.78	2263.01
425.98	2351.07
426.19	2308.06
426.39	2097.12
426.60	2246.62
426.81	2340.83
427.01	2349.02
427.22	2176.99
427.42	2107.36
427.63	2107.36
427.83	2361.31
428.04	2465.75
428.25	2353.12
428.45	2412.51
428.66	2381.79
428.86	2265.05
429.07	2217.95
429.28	2322.40
429.48	2328.54
429.69	2166.75
429.89	2271.20
430.10	2150.37
430.30	2269.15
430.51	2285.53
430.71	2115.55
430.92	2191.33
431.13	2162.66
431.33	2258.91
431.54	2316.25
431.74	2385.88
431.95	2441.18
432.15	2133.98
432.36	2211.81
432.56	2326.49
432.77	2537.43
432.98	2381.79
433.18	2273.25
433.39	2226.14
433.59	2287.58
433.80	2492.38
434.00	2430.94
434.21	2226.14
434.41	2164.70
434.62	2588.63
434.82	2154.46
435.03	2105.31
435.23	2312.16
435.44	2084.83
435.64	2211.81
435.85	2226.14
436.06	2297.82
436.26	2320.35
436.47	2240.48
436.67	2244.57
436.88	2283.49
437.08	2318.30
437.29	2334.68
437.49	2287.58
437.70	2392.03
437.90	2310.11
438.11	2461.66
438.31	2279.39
438.52	2523.10
438.72	2443.23
438.93	2555.86
439.13	2314.20
439.34	2424.80
439.54	2256.86
439.75	2349.02
439.95	2324.44
440.16	2238.43
440.36	2301.92
440.57	2310.11
440.77	2314.20
440.98	2299.87
441.18	2275.29
441.39	2209.76
441.59	2131.94
441.80	2527.19
442.00	2285.53
442.21	2381.79
442.41	2170.85
442.62	2441.18
442.82	2176.99
443.02	2289.63
443.23	2310.11
443.43	2269.15
443.64	2482.14
443.84	2148.32
444.05	2373.60
444.25	2291.68
444.46	2203.61
444.66	2291.68
444.87	2373.60
445.07	2133.98
445.28	2269.15
445.48	2392.03
445.69	2367.45
445.89	2416.60
446.09	2269.15
446.30	2504.67
446.50	2818.00
446.71	4431.80
446.91	5537.71
447.12	6305.70
447.32	6694.81
447.53	6246.30
447.73	5132.21
447.93	4534.20
448.14	4145.09
448.34	4097.99
448.55	3686.34
448.75	3600.33
448.96	3489.74
449.16	3125.20
449.36	2932.69
449.57	2627.54
449.77	2344.92
449.98	2207.71
450.18	2383.84
450.39	2277.34
450.59	2357.21
450.79	2250.72
451.00	2250.72
451.20	2400.22
451.41	2320.35
451.61	2308.06
451.81	2213.85
452.02	2181.09
452.22	2273.25
452.43	2269.15
452.63	2191.33
452.84	2228.19
453.04	2142.18
453.24	2299.87
453.45	2187.23
453.65	2203.61
453.86	2299.87
454.06	2340.83
454.26	2258.91
454.47	2078.69
454.67	2404.32
454.87	2281.44
455.08	2306.01
455.28	2406.36
455.49	2308.06
455.69	2172.89
455.89	2480.09
456.10	2383.84
456.30	2209.76
456.51	2353.12
456.71	2211.81
456.91	2258.91
457.12	2310.11
457.32	2353.12
457.52	2174.94
457.73	2363.36
457.93	2338.78
458.14	2189.28
458.34	2170.85
458.54	2170.85
458.75	2293.72
458.95	2383.84
459.15	2351.07
459.36	2310.11
459.56	2289.63
459.76	2504.67
459.97	2281.44
460.17	2226.14
460.37	2349.02
460.58	2324.44
460.78	2277.34
460.99	2287.58
461.19	2222.05
461.39	2213.85
461.60	2242.53
461.80	2285.53
462.00	2205.66
462.21	2236.38
462.41	2156.51
462.61	2156.51
462.82	2113.50
463.02	2273.25
463.22	2250.72
463.43	2324.44
463.63	2228.19
463.83	2342.88
464.04	2265.05
464.24	2215.90
464.44	2181.09
464.64	2308.06
464.85	2312.16
465.05	2260.96
465.25	2179.04
465.46	2228.19
465.66	2293.72
465.86	2244.57
466.07	2273.25
466.27	2211.81
466.47	2172.89
466.68	2170.85
466.88	2326.49
467.08	2293.72
467.29	2301.92
467.49	2336.73
467.69	2242.53
467.89	2320.35
468.10	2244.57
468.30	2265.05
468.50	2365.40
468.71	2408.41
468.91	2140.13
469.11	2400.22
469.31	2195.42
469.52	2207.71
469.72	2392.03
469.92	2400.22
470.13	2236.38
470.33	2269.15
470.53	2377.69
470.73	2564.06
470.94	3022.80
471.14	3190.74
471.34	3569.61
471.54	3323.85
471.75	3030.99
471.95	2805.72
472.15	2734.04
472.36	2717.65
472.56	2715.61
472.76	2658.26
472.96	2641.88
473.17	2605.02
473.37	2582.49
473.57	2387.93
473.77	2359.26
473.98	2248.67
474.18	2158.56
474.38	2568.15
474.58	2236.38
474.79	2228.19
474.99	2351.07
475.19	2338.78
475.39	2127.84
475.60	2373.60
475.80	2176.99
476.00	2318.30
476.20	2303.96
476.41	2297.82
476.61	2353.12
476.81	2459.61
477.01	2158.56
477.21	2445.27
477.42	2408.41
477.62	2201.57
477.82	2351.07
478.02	2174.94
478.23	2353.12
478.43	2181.09
478.63	2295.77
478.83	2277.34
479.03	2209.76
479.24	2369.50
479.44	2439.13
479.64	2166.75
479.84	2107.36
480.04	2199.52
480.25	2408.41
480.45	2203.61
480.65	2203.61
480.85	2363.36
481.06	2228.19
481.26	2351.07
481.46	2299.87
481.66	2332.64
481.86	2228.19
482.06	2377.69
482.27	2203.61
482.47	2252.77
482.67	2260.96
482.87	2236.38
483.07	2344.92
483.28	2254.81
483.48	2119.65
483.68	2209.76
483.88	2138.08
484.08	2111.46
484.29	2168.80
484.49	2269.15
484.69	2191.33
484.89	2441.18
485.09	2344.92
485.29	2295.77
485.50	2310.11
485.70	2250.72
485.90	2394.08
486.10	2252.77
486.30	2365.40
486.50	2308.06
486.71	2361.31
486.91	2367.45
487.11	2461.66
487.31	2193.37
487.51	2334.68
487.71	2174.94
487.91	2185.18
488.12	2228.19
488.32	2072.54
488.52	2193.37
488.72	2072.54
488.92	2254.81
489.12	2432.99
489.32	2357.21
489.53	2342.88
489.73	2185.18
489.93	2441.18
490.13	2187.23
490.33	2168.80
490.53	2299.87
490.73	2381.79
490.94	2095.07
491.14	2303.96
491.34	2310.11
491.54	2559.96
491.74	3162.06
491.94	3856.33
492.14	3985.35
492.34	4042.69
492.54	3721.16
492.75	3276.75
492.95	3145.68
493.15	2889.68
493.35	2977.75
493.55	2834.39
493.75	2703.32
493.95	2861.01
494.15	2588.63
494.35	2469.85
494.56	2340.83
494.76	2285.53
494.96	2277.34
495.16	2287.58
495.36	2211.81
495.56	2318.30
495.76	2248.67
495.96	2228.19
496.16	2183.13
496.36	2457.56
496.56	2269.15
496.77	2269.15
496.97	2281.44
497.17	2389.98
497.37	2166.75
497.57	2367.45
497.77	2389.98
497.97	2205.66
498.17	2295.77
498.37	2211.81
498.57	2326.49
498.77	2232.29
498.97	2406.36
499.17	2392.03
499.38	2275.29
499.58	2310.11
499.78	2375.64
499.98	2445.27
500.18	2252.77
500.38	2207.71
500.58	2449.37
500.78	2916.31
500.98	5132.21
501.18	7294.86
501.38	8691.58
501.58	9521.01
501.78	9424.75
501.98	7597.96
502.18	6545.31
502.38	5382.06
502.58	5019.57
502.78	4595.64
502.98	4435.90
503.18	4267.97
503.38	3786.69
503.59	3446.73
503.79	3284.94
503.99	2994.13
504.19	2813.91
504.39	2777.05
504.59	2844.63
504.79	2813.91
504.99	2746.33
505.19	2658.26
505.39	2408.41
505.59	2627.54
505.79	2592.73
505.99	2437.08
506.19	2289.63
506.39	2527.19
506.59	2299.87
506.79	2275.29
506.99	2369.50
507.19	2250.72
507.39	2334.68
507.59	2220.00
507.79	2146.27
507.99	2234.33
508.19	2256.86
508.39	2283.49
508.59	2291.68
508.79	2363.36
508.99	2416.60
509.19	2170.85
509.39	2377.69
509.59	2199.52
509.79	2234.33
509.99	2269.15
510.19	2340.83
510.39	2430.94
510.59	2338.78
510.79	2281.44
510.99	2138.08
511.19	2306.01
511.39	2461.66
511.59	2367.45
511.79	2416.60
511.99	2222.05
512.19	2482.14
512.38	2326.49
512.58	2211.81
512.78	2299.87
512.98	2383.84
513.18	2453.47
513.38	2095.07
513.58	2346.97
513.78	2260.96
513.98	2281.44
514.18	2232.29
514.38	2183.13
514.58	2322.40
514.78	2193.37
514.98	2240.48
515.18	2183.13
515.38	2142.18
515.58	2445.27
515.78	2179.04
515.98	2215.90
516.18	2334.68
516.38	2351.07
516.57	2244.57
516.77	2211.81
516.97	2334.68
517.17	2246.62
517.37	2023.39
517.57	2346.97
517.77	2306.01
517.97	2209.76
518.17	2273.25
518.37	2179.04
518.57	2203.61
518.77	2244.57
518.97	2238.43
519.16	2271.20
519.36	2414.56
519.56	2260.96
519.76	2267.10
519.96	2260.96
520.16	2461.66
520.36	2281.44
520.56	2488.28
520.76	2230.24
520.96	2211.81
521.16	2367.45
521.35	2326.49
521.55	2408.41
521.75	2318.30
521.95	2232.29
522.15	2222.05
522.35	2127.84
522.55	2252.77
522.75	2328.54
522.95	2254.81
523.14	2203.61
523.34	2285.53
523.54	2242.53
523.74	2342.88
523.94	2328.54
524.14	2142.18
524.34	2320.35
524.54	2410.46
524.73	2230.24
524.93	2340.83
525.13	2244.57
525.33	2129.89
525.53	2504.67
525.73	2310.11
525.93	2238.43
526.13	2240.48
526.32	2193.37
526.52	2355.16
526.72	2392.03
526.92	2213.85
527.12	2199.52
527.32	2097.12
527.52	2291.68
527.71	2351.07
527.91	2248.67
528.11	2150.37
528.31	2207.71
528.51	2142.18
528.71	2277.34
528.90	2353.12
529.10	2332.64
529.30	2338.78
529.50	2097.12
529.70	2314.20
529.90	2248.67
530.09	2236.38
530.29	2150.37
530.49	2146.27
530.69	2494.43
530.89	2211.81
531.09	2349.02
531.28	2260.96
531.48	2412.51
531.68	2332.64
531.88	2285.53
532.08	2416.60
532.28	2209.76
532.47	2275.29
532.67	2332.64
532.87	2332.64
533.07	2170.85
533.27	2310.11
533.46	2279.39
533.66	2392.03
533.86	2258.91
534.06	2236.38
534.26	2267.10
534.45	2320.35
534.65	2375.64
534.85	2322.40
535.05	2205.66
535.25	2383.84
535.44	2138.08
535.64	2351.07
535.84	2287.58
536.04	2285.53
536.24	2133.98
536.43	2203.61
536.63	2289.63
536.83	2195.42
537.03	2232.29
537.22	2166.75
537.42	2088.93
537.62	2314.20
537.82	2224.09
538.02	2375.64
538.21	2435.03
538.41	2471.90
538.61	2326.49
538.81	2207.71
539.00	2392.03
539.20	2105.31
539.40	2127.84
539.60	2244.57
539.79	2449.37
539.99	2242.53
540.19	2195.42
540.39	2263.01
540.58	2344.92
540.78	2320.35
540.98	2383.84
541.18	2377.69
541.37	2375.64
541.57	2297.82
541.77	2332.64
541.97	2160.61
542.16	2152.42
542.36	2228.19
542.56	2291.68
542.76	2490.33
542.95	2316.25
543.15	2258.91
543.35	2430.94
543.54	2121.70
543.74	2222.05
543.94	2373.60
544.14	2252.77
544.33	2301.92
544.53	2187.23
544.73	2250.72
544.93	2258.91
545.12	2299.87
545.32	2246.62
545.52	2281.44
545.71	2252.77
545.91	2258.91
546.11	2203.61
546.30	2185.18
546.50	2265.05
546.70	2322.40
546.90	2289.63
547.09	2125.79
547.29	2228.19
547.49	2318.30
547.68	2279.39
547.88	2148.32
548.08	2338.78
548.27	2801.62
548.47	2211.81
548.67	2203.61
548.87	2396.12
549.06	2207.71
549.26	2260.96
549.46	2250.72
549.65	2260.96
549.85	2248.67
550.05	2195.42
550.24	2232.29
550.44	2238.43
550.64	2281.44
550.83	2144.22
551.03	2402.27
551.23	2420.70
551.42	2322.40
551.62	2166.75
551.82	2252.77
552.01	2279.39
552.21	2424.80
552.41	2336.73
552.60	2367.45
552.80	2281.44
553.00	2183.13
553.19	2334.68
553.39	2437.08
553.59	2150.37
553.78	2373.60
553.98	2297.82
554.17	2209.76
554.37	2303.96
554.57	2387.93
554.76	2099.17
554.96	2269.15
555.16	2367.45
555.35	2244.57
555.55	2322.40
555.75	2252.77
555.94	2351.07
556.14	2164.70
556.33	2318.30
556.53	2250.72
556.73	2310.11
556.92	2275.29
557.12	2334.68
557.32	2535.39
557.51	2432.99
557.71	2291.68
557.90	2387.93
558.10	2400.22
558.30	2176.99
558.49	2174.94
558.69	2334.68
558.88	2324.44
559.08	2336.73
559.28	2160.61
559.47	2224.09
559.67	2277.34
559.86	2457.56
560.06	2250.72
560.26	2252.77
560.45	2371.55
560.65	2287.58
560.84	2392.03
561.04	2236.38
561.24	2367.45
561.43	2070.50
561.63	2400.22
561.82	2301.92
562.02	2303.96
562.22	2203.61
562.41	2156.51
562.61	2217.95
562.80	2160.61
563.00	2527.19
563.19	2308.06
563.39	2256.86
563.59	2346.97
563.78	2146.27
563.98	2121.70
564.17	2187.23
564.37	2166.75
564.56	2306.01
564.76	2185.18
564.96	2338.78
565.15	2363.36
565.35	2430.94
565.54	2244.57
565.74	2312.16
565.93	2318.30
566.13	2295.77
566.32	2295.77
566.52	2375.64
566.71	2236.38
566.91	2369.50
567.11	2289.63
567.30	2258.91
567.50	2357.21
567.69	2306.01
567.89	2242.53
568.08	2191.33
568.28	2293.72
568.47	2263.01
568.67	2224.09
568.86	2267.10
569.06	2334.68
569.25	2254.81
569.45	2160.61
569.64	2203.61
569.84	2275.29
570.04	2295.77
570.23	2209.76
570.43	2185.18
570.62	2301.92
570.82	2404.32
571.01	2105.31
571.21	2236.38
571.40	2275.29
571.60	2357.21
571.79	2316.25
571.99	2230.24
572.18	2211.81
572.38	2240.48
572.57	2234.33
572.77	2252.77
572.96	2572.25
573.16	2273.25
573.35	2211.81
573.55	2441.18
573.74	2414.56
573.94	2252.77
574.13	2256.86
574.33	2351.07
574.52	2340.83
574.71	2293.72
574.91	2351.07
575.10	2191.33
575.30	2265.05
575.49	2242.53
575.69	2201.57
575.88	2369.50
576.08	2287.58
576.27	2416.60
576.47	2234.33
576.66	2486.23
576.86	2463.71
577.05	2328.54
577.25	2346.97
577.44	2457.56
577.64	2285.53
577.83	2361.31
578.02	2244.57
578.22	2342.88
578.41	2473.95
578.61	2295.77
578.80	2166.75
579.00	2330.59
579.19	2260.96
579.39	2334.68
579.58	2369.50
579.77	2246.62
579.97	2424.80
580.16	2498.52
580.36	2398.17
580.55	2361.31
580.75	2336.73
580.94	2346.97
581.13	2471.90
581.33	2432.99
581.52	2357.21
581.72	2529.24
581.91	2398.17
582.11	2308.06
582.30	2394.08
582.49	2281.44
582.69	2463.71
582.88	2258.91
583.08	2287.58
583.27	2445.27
583.47	2353.12
583.66	2228.19
583.85	2234.33
584.05	2332.64
584.24	2306.01
584.44	2338.78
584.63	2432.99
584.82	2363.36
585.02	2494.43
585.21	2400.22
585.41	2455.51
585.60	2410.46
585.79	2539.48
585.99	2486.23
586.18	2394.08
586.37	2922.45
586.57	4648.89
586.76	13829.93
586.96	33390.08
587.15	46982.45
587.34	56650.91
587.54	61852.75
587.73	56263.85
587.93	39505.32
588.12	29994.55
588.31	24149.65
588.51	21288.64
588.70	19461.85
588.89	17483.51
589.09	15359.77
589.28	12941.11
589.47	10633.05
589.67	8337.28
589.86	6283.17
590.06	4652.98
590.25	3862.47
590.44	3274.70
590.64	2875.35
590.83	2678.74
591.02	2588.63
591.22	2473.95
591.41	2332.64
591.60	2301.92
591.80	2496.47
591.99	2252.77
592.18	2228.19
592.38	2432.99
592.57	2236.38
592.76	2357.21
592.96	2367.45
593.15	2306.01
593.34	2404.32
593.54	2215.90
593.73	2342.88
593.92	2383.84
594.12	2351.07
594.31	2312.16
594.50	2420.70
594.70	2408.41
594.89	2514.91
595.08	2095.07
595.28	2357.21
595.47	2602.97
595.66	2398.17
595.86	2226.14
596.05	2170.85
596.24	2310.11
596.43	2465.75
596.63	2449.37
596.82	2445.27
597.01	2424.80
597.21	2400.22
597.40	2340.83
597.59	2244.57
597.79	2389.98
597.98	2408.41
598.17	2269.15
598.36	2252.77
598.56	2387.93
598.75	2281.44
598.94	2308.06
599.14	2269.15
599.33	2176.99
599.52	2314.20
599.71	2254.81
599.91	2303.96
600.10	2318.30
600.29	2320.35
600.48	2346.97
600.68	2224.09
600.87	2236.38
601.06	2281.44
601.26	2291.68
601.45	2301.92
601.64	2187.23
601.83	2441.18
602.03	2226.14
602.22	2269.15
602.41	2375.64
602.60	2582.49
602.80	2340.83
602.99	2293.72
603.18	2269.15
603.37	2400.22
603.57	2301.92
603.76	2301.92
603.95	2349.02
604.14	2258.91
604.34	2176.99
604.53	2197.47
604.72	2371.55
604.91	2367.45
605.10	2349.02
605.30	2121.70
605.49	2437.08
605.68	2318.30
605.87	2355.16
606.07	2199.52
606.26	2273.25
606.45	2301.92
606.64	2324.44
606.84	2226.14
607.03	2312.16
607.22	2316.25
607.41	2220.00
607.60	2220.00
607.80	2408.41
607.99	2211.81
608.18	2330.59
608.37	2273.25
608.56	2160.61
608.76	2402.27
608.95	2484.19
609.14	2254.81
609.33	2490.33
609.52	2453.47
609.72	2351.07
609.91	2412.51
610.10	2359.26
610.29	2416.60
610.48	2383.84
610.68	2332.64
610.87	2228.19
611.06	2299.87
611.25	2287.58
611.44	2383.84
611.63	2195.42
611.83	2428.89
612.02	2152.42
612.21	2361.31
612.40	2097.12
612.59	2142.18
612.79	2123.74
612.98	2293.72
613.17	2473.95
613.36	2342.88
613.55	2383.84
613.74	2322.40
613.93	2504.67
614.13	2478.04
614.32	2506.71
614.51	2480.09
614.70	2424.80
614.89	2349.02
615.08	2408.41
615.28	2813.91
615.47	2195.42
615.66	2398.17
615.85	2346.97
616.04	2410.46
616.23	2330.59
616.42	2330.59
616.62	2306.01
616.81	2303.96
617.00	2254.81
617.19	2387.93
617.38	2211.81
617.57	2303.96
617.76	2330.59
617.95	2367.45
618.15	2260.96
618.34	2430.94
618.53	2127.84
618.72	2381.79
618.91	2375.64
619.10	2424.80
619.29	2291.68
619.48	2324.44
619.68	2199.52
619.87	2220.00
620.06	2146.27
620.25	2273.25
620.44	2211.81
620.63	2244.57
620.82	2267.10
621.01	2291.68
621.20	2271.20
621.39	2271.20
621.59	2318.30
621.78	2326.49
621.97	2189.28
622.16	2308.06
622.35	2342.88
622.54	2361.31
622.73	2420.70
622.92	2097.12
623.11	2357.21
623.30	2246.62
623.49	2324.44
623.68	2279.39
623.88	2367.45
624.07	2263.01
624.26	2269.15
624.45	2250.72
624.64	2269.15
624.83	2351.07
625.02	2226.14
625.21	2213.85
625.40	2334.68
625.59	2406.36
625.78	2220.00
625.97	2432.99
626.16	2400.22
626.35	2467.80
626.54	2349.02
626.74	2492.38
626.93	2293.72
627.12	2234.33
627.31	2367.45
627.50	2306.01
627.69	2365.40
627.88	2244.57
628.07	2232.29
628.26	2084.83
628.45	2215.90
628.64	2256.86
628.83	2299.87
629.02	2168.80
629.21	2359.26
629.40	2322.40
629.59	2209.76
629.78	2152.42
629.97	2301.92
630.16	2281.44
630.35	2185.18
630.54	2246.62
630.73	2246.62
630.92	2232.29
631.11	2158.56
631.30	2254.81
631.49	2385.88
631.68	2230.24
631.87	2349.02
632.06	2109.41
632.25	2441.18
632.44	2291.68
632.63	2248.67
632.82	2289.63
633.01	2291.68
633.20	2383.84
633.39	2269.15
633.58	2236.38
633.77	2316.25
633.96	2346.97
634.15	2383.84
634.34	2389.98
634.53	2414.56
634.72	2220.00
634.91	2025.44
635.10	2334.68
635.29	2310.11
635.48	2301.92
635.67	2203.61
635.86	2127.84
636.05	2400.22
636.24	2285.53
636.43	2220.00
636.62	2260.96
636.81	2062.30
637.00	2258.91
637.19	2244.57
637.38	2324.44
637.57	2252.77
637.76	2328.54
637.95	2394.08
638.14	2306.01
638.33	2349.02
638.52	2342.88
638.71	2170.85
638.89	2228.19
639.08	2478.04
639.27	2455.51
639.46	2502.62
639.65	2813.91
639.84	2875.35
640.03	3057.62
640.22	2932.69
640.41	2889.68
640.60	2521.05
640.79	2572.25
640.98	2482.14
641.17	2506.71
641.36	2432.99
641.55	2471.90
641.74	2199.52
641.92	2281.44
642.11	2228.19
642.30	2195.42
642.49	2193.37
642.68	2189.28
642.87	2291.68
643.06	2332.64
643.25	2185.18
643.44	2179.04
643.63	2306.01
643.82	2322.40
644.00	2215.90
644.19	2215.90
644.38	2062.30
644.57	2269.15
644.76	2267.10
644.95	2295.77
645.14	2289.63
645.33	2277.34
645.52	2283.49
645.71	2103.26
645.89	2136.03
646.08	2248.67
646.27	2232.29
646.46	2377.69
646.65	2109.41
646.84	2295.77
647.03	2154.46
647.22	2310.11
647.40	2303.96
647.59	2207.71
647.78	2127.84
647.97	2119.65
648.16	2203.61
648.35	2394.08
648.54	2416.60
648.73	2203.61
648.91	2320.35
649.10	2320.35
649.29	2240.48
649.48	2185.18
649.67	2308.06
649.86	2346.97
650.05	2306.01
650.23	2416.60
650.42	2322.40
650.61	2521.05
650.80	2457.56
650.99	2564.06
651.18	2359.26
651.36	2457.56
651.55	2228.19
651.74	2301.92
651.93	2301.92
652.12	2295.77
652.31	2217.95
652.49	2271.20
652.68	2326.49
652.87	2451.42
653.06	2351.07
653.25	2562.01
653.44	2293.72
653.62	2502.62
653.81	2277.34
654.00	2285.53
654.19	2336.73
654.38	2533.34
654.56	2332.64
654.75	2260.96
654.94	2422.75
655.13	2271.20
655.32	2211.81
655.51	2318.30
655.69	2170.85
655.88	2303.96
656.07	2138.08
656.26	2293.72
656.45	2162.66
656.63	2269.15
656.82	2224.09
657.01	2422.75
657.20	2191.33
657.38	2361.31
657.57	2185.18
657.76	2047.97
657.95	2275.29
658.14	2289.63
658.32	2318.30
658.51	2138.08
658.70	2299.87
658.89	2254.81
659.08	2301.92
659.26	2392.03
659.45	2193.37
659.64	2326.49
659.83	2289.63
660.01	2617.30
660.20	2355.16
660.39	2441.18
660.58	2084.83
660.76	2357.21
660.95	2148.32
661.14	2254.81
661.33	2150.37
661.51	2228.19
661.70	2238.43
661.89	2318.30
662.08	2183.13
662.26	2099.17
662.45	2158.56
662.64	2430.94
662.83	2355.16
663.01	2133.98
663.20	2236.38
663.39	2293.72
663.58	2209.76
663.76	2258.91
663.95	2277.34
664.14	2172.89
664.32	2170.85
664.51	2172.89
664.70	2144.22
664.89	2310.11
665.07	2129.89
665.26	2252.77
665.45	2144.22
665.64	2373.60
665.82	2224.09
666.01	2295.77
666.20	2144.22
666.38	2400.22
666.57	2451.42
666.76	3432.40
666.95	8236.93
667.13	16320.26
667.32	21282.49
667.51	24776.33
667.69	26472.04
667.88	24467.08
668.07	17266.42
668.25	14077.74
668.44	11550.54
668.63	9801.58
668.81	8761.21
669.00	7739.27
669.19	6897.56
669.38	6037.41
669.56	5156.79
669.75	4177.86
669.94	3698.63
670.12	3051.47
670.31	2768.85
670.50	2674.65
670.68	2535.39
670.87	2478.04
671.06	2299.87
671.24	2342.88
671.43	2527.19
671.62	2373.60
671.80	2277.34
671.99	2326.49
672.18	2310.11
672.36	2361.31
672.55	2338.78
672.74	2275.29
672.92	2252.77
673.11	2349.02
673.29	2136.03
673.48	2316.25
673.67	2238.43
673.85	2406.36
674.04	2318.30
674.23	2260.96
674.41	2369.50
674.60	2181.09
674.79	2086.88
674.97	2179.04
675.16	2373.60
675.34	2340.83
675.53	2244.57
675.72	2273.25
675.90	2435.03
676.09	2252.77
676.28	2234.33
676.46	2097.12
676.65	2383.84
676.83	2109.41
677.02	2310.11
677.21	2277.34
677.39	2277.34
677.58	2181.09
677.77	2203.61
677.95	2152.42
678.14	2328.54
678.32	2252.77
678.51	2185.18
678.70	2449.37
678.88	2265.05
679.07	2328.54
679.25	2256.86
679.44	2215.90
679.63	2123.74
679.81	2275.29
680.00	2373.60
680.18	2260.96
680.37	2381.79
680.55	2283.49
680.74	2181.09
680.93	2136.03
681.11	2340.83
681.30	2248.67
681.48	2287.58
681.67	2254.81
681.85	2185.18
682.04	2203.61
682.23	2306.01
682.41	2291.68
682.60	2211.81
682.78	2265.05
682.97	2136.03
683.15	2263.01
683.34	2281.44
683.53	2392.03
683.71	2107.36
683.90	2416.60
684.08	2363.36
684.27	2228.19
684.45	2265.05
684.64	2367.45
684.82	2299.87
685.01	2367.45
685.19	2244.57
685.38	2383.84
685.57	2248.67
685.75	2174.94
685.94	2213.85
686.12	2238.43
686.31	2260.96
686.49	2398.17
686.68	2062.30
686.86	2295.77
687.05	2195.42
687.23	2383.84
687.42	2109.41
687.60	2088.93
687.79	2308.06
687.97	2396.12
688.16	2318.30
688.34	2389.98
688.53	2113.50
688.71	2295.77
688.90	2453.47
689.08	2228.19
689.27	2228.19
689.45	2414.56
689.64	2269.15
689.82	2326.49
690.01	2340.83
690.19	2279.39
690.38	2242.53
690.56	2432.99
690.75	2125.79
690.93	2148.32
691.12	2197.47
691.30	2283.49
691.49	2260.96
691.67	2215.90
691.86	2514.91
692.04	2224.09
692.23	2242.53
692.41	2269.15
692.60	2551.77
692.78	2422.75
692.97	2312.16
693.15	2387.93
693.34	2416.60
693.52	2430.94
693.71	2306.01
693.89	2269.15
694.08	2076.64
694.26	2267.10
694.44	2338.78
694.63	2357.21
694.81	2170.85
695.00	2228.19
695.18	2389.98
695.37	2547.67
695.55	2295.77
695.74	2291.68
695.92	2146.27
696.10	2437.08
696.29	2113.50
696.47	2172.89
696.66	2162.66
696.84	2174.94
697.03	2226.14
697.21	2457.56
697.40	3350.48
697.58	2338.78
697.76	2209.76
697.95	2166.75
698.13	2201.57
698.32	2226.14
698.50	2273.25
698.68	2310.11
698.87	2291.68
699.05	2392.03
699.24	2273.25
699.42	2140.13
699.61	2306.01
699.79	2289.63
699.97	2256.86
700.16	2129.89
700.34	2121.70
700.53	2283.49
700.71	2400.22
700.89	2351.07
701.08	2179.04
701.26	2357.21
701.45	2809.81
701.63	2211.81
701.81	2170.85
702.00	2242.53
702.18	2281.44
702.37	2279.39
702.55	2521.05
702.73	2519.00
702.92	2398.17
703.10	2578.39
703.28	2553.82
703.47	2291.68
703.65	2430.94
703.84	2428.89
704.02	2318.30
704.20	2461.66
704.39	2263.01
704.57	2260.96
704.75	2389.98
704.94	2340.83
705.12	2334.68
705.30	2531.29
705.49	4405.18
705.67	10254.18
705.86	18265.83
706.04	21671.61
706.22	24694.41
706.41	25603.71
706.59	21591.73
706.77	15376.15
706.96	12922.68
707.14	11255.64
707.32	9918.31
707.51	8828.79
707.69	7354.26
707.87	5836.71
708.06	4825.01
708.24	3954.63
708.42	3184.59
708.61	3076.05
708.79	2500.57
708.97	2445.27
709.16	2367.45
709.34	2316.25
709.52	2271.20
709.71	2275.29
709.89	2359.26
710.07	2146.27
710.26	2174.94
710.44	2289.63
710.62	2359.26
710.80	2297.82
710.99	2314.20
711.17	2367.45
711.35	2193.37
711.54	2256.86
711.72	2432.99
711.90	2310.11
712.09	2293.72
712.27	2230.24
712.45	2371.55
712.63	2127.84
712.82	2279.39
713.00	2271.20
713.18	2289.63
713.37	2351.07
713.55	2328.54
713.73	2285.53
713.91	2404.32
714.10	2258.91
714.28	2273.25
714.46	2351.07
714.65	2220.00
714.83	2220.00
715.01	2258.91
715.19	2273.25
715.38	2144.22
715.56	2232.29
715.74	2220.00
715.92	2191.33
716.11	2408.41
716.29	2052.06
716.47	2213.85
716.65	2279.39
716.84	2088.93
717.02	2306.01
717.20	2107.36
717.38	2232.29
717.57	2314.20
717.75	2234.33
717.93	2234.33
718.11	2330.59
718.30	2183.13
718.48	2254.81
718.66	2359.26
718.84	2340.83
719.03	2273.25
719.21	2164.70
719.39	2428.89
719.57	2351.07
719.75	2357.21
719.94	2144.22
720.12	2224.09
720.30	2193.37
720.48	2381.79
720.67	2176.99
720.85	2203.61
721.03	2195.42
721.21	2162.66
721.39	2428.89
721.58	2320.35
721.76	2277.34
721.94	2346.97
722.12	2297.82
722.30	2453.47
722.49	2183.13
722.67	2222.05
722.85	2308.06
723.03	2076.64
723.21	2176.99
723.40	2185.18
723.58	2392.03
723.76	2371.55
723.94	2301.92
724.12	2328.54
724.30	2439.13
724.49	2357.21
724.67	2224.09
724.85	2334.68
725.03	2160.61
725.21	2344.92
725.40	2453.47
725.58	2109.41
725.76	2332.64
725.94	2275.29
726.12	2168.80
726.30	2201.57
726.49	2281.44
726.67	2269.15
726.85	2349.02
727.03	2531.29
727.21	3629.00
727.39	5035.96
727.57	5918.63
727.76	6449.05
727.94	6780.82
728.12	6197.15
728.30	5154.74
728.48	4427.71
728.66	4085.70
728.84	3815.37
729.03	3317.71
729.21	2977.75
729.39	2723.80
729.57	2441.18
729.75	2418.65
729.93	2392.03
730.11	2220.00
730.30	2252.77
730.48	2326.49
730.66	2387.93
730.84	2273.25
731.02	2285.53
731.20	2220.00
731.38	2203.61
731.56	2105.31
731.74	2138.08
731.93	2283.49
732.11	2209.76
732.29	2224.09
732.47	2310.11
732.65	2301.92
732.83	2441.18
733.01	2267.10
733.19	2187.23
733.37	2310.11
733.56	2258.91
733.74	2267.10
733.92	2432.99
734.10	2236.38
734.28	2326.49
734.46	2123.74
734.64	2185.18
734.82	2195.42
735.00	2176.99
735.18	2224.09
735.36	2174.94
735.54	2281.44
735.73	2244.57
735.91	2289.63
736.09	2338.78
736.27	2236.38
736.45	2322.40
736.63	2064.35
736.81	2211.81
736.99	2385.88
737.17	2326.49
737.35	2258.91
737.53	2271.20
737.71	2207.71
737.89	2379.74
738.07	2144.22
738.25	2119.65
738.43	2142.18
738.61	2240.48
738.80	2066.40
738.98	2228.19
739.16	2220.00
739.34	2168.80
739.52	2514.91
739.70	2193.37
739.88	2234.33
740.06	2375.64
740.24	2101.22
740.42	2361.31
740.60	2074.59
740.78	2187.23
740.96	2111.46
741.14	2146.27
741.32	2318.30
741.50	2088.93
741.68	2506.71
741.86	2359.26
742.04	2140.13
742.22	2064.35
742.40	2238.43
742.58	2326.49
742.76	2213.85
742.94	2365.40
743.12	2117.60
743.30	2154.46
743.48	2359.26
743.66	2236.38
743.84	2252.77
744.02	2258.91
744.20	2211.81
744.38	2138.08
744.56	2144.22
744.74	2359.26
744.92	2371.55
745.10	2357.21
745.28	2281.44
745.46	2424.80
745.64	2271.20
745.82	2271.20
746.00	2277.34
746.18	2293.72
746.36	2222.05
746.54	2258.91
746.72	2281.44
746.90	2203.61
747.08	2381.79
747.26	2281.44
747.44	2404.32
747.62	2275.29
747.80	2318.30
747.98	2269.15
748.15	2279.39
748.33	2523.10
748.51	2338.78
748.69	2338.78
748.87	2174.94
749.05	2277.34
749.23	2187.23
749.41	2277.34
749.59	2250.72
749.77	2314.20
749.95	2269.15
750.13	2220.00
750.31	2273.25
750.49	2281.44
750.67	2377.69
750.85	2299.87
751.03	2299.87
751.20	2445.27
751.38	2293.72
751.56	2297.82
751.74	2258.91
751.92	2252.77
752.10	2158.56
752.28	2389.98
752.46	2166.75
752.64	2179.04
752.82	2293.72
753.00	2355.16
753.18	2179.04
753.35	2150.37
753.53	2293.72
753.71	2220.00
753.89	2279.39
754.07	2324.44
754.25	2435.03
754.43	2269.15
754.61	2140.13
754.79	2285.53
754.97	2260.96
755.14	2432.99
755.32	2176.99
755.50	2308.06
755.68	2277.34
755.86	2211.81
756.04	2234.33
756.22	2050.02
756.40	2357.21
756.57	2392.03
756.75	2217.95
756.93	2375.64
757.11	2287.58
757.29	2129.89
757.47	2154.46
757.65	2123.74
757.82	2093.02
758.00	2201.57
758.18	2220.00
758.36	2258.91
758.54	2383.84
758.72	2113.50
758.90	2375.64
759.07	2285.53
759.25	2179.04
759.43	2322.40
759.61	2123.74
759.79	3074.00
759.97	2318.30
760.15	2136.03
760.32	2181.09
760.50	2299.87
760.68	2408.41
760.86	2127.84
761.04	2357.21
761.22	2338.78
761.39	2287.58
761.57	2285.53
761.75	2187.23
761.93	2273.25
762.11	2293.72
762.28	2195.42
762.46	2093.02
762.64	2293.72
762.82	2119.65
763.00	2236.38
763.18	2402.27
763.35	2144.22
763.53	2346.97
763.71	2246.62
763.89	2195.42
764.07	2250.72
764.24	2269.15
764.42	2402.27
764.60	2136.03
764.78	2260.96
764.96	2346.97
765.13	2349.02
765.31	2174.94
765.49	2322.40
765.67	2174.94
765.84	2170.85
766.02	2170.85
766.20	2129.89
766.38	2236.38
766.56	2318.30
766.73	2287.58
766.91	2203.61
767.09	2279.39
767.27	2336.73
767.44	2107.36
767.62	2342.88
767.80	2310.11
767.98	2234.33
768.15	2207.71
768.33	2392.03
768.51	2392.03
768.69	2396.12
768.87	2252.77
769.04	2260.96
769.22	2488.28
769.40	2402.27
769.58	2494.43
769.75	2357.21
769.93	2381.79
770.11	2158.56
770.28	2111.46
770.46	2326.49
770.64	2232.29
770.82	2220.00
770.99	2197.47
771.17	2381.79
771.35	2260.96
771.53	2281.44
771.70	2260.96
771.88	2297.82
772.06	2314.20
772.23	2236.38
772.41	2308.06
772.59	2179.04
772.77	2160.61
772.94	2217.95
773.12	2338.78
773.30	2222.05
773.47	2230.24
773.65	2172.89
773.83	2324.44
774.01	2285.53
774.18	2035.68
774.36	2238.43
774.54	2119.65
774.71	2277.34
774.89	2113.50
775.07	2154.46
775.24	2166.75
775.42	2271.20
775.60	2422.75
775.78	2168.80
775.95	2062.30
776.13	2138.08
776.31	2097.12
776.48	2242.53
776.66	2385.88
776.84	2258.91
777.01	2246.62
777.19	2144.22
777.37	2158.56
777.54	2258.91
777.72	2334.68
777.90	2316.25
778.07	2236.38
778.25	2478.04
778.43	2385.88
778.60	2215.90
778.78	2277.34
778.96	2338.78
779.13	2088.93
779.31	2428.89
779.49	2256.86
779.66	2351.07
779.84	2238.43
780.01	2176.99
780.19	2101.22
780.37	2342.88
780.54	2297.82
780.72	2078.69
780.90	2232.29
781.07	2326.49
781.25	2228.19
781.43	2367.45
781.60	2203.61
781.78	2318.30
781.95	2336.73
782.13	2187.23
782.31	2195.42
782.48	2185.18
782.66	2191.33
782.83	2334.68
783.01	2281.44
783.19	2437.08
783.36	2248.67
783.54	2222.05
783.72	2228.19
783.89	2176.99
784.07	2271.20
784.24	2234.33
784.42	2346.97
784.60	2269.15
784.77	2326.49
784.95	2025.44
785.12	2250.72
785.30	2224.09
785.47	2154.46
785.65	2138.08
785.83	2211.81
786.00	2211.81
786.18	2168.80
786.35	2154.46
786.53	2138.08
786.71	2408.41
786.88	2277.34
787.06	2367.45
787.23	2236.38
787.41	2144.22
787.58	2256.86
787.76	2187.23
787.94	2248.67
788.11	2287.58
788.29	2146.27
788.46	2240.48
788.64	2050.02
788.81	2183.13
788.99	2240.48
789.16	2109.41
789.34	2256.86
789.52	2144.22
789.69	2185.18
789.87	2072.54
790.04	2176.99
790.22	2291.68
790.39	2447.32
790.57	2222.05
790.74	2138.08
790.92	2336.73
791.09	2072.54
791.27	2277.34
791.44	2314.20
791.62	2199.52
791.79	2342.88
791.97	2232.29
792.15	2533.34
792.32	2332.64
792.50	2404.32
792.67	2473.95
792.85	2398.17
793.02	2220.00
793.20	2197.47
793.37	2111.46
793.55	2193.37
793.72	2101.22
793.90	2414.56
794.07	2162.66
794.25	2146.27
794.42	2244.57
794.60	2258.91
794.77	2220.00
794.95	2392.03
795.12	2285.53
795.30	2236.38
795.47	2033.63
795.65	2498.52
795.82	2316.25
796.00	2142.18
796.17	2273.25
796.34	2176.99
796.52	2258.91
796.69	2367.45
796.87	2301.92
797.04	2291.68
797.22	2367.45
797.39	2285.53
797.57	2316.25
797.74	2244.57
797.92	2228.19
798.09	2185.18
798.27	2349.02
798.44	2269.15
798.62	2093.02
798.79	2269.15
798.96	2281.44
799.14	2303.96
799.31	2529.24
799.49	2308.06
799.66	2142.18
799.84	2269.15
800.01	2113.50
800.19	2295.77
800.36	2068.45
800.53	2324.44
800.71	2277.34
800.88	2392.03
801.06	2201.57
801.23	2181.09
801.41	2234.33
801.58	2197.47
801.75	2193.37
801.93	2310.11
802.10	2310.11
802.28	2160.61
802.45	2146.27
802.63	2310.11
802.80	2367.45
802.97	2174.94
803.15	2220.00
803.32	2162.66
803.50	2220.00
803.67	2101.22
803.84	2146.27
804.02	2224.09
804.19	2240.48
804.37	2054.11
804.54	2121.70
804.71	2211.81
804.89	2248.67
805.06	2166.75
805.24	2269.15
805.41	2138.08
805.58	2170.85
805.76	2461.66
805.93	2248.67
806.10	2334.68
806.28	2232.29
806.45	2283.49
806.63	2351.07
806.80	2330.59
806.97	2260.96
807.15	2236.38
807.32	2217.95
807.49	2246.62
807.67	2097.12
807.84	2154.46
808.01	2099.17
808.19	2432.99
808.36	2539.48
808.54	2185.18
808.71	2174.94
808.88	2228.19
809.06	2336.73
809.23	2439.13
809.40	2117.60
809.58	2389.98
809.75	2170.85
809.92	2146.27
810.10	2455.51
810.27	2211.81
810.44	2297.82
810.62	2351.07
810.79	2271.20
810.96	2146.27
811.14	2189.28
811.31	2248.67
811.48	2320.35
811.66	2234.33
811.83	2301.92
812.00	2324.44
812.18	2312.16
812.35	2428.89
812.52	2301.92
812.69	2113.50
812.87	2246.62
813.04	2170.85
813.21	2248.67
813.39	2240.48
813.56	2133.98
813.73	2293.72
813.91	2164.70
814.08	2238.43
814.25	2193.37
814.42	2144.22
814.60	2228.19
814.77	2185.18
814.94	2334.68
815.12	2281.44
815.29	2357.21
815.46	2125.79
815.63	2217.95
815.81	2211.81
815.98	2252.77
816.15	2240.48
816.33	2215.90
816.50	2256.86
816.67	2232.29
816.84	2265.05
817.02	2203.61
817.19	2179.04
817.36	2244.57
817.53	2392.03
817.71	2154.46
817.88	2267.10
818.05	2191.33
818.22	2191.33
818.40	2432.99
818.57	2252.77
818.74	2314.20
818.91	2205.66
819.09	2258.91
819.26	2336.73
819.43	2176.99
819.60	2131.94
819.78	2330.59
819.95	2334.68
820.12	2187.23
820.29	2346.97
820.47	2267.10
820.64	2093.02
820.81	2179.04
820.98	2105.31
821.15	2195.42
821.33	2291.68
821.50	2105.31
821.67	2207.71
821.84	2168.80
822.02	2260.96
822.19	2346.97
822.36	2154.46
822.53	2211.81
822.70	2113.50
822.88	2207.71
823.05	2471.90
823.22	2215.90
823.39	2295.77
823.56	2191.33
823.74	2387.93
823.91	2183.13
824.08	2138.08
824.25	2156.51
824.42	2432.99
824.60	2150.37
824.77	2242.53
824.94	2252.77
825.11	2252.77
825.28	2047.97
825.45	2267.10
825.63	2228.19
825.80	2209.76
825.97	2215.90
826.14	2324.44
826.31	2144.22
826.48	2287.58
826.66	2170.85
826.83	2183.13
827.00	2246.62
827.17	2125.79
827.34	2236.38
827.51	2193.37
827.69	2240.48
827.86	2088.93
828.03	2269.15
828.20	2269.15
828.37	2166.75
828.54	2265.05
828.71	2191.33
828.89	2400.22
829.06	2226.14
829.23	2359.26
829.40	2226.14
829.57	2209.76
829.74	2363.36
829.91	2215.90
830.09	2166.75
830.26	2392.03
830.43	2396.12
830.60	2265.05
830.77	2265.05
830.94	2363.36
831.11	2379.74
831.28	2185.18
831.46	2367.45
831.63	2209.76
831.80	2269.15
831.97	2197.47
832.14	2166.75
832.31	2228.19
832.48	2277.34
832.65	2293.72
832.82	2228.19
832.99	2312.16
833.17	2125.79
833.34	2363.36
833.51	2295.77
833.68	2127.84
833.85	2383.84
834.02	2166.75
834.19	2150.37
834.36	2207.71
834.53	2187.23
834.70	2383.84
834.87	2334.68
835.04	2228.19
835.22	2158.56
835.39	2199.52
835.56	2129.89
835.73	2260.96
835.90	2334.68
836.07	2185.18
836.24	2248.67
836.41	2215.90
836.58	2199.52
836.75	2379.74
836.92	2285.53
837.09	2211.81
837.26	2383.84
837.43	2379.74
837.60	2207.71
837.77	2271.20
837.94	2273.25
838.12	2437.08
838.29	2242.53
838.46	2142.18
838.63	2160.61
838.80	2398.17
838.97	2359.26
839.14	2207.71
839.31	2289.63
839.48	2349.02
839.65	2220.00
839.82	2314.20
839.99	2273.25
840.16	2265.05
840.33	2125.79
840.50	2230.24
840.67	2193.37
840.84	2027.49
841.01	2211.81
841.18	2140.13
841.35	2252.77
841.52	2301.92
841.69	2367.45
841.86	2275.29
842.03	2226.14
842.20	2346.97
842.37	2213.85
842.54	2162.66
842.71	2260.96
842.88	2185.18
843.05	2269.15
843.22	2156.51
843.39	2314.20
843.56	2189.28
843.73	2185.18
843.90	2258.91
844.07	2269.15
844.24	2349.02
844.41	2320.35
844.58	2256.86
844.75	2203.61
844.92	2297.82
845.09	2252.77
845.26	2113.50
845.43	2324.44
845.60	2277.34
845.77	2289.63
845.94	2209.76
846.10	2340.83
846.27	2076.64
846.44	2156.51
846.61	2107.36
846.78	2285.53
846.95	2314.20
847.12	2215.90
847.29	2146.27
847.46	2187.23
847.63	2291.68
847.80	2150.37
847.97	2181.09
848.14	2537.43
848.31	2242.53
848.48	2129.89
848.65	2265.05
848.82	2193.37
848.98	2473.95
849.15	2248.67
849.32	2269.15
849.49	2318.30
849.66	2191.33
849.83	2207.71
850.00	2078.69
850.17	2295.77
850.34	2176.99
850.51	2179.04
850.68	2228.19
850.85	2453.47
851.01	2222.05
851.18	2230.24
851.35	2179.04
851.52	2316.25
851.69	2451.42
851.86	2133.98
852.03	2217.95
852.20	2244.57
852.37	2211.81
852.53	2078.69
852.70	2158.56
852.87	2205.66
853.04	2342.88
853.21	2193.37
853.38	2297.82
853.55	2404.32
853.72	2344.92
853.89	2105.31
854.05	2111.46
854.22	2252.77
854.39	2207.71
854.56	2240.48
854.73	2336.73
854.90	2166.75
855.07	2310.11
855.23	2113.50
855.40	2201.57
855.57	2220.00
855.74	2037.73
855.91	2359.26
856.08	2086.88
856.25	2123.74
856.41	2246.62
856.58	2236.38
856.75	2193.37
856.92	2154.46
857.09	2293.72
857.26	2103.26
857.42	2185.18
857.59	2351.07
857.76	2203.61
857.93	2217.95
858.10	2289.63
858.27	2088.93
858.43	2265.05
858.60	2160.61
858.77	1988.58
858.94	2213.85
859.11	2359.26
859.27	2189.28
859.44	2172.89
859.61	2406.36
859.78	2342.88
859.95	2164.70
860.12	2158.56
860.28	2467.80
860.45	2424.80
860.62	2181.09
860.79	2310.11
860.95	2174.94
861.12	2154.46
861.29	2189.28
861.46	2197.47
861.63	2222.05
861.79	2306.01
861.96	2222.05
862.13	2150.37
862.30	2340.83
862.47	2201.57
862.63	2136.03
862.80	2252.77
862.97	2336.73
863.14	2293.72
863.30	2199.52
863.47	2230.24
863.64	2369.50
863.81	2279.39
863.97	2211.81
864.14	2252.77
864.31	2179.04
864.48	2285.53
864.65	2215.90
864.81	2285.53
864.98	2312.16
865.15	2361.31
865.32	2295.77
865.48	2256.86
865.65	2385.88
865.82	2244.57
865.98	2277.34
866.15	2285.53
866.32	2267.10
866.49	2252.77
866.65	2293.72
866.82	2119.65
866.99	2273.25
867.16	2179.04
867.32	2168.80
867.49	2199.52
867.66	2203.61
867.83	2220.00
867.99	2062.30
868.16	2172.89
868.33	2117.60
868.49	2265.05
868.66	2154.46
868.83	2365.40
868.99	2273.25
869.16	2211.81
869.33	2269.15
869.50	2209.76
869.66	2189.28
869.83	2318.30
870.00	2109.41
870.16	2260.96
870.33	2285.53
870.50	2336.73
870.66	2195.42
870.83	2211.81
871.00	2281.44
871.17	2258.91
871.33	2277.34
871.50	2119.65
871.67	2207.71
871.83	2242.53
872.00	2289.63
872.17	2222.05
872.33	2465.75
872.50	2301.92
872.67	2201.57
872.83	2250.72
873.00	2310.11
873.17	2201.57
873.33	2301.92
873.50	2220.00
873.67	2211.81
873.83	2226.14
874.00	2195.42
874.16	2295.77
874.33	2246.62
874.50	2103.26
874.66	2209.76
874.83	2248.67
875.00	2297.82
875.16	2367.45
875.33	2287.58
875.50	1974.24
875.66	2187.23
875.83	2291.68
875.99	2279.39
876.16	2252.77
876.33	2111.46
876.49	2297.82
876.66	2291.68
876.83	2211.81
876.99	2033.63
877.16	2297.82
877.32	2164.70
877.49	2215.90
877.66	2340.83
877.82	2379.74
877.99	2236.38
878.15	2346.97
878.32	2279.39
878.49	2232.29
878.65	2201.57
878.82	2359.26
878.98	2277.34
879.15	2412.51
879.32	2353.12
879.48	2248.67
879.65	2205.66
879.81	2146.27
879.98	2187.23
880.15	2148.32
880.31	2353.12
880.48	2133.98
880.64	2295.77
880.81	2211.81
880.97	2269.15
881.14	2349.02
881.31	2146.27
881.47	2389.98
881.64	2236.38
881.80	2099.17
881.97	2228.19
882.13	2183.13
882.30	2136.03
882.47	2193.37
882.63	2176.99
882.80	2162.66
882.96	2199.52
883.13	2420.70
883.29	2164.70
883.46	2238.43
883.62	2510.81
883.79	2291.68
883.95	2293.72
884.12	2195.42
884.29	2312.16
884.45	2240.48
884.62	2291.68
884.78	2131.94
884.95	2342.88
885.11	2244.57
885.28	2301.92
885.44	2088.93
885.61	2326.49
885.77	2412.51
885.94	2207.71
886.10	2187.23
886.27	2260.96
886.43	2336.73
886.60	2363.36
886.76	2162.66
886.93	2217.95
887.09	2211.81
887.26	2072.54
887.42	2228.19
887.59	2351.07
887.75	2482.14
887.92	2314.20
888.08	2287.58
888.25	2441.18
888.41	2324.44
888.58	2289.63
888.74	2154.46
888.91	2185.18
>>>>>End Processed Spectral Data<<<<<
