SpectraSuite Data File
++++++++++++++++++++++++++++++++++++
Date: Thu May 05 13:21:18 CEST 2016
User: root
Dark Spectrum Present: No
Reference Spectrum Present: No
Number of Sampled Component Spectra: 1
Spectrometers: USB4C02835
Integration Time (usec): 100000 (USB4C02835)
Spectra Averaged: 1 (USB4C02835)
Boxcar Smoothing: 0 (USB4C02835)
Correct for Electrical Dark: No (USB4C02835)
Strobe/Lamp Enabled: No (USB4C02835)
Correct for Detector Non-linearity: No (USB4C02835)
Correct for Stray Light: No (USB4C02835)
Number of Pixels in Processed Spectrum: 3648
>>>>>Begin Processed Spectral Data<<<<<
177.47	1703.91
177.69	1703.91
177.91	1703.91
178.13	1775.59
178.36	1867.75
178.58	2119.65
178.80	2209.76
179.02	2140.13
179.24	2154.46
179.46	2127.84
179.68	2222.05
179.90	2252.77
180.13	2281.44
180.35	2037.73
180.57	2211.81
180.79	2330.59
181.01	2267.10
181.23	2211.81
181.45	2344.92
181.67	2285.53
181.90	2238.43
182.12	2234.33
182.34	2029.54
182.56	2299.87
182.78	2277.34
183.00	2088.93
183.22	2174.94
183.44	2086.88
183.66	2543.58
183.89	2269.15
184.11	2183.13
184.33	2279.39
184.55	2369.50
184.77	2183.13
184.99	2205.66
185.21	2203.61
185.43	2443.23
185.65	2224.09
185.87	2215.90
186.10	2453.47
186.32	2435.03
186.54	2230.24
186.76	2252.77
186.98	2303.96
187.20	2269.15
187.42	2162.66
187.64	2150.37
187.86	2306.01
188.08	2373.60
188.30	2160.61
188.52	2138.08
188.75	2324.44
188.97	2453.47
189.19	2054.11
189.41	2154.46
189.63	2283.49
189.85	2185.18
190.07	2072.54
190.29	2101.22
190.51	2222.05
190.73	2160.61
190.95	2260.96
191.17	2238.43
191.39	2152.42
191.61	2232.29
191.84	2195.42
192.06	2267.10
192.28	2072.54
192.50	2568.15
192.72	2285.53
192.94	2187.23
193.16	2385.88
193.38	2289.63
193.60	2101.22
193.82	2179.04
194.04	2310.11
194.26	2299.87
194.48	2224.09
194.70	2142.18
194.92	2168.80
195.14	2375.64
195.36	2127.84
195.58	2205.66
195.80	2273.25
196.02	2133.98
196.24	2170.85
196.46	2267.10
196.69	2318.30
196.91	2510.81
197.13	2113.50
197.35	2099.17
197.57	2465.75
197.79	2342.88
198.01	2193.37
198.23	2181.09
198.45	2340.83
198.67	2127.84
198.89	2097.12
199.11	2263.01
199.33	2179.04
199.55	1974.24
199.77	2168.80
199.99	2332.64
200.21	2201.57
200.43	2250.72
200.65	2062.30
200.87	2017.25
201.09	2293.72
201.31	2209.76
201.53	2217.95
201.75	2207.71
201.97	2252.77
202.19	2328.54
202.41	2211.81
202.63	2340.83
202.85	2357.21
203.07	2318.30
203.29	2217.95
203.51	2111.46
203.73	2211.81
203.95	2564.06
204.17	2146.27
204.39	2224.09
204.61	2228.19
204.83	2176.99
205.05	2283.49
205.27	2250.72
205.49	2400.22
205.71	2228.19
205.93	2144.22
206.15	2170.85
206.37	2240.48
206.59	2166.75
206.81	2144.22
207.03	2183.13
207.25	2236.38
207.47	2324.44
207.69	2220.00
207.91	2342.88
208.13	2437.08
208.34	2289.63
208.56	2082.78
208.78	2203.61
209.00	2181.09
209.22	2226.14
209.44	2148.32
209.66	2080.74
209.88	2234.33
210.10	2164.70
210.32	2117.60
210.54	2324.44
210.76	2252.77
210.98	2387.93
211.20	2125.79
211.42	2207.71
211.64	2326.49
211.86	2293.72
212.08	2193.37
212.30	2207.71
212.52	2275.29
212.74	2250.72
212.96	2205.66
213.17	2242.53
213.39	2334.68
213.61	2439.13
213.83	2154.46
214.05	2246.62
214.27	2432.99
214.49	2191.33
214.71	2050.02
214.93	2316.25
215.15	2291.68
215.37	2316.25
215.59	2109.41
215.81	2226.14
216.03	2402.27
216.24	2203.61
216.46	2154.46
216.68	2209.76
216.90	2381.79
217.12	2330.59
217.34	2226.14
217.56	2314.20
217.78	2363.36
218.00	2365.40
218.22	2283.49
218.44	2263.01
218.66	2254.81
218.87	2441.18
219.09	2170.85
219.31	2133.98
219.53	2281.44
219.75	2138.08
219.97	2236.38
220.19	2152.42
220.41	2209.76
220.63	2369.50
220.85	2183.13
221.06	2215.90
221.28	2420.70
221.50	2297.82
221.72	2220.00
221.94	2117.60
222.16	2260.96
222.38	2340.83
222.60	2234.33
222.82	2230.24
223.03	2326.49
223.25	2183.13
223.47	2203.61
223.69	2303.96
223.91	2263.01
224.13	2254.81
224.35	2144.22
224.57	2322.40
224.78	2281.44
225.00	2240.48
225.22	2240.48
225.44	2215.90
225.66	2326.49
225.88	2254.81
226.10	2234.33
226.32	2158.56
226.53	2383.84
226.75	2269.15
226.97	2217.95
227.19	2220.00
227.41	2088.93
227.63	2265.05
227.85	2000.87
228.06	2187.23
228.28	2285.53
228.50	2375.64
228.72	2076.64
228.94	2138.08
229.16	2138.08
229.37	2181.09
229.59	2109.41
229.81	2279.39
230.03	2220.00
230.25	2070.50
230.47	2017.25
230.69	2095.07
230.90	2371.55
231.12	2201.57
231.34	2131.94
231.56	2242.53
231.78	2140.13
232.00	2244.57
232.21	2140.13
232.43	2183.13
232.65	2111.46
232.87	2244.57
233.09	2144.22
233.30	2125.79
233.52	2287.58
233.74	2258.91
233.96	2138.08
234.18	2283.49
234.40	2211.81
234.61	2461.66
234.83	2105.31
235.05	2060.26
235.27	2514.91
235.49	2414.56
235.70	2152.42
235.92	2265.05
236.14	2275.29
236.36	2527.19
236.58	2039.78
236.79	2265.05
237.01	2220.00
237.23	2269.15
237.45	2314.20
237.67	2201.57
237.88	2250.72
238.10	2451.42
238.32	2152.42
238.54	2246.62
238.76	2217.95
238.97	2129.89
239.19	2131.94
239.41	2185.18
239.63	2326.49
239.85	2301.92
240.06	2162.66
240.28	2195.42
240.50	2404.32
240.72	2283.49
240.93	2142.18
241.15	2267.10
241.37	2220.00
241.59	2336.73
241.81	2138.08
242.02	2213.85
242.24	2338.78
242.46	2279.39
242.68	2103.26
242.89	2250.72
243.11	2379.74
243.33	2215.90
243.55	2203.61
243.76	2226.14
243.98	2256.86
244.20	2256.86
244.42	2176.99
244.64	2211.81
244.85	2150.37
245.07	2183.13
245.29	2191.33
245.51	2164.70
245.72	2314.20
245.94	2293.72
246.16	2183.13
246.38	2093.02
246.59	2164.70
246.81	2250.72
247.03	2129.89
247.24	2033.63
247.46	2207.71
247.68	2248.67
247.90	2133.98
248.11	2224.09
248.33	2316.25
248.55	2185.18
248.77	2183.13
248.98	2236.38
249.20	2351.07
249.42	2189.28
249.64	2230.24
249.85	2158.56
250.07	2287.58
250.29	2258.91
250.50	2209.76
250.72	2072.54
250.94	2277.34
251.16	2484.19
251.37	2238.43
251.59	2220.00
251.81	2273.25
252.02	2346.97
252.24	2170.85
252.46	2295.77
252.68	2215.90
252.89	2142.18
253.11	2043.87
253.33	2271.20
253.54	2392.03
253.76	2150.37
253.98	2113.50
254.20	2105.31
254.41	2174.94
254.63	2172.89
254.85	2037.73
255.06	2236.38
255.28	2332.64
255.50	2250.72
255.71	2162.66
255.93	2101.22
256.15	2193.37
256.36	2328.54
256.58	2150.37
256.80	2150.37
257.02	2252.77
257.23	2254.81
257.45	2187.23
257.67	2244.57
257.88	2197.47
258.10	2332.64
258.32	2164.70
258.53	2224.09
258.75	2449.37
258.97	2224.09
259.18	2119.65
259.40	2113.50
259.62	2394.08
259.83	2463.71
260.05	2217.95
260.27	2682.84
260.48	2389.98
260.70	2162.66
260.92	2101.22
261.13	2179.04
261.35	2312.16
261.57	2283.49
261.78	2111.46
262.00	2156.51
262.22	2351.07
262.43	2125.79
262.65	2121.70
262.86	2199.52
263.08	2482.14
263.30	2250.72
263.51	1998.82
263.73	2129.89
263.95	2299.87
264.16	2150.37
264.38	2224.09
264.60	2195.42
264.81	2273.25
265.03	2316.25
265.25	2316.25
265.46	2162.66
265.68	2332.64
265.89	2375.64
266.11	2086.88
266.33	2228.19
266.54	2357.21
266.76	2293.72
266.98	2265.05
267.19	2322.40
267.41	2435.03
267.62	2193.37
267.84	2082.78
268.06	2193.37
268.27	2273.25
268.49	2353.12
268.70	2242.53
268.92	2160.61
269.14	2144.22
269.35	2146.27
269.57	2293.72
269.79	2322.40
270.00	2183.13
270.22	2373.60
270.43	2109.41
270.65	2015.20
270.87	2306.01
271.08	2301.92
271.30	2285.53
271.51	2162.66
271.73	2314.20
271.95	2400.22
272.16	2256.86
272.38	2222.05
272.59	2213.85
272.81	2371.55
273.02	2136.03
273.24	2203.61
273.46	2394.08
273.67	2215.90
273.89	2154.46
274.10	2197.47
274.32	2289.63
274.54	2230.24
274.75	2236.38
274.97	2170.85
275.18	2367.45
275.40	2269.15
275.61	2203.61
275.83	2342.88
276.05	2095.07
276.26	2342.88
276.48	2244.57
276.69	2181.09
276.91	2260.96
277.12	2346.97
277.34	2324.44
277.55	2312.16
277.77	2349.02
277.99	2185.18
278.20	2146.27
278.42	2080.74
278.63	2193.37
278.85	2205.66
279.06	2076.64
279.28	2240.48
279.49	2369.50
279.71	2322.40
279.93	2258.91
280.14	2314.20
280.36	2131.94
280.57	2324.44
280.79	2301.92
281.00	2168.80
281.22	2191.33
281.43	2340.83
281.65	1970.15
281.86	2162.66
282.08	2318.30
282.29	2416.60
282.51	2146.27
282.73	2148.32
282.94	2068.45
283.16	2281.44
283.37	2383.84
283.59	2263.01
283.80	2271.20
284.02	2289.63
284.23	2299.87
284.45	2105.31
284.66	2152.42
284.88	2185.18
285.09	2220.00
285.31	2179.04
285.52	2260.96
285.74	2127.84
285.95	2236.38
286.17	2236.38
286.38	2349.02
286.60	2170.85
286.81	2191.33
287.03	2203.61
287.24	2111.46
287.46	2316.25
287.67	2242.53
287.89	2379.74
288.10	2244.57
288.32	2312.16
288.53	2346.97
288.75	2275.29
288.96	2322.40
289.18	2220.00
289.39	2232.29
289.61	2263.01
289.82	2482.14
290.04	2531.29
290.25	2095.07
290.47	2269.15
290.68	2346.97
290.90	2260.96
291.11	2140.13
291.33	2334.68
291.54	2209.76
291.76	2193.37
291.97	2281.44
292.18	2263.01
292.40	2133.98
292.61	2203.61
292.83	2455.51
293.04	2342.88
293.26	2174.94
293.47	2267.10
293.69	2185.18
293.90	2127.84
294.12	2381.79
294.33	2265.05
294.55	2254.81
294.76	2332.64
294.97	2392.03
295.19	2379.74
295.40	2213.85
295.62	2291.68
295.83	2346.97
296.05	2156.51
296.26	2260.96
296.48	2109.41
296.69	2267.10
296.90	2244.57
297.12	2260.96
297.33	2263.01
297.55	2195.42
297.76	2316.25
297.98	2342.88
298.19	2256.86
298.41	2179.04
298.62	2148.32
298.83	2367.45
299.05	2303.96
299.26	2277.34
299.48	2172.89
299.69	2230.24
299.90	2248.67
300.12	2242.53
300.33	2441.18
300.55	2226.14
300.76	2308.06
300.98	2164.70
301.19	2215.90
301.40	2228.19
301.62	2168.80
301.83	2269.15
302.05	2351.07
302.26	2244.57
302.47	2254.81
302.69	2226.14
302.90	2351.07
303.12	2058.21
303.33	2301.92
303.54	2437.08
303.76	2170.85
303.97	2293.72
304.19	2375.64
304.40	2242.53
304.61	2322.40
304.83	2402.27
305.04	2269.15
305.26	2312.16
305.47	2203.61
305.68	2277.34
305.90	2170.85
306.11	2373.60
306.33	2275.29
306.54	2176.99
306.75	2242.53
306.97	2113.50
307.18	2131.94
307.39	2193.37
307.61	2322.40
307.82	2375.64
308.04	2283.49
308.25	2095.07
308.46	2215.90
308.68	2244.57
308.89	2252.77
309.10	2389.98
309.32	2308.06
309.53	2232.29
309.74	2314.20
309.96	2170.85
310.17	2394.08
310.39	2142.18
310.60	2322.40
310.81	2281.44
311.03	2164.70
311.24	2355.16
311.45	2232.29
311.67	2422.75
311.88	2285.53
312.09	2271.20
312.31	2195.42
312.52	2203.61
312.73	2160.61
312.95	2133.98
313.16	2168.80
313.37	2424.80
313.59	2306.01
313.80	2355.16
314.01	2351.07
314.23	2162.66
314.44	2129.89
314.65	2125.79
314.87	2158.56
315.08	2263.01
315.29	2201.57
315.51	2197.47
315.72	2160.61
315.93	2359.26
316.15	2318.30
316.36	2211.81
316.57	2240.48
316.79	2271.20
317.00	2148.32
317.21	2351.07
317.43	2148.32
317.64	2232.29
317.85	2150.37
318.07	2174.94
318.28	2258.91
318.49	2398.17
318.70	2533.34
318.92	2432.99
319.13	2441.18
319.34	2465.75
319.56	2334.68
319.77	2379.74
319.98	2445.27
320.20	2351.07
320.41	2320.35
320.62	2310.11
320.83	2129.89
321.05	2375.64
321.26	2287.58
321.47	2185.18
321.69	2334.68
321.90	2133.98
322.11	2197.47
322.32	2279.39
322.54	2373.60
322.75	2220.00
322.96	2527.19
323.18	2013.15
323.39	2064.35
323.60	2154.46
323.81	2256.86
324.03	2170.85
324.24	2222.05
324.45	2330.59
324.66	2242.53
324.88	2426.84
325.09	2408.41
325.30	2293.72
325.52	2205.66
325.73	2287.58
325.94	2125.79
326.15	2113.50
326.37	2125.79
326.58	2275.29
326.79	2410.46
327.00	2117.60
327.22	2185.18
327.43	2107.36
327.64	2217.95
327.85	2322.40
328.07	2275.29
328.28	2527.19
328.49	2217.95
328.70	2211.81
328.92	2256.86
329.13	2279.39
329.34	2191.33
329.55	2381.79
329.76	2301.92
329.98	2287.58
330.19	2371.55
330.40	2277.34
330.61	2230.24
330.83	2299.87
331.04	2082.78
331.25	2258.91
331.46	2179.04
331.68	2166.75
331.89	2402.27
332.10	2213.85
332.31	2127.84
332.52	2240.48
332.74	2357.21
332.95	2095.07
333.16	2199.52
333.37	2301.92
333.58	2189.28
333.80	2154.46
334.01	2041.82
334.22	2236.38
334.43	2203.61
334.64	2238.43
334.86	2066.40
335.07	2129.89
335.28	2400.22
335.49	2086.88
335.70	2273.25
335.92	2383.84
336.13	2514.91
336.34	2232.29
336.55	2285.53
336.76	2263.01
336.98	2031.58
337.19	2228.19
337.40	2346.97
337.61	2572.25
337.82	2205.66
338.04	2326.49
338.25	2072.54
338.46	2269.15
338.67	2170.85
338.88	2150.37
339.09	2211.81
339.31	2240.48
339.52	2105.31
339.73	2236.38
339.94	2228.19
340.15	2338.78
340.36	2199.52
340.58	2283.49
340.79	2164.70
341.00	2297.82
341.21	2158.56
341.42	2408.41
341.63	2164.70
341.85	2361.31
342.06	2306.01
342.27	2125.79
342.48	2310.11
342.69	2136.03
342.90	2342.88
343.12	2273.25
343.33	2189.28
343.54	2334.68
343.75	2400.22
343.96	2176.99
344.17	2127.84
344.38	2277.34
344.60	2090.98
344.81	2076.64
345.02	2258.91
345.23	2361.31
345.44	2572.25
345.65	2281.44
345.86	2211.81
346.07	2340.83
346.29	2244.57
346.50	2324.44
346.71	2236.38
346.92	2443.23
347.13	2506.71
347.34	2238.43
347.55	2168.80
347.76	2318.30
347.98	2072.54
348.19	2256.86
348.40	2377.69
348.61	2252.77
348.82	2441.18
349.03	2332.64
349.24	2185.18
349.45	2457.56
349.66	2011.11
349.88	2127.84
350.09	2170.85
350.30	2334.68
350.51	2400.22
350.72	2215.90
350.93	2250.72
351.14	2197.47
351.35	2265.05
351.56	2256.86
351.77	2211.81
351.99	2279.39
352.20	2402.27
352.41	2293.72
352.62	2035.68
352.83	2207.71
353.04	2170.85
353.25	2273.25
353.46	2385.88
353.67	2373.60
353.88	2138.08
354.09	2318.30
354.30	2222.05
354.52	2355.16
354.73	2240.48
354.94	2193.37
355.15	2181.09
355.36	2516.95
355.57	2152.42
355.78	2187.23
355.99	2131.94
356.20	2142.18
356.41	2465.75
356.62	2250.72
356.83	2281.44
357.04	2389.98
357.25	2148.32
357.46	2160.61
357.68	2133.98
357.89	2160.61
358.10	2269.15
358.31	2156.51
358.52	2191.33
358.73	2203.61
358.94	2166.75
359.15	2158.56
359.36	2281.44
359.57	2193.37
359.78	2285.53
359.99	2301.92
360.20	2090.98
360.41	2281.44
360.62	2287.58
360.83	2193.37
361.04	2267.10
361.25	2258.91
361.46	2402.27
361.67	2330.59
361.88	2236.38
362.09	2365.40
362.30	2277.34
362.51	2138.08
362.72	2285.53
362.93	2420.70
363.14	2326.49
363.35	2265.05
363.56	2146.27
363.78	2289.63
363.99	2326.49
364.20	2256.86
364.41	2269.15
364.62	2506.71
364.83	2326.49
365.04	2258.91
365.25	2181.09
365.46	2408.41
365.67	2183.13
365.88	2211.81
366.09	2220.00
366.30	2129.89
366.51	2310.11
366.72	2170.85
366.93	2209.76
367.14	2371.55
367.35	2297.82
367.56	2187.23
367.77	2375.64
367.98	2238.43
368.18	2258.91
368.39	2332.64
368.60	2170.85
368.81	2289.63
369.02	2346.97
369.23	2226.14
369.44	2138.08
369.65	2228.19
369.86	2293.72
370.07	2340.83
370.28	2154.46
370.49	2250.72
370.70	2334.68
370.91	2152.42
371.12	2045.92
371.33	2394.08
371.54	2113.50
371.75	2381.79
371.96	2025.44
372.17	2260.96
372.38	2203.61
372.59	2301.92
372.80	2224.09
373.01	2191.33
373.22	2269.15
373.43	2189.28
373.64	2052.06
373.85	2375.64
374.06	2383.84
374.26	2377.69
374.47	2293.72
374.68	2392.03
374.89	2273.25
375.10	2115.55
375.31	2291.68
375.52	2215.90
375.73	2281.44
375.94	2197.47
376.15	2430.94
376.36	2144.22
376.57	2297.82
376.78	2269.15
376.99	2183.13
377.20	2357.21
377.40	2215.90
377.61	2367.45
377.82	2138.08
378.03	2443.23
378.24	2355.16
378.45	2260.96
378.66	2291.68
378.87	2142.18
379.08	2115.55
379.29	2236.38
379.50	2361.31
379.71	2258.91
379.91	2353.12
380.12	2176.99
380.33	2308.06
380.54	2248.67
380.75	2217.95
380.96	2170.85
381.17	2308.06
381.38	2236.38
381.59	2254.81
381.80	2250.72
382.00	2420.70
382.21	2283.49
382.42	2488.28
382.63	2480.09
382.84	2330.59
383.05	2369.50
383.26	2410.46
383.47	2260.96
383.68	2265.05
383.88	2320.35
384.09	2258.91
384.30	2424.80
384.51	2260.96
384.72	2191.33
384.93	2078.69
385.14	2211.81
385.35	2367.45
385.55	2072.54
385.76	2291.68
385.97	2226.14
386.18	2242.53
386.39	2146.27
386.60	2205.66
386.81	2244.57
387.02	2097.12
387.22	2138.08
387.43	2367.45
387.64	2283.49
387.85	2435.03
388.06	2478.04
388.27	3997.64
388.48	8157.06
388.68	11573.07
388.89	13860.65
389.10	14831.39
389.31	13754.16
389.52	10923.87
389.73	9478.00
389.93	8560.51
390.14	7837.58
390.35	7145.36
390.56	6297.50
390.77	5273.52
390.98	3954.63
391.18	3203.02
391.39	2777.05
391.60	2453.47
391.81	2396.12
392.02	2232.29
392.23	2490.33
392.43	2293.72
392.64	2334.68
392.85	2299.87
393.06	2437.08
393.27	2248.67
393.47	2168.80
393.68	2279.39
393.89	2252.77
394.10	2418.65
394.31	2142.18
394.52	2301.92
394.72	2211.81
394.93	2422.75
395.14	2095.07
395.35	2351.07
395.56	2187.23
395.76	2295.77
395.97	2283.49
396.18	2385.88
396.39	2400.22
396.60	2727.89
396.80	2551.77
397.01	2373.60
397.22	2365.40
397.43	2447.32
397.64	2265.05
397.84	2291.68
398.05	2484.19
398.26	2361.31
398.47	2328.54
398.67	2408.41
398.88	2244.57
399.09	2367.45
399.30	2090.98
399.51	2293.72
399.71	2179.04
399.92	2215.90
400.13	2217.95
400.34	2197.47
400.54	2240.48
400.75	2482.14
400.96	2168.80
401.17	2449.37
401.37	2236.38
401.58	2246.62
401.79	2240.48
402.00	2291.68
402.21	2637.78
402.41	2564.06
402.62	2490.33
402.83	2668.50
403.04	2645.98
403.24	2768.85
403.45	2351.07
403.66	2568.15
403.87	2428.89
404.07	2469.85
404.28	2539.48
404.49	2428.89
404.70	2291.68
404.90	2314.20
405.11	2373.60
405.32	2301.92
405.52	2232.29
405.73	2203.61
405.94	2213.85
406.15	2220.00
406.35	2381.79
406.56	2242.53
406.77	2273.25
406.98	2375.64
407.18	2154.46
407.39	2389.98
407.60	2297.82
407.80	2328.54
408.01	2162.66
408.22	2269.15
408.43	2107.36
408.63	2357.21
408.84	2365.40
409.05	2381.79
409.25	2172.89
409.46	2260.96
409.67	2228.19
409.88	2209.76
410.08	2260.96
410.29	2220.00
410.50	2301.92
410.70	2293.72
410.91	2211.81
411.12	2256.86
411.32	2250.72
411.53	2152.42
411.74	2269.15
411.95	2318.30
412.15	2314.20
412.36	2408.41
412.57	2301.92
412.77	2408.41
412.98	2306.01
413.19	2220.00
413.39	2269.15
413.60	2252.77
413.81	2387.93
414.01	2158.56
414.22	2312.16
414.43	2379.74
414.63	2258.91
414.84	2314.20
415.05	2297.82
415.25	2129.89
415.46	2293.72
415.67	2183.13
415.87	2260.96
416.08	2263.01
416.29	2217.95
416.49	2334.68
416.70	2195.42
416.91	2125.79
417.11	2265.05
417.32	2340.83
417.53	2238.43
417.73	2295.77
417.94	2195.42
418.15	2318.30
418.35	2310.11
418.56	2318.30
418.77	2469.85
418.97	2211.81
419.18	2285.53
419.38	2068.45
419.59	2228.19
419.80	2428.89
420.00	2211.81
420.21	2273.25
420.42	2441.18
420.62	2271.20
420.83	2201.57
421.04	2195.42
421.24	2277.34
421.45	2310.11
421.65	2281.44
421.86	2211.81
422.07	2318.30
422.27	2324.44
422.48	2293.72
422.69	2170.85
422.89	2265.05
423.10	2217.95
423.30	2125.79
423.51	2308.06
423.72	2322.40
423.92	2365.40
424.13	2170.85
424.33	2265.05
424.54	2371.55
424.75	2297.82
424.95	2404.32
425.16	2277.34
425.36	2252.77
425.57	2324.44
425.78	2312.16
425.98	2334.68
426.19	2226.14
426.39	2170.85
426.60	2322.40
426.81	2338.78
427.01	2213.85
427.22	2191.33
427.42	2050.02
427.63	2131.94
427.83	2424.80
428.04	2461.66
428.25	2310.11
428.45	2314.20
428.66	2349.02
428.86	2189.28
429.07	2220.00
429.28	2222.05
429.48	2291.68
429.69	2289.63
429.89	2267.10
430.10	2224.09
430.30	2236.38
430.51	2291.68
430.71	2127.84
430.92	2207.71
431.13	2191.33
431.33	2250.72
431.54	2322.40
431.74	2437.08
431.95	2545.63
432.15	2222.05
432.36	2338.78
432.56	2320.35
432.77	2449.37
432.98	2349.02
433.18	2283.49
433.39	2183.13
433.59	2275.29
433.80	2506.71
434.00	2449.37
434.21	2222.05
434.41	2166.75
434.62	2428.89
434.82	2209.76
435.03	2150.37
435.23	2271.20
435.44	2101.22
435.64	2269.15
435.85	2289.63
436.06	2330.59
436.26	2400.22
436.47	2299.87
436.67	2146.27
436.88	2207.71
437.08	2398.17
437.29	2340.83
437.49	2209.76
437.70	2449.37
437.90	2215.90
438.11	2406.36
438.31	2334.68
438.52	2443.23
438.72	2453.47
438.93	2510.81
439.13	2291.68
439.34	2375.64
439.54	2314.20
439.75	2334.68
439.95	2330.59
440.16	2158.56
440.36	2224.09
440.57	2369.50
440.77	2250.72
440.98	2228.19
441.18	2359.26
441.39	2195.42
441.59	2162.66
441.80	2562.01
442.00	2346.97
442.21	2355.16
442.41	2146.27
442.62	2346.97
442.82	2195.42
443.02	2236.38
443.23	2267.10
443.43	2287.58
443.64	2310.11
443.84	2269.15
444.05	2383.84
444.25	2287.58
444.46	2244.57
444.66	2193.37
444.87	2473.95
445.07	2115.55
445.28	2260.96
445.48	2408.41
445.69	2303.96
445.89	2531.29
446.09	2326.49
446.30	2555.86
446.50	2881.49
446.71	4364.22
446.91	5603.24
447.12	6473.63
447.32	6639.51
447.53	6252.45
447.73	4980.66
447.93	4566.97
448.14	4296.64
448.34	4087.75
448.55	3579.85
448.75	3504.07
448.96	3291.09
449.16	3022.80
449.36	2951.12
449.57	2527.19
449.77	2422.75
449.98	2240.48
450.18	2422.75
450.39	2277.34
450.59	2322.40
450.79	2303.96
451.00	2258.91
451.20	2392.03
451.41	2297.82
451.61	2344.92
451.81	2303.96
452.02	2248.67
452.22	2224.09
452.43	2228.19
452.63	2156.51
452.84	2269.15
453.04	2201.57
453.24	2306.01
453.45	2187.23
453.65	2230.24
453.86	2265.05
454.06	2308.06
454.26	2320.35
454.47	2172.89
454.67	2396.12
454.87	2312.16
455.08	2273.25
455.28	2435.03
455.49	2250.72
455.69	2269.15
455.89	2539.48
456.10	2441.18
456.30	2217.95
456.51	2312.16
456.71	2281.44
456.91	2273.25
457.12	2232.29
457.32	2381.79
457.52	2150.37
457.73	2310.11
457.93	2355.16
458.14	2203.61
458.34	2123.74
458.54	2187.23
458.75	2236.38
458.95	2346.97
459.15	2271.20
459.36	2308.06
459.56	2293.72
459.76	2445.27
459.97	2260.96
460.17	2293.72
460.37	2383.84
460.58	2248.67
460.78	2367.45
460.99	2256.86
461.19	2205.66
461.39	2170.85
461.60	2373.60
461.80	2240.48
462.00	2158.56
462.21	2267.10
462.41	2199.52
462.61	2099.17
462.82	2123.74
463.02	2258.91
463.22	2269.15
463.43	2338.78
463.63	2240.48
463.83	2457.56
464.04	2293.72
464.24	2252.77
464.44	2154.46
464.64	2234.33
464.85	2400.22
465.05	2357.21
465.25	2279.39
465.46	2269.15
465.66	2385.88
465.86	2383.84
466.07	2211.81
466.27	2275.29
466.47	2097.12
466.68	2215.90
466.88	2392.03
467.08	2375.64
467.29	2310.11
467.49	2301.92
467.69	2269.15
467.89	2320.35
468.10	2277.34
468.30	2332.64
468.50	2363.36
468.71	2379.74
468.91	2133.98
469.11	2383.84
469.31	2295.77
469.52	2170.85
469.72	2447.32
469.92	2488.28
470.13	2248.67
470.33	2365.40
470.53	2451.42
470.73	2641.88
470.94	2949.08
471.14	3104.72
471.34	3508.17
471.54	3325.90
471.75	3039.19
471.95	2867.16
472.15	2793.43
472.36	2807.77
472.56	2662.36
472.76	2727.89
472.96	2584.54
473.17	2527.19
473.37	2478.04
473.57	2244.57
473.77	2340.83
473.98	2310.11
474.18	2107.36
474.38	2580.44
474.58	2217.95
474.79	2230.24
474.99	2334.68
475.19	2453.47
475.39	2283.49
475.60	2338.78
475.80	2252.77
476.00	2273.25
476.20	2168.80
476.41	2269.15
476.61	2318.30
476.81	2389.98
477.01	2154.46
477.21	2512.86
477.42	2414.56
477.62	2205.66
477.82	2326.49
478.02	2244.57
478.23	2320.35
478.43	2168.80
478.63	2187.23
478.83	2289.63
479.03	2250.72
479.24	2430.94
479.44	2445.27
479.64	2183.13
479.84	2078.69
480.04	2203.61
480.25	2414.56
480.45	2193.37
480.65	2213.85
480.85	2342.88
481.06	2185.18
481.26	2248.67
481.46	2242.53
481.66	2357.21
481.86	2205.66
482.06	2310.11
482.27	2230.24
482.47	2201.57
482.67	2314.20
482.87	2203.61
483.07	2392.03
483.28	2242.53
483.48	2162.66
483.68	2291.68
483.88	2136.03
484.08	2043.87
484.29	2205.66
484.49	2269.15
484.69	2111.46
484.89	2428.89
485.09	2336.73
485.29	2265.05
485.50	2293.72
485.70	2226.14
485.90	2439.13
486.10	2269.15
486.30	2342.88
486.50	2322.40
486.71	2252.77
486.91	2334.68
487.11	2371.55
487.31	2234.33
487.51	2406.36
487.71	2242.53
487.91	2174.94
488.12	2191.33
488.32	2027.49
488.52	2220.00
488.72	2097.12
488.92	2260.96
489.12	2334.68
489.32	2379.74
489.53	2248.67
489.73	2131.94
489.93	2279.39
490.13	2138.08
490.33	2127.84
490.53	2314.20
490.73	2342.88
490.94	2152.42
491.14	2353.12
491.34	2367.45
491.54	2586.58
491.74	3217.36
491.94	3719.11
492.14	4028.35
492.34	4165.57
492.54	3747.78
492.75	3096.53
492.95	3153.87
493.15	2908.12
493.35	2957.27
493.55	2858.96
493.75	2740.18
493.95	2881.49
494.15	2564.06
494.35	2412.51
494.56	2357.21
494.76	2283.49
494.96	2355.16
495.16	2375.64
495.36	2256.86
495.56	2279.39
495.76	2246.62
495.96	2293.72
496.16	2154.46
496.36	2453.47
496.56	2297.82
496.77	2340.83
496.97	2293.72
497.17	2396.12
497.37	2113.50
497.57	2312.16
497.77	2306.01
497.97	2144.22
498.17	2191.33
498.37	2176.99
498.57	2254.81
498.77	2271.20
498.97	2299.87
499.17	2418.65
499.38	2224.09
499.58	2369.50
499.78	2441.18
499.98	2375.64
500.18	2236.38
500.38	2203.61
500.58	2392.03
500.78	2899.92
500.98	5117.87
501.18	7167.89
501.38	8826.75
501.58	9600.88
501.78	9471.86
501.98	7655.31
502.18	6348.70
502.38	5543.85
502.58	5230.51
502.78	4595.64
502.98	4538.30
503.18	4267.97
503.38	3932.10
503.59	3356.62
503.79	3178.45
503.99	2885.59
504.19	2824.15
504.39	2824.15
504.59	2873.30
504.79	2805.72
504.99	2873.30
505.19	2545.63
505.39	2545.63
505.59	2580.44
505.79	2545.63
505.99	2512.86
506.19	2412.51
506.39	2392.03
506.59	2326.49
506.79	2322.40
506.99	2394.08
507.19	2230.24
507.39	2283.49
507.59	2222.05
507.79	2187.23
507.99	2158.56
508.19	2308.06
508.39	2252.77
508.59	2226.14
508.79	2482.14
508.99	2502.62
509.19	2150.37
509.39	2328.54
509.59	2152.42
509.79	2263.01
509.99	2310.11
510.19	2340.83
510.39	2254.81
510.59	2174.94
510.79	2228.19
510.99	2074.59
511.19	2260.96
511.39	2432.99
511.59	2398.17
511.79	2400.22
511.99	2234.33
512.19	2404.32
512.38	2269.15
512.58	2222.05
512.78	2193.37
512.98	2400.22
513.18	2418.65
513.38	2138.08
513.58	2357.21
513.78	2195.42
513.98	2256.86
514.18	2293.72
514.38	2201.57
514.58	2312.16
514.78	2213.85
514.98	2195.42
515.18	2252.77
515.38	2101.22
515.58	2498.52
515.78	2207.71
515.98	2244.57
516.18	2346.97
516.38	2211.81
516.57	2207.71
516.77	2203.61
516.97	2392.03
517.17	2111.46
517.37	2138.08
517.57	2392.03
517.77	2220.00
517.97	2129.89
518.17	2400.22
518.37	2144.22
518.57	2211.81
518.77	2240.48
518.97	2248.67
519.16	2285.53
519.36	2422.75
519.56	2205.66
519.76	2263.01
519.96	2273.25
520.16	2428.89
520.36	2187.23
520.56	2471.90
520.76	2156.51
520.96	2332.64
521.16	2277.34
521.35	2459.61
521.55	2349.02
521.75	2310.11
521.95	2191.33
522.15	2213.85
522.35	2088.93
522.55	2279.39
522.75	2326.49
522.95	2199.52
523.14	2166.75
523.34	2242.53
523.54	2140.13
523.74	2359.26
523.94	2271.20
524.14	2111.46
524.34	2328.54
524.54	2349.02
524.73	2181.09
524.93	2381.79
525.13	2322.40
525.33	2039.78
525.53	2547.67
525.73	2322.40
525.93	2334.68
526.13	2244.57
526.32	2265.05
526.52	2408.41
526.72	2256.86
526.92	2301.92
527.12	2228.19
527.32	2099.17
527.52	2351.07
527.71	2281.44
527.91	2158.56
528.11	2254.81
528.31	2240.48
528.51	2117.60
528.71	2363.36
528.90	2303.96
529.10	2363.36
529.30	2349.02
529.50	2043.87
529.70	2293.72
529.90	2220.00
530.09	2336.73
530.29	2207.71
530.49	2164.70
530.69	2531.29
530.89	2295.77
531.09	2367.45
531.28	2232.29
531.48	2406.36
531.68	2277.34
531.88	2291.68
532.08	2346.97
532.28	2242.53
532.47	2355.16
532.67	2326.49
532.87	2334.68
533.07	2211.81
533.27	2349.02
533.46	2334.68
533.66	2254.81
533.86	2267.10
534.06	2316.25
534.26	2273.25
534.45	2267.10
534.65	2299.87
534.85	2269.15
535.05	2191.33
535.25	2426.84
535.44	2093.02
535.64	2357.21
535.84	2189.28
536.04	2170.85
536.24	2242.53
536.43	2129.89
536.63	2295.77
536.83	2301.92
537.03	2326.49
537.22	2131.94
537.42	2125.79
537.62	2230.24
537.82	2176.99
538.02	2463.71
538.21	2435.03
538.41	2574.30
538.61	2367.45
538.81	2215.90
539.00	2340.83
539.20	2117.60
539.40	2215.90
539.60	2277.34
539.79	2396.12
539.99	2244.57
540.19	2224.09
540.39	2277.34
540.58	2273.25
540.78	2371.55
540.98	2277.34
541.18	2359.26
541.37	2326.49
541.57	2244.57
541.77	2328.54
541.97	2217.95
542.16	2183.13
542.36	2179.04
542.56	2244.57
542.76	2443.23
542.95	2355.16
543.15	2463.71
543.35	2349.02
543.54	2170.85
543.74	2211.81
543.94	2473.95
544.14	2291.68
544.33	2338.78
544.53	2265.05
544.73	2236.38
544.93	2265.05
545.12	2312.16
545.32	2375.64
545.52	2199.52
545.71	2113.50
545.91	2226.14
546.11	2226.14
546.30	2150.37
546.50	2230.24
546.70	2283.49
546.90	2242.53
547.09	2119.65
547.29	2299.87
547.49	2346.97
547.68	2256.86
547.88	2228.19
548.08	2273.25
548.27	2715.61
548.47	2207.71
548.67	2236.38
548.87	2359.26
549.06	2193.37
549.26	2236.38
549.46	2258.91
549.65	2234.33
549.85	2324.44
550.05	2318.30
550.24	2138.08
550.44	2281.44
550.64	2246.62
550.83	2185.18
551.03	2389.98
551.23	2322.40
551.42	2340.83
551.62	2148.32
551.82	2246.62
552.01	2250.72
552.21	2400.22
552.41	2250.72
552.60	2416.60
552.80	2265.05
553.00	2258.91
553.19	2211.81
553.39	2424.80
553.59	2191.33
553.78	2217.95
553.98	2314.20
554.17	2101.22
554.37	2291.68
554.57	2310.11
554.76	2215.90
554.96	2199.52
555.16	2346.97
555.35	2353.12
555.55	2367.45
555.75	2242.53
555.94	2277.34
556.14	2037.73
556.33	2250.72
556.53	2285.53
556.73	2285.53
556.92	2299.87
557.12	2383.84
557.32	2480.09
557.51	2441.18
557.71	2340.83
557.90	2430.94
558.10	2404.32
558.30	2291.68
558.49	2256.86
558.69	2303.96
558.88	2351.07
559.08	2275.29
559.28	2265.05
559.47	2314.20
559.67	2318.30
559.86	2432.99
560.06	2215.90
560.26	2342.88
560.45	2265.05
560.65	2140.13
560.84	2349.02
561.04	2162.66
561.24	2291.68
561.43	2164.70
561.63	2389.98
561.82	2291.68
562.02	2351.07
562.22	2256.86
562.41	2179.04
562.61	2226.14
562.80	2185.18
563.00	2594.78
563.19	2318.30
563.39	2318.30
563.59	2342.88
563.78	2103.26
563.98	2125.79
564.17	2199.52
564.37	2078.69
564.56	2256.86
564.76	2158.56
564.96	2377.69
565.15	2320.35
565.35	2463.71
565.54	2265.05
565.74	2326.49
565.93	2301.92
566.13	2248.67
566.32	2316.25
566.52	2353.12
566.71	2185.18
566.91	2389.98
567.11	2385.88
567.30	2121.70
567.50	2332.64
567.69	2355.16
567.89	2322.40
568.08	2097.12
568.28	2295.77
568.47	2158.56
568.67	2295.77
568.86	2269.15
569.06	2314.20
569.25	2250.72
569.45	2179.04
569.64	2189.28
569.84	2189.28
570.04	2275.29
570.23	2217.95
570.43	2289.63
570.62	2289.63
570.82	2453.47
571.01	2144.22
571.21	2213.85
571.40	2179.04
571.60	2379.74
571.79	2332.64
571.99	2355.16
572.18	2176.99
572.38	2326.49
572.57	2185.18
572.77	2373.60
572.96	2529.24
573.16	2283.49
573.35	2260.96
573.55	2400.22
573.74	2375.64
573.94	2271.20
574.13	2234.33
574.33	2344.92
574.52	2461.66
574.71	2281.44
574.91	2285.53
575.10	2172.89
575.30	2228.19
575.49	2232.29
575.69	2201.57
575.88	2285.53
576.08	2291.68
576.27	2406.36
576.47	2297.82
576.66	2529.24
576.86	2435.03
577.05	2394.08
577.25	2430.94
577.44	2500.57
577.64	2301.92
577.83	2318.30
578.02	2306.01
578.22	2344.92
578.41	2506.71
578.61	2240.48
578.80	2183.13
579.00	2285.53
579.19	2254.81
579.39	2306.01
579.58	2381.79
579.77	2271.20
579.97	2506.71
580.16	2389.98
580.36	2367.45
580.55	2340.83
580.75	2293.72
580.94	2224.09
581.13	2437.08
581.33	2445.27
581.52	2357.21
581.72	2576.34
581.91	2510.81
582.11	2332.64
582.30	2426.84
582.49	2287.58
582.69	2488.28
582.88	2312.16
583.08	2238.43
583.27	2453.47
583.47	2369.50
583.66	2168.80
583.85	2310.11
584.05	2258.91
584.24	2392.03
584.44	2287.58
584.63	2432.99
584.82	2373.60
585.02	2490.33
585.21	2349.02
585.41	2416.60
585.60	2449.37
585.79	2557.91
585.99	2555.86
586.18	2457.56
586.37	2899.92
586.57	4622.27
586.76	13451.06
586.96	32763.40
587.15	46673.21
587.34	56294.56
587.54	60939.36
587.73	56083.62
587.93	39550.37
588.12	29959.73
588.31	24030.87
588.51	21044.93
588.70	19431.13
588.89	17469.17
589.09	15202.07
589.28	13102.90
589.47	10530.66
589.67	8597.37
589.86	6467.49
590.06	4685.75
590.25	3760.07
590.44	3250.13
590.64	2766.81
590.83	2691.03
591.02	2609.11
591.22	2418.65
591.41	2418.65
591.60	2332.64
591.80	2625.50
591.99	2220.00
592.18	2291.68
592.38	2396.12
592.57	2162.66
592.76	2256.86
592.96	2277.34
593.15	2285.53
593.34	2301.92
593.54	2244.57
593.73	2285.53
593.92	2351.07
594.12	2408.41
594.31	2428.89
594.50	2459.61
594.70	2441.18
594.89	2664.41
595.08	2256.86
595.28	2359.26
595.47	2660.31
595.66	2373.60
595.86	2152.42
596.05	2306.01
596.24	2291.68
596.43	2498.52
596.63	2426.84
596.82	2275.29
597.01	2344.92
597.21	2605.02
597.40	2408.41
597.59	2371.55
597.79	2228.19
597.98	2332.64
598.17	2306.01
598.36	2303.96
598.56	2322.40
598.75	2201.57
598.94	2387.93
599.14	2297.82
599.33	2252.77
599.52	2416.60
599.71	2220.00
599.91	2379.74
600.10	2383.84
600.29	2349.02
600.48	2373.60
600.68	2349.02
600.87	2301.92
601.06	2203.61
601.26	2299.87
601.45	2363.36
601.64	2267.10
601.83	2414.56
602.03	2269.15
602.22	2273.25
602.41	2416.60
602.60	2475.99
602.80	2400.22
602.99	2267.10
603.18	2295.77
603.37	2369.50
603.57	2226.14
603.76	2326.49
603.95	2418.65
604.14	2209.76
604.34	2217.95
604.53	2285.53
604.72	2250.72
604.91	2375.64
605.10	2340.83
605.30	2150.37
605.49	2435.03
605.68	2355.16
605.87	2316.25
606.07	2322.40
606.26	2244.57
606.45	2340.83
606.64	2330.59
606.84	2217.95
607.03	2322.40
607.22	2365.40
607.41	2283.49
607.60	2240.48
607.80	2373.60
607.99	2265.05
608.18	2273.25
608.37	2291.68
608.56	2215.90
608.76	2375.64
608.95	2455.51
609.14	2297.82
609.33	2457.56
609.52	2471.90
609.72	2328.54
609.91	2301.92
610.10	2271.20
610.29	2482.14
610.48	2351.07
610.68	2293.72
610.87	2260.96
611.06	2385.88
611.25	2254.81
611.44	2410.46
611.63	2234.33
611.83	2342.88
612.02	2224.09
612.21	2373.60
612.40	2080.74
612.59	2146.27
612.79	2119.65
612.98	2226.14
613.17	2441.18
613.36	2301.92
613.55	2504.67
613.74	2256.86
613.93	2346.97
614.13	2469.85
614.32	2514.91
614.51	2506.71
614.70	2322.40
614.89	2326.49
615.08	2377.69
615.28	2760.66
615.47	2226.14
615.66	2349.02
615.85	2420.70
616.04	2359.26
616.23	2387.93
616.42	2299.87
616.62	2285.53
616.81	2265.05
617.00	2306.01
617.19	2301.92
617.38	2273.25
617.57	2236.38
617.76	2363.36
617.95	2367.45
618.15	2310.11
618.34	2441.18
618.53	2170.85
618.72	2381.79
618.91	2371.55
619.10	2363.36
619.29	2185.18
619.48	2318.30
619.68	2197.47
619.87	2234.33
620.06	2203.61
620.25	2338.78
620.44	2195.42
620.63	2265.05
620.82	2357.21
621.01	2283.49
621.20	2236.38
621.39	2265.05
621.59	2291.68
621.78	2230.24
621.97	2275.29
622.16	2326.49
622.35	2293.72
622.54	2365.40
622.73	2416.60
622.92	2136.03
623.11	2410.46
623.30	2267.10
623.49	2385.88
623.68	2269.15
623.88	2389.98
624.07	2293.72
624.26	2187.23
624.45	2375.64
624.64	2260.96
624.83	2314.20
625.02	2111.46
625.21	2228.19
625.40	2306.01
625.59	2357.21
625.78	2279.39
625.97	2441.18
626.16	2432.99
626.35	2506.71
626.54	2338.78
626.74	2465.75
626.93	2314.20
627.12	2322.40
627.31	2371.55
627.50	2275.29
627.69	2344.92
627.88	2160.61
628.07	2203.61
628.26	2189.28
628.45	2183.13
628.64	2297.82
628.83	2269.15
629.02	2195.42
629.21	2389.98
629.40	2326.49
629.59	2205.66
629.78	2220.00
629.97	2283.49
630.16	2236.38
630.35	2301.92
630.54	2203.61
630.73	2230.24
630.92	2285.53
631.11	2189.28
631.30	2209.76
631.49	2324.44
631.68	2252.77
631.87	2297.82
632.06	2088.93
632.25	2512.86
632.44	2310.11
632.63	2310.11
632.82	2318.30
633.01	2283.49
633.20	2260.96
633.39	2301.92
633.58	2170.85
633.77	2211.81
633.96	2299.87
634.15	2338.78
634.34	2320.35
634.53	2363.36
634.72	2258.91
634.91	2076.64
635.10	2215.90
635.29	2285.53
635.48	2293.72
635.67	2205.66
635.86	2076.64
636.05	2377.69
636.24	2285.53
636.43	2287.58
636.62	2326.49
636.81	2004.96
637.00	2265.05
637.19	2342.88
637.38	2256.86
637.57	2252.77
637.76	2432.99
637.95	2371.55
638.14	2346.97
638.33	2400.22
638.52	2340.83
638.71	2265.05
638.89	2228.19
639.08	2572.25
639.27	2432.99
639.46	2480.09
639.65	2815.96
639.84	2899.92
640.03	3018.71
640.22	2797.53
640.41	2826.20
640.60	2529.24
640.79	2451.42
640.98	2451.42
641.17	2480.09
641.36	2478.04
641.55	2432.99
641.74	2250.72
641.92	2320.35
642.11	2228.19
642.30	2236.38
642.49	2250.72
642.68	2205.66
642.87	2332.64
643.06	2324.44
643.25	2191.33
643.44	2185.18
643.63	2322.40
643.82	2289.63
644.00	2121.70
644.19	2316.25
644.38	2131.94
644.57	2273.25
644.76	2306.01
644.95	2226.14
645.14	2207.71
645.33	2287.58
645.52	2265.05
645.71	2068.45
645.89	2138.08
646.08	2254.81
646.27	2230.24
646.46	2418.65
646.65	2166.75
646.84	2260.96
647.03	2103.26
647.22	2318.30
647.40	2209.76
647.59	2236.38
647.78	2078.69
647.97	2181.09
648.16	2154.46
648.35	2396.12
648.54	2306.01
648.73	2258.91
648.91	2359.26
649.10	2330.59
649.29	2207.71
649.48	2265.05
649.67	2293.72
649.86	2230.24
650.05	2379.74
650.23	2392.03
650.42	2320.35
650.61	2537.43
650.80	2375.64
650.99	2508.76
651.18	2465.75
651.36	2392.03
651.55	2283.49
651.74	2396.12
651.93	2287.58
652.12	2244.57
652.31	2201.57
652.49	2207.71
652.68	2258.91
652.87	2478.04
653.06	2346.97
653.25	2498.52
653.44	2287.58
653.62	2447.32
653.81	2260.96
654.00	2232.29
654.19	2344.92
654.38	2519.00
654.56	2336.73
654.75	2205.66
654.94	2412.51
655.13	2258.91
655.32	2244.57
655.51	2242.53
655.69	2191.33
655.88	2234.33
656.07	2246.62
656.26	2324.44
656.45	2125.79
656.63	2263.01
656.82	2301.92
657.01	2340.83
657.20	2174.94
657.38	2387.93
657.57	2256.86
657.76	2119.65
657.95	2318.30
658.14	2213.85
658.32	2310.11
658.51	2228.19
658.70	2281.44
658.89	2299.87
659.08	2283.49
659.26	2389.98
659.45	2150.37
659.64	2332.64
659.83	2222.05
660.01	2519.00
660.20	2328.54
660.39	2490.33
660.58	2054.11
660.76	2324.44
660.95	2162.66
661.14	2297.82
661.33	2136.03
661.51	2146.27
661.70	2248.67
661.89	2301.92
662.08	2193.37
662.26	2097.12
662.45	2193.37
662.64	2478.04
662.83	2357.21
663.01	2138.08
663.20	2217.95
663.39	2408.41
663.58	2179.04
663.76	2191.33
663.95	2306.01
664.14	2207.71
664.32	2209.76
664.51	2201.57
664.70	2203.61
664.89	2314.20
665.07	2113.50
665.26	2385.88
665.45	2207.71
665.64	2316.25
665.82	2283.49
666.01	2297.82
666.20	2170.85
666.38	2420.70
666.57	2404.32
666.76	3393.48
666.95	8077.19
667.13	16148.23
667.32	21044.93
667.51	24530.57
667.69	26517.10
667.88	24211.09
668.07	17137.40
668.25	13692.72
668.44	11355.99
668.63	9852.78
668.81	8853.37
669.00	7638.92
669.19	6926.23
669.38	5992.36
669.56	4986.80
669.75	4378.56
669.94	3659.72
670.12	3112.91
670.31	2861.01
670.50	2650.07
670.68	2539.48
670.87	2422.75
671.06	2361.31
671.24	2344.92
671.43	2502.62
671.62	2324.44
671.80	2285.53
671.99	2449.37
672.18	2189.28
672.36	2396.12
672.55	2283.49
672.74	2273.25
672.92	2246.62
673.11	2363.36
673.29	2209.76
673.48	2375.64
673.67	2205.66
673.85	2510.81
674.04	2226.14
674.23	2263.01
674.41	2453.47
674.60	2123.74
674.79	2111.46
674.97	2146.27
675.16	2381.79
675.34	2332.64
675.53	2211.81
675.72	2359.26
675.90	2453.47
676.09	2242.53
676.28	2267.10
676.46	2095.07
676.65	2373.60
676.83	2170.85
677.02	2299.87
677.21	2244.57
677.39	2359.26
677.58	2142.18
677.77	2160.61
677.95	2205.66
678.14	2170.85
678.32	2260.96
678.51	2240.48
678.70	2469.85
678.88	2248.67
679.07	2332.64
679.25	2220.00
679.44	2199.52
679.63	2142.18
679.81	2289.63
680.00	2385.88
680.18	2320.35
680.37	2406.36
680.55	2289.63
680.74	2207.71
680.93	2105.31
681.11	2299.87
681.30	2252.77
681.48	2392.03
681.67	2185.18
681.85	2248.67
682.04	2275.29
682.23	2373.60
682.41	2242.53
682.60	2232.29
682.78	2232.29
682.97	2150.37
683.15	2244.57
683.34	2211.81
683.53	2430.94
683.71	2101.22
683.90	2404.32
684.08	2410.46
684.27	2232.29
684.45	2203.61
684.64	2418.65
684.82	2244.57
685.01	2289.63
685.19	2199.52
685.38	2441.18
685.57	2252.77
685.75	2168.80
685.94	2195.42
686.12	2174.94
686.31	2138.08
686.49	2463.71
686.68	2129.89
686.86	2320.35
687.05	2224.09
687.23	2277.34
687.42	2146.27
687.60	2119.65
687.79	2361.31
687.97	2441.18
688.16	2430.94
688.34	2310.11
688.53	2133.98
688.71	2275.29
688.90	2398.17
689.08	2179.04
689.27	2146.27
689.45	2334.68
689.64	2346.97
689.82	2260.96
690.01	2377.69
690.19	2326.49
690.38	2285.53
690.56	2346.97
690.75	2232.29
690.93	2217.95
691.12	2209.76
691.30	2211.81
691.49	2211.81
691.67	2226.14
691.86	2342.88
692.04	2248.67
692.23	2201.57
692.41	2355.16
692.60	2586.58
692.78	2326.49
692.97	2318.30
693.15	2422.75
693.34	2469.85
693.52	2359.26
693.71	2236.38
693.89	2238.43
694.08	2146.27
694.26	2322.40
694.44	2344.92
694.63	2340.83
694.81	2097.12
695.00	2220.00
695.18	2357.21
695.37	2471.90
695.55	2256.86
695.74	2197.47
695.92	2170.85
696.10	2406.36
696.29	2107.36
696.47	2236.38
696.66	2129.89
696.84	2174.94
697.03	2260.96
697.21	2463.71
697.40	3309.52
697.58	2379.74
697.76	2187.23
697.95	2146.27
698.13	2121.70
698.32	2246.62
698.50	2228.19
698.68	2320.35
698.87	2193.37
699.05	2424.80
699.24	2193.37
699.42	2244.57
699.61	2248.67
699.79	2283.49
699.97	2299.87
700.16	2101.22
700.34	2193.37
700.53	2252.77
700.71	2412.51
700.89	2400.22
701.08	2244.57
701.26	2359.26
701.45	2775.00
701.63	2226.14
701.81	2224.09
702.00	2228.19
702.18	2168.80
702.37	2168.80
702.55	2510.81
702.73	2478.04
702.92	2430.94
703.10	2547.67
703.28	2457.56
703.47	2303.96
703.65	2449.37
703.84	2412.51
704.02	2277.34
704.20	2521.05
704.39	2326.49
704.57	2285.53
704.75	2392.03
704.94	2353.12
705.12	2355.16
705.30	2410.46
705.49	4442.04
705.67	10299.23
705.86	17929.97
706.04	21599.93
706.22	24551.05
706.41	25691.77
706.59	21534.39
706.77	15519.51
706.96	12953.40
707.14	11245.40
707.32	10051.43
707.51	8777.59
707.69	7296.91
707.87	6018.98
708.06	4779.96
708.24	3930.05
708.42	3135.44
708.61	3069.91
708.79	2457.56
708.97	2428.89
709.16	2371.55
709.34	2340.83
709.52	2256.86
709.71	2275.29
709.89	2359.26
710.07	2193.37
710.26	2209.76
710.44	2230.24
710.62	2410.46
710.80	2220.00
710.99	2416.60
711.17	2338.78
711.35	2193.37
711.54	2195.42
711.72	2353.12
711.90	2281.44
712.09	2271.20
712.27	2203.61
712.45	2271.20
712.63	2162.66
712.82	2226.14
713.00	2269.15
713.18	2301.92
713.37	2275.29
713.55	2349.02
713.73	2361.31
713.91	2308.06
714.10	2172.89
714.28	2254.81
714.46	2273.25
714.65	2310.11
714.83	2220.00
715.01	2269.15
715.19	2273.25
715.38	2244.57
715.56	2277.34
715.74	2183.13
715.92	2258.91
716.11	2346.97
716.29	2035.68
716.47	2279.39
716.65	2226.14
716.84	2084.83
717.02	2301.92
717.20	2068.45
717.38	2209.76
717.57	2334.68
717.75	2234.33
717.93	2176.99
718.11	2351.07
718.30	2121.70
718.48	2293.72
718.66	2281.44
718.84	2351.07
719.03	2314.20
719.21	2074.59
719.39	2375.64
719.57	2365.40
719.75	2412.51
719.94	2170.85
720.12	2209.76
720.30	2301.92
720.48	2392.03
720.67	2273.25
720.85	2150.37
721.03	2222.05
721.21	2203.61
721.39	2342.88
721.58	2295.77
721.76	2215.90
721.94	2244.57
722.12	2287.58
722.30	2383.84
722.49	2224.09
722.67	2258.91
722.85	2244.57
723.03	2103.26
723.21	2265.05
723.40	2215.90
723.58	2441.18
723.76	2379.74
723.94	2400.22
724.12	2338.78
724.30	2488.28
724.49	2375.64
724.67	2152.42
724.85	2377.69
725.03	2086.88
725.21	2375.64
725.40	2392.03
725.58	2234.33
725.76	2371.55
725.94	2289.63
726.12	2164.70
726.30	2183.13
726.49	2172.89
726.67	2183.13
726.85	2271.20
727.03	2572.25
727.21	3592.14
727.39	4954.04
727.57	5689.26
727.76	6348.70
727.94	6717.34
728.12	6360.99
728.30	5185.46
728.48	4356.03
728.66	4124.61
728.84	3780.55
729.03	3293.13
729.21	3037.14
729.39	2781.14
729.57	2428.89
729.75	2414.56
729.93	2389.98
730.11	2207.71
730.30	2258.91
730.48	2318.30
730.66	2351.07
730.84	2322.40
731.02	2281.44
731.20	2131.94
731.38	2256.86
731.56	2164.70
731.74	2144.22
731.93	2275.29
732.11	2312.16
732.29	2176.99
732.47	2269.15
732.65	2346.97
732.83	2389.98
733.01	2277.34
733.19	2146.27
733.37	2289.63
733.56	2336.73
733.74	2166.75
733.92	2392.03
734.10	2179.04
734.28	2357.21
734.46	2111.46
734.64	2273.25
734.82	2236.38
735.00	2168.80
735.18	2166.75
735.36	2197.47
735.54	2232.29
735.73	2263.01
735.91	2232.29
736.09	2336.73
736.27	2228.19
736.45	2359.26
736.63	2113.50
736.81	2269.15
736.99	2353.12
737.17	2412.51
737.35	2269.15
737.53	2312.16
737.71	2193.37
737.89	2365.40
738.07	2232.29
738.25	2174.94
738.43	2052.06
738.61	2217.95
738.80	2105.31
738.98	2174.94
739.16	2170.85
739.34	2176.99
739.52	2342.88
739.70	2279.39
739.88	2369.50
740.06	2373.60
740.24	2039.78
740.42	2306.01
740.60	2095.07
740.78	2246.62
740.96	2117.60
741.14	2193.37
741.32	2265.05
741.50	2076.64
741.68	2400.22
741.86	2398.17
742.04	2111.46
742.22	2129.89
742.40	2285.53
742.58	2299.87
742.76	2228.19
742.94	2340.83
743.12	2105.31
743.30	2203.61
743.48	2281.44
743.66	2252.77
743.84	2324.44
744.02	2295.77
744.20	2252.77
744.38	2164.70
744.56	2160.61
744.74	2432.99
744.92	2179.04
745.10	2398.17
745.28	2281.44
745.46	2406.36
745.64	2189.28
745.82	2428.89
746.00	2244.57
746.18	2342.88
746.36	2152.42
746.54	2314.20
746.72	2203.61
746.90	2203.61
747.08	2404.32
747.26	2226.14
747.44	2295.77
747.62	2281.44
747.80	2254.81
747.98	2277.34
748.15	2252.77
748.33	2416.60
748.51	2299.87
748.69	2357.21
748.87	2170.85
749.05	2283.49
749.23	2220.00
749.41	2312.16
749.59	2258.91
749.77	2303.96
749.95	2224.09
750.13	2185.18
750.31	2303.96
750.49	2244.57
750.67	2260.96
750.85	2404.32
751.03	2326.49
751.20	2502.62
751.38	2267.10
751.56	2211.81
751.74	2246.62
751.92	2123.74
752.10	2127.84
752.28	2424.80
752.46	2197.47
752.64	2242.53
752.82	2258.91
753.00	2342.88
753.18	2236.38
753.35	2308.06
753.53	2260.96
753.71	2207.71
753.89	2269.15
754.07	2353.12
754.25	2320.35
754.43	2273.25
754.61	2131.94
754.79	2267.10
754.97	2217.95
755.14	2369.50
755.32	2160.61
755.50	2248.67
755.68	2275.29
755.86	2136.03
756.04	2133.98
756.22	2131.94
756.40	2369.50
756.57	2402.27
756.75	2201.57
756.93	2430.94
757.11	2346.97
757.29	2099.17
757.47	2144.22
757.65	2113.50
757.82	2070.50
758.00	2179.04
758.18	2215.90
758.36	2142.18
758.54	2441.18
758.72	2154.46
758.90	2342.88
759.07	2340.83
759.25	2179.04
759.43	2191.33
759.61	2072.54
759.79	3131.34
759.97	2324.44
760.15	2277.34
760.32	2209.76
760.50	2265.05
760.68	2465.75
760.86	2097.12
761.04	2320.35
761.22	2310.11
761.39	2285.53
761.57	2256.86
761.75	2238.43
761.93	2342.88
762.11	2240.48
762.28	2252.77
762.46	2162.66
762.64	2392.03
762.82	2234.33
763.00	2220.00
763.18	2334.68
763.35	2115.55
763.53	2297.82
763.71	2281.44
763.89	2230.24
764.07	2252.77
764.24	2236.38
764.42	2260.96
764.60	2250.72
764.78	2387.93
764.96	2308.06
765.13	2332.64
765.31	2265.05
765.49	2275.29
765.67	2127.84
765.84	2207.71
766.02	2174.94
766.20	2158.56
766.38	2273.25
766.56	2289.63
766.73	2349.02
766.91	2226.14
767.09	2349.02
767.27	2226.14
767.44	2201.57
767.62	2299.87
767.80	2244.57
767.98	2211.81
768.15	2238.43
768.33	2332.64
768.51	2314.20
768.69	2326.49
768.87	2406.36
769.04	2273.25
769.22	2547.67
769.40	2396.12
769.58	2445.27
769.75	2230.24
769.93	2379.74
770.11	2197.47
770.28	2160.61
770.46	2299.87
770.64	2269.15
770.82	2236.38
770.99	2185.18
771.17	2351.07
771.35	2236.38
771.53	2238.43
771.70	2244.57
771.88	2260.96
772.06	2281.44
772.23	2267.10
772.41	2244.57
772.59	2211.81
772.77	2144.22
772.94	2287.58
773.12	2273.25
773.30	2252.77
773.47	2256.86
773.65	2203.61
773.83	2369.50
774.01	2230.24
774.18	2084.83
774.36	2277.34
774.54	2144.22
774.71	2279.39
774.89	2158.56
775.07	2136.03
775.24	2250.72
775.42	2146.27
775.60	2471.90
775.78	2201.57
775.95	2174.94
776.13	2105.31
776.31	2074.59
776.48	2291.68
776.66	2375.64
776.84	2170.85
777.01	2297.82
777.19	2189.28
777.37	2187.23
777.54	2299.87
777.72	2459.61
777.90	2248.67
778.07	2228.19
778.25	2572.25
778.43	2215.90
778.60	2201.57
778.78	2332.64
778.96	2449.37
779.13	2133.98
779.31	2342.88
779.49	2260.96
779.66	2277.34
779.84	2179.04
780.01	2158.56
780.19	2103.26
780.37	2301.92
780.54	2285.53
780.72	2174.94
780.90	2234.33
781.07	2240.48
781.25	2183.13
781.43	2338.78
781.60	2211.81
781.78	2342.88
781.95	2244.57
782.13	2222.05
782.31	2220.00
782.48	2133.98
782.66	2269.15
782.83	2514.91
783.01	2316.25
783.19	2394.08
783.36	2203.61
783.54	2148.32
783.72	2320.35
783.89	2209.76
784.07	2183.13
784.24	2234.33
784.42	2383.84
784.60	2293.72
784.77	2316.25
784.95	2113.50
785.12	2129.89
785.30	2306.01
785.47	2172.89
785.65	2183.13
785.83	2295.77
786.00	2162.66
786.18	2236.38
786.35	2217.95
786.53	2086.88
786.71	2293.72
786.88	2244.57
787.06	2338.78
787.23	2248.67
787.41	2199.52
787.58	2256.86
787.76	2162.66
787.94	2289.63
788.11	2228.19
788.29	2138.08
788.46	2185.18
788.64	2097.12
788.81	2220.00
788.99	2168.80
789.16	2156.51
789.34	2201.57
789.52	2150.37
789.69	2234.33
789.87	2084.83
790.04	2215.90
790.22	2260.96
790.39	2494.43
790.57	2033.63
790.74	2133.98
790.92	2349.02
791.09	2109.41
791.27	2269.15
791.44	2326.49
791.62	2189.28
791.79	2377.69
791.97	2234.33
792.15	2519.00
792.32	2314.20
792.50	2312.16
792.67	2457.56
792.85	2394.08
793.02	2209.76
793.20	2215.90
793.37	2129.89
793.55	2101.22
793.72	2162.66
793.90	2344.92
794.07	2254.81
794.25	2121.70
794.42	2285.53
794.60	2236.38
794.77	2275.29
794.95	2316.25
795.12	2334.68
795.30	2260.96
795.47	2039.78
795.65	2605.02
795.82	2310.11
796.00	2209.76
796.17	2230.24
796.34	2170.85
796.52	2220.00
796.69	2332.64
796.87	2293.72
797.04	2293.72
797.22	2420.70
797.39	2256.86
797.57	2322.40
797.74	2277.34
797.92	2248.67
798.09	2111.46
798.27	2320.35
798.44	2248.67
798.62	2269.15
798.79	2260.96
798.96	2344.92
799.14	2211.81
799.31	2496.47
799.49	2279.39
799.66	2129.89
799.84	2318.30
800.01	2148.32
800.19	2263.01
800.36	2062.30
800.53	2306.01
800.71	2336.73
800.88	2369.50
801.06	2162.66
801.23	2174.94
801.41	2244.57
801.58	2277.34
801.75	2187.23
801.93	2258.91
802.10	2260.96
802.28	2242.53
802.45	2187.23
802.63	2297.82
802.80	2414.56
802.97	2162.66
803.15	2248.67
803.32	2303.96
803.50	2174.94
803.67	2187.23
803.84	2226.14
804.02	2289.63
804.19	2164.70
804.37	2041.82
804.54	2146.27
804.71	2174.94
804.89	2303.96
805.06	2174.94
805.24	2121.70
805.41	2127.84
805.58	2250.72
805.76	2529.24
805.93	2203.61
806.10	2316.25
806.28	2310.11
806.45	2230.24
806.63	2238.43
806.80	2246.62
806.97	2293.72
807.15	2336.73
807.32	2248.67
807.49	2242.53
807.67	2082.78
807.84	2301.92
808.01	2152.42
808.19	2408.41
808.36	2455.51
808.54	2289.63
808.71	2107.36
808.88	2250.72
809.06	2295.77
809.23	2422.75
809.40	2199.52
809.58	2324.44
809.75	2217.95
809.92	2185.18
810.10	2461.66
810.27	2228.19
810.44	2236.38
810.62	2316.25
810.79	2265.05
810.96	2150.37
811.14	2166.75
811.31	2316.25
811.48	2240.48
811.66	2232.29
811.83	2363.36
812.00	2387.93
812.18	2248.67
812.35	2463.71
812.52	2191.33
812.69	2179.04
812.87	2238.43
813.04	2199.52
813.21	2277.34
813.39	2228.19
813.56	2176.99
813.73	2273.25
813.91	2125.79
814.08	2301.92
814.25	2256.86
814.42	2076.64
814.60	2168.80
814.77	2310.11
814.94	2195.42
815.12	2170.85
815.29	2346.97
815.46	2238.43
815.63	2234.33
815.81	2260.96
815.98	2246.62
816.15	2258.91
816.33	2207.71
816.50	2179.04
816.67	2179.04
816.84	2240.48
817.02	2174.94
817.19	2174.94
817.36	2236.38
817.53	2338.78
817.71	2207.71
817.88	2365.40
818.05	2267.10
818.22	2205.66
818.40	2439.13
818.57	2220.00
818.74	2238.43
818.91	2236.38
819.09	2310.11
819.26	2293.72
819.43	2199.52
819.60	2170.85
819.78	2289.63
819.95	2375.64
820.12	2152.42
820.29	2435.03
820.47	2371.55
820.64	2158.56
820.81	2088.93
820.98	2164.70
821.15	2179.04
821.33	2365.40
821.50	2074.59
821.67	2254.81
821.84	2179.04
822.02	2226.14
822.19	2369.50
822.36	2281.44
822.53	2179.04
822.70	2187.23
822.88	2220.00
823.05	2412.51
823.22	2267.10
823.39	2314.20
823.56	2285.53
823.74	2439.13
823.91	2142.18
824.08	2224.09
824.25	2174.94
824.42	2430.94
824.60	2176.99
824.77	2170.85
824.94	2244.57
825.11	2279.39
825.28	2127.84
825.45	2301.92
825.63	2254.81
825.80	2078.69
825.97	2248.67
826.14	2357.21
826.31	2111.46
826.48	2297.82
826.66	2099.17
826.83	2191.33
827.00	2234.33
827.17	2187.23
827.34	2234.33
827.51	2144.22
827.69	2211.81
827.86	2105.31
828.03	2230.24
828.20	2211.81
828.37	2205.66
828.54	2314.20
828.71	2176.99
828.89	2375.64
829.06	2359.26
829.23	2428.89
829.40	2101.22
829.57	2248.67
829.74	2367.45
829.91	2189.28
830.09	2174.94
830.26	2244.57
830.43	2422.75
830.60	2246.62
830.77	2349.02
830.94	2387.93
831.11	2320.35
831.28	2236.38
831.46	2332.64
831.63	2213.85
831.80	2332.64
831.97	2220.00
832.14	2131.94
832.31	2322.40
832.48	2277.34
832.65	2342.88
832.82	2234.33
832.99	2275.29
833.17	2142.18
833.34	2383.84
833.51	2328.54
833.68	2111.46
833.85	2281.44
834.02	2179.04
834.19	2090.98
834.36	2199.52
834.53	2293.72
834.70	2375.64
834.87	2326.49
835.04	2183.13
835.22	2168.80
835.39	2168.80
835.56	2093.02
835.73	2207.71
835.90	2293.72
836.07	2191.33
836.24	2240.48
836.41	2174.94
836.58	2265.05
836.75	2320.35
836.92	2334.68
837.09	2129.89
837.26	2334.68
837.43	2277.34
837.60	2244.57
837.77	2189.28
837.94	2277.34
838.12	2471.90
838.29	2193.37
838.46	2097.12
838.63	2148.32
838.80	2357.21
838.97	2193.37
839.14	2230.24
839.31	2234.33
839.48	2316.25
839.65	2203.61
839.82	2289.63
839.99	2285.53
840.16	2260.96
840.33	2088.93
840.50	2174.94
840.67	2136.03
840.84	2103.26
841.01	2258.91
841.18	2097.12
841.35	2269.15
841.52	2330.59
841.69	2361.31
841.86	2217.95
842.03	2156.51
842.20	2357.21
842.37	2150.37
842.54	2277.34
842.71	2346.97
842.88	2113.50
843.05	2275.29
843.22	2109.41
843.39	2346.97
843.56	2183.13
843.73	2168.80
843.90	2213.85
844.07	2240.48
844.24	2330.59
844.41	2312.16
844.58	2215.90
844.75	2213.85
844.92	2285.53
845.09	2209.76
845.26	2168.80
845.43	2340.83
845.60	2117.60
845.77	2283.49
845.94	2285.53
846.10	2408.41
846.27	2115.55
846.44	2119.65
846.61	2101.22
846.78	2338.78
846.95	2324.44
847.12	2189.28
847.29	2211.81
847.46	2148.32
847.63	2265.05
847.80	2201.57
847.97	2220.00
848.14	2506.71
848.31	2265.05
848.48	2176.99
848.65	2269.15
848.82	2150.37
848.98	2416.60
849.15	2252.77
849.32	2332.64
849.49	2402.27
849.66	2269.15
849.83	2211.81
850.00	2144.22
850.17	2328.54
850.34	2174.94
850.51	2148.32
850.68	2127.84
850.85	2416.60
851.01	2314.20
851.18	2232.29
851.35	2187.23
851.52	2267.10
851.69	2318.30
851.86	2156.51
852.03	2234.33
852.20	2318.30
852.37	2256.86
852.53	2101.22
852.70	2146.27
852.87	2224.09
853.04	2353.12
853.21	2070.50
853.38	2357.21
853.55	2340.83
853.72	2381.79
853.89	2195.42
854.05	2103.26
854.22	2293.72
854.39	2222.05
854.56	2273.25
854.73	2279.39
854.90	2095.07
855.07	2193.37
855.23	2156.51
855.40	2164.70
855.57	2162.66
855.74	2086.88
855.91	2441.18
856.08	2086.88
856.25	2111.46
856.41	2232.29
856.58	2201.57
856.75	2176.99
856.92	2097.12
857.09	2361.31
857.26	2119.65
857.42	2260.96
857.59	2287.58
857.76	2209.76
857.93	2246.62
858.10	2195.42
858.27	2086.88
858.43	2297.82
858.60	2058.21
858.77	2160.61
858.94	2211.81
859.11	2326.49
859.27	2138.08
859.44	2179.04
859.61	2445.27
859.78	2308.06
859.95	2127.84
860.12	2140.13
860.28	2449.37
860.45	2482.14
860.62	2136.03
860.79	2248.67
860.95	2189.28
861.12	2138.08
861.29	2109.41
861.46	2138.08
861.63	2277.34
861.79	2199.52
861.96	2113.50
862.13	2138.08
862.30	2420.70
862.47	2258.91
862.63	2148.32
862.80	2285.53
862.97	2332.64
863.14	2252.77
863.30	2279.39
863.47	2113.50
863.64	2404.32
863.81	2254.81
863.97	2144.22
864.14	2191.33
864.31	2146.27
864.48	2209.76
864.65	2211.81
864.81	2342.88
864.98	2367.45
865.15	2273.25
865.32	2322.40
865.48	2273.25
865.65	2445.27
865.82	2213.85
865.98	2332.64
866.15	2314.20
866.32	2275.29
866.49	2260.96
866.65	2318.30
866.82	2166.75
866.99	2232.29
867.16	2222.05
867.32	2166.75
867.49	2140.13
867.66	2258.91
867.83	2238.43
867.99	2088.93
868.16	2179.04
868.33	2170.85
868.49	2293.72
868.66	2191.33
868.83	2320.35
868.99	2310.11
869.16	2260.96
869.33	2312.16
869.50	2273.25
869.66	2275.29
869.83	2306.01
870.00	2060.26
870.16	2271.20
870.33	2250.72
870.50	2389.98
870.66	2222.05
870.83	2248.67
871.00	2230.24
871.17	2297.82
871.33	2281.44
871.50	2203.61
871.67	2146.27
871.83	2220.00
872.00	2287.58
872.17	2158.56
872.33	2375.64
872.50	2426.84
872.67	2191.33
872.83	2224.09
873.00	2299.87
873.17	2297.82
873.33	2336.73
873.50	2256.86
873.67	2285.53
873.83	2133.98
874.00	2209.76
874.16	2256.86
874.33	2222.05
874.50	2111.46
874.66	2162.66
874.83	2197.47
875.00	2404.32
875.16	2340.83
875.33	2240.48
875.50	2033.63
875.66	2160.61
875.83	2242.53
875.99	2246.62
876.16	2185.18
876.33	2103.26
876.49	2213.85
876.66	2244.57
876.83	2248.67
876.99	2113.50
877.16	2232.29
877.32	2275.29
877.49	2215.90
877.66	2293.72
877.82	2342.88
877.99	2242.53
878.15	2342.88
878.32	2303.96
878.49	2211.81
878.65	2285.53
878.82	2310.11
878.98	2209.76
879.15	2322.40
879.32	2322.40
879.48	2269.15
879.65	2201.57
879.81	2125.79
879.98	2205.66
880.15	2215.90
880.31	2334.68
880.48	2252.77
880.64	2215.90
880.81	2308.06
880.97	2369.50
881.14	2326.49
881.31	2195.42
881.47	2404.32
881.64	2236.38
881.80	2088.93
881.97	2197.47
882.13	2281.44
882.30	2181.09
882.47	2187.23
882.63	2138.08
882.80	2084.83
882.96	2185.18
883.13	2408.41
883.29	2236.38
883.46	2203.61
883.62	2461.66
883.79	2310.11
883.95	2324.44
884.12	2144.22
884.29	2353.12
884.45	2217.95
884.62	2265.05
884.78	2138.08
884.95	2381.79
885.11	2129.89
885.28	2234.33
885.44	2154.46
885.61	2248.67
885.77	2383.84
885.94	2303.96
886.10	2191.33
886.27	2318.30
886.43	2406.36
886.60	2365.40
886.76	2215.90
886.93	2076.64
887.09	2281.44
887.26	2101.22
887.42	2193.37
887.59	2375.64
887.75	2367.45
887.92	2346.97
888.08	2320.35
888.25	2441.18
888.41	2342.88
888.58	2242.53
888.74	2076.64
888.91	2183.13
>>>>>End Processed Spectral Data<<<<<
