SpectraSuite Data File
++++++++++++++++++++++++++++++++++++
Date: Thu May 05 13:21:14 CEST 2016
User: root
Dark Spectrum Present: No
Reference Spectrum Present: No
Number of Sampled Component Spectra: 1
Spectrometers: USB4C02835
Integration Time (usec): 100000 (USB4C02835)
Spectra Averaged: 1 (USB4C02835)
Boxcar Smoothing: 0 (USB4C02835)
Correct for Electrical Dark: No (USB4C02835)
Strobe/Lamp Enabled: No (USB4C02835)
Correct for Detector Non-linearity: No (USB4C02835)
Correct for Stray Light: No (USB4C02835)
Number of Pixels in Processed Spectrum: 3648
>>>>>Begin Processed Spectral Data<<<<<
177.47	1830.88
177.69	1830.88
177.91	1830.88
178.13	1781.73
178.36	1757.16
178.58	2152.42
178.80	2299.87
179.02	2131.94
179.24	2160.61
179.46	2127.84
179.68	2160.61
179.90	2220.00
180.13	2271.20
180.35	2095.07
180.57	2172.89
180.79	2334.68
181.01	2269.15
181.23	2236.38
181.45	2326.49
181.67	2293.72
181.90	2269.15
182.12	2187.23
182.34	2088.93
182.56	2379.74
182.78	2203.61
183.00	2162.66
183.22	2172.89
183.44	2107.36
183.66	2531.29
183.89	2269.15
184.11	2176.99
184.33	2273.25
184.55	2394.08
184.77	2168.80
184.99	2170.85
185.21	2125.79
185.43	2469.85
185.65	2133.98
185.87	2121.70
186.10	2396.12
186.32	2437.08
186.54	2187.23
186.76	2224.09
186.98	2297.82
187.20	2258.91
187.42	2174.94
187.64	2158.56
187.86	2267.10
188.08	2357.21
188.30	2054.11
188.52	2203.61
188.75	2389.98
188.97	2344.92
189.19	2152.42
189.41	2146.27
189.63	2326.49
189.85	2160.61
190.07	2111.46
190.29	2066.40
190.51	2240.48
190.73	2045.92
190.95	2326.49
191.17	2152.42
191.39	2129.89
191.61	2260.96
191.84	2119.65
192.06	2197.47
192.28	2117.60
192.50	2539.48
192.72	2199.52
192.94	2238.43
193.16	2398.17
193.38	2260.96
193.60	2111.46
193.82	2273.25
194.04	2367.45
194.26	2226.14
194.48	2222.05
194.70	2176.99
194.92	2242.53
195.14	2242.53
195.36	2183.13
195.58	2351.07
195.80	2283.49
196.02	2189.28
196.24	2125.79
196.46	2205.66
196.69	2232.29
196.91	2539.48
197.13	2111.46
197.35	2279.39
197.57	2402.27
197.79	2258.91
198.01	2303.96
198.23	2250.72
198.45	2299.87
198.67	2170.85
198.89	2111.46
199.11	2164.70
199.33	2183.13
199.55	2013.15
199.77	2146.27
199.99	2263.01
200.21	2211.81
200.43	2230.24
200.65	2080.74
200.87	2019.30
201.09	2254.81
201.31	2242.53
201.53	2211.81
201.75	2181.09
201.97	2228.19
202.19	2244.57
202.41	2267.10
202.63	2365.40
202.85	2295.77
203.07	2308.06
203.29	2185.18
203.51	2176.99
203.73	2224.09
203.95	2494.43
204.17	2138.08
204.39	2183.13
204.61	2301.92
204.83	2230.24
205.05	2271.20
205.27	2183.13
205.49	2441.18
205.71	2256.86
205.93	2176.99
206.15	2095.07
206.37	2330.59
206.59	2269.15
206.81	2095.07
207.03	2109.41
207.25	2162.66
207.47	2344.92
207.69	2172.89
207.91	2353.12
208.13	2400.22
208.34	2170.85
208.56	2127.84
208.78	2203.61
209.00	2220.00
209.22	2236.38
209.44	2127.84
209.66	2158.56
209.88	2244.57
210.10	2140.13
210.32	2154.46
210.54	2306.01
210.76	2267.10
210.98	2349.02
211.20	2054.11
211.42	2189.28
211.64	2385.88
211.86	2285.53
212.08	2189.28
212.30	2220.00
212.52	2273.25
212.74	2260.96
212.96	2273.25
213.17	2211.81
213.39	2363.36
213.61	2400.22
213.83	2138.08
214.05	2140.13
214.27	2318.30
214.49	2093.02
214.71	2105.31
214.93	2277.34
215.15	2252.77
215.37	2312.16
215.59	2088.93
215.81	2162.66
216.03	2355.16
216.24	2232.29
216.46	2217.95
216.68	2199.52
216.90	2367.45
217.12	2357.21
217.34	2113.50
217.56	2308.06
217.78	2301.92
218.00	2367.45
218.22	2189.28
218.44	2230.24
218.66	2260.96
218.87	2463.71
219.09	2142.18
219.31	2209.76
219.53	2316.25
219.75	2277.34
219.97	2211.81
220.19	2224.09
220.41	2258.91
220.63	2377.69
220.85	2277.34
221.06	2164.70
221.28	2422.75
221.50	2334.68
221.72	2174.94
221.94	2088.93
222.16	2244.57
222.38	2330.59
222.60	2191.33
222.82	2140.13
223.03	2414.56
223.25	2144.22
223.47	2244.57
223.69	2310.11
223.91	2371.55
224.13	2306.01
224.35	2144.22
224.57	2289.63
224.78	2246.62
225.00	2220.00
225.22	2154.46
225.44	2148.32
225.66	2293.72
225.88	2154.46
226.10	2248.67
226.32	2185.18
226.53	2387.93
226.75	2258.91
226.97	2201.57
227.19	2156.51
227.41	2199.52
227.63	2193.37
227.85	2033.63
228.06	2238.43
228.28	2275.29
228.50	2324.44
228.72	2015.20
228.94	2209.76
229.16	2129.89
229.37	2101.22
229.59	2176.99
229.81	2332.64
230.03	2211.81
230.25	2170.85
230.47	2023.39
230.69	2043.87
230.90	2334.68
231.12	2187.23
231.34	2199.52
231.56	2199.52
231.78	2203.61
232.00	2281.44
232.21	2232.29
232.43	2156.51
232.65	2066.40
232.87	2306.01
233.09	2111.46
233.30	2119.65
233.52	2277.34
233.74	2242.53
233.96	2148.32
234.18	2267.10
234.40	2211.81
234.61	2564.06
234.83	2138.08
235.05	2136.03
235.27	2510.81
235.49	2355.16
235.70	2142.18
235.92	2297.82
236.14	2295.77
236.36	2627.54
236.58	2121.70
236.79	2260.96
237.01	2308.06
237.23	2338.78
237.45	2271.20
237.67	2129.89
237.88	2324.44
238.10	2396.12
238.32	2166.75
238.54	2146.27
238.76	2209.76
238.97	2260.96
239.19	2205.66
239.41	2211.81
239.63	2342.88
239.85	2203.61
240.06	2185.18
240.28	2217.95
240.50	2400.22
240.72	2183.13
240.93	2170.85
241.15	2232.29
241.37	2254.81
241.59	2383.84
241.81	2252.77
242.02	2133.98
242.24	2301.92
242.46	2269.15
242.68	2131.94
242.89	2183.13
243.11	2322.40
243.33	2226.14
243.55	2176.99
243.76	2256.86
243.98	2203.61
244.20	2234.33
244.42	2207.71
244.64	2211.81
244.85	2072.54
245.07	2129.89
245.29	2273.25
245.51	2242.53
245.72	2234.33
245.94	2359.26
246.16	2252.77
246.38	2254.81
246.59	2181.09
246.81	2183.13
247.03	2166.75
247.24	2060.26
247.46	2160.61
247.68	2232.29
247.90	2109.41
248.11	2095.07
248.33	2267.10
248.55	2277.34
248.77	2248.67
248.98	2148.32
249.20	2457.56
249.42	2244.57
249.64	2193.37
249.85	2140.13
250.07	2189.28
250.29	2260.96
250.50	2273.25
250.72	2062.30
250.94	2275.29
251.16	2488.28
251.37	2293.72
251.59	2273.25
251.81	2271.20
252.02	2416.60
252.24	2127.84
252.46	2334.68
252.68	2170.85
252.89	2240.48
253.11	2078.69
253.33	2246.62
253.54	2406.36
253.76	2113.50
253.98	2156.51
254.20	2170.85
254.41	2095.07
254.63	2166.75
254.85	2105.31
255.06	2187.23
255.28	2279.39
255.50	2285.53
255.71	2142.18
255.93	2023.39
256.15	2195.42
256.36	2295.77
256.58	2115.55
256.80	2238.43
257.02	2179.04
257.23	2197.47
257.45	2230.24
257.67	2265.05
257.88	2222.05
258.10	2236.38
258.32	2160.61
258.53	2260.96
258.75	2400.22
258.97	2209.76
259.18	2172.89
259.40	2150.37
259.62	2394.08
259.83	2328.54
260.05	2222.05
260.27	2719.70
260.48	2328.54
260.70	2154.46
260.92	2176.99
261.13	2170.85
261.35	2226.14
261.57	2338.78
261.78	2041.82
262.00	2162.66
262.22	2324.44
262.43	2076.64
262.65	2195.42
262.86	2156.51
263.08	2490.33
263.30	2226.14
263.51	2097.12
263.73	2142.18
263.95	2392.03
264.16	2154.46
264.38	2047.97
264.60	2144.22
264.81	2199.52
265.03	2326.49
265.25	2297.82
265.46	2195.42
265.68	2359.26
265.89	2359.26
266.11	2101.22
266.33	2277.34
266.54	2256.86
266.76	2285.53
266.98	2203.61
267.19	2211.81
267.41	2373.60
267.62	2195.42
267.84	1966.05
268.06	2236.38
268.27	2340.83
268.49	2361.31
268.70	2215.90
268.92	2109.41
269.14	2203.61
269.35	2154.46
269.57	2195.42
269.79	2195.42
270.00	2164.70
270.22	2398.17
270.43	2154.46
270.65	2015.20
270.87	2224.09
271.08	2238.43
271.30	2281.44
271.51	2258.91
271.73	2359.26
271.95	2441.18
272.16	2242.53
272.38	2256.86
272.59	2234.33
272.81	2271.20
273.02	2203.61
273.24	2293.72
273.46	2371.55
273.67	2144.22
273.89	2011.11
274.10	2158.56
274.32	2328.54
274.54	2301.92
274.75	2275.29
274.97	2232.29
275.18	2299.87
275.40	2316.25
275.61	2146.27
275.83	2252.77
276.05	2156.51
276.26	2281.44
276.48	2260.96
276.69	2156.51
276.91	2236.38
277.12	2367.45
277.34	2316.25
277.55	2392.03
277.77	2293.72
277.99	2289.63
278.20	2150.37
278.42	2123.74
278.63	2127.84
278.85	2142.18
279.06	2170.85
279.28	2226.14
279.49	2373.60
279.71	2377.69
279.93	2191.33
280.14	2256.86
280.36	2193.37
280.57	2308.06
280.79	2291.68
281.00	2097.12
281.22	2195.42
281.43	2357.21
281.65	2095.07
281.86	2121.70
282.08	2273.25
282.29	2361.31
282.51	2170.85
282.73	2166.75
282.94	2125.79
283.16	2381.79
283.37	2400.22
283.59	2215.90
283.80	2351.07
284.02	2275.29
284.23	2293.72
284.45	2220.00
284.66	2252.77
284.88	2160.61
285.09	2228.19
285.31	2326.49
285.52	2324.44
285.74	2080.74
285.95	2291.68
286.17	2252.77
286.38	2322.40
286.60	2193.37
286.81	2250.72
287.03	2201.57
287.24	2234.33
287.46	2244.57
287.67	2158.56
287.89	2404.32
288.10	2224.09
288.32	2217.95
288.53	2383.84
288.75	2240.48
288.96	2316.25
289.18	2117.60
289.39	2146.27
289.61	2252.77
289.82	2412.51
290.04	2416.60
290.25	2074.59
290.47	2140.13
290.68	2330.59
290.90	2295.77
291.11	2127.84
291.33	2285.53
291.54	2203.61
291.76	2170.85
291.97	2287.58
292.18	2285.53
292.40	2199.52
292.61	2203.61
292.83	2473.95
293.04	2176.99
293.26	2291.68
293.47	2201.57
293.69	2088.93
293.90	2088.93
294.12	2359.26
294.33	2230.24
294.55	2228.19
294.76	2291.68
294.97	2408.41
295.19	2473.95
295.40	2189.28
295.62	2254.81
295.83	2363.36
296.05	2131.94
296.26	2258.91
296.48	2113.50
296.69	2215.90
296.90	2150.37
297.12	2322.40
297.33	2340.83
297.55	2187.23
297.76	2318.30
297.98	2283.49
298.19	2318.30
298.41	2342.88
298.62	2179.04
298.83	2328.54
299.05	2226.14
299.26	2176.99
299.48	2164.70
299.69	2318.30
299.90	2222.05
300.12	2195.42
300.33	2330.59
300.55	2252.77
300.76	2279.39
300.98	2176.99
301.19	2346.97
301.40	2150.37
301.62	2142.18
301.83	2273.25
302.05	2226.14
302.26	2236.38
302.47	2273.25
302.69	2123.74
302.90	2252.77
303.12	2076.64
303.33	2326.49
303.54	2508.76
303.76	2273.25
303.97	2203.61
304.19	2375.64
304.40	2166.75
304.61	2199.52
304.83	2414.56
305.04	2299.87
305.26	2330.59
305.47	2203.61
305.68	2211.81
305.90	2144.22
306.11	2375.64
306.33	2240.48
306.54	2166.75
306.75	2121.70
306.97	2136.03
307.18	2230.24
307.39	2172.89
307.61	2377.69
307.82	2193.37
308.04	2244.57
308.25	2181.09
308.46	2256.86
308.68	2248.67
308.89	2289.63
309.10	2338.78
309.32	2346.97
309.53	2179.04
309.74	2283.49
309.96	2129.89
310.17	2291.68
310.39	2252.77
310.60	2320.35
310.81	2310.11
311.03	2117.60
311.24	2357.21
311.45	2232.29
311.67	2326.49
311.88	2234.33
312.09	2138.08
312.31	2191.33
312.52	2236.38
312.73	2164.70
312.95	2103.26
313.16	2101.22
313.37	2375.64
313.59	2303.96
313.80	2326.49
314.01	2412.51
314.23	2211.81
314.44	2172.89
314.65	2172.89
314.87	2164.70
315.08	2232.29
315.29	2211.81
315.51	2209.76
315.72	2146.27
315.93	2301.92
316.15	2306.01
316.36	2226.14
316.57	2256.86
316.79	2254.81
317.00	2162.66
317.21	2342.88
317.43	2203.61
317.64	2277.34
317.85	2121.70
318.07	2209.76
318.28	2281.44
318.49	2330.59
318.70	2523.10
318.92	2326.49
319.13	2471.90
319.34	2422.75
319.56	2316.25
319.77	2320.35
319.98	2398.17
320.20	2365.40
320.41	2230.24
320.62	2332.64
320.83	2154.46
321.05	2430.94
321.26	2301.92
321.47	2193.37
321.69	2367.45
321.90	2109.41
322.11	2105.31
322.32	2287.58
322.54	2396.12
322.75	2211.81
322.96	2537.43
323.18	2105.31
323.39	2078.69
323.60	2195.42
323.81	2334.68
324.03	2185.18
324.24	2248.67
324.45	2287.58
324.66	2199.52
324.88	2398.17
325.09	2439.13
325.30	2162.66
325.52	2207.71
325.73	2236.38
325.94	2185.18
326.15	2070.50
326.37	2136.03
326.58	2383.84
326.79	2371.55
327.00	2211.81
327.22	2242.53
327.43	2224.09
327.64	2185.18
327.85	2314.20
328.07	2242.53
328.28	2426.84
328.49	2199.52
328.70	2318.30
328.92	2226.14
329.13	2215.90
329.34	2308.06
329.55	2389.98
329.76	2357.21
329.98	2217.95
330.19	2451.42
330.40	2248.67
330.61	2277.34
330.83	2285.53
331.04	2168.80
331.25	2248.67
331.46	2207.71
331.68	2095.07
331.89	2432.99
332.10	2299.87
332.31	2105.31
332.52	2248.67
332.74	2332.64
332.95	2097.12
333.16	2265.05
333.37	2379.74
333.58	2258.91
333.80	2289.63
334.01	2133.98
334.22	2271.20
334.43	2166.75
334.64	2183.13
334.86	2127.84
335.07	2277.34
335.28	2414.56
335.49	2064.35
335.70	2277.34
335.92	2457.56
336.13	2353.12
336.34	2281.44
336.55	2244.57
336.76	2342.88
336.98	2045.92
337.19	2193.37
337.40	2424.80
337.61	2519.00
337.82	2168.80
338.04	2252.77
338.25	2101.22
338.46	2263.01
338.67	2199.52
338.88	2217.95
339.09	2140.13
339.31	2158.56
339.52	2191.33
339.73	2146.27
339.94	2236.38
340.15	2383.84
340.36	2220.00
340.58	2211.81
340.79	2215.90
341.00	2293.72
341.21	2168.80
341.42	2465.75
341.63	2224.09
341.85	2314.20
342.06	2244.57
342.27	2121.70
342.48	2248.67
342.69	2074.59
342.90	2338.78
343.12	2328.54
343.33	2244.57
343.54	2267.10
343.75	2404.32
343.96	2168.80
344.17	2193.37
344.38	2224.09
344.60	2209.76
344.81	2281.44
345.02	2232.29
345.23	2392.03
345.44	2455.51
345.65	2220.00
345.86	2322.40
346.07	2269.15
346.29	2228.19
346.50	2275.29
346.71	2211.81
346.92	2363.36
347.13	2465.75
347.34	2281.44
347.55	2183.13
347.76	2332.64
347.98	2158.56
348.19	2187.23
348.40	2303.96
348.61	2154.46
348.82	2510.81
349.03	2316.25
349.24	2142.18
349.45	2469.85
349.66	2119.65
349.88	2277.34
350.09	2207.71
350.30	2406.36
350.51	2439.13
350.72	2281.44
350.93	2271.20
351.14	2146.27
351.35	2355.16
351.56	2197.47
351.77	2226.14
351.99	2279.39
352.20	2342.88
352.41	2293.72
352.62	2068.45
352.83	2269.15
353.04	2197.47
353.25	2244.57
353.46	2236.38
353.67	2318.30
353.88	2029.54
354.09	2242.53
354.30	2195.42
354.52	2340.83
354.73	2281.44
354.94	2195.42
355.15	2201.57
355.36	2443.23
355.57	2236.38
355.78	2250.72
355.99	2240.48
356.20	2224.09
356.41	2445.27
356.62	2310.11
356.83	2248.67
357.04	2426.84
357.25	2156.51
357.46	2181.09
357.68	2111.46
357.89	2101.22
358.10	2260.96
358.31	2277.34
358.52	2240.48
358.73	2129.89
358.94	2078.69
359.15	2217.95
359.36	2240.48
359.57	2201.57
359.78	2252.77
359.99	2357.21
360.20	2111.46
360.41	2226.14
360.62	2275.29
360.83	2252.77
361.04	2236.38
361.25	2293.72
361.46	2383.84
361.67	2236.38
361.88	2285.53
362.09	2320.35
362.30	2248.67
362.51	2152.42
362.72	2230.24
362.93	2297.82
363.14	2250.72
363.35	2258.91
363.56	2090.98
363.78	2338.78
363.99	2297.82
364.20	2115.55
364.41	2269.15
364.62	2443.23
364.83	2203.61
365.04	2234.33
365.25	2201.57
365.46	2482.14
365.67	2236.38
365.88	2205.66
366.09	2152.42
366.30	2168.80
366.51	2312.16
366.72	2172.89
366.93	2263.01
367.14	2328.54
367.35	2389.98
367.56	2248.67
367.77	2269.15
367.98	2273.25
368.18	2322.40
368.39	2256.86
368.60	2170.85
368.81	2375.64
369.02	2295.77
369.23	2201.57
369.44	2127.84
369.65	2209.76
369.86	2330.59
370.07	2301.92
370.28	2152.42
370.49	2314.20
370.70	2340.83
370.91	2154.46
371.12	2152.42
371.33	2375.64
371.54	2209.76
371.75	2400.22
371.96	2031.58
372.17	2303.96
372.38	2228.19
372.59	2297.82
372.80	2166.75
373.01	2248.67
373.22	2334.68
373.43	2267.10
373.64	2119.65
373.85	2383.84
374.06	2357.21
374.26	2299.87
374.47	2201.57
374.68	2451.42
374.89	2293.72
375.10	2170.85
375.31	2250.72
375.52	2248.67
375.73	2301.92
375.94	2152.42
376.15	2377.69
376.36	2136.03
376.57	2269.15
376.78	2101.22
376.99	2303.96
377.20	2420.70
377.40	2213.85
377.61	2404.32
377.82	2179.04
378.03	2465.75
378.24	2428.89
378.45	2250.72
378.66	2279.39
378.87	2109.41
379.08	2146.27
379.29	2146.27
379.50	2320.35
379.71	2258.91
379.91	2293.72
380.12	2228.19
380.33	2279.39
380.54	2183.13
380.75	2269.15
380.96	2232.29
381.17	2346.97
381.38	2301.92
381.59	2324.44
381.80	2252.77
382.00	2449.37
382.21	2320.35
382.42	2385.88
382.63	2551.77
382.84	2320.35
383.05	2412.51
383.26	2396.12
383.47	2332.64
383.68	2265.05
383.88	2336.73
384.09	2277.34
384.30	2365.40
384.51	2217.95
384.72	2205.66
384.93	2187.23
385.14	2193.37
385.35	2326.49
385.55	2062.30
385.76	2285.53
385.97	2250.72
386.18	2105.31
386.39	2258.91
386.60	2269.15
386.81	2248.67
387.02	2144.22
387.22	2213.85
387.43	2267.10
387.64	2373.60
387.85	2383.84
388.06	2418.65
388.27	3936.20
388.48	8161.16
388.68	11603.79
388.89	13889.32
389.10	14958.36
389.31	13915.95
389.52	10897.24
389.73	9428.85
389.93	8578.94
390.14	7989.13
390.35	7067.54
390.56	6217.63
390.77	5402.54
390.98	4118.47
391.18	3268.56
391.39	2815.96
391.60	2416.60
391.81	2400.22
392.02	2269.15
392.23	2568.15
392.43	2394.08
392.64	2353.12
392.85	2281.44
393.06	2383.84
393.27	2336.73
393.47	2174.94
393.68	2230.24
393.89	2201.57
394.10	2344.92
394.31	2187.23
394.52	2185.18
394.72	2179.04
394.93	2432.99
395.14	2179.04
395.35	2297.82
395.56	2195.42
395.76	2267.10
395.97	2283.49
396.18	2357.21
396.39	2381.79
396.60	2754.52
396.80	2516.95
397.01	2471.90
397.22	2465.75
397.43	2475.99
397.64	2320.35
397.84	2277.34
398.05	2547.67
398.26	2277.34
398.47	2258.91
398.67	2297.82
398.88	2277.34
399.09	2306.01
399.30	2248.67
399.51	2355.16
399.71	2195.42
399.92	2256.86
400.13	2295.77
400.34	2230.24
400.54	2277.34
400.75	2392.03
400.96	2285.53
401.17	2461.66
401.37	2338.78
401.58	2308.06
401.79	2265.05
402.00	2365.40
402.21	2588.63
402.41	2465.75
402.62	2551.77
402.83	2660.31
403.04	2658.26
403.24	2928.60
403.45	2428.89
403.66	2498.52
403.87	2473.95
404.07	2506.71
404.28	2469.85
404.49	2482.14
404.70	2201.57
404.90	2355.16
405.11	2279.39
405.32	2396.12
405.52	2258.91
405.73	2176.99
405.94	2189.28
406.15	2220.00
406.35	2361.31
406.56	2260.96
406.77	2242.53
406.98	2252.77
407.18	2168.80
407.39	2420.70
407.60	2250.72
407.80	2316.25
408.01	2326.49
408.22	2310.11
408.43	2203.61
408.63	2265.05
408.84	2344.92
409.05	2367.45
409.25	2205.66
409.46	2240.48
409.67	2174.94
409.88	2140.13
410.08	2252.77
410.29	2176.99
410.50	2346.97
410.70	2346.97
410.91	2217.95
411.12	2244.57
411.32	2291.68
411.53	2164.70
411.74	2365.40
411.95	2375.64
412.15	2287.58
412.36	2367.45
412.57	2326.49
412.77	2392.03
412.98	2263.01
413.19	2199.52
413.39	2351.07
413.60	2297.82
413.81	2342.88
414.01	2160.61
414.22	2287.58
414.43	2258.91
414.63	2248.67
414.84	2379.74
415.05	2293.72
415.25	2131.94
415.46	2351.07
415.67	2244.57
415.87	2209.76
416.08	2203.61
416.29	2232.29
416.49	2310.11
416.70	2332.64
416.91	2224.09
417.11	2222.05
417.32	2349.02
417.53	2375.64
417.73	2285.53
417.94	2234.33
418.15	2285.53
418.35	2181.09
418.56	2232.29
418.77	2432.99
418.97	2316.25
419.18	2172.89
419.38	2041.82
419.59	2201.57
419.80	2392.03
420.00	2236.38
420.21	2318.30
420.42	2387.93
420.62	2273.25
420.83	2140.13
421.04	2220.00
421.24	2209.76
421.45	2373.60
421.65	2248.67
421.86	2211.81
422.07	2291.68
422.27	2226.14
422.48	2265.05
422.69	2164.70
422.89	2254.81
423.10	2220.00
423.30	2095.07
423.51	2295.77
423.72	2285.53
423.92	2357.21
424.13	2138.08
424.33	2254.81
424.54	2367.45
424.75	2297.82
424.95	2457.56
425.16	2293.72
425.36	2248.67
425.57	2367.45
425.78	2340.83
425.98	2400.22
426.19	2252.77
426.39	2166.75
426.60	2232.29
426.81	2353.12
427.01	2338.78
427.22	2187.23
427.42	2158.56
427.63	2136.03
427.83	2349.02
428.04	2422.75
428.25	2342.88
428.45	2275.29
428.66	2367.45
428.86	2285.53
429.07	2252.77
429.28	2260.96
429.48	2195.42
429.69	2144.22
429.89	2232.29
430.10	2111.46
430.30	2330.59
430.51	2330.59
430.71	2191.33
430.92	2234.33
431.13	2170.85
431.33	2342.88
431.54	2267.10
431.74	2447.32
431.95	2465.75
432.15	2023.39
432.36	2226.14
432.56	2314.20
432.77	2523.10
432.98	2367.45
433.18	2299.87
433.39	2191.33
433.59	2215.90
433.80	2457.56
434.00	2449.37
434.21	2244.57
434.41	2113.50
434.62	2570.20
434.82	2176.99
435.03	2193.37
435.23	2328.54
435.44	2103.26
435.64	2224.09
435.85	2244.57
436.06	2367.45
436.26	2326.49
436.47	2238.43
436.67	2138.08
436.88	2236.38
437.08	2357.21
437.29	2379.74
437.49	2306.01
437.70	2381.79
437.90	2271.20
438.11	2377.69
438.31	2297.82
438.52	2465.75
438.72	2465.75
438.93	2539.48
439.13	2353.12
439.34	2508.76
439.54	2199.52
439.75	2326.49
439.95	2297.82
440.16	2199.52
440.36	2328.54
440.57	2267.10
440.77	2254.81
440.98	2258.91
441.18	2365.40
441.39	2203.61
441.59	2138.08
441.80	2482.14
442.00	2273.25
442.21	2355.16
442.41	2152.42
442.62	2301.92
442.82	2199.52
443.02	2267.10
443.23	2234.33
443.43	2314.20
443.64	2357.21
443.84	2179.04
444.05	2439.13
444.25	2287.58
444.46	2230.24
444.66	2207.71
444.87	2381.79
445.07	2113.50
445.28	2260.96
445.48	2402.27
445.69	2367.45
445.89	2559.96
446.09	2230.24
446.30	2602.97
446.50	2834.39
446.71	4423.61
446.91	5463.98
447.12	6268.83
447.32	6721.43
447.53	6246.30
447.73	5175.22
447.93	4552.63
448.14	4229.06
448.34	4011.97
448.55	3676.10
448.75	3487.69
448.96	3454.92
449.16	2979.79
449.36	2916.31
449.57	2514.91
449.77	2451.42
449.98	2328.54
450.18	2326.49
450.39	2310.11
450.59	2359.26
450.79	2232.29
451.00	2154.46
451.20	2389.98
451.41	2199.52
451.61	2281.44
451.81	2414.56
452.02	2277.34
452.22	2205.66
452.43	2234.33
452.63	2207.71
452.84	2271.20
453.04	2256.86
453.24	2244.57
453.45	2113.50
453.65	2211.81
453.86	2357.21
454.06	2326.49
454.26	2271.20
454.47	2119.65
454.67	2418.65
454.87	2281.44
455.08	2250.72
455.28	2432.99
455.49	2297.82
455.69	2273.25
455.89	2453.47
456.10	2392.03
456.30	2222.05
456.51	2303.96
456.71	2322.40
456.91	2232.29
457.12	2258.91
457.32	2303.96
457.52	2158.56
457.73	2373.60
457.93	2301.92
458.14	2244.57
458.34	2109.41
458.54	2299.87
458.75	2183.13
458.95	2408.41
459.15	2314.20
459.36	2289.63
459.56	2322.40
459.76	2531.29
459.97	2236.38
460.17	2220.00
460.37	2353.12
460.58	2250.72
460.78	2314.20
460.99	2277.34
461.19	2252.77
461.39	2240.48
461.60	2236.38
461.80	2369.50
462.00	2168.80
462.21	2293.72
462.41	2174.94
462.61	2162.66
462.82	2080.74
463.02	2332.64
463.22	2267.10
463.43	2412.51
463.63	2271.20
463.83	2424.80
464.04	2285.53
464.24	2269.15
464.44	2181.09
464.64	2318.30
464.85	2299.87
465.05	2387.93
465.25	2287.58
465.46	2217.95
465.66	2340.83
465.86	2289.63
466.07	2217.95
466.27	2277.34
466.47	2160.61
466.68	2121.70
466.88	2396.12
467.08	2346.97
467.29	2346.97
467.49	2316.25
467.69	2291.68
467.89	2308.06
468.10	2250.72
468.30	2324.44
468.50	2412.51
468.71	2322.40
468.91	2115.55
469.11	2381.79
469.31	2269.15
469.52	2250.72
469.72	2396.12
469.92	2428.89
470.13	2183.13
470.33	2318.30
470.53	2400.22
470.73	2578.39
470.94	2983.89
471.14	3137.49
471.34	3590.09
471.54	3325.90
471.75	3041.23
471.95	2842.58
472.15	2766.81
472.36	2736.09
472.56	2729.94
472.76	2674.65
472.96	2609.11
473.17	2564.06
473.37	2537.43
473.57	2299.87
473.77	2367.45
473.98	2340.83
474.18	2162.66
474.38	2574.30
474.58	2258.91
474.79	2236.38
474.99	2314.20
475.19	2301.92
475.39	2191.33
475.60	2244.57
475.80	2179.04
476.00	2373.60
476.20	2232.29
476.41	2267.10
476.61	2306.01
476.81	2375.64
477.01	2181.09
477.21	2465.75
477.42	2449.37
477.62	2252.77
477.82	2306.01
478.02	2258.91
478.23	2310.11
478.43	2191.33
478.63	2314.20
478.83	2240.48
479.03	2211.81
479.24	2412.51
479.44	2494.43
479.64	2258.91
479.84	2097.12
480.04	2121.70
480.25	2367.45
480.45	2199.52
480.65	2256.86
480.85	2402.27
481.06	2166.75
481.26	2265.05
481.46	2265.05
481.66	2207.71
481.86	2166.75
482.06	2328.54
482.27	2252.77
482.47	2170.85
482.67	2363.36
482.87	2203.61
483.07	2414.56
483.28	2129.89
483.48	2170.85
483.68	2258.91
483.88	2191.33
484.08	2058.21
484.29	2156.51
484.49	2293.72
484.69	2115.55
484.89	2381.79
485.09	2355.16
485.29	2387.93
485.50	2293.72
485.70	2338.78
485.90	2428.89
486.10	2226.14
486.30	2314.20
486.50	2396.12
486.71	2357.21
486.91	2299.87
487.11	2359.26
487.31	2154.46
487.51	2303.96
487.71	2191.33
487.91	2146.27
488.12	2113.50
488.32	2076.64
488.52	2195.42
488.72	2015.20
488.92	2236.38
489.12	2267.10
489.32	2334.68
489.53	2295.77
489.73	2084.83
489.93	2424.80
490.13	2224.09
490.33	2109.41
490.53	2236.38
490.73	2439.13
490.94	2150.37
491.14	2275.29
491.34	2322.40
491.54	2564.06
491.74	3207.12
491.94	3798.98
492.14	4038.59
492.34	4095.94
492.54	3813.32
492.75	3184.59
492.95	3196.88
493.15	3041.23
493.35	2910.16
493.55	2826.20
493.75	2764.76
493.95	2695.13
494.15	2455.51
494.35	2441.18
494.56	2189.28
494.76	2283.49
494.96	2285.53
495.16	2277.34
495.36	2283.49
495.56	2269.15
495.76	2269.15
495.96	2217.95
496.16	2162.66
496.36	2389.98
496.56	2316.25
496.77	2236.38
496.97	2263.01
497.17	2379.74
497.37	2095.07
497.57	2342.88
497.77	2332.64
497.97	2220.00
498.17	2195.42
498.37	2191.33
498.57	2334.68
498.77	2170.85
498.97	2387.93
499.17	2316.25
499.38	2289.63
499.58	2412.51
499.78	2287.58
499.98	2392.03
500.18	2244.57
500.38	2136.03
500.58	2375.64
500.78	2881.49
500.98	5081.01
501.18	7061.40
501.38	8900.47
501.58	9678.70
501.78	9502.58
501.98	7702.41
502.18	6356.90
502.38	5361.58
502.58	5025.72
502.78	4511.68
502.98	4511.68
503.18	4243.39
503.38	3923.91
503.59	3436.49
503.79	3221.45
503.99	2961.36
504.19	2785.24
504.39	2803.67
504.59	2854.87
504.79	2797.53
504.99	2824.15
505.19	2594.78
505.39	2488.28
505.59	2629.59
505.79	2572.25
505.99	2523.10
506.19	2332.64
506.39	2473.95
506.59	2168.80
506.79	2232.29
506.99	2449.37
507.19	2273.25
507.39	2277.34
507.59	2162.66
507.79	2113.50
507.99	2170.85
508.19	2250.72
508.39	2144.22
508.59	2203.61
508.79	2389.98
508.99	2432.99
509.19	2215.90
509.39	2260.96
509.59	2179.04
509.79	2174.94
509.99	2220.00
510.19	2359.26
510.39	2363.36
510.59	2228.19
510.79	2224.09
510.99	2115.55
511.19	2351.07
511.39	2377.69
511.59	2334.68
511.79	2322.40
511.99	2238.43
512.19	2432.99
512.38	2234.33
512.58	2228.19
512.78	2191.33
512.98	2447.32
513.18	2441.18
513.38	2211.81
513.58	2342.88
513.78	2299.87
513.98	2363.36
514.18	2250.72
514.38	2185.18
514.58	2357.21
514.78	2187.23
514.98	2240.48
515.18	2236.38
515.38	2189.28
515.58	2432.99
515.78	2207.71
515.98	2287.58
516.18	2326.49
516.38	2234.33
516.57	2211.81
516.77	2174.94
516.97	2418.65
517.17	2238.43
517.37	2113.50
517.57	2355.16
517.77	2220.00
517.97	2246.62
518.17	2258.91
518.37	2189.28
518.57	2209.76
518.77	2201.57
518.97	2234.33
519.16	2279.39
519.36	2289.63
519.56	2201.57
519.76	2199.52
519.96	2299.87
520.16	2326.49
520.36	2160.61
520.56	2338.78
520.76	2277.34
520.96	2224.09
521.16	2385.88
521.35	2346.97
521.55	2338.78
521.75	2314.20
521.95	2185.18
522.15	2146.27
522.35	2154.46
522.55	2250.72
522.75	2383.84
522.95	2271.20
523.14	2133.98
523.34	2265.05
523.54	2125.79
523.74	2371.55
523.94	2269.15
524.14	2127.84
524.34	2295.77
524.54	2482.14
524.73	2205.66
524.93	2324.44
525.13	2297.82
525.33	2133.98
525.53	2461.66
525.73	2353.12
525.93	2330.59
526.13	2176.99
526.32	2234.33
526.52	2342.88
526.72	2367.45
526.92	2269.15
527.12	2201.57
527.32	2121.70
527.52	2334.68
527.71	2297.82
527.91	2277.34
528.11	2185.18
528.31	2224.09
528.51	2211.81
528.71	2303.96
528.90	2349.02
529.10	2367.45
529.30	2361.31
529.50	2133.98
529.70	2306.01
529.90	2289.63
530.09	2269.15
530.29	2207.71
530.49	2125.79
530.69	2592.73
530.89	2267.10
531.09	2340.83
531.28	2136.03
531.48	2435.03
531.68	2314.20
531.88	2246.62
532.08	2330.59
532.28	2209.76
532.47	2359.26
532.67	2418.65
532.87	2373.60
533.07	2211.81
533.27	2351.07
533.46	2289.63
533.66	2342.88
533.86	2275.29
534.06	2195.42
534.26	2283.49
534.45	2183.13
534.65	2346.97
534.85	2310.11
535.05	2189.28
535.25	2418.65
535.44	2162.66
535.64	2410.46
535.84	2263.01
536.04	2254.81
536.24	2176.99
536.43	2213.85
536.63	2326.49
536.83	2269.15
537.03	2162.66
537.22	2113.50
537.42	2103.26
537.62	2260.96
537.82	2203.61
538.02	2318.30
538.21	2287.58
538.41	2539.48
538.61	2344.92
538.81	2299.87
539.00	2340.83
539.20	2146.27
539.40	2220.00
539.60	2269.15
539.79	2314.20
539.99	2248.67
540.19	2260.96
540.39	2191.33
540.58	2355.16
540.78	2383.84
540.98	2297.82
541.18	2367.45
541.37	2267.10
541.57	2250.72
541.77	2285.53
541.97	2195.42
542.16	2162.66
542.36	2205.66
542.56	2191.33
542.76	2471.90
542.95	2281.44
543.15	2375.64
543.35	2295.77
543.54	2179.04
543.74	2203.61
543.94	2445.27
544.14	2203.61
544.33	2346.97
544.53	2258.91
544.73	2252.77
544.93	2236.38
545.12	2224.09
545.32	2244.57
545.52	2226.14
545.71	2129.89
545.91	2263.01
546.11	2193.37
546.30	2234.33
546.50	2209.76
546.70	2301.92
546.90	2252.77
547.09	2068.45
547.29	2322.40
547.49	2361.31
547.68	2224.09
547.88	2228.19
548.08	2338.78
548.27	2764.76
548.47	2254.81
548.67	2129.89
548.87	2303.96
549.06	2263.01
549.26	2236.38
549.46	2236.38
549.65	2203.61
549.85	2306.01
550.05	2301.92
550.24	2211.81
550.44	2265.05
550.64	2273.25
550.83	2310.11
551.03	2383.84
551.23	2404.32
551.42	2285.53
551.62	2209.76
551.82	2291.68
552.01	2209.76
552.21	2336.73
552.41	2191.33
552.60	2381.79
552.80	2271.20
553.00	2170.85
553.19	2291.68
553.39	2342.88
553.59	2238.43
553.78	2371.55
553.98	2215.90
554.17	2172.89
554.37	2361.31
554.57	2283.49
554.76	2187.23
554.96	2172.89
555.16	2238.43
555.35	2289.63
555.55	2351.07
555.75	2299.87
555.94	2318.30
556.14	2148.32
556.33	2330.59
556.53	2234.33
556.73	2244.57
556.92	2316.25
557.12	2381.79
557.32	2473.95
557.51	2387.93
557.71	2252.77
557.90	2387.93
558.10	2400.22
558.30	2283.49
558.49	2222.05
558.69	2312.16
558.88	2318.30
559.08	2267.10
559.28	2289.63
559.47	2258.91
559.67	2326.49
559.86	2494.43
560.06	2287.58
560.26	2260.96
560.45	2406.36
560.65	2254.81
560.84	2387.93
561.04	2140.13
561.24	2263.01
561.43	2127.84
561.63	2369.50
561.82	2291.68
562.02	2332.64
562.22	2189.28
562.41	2164.70
562.61	2240.48
562.80	2172.89
563.00	2492.38
563.19	2301.92
563.39	2273.25
563.59	2326.49
563.78	2142.18
563.98	2070.50
564.17	2166.75
564.37	2154.46
564.56	2260.96
564.76	2115.55
564.96	2402.27
565.15	2260.96
565.35	2625.50
565.54	2265.05
565.74	2359.26
565.93	2404.32
566.13	2299.87
566.32	2289.63
566.52	2387.93
566.71	2314.20
566.91	2346.97
567.11	2416.60
567.30	2158.56
567.50	2310.11
567.69	2301.92
567.89	2252.77
568.08	2222.05
568.28	2287.58
568.47	2170.85
568.67	2263.01
568.86	2277.34
569.06	2381.79
569.25	2269.15
569.45	2220.00
569.64	2224.09
569.84	2265.05
570.04	2222.05
570.23	2236.38
570.43	2238.43
570.62	2334.68
570.82	2453.47
571.01	2197.47
571.21	2236.38
571.40	2142.18
571.60	2392.03
571.79	2297.82
571.99	2308.06
572.18	2158.56
572.38	2342.88
572.57	2289.63
572.77	2303.96
572.96	2519.00
573.16	2295.77
573.35	2293.72
573.55	2312.16
573.74	2422.75
573.94	2258.91
574.13	2275.29
574.33	2334.68
574.52	2412.51
574.71	2312.16
574.91	2324.44
575.10	2166.75
575.30	2273.25
575.49	2183.13
575.69	2191.33
575.88	2357.21
576.08	2273.25
576.27	2473.95
576.47	2306.01
576.66	2437.08
576.86	2394.08
577.05	2283.49
577.25	2475.99
577.44	2512.86
577.64	2226.14
577.83	2367.45
578.02	2195.42
578.22	2459.61
578.41	2469.85
578.61	2258.91
578.80	2162.66
579.00	2301.92
579.19	2295.77
579.39	2316.25
579.58	2318.30
579.77	2306.01
579.97	2480.09
580.16	2445.27
580.36	2396.12
580.55	2361.31
580.75	2340.83
580.94	2375.64
581.13	2447.32
581.33	2441.18
581.52	2336.73
581.72	2473.95
581.91	2498.52
582.11	2260.96
582.30	2396.12
582.49	2349.02
582.69	2389.98
582.88	2334.68
583.08	2324.44
583.27	2344.92
583.47	2324.44
583.66	2199.52
583.85	2240.48
584.05	2295.77
584.24	2459.61
584.44	2301.92
584.63	2351.07
584.82	2475.99
585.02	2473.95
585.21	2422.75
585.41	2363.36
585.60	2439.13
585.79	2514.91
585.99	2508.76
586.18	2398.17
586.37	2990.03
586.57	4726.71
586.76	13696.82
586.96	32675.34
587.15	46728.50
587.34	56085.67
587.54	61146.20
587.73	56071.34
587.93	39706.02
588.12	29982.26
588.31	24069.78
588.51	21018.30
588.70	19365.59
588.89	17424.12
589.09	14984.99
589.28	12885.82
589.47	10583.90
589.67	8314.75
589.86	6406.05
590.06	4693.94
590.25	3841.99
590.44	3235.79
590.64	2861.01
590.83	2570.20
591.02	2564.06
591.22	2445.27
591.41	2400.22
591.60	2346.97
591.80	2553.82
591.99	2213.85
592.18	2424.80
592.38	2375.64
592.57	2244.57
592.76	2328.54
592.96	2351.07
593.15	2209.76
593.34	2418.65
593.54	2256.86
593.73	2406.36
593.92	2371.55
594.12	2400.22
594.31	2359.26
594.50	2461.66
594.70	2365.40
594.89	2480.09
595.08	2252.77
595.28	2398.17
595.47	2709.46
595.66	2355.16
595.86	2197.47
596.05	2283.49
596.24	2244.57
596.43	2471.90
596.63	2424.80
596.82	2363.36
597.01	2359.26
597.21	2455.51
597.40	2295.77
597.59	2267.10
597.79	2387.93
597.98	2351.07
598.17	2260.96
598.36	2359.26
598.56	2387.93
598.75	2287.58
598.94	2277.34
599.14	2269.15
599.33	2258.91
599.52	2375.64
599.71	2324.44
599.91	2416.60
600.10	2408.41
600.29	2308.06
600.48	2322.40
600.68	2244.57
600.87	2299.87
601.06	2240.48
601.26	2273.25
601.45	2277.34
601.64	2277.34
601.83	2373.60
602.03	2252.77
602.22	2170.85
602.41	2402.27
602.60	2523.10
602.80	2340.83
602.99	2369.50
603.18	2273.25
603.37	2250.72
603.57	2328.54
603.76	2340.83
603.95	2359.26
604.14	2252.77
604.34	2215.90
604.53	2211.81
604.72	2277.34
604.91	2334.68
605.10	2244.57
605.30	2224.09
605.49	2459.61
605.68	2367.45
605.87	2256.86
606.07	2158.56
606.26	2244.57
606.45	2322.40
606.64	2340.83
606.84	2256.86
607.03	2353.12
607.22	2336.73
607.41	2357.21
607.60	2369.50
607.80	2416.60
607.99	2256.86
608.18	2342.88
608.37	2303.96
608.56	2226.14
608.76	2432.99
608.95	2488.28
609.14	2314.20
609.33	2408.41
609.52	2463.71
609.72	2353.12
609.91	2410.46
610.10	2314.20
610.29	2471.90
610.48	2297.82
610.68	2412.51
610.87	2211.81
611.06	2349.02
611.25	2275.29
611.44	2432.99
611.63	2256.86
611.83	2377.69
612.02	2185.18
612.21	2377.69
612.40	2123.74
612.59	2199.52
612.79	2129.89
612.98	2269.15
613.17	2449.37
613.36	2283.49
613.55	2447.32
613.74	2316.25
613.93	2443.23
614.13	2486.23
614.32	2482.14
614.51	2525.15
614.70	2389.98
614.89	2301.92
615.08	2367.45
615.28	2807.77
615.47	2209.76
615.66	2361.31
615.85	2330.59
616.04	2435.03
616.23	2287.58
616.42	2287.58
616.62	2312.16
616.81	2301.92
617.00	2330.59
617.19	2260.96
617.38	2267.10
617.57	2232.29
617.76	2334.68
617.95	2379.74
618.15	2351.07
618.34	2480.09
618.53	2187.23
618.72	2377.69
618.91	2318.30
619.10	2381.79
619.29	2256.86
619.48	2400.22
619.68	2146.27
619.87	2144.22
620.06	2170.85
620.25	2318.30
620.44	2248.67
620.63	2256.86
620.82	2281.44
621.01	2283.49
621.20	2269.15
621.39	2299.87
621.59	2326.49
621.78	2328.54
621.97	2252.77
622.16	2277.34
622.35	2260.96
622.54	2306.01
622.73	2365.40
622.92	2146.27
623.11	2371.55
623.30	2242.53
623.49	2240.48
623.68	2195.42
623.88	2447.32
624.07	2271.20
624.26	2232.29
624.45	2269.15
624.64	2299.87
624.83	2217.95
625.02	2338.78
625.21	2203.61
625.40	2346.97
625.59	2404.32
625.78	2326.49
625.97	2385.88
626.16	2396.12
626.35	2392.03
626.54	2371.55
626.74	2473.95
626.93	2320.35
627.12	2260.96
627.31	2330.59
627.50	2297.82
627.69	2412.51
627.88	2189.28
628.07	2236.38
628.26	2144.22
628.45	2154.46
628.64	2199.52
628.83	2252.77
629.02	2168.80
629.21	2412.51
629.40	2310.11
629.59	2222.05
629.78	2265.05
629.97	2220.00
630.16	2312.16
630.35	2228.19
630.54	2287.58
630.73	2252.77
630.92	2328.54
631.11	2222.05
631.30	2238.43
631.49	2346.97
631.68	2217.95
631.87	2308.06
632.06	2131.94
632.25	2527.19
632.44	2387.93
632.63	2308.06
632.82	2320.35
633.01	2240.48
633.20	2363.36
633.39	2361.31
633.58	2205.66
633.77	2406.36
633.96	2310.11
634.15	2445.27
634.34	2334.68
634.53	2334.68
634.72	2334.68
634.91	2111.46
635.10	2256.86
635.29	2373.60
635.48	2252.77
635.67	2160.61
635.86	2168.80
636.05	2449.37
636.24	2308.06
636.43	2316.25
636.62	2285.53
636.81	2035.68
637.00	2250.72
637.19	2306.01
637.38	2260.96
637.57	2234.33
637.76	2308.06
637.95	2424.80
638.14	2346.97
638.33	2361.31
638.52	2367.45
638.71	2170.85
638.89	2179.04
639.08	2586.58
639.27	2465.75
639.46	2432.99
639.65	2789.33
639.84	2838.48
640.03	2975.70
640.22	2813.91
640.41	2883.54
640.60	2432.99
640.79	2475.99
640.98	2396.12
641.17	2498.52
641.36	2449.37
641.55	2514.91
641.74	2289.63
641.92	2265.05
642.11	2283.49
642.30	2256.86
642.49	2250.72
642.68	2306.01
642.87	2326.49
643.06	2324.44
643.25	2222.05
643.44	2152.42
643.63	2271.20
643.82	2373.60
644.00	2195.42
644.19	2293.72
644.38	2185.18
644.57	2318.30
644.76	2246.62
644.95	2275.29
645.14	2203.61
645.33	2226.14
645.52	2203.61
645.71	2115.55
645.89	2154.46
646.08	2279.39
646.27	2142.18
646.46	2463.71
646.65	2117.60
646.84	2189.28
647.03	2138.08
647.22	2365.40
647.40	2291.68
647.59	2211.81
647.78	2195.42
647.97	2220.00
648.16	2209.76
648.35	2363.36
648.54	2402.27
648.73	2203.61
648.91	2306.01
649.10	2279.39
649.29	2193.37
649.48	2285.53
649.67	2285.53
649.86	2314.20
650.05	2271.20
650.23	2486.23
650.42	2224.09
650.61	2504.67
650.80	2478.04
650.99	2516.95
651.18	2512.86
651.36	2375.64
651.55	2291.68
651.74	2365.40
651.93	2260.96
652.12	2320.35
652.31	2242.53
652.49	2312.16
652.68	2314.20
652.87	2473.95
653.06	2244.57
653.25	2428.89
653.44	2367.45
653.62	2441.18
653.81	2306.01
654.00	2269.15
654.19	2291.68
654.38	2490.33
654.56	2369.50
654.75	2220.00
654.94	2367.45
655.13	2248.67
655.32	2240.48
655.51	2242.53
655.69	2217.95
655.88	2355.16
656.07	2154.46
656.26	2344.92
656.45	2154.46
656.63	2238.43
656.82	2297.82
657.01	2353.12
657.20	2260.96
657.38	2402.27
657.57	2232.29
657.76	2090.98
657.95	2369.50
658.14	2256.86
658.32	2252.77
658.51	2172.89
658.70	2224.09
658.89	2338.78
659.08	2234.33
659.26	2459.61
659.45	2090.98
659.64	2297.82
659.83	2248.67
660.01	2596.82
660.20	2269.15
660.39	2486.23
660.58	1974.24
660.76	2346.97
660.95	2183.13
661.14	2242.53
661.33	2097.12
661.51	2185.18
661.70	2174.94
661.89	2312.16
662.08	2246.62
662.26	2121.70
662.45	2269.15
662.64	2457.56
662.83	2369.50
663.01	2146.27
663.20	2258.91
663.39	2402.27
663.58	2234.33
663.76	2205.66
663.95	2244.57
664.14	2193.37
664.32	2248.67
664.51	2156.51
664.70	2041.82
664.89	2260.96
665.07	2150.37
665.26	2324.44
665.45	2093.02
665.64	2430.94
665.82	2174.94
666.01	2353.12
666.20	2263.01
666.38	2473.95
666.57	2471.90
666.76	3545.03
666.95	8195.97
667.13	16142.09
667.32	21157.57
667.51	25020.03
667.69	26676.84
667.88	24485.51
668.07	17245.94
668.25	13793.07
668.44	11638.61
668.63	9926.50
668.81	8855.42
669.00	7628.68
669.19	6879.13
669.38	6008.74
669.56	5115.83
669.75	4315.07
669.94	3643.34
670.12	3067.86
670.31	2813.91
670.50	2586.58
670.68	2541.53
670.87	2432.99
671.06	2342.88
671.24	2404.32
671.43	2496.47
671.62	2314.20
671.80	2230.24
671.99	2256.86
672.18	2254.81
672.36	2373.60
672.55	2269.15
672.74	2254.81
672.92	2248.67
673.11	2301.92
673.29	2121.70
673.48	2359.26
673.67	2260.96
673.85	2361.31
674.04	2215.90
674.23	2332.64
674.41	2447.32
674.60	2174.94
674.79	2138.08
674.97	2142.18
675.16	2258.91
675.34	2359.26
675.53	2220.00
675.72	2281.44
675.90	2392.03
676.09	2215.90
676.28	2277.34
676.46	2119.65
676.65	2359.26
676.83	2060.26
677.02	2258.91
677.21	2291.68
677.39	2320.35
677.58	2146.27
677.77	2207.71
677.95	2211.81
678.14	2201.57
678.32	2215.90
678.51	2267.10
678.70	2389.98
678.88	2215.90
679.07	2301.92
679.25	2310.11
679.44	2213.85
679.63	2113.50
679.81	2306.01
680.00	2383.84
680.18	2330.59
680.37	2379.74
680.55	2295.77
680.74	2238.43
680.93	2086.88
681.11	2293.72
681.30	2310.11
681.48	2275.29
681.67	2162.66
681.85	2269.15
682.04	2187.23
682.23	2301.92
682.41	2234.33
682.60	2197.47
682.78	2226.14
682.97	2195.42
683.15	2291.68
683.34	2301.92
683.53	2414.56
683.71	2062.30
683.90	2367.45
684.08	2426.84
684.27	2213.85
684.45	2269.15
684.64	2332.64
684.82	2320.35
685.01	2238.43
685.19	2236.38
685.38	2404.32
685.57	2273.25
685.75	2154.46
685.94	2133.98
686.12	2129.89
686.31	2252.77
686.49	2387.93
686.68	2097.12
686.86	2224.09
687.05	2168.80
687.23	2457.56
687.42	2195.42
687.60	2062.30
687.79	2312.16
687.97	2426.84
688.16	2318.30
688.34	2361.31
688.53	2093.02
688.71	2308.06
688.90	2449.37
689.08	2236.38
689.27	2176.99
689.45	2408.41
689.64	2285.53
689.82	2385.88
690.01	2349.02
690.19	2250.72
690.38	2226.14
690.56	2420.70
690.75	2189.28
690.93	2265.05
691.12	2166.75
691.30	2222.05
691.49	2191.33
691.67	2263.01
691.86	2457.56
692.04	2260.96
692.23	2234.33
692.41	2265.05
692.60	2482.14
692.78	2465.75
692.97	2400.22
693.15	2412.51
693.34	2410.46
693.52	2420.70
693.71	2228.19
693.89	2248.67
694.08	2136.03
694.26	2392.03
694.44	2377.69
694.63	2283.49
694.81	2203.61
695.00	2199.52
695.18	2381.79
695.37	2494.43
695.55	2258.91
695.74	2260.96
695.92	2193.37
696.10	2414.56
696.29	2211.81
696.47	2158.56
696.66	2131.94
696.84	2207.71
697.03	2293.72
697.21	2398.17
697.40	3241.93
697.58	2416.60
697.76	2187.23
697.95	2172.89
698.13	2168.80
698.32	2201.57
698.50	2254.81
698.68	2322.40
698.87	2267.10
699.05	2389.98
699.24	2295.77
699.42	2187.23
699.61	2271.20
699.79	2301.92
699.97	2289.63
700.16	2142.18
700.34	2246.62
700.53	2289.63
700.71	2408.41
700.89	2349.02
701.08	2260.96
701.26	2244.57
701.45	2805.72
701.63	2207.71
701.81	2185.18
702.00	2187.23
702.18	2267.10
702.37	2301.92
702.55	2494.43
702.73	2416.60
702.92	2392.03
703.10	2527.19
703.28	2531.29
703.47	2291.68
703.65	2473.95
703.84	2453.47
704.02	2293.72
704.20	2514.91
704.39	2211.81
704.57	2256.86
704.75	2412.51
704.94	2441.18
705.12	2252.77
705.30	2553.82
705.49	4401.08
705.67	10278.76
705.86	18097.90
706.04	21515.96
706.22	24647.30
706.41	25450.11
706.59	21896.88
706.77	15580.95
706.96	12937.02
707.14	11534.16
707.32	10055.53
707.51	8748.92
707.69	7231.38
707.87	5945.25
708.06	4714.42
708.24	3928.00
708.42	3190.74
708.61	3053.52
708.79	2482.14
708.97	2375.64
709.16	2430.94
709.34	2334.68
709.52	2301.92
709.71	2281.44
709.89	2371.55
710.07	2213.85
710.26	2203.61
710.44	2273.25
710.62	2404.32
710.80	2312.16
710.99	2420.70
711.17	2326.49
711.35	2246.62
711.54	2226.14
711.72	2344.92
711.90	2394.08
712.09	2260.96
712.27	2236.38
712.45	2232.29
712.63	2211.81
712.82	2299.87
713.00	2244.57
713.18	2357.21
713.37	2322.40
713.55	2285.53
713.73	2334.68
713.91	2283.49
714.10	2176.99
714.28	2271.20
714.46	2260.96
714.65	2340.83
714.83	2310.11
715.01	2299.87
715.19	2250.72
715.38	2127.84
715.56	2312.16
715.74	2240.48
715.92	2213.85
716.11	2418.65
716.29	2039.78
716.47	2267.10
716.65	2217.95
716.84	2109.41
717.02	2346.97
717.20	2072.54
717.38	2258.91
717.57	2250.72
717.75	2193.37
717.93	2256.86
718.11	2291.68
718.30	2117.60
718.48	2287.58
718.66	2318.30
718.84	2359.26
719.03	2250.72
719.21	2095.07
719.39	2463.71
719.57	2293.72
719.75	2447.32
719.94	2133.98
720.12	2240.48
720.30	2238.43
720.48	2379.74
720.67	2228.19
720.85	2119.65
721.03	2248.67
721.21	2146.27
721.39	2373.60
721.58	2283.49
721.76	2314.20
721.94	2269.15
722.12	2334.68
722.30	2392.03
722.49	2228.19
722.67	2226.14
722.85	2258.91
723.03	2136.03
723.21	2240.48
723.40	2332.64
723.58	2363.36
723.76	2381.79
723.94	2447.32
724.12	2334.68
724.30	2451.42
724.49	2379.74
724.67	2236.38
724.85	2367.45
725.03	2168.80
725.21	2359.26
725.40	2381.79
725.58	2172.89
725.76	2351.07
725.94	2326.49
726.12	2111.46
726.30	2187.23
726.49	2199.52
726.67	2230.24
726.85	2281.44
727.03	2641.88
727.21	3534.79
727.39	4986.80
727.57	5818.28
727.76	6352.80
727.94	6858.65
728.12	6346.66
728.30	5068.72
728.48	4519.87
728.66	4229.06
728.84	3801.03
729.03	3325.90
729.21	3022.80
729.39	2811.86
729.57	2414.56
729.75	2455.51
729.93	2402.27
730.11	2250.72
730.30	2277.34
730.48	2256.86
730.66	2265.05
730.84	2379.74
731.02	2324.44
731.20	2205.66
731.38	2228.19
731.56	2082.78
731.74	2095.07
731.93	2232.29
732.11	2263.01
732.29	2195.42
732.47	2211.81
732.65	2334.68
732.83	2355.16
733.01	2293.72
733.19	2158.56
733.37	2367.45
733.56	2297.82
733.74	2228.19
733.92	2322.40
734.10	2254.81
734.28	2334.68
734.46	2121.70
734.64	2146.27
734.82	2164.70
735.00	2148.32
735.18	2191.33
735.36	2252.77
735.54	2244.57
735.73	2220.00
735.91	2269.15
736.09	2310.11
736.27	2226.14
736.45	2344.92
736.63	2080.74
736.81	2183.13
736.99	2306.01
737.17	2461.66
737.35	2258.91
737.53	2277.34
737.71	2263.01
737.89	2324.44
738.07	2047.97
738.25	2201.57
738.43	2064.35
738.61	2203.61
738.80	2068.45
738.98	2105.31
739.16	2185.18
739.34	2228.19
739.52	2322.40
739.70	2185.18
739.88	2297.82
740.06	2318.30
740.24	2129.89
740.42	2408.41
740.60	2105.31
740.78	2150.37
740.96	2113.50
741.14	2236.38
741.32	2332.64
741.50	1994.72
741.68	2465.75
741.86	2318.30
742.04	2172.89
742.22	2166.75
742.40	2244.57
742.58	2357.21
742.76	2183.13
742.94	2281.44
743.12	2146.27
743.30	2252.77
743.48	2265.05
743.66	2230.24
743.84	2351.07
744.02	2258.91
744.20	2211.81
744.38	2101.22
744.56	2183.13
744.74	2365.40
744.92	2340.83
745.10	2357.21
745.28	2293.72
745.46	2363.36
745.64	2211.81
745.82	2308.06
746.00	2279.39
746.18	2281.44
746.36	2164.70
746.54	2260.96
746.72	2252.77
746.90	2133.98
747.08	2322.40
747.26	2215.90
747.44	2295.77
747.62	2340.83
747.80	2310.11
747.98	2297.82
748.15	2230.24
748.33	2465.75
748.51	2306.01
748.69	2301.92
748.87	2193.37
749.05	2252.77
749.23	2258.91
749.41	2314.20
749.59	2234.33
749.77	2396.12
749.95	2226.14
750.13	2203.61
750.31	2289.63
750.49	2318.30
750.67	2373.60
750.85	2406.36
751.03	2234.33
751.20	2463.71
751.38	2306.01
751.56	2252.77
751.74	2215.90
751.92	2207.71
752.10	2220.00
752.28	2346.97
752.46	2199.52
752.64	2224.09
752.82	2238.43
753.00	2334.68
753.18	2174.94
753.35	2269.15
753.53	2174.94
753.71	2236.38
753.89	2326.49
754.07	2250.72
754.25	2316.25
754.43	2256.86
754.61	2156.51
754.79	2353.12
754.97	2289.63
755.14	2349.02
755.32	2125.79
755.50	2279.39
755.68	2295.77
755.86	2125.79
756.04	2181.09
756.22	2084.83
756.40	2318.30
756.57	2455.51
756.75	2211.81
756.93	2342.88
757.11	2342.88
757.29	2152.42
757.47	2248.67
757.65	2133.98
757.82	2105.31
758.00	2152.42
758.18	2154.46
758.36	2138.08
758.54	2410.46
758.72	2101.22
758.90	2312.16
759.07	2314.20
759.25	2213.85
759.43	2252.77
759.61	2179.04
759.79	3198.93
759.97	2359.26
760.15	2234.33
760.32	2127.84
760.50	2291.68
760.68	2457.56
760.86	2133.98
761.04	2404.32
761.22	2297.82
761.39	2228.19
761.57	2291.68
761.75	2183.13
761.93	2281.44
762.11	2252.77
762.28	2260.96
762.46	2150.37
762.64	2389.98
762.82	2146.27
763.00	2250.72
763.18	2349.02
763.35	2215.90
763.53	2209.76
763.71	2346.97
763.89	2226.14
764.07	2238.43
764.24	2260.96
764.42	2322.40
764.60	2250.72
764.78	2238.43
764.96	2406.36
765.13	2334.68
765.31	2191.33
765.49	2320.35
765.67	2156.51
765.84	2258.91
766.02	2199.52
766.20	2097.12
766.38	2242.53
766.56	2265.05
766.73	2267.10
766.91	2193.37
767.09	2246.62
767.27	2291.68
767.44	2142.18
767.62	2342.88
767.80	2299.87
767.98	2195.42
768.15	2179.04
768.33	2260.96
768.51	2373.60
768.69	2318.30
768.87	2201.57
769.04	2310.11
769.22	2580.44
769.40	2416.60
769.58	2492.38
769.75	2318.30
769.93	2441.18
770.11	2240.48
770.28	2222.05
770.46	2340.83
770.64	2258.91
770.82	2209.76
770.99	2260.96
771.17	2285.53
771.35	2217.95
771.53	2187.23
771.70	2185.18
771.88	2277.34
772.06	2230.24
772.23	2224.09
772.41	2373.60
772.59	2248.67
772.77	2183.13
772.94	2256.86
773.12	2254.81
773.30	2215.90
773.47	2283.49
773.65	2170.85
773.83	2453.47
774.01	2232.29
774.18	2125.79
774.36	2273.25
774.54	2109.41
774.71	2287.58
774.89	2121.70
775.07	2144.22
775.24	2179.04
775.42	2217.95
775.60	2457.56
775.78	2215.90
775.95	2150.37
776.13	2150.37
776.31	2101.22
776.48	2295.77
776.66	2361.31
776.84	2265.05
777.01	2150.37
777.19	2119.65
777.37	2242.53
777.54	2303.96
777.72	2445.27
777.90	2322.40
778.07	2226.14
778.25	2549.72
778.43	2338.78
778.60	2136.03
778.78	2281.44
778.96	2351.07
779.13	2101.22
779.31	2340.83
779.49	2248.67
779.66	2267.10
779.84	2248.67
780.01	2121.70
780.19	2244.57
780.37	2400.22
780.54	2224.09
780.72	2140.13
780.90	2220.00
781.07	2209.76
781.25	2244.57
781.43	2287.58
781.60	2263.01
781.78	2365.40
781.95	2260.96
782.13	2170.85
782.31	2242.53
782.48	2072.54
782.66	2324.44
782.83	2422.75
783.01	2328.54
783.19	2263.01
783.36	2181.09
783.54	2111.46
783.72	2375.64
783.89	2250.72
784.07	2365.40
784.24	2263.01
784.42	2396.12
784.60	2242.53
784.77	2275.29
784.95	2109.41
785.12	2220.00
785.30	2250.72
785.47	2232.29
785.65	2144.22
785.83	2187.23
786.00	2154.46
786.18	2242.53
786.35	2185.18
786.53	2097.12
786.71	2396.12
786.88	2275.29
787.06	2273.25
787.23	2105.31
787.41	2166.75
787.58	2195.42
787.76	2129.89
787.94	2330.59
788.11	2267.10
788.29	2154.46
788.46	2172.89
788.64	2119.65
788.81	2250.72
788.99	2222.05
789.16	2226.14
789.34	2193.37
789.52	2168.80
789.69	2203.61
789.87	2138.08
790.04	2244.57
790.22	2260.96
790.39	2406.36
790.57	2152.42
790.74	2207.71
790.92	2301.92
791.09	2064.35
791.27	2287.58
791.44	2342.88
791.62	2211.81
791.79	2306.01
791.97	2357.21
792.15	2564.06
792.32	2373.60
792.50	2320.35
792.67	2334.68
792.85	2453.47
793.02	2269.15
793.20	2146.27
793.37	2138.08
793.55	2240.48
793.72	2181.09
793.90	2379.74
794.07	2162.66
794.25	2144.22
794.42	2228.19
794.60	2236.38
794.77	2232.29
794.95	2277.34
795.12	2328.54
795.30	2246.62
795.47	2076.64
795.65	2537.43
795.82	2320.35
796.00	2107.36
796.17	2158.56
796.34	2131.94
796.52	2244.57
796.69	2375.64
796.87	2269.15
797.04	2269.15
797.22	2394.08
797.39	2263.01
797.57	2310.11
797.74	2267.10
797.92	2234.33
798.09	2238.43
798.27	2389.98
798.44	2240.48
798.62	2136.03
798.79	2271.20
798.96	2303.96
799.14	2258.91
799.31	2463.71
799.49	2199.52
799.66	2207.71
799.84	2332.64
800.01	2097.12
800.19	2289.63
800.36	2117.60
800.53	2179.04
800.71	2277.34
800.88	2357.21
801.06	2197.47
801.23	2113.50
801.41	2164.70
801.58	2252.77
801.75	2172.89
801.93	2303.96
802.10	2340.83
802.28	2230.24
802.45	2179.04
802.63	2277.34
802.80	2451.42
802.97	2220.00
803.15	2299.87
803.32	2246.62
803.50	2105.31
803.67	2146.27
803.84	2187.23
804.02	2297.82
804.19	2222.05
804.37	2072.54
804.54	2144.22
804.71	2191.33
804.89	2271.20
805.06	2142.18
805.24	2113.50
805.41	2097.12
805.58	2211.81
805.76	2408.41
805.93	2217.95
806.10	2383.84
806.28	2277.34
806.45	2275.29
806.63	2226.14
806.80	2228.19
806.97	2332.64
807.15	2250.72
807.32	2230.24
807.49	2203.61
807.67	2170.85
807.84	2277.34
808.01	2101.22
808.19	2383.84
808.36	2420.70
808.54	2209.76
808.71	2152.42
808.88	2281.44
809.06	2299.87
809.23	2375.64
809.40	2197.47
809.58	2281.44
809.75	2336.73
809.92	2181.09
810.10	2416.60
810.27	2220.00
810.44	2293.72
810.62	2295.77
810.79	2240.48
810.96	2201.57
811.14	2236.38
811.31	2203.61
811.48	2359.26
811.66	2244.57
811.83	2383.84
812.00	2226.14
812.18	2226.14
812.35	2396.12
812.52	2220.00
812.69	2185.18
812.87	2195.42
813.04	2146.27
813.21	2236.38
813.39	2217.95
813.56	2133.98
813.73	2310.11
813.91	2072.54
814.08	2179.04
814.25	2314.20
814.42	2119.65
814.60	2154.46
814.77	2209.76
814.94	2291.68
815.12	2193.37
815.29	2387.93
815.46	2181.09
815.63	2267.10
815.81	2187.23
815.98	2193.37
816.15	2185.18
816.33	2254.81
816.50	2170.85
816.67	2211.81
816.84	2220.00
817.02	2113.50
817.19	2209.76
817.36	2303.96
817.53	2287.58
817.71	2154.46
817.88	2265.05
818.05	2187.23
818.22	2205.66
818.40	2478.04
818.57	2203.61
818.74	2258.91
818.91	2226.14
819.09	2351.07
819.26	2316.25
819.43	2201.57
819.60	2166.75
819.78	2265.05
819.95	2349.02
820.12	2129.89
820.29	2377.69
820.47	2385.88
820.64	2097.12
820.81	2113.50
820.98	2111.46
821.15	2220.00
821.33	2381.79
821.50	2103.26
821.67	2334.68
821.84	2166.75
822.02	2269.15
822.19	2303.96
822.36	2277.34
822.53	2220.00
822.70	2199.52
822.88	2148.32
823.05	2392.03
823.22	2252.77
823.39	2271.20
823.56	2301.92
823.74	2398.17
823.91	2187.23
824.08	2150.37
824.25	2113.50
824.42	2527.19
824.60	2191.33
824.77	2312.16
824.94	2195.42
825.11	2291.68
825.28	2113.50
825.45	2246.62
825.63	2215.90
825.80	2150.37
825.97	2240.48
826.14	2367.45
826.31	2119.65
826.48	2332.64
826.66	2166.75
826.83	2166.75
827.00	2211.81
827.17	2111.46
827.34	2281.44
827.51	2144.22
827.69	2244.57
827.86	2154.46
828.03	2220.00
828.20	2174.94
828.37	2181.09
828.54	2265.05
828.71	2199.52
828.89	2342.88
829.06	2203.61
829.23	2394.08
829.40	2181.09
829.57	2201.57
829.74	2289.63
829.91	2195.42
830.09	2220.00
830.26	2330.59
830.43	2422.75
830.60	2195.42
830.77	2355.16
830.94	2486.23
831.11	2306.01
831.28	2228.19
831.46	2275.29
831.63	2217.95
831.80	2349.02
831.97	2220.00
832.14	2224.09
832.31	2328.54
832.48	2291.68
832.65	2310.11
832.82	2238.43
832.99	2277.34
833.17	2195.42
833.34	2357.21
833.51	2158.56
833.68	2004.96
833.85	2412.51
834.02	2121.70
834.19	2160.61
834.36	2242.53
834.53	2291.68
834.70	2310.11
834.87	2318.30
835.04	2203.61
835.22	2252.77
835.39	2176.99
835.56	2154.46
835.73	2152.42
835.90	2445.27
836.07	2097.12
836.24	2222.05
836.41	2099.17
836.58	2201.57
836.75	2375.64
836.92	2228.19
837.09	2117.60
837.26	2285.53
837.43	2258.91
837.60	2310.11
837.77	2166.75
837.94	2308.06
838.12	2437.08
838.29	2269.15
838.46	2023.39
838.63	2148.32
838.80	2328.54
838.97	2295.77
839.14	2174.94
839.31	2275.29
839.48	2361.31
839.65	2222.05
839.82	2316.25
839.99	2267.10
840.16	2215.90
840.33	2197.47
840.50	2242.53
840.67	2113.50
840.84	1974.24
841.01	2220.00
841.18	2271.20
841.35	2146.27
841.52	2281.44
841.69	2430.94
841.86	2179.04
842.03	2234.33
842.20	2324.44
842.37	2179.04
842.54	2172.89
842.71	2195.42
842.88	2168.80
843.05	2310.11
843.22	2170.85
843.39	2293.72
843.56	2193.37
843.73	2174.94
843.90	2136.03
844.07	2258.91
844.24	2353.12
844.41	2224.09
844.58	2211.81
844.75	2277.34
844.92	2351.07
845.09	2197.47
845.26	2146.27
845.43	2306.01
845.60	2252.77
845.77	2310.11
845.94	2244.57
846.10	2277.34
846.27	2047.97
846.44	2185.18
846.61	2154.46
846.78	2326.49
846.95	2320.35
847.12	2097.12
847.29	2242.53
847.46	2217.95
847.63	2250.72
847.80	2164.70
847.97	2269.15
848.14	2482.14
848.31	2164.70
848.48	2111.46
848.65	2179.04
848.82	2168.80
848.98	2451.42
849.15	2287.58
849.32	2306.01
849.49	2299.87
849.66	2301.92
849.83	2351.07
850.00	2144.22
850.17	2273.25
850.34	2201.57
850.51	2181.09
850.68	2236.38
850.85	2490.33
851.01	2287.58
851.18	2263.01
851.35	2203.61
851.52	2230.24
851.69	2297.82
851.86	2125.79
852.03	2220.00
852.20	2406.36
852.37	2199.52
852.53	2066.40
852.70	2144.22
852.87	2222.05
853.04	2228.19
853.21	2195.42
853.38	2330.59
853.55	2387.93
853.72	2355.16
853.89	2166.75
854.05	2168.80
854.22	2228.19
854.39	2160.61
854.56	2240.48
854.73	2285.53
854.90	2146.27
855.07	2207.71
855.23	2088.93
855.40	2256.86
855.57	2281.44
855.74	2076.64
855.91	2400.22
856.08	2127.84
856.25	2095.07
856.41	2199.52
856.58	2220.00
856.75	2252.77
856.92	2084.83
857.09	2293.72
857.26	2131.94
857.42	2111.46
857.59	2326.49
857.76	2209.76
857.93	2172.89
858.10	2168.80
858.27	2133.98
858.43	2236.38
858.60	2119.65
858.77	2027.49
858.94	2236.38
859.11	2406.36
859.27	2252.77
859.44	2201.57
859.61	2428.89
859.78	2322.40
859.95	2207.71
860.12	2107.36
860.28	2490.33
860.45	2412.51
860.62	2160.61
860.79	2195.42
860.95	2240.48
861.12	2101.22
861.29	2097.12
861.46	2127.84
861.63	2252.77
861.79	2281.44
861.96	2158.56
862.13	2185.18
862.30	2455.51
862.47	2226.14
862.63	2136.03
862.80	2236.38
862.97	2310.11
863.14	2306.01
863.30	2232.29
863.47	2195.42
863.64	2332.64
863.81	2297.82
863.97	2265.05
864.14	2312.16
864.31	2203.61
864.48	2174.94
864.65	2258.91
864.81	2265.05
864.98	2265.05
865.15	2287.58
865.32	2232.29
865.48	2299.87
865.65	2428.89
865.82	2242.53
865.98	2293.72
866.15	2338.78
866.32	2217.95
866.49	2174.94
866.65	2338.78
866.82	2160.61
866.99	2273.25
867.16	2252.77
867.32	2195.42
867.49	2164.70
867.66	2293.72
867.83	2281.44
867.99	2095.07
868.16	2232.29
868.33	2236.38
868.49	2185.18
868.66	2220.00
868.83	2273.25
868.99	2156.51
869.16	2232.29
869.33	2273.25
869.50	2332.64
869.66	2248.67
869.83	2244.57
870.00	2105.31
870.16	2220.00
870.33	2293.72
870.50	2408.41
870.66	2232.29
870.83	2375.64
871.00	2293.72
871.17	2277.34
871.33	2287.58
871.50	2152.42
871.67	2230.24
871.83	2232.29
872.00	2342.88
872.17	2150.37
872.33	2375.64
872.50	2371.55
872.67	2187.23
872.83	2209.76
873.00	2299.87
873.17	2166.75
873.33	2193.37
873.50	2244.57
873.67	2242.53
873.83	2152.42
874.00	2199.52
874.16	2320.35
874.33	2234.33
874.50	2174.94
874.66	2222.05
874.83	2215.90
875.00	2363.36
875.16	2338.78
875.33	2301.92
875.50	2031.58
875.66	2207.71
875.83	2209.76
875.99	2299.87
876.16	2211.81
876.33	2140.13
876.49	2191.33
876.66	2179.04
876.83	2160.61
876.99	2093.02
877.16	2244.57
877.32	2285.53
877.49	2127.84
877.66	2260.96
877.82	2408.41
877.99	2269.15
878.15	2301.92
878.32	2234.33
878.49	2275.29
878.65	2119.65
878.82	2342.88
878.98	2228.19
879.15	2324.44
879.32	2316.25
879.48	2246.62
879.65	2191.33
879.81	2230.24
879.98	2211.81
880.15	2242.53
880.31	2293.72
880.48	2176.99
880.64	2351.07
880.81	2191.33
880.97	2422.75
881.14	2392.03
881.31	2152.42
881.47	2351.07
881.64	2209.76
881.80	2103.26
881.97	2222.05
882.13	2232.29
882.30	2160.61
882.47	2088.93
882.63	2103.26
882.80	2181.09
882.96	2240.48
883.13	2414.56
883.29	2158.56
883.46	2172.89
883.62	2467.80
883.79	2281.44
883.95	2291.68
884.12	2256.86
884.29	2299.87
884.45	2306.01
884.62	2273.25
884.78	2152.42
884.95	2394.08
885.11	2183.13
885.28	2242.53
885.44	2111.46
885.61	2308.06
885.77	2367.45
885.94	2308.06
886.10	2152.42
886.27	2250.72
886.43	2396.12
886.60	2332.64
886.76	2179.04
886.93	2193.37
887.09	2269.15
887.26	2097.12
887.42	2174.94
887.59	2310.11
887.75	2445.27
887.92	2314.20
888.08	2250.72
888.25	2416.60
888.41	2342.88
888.58	2244.57
888.74	2119.65
888.91	2168.80
>>>>>End Processed Spectral Data<<<<<
