SpectraSuite Data File
++++++++++++++++++++++++++++++++++++
Date: Thu May 05 13:20:55 CEST 2016
User: root
Dark Spectrum Present: No
Reference Spectrum Present: No
Number of Sampled Component Spectra: 1
Spectrometers: USB4C02835
Integration Time (usec): 100000 (USB4C02835)
Spectra Averaged: 1 (USB4C02835)
Boxcar Smoothing: 0 (USB4C02835)
Correct for Electrical Dark: No (USB4C02835)
Strobe/Lamp Enabled: No (USB4C02835)
Correct for Detector Non-linearity: No (USB4C02835)
Correct for Stray Light: No (USB4C02835)
Number of Pixels in Processed Spectrum: 3648
>>>>>Begin Processed Spectral Data<<<<<
177.47	1794.02
177.69	1794.02
177.91	1794.02
178.13	1822.69
178.36	1759.21
178.58	2138.08
178.80	2301.92
179.02	2144.22
179.24	2156.51
179.46	2144.22
179.68	2217.95
179.90	2244.57
180.13	2281.44
180.35	2113.50
180.57	2127.84
180.79	2260.96
181.01	2228.19
181.23	2187.23
181.45	2340.83
181.67	2322.40
181.90	2367.45
182.12	2152.42
182.34	2088.93
182.56	2285.53
182.78	2234.33
183.00	2111.46
183.22	2209.76
183.44	2154.46
183.66	2478.04
183.89	2244.57
184.11	2168.80
184.33	2351.07
184.55	2328.54
184.77	2162.66
184.99	2260.96
185.21	2222.05
185.43	2523.10
185.65	2146.27
185.87	2152.42
186.10	2539.48
186.32	2473.95
186.54	2242.53
186.76	2199.52
186.98	2308.06
187.20	2220.00
187.42	2203.61
187.64	2224.09
187.86	2349.02
188.08	2359.26
188.30	2187.23
188.52	2250.72
188.75	2400.22
188.97	2336.73
189.19	2187.23
189.41	2088.93
189.63	2318.30
189.85	2164.70
190.07	2070.50
190.29	2093.02
190.51	2316.25
190.73	2170.85
190.95	2263.01
191.17	2209.76
191.39	2066.40
191.61	2301.92
191.84	2129.89
192.06	2158.56
192.28	2113.50
192.50	2547.67
192.72	2232.29
192.94	2246.62
193.16	2295.77
193.38	2285.53
193.60	2072.54
193.82	2242.53
194.04	2359.26
194.26	2234.33
194.48	2174.94
194.70	2142.18
194.92	2238.43
195.14	2334.68
195.36	2093.02
195.58	2224.09
195.80	2258.91
196.02	2150.37
196.24	2191.33
196.46	2166.75
196.69	2152.42
196.91	2471.90
197.13	2244.57
197.35	2097.12
197.57	2392.03
197.79	2310.11
198.01	2193.37
198.23	2213.85
198.45	2258.91
198.67	2222.05
198.89	2176.99
199.11	2254.81
199.33	2187.23
199.55	1974.24
199.77	2183.13
199.99	2295.77
200.21	2224.09
200.43	2308.06
200.65	2115.55
200.87	2023.39
201.09	2228.19
201.31	2258.91
201.53	2179.04
201.75	2207.71
201.97	2318.30
202.19	2152.42
202.41	2224.09
202.63	2365.40
202.85	2293.72
203.07	2275.29
203.29	2193.37
203.51	2209.76
203.73	2140.13
203.95	2559.96
204.17	2150.37
204.39	2220.00
204.61	2299.87
204.83	2252.77
205.05	2258.91
205.27	2195.42
205.49	2482.14
205.71	2295.77
205.93	2162.66
206.15	2179.04
206.37	2236.38
206.59	2271.20
206.81	2037.73
207.03	2090.98
207.25	2160.61
207.47	2349.02
207.69	2140.13
207.91	2357.21
208.13	2396.12
208.34	2228.19
208.56	2070.50
208.78	2242.53
209.00	2252.77
209.22	2195.42
209.44	2142.18
209.66	2068.45
209.88	2232.29
210.10	2289.63
210.32	2158.56
210.54	2242.53
210.76	2215.90
210.98	2428.89
211.20	2107.36
211.42	2293.72
211.64	2406.36
211.86	2260.96
212.08	2203.61
212.30	2144.22
212.52	2166.75
212.74	2222.05
212.96	2123.74
213.17	2181.09
213.39	2291.68
213.61	2482.14
213.83	2138.08
214.05	2224.09
214.27	2435.03
214.49	2088.93
214.71	2138.08
214.93	2254.81
215.15	2222.05
215.37	2328.54
215.59	2035.68
215.81	2269.15
216.03	2336.73
216.24	2318.30
216.46	2205.66
216.68	2203.61
216.90	2310.11
217.12	2404.32
217.34	2152.42
217.56	2209.76
217.78	2332.64
218.00	2363.36
218.22	2234.33
218.44	2269.15
218.66	2236.38
218.87	2484.19
219.09	2193.37
219.31	2271.20
219.53	2244.57
219.75	2160.61
219.97	2217.95
220.19	2252.77
220.41	2273.25
220.63	2443.23
220.85	2203.61
221.06	2158.56
221.28	2387.93
221.50	2293.72
221.72	2146.27
221.94	2154.46
222.16	2351.07
222.38	2303.96
222.60	2185.18
222.82	2179.04
223.03	2351.07
223.25	2084.83
223.47	2138.08
223.69	2359.26
223.91	2357.21
224.13	2187.23
224.35	2066.40
224.57	2306.01
224.78	2306.01
225.00	2185.18
225.22	2187.23
225.44	2265.05
225.66	2273.25
225.88	2166.75
226.10	2187.23
226.32	2236.38
226.53	2457.56
226.75	2217.95
226.97	2289.63
227.19	2187.23
227.41	2222.05
227.63	2201.57
227.85	2019.30
228.06	2240.48
228.28	2226.14
228.50	2277.34
228.72	2052.06
228.94	2197.47
229.16	2060.26
229.37	2115.55
229.59	2168.80
229.81	2267.10
230.03	2269.15
230.25	2119.65
230.47	2117.60
230.69	2109.41
230.90	2324.44
231.12	2109.41
231.34	2236.38
231.56	2318.30
231.78	2191.33
232.00	2295.77
232.21	2136.03
232.43	2193.37
232.65	2099.17
232.87	2322.40
233.09	2109.41
233.30	2123.74
233.52	2293.72
233.74	2275.29
233.96	2105.31
234.18	2195.42
234.40	2187.23
234.61	2447.32
234.83	2080.74
235.05	2133.98
235.27	2453.47
235.49	2418.65
235.70	2203.61
235.92	2228.19
236.14	2277.34
236.36	2486.23
236.58	2093.02
236.79	2240.48
237.01	2265.05
237.23	2238.43
237.45	2379.74
237.67	2097.12
237.88	2297.82
238.10	2445.27
238.32	2150.37
238.54	2121.70
238.76	2203.61
238.97	2179.04
239.19	2125.79
239.41	2277.34
239.63	2320.35
239.85	2217.95
240.06	2195.42
240.28	2158.56
240.50	2373.60
240.72	2310.11
240.93	2070.50
241.15	2363.36
241.37	2265.05
241.59	2365.40
241.81	2215.90
242.02	2203.61
242.24	2203.61
242.46	2293.72
242.68	2072.54
242.89	2164.70
243.11	2357.21
243.33	2330.59
243.55	2181.09
243.76	2220.00
243.98	2234.33
244.20	2230.24
244.42	2127.84
244.64	2220.00
244.85	2062.30
245.07	2117.60
245.29	2195.42
245.51	2181.09
245.72	2258.91
245.94	2367.45
246.16	2220.00
246.38	2238.43
246.59	2152.42
246.81	2121.70
247.03	2199.52
247.24	2023.39
247.46	2215.90
247.68	2187.23
247.90	2037.73
248.11	2203.61
248.33	2389.98
248.55	2279.39
248.77	2213.85
248.98	2199.52
249.20	2506.71
249.42	2209.76
249.64	2140.13
249.85	2142.18
250.07	2240.48
250.29	2359.26
250.50	2306.01
250.72	2060.26
250.94	2263.01
251.16	2449.37
251.37	2172.89
251.59	2220.00
251.81	2353.12
252.02	2449.37
252.24	2150.37
252.46	2320.35
252.68	2187.23
252.89	2123.74
253.11	2039.78
253.33	2306.01
253.54	2402.27
253.76	2088.93
253.98	2220.00
254.20	2181.09
254.41	2195.42
254.63	2199.52
254.85	2101.22
255.06	2162.66
255.28	2320.35
255.50	2236.38
255.71	2181.09
255.93	2082.78
256.15	2187.23
256.36	2293.72
256.58	2121.70
256.80	2220.00
257.02	2232.29
257.23	2201.57
257.45	2170.85
257.67	2250.72
257.88	2195.42
258.10	2287.58
258.32	2191.33
258.53	2236.38
258.75	2424.80
258.97	2179.04
259.18	2129.89
259.40	2187.23
259.62	2428.89
259.83	2381.79
260.05	2217.95
260.27	2598.87
260.48	2398.17
260.70	2170.85
260.92	2125.79
261.13	2154.46
261.35	2246.62
261.57	2375.64
261.78	2072.54
262.00	2138.08
262.22	2324.44
262.43	2267.10
262.65	2168.80
262.86	2187.23
263.08	2502.62
263.30	2228.19
263.51	2097.12
263.73	2117.60
263.95	2373.60
264.16	2215.90
264.38	2064.35
264.60	2168.80
264.81	2183.13
265.03	2330.59
265.25	2367.45
265.46	2170.85
265.68	2432.99
265.89	2330.59
266.11	2037.73
266.33	2185.18
266.54	2359.26
266.76	2310.11
266.98	2201.57
267.19	2209.76
267.41	2318.30
267.62	2265.05
267.84	2072.54
268.06	2248.67
268.27	2250.72
268.49	2375.64
268.70	2244.57
268.92	2152.42
269.14	2125.79
269.35	2152.42
269.57	2226.14
269.79	2252.77
270.00	2228.19
270.22	2459.61
270.43	2142.18
270.65	2107.36
270.87	2299.87
271.08	2301.92
271.30	2265.05
271.51	2185.18
271.73	2273.25
271.95	2318.30
272.16	2166.75
272.38	2228.19
272.59	2234.33
272.81	2250.72
273.02	2119.65
273.24	2191.33
273.46	2449.37
273.67	2129.89
273.89	2121.70
274.10	2136.03
274.32	2367.45
274.54	2260.96
274.75	2201.57
274.97	2187.23
275.18	2308.06
275.40	2330.59
275.61	2181.09
275.83	2250.72
276.05	2127.84
276.26	2269.15
276.48	2308.06
276.69	2203.61
276.91	2191.33
277.12	2459.61
277.34	2332.64
277.55	2349.02
277.77	2326.49
277.99	2248.67
278.20	2185.18
278.42	2072.54
278.63	2140.13
278.85	2125.79
279.06	2066.40
279.28	2232.29
279.49	2351.07
279.71	2279.39
279.93	2162.66
280.14	2273.25
280.36	2199.52
280.57	2334.68
280.79	2375.64
281.00	2146.27
281.22	2146.27
281.43	2396.12
281.65	2031.58
281.86	2150.37
282.08	2287.58
282.29	2418.65
282.51	2062.30
282.73	2166.75
282.94	2119.65
283.16	2289.63
283.37	2383.84
283.59	2228.19
283.80	2361.31
284.02	2226.14
284.23	2324.44
284.45	2195.42
284.66	2226.14
284.88	2260.96
285.09	2260.96
285.31	2316.25
285.52	2283.49
285.74	2121.70
285.95	2361.31
286.17	2250.72
286.38	2406.36
286.60	2129.89
286.81	2273.25
287.03	2172.89
287.24	2265.05
287.46	2275.29
287.67	2271.20
287.89	2351.07
288.10	2301.92
288.32	2263.01
288.53	2426.84
288.75	2203.61
288.96	2375.64
289.18	2160.61
289.39	2211.81
289.61	2308.06
289.82	2455.51
290.04	2430.94
290.25	2207.71
290.47	2291.68
290.68	2232.29
290.90	2383.84
291.11	2125.79
291.33	2338.78
291.54	2101.22
291.76	2111.46
291.97	2181.09
292.18	2281.44
292.40	2316.25
292.61	2187.23
292.83	2398.17
293.04	2277.34
293.26	2248.67
293.47	2250.72
293.69	2138.08
293.90	2150.37
294.12	2383.84
294.33	2297.82
294.55	2203.61
294.76	2314.20
294.97	2410.46
295.19	2381.79
295.40	2242.53
295.62	2179.04
295.83	2412.51
296.05	2285.53
296.26	2318.30
296.48	2211.81
296.69	2297.82
296.90	2199.52
297.12	2342.88
297.33	2369.50
297.55	2260.96
297.76	2357.21
297.98	2297.82
298.19	2258.91
298.41	2236.38
298.62	2136.03
298.83	2400.22
299.05	2236.38
299.26	2232.29
299.48	2226.14
299.69	2275.29
299.90	2240.48
300.12	2115.55
300.33	2306.01
300.55	2250.72
300.76	2252.77
300.98	2191.33
301.19	2297.82
301.40	2215.90
301.62	2240.48
301.83	2271.20
302.05	2236.38
302.26	2187.23
302.47	2193.37
302.69	2222.05
302.90	2342.88
303.12	2031.58
303.33	2312.16
303.54	2400.22
303.76	2275.29
303.97	2209.76
304.19	2361.31
304.40	2195.42
304.61	2326.49
304.83	2361.31
305.04	2320.35
305.26	2260.96
305.47	2140.13
305.68	2281.44
305.90	2117.60
306.11	2404.32
306.33	2346.97
306.54	2162.66
306.75	2252.77
306.97	2072.54
307.18	2232.29
307.39	2244.57
307.61	2195.42
307.82	2228.19
308.04	2342.88
308.25	2176.99
308.46	2224.09
308.68	2273.25
308.89	2369.50
309.10	2287.58
309.32	2248.67
309.53	2224.09
309.74	2285.53
309.96	2140.13
310.17	2342.88
310.39	2242.53
310.60	2314.20
310.81	2285.53
311.03	2086.88
311.24	2291.68
311.45	2248.67
311.67	2383.84
311.88	2267.10
312.09	2156.51
312.31	2176.99
312.52	2220.00
312.73	2209.76
312.95	2125.79
313.16	2199.52
313.37	2365.40
313.59	2285.53
313.80	2277.34
314.01	2469.85
314.23	2230.24
314.44	2185.18
314.65	2138.08
314.87	2209.76
315.08	2215.90
315.29	2189.28
315.51	2150.37
315.72	2088.93
315.93	2379.74
316.15	2289.63
316.36	2121.70
316.57	2240.48
316.79	2283.49
317.00	2191.33
317.21	2291.68
317.43	2228.19
317.64	2242.53
317.85	2076.64
318.07	2215.90
318.28	2258.91
318.49	2283.49
318.70	2408.41
318.92	2342.88
319.13	2441.18
319.34	2332.64
319.56	2295.77
319.77	2344.92
319.98	2373.60
320.20	2377.69
320.41	2269.15
320.62	2308.06
320.83	2168.80
321.05	2445.27
321.26	2211.81
321.47	2224.09
321.69	2420.70
321.90	2207.71
322.11	2242.53
322.32	2234.33
322.54	2445.27
322.75	2127.84
322.96	2531.29
323.18	2099.17
323.39	2109.41
323.60	2228.19
323.81	2326.49
324.03	2160.61
324.24	2250.72
324.45	2250.72
324.66	2203.61
324.88	2330.59
325.09	2445.27
325.30	2230.24
325.52	2224.09
325.73	2215.90
325.94	2162.66
326.15	2047.97
326.37	2250.72
326.58	2359.26
326.79	2367.45
327.00	2133.98
327.22	2242.53
327.43	2252.77
327.64	2154.46
327.85	2308.06
328.07	2172.89
328.28	2514.91
328.49	2238.43
328.70	2226.14
328.92	2203.61
329.13	2285.53
329.34	2252.77
329.55	2396.12
329.76	2277.34
329.98	2256.86
330.19	2301.92
330.40	2244.57
330.61	2267.10
330.83	2424.80
331.04	2154.46
331.25	2215.90
331.46	2283.49
331.68	2121.70
331.89	2361.31
332.10	2201.57
332.31	2060.26
332.52	2242.53
332.74	2416.60
332.95	2154.46
333.16	2207.71
333.37	2306.01
333.58	2236.38
333.80	2228.19
334.01	2136.03
334.22	2170.85
334.43	2191.33
334.64	2162.66
334.86	2138.08
335.07	2203.61
335.28	2424.80
335.49	2117.60
335.70	2269.15
335.92	2359.26
336.13	2488.28
336.34	2338.78
336.55	2279.39
336.76	2267.10
336.98	2019.30
337.19	2189.28
337.40	2342.88
337.61	2488.28
337.82	2232.29
338.04	2408.41
338.25	2072.54
338.46	2224.09
338.67	2256.86
338.88	2152.42
339.09	2152.42
339.31	2174.94
339.52	2176.99
339.73	2146.27
339.94	2183.13
340.15	2297.82
340.36	2172.89
340.58	2234.33
340.79	2199.52
341.00	2320.35
341.21	2125.79
341.42	2367.45
341.63	2193.37
341.85	2375.64
342.06	2265.05
342.27	2185.18
342.48	2306.01
342.69	2136.03
342.90	2308.06
343.12	2332.64
343.33	2187.23
343.54	2301.92
343.75	2346.97
343.96	2234.33
344.17	2150.37
344.38	2199.52
344.60	2138.08
344.81	2121.70
345.02	2228.19
345.23	2465.75
345.44	2492.38
345.65	2281.44
345.86	2281.44
346.07	2297.82
346.29	2179.04
346.50	2263.01
346.71	2342.88
346.92	2387.93
347.13	2463.71
347.34	2226.14
347.55	2234.33
347.76	2277.34
347.98	2193.37
348.19	2168.80
348.40	2340.83
348.61	2183.13
348.82	2349.02
349.03	2351.07
349.24	2156.51
349.45	2392.03
349.66	2041.82
349.88	2226.14
350.09	2170.85
350.30	2285.53
350.51	2392.03
350.72	2258.91
350.93	2228.19
351.14	2152.42
351.35	2310.11
351.56	2265.05
351.77	2328.54
351.99	2263.01
352.20	2371.55
352.41	2373.60
352.62	2078.69
352.83	2211.81
353.04	2267.10
353.25	2199.52
353.46	2277.34
353.67	2328.54
353.88	2072.54
354.09	2174.94
354.30	2211.81
354.52	2351.07
354.73	2265.05
354.94	2183.13
355.15	2226.14
355.36	2410.46
355.57	2269.15
355.78	2236.38
355.99	2174.94
356.20	2228.19
356.41	2281.44
356.62	2226.14
356.83	2267.10
357.04	2338.78
357.25	2035.68
357.46	2142.18
357.68	2121.70
357.89	2158.56
358.10	2234.33
358.31	2207.71
358.52	2248.67
358.73	2176.99
358.94	2086.88
359.15	2174.94
359.36	2275.29
359.57	2260.96
359.78	2293.72
359.99	2314.20
360.20	2123.74
360.41	2215.90
360.62	2324.44
360.83	2340.83
361.04	2252.77
361.25	2217.95
361.46	2394.08
361.67	2320.35
361.88	2217.95
362.09	2263.01
362.30	2299.87
362.51	2191.33
362.72	2256.86
362.93	2267.10
363.14	2392.03
363.35	2293.72
363.56	2144.22
363.78	2357.21
363.99	2275.29
364.20	2232.29
364.41	2260.96
364.62	2447.32
364.83	2299.87
365.04	2203.61
365.25	2201.57
365.46	2418.65
365.67	2121.70
365.88	2226.14
366.09	2209.76
366.30	2246.62
366.51	2211.81
366.72	2127.84
366.93	2211.81
367.14	2236.38
367.35	2383.84
367.56	2220.00
367.77	2283.49
367.98	2275.29
368.18	2267.10
368.39	2351.07
368.60	2154.46
368.81	2316.25
369.02	2248.67
369.23	2211.81
369.44	2084.83
369.65	2293.72
369.86	2252.77
370.07	2367.45
370.28	2195.42
370.49	2316.25
370.70	2306.01
370.91	2123.74
371.12	2209.76
371.33	2373.60
371.54	2172.89
371.75	2312.16
371.96	2064.35
372.17	2252.77
372.38	2226.14
372.59	2230.24
372.80	2119.65
373.01	2236.38
373.22	2248.67
373.43	2242.53
373.64	2088.93
373.85	2314.20
374.06	2465.75
374.26	2244.57
374.47	2240.48
374.68	2402.27
374.89	2258.91
375.10	2250.72
375.31	2265.05
375.52	2293.72
375.73	2299.87
375.94	2095.07
376.15	2385.88
376.36	2179.04
376.57	2193.37
376.78	2152.42
376.99	2248.67
377.20	2338.78
377.40	2217.95
377.61	2275.29
377.82	2138.08
378.03	2326.49
378.24	2318.30
378.45	2252.77
378.66	2318.30
378.87	2068.45
379.08	2176.99
379.29	2199.52
379.50	2353.12
379.71	2187.23
379.91	2299.87
380.12	2201.57
380.33	2287.58
380.54	2232.29
380.75	2254.81
380.96	2185.18
381.17	2306.01
381.38	2258.91
381.59	2291.68
381.80	2199.52
382.00	2385.88
382.21	2346.97
382.42	2449.37
382.63	2424.80
382.84	2287.58
383.05	2312.16
383.26	2492.38
383.47	2303.96
383.68	2334.68
383.88	2306.01
384.09	2271.20
384.30	2400.22
384.51	2291.68
384.72	2220.00
384.93	2121.70
385.14	2250.72
385.35	2351.07
385.55	2093.02
385.76	2441.18
385.97	2258.91
386.18	2181.09
386.39	2160.61
386.60	2252.77
386.81	2240.48
387.02	2144.22
387.22	2154.46
387.43	2338.78
387.64	2387.93
387.85	2478.04
388.06	2496.47
388.27	4016.07
388.48	8273.79
388.68	11769.68
388.89	14012.20
389.10	14892.83
389.31	13999.91
389.52	10985.30
389.73	9645.93
389.93	8497.02
390.14	7792.52
390.35	7196.56
390.56	6307.74
390.77	5265.33
390.98	4052.93
391.18	3295.18
391.39	2836.44
391.60	2306.01
391.81	2342.88
392.02	2195.42
392.23	2508.76
392.43	2260.96
392.64	2332.64
392.85	2306.01
393.06	2424.80
393.27	2277.34
393.47	2154.46
393.68	2281.44
393.89	2154.46
394.10	2326.49
394.31	2201.57
394.52	2160.61
394.72	2160.61
394.93	2465.75
395.14	2176.99
395.35	2289.63
395.56	2197.47
395.76	2287.58
395.97	2279.39
396.18	2301.92
396.39	2389.98
396.60	2670.55
396.80	2502.62
397.01	2420.70
397.22	2428.89
397.43	2340.83
397.64	2265.05
397.84	2363.36
398.05	2529.24
398.26	2248.67
398.47	2308.06
398.67	2375.64
398.88	2265.05
399.09	2293.72
399.30	2281.44
399.51	2232.29
399.71	2121.70
399.92	2291.68
400.13	2293.72
400.34	2222.05
400.54	2252.77
400.75	2428.89
400.96	2322.40
401.17	2482.14
401.37	2187.23
401.58	2228.19
401.79	2226.14
402.00	2373.60
402.21	2693.08
402.41	2549.72
402.62	2605.02
402.83	2695.13
403.04	2662.36
403.24	2781.14
403.45	2351.07
403.66	2564.06
403.87	2400.22
404.07	2482.14
404.28	2512.86
404.49	2457.56
404.70	2314.20
404.90	2375.64
405.11	2269.15
405.32	2357.21
405.52	2269.15
405.73	2170.85
405.94	2166.75
406.15	2101.22
406.35	2375.64
406.56	2314.20
406.77	2301.92
406.98	2267.10
407.18	2187.23
407.39	2402.27
407.60	2199.52
407.80	2246.62
408.01	2240.48
408.22	2273.25
408.43	2162.66
408.63	2230.24
408.84	2340.83
409.05	2351.07
409.25	2174.94
409.46	2172.89
409.67	2254.81
409.88	2222.05
410.08	2306.01
410.29	2275.29
410.50	2277.34
410.70	2299.87
410.91	2136.03
411.12	2269.15
411.32	2256.86
411.53	2131.94
411.74	2281.44
411.95	2375.64
412.15	2258.91
412.36	2355.16
412.57	2336.73
412.77	2412.51
412.98	2349.02
413.19	2213.85
413.39	2351.07
413.60	2240.48
413.81	2383.84
414.01	2146.27
414.22	2195.42
414.43	2338.78
414.63	2303.96
414.84	2359.26
415.05	2248.67
415.25	2176.99
415.46	2275.29
415.67	2310.11
415.87	2291.68
416.08	2252.77
416.29	2314.20
416.49	2275.29
416.70	2213.85
416.91	2150.37
417.11	2244.57
417.32	2291.68
417.53	2340.83
417.73	2287.58
417.94	2138.08
418.15	2226.14
418.35	2334.68
418.56	2252.77
418.77	2555.86
418.97	2306.01
419.18	2228.19
419.38	2007.01
419.59	2334.68
419.80	2416.60
420.00	2244.57
420.21	2211.81
420.42	2351.07
420.62	2326.49
420.83	2187.23
421.04	2158.56
421.24	2232.29
421.45	2295.77
421.65	2324.44
421.86	2185.18
422.07	2365.40
422.27	2232.29
422.48	2248.67
422.69	2181.09
422.89	2203.61
423.10	2226.14
423.30	2136.03
423.51	2312.16
423.72	2213.85
423.92	2392.03
424.13	2125.79
424.33	2285.53
424.54	2283.49
424.75	2291.68
424.95	2455.51
425.16	2207.71
425.36	2215.90
425.57	2303.96
425.78	2265.05
425.98	2301.92
426.19	2277.34
426.39	2158.56
426.60	2236.38
426.81	2412.51
427.01	2293.72
427.22	2228.19
427.42	2166.75
427.63	2209.76
427.83	2361.31
428.04	2465.75
428.25	2336.73
428.45	2332.64
428.66	2363.36
428.86	2160.61
429.07	2224.09
429.28	2252.77
429.48	2238.43
429.69	2211.81
429.89	2254.81
430.10	2193.37
430.30	2379.74
430.51	2375.64
430.71	2168.80
430.92	2269.15
431.13	2273.25
431.33	2297.82
431.54	2230.24
431.74	2455.51
431.95	2562.01
432.15	2158.56
432.36	2246.62
432.56	2346.97
432.77	2541.53
432.98	2418.65
433.18	2213.85
433.39	2271.20
433.59	2193.37
433.80	2523.10
434.00	2533.34
434.21	2191.33
434.41	2136.03
434.62	2449.37
434.82	2172.89
435.03	2217.95
435.23	2351.07
435.44	2043.87
435.64	2117.60
435.85	2285.53
436.06	2316.25
436.26	2318.30
436.47	2224.09
436.67	2209.76
436.88	2201.57
437.08	2379.74
437.29	2416.60
437.49	2263.01
437.70	2367.45
437.90	2310.11
438.11	2375.64
438.31	2320.35
438.52	2424.80
438.72	2402.27
438.93	2500.57
439.13	2392.03
439.34	2414.56
439.54	2285.53
439.75	2308.06
439.95	2371.55
440.16	2195.42
440.36	2346.97
440.57	2322.40
440.77	2355.16
440.98	2238.43
441.18	2320.35
441.39	2236.38
441.59	2136.03
441.80	2473.95
442.00	2238.43
442.21	2398.17
442.41	2146.27
442.62	2332.64
442.82	2193.37
443.02	2277.34
443.23	2269.15
443.43	2193.37
443.64	2414.56
443.84	2222.05
444.05	2324.44
444.25	2308.06
444.46	2258.91
444.66	2220.00
444.87	2453.47
445.07	2152.42
445.28	2244.57
445.48	2422.75
445.69	2316.25
445.89	2512.86
446.09	2244.57
446.30	2531.29
446.50	2797.53
446.71	4411.32
446.91	5478.32
447.12	6215.59
447.32	6774.68
447.53	6143.91
447.73	5158.83
447.93	4554.68
448.14	4259.78
448.34	4052.93
448.55	3659.72
448.75	3549.13
448.96	3403.72
449.16	3051.47
449.36	2889.68
449.57	2514.91
449.77	2416.60
449.98	2301.92
450.18	2301.92
450.39	2346.97
450.59	2314.20
450.79	2236.38
451.00	2121.70
451.20	2310.11
451.41	2199.52
451.61	2334.68
451.81	2246.62
452.02	2222.05
452.22	2265.05
452.43	2246.62
452.63	2158.56
452.84	2185.18
453.04	2185.18
453.24	2271.20
453.45	2254.81
453.65	2246.62
453.86	2291.68
454.06	2342.88
454.26	2310.11
454.47	2179.04
454.67	2326.49
454.87	2289.63
455.08	2176.99
455.28	2412.51
455.49	2248.67
455.69	2187.23
455.89	2488.28
456.10	2400.22
456.30	2285.53
456.51	2342.88
456.71	2291.68
456.91	2279.39
457.12	2181.09
457.32	2222.05
457.52	2217.95
457.73	2283.49
457.93	2392.03
458.14	2217.95
458.34	2142.18
458.54	2279.39
458.75	2228.19
458.95	2330.59
459.15	2346.97
459.36	2252.77
459.56	2306.01
459.76	2529.24
459.97	2316.25
460.17	2289.63
460.37	2281.44
460.58	2334.68
460.78	2351.07
460.99	2199.52
461.19	2279.39
461.39	2273.25
461.60	2199.52
461.80	2281.44
462.00	1994.72
462.21	2285.53
462.41	2222.05
462.61	2201.57
462.82	2111.46
463.02	2402.27
463.22	2320.35
463.43	2357.21
463.63	2263.01
463.83	2334.68
464.04	2308.06
464.24	2209.76
464.44	2215.90
464.64	2273.25
464.85	2332.64
465.05	2340.83
465.25	2224.09
465.46	2283.49
465.66	2326.49
465.86	2340.83
466.07	2203.61
466.27	2203.61
466.47	2140.13
466.68	2154.46
466.88	2392.03
467.08	2342.88
467.29	2318.30
467.49	2326.49
467.69	2203.61
467.89	2293.72
468.10	2269.15
468.30	2277.34
468.50	2303.96
468.71	2349.02
468.91	2072.54
469.11	2414.56
469.31	2324.44
469.52	2238.43
469.72	2420.70
469.92	2469.85
470.13	2326.49
470.33	2283.49
470.53	2482.14
470.73	2605.02
470.94	3030.99
471.14	3182.54
471.34	3579.85
471.54	3416.01
471.75	3196.88
471.95	2783.19
472.15	2715.61
472.36	2731.99
472.56	2813.91
472.76	2725.85
472.96	2559.96
473.17	2488.28
473.37	2443.23
473.57	2267.10
473.77	2396.12
473.98	2346.97
474.18	2129.89
474.38	2633.69
474.58	2258.91
474.79	2097.12
474.99	2322.40
475.19	2389.98
475.39	2224.09
475.60	2293.72
475.80	2226.14
476.00	2301.92
476.20	2150.37
476.41	2244.57
476.61	2412.51
476.81	2371.55
477.01	2242.53
477.21	2396.12
477.42	2392.03
477.62	2217.95
477.82	2351.07
478.02	2076.64
478.23	2338.78
478.43	2158.56
478.63	2220.00
478.83	2172.89
479.03	2193.37
479.24	2342.88
479.44	2428.89
479.64	2275.29
479.84	2007.01
480.04	2160.61
480.25	2359.26
480.45	2166.75
480.65	2275.29
480.85	2467.80
481.06	2217.95
481.26	2269.15
481.46	2244.57
481.66	2371.55
481.86	2250.72
482.06	2394.08
482.27	2260.96
482.47	2252.77
482.67	2273.25
482.87	2220.00
483.07	2371.55
483.28	2248.67
483.48	2115.55
483.68	2258.91
483.88	2131.94
484.08	2045.92
484.29	2154.46
484.49	2301.92
484.69	2123.74
484.89	2367.45
485.09	2289.63
485.29	2260.96
485.50	2299.87
485.70	2269.15
485.90	2473.95
486.10	2215.90
486.30	2265.05
486.50	2400.22
486.71	2293.72
486.91	2334.68
487.11	2295.77
487.31	2162.66
487.51	2349.02
487.71	2160.61
487.91	2152.42
488.12	2164.70
488.32	2023.39
488.52	2191.33
488.72	2009.06
488.92	2220.00
489.12	2392.03
489.32	2424.80
489.53	2355.16
489.73	2160.61
489.93	2414.56
490.13	2226.14
490.33	2082.78
490.53	2279.39
490.73	2312.16
490.94	2162.66
491.14	2328.54
491.34	2379.74
491.54	2557.91
491.74	3127.25
491.94	3753.93
492.14	4034.50
492.34	4163.52
492.54	3764.17
492.75	3227.60
492.95	3209.17
493.15	3014.61
493.35	2914.26
493.55	2865.11
493.75	2652.12
493.95	2801.62
494.15	2564.06
494.35	2336.73
494.56	2392.03
494.76	2199.52
494.96	2326.49
495.16	2295.77
495.36	2291.68
495.56	2326.49
495.76	2205.66
495.96	2234.33
496.16	2164.70
496.36	2492.38
496.56	2232.29
496.77	2279.39
496.97	2224.09
497.17	2426.84
497.37	2113.50
497.57	2334.68
497.77	2275.29
497.97	2176.99
498.17	2242.53
498.37	2228.19
498.57	2285.53
498.77	2236.38
498.97	2318.30
499.17	2498.52
499.38	2299.87
499.58	2254.81
499.78	2432.99
499.98	2383.84
500.18	2269.15
500.38	2215.90
500.58	2510.81
500.78	2836.44
500.98	5183.41
501.18	7153.55
501.38	8624.00
501.58	9752.43
501.78	9674.60
501.98	7612.30
502.18	6485.92
502.38	5380.01
502.58	5136.31
502.78	4689.85
502.98	4464.57
503.18	4294.59
503.38	3966.92
503.59	3528.65
503.79	3194.83
503.99	2963.41
504.19	2820.05
504.39	2832.34
504.59	2887.64
504.79	2809.81
504.99	2813.91
505.19	2549.72
505.39	2510.81
505.59	2602.97
505.79	2557.91
505.99	2381.79
506.19	2396.12
506.39	2543.58
506.59	2234.33
506.79	2246.62
506.99	2410.46
507.19	2273.25
507.39	2236.38
507.59	2195.42
507.79	2162.66
507.99	2193.37
508.19	2269.15
508.39	2252.77
508.59	2258.91
508.79	2355.16
508.99	2504.67
509.19	2213.85
509.39	2387.93
509.59	2176.99
509.79	2199.52
509.99	2220.00
510.19	2346.97
510.39	2396.12
510.59	2306.01
510.79	2295.77
510.99	2131.94
511.19	2269.15
511.39	2488.28
511.59	2414.56
511.79	2494.43
511.99	2244.57
512.19	2510.81
512.38	2310.11
512.58	2211.81
512.78	2256.86
512.98	2297.82
513.18	2457.56
513.38	2072.54
513.58	2408.41
513.78	2258.91
513.98	2240.48
514.18	2248.67
514.38	2238.43
514.58	2291.68
514.78	2258.91
514.98	2242.53
515.18	2283.49
515.38	2179.04
515.58	2506.71
515.78	2121.70
515.98	2258.91
516.18	2340.83
516.38	2195.42
516.57	2164.70
516.77	2256.86
516.97	2285.53
517.17	2166.75
517.37	2140.13
517.57	2373.60
517.77	2224.09
517.97	2162.66
518.17	2277.34
518.37	2185.18
518.57	2187.23
518.77	2222.05
518.97	2275.29
519.16	2312.16
519.36	2424.80
519.56	2242.53
519.76	2224.09
519.96	2234.33
520.16	2457.56
520.36	2185.18
520.56	2420.70
520.76	2226.14
520.96	2220.00
521.16	2373.60
521.35	2414.56
521.55	2404.32
521.75	2258.91
521.95	2265.05
522.15	2201.57
522.35	2086.88
522.55	2168.80
522.75	2314.20
522.95	2256.86
523.14	2172.89
523.34	2260.96
523.54	2256.86
523.74	2310.11
523.94	2314.20
524.14	2101.22
524.34	2285.53
524.54	2437.08
524.73	2279.39
524.93	2373.60
525.13	2334.68
525.33	2193.37
525.53	2504.67
525.73	2297.82
525.93	2277.34
526.13	2275.29
526.32	2176.99
526.52	2387.93
526.72	2330.59
526.92	2162.66
527.12	2189.28
527.32	2207.71
527.52	2228.19
527.71	2291.68
527.91	2322.40
528.11	2277.34
528.31	2158.56
528.51	2117.60
528.71	2310.11
528.90	2281.44
529.10	2410.46
529.30	2340.83
529.50	2078.69
529.70	2228.19
529.90	2394.08
530.09	2277.34
530.29	2125.79
530.49	2097.12
530.69	2539.48
530.89	2246.62
531.09	2375.64
531.28	2234.33
531.48	2359.26
531.68	2252.77
531.88	2263.01
532.08	2289.63
532.28	2322.40
532.47	2361.31
532.67	2406.36
532.87	2318.30
533.07	2209.76
533.27	2371.55
533.46	2324.44
533.66	2291.68
533.86	2181.09
534.06	2324.44
534.26	2234.33
534.45	2224.09
534.65	2316.25
534.85	2256.86
535.05	2199.52
535.25	2349.02
535.44	2125.79
535.64	2303.96
535.84	2291.68
536.04	2179.04
536.24	2254.81
536.43	2207.71
536.63	2306.01
536.83	2252.77
537.03	2342.88
537.22	2144.22
537.42	2103.26
537.62	2283.49
537.82	2217.95
538.02	2334.68
538.21	2338.78
538.41	2547.67
538.61	2332.64
538.81	2230.24
539.00	2404.32
539.20	2123.74
539.40	2220.00
539.60	2318.30
539.79	2363.36
539.99	2293.72
540.19	2242.53
540.39	2246.62
540.58	2267.10
540.78	2359.26
540.98	2285.53
541.18	2357.21
541.37	2310.11
541.57	2306.01
541.77	2396.12
541.97	2113.50
542.16	2125.79
542.36	2217.95
542.56	2275.29
542.76	2457.56
542.95	2299.87
543.15	2318.30
543.35	2367.45
543.54	2166.75
543.74	2285.53
543.94	2418.65
544.14	2250.72
544.33	2346.97
544.53	2162.66
544.73	2244.57
544.93	2232.29
545.12	2236.38
545.32	2228.19
545.52	2220.00
545.71	2152.42
545.91	2232.29
546.11	2220.00
546.30	2146.27
546.50	2295.77
546.70	2334.68
546.90	2349.02
547.09	2086.88
547.29	2310.11
547.49	2287.58
547.68	2205.66
547.88	2224.09
548.08	2351.07
548.27	2779.09
548.47	2193.37
548.67	2215.90
548.87	2256.86
549.06	2244.57
549.26	2303.96
549.46	2330.59
549.65	2263.01
549.85	2252.77
550.05	2336.73
550.24	2150.37
550.44	2215.90
550.64	2301.92
550.83	2267.10
551.03	2361.31
551.23	2330.59
551.42	2332.64
551.62	2328.54
551.82	2260.96
552.01	2242.53
552.21	2359.26
552.41	2211.81
552.60	2447.32
552.80	2277.34
553.00	2220.00
553.19	2306.01
553.39	2389.98
553.59	2146.27
553.78	2416.60
553.98	2293.72
554.17	2170.85
554.37	2287.58
554.57	2353.12
554.76	2127.84
554.96	2117.60
555.16	2256.86
555.35	2244.57
555.55	2291.68
555.75	2267.10
555.94	2310.11
556.14	2097.12
556.33	2234.33
556.53	2312.16
556.73	2351.07
556.92	2232.29
557.12	2381.79
557.32	2480.09
557.51	2408.41
557.71	2340.83
557.90	2430.94
558.10	2432.99
558.30	2244.57
558.49	2203.61
558.69	2176.99
558.88	2291.68
559.08	2289.63
559.28	2252.77
559.47	2203.61
559.67	2293.72
559.86	2504.67
560.06	2361.31
560.26	2285.53
560.45	2291.68
560.65	2265.05
560.84	2367.45
561.04	2217.95
561.24	2306.01
561.43	2097.12
561.63	2416.60
561.82	2277.34
562.02	2281.44
562.22	2166.75
562.41	2191.33
562.61	2263.01
562.80	2193.37
563.00	2547.67
563.19	2250.72
563.39	2310.11
563.59	2250.72
563.78	2215.90
563.98	2105.31
564.17	2242.53
564.37	2088.93
564.56	2275.29
564.76	2138.08
564.96	2392.03
565.15	2293.72
565.35	2486.23
565.54	2213.85
565.74	2326.49
565.93	2351.07
566.13	2234.33
566.32	2314.20
566.52	2277.34
566.71	2301.92
566.91	2357.21
567.11	2367.45
567.30	2215.90
567.50	2324.44
567.69	2332.64
567.89	2291.68
568.08	2232.29
568.28	2295.77
568.47	2183.13
568.67	2277.34
568.86	2222.05
569.06	2312.16
569.25	2242.53
569.45	2146.27
569.64	2258.91
569.84	2258.91
570.04	2263.01
570.23	2185.18
570.43	2226.14
570.62	2275.29
570.82	2437.08
571.01	2123.74
571.21	2183.13
571.40	2254.81
571.60	2330.59
571.79	2318.30
571.99	2273.25
572.18	2207.71
572.38	2299.87
572.57	2203.61
572.77	2353.12
572.96	2596.82
573.16	2324.44
573.35	2238.43
573.55	2457.56
573.74	2349.02
573.94	2250.72
574.13	2230.24
574.33	2316.25
574.52	2357.21
574.71	2332.64
574.91	2293.72
575.10	2133.98
575.30	2318.30
575.49	2162.66
575.69	2193.37
575.88	2355.16
576.08	2308.06
576.27	2389.98
576.47	2271.20
576.66	2457.56
576.86	2365.40
577.05	2322.40
577.25	2326.49
577.44	2459.61
577.64	2287.58
577.83	2365.40
578.02	2228.19
578.22	2379.74
578.41	2549.72
578.61	2222.05
578.80	2170.85
579.00	2308.06
579.19	2273.25
579.39	2336.73
579.58	2346.97
579.77	2260.96
579.97	2424.80
580.16	2455.51
580.36	2416.60
580.55	2373.60
580.75	2316.25
580.94	2332.64
581.13	2461.66
581.33	2400.22
581.52	2226.14
581.72	2459.61
581.91	2326.49
582.11	2277.34
582.30	2383.84
582.49	2310.11
582.69	2445.27
582.88	2363.36
583.08	2398.17
583.27	2420.70
583.47	2330.59
583.66	2275.29
583.85	2197.47
584.05	2306.01
584.24	2367.45
584.44	2328.54
584.63	2461.66
584.82	2428.89
585.02	2447.32
585.21	2459.61
585.41	2428.89
585.60	2396.12
585.79	2559.96
585.99	2584.54
586.18	2494.43
586.37	3039.19
586.57	4659.13
586.76	14032.68
586.96	33043.98
587.15	46845.24
587.34	56136.87
587.54	61295.70
587.73	56358.05
587.93	39368.10
588.12	29883.96
588.31	23959.19
588.51	21063.36
588.70	19418.84
588.89	17239.80
589.09	15261.46
589.28	13303.60
589.47	10520.42
589.67	8247.17
589.86	6524.83
590.06	4716.47
590.25	3844.04
590.44	3174.35
590.64	2811.86
590.83	2613.21
591.02	2613.21
591.22	2406.36
591.41	2357.21
591.60	2359.26
591.80	2553.82
591.99	2193.37
592.18	2230.24
592.38	2392.03
592.57	2260.96
592.76	2373.60
592.96	2301.92
593.15	2289.63
593.34	2379.74
593.54	2260.96
593.73	2396.12
593.92	2332.64
594.12	2367.45
594.31	2318.30
594.50	2465.75
594.70	2379.74
594.89	2596.82
595.08	2224.09
595.28	2336.73
595.47	2621.40
595.66	2318.30
595.86	2129.89
596.05	2211.81
596.24	2252.77
596.43	2396.12
596.63	2367.45
596.82	2299.87
597.01	2443.23
597.21	2416.60
597.40	2379.74
597.59	2385.88
597.79	2258.91
597.98	2394.08
598.17	2222.05
598.36	2250.72
598.56	2371.55
598.75	2242.53
598.94	2316.25
599.14	2273.25
599.33	2170.85
599.52	2389.98
599.71	2371.55
599.91	2318.30
600.10	2367.45
600.29	2232.29
600.48	2351.07
600.68	2275.29
600.87	2301.92
601.06	2215.90
601.26	2201.57
601.45	2324.44
601.64	2275.29
601.83	2437.08
602.03	2258.91
602.22	2164.70
602.41	2416.60
602.60	2609.11
602.80	2363.36
602.99	2258.91
603.18	2199.52
603.37	2303.96
603.57	2285.53
603.76	2318.30
603.95	2463.71
604.14	2256.86
604.34	2181.09
604.53	2187.23
604.72	2209.76
604.91	2365.40
605.10	2324.44
605.30	2211.81
605.49	2461.66
605.68	2394.08
605.87	2258.91
606.07	2217.95
606.26	2244.57
606.45	2410.46
606.64	2349.02
606.84	2183.13
607.03	2240.48
607.22	2449.37
607.41	2205.66
607.60	2179.04
607.80	2414.56
607.99	2213.85
608.18	2359.26
608.37	2275.29
608.56	2244.57
608.76	2428.89
608.95	2394.08
609.14	2408.41
609.33	2449.37
609.52	2443.23
609.72	2357.21
609.91	2355.16
610.10	2275.29
610.29	2529.24
610.48	2392.03
610.68	2363.36
610.87	2260.96
611.06	2416.60
611.25	2279.39
611.44	2314.20
611.63	2203.61
611.83	2416.60
612.02	2199.52
612.21	2377.69
612.40	2152.42
612.59	2097.12
612.79	2039.78
612.98	2246.62
613.17	2392.03
613.36	2334.68
613.55	2496.47
613.74	2340.83
613.93	2490.33
614.13	2465.75
614.32	2482.14
614.51	2482.14
614.70	2240.48
614.89	2273.25
615.08	2381.79
615.28	2760.66
615.47	2172.89
615.66	2318.30
615.85	2373.60
616.04	2510.81
616.23	2357.21
616.42	2320.35
616.62	2275.29
616.81	2326.49
617.00	2291.68
617.19	2379.74
617.38	2275.29
617.57	2283.49
617.76	2318.30
617.95	2326.49
618.15	2308.06
618.34	2451.42
618.53	2140.13
618.72	2389.98
618.91	2459.61
619.10	2338.78
619.29	2316.25
619.48	2248.67
619.68	2203.61
619.87	2248.67
620.06	2113.50
620.25	2310.11
620.44	2236.38
620.63	2226.14
620.82	2340.83
621.01	2334.68
621.20	2230.24
621.39	2310.11
621.59	2322.40
621.78	2293.72
621.97	2220.00
622.16	2263.01
622.35	2334.68
622.54	2351.07
622.73	2269.15
622.92	2136.03
623.11	2424.80
623.30	2289.63
623.49	2293.72
623.68	2115.55
623.88	2353.12
624.07	2275.29
624.26	2201.57
624.45	2297.82
624.64	2220.00
624.83	2365.40
625.02	2256.86
625.21	2265.05
625.40	2240.48
625.59	2461.66
625.78	2299.87
625.97	2424.80
626.16	2412.51
626.35	2453.47
626.54	2355.16
626.74	2437.08
626.93	2291.68
627.12	2299.87
627.31	2408.41
627.50	2334.68
627.69	2371.55
627.88	2176.99
628.07	2179.04
628.26	2170.85
628.45	2146.27
628.64	2205.66
628.83	2277.34
629.02	2230.24
629.21	2281.44
629.40	2340.83
629.59	2215.90
629.78	2246.62
629.97	2308.06
630.16	2303.96
630.35	2203.61
630.54	2250.72
630.73	2312.16
630.92	2191.33
631.11	2201.57
631.30	2293.72
631.49	2400.22
631.68	2283.49
631.87	2232.29
632.06	2144.22
632.25	2502.62
632.44	2285.53
632.63	2312.16
632.82	2283.49
633.01	2318.30
633.20	2312.16
633.39	2312.16
633.58	2162.66
633.77	2400.22
633.96	2320.35
634.15	2338.78
634.34	2283.49
634.53	2320.35
634.72	2201.57
634.91	2142.18
635.10	2242.53
635.29	2349.02
635.48	2297.82
635.67	2213.85
635.86	2095.07
636.05	2430.94
636.24	2256.86
636.43	2277.34
636.62	2277.34
636.81	2088.93
637.00	2295.77
637.19	2254.81
637.38	2271.20
637.57	2238.43
637.76	2338.78
637.95	2389.98
638.14	2349.02
638.33	2432.99
638.52	2285.53
638.71	2234.33
638.89	2154.46
639.08	2600.92
639.27	2387.93
639.46	2527.19
639.65	2752.47
639.84	2834.39
640.03	3063.76
640.22	2731.99
640.41	2850.77
640.60	2486.23
640.79	2578.39
640.98	2478.04
641.17	2506.71
641.36	2449.37
641.55	2480.09
641.74	2226.14
641.92	2285.53
642.11	2183.13
642.30	2273.25
642.49	2195.42
642.68	2185.18
642.87	2310.11
643.06	2338.78
643.25	2164.70
643.44	2174.94
643.63	2217.95
643.82	2252.77
644.00	2191.33
644.19	2234.33
644.38	2170.85
644.57	2306.01
644.76	2258.91
644.95	2303.96
645.14	2248.67
645.33	2263.01
645.52	2260.96
645.71	2158.56
645.89	2222.05
646.08	2220.00
646.27	2258.91
646.46	2389.98
646.65	2156.51
646.84	2373.60
647.03	2201.57
647.22	2336.73
647.40	2320.35
647.59	2176.99
647.78	2131.94
647.97	2168.80
648.16	2121.70
648.35	2451.42
648.54	2375.64
648.73	2197.47
648.91	2389.98
649.10	2201.57
649.29	2152.42
649.48	2291.68
649.67	2334.68
649.86	2355.16
650.05	2404.32
650.23	2514.91
650.42	2297.82
650.61	2469.85
650.80	2555.86
650.99	2531.29
651.18	2428.89
651.36	2363.36
651.55	2273.25
651.74	2342.88
651.93	2293.72
652.12	2265.05
652.31	2265.05
652.49	2265.05
652.68	2213.85
652.87	2457.56
653.06	2334.68
653.25	2457.56
653.44	2265.05
653.62	2404.32
653.81	2238.43
654.00	2265.05
654.19	2314.20
654.38	2586.58
654.56	2371.55
654.75	2215.90
654.94	2363.36
655.13	2248.67
655.32	2152.42
655.51	2355.16
655.69	2080.74
655.88	2236.38
656.07	2133.98
656.26	2293.72
656.45	2090.98
656.63	2256.86
656.82	2238.43
657.01	2355.16
657.20	2140.13
657.38	2463.71
657.57	2189.28
657.76	2082.78
657.95	2342.88
658.14	2244.57
658.32	2224.09
658.51	2150.37
658.70	2277.34
658.89	2232.29
659.08	2291.68
659.26	2465.75
659.45	2228.19
659.64	2416.60
659.83	2232.29
660.01	2670.55
660.20	2351.07
660.39	2416.60
660.58	2097.12
660.76	2334.68
660.95	2121.70
661.14	2248.67
661.33	2170.85
661.51	2215.90
661.70	2224.09
661.89	2308.06
662.08	2187.23
662.26	2197.47
662.45	2217.95
662.64	2455.51
662.83	2308.06
663.01	2193.37
663.20	2213.85
663.39	2465.75
663.58	2258.91
663.76	2236.38
663.95	2369.50
664.14	2256.86
664.32	2211.81
664.51	2123.74
664.70	2072.54
664.89	2310.11
665.07	2113.50
665.26	2363.36
665.45	2209.76
665.64	2367.45
665.82	2258.91
666.01	2383.84
666.20	2203.61
666.38	2355.16
666.57	2416.60
666.76	3422.16
666.95	8204.16
667.13	16385.80
667.32	21350.07
667.51	24872.58
667.69	26484.33
667.88	24159.89
668.07	17133.31
668.25	14024.49
668.44	11423.57
668.63	10002.28
668.81	8630.14
669.00	7591.82
669.19	6913.94
669.38	5978.02
669.56	5119.92
669.75	4294.59
669.94	3641.29
670.12	3080.14
670.31	2734.04
670.50	2629.59
670.68	2512.86
670.87	2424.80
671.06	2330.59
671.24	2306.01
671.43	2435.03
671.62	2439.13
671.80	2299.87
671.99	2346.97
672.18	2334.68
672.36	2363.36
672.55	2250.72
672.74	2228.19
672.92	2260.96
673.11	2271.20
673.29	2136.03
673.48	2336.73
673.67	2260.96
673.85	2375.64
674.04	2187.23
674.23	2254.81
674.41	2498.52
674.60	2105.31
674.79	2121.70
674.97	2142.18
675.16	2340.83
675.34	2432.99
675.53	2258.91
675.72	2273.25
675.90	2455.51
676.09	2217.95
676.28	2250.72
676.46	2093.02
676.65	2265.05
676.83	2187.23
677.02	2258.91
677.21	2224.09
677.39	2389.98
677.58	2234.33
677.77	2195.42
677.95	2127.84
678.14	2269.15
678.32	2226.14
678.51	2213.85
678.70	2432.99
678.88	2226.14
679.07	2246.62
679.25	2226.14
679.44	2246.62
679.63	2117.60
679.81	2279.39
680.00	2275.29
680.18	2297.82
680.37	2363.36
680.55	2201.57
680.74	2150.37
680.93	2105.31
681.11	2349.02
681.30	2269.15
681.48	2293.72
681.67	2228.19
681.85	2236.38
682.04	2117.60
682.23	2351.07
682.41	2205.66
682.60	2258.91
682.78	2228.19
682.97	2187.23
683.15	2207.71
683.34	2338.78
683.53	2326.49
683.71	2168.80
683.90	2295.77
684.08	2424.80
684.27	2160.61
684.45	2271.20
684.64	2336.73
684.82	2187.23
685.01	2320.35
685.19	2281.44
685.38	2369.50
685.57	2205.66
685.75	2144.22
685.94	2242.53
686.12	2154.46
686.31	2222.05
686.49	2453.47
686.68	2119.65
686.86	2240.48
687.05	2191.33
687.23	2439.13
687.42	2211.81
687.60	2072.54
687.79	2367.45
687.97	2387.93
688.16	2349.02
688.34	2314.20
688.53	2041.82
688.71	2238.43
688.90	2375.64
689.08	2207.71
689.27	2074.59
689.45	2385.88
689.64	2250.72
689.82	2195.42
690.01	2373.60
690.19	2293.72
690.38	2273.25
690.56	2373.60
690.75	2138.08
690.93	2226.14
691.12	2260.96
691.30	2244.57
691.49	2160.61
691.67	2252.77
691.86	2455.51
692.04	2254.81
692.23	2308.06
692.41	2308.06
692.60	2500.57
692.78	2398.17
692.97	2301.92
693.15	2281.44
693.34	2482.14
693.52	2375.64
693.71	2213.85
693.89	2258.91
694.08	2099.17
694.26	2385.88
694.44	2422.75
694.63	2310.11
694.81	2123.74
695.00	2213.85
695.18	2342.88
695.37	2486.23
695.55	2320.35
695.74	2326.49
695.92	2121.70
696.10	2478.04
696.29	2162.66
696.47	2172.89
696.66	2174.94
696.84	2189.28
697.03	2273.25
697.21	2488.28
697.40	3360.72
697.58	2451.42
697.76	2209.76
697.95	2101.22
698.13	2176.99
698.32	2209.76
698.50	2236.38
698.68	2336.73
698.87	2336.73
699.05	2492.38
699.24	2189.28
699.42	2209.76
699.61	2293.72
699.79	2246.62
699.97	2230.24
700.16	2144.22
700.34	2138.08
700.53	2236.38
700.71	2392.03
700.89	2291.68
701.08	2234.33
701.26	2308.06
701.45	2777.05
701.63	2176.99
701.81	2215.90
702.00	2230.24
702.18	2273.25
702.37	2222.05
702.55	2490.33
702.73	2394.08
702.92	2389.98
703.10	2545.63
703.28	2473.95
703.47	2269.15
703.65	2435.03
703.84	2383.84
704.02	2310.11
704.20	2455.51
704.39	2285.53
704.57	2263.01
704.75	2457.56
704.94	2326.49
705.12	2342.88
705.30	2523.10
705.49	4526.01
705.67	10372.96
705.86	18134.76
706.04	21743.28
706.22	25013.89
706.41	25630.33
706.59	21776.05
706.77	15728.40
706.96	13197.11
707.14	11409.23
707.32	9869.16
707.51	8736.63
707.69	7393.17
707.87	5840.81
708.06	4724.66
708.24	4022.21
708.42	3149.78
708.61	3076.05
708.79	2512.86
708.97	2400.22
709.16	2496.47
709.34	2306.01
709.52	2299.87
709.71	2326.49
709.89	2299.87
710.07	2119.65
710.26	2129.89
710.44	2150.37
710.62	2441.18
710.80	2316.25
710.99	2371.55
711.17	2389.98
711.35	2166.75
711.54	2297.82
711.72	2357.21
711.90	2308.06
712.09	2287.58
712.27	2152.42
712.45	2277.34
712.63	2191.33
712.82	2299.87
713.00	2201.57
713.18	2361.31
713.37	2308.06
713.55	2308.06
713.73	2349.02
713.91	2291.68
714.10	2271.20
714.28	2205.66
714.46	2336.73
714.65	2289.63
714.83	2193.37
715.01	2293.72
715.19	2203.61
715.38	2179.04
715.56	2193.37
715.74	2211.81
715.92	2269.15
716.11	2383.84
716.29	2093.02
716.47	2215.90
716.65	2256.86
716.84	2088.93
717.02	2308.06
717.20	2039.78
717.38	2213.85
717.57	2220.00
717.75	2256.86
717.93	2158.56
718.11	2322.40
718.30	2176.99
718.48	2234.33
718.66	2310.11
718.84	2461.66
719.03	2246.62
719.21	2136.03
719.39	2400.22
719.57	2334.68
719.75	2377.69
719.94	2166.75
720.12	2179.04
720.30	2273.25
720.48	2381.79
720.67	2144.22
720.85	2226.14
721.03	2209.76
721.21	2185.18
721.39	2383.84
721.58	2324.44
721.76	2228.19
721.94	2301.92
722.12	2236.38
722.30	2367.45
722.49	2199.52
722.67	2310.11
722.85	2271.20
723.03	2160.61
723.21	2222.05
723.40	2176.99
723.58	2332.64
723.76	2381.79
723.94	2529.24
724.12	2334.68
724.30	2334.68
724.49	2416.60
724.67	2277.34
724.85	2430.94
725.03	2117.60
725.21	2369.50
725.40	2357.21
725.58	2242.53
725.76	2369.50
725.94	2283.49
726.12	2226.14
726.30	2289.63
726.49	2314.20
726.67	2293.72
726.85	2344.92
727.03	2547.67
727.21	3639.24
727.39	4986.80
727.57	5762.98
727.76	6457.25
727.94	6879.13
728.12	6406.05
728.30	5162.93
728.48	4626.36
728.66	4161.47
728.84	3782.60
729.03	3307.47
729.21	3059.67
729.39	2705.37
729.57	2408.41
729.75	2416.60
729.93	2398.17
730.11	2301.92
730.30	2193.37
730.48	2256.86
730.66	2392.03
730.84	2301.92
731.02	2283.49
731.20	2185.18
731.38	2230.24
731.56	2117.60
731.74	2179.04
731.93	2277.34
732.11	2273.25
732.29	2191.33
732.47	2359.26
732.65	2269.15
732.83	2416.60
733.01	2285.53
733.19	2105.31
733.37	2263.01
733.56	2285.53
733.74	2236.38
733.92	2379.74
734.10	2232.29
734.28	2349.02
734.46	2101.22
734.64	2203.61
734.82	2179.04
735.00	2168.80
735.18	2183.13
735.36	2228.19
735.54	2248.67
735.73	2289.63
735.91	2269.15
736.09	2344.92
736.27	2297.82
736.45	2252.77
736.63	2115.55
736.81	2234.33
736.99	2398.17
737.17	2355.16
737.35	2244.57
737.53	2224.09
737.71	2250.72
737.89	2293.72
738.07	2248.67
738.25	2160.61
738.43	2140.13
738.61	2222.05
738.80	2095.07
738.98	2150.37
739.16	2181.09
739.34	2183.13
739.52	2418.65
739.70	2226.14
739.88	2351.07
740.06	2394.08
740.24	1943.52
740.42	2351.07
740.60	2070.50
740.78	2301.92
740.96	2031.58
741.14	2244.57
741.32	2312.16
741.50	2113.50
741.68	2469.85
741.86	2371.55
742.04	2117.60
742.22	2181.09
742.40	2207.71
742.58	2400.22
742.76	2162.66
742.94	2377.69
743.12	2158.56
743.30	2285.53
743.48	2312.16
743.66	2166.75
743.84	2240.48
744.02	2211.81
744.20	2228.19
744.38	2154.46
744.56	2209.76
744.74	2449.37
744.92	2273.25
745.10	2383.84
745.28	2303.96
745.46	2422.75
745.64	2215.90
745.82	2301.92
746.00	2281.44
746.18	2254.81
746.36	2207.71
746.54	2308.06
746.72	2203.61
746.90	2183.13
747.08	2402.27
747.26	2238.43
747.44	2277.34
747.62	2283.49
747.80	2326.49
747.98	2359.26
748.15	2174.94
748.33	2416.60
748.51	2234.33
748.69	2355.16
748.87	2215.90
749.05	2203.61
749.23	2260.96
749.41	2254.81
749.59	2228.19
749.77	2310.11
749.95	2166.75
750.13	2164.70
750.31	2289.63
750.49	2187.23
750.67	2379.74
750.85	2449.37
751.03	2269.15
751.20	2519.00
751.38	2275.29
751.56	2213.85
751.74	2267.10
751.92	2170.85
752.10	2187.23
752.28	2312.16
752.46	2166.75
752.64	2170.85
752.82	2240.48
753.00	2291.68
753.18	2193.37
753.35	2265.05
753.53	2213.85
753.71	2176.99
753.89	2320.35
754.07	2263.01
754.25	2289.63
754.43	2277.34
754.61	2220.00
754.79	2279.39
754.97	2271.20
755.14	2408.41
755.32	2158.56
755.50	2283.49
755.68	2230.24
755.86	2238.43
756.04	2258.91
756.22	2019.30
756.40	2301.92
756.57	2422.75
756.75	2209.76
756.93	2367.45
757.11	2406.36
757.29	2168.80
757.47	2187.23
757.65	2115.55
757.82	2043.87
758.00	2258.91
758.18	2193.37
758.36	2217.95
758.54	2383.84
758.72	2162.66
758.90	2310.11
759.07	2283.49
759.25	2217.95
759.43	2256.86
759.61	2162.66
759.79	3108.82
759.97	2303.96
760.15	2207.71
760.32	2154.46
760.50	2230.24
760.68	2379.74
760.86	2144.22
761.04	2342.88
761.22	2318.30
761.39	2277.34
761.57	2289.63
761.75	2240.48
761.93	2353.12
762.11	2152.42
762.28	2291.68
762.46	2105.31
762.64	2342.88
762.82	2162.66
763.00	2275.29
763.18	2287.58
763.35	2144.22
763.53	2330.59
763.71	2285.53
763.89	2220.00
764.07	2322.40
764.24	2314.20
764.42	2367.45
764.60	2226.14
764.78	2234.33
764.96	2340.83
765.13	2293.72
765.31	2215.90
765.49	2283.49
765.67	2174.94
765.84	2160.61
766.02	2146.27
766.20	2176.99
766.38	2238.43
766.56	2338.78
766.73	2209.76
766.91	2289.63
767.09	2209.76
767.27	2326.49
767.44	2201.57
767.62	2289.63
767.80	2220.00
767.98	2176.99
768.15	2195.42
768.33	2277.34
768.51	2322.40
768.69	2349.02
768.87	2260.96
769.04	2297.82
769.22	2527.19
769.40	2389.98
769.58	2488.28
769.75	2263.01
769.93	2340.83
770.11	2242.53
770.28	2191.33
770.46	2392.03
770.64	2301.92
770.82	2234.33
770.99	2146.27
771.17	2330.59
771.35	2267.10
771.53	2244.57
771.70	2162.66
771.88	2324.44
772.06	2252.77
772.23	2226.14
772.41	2283.49
772.59	2217.95
772.77	2070.50
772.94	2240.48
773.12	2269.15
773.30	2191.33
773.47	2289.63
773.65	2193.37
773.83	2410.46
774.01	2248.67
774.18	2119.65
774.36	2136.03
774.54	2140.13
774.71	2289.63
774.89	2107.36
775.07	2121.70
775.24	2263.01
775.42	2293.72
775.60	2357.21
775.78	2183.13
775.95	2111.46
776.13	2039.78
776.31	2019.30
776.48	2326.49
776.66	2324.44
776.84	2133.98
777.01	2207.71
777.19	2187.23
777.37	2209.76
777.54	2379.74
777.72	2439.13
777.90	2267.10
778.07	2125.79
778.25	2635.74
778.43	2344.92
778.60	2211.81
778.78	2322.40
778.96	2359.26
779.13	2127.84
779.31	2283.49
779.49	2234.33
779.66	2287.58
779.84	2273.25
780.01	2193.37
780.19	2117.60
780.37	2281.44
780.54	2277.34
780.72	2095.07
780.90	2263.01
781.07	2179.04
781.25	2209.76
781.43	2416.60
781.60	2193.37
781.78	2342.88
781.95	2330.59
782.13	2205.66
782.31	2209.76
782.48	2127.84
782.66	2256.86
782.83	2326.49
783.01	2267.10
783.19	2338.78
783.36	2269.15
783.54	2213.85
783.72	2346.97
783.89	2174.94
784.07	2326.49
784.24	2228.19
784.42	2428.89
784.60	2248.67
784.77	2277.34
784.95	2054.11
785.12	2260.96
785.30	2316.25
785.47	2101.22
785.65	2185.18
785.83	2181.09
786.00	2160.61
786.18	2293.72
786.35	2146.27
786.53	2144.22
786.71	2373.60
786.88	2273.25
787.06	2222.05
787.23	2164.70
787.41	2088.93
787.58	2201.57
787.76	2125.79
787.94	2209.76
788.11	2254.81
788.29	2131.94
788.46	2156.51
788.64	2158.56
788.81	2236.38
788.99	2168.80
789.16	2236.38
789.34	2195.42
789.52	2228.19
789.69	2203.61
789.87	2062.30
790.04	2201.57
790.22	2230.24
790.39	2412.51
790.57	2107.36
790.74	2187.23
790.92	2375.64
791.09	2064.35
791.27	2217.95
791.44	2361.31
791.62	2215.90
791.79	2289.63
791.97	2281.44
792.15	2637.78
792.32	2320.35
792.50	2207.71
792.67	2402.27
792.85	2389.98
793.02	2363.36
793.20	2228.19
793.37	2101.22
793.55	2162.66
793.72	2203.61
793.90	2379.74
794.07	2133.98
794.25	2131.94
794.42	2226.14
794.60	2199.52
794.77	2342.88
794.95	2346.97
795.12	2336.73
795.30	2209.76
795.47	2170.85
795.65	2455.51
795.82	2344.92
796.00	2133.98
796.17	2199.52
796.34	2228.19
796.52	2258.91
796.69	2441.18
796.87	2328.54
797.04	2275.29
797.22	2285.53
797.39	2281.44
797.57	2396.12
797.74	2289.63
797.92	2398.17
798.09	2236.38
798.27	2353.12
798.44	2199.52
798.62	2193.37
798.79	2277.34
798.96	2287.58
799.14	2183.13
799.31	2523.10
799.49	2322.40
799.66	2211.81
799.84	2238.43
800.01	2129.89
800.19	2228.19
800.36	2080.74
800.53	2252.77
800.71	2285.53
800.88	2351.07
801.06	2168.80
801.23	2172.89
801.41	2224.09
801.58	2205.66
801.75	2240.48
801.93	2232.29
802.10	2332.64
802.28	2207.71
802.45	2207.71
802.63	2301.92
802.80	2418.65
802.97	2179.04
803.15	2228.19
803.32	2211.81
803.50	2224.09
803.67	2164.70
803.84	2209.76
804.02	2271.20
804.19	2150.37
804.37	2070.50
804.54	2162.66
804.71	2162.66
804.89	2220.00
805.06	2224.09
805.24	2166.75
805.41	2127.84
805.58	2170.85
805.76	2506.71
805.93	2220.00
806.10	2371.55
806.28	2277.34
806.45	2267.10
806.63	2285.53
806.80	2281.44
806.97	2250.72
807.15	2187.23
807.32	2326.49
807.49	2265.05
807.67	2080.74
807.84	2254.81
808.01	2172.89
808.19	2430.94
808.36	2478.04
808.54	2250.72
808.71	2109.41
808.88	2295.77
809.06	2371.55
809.23	2359.26
809.40	2099.17
809.58	2285.53
809.75	2199.52
809.92	2154.46
810.10	2455.51
810.27	2244.57
810.44	2400.22
810.62	2324.44
810.79	2353.12
810.96	2213.85
811.14	2250.72
811.31	2195.42
811.48	2195.42
811.66	2138.08
811.83	2318.30
812.00	2242.53
812.18	2269.15
812.35	2426.84
812.52	2203.61
812.69	2207.71
812.87	2164.70
813.04	2209.76
813.21	2215.90
813.39	2119.65
813.56	2129.89
813.73	2336.73
813.91	2095.07
814.08	2248.67
814.25	2250.72
814.42	2109.41
814.60	2195.42
814.77	2238.43
814.94	2240.48
815.12	2183.13
815.29	2398.17
815.46	2160.61
815.63	2306.01
815.81	2172.89
815.98	2269.15
816.15	2242.53
816.33	2220.00
816.50	2269.15
816.67	2240.48
816.84	2240.48
817.02	2142.18
817.19	2187.23
817.36	2308.06
817.53	2424.80
817.71	2136.03
817.88	2322.40
818.05	2187.23
818.22	2240.48
818.40	2435.03
818.57	2244.57
818.74	2324.44
818.91	2242.53
819.09	2334.68
819.26	2240.48
819.43	2181.09
819.60	2164.70
819.78	2308.06
819.95	2375.64
820.12	2185.18
820.29	2408.41
820.47	2349.02
820.64	2254.81
820.81	2105.31
820.98	2142.18
821.15	2238.43
821.33	2334.68
821.50	2105.31
821.67	2291.68
821.84	2220.00
822.02	2242.53
822.19	2351.07
822.36	2189.28
822.53	2228.19
822.70	2123.74
822.88	2217.95
823.05	2394.08
823.22	2203.61
823.39	2303.96
823.56	2205.66
823.74	2473.95
823.91	2138.08
824.08	2117.60
824.25	2181.09
824.42	2406.36
824.60	2109.41
824.77	2287.58
824.94	2236.38
825.11	2301.92
825.28	2076.64
825.45	2271.20
825.63	2252.77
825.80	2140.13
825.97	2318.30
826.14	2226.14
826.31	2078.69
826.48	2344.92
826.66	2185.18
826.83	2224.09
827.00	2195.42
827.17	2158.56
827.34	2205.66
827.51	2199.52
827.69	2228.19
827.86	2156.51
828.03	2250.72
828.20	2195.42
828.37	2234.33
828.54	2387.93
828.71	2142.18
828.89	2357.21
829.06	2252.77
829.23	2400.22
829.40	2154.46
829.57	2187.23
829.74	2324.44
829.91	2176.99
830.09	2166.75
830.26	2387.93
830.43	2478.04
830.60	2277.34
830.77	2248.67
830.94	2279.39
831.11	2297.82
831.28	2209.76
831.46	2301.92
831.63	2174.94
831.80	2271.20
831.97	2146.27
832.14	2238.43
832.31	2267.10
832.48	2318.30
832.65	2363.36
832.82	2281.44
832.99	2301.92
833.17	2215.90
833.34	2353.12
833.51	2283.49
833.68	2097.12
833.85	2359.26
834.02	2156.51
834.19	2168.80
834.36	2172.89
834.53	2326.49
834.70	2373.60
834.87	2316.25
835.04	2232.29
835.22	2150.37
835.39	2244.57
835.56	2047.97
835.73	2199.52
835.90	2392.03
836.07	2170.85
836.24	2285.53
836.41	2138.08
836.58	2224.09
836.75	2299.87
836.92	2242.53
837.09	2230.24
837.26	2258.91
837.43	2293.72
837.60	2306.01
837.77	2236.38
837.94	2461.66
838.12	2400.22
838.29	2146.27
838.46	2058.21
838.63	2160.61
838.80	2377.69
838.97	2203.61
839.14	2176.99
839.31	2310.11
839.48	2365.40
839.65	2160.61
839.82	2271.20
839.99	2263.01
840.16	2222.05
840.33	2191.33
840.50	2183.13
840.67	2179.04
840.84	2084.83
841.01	2224.09
841.18	2162.66
841.35	2211.81
841.52	2344.92
841.69	2410.46
841.86	2211.81
842.03	2246.62
842.20	2355.16
842.37	2252.77
842.54	2189.28
842.71	2269.15
842.88	2150.37
843.05	2265.05
843.22	2125.79
843.39	2318.30
843.56	2168.80
843.73	2187.23
843.90	2230.24
844.07	2293.72
844.24	2375.64
844.41	2303.96
844.58	2183.13
844.75	2238.43
844.92	2297.82
845.09	2275.29
845.26	2240.48
845.43	2367.45
845.60	2185.18
845.77	2359.26
845.94	2217.95
846.10	2349.02
846.27	2088.93
846.44	2117.60
846.61	2144.22
846.78	2301.92
846.95	2310.11
847.12	2201.57
847.29	2244.57
847.46	2201.57
847.63	2336.73
847.80	2125.79
847.97	2211.81
848.14	2471.90
848.31	2086.88
848.48	2113.50
848.65	2265.05
848.82	2217.95
848.98	2519.00
849.15	2252.77
849.32	2258.91
849.49	2340.83
849.66	2203.61
849.83	2228.19
850.00	2099.17
850.17	2258.91
850.34	2191.33
850.51	2256.86
850.68	2217.95
850.85	2461.66
851.01	2301.92
851.18	2258.91
851.35	2119.65
851.52	2277.34
851.69	2383.84
851.86	2074.59
852.03	2162.66
852.20	2301.92
852.37	2293.72
852.53	2064.35
852.70	2174.94
852.87	2260.96
853.04	2277.34
853.21	2195.42
853.38	2277.34
853.55	2361.31
853.72	2373.60
853.89	2154.46
854.05	2109.41
854.22	2113.50
854.39	2154.46
854.56	2181.09
854.73	2297.82
854.90	2158.56
855.07	2242.53
855.23	2187.23
855.40	2158.56
855.57	2224.09
855.74	2056.16
855.91	2406.36
856.08	2138.08
856.25	2121.70
856.41	2211.81
856.58	2160.61
856.75	2170.85
856.92	2078.69
857.09	2316.25
857.26	2072.54
857.42	2228.19
857.59	2314.20
857.76	2181.09
857.93	2183.13
858.10	2344.92
858.27	2131.94
858.43	2224.09
858.60	2211.81
858.77	2105.31
858.94	2289.63
859.11	2324.44
859.27	2263.01
859.44	2170.85
859.61	2371.55
859.78	2273.25
859.95	2160.61
860.12	2090.98
860.28	2437.08
860.45	2453.47
860.62	2156.51
860.79	2260.96
860.95	2248.67
861.12	2228.19
861.29	2121.70
861.46	2131.94
861.63	2193.37
861.79	2301.92
861.96	2117.60
862.13	2097.12
862.30	2340.83
862.47	2195.42
862.63	2181.09
862.80	2310.11
862.97	2381.79
863.14	2297.82
863.30	2215.90
863.47	2111.46
863.64	2424.80
863.81	2301.92
863.97	2154.46
864.14	2215.90
864.31	2220.00
864.48	2179.04
864.65	2222.05
864.81	2287.58
864.98	2275.29
865.15	2256.86
865.32	2256.86
865.48	2224.09
865.65	2351.07
865.82	2154.46
865.98	2248.67
866.15	2232.29
866.32	2291.68
866.49	2185.18
866.65	2297.82
866.82	2176.99
866.99	2269.15
867.16	2183.13
867.32	2318.30
867.49	2242.53
867.66	2236.38
867.83	2252.77
867.99	2109.41
868.16	2117.60
868.33	2119.65
868.49	2301.92
868.66	2291.68
868.83	2191.33
868.99	2283.49
869.16	2248.67
869.33	2170.85
869.50	2297.82
869.66	2283.49
869.83	2220.00
870.00	2107.36
870.16	2283.49
870.33	2213.85
870.50	2297.82
870.66	2224.09
870.83	2263.01
871.00	2201.57
871.17	2213.85
871.33	2299.87
871.50	2103.26
871.67	2252.77
871.83	2285.53
872.00	2226.14
872.17	2152.42
872.33	2439.13
872.50	2389.98
872.67	2166.75
872.83	2228.19
873.00	2277.34
873.17	2224.09
873.33	2283.49
873.50	2250.72
873.67	2189.28
873.83	2191.33
874.00	2193.37
874.16	2273.25
874.33	2310.11
874.50	2125.79
874.66	2224.09
874.83	2334.68
875.00	2379.74
875.16	2414.56
875.33	2338.78
875.50	1994.72
875.66	2144.22
875.83	2312.16
875.99	2291.68
876.16	2205.66
876.33	2047.97
876.49	2244.57
876.66	2240.48
876.83	2179.04
876.99	2152.42
877.16	2166.75
877.32	2244.57
877.49	2254.81
877.66	2275.29
877.82	2453.47
877.99	2234.33
878.15	2281.44
878.32	2328.54
878.49	2265.05
878.65	2234.33
878.82	2381.79
878.98	2154.46
879.15	2260.96
879.32	2299.87
879.48	2199.52
879.65	2179.04
879.81	2234.33
879.98	2179.04
880.15	2240.48
880.31	2332.64
880.48	2201.57
880.64	2326.49
880.81	2256.86
880.97	2344.92
881.14	2387.93
881.31	2183.13
881.47	2375.64
881.64	2248.67
881.80	2095.07
881.97	2209.76
882.13	2242.53
882.30	2146.27
882.47	2211.81
882.63	2215.90
882.80	2168.80
882.96	2183.13
883.13	2363.36
883.29	2144.22
883.46	2230.24
883.62	2437.08
883.79	2228.19
883.95	2297.82
884.12	2185.18
884.29	2293.72
884.45	2226.14
884.62	2215.90
884.78	2160.61
884.95	2361.31
885.11	2254.81
885.28	2314.20
885.44	2250.72
885.61	2326.49
885.77	2396.12
885.94	2299.87
886.10	2105.31
886.27	2199.52
886.43	2383.84
886.60	2379.74
886.76	2197.47
886.93	2215.90
887.09	2353.12
887.26	2121.70
887.42	2346.97
887.59	2340.83
887.75	2441.18
887.92	2334.68
888.08	2328.54
888.25	2453.47
888.41	2420.70
888.58	2291.68
888.74	2203.61
888.91	2250.72
>>>>>End Processed Spectral Data<<<<<
