SpectraSuite Data File
++++++++++++++++++++++++++++++++++++
Date: Thu May 05 13:20:38 CEST 2016
User: root
Dark Spectrum Present: No
Reference Spectrum Present: No
Number of Sampled Component Spectra: 1
Spectrometers: USB4C02835
Integration Time (usec): 100000 (USB4C02835)
Spectra Averaged: 1 (USB4C02835)
Boxcar Smoothing: 0 (USB4C02835)
Correct for Electrical Dark: No (USB4C02835)
Strobe/Lamp Enabled: No (USB4C02835)
Correct for Detector Non-linearity: No (USB4C02835)
Correct for Stray Light: No (USB4C02835)
Number of Pixels in Processed Spectrum: 3648
>>>>>Begin Processed Spectral Data<<<<<
177.47	1777.64
177.69	1777.64
177.91	1777.64
178.13	1699.81
178.36	1814.50
178.58	2150.37
178.80	2238.43
179.02	2203.61
179.24	2195.42
179.46	2138.08
179.68	2174.94
179.90	2226.14
180.13	2273.25
180.35	2129.89
180.57	2240.48
180.79	2340.83
181.01	2240.48
181.23	2220.00
181.45	2293.72
181.67	2205.66
181.90	2363.36
182.12	2146.27
182.34	1998.82
182.56	2285.53
182.78	2273.25
183.00	2168.80
183.22	2203.61
183.44	2093.02
183.66	2525.15
183.89	2301.92
184.11	2187.23
184.33	2246.62
184.55	2402.27
184.77	2226.14
184.99	2234.33
185.21	2297.82
185.43	2449.37
185.65	2144.22
185.87	2228.19
186.10	2519.00
186.32	2502.62
186.54	2285.53
186.76	2250.72
186.98	2310.11
187.20	2244.57
187.42	2129.89
187.64	2193.37
187.86	2234.33
188.08	2406.36
188.30	2127.84
188.52	2146.27
188.75	2377.69
188.97	2363.36
189.19	2187.23
189.41	2199.52
189.63	2351.07
189.85	2199.52
190.07	2133.98
190.29	2039.78
190.51	2342.88
190.73	2074.59
190.95	2224.09
191.17	2166.75
191.39	2088.93
191.61	2236.38
191.84	2207.71
192.06	2299.87
192.28	2140.13
192.50	2512.86
192.72	2301.92
192.94	2217.95
193.16	2336.73
193.38	2312.16
193.60	2160.61
193.82	2213.85
194.04	2342.88
194.26	2310.11
194.48	2162.66
194.70	2121.70
194.92	2242.53
195.14	2322.40
195.36	2181.09
195.58	2195.42
195.80	2338.78
196.02	2203.61
196.24	2174.94
196.46	2160.61
196.69	2156.51
196.91	2430.94
197.13	2160.61
197.35	2123.74
197.57	2324.44
197.79	2269.15
198.01	2273.25
198.23	2179.04
198.45	2351.07
198.67	2142.18
198.89	2111.46
199.11	2256.86
199.33	2199.52
199.55	2109.41
199.77	2148.32
199.99	2291.68
200.21	2191.33
200.43	2252.77
200.65	2103.26
200.87	2045.92
201.09	2213.85
201.31	2252.77
201.53	2203.61
201.75	2191.33
201.97	2316.25
202.19	2285.53
202.41	2273.25
202.63	2297.82
202.85	2349.02
203.07	2263.01
203.29	2142.18
203.51	2115.55
203.73	2133.98
203.95	2441.18
204.17	2250.72
204.39	2158.56
204.61	2244.57
204.83	2193.37
205.05	2187.23
205.27	2230.24
205.49	2387.93
205.71	2189.28
205.93	2054.11
206.15	2084.83
206.37	2213.85
206.59	2217.95
206.81	2052.06
207.03	2011.11
207.25	2183.13
207.47	2351.07
207.69	2185.18
207.91	2342.88
208.13	2367.45
208.34	2172.89
208.56	2144.22
208.78	2187.23
209.00	2191.33
209.22	2183.13
209.44	2152.42
209.66	2138.08
209.88	2285.53
210.10	2215.90
210.32	2107.36
210.54	2306.01
210.76	2176.99
210.98	2344.92
211.20	2029.54
211.42	2209.76
211.64	2428.89
211.86	2269.15
212.08	2228.19
212.30	2154.46
212.52	2211.81
212.74	2248.67
212.96	2154.46
213.17	2226.14
213.39	2365.40
213.61	2400.22
213.83	2158.56
214.05	2154.46
214.27	2484.19
214.49	2154.46
214.71	2209.76
214.93	2244.57
215.15	2271.20
215.37	2234.33
215.59	2129.89
215.81	2166.75
216.03	2402.27
216.24	2277.34
216.46	2213.85
216.68	2228.19
216.90	2373.60
217.12	2402.27
217.34	2156.51
217.56	2293.72
217.78	2420.70
218.00	2252.77
218.22	2312.16
218.44	2242.53
218.66	2289.63
218.87	2488.28
219.09	2136.03
219.31	2205.66
219.53	2312.16
219.75	2199.52
219.97	2236.38
220.19	2271.20
220.41	2301.92
220.63	2383.84
220.85	2174.94
221.06	2129.89
221.28	2389.98
221.50	2293.72
221.72	2230.24
221.94	2166.75
222.16	2226.14
222.38	2336.73
222.60	2148.32
222.82	2168.80
223.03	2365.40
223.25	2228.19
223.47	2203.61
223.69	2303.96
223.91	2340.83
224.13	2260.96
224.35	2127.84
224.57	2205.66
224.78	2299.87
225.00	2187.23
225.22	2101.22
225.44	2195.42
225.66	2250.72
225.88	2203.61
226.10	2260.96
226.32	2125.79
226.53	2387.93
226.75	2230.24
226.97	2203.61
227.19	2111.46
227.41	2170.85
227.63	2215.90
227.85	2105.31
228.06	2191.33
228.28	2242.53
228.50	2404.32
228.72	2146.27
228.94	2088.93
229.16	2131.94
229.37	2140.13
229.59	2113.50
229.81	2383.84
230.03	2179.04
230.25	2103.26
230.47	2068.45
230.69	2090.98
230.90	2342.88
231.12	2232.29
231.34	2252.77
231.56	2248.67
231.78	2156.51
232.00	2281.44
232.21	2299.87
232.43	2088.93
232.65	1998.82
232.87	2287.58
233.09	2004.96
233.30	2103.26
233.52	2338.78
233.74	2265.05
233.96	2215.90
234.18	2277.34
234.40	2226.14
234.61	2521.05
234.83	2121.70
235.05	2093.02
235.27	2496.47
235.49	2424.80
235.70	2199.52
235.92	2238.43
236.14	2240.48
236.36	2465.75
236.58	2121.70
236.79	2220.00
237.01	2308.06
237.23	2226.14
237.45	2394.08
237.67	2154.46
237.88	2248.67
238.10	2426.84
238.32	2160.61
238.54	2160.61
238.76	2254.81
238.97	2160.61
239.19	2158.56
239.41	2314.20
239.63	2299.87
239.85	2215.90
240.06	2181.09
240.28	2179.04
240.50	2420.70
240.72	2285.53
240.93	2138.08
241.15	2301.92
241.37	2310.11
241.59	2404.32
241.81	2187.23
242.02	2183.13
242.24	2332.64
242.46	2387.93
242.68	2138.08
242.89	2269.15
243.11	2375.64
243.33	2211.81
243.55	2207.71
243.76	2129.89
243.98	2226.14
244.20	2263.01
244.42	2244.57
244.64	2244.57
244.85	2142.18
245.07	2236.38
245.29	2203.61
245.51	2211.81
245.72	2293.72
245.94	2387.93
246.16	2164.70
246.38	2201.57
246.59	2211.81
246.81	2217.95
247.03	2160.61
247.24	2109.41
247.46	2283.49
247.68	2220.00
247.90	2115.55
248.11	2226.14
248.33	2301.92
248.55	2314.20
248.77	2275.29
248.98	2289.63
249.20	2422.75
249.42	2220.00
249.64	2226.14
249.85	2090.98
250.07	2232.29
250.29	2318.30
250.50	2316.25
250.72	2058.21
250.94	2265.05
251.16	2455.51
251.37	2168.80
251.59	2203.61
251.81	2275.29
252.02	2426.84
252.24	2066.40
252.46	2281.44
252.68	2111.46
252.89	2166.75
253.11	2086.88
253.33	2340.83
253.54	2389.98
253.76	2189.28
253.98	2160.61
254.20	2150.37
254.41	2080.74
254.63	2267.10
254.85	2093.02
255.06	2109.41
255.28	2295.77
255.50	2160.61
255.71	2185.18
255.93	2088.93
256.15	2240.48
256.36	2299.87
256.58	2181.09
256.80	2273.25
257.02	2308.06
257.23	2187.23
257.45	2185.18
257.67	2240.48
257.88	2187.23
258.10	2265.05
258.32	2211.81
258.53	2207.71
258.75	2340.83
258.97	2228.19
259.18	2183.13
259.40	2117.60
259.62	2463.71
259.83	2389.98
260.05	2187.23
260.27	2715.61
260.48	2326.49
260.70	2193.37
260.92	2123.74
261.13	2279.39
261.35	2269.15
261.57	2260.96
261.78	2072.54
262.00	2115.55
262.22	2322.40
262.43	2224.09
262.65	2279.39
262.86	2310.11
263.08	2529.24
263.30	2318.30
263.51	2035.68
263.73	2156.51
263.95	2422.75
264.16	2111.46
264.38	2150.37
264.60	2158.56
264.81	2297.82
265.03	2385.88
265.25	2334.68
265.46	2176.99
265.68	2392.03
265.89	2277.34
266.11	2029.54
266.33	2176.99
266.54	2359.26
266.76	2285.53
266.98	2248.67
267.19	2258.91
267.41	2306.01
267.62	2291.68
267.84	2070.50
268.06	2277.34
268.27	2258.91
268.49	2369.50
268.70	2256.86
268.92	2252.77
269.14	2176.99
269.35	2088.93
269.57	2220.00
269.79	2324.44
270.00	2224.09
270.22	2447.32
270.43	2117.60
270.65	2062.30
270.87	2246.62
271.08	2318.30
271.30	2193.37
271.51	2211.81
271.73	2295.77
271.95	2422.75
272.16	2172.89
272.38	2265.05
272.59	2189.28
272.81	2281.44
273.02	2193.37
273.24	2179.04
273.46	2326.49
273.67	2146.27
273.89	2082.78
274.10	2152.42
274.32	2359.26
274.54	2318.30
274.75	2164.70
274.97	2215.90
275.18	2301.92
275.40	2297.82
275.61	2197.47
275.83	2273.25
276.05	2076.64
276.26	2181.09
276.48	2252.77
276.69	2136.03
276.91	2193.37
277.12	2400.22
277.34	2277.34
277.55	2310.11
277.77	2263.01
277.99	2234.33
278.20	2133.98
278.42	2162.66
278.63	2146.27
278.85	2105.31
279.06	2121.70
279.28	2232.29
279.49	2381.79
279.71	2330.59
279.93	2195.42
280.14	2215.90
280.36	2160.61
280.57	2379.74
280.79	2277.34
281.00	2154.46
281.22	2162.66
281.43	2365.40
281.65	2035.68
281.86	2119.65
282.08	2279.39
282.29	2396.12
282.51	2078.69
282.73	2062.30
282.94	2080.74
283.16	2332.64
283.37	2373.60
283.59	2187.23
283.80	2310.11
284.02	2222.05
284.23	2295.77
284.45	2232.29
284.66	2158.56
284.88	2187.23
285.09	2277.34
285.31	2271.20
285.52	2224.09
285.74	2113.50
285.95	2381.79
286.17	2250.72
286.38	2383.84
286.60	2203.61
286.81	2209.76
287.03	2273.25
287.24	2193.37
287.46	2326.49
287.67	2236.38
287.89	2410.46
288.10	2277.34
288.32	2256.86
288.53	2342.88
288.75	2287.58
288.96	2301.92
289.18	2226.14
289.39	2217.95
289.61	2244.57
289.82	2512.86
290.04	2412.51
290.25	2152.42
290.47	2232.29
290.68	2162.66
290.90	2351.07
291.11	2090.98
291.33	2277.34
291.54	2152.42
291.76	2136.03
291.97	2217.95
292.18	2293.72
292.40	2160.61
292.61	2140.13
292.83	2484.19
293.04	2289.63
293.26	2273.25
293.47	2258.91
293.69	2152.42
293.90	2168.80
294.12	2334.68
294.33	2289.63
294.55	2244.57
294.76	2324.44
294.97	2437.08
295.19	2533.34
295.40	2252.77
295.62	2293.72
295.83	2355.16
296.05	2248.67
296.26	2383.84
296.48	2215.90
296.69	2230.24
296.90	2308.06
297.12	2322.40
297.33	2396.12
297.55	2248.67
297.76	2408.41
297.98	2256.86
298.19	2144.22
298.41	2310.11
298.62	2176.99
298.83	2291.68
299.05	2232.29
299.26	2189.28
299.48	2263.01
299.69	2297.82
299.90	2226.14
300.12	2160.61
300.33	2420.70
300.55	2349.02
300.76	2246.62
300.98	2176.99
301.19	2269.15
301.40	2148.32
301.62	2246.62
301.83	2279.39
302.05	2281.44
302.26	2179.04
302.47	2281.44
302.69	2181.09
302.90	2306.01
303.12	2039.78
303.33	2283.49
303.54	2471.90
303.76	2293.72
303.97	2232.29
304.19	2351.07
304.40	2152.42
304.61	2316.25
304.83	2328.54
305.04	2283.49
305.26	2334.68
305.47	2217.95
305.68	2207.71
305.90	2150.37
306.11	2308.06
306.33	2297.82
306.54	2152.42
306.75	2211.81
306.97	2109.41
307.18	2142.18
307.39	2205.66
307.61	2324.44
307.82	2236.38
308.04	2273.25
308.25	2080.74
308.46	2322.40
308.68	2224.09
308.89	2236.38
309.10	2359.26
309.32	2248.67
309.53	2232.29
309.74	2308.06
309.96	2277.34
310.17	2375.64
310.39	2154.46
310.60	2252.77
310.81	2195.42
311.03	2189.28
311.24	2383.84
311.45	2256.86
311.67	2439.13
311.88	2269.15
312.09	2217.95
312.31	2230.24
312.52	2248.67
312.73	2197.47
312.95	2121.70
313.16	2183.13
313.37	2330.59
313.59	2310.11
313.80	2349.02
314.01	2482.14
314.23	2185.18
314.44	2174.94
314.65	2211.81
314.87	2166.75
315.08	2174.94
315.29	2158.56
315.51	2113.50
315.72	2183.13
315.93	2430.94
316.15	2265.05
316.36	2170.85
316.57	2281.44
316.79	2283.49
317.00	2183.13
317.21	2211.81
317.43	2166.75
317.64	2244.57
317.85	2170.85
318.07	2201.57
318.28	2191.33
318.49	2308.06
318.70	2519.00
318.92	2432.99
319.13	2447.32
319.34	2392.03
319.56	2346.97
319.77	2342.88
319.98	2439.13
320.20	2349.02
320.41	2244.57
320.62	2314.20
320.83	2187.23
321.05	2465.75
321.26	2297.82
321.47	2293.72
321.69	2342.88
321.90	2160.61
322.11	2176.99
322.32	2318.30
322.54	2367.45
322.75	2215.90
322.96	2531.29
323.18	2168.80
323.39	2074.59
323.60	2199.52
323.81	2299.87
324.03	2256.86
324.24	2244.57
324.45	2316.25
324.66	2217.95
324.88	2406.36
325.09	2494.43
325.30	2281.44
325.52	2168.80
325.73	2330.59
325.94	2138.08
326.15	2144.22
326.37	2146.27
326.58	2336.73
326.79	2406.36
327.00	2113.50
327.22	2203.61
327.43	2203.61
327.64	2220.00
327.85	2297.82
328.07	2297.82
328.28	2514.91
328.49	2138.08
328.70	2203.61
328.92	2215.90
329.13	2193.37
329.34	2287.58
329.55	2377.69
329.76	2252.77
329.98	2273.25
330.19	2439.13
330.40	2263.01
330.61	2267.10
330.83	2340.83
331.04	2138.08
331.25	2263.01
331.46	2258.91
331.68	2127.84
331.89	2373.60
332.10	2236.38
332.31	2162.66
332.52	2258.91
332.74	2324.44
332.95	2086.88
333.16	2203.61
333.37	2283.49
333.58	2211.81
333.80	2189.28
334.01	2117.60
334.22	2201.57
334.43	2179.04
334.64	2205.66
334.86	2152.42
335.07	2138.08
335.28	2389.98
335.49	2101.22
335.70	2246.62
335.92	2404.32
336.13	2519.00
336.34	2361.31
336.55	2244.57
336.76	2283.49
336.98	2093.02
337.19	2285.53
337.40	2379.74
337.61	2508.76
337.82	2195.42
338.04	2365.40
338.25	2136.03
338.46	2154.46
338.67	2172.89
338.88	2199.52
339.09	2160.61
339.31	2220.00
339.52	2191.33
339.73	2095.07
339.94	2250.72
340.15	2250.72
340.36	2217.95
340.58	2197.47
340.79	2144.22
341.00	2258.91
341.21	2119.65
341.42	2389.98
341.63	2254.81
341.85	2406.36
342.06	2314.20
342.27	2189.28
342.48	2279.39
342.69	2207.71
342.90	2301.92
343.12	2293.72
343.33	2203.61
343.54	2318.30
343.75	2373.60
343.96	2199.52
344.17	2209.76
344.38	2250.72
344.60	2150.37
344.81	2123.74
345.02	2154.46
345.23	2383.84
345.44	2531.29
345.65	2273.25
345.86	2217.95
346.07	2250.72
346.29	2158.56
346.50	2349.02
346.71	2279.39
346.92	2402.27
347.13	2402.27
347.34	2220.00
347.55	2226.14
347.76	2256.86
347.98	2058.21
348.19	2232.29
348.40	2355.16
348.61	2242.53
348.82	2418.65
349.03	2244.57
349.24	2117.60
349.45	2437.08
349.66	2062.30
349.88	2121.70
350.09	2144.22
350.30	2379.74
350.51	2400.22
350.72	2224.09
350.93	2232.29
351.14	2265.05
351.35	2355.16
351.56	2256.86
351.77	2228.19
351.99	2254.81
352.20	2389.98
352.41	2342.88
352.62	2052.06
352.83	2277.34
353.04	2263.01
353.25	2179.04
353.46	2254.81
353.67	2353.12
353.88	2045.92
354.09	2250.72
354.30	2285.53
354.52	2387.93
354.73	2224.09
354.94	2170.85
355.15	2246.62
355.36	2486.23
355.57	2203.61
355.78	2195.42
355.99	2154.46
356.20	2164.70
356.41	2367.45
356.62	2306.01
356.83	2203.61
357.04	2432.99
357.25	2138.08
357.46	2254.81
357.68	2105.31
357.89	2050.02
358.10	2228.19
358.31	2170.85
358.52	2179.04
358.73	2103.26
358.94	2142.18
359.15	2160.61
359.36	2308.06
359.57	2277.34
359.78	2271.20
359.99	2326.49
360.20	2105.31
360.41	2195.42
360.62	2355.16
360.83	2328.54
361.04	2306.01
361.25	2279.39
361.46	2428.89
361.67	2340.83
361.88	2260.96
362.09	2418.65
362.30	2256.86
362.51	2236.38
362.72	2162.66
362.93	2318.30
363.14	2326.49
363.35	2226.14
363.56	2203.61
363.78	2404.32
363.99	2402.27
364.20	2142.18
364.41	2306.01
364.62	2473.95
364.83	2232.29
365.04	2211.81
365.25	2244.57
365.46	2478.04
365.67	2172.89
365.88	2269.15
366.09	2252.77
366.30	2117.60
366.51	2318.30
366.72	2179.04
366.93	2213.85
367.14	2277.34
367.35	2404.32
367.56	2269.15
367.77	2340.83
367.98	2283.49
368.18	2228.19
368.39	2392.03
368.60	2179.04
368.81	2363.36
369.02	2340.83
369.23	2254.81
369.44	2123.74
369.65	2244.57
369.86	2295.77
370.07	2381.79
370.28	2152.42
370.49	2275.29
370.70	2363.36
370.91	2109.41
371.12	2080.74
371.33	2316.25
371.54	2185.18
371.75	2416.60
371.96	2031.58
372.17	2330.59
372.38	2168.80
372.59	2301.92
372.80	2260.96
373.01	2199.52
373.22	2279.39
373.43	2226.14
373.64	2166.75
373.85	2408.41
374.06	2383.84
374.26	2353.12
374.47	2242.53
374.68	2412.51
374.89	2334.68
375.10	2242.53
375.31	2367.45
375.52	2281.44
375.73	2318.30
375.94	2090.98
376.15	2363.36
376.36	2197.47
376.57	2222.05
376.78	2289.63
376.99	2273.25
377.20	2381.79
377.40	2224.09
377.61	2412.51
377.82	2142.18
378.03	2443.23
378.24	2293.72
378.45	2195.42
378.66	2246.62
378.87	2109.41
379.08	2142.18
379.29	2166.75
379.50	2336.73
379.71	2252.77
379.91	2308.06
380.12	2230.24
380.33	2238.43
380.54	2271.20
380.75	2213.85
380.96	2203.61
381.17	2389.98
381.38	2209.76
381.59	2291.68
381.80	2275.29
382.00	2459.61
382.21	2437.08
382.42	2553.82
382.63	2512.86
382.84	2285.53
383.05	2367.45
383.26	2383.84
383.47	2260.96
383.68	2220.00
383.88	2342.88
384.09	2299.87
384.30	2400.22
384.51	2310.11
384.72	2254.81
384.93	2121.70
385.14	2285.53
385.35	2265.05
385.55	2113.50
385.76	2389.98
385.97	2191.33
386.18	2062.30
386.39	2215.90
386.60	2226.14
386.81	2215.90
387.02	2078.69
387.22	2185.18
387.43	2371.55
387.64	2430.94
387.85	2461.66
388.06	2514.91
388.27	3911.62
388.48	8329.09
388.68	11509.58
388.89	13999.91
389.10	15013.66
389.31	13793.07
389.52	10776.41
389.73	9473.90
389.93	8646.52
390.14	7896.97
390.35	7149.46
390.56	6332.32
390.77	5181.36
390.98	3958.72
391.18	3203.02
391.39	2748.37
391.60	2408.41
391.81	2478.04
392.02	2203.61
392.23	2531.29
392.43	2242.53
392.64	2326.49
392.85	2179.04
393.06	2453.47
393.27	2324.44
393.47	2222.05
393.68	2246.62
393.89	2250.72
394.10	2367.45
394.31	2256.86
394.52	2224.09
394.72	2170.85
394.93	2496.47
395.14	2140.13
395.35	2326.49
395.56	2195.42
395.76	2271.20
395.97	2314.20
396.18	2385.88
396.39	2414.56
396.60	2703.32
396.80	2447.32
397.01	2381.79
397.22	2402.27
397.43	2457.56
397.64	2226.14
397.84	2293.72
398.05	2475.99
398.26	2299.87
398.47	2357.21
398.67	2314.20
398.88	2244.57
399.09	2318.30
399.30	2195.42
399.51	2256.86
399.71	2185.18
399.92	2326.49
400.13	2242.53
400.34	2201.57
400.54	2324.44
400.75	2398.17
400.96	2389.98
401.17	2326.49
401.37	2303.96
401.58	2256.86
401.79	2281.44
402.00	2480.09
402.21	2668.50
402.41	2512.86
402.62	2613.21
402.83	2766.81
403.04	2697.17
403.24	2906.07
403.45	2363.36
403.66	2531.29
403.87	2430.94
404.07	2541.53
404.28	2496.47
404.49	2510.81
404.70	2349.02
404.90	2381.79
405.11	2285.53
405.32	2344.92
405.52	2246.62
405.73	2217.95
405.94	2224.09
406.15	2250.72
406.35	2338.78
406.56	2303.96
406.77	2250.72
406.98	2353.12
407.18	2193.37
407.39	2385.88
407.60	2314.20
407.80	2269.15
408.01	2236.38
408.22	2295.77
408.43	2179.04
408.63	2293.72
408.84	2326.49
409.05	2383.84
409.25	2230.24
409.46	2254.81
409.67	2244.57
409.88	2273.25
410.08	2275.29
410.29	2207.71
410.50	2281.44
410.70	2297.82
410.91	2176.99
411.12	2230.24
411.32	2269.15
411.53	2154.46
411.74	2334.68
411.95	2426.84
412.15	2340.83
412.36	2428.89
412.57	2287.58
412.77	2416.60
412.98	2287.58
413.19	2228.19
413.39	2289.63
413.60	2224.09
413.81	2422.75
414.01	2140.13
414.22	2222.05
414.43	2258.91
414.63	2246.62
414.84	2314.20
415.05	2193.37
415.25	2138.08
415.46	2267.10
415.67	2181.09
415.87	2314.20
416.08	2256.86
416.29	2258.91
416.49	2263.01
416.70	2283.49
416.91	2224.09
417.11	2314.20
417.32	2273.25
417.53	2410.46
417.73	2269.15
417.94	2289.63
418.15	2303.96
418.35	2242.53
418.56	2185.18
418.77	2551.77
418.97	2318.30
419.18	2211.81
419.38	2007.01
419.59	2234.33
419.80	2410.46
420.00	2183.13
420.21	2273.25
420.42	2340.83
420.62	2310.11
420.83	2176.99
421.04	2207.71
421.24	2250.72
421.45	2291.68
421.65	2326.49
421.86	2166.75
422.07	2318.30
422.27	2308.06
422.48	2301.92
422.69	2133.98
422.89	2281.44
423.10	2172.89
423.30	2064.35
423.51	2330.59
423.72	2256.86
423.92	2351.07
424.13	2045.92
424.33	2297.82
424.54	2310.11
424.75	2211.81
424.95	2424.80
425.16	2254.81
425.36	2258.91
425.57	2353.12
425.78	2326.49
425.98	2295.77
426.19	2256.86
426.39	2195.42
426.60	2211.81
426.81	2402.27
427.01	2256.86
427.22	2191.33
427.42	2064.35
427.63	2123.74
427.83	2328.54
428.04	2359.26
428.25	2334.68
428.45	2351.07
428.66	2422.75
428.86	2285.53
429.07	2269.15
429.28	2254.81
429.48	2289.63
429.69	2220.00
429.89	2260.96
430.10	2033.63
430.30	2328.54
430.51	2310.11
430.71	2107.36
430.92	2301.92
431.13	2195.42
431.33	2289.63
431.54	2269.15
431.74	2402.27
431.95	2445.27
432.15	2238.43
432.36	2195.42
432.56	2332.64
432.77	2539.48
432.98	2504.67
433.18	2258.91
433.39	2211.81
433.59	2252.77
433.80	2514.91
434.00	2408.41
434.21	2211.81
434.41	2195.42
434.62	2523.10
434.82	2187.23
435.03	2197.47
435.23	2314.20
435.44	2119.65
435.64	2201.57
435.85	2246.62
436.06	2383.84
436.26	2279.39
436.47	2217.95
436.67	2236.38
436.88	2287.58
437.08	2365.40
437.29	2373.60
437.49	2220.00
437.70	2316.25
437.90	2252.77
438.11	2457.56
438.31	2189.28
438.52	2428.89
438.72	2506.71
438.93	2490.33
439.13	2291.68
439.34	2496.47
439.54	2279.39
439.75	2357.21
439.95	2359.26
440.16	2275.29
440.36	2310.11
440.57	2310.11
440.77	2299.87
440.98	2252.77
441.18	2269.15
441.39	2181.09
441.59	2201.57
441.80	2506.71
442.00	2250.72
442.21	2408.41
442.41	2117.60
442.62	2359.26
442.82	2205.66
443.02	2199.52
443.23	2371.55
443.43	2236.38
443.64	2377.69
443.84	2162.66
444.05	2412.51
444.25	2234.33
444.46	2232.29
444.66	2289.63
444.87	2332.64
445.07	2133.98
445.28	2285.53
445.48	2285.53
445.69	2322.40
445.89	2449.37
446.09	2289.63
446.30	2488.28
446.50	2926.55
446.71	4437.95
446.91	5494.70
447.12	6336.42
447.32	6657.95
447.53	6133.67
447.73	5070.77
447.93	4548.54
448.14	4224.96
448.34	4085.70
448.55	3428.30
448.75	3532.75
448.96	3246.03
449.16	3088.34
449.36	2783.19
449.57	2574.30
449.77	2400.22
449.98	2269.15
450.18	2324.44
450.39	2285.53
450.59	2371.55
450.79	2326.49
451.00	2203.61
451.20	2295.77
451.41	2193.37
451.61	2338.78
451.81	2285.53
452.02	2220.00
452.22	2166.75
452.43	2228.19
452.63	2217.95
452.84	2207.71
453.04	2187.23
453.24	2248.67
453.45	2154.46
453.65	2191.33
453.86	2254.81
454.06	2342.88
454.26	2308.06
454.47	2172.89
454.67	2396.12
454.87	2293.72
455.08	2297.82
455.28	2408.41
455.49	2357.21
455.69	2217.95
455.89	2441.18
456.10	2349.02
456.30	2211.81
456.51	2367.45
456.71	2263.01
456.91	2342.88
457.12	2232.29
457.32	2361.31
457.52	2226.14
457.73	2324.44
457.93	2306.01
458.14	2187.23
458.34	2129.89
458.54	2256.86
458.75	2211.81
458.95	2375.64
459.15	2318.30
459.36	2226.14
459.56	2260.96
459.76	2574.30
459.97	2265.05
460.17	2285.53
460.37	2363.36
460.58	2244.57
460.78	2351.07
460.99	2222.05
461.19	2183.13
461.39	2101.22
461.60	2267.10
461.80	2357.21
462.00	2133.98
462.21	2250.72
462.41	2140.13
462.61	2133.98
462.82	2158.56
463.02	2336.73
463.22	2269.15
463.43	2338.78
463.63	2240.48
463.83	2371.55
464.04	2385.88
464.24	2174.94
464.44	2119.65
464.64	2353.12
464.85	2320.35
465.05	2353.12
465.25	2338.78
465.46	2224.09
465.66	2308.06
465.86	2289.63
466.07	2293.72
466.27	2217.95
466.47	2101.22
466.68	2129.89
466.88	2363.36
467.08	2355.16
467.29	2306.01
467.49	2283.49
467.69	2236.38
467.89	2316.25
468.10	2150.37
468.30	2334.68
468.50	2375.64
468.71	2437.08
468.91	2260.96
469.11	2394.08
469.31	2287.58
469.52	2103.26
469.72	2410.46
469.92	2516.95
470.13	2254.81
470.33	2297.82
470.53	2318.30
470.73	2719.70
470.94	3047.38
471.14	3129.30
471.34	3506.12
471.54	3301.33
471.75	3076.05
471.95	2805.72
472.15	2762.71
472.36	2877.40
472.56	2686.94
472.76	2801.62
472.96	2584.54
473.17	2559.96
473.37	2543.58
473.57	2263.01
473.77	2310.11
473.98	2301.92
474.18	2195.42
474.38	2527.19
474.58	2217.95
474.79	2095.07
474.99	2340.83
475.19	2271.20
475.39	2146.27
475.60	2291.68
475.80	2263.01
476.00	2260.96
476.20	2244.57
476.41	2324.44
476.61	2326.49
476.81	2416.60
477.01	2265.05
477.21	2494.43
477.42	2396.12
477.62	2172.89
477.82	2396.12
478.02	2310.11
478.23	2273.25
478.43	2220.00
478.63	2330.59
478.83	2293.72
479.03	2213.85
479.24	2355.16
479.44	2453.47
479.64	2244.57
479.84	2076.64
480.04	2136.03
480.25	2363.36
480.45	2158.56
480.65	2273.25
480.85	2473.95
481.06	2260.96
481.26	2265.05
481.46	2269.15
481.66	2301.92
481.86	2228.19
482.06	2392.03
482.27	2217.95
482.47	2195.42
482.67	2353.12
482.87	2269.15
483.07	2363.36
483.28	2256.86
483.48	2170.85
483.68	2144.22
483.88	2111.46
484.08	2086.88
484.29	2146.27
484.49	2252.77
484.69	2156.51
484.89	2418.65
485.09	2332.64
485.29	2281.44
485.50	2349.02
485.70	2361.31
485.90	2365.40
486.10	2289.63
486.30	2215.90
486.50	2351.07
486.71	2324.44
486.91	2334.68
487.11	2406.36
487.31	2090.98
487.51	2271.20
487.71	2170.85
487.91	2136.03
488.12	2170.85
488.32	2103.26
488.52	2158.56
488.72	2086.88
488.92	2301.92
489.12	2361.31
489.32	2349.02
489.53	2318.30
489.73	2113.50
489.93	2406.36
490.13	2242.53
490.33	2158.56
490.53	2310.11
490.73	2406.36
490.94	2154.46
491.14	2396.12
491.34	2389.98
491.54	2527.19
491.74	3233.74
491.94	3712.97
492.14	4134.85
492.34	4151.23
492.54	3821.51
492.75	3235.79
492.95	3252.17
493.15	3012.56
493.35	2973.65
493.55	2842.58
493.75	2766.81
493.95	2805.72
494.15	2584.54
494.35	2437.08
494.56	2336.73
494.76	2285.53
494.96	2355.16
495.16	2250.72
495.36	2258.91
495.56	2344.92
495.76	2353.12
495.96	2263.01
496.16	2195.42
496.36	2488.28
496.56	2250.72
496.77	2322.40
496.97	2306.01
497.17	2389.98
497.37	2160.61
497.57	2342.88
497.77	2365.40
497.97	2138.08
498.17	2222.05
498.37	2240.48
498.57	2277.34
498.77	2211.81
498.97	2342.88
499.17	2387.93
499.38	2271.20
499.58	2320.35
499.78	2359.26
499.98	2373.60
500.18	2248.67
500.38	2275.29
500.58	2504.67
500.78	2981.84
500.98	5164.98
501.18	7075.73
501.38	8890.23
501.58	9785.19
501.78	9414.51
501.98	7511.95
502.18	6373.28
502.38	5494.70
502.58	5072.82
502.78	4546.49
502.98	4523.96
503.18	4206.53
503.38	3899.33
503.59	3454.92
503.79	3168.21
503.99	3082.19
504.19	2850.77
504.39	2779.09
504.59	2822.10
504.79	2826.20
504.99	2777.05
505.19	2529.24
505.39	2459.61
505.59	2627.54
505.79	2549.72
505.99	2363.36
506.19	2355.16
506.39	2449.37
506.59	2285.53
506.79	2250.72
506.99	2426.84
507.19	2279.39
507.39	2330.59
507.59	2129.89
507.79	2236.38
507.99	2158.56
508.19	2244.57
508.39	2228.19
508.59	2254.81
508.79	2392.03
508.99	2488.28
509.19	2228.19
509.39	2365.40
509.59	2244.57
509.79	2215.90
509.99	2222.05
510.19	2365.40
510.39	2355.16
510.59	2275.29
510.79	2148.32
510.99	2222.05
511.19	2265.05
511.39	2494.43
511.59	2373.60
511.79	2387.93
511.99	2240.48
512.19	2361.31
512.38	2277.34
512.58	2306.01
512.78	2273.25
512.98	2471.90
513.18	2467.80
513.38	2086.88
513.58	2301.92
513.78	2287.58
513.98	2217.95
514.18	2142.18
514.38	2263.01
514.58	2293.72
514.78	2160.61
514.98	2187.23
515.18	2197.47
515.38	2191.33
515.58	2420.70
515.78	2211.81
515.98	2232.29
516.18	2447.32
516.38	2318.30
516.57	2203.61
516.77	2244.57
516.97	2299.87
517.17	2234.33
517.37	2109.41
517.57	2330.59
517.77	2234.33
517.97	2123.74
518.17	2359.26
518.37	2166.75
518.57	2224.09
518.77	2220.00
518.97	2232.29
519.16	2285.53
519.36	2359.26
519.56	2191.33
519.76	2258.91
519.96	2289.63
520.16	2394.08
520.36	2289.63
520.56	2392.03
520.76	2133.98
520.96	2244.57
521.16	2392.03
521.35	2324.44
521.55	2342.88
521.75	2220.00
521.95	2240.48
522.15	2170.85
522.35	2086.88
522.55	2164.70
522.75	2318.30
522.95	2146.27
523.14	2187.23
523.34	2236.38
523.54	2240.48
523.74	2355.16
523.94	2271.20
524.14	2168.80
524.34	2349.02
524.54	2389.98
524.73	2293.72
524.93	2420.70
525.13	2258.91
525.33	2076.64
525.53	2543.58
525.73	2406.36
525.93	2205.66
526.13	2211.81
526.32	2285.53
526.52	2373.60
526.72	2400.22
526.92	2228.19
527.12	2222.05
527.32	2144.22
527.52	2291.68
527.71	2322.40
527.91	2314.20
528.11	2267.10
528.31	2201.57
528.51	2129.89
528.71	2316.25
528.90	2324.44
529.10	2406.36
529.30	2312.16
529.50	2039.78
529.70	2263.01
529.90	2224.09
530.09	2160.61
530.29	2203.61
530.49	2160.61
530.69	2508.76
530.89	2283.49
531.09	2379.74
531.28	2215.90
531.48	2461.66
531.68	2332.64
531.88	2326.49
532.08	2408.41
532.28	2203.61
532.47	2346.97
532.67	2377.69
532.87	2359.26
533.07	2170.85
533.27	2392.03
533.46	2279.39
533.66	2371.55
533.86	2314.20
534.06	2346.97
534.26	2277.34
534.45	2258.91
534.65	2392.03
534.85	2260.96
535.05	2191.33
535.25	2422.75
535.44	2133.98
535.64	2332.64
535.84	2285.53
536.04	2215.90
536.24	2209.76
536.43	2195.42
536.63	2252.77
536.83	2267.10
537.03	2267.10
537.22	2023.39
537.42	2131.94
537.62	2279.39
537.82	2174.94
538.02	2420.70
538.21	2381.79
538.41	2639.83
538.61	2308.06
538.81	2185.18
539.00	2373.60
539.20	2047.97
539.40	2271.20
539.60	2263.01
539.79	2392.03
539.99	2213.85
540.19	2176.99
540.39	2301.92
540.58	2340.83
540.78	2371.55
540.98	2320.35
541.18	2351.07
541.37	2236.38
541.57	2265.05
541.77	2275.29
541.97	2209.76
542.16	2158.56
542.36	2187.23
542.56	2271.20
542.76	2420.70
542.95	2283.49
543.15	2322.40
543.35	2312.16
543.54	2199.52
543.74	2187.23
543.94	2414.56
544.14	2260.96
544.33	2346.97
544.53	2211.81
544.73	2199.52
544.93	2244.57
545.12	2205.66
545.32	2191.33
545.52	2220.00
545.71	2228.19
545.91	2121.70
546.11	2185.18
546.30	2240.48
546.50	2220.00
546.70	2277.34
546.90	2285.53
547.09	2125.79
547.29	2285.53
547.49	2363.36
547.68	2244.57
547.88	2174.94
548.08	2330.59
548.27	2734.04
548.47	2191.33
548.67	2277.34
548.87	2373.60
549.06	2215.90
549.26	2310.11
549.46	2236.38
549.65	2256.86
549.85	2236.38
550.05	2303.96
550.24	2185.18
550.44	2260.96
550.64	2289.63
550.83	2244.57
551.03	2383.84
551.23	2351.07
551.42	2310.11
551.62	2222.05
551.82	2248.67
552.01	2242.53
552.21	2389.98
552.41	2236.38
552.60	2377.69
552.80	2258.91
553.00	2215.90
553.19	2320.35
553.39	2424.80
553.59	2211.81
553.78	2314.20
553.98	2277.34
554.17	2203.61
554.37	2277.34
554.57	2209.76
554.76	2260.96
554.96	2349.02
555.16	2303.96
555.35	2230.24
555.55	2310.11
555.75	2365.40
555.94	2357.21
556.14	2148.32
556.33	2367.45
556.53	2351.07
556.73	2281.44
556.92	2279.39
557.12	2240.48
557.32	2498.52
557.51	2445.27
557.71	2334.68
557.90	2367.45
558.10	2400.22
558.30	2289.63
558.49	2217.95
558.69	2252.77
558.88	2338.78
559.08	2250.72
559.28	2285.53
559.47	2283.49
559.67	2240.48
559.86	2459.61
560.06	2328.54
560.26	2228.19
560.45	2344.92
560.65	2254.81
560.84	2295.77
561.04	2187.23
561.24	2385.88
561.43	2148.32
561.63	2453.47
561.82	2328.54
562.02	2334.68
562.22	2179.04
562.41	2115.55
562.61	2250.72
562.80	2211.81
563.00	2619.35
563.19	2306.01
563.39	2291.68
563.59	2342.88
563.78	2168.80
563.98	2097.12
564.17	2179.04
564.37	2133.98
564.56	2299.87
564.76	2158.56
564.96	2336.73
565.15	2336.73
565.35	2525.15
565.54	2244.57
565.74	2398.17
565.93	2248.67
566.13	2301.92
566.32	2211.81
566.52	2234.33
566.71	2326.49
566.91	2330.59
567.11	2310.11
567.30	2176.99
567.50	2379.74
567.69	2322.40
567.89	2258.91
568.08	2174.94
568.28	2383.84
568.47	2213.85
568.67	2267.10
568.86	2168.80
569.06	2336.73
569.25	2316.25
569.45	2213.85
569.64	2195.42
569.84	2211.81
570.04	2269.15
570.23	2203.61
570.43	2316.25
570.62	2291.68
570.82	2473.95
571.01	2107.36
571.21	2203.61
571.40	2220.00
571.60	2285.53
571.79	2310.11
571.99	2340.83
572.18	2125.79
572.38	2351.07
572.57	2170.85
572.77	2203.61
572.96	2543.58
573.16	2244.57
573.35	2162.66
573.55	2357.21
573.74	2314.20
573.94	2234.33
574.13	2226.14
574.33	2324.44
574.52	2387.93
574.71	2334.68
574.91	2258.91
575.10	2205.66
575.30	2242.53
575.49	2252.77
575.69	2166.75
575.88	2330.59
576.08	2258.91
576.27	2381.79
576.47	2269.15
576.66	2504.67
576.86	2486.23
577.05	2312.16
577.25	2359.26
577.44	2494.43
577.64	2187.23
577.83	2373.60
578.02	2238.43
578.22	2375.64
578.41	2463.71
578.61	2236.38
578.80	2097.12
579.00	2228.19
579.19	2197.47
579.39	2285.53
579.58	2332.64
579.77	2273.25
579.97	2414.56
580.16	2400.22
580.36	2412.51
580.55	2375.64
580.75	2420.70
580.94	2318.30
581.13	2463.71
581.33	2420.70
581.52	2301.92
581.72	2498.52
581.91	2375.64
582.11	2301.92
582.30	2346.97
582.49	2312.16
582.69	2490.33
582.88	2400.22
583.08	2287.58
583.27	2400.22
583.47	2289.63
583.66	2215.90
583.85	2211.81
584.05	2207.71
584.24	2383.84
584.44	2263.01
584.63	2422.75
584.82	2404.32
585.02	2496.47
585.21	2365.40
585.41	2492.38
585.60	2416.60
585.79	2502.62
585.99	2578.39
586.18	2402.27
586.37	2981.84
586.57	4552.63
586.76	13647.66
586.96	33082.89
587.15	46779.70
587.34	56341.67
587.54	61135.96
587.73	55495.86
587.93	39736.74
588.12	29990.45
588.31	23918.23
588.51	20991.68
588.70	19246.81
588.89	17458.93
589.09	15062.81
589.28	13035.32
589.47	10379.11
589.67	8159.11
589.86	6328.22
590.06	4693.94
590.25	3925.96
590.44	3268.56
590.64	2727.89
590.83	2576.34
591.02	2605.02
591.22	2375.64
591.41	2381.79
591.60	2248.67
591.80	2549.72
591.99	2265.05
592.18	2318.30
592.38	2424.80
592.57	2275.29
592.76	2260.96
592.96	2306.01
593.15	2277.34
593.34	2314.20
593.54	2287.58
593.73	2445.27
593.92	2320.35
594.12	2326.49
594.31	2426.84
594.50	2428.89
594.70	2410.46
594.89	2555.86
595.08	2166.75
595.28	2381.79
595.47	2621.40
595.66	2406.36
595.86	2277.34
596.05	2250.72
596.24	2291.68
596.43	2557.91
596.63	2469.85
596.82	2410.46
597.01	2377.69
597.21	2506.71
597.40	2324.44
597.59	2271.20
597.79	2258.91
597.98	2408.41
598.17	2363.36
598.36	2250.72
598.56	2422.75
598.75	2228.19
598.94	2314.20
599.14	2252.77
599.33	2260.96
599.52	2353.12
599.71	2267.10
599.91	2334.68
600.10	2371.55
600.29	2318.30
600.48	2326.49
600.68	2349.02
600.87	2400.22
601.06	2187.23
601.26	2195.42
601.45	2338.78
601.64	2260.96
601.83	2428.89
602.03	2226.14
602.22	2162.66
602.41	2371.55
602.60	2611.16
602.80	2363.36
602.99	2359.26
603.18	2228.19
603.37	2285.53
603.57	2260.96
603.76	2281.44
603.95	2322.40
604.14	2185.18
604.34	2258.91
604.53	2172.89
604.72	2273.25
604.91	2318.30
605.10	2316.25
605.30	2156.51
605.49	2473.95
605.68	2310.11
605.87	2338.78
606.07	2238.43
606.26	2254.81
606.45	2289.63
606.64	2308.06
606.84	2308.06
607.03	2308.06
607.22	2467.80
607.41	2301.92
607.60	2246.62
607.80	2441.18
607.99	2414.56
608.18	2273.25
608.37	2285.53
608.56	2211.81
608.76	2404.32
608.95	2439.13
609.14	2334.68
609.33	2412.51
609.52	2486.23
609.72	2334.68
609.91	2432.99
610.10	2293.72
610.29	2422.75
610.48	2330.59
610.68	2273.25
610.87	2273.25
611.06	2318.30
611.25	2277.34
611.44	2398.17
611.63	2338.78
611.83	2437.08
612.02	2222.05
612.21	2416.60
612.40	2168.80
612.59	2215.90
612.79	2224.09
612.98	2293.72
613.17	2461.66
613.36	2220.00
613.55	2402.27
613.74	2379.74
613.93	2400.22
614.13	2490.33
614.32	2478.04
614.51	2455.51
614.70	2447.32
614.89	2246.62
615.08	2396.12
615.28	2787.29
615.47	2203.61
615.66	2357.21
615.85	2367.45
616.04	2396.12
616.23	2379.74
616.42	2299.87
616.62	2357.21
616.81	2308.06
617.00	2293.72
617.19	2330.59
617.38	2236.38
617.57	2267.10
617.76	2293.72
617.95	2271.20
618.15	2326.49
618.34	2379.74
618.53	2154.46
618.72	2441.18
618.91	2439.13
619.10	2377.69
619.29	2209.76
619.48	2295.77
619.68	2195.42
619.87	2226.14
620.06	2144.22
620.25	2281.44
620.44	2271.20
620.63	2258.91
620.82	2242.53
621.01	2267.10
621.20	2267.10
621.39	2287.58
621.59	2334.68
621.78	2332.64
621.97	2242.53
622.16	2377.69
622.35	2312.16
622.54	2314.20
622.73	2336.73
622.92	2105.31
623.11	2426.84
623.30	2267.10
623.49	2336.73
623.68	2152.42
623.88	2439.13
624.07	2316.25
624.26	2236.38
624.45	2240.48
624.64	2256.86
624.83	2205.66
625.02	2244.57
625.21	2328.54
625.40	2310.11
625.59	2377.69
625.78	2215.90
625.97	2418.65
626.16	2428.89
626.35	2418.65
626.54	2383.84
626.74	2432.99
626.93	2248.67
627.12	2308.06
627.31	2281.44
627.50	2342.88
627.69	2342.88
627.88	2238.43
628.07	2213.85
628.26	2138.08
628.45	2260.96
628.64	2197.47
628.83	2213.85
629.02	2203.61
629.21	2387.93
629.40	2310.11
629.59	2246.62
629.78	2287.58
629.97	2230.24
630.16	2351.07
630.35	2191.33
630.54	2269.15
630.73	2260.96
630.92	2283.49
631.11	2252.77
631.30	2299.87
631.49	2365.40
631.68	2330.59
631.87	2260.96
632.06	2160.61
632.25	2426.84
632.44	2287.58
632.63	2367.45
632.82	2328.54
633.01	2267.10
633.20	2396.12
633.39	2287.58
633.58	2164.70
633.77	2295.77
633.96	2349.02
634.15	2377.69
634.34	2355.16
634.53	2308.06
634.72	2201.57
634.91	2121.70
635.10	2291.68
635.29	2400.22
635.48	2306.01
635.67	2168.80
635.86	2154.46
636.05	2435.03
636.24	2205.66
636.43	2318.30
636.62	2287.58
636.81	2033.63
637.00	2240.48
637.19	2303.96
637.38	2291.68
637.57	2199.52
637.76	2346.97
637.95	2381.79
638.14	2322.40
638.33	2332.64
638.52	2314.20
638.71	2326.49
638.89	2191.33
639.08	2547.67
639.27	2439.13
639.46	2465.75
639.65	2815.96
639.84	2863.06
640.03	3004.37
640.22	2848.72
640.41	2914.26
640.60	2527.19
640.79	2519.00
640.98	2361.31
641.17	2592.73
641.36	2469.85
641.55	2424.80
641.74	2244.57
641.92	2269.15
642.11	2346.97
642.30	2234.33
642.49	2248.67
642.68	2224.09
642.87	2338.78
643.06	2379.74
643.25	2205.66
643.44	2168.80
643.63	2160.61
643.82	2340.83
644.00	2142.18
644.19	2238.43
644.38	2168.80
644.57	2324.44
644.76	2201.57
644.95	2252.77
645.14	2293.72
645.33	2234.33
645.52	2248.67
645.71	2127.84
645.89	2160.61
646.08	2283.49
646.27	2256.86
646.46	2437.08
646.65	2084.83
646.84	2346.97
647.03	2183.13
647.22	2342.88
647.40	2318.30
647.59	2150.37
647.78	2056.16
647.97	2179.04
648.16	2127.84
648.35	2326.49
648.54	2279.39
648.73	2252.77
648.91	2371.55
649.10	2275.29
649.29	2174.94
649.48	2207.71
649.67	2287.58
649.86	2191.33
650.05	2269.15
650.23	2463.71
650.42	2326.49
650.61	2533.34
650.80	2461.66
650.99	2605.02
651.18	2408.41
651.36	2408.41
651.55	2228.19
651.74	2389.98
651.93	2244.57
652.12	2220.00
652.31	2220.00
652.49	2281.44
652.68	2293.72
652.87	2439.13
653.06	2324.44
653.25	2457.56
653.44	2244.57
653.62	2488.28
653.81	2211.81
654.00	2258.91
654.19	2316.25
654.38	2586.58
654.56	2299.87
654.75	2314.20
654.94	2363.36
655.13	2260.96
655.32	2217.95
655.51	2297.82
655.69	2162.66
655.88	2322.40
656.07	2197.47
656.26	2242.53
656.45	2166.75
656.63	2242.53
656.82	2283.49
657.01	2359.26
657.20	2203.61
657.38	2392.03
657.57	2195.42
657.76	2080.74
657.95	2291.68
658.14	2121.70
658.32	2283.49
658.51	2113.50
658.70	2334.68
658.89	2293.72
659.08	2246.62
659.26	2437.08
659.45	2191.33
659.64	2359.26
659.83	2308.06
660.01	2545.63
660.20	2267.10
660.39	2457.56
660.58	2140.13
660.76	2301.92
660.95	2148.32
661.14	2312.16
661.33	2138.08
661.51	2138.08
661.70	2197.47
661.89	2355.16
662.08	2310.11
662.26	2164.70
662.45	2152.42
662.64	2475.99
662.83	2349.02
663.01	2164.70
663.20	2209.76
663.39	2400.22
663.58	2164.70
663.76	2271.20
663.95	2258.91
664.14	2158.56
664.32	2232.29
664.51	2195.42
664.70	2129.89
664.89	2330.59
665.07	2090.98
665.26	2385.88
665.45	2168.80
665.64	2353.12
665.82	2211.81
666.01	2318.30
666.20	2170.85
666.38	2449.37
666.57	2408.41
666.76	3381.20
666.95	8134.53
667.13	16338.69
667.32	21278.40
667.51	24581.77
667.69	26277.49
667.88	24137.36
668.07	17145.59
668.25	13885.23
668.44	11552.59
668.63	9942.89
668.81	8771.45
669.00	7544.72
669.19	6883.22
669.38	5869.48
669.56	5185.46
669.75	4220.86
669.94	3674.06
670.12	3096.53
670.31	2789.33
670.50	2547.67
670.68	2463.71
670.87	2451.42
671.06	2301.92
671.24	2326.49
671.43	2535.39
671.62	2340.83
671.80	2252.77
671.99	2359.26
672.18	2220.00
672.36	2324.44
672.55	2246.62
672.74	2263.01
672.92	2226.14
673.11	2367.45
673.29	2215.90
673.48	2351.07
673.67	2203.61
673.85	2404.32
674.04	2189.28
674.23	2252.77
674.41	2449.37
674.60	2131.94
674.79	2113.50
674.97	2220.00
675.16	2269.15
675.34	2383.84
675.53	2150.37
675.72	2271.20
675.90	2416.60
676.09	2150.37
676.28	2285.53
676.46	2115.55
676.65	2375.64
676.83	2115.55
677.02	2179.04
677.21	2353.12
677.39	2306.01
677.58	2088.93
677.77	2203.61
677.95	2150.37
678.14	2291.68
678.32	2209.76
678.51	2308.06
678.70	2422.75
678.88	2195.42
679.07	2340.83
679.25	2293.72
679.44	2279.39
679.63	2185.18
679.81	2312.16
680.00	2363.36
680.18	2281.44
680.37	2396.12
680.55	2224.09
680.74	2060.26
680.93	2019.30
681.11	2330.59
681.30	2250.72
681.48	2258.91
681.67	2287.58
681.85	2277.34
682.04	2179.04
682.23	2363.36
682.41	2306.01
682.60	2244.57
682.78	2283.49
682.97	2166.75
683.15	2211.81
683.34	2285.53
683.53	2375.64
683.71	2138.08
683.90	2385.88
684.08	2424.80
684.27	2240.48
684.45	2273.25
684.64	2310.11
684.82	2213.85
685.01	2279.39
685.19	2193.37
685.38	2389.98
685.57	2258.91
685.75	2162.66
685.94	2244.57
686.12	2174.94
686.31	2213.85
686.49	2340.83
686.68	2103.26
686.86	2281.44
687.05	2277.34
687.23	2439.13
687.42	2146.27
687.60	2158.56
687.79	2342.88
687.97	2363.36
688.16	2291.68
688.34	2371.55
688.53	2009.06
688.71	2260.96
688.90	2406.36
689.08	2275.29
689.27	2084.83
689.45	2293.72
689.64	2332.64
689.82	2346.97
690.01	2367.45
690.19	2254.81
690.38	2267.10
690.56	2353.12
690.75	2226.14
690.93	2152.42
691.12	2226.14
691.30	2273.25
691.49	2228.19
691.67	2277.34
691.86	2463.71
692.04	2179.04
692.23	2250.72
692.41	2285.53
692.60	2506.71
692.78	2408.41
692.97	2342.88
693.15	2318.30
693.34	2473.95
693.52	2398.17
693.71	2236.38
693.89	2306.01
694.08	2107.36
694.26	2396.12
694.44	2371.55
694.63	2320.35
694.81	2138.08
695.00	2201.57
695.18	2342.88
695.37	2541.53
695.55	2258.91
695.74	2191.33
695.92	2238.43
696.10	2383.84
696.29	2064.35
696.47	2220.00
696.66	2129.89
696.84	2156.51
697.03	2250.72
697.21	2465.75
697.40	3330.00
697.58	2361.31
697.76	2234.33
697.95	2138.08
698.13	2179.04
698.32	2199.52
698.50	2275.29
698.68	2267.10
698.87	2269.15
699.05	2424.80
699.24	2308.06
699.42	2133.98
699.61	2310.11
699.79	2310.11
699.97	2275.29
700.16	2113.50
700.34	2207.71
700.53	2287.58
700.71	2424.80
700.89	2217.95
701.08	2293.72
701.26	2232.29
701.45	2742.23
701.63	2181.09
701.81	2211.81
702.00	2129.89
702.18	2293.72
702.37	2205.66
702.55	2447.32
702.73	2355.16
702.92	2318.30
703.10	2615.26
703.28	2432.99
703.47	2205.66
703.65	2455.51
703.84	2400.22
704.02	2349.02
704.20	2475.99
704.39	2211.81
704.57	2252.77
704.75	2402.27
704.94	2365.40
705.12	2250.72
705.30	2551.77
705.49	4364.22
705.67	10325.86
705.86	18204.39
706.04	21685.94
706.22	25036.42
706.41	25847.41
706.59	22011.57
706.77	15648.53
706.96	12961.59
707.14	11466.58
707.32	9893.74
707.51	8697.72
707.69	7241.62
707.87	5947.30
708.06	4767.67
708.24	3923.91
708.42	3155.92
708.61	2977.75
708.79	2379.74
708.97	2416.60
709.16	2424.80
709.34	2293.72
709.52	2197.47
709.71	2256.86
709.89	2349.02
710.07	2244.57
710.26	2215.90
710.44	2254.81
710.62	2330.59
710.80	2193.37
710.99	2381.79
711.17	2359.26
711.35	2146.27
711.54	2179.04
711.72	2392.03
711.90	2392.03
712.09	2346.97
712.27	2195.42
712.45	2295.77
712.63	2189.28
712.82	2283.49
713.00	2273.25
713.18	2361.31
713.37	2273.25
713.55	2287.58
713.73	2357.21
713.91	2301.92
714.10	2236.38
714.28	2220.00
714.46	2310.11
714.65	2263.01
714.83	2183.13
715.01	2344.92
715.19	2283.49
715.38	2164.70
715.56	2220.00
715.74	2230.24
715.92	2234.33
716.11	2412.51
716.29	2086.88
716.47	2187.23
716.65	2244.57
716.84	2109.41
717.02	2363.36
717.20	2123.74
717.38	2187.23
717.57	2252.77
717.75	2287.58
717.93	2185.18
718.11	2267.10
718.30	2142.18
718.48	2322.40
718.66	2387.93
718.84	2400.22
719.03	2258.91
719.21	2138.08
719.39	2387.93
719.57	2371.55
719.75	2420.70
719.94	2144.22
720.12	2209.76
720.30	2338.78
720.48	2312.16
720.67	2230.24
720.85	2129.89
721.03	2203.61
721.21	2111.46
721.39	2387.93
721.58	2394.08
721.76	2277.34
721.94	2293.72
722.12	2295.77
722.30	2422.75
722.49	2230.24
722.67	2279.39
722.85	2226.14
723.03	2162.66
723.21	2170.85
723.40	2248.67
723.58	2398.17
723.76	2357.21
723.94	2349.02
724.12	2383.84
724.30	2471.90
724.49	2365.40
724.67	2193.37
724.85	2389.98
725.03	2142.18
725.21	2244.57
725.40	2369.50
725.58	2199.52
725.76	2322.40
725.94	2322.40
726.12	2248.67
726.30	2256.86
726.49	2308.06
726.67	2168.80
726.85	2320.35
727.03	2570.20
727.21	3602.38
727.39	4929.46
727.57	5805.99
727.76	6338.46
727.94	6856.60
728.12	6258.59
728.30	5066.67
728.48	4491.20
728.66	4212.67
728.84	3768.26
729.03	3293.13
729.21	2940.88
729.39	2719.70
729.57	2504.67
729.75	2404.32
729.93	2441.18
730.11	2205.66
730.30	2256.86
730.48	2250.72
730.66	2441.18
730.84	2277.34
731.02	2291.68
731.20	2176.99
731.38	2275.29
731.56	2115.55
731.74	2207.71
731.93	2258.91
732.11	2170.85
732.29	2252.77
732.47	2361.31
732.65	2293.72
732.83	2408.41
733.01	2244.57
733.19	2281.44
733.37	2322.40
733.56	2320.35
733.74	2195.42
733.92	2324.44
734.10	2258.91
734.28	2258.91
734.46	2193.37
734.64	2291.68
734.82	2254.81
735.00	2217.95
735.18	2281.44
735.36	2246.62
735.54	2291.68
735.73	2291.68
735.91	2285.53
736.09	2314.20
736.27	2236.38
736.45	2269.15
736.63	2070.50
736.81	2203.61
736.99	2363.36
737.17	2375.64
737.35	2246.62
737.53	2281.44
737.71	2201.57
737.89	2357.21
738.07	2146.27
738.25	2109.41
738.43	2140.13
738.61	2228.19
738.80	2111.46
738.98	2119.65
739.16	2240.48
739.34	2211.81
739.52	2365.40
739.70	2234.33
739.88	2275.29
740.06	2328.54
740.24	2052.06
740.42	2420.70
740.60	2121.70
740.78	2158.56
740.96	2076.64
741.14	2160.61
741.32	2263.01
741.50	2095.07
741.68	2486.23
741.86	2420.70
742.04	2170.85
742.22	2150.37
742.40	2281.44
742.58	2326.49
742.76	2168.80
742.94	2400.22
743.12	2125.79
743.30	2236.38
743.48	2324.44
743.66	2222.05
743.84	2334.68
744.02	2244.57
744.20	2299.87
744.38	2160.61
744.56	2197.47
744.74	2494.43
744.92	2351.07
745.10	2392.03
745.28	2246.62
745.46	2408.41
745.64	2181.09
745.82	2314.20
746.00	2242.53
746.18	2273.25
746.36	2191.33
746.54	2252.77
746.72	2176.99
746.90	2187.23
747.08	2332.64
747.26	2215.90
747.44	2314.20
747.62	2340.83
747.80	2252.77
747.98	2353.12
748.15	2199.52
748.33	2428.89
748.51	2353.12
748.69	2336.73
748.87	2150.37
749.05	2220.00
749.23	2299.87
749.41	2289.63
749.59	2179.04
749.77	2326.49
749.95	2199.52
750.13	2160.61
750.31	2275.29
750.49	2183.13
750.67	2324.44
750.85	2359.26
751.03	2334.68
751.20	2508.76
751.38	2301.92
751.56	2258.91
751.74	2195.42
751.92	2162.66
752.10	2205.66
752.28	2361.31
752.46	2193.37
752.64	2217.95
752.82	2342.88
753.00	2422.75
753.18	2228.19
753.35	2203.61
753.53	2234.33
753.71	2176.99
753.89	2265.05
754.07	2228.19
754.25	2301.92
754.43	2289.63
754.61	2148.32
754.79	2314.20
754.97	2236.38
755.14	2324.44
755.32	2088.93
755.50	2238.43
755.68	2357.21
755.86	2148.32
756.04	2170.85
756.22	2015.20
756.40	2318.30
756.57	2496.47
756.75	2267.10
756.93	2310.11
757.11	2406.36
757.29	2142.18
757.47	2078.69
757.65	2076.64
757.82	2052.06
758.00	2185.18
758.18	2168.80
758.36	2191.33
758.54	2447.32
758.72	2162.66
758.90	2297.82
759.07	2328.54
759.25	2189.28
759.43	2238.43
759.61	2093.02
759.79	3282.89
759.97	2375.64
760.15	2217.95
760.32	2164.70
760.50	2342.88
760.68	2404.32
760.86	2121.70
761.04	2408.41
761.22	2334.68
761.39	2277.34
761.57	2281.44
761.75	2301.92
761.93	2310.11
762.11	2193.37
762.28	2240.48
762.46	2146.27
762.64	2371.55
762.82	2193.37
763.00	2236.38
763.18	2398.17
763.35	2156.51
763.53	2359.26
763.71	2275.29
763.89	2267.10
764.07	2267.10
764.24	2244.57
764.42	2373.60
764.60	2195.42
764.78	2324.44
764.96	2281.44
765.13	2342.88
765.31	2154.46
765.49	2293.72
765.67	2189.28
765.84	2260.96
766.02	2160.61
766.20	2138.08
766.38	2293.72
766.56	2293.72
766.73	2340.83
766.91	2240.48
767.09	2306.01
767.27	2228.19
767.44	2101.22
767.62	2351.07
767.80	2275.29
767.98	2209.76
768.15	2244.57
768.33	2295.77
768.51	2369.50
768.69	2373.60
768.87	2297.82
769.04	2220.00
769.22	2549.72
769.40	2449.37
769.58	2455.51
769.75	2308.06
769.93	2365.40
770.11	2162.66
770.28	2136.03
770.46	2346.97
770.64	2289.63
770.82	2217.95
770.99	2185.18
771.17	2271.20
771.35	2183.13
771.53	2197.47
771.70	2205.66
771.88	2244.57
772.06	2250.72
772.23	2283.49
772.41	2295.77
772.59	2224.09
772.77	2193.37
772.94	2217.95
773.12	2324.44
773.30	2236.38
773.47	2281.44
773.65	2265.05
773.83	2400.22
774.01	2322.40
774.18	2076.64
774.36	2240.48
774.54	2160.61
774.71	2291.68
774.89	2133.98
775.07	2072.54
775.24	2142.18
775.42	2201.57
775.60	2416.60
775.78	2156.51
775.95	2107.36
776.13	2045.92
776.31	2050.02
776.48	2287.58
776.66	2392.03
776.84	2185.18
777.01	2195.42
777.19	2152.42
777.37	2109.41
777.54	2273.25
777.72	2482.14
777.90	2232.29
778.07	2170.85
778.25	2613.21
778.43	2306.01
778.60	2127.84
778.78	2326.49
778.96	2451.42
779.13	2156.51
779.31	2336.73
779.49	2275.29
779.66	2316.25
779.84	2191.33
780.01	2244.57
780.19	2146.27
780.37	2394.08
780.54	2326.49
780.72	2115.55
780.90	2176.99
781.07	2252.77
781.25	2199.52
781.43	2342.88
781.60	2172.89
781.78	2383.84
781.95	2297.82
782.13	2244.57
782.31	2277.34
782.48	2101.22
782.66	2275.29
782.83	2418.65
783.01	2271.20
783.19	2291.68
783.36	2220.00
783.54	2129.89
783.72	2277.34
783.89	2179.04
784.07	2318.30
784.24	2295.77
784.42	2392.03
784.60	2281.44
784.77	2260.96
784.95	2119.65
785.12	2248.67
785.30	2322.40
785.47	2199.52
785.65	2174.94
785.83	2236.38
786.00	2293.72
786.18	2334.68
786.35	2119.65
786.53	2185.18
786.71	2359.26
786.88	2320.35
787.06	2338.78
787.23	2158.56
787.41	2197.47
787.58	2213.85
787.76	2211.81
787.94	2213.85
788.11	2291.68
788.29	2125.79
788.46	2148.32
788.64	2068.45
788.81	2215.90
788.99	2248.67
789.16	2125.79
789.34	2162.66
789.52	2242.53
789.69	2170.85
789.87	2009.06
790.04	2170.85
790.22	2228.19
790.39	2482.14
790.57	2179.04
790.74	2195.42
790.92	2445.27
791.09	2097.12
791.27	2273.25
791.44	2340.83
791.62	2220.00
791.79	2322.40
791.97	2316.25
792.15	2510.81
792.32	2367.45
792.50	2346.97
792.67	2404.32
792.85	2359.26
793.02	2256.86
793.20	2228.19
793.37	2072.54
793.55	2252.77
793.72	2125.79
793.90	2246.62
794.07	2217.95
794.25	2183.13
794.42	2342.88
794.60	2242.53
794.77	2269.15
794.95	2299.87
795.12	2314.20
795.30	2211.81
795.47	2090.98
795.65	2437.08
795.82	2308.06
796.00	2166.75
796.17	2267.10
796.34	2238.43
796.52	2260.96
796.69	2367.45
796.87	2342.88
797.04	2258.91
797.22	2275.29
797.39	2224.09
797.57	2332.64
797.74	2303.96
797.92	2277.34
798.09	2228.19
798.27	2281.44
798.44	2246.62
798.62	2211.81
798.79	2260.96
798.96	2244.57
799.14	2240.48
799.31	2457.56
799.49	2146.27
799.66	2197.47
799.84	2279.39
800.01	2136.03
800.19	2252.77
800.36	2136.03
800.53	2203.61
800.71	2258.91
800.88	2361.31
801.06	2154.46
801.23	2166.75
801.41	2291.68
801.58	2142.18
801.75	2142.18
801.93	2240.48
802.10	2400.22
802.28	2168.80
802.45	2230.24
802.63	2244.57
802.80	2371.55
802.97	2189.28
803.15	2252.77
803.32	2220.00
803.50	2162.66
803.67	2140.13
803.84	2129.89
804.02	2199.52
804.19	2224.09
804.37	2050.02
804.54	2144.22
804.71	2232.29
804.89	2195.42
805.06	2138.08
805.24	2119.65
805.41	2193.37
805.58	2236.38
805.76	2494.43
805.93	2265.05
806.10	2412.51
806.28	2285.53
806.45	2336.73
806.63	2285.53
806.80	2263.01
806.97	2269.15
807.15	2279.39
807.32	2211.81
807.49	2230.24
807.67	2211.81
807.84	2234.33
808.01	1961.95
808.19	2381.79
808.36	2496.47
808.54	2142.18
808.71	2138.08
808.88	2232.29
809.06	2334.68
809.23	2326.49
809.40	2170.85
809.58	2359.26
809.75	2267.10
809.92	2162.66
810.10	2445.27
810.27	2236.38
810.44	2265.05
810.62	2314.20
810.79	2318.30
810.96	2213.85
811.14	2160.61
811.31	2299.87
811.48	2308.06
811.66	2269.15
811.83	2420.70
812.00	2320.35
812.18	2338.78
812.35	2416.60
812.52	2293.72
812.69	2166.75
812.87	2226.14
813.04	2125.79
813.21	2240.48
813.39	2179.04
813.56	2187.23
813.73	2396.12
813.91	2056.16
814.08	2316.25
814.25	2172.89
814.42	2090.98
814.60	2168.80
814.77	2211.81
814.94	2267.10
815.12	2228.19
815.29	2437.08
815.46	2244.57
815.63	2236.38
815.81	2195.42
815.98	2248.67
816.15	2193.37
816.33	2234.33
816.50	2238.43
816.67	2154.46
816.84	2246.62
817.02	2164.70
817.19	2220.00
817.36	2269.15
817.53	2312.16
817.71	2215.90
817.88	2306.01
818.05	2172.89
818.22	2191.33
818.40	2389.98
818.57	2203.61
818.74	2267.10
818.91	2240.48
819.09	2351.07
819.26	2402.27
819.43	2240.48
819.60	2086.88
819.78	2248.67
819.95	2328.54
820.12	2179.04
820.29	2301.92
820.47	2314.20
820.64	2209.76
820.81	2086.88
820.98	2195.42
821.15	2174.94
821.33	2365.40
821.50	2164.70
821.67	2273.25
821.84	2191.33
822.02	2209.76
822.19	2387.93
822.36	2246.62
822.53	2174.94
822.70	2160.61
822.88	2254.81
823.05	2451.42
823.22	2199.52
823.39	2293.72
823.56	2269.15
823.74	2414.56
823.91	2152.42
824.08	2174.94
824.25	2101.22
824.42	2412.51
824.60	2213.85
824.77	2248.67
824.94	2203.61
825.11	2238.43
825.28	2064.35
825.45	2299.87
825.63	2330.59
825.80	2174.94
825.97	2289.63
826.14	2207.71
826.31	2170.85
826.48	2297.82
826.66	2174.94
826.83	2228.19
827.00	2197.47
827.17	2193.37
827.34	2162.66
827.51	2164.70
827.69	2283.49
827.86	2127.84
828.03	2211.81
828.20	2254.81
828.37	2203.61
828.54	2332.64
828.71	2176.99
828.89	2316.25
829.06	2308.06
829.23	2363.36
829.40	2152.42
829.57	2164.70
829.74	2283.49
829.91	2195.42
830.09	2189.28
830.26	2260.96
830.43	2357.21
830.60	2234.33
830.77	2277.34
830.94	2414.56
831.11	2236.38
831.28	2271.20
831.46	2324.44
831.63	2203.61
831.80	2293.72
831.97	2191.33
832.14	2136.03
832.31	2248.67
832.48	2273.25
832.65	2398.17
832.82	2265.05
832.99	2252.77
833.17	2125.79
833.34	2396.12
833.51	2252.77
833.68	1970.15
833.85	2275.29
834.02	2101.22
834.19	2142.18
834.36	2213.85
834.53	2291.68
834.70	2349.02
834.87	2361.31
835.04	2220.00
835.22	2179.04
835.39	2197.47
835.56	2097.12
835.73	2133.98
835.90	2330.59
836.07	2187.23
836.24	2285.53
836.41	2146.27
836.58	2129.89
836.75	2361.31
836.92	2203.61
837.09	2140.13
837.26	2281.44
837.43	2271.20
837.60	2283.49
837.77	2201.57
837.94	2310.11
838.12	2437.08
838.29	2211.81
838.46	2086.88
838.63	2142.18
838.80	2437.08
838.97	2232.29
839.14	2150.37
839.31	2269.15
839.48	2260.96
839.65	2220.00
839.82	2269.15
839.99	2308.06
840.16	2125.79
840.33	2179.04
840.50	2277.34
840.67	2117.60
840.84	2127.84
841.01	2205.66
841.18	2195.42
841.35	2195.42
841.52	2344.92
841.69	2426.84
841.86	2267.10
842.03	2236.38
842.20	2371.55
842.37	2267.10
842.54	2263.01
842.71	2256.86
842.88	2138.08
843.05	2312.16
843.22	2187.23
843.39	2326.49
843.56	2195.42
843.73	2142.18
843.90	2238.43
844.07	2236.38
844.24	2301.92
844.41	2324.44
844.58	2250.72
844.75	2275.29
844.92	2301.92
845.09	2291.68
845.26	2162.66
845.43	2228.19
845.60	2187.23
845.77	2303.96
845.94	2318.30
846.10	2353.12
846.27	2138.08
846.44	2207.71
846.61	2113.50
846.78	2279.39
846.95	2281.44
847.12	2187.23
847.29	2211.81
847.46	2164.70
847.63	2301.92
847.80	2107.36
847.97	2174.94
848.14	2469.85
848.31	2338.78
848.48	2152.42
848.65	2236.38
848.82	2295.77
848.98	2488.28
849.15	2273.25
849.32	2316.25
849.49	2332.64
849.66	2256.86
849.83	2238.43
850.00	2101.22
850.17	2199.52
850.34	2256.86
850.51	2232.29
850.68	2166.75
850.85	2519.00
851.01	2275.29
851.18	2299.87
851.35	2144.22
851.52	2236.38
851.69	2361.31
851.86	2158.56
852.03	2121.70
852.20	2310.11
852.37	2301.92
852.53	2052.06
852.70	2215.90
852.87	2179.04
853.04	2289.63
853.21	2236.38
853.38	2406.36
853.55	2422.75
853.72	2344.92
853.89	2136.03
854.05	2152.42
854.22	2209.76
854.39	2254.81
854.56	2187.23
854.73	2256.86
854.90	2142.18
855.07	2244.57
855.23	2103.26
855.40	2158.56
855.57	2211.81
855.74	2072.54
855.91	2492.38
856.08	2074.59
856.25	2152.42
856.41	2140.13
856.58	2121.70
856.75	2232.29
856.92	2129.89
857.09	2371.55
857.26	2109.41
857.42	2191.33
857.59	2359.26
857.76	2189.28
857.93	2238.43
858.10	2285.53
858.27	2144.22
858.43	2291.68
858.60	2154.46
858.77	2131.94
858.94	2179.04
859.11	2346.97
859.27	2215.90
859.44	2215.90
859.61	2437.08
859.78	2224.09
859.95	2228.19
860.12	2181.09
860.28	2426.84
860.45	2428.89
860.62	2136.03
860.79	2260.96
860.95	2275.29
861.12	2121.70
861.29	2205.66
861.46	2183.13
861.63	2256.86
861.79	2330.59
861.96	2133.98
862.13	2197.47
862.30	2324.44
862.47	2232.29
862.63	2127.84
862.80	2312.16
862.97	2285.53
863.14	2265.05
863.30	2203.61
863.47	2140.13
863.64	2408.41
863.81	2283.49
863.97	2125.79
864.14	2338.78
864.31	2271.20
864.48	2252.77
864.65	2201.57
864.81	2230.24
864.98	2269.15
865.15	2303.96
865.32	2277.34
865.48	2238.43
865.65	2406.36
865.82	2154.46
865.98	2273.25
866.15	2260.96
866.32	2211.81
866.49	2252.77
866.65	2314.20
866.82	2090.98
866.99	2220.00
867.16	2281.44
867.32	2156.51
867.49	2187.23
867.66	2222.05
867.83	2220.00
867.99	2101.22
868.16	2199.52
868.33	2154.46
868.49	2279.39
868.66	2179.04
868.83	2263.01
868.99	2250.72
869.16	2250.72
869.33	2330.59
869.50	2281.44
869.66	2236.38
869.83	2310.11
870.00	2121.70
870.16	2275.29
870.33	2191.33
870.50	2316.25
870.66	2260.96
870.83	2322.40
871.00	2226.14
871.17	2199.52
871.33	2258.91
871.50	2293.72
871.67	2193.37
871.83	2121.70
872.00	2367.45
872.17	2224.09
872.33	2490.33
872.50	2365.40
872.67	2127.84
872.83	2265.05
873.00	2236.38
873.17	2275.29
873.33	2226.14
873.50	2228.19
873.67	2172.89
873.83	2142.18
874.00	2228.19
874.16	2215.90
874.33	2324.44
874.50	2129.89
874.66	2199.52
874.83	2246.62
875.00	2332.64
875.16	2400.22
875.33	2334.68
875.50	2043.87
875.66	2211.81
875.83	2213.85
875.99	2252.77
876.16	2211.81
876.33	2127.84
876.49	2250.72
876.66	2156.51
876.83	2205.66
876.99	2070.50
877.16	2211.81
877.32	2142.18
877.49	2195.42
877.66	2275.29
877.82	2326.49
877.99	2289.63
878.15	2365.40
878.32	2207.71
878.49	2303.96
878.65	2199.52
878.82	2373.60
878.98	2187.23
879.15	2351.07
879.32	2240.48
879.48	2213.85
879.65	2269.15
879.81	2201.57
879.98	2236.38
880.15	2199.52
880.31	2297.82
880.48	2152.42
880.64	2269.15
880.81	2340.83
880.97	2400.22
881.14	2308.06
881.31	2113.50
881.47	2351.07
881.64	2236.38
881.80	2058.21
881.97	2285.53
882.13	2252.77
882.30	2150.37
882.47	2211.81
882.63	2086.88
882.80	2148.32
882.96	2211.81
883.13	2389.98
883.29	2125.79
883.46	2295.77
883.62	2535.39
883.79	2324.44
883.95	2338.78
884.12	2240.48
884.29	2353.12
884.45	2285.53
884.62	2236.38
884.78	2140.13
884.95	2369.50
885.11	2125.79
885.28	2310.11
885.44	2154.46
885.61	2308.06
885.77	2361.31
885.94	2250.72
886.10	2201.57
886.27	2271.20
886.43	2437.08
886.60	2424.80
886.76	2244.57
886.93	2142.18
887.09	2287.58
887.26	2070.50
887.42	2322.40
887.59	2398.17
887.75	2416.60
887.92	2295.77
888.08	2260.96
888.25	2381.79
888.41	2318.30
888.58	2211.81
888.74	2146.27
888.91	2144.22
>>>>>End Processed Spectral Data<<<<<
