SpectraSuite Data File
++++++++++++++++++++++++++++++++++++
Date: Thu May 05 13:20:53 CEST 2016
User: root
Dark Spectrum Present: No
Reference Spectrum Present: No
Number of Sampled Component Spectra: 1
Spectrometers: USB4C02835
Integration Time (usec): 100000 (USB4C02835)
Spectra Averaged: 1 (USB4C02835)
Boxcar Smoothing: 0 (USB4C02835)
Correct for Electrical Dark: No (USB4C02835)
Strobe/Lamp Enabled: No (USB4C02835)
Correct for Detector Non-linearity: No (USB4C02835)
Correct for Stray Light: No (USB4C02835)
Number of Pixels in Processed Spectrum: 3648
>>>>>Begin Processed Spectral Data<<<<<
177.47	1753.06
177.69	1753.06
177.91	1753.06
178.13	1789.92
178.36	1777.64
178.58	2117.60
178.80	2277.34
179.02	2097.12
179.24	2148.32
179.46	2187.23
179.68	2170.85
179.90	2197.47
180.13	2269.15
180.35	2119.65
180.57	2174.94
180.79	2340.83
181.01	2275.29
181.23	2213.85
181.45	2326.49
181.67	2303.96
181.90	2346.97
182.12	2203.61
182.34	2097.12
182.56	2289.63
182.78	2334.68
183.00	2248.67
183.22	2211.81
183.44	2054.11
183.66	2531.29
183.89	2263.01
184.11	2226.14
184.33	2367.45
184.55	2375.64
184.77	2195.42
184.99	2189.28
185.21	2197.47
185.43	2506.71
185.65	2117.60
185.87	2185.18
186.10	2531.29
186.32	2502.62
186.54	2269.15
186.76	2283.49
186.98	2346.97
187.20	2250.72
187.42	2170.85
187.64	2166.75
187.86	2285.53
188.08	2385.88
188.30	2097.12
188.52	2191.33
188.75	2381.79
188.97	2375.64
189.19	2181.09
189.41	2138.08
189.63	2260.96
189.85	2211.81
190.07	2142.18
190.29	2045.92
190.51	2318.30
190.73	2086.88
190.95	2324.44
191.17	2195.42
191.39	2123.74
191.61	2197.47
191.84	2142.18
192.06	2230.24
192.28	2074.59
192.50	2623.45
192.72	2256.86
192.94	2228.19
193.16	2359.26
193.38	2314.20
193.60	2168.80
193.82	2230.24
194.04	2324.44
194.26	2269.15
194.48	2211.81
194.70	2207.71
194.92	2191.33
195.14	2332.64
195.36	2168.80
195.58	2197.47
195.80	2260.96
196.02	2195.42
196.24	2154.46
196.46	2238.43
196.69	2176.99
196.91	2523.10
197.13	2203.61
197.35	2117.60
197.57	2363.36
197.79	2285.53
198.01	2217.95
198.23	2125.79
198.45	2277.34
198.67	2207.71
198.89	2084.83
199.11	2189.28
199.33	2166.75
199.55	2078.69
199.77	2099.17
199.99	2252.77
200.21	2170.85
200.43	2295.77
200.65	2101.22
200.87	1953.76
201.09	2240.48
201.31	2228.19
201.53	2226.14
201.75	2187.23
201.97	2303.96
202.19	2299.87
202.41	2138.08
202.63	2387.93
202.85	2351.07
203.07	2269.15
203.29	2209.76
203.51	2160.61
203.73	2228.19
203.95	2486.23
204.17	2193.37
204.39	2136.03
204.61	2228.19
204.83	2232.29
205.05	2217.95
205.27	2242.53
205.49	2459.61
205.71	2267.10
205.93	2068.45
206.15	2127.84
206.37	2281.44
206.59	2232.29
206.81	2144.22
207.03	2099.17
207.25	2125.79
207.47	2293.72
207.69	2224.09
207.91	2346.97
208.13	2361.31
208.34	2162.66
208.56	2168.80
208.78	2176.99
209.00	2146.27
209.22	2269.15
209.44	2252.77
209.66	2191.33
209.88	2215.90
210.10	2240.48
210.32	2154.46
210.54	2256.86
210.76	2203.61
210.98	2369.50
211.20	1988.58
211.42	2299.87
211.64	2291.68
211.86	2260.96
212.08	2215.90
212.30	2199.52
212.52	2316.25
212.74	2260.96
212.96	2199.52
213.17	2236.38
213.39	2310.11
213.61	2373.60
213.83	2117.60
214.05	2203.61
214.27	2324.44
214.49	2158.56
214.71	2154.46
214.93	2301.92
215.15	2199.52
215.37	2330.59
215.59	2039.78
215.81	2220.00
216.03	2437.08
216.24	2244.57
216.46	2217.95
216.68	2236.38
216.90	2322.40
217.12	2365.40
217.34	2176.99
217.56	2232.29
217.78	2412.51
218.00	2295.77
218.22	2256.86
218.44	2285.53
218.66	2256.86
218.87	2451.42
219.09	2162.66
219.31	2187.23
219.53	2318.30
219.75	2224.09
219.97	2220.00
220.19	2236.38
220.41	2187.23
220.63	2408.41
220.85	2244.57
221.06	2226.14
221.28	2285.53
221.50	2359.26
221.72	2136.03
221.94	2154.46
222.16	2269.15
222.38	2387.93
222.60	2172.89
222.82	2181.09
223.03	2316.25
223.25	2238.43
223.47	2238.43
223.69	2406.36
223.91	2322.40
224.13	2236.38
224.35	2109.41
224.57	2357.21
224.78	2240.48
225.00	2183.13
225.22	2142.18
225.44	2189.28
225.66	2314.20
225.88	2170.85
226.10	2312.16
226.32	2179.04
226.53	2344.92
226.75	2293.72
226.97	2215.90
227.19	2197.47
227.41	2072.54
227.63	2150.37
227.85	2078.69
228.06	2154.46
228.28	2275.29
228.50	2328.54
228.72	2103.26
228.94	2199.52
229.16	2101.22
229.37	2158.56
229.59	2080.74
229.81	2322.40
230.03	2213.85
230.25	2133.98
230.47	2023.39
230.69	2160.61
230.90	2392.03
231.12	2240.48
231.34	2166.75
231.56	2301.92
231.78	2054.11
232.00	2205.66
232.21	2211.81
232.43	2168.80
232.65	2056.16
232.87	2326.49
233.09	2121.70
233.30	2088.93
233.52	2359.26
233.74	2236.38
233.96	2105.31
234.18	2207.71
234.40	2179.04
234.61	2420.70
234.83	2037.73
235.05	2072.54
235.27	2557.91
235.49	2422.75
235.70	2181.09
235.92	2244.57
236.14	2289.63
236.36	2422.75
236.58	1982.43
236.79	2203.61
237.01	2269.15
237.23	2109.41
237.45	2330.59
237.67	2107.36
237.88	2295.77
238.10	2463.71
238.32	2119.65
238.54	2117.60
238.76	2250.72
238.97	2146.27
239.19	2099.17
239.41	2324.44
239.63	2371.55
239.85	2183.13
240.06	2138.08
240.28	2074.59
240.50	2336.73
240.72	2283.49
240.93	2103.26
241.15	2326.49
241.37	2199.52
241.59	2351.07
241.81	2183.13
242.02	2183.13
242.24	2326.49
242.46	2353.12
242.68	2123.74
242.89	2138.08
243.11	2340.83
243.33	2174.94
243.55	2174.94
243.76	2224.09
243.98	2179.04
244.20	2263.01
244.42	2164.70
244.64	2197.47
244.85	2047.97
245.07	2129.89
245.29	2207.71
245.51	2187.23
245.72	2269.15
245.94	2379.74
246.16	2209.76
246.38	2279.39
246.59	2207.71
246.81	2185.18
247.03	2170.85
247.24	2078.69
247.46	2138.08
247.68	2273.25
247.90	2109.41
248.11	2197.47
248.33	2342.88
248.55	2256.86
248.77	2220.00
248.98	2168.80
249.20	2424.80
249.42	2316.25
249.64	2203.61
249.85	2154.46
250.07	2195.42
250.29	2318.30
250.50	2162.66
250.72	2056.16
250.94	2283.49
251.16	2471.90
251.37	2176.99
251.59	2289.63
251.81	2338.78
252.02	2361.31
252.24	2236.38
252.46	2312.16
252.68	2150.37
252.89	2142.18
253.11	2052.06
253.33	2295.77
253.54	2412.51
253.76	2093.02
253.98	2174.94
254.20	2150.37
254.41	2097.12
254.63	2179.04
254.85	2080.74
255.06	2162.66
255.28	2246.62
255.50	2162.66
255.71	2109.41
255.93	2031.58
256.15	2297.82
256.36	2291.68
256.58	2086.88
256.80	2213.85
257.02	2183.13
257.23	2269.15
257.45	2279.39
257.67	2283.49
257.88	2164.70
258.10	2342.88
258.32	2226.14
258.53	2146.27
258.75	2424.80
258.97	2154.46
259.18	2127.84
259.40	2193.37
259.62	2437.08
259.83	2377.69
260.05	2185.18
260.27	2736.09
260.48	2332.64
260.70	2152.42
260.92	2086.88
261.13	2211.81
261.35	2271.20
261.57	2324.44
261.78	2045.92
262.00	2080.74
262.22	2263.01
262.43	2160.61
262.65	2236.38
262.86	2191.33
263.08	2537.43
263.30	2263.01
263.51	2007.01
263.73	2150.37
263.95	2349.02
264.16	2142.18
264.38	2131.94
264.60	2148.32
264.81	2207.71
265.03	2414.56
265.25	2293.72
265.46	2148.32
265.68	2332.64
265.89	2240.48
266.11	2052.06
266.33	2203.61
266.54	2357.21
266.76	2271.20
266.98	2113.50
267.19	2328.54
267.41	2359.26
267.62	2254.81
267.84	2080.74
268.06	2203.61
268.27	2248.67
268.49	2396.12
268.70	2299.87
268.92	2156.51
269.14	2179.04
269.35	2144.22
269.57	2154.46
269.79	2195.42
270.00	2281.44
270.22	2519.00
270.43	2138.08
270.65	2037.73
270.87	2203.61
271.08	2318.30
271.30	2238.43
271.51	2158.56
271.73	2324.44
271.95	2367.45
272.16	2101.22
272.38	2295.77
272.59	2176.99
272.81	2330.59
273.02	2148.32
273.24	2207.71
273.46	2420.70
273.67	2170.85
273.89	2119.65
274.10	2152.42
274.32	2367.45
274.54	2281.44
274.75	2185.18
274.97	2160.61
275.18	2279.39
275.40	2240.48
275.61	2195.42
275.83	2228.19
276.05	2168.80
276.26	2195.42
276.48	2289.63
276.69	2168.80
276.91	2242.53
277.12	2369.50
277.34	2293.72
277.55	2279.39
277.77	2299.87
277.99	2258.91
278.20	2156.51
278.42	2107.36
278.63	2125.79
278.85	2191.33
279.06	2093.02
279.28	2234.33
279.49	2281.44
279.71	2308.06
279.93	2191.33
280.14	2179.04
280.36	2191.33
280.57	2326.49
280.79	2277.34
281.00	2090.98
281.22	2222.05
281.43	2381.79
281.65	1988.58
281.86	2111.46
282.08	2365.40
282.29	2396.12
282.51	2138.08
282.73	2084.83
282.94	2129.89
283.16	2355.16
283.37	2326.49
283.59	2289.63
283.80	2220.00
284.02	2267.10
284.23	2234.33
284.45	2187.23
284.66	2228.19
284.88	2170.85
285.09	2217.95
285.31	2279.39
285.52	2295.77
285.74	2082.78
285.95	2346.97
286.17	2256.86
286.38	2293.72
286.60	2154.46
286.81	2127.84
287.03	2269.15
287.24	2244.57
287.46	2258.91
287.67	2230.24
287.89	2475.99
288.10	2207.71
288.32	2250.72
288.53	2342.88
288.75	2281.44
288.96	2326.49
289.18	2248.67
289.39	2215.90
289.61	2349.02
289.82	2482.14
290.04	2400.22
290.25	2148.32
290.47	2256.86
290.68	2201.57
290.90	2445.27
291.11	2121.70
291.33	2353.12
291.54	2197.47
291.76	2179.04
291.97	2234.33
292.18	2252.77
292.40	2195.42
292.61	2125.79
292.83	2367.45
293.04	2293.72
293.26	2308.06
293.47	2209.76
293.69	2127.84
293.90	2258.91
294.12	2430.94
294.33	2277.34
294.55	2148.32
294.76	2367.45
294.97	2400.22
295.19	2506.71
295.40	2222.05
295.62	2279.39
295.83	2344.92
296.05	2215.90
296.26	2328.54
296.48	2105.31
296.69	2211.81
296.90	2301.92
297.12	2267.10
297.33	2414.56
297.55	2271.20
297.76	2326.49
297.98	2432.99
298.19	2220.00
298.41	2226.14
298.62	2121.70
298.83	2285.53
299.05	2269.15
299.26	2203.61
299.48	2138.08
299.69	2283.49
299.90	2222.05
300.12	2220.00
300.33	2230.24
300.55	2285.53
300.76	2265.05
300.98	2109.41
301.19	2400.22
301.40	2191.33
301.62	2187.23
301.83	2349.02
302.05	2256.86
302.26	2154.46
302.47	2236.38
302.69	2119.65
302.90	2228.19
303.12	2064.35
303.33	2279.39
303.54	2480.09
303.76	2207.71
303.97	2172.89
304.19	2357.21
304.40	2125.79
304.61	2316.25
304.83	2359.26
305.04	2379.74
305.26	2295.77
305.47	2183.13
305.68	2265.05
305.90	2170.85
306.11	2367.45
306.33	2244.57
306.54	2105.31
306.75	2150.37
306.97	2166.75
307.18	2119.65
307.39	2160.61
307.61	2265.05
307.82	2189.28
308.04	2277.34
308.25	2156.51
308.46	2252.77
308.68	2220.00
308.89	2215.90
309.10	2324.44
309.32	2265.05
309.53	2310.11
309.74	2263.01
309.96	2187.23
310.17	2328.54
310.39	2203.61
310.60	2332.64
310.81	2252.77
311.03	2228.19
311.24	2301.92
311.45	2252.77
311.67	2449.37
311.88	2322.40
312.09	2226.14
312.31	2228.19
312.52	2228.19
312.73	2234.33
312.95	2133.98
313.16	2183.13
313.37	2346.97
313.59	2273.25
313.80	2316.25
314.01	2359.26
314.23	2138.08
314.44	2170.85
314.65	2146.27
314.87	2281.44
315.08	2187.23
315.29	2174.94
315.51	2199.52
315.72	2140.13
315.93	2449.37
316.15	2291.68
316.36	2166.75
316.57	2277.34
316.79	2275.29
317.00	2189.28
317.21	2349.02
317.43	2228.19
317.64	2258.91
317.85	2078.69
318.07	2228.19
318.28	2236.38
318.49	2430.94
318.70	2486.23
318.92	2334.68
319.13	2369.50
319.34	2435.03
319.56	2363.36
319.77	2383.84
319.98	2387.93
320.20	2355.16
320.41	2377.69
320.62	2273.25
320.83	2191.33
321.05	2432.99
321.26	2279.39
321.47	2316.25
321.69	2392.03
321.90	2154.46
322.11	2195.42
322.32	2275.29
322.54	2416.60
322.75	2174.94
322.96	2514.91
323.18	2131.94
323.39	2068.45
323.60	2176.99
323.81	2334.68
324.03	2172.89
324.24	2205.66
324.45	2242.53
324.66	2156.51
324.88	2426.84
325.09	2453.47
325.30	2244.57
325.52	2205.66
325.73	2297.82
325.94	2144.22
326.15	2107.36
326.37	2168.80
326.58	2281.44
326.79	2389.98
327.00	2187.23
327.22	2260.96
327.43	2162.66
327.64	2150.37
327.85	2320.35
328.07	2217.95
328.28	2445.27
328.49	2205.66
328.70	2195.42
328.92	2195.42
329.13	2230.24
329.34	2273.25
329.55	2365.40
329.76	2344.92
329.98	2215.90
330.19	2349.02
330.40	2281.44
330.61	2236.38
330.83	2338.78
331.04	2146.27
331.25	2267.10
331.46	2195.42
331.68	2172.89
331.89	2373.60
332.10	2185.18
332.31	2062.30
332.52	2220.00
332.74	2465.75
332.95	2103.26
333.16	2185.18
333.37	2389.98
333.58	2168.80
333.80	2310.11
334.01	2060.26
334.22	2269.15
334.43	2170.85
334.64	2140.13
334.86	2133.98
335.07	2154.46
335.28	2439.13
335.49	2152.42
335.70	2267.10
335.92	2418.65
336.13	2455.51
336.34	2318.30
336.55	2256.86
336.76	2228.19
336.98	2078.69
337.19	2170.85
337.40	2396.12
337.61	2568.15
337.82	2234.33
338.04	2297.82
338.25	2099.17
338.46	2250.72
338.67	2226.14
338.88	2160.61
339.09	2050.02
339.31	2240.48
339.52	2136.03
339.73	2195.42
339.94	2226.14
340.15	2281.44
340.36	2148.32
340.58	2265.05
340.79	2154.46
341.00	2342.88
341.21	2127.84
341.42	2496.47
341.63	2226.14
341.85	2342.88
342.06	2254.81
342.27	2203.61
342.48	2283.49
342.69	2125.79
342.90	2244.57
343.12	2338.78
343.33	2222.05
343.54	2363.36
343.75	2443.23
343.96	2205.66
344.17	2123.74
344.38	2324.44
344.60	2179.04
344.81	2105.31
345.02	2228.19
345.23	2324.44
345.44	2467.80
345.65	2363.36
345.86	2263.01
346.07	2267.10
346.29	2209.76
346.50	2367.45
346.71	2342.88
346.92	2338.78
347.13	2463.71
347.34	2220.00
347.55	2119.65
347.76	2314.20
347.98	2093.02
348.19	2256.86
348.40	2387.93
348.61	2230.24
348.82	2363.36
349.03	2281.44
349.24	2166.75
349.45	2392.03
349.66	2058.21
349.88	2164.70
350.09	2248.67
350.30	2389.98
350.51	2414.56
350.72	2252.77
350.93	2310.11
351.14	2222.05
351.35	2324.44
351.56	2185.18
351.77	2213.85
351.99	2326.49
352.20	2326.49
352.41	2373.60
352.62	2054.11
352.83	2260.96
353.04	2316.25
353.25	2185.18
353.46	2359.26
353.67	2385.88
353.88	2056.16
354.09	2242.53
354.30	2275.29
354.52	2301.92
354.73	2201.57
354.94	2179.04
355.15	2201.57
355.36	2414.56
355.57	2197.47
355.78	2238.43
355.99	2242.53
356.20	2232.29
356.41	2392.03
356.62	2383.84
356.83	2250.72
357.04	2365.40
357.25	1988.58
357.46	2252.77
357.68	2115.55
357.89	2191.33
358.10	2207.71
358.31	2191.33
358.52	2217.95
358.73	2172.89
358.94	2168.80
359.15	2136.03
359.36	2277.34
359.57	2303.96
359.78	2220.00
359.99	2336.73
360.20	2181.09
360.41	2246.62
360.62	2287.58
360.83	2207.71
361.04	2250.72
361.25	2250.72
361.46	2375.64
361.67	2363.36
361.88	2353.12
362.09	2346.97
362.30	2220.00
362.51	2138.08
362.72	2306.01
362.93	2332.64
363.14	2256.86
363.35	2252.77
363.56	2125.79
363.78	2351.07
363.99	2412.51
364.20	2107.36
364.41	2205.66
364.62	2492.38
364.83	2265.05
365.04	2197.47
365.25	2215.90
365.46	2478.04
365.67	2144.22
365.88	2236.38
366.09	2158.56
366.30	2174.94
366.51	2283.49
366.72	2205.66
366.93	2195.42
367.14	2260.96
367.35	2398.17
367.56	2183.13
367.77	2369.50
367.98	2277.34
368.18	2320.35
368.39	2301.92
368.60	2093.02
368.81	2299.87
369.02	2332.64
369.23	2176.99
369.44	2088.93
369.65	2201.57
369.86	2265.05
370.07	2338.78
370.28	2109.41
370.49	2342.88
370.70	2299.87
370.91	2217.95
371.12	2121.70
371.33	2328.54
371.54	2213.85
371.75	2387.93
371.96	2023.39
372.17	2293.72
372.38	2201.57
372.59	2246.62
372.80	2279.39
373.01	2363.36
373.22	2152.42
373.43	2215.90
373.64	2107.36
373.85	2310.11
374.06	2416.60
374.26	2299.87
374.47	2312.16
374.68	2428.89
374.89	2289.63
375.10	2289.63
375.31	2326.49
375.52	2295.77
375.73	2265.05
375.94	2127.84
376.15	2428.89
376.36	2162.66
376.57	2277.34
376.78	2174.94
376.99	2293.72
377.20	2367.45
377.40	2138.08
377.61	2379.74
377.82	2176.99
378.03	2351.07
378.24	2295.77
378.45	2142.18
378.66	2230.24
378.87	2090.98
379.08	2121.70
379.29	2213.85
379.50	2336.73
379.71	2340.83
379.91	2308.06
380.12	2191.33
380.33	2195.42
380.54	2271.20
380.75	2232.29
380.96	2162.66
381.17	2324.44
381.38	2301.92
381.59	2279.39
381.80	2207.71
382.00	2430.94
382.21	2306.01
382.42	2471.90
382.63	2473.95
382.84	2260.96
383.05	2346.97
383.26	2473.95
383.47	2310.11
383.68	2246.62
383.88	2254.81
384.09	2199.52
384.30	2471.90
384.51	2254.81
384.72	2211.81
384.93	2150.37
385.14	2240.48
385.35	2293.72
385.55	2109.41
385.76	2332.64
385.97	2240.48
386.18	2101.22
386.39	2185.18
386.60	2203.61
386.81	2209.76
387.02	2138.08
387.22	2183.13
387.43	2328.54
387.64	2314.20
387.85	2430.94
388.06	2455.51
388.27	3985.35
388.48	8112.00
388.68	11673.42
388.89	13891.37
389.10	15093.53
389.31	13655.86
389.52	10968.92
389.73	9459.57
389.93	8419.20
390.14	7958.41
390.35	7192.47
390.56	6313.89
390.77	5136.31
390.98	4046.79
391.18	3254.22
391.39	2811.86
391.60	2426.84
391.81	2490.33
392.02	2222.05
392.23	2432.99
392.43	2263.01
392.64	2400.22
392.85	2263.01
393.06	2447.32
393.27	2332.64
393.47	2093.02
393.68	2281.44
393.89	2252.77
394.10	2357.21
394.31	2242.53
394.52	2166.75
394.72	2217.95
394.93	2473.95
395.14	2164.70
395.35	2277.34
395.56	2160.61
395.76	2340.83
395.97	2228.19
396.18	2394.08
396.39	2414.56
396.60	2654.17
396.80	2498.52
397.01	2377.69
397.22	2387.93
397.43	2437.08
397.64	2244.57
397.84	2279.39
398.05	2521.05
398.26	2273.25
398.47	2324.44
398.67	2418.65
398.88	2215.90
399.09	2371.55
399.30	2201.57
399.51	2324.44
399.71	2213.85
399.92	2260.96
400.13	2242.53
400.34	2209.76
400.54	2308.06
400.75	2379.74
400.96	2275.29
401.17	2490.33
401.37	2281.44
401.58	2273.25
401.79	2199.52
402.00	2430.94
402.21	2627.54
402.41	2516.95
402.62	2605.02
402.83	2711.51
403.04	2742.23
403.24	2797.53
403.45	2449.37
403.66	2514.91
403.87	2437.08
404.07	2486.23
404.28	2523.10
404.49	2512.86
404.70	2314.20
404.90	2367.45
405.11	2338.78
405.32	2330.59
405.52	2207.71
405.73	2164.70
405.94	2121.70
406.15	2275.29
406.35	2328.54
406.56	2326.49
406.77	2252.77
406.98	2324.44
407.18	2176.99
407.39	2463.71
407.60	2174.94
407.80	2301.92
408.01	2228.19
408.22	2301.92
408.43	2158.56
408.63	2318.30
408.84	2342.88
409.05	2303.96
409.25	2160.61
409.46	2191.33
409.67	2195.42
409.88	2144.22
410.08	2277.34
410.29	2195.42
410.50	2367.45
410.70	2342.88
410.91	2121.70
411.12	2381.79
411.32	2265.05
411.53	2203.61
411.74	2383.84
411.95	2322.40
412.15	2330.59
412.36	2420.70
412.57	2353.12
412.77	2383.84
412.98	2236.38
413.19	2285.53
413.39	2318.30
413.60	2254.81
413.81	2322.40
414.01	2109.41
414.22	2283.49
414.43	2359.26
414.63	2283.49
414.84	2342.88
415.05	2310.11
415.25	2090.98
415.46	2322.40
415.67	2217.95
415.87	2195.42
416.08	2275.29
416.29	2285.53
416.49	2340.83
416.70	2234.33
416.91	2150.37
417.11	2195.42
417.32	2359.26
417.53	2357.21
417.73	2289.63
417.94	2258.91
418.15	2318.30
418.35	2242.53
418.56	2281.44
418.77	2490.33
418.97	2285.53
419.18	2211.81
419.38	2041.82
419.59	2215.90
419.80	2418.65
420.00	2236.38
420.21	2260.96
420.42	2447.32
420.62	2332.64
420.83	2117.60
421.04	2209.76
421.24	2295.77
421.45	2283.49
421.65	2273.25
421.86	2217.95
422.07	2342.88
422.27	2342.88
422.48	2224.09
422.69	2138.08
422.89	2220.00
423.10	2230.24
423.30	2170.85
423.51	2236.38
423.72	2260.96
423.92	2265.05
424.13	2146.27
424.33	2293.72
424.54	2310.11
424.75	2252.77
424.95	2408.41
425.16	2289.63
425.36	2303.96
425.57	2340.83
425.78	2318.30
425.98	2275.29
426.19	2181.09
426.39	2215.90
426.60	2267.10
426.81	2385.88
427.01	2275.29
427.22	2207.71
427.42	2078.69
427.63	2168.80
427.83	2340.83
428.04	2490.33
428.25	2332.64
428.45	2287.58
428.66	2340.83
428.86	2281.44
429.07	2203.61
429.28	2254.81
429.48	2340.83
429.69	2176.99
429.89	2285.53
430.10	2187.23
430.30	2285.53
430.51	2400.22
430.71	2152.42
430.92	2191.33
431.13	2207.71
431.33	2312.16
431.54	2293.72
431.74	2359.26
431.95	2545.63
432.15	2148.32
432.36	2215.90
432.56	2303.96
432.77	2531.29
432.98	2435.03
433.18	2285.53
433.39	2209.76
433.59	2293.72
433.80	2410.46
434.00	2469.85
434.21	2244.57
434.41	2185.18
434.62	2539.48
434.82	2125.79
435.03	2248.67
435.23	2209.76
435.44	2111.46
435.64	2299.87
435.85	2291.68
436.06	2318.30
436.26	2355.16
436.47	2291.68
436.67	2160.61
436.88	2181.09
437.08	2344.92
437.29	2389.98
437.49	2285.53
437.70	2363.36
437.90	2308.06
438.11	2465.75
438.31	2324.44
438.52	2457.56
438.72	2449.37
438.93	2564.06
439.13	2402.27
439.34	2494.43
439.54	2228.19
439.75	2439.13
439.95	2349.02
440.16	2236.38
440.36	2220.00
440.57	2332.64
440.77	2279.39
440.98	2283.49
441.18	2328.54
441.39	2232.29
441.59	2154.46
441.80	2461.66
442.00	2246.62
442.21	2375.64
442.41	2187.23
442.62	2342.88
442.82	2125.79
443.02	2318.30
443.23	2289.63
443.43	2162.66
443.64	2428.89
443.84	2179.04
444.05	2330.59
444.25	2211.81
444.46	2240.48
444.66	2226.14
444.87	2496.47
445.07	2160.61
445.28	2224.09
445.48	2381.79
445.69	2289.63
445.89	2453.47
446.09	2306.01
446.30	2535.39
446.50	2783.19
446.71	4472.76
446.91	5506.99
447.12	6248.35
447.32	6746.01
447.53	6133.67
447.73	5148.59
447.93	4470.72
448.14	4216.77
448.34	4054.98
448.55	3579.85
448.75	3506.12
448.96	3495.88
449.16	3176.40
449.36	2822.10
449.57	2549.72
449.77	2408.41
449.98	2217.95
450.18	2346.97
450.39	2404.32
450.59	2328.54
450.79	2289.63
451.00	2279.39
451.20	2400.22
451.41	2263.01
451.61	2283.49
451.81	2252.77
452.02	2220.00
452.22	2197.47
452.43	2250.72
452.63	2176.99
452.84	2293.72
453.04	2203.61
453.24	2283.49
453.45	2187.23
453.65	2277.34
453.86	2310.11
454.06	2269.15
454.26	2279.39
454.47	2138.08
454.67	2437.08
454.87	2308.06
455.08	2248.67
455.28	2506.71
455.49	2244.57
455.69	2228.19
455.89	2523.10
456.10	2299.87
456.30	2269.15
456.51	2326.49
456.71	2322.40
456.91	2293.72
457.12	2246.62
457.32	2308.06
457.52	2168.80
457.73	2357.21
457.93	2330.59
458.14	2242.53
458.34	2150.37
458.54	2193.37
458.75	2183.13
458.95	2439.13
459.15	2297.82
459.36	2209.76
459.56	2269.15
459.76	2486.23
459.97	2199.52
460.17	2211.81
460.37	2303.96
460.58	2355.16
460.78	2256.86
460.99	2195.42
461.19	2236.38
461.39	2250.72
461.60	2295.77
461.80	2392.03
462.00	2142.18
462.21	2275.29
462.41	2230.24
462.61	2201.57
462.82	2127.84
463.02	2281.44
463.22	2258.91
463.43	2377.69
463.63	2236.38
463.83	2394.08
464.04	2299.87
464.24	2232.29
464.44	2150.37
464.64	2277.34
464.85	2392.03
465.05	2318.30
465.25	2281.44
465.46	2224.09
465.66	2396.12
465.86	2328.54
466.07	2226.14
466.27	2252.77
466.47	2181.09
466.68	2113.50
466.88	2359.26
467.08	2344.92
467.29	2322.40
467.49	2367.45
467.69	2306.01
467.89	2334.68
468.10	2236.38
468.30	2334.68
468.50	2394.08
468.71	2408.41
468.91	2125.79
469.11	2467.80
469.31	2289.63
469.52	2168.80
469.72	2475.99
469.92	2355.16
470.13	2211.81
470.33	2240.48
470.53	2342.88
470.73	2621.40
470.94	2947.03
471.14	3203.02
471.34	3489.74
471.54	3405.77
471.75	3153.87
471.95	2791.38
472.15	2719.70
472.36	2740.18
472.56	2734.04
472.76	2752.47
472.96	2627.54
473.17	2514.91
473.37	2443.23
473.57	2283.49
473.77	2428.89
473.98	2342.88
474.18	2146.27
474.38	2586.58
474.58	2293.72
474.79	2160.61
474.99	2336.73
475.19	2355.16
475.39	2174.94
475.60	2346.97
475.80	2316.25
476.00	2301.92
476.20	2176.99
476.41	2267.10
476.61	2353.12
476.81	2422.75
477.01	2162.66
477.21	2420.70
477.42	2342.88
477.62	2193.37
477.82	2367.45
478.02	2222.05
478.23	2289.63
478.43	2185.18
478.63	2146.27
478.83	2275.29
479.03	2189.28
479.24	2379.74
479.44	2500.57
479.64	2211.81
479.84	2174.94
480.04	2193.37
480.25	2312.16
480.45	2226.14
480.65	2191.33
480.85	2461.66
481.06	2203.61
481.26	2252.77
481.46	2332.64
481.66	2318.30
481.86	2170.85
482.06	2371.55
482.27	2236.38
482.47	2250.72
482.67	2228.19
482.87	2209.76
483.07	2295.77
483.28	2258.91
483.48	2154.46
483.68	2252.77
483.88	2172.89
484.08	2119.65
484.29	2166.75
484.49	2228.19
484.69	2160.61
484.89	2369.50
485.09	2342.88
485.29	2371.55
485.50	2297.82
485.70	2326.49
485.90	2359.26
486.10	2230.24
486.30	2310.11
486.50	2418.65
486.71	2267.10
486.91	2457.56
487.11	2367.45
487.31	2179.04
487.51	2310.11
487.71	2129.89
487.91	2160.61
488.12	2144.22
488.32	2025.44
488.52	2236.38
488.72	2097.12
488.92	2357.21
489.12	2318.30
489.32	2299.87
489.53	2324.44
489.73	2154.46
489.93	2455.51
490.13	2203.61
490.33	2144.22
490.53	2326.49
490.73	2357.21
490.94	2138.08
491.14	2269.15
491.34	2365.40
491.54	2498.52
491.74	3186.64
491.94	3729.35
492.14	4014.02
492.34	4087.75
492.54	3710.92
492.75	3186.64
492.95	3272.65
493.15	2918.36
493.35	2973.65
493.55	2883.54
493.75	2734.04
493.95	2826.20
494.15	2629.59
494.35	2453.47
494.56	2336.73
494.76	2318.30
494.96	2297.82
495.16	2279.39
495.36	2228.19
495.56	2281.44
495.76	2224.09
495.96	2199.52
496.16	2250.72
496.36	2455.51
496.56	2183.13
496.77	2334.68
496.97	2299.87
497.17	2406.36
497.37	2187.23
497.57	2346.97
497.77	2260.96
497.97	2252.77
498.17	2281.44
498.37	2277.34
498.57	2267.10
498.77	2193.37
498.97	2379.74
499.17	2414.56
499.38	2201.57
499.58	2375.64
499.78	2410.46
499.98	2379.74
500.18	2154.46
500.38	2117.60
500.58	2465.75
500.78	2910.16
500.98	5169.07
501.18	7094.16
501.38	8722.30
501.58	9666.41
501.78	9492.34
501.98	7694.22
502.18	6406.05
502.38	5449.64
502.58	5181.36
502.78	4601.79
502.98	4448.19
503.18	4149.18
503.38	3848.13
503.59	3391.44
503.79	3182.54
503.99	3012.56
504.19	2836.44
504.39	2754.52
504.59	2848.72
504.79	2803.67
504.99	2826.20
505.19	2490.33
505.39	2539.48
505.59	2607.06
505.79	2566.10
505.99	2361.31
506.19	2375.64
506.39	2537.43
506.59	2201.57
506.79	2254.81
506.99	2435.03
507.19	2289.63
507.39	2269.15
507.59	2109.41
507.79	2207.71
507.99	2162.66
508.19	2246.62
508.39	2222.05
508.59	2260.96
508.79	2387.93
508.99	2555.86
509.19	2197.47
509.39	2308.06
509.59	2195.42
509.79	2142.18
509.99	2324.44
510.19	2326.49
510.39	2351.07
510.59	2314.20
510.79	2265.05
510.99	2136.03
511.19	2363.36
511.39	2410.46
511.59	2332.64
511.79	2340.83
511.99	2269.15
512.19	2379.74
512.38	2324.44
512.58	2179.04
512.78	2260.96
512.98	2369.50
513.18	2482.14
513.38	2146.27
513.58	2330.59
513.78	2215.90
513.98	2209.76
514.18	2256.86
514.38	2224.09
514.58	2238.43
514.78	2213.85
514.98	2146.27
515.18	2275.29
515.38	2136.03
515.58	2512.86
515.78	2238.43
515.98	2283.49
516.18	2293.72
516.38	2263.01
516.57	2242.53
516.77	2226.14
516.97	2375.64
517.17	2250.72
517.37	2072.54
517.57	2332.64
517.77	2273.25
517.97	2160.61
518.17	2293.72
518.37	2199.52
518.57	2170.85
518.77	2185.18
518.97	2289.63
519.16	2185.18
519.36	2357.21
519.56	2191.33
519.76	2289.63
519.96	2318.30
520.16	2392.03
520.36	2236.38
520.56	2383.84
520.76	2209.76
520.96	2248.67
521.16	2389.98
521.35	2369.50
521.55	2398.17
521.75	2314.20
521.95	2201.57
522.15	2316.25
522.35	2148.32
522.55	2265.05
522.75	2377.69
522.95	2199.52
523.14	2226.14
523.34	2291.68
523.54	2234.33
523.74	2312.16
523.94	2326.49
524.14	2103.26
524.34	2387.93
524.54	2414.56
524.73	2127.84
524.93	2414.56
525.13	2312.16
525.33	2123.74
525.53	2469.85
525.73	2363.36
525.93	2301.92
526.13	2181.09
526.32	2230.24
526.52	2416.60
526.72	2400.22
526.92	2308.06
527.12	2242.53
527.32	2205.66
527.52	2344.92
527.71	2277.34
527.91	2244.57
528.11	2220.00
528.31	2285.53
528.51	2174.94
528.71	2283.49
528.90	2318.30
529.10	2398.17
529.30	2408.41
529.50	2047.97
529.70	2252.77
529.90	2248.67
530.09	2258.91
530.29	2183.13
530.49	2199.52
530.69	2514.91
530.89	2312.16
531.09	2326.49
531.28	2187.23
531.48	2334.68
531.68	2242.53
531.88	2203.61
532.08	2365.40
532.28	2226.14
532.47	2301.92
532.67	2371.55
532.87	2316.25
533.07	2170.85
533.27	2349.02
533.46	2355.16
533.66	2293.72
533.86	2213.85
534.06	2283.49
534.26	2316.25
534.45	2283.49
534.65	2408.41
534.85	2359.26
535.05	2191.33
535.25	2398.17
535.44	2035.68
535.64	2291.68
535.84	2283.49
536.04	2179.04
536.24	2220.00
536.43	2176.99
536.63	2281.44
536.83	2279.39
537.03	2281.44
537.22	2060.26
537.42	2138.08
537.62	2299.87
537.82	2256.86
538.02	2332.64
538.21	2338.78
538.41	2547.67
538.61	2322.40
538.81	2244.57
539.00	2379.74
539.20	2093.02
539.40	2242.53
539.60	2260.96
539.79	2332.64
539.99	2275.29
540.19	2250.72
540.39	2220.00
540.58	2326.49
540.78	2506.71
540.98	2260.96
541.18	2398.17
541.37	2353.12
541.57	2273.25
541.77	2279.39
541.97	2144.22
542.16	2121.70
542.36	2197.47
542.56	2195.42
542.76	2402.27
542.95	2342.88
543.15	2351.07
543.35	2301.92
543.54	2195.42
543.74	2213.85
543.94	2432.99
544.14	2236.38
544.33	2334.68
544.53	2222.05
544.73	2168.80
544.93	2203.61
545.12	2269.15
545.32	2226.14
545.52	2236.38
545.71	2220.00
545.91	2238.43
546.11	2195.42
546.30	2207.71
546.50	2246.62
546.70	2289.63
546.90	2256.86
547.09	2127.84
547.29	2240.48
547.49	2346.97
547.68	2185.18
547.88	2179.04
548.08	2220.00
548.27	2736.09
548.47	2228.19
548.67	2209.76
548.87	2310.11
549.06	2211.81
549.26	2303.96
549.46	2287.58
549.65	2193.37
549.85	2291.68
550.05	2217.95
550.24	2181.09
550.44	2244.57
550.64	2244.57
550.83	2271.20
551.03	2404.32
551.23	2387.93
551.42	2334.68
551.62	2250.72
551.82	2236.38
552.01	2191.33
552.21	2392.03
552.41	2336.73
552.60	2416.60
552.80	2392.03
553.00	2113.50
553.19	2246.62
553.39	2408.41
553.59	2138.08
553.78	2334.68
553.98	2281.44
554.17	2142.18
554.37	2314.20
554.57	2371.55
554.76	2144.22
554.96	2193.37
555.16	2240.48
555.35	2293.72
555.55	2242.53
555.75	2373.60
555.94	2392.03
556.14	2133.98
556.33	2230.24
556.53	2213.85
556.73	2271.20
556.92	2365.40
557.12	2342.88
557.32	2471.90
557.51	2473.95
557.71	2312.16
557.90	2416.60
558.10	2428.89
558.30	2271.20
558.49	2283.49
558.69	2242.53
558.88	2316.25
559.08	2283.49
559.28	2226.14
559.47	2273.25
559.67	2310.11
559.86	2516.95
560.06	2267.10
560.26	2238.43
560.45	2332.64
560.65	2260.96
560.84	2293.72
561.04	2217.95
561.24	2299.87
561.43	2125.79
561.63	2406.36
561.82	2299.87
562.02	2373.60
562.22	2215.90
562.41	2142.18
562.61	2189.28
562.80	2224.09
563.00	2525.15
563.19	2310.11
563.39	2258.91
563.59	2297.82
563.78	2179.04
563.98	2148.32
564.17	2133.98
564.37	2097.12
564.56	2277.34
564.76	2109.41
564.96	2346.97
565.15	2353.12
565.35	2537.43
565.54	2226.14
565.74	2365.40
565.93	2375.64
566.13	2260.96
566.32	2293.72
566.52	2244.57
566.71	2289.63
566.91	2281.44
567.11	2260.96
567.30	2119.65
567.50	2418.65
567.69	2334.68
567.89	2232.29
568.08	2242.53
568.28	2222.05
568.47	2209.76
568.67	2207.71
568.86	2217.95
569.06	2308.06
569.25	2215.90
569.45	2164.70
569.64	2203.61
569.84	2252.77
570.04	2295.77
570.23	2234.33
570.43	2215.90
570.62	2379.74
570.82	2412.51
571.01	2166.75
571.21	2213.85
571.40	2127.84
571.60	2346.97
571.79	2314.20
571.99	2273.25
572.18	2220.00
572.38	2285.53
572.57	2267.10
572.77	2324.44
572.96	2473.95
573.16	2332.64
573.35	2281.44
573.55	2471.90
573.74	2373.60
573.94	2228.19
574.13	2250.72
574.33	2353.12
574.52	2396.12
574.71	2301.92
574.91	2324.44
575.10	2138.08
575.30	2293.72
575.49	2195.42
575.69	2201.57
575.88	2297.82
576.08	2293.72
576.27	2412.51
576.47	2281.44
576.66	2461.66
576.86	2353.12
577.05	2277.34
577.25	2389.98
577.44	2459.61
577.64	2299.87
577.83	2324.44
578.02	2228.19
578.22	2459.61
578.41	2498.52
578.61	2287.58
578.80	2201.57
579.00	2275.29
579.19	2301.92
579.39	2387.93
579.58	2371.55
579.77	2238.43
579.97	2461.66
580.16	2492.38
580.36	2441.18
580.55	2385.88
580.75	2447.32
580.94	2263.01
581.13	2398.17
581.33	2463.71
581.52	2269.15
581.72	2541.53
581.91	2424.80
582.11	2332.64
582.30	2320.35
582.49	2279.39
582.69	2437.08
582.88	2371.55
583.08	2250.72
583.27	2416.60
583.47	2299.87
583.66	2220.00
583.85	2256.86
584.05	2287.58
584.24	2367.45
584.44	2277.34
584.63	2465.75
584.82	2467.80
585.02	2439.13
585.21	2519.00
585.41	2430.94
585.60	2455.51
585.79	2543.58
585.99	2527.19
586.18	2408.41
586.37	2926.55
586.57	4550.59
586.76	13608.75
586.96	32996.87
587.15	46531.90
587.34	55758.00
587.54	60916.83
587.73	55817.39
587.93	39597.48
588.12	30039.61
588.31	23932.56
588.51	20707.01
588.70	19384.02
588.89	17360.63
589.09	15015.71
589.28	12945.21
589.47	10420.06
589.67	8339.33
589.86	6356.90
590.06	4548.54
590.25	3776.45
590.44	3194.83
590.64	2775.00
590.83	2639.83
591.02	2545.63
591.22	2383.84
591.41	2422.75
591.60	2310.11
591.80	2543.58
591.99	2195.42
592.18	2398.17
592.38	2430.94
592.57	2258.91
592.76	2275.29
592.96	2320.35
593.15	2314.20
593.34	2408.41
593.54	2338.78
593.73	2334.68
593.92	2342.88
594.12	2371.55
594.31	2392.03
594.50	2422.75
594.70	2299.87
594.89	2686.94
595.08	2179.04
595.28	2258.91
595.47	2662.36
595.66	2346.97
595.86	2117.60
596.05	2265.05
596.24	2293.72
596.43	2549.72
596.63	2443.23
596.82	2324.44
597.01	2336.73
597.21	2473.95
597.40	2277.34
597.59	2299.87
597.79	2334.68
597.98	2310.11
598.17	2291.68
598.36	2324.44
598.56	2301.92
598.75	2224.09
598.94	2351.07
599.14	2265.05
599.33	2232.29
599.52	2377.69
599.71	2334.68
599.91	2373.60
600.10	2306.01
600.29	2291.68
600.48	2336.73
600.68	2295.77
600.87	2285.53
601.06	2265.05
601.26	2287.58
601.45	2273.25
601.64	2207.71
601.83	2383.84
602.03	2267.10
602.22	2133.98
602.41	2473.95
602.60	2496.47
602.80	2432.99
602.99	2326.49
603.18	2217.95
603.37	2291.68
603.57	2340.83
603.76	2340.83
603.95	2363.36
604.14	2252.77
604.34	2179.04
604.53	2269.15
604.72	2379.74
604.91	2324.44
605.10	2310.11
605.30	2123.74
605.49	2482.14
605.68	2318.30
605.87	2344.92
606.07	2176.99
606.26	2318.30
606.45	2322.40
606.64	2260.96
606.84	2252.77
607.03	2318.30
607.22	2357.21
607.41	2283.49
607.60	2228.19
607.80	2351.07
607.99	2316.25
608.18	2254.81
608.37	2289.63
608.56	2187.23
608.76	2402.27
608.95	2416.60
609.14	2349.02
609.33	2430.94
609.52	2449.37
609.72	2408.41
609.91	2349.02
610.10	2291.68
610.29	2426.84
610.48	2351.07
610.68	2316.25
610.87	2183.13
611.06	2375.64
611.25	2256.86
611.44	2392.03
611.63	2242.53
611.83	2363.36
612.02	2127.84
612.21	2265.05
612.40	2086.88
612.59	2215.90
612.79	2193.37
612.98	2263.01
613.17	2439.13
613.36	2234.33
613.55	2373.60
613.74	2367.45
613.93	2432.99
614.13	2457.56
614.32	2441.18
614.51	2498.52
614.70	2392.03
614.89	2349.02
615.08	2426.84
615.28	2762.71
615.47	2250.72
615.66	2301.92
615.85	2346.97
616.04	2498.52
616.23	2338.78
616.42	2330.59
616.62	2322.40
616.81	2357.21
617.00	2252.77
617.19	2346.97
617.38	2213.85
617.57	2377.69
617.76	2381.79
617.95	2396.12
618.15	2349.02
618.34	2375.64
618.53	2168.80
618.72	2488.28
618.91	2383.84
619.10	2420.70
619.29	2277.34
619.48	2230.24
619.68	2172.89
619.87	2230.24
620.06	2166.75
620.25	2277.34
620.44	2209.76
620.63	2260.96
620.82	2209.76
621.01	2349.02
621.20	2265.05
621.39	2338.78
621.59	2338.78
621.78	2314.20
621.97	2226.14
622.16	2269.15
622.35	2377.69
622.54	2320.35
622.73	2318.30
622.92	2152.42
623.11	2408.41
623.30	2258.91
623.49	2377.69
623.68	2226.14
623.88	2408.41
624.07	2217.95
624.26	2209.76
624.45	2258.91
624.64	2146.27
624.83	2267.10
625.02	2205.66
625.21	2234.33
625.40	2273.25
625.59	2389.98
625.78	2240.48
625.97	2320.35
626.16	2570.20
626.35	2449.37
626.54	2285.53
626.74	2420.70
626.93	2232.29
627.12	2273.25
627.31	2412.51
627.50	2332.64
627.69	2394.08
627.88	2146.27
628.07	2195.42
628.26	2097.12
628.45	2211.81
628.64	2150.37
628.83	2211.81
629.02	2191.33
629.21	2342.88
629.40	2281.44
629.59	2222.05
629.78	2297.82
629.97	2295.77
630.16	2232.29
630.35	2238.43
630.54	2285.53
630.73	2281.44
630.92	2295.77
631.11	2160.61
631.30	2193.37
631.49	2340.83
631.68	2279.39
631.87	2289.63
632.06	2181.09
632.25	2508.76
632.44	2301.92
632.63	2334.68
632.82	2279.39
633.01	2224.09
633.20	2355.16
633.39	2332.64
633.58	2195.42
633.77	2299.87
633.96	2385.88
634.15	2342.88
634.34	2389.98
634.53	2369.50
634.72	2256.86
634.91	2105.31
635.10	2256.86
635.29	2297.82
635.48	2269.15
635.67	2193.37
635.86	2105.31
636.05	2367.45
636.24	2226.14
636.43	2269.15
636.62	2269.15
636.81	2095.07
637.00	2316.25
637.19	2285.53
637.38	2244.57
637.57	2244.57
637.76	2303.96
637.95	2437.08
638.14	2351.07
638.33	2256.86
638.52	2279.39
638.71	2277.34
638.89	2211.81
639.08	2502.62
639.27	2451.42
639.46	2576.34
639.65	2854.87
639.84	2772.95
640.03	2973.65
640.22	2850.77
640.41	2889.68
640.60	2519.00
640.79	2527.19
640.98	2494.43
641.17	2519.00
641.36	2521.05
641.55	2455.51
641.74	2236.38
641.92	2254.81
642.11	2252.77
642.30	2291.68
642.49	2269.15
642.68	2271.20
642.87	2285.53
643.06	2306.01
643.25	2176.99
643.44	2181.09
643.63	2285.53
643.82	2324.44
644.00	2142.18
644.19	2183.13
644.38	2201.57
644.57	2293.72
644.76	2252.77
644.95	2244.57
645.14	2246.62
645.33	2224.09
645.52	2267.10
645.71	2097.12
645.89	2179.04
646.08	2224.09
646.27	2232.29
646.46	2451.42
646.65	2093.02
646.84	2293.72
647.03	2136.03
647.22	2303.96
647.40	2314.20
647.59	2191.33
647.78	2127.84
647.97	2076.64
648.16	2205.66
648.35	2451.42
648.54	2355.16
648.73	2211.81
648.91	2357.21
649.10	2228.19
649.29	2187.23
649.48	2267.10
649.67	2342.88
649.86	2303.96
650.05	2275.29
650.23	2465.75
650.42	2365.40
650.61	2537.43
650.80	2392.03
650.99	2488.28
651.18	2404.32
651.36	2396.12
651.55	2246.62
651.74	2295.77
651.93	2220.00
652.12	2242.53
652.31	2222.05
652.49	2217.95
652.68	2170.85
652.87	2408.41
653.06	2301.92
653.25	2392.03
653.44	2291.68
653.62	2461.66
653.81	2293.72
654.00	2344.92
654.19	2359.26
654.38	2549.72
654.56	2328.54
654.75	2244.57
654.94	2361.31
655.13	2299.87
655.32	2326.49
655.51	2297.82
655.69	2211.81
655.88	2367.45
656.07	2152.42
656.26	2265.05
656.45	2220.00
656.63	2314.20
656.82	2232.29
657.01	2318.30
657.20	2258.91
657.38	2359.26
657.57	2228.19
657.76	2117.60
657.95	2289.63
658.14	2176.99
658.32	2207.71
658.51	2191.33
658.70	2279.39
658.89	2246.62
659.08	2291.68
659.26	2482.14
659.45	2179.04
659.64	2375.64
659.83	2299.87
660.01	2531.29
660.20	2326.49
660.39	2435.03
660.58	2068.45
660.76	2375.64
660.95	2129.89
661.14	2301.92
661.33	2144.22
661.51	2199.52
661.70	2236.38
661.89	2269.15
662.08	2267.10
662.26	2109.41
662.45	2162.66
662.64	2467.80
662.83	2318.30
663.01	2146.27
663.20	2240.48
663.39	2383.84
663.58	2191.33
663.76	2174.94
663.95	2346.97
664.14	2170.85
664.32	2121.70
664.51	2181.09
664.70	2068.45
664.89	2353.12
665.07	2185.18
665.26	2353.12
665.45	2127.84
665.64	2426.84
665.82	2320.35
666.01	2289.63
666.20	2158.56
666.38	2340.83
666.57	2416.60
666.76	3403.72
666.95	8243.07
667.13	16273.16
667.32	21266.11
667.51	24841.86
667.69	26654.31
667.88	24145.55
668.07	17424.12
668.25	13840.17
668.44	11405.14
668.63	9883.50
668.81	8875.90
669.00	7704.46
669.19	6872.98
669.38	6125.47
669.56	5185.46
669.75	4315.07
669.94	3696.58
670.12	3162.06
670.31	2738.13
670.50	2641.88
670.68	2531.29
670.87	2377.69
671.06	2293.72
671.24	2365.40
671.43	2449.37
671.62	2293.72
671.80	2279.39
671.99	2381.79
672.18	2326.49
672.36	2351.07
672.55	2314.20
672.74	2287.58
672.92	2295.77
673.11	2385.88
673.29	2172.89
673.48	2379.74
673.67	2250.72
673.85	2289.63
674.04	2127.84
674.23	2283.49
674.41	2420.70
674.60	2189.28
674.79	2095.07
674.97	2172.89
675.16	2381.79
675.34	2353.12
675.53	2222.05
675.72	2332.64
675.90	2469.85
676.09	2176.99
676.28	2240.48
676.46	2156.51
676.65	2353.12
676.83	2168.80
677.02	2357.21
677.21	2248.67
677.39	2250.72
677.58	2154.46
677.77	2217.95
677.95	2242.53
678.14	2222.05
678.32	2258.91
678.51	2222.05
678.70	2416.60
678.88	2179.04
679.07	2240.48
679.25	2269.15
679.44	2236.38
679.63	2121.70
679.81	2258.91
680.00	2400.22
680.18	2316.25
680.37	2459.61
680.55	2349.02
680.74	2146.27
680.93	2090.98
681.11	2254.81
681.30	2342.88
681.48	2306.01
681.67	2252.77
681.85	2265.05
682.04	2138.08
682.23	2334.68
682.41	2277.34
682.60	2195.42
682.78	2252.77
682.97	2213.85
683.15	2248.67
683.34	2324.44
683.53	2328.54
683.71	2146.27
683.90	2473.95
684.08	2402.27
684.27	2260.96
684.45	2289.63
684.64	2420.70
684.82	2267.10
685.01	2353.12
685.19	2185.18
685.38	2428.89
685.57	2281.44
685.75	2209.76
685.94	2215.90
686.12	2179.04
686.31	2193.37
686.49	2461.66
686.68	2062.30
686.86	2240.48
687.05	2234.33
687.23	2404.32
687.42	2203.61
687.60	2107.36
687.79	2363.36
687.97	2365.40
688.16	2346.97
688.34	2367.45
688.53	2121.70
688.71	2346.97
688.90	2381.79
689.08	2244.57
689.27	2074.59
689.45	2308.06
689.64	2363.36
689.82	2236.38
690.01	2293.72
690.19	2293.72
690.38	2310.11
690.56	2367.45
690.75	2181.09
690.93	2195.42
691.12	2170.85
691.30	2281.44
691.49	2222.05
691.67	2256.86
691.86	2430.94
692.04	2187.23
692.23	2248.67
692.41	2226.14
692.60	2488.28
692.78	2373.60
692.97	2342.88
693.15	2379.74
693.34	2478.04
693.52	2412.51
693.71	2228.19
693.89	2193.37
694.08	2054.11
694.26	2279.39
694.44	2373.60
694.63	2342.88
694.81	2160.61
695.00	2240.48
695.18	2340.83
695.37	2555.86
695.55	2224.09
695.74	2142.18
695.92	2265.05
696.10	2367.45
696.29	2150.37
696.47	2191.33
696.66	2080.74
696.84	2176.99
697.03	2342.88
697.21	2482.14
697.40	3284.94
697.58	2314.20
697.76	2232.29
697.95	2199.52
698.13	2170.85
698.32	2203.61
698.50	2248.67
698.68	2301.92
698.87	2291.68
699.05	2447.32
699.24	2301.92
699.42	2162.66
699.61	2252.77
699.79	2246.62
699.97	2162.66
700.16	2164.70
700.34	2170.85
700.53	2244.57
700.71	2512.86
700.89	2291.68
701.08	2224.09
701.26	2228.19
701.45	2826.20
701.63	2181.09
701.81	2248.67
702.00	2199.52
702.18	2191.33
702.37	2275.29
702.55	2494.43
702.73	2445.27
702.92	2443.23
703.10	2471.90
703.28	2541.53
703.47	2275.29
703.65	2482.14
703.84	2480.09
704.02	2193.37
704.20	2441.18
704.39	2226.14
704.57	2244.57
704.75	2334.68
704.94	2349.02
705.12	2330.59
705.30	2461.66
705.49	4440.00
705.67	10399.59
705.86	18183.91
706.04	21954.22
706.22	25087.62
706.41	25804.41
706.59	21667.51
706.77	15593.23
706.96	13080.38
707.14	11462.48
707.32	9723.76
707.51	8695.68
707.69	7427.98
707.87	5861.29
708.06	4732.86
708.24	3993.54
708.42	3205.07
708.61	3030.99
708.79	2453.47
708.97	2475.99
709.16	2414.56
709.34	2443.23
709.52	2334.68
709.71	2236.38
709.89	2408.41
710.07	2160.61
710.26	2273.25
710.44	2301.92
710.62	2404.32
710.80	2275.29
710.99	2367.45
711.17	2373.60
711.35	2267.10
711.54	2187.23
711.72	2361.31
711.90	2338.78
712.09	2258.91
712.27	2209.76
712.45	2238.43
712.63	2207.71
712.82	2316.25
713.00	2254.81
713.18	2303.96
713.37	2306.01
713.55	2310.11
713.73	2361.31
713.91	2306.01
714.10	2185.18
714.28	2256.86
714.46	2330.59
714.65	2342.88
714.83	2222.05
715.01	2373.60
715.19	2355.16
715.38	2179.04
715.56	2299.87
715.74	2224.09
715.92	2195.42
716.11	2428.89
716.29	2142.18
716.47	2285.53
716.65	2238.43
716.84	2176.99
717.02	2318.30
717.20	2086.88
717.38	2228.19
717.57	2269.15
717.75	2308.06
717.93	2183.13
718.11	2293.72
718.30	2162.66
718.48	2193.37
718.66	2365.40
718.84	2344.92
719.03	2283.49
719.21	2117.60
719.39	2447.32
719.57	2293.72
719.75	2432.99
719.94	2121.70
720.12	2238.43
720.30	2252.77
720.48	2330.59
720.67	2174.94
720.85	2131.94
721.03	2269.15
721.21	2203.61
721.39	2344.92
721.58	2353.12
721.76	2297.82
721.94	2334.68
722.12	2277.34
722.30	2441.18
722.49	2220.00
722.67	2217.95
722.85	2295.77
723.03	2105.31
723.21	2209.76
723.40	2285.53
723.58	2435.03
723.76	2287.58
723.94	2344.92
724.12	2324.44
724.30	2449.37
724.49	2432.99
724.67	2119.65
724.85	2420.70
725.03	2215.90
725.21	2328.54
725.40	2416.60
725.58	2195.42
725.76	2336.73
725.94	2334.68
726.12	2205.66
726.30	2293.72
726.49	2306.01
726.67	2230.24
726.85	2428.89
727.03	2662.36
727.21	3663.82
727.39	5064.63
727.57	5922.73
727.76	6385.57
727.94	6743.96
728.12	6328.22
728.30	5324.72
728.48	4435.90
728.66	4175.81
728.84	3751.88
729.03	3252.17
729.21	2981.84
729.39	2693.08
729.57	2392.03
729.75	2486.23
729.93	2387.93
730.11	2183.13
730.30	2215.90
730.48	2314.20
730.66	2340.83
730.84	2287.58
731.02	2287.58
731.20	2238.43
731.38	2265.05
731.56	2172.89
731.74	2052.06
731.93	2189.28
732.11	2269.15
732.29	2144.22
732.47	2326.49
732.65	2353.12
732.83	2351.07
733.01	2310.11
733.19	2154.46
733.37	2342.88
733.56	2273.25
733.74	2179.04
733.92	2369.50
734.10	2174.94
734.28	2289.63
734.46	2185.18
734.64	2187.23
734.82	2242.53
735.00	2113.50
735.18	2193.37
735.36	2351.07
735.54	2295.77
735.73	2256.86
735.91	2338.78
736.09	2322.40
736.27	2228.19
736.45	2299.87
736.63	2052.06
736.81	2226.14
736.99	2367.45
737.17	2455.51
737.35	2144.22
737.53	2285.53
737.71	2209.76
737.89	2430.94
738.07	2170.85
738.25	2215.90
738.43	2084.83
738.61	2179.04
738.80	2168.80
738.98	2164.70
739.16	2234.33
739.34	2138.08
739.52	2381.79
739.70	2226.14
739.88	2220.00
740.06	2310.11
740.24	2103.26
740.42	2406.36
740.60	2136.03
740.78	2197.47
740.96	2068.45
741.14	2252.77
741.32	2334.68
741.50	2133.98
741.68	2457.56
741.86	2400.22
742.04	2142.18
742.22	2236.38
742.40	2228.19
742.58	2269.15
742.76	2183.13
742.94	2328.54
743.12	2119.65
743.30	2144.22
743.48	2289.63
743.66	2201.57
743.84	2301.92
744.02	2275.29
744.20	2195.42
744.38	2136.03
744.56	2191.33
744.74	2392.03
744.92	2346.97
745.10	2383.84
745.28	2246.62
745.46	2416.60
745.64	2183.13
745.82	2322.40
746.00	2244.57
746.18	2346.97
746.36	2095.07
746.54	2244.57
746.72	2320.35
746.90	2129.89
747.08	2398.17
747.26	2242.53
747.44	2263.01
747.62	2338.78
747.80	2248.67
747.98	2281.44
748.15	2230.24
748.33	2432.99
748.51	2310.11
748.69	2301.92
748.87	2203.61
749.05	2142.18
749.23	2250.72
749.41	2244.57
749.59	2203.61
749.77	2273.25
749.95	2238.43
750.13	2185.18
750.31	2263.01
750.49	2217.95
750.67	2449.37
750.85	2398.17
751.03	2232.29
751.20	2457.56
751.38	2265.05
751.56	2234.33
751.74	2246.62
751.92	2201.57
752.10	2148.32
752.28	2312.16
752.46	2240.48
752.64	2234.33
752.82	2240.48
753.00	2365.40
753.18	2256.86
753.35	2150.37
753.53	2129.89
753.71	2199.52
753.89	2310.11
754.07	2234.33
754.25	2457.56
754.43	2236.38
754.61	2080.74
754.79	2318.30
754.97	2209.76
755.14	2439.13
755.32	2095.07
755.50	2293.72
755.68	2258.91
755.86	2125.79
756.04	2211.81
756.22	2088.93
756.40	2381.79
756.57	2430.94
756.75	2205.66
756.93	2308.06
757.11	2338.78
757.29	2174.94
757.47	2199.52
757.65	2095.07
757.82	2066.40
758.00	2146.27
758.18	2146.27
758.36	2201.57
758.54	2402.27
758.72	2095.07
758.90	2293.72
759.07	2281.44
759.25	2154.46
759.43	2285.53
759.61	2181.09
759.79	3194.83
759.97	2318.30
760.15	2269.15
760.32	2220.00
760.50	2310.11
760.68	2465.75
760.86	2129.89
761.04	2408.41
761.22	2338.78
761.39	2258.91
761.57	2283.49
761.75	2174.94
761.93	2310.11
762.11	2285.53
762.28	2236.38
762.46	2076.64
762.64	2392.03
762.82	2109.41
763.00	2238.43
763.18	2377.69
763.35	2125.79
763.53	2291.68
763.71	2293.72
763.89	2314.20
764.07	2271.20
764.24	2226.14
764.42	2338.78
764.60	2160.61
764.78	2273.25
764.96	2332.64
765.13	2301.92
765.31	2205.66
765.49	2301.92
765.67	2164.70
765.84	2260.96
766.02	2150.37
766.20	2166.75
766.38	2285.53
766.56	2258.91
766.73	2336.73
766.91	2240.48
767.09	2283.49
767.27	2340.83
767.44	2113.50
767.62	2277.34
767.80	2207.71
767.98	2201.57
768.15	2207.71
768.33	2316.25
768.51	2326.49
768.69	2258.91
768.87	2283.49
769.04	2256.86
769.22	2486.23
769.40	2367.45
769.58	2441.18
769.75	2342.88
769.93	2316.25
770.11	2224.09
770.28	2203.61
770.46	2373.60
770.64	2201.57
770.82	2199.52
770.99	2152.42
771.17	2310.11
771.35	2197.47
771.53	2240.48
771.70	2236.38
771.88	2263.01
772.06	2265.05
772.23	2220.00
772.41	2250.72
772.59	2252.77
772.77	2230.24
772.94	2234.33
773.12	2201.57
773.30	2232.29
773.47	2238.43
773.65	2129.89
773.83	2324.44
774.01	2226.14
774.18	2064.35
774.36	2209.76
774.54	2158.56
774.71	2242.53
774.89	2183.13
775.07	2113.50
775.24	2195.42
775.42	2215.90
775.60	2385.88
775.78	2209.76
775.95	2117.60
776.13	2070.50
776.31	2131.94
776.48	2267.10
776.66	2392.03
776.84	2242.53
777.01	2133.98
777.19	2240.48
777.37	2174.94
777.54	2283.49
777.72	2494.43
777.90	2281.44
778.07	2131.94
778.25	2529.24
778.43	2336.73
778.60	2174.94
778.78	2232.29
778.96	2422.75
779.13	2220.00
779.31	2330.59
779.49	2256.86
779.66	2312.16
779.84	2267.10
780.01	2232.29
780.19	2109.41
780.37	2340.83
780.54	2318.30
780.72	2185.18
780.90	2203.61
781.07	2205.66
781.25	2187.23
781.43	2338.78
781.60	2164.70
781.78	2473.95
781.95	2232.29
782.13	2217.95
782.31	2299.87
782.48	2064.35
782.66	2248.67
782.83	2420.70
783.01	2295.77
783.19	2297.82
783.36	2244.57
783.54	2172.89
783.72	2314.20
783.89	2240.48
784.07	2351.07
784.24	2256.86
784.42	2394.08
784.60	2236.38
784.77	2279.39
784.95	2146.27
785.12	2201.57
785.30	2191.33
785.47	2131.94
785.65	2168.80
785.83	2275.29
786.00	2224.09
786.18	2318.30
786.35	2070.50
786.53	2133.98
786.71	2349.02
786.88	2310.11
787.06	2224.09
787.23	2248.67
787.41	2127.84
787.58	2273.25
787.76	2209.76
787.94	2207.71
788.11	2318.30
788.29	2125.79
788.46	2203.61
788.64	2142.18
788.81	2211.81
788.99	2160.61
789.16	2162.66
789.34	2236.38
789.52	2203.61
789.69	2258.91
789.87	2058.21
790.04	2181.09
790.22	2246.62
790.39	2387.93
790.57	2154.46
790.74	2150.37
790.92	2371.55
791.09	2105.31
791.27	2275.29
791.44	2389.98
791.62	2205.66
791.79	2355.16
791.97	2297.82
792.15	2531.29
792.32	2332.64
792.50	2424.80
792.67	2398.17
792.85	2306.01
793.02	2279.39
793.20	2187.23
793.37	2070.50
793.55	2146.27
793.72	2097.12
793.90	2306.01
794.07	2197.47
794.25	2191.33
794.42	2244.57
794.60	2334.68
794.77	2316.25
794.95	2328.54
795.12	2275.29
795.30	2340.83
795.47	2054.11
795.65	2557.91
795.82	2267.10
796.00	2170.85
796.17	2310.11
796.34	2224.09
796.52	2176.99
796.69	2260.96
796.87	2258.91
797.04	2273.25
797.22	2392.03
797.39	2359.26
797.57	2334.68
797.74	2349.02
797.92	2228.19
798.09	2242.53
798.27	2299.87
798.44	2211.81
798.62	2189.28
798.79	2248.67
798.96	2228.19
799.14	2244.57
799.31	2551.77
799.49	2187.23
799.66	2176.99
799.84	2328.54
800.01	2074.59
800.19	2299.87
800.36	2115.55
800.53	2195.42
800.71	2324.44
800.88	2420.70
801.06	2144.22
801.23	2209.76
801.41	2283.49
801.58	2138.08
801.75	2195.42
801.93	2244.57
802.10	2248.67
802.28	2176.99
802.45	2187.23
802.63	2267.10
802.80	2373.60
802.97	2183.13
803.15	2236.38
803.32	2265.05
803.50	2162.66
803.67	2146.27
803.84	2066.40
804.02	2238.43
804.19	2228.19
804.37	2043.87
804.54	2076.64
804.71	2242.53
804.89	2185.18
805.06	2174.94
805.24	2260.96
805.41	2166.75
805.58	2170.85
805.76	2484.19
805.93	2242.53
806.10	2338.78
806.28	2314.20
806.45	2312.16
806.63	2340.83
806.80	2273.25
806.97	2265.05
807.15	2273.25
807.32	2226.14
807.49	2260.96
807.67	2154.46
807.84	2287.58
808.01	2146.27
808.19	2447.32
808.36	2541.53
808.54	2211.81
808.71	2213.85
808.88	2275.29
809.06	2367.45
809.23	2418.65
809.40	2226.14
809.58	2332.64
809.75	2310.11
809.92	2195.42
810.10	2445.27
810.27	2260.96
810.44	2295.77
810.62	2279.39
810.79	2324.44
810.96	2201.57
811.14	2199.52
811.31	2349.02
811.48	2310.11
811.66	2250.72
811.83	2342.88
812.00	2275.29
812.18	2256.86
812.35	2414.56
812.52	2211.81
812.69	2205.66
812.87	2170.85
813.04	2140.13
813.21	2203.61
813.39	2199.52
813.56	2199.52
813.73	2351.07
813.91	2097.12
814.08	2240.48
814.25	2310.11
814.42	2072.54
814.60	2226.14
814.77	2289.63
814.94	2170.85
815.12	2228.19
815.29	2381.79
815.46	2236.38
815.63	2240.48
815.81	2246.62
815.98	2160.61
816.15	2209.76
816.33	2185.18
816.50	2265.05
816.67	2263.01
816.84	2209.76
817.02	2076.64
817.19	2236.38
817.36	2258.91
817.53	2301.92
817.71	2144.22
817.88	2375.64
818.05	2267.10
818.22	2209.76
818.40	2445.27
818.57	2232.29
818.74	2279.39
818.91	2273.25
819.09	2303.96
819.26	2289.63
819.43	2183.13
819.60	2144.22
819.78	2205.66
819.95	2369.50
820.12	2117.60
820.29	2330.59
820.47	2383.84
820.64	2224.09
820.81	2121.70
820.98	2136.03
821.15	2183.13
821.33	2306.01
821.50	2097.12
821.67	2174.94
821.84	2158.56
822.02	2295.77
822.19	2375.64
822.36	2199.52
822.53	2170.85
822.70	2140.13
822.88	2209.76
823.05	2342.88
823.22	2213.85
823.39	2203.61
823.56	2207.71
823.74	2457.56
823.91	2133.98
824.08	2160.61
824.25	2142.18
824.42	2373.60
824.60	2117.60
824.77	2353.12
824.94	2308.06
825.11	2318.30
825.28	2140.13
825.45	2334.68
825.63	2252.77
825.80	2215.90
825.97	2252.77
826.14	2234.33
826.31	2201.57
826.48	2342.88
826.66	2181.09
826.83	2199.52
827.00	2234.33
827.17	2148.32
827.34	2281.44
827.51	2152.42
827.69	2207.71
827.86	2060.26
828.03	2144.22
828.20	2297.82
828.37	2179.04
828.54	2306.01
828.71	2195.42
828.89	2402.27
829.06	2293.72
829.23	2377.69
829.40	2168.80
829.57	2246.62
829.74	2373.60
829.91	2232.29
830.09	2078.69
830.26	2295.77
830.43	2449.37
830.60	2301.92
830.77	2359.26
830.94	2437.08
831.11	2389.98
831.28	2265.05
831.46	2346.97
831.63	2170.85
831.80	2342.88
831.97	2168.80
832.14	2121.70
832.31	2242.53
832.48	2226.14
832.65	2351.07
832.82	2248.67
832.99	2250.72
833.17	2195.42
833.34	2346.97
833.51	2228.19
833.68	2103.26
833.85	2346.97
834.02	2181.09
834.19	2148.32
834.36	2187.23
834.53	2301.92
834.70	2322.40
834.87	2334.68
835.04	2203.61
835.22	2189.28
835.39	2195.42
835.56	2111.46
835.73	2269.15
835.90	2340.83
836.07	2193.37
836.24	2326.49
836.41	2179.04
836.58	2123.74
836.75	2316.25
836.92	2195.42
837.09	2183.13
837.26	2381.79
837.43	2287.58
837.60	2279.39
837.77	2183.13
837.94	2355.16
838.12	2486.23
838.29	2222.05
838.46	2060.26
838.63	2138.08
838.80	2441.18
838.97	2303.96
839.14	2195.42
839.31	2252.77
839.48	2293.72
839.65	2236.38
839.82	2346.97
839.99	2338.78
840.16	2242.53
840.33	2144.22
840.50	2185.18
840.67	2185.18
840.84	2017.25
841.01	2150.37
841.18	2136.03
841.35	2197.47
841.52	2287.58
841.69	2414.56
841.86	2260.96
842.03	2197.47
842.20	2265.05
842.37	2211.81
842.54	2191.33
842.71	2258.91
842.88	2099.17
843.05	2220.00
843.22	2150.37
843.39	2365.40
843.56	2174.94
843.73	2109.41
843.90	2285.53
844.07	2213.85
844.24	2293.72
844.41	2244.57
844.58	2263.01
844.75	2277.34
844.92	2310.11
845.09	2168.80
845.26	2197.47
845.43	2375.64
845.60	2234.33
845.77	2277.34
845.94	2312.16
846.10	2383.84
846.27	2181.09
846.44	2084.83
846.61	2101.22
846.78	2236.38
846.95	2260.96
847.12	2179.04
847.29	2176.99
847.46	2103.26
847.63	2330.59
847.80	2123.74
847.97	2260.96
848.14	2426.84
848.31	2191.33
848.48	2066.40
848.65	2275.29
848.82	2179.04
848.98	2469.85
849.15	2277.34
849.32	2318.30
849.49	2363.36
849.66	2379.74
849.83	2207.71
850.00	2011.11
850.17	2248.67
850.34	2179.04
850.51	2125.79
850.68	2248.67
850.85	2424.80
851.01	2301.92
851.18	2248.67
851.35	2248.67
851.52	2265.05
851.69	2392.03
851.86	2070.50
852.03	2199.52
852.20	2316.25
852.37	2191.33
852.53	2086.88
852.70	2228.19
852.87	2291.68
853.04	2248.67
853.21	2160.61
853.38	2295.77
853.55	2365.40
853.72	2379.74
853.89	2045.92
854.05	2125.79
854.22	2211.81
854.39	2183.13
854.56	2187.23
854.73	2398.17
854.90	2162.66
855.07	2283.49
855.23	2191.33
855.40	2191.33
855.57	2209.76
855.74	2052.06
855.91	2392.03
856.08	2125.79
856.25	2105.31
856.41	2228.19
856.58	2121.70
856.75	2160.61
856.92	2142.18
857.09	2306.01
857.26	2097.12
857.42	2162.66
857.59	2295.77
857.76	2258.91
857.93	2217.95
858.10	2197.47
858.27	2113.50
858.43	2258.91
858.60	2138.08
858.77	2086.88
858.94	2179.04
859.11	2359.26
859.27	2215.90
859.44	2142.18
859.61	2426.84
859.78	2328.54
859.95	2152.42
860.12	2217.95
860.28	2459.61
860.45	2404.32
860.62	2220.00
860.79	2289.63
860.95	2236.38
861.12	2183.13
861.29	2133.98
861.46	2150.37
861.63	2260.96
861.79	2357.21
861.96	2123.74
862.13	2123.74
862.30	2396.12
862.47	2187.23
862.63	2109.41
862.80	2236.38
862.97	2359.26
863.14	2236.38
863.30	2228.19
863.47	2117.60
863.64	2392.03
863.81	2283.49
863.97	2146.27
864.14	2220.00
864.31	2203.61
864.48	2263.01
864.65	2242.53
864.81	2238.43
864.98	2248.67
865.15	2295.77
865.32	2240.48
865.48	2289.63
865.65	2441.18
865.82	2203.61
865.98	2258.91
866.15	2306.01
866.32	2211.81
866.49	2199.52
866.65	2291.68
866.82	2133.98
866.99	2293.72
867.16	2181.09
867.32	2158.56
867.49	2142.18
867.66	2230.24
867.83	2215.90
867.99	2129.89
868.16	2207.71
868.33	2105.31
868.49	2250.72
868.66	2226.14
868.83	2293.72
868.99	2207.71
869.16	2295.77
869.33	2344.92
869.50	2273.25
869.66	2244.57
869.83	2226.14
870.00	2078.69
870.16	2322.40
870.33	2301.92
870.50	2326.49
870.66	2226.14
870.83	2232.29
871.00	2281.44
871.17	2275.29
871.33	2176.99
871.50	2191.33
871.67	2277.34
871.83	2127.84
872.00	2299.87
872.17	2260.96
872.33	2420.70
872.50	2371.55
872.67	2168.80
872.83	2220.00
873.00	2320.35
873.17	2209.76
873.33	2267.10
873.50	2220.00
873.67	2228.19
873.83	2066.40
874.00	2144.22
874.16	2316.25
874.33	2209.76
874.50	2189.28
874.66	2267.10
874.83	2144.22
875.00	2320.35
875.16	2357.21
875.33	2277.34
875.50	2015.20
875.66	2187.23
875.83	2203.61
875.99	2271.20
876.16	2207.71
876.33	2230.24
876.49	2310.11
876.66	2174.94
876.83	2183.13
876.99	2086.88
877.16	2160.61
877.32	2211.81
877.49	2242.53
877.66	2318.30
877.82	2351.07
877.99	2197.47
878.15	2244.57
878.32	2293.72
878.49	2269.15
878.65	2187.23
878.82	2306.01
878.98	2093.02
879.15	2318.30
879.32	2246.62
879.48	2217.95
879.65	2207.71
879.81	2211.81
879.98	2105.31
880.15	2133.98
880.31	2285.53
880.48	2152.42
880.64	2346.97
880.81	2162.66
880.97	2357.21
881.14	2314.20
881.31	2146.27
881.47	2344.92
881.64	2179.04
881.80	2129.89
881.97	2234.33
882.13	2207.71
882.30	2160.61
882.47	2195.42
882.63	2187.23
882.80	2123.74
882.96	2140.13
883.13	2396.12
883.29	2197.47
883.46	2148.32
883.62	2428.89
883.79	2207.71
883.95	2277.34
884.12	2176.99
884.29	2359.26
884.45	2254.81
884.62	2242.53
884.78	2148.32
884.95	2445.27
885.11	2220.00
885.28	2287.58
885.44	2267.10
885.61	2281.44
885.77	2320.35
885.94	2279.39
886.10	2189.28
886.27	2299.87
886.43	2383.84
886.60	2326.49
886.76	2168.80
886.93	2183.13
887.09	2238.43
887.26	2125.79
887.42	2220.00
887.59	2267.10
887.75	2441.18
887.92	2314.20
888.08	2267.10
888.25	2473.95
888.41	2439.13
888.58	2199.52
888.74	2113.50
888.91	2154.46
>>>>>End Processed Spectral Data<<<<<
