SpectraSuite Data File
++++++++++++++++++++++++++++++++++++
Date: Thu May 05 13:20:35 CEST 2016
User: root
Dark Spectrum Present: No
Reference Spectrum Present: No
Number of Sampled Component Spectra: 1
Spectrometers: USB4C02835
Integration Time (usec): 100000 (USB4C02835)
Spectra Averaged: 1 (USB4C02835)
Boxcar Smoothing: 0 (USB4C02835)
Correct for Electrical Dark: No (USB4C02835)
Strobe/Lamp Enabled: No (USB4C02835)
Correct for Detector Non-linearity: No (USB4C02835)
Correct for Stray Light: No (USB4C02835)
Number of Pixels in Processed Spectrum: 3648
>>>>>Begin Processed Spectral Data<<<<<
177.47	1875.94
177.69	1875.94
177.91	1875.94
178.13	1834.98
178.36	1814.50
178.58	2142.18
178.80	2312.16
179.02	2107.36
179.24	2162.66
179.46	2101.22
179.68	2189.28
179.90	2258.91
180.13	2250.72
180.35	2121.70
180.57	2226.14
180.79	2322.40
181.01	2230.24
181.23	2271.20
181.45	2383.84
181.67	2306.01
181.90	2285.53
182.12	2242.53
182.34	2033.63
182.56	2273.25
182.78	2295.77
183.00	2199.52
183.22	2222.05
183.44	2156.51
183.66	2578.39
183.89	2283.49
184.11	2203.61
184.33	2310.11
184.55	2373.60
184.77	2166.75
184.99	2211.81
185.21	2160.61
185.43	2449.37
185.65	2181.09
185.87	2101.22
186.10	2525.15
186.32	2453.47
186.54	2293.72
186.76	2224.09
186.98	2357.21
187.20	2242.53
187.42	2138.08
187.64	2240.48
187.86	2344.92
188.08	2355.16
188.30	2179.04
188.52	2209.76
188.75	2334.68
188.97	2432.99
189.19	2224.09
189.41	2156.51
189.63	2344.92
189.85	2246.62
190.07	2062.30
190.29	2072.54
190.51	2234.33
190.73	2086.88
190.95	2279.39
191.17	2211.81
191.39	2066.40
191.61	2119.65
191.84	2199.52
192.06	2269.15
192.28	2117.60
192.50	2605.02
192.72	2267.10
192.94	2265.05
193.16	2357.21
193.38	2299.87
193.60	2086.88
193.82	2193.37
194.04	2383.84
194.26	2232.29
194.48	2166.75
194.70	2217.95
194.92	2209.76
195.14	2322.40
195.36	2088.93
195.58	2191.33
195.80	2250.72
196.02	2170.85
196.24	2150.37
196.46	2303.96
196.69	2209.76
196.91	2594.78
197.13	2203.61
197.35	2146.27
197.57	2351.07
197.79	2328.54
198.01	2273.25
198.23	2189.28
198.45	2260.96
198.67	2093.02
198.89	2154.46
199.11	2191.33
199.33	2199.52
199.55	2002.91
199.77	2195.42
199.99	2310.11
200.21	2226.14
200.43	2269.15
200.65	2113.50
200.87	2013.15
201.09	2258.91
201.31	2176.99
201.53	2244.57
201.75	2203.61
201.97	2322.40
202.19	2273.25
202.41	2240.48
202.63	2357.21
202.85	2346.97
203.07	2293.72
203.29	2125.79
203.51	2097.12
203.73	2236.38
203.95	2504.67
204.17	2201.57
204.39	2283.49
204.61	2258.91
204.83	2183.13
205.05	2244.57
205.27	2162.66
205.49	2392.03
205.71	2215.90
205.93	2078.69
206.15	2123.74
206.37	2234.33
206.59	2248.67
206.81	2105.31
207.03	2078.69
207.25	2129.89
207.47	2295.77
207.69	2133.98
207.91	2260.96
208.13	2363.36
208.34	2209.76
208.56	2088.93
208.78	2215.90
209.00	2226.14
209.22	2256.86
209.44	2256.86
209.66	2174.94
209.88	2230.24
210.10	2232.29
210.32	2187.23
210.54	2283.49
210.76	2201.57
210.98	2332.64
211.20	2035.68
211.42	2240.48
211.64	2398.17
211.86	2230.24
212.08	2226.14
212.30	2236.38
212.52	2144.22
212.74	2246.62
212.96	2265.05
213.17	2246.62
213.39	2404.32
213.61	2467.80
213.83	2119.65
214.05	2230.24
214.27	2357.21
214.49	2193.37
214.71	2150.37
214.93	2330.59
215.15	2308.06
215.37	2349.02
215.59	2131.94
215.81	2324.44
216.03	2344.92
216.24	2328.54
216.46	2195.42
216.68	2193.37
216.90	2340.83
217.12	2371.55
217.34	2162.66
217.56	2236.38
217.78	2406.36
218.00	2273.25
218.22	2203.61
218.44	2242.53
218.66	2314.20
218.87	2408.41
219.09	2119.65
219.31	2273.25
219.53	2254.81
219.75	2228.19
219.97	2174.94
220.19	2162.66
220.41	2308.06
220.63	2519.00
220.85	2258.91
221.06	2082.78
221.28	2375.64
221.50	2277.34
221.72	2179.04
221.94	2189.28
222.16	2242.53
222.38	2318.30
222.60	2283.49
222.82	2160.61
223.03	2334.68
223.25	2090.98
223.47	2185.18
223.69	2301.92
223.91	2256.86
224.13	2281.44
224.35	2181.09
224.57	2299.87
224.78	2260.96
225.00	2211.81
225.22	2127.84
225.44	2129.89
225.66	2318.30
225.88	2242.53
226.10	2289.63
226.32	2172.89
226.53	2334.68
226.75	2150.37
226.97	2162.66
227.19	2211.81
227.41	2193.37
227.63	2133.98
227.85	2060.26
228.06	2193.37
228.28	2256.86
228.50	2402.27
228.72	2072.54
228.94	2187.23
229.16	2113.50
229.37	2205.66
229.59	2191.33
229.81	2267.10
230.03	2174.94
230.25	2090.98
230.47	2105.31
230.69	2121.70
230.90	2353.12
231.12	2045.92
231.34	2162.66
231.56	2238.43
231.78	2088.93
232.00	2222.05
232.21	2217.95
232.43	2133.98
232.65	2023.39
232.87	2263.01
233.09	2082.78
233.30	2111.46
233.52	2291.68
233.74	2217.95
233.96	2125.79
234.18	2240.48
234.40	2181.09
234.61	2506.71
234.83	2111.46
235.05	2078.69
235.27	2455.51
235.49	2414.56
235.70	2144.22
235.92	2195.42
236.14	2289.63
236.36	2564.06
236.58	2095.07
236.79	2211.81
237.01	2287.58
237.23	2209.76
237.45	2258.91
237.67	2088.93
237.88	2342.88
238.10	2422.75
238.32	2148.32
238.54	2172.89
238.76	2220.00
238.97	2125.79
239.19	2113.50
239.41	2271.20
239.63	2334.68
239.85	2203.61
240.06	2187.23
240.28	2170.85
240.50	2400.22
240.72	2260.96
240.93	2129.89
241.15	2297.82
241.37	2324.44
241.59	2443.23
241.81	2162.66
242.02	2162.66
242.24	2291.68
242.46	2281.44
242.68	2160.61
242.89	2129.89
243.11	2322.40
243.33	2207.71
243.55	2199.52
243.76	2220.00
243.98	2131.94
244.20	2279.39
244.42	2267.10
244.64	2232.29
244.85	2082.78
245.07	2166.75
245.29	2187.23
245.51	2222.05
245.72	2324.44
245.94	2349.02
246.16	2176.99
246.38	2222.05
246.59	2172.89
246.81	2158.56
247.03	2129.89
247.24	2015.20
247.46	2179.04
247.68	2195.42
247.90	2123.74
248.11	2191.33
248.33	2324.44
248.55	2230.24
248.77	2267.10
248.98	2318.30
249.20	2379.74
249.42	2213.85
249.64	2176.99
249.85	2199.52
250.07	2187.23
250.29	2361.31
250.50	2316.25
250.72	2052.06
250.94	2271.20
251.16	2461.66
251.37	2176.99
251.59	2314.20
251.81	2269.15
252.02	2322.40
252.24	2140.13
252.46	2344.92
252.68	2209.76
252.89	2162.66
253.11	2064.35
253.33	2324.44
253.54	2297.82
253.76	2082.78
253.98	2127.84
254.20	2152.42
254.41	2101.22
254.63	2211.81
254.85	2103.26
255.06	2250.72
255.28	2236.38
255.50	2224.09
255.71	2138.08
255.93	2113.50
256.15	2201.57
256.36	2322.40
256.58	2062.30
256.80	2265.05
257.02	2287.58
257.23	2185.18
257.45	2183.13
257.67	2260.96
257.88	2179.04
258.10	2301.92
258.32	2191.33
258.53	2232.29
258.75	2367.45
258.97	2158.56
259.18	2129.89
259.40	2154.46
259.62	2396.12
259.83	2318.30
260.05	2285.53
260.27	2547.67
260.48	2416.60
260.70	2125.79
260.92	2144.22
261.13	2222.05
261.35	2291.68
261.57	2310.11
261.78	2191.33
262.00	2168.80
262.22	2283.49
262.43	2125.79
262.65	2176.99
262.86	2232.29
263.08	2471.90
263.30	2283.49
263.51	2066.40
263.73	2187.23
263.95	2316.25
264.16	2117.60
264.38	2174.94
264.60	2156.51
264.81	2312.16
265.03	2314.20
265.25	2301.92
265.46	2220.00
265.68	2308.06
265.89	2320.35
266.11	2060.26
266.33	2166.75
266.54	2387.93
266.76	2389.98
266.98	2207.71
267.19	2263.01
267.41	2422.75
267.62	2242.53
267.84	2031.58
268.06	2244.57
268.27	2289.63
268.49	2346.97
268.70	2316.25
268.92	2209.76
269.14	2207.71
269.35	2138.08
269.57	2211.81
269.79	2226.14
270.00	2197.47
270.22	2422.75
270.43	2103.26
270.65	2031.58
270.87	2238.43
271.08	2363.36
271.30	2273.25
271.51	2222.05
271.73	2285.53
271.95	2310.11
272.16	2183.13
272.38	2250.72
272.59	2197.47
272.81	2308.06
273.02	2136.03
273.24	2230.24
273.46	2326.49
273.67	2142.18
273.89	2119.65
274.10	2140.13
274.32	2340.83
274.54	2267.10
274.75	2238.43
274.97	2197.47
275.18	2336.73
275.40	2283.49
275.61	2297.82
275.83	2230.24
276.05	2211.81
276.26	2289.63
276.48	2250.72
276.69	2127.84
276.91	2258.91
277.12	2385.88
277.34	2361.31
277.55	2324.44
277.77	2297.82
277.99	2240.48
278.20	2160.61
278.42	2068.45
278.63	2105.31
278.85	2125.79
279.06	2095.07
279.28	2314.20
279.49	2359.26
279.71	2297.82
279.93	2238.43
280.14	2285.53
280.36	2207.71
280.57	2353.12
280.79	2260.96
281.00	2162.66
281.22	2193.37
281.43	2428.89
281.65	2054.11
281.86	2043.87
282.08	2381.79
282.29	2449.37
282.51	2113.50
282.73	2146.27
282.94	2162.66
283.16	2310.11
283.37	2414.56
283.59	2191.33
283.80	2299.87
284.02	2193.37
284.23	2217.95
284.45	2203.61
284.66	2220.00
284.88	2193.37
285.09	2236.38
285.31	2369.50
285.52	2293.72
285.74	2082.78
285.95	2281.44
286.17	2232.29
286.38	2265.05
286.60	2269.15
286.81	2142.18
287.03	2277.34
287.24	2248.67
287.46	2293.72
287.67	2267.10
287.89	2412.51
288.10	2193.37
288.32	2265.05
288.53	2346.97
288.75	2310.11
288.96	2346.97
289.18	2129.89
289.39	2195.42
289.61	2279.39
289.82	2494.43
290.04	2459.61
290.25	2129.89
290.47	2246.62
290.68	2193.37
290.90	2340.83
291.11	2097.12
291.33	2277.34
291.54	2140.13
291.76	2183.13
291.97	2275.29
292.18	2209.76
292.40	2244.57
292.61	2209.76
292.83	2430.94
293.04	2236.38
293.26	2228.19
293.47	2195.42
293.69	2168.80
293.90	2228.19
294.12	2398.17
294.33	2273.25
294.55	2193.37
294.76	2342.88
294.97	2416.60
295.19	2457.56
295.40	2316.25
295.62	2273.25
295.83	2306.01
296.05	2269.15
296.26	2426.84
296.48	2150.37
296.69	2285.53
296.90	2271.20
297.12	2277.34
297.33	2361.31
297.55	2306.01
297.76	2285.53
297.98	2308.06
298.19	2297.82
298.41	2252.77
298.62	2199.52
298.83	2383.84
299.05	2293.72
299.26	2166.75
299.48	2144.22
299.69	2326.49
299.90	2203.61
300.12	2142.18
300.33	2299.87
300.55	2207.71
300.76	2260.96
300.98	2185.18
301.19	2357.21
301.40	2183.13
301.62	2211.81
301.83	2293.72
302.05	2217.95
302.26	2260.96
302.47	2154.46
302.69	2170.85
302.90	2267.10
303.12	1998.82
303.33	2322.40
303.54	2547.67
303.76	2095.07
303.97	2203.61
304.19	2355.16
304.40	2097.12
304.61	2289.63
304.83	2332.64
305.04	2387.93
305.26	2277.34
305.47	2203.61
305.68	2301.92
305.90	2076.64
306.11	2355.16
306.33	2220.00
306.54	2164.70
306.75	2174.94
306.97	2105.31
307.18	2209.76
307.39	2185.18
307.61	2320.35
307.82	2187.23
308.04	2301.92
308.25	2148.32
308.46	2179.04
308.68	2281.44
308.89	2246.62
309.10	2402.27
309.32	2256.86
309.53	2228.19
309.74	2316.25
309.96	2263.01
310.17	2299.87
310.39	2176.99
310.60	2346.97
310.81	2197.47
311.03	2179.04
311.24	2289.63
311.45	2217.95
311.67	2404.32
311.88	2269.15
312.09	2242.53
312.31	2205.66
312.52	2207.71
312.73	2150.37
312.95	2133.98
313.16	2168.80
313.37	2322.40
313.59	2258.91
313.80	2334.68
314.01	2480.09
314.23	2232.29
314.44	2115.55
314.65	2142.18
314.87	2201.57
315.08	2119.65
315.29	2228.19
315.51	2162.66
315.72	2070.50
315.93	2400.22
316.15	2310.11
316.36	2185.18
316.57	2269.15
316.79	2252.77
317.00	2183.13
317.21	2232.29
317.43	2172.89
317.64	2195.42
317.85	2172.89
318.07	2187.23
318.28	2287.58
318.49	2398.17
318.70	2494.43
318.92	2396.12
319.13	2353.12
319.34	2432.99
319.56	2314.20
319.77	2363.36
319.98	2367.45
320.20	2418.65
320.41	2322.40
320.62	2334.68
320.83	2189.28
321.05	2478.04
321.26	2299.87
321.47	2250.72
321.69	2453.47
321.90	2136.03
322.11	2193.37
322.32	2314.20
322.54	2451.42
322.75	2199.52
322.96	2543.58
323.18	2146.27
323.39	2062.30
323.60	2127.84
323.81	2377.69
324.03	2146.27
324.24	2287.58
324.45	2209.76
324.66	2166.75
324.88	2381.79
325.09	2355.16
325.30	2224.09
325.52	2142.18
325.73	2293.72
325.94	2086.88
326.15	2078.69
326.37	2148.32
326.58	2306.01
326.79	2342.88
327.00	2148.32
327.22	2203.61
327.43	2203.61
327.64	2119.65
327.85	2334.68
328.07	2303.96
328.28	2449.37
328.49	2158.56
328.70	2199.52
328.92	2205.66
329.13	2226.14
329.34	2277.34
329.55	2414.56
329.76	2369.50
329.98	2199.52
330.19	2377.69
330.40	2222.05
330.61	2299.87
330.83	2363.36
331.04	2215.90
331.25	2267.10
331.46	2258.91
331.68	2095.07
331.89	2359.26
332.10	2275.29
332.31	2090.98
332.52	2291.68
332.74	2398.17
332.95	2062.30
333.16	2164.70
333.37	2254.81
333.58	2263.01
333.80	2281.44
334.01	2093.02
334.22	2211.81
334.43	2293.72
334.64	2179.04
334.86	2054.11
335.07	2160.61
335.28	2414.56
335.49	2176.99
335.70	2236.38
335.92	2359.26
336.13	2480.09
336.34	2256.86
336.55	2265.05
336.76	2269.15
336.98	2121.70
337.19	2228.19
337.40	2371.55
337.61	2506.71
337.82	2133.98
338.04	2295.77
338.25	2099.17
338.46	2199.52
338.67	2209.76
338.88	2170.85
339.09	2138.08
339.31	2172.89
339.52	2148.32
339.73	2185.18
339.94	2291.68
340.15	2293.72
340.36	2187.23
340.58	2228.19
340.79	2170.85
341.00	2281.44
341.21	2160.61
341.42	2346.97
341.63	2250.72
341.85	2297.82
342.06	2187.23
342.27	2185.18
342.48	2273.25
342.69	2086.88
342.90	2285.53
343.12	2349.02
343.33	2146.27
343.54	2408.41
343.75	2363.36
343.96	2211.81
344.17	2154.46
344.38	2246.62
344.60	2205.66
344.81	2133.98
345.02	2263.01
345.23	2316.25
345.44	2447.32
345.65	2308.06
345.86	2250.72
346.07	2236.38
346.29	2203.61
346.50	2297.82
346.71	2318.30
346.92	2367.45
347.13	2500.57
347.34	2236.38
347.55	2131.94
347.76	2252.77
347.98	2117.60
348.19	2215.90
348.40	2312.16
348.61	2193.37
348.82	2422.75
349.03	2316.25
349.24	2228.19
349.45	2494.43
349.66	2088.93
349.88	2174.94
350.09	2185.18
350.30	2332.64
350.51	2363.36
350.72	2275.29
350.93	2334.68
351.14	2228.19
351.35	2285.53
351.56	2170.85
351.77	2236.38
351.99	2254.81
352.20	2471.90
352.41	2367.45
352.62	2045.92
352.83	2207.71
353.04	2187.23
353.25	2207.71
353.46	2318.30
353.67	2387.93
353.88	2060.26
354.09	2258.91
354.30	2297.82
354.52	2353.12
354.73	2232.29
354.94	2185.18
355.15	2252.77
355.36	2457.56
355.57	2148.32
355.78	2271.20
355.99	2166.75
356.20	2187.23
356.41	2392.03
356.62	2283.49
356.83	2234.33
357.04	2428.89
357.25	2095.07
357.46	2156.51
357.68	2050.02
357.89	2123.74
358.10	2283.49
358.31	2121.70
358.52	2222.05
358.73	2142.18
358.94	2152.42
359.15	2191.33
359.36	2265.05
359.57	2310.11
359.78	2195.42
359.99	2265.05
360.20	2113.50
360.41	2240.48
360.62	2346.97
360.83	2260.96
361.04	2297.82
361.25	2238.43
361.46	2330.59
361.67	2365.40
361.88	2342.88
362.09	2291.68
362.30	2383.84
362.51	2170.85
362.72	2228.19
362.93	2338.78
363.14	2322.40
363.35	2263.01
363.56	2209.76
363.78	2416.60
363.99	2351.07
364.20	2201.57
364.41	2197.47
364.62	2400.22
364.83	2246.62
365.04	2201.57
365.25	2226.14
365.46	2392.03
365.67	2164.70
365.88	2269.15
366.09	2263.01
366.30	2129.89
366.51	2281.44
366.72	2109.41
366.93	2170.85
367.14	2291.68
367.35	2377.69
367.56	2250.72
367.77	2363.36
367.98	2248.67
368.18	2357.21
368.39	2336.73
368.60	2158.56
368.81	2357.21
369.02	2248.67
369.23	2213.85
369.44	2062.30
369.65	2248.67
369.86	2220.00
370.07	2269.15
370.28	2191.33
370.49	2342.88
370.70	2228.19
370.91	2070.50
371.12	2066.40
371.33	2301.92
371.54	2154.46
371.75	2324.44
371.96	2021.35
372.17	2318.30
372.38	2209.76
372.59	2234.33
372.80	2195.42
373.01	2281.44
373.22	2254.81
373.43	2203.61
373.64	2121.70
373.85	2437.08
374.06	2383.84
374.26	2234.33
374.47	2254.81
374.68	2367.45
374.89	2179.04
375.10	2138.08
375.31	2344.92
375.52	2228.19
375.73	2312.16
375.94	2113.50
376.15	2334.68
376.36	2215.90
376.57	2201.57
376.78	2162.66
376.99	2248.67
377.20	2359.26
377.40	2256.86
377.61	2375.64
377.82	2088.93
378.03	2359.26
378.24	2338.78
378.45	2209.76
378.66	2271.20
378.87	2027.49
379.08	2172.89
379.29	2170.85
379.50	2400.22
379.71	2263.01
379.91	2285.53
380.12	2207.71
380.33	2168.80
380.54	2226.14
380.75	2203.61
380.96	2297.82
381.17	2316.25
381.38	2367.45
381.59	2193.37
381.80	2252.77
382.00	2441.18
382.21	2295.77
382.42	2461.66
382.63	2543.58
382.84	2383.84
383.05	2285.53
383.26	2461.66
383.47	2271.20
383.68	2273.25
383.88	2375.64
384.09	2365.40
384.30	2365.40
384.51	2295.77
384.72	2131.94
384.93	2146.27
385.14	2220.00
385.35	2326.49
385.55	2109.41
385.76	2344.92
385.97	2260.96
386.18	2121.70
386.39	2191.33
386.60	2250.72
386.81	2248.67
387.02	2101.22
387.22	2244.57
387.43	2375.64
387.64	2258.91
387.85	2463.71
388.06	2523.10
388.27	4003.78
388.48	8308.61
388.68	11917.13
388.89	14169.90
389.10	15062.81
389.31	14061.35
389.52	11059.03
389.73	9502.58
389.93	8775.55
390.14	7968.65
390.35	7286.67
390.56	6371.23
390.77	5134.26
390.98	4091.84
391.18	3260.37
391.39	2719.70
391.60	2381.79
391.81	2424.80
392.02	2183.13
392.23	2529.24
392.43	2277.34
392.64	2398.17
392.85	2164.70
393.06	2291.68
393.27	2310.11
393.47	2236.38
393.68	2287.58
393.89	2295.77
394.10	2394.08
394.31	2117.60
394.52	2160.61
394.72	2162.66
394.93	2342.88
395.14	2133.98
395.35	2289.63
395.56	2179.04
395.76	2197.47
395.97	2310.11
396.18	2402.27
396.39	2371.55
396.60	2736.09
396.80	2426.84
397.01	2519.00
397.22	2351.07
397.43	2414.56
397.64	2179.04
397.84	2353.12
398.05	2482.14
398.26	2303.96
398.47	2349.02
398.67	2369.50
398.88	2226.14
399.09	2332.64
399.30	2183.13
399.51	2363.36
399.71	2088.93
399.92	2246.62
400.13	2275.29
400.34	2236.38
400.54	2269.15
400.75	2387.93
400.96	2318.30
401.17	2426.84
401.37	2320.35
401.58	2260.96
401.79	2224.09
402.00	2445.27
402.21	2641.88
402.41	2564.06
402.62	2547.67
402.83	2697.17
403.04	2686.94
403.24	2873.30
403.45	2361.31
403.66	2473.95
403.87	2541.53
404.07	2484.19
404.28	2496.47
404.49	2519.00
404.70	2326.49
404.90	2367.45
405.11	2226.14
405.32	2375.64
405.52	2136.03
405.73	2183.13
405.94	2211.81
406.15	2281.44
406.35	2281.44
406.56	2334.68
406.77	2205.66
406.98	2373.60
407.18	2220.00
407.39	2349.02
407.60	2252.77
407.80	2330.59
408.01	2205.66
408.22	2240.48
408.43	2187.23
408.63	2269.15
408.84	2346.97
409.05	2291.68
409.25	2203.61
409.46	2170.85
409.67	2271.20
409.88	2224.09
410.08	2269.15
410.29	2129.89
410.50	2283.49
410.70	2258.91
410.91	2168.80
411.12	2260.96
411.32	2230.24
411.53	2236.38
411.74	2371.55
411.95	2299.87
412.15	2306.01
412.36	2394.08
412.57	2320.35
412.77	2428.89
412.98	2287.58
413.19	2316.25
413.39	2271.20
413.60	2242.53
413.81	2398.17
414.01	2172.89
414.22	2322.40
414.43	2301.92
414.63	2222.05
414.84	2332.64
415.05	2142.18
415.25	2179.04
415.46	2379.74
415.67	2228.19
415.87	2318.30
416.08	2260.96
416.29	2238.43
416.49	2308.06
416.70	2258.91
416.91	2183.13
417.11	2248.67
417.32	2338.78
417.53	2301.92
417.73	2203.61
417.94	2224.09
418.15	2265.05
418.35	2236.38
418.56	2224.09
418.77	2547.67
418.97	2197.47
419.18	2228.19
419.38	2052.06
419.59	2285.53
419.80	2404.32
420.00	2248.67
420.21	2256.86
420.42	2383.84
420.62	2301.92
420.83	2189.28
421.04	2234.33
421.24	2148.32
421.45	2287.58
421.65	2365.40
421.86	2254.81
422.07	2254.81
422.27	2392.03
422.48	2230.24
422.69	2047.97
422.89	2228.19
423.10	2263.01
423.30	2058.21
423.51	2320.35
423.72	2367.45
423.92	2379.74
424.13	2158.56
424.33	2209.76
424.54	2373.60
424.75	2265.05
424.95	2473.95
425.16	2248.67
425.36	2236.38
425.57	2314.20
425.78	2338.78
425.98	2314.20
426.19	2279.39
426.39	2222.05
426.60	2220.00
426.81	2428.89
427.01	2256.86
427.22	2172.89
427.42	2107.36
427.63	2176.99
427.83	2265.05
428.04	2439.13
428.25	2396.12
428.45	2379.74
428.66	2332.64
428.86	2334.68
429.07	2195.42
429.28	2273.25
429.48	2209.76
429.69	2211.81
429.89	2312.16
430.10	2060.26
430.30	2371.55
430.51	2406.36
430.71	2183.13
430.92	2207.71
431.13	2131.94
431.33	2310.11
431.54	2324.44
431.74	2410.46
431.95	2420.70
432.15	2105.31
432.36	2207.71
432.56	2297.82
432.77	2424.80
432.98	2465.75
433.18	2242.53
433.39	2258.91
433.59	2236.38
433.80	2389.98
434.00	2457.56
434.21	2230.24
434.41	2224.09
434.62	2457.56
434.82	2138.08
435.03	2174.94
435.23	2250.72
435.44	2062.30
435.64	2260.96
435.85	2281.44
436.06	2283.49
436.26	2334.68
436.47	2179.04
436.67	2217.95
436.88	2246.62
437.08	2359.26
437.29	2406.36
437.49	2334.68
437.70	2346.97
437.90	2254.81
438.11	2420.70
438.31	2310.11
438.52	2445.27
438.72	2449.37
438.93	2613.21
439.13	2277.34
439.34	2408.41
439.54	2242.53
439.75	2306.01
439.95	2383.84
440.16	2150.37
440.36	2252.77
440.57	2303.96
440.77	2254.81
440.98	2269.15
441.18	2224.09
441.39	2230.24
441.59	2109.41
441.80	2494.43
442.00	2201.57
442.21	2367.45
442.41	2088.93
442.62	2351.07
442.82	2191.33
443.02	2248.67
443.23	2252.77
443.43	2267.10
443.64	2412.51
443.84	2209.76
444.05	2404.32
444.25	2297.82
444.46	2244.57
444.66	2326.49
444.87	2363.36
445.07	2156.51
445.28	2310.11
445.48	2400.22
445.69	2301.92
445.89	2566.10
446.09	2265.05
446.30	2562.01
446.50	2760.66
446.71	4306.88
446.91	5599.15
447.12	6410.14
447.32	6705.05
447.53	6332.32
447.73	5064.63
447.93	4702.14
448.14	4296.64
448.34	4038.59
448.55	3612.62
448.75	3635.14
448.96	3416.01
449.16	3004.37
449.36	2932.69
449.57	2549.72
449.77	2367.45
449.98	2242.53
450.18	2336.73
450.39	2359.26
450.59	2326.49
450.79	2226.14
451.00	2209.76
451.20	2326.49
451.41	2166.75
451.61	2353.12
451.81	2322.40
452.02	2234.33
452.22	2236.38
452.43	2193.37
452.63	2201.57
452.84	2220.00
453.04	2185.18
453.24	2254.81
453.45	2090.98
453.65	2220.00
453.86	2285.53
454.06	2303.96
454.26	2297.82
454.47	2160.61
454.67	2432.99
454.87	2322.40
455.08	2312.16
455.28	2394.08
455.49	2297.82
455.69	2183.13
455.89	2471.90
456.10	2340.83
456.30	2211.81
456.51	2396.12
456.71	2244.57
456.91	2285.53
457.12	2297.82
457.32	2230.24
457.52	2197.47
457.73	2324.44
457.93	2328.54
458.14	2127.84
458.34	2150.37
458.54	2283.49
458.75	2176.99
458.95	2383.84
459.15	2328.54
459.36	2371.55
459.56	2277.34
459.76	2521.05
459.97	2254.81
460.17	2275.29
460.37	2265.05
460.58	2314.20
460.78	2322.40
460.99	2234.33
461.19	2224.09
461.39	2213.85
461.60	2203.61
461.80	2306.01
462.00	2183.13
462.21	2283.49
462.41	2183.13
462.61	2166.75
462.82	2111.46
463.02	2322.40
463.22	2236.38
463.43	2355.16
463.63	2326.49
463.83	2445.27
464.04	2334.68
464.24	2240.48
464.44	2203.61
464.64	2215.90
464.85	2312.16
465.05	2396.12
465.25	2289.63
465.46	2170.85
465.66	2281.44
465.86	2308.06
466.07	2297.82
466.27	2269.15
466.47	2174.94
466.68	2142.18
466.88	2426.84
467.08	2310.11
467.29	2285.53
467.49	2314.20
467.69	2154.46
467.89	2318.30
468.10	2189.28
468.30	2326.49
468.50	2332.64
468.71	2385.88
468.91	2123.74
469.11	2435.03
469.31	2240.48
469.52	2162.66
469.72	2521.05
469.92	2545.63
470.13	2209.76
470.33	2258.91
470.53	2375.64
470.73	2623.45
470.94	3030.99
471.14	3203.02
471.34	3620.81
471.54	3432.40
471.75	3047.38
471.95	2846.68
472.15	2742.23
472.36	2760.66
472.56	2756.57
472.76	2813.91
472.96	2641.88
473.17	2519.00
473.37	2512.86
473.57	2359.26
473.77	2365.40
473.98	2346.97
474.18	2193.37
474.38	2551.77
474.58	2242.53
474.79	2168.80
474.99	2291.68
475.19	2420.70
475.39	2181.09
475.60	2260.96
475.80	2224.09
476.00	2306.01
476.20	2258.91
476.41	2232.29
476.61	2308.06
476.81	2406.36
477.01	2172.89
477.21	2447.32
477.42	2316.25
477.62	2131.94
477.82	2353.12
478.02	2226.14
478.23	2318.30
478.43	2172.89
478.63	2234.33
478.83	2244.57
479.03	2164.70
479.24	2451.42
479.44	2527.19
479.64	2250.72
479.84	2097.12
480.04	2121.70
480.25	2363.36
480.45	2207.71
480.65	2244.57
480.85	2398.17
481.06	2250.72
481.26	2277.34
481.46	2240.48
481.66	2248.67
481.86	2156.51
482.06	2287.58
482.27	2256.86
482.47	2140.13
482.67	2291.68
482.87	2207.71
483.07	2336.73
483.28	2217.95
483.48	2088.93
483.68	2211.81
483.88	2142.18
484.08	2111.46
484.29	2129.89
484.49	2220.00
484.69	2133.98
484.89	2457.56
485.09	2381.79
485.29	2371.55
485.50	2353.12
485.70	2179.04
485.90	2318.30
486.10	2273.25
486.30	2269.15
486.50	2359.26
486.71	2320.35
486.91	2367.45
487.11	2418.65
487.31	2129.89
487.51	2351.07
487.71	2224.09
487.91	2162.66
488.12	2113.50
488.32	2047.97
488.52	2168.80
488.72	2062.30
488.92	2295.77
489.12	2316.25
489.32	2324.44
489.53	2320.35
489.73	2136.03
489.93	2428.89
490.13	2234.33
490.33	2150.37
490.53	2320.35
490.73	2410.46
490.94	2185.18
491.14	2328.54
491.34	2375.64
491.54	2543.58
491.74	3194.83
491.94	3772.36
492.14	4093.89
492.34	4153.28
492.54	3829.70
492.75	3221.45
492.95	3164.11
493.15	3047.38
493.35	2949.08
493.55	2854.87
493.75	2727.89
493.95	2797.53
494.15	2562.01
494.35	2373.60
494.56	2385.88
494.76	2260.96
494.96	2310.11
495.16	2289.63
495.36	2244.57
495.56	2260.96
495.76	2275.29
495.96	2199.52
496.16	2199.52
496.36	2502.62
496.56	2248.67
496.77	2203.61
496.97	2222.05
497.17	2334.68
497.37	2154.46
497.57	2267.10
497.77	2306.01
497.97	2074.59
498.17	2330.59
498.37	2117.60
498.57	2342.88
498.77	2250.72
498.97	2334.68
499.17	2490.33
499.38	2281.44
499.58	2336.73
499.78	2371.55
499.98	2349.02
500.18	2226.14
500.38	2230.24
500.58	2346.97
500.78	2850.77
500.98	5142.45
501.18	7243.67
501.38	8871.80
501.58	9719.66
501.78	9625.45
501.98	7647.12
502.18	6508.44
502.38	5613.48
502.58	5193.65
502.78	4562.87
502.98	4515.77
503.18	4280.25
503.38	3968.96
503.59	3432.40
503.79	3233.74
503.99	2965.46
504.19	2801.62
504.39	2777.05
504.59	2895.83
504.79	2807.77
504.99	2869.20
505.19	2652.12
505.39	2529.24
505.59	2619.35
505.79	2457.56
505.99	2461.66
506.19	2340.83
506.39	2441.18
506.59	2299.87
506.79	2232.29
506.99	2439.13
507.19	2258.91
507.39	2242.53
507.59	2174.94
507.79	2160.61
507.99	2267.10
508.19	2232.29
508.39	2326.49
508.59	2254.81
508.79	2371.55
508.99	2564.06
509.19	2148.32
509.39	2314.20
509.59	2232.29
509.79	2220.00
509.99	2236.38
510.19	2308.06
510.39	2283.49
510.59	2322.40
510.79	2211.81
510.99	2154.46
511.19	2220.00
511.39	2463.71
511.59	2463.71
511.79	2383.84
511.99	2256.86
512.19	2428.89
512.38	2312.16
512.58	2162.66
512.78	2244.57
512.98	2369.50
513.18	2488.28
513.38	2109.41
513.58	2230.24
513.78	2176.99
513.98	2197.47
514.18	2234.33
514.38	2248.67
514.58	2324.44
514.78	2205.66
514.98	2179.04
515.18	2260.96
515.38	2162.66
515.58	2449.37
515.78	2226.14
515.98	2232.29
516.18	2385.88
516.38	2252.77
516.57	2222.05
516.77	2166.75
516.97	2365.40
517.17	2217.95
517.37	2136.03
517.57	2265.05
517.77	2265.05
517.97	2183.13
518.17	2346.97
518.37	2203.61
518.57	2195.42
518.77	2248.67
518.97	2349.02
519.16	2232.29
519.36	2357.21
519.56	2244.57
519.76	2205.66
519.96	2238.43
520.16	2332.64
520.36	2228.19
520.56	2424.80
520.76	2265.05
520.96	2250.72
521.16	2430.94
521.35	2385.88
521.55	2379.74
521.75	2320.35
521.95	2238.43
522.15	2129.89
522.35	2138.08
522.55	2160.61
522.75	2359.26
522.95	2209.76
523.14	2144.22
523.34	2250.72
523.54	2267.10
523.74	2359.26
523.94	2291.68
524.14	2176.99
524.34	2297.82
524.54	2418.65
524.73	2295.77
524.93	2342.88
525.13	2355.16
525.33	2140.13
525.53	2459.61
525.73	2344.92
525.93	2293.72
526.13	2220.00
526.32	2211.81
526.52	2389.98
526.72	2457.56
526.92	2248.67
527.12	2242.53
527.32	2103.26
527.52	2334.68
527.71	2316.25
527.91	2168.80
528.11	2164.70
528.31	2244.57
528.51	2144.22
528.71	2324.44
528.90	2269.15
529.10	2394.08
529.30	2349.02
529.50	2078.69
529.70	2338.78
529.90	2217.95
530.09	2224.09
530.29	2125.79
530.49	2211.81
530.69	2473.95
530.89	2303.96
531.09	2250.72
531.28	2193.37
531.48	2381.79
531.68	2236.38
531.88	2246.62
532.08	2379.74
532.28	2250.72
532.47	2277.34
532.67	2379.74
532.87	2351.07
533.07	2252.77
533.27	2351.07
533.46	2289.63
533.66	2308.06
533.86	2260.96
534.06	2324.44
534.26	2338.78
534.45	2299.87
534.65	2346.97
534.85	2344.92
535.05	2248.67
535.25	2375.64
535.44	2105.31
535.64	2287.58
535.84	2252.77
536.04	2195.42
536.24	2230.24
536.43	2185.18
536.63	2277.34
536.83	2256.86
537.03	2316.25
537.22	2115.55
537.42	2115.55
537.62	2344.92
537.82	2174.94
538.02	2367.45
538.21	2293.72
538.41	2504.67
538.61	2277.34
538.81	2248.67
539.00	2392.03
539.20	2154.46
539.40	2170.85
539.60	2252.77
539.79	2373.60
539.99	2281.44
540.19	2146.27
540.39	2254.81
540.58	2220.00
540.78	2359.26
540.98	2242.53
541.18	2471.90
541.37	2359.26
541.57	2226.14
541.77	2291.68
541.97	2179.04
542.16	2117.60
542.36	2183.13
542.56	2252.77
542.76	2430.94
542.95	2279.39
543.15	2336.73
543.35	2449.37
543.54	2168.80
543.74	2215.90
543.94	2396.12
544.14	2168.80
544.33	2328.54
544.53	2338.78
544.73	2291.68
544.93	2238.43
545.12	2281.44
545.32	2240.48
545.52	2209.76
545.71	2185.18
545.91	2238.43
546.11	2244.57
546.30	2187.23
546.50	2226.14
546.70	2271.20
546.90	2279.39
547.09	2039.78
547.29	2332.64
547.49	2295.77
547.68	2224.09
547.88	2127.84
548.08	2410.46
548.27	2734.04
548.47	2199.52
548.67	2162.66
548.87	2326.49
549.06	2226.14
549.26	2295.77
549.46	2326.49
549.65	2201.57
549.85	2240.48
550.05	2373.60
550.24	2152.42
550.44	2250.72
550.64	2252.77
550.83	2283.49
551.03	2367.45
551.23	2381.79
551.42	2310.11
551.62	2248.67
551.82	2224.09
552.01	2234.33
552.21	2367.45
552.41	2222.05
552.60	2383.84
552.80	2322.40
553.00	2215.90
553.19	2271.20
553.39	2389.98
553.59	2207.71
553.78	2336.73
553.98	2244.57
554.17	2211.81
554.37	2375.64
554.57	2373.60
554.76	2158.56
554.96	2306.01
555.16	2289.63
555.35	2318.30
555.55	2406.36
555.75	2295.77
555.94	2392.03
556.14	2117.60
556.33	2226.14
556.53	2258.91
556.73	2330.59
556.92	2291.68
557.12	2367.45
557.32	2465.75
557.51	2392.03
557.71	2299.87
557.90	2424.80
558.10	2389.98
558.30	2224.09
558.49	2201.57
558.69	2240.48
558.88	2334.68
559.08	2301.92
559.28	2275.29
559.47	2285.53
559.67	2330.59
559.86	2396.12
560.06	2232.29
560.26	2248.67
560.45	2322.40
560.65	2314.20
560.84	2330.59
561.04	2226.14
561.24	2293.72
561.43	2142.18
561.63	2527.19
561.82	2349.02
562.02	2301.92
562.22	2269.15
562.41	2236.38
562.61	2187.23
562.80	2220.00
563.00	2523.10
563.19	2291.68
563.39	2285.53
563.59	2359.26
563.78	2207.71
563.98	2056.16
564.17	2138.08
564.37	2125.79
564.56	2303.96
564.76	2162.66
564.96	2336.73
565.15	2232.29
565.35	2529.24
565.54	2205.66
565.74	2328.54
565.93	2381.79
566.13	2215.90
566.32	2299.87
566.52	2365.40
566.71	2340.83
566.91	2398.17
567.11	2326.49
567.30	2230.24
567.50	2244.57
567.69	2392.03
567.89	2176.99
568.08	2211.81
568.28	2359.26
568.47	2086.88
568.67	2346.97
568.86	2256.86
569.06	2414.56
569.25	2203.61
569.45	2138.08
569.64	2224.09
569.84	2236.38
570.04	2295.77
570.23	2086.88
570.43	2244.57
570.62	2228.19
570.82	2414.56
571.01	2154.46
571.21	2207.71
571.40	2152.42
571.60	2357.21
571.79	2318.30
571.99	2170.85
572.18	2152.42
572.38	2271.20
572.57	2260.96
572.77	2299.87
572.96	2559.96
573.16	2371.55
573.35	2240.48
573.55	2451.42
573.74	2191.33
573.94	2179.04
574.13	2217.95
574.33	2367.45
574.52	2428.89
574.71	2320.35
574.91	2318.30
575.10	2217.95
575.30	2236.38
575.49	2189.28
575.69	2195.42
575.88	2359.26
576.08	2189.28
576.27	2435.03
576.47	2275.29
576.66	2389.98
576.86	2404.32
577.05	2330.59
577.25	2314.20
577.44	2406.36
577.64	2246.62
577.83	2402.27
578.02	2287.58
578.22	2392.03
578.41	2455.51
578.61	2265.05
578.80	2146.27
579.00	2195.42
579.19	2314.20
579.39	2359.26
579.58	2322.40
579.77	2273.25
579.97	2383.84
580.16	2406.36
580.36	2301.92
580.55	2355.16
580.75	2336.73
580.94	2320.35
581.13	2357.21
581.33	2432.99
581.52	2326.49
581.72	2506.71
581.91	2389.98
582.11	2322.40
582.30	2367.45
582.49	2301.92
582.69	2457.56
582.88	2258.91
583.08	2265.05
583.27	2480.09
583.47	2334.68
583.66	2193.37
583.85	2164.70
584.05	2209.76
584.24	2340.83
584.44	2306.01
584.63	2439.13
584.82	2494.43
585.02	2437.08
585.21	2371.55
585.41	2398.17
585.60	2387.93
585.79	2521.05
585.99	2576.34
586.18	2299.87
586.37	2994.13
586.57	4609.98
586.76	13680.43
586.96	32841.23
587.15	46533.95
587.34	56433.83
587.54	61162.59
587.73	56405.16
587.93	39525.80
588.12	29642.30
588.31	24155.79
588.51	21270.20
588.70	19214.04
588.89	17432.31
589.09	15109.91
589.28	12990.27
589.47	10438.50
589.67	8212.35
589.86	6283.17
590.06	4661.18
590.25	3811.27
590.44	3198.93
590.64	2824.15
590.83	2562.01
591.02	2551.77
591.22	2400.22
591.41	2363.36
591.60	2349.02
591.80	2594.78
591.99	2174.94
592.18	2250.72
592.38	2398.17
592.57	2265.05
592.76	2301.92
592.96	2359.26
593.15	2326.49
593.34	2402.27
593.54	2340.83
593.73	2318.30
593.92	2412.51
594.12	2383.84
594.31	2361.31
594.50	2471.90
594.70	2308.06
594.89	2543.58
595.08	2154.46
595.28	2408.41
595.47	2619.35
595.66	2355.16
595.86	2195.42
596.05	2215.90
596.24	2269.15
596.43	2566.10
596.63	2422.75
596.82	2373.60
597.01	2324.44
597.21	2551.77
597.40	2289.63
597.59	2306.01
597.79	2260.96
597.98	2367.45
598.17	2322.40
598.36	2281.44
598.56	2392.03
598.75	2283.49
598.94	2277.34
599.14	2326.49
599.33	2267.10
599.52	2400.22
599.71	2355.16
599.91	2351.07
600.10	2330.59
600.29	2334.68
600.48	2365.40
600.68	2299.87
600.87	2310.11
601.06	2215.90
601.26	2215.90
601.45	2338.78
601.64	2248.67
601.83	2469.85
602.03	2252.77
602.22	2193.37
602.41	2365.40
602.60	2519.00
602.80	2392.03
602.99	2318.30
603.18	2252.77
603.37	2318.30
603.57	2330.59
603.76	2375.64
603.95	2387.93
604.14	2172.89
604.34	2234.33
604.53	2306.01
604.72	2361.31
604.91	2322.40
605.10	2320.35
605.30	2185.18
605.49	2521.05
605.68	2392.03
605.87	2379.74
606.07	2150.37
606.26	2217.95
606.45	2303.96
606.64	2285.53
606.84	2260.96
607.03	2281.44
607.22	2355.16
607.41	2256.86
607.60	2267.10
607.80	2449.37
607.99	2310.11
608.18	2281.44
608.37	2324.44
608.56	2209.76
608.76	2496.47
608.95	2457.56
609.14	2328.54
609.33	2475.99
609.52	2475.99
609.72	2381.79
609.91	2412.51
610.10	2306.01
610.29	2514.91
610.48	2383.84
610.68	2291.68
610.87	2258.91
611.06	2310.11
611.25	2232.29
611.44	2373.60
611.63	2291.68
611.83	2367.45
612.02	2086.88
612.21	2330.59
612.40	2168.80
612.59	2138.08
612.79	2068.45
612.98	2228.19
613.17	2451.42
613.36	2275.29
613.55	2379.74
613.74	2363.36
613.93	2408.41
614.13	2426.84
614.32	2514.91
614.51	2531.29
614.70	2328.54
614.89	2271.20
615.08	2406.36
615.28	2818.00
615.47	2252.77
615.66	2394.08
615.85	2293.72
616.04	2416.60
616.23	2336.73
616.42	2297.82
616.62	2346.97
616.81	2310.11
617.00	2263.01
617.19	2365.40
617.38	2232.29
617.57	2260.96
617.76	2400.22
617.95	2367.45
618.15	2346.97
618.34	2441.18
618.53	2154.46
618.72	2383.84
618.91	2432.99
619.10	2383.84
619.29	2236.38
619.48	2279.39
619.68	2103.26
619.87	2168.80
620.06	2062.30
620.25	2369.50
620.44	2285.53
620.63	2160.61
620.82	2258.91
621.01	2275.29
621.20	2267.10
621.39	2363.36
621.59	2334.68
621.78	2349.02
621.97	2332.64
622.16	2346.97
622.35	2303.96
622.54	2445.27
622.73	2236.38
622.92	2068.45
623.11	2435.03
623.30	2330.59
623.49	2330.59
623.68	2199.52
623.88	2357.21
624.07	2189.28
624.26	2281.44
624.45	2224.09
624.64	2260.96
624.83	2162.66
625.02	2252.77
625.21	2211.81
625.40	2228.19
625.59	2359.26
625.78	2330.59
625.97	2310.11
626.16	2455.51
626.35	2430.94
626.54	2353.12
626.74	2435.03
626.93	2248.67
627.12	2211.81
627.31	2291.68
627.50	2342.88
627.69	2449.37
627.88	2222.05
628.07	2250.72
628.26	2158.56
628.45	2238.43
628.64	2199.52
628.83	2234.33
629.02	2207.71
629.21	2365.40
629.40	2314.20
629.59	2224.09
629.78	2275.29
629.97	2301.92
630.16	2361.31
630.35	2256.86
630.54	2281.44
630.73	2207.71
630.92	2246.62
631.11	2224.09
631.30	2258.91
631.49	2361.31
631.68	2250.72
631.87	2359.26
632.06	2158.56
632.25	2498.52
632.44	2293.72
632.63	2338.78
632.82	2260.96
633.01	2310.11
633.20	2334.68
633.39	2349.02
633.58	2138.08
633.77	2387.93
633.96	2308.06
634.15	2453.47
634.34	2285.53
634.53	2320.35
634.72	2215.90
634.91	2125.79
635.10	2265.05
635.29	2357.21
635.48	2269.15
635.67	2170.85
635.86	2117.60
636.05	2404.32
636.24	2242.53
636.43	2287.58
636.62	2291.68
636.81	2080.74
637.00	2359.26
637.19	2254.81
637.38	2226.14
637.57	2244.57
637.76	2240.48
637.95	2383.84
638.14	2326.49
638.33	2330.59
638.52	2301.92
638.71	2211.81
638.89	2185.18
639.08	2590.68
639.27	2490.33
639.46	2486.23
639.65	2832.34
639.84	2891.73
640.03	3043.28
640.22	2869.20
640.41	2961.36
640.60	2494.43
640.79	2619.35
640.98	2361.31
641.17	2566.10
641.36	2447.32
641.55	2408.41
641.74	2220.00
641.92	2232.29
642.11	2240.48
642.30	2281.44
642.49	2273.25
642.68	2183.13
642.87	2260.96
643.06	2383.84
643.25	2127.84
643.44	2217.95
643.63	2299.87
643.82	2332.64
644.00	2138.08
644.19	2228.19
644.38	2117.60
644.57	2351.07
644.76	2226.14
644.95	2217.95
645.14	2328.54
645.33	2211.81
645.52	2291.68
645.71	2138.08
645.89	2084.83
646.08	2291.68
646.27	2256.86
646.46	2402.27
646.65	2207.71
646.84	2289.63
647.03	2170.85
647.22	2314.20
647.40	2215.90
647.59	2355.16
647.78	2099.17
647.97	2238.43
648.16	2207.71
648.35	2449.37
648.54	2359.26
648.73	2187.23
648.91	2306.01
649.10	2316.25
649.29	2176.99
649.48	2228.19
649.67	2269.15
649.86	2281.44
650.05	2260.96
650.23	2465.75
650.42	2271.20
650.61	2557.91
650.80	2475.99
650.99	2580.44
651.18	2363.36
651.36	2455.51
651.55	2240.48
651.74	2326.49
651.93	2220.00
652.12	2215.90
652.31	2289.63
652.49	2234.33
652.68	2344.92
652.87	2346.97
653.06	2265.05
653.25	2387.93
653.44	2252.77
653.62	2451.42
653.81	2201.57
654.00	2250.72
654.19	2381.79
654.38	2580.44
654.56	2324.44
654.75	2256.86
654.94	2324.44
655.13	2246.62
655.32	2265.05
655.51	2289.63
655.69	2228.19
655.88	2308.06
656.07	2146.27
656.26	2275.29
656.45	2183.13
656.63	2301.92
656.82	2328.54
657.01	2308.06
657.20	2160.61
657.38	2514.91
657.57	2258.91
657.76	2068.45
657.95	2375.64
658.14	2224.09
658.32	2291.68
658.51	2148.32
658.70	2265.05
658.89	2318.30
659.08	2273.25
659.26	2412.51
659.45	2193.37
659.64	2353.12
659.83	2277.34
660.01	2598.87
660.20	2318.30
660.39	2465.75
660.58	2168.80
660.76	2293.72
660.95	2156.51
661.14	2269.15
661.33	2179.04
661.51	2174.94
661.70	2154.46
661.89	2287.58
662.08	2228.19
662.26	2170.85
662.45	2146.27
662.64	2416.60
662.83	2322.40
663.01	2125.79
663.20	2174.94
663.39	2488.28
663.58	2252.77
663.76	2308.06
663.95	2308.06
664.14	2252.77
664.32	2201.57
664.51	2093.02
664.70	2148.32
664.89	2240.48
665.07	2172.89
665.26	2349.02
665.45	2078.69
665.64	2328.54
665.82	2293.72
666.01	2320.35
666.20	2179.04
666.38	2359.26
666.57	2389.98
666.76	3280.85
666.95	8236.93
667.13	16193.29
667.32	21399.23
667.51	25116.29
667.69	26805.86
667.88	24520.33
668.07	17247.99
668.25	14008.11
668.44	11755.34
668.63	9930.60
668.81	8941.43
669.00	7767.95
669.19	6836.12
669.38	6029.22
669.56	5216.18
669.75	4296.64
669.94	3696.58
670.12	3162.06
670.31	2793.43
670.50	2621.40
670.68	2514.91
670.87	2424.80
671.06	2346.97
671.24	2310.11
671.43	2340.83
671.62	2322.40
671.80	2295.77
671.99	2334.68
672.18	2359.26
672.36	2353.12
672.55	2312.16
672.74	2277.34
672.92	2191.33
673.11	2308.06
673.29	2179.04
673.48	2371.55
673.67	2207.71
673.85	2334.68
674.04	2217.95
674.23	2199.52
674.41	2400.22
674.60	2154.46
674.79	2158.56
674.97	2195.42
675.16	2320.35
675.34	2301.92
675.53	2215.90
675.72	2285.53
675.90	2420.70
676.09	2209.76
676.28	2320.35
676.46	2121.70
676.65	2389.98
676.83	2271.20
677.02	2244.57
677.21	2342.88
677.39	2273.25
677.58	2195.42
677.77	2242.53
677.95	2189.28
678.14	2183.13
678.32	2228.19
678.51	2154.46
678.70	2377.69
678.88	2203.61
679.07	2269.15
679.25	2275.29
679.44	2185.18
679.63	2220.00
679.81	2252.77
680.00	2420.70
680.18	2398.17
680.37	2377.69
680.55	2220.00
680.74	2174.94
680.93	2097.12
681.11	2293.72
681.30	2308.06
681.48	2277.34
681.67	2256.86
681.85	2267.10
682.04	2224.09
682.23	2375.64
682.41	2295.77
682.60	2170.85
682.78	2271.20
682.97	2172.89
683.15	2310.11
683.34	2267.10
683.53	2387.93
683.71	2140.13
683.90	2383.84
684.08	2455.51
684.27	2275.29
684.45	2248.67
684.64	2422.75
684.82	2226.14
685.01	2346.97
685.19	2252.77
685.38	2441.18
685.57	2217.95
685.75	2179.04
685.94	2211.81
686.12	2220.00
686.31	2185.18
686.49	2365.40
686.68	2101.22
686.86	2346.97
687.05	2269.15
687.23	2455.51
687.42	2285.53
687.60	2101.22
687.79	2365.40
687.97	2430.94
688.16	2361.31
688.34	2396.12
688.53	2117.60
688.71	2170.85
688.90	2269.15
689.08	2203.61
689.27	2111.46
689.45	2314.20
689.64	2346.97
689.82	2330.59
690.01	2279.39
690.19	2340.83
690.38	2195.42
690.56	2334.68
690.75	2156.51
690.93	2185.18
691.12	2234.33
691.30	2236.38
691.49	2222.05
691.67	2293.72
691.86	2412.51
692.04	2232.29
692.23	2199.52
692.41	2265.05
692.60	2467.80
692.78	2441.18
692.97	2330.59
693.15	2414.56
693.34	2441.18
693.52	2301.92
693.71	2203.61
693.89	2291.68
694.08	2101.22
694.26	2291.68
694.44	2340.83
694.63	2402.27
694.81	2142.18
695.00	2207.71
695.18	2379.74
695.37	2588.63
695.55	2271.20
695.74	2271.20
695.92	2105.31
696.10	2353.12
696.29	2113.50
696.47	2187.23
696.66	2193.37
696.84	2170.85
697.03	2289.63
697.21	2502.62
697.40	3282.89
697.58	2301.92
697.76	2146.27
697.95	2154.46
698.13	2160.61
698.32	2244.57
698.50	2187.23
698.68	2293.72
698.87	2310.11
699.05	2418.65
699.24	2250.72
699.42	2154.46
699.61	2203.61
699.79	2185.18
699.97	2213.85
700.16	2187.23
700.34	2140.13
700.53	2258.91
700.71	2363.36
700.89	2306.01
701.08	2213.85
701.26	2222.05
701.45	2756.57
701.63	2226.14
701.81	2213.85
702.00	2174.94
702.18	2371.55
702.37	2281.44
702.55	2457.56
702.73	2371.55
702.92	2367.45
703.10	2574.30
703.28	2463.71
703.47	2308.06
703.65	2455.51
703.84	2377.69
704.02	2330.59
704.20	2564.06
704.39	2142.18
704.57	2346.97
704.75	2371.55
704.94	2332.64
705.12	2252.77
705.30	2562.01
705.49	4571.07
705.67	10633.05
705.86	18435.81
706.04	22099.63
706.22	25216.64
706.41	26461.80
706.59	22271.66
706.77	15783.70
706.96	13186.87
707.14	11749.20
707.32	9953.13
707.51	8957.82
707.69	7403.41
707.87	6051.75
708.06	4790.20
708.24	4038.59
708.42	3145.68
708.61	3114.96
708.79	2545.63
708.97	2441.18
709.16	2465.75
709.34	2385.88
709.52	2203.61
709.71	2260.96
709.89	2349.02
710.07	2211.81
710.26	2158.56
710.44	2246.62
710.62	2430.94
710.80	2242.53
710.99	2322.40
711.17	2389.98
711.35	2179.04
711.54	2207.71
711.72	2416.60
711.90	2269.15
712.09	2318.30
712.27	2164.70
712.45	2330.59
712.63	2185.18
712.82	2283.49
713.00	2197.47
713.18	2250.72
713.37	2359.26
713.55	2277.34
713.73	2334.68
713.91	2207.71
714.10	2275.29
714.28	2213.85
714.46	2330.59
714.65	2293.72
714.83	2336.73
715.01	2244.57
715.19	2201.57
715.38	2168.80
715.56	2273.25
715.74	2183.13
715.92	2181.09
716.11	2480.09
716.29	2043.87
716.47	2277.34
716.65	2281.44
716.84	2064.35
717.02	2424.80
717.20	2093.02
717.38	2187.23
717.57	2392.03
717.75	2346.97
717.93	2191.33
718.11	2312.16
718.30	2199.52
718.48	2293.72
718.66	2379.74
718.84	2387.93
719.03	2187.23
719.21	2025.44
719.39	2449.37
719.57	2326.49
719.75	2351.07
719.94	2203.61
720.12	2142.18
720.30	2375.64
720.48	2332.64
720.67	2224.09
720.85	2162.66
721.03	2387.93
721.21	2236.38
721.39	2351.07
721.58	2310.11
721.76	2256.86
721.94	2228.19
722.12	2254.81
722.30	2396.12
722.49	2260.96
722.67	2310.11
722.85	2277.34
723.03	2172.89
723.21	2179.04
723.40	2269.15
723.58	2363.36
723.76	2310.11
723.94	2428.89
724.12	2310.11
724.30	2453.47
724.49	2334.68
724.67	2162.66
724.85	2396.12
725.03	2246.62
725.21	2381.79
725.40	2396.12
725.58	2181.09
725.76	2357.21
725.94	2287.58
726.12	2121.70
726.30	2211.81
726.49	2252.77
726.67	2289.63
726.85	2400.22
727.03	2523.10
727.21	3676.10
727.39	5128.11
727.57	5924.77
727.76	6627.23
727.94	6832.02
728.12	6459.29
728.30	5203.89
728.48	4501.44
728.66	4126.66
728.84	3899.33
729.03	3379.15
729.21	3049.43
729.39	2742.23
729.57	2396.12
729.75	2453.47
729.93	2349.02
730.11	2170.85
730.30	2293.72
730.48	2263.01
730.66	2392.03
730.84	2230.24
731.02	2260.96
731.20	2258.91
731.38	2248.67
731.56	2142.18
731.74	2125.79
731.93	2322.40
732.11	2258.91
732.29	2269.15
732.47	2181.09
732.65	2256.86
732.83	2369.50
733.01	2328.54
733.19	2213.85
733.37	2263.01
733.56	2324.44
733.74	2197.47
733.92	2400.22
734.10	2140.13
734.28	2373.60
734.46	2127.84
734.64	2293.72
734.82	2203.61
735.00	2260.96
735.18	2127.84
735.36	2316.25
735.54	2238.43
735.73	2328.54
735.91	2306.01
736.09	2322.40
736.27	2154.46
736.45	2318.30
736.63	2097.12
736.81	2154.46
736.99	2412.51
737.17	2365.40
737.35	2111.46
737.53	2289.63
737.71	2179.04
737.89	2402.27
738.07	2166.75
738.25	2131.94
738.43	2084.83
738.61	2238.43
738.80	2179.04
738.98	2127.84
739.16	2170.85
739.34	2115.55
739.52	2432.99
739.70	2269.15
739.88	2316.25
740.06	2359.26
740.24	2109.41
740.42	2396.12
740.60	2086.88
740.78	2164.70
740.96	2111.46
741.14	2154.46
741.32	2324.44
741.50	2172.89
741.68	2447.32
741.86	2420.70
742.04	2172.89
742.22	2131.94
742.40	2244.57
742.58	2361.31
742.76	2195.42
742.94	2293.72
743.12	2107.36
743.30	2207.71
743.48	2404.32
743.66	2113.50
743.84	2295.77
744.02	2207.71
744.20	2326.49
744.38	2146.27
744.56	2215.90
744.74	2455.51
744.92	2265.05
745.10	2404.32
745.28	2267.10
745.46	2480.09
745.64	2238.43
745.82	2359.26
746.00	2220.00
746.18	2269.15
746.36	2154.46
746.54	2306.01
746.72	2191.33
746.90	2230.24
747.08	2426.84
747.26	2228.19
747.44	2275.29
747.62	2322.40
747.80	2314.20
747.98	2340.83
748.15	2250.72
748.33	2441.18
748.51	2306.01
748.69	2377.69
748.87	2172.89
749.05	2187.23
749.23	2174.94
749.41	2324.44
749.59	2199.52
749.77	2351.07
749.95	2199.52
750.13	2244.57
750.31	2269.15
750.49	2258.91
750.67	2318.30
750.85	2365.40
751.03	2248.67
751.20	2426.84
751.38	2187.23
751.56	2168.80
751.74	2228.19
751.92	2256.86
752.10	2203.61
752.28	2404.32
752.46	2215.90
752.64	2209.76
752.82	2265.05
753.00	2330.59
753.18	2217.95
753.35	2244.57
753.53	2197.47
753.71	2176.99
753.89	2267.10
754.07	2260.96
754.25	2299.87
754.43	2332.64
754.61	2236.38
754.79	2299.87
754.97	2273.25
755.14	2342.88
755.32	2113.50
755.50	2256.86
755.68	2211.81
755.86	2203.61
756.04	2174.94
756.22	2076.64
756.40	2324.44
756.57	2439.13
756.75	2234.33
756.93	2369.50
757.11	2275.29
757.29	2168.80
757.47	2203.61
757.65	2090.98
757.82	2037.73
758.00	2109.41
758.18	2174.94
758.36	2156.51
758.54	2373.60
758.72	2113.50
758.90	2373.60
759.07	2306.01
759.25	2176.99
759.43	2369.50
759.61	2140.13
759.79	3012.56
759.97	2383.84
760.15	2232.29
760.32	2193.37
760.50	2240.48
760.68	2353.12
760.86	2054.11
761.04	2402.27
761.22	2322.40
761.39	2222.05
761.57	2293.72
761.75	2199.52
761.93	2330.59
762.11	2215.90
762.28	2226.14
762.46	2187.23
762.64	2437.08
762.82	2189.28
763.00	2234.33
763.18	2371.55
763.35	2123.74
763.53	2308.06
763.71	2269.15
763.89	2203.61
764.07	2258.91
764.24	2236.38
764.42	2351.07
764.60	2250.72
764.78	2275.29
764.96	2408.41
765.13	2351.07
765.31	2205.66
765.49	2275.29
765.67	2144.22
765.84	2162.66
766.02	2123.74
766.20	2172.89
766.38	2265.05
766.56	2232.29
766.73	2338.78
766.91	2195.42
767.09	2238.43
767.27	2326.49
767.44	2158.56
767.62	2340.83
767.80	2301.92
767.98	2209.76
768.15	2207.71
768.33	2340.83
768.51	2359.26
768.69	2201.57
768.87	2277.34
769.04	2240.48
769.22	2494.43
769.40	2414.56
769.58	2449.37
769.75	2250.72
769.93	2432.99
770.11	2275.29
770.28	2203.61
770.46	2242.53
770.64	2318.30
770.82	2193.37
770.99	2164.70
771.17	2299.87
771.35	2240.48
771.53	2189.28
771.70	2224.09
771.88	2351.07
772.06	2242.53
772.23	2258.91
772.41	2297.82
772.59	2260.96
772.77	2185.18
772.94	2195.42
773.12	2201.57
773.30	2244.57
773.47	2211.81
773.65	2226.14
773.83	2314.20
774.01	2203.61
774.18	2107.36
774.36	2236.38
774.54	2168.80
774.71	2303.96
774.89	2052.06
775.07	2138.08
775.24	2289.63
775.42	2252.77
775.60	2359.26
775.78	2199.52
775.95	2150.37
776.13	2109.41
776.31	2121.70
776.48	2252.77
776.66	2365.40
776.84	2220.00
777.01	2117.60
777.19	2291.68
777.37	2125.79
777.54	2371.55
777.72	2392.03
777.90	2248.67
778.07	2187.23
778.25	2586.58
778.43	2318.30
778.60	2158.56
778.78	2271.20
778.96	2349.02
779.13	2179.04
779.31	2289.63
779.49	2238.43
779.66	2236.38
779.84	2232.29
780.01	2318.30
780.19	2256.86
780.37	2361.31
780.54	2232.29
780.72	2203.61
780.90	2238.43
781.07	2256.86
781.25	2142.18
781.43	2256.86
781.60	2226.14
781.78	2439.13
781.95	2301.92
782.13	2195.42
782.31	2183.13
782.48	2029.54
782.66	2250.72
782.83	2373.60
783.01	2322.40
783.19	2367.45
783.36	2244.57
783.54	2138.08
783.72	2367.45
783.89	2142.18
784.07	2248.67
784.24	2326.49
784.42	2369.50
784.60	2281.44
784.77	2301.92
784.95	2088.93
785.12	2144.22
785.30	2269.15
785.47	2197.47
785.65	2164.70
785.83	2170.85
786.00	2113.50
786.18	2197.47
786.35	2189.28
786.53	2201.57
786.71	2285.53
786.88	2306.01
787.06	2217.95
787.23	2234.33
787.41	2197.47
787.58	2195.42
787.76	2166.75
787.94	2242.53
788.11	2230.24
788.29	2133.98
788.46	2142.18
788.64	2183.13
788.81	2201.57
788.99	2174.94
789.16	2158.56
789.34	2293.72
789.52	2123.74
789.69	2269.15
789.87	2101.22
790.04	2224.09
790.22	2250.72
790.39	2492.38
790.57	2176.99
790.74	2197.47
790.92	2293.72
791.09	2109.41
791.27	2283.49
791.44	2432.99
791.62	2203.61
791.79	2351.07
791.97	2234.33
792.15	2498.52
792.32	2351.07
792.50	2289.63
792.67	2338.78
792.85	2357.21
793.02	2267.10
793.20	2269.15
793.37	2090.98
793.55	2263.01
793.72	2265.05
793.90	2316.25
794.07	2164.70
794.25	2133.98
794.42	2260.96
794.60	2238.43
794.77	2295.77
794.95	2254.81
795.12	2328.54
795.30	2287.58
795.47	2121.70
795.65	2533.34
795.82	2281.44
796.00	2170.85
796.17	2238.43
796.34	2158.56
796.52	2252.77
796.69	2277.34
796.87	2361.31
797.04	2279.39
797.22	2392.03
797.39	2267.10
797.57	2338.78
797.74	2207.71
797.92	2324.44
798.09	2127.84
798.27	2340.83
798.44	2088.93
798.62	2181.09
798.79	2310.11
798.96	2308.06
799.14	2299.87
799.31	2508.76
799.49	2260.96
799.66	2244.57
799.84	2158.56
800.01	2060.26
800.19	2220.00
800.36	2136.03
800.53	2338.78
800.71	2273.25
800.88	2353.12
801.06	2203.61
801.23	2236.38
801.41	2211.81
801.58	2187.23
801.75	2160.61
801.93	2217.95
802.10	2297.82
802.28	2252.77
802.45	2217.95
802.63	2252.77
802.80	2383.84
802.97	2228.19
803.15	2164.70
803.32	2207.71
803.50	2140.13
803.67	2095.07
803.84	2232.29
804.02	2256.86
804.19	2220.00
804.37	2002.91
804.54	2160.61
804.71	2187.23
804.89	2148.32
805.06	2086.88
805.24	2191.33
805.41	2162.66
805.58	2187.23
805.76	2506.71
805.93	2224.09
806.10	2322.40
806.28	2283.49
806.45	2275.29
806.63	2271.20
806.80	2303.96
806.97	2297.82
807.15	2287.58
807.32	2289.63
807.49	2287.58
807.67	2086.88
807.84	2326.49
808.01	2109.41
808.19	2412.51
808.36	2539.48
808.54	2234.33
808.71	2127.84
808.88	2191.33
809.06	2318.30
809.23	2445.27
809.40	2203.61
809.58	2244.57
809.75	2195.42
809.92	2146.27
810.10	2465.75
810.27	2217.95
810.44	2312.16
810.62	2242.53
810.79	2254.81
810.96	2170.85
811.14	2222.05
811.31	2230.24
811.48	2281.44
811.66	2211.81
811.83	2365.40
812.00	2330.59
812.18	2222.05
812.35	2398.17
812.52	2170.85
812.69	2150.37
812.87	2230.24
813.04	2162.66
813.21	2185.18
813.39	2199.52
813.56	2113.50
813.73	2320.35
813.91	2099.17
814.08	2258.91
814.25	2277.34
814.42	2123.74
814.60	2211.81
814.77	2260.96
814.94	2185.18
815.12	2238.43
815.29	2379.74
815.46	2162.66
815.63	2168.80
815.81	2199.52
815.98	2236.38
816.15	2211.81
816.33	2281.44
816.50	2224.09
816.67	2260.96
816.84	2217.95
817.02	2144.22
817.19	2203.61
817.36	2279.39
817.53	2248.67
817.71	2201.57
817.88	2256.86
818.05	2174.94
818.22	2150.37
818.40	2457.56
818.57	2205.66
818.74	2287.58
818.91	2213.85
819.09	2346.97
819.26	2285.53
819.43	2193.37
819.60	2226.14
819.78	2285.53
819.95	2351.07
820.12	2203.61
820.29	2402.27
820.47	2297.82
820.64	2230.24
820.81	2074.59
820.98	2215.90
821.15	2310.11
821.33	2303.96
821.50	2088.93
821.67	2209.76
821.84	2172.89
822.02	2291.68
822.19	2301.92
822.36	2269.15
822.53	2199.52
822.70	2146.27
822.88	2191.33
823.05	2346.97
823.22	2224.09
823.39	2203.61
823.56	2144.22
823.74	2416.60
823.91	2136.03
824.08	2193.37
824.25	2138.08
824.42	2439.13
824.60	2148.32
824.77	2287.58
824.94	2213.85
825.11	2291.68
825.28	2160.61
825.45	2258.91
825.63	2160.61
825.80	2179.04
825.97	2230.24
826.14	2269.15
826.31	2080.74
826.48	2287.58
826.66	2250.72
826.83	2125.79
827.00	2260.96
827.17	2168.80
827.34	2254.81
827.51	2162.66
827.69	2301.92
827.86	2136.03
828.03	2277.34
828.20	2228.19
828.37	2129.89
828.54	2375.64
828.71	2191.33
828.89	2346.97
829.06	2238.43
829.23	2410.46
829.40	2133.98
829.57	2146.27
829.74	2322.40
829.91	2133.98
830.09	2199.52
830.26	2236.38
830.43	2359.26
830.60	2203.61
830.77	2267.10
830.94	2252.77
831.11	2277.34
831.28	2203.61
831.46	2308.06
831.63	2213.85
831.80	2232.29
831.97	2111.46
832.14	2211.81
832.31	2279.39
832.48	2232.29
832.65	2392.03
832.82	2226.14
832.99	2318.30
833.17	2185.18
833.34	2375.64
833.51	2332.64
833.68	2088.93
833.85	2392.03
834.02	2142.18
834.19	2125.79
834.36	2148.32
834.53	2258.91
834.70	2383.84
834.87	2258.91
835.04	2144.22
835.22	2156.51
835.39	2250.72
835.56	2115.55
835.73	2205.66
835.90	2326.49
836.07	2152.42
836.24	2297.82
836.41	2193.37
836.58	2162.66
836.75	2357.21
836.92	2170.85
837.09	2236.38
837.26	2365.40
837.43	2301.92
837.60	2224.09
837.77	2152.42
837.94	2312.16
838.12	2387.93
838.29	2252.77
838.46	2047.97
838.63	2088.93
838.80	2465.75
838.97	2256.86
839.14	2224.09
839.31	2258.91
839.48	2326.49
839.65	2127.84
839.82	2328.54
839.99	2285.53
840.16	2244.57
840.33	2174.94
840.50	2211.81
840.67	2209.76
840.84	2097.12
841.01	2217.95
841.18	2254.81
841.35	2195.42
841.52	2336.73
841.69	2432.99
841.86	2222.05
842.03	2267.10
842.20	2324.44
842.37	2140.13
842.54	2205.66
842.71	2289.63
842.88	2097.12
843.05	2314.20
843.22	2187.23
843.39	2252.77
843.56	2195.42
843.73	2265.05
843.90	2234.33
844.07	2275.29
844.24	2361.31
844.41	2279.39
844.58	2195.42
844.75	2228.19
844.92	2312.16
845.09	2234.33
845.26	2144.22
845.43	2346.97
845.60	2277.34
845.77	2320.35
845.94	2195.42
846.10	2285.53
846.27	2111.46
846.44	2144.22
846.61	2070.50
846.78	2324.44
846.95	2316.25
847.12	2146.27
847.29	2252.77
847.46	2176.99
847.63	2324.44
847.80	2170.85
847.97	2191.33
848.14	2529.24
848.31	2166.75
848.48	2078.69
848.65	2228.19
848.82	2146.27
848.98	2488.28
849.15	2228.19
849.32	2269.15
849.49	2408.41
849.66	2258.91
849.83	2209.76
850.00	2068.45
850.17	2256.86
850.34	2185.18
850.51	2129.89
850.68	2199.52
850.85	2432.99
851.01	2340.83
851.18	2193.37
851.35	2250.72
851.52	2324.44
851.69	2344.92
851.86	2150.37
852.03	2215.90
852.20	2308.06
852.37	2260.96
852.53	2054.11
852.70	2201.57
852.87	2265.05
853.04	2328.54
853.21	2189.28
853.38	2308.06
853.55	2420.70
853.72	2353.12
853.89	2109.41
854.05	2129.89
854.22	2244.57
854.39	2244.57
854.56	2189.28
854.73	2269.15
854.90	2179.04
855.07	2146.27
855.23	2211.81
855.40	2183.13
855.57	2209.76
855.74	2066.40
855.91	2435.03
856.08	2039.78
856.25	2152.42
856.41	2207.71
856.58	2162.66
856.75	2174.94
856.92	2113.50
857.09	2283.49
857.26	2107.36
857.42	2142.18
857.59	2301.92
857.76	2205.66
857.93	2133.98
858.10	2289.63
858.27	2187.23
858.43	2242.53
858.60	2181.09
858.77	2068.45
858.94	2244.57
859.11	2314.20
859.27	2224.09
859.44	2197.47
859.61	2437.08
859.78	2301.92
859.95	2164.70
860.12	2158.56
860.28	2412.51
860.45	2465.75
860.62	2127.84
860.79	2291.68
860.95	2195.42
861.12	2156.51
861.29	2131.94
861.46	2172.89
861.63	2185.18
861.79	2256.86
861.96	2142.18
862.13	2160.61
862.30	2328.54
862.47	2207.71
862.63	2097.12
862.80	2293.72
862.97	2269.15
863.14	2275.29
863.30	2232.29
863.47	2207.71
863.64	2414.56
863.81	2250.72
863.97	2121.70
864.14	2220.00
864.31	2146.27
864.48	2283.49
864.65	2129.89
864.81	2291.68
864.98	2310.11
865.15	2332.64
865.32	2234.33
865.48	2301.92
865.65	2363.36
865.82	2203.61
865.98	2211.81
866.15	2355.16
866.32	2260.96
866.49	2267.10
866.65	2301.92
866.82	2115.55
866.99	2340.83
867.16	2197.47
867.32	2109.41
867.49	2072.54
867.66	2226.14
867.83	2222.05
867.99	2152.42
868.16	2195.42
868.33	2170.85
868.49	2258.91
868.66	2197.47
868.83	2340.83
868.99	2203.61
869.16	2254.81
869.33	2322.40
869.50	2283.49
869.66	2183.13
869.83	2244.57
870.00	2183.13
870.16	2277.34
870.33	2238.43
870.50	2308.06
870.66	2193.37
870.83	2310.11
871.00	2252.77
871.17	2301.92
871.33	2252.77
871.50	2168.80
871.67	2293.72
871.83	2185.18
872.00	2330.59
872.17	2131.94
872.33	2385.88
872.50	2322.40
872.67	2242.53
872.83	2185.18
873.00	2279.39
873.17	2277.34
873.33	2306.01
873.50	2287.58
873.67	2152.42
873.83	2209.76
874.00	2234.33
874.16	2265.05
874.33	2168.80
874.50	2154.46
874.66	2168.80
874.83	2224.09
875.00	2332.64
875.16	2406.36
875.33	2301.92
875.50	2064.35
875.66	2258.91
875.83	2340.83
875.99	2291.68
876.16	2176.99
876.33	2103.26
876.49	2258.91
876.66	2215.90
876.83	2133.98
876.99	2174.94
877.16	2191.33
877.32	2064.35
877.49	2199.52
877.66	2318.30
877.82	2379.74
877.99	2199.52
878.15	2297.82
878.32	2285.53
878.49	2220.00
878.65	2131.94
878.82	2353.12
878.98	2230.24
879.15	2392.03
879.32	2328.54
879.48	2236.38
879.65	2166.75
879.81	2201.57
879.98	2125.79
880.15	2166.75
880.31	2203.61
880.48	2205.66
880.64	2326.49
880.81	2301.92
880.97	2375.64
881.14	2359.26
881.31	2090.98
881.47	2445.27
881.64	2166.75
881.80	2082.78
881.97	2299.87
882.13	2242.53
882.30	2146.27
882.47	2215.90
882.63	2209.76
882.80	2203.61
882.96	2168.80
883.13	2408.41
883.29	2193.37
883.46	2205.66
883.62	2490.33
883.79	2275.29
883.95	2400.22
884.12	2220.00
884.29	2324.44
884.45	2189.28
884.62	2250.72
884.78	2129.89
884.95	2318.30
885.11	2156.51
885.28	2236.38
885.44	2193.37
885.61	2322.40
885.77	2359.26
885.94	2267.10
886.10	2197.47
886.27	2289.63
886.43	2449.37
886.60	2308.06
886.76	2105.31
886.93	2105.31
887.09	2211.81
887.26	2068.45
887.42	2242.53
887.59	2387.93
887.75	2455.51
887.92	2281.44
888.08	2291.68
888.25	2506.71
888.41	2412.51
888.58	2301.92
888.74	2074.59
888.91	2172.89
>>>>>End Processed Spectral Data<<<<<
