SpectraSuite Data File
++++++++++++++++++++++++++++++++++++
Date: Thu May 05 13:21:19 CEST 2016
User: root
Dark Spectrum Present: No
Reference Spectrum Present: No
Number of Sampled Component Spectra: 1
Spectrometers: USB4C02835
Integration Time (usec): 100000 (USB4C02835)
Spectra Averaged: 1 (USB4C02835)
Boxcar Smoothing: 0 (USB4C02835)
Correct for Electrical Dark: No (USB4C02835)
Strobe/Lamp Enabled: No (USB4C02835)
Correct for Detector Non-linearity: No (USB4C02835)
Correct for Stray Light: No (USB4C02835)
Number of Pixels in Processed Spectrum: 3648
>>>>>Begin Processed Spectral Data<<<<<
177.47	1798.12
177.69	1798.12
177.91	1798.12
178.13	1832.93
178.36	1816.55
178.58	2090.98
178.80	2342.88
179.02	2074.59
179.24	2185.18
179.46	2133.98
179.68	2240.48
179.90	2207.71
180.13	2199.52
180.35	2117.60
180.57	2226.14
180.79	2402.27
181.01	2211.81
181.23	2211.81
181.45	2260.96
181.67	2336.73
181.90	2357.21
182.12	2195.42
182.34	2074.59
182.56	2310.11
182.78	2234.33
183.00	2185.18
183.22	2154.46
183.44	2099.17
183.66	2498.52
183.89	2199.52
184.11	2244.57
184.33	2359.26
184.55	2318.30
184.77	2185.18
184.99	2179.04
185.21	2211.81
185.43	2559.96
185.65	2138.08
185.87	2154.46
186.10	2484.19
186.32	2488.28
186.54	2306.01
186.76	2265.05
186.98	2394.08
187.20	2240.48
187.42	2254.81
187.64	2228.19
187.86	2316.25
188.08	2332.64
188.30	2142.18
188.52	2213.85
188.75	2441.18
188.97	2453.47
189.19	2105.31
189.41	2146.27
189.63	2277.34
189.85	2160.61
190.07	2064.35
190.29	2050.02
190.51	2365.40
190.73	2156.51
190.95	2277.34
191.17	2299.87
191.39	2097.12
191.61	2299.87
191.84	2138.08
192.06	2179.04
192.28	2140.13
192.50	2537.43
192.72	2248.67
192.94	2240.48
193.16	2404.32
193.38	2322.40
193.60	2144.22
193.82	2256.86
194.04	2435.03
194.26	2289.63
194.48	2174.94
194.70	2152.42
194.92	2228.19
195.14	2365.40
195.36	2109.41
195.58	2281.44
195.80	2211.81
196.02	2289.63
196.24	2248.67
196.46	2183.13
196.69	2258.91
196.91	2545.63
197.13	2168.80
197.35	2162.66
197.57	2439.13
197.79	2369.50
198.01	2220.00
198.23	2185.18
198.45	2295.77
198.67	2131.94
198.89	2047.97
199.11	2287.58
199.33	2293.72
199.55	2078.69
199.77	2113.50
199.99	2281.44
200.21	2291.68
200.43	2238.43
200.65	2121.70
200.87	2045.92
201.09	2242.53
201.31	2322.40
201.53	2199.52
201.75	2215.90
201.97	2326.49
202.19	2299.87
202.41	2199.52
202.63	2342.88
202.85	2332.64
203.07	2318.30
203.29	2269.15
203.51	2056.16
203.73	2156.51
203.95	2564.06
204.17	2152.42
204.39	2248.67
204.61	2263.01
204.83	2228.19
205.05	2322.40
205.27	2287.58
205.49	2506.71
205.71	2256.86
205.93	2101.22
206.15	2189.28
206.37	2250.72
206.59	2277.34
206.81	2070.50
207.03	2142.18
207.25	2146.27
207.47	2306.01
207.69	2162.66
207.91	2334.68
208.13	2367.45
208.34	2228.19
208.56	2144.22
208.78	2226.14
209.00	2199.52
209.22	2166.75
209.44	2201.57
209.66	2185.18
209.88	2252.77
210.10	2275.29
210.32	2244.57
210.54	2332.64
210.76	2252.77
210.98	2363.36
211.20	2047.97
211.42	2301.92
211.64	2371.55
211.86	2275.29
212.08	2215.90
212.30	2150.37
212.52	2217.95
212.74	2318.30
212.96	2248.67
213.17	2234.33
213.39	2342.88
213.61	2455.51
213.83	2133.98
214.05	2269.15
214.27	2324.44
214.49	2203.61
214.71	2160.61
214.93	2312.16
215.15	2287.58
215.37	2314.20
215.59	2050.02
215.81	2252.77
216.03	2351.07
216.24	2213.85
216.46	2187.23
216.68	2215.90
216.90	2359.26
217.12	2453.47
217.34	2193.37
217.56	2201.57
217.78	2400.22
218.00	2326.49
218.22	2195.42
218.44	2168.80
218.66	2283.49
218.87	2488.28
219.09	2260.96
219.31	2234.33
219.53	2244.57
219.75	2195.42
219.97	2240.48
220.19	2193.37
220.41	2291.68
220.63	2449.37
220.85	2189.28
221.06	2211.81
221.28	2338.78
221.50	2363.36
221.72	2154.46
221.94	2129.89
222.16	2238.43
222.38	2414.56
222.60	2174.94
222.82	2203.61
223.03	2371.55
223.25	2146.27
223.47	2201.57
223.69	2326.49
223.91	2312.16
224.13	2232.29
224.35	2119.65
224.57	2185.18
224.78	2244.57
225.00	2148.32
225.22	2246.62
225.44	2191.33
225.66	2293.72
225.88	2265.05
226.10	2211.81
226.32	2197.47
226.53	2441.18
226.75	2203.61
226.97	2187.23
227.19	2144.22
227.41	2183.13
227.63	2217.95
227.85	2109.41
228.06	2217.95
228.28	2334.68
228.50	2342.88
228.72	2093.02
228.94	2156.51
229.16	2039.78
229.37	2138.08
229.59	2047.97
229.81	2310.11
230.03	2203.61
230.25	2115.55
230.47	2072.54
230.69	2086.88
230.90	2299.87
231.12	2185.18
231.34	2181.09
231.56	2234.33
231.78	2121.70
232.00	2217.95
232.21	2203.61
232.43	2236.38
232.65	2037.73
232.87	2392.03
233.09	2080.74
233.30	2144.22
233.52	2371.55
233.74	2275.29
233.96	2179.04
234.18	2213.85
234.40	2250.72
234.61	2496.47
234.83	2103.26
235.05	2117.60
235.27	2441.18
235.49	2381.79
235.70	2193.37
235.92	2240.48
236.14	2353.12
236.36	2559.96
236.58	2080.74
236.79	2248.67
237.01	2203.61
237.23	2242.53
237.45	2377.69
237.67	2078.69
237.88	2267.10
238.10	2412.51
238.32	2115.55
238.54	2088.93
238.76	2244.57
238.97	2127.84
239.19	2146.27
239.41	2277.34
239.63	2379.74
239.85	2205.66
240.06	2166.75
240.28	2129.89
240.50	2291.68
240.72	2232.29
240.93	2170.85
241.15	2250.72
241.37	2244.57
241.59	2451.42
241.81	2193.37
242.02	2213.85
242.24	2267.10
242.46	2322.40
242.68	2099.17
242.89	2195.42
243.11	2349.02
243.33	2265.05
243.55	2244.57
243.76	2226.14
243.98	2138.08
244.20	2297.82
244.42	2203.61
244.64	2238.43
244.85	2144.22
245.07	2252.77
245.29	2256.86
245.51	2168.80
245.72	2275.29
245.94	2406.36
246.16	2187.23
246.38	2185.18
246.59	2187.23
246.81	2174.94
247.03	2162.66
247.24	2027.49
247.46	2195.42
247.68	2222.05
247.90	2160.61
248.11	2191.33
248.33	2326.49
248.55	2342.88
248.77	2156.51
248.98	2203.61
249.20	2416.60
249.42	2258.91
249.64	2183.13
249.85	2170.85
250.07	2115.55
250.29	2357.21
250.50	2283.49
250.72	2047.97
250.94	2351.07
251.16	2373.60
251.37	2170.85
251.59	2226.14
251.81	2359.26
252.02	2363.36
252.24	2146.27
252.46	2293.72
252.68	2088.93
252.89	2211.81
253.11	2060.26
253.33	2285.53
253.54	2367.45
253.76	2142.18
253.98	2142.18
254.20	2146.27
254.41	2111.46
254.63	2240.48
254.85	2088.93
255.06	2197.47
255.28	2338.78
255.50	2150.37
255.71	2121.70
255.93	2142.18
256.15	2314.20
256.36	2357.21
256.58	2095.07
256.80	2195.42
257.02	2256.86
257.23	2244.57
257.45	2185.18
257.67	2267.10
257.88	2220.00
258.10	2289.63
258.32	2195.42
258.53	2209.76
258.75	2375.64
258.97	2203.61
259.18	2129.89
259.40	2103.26
259.62	2367.45
259.83	2445.27
260.05	2260.96
260.27	2678.74
260.48	2363.36
260.70	2150.37
260.92	2234.33
261.13	2220.00
261.35	2279.39
261.57	2338.78
261.78	2078.69
262.00	2076.64
262.22	2303.96
262.43	2250.72
262.65	2279.39
262.86	2195.42
263.08	2480.09
263.30	2246.62
263.51	2015.20
263.73	2185.18
263.95	2369.50
264.16	2211.81
264.38	2140.13
264.60	2201.57
264.81	2236.38
265.03	2373.60
265.25	2334.68
265.46	2136.03
265.68	2447.32
265.89	2260.96
266.11	2088.93
266.33	2211.81
266.54	2324.44
266.76	2346.97
266.98	2363.36
267.19	2220.00
267.41	2361.31
267.62	2205.66
267.84	2031.58
268.06	2260.96
268.27	2244.57
268.49	2373.60
268.70	2242.53
268.92	2224.09
269.14	2119.65
269.35	2080.74
269.57	2201.57
269.79	2328.54
270.00	2146.27
270.22	2418.65
270.43	2160.61
270.65	1955.81
270.87	2287.58
271.08	2334.68
271.30	2228.19
271.51	2250.72
271.73	2297.82
271.95	2353.12
272.16	2224.09
272.38	2170.85
272.59	2220.00
272.81	2441.18
273.02	2254.81
273.24	2197.47
273.46	2375.64
273.67	2146.27
273.89	2109.41
274.10	2211.81
274.32	2359.26
274.54	2285.53
274.75	2256.86
274.97	2201.57
275.18	2289.63
275.40	2310.11
275.61	2179.04
275.83	2220.00
276.05	2127.84
276.26	2277.34
276.48	2244.57
276.69	2203.61
276.91	2154.46
277.12	2408.41
277.34	2263.01
277.55	2291.68
277.77	2338.78
277.99	2217.95
278.20	2121.70
278.42	2105.31
278.63	2164.70
278.85	2133.98
279.06	2133.98
279.28	2222.05
279.49	2349.02
279.71	2244.57
279.93	2256.86
280.14	2207.71
280.36	2160.61
280.57	2310.11
280.79	2299.87
281.00	2078.69
281.22	2179.04
281.43	2322.40
281.65	2066.40
281.86	2162.66
282.08	2297.82
282.29	2416.60
282.51	2131.94
282.73	2146.27
282.94	2056.16
283.16	2396.12
283.37	2346.97
283.59	2211.81
283.80	2244.57
284.02	2312.16
284.23	2273.25
284.45	2158.56
284.66	2168.80
284.88	2220.00
285.09	2222.05
285.31	2322.40
285.52	2293.72
285.74	2109.41
285.95	2324.44
286.17	2211.81
286.38	2334.68
286.60	2205.66
286.81	2199.52
287.03	2248.67
287.24	2301.92
287.46	2306.01
287.67	2242.53
287.89	2336.73
288.10	2244.57
288.32	2258.91
288.53	2371.55
288.75	2299.87
288.96	2293.72
289.18	2166.75
289.39	2205.66
289.61	2285.53
289.82	2488.28
290.04	2500.57
290.25	2162.66
290.47	2201.57
290.68	2199.52
290.90	2332.64
291.11	2070.50
291.33	2277.34
291.54	2170.85
291.76	2228.19
291.97	2281.44
292.18	2314.20
292.40	2174.94
292.61	2158.56
292.83	2416.60
293.04	2263.01
293.26	2260.96
293.47	2191.33
293.69	2072.54
293.90	2187.23
294.12	2365.40
294.33	2277.34
294.55	2238.43
294.76	2267.10
294.97	2342.88
295.19	2439.13
295.40	2240.48
295.62	2226.14
295.83	2283.49
296.05	2154.46
296.26	2330.59
296.48	2101.22
296.69	2226.14
296.90	2252.77
297.12	2252.77
297.33	2301.92
297.55	2215.90
297.76	2269.15
297.98	2318.30
298.19	2281.44
298.41	2295.77
298.62	2150.37
298.83	2383.84
299.05	2203.61
299.26	2162.66
299.48	2244.57
299.69	2346.97
299.90	2234.33
300.12	2199.52
300.33	2334.68
300.55	2248.67
300.76	2289.63
300.98	2154.46
301.19	2273.25
301.40	2170.85
301.62	2195.42
301.83	2263.01
302.05	2201.57
302.26	2181.09
302.47	2299.87
302.69	2150.37
302.90	2240.48
303.12	2058.21
303.33	2285.53
303.54	2437.08
303.76	2269.15
303.97	2303.96
304.19	2344.92
304.40	2136.03
304.61	2275.29
304.83	2439.13
305.04	2336.73
305.26	2277.34
305.47	2179.04
305.68	2226.14
305.90	2136.03
306.11	2379.74
306.33	2209.76
306.54	2119.65
306.75	2113.50
306.97	2084.83
307.18	2125.79
307.39	2193.37
307.61	2256.86
307.82	2250.72
308.04	2301.92
308.25	2119.65
308.46	2207.71
308.68	2289.63
308.89	2236.38
309.10	2330.59
309.32	2207.71
309.53	2275.29
309.74	2312.16
309.96	2179.04
310.17	2301.92
310.39	2133.98
310.60	2316.25
310.81	2267.10
311.03	2144.22
311.24	2291.68
311.45	2289.63
311.67	2387.93
311.88	2295.77
312.09	2199.52
312.31	2215.90
312.52	2191.33
312.73	2183.13
312.95	2195.42
313.16	2187.23
313.37	2412.51
313.59	2265.05
313.80	2400.22
314.01	2361.31
314.23	2260.96
314.44	2150.37
314.65	2088.93
314.87	2121.70
315.08	2201.57
315.29	2162.66
315.51	2275.29
315.72	2172.89
315.93	2326.49
316.15	2357.21
316.36	2201.57
316.57	2246.62
316.79	2279.39
317.00	2260.96
317.21	2295.77
317.43	2168.80
317.64	2289.63
317.85	2199.52
318.07	2164.70
318.28	2275.29
318.49	2334.68
318.70	2537.43
318.92	2387.93
319.13	2400.22
319.34	2402.27
319.56	2310.11
319.77	2416.60
319.98	2437.08
320.20	2367.45
320.41	2277.34
320.62	2277.34
320.83	2140.13
321.05	2447.32
321.26	2254.81
321.47	2265.05
321.69	2359.26
321.90	2174.94
322.11	2295.77
322.32	2260.96
322.54	2340.83
322.75	2260.96
322.96	2572.25
323.18	2101.22
323.39	2052.06
323.60	2129.89
323.81	2332.64
324.03	2160.61
324.24	2215.90
324.45	2236.38
324.66	2220.00
324.88	2355.16
325.09	2453.47
325.30	2222.05
325.52	2207.71
325.73	2244.57
325.94	2172.89
326.15	2127.84
326.37	2197.47
326.58	2381.79
326.79	2435.03
327.00	2088.93
327.22	2224.09
327.43	2271.20
327.64	2133.98
327.85	2265.05
328.07	2279.39
328.28	2428.89
328.49	2215.90
328.70	2236.38
328.92	2195.42
329.13	2324.44
329.34	2320.35
329.55	2342.88
329.76	2293.72
329.98	2236.38
330.19	2367.45
330.40	2217.95
330.61	2275.29
330.83	2349.02
331.04	2195.42
331.25	2236.38
331.46	2179.04
331.68	2187.23
331.89	2400.22
332.10	2183.13
332.31	2088.93
332.52	2312.16
332.74	2355.16
332.95	2060.26
333.16	2080.74
333.37	2293.72
333.58	2187.23
333.80	2244.57
334.01	2021.35
334.22	2236.38
334.43	2228.19
334.64	2299.87
334.86	2107.36
335.07	2179.04
335.28	2408.41
335.49	2097.12
335.70	2353.12
335.92	2371.55
336.13	2453.47
336.34	2324.44
336.55	2185.18
336.76	2314.20
336.98	2099.17
337.19	2267.10
337.40	2404.32
337.61	2473.95
337.82	2213.85
338.04	2269.15
338.25	2076.64
338.46	2201.57
338.67	2205.66
338.88	2187.23
339.09	2105.31
339.31	2207.71
339.52	2138.08
339.73	2162.66
339.94	2244.57
340.15	2324.44
340.36	2131.94
340.58	2310.11
340.79	2172.89
341.00	2422.75
341.21	2168.80
341.42	2312.16
341.63	2234.33
341.85	2340.83
342.06	2252.77
342.27	2146.27
342.48	2336.73
342.69	2144.22
342.90	2340.83
343.12	2381.79
343.33	2189.28
343.54	2291.68
343.75	2332.64
343.96	2246.62
344.17	2093.02
344.38	2217.95
344.60	2146.27
344.81	2086.88
345.02	2297.82
345.23	2342.88
345.44	2512.86
345.65	2291.68
345.86	2258.91
346.07	2340.83
346.29	2168.80
346.50	2287.58
346.71	2336.73
346.92	2381.79
347.13	2559.96
347.34	2232.29
347.55	2211.81
347.76	2211.81
347.98	2164.70
348.19	2260.96
348.40	2344.92
348.61	2129.89
348.82	2492.38
349.03	2226.14
349.24	2125.79
349.45	2449.37
349.66	2133.98
349.88	2260.96
350.09	2146.27
350.30	2424.80
350.51	2299.87
350.72	2332.64
350.93	2209.76
351.14	2224.09
351.35	2260.96
351.56	2273.25
351.77	2179.04
351.99	2342.88
352.20	2459.61
352.41	2336.73
352.62	2068.45
352.83	2246.62
353.04	2187.23
353.25	2299.87
353.46	2314.20
353.67	2346.97
353.88	2066.40
354.09	2234.33
354.30	2285.53
354.52	2260.96
354.73	2303.96
354.94	2170.85
355.15	2240.48
355.36	2428.89
355.57	2203.61
355.78	2242.53
355.99	2224.09
356.20	2250.72
356.41	2420.70
356.62	2355.16
356.83	2232.29
357.04	2400.22
357.25	2052.06
357.46	2211.81
357.68	2113.50
357.89	2189.28
358.10	2271.20
358.31	2236.38
358.52	2160.61
358.73	2172.89
358.94	2123.74
359.15	2131.94
359.36	2306.01
359.57	2291.68
359.78	2242.53
359.99	2322.40
360.20	2220.00
360.41	2226.14
360.62	2281.44
360.83	2357.21
361.04	2256.86
361.25	2299.87
361.46	2428.89
361.67	2312.16
361.88	2238.43
362.09	2285.53
362.30	2340.83
362.51	2203.61
362.72	2336.73
362.93	2220.00
363.14	2277.34
363.35	2179.04
363.56	2162.66
363.78	2336.73
363.99	2365.40
364.20	2230.24
364.41	2281.44
364.62	2445.27
364.83	2230.24
365.04	2224.09
365.25	2258.91
365.46	2453.47
365.67	2185.18
365.88	2144.22
366.09	2228.19
366.30	2230.24
366.51	2176.99
366.72	2121.70
366.93	2203.61
367.14	2277.34
367.35	2404.32
367.56	2252.77
367.77	2332.64
367.98	2195.42
368.18	2277.34
368.39	2281.44
368.60	2242.53
368.81	2334.68
369.02	2306.01
369.23	2240.48
369.44	2121.70
369.65	2199.52
369.86	2324.44
370.07	2357.21
370.28	2187.23
370.49	2269.15
370.70	2312.16
370.91	2152.42
371.12	2144.22
371.33	2383.84
371.54	2172.89
371.75	2412.51
371.96	2002.91
372.17	2277.34
372.38	2252.77
372.59	2299.87
372.80	2125.79
373.01	2209.76
373.22	2248.67
373.43	2203.61
373.64	2174.94
373.85	2330.59
374.06	2424.80
374.26	2295.77
374.47	2340.83
374.68	2439.13
374.89	2217.95
375.10	2209.76
375.31	2254.81
375.52	2211.81
375.73	2291.68
375.94	2131.94
376.15	2344.92
376.36	2226.14
376.57	2240.48
376.78	2269.15
376.99	2289.63
377.20	2332.64
377.40	2222.05
377.61	2441.18
377.82	2148.32
378.03	2334.68
378.24	2291.68
378.45	2285.53
378.66	2265.05
378.87	1978.34
379.08	2146.27
379.29	2230.24
379.50	2361.31
379.71	2236.38
379.91	2314.20
380.12	2220.00
380.33	2195.42
380.54	2299.87
380.75	2228.19
380.96	2209.76
381.17	2338.78
381.38	2240.48
381.59	2316.25
381.80	2232.29
382.00	2396.12
382.21	2367.45
382.42	2482.14
382.63	2461.66
382.84	2363.36
383.05	2314.20
383.26	2449.37
383.47	2285.53
383.68	2277.34
383.88	2267.10
384.09	2267.10
384.30	2349.02
384.51	2275.29
384.72	2166.75
384.93	2154.46
385.14	2260.96
385.35	2277.34
385.55	2111.46
385.76	2424.80
385.97	2187.23
386.18	2162.66
386.39	2240.48
386.60	2236.38
386.81	2197.47
387.02	2156.51
387.22	2129.89
387.43	2406.36
387.64	2281.44
387.85	2455.51
388.06	2426.84
388.27	3913.67
388.48	8152.96
388.68	11552.59
388.89	13811.50
389.10	14915.36
389.31	13958.96
389.52	10792.80
389.73	9518.96
389.93	8654.72
390.14	7872.39
390.35	7118.74
390.56	6449.05
390.77	5193.65
390.98	4014.02
391.18	3217.36
391.39	2766.81
391.60	2383.84
391.81	2367.45
392.02	2265.05
392.23	2531.29
392.43	2258.91
392.64	2342.88
392.85	2250.72
393.06	2351.07
393.27	2297.82
393.47	2170.85
393.68	2289.63
393.89	2211.81
394.10	2402.27
394.31	2244.57
394.52	2119.65
394.72	2043.87
394.93	2422.75
395.14	2226.14
395.35	2275.29
395.56	2176.99
395.76	2271.20
395.97	2293.72
396.18	2297.82
396.39	2412.51
396.60	2752.47
396.80	2447.32
397.01	2525.15
397.22	2404.32
397.43	2426.84
397.64	2197.47
397.84	2383.84
398.05	2498.52
398.26	2287.58
398.47	2318.30
398.67	2334.68
398.88	2258.91
399.09	2338.78
399.30	2174.94
399.51	2353.12
399.71	2201.57
399.92	2293.72
400.13	2320.35
400.34	2220.00
400.54	2289.63
400.75	2387.93
400.96	2316.25
401.17	2426.84
401.37	2318.30
401.58	2267.10
401.79	2242.53
402.00	2344.92
402.21	2594.78
402.41	2559.96
402.62	2547.67
402.83	2785.24
403.04	2713.56
403.24	2752.47
403.45	2445.27
403.66	2514.91
403.87	2506.71
404.07	2545.63
404.28	2439.13
404.49	2500.57
404.70	2375.64
404.90	2408.41
405.11	2271.20
405.32	2301.92
405.52	2234.33
405.73	2144.22
405.94	2140.13
406.15	2277.34
406.35	2326.49
406.56	2322.40
406.77	2254.81
406.98	2271.20
407.18	2125.79
407.39	2389.98
407.60	2176.99
407.80	2226.14
408.01	2176.99
408.22	2297.82
408.43	2133.98
408.63	2224.09
408.84	2359.26
409.05	2324.44
409.25	2164.70
409.46	2256.86
409.67	2162.66
409.88	2193.37
410.08	2234.33
410.29	2185.18
410.50	2338.78
410.70	2328.54
410.91	2121.70
411.12	2301.92
411.32	2301.92
411.53	2129.89
411.74	2404.32
411.95	2338.78
412.15	2271.20
412.36	2318.30
412.57	2271.20
412.77	2473.95
412.98	2273.25
413.19	2232.29
413.39	2293.72
413.60	2349.02
413.81	2357.21
414.01	2162.66
414.22	2291.68
414.43	2285.53
414.63	2217.95
414.84	2346.97
415.05	2271.20
415.25	2129.89
415.46	2314.20
415.67	2215.90
415.87	2254.81
416.08	2244.57
416.29	2246.62
416.49	2303.96
416.70	2162.66
416.91	2185.18
417.11	2211.81
417.32	2293.72
417.53	2369.50
417.73	2269.15
417.94	2187.23
418.15	2326.49
418.35	2260.96
418.56	2158.56
418.77	2408.41
418.97	2162.66
419.18	2244.57
419.38	1994.72
419.59	2236.38
419.80	2363.36
420.00	2152.42
420.21	2228.19
420.42	2432.99
420.62	2269.15
420.83	2170.85
421.04	2242.53
421.24	2269.15
421.45	2320.35
421.65	2326.49
421.86	2140.13
422.07	2371.55
422.27	2283.49
422.48	2234.33
422.69	2160.61
422.89	2172.89
423.10	2226.14
423.30	2127.84
423.51	2281.44
423.72	2310.11
423.92	2256.86
424.13	2125.79
424.33	2224.09
424.54	2332.64
424.75	2273.25
424.95	2400.22
425.16	2322.40
425.36	2250.72
425.57	2406.36
425.78	2357.21
425.98	2256.86
426.19	2123.74
426.39	2228.19
426.60	2308.06
426.81	2353.12
427.01	2263.01
427.22	2162.66
427.42	2129.89
427.63	2136.03
427.83	2301.92
428.04	2422.75
428.25	2330.59
428.45	2351.07
428.66	2426.84
428.86	2195.42
429.07	2207.71
429.28	2199.52
429.48	2220.00
429.69	2133.98
429.89	2244.57
430.10	2113.50
430.30	2338.78
430.51	2377.69
430.71	2166.75
430.92	2158.56
431.13	2207.71
431.33	2281.44
431.54	2287.58
431.74	2389.98
431.95	2465.75
432.15	2156.51
432.36	2281.44
432.56	2283.49
432.77	2482.14
432.98	2428.89
433.18	2287.58
433.39	2183.13
433.59	2275.29
433.80	2449.37
434.00	2430.94
434.21	2244.57
434.41	2179.04
434.62	2449.37
434.82	2220.00
435.03	2224.09
435.23	2220.00
435.44	2121.70
435.64	2310.11
435.85	2324.44
436.06	2336.73
436.26	2392.03
436.47	2256.86
436.67	2215.90
436.88	2195.42
437.08	2299.87
437.29	2416.60
437.49	2230.24
437.70	2430.94
437.90	2400.22
438.11	2359.26
438.31	2361.31
438.52	2463.71
438.72	2529.24
438.93	2584.54
439.13	2297.82
439.34	2361.31
439.54	2240.48
439.75	2351.07
439.95	2332.64
440.16	2301.92
440.36	2275.29
440.57	2285.53
440.77	2260.96
440.98	2252.77
441.18	2334.68
441.39	2166.75
441.59	2095.07
441.80	2516.95
442.00	2256.86
442.21	2326.49
442.41	2115.55
442.62	2422.75
442.82	2146.27
443.02	2242.53
443.23	2326.49
443.43	2140.13
443.64	2437.08
443.84	2179.04
444.05	2455.51
444.25	2248.67
444.46	2353.12
444.66	2285.53
444.87	2392.03
445.07	2183.13
445.28	2133.98
445.48	2340.83
445.69	2373.60
445.89	2551.77
446.09	2238.43
446.30	2566.10
446.50	2912.21
446.71	4366.27
446.91	5455.79
447.12	6408.09
447.32	6610.84
447.53	6307.74
447.73	5115.83
447.93	4489.15
448.14	4210.62
448.34	4097.99
448.55	3626.95
448.75	3504.07
448.96	3444.68
449.16	3049.43
449.36	2912.21
449.57	2621.40
449.77	2357.21
449.98	2293.72
450.18	2367.45
450.39	2326.49
450.59	2310.11
450.79	2224.09
451.00	2252.77
451.20	2336.73
451.41	2258.91
451.61	2310.11
451.81	2297.82
452.02	2269.15
452.22	2279.39
452.43	2183.13
452.63	2170.85
452.84	2226.14
453.04	2224.09
453.24	2252.77
453.45	2201.57
453.65	2242.53
453.86	2260.96
454.06	2236.38
454.26	2242.53
454.47	2322.40
454.67	2437.08
454.87	2367.45
455.08	2217.95
455.28	2432.99
455.49	2310.11
455.69	2131.94
455.89	2467.80
456.10	2389.98
456.30	2179.04
456.51	2385.88
456.71	2344.92
456.91	2293.72
457.12	2238.43
457.32	2283.49
457.52	2144.22
457.73	2310.11
457.93	2322.40
458.14	2213.85
458.34	2156.51
458.54	2281.44
458.75	2217.95
458.95	2308.06
459.15	2342.88
459.36	2328.54
459.56	2271.20
459.76	2471.90
459.97	2244.57
460.17	2197.47
460.37	2373.60
460.58	2283.49
460.78	2334.68
460.99	2238.43
461.19	2234.33
461.39	2193.37
461.60	2267.10
461.80	2322.40
462.00	2152.42
462.21	2303.96
462.41	2105.31
462.61	2146.27
462.82	2086.88
463.02	2236.38
463.22	2213.85
463.43	2357.21
463.63	2246.62
463.83	2422.75
464.04	2342.88
464.24	2230.24
464.44	2176.99
464.64	2308.06
464.85	2377.69
465.05	2326.49
465.25	2224.09
465.46	2230.24
465.66	2340.83
465.86	2256.86
466.07	2191.33
466.27	2226.14
466.47	2181.09
466.68	2127.84
466.88	2432.99
467.08	2306.01
467.29	2426.84
467.49	2248.67
467.69	2205.66
467.89	2258.91
468.10	2281.44
468.30	2355.16
468.50	2367.45
468.71	2359.26
468.91	2129.89
469.11	2332.64
469.31	2281.44
469.52	2201.57
469.72	2471.90
469.92	2441.18
470.13	2250.72
470.33	2236.38
470.53	2416.60
470.73	2602.97
470.94	2994.13
471.14	3106.77
471.34	3540.94
471.54	3481.55
471.75	3139.54
471.95	2834.39
472.15	2744.28
472.36	2781.14
472.56	2697.17
472.76	2686.94
472.96	2625.50
473.17	2541.53
473.37	2533.34
473.57	2375.64
473.77	2316.25
473.98	2303.96
474.18	2220.00
474.38	2555.86
474.58	2185.18
474.79	2195.42
474.99	2353.12
475.19	2414.56
475.39	2226.14
475.60	2293.72
475.80	2263.01
476.00	2346.97
476.20	2273.25
476.41	2205.66
476.61	2342.88
476.81	2463.71
477.01	2129.89
477.21	2504.67
477.42	2332.64
477.62	2185.18
477.82	2369.50
478.02	2289.63
478.23	2246.62
478.43	2252.77
478.63	2217.95
478.83	2211.81
479.03	2254.81
479.24	2357.21
479.44	2408.41
479.64	2113.50
479.84	2158.56
480.04	2220.00
480.25	2394.08
480.45	2133.98
480.65	2258.91
480.85	2392.03
481.06	2260.96
481.26	2301.92
481.46	2301.92
481.66	2334.68
481.86	2281.44
482.06	2349.02
482.27	2203.61
482.47	2207.71
482.67	2301.92
482.87	2256.86
483.07	2314.20
483.28	2185.18
483.48	2185.18
483.68	2240.48
483.88	2168.80
484.08	2047.97
484.29	2170.85
484.49	2244.57
484.69	2093.02
484.89	2369.50
485.09	2373.60
485.29	2377.69
485.50	2330.59
485.70	2258.91
485.90	2398.17
486.10	2338.78
486.30	2228.19
486.50	2377.69
486.71	2338.78
486.91	2322.40
487.11	2351.07
487.31	2105.31
487.51	2299.87
487.71	2133.98
487.91	2220.00
488.12	2123.74
488.32	2013.15
488.52	2166.75
488.72	2056.16
488.92	2306.01
489.12	2420.70
489.32	2342.88
489.53	2340.83
489.73	2119.65
489.93	2435.03
490.13	2203.61
490.33	2121.70
490.53	2205.66
490.73	2377.69
490.94	2088.93
491.14	2275.29
491.34	2293.72
491.54	2598.87
491.74	3252.17
491.94	3780.55
492.14	4007.87
492.34	4128.70
492.54	3864.52
492.75	3280.85
492.95	3235.79
493.15	2908.12
493.35	2895.83
493.55	2844.63
493.75	2662.36
493.95	2719.70
494.15	2562.01
494.35	2404.32
494.56	2326.49
494.76	2238.43
494.96	2324.44
495.16	2322.40
495.36	2222.05
495.56	2281.44
495.76	2248.67
495.96	2215.90
496.16	2179.04
496.36	2510.81
496.56	2181.09
496.77	2324.44
496.97	2224.09
497.17	2406.36
497.37	2187.23
497.57	2346.97
497.77	2285.53
497.97	2146.27
498.17	2260.96
498.37	2222.05
498.57	2349.02
498.77	2209.76
498.97	2430.94
499.17	2449.37
499.38	2260.96
499.58	2400.22
499.78	2314.20
499.98	2389.98
500.18	2283.49
500.38	2224.09
500.58	2480.09
500.78	2901.97
500.98	5203.89
501.18	7219.09
501.38	8771.45
501.58	9879.40
501.78	9564.01
501.98	7683.98
502.18	6373.28
502.38	5474.22
502.58	5126.07
502.78	4485.05
502.98	4474.81
503.18	4177.86
503.38	3864.52
503.59	3438.54
503.79	3207.12
503.99	2944.98
504.19	2748.37
504.39	2752.47
504.59	2912.21
504.79	2760.66
504.99	2766.81
505.19	2523.10
505.39	2457.56
505.59	2617.30
505.79	2621.40
505.99	2486.23
506.19	2383.84
506.39	2537.43
506.59	2217.95
506.79	2299.87
506.99	2418.65
507.19	2279.39
507.39	2342.88
507.59	2152.42
507.79	2211.81
507.99	2164.70
508.19	2191.33
508.39	2269.15
508.59	2269.15
508.79	2334.68
508.99	2451.42
509.19	2162.66
509.39	2318.30
509.59	2189.28
509.79	2226.14
509.99	2301.92
510.19	2318.30
510.39	2396.12
510.59	2287.58
510.79	2201.57
510.99	2121.70
511.19	2299.87
511.39	2310.11
511.59	2353.12
511.79	2412.51
511.99	2285.53
512.19	2396.12
512.38	2306.01
512.58	2248.67
512.78	2187.23
512.98	2332.64
513.18	2480.09
513.38	2060.26
513.58	2291.68
513.78	2203.61
513.98	2209.76
514.18	2211.81
514.38	2217.95
514.58	2258.91
514.78	2271.20
514.98	2205.66
515.18	2248.67
515.38	2174.94
515.58	2375.64
515.78	2228.19
515.98	2260.96
516.18	2340.83
516.38	2244.57
516.57	2203.61
516.77	2187.23
516.97	2283.49
517.17	2230.24
517.37	2150.37
517.57	2342.88
517.77	2242.53
517.97	2183.13
518.17	2301.92
518.37	2179.04
518.57	2224.09
518.77	2252.77
518.97	2273.25
519.16	2217.95
519.36	2457.56
519.56	2209.76
519.76	2236.38
519.96	2297.82
520.16	2449.37
520.36	2146.27
520.56	2392.03
520.76	2228.19
520.96	2246.62
521.16	2357.21
521.35	2275.29
521.55	2338.78
521.75	2228.19
521.95	2234.33
522.15	2220.00
522.35	2129.89
522.55	2197.47
522.75	2396.12
522.95	2131.94
523.14	2240.48
523.34	2260.96
523.54	2133.98
523.74	2287.58
523.94	2238.43
524.14	2201.57
524.34	2316.25
524.54	2424.80
524.73	2211.81
524.93	2398.17
525.13	2271.20
525.33	2142.18
525.53	2459.61
525.73	2273.25
525.93	2308.06
526.13	2260.96
526.32	2197.47
526.52	2359.26
526.72	2344.92
526.92	2277.34
527.12	2211.81
527.32	2158.56
527.52	2295.77
527.71	2326.49
527.91	2346.97
528.11	2297.82
528.31	2291.68
528.51	2203.61
528.71	2308.06
528.90	2363.36
529.10	2363.36
529.30	2435.03
529.50	2013.15
529.70	2310.11
529.90	2283.49
530.09	2246.62
530.29	2156.51
530.49	2193.37
530.69	2508.76
530.89	2281.44
531.09	2355.16
531.28	2220.00
531.48	2351.07
531.68	2230.24
531.88	2299.87
532.08	2406.36
532.28	2189.28
532.47	2330.59
532.67	2349.02
532.87	2387.93
533.07	2172.89
533.27	2406.36
533.46	2326.49
533.66	2301.92
533.86	2267.10
534.06	2301.92
534.26	2332.64
534.45	2181.09
534.65	2383.84
534.85	2318.30
535.05	2215.90
535.25	2383.84
535.44	2113.50
535.64	2342.88
535.84	2316.25
536.04	2127.84
536.24	2207.71
536.43	2162.66
536.63	2271.20
536.83	2228.19
537.03	2205.66
537.22	2088.93
537.42	2062.30
537.62	2359.26
537.82	2195.42
538.02	2340.83
538.21	2404.32
538.41	2605.02
538.61	2344.92
538.81	2199.52
539.00	2389.98
539.20	2150.37
539.40	2271.20
539.60	2267.10
539.79	2389.98
539.99	2299.87
540.19	2181.09
540.39	2228.19
540.58	2351.07
540.78	2289.63
540.98	2226.14
541.18	2326.49
541.37	2281.44
541.57	2293.72
541.77	2314.20
541.97	2183.13
542.16	2101.22
542.36	2201.57
542.56	2258.91
542.76	2461.66
542.95	2369.50
543.15	2371.55
543.35	2379.74
543.54	2146.27
543.74	2197.47
543.94	2320.35
544.14	2174.94
544.33	2349.02
544.53	2187.23
544.73	2244.57
544.93	2211.81
545.12	2269.15
545.32	2244.57
545.52	2273.25
545.71	2179.04
545.91	2283.49
546.11	2215.90
546.30	2164.70
546.50	2308.06
546.70	2324.44
546.90	2281.44
547.09	2097.12
547.29	2271.20
547.49	2289.63
547.68	2260.96
547.88	2125.79
548.08	2330.59
548.27	2693.08
548.47	2256.86
548.67	2121.70
548.87	2332.64
549.06	2263.01
549.26	2250.72
549.46	2340.83
549.65	2217.95
549.85	2301.92
550.05	2367.45
550.24	2154.46
550.44	2297.82
550.64	2217.95
550.83	2252.77
551.03	2408.41
551.23	2359.26
551.42	2291.68
551.62	2203.61
551.82	2273.25
552.01	2293.72
552.21	2291.68
552.41	2199.52
552.60	2363.36
552.80	2338.78
553.00	2164.70
553.19	2248.67
553.39	2506.71
553.59	2142.18
553.78	2324.44
553.98	2303.96
554.17	2154.46
554.37	2346.97
554.57	2291.68
554.76	2140.13
554.96	2209.76
555.16	2271.20
555.35	2310.11
555.55	2306.01
555.75	2269.15
555.94	2381.79
556.14	2166.75
556.33	2277.34
556.53	2316.25
556.73	2232.29
556.92	2359.26
557.12	2367.45
557.32	2537.43
557.51	2412.51
557.71	2375.64
557.90	2461.66
558.10	2402.27
558.30	2215.90
558.49	2160.61
558.69	2301.92
558.88	2293.72
559.08	2258.91
559.28	2093.02
559.47	2289.63
559.67	2314.20
559.86	2482.14
560.06	2203.61
560.26	2256.86
560.45	2267.10
560.65	2181.09
560.84	2402.27
561.04	2211.81
561.24	2277.34
561.43	2187.23
561.63	2406.36
561.82	2269.15
562.02	2295.77
562.22	2215.90
562.41	2238.43
562.61	2199.52
562.80	2215.90
563.00	2502.62
563.19	2283.49
563.39	2244.57
563.59	2283.49
563.78	2162.66
563.98	2117.60
564.17	2176.99
564.37	2115.55
564.56	2328.54
564.76	2095.07
564.96	2332.64
565.15	2285.53
565.35	2592.73
565.54	2240.48
565.74	2389.98
565.93	2326.49
566.13	2273.25
566.32	2340.83
566.52	2269.15
566.71	2334.68
566.91	2342.88
567.11	2340.83
567.30	2230.24
567.50	2332.64
567.69	2252.77
567.89	2240.48
568.08	2185.18
568.28	2215.90
568.47	2113.50
568.67	2273.25
568.86	2213.85
569.06	2365.40
569.25	2310.11
569.45	2158.56
569.64	2209.76
569.84	2256.86
570.04	2371.55
570.23	2144.22
570.43	2195.42
570.62	2299.87
570.82	2457.56
571.01	2164.70
571.21	2152.42
571.40	2193.37
571.60	2392.03
571.79	2269.15
571.99	2285.53
572.18	2242.53
572.38	2330.59
572.57	2170.85
572.77	2263.01
572.96	2600.92
573.16	2248.67
573.35	2199.52
573.55	2455.51
573.74	2332.64
573.94	2265.05
574.13	2260.96
574.33	2453.47
574.52	2332.64
574.71	2316.25
574.91	2310.11
575.10	2156.51
575.30	2220.00
575.49	2185.18
575.69	2234.33
575.88	2267.10
576.08	2299.87
576.27	2344.92
576.47	2295.77
576.66	2381.79
576.86	2349.02
577.05	2299.87
577.25	2338.78
577.44	2506.71
577.64	2291.68
577.83	2406.36
578.02	2154.46
578.22	2349.02
578.41	2424.80
578.61	2267.10
578.80	2105.31
579.00	2299.87
579.19	2277.34
579.39	2332.64
579.58	2346.97
579.77	2256.86
579.97	2457.56
580.16	2430.94
580.36	2381.79
580.55	2324.44
580.75	2342.88
580.94	2338.78
581.13	2449.37
581.33	2508.76
581.52	2271.20
581.72	2570.20
581.91	2381.79
582.11	2215.90
582.30	2367.45
582.49	2389.98
582.69	2418.65
582.88	2404.32
583.08	2230.24
583.27	2439.13
583.47	2371.55
583.66	2220.00
583.85	2201.57
584.05	2297.82
584.24	2373.60
584.44	2320.35
584.63	2441.18
584.82	2473.95
585.02	2422.75
585.21	2441.18
585.41	2441.18
585.60	2465.75
585.79	2559.96
585.99	2494.43
586.18	2445.27
586.37	3035.09
586.57	4679.61
586.76	13776.69
586.96	33080.84
587.15	47031.60
587.34	56061.10
587.54	61367.38
587.73	56083.62
587.93	39579.04
588.12	29867.58
588.31	24090.26
588.51	21001.92
588.70	19410.65
588.89	17325.82
589.09	15267.61
589.28	13233.97
589.47	10624.86
589.67	8208.26
589.86	6317.98
590.06	4704.18
590.25	3938.24
590.44	3239.89
590.64	2815.96
590.83	2580.44
591.02	2553.82
591.22	2396.12
591.41	2342.88
591.60	2414.56
591.80	2533.34
591.99	2224.09
592.18	2336.73
592.38	2412.51
592.57	2306.01
592.76	2373.60
592.96	2308.06
593.15	2234.33
593.34	2432.99
593.54	2217.95
593.73	2344.92
593.92	2316.25
594.12	2422.75
594.31	2361.31
594.50	2392.03
594.70	2316.25
594.89	2562.01
595.08	2176.99
595.28	2435.03
595.47	2514.91
595.66	2377.69
595.86	2199.52
596.05	2355.16
596.24	2260.96
596.43	2531.29
596.63	2336.73
596.82	2373.60
597.01	2412.51
597.21	2463.71
597.40	2297.82
597.59	2330.59
597.79	2330.59
597.98	2375.64
598.17	2299.87
598.36	2324.44
598.56	2383.84
598.75	2230.24
598.94	2283.49
599.14	2322.40
599.33	2289.63
599.52	2297.82
599.71	2277.34
599.91	2369.50
600.10	2353.12
600.29	2295.77
600.48	2273.25
600.68	2349.02
600.87	2209.76
601.06	2234.33
601.26	2297.82
601.45	2308.06
601.64	2224.09
601.83	2404.32
602.03	2168.80
602.22	2172.89
602.41	2367.45
602.60	2590.68
602.80	2342.88
602.99	2285.53
603.18	2191.33
603.37	2277.34
603.57	2277.34
603.76	2303.96
603.95	2373.60
604.14	2232.29
604.34	2136.03
604.53	2277.34
604.72	2281.44
604.91	2367.45
605.10	2299.87
605.30	2121.70
605.49	2519.00
605.68	2349.02
605.87	2289.63
606.07	2217.95
606.26	2252.77
606.45	2293.72
606.64	2318.30
606.84	2195.42
607.03	2338.78
607.22	2396.12
607.41	2260.96
607.60	2234.33
607.80	2416.60
607.99	2269.15
608.18	2342.88
608.37	2318.30
608.56	2201.57
608.76	2396.12
608.95	2519.00
609.14	2312.16
609.33	2459.61
609.52	2441.18
609.72	2316.25
609.91	2424.80
610.10	2373.60
610.29	2455.51
610.48	2430.94
610.68	2328.54
610.87	2228.19
611.06	2422.75
611.25	2220.00
611.44	2320.35
611.63	2242.53
611.83	2445.27
612.02	2150.37
612.21	2406.36
612.40	2039.78
612.59	2209.76
612.79	2111.46
612.98	2236.38
613.17	2383.84
613.36	2232.29
613.55	2447.32
613.74	2273.25
613.93	2473.95
614.13	2461.66
614.32	2449.37
614.51	2471.90
614.70	2361.31
614.89	2267.10
615.08	2396.12
615.28	2766.81
615.47	2152.42
615.66	2351.07
615.85	2281.44
616.04	2578.39
616.23	2306.01
616.42	2189.28
616.62	2271.20
616.81	2269.15
617.00	2293.72
617.19	2289.63
617.38	2197.47
617.57	2265.05
617.76	2326.49
617.95	2308.06
618.15	2306.01
618.34	2373.60
618.53	2146.27
618.72	2432.99
618.91	2351.07
619.10	2451.42
619.29	2297.82
619.48	2265.05
619.68	2179.04
619.87	2242.53
620.06	2193.37
620.25	2342.88
620.44	2199.52
620.63	2220.00
620.82	2252.77
621.01	2297.82
621.20	2289.63
621.39	2236.38
621.59	2398.17
621.78	2324.44
621.97	2260.96
622.16	2263.01
622.35	2285.53
622.54	2381.79
622.73	2367.45
622.92	2113.50
623.11	2357.21
623.30	2201.57
623.49	2260.96
623.68	2187.23
623.88	2443.23
624.07	2156.51
624.26	2281.44
624.45	2281.44
624.64	2230.24
624.83	2326.49
625.02	2324.44
625.21	2232.29
625.40	2316.25
625.59	2404.32
625.78	2232.29
625.97	2371.55
626.16	2394.08
626.35	2447.32
626.54	2273.25
626.74	2494.43
626.93	2283.49
627.12	2359.26
627.31	2363.36
627.50	2306.01
627.69	2449.37
627.88	2240.48
628.07	2174.94
628.26	2101.22
628.45	2246.62
628.64	2236.38
628.83	2279.39
629.02	2152.42
629.21	2326.49
629.40	2277.34
629.59	2252.77
629.78	2250.72
629.97	2295.77
630.16	2279.39
630.35	2275.29
630.54	2263.01
630.73	2303.96
630.92	2295.77
631.11	2183.13
631.30	2248.67
631.49	2379.74
631.68	2340.83
631.87	2318.30
632.06	2138.08
632.25	2502.62
632.44	2269.15
632.63	2346.97
632.82	2359.26
633.01	2232.29
633.20	2320.35
633.39	2308.06
633.58	2258.91
633.77	2357.21
633.96	2285.53
634.15	2322.40
634.34	2334.68
634.53	2359.26
634.72	2193.37
634.91	2095.07
635.10	2318.30
635.29	2361.31
635.48	2252.77
635.67	2117.60
635.86	2170.85
636.05	2389.98
636.24	2244.57
636.43	2232.29
636.62	2277.34
636.81	1994.72
637.00	2267.10
637.19	2234.33
637.38	2359.26
637.57	2252.77
637.76	2334.68
637.95	2318.30
638.14	2213.85
638.33	2371.55
638.52	2320.35
638.71	2283.49
638.89	2138.08
639.08	2547.67
639.27	2443.23
639.46	2457.56
639.65	2854.87
639.84	2850.77
640.03	2971.60
640.22	2760.66
640.41	2904.02
640.60	2523.10
640.79	2461.66
640.98	2420.70
641.17	2467.80
641.36	2469.85
641.55	2367.45
641.74	2281.44
641.92	2281.44
642.11	2181.09
642.30	2340.83
642.49	2222.05
642.68	2222.05
642.87	2314.20
643.06	2322.40
643.25	2179.04
643.44	2138.08
643.63	2215.90
643.82	2349.02
644.00	2105.31
644.19	2277.34
644.38	2187.23
644.57	2346.97
644.76	2226.14
644.95	2256.86
645.14	2275.29
645.33	2291.68
645.52	2273.25
645.71	2168.80
645.89	2187.23
646.08	2213.85
646.27	2295.77
646.46	2363.36
646.65	2168.80
646.84	2334.68
647.03	2148.32
647.22	2404.32
647.40	2269.15
647.59	2248.67
647.78	2109.41
647.97	2154.46
648.16	2195.42
648.35	2441.18
648.54	2381.79
648.73	2191.33
648.91	2416.60
649.10	2273.25
649.29	2232.29
649.48	2308.06
649.67	2346.97
649.86	2308.06
650.05	2174.94
650.23	2498.52
650.42	2322.40
650.61	2455.51
650.80	2445.27
650.99	2602.97
651.18	2396.12
651.36	2408.41
651.55	2215.90
651.74	2400.22
651.93	2228.19
652.12	2293.72
652.31	2297.82
652.49	2207.71
652.68	2258.91
652.87	2367.45
653.06	2316.25
653.25	2490.33
653.44	2324.44
653.62	2451.42
653.81	2226.14
654.00	2318.30
654.19	2322.40
654.38	2539.48
654.56	2308.06
654.75	2281.44
654.94	2295.77
655.13	2254.81
655.32	2310.11
655.51	2310.11
655.69	2209.76
655.88	2330.59
656.07	2211.81
656.26	2316.25
656.45	2170.85
656.63	2269.15
656.82	2310.11
657.01	2383.84
657.20	2244.57
657.38	2453.47
657.57	2152.42
657.76	2115.55
657.95	2338.78
658.14	2213.85
658.32	2226.14
658.51	2111.46
658.70	2281.44
658.89	2349.02
659.08	2228.19
659.26	2389.98
659.45	2144.22
659.64	2426.84
659.83	2250.72
660.01	2637.78
660.20	2318.30
660.39	2441.18
660.58	2095.07
660.76	2303.96
660.95	2191.33
661.14	2349.02
661.33	2176.99
661.51	2269.15
661.70	2267.10
661.89	2291.68
662.08	2252.77
662.26	2113.50
662.45	2234.33
662.64	2449.37
662.83	2308.06
663.01	2117.60
663.20	2203.61
663.39	2351.07
663.58	2199.52
663.76	2181.09
663.95	2379.74
664.14	2101.22
664.32	2217.95
664.51	2088.93
664.70	1988.58
664.89	2326.49
665.07	2172.89
665.26	2389.98
665.45	2125.79
665.64	2312.16
665.82	2244.57
666.01	2387.93
666.20	2232.29
666.38	2336.73
666.57	2430.94
666.76	3452.88
666.95	8177.54
667.13	16197.38
667.32	21323.45
667.51	24510.09
667.69	26377.84
667.88	24518.28
668.07	17084.16
668.25	14100.26
668.44	11466.58
668.63	9850.73
668.81	8777.59
669.00	7677.83
669.19	6922.13
669.38	5922.73
669.56	5195.70
669.75	4280.25
669.94	3690.44
670.12	3160.02
670.31	2842.58
670.50	2598.87
670.68	2500.57
670.87	2412.51
671.06	2312.16
671.24	2424.80
671.43	2457.56
671.62	2457.56
671.80	2179.04
671.99	2396.12
672.18	2324.44
672.36	2422.75
672.55	2336.73
672.74	2299.87
672.92	2295.77
673.11	2281.44
673.29	2146.27
673.48	2260.96
673.67	2226.14
673.85	2381.79
674.04	2244.57
674.23	2277.34
674.41	2500.57
674.60	2308.06
674.79	2062.30
674.97	2170.85
675.16	2363.36
675.34	2326.49
675.53	2195.42
675.72	2281.44
675.90	2566.10
676.09	2316.25
676.28	2371.55
676.46	2170.85
676.65	2392.03
676.83	2232.29
677.02	2254.81
677.21	2260.96
677.39	2363.36
677.58	2179.04
677.77	2209.76
677.95	2232.29
678.14	2170.85
678.32	2187.23
678.51	2215.90
678.70	2455.51
678.88	2301.92
679.07	2295.77
679.25	2244.57
679.44	2244.57
679.63	2176.99
679.81	2346.97
680.00	2301.92
680.18	2312.16
680.37	2447.32
680.55	2301.92
680.74	2129.89
680.93	2009.06
681.11	2273.25
681.30	2275.29
681.48	2228.19
681.67	2236.38
681.85	2291.68
682.04	2187.23
682.23	2336.73
682.41	2291.68
682.60	2158.56
682.78	2172.89
682.97	2187.23
683.15	2242.53
683.34	2254.81
683.53	2402.27
683.71	2213.85
683.90	2351.07
684.08	2449.37
684.27	2199.52
684.45	2326.49
684.64	2326.49
684.82	2244.57
685.01	2334.68
685.19	2283.49
685.38	2385.88
685.57	2256.86
685.75	2162.66
685.94	2168.80
686.12	2125.79
686.31	2220.00
686.49	2428.89
686.68	2111.46
686.86	2265.05
687.05	2303.96
687.23	2428.89
687.42	2217.95
687.60	2060.26
687.79	2310.11
687.97	2420.70
688.16	2318.30
688.34	2357.21
688.53	2164.70
688.71	2312.16
688.90	2394.08
689.08	2183.13
689.27	2064.35
689.45	2330.59
689.64	2299.87
689.82	2316.25
690.01	2248.67
690.19	2310.11
690.38	2222.05
690.56	2338.78
690.75	2121.70
690.93	2244.57
691.12	2154.46
691.30	2228.19
691.49	2244.57
691.67	2213.85
691.86	2441.18
692.04	2187.23
692.23	2207.71
692.41	2314.20
692.60	2605.02
692.78	2371.55
692.97	2334.68
693.15	2396.12
693.34	2465.75
693.52	2418.65
693.71	2271.20
693.89	2162.66
694.08	2156.51
694.26	2324.44
694.44	2367.45
694.63	2324.44
694.81	2158.56
695.00	2183.13
695.18	2377.69
695.37	2506.71
695.55	2220.00
695.74	2179.04
695.92	2174.94
696.10	2420.70
696.29	2107.36
696.47	2179.04
696.66	2166.75
696.84	2187.23
697.03	2244.57
697.21	2490.33
697.40	3303.37
697.58	2406.36
697.76	2293.72
697.95	2201.57
698.13	2197.47
698.32	2150.37
698.50	2226.14
698.68	2281.44
698.87	2322.40
699.05	2367.45
699.24	2283.49
699.42	2123.74
699.61	2303.96
699.79	2267.10
699.97	2258.91
700.16	2174.94
700.34	2150.37
700.53	2357.21
700.71	2455.51
700.89	2310.11
701.08	2203.61
701.26	2301.92
701.45	2850.77
701.63	2111.46
701.81	2244.57
702.00	2213.85
702.18	2267.10
702.37	2207.71
702.55	2506.71
702.73	2404.32
702.92	2269.15
703.10	2533.34
703.28	2424.80
703.47	2195.42
703.65	2463.71
703.84	2465.75
704.02	2332.64
704.20	2457.56
704.39	2170.85
704.57	2168.80
704.75	2379.74
704.94	2412.51
705.12	2342.88
705.30	2576.34
705.49	4460.48
705.67	10309.47
705.86	18112.24
706.04	21849.78
706.22	24632.97
706.41	25642.62
706.59	21597.88
706.77	15511.32
706.96	13225.78
707.14	11288.40
707.32	9926.50
707.51	8834.94
707.69	7217.04
707.87	5906.34
708.06	4708.28
708.24	3950.53
708.42	3145.68
708.61	3035.09
708.79	2475.99
708.97	2488.28
709.16	2449.37
709.34	2332.64
709.52	2232.29
709.71	2260.96
709.89	2275.29
710.07	2111.46
710.26	2170.85
710.44	2291.68
710.62	2392.03
710.80	2260.96
710.99	2267.10
711.17	2340.83
711.35	2228.19
711.54	2187.23
711.72	2379.74
711.90	2232.29
712.09	2301.92
712.27	2195.42
712.45	2301.92
712.63	2238.43
712.82	2324.44
713.00	2238.43
713.18	2271.20
713.37	2293.72
713.55	2361.31
713.73	2365.40
713.91	2318.30
714.10	2199.52
714.28	2254.81
714.46	2293.72
714.65	2299.87
714.83	2295.77
715.01	2256.86
715.19	2310.11
715.38	2201.57
715.56	2328.54
715.74	2181.09
715.92	2146.27
716.11	2383.84
716.29	2023.39
716.47	2203.61
716.65	2267.10
716.84	2095.07
717.02	2371.55
717.20	2078.69
717.38	2117.60
717.57	2310.11
717.75	2236.38
717.93	2146.27
718.11	2324.44
718.30	2101.22
718.48	2260.96
718.66	2320.35
718.84	2430.94
719.03	2201.57
719.21	2105.31
719.39	2416.60
719.57	2279.39
719.75	2328.54
719.94	2129.89
720.12	2211.81
720.30	2310.11
720.48	2324.44
720.67	2220.00
720.85	2127.84
721.03	2146.27
721.21	2131.94
721.39	2277.34
721.58	2310.11
721.76	2285.53
721.94	2289.63
722.12	2285.53
722.30	2412.51
722.49	2183.13
722.67	2351.07
722.85	2295.77
723.03	2176.99
723.21	2211.81
723.40	2273.25
723.58	2342.88
723.76	2338.78
723.94	2430.94
724.12	2330.59
724.30	2473.95
724.49	2400.22
724.67	2160.61
724.85	2457.56
725.03	2203.61
725.21	2387.93
725.40	2392.03
725.58	2197.47
725.76	2328.54
725.94	2338.78
726.12	2179.04
726.30	2295.77
726.49	2230.24
726.67	2314.20
726.85	2287.58
727.03	2613.21
727.21	3520.46
727.39	5038.00
727.57	5783.46
727.76	6428.57
727.94	6664.09
728.12	6313.89
728.30	5085.11
728.48	4341.69
728.66	4026.31
728.84	3743.69
729.03	3248.08
729.21	2985.94
729.39	2752.47
729.57	2449.37
729.75	2379.74
729.93	2340.83
730.11	2224.09
730.30	2183.13
730.48	2291.68
730.66	2359.26
730.84	2381.79
731.02	2324.44
731.20	2211.81
731.38	2183.13
731.56	2197.47
731.74	2185.18
731.93	2232.29
732.11	2297.82
732.29	2224.09
732.47	2312.16
732.65	2275.29
732.83	2326.49
733.01	2285.53
733.19	2234.33
733.37	2306.01
733.56	2293.72
733.74	2201.57
733.92	2381.79
734.10	2228.19
734.28	2318.30
734.46	2168.80
734.64	2228.19
734.82	2211.81
735.00	2256.86
735.18	2158.56
735.36	2310.11
735.54	2287.58
735.73	2232.29
735.91	2324.44
736.09	2301.92
736.27	2152.42
736.45	2310.11
736.63	2088.93
736.81	2215.90
736.99	2351.07
737.17	2375.64
737.35	2191.33
737.53	2230.24
737.71	2187.23
737.89	2330.59
738.07	2144.22
738.25	2183.13
738.43	2084.83
738.61	2250.72
738.80	2197.47
738.98	2097.12
739.16	2203.61
739.34	2246.62
739.52	2424.80
739.70	2277.34
739.88	2301.92
740.06	2375.64
740.24	2039.78
740.42	2344.92
740.60	2080.74
740.78	2260.96
740.96	2060.26
741.14	2193.37
741.32	2240.48
741.50	2162.66
741.68	2490.33
741.86	2375.64
742.04	2162.66
742.22	2179.04
742.40	2291.68
742.58	2328.54
742.76	2238.43
742.94	2314.20
743.12	2123.74
743.30	2203.61
743.48	2334.68
743.66	2217.95
743.84	2330.59
744.02	2215.90
744.20	2269.15
744.38	2160.61
744.56	2197.47
744.74	2471.90
744.92	2303.96
745.10	2402.27
745.28	2260.96
745.46	2342.88
745.64	2213.85
745.82	2389.98
746.00	2344.92
746.18	2312.16
746.36	2138.08
746.54	2244.57
746.72	2183.13
746.90	2172.89
747.08	2416.60
747.26	2244.57
747.44	2326.49
747.62	2303.96
747.80	2254.81
747.98	2254.81
748.15	2291.68
748.33	2441.18
748.51	2236.38
748.69	2365.40
748.87	2144.22
749.05	2273.25
749.23	2191.33
749.41	2256.86
749.59	2187.23
749.77	2346.97
749.95	2236.38
750.13	2158.56
750.31	2412.51
750.49	2252.77
750.67	2303.96
750.85	2365.40
751.03	2269.15
751.20	2539.48
751.38	2172.89
751.56	2162.66
751.74	2263.01
751.92	2191.33
752.10	2158.56
752.28	2324.44
752.46	2136.03
752.64	2303.96
752.82	2291.68
753.00	2361.31
753.18	2287.58
753.35	2269.15
753.53	2217.95
753.71	2238.43
753.89	2240.48
754.07	2279.39
754.25	2361.31
754.43	2279.39
754.61	2193.37
754.79	2336.73
754.97	2252.77
755.14	2322.40
755.32	2074.59
755.50	2295.77
755.68	2252.77
755.86	2084.83
756.04	2199.52
756.22	2086.88
756.40	2195.42
756.57	2498.52
756.75	2224.09
756.93	2451.42
757.11	2306.01
757.29	2179.04
757.47	2150.37
757.65	2107.36
757.82	2060.26
758.00	2170.85
758.18	2215.90
758.36	2195.42
758.54	2406.36
758.72	2152.42
758.90	2340.83
759.07	2285.53
759.25	2113.50
759.43	2332.64
759.61	2101.22
759.79	3100.62
759.97	2334.68
760.15	2105.31
760.32	2242.53
760.50	2248.67
760.68	2410.46
760.86	2131.94
761.04	2359.26
761.22	2310.11
761.39	2293.72
761.57	2220.00
761.75	2263.01
761.93	2332.64
762.11	2142.18
762.28	2301.92
762.46	2187.23
762.64	2285.53
762.82	2109.41
763.00	2269.15
763.18	2353.12
763.35	2226.14
763.53	2303.96
763.71	2228.19
763.89	2322.40
764.07	2269.15
764.24	2254.81
764.42	2299.87
764.60	2285.53
764.78	2310.11
764.96	2359.26
765.13	2416.60
765.31	2285.53
765.49	2371.55
765.67	2176.99
765.84	2189.28
766.02	2176.99
766.20	2156.51
766.38	2318.30
766.56	2293.72
766.73	2318.30
766.91	2252.77
767.09	2220.00
767.27	2291.68
767.44	2097.12
767.62	2359.26
767.80	2299.87
767.98	2252.77
768.15	2224.09
768.33	2342.88
768.51	2355.16
768.69	2371.55
768.87	2277.34
769.04	2281.44
769.22	2432.99
769.40	2371.55
769.58	2349.02
769.75	2242.53
769.93	2428.89
770.11	2293.72
770.28	2185.18
770.46	2324.44
770.64	2299.87
770.82	2269.15
770.99	2256.86
771.17	2277.34
771.35	2273.25
771.53	2252.77
771.70	2152.42
771.88	2338.78
772.06	2152.42
772.23	2273.25
772.41	2263.01
772.59	2199.52
772.77	2097.12
772.94	2217.95
773.12	2336.73
773.30	2293.72
773.47	2220.00
773.65	2222.05
773.83	2396.12
774.01	2306.01
774.18	2066.40
774.36	2285.53
774.54	2117.60
774.71	2240.48
774.89	2076.64
775.07	2097.12
775.24	2158.56
775.42	2228.19
775.60	2459.61
775.78	2123.74
775.95	2095.07
776.13	2088.93
776.31	2015.20
776.48	2279.39
776.66	2383.84
776.84	2252.77
777.01	2090.98
777.19	2197.47
777.37	2123.74
777.54	2318.30
777.72	2400.22
777.90	2246.62
778.07	2185.18
778.25	2535.39
778.43	2318.30
778.60	2205.66
778.78	2293.72
778.96	2387.93
779.13	2195.42
779.31	2322.40
779.49	2203.61
779.66	2308.06
779.84	2301.92
780.01	2283.49
780.19	2179.04
780.37	2310.11
780.54	2301.92
780.72	2181.09
780.90	2131.94
781.07	2263.01
781.25	2213.85
781.43	2326.49
781.60	2193.37
781.78	2381.79
781.95	2201.57
782.13	2170.85
782.31	2242.53
782.48	2068.45
782.66	2283.49
782.83	2410.46
783.01	2357.21
783.19	2328.54
783.36	2228.19
783.54	2090.98
783.72	2275.29
783.89	2217.95
784.07	2318.30
784.24	2287.58
784.42	2353.12
784.60	2277.34
784.77	2230.24
784.95	2088.93
785.12	2209.76
785.30	2281.44
785.47	2146.27
785.65	2142.18
785.83	2250.72
786.00	2277.34
786.18	2316.25
786.35	2121.70
786.53	2084.83
786.71	2379.74
786.88	2269.15
787.06	2297.82
787.23	2203.61
787.41	2228.19
787.58	2193.37
787.76	2197.47
787.94	2252.77
788.11	2256.86
788.29	2191.33
788.46	2152.42
788.64	2101.22
788.81	2236.38
788.99	2195.42
789.16	2133.98
789.34	2215.90
789.52	2138.08
789.69	2170.85
789.87	2107.36
790.04	2195.42
790.22	2209.76
790.39	2377.69
790.57	2136.03
790.74	2125.79
790.92	2295.77
791.09	2117.60
791.27	2265.05
791.44	2252.77
791.62	2191.33
791.79	2314.20
791.97	2228.19
792.15	2492.38
792.32	2273.25
792.50	2312.16
792.67	2365.40
792.85	2367.45
793.02	2238.43
793.20	2285.53
793.37	2174.94
793.55	2246.62
793.72	2152.42
793.90	2320.35
794.07	2152.42
794.25	2170.85
794.42	2215.90
794.60	2250.72
794.77	2242.53
794.95	2277.34
795.12	2318.30
795.30	2224.09
795.47	2070.50
795.65	2473.95
795.82	2316.25
796.00	2136.03
796.17	2187.23
796.34	2236.38
796.52	2242.53
796.69	2363.36
796.87	2289.63
797.04	2281.44
797.22	2357.21
797.39	2252.77
797.57	2363.36
797.74	2252.77
797.92	2283.49
798.09	2185.18
798.27	2357.21
798.44	2232.29
798.62	2189.28
798.79	2314.20
798.96	2301.92
799.14	2248.67
799.31	2471.90
799.49	2217.95
799.66	2244.57
799.84	2310.11
800.01	2113.50
800.19	2260.96
800.36	2107.36
800.53	2211.81
800.71	2367.45
800.88	2416.60
801.06	2129.89
801.23	2152.42
801.41	2215.90
801.58	2234.33
801.75	2166.75
801.93	2281.44
802.10	2279.39
802.28	2242.53
802.45	2226.14
802.63	2306.01
802.80	2400.22
802.97	2203.61
803.15	2314.20
803.32	2220.00
803.50	2203.61
803.67	2224.09
803.84	2148.32
804.02	2240.48
804.19	2185.18
804.37	2080.74
804.54	2203.61
804.71	2168.80
804.89	2258.91
805.06	2203.61
805.24	2138.08
805.41	2099.17
805.58	2215.90
805.76	2465.75
805.93	2174.94
806.10	2324.44
806.28	2289.63
806.45	2285.53
806.63	2191.33
806.80	2162.66
806.97	2340.83
807.15	2303.96
807.32	2318.30
807.49	2195.42
807.67	2129.89
807.84	2246.62
808.01	2070.50
808.19	2359.26
808.36	2510.81
808.54	2185.18
808.71	2187.23
808.88	2158.56
809.06	2340.83
809.23	2318.30
809.40	2187.23
809.58	2326.49
809.75	2297.82
809.92	2160.61
810.10	2471.90
810.27	2166.75
810.44	2346.97
810.62	2275.29
810.79	2271.20
810.96	2088.93
811.14	2199.52
811.31	2324.44
811.48	2310.11
811.66	2260.96
811.83	2369.50
812.00	2314.20
812.18	2236.38
812.35	2447.32
812.52	2211.81
812.69	2285.53
812.87	2193.37
813.04	2160.61
813.21	2267.10
813.39	2240.48
813.56	2185.18
813.73	2301.92
813.91	2109.41
814.08	2263.01
814.25	2383.84
814.42	2119.65
814.60	2213.85
814.77	2236.38
814.94	2267.10
815.12	2222.05
815.29	2447.32
815.46	2199.52
815.63	2254.81
815.81	2207.71
815.98	2125.79
816.15	2248.67
816.33	2260.96
816.50	2211.81
816.67	2248.67
816.84	2248.67
817.02	2148.32
817.19	2287.58
817.36	2209.76
817.53	2314.20
817.71	2168.80
817.88	2353.12
818.05	2183.13
818.22	2142.18
818.40	2361.31
818.57	2176.99
818.74	2220.00
818.91	2217.95
819.09	2326.49
819.26	2344.92
819.43	2131.94
819.60	2146.27
819.78	2211.81
819.95	2406.36
820.12	2209.76
820.29	2349.02
820.47	2346.97
820.64	2183.13
820.81	2082.78
820.98	2136.03
821.15	2168.80
821.33	2209.76
821.50	2060.26
821.67	2361.31
821.84	2187.23
822.02	2256.86
822.19	2363.36
822.36	2205.66
822.53	2252.77
822.70	2158.56
822.88	2303.96
823.05	2359.26
823.22	2260.96
823.39	2260.96
823.56	2256.86
823.74	2326.49
823.91	2090.98
824.08	2138.08
824.25	2121.70
824.42	2465.75
824.60	2107.36
824.77	2303.96
824.94	2211.81
825.11	2369.50
825.28	2148.32
825.45	2301.92
825.63	2224.09
825.80	2140.13
825.97	2310.11
826.14	2265.05
826.31	2138.08
826.48	2351.07
826.66	2193.37
826.83	2176.99
827.00	2203.61
827.17	2185.18
827.34	2215.90
827.51	2162.66
827.69	2236.38
827.86	2078.69
828.03	2187.23
828.20	2265.05
828.37	2203.61
828.54	2289.63
828.71	2172.89
828.89	2336.73
829.06	2220.00
829.23	2371.55
829.40	2133.98
829.57	2111.46
829.74	2330.59
829.91	2183.13
830.09	2201.57
830.26	2324.44
830.43	2400.22
830.60	2220.00
830.77	2322.40
830.94	2324.44
831.11	2277.34
831.28	2205.66
831.46	2318.30
831.63	2095.07
831.80	2283.49
831.97	2234.33
832.14	2174.94
832.31	2310.11
832.48	2289.63
832.65	2330.59
832.82	2273.25
832.99	2336.73
833.17	2156.51
833.34	2449.37
833.51	2260.96
833.68	2068.45
833.85	2346.97
834.02	2191.33
834.19	2197.47
834.36	2226.14
834.53	2260.96
834.70	2387.93
834.87	2265.05
835.04	2148.32
835.22	2269.15
835.39	2131.94
835.56	2101.22
835.73	2162.66
835.90	2285.53
836.07	2138.08
836.24	2326.49
836.41	2095.07
836.58	2185.18
836.75	2394.08
836.92	2215.90
837.09	2176.99
837.26	2265.05
837.43	2252.77
837.60	2195.42
837.77	2228.19
837.94	2338.78
838.12	2363.36
838.29	2205.66
838.46	2072.54
838.63	2111.46
838.80	2437.08
838.97	2160.61
839.14	2240.48
839.31	2256.86
839.48	2306.01
839.65	2197.47
839.82	2181.09
839.99	2252.77
840.16	2222.05
840.33	2179.04
840.50	2201.57
840.67	2215.90
840.84	2002.91
841.01	2244.57
841.18	2117.60
841.35	2244.57
841.52	2332.64
841.69	2418.65
841.86	2154.46
842.03	2224.09
842.20	2387.93
842.37	2234.33
842.54	2138.08
842.71	2260.96
842.88	2203.61
843.05	2250.72
843.22	2203.61
843.39	2263.01
843.56	2160.61
843.73	2207.71
843.90	2226.14
844.07	2265.05
844.24	2322.40
844.41	2240.48
844.58	2226.14
844.75	2256.86
844.92	2273.25
845.09	2224.09
845.26	2172.89
845.43	2373.60
845.60	2275.29
845.77	2236.38
845.94	2199.52
846.10	2432.99
846.27	2062.30
846.44	2170.85
846.61	2113.50
846.78	2297.82
846.95	2308.06
847.12	2078.69
847.29	2160.61
847.46	2209.76
847.63	2367.45
847.80	2183.13
847.97	2195.42
848.14	2541.53
848.31	2277.34
848.48	2224.09
848.65	2179.04
848.82	2172.89
848.98	2559.96
849.15	2203.61
849.32	2394.08
849.49	2357.21
849.66	2187.23
849.83	2207.71
850.00	2131.94
850.17	2310.11
850.34	2220.00
850.51	2127.84
850.68	2238.43
850.85	2514.91
851.01	2238.43
851.18	2248.67
851.35	2234.33
851.52	2246.62
851.69	2365.40
851.86	2103.26
852.03	2189.28
852.20	2299.87
852.37	2236.38
852.53	2131.94
852.70	2236.38
852.87	2222.05
853.04	2367.45
853.21	2236.38
853.38	2258.91
853.55	2490.33
853.72	2342.88
853.89	2193.37
854.05	2228.19
854.22	2254.81
854.39	2203.61
854.56	2179.04
854.73	2256.86
854.90	2127.84
855.07	2322.40
855.23	2113.50
855.40	2074.59
855.57	2240.48
855.74	2080.74
855.91	2447.32
856.08	2115.55
856.25	2187.23
856.41	2179.04
856.58	2138.08
856.75	2207.71
856.92	2088.93
857.09	2363.36
857.26	2035.68
857.42	2164.70
857.59	2357.21
857.76	2211.81
857.93	2189.28
858.10	2209.76
858.27	2183.13
858.43	2234.33
858.60	2154.46
858.77	2054.11
858.94	2138.08
859.11	2377.69
859.27	2263.01
859.44	2199.52
859.61	2418.65
859.78	2220.00
859.95	2168.80
860.12	2209.76
860.28	2457.56
860.45	2402.27
860.62	2136.03
860.79	2258.91
860.95	2295.77
861.12	2129.89
861.29	2152.42
861.46	2164.70
861.63	2275.29
861.79	2162.66
861.96	2174.94
862.13	2115.55
862.30	2320.35
862.47	2250.72
862.63	2078.69
862.80	2179.04
862.97	2351.07
863.14	2269.15
863.30	2209.76
863.47	2250.72
863.64	2355.16
863.81	2297.82
863.97	2097.12
864.14	2217.95
864.31	2254.81
864.48	2252.77
864.65	2129.89
864.81	2277.34
864.98	2287.58
865.15	2324.44
865.32	2179.04
865.48	2369.50
865.65	2449.37
865.82	2230.24
865.98	2263.01
866.15	2318.30
866.32	2209.76
866.49	2340.83
866.65	2265.05
866.82	2203.61
866.99	2240.48
867.16	2131.94
867.32	2172.89
867.49	2136.03
867.66	2203.61
867.83	2146.27
867.99	2076.64
868.16	2152.42
868.33	2117.60
868.49	2342.88
868.66	2195.42
868.83	2209.76
868.99	2224.09
869.16	2252.77
869.33	2263.01
869.50	2285.53
869.66	2228.19
869.83	2256.86
870.00	2080.74
870.16	2310.11
870.33	2242.53
870.50	2299.87
870.66	2258.91
870.83	2314.20
871.00	2213.85
871.17	2193.37
871.33	2250.72
871.50	2181.09
871.67	2226.14
871.83	2213.85
872.00	2310.11
872.17	2185.18
872.33	2412.51
872.50	2359.26
872.67	2152.42
872.83	2275.29
873.00	2199.52
873.17	2267.10
873.33	2250.72
873.50	2240.48
873.67	2166.75
873.83	2228.19
874.00	2150.37
874.16	2314.20
874.33	2174.94
874.50	2101.22
874.66	2279.39
874.83	2207.71
875.00	2404.32
875.16	2312.16
875.33	2275.29
875.50	2021.35
875.66	2205.66
875.83	2283.49
875.99	2197.47
876.16	2205.66
876.33	2205.66
876.49	2158.56
876.66	2267.10
876.83	2164.70
876.99	2125.79
877.16	2248.67
877.32	2211.81
877.49	2123.74
877.66	2301.92
877.82	2400.22
877.99	2220.00
878.15	2310.11
878.32	2213.85
878.49	2289.63
878.65	2215.90
878.82	2361.31
878.98	2146.27
879.15	2312.16
879.32	2322.40
879.48	2265.05
879.65	2230.24
879.81	2203.61
879.98	2220.00
880.15	2199.52
880.31	2308.06
880.48	2189.28
880.64	2332.64
880.81	2277.34
880.97	2424.80
881.14	2406.36
881.31	2154.46
881.47	2408.41
881.64	2193.37
881.80	2136.03
881.97	2289.63
882.13	2293.72
882.30	2183.13
882.47	2220.00
882.63	2129.89
882.80	2207.71
882.96	2187.23
883.13	2359.26
883.29	2228.19
883.46	2195.42
883.62	2473.95
883.79	2226.14
883.95	2359.26
884.12	2191.33
884.29	2334.68
884.45	2334.68
884.62	2271.20
884.78	2156.51
884.95	2414.56
885.11	2242.53
885.28	2277.34
885.44	2166.75
885.61	2297.82
885.77	2357.21
885.94	2322.40
886.10	2244.57
886.27	2211.81
886.43	2469.85
886.60	2437.08
886.76	2136.03
886.93	2142.18
887.09	2269.15
887.26	2066.40
887.42	2252.77
887.59	2346.97
887.75	2473.95
887.92	2353.12
888.08	2324.44
888.25	2420.70
888.41	2330.59
888.58	2185.18
888.74	2138.08
888.91	2152.42
>>>>>End Processed Spectral Data<<<<<
