SpectraSuite Data File
++++++++++++++++++++++++++++++++++++
Date: Thu May 05 13:20:42 CEST 2016
User: root
Dark Spectrum Present: No
Reference Spectrum Present: No
Number of Sampled Component Spectra: 1
Spectrometers: USB4C02835
Integration Time (usec): 100000 (USB4C02835)
Spectra Averaged: 1 (USB4C02835)
Boxcar Smoothing: 0 (USB4C02835)
Correct for Electrical Dark: No (USB4C02835)
Strobe/Lamp Enabled: No (USB4C02835)
Correct for Detector Non-linearity: No (USB4C02835)
Correct for Stray Light: No (USB4C02835)
Number of Pixels in Processed Spectrum: 3648
>>>>>Begin Processed Spectral Data<<<<<
177.47	1812.45
177.69	1812.45
177.91	1812.45
178.13	1802.21
178.36	1785.83
178.58	2131.94
178.80	2301.92
179.02	2168.80
179.24	2142.18
179.46	2207.71
179.68	2209.76
179.90	2293.72
180.13	2240.48
180.35	2111.46
180.57	2129.89
180.79	2303.96
181.01	2267.10
181.23	2129.89
181.45	2320.35
181.67	2236.38
181.90	2424.80
182.12	2099.17
182.34	2027.49
182.56	2310.11
182.78	2285.53
183.00	2156.51
183.22	2148.32
183.44	2144.22
183.66	2492.38
183.89	2297.82
184.11	2236.38
184.33	2260.96
184.55	2346.97
184.77	2195.42
184.99	2160.61
185.21	2133.98
185.43	2455.51
185.65	2158.56
185.87	2166.75
186.10	2498.52
186.32	2420.70
186.54	2195.42
186.76	2226.14
186.98	2371.55
187.20	2205.66
187.42	2129.89
187.64	2097.12
187.86	2301.92
188.08	2291.68
188.30	2144.22
188.52	2207.71
188.75	2363.36
188.97	2406.36
189.19	2127.84
189.41	2138.08
189.63	2297.82
189.85	2230.24
190.07	2101.22
190.29	2088.93
190.51	2275.29
190.73	2183.13
190.95	2166.75
191.17	2097.12
191.39	2117.60
191.61	2291.68
191.84	2140.13
192.06	2240.48
192.28	2093.02
192.50	2674.65
192.72	2234.33
192.94	2211.81
193.16	2357.21
193.38	2277.34
193.60	2148.32
193.82	2179.04
194.04	2414.56
194.26	2310.11
194.48	2211.81
194.70	2203.61
194.92	2277.34
195.14	2346.97
195.36	2170.85
195.58	2183.13
195.80	2248.67
196.02	2195.42
196.24	2154.46
196.46	2281.44
196.69	2236.38
196.91	2500.57
197.13	2111.46
197.35	2179.04
197.57	2437.08
197.79	2281.44
198.01	2207.71
198.23	2234.33
198.45	2310.11
198.67	2187.23
198.89	2107.36
199.11	2199.52
199.33	2236.38
199.55	2056.16
199.77	2127.84
199.99	2246.62
200.21	2299.87
200.43	2318.30
200.65	2117.60
200.87	2047.97
201.09	2267.10
201.31	2250.72
201.53	2211.81
201.75	2209.76
201.97	2281.44
202.19	2203.61
202.41	2217.95
202.63	2283.49
202.85	2389.98
203.07	2342.88
203.29	2199.52
203.51	2088.93
203.73	2170.85
203.95	2523.10
204.17	2203.61
204.39	2299.87
204.61	2273.25
204.83	2234.33
205.05	2301.92
205.27	2263.01
205.49	2437.08
205.71	2236.38
205.93	2031.58
206.15	2179.04
206.37	2179.04
206.59	2240.48
206.81	2041.82
207.03	2164.70
207.25	2138.08
207.47	2361.31
207.69	2183.13
207.91	2353.12
208.13	2381.79
208.34	2117.60
208.56	2129.89
208.78	2228.19
209.00	2195.42
209.22	2242.53
209.44	2154.46
209.66	2191.33
209.88	2332.64
210.10	2207.71
210.32	2166.75
210.54	2293.72
210.76	2263.01
210.98	2301.92
211.20	2007.01
211.42	2211.81
211.64	2412.51
211.86	2220.00
212.08	2191.33
212.30	2138.08
212.52	2244.57
212.74	2299.87
212.96	2179.04
213.17	2310.11
213.39	2338.78
213.61	2371.55
213.83	2179.04
214.05	2203.61
214.27	2318.30
214.49	2138.08
214.71	2156.51
214.93	2330.59
215.15	2283.49
215.37	2285.53
215.59	2086.88
215.81	2265.05
216.03	2318.30
216.24	2238.43
216.46	2144.22
216.68	2265.05
216.90	2277.34
217.12	2363.36
217.34	2238.43
217.56	2240.48
217.78	2402.27
218.00	2269.15
218.22	2265.05
218.44	2260.96
218.66	2256.86
218.87	2410.46
219.09	2150.37
219.31	2265.05
219.53	2260.96
219.75	2252.77
219.97	2187.23
220.19	2140.13
220.41	2220.00
220.63	2328.54
220.85	2160.61
221.06	2191.33
221.28	2330.59
221.50	2271.20
221.72	2179.04
221.94	2193.37
222.16	2293.72
222.38	2326.49
222.60	2146.27
222.82	2142.18
223.03	2222.05
223.25	2158.56
223.47	2160.61
223.69	2281.44
223.91	2351.07
224.13	2291.68
224.35	2236.38
224.57	2314.20
224.78	2285.53
225.00	2136.03
225.22	2170.85
225.44	2176.99
225.66	2342.88
225.88	2164.70
226.10	2228.19
226.32	2234.33
226.53	2359.26
226.75	2164.70
226.97	2250.72
227.19	2187.23
227.41	2232.29
227.63	2220.00
227.85	2093.02
228.06	2236.38
228.28	2254.81
228.50	2320.35
228.72	2054.11
228.94	2146.27
229.16	2154.46
229.37	2064.35
229.59	2097.12
229.81	2291.68
230.03	2191.33
230.25	2162.66
230.47	2000.87
230.69	2101.22
230.90	2379.74
231.12	2129.89
231.34	2256.86
231.56	2207.71
231.78	2121.70
232.00	2297.82
232.21	2240.48
232.43	2158.56
232.65	2090.98
232.87	2209.76
233.09	2076.64
233.30	2078.69
233.52	2310.11
233.74	2228.19
233.96	2123.74
234.18	2283.49
234.40	2154.46
234.61	2504.67
234.83	2121.70
235.05	2148.32
235.27	2543.58
235.49	2322.40
235.70	2154.46
235.92	2260.96
236.14	2256.86
236.36	2502.62
236.58	2127.84
236.79	2283.49
237.01	2238.43
237.23	2263.01
237.45	2318.30
237.67	2240.48
237.88	2275.29
238.10	2486.23
238.32	2095.07
238.54	2252.77
238.76	2232.29
238.97	2176.99
239.19	2170.85
239.41	2187.23
239.63	2394.08
239.85	2142.18
240.06	2242.53
240.28	2209.76
240.50	2322.40
240.72	2293.72
240.93	2138.08
241.15	2353.12
241.37	2160.61
241.59	2383.84
241.81	2232.29
242.02	2191.33
242.24	2365.40
242.46	2275.29
242.68	2113.50
242.89	2197.47
243.11	2334.68
243.33	2238.43
243.55	2201.57
243.76	2240.48
243.98	2123.74
244.20	2189.28
244.42	2199.52
244.64	2170.85
244.85	2084.83
245.07	2162.66
245.29	2172.89
245.51	2217.95
245.72	2326.49
245.94	2371.55
246.16	2164.70
246.38	2217.95
246.59	2142.18
246.81	2168.80
247.03	2142.18
247.24	2107.36
247.46	2195.42
247.68	2301.92
247.90	2109.41
248.11	2164.70
248.33	2299.87
248.55	2291.68
248.77	2232.29
248.98	2236.38
249.20	2394.08
249.42	2254.81
249.64	2199.52
249.85	2203.61
250.07	2224.09
250.29	2406.36
250.50	2203.61
250.72	2039.78
250.94	2306.01
251.16	2400.22
251.37	2176.99
251.59	2240.48
251.81	2342.88
252.02	2396.12
252.24	2172.89
252.46	2195.42
252.68	2191.33
252.89	2211.81
253.11	2088.93
253.33	2346.97
253.54	2359.26
253.76	2117.60
253.98	2244.57
254.20	2191.33
254.41	2244.57
254.63	2283.49
254.85	2052.06
255.06	2203.61
255.28	2367.45
255.50	2228.19
255.71	2136.03
255.93	2115.55
256.15	2236.38
256.36	2293.72
256.58	2117.60
256.80	2185.18
257.02	2250.72
257.23	2234.33
257.45	2187.23
257.67	2211.81
257.88	2220.00
258.10	2267.10
258.32	2228.19
258.53	2191.33
258.75	2375.64
258.97	2140.13
259.18	2152.42
259.40	2084.83
259.62	2392.03
259.83	2310.11
260.05	2193.37
260.27	2666.46
260.48	2316.25
260.70	2113.50
260.92	2170.85
261.13	2314.20
261.35	2334.68
261.57	2301.92
261.78	2039.78
262.00	2138.08
262.22	2258.91
262.43	2205.66
262.65	2244.57
262.86	2209.76
263.08	2500.57
263.30	2236.38
263.51	2033.63
263.73	2179.04
263.95	2342.88
264.16	2154.46
264.38	2084.83
264.60	2162.66
264.81	2301.92
265.03	2375.64
265.25	2340.83
265.46	2220.00
265.68	2406.36
265.89	2342.88
266.11	2047.97
266.33	2195.42
266.54	2271.20
266.76	2275.29
266.98	2297.82
267.19	2334.68
267.41	2351.07
267.62	2244.57
267.84	2176.99
268.06	2310.11
268.27	2220.00
268.49	2375.64
268.70	2285.53
268.92	2158.56
269.14	2179.04
269.35	2105.31
269.57	2220.00
269.79	2209.76
270.00	2267.10
270.22	2424.80
270.43	2088.93
270.65	2033.63
270.87	2244.57
271.08	2336.73
271.30	2217.95
271.51	2181.09
271.73	2295.77
271.95	2318.30
272.16	2152.42
272.38	2297.82
272.59	2156.51
272.81	2269.15
273.02	2160.61
273.24	2236.38
273.46	2383.84
273.67	2097.12
273.89	2056.16
274.10	2152.42
274.32	2363.36
274.54	2281.44
274.75	2199.52
274.97	2156.51
275.18	2299.87
275.40	2316.25
275.61	2150.37
275.83	2289.63
276.05	2154.46
276.26	2213.85
276.48	2297.82
276.69	2187.23
276.91	2121.70
277.12	2351.07
277.34	2367.45
277.55	2426.84
277.77	2267.10
277.99	2170.85
278.20	2093.02
278.42	2193.37
278.63	2193.37
278.85	2179.04
279.06	2088.93
279.28	2316.25
279.49	2369.50
279.71	2320.35
279.93	2228.19
280.14	2236.38
280.36	2078.69
280.57	2312.16
280.79	2303.96
281.00	2144.22
281.22	2150.37
281.43	2308.06
281.65	2066.40
281.86	2127.84
282.08	2289.63
282.29	2381.79
282.51	2123.74
282.73	2113.50
282.94	2097.12
283.16	2422.75
283.37	2373.60
283.59	2244.57
283.80	2289.63
284.02	2265.05
284.23	2359.26
284.45	2179.04
284.66	2146.27
284.88	2156.51
285.09	2211.81
285.31	2228.19
285.52	2308.06
285.74	2107.36
285.95	2371.55
286.17	2170.85
286.38	2371.55
286.60	2187.23
286.81	2070.50
287.03	2269.15
287.24	2230.24
287.46	2301.92
287.67	2267.10
287.89	2457.56
288.10	2162.66
288.32	2242.53
288.53	2357.21
288.75	2277.34
288.96	2242.53
289.18	2136.03
289.39	2195.42
289.61	2340.83
289.82	2504.67
290.04	2383.84
290.25	2211.81
290.47	2211.81
290.68	2199.52
290.90	2330.59
291.11	2056.16
291.33	2326.49
291.54	2234.33
291.76	2166.75
291.97	2263.01
292.18	2232.29
292.40	2211.81
292.61	2250.72
292.83	2326.49
293.04	2236.38
293.26	2357.21
293.47	2217.95
293.69	2138.08
293.90	2209.76
294.12	2342.88
294.33	2281.44
294.55	2244.57
294.76	2342.88
294.97	2330.59
295.19	2496.47
295.40	2234.33
295.62	2254.81
295.83	2273.25
296.05	2238.43
296.26	2246.62
296.48	2205.66
296.69	2250.72
296.90	2220.00
297.12	2271.20
297.33	2389.98
297.55	2342.88
297.76	2269.15
297.98	2299.87
298.19	2248.67
298.41	2293.72
298.62	2144.22
298.83	2281.44
299.05	2275.29
299.26	2160.61
299.48	2150.37
299.69	2346.97
299.90	2244.57
300.12	2199.52
300.33	2365.40
300.55	2191.33
300.76	2215.90
300.98	2160.61
301.19	2248.67
301.40	2199.52
301.62	2209.76
301.83	2275.29
302.05	2189.28
302.26	2197.47
302.47	2258.91
302.69	2080.74
302.90	2187.23
303.12	2072.54
303.33	2310.11
303.54	2432.99
303.76	2236.38
303.97	2179.04
304.19	2394.08
304.40	2136.03
304.61	2408.41
304.83	2432.99
305.04	2344.92
305.26	2277.34
305.47	2256.86
305.68	2269.15
305.90	2064.35
306.11	2375.64
306.33	2244.57
306.54	2166.75
306.75	2152.42
306.97	2131.94
307.18	2095.07
307.39	2152.42
307.61	2326.49
307.82	2285.53
308.04	2281.44
308.25	2131.94
308.46	2340.83
308.68	2226.14
308.89	2207.71
309.10	2306.01
309.32	2224.09
309.53	2228.19
309.74	2238.43
309.96	2211.81
310.17	2332.64
310.39	2176.99
310.60	2246.62
310.81	2236.38
311.03	2062.30
311.24	2363.36
311.45	2285.53
311.67	2392.03
311.88	2265.05
312.09	2224.09
312.31	2222.05
312.52	2242.53
312.73	2197.47
312.95	2125.79
313.16	2197.47
313.37	2277.34
313.59	2379.74
313.80	2338.78
314.01	2318.30
314.23	2158.56
314.44	2250.72
314.65	2101.22
314.87	2158.56
315.08	2154.46
315.29	2203.61
315.51	2154.46
315.72	2133.98
315.93	2402.27
316.15	2199.52
316.36	2179.04
316.57	2283.49
316.79	2269.15
317.00	2228.19
317.21	2269.15
317.43	2160.61
317.64	2269.15
317.85	2166.75
318.07	2111.46
318.28	2318.30
318.49	2355.16
318.70	2514.91
318.92	2281.44
319.13	2408.41
319.34	2426.84
319.56	2256.86
319.77	2455.51
319.98	2389.98
320.20	2375.64
320.41	2289.63
320.62	2342.88
320.83	2207.71
321.05	2463.71
321.26	2211.81
321.47	2232.29
321.69	2381.79
321.90	2129.89
322.11	2146.27
322.32	2250.72
322.54	2340.83
322.75	2191.33
322.96	2504.67
323.18	2138.08
323.39	2033.63
323.60	2109.41
323.81	2318.30
324.03	2138.08
324.24	2246.62
324.45	2273.25
324.66	2195.42
324.88	2357.21
325.09	2406.36
325.30	2228.19
325.52	2162.66
325.73	2326.49
325.94	2107.36
326.15	2076.64
326.37	2133.98
326.58	2328.54
326.79	2449.37
327.00	2179.04
327.22	2269.15
327.43	2236.38
327.64	2170.85
327.85	2226.14
328.07	2301.92
328.28	2422.75
328.49	2162.66
328.70	2193.37
328.92	2230.24
329.13	2316.25
329.34	2291.68
329.55	2379.74
329.76	2312.16
329.98	2176.99
330.19	2414.56
330.40	2324.44
330.61	2234.33
330.83	2422.75
331.04	2191.33
331.25	2244.57
331.46	2226.14
331.68	2105.31
331.89	2326.49
332.10	2265.05
332.31	2129.89
332.52	2191.33
332.74	2400.22
332.95	2127.84
333.16	2193.37
333.37	2363.36
333.58	2228.19
333.80	2248.67
334.01	2127.84
334.22	2144.22
334.43	2203.61
334.64	2127.84
334.86	2146.27
335.07	2176.99
335.28	2439.13
335.49	2119.65
335.70	2314.20
335.92	2408.41
336.13	2529.24
336.34	2244.57
336.55	2244.57
336.76	2277.34
336.98	2072.54
337.19	2205.66
337.40	2371.55
337.61	2500.57
337.82	2285.53
338.04	2375.64
338.25	2095.07
338.46	2217.95
338.67	2125.79
338.88	2168.80
339.09	2050.02
339.31	2123.74
339.52	2129.89
339.73	2144.22
339.94	2277.34
340.15	2336.73
340.36	2129.89
340.58	2250.72
340.79	2191.33
341.00	2283.49
341.21	2115.55
341.42	2359.26
341.63	2250.72
341.85	2320.35
342.06	2240.48
342.27	2166.75
342.48	2336.73
342.69	2170.85
342.90	2267.10
343.12	2367.45
343.33	2187.23
343.54	2389.98
343.75	2346.97
343.96	2254.81
344.17	2170.85
344.38	2215.90
344.60	2226.14
344.81	2123.74
345.02	2236.38
345.23	2301.92
345.44	2521.05
345.65	2295.77
345.86	2267.10
346.07	2197.47
346.29	2187.23
346.50	2260.96
346.71	2293.72
346.92	2408.41
347.13	2451.42
347.34	2269.15
347.55	2156.51
347.76	2203.61
347.98	2115.55
348.19	2318.30
348.40	2301.92
348.61	2248.67
348.82	2486.23
349.03	2281.44
349.24	2121.70
349.45	2459.61
349.66	2054.11
349.88	2285.53
350.09	2189.28
350.30	2465.75
350.51	2379.74
350.72	2277.34
350.93	2252.77
351.14	2199.52
351.35	2283.49
351.56	2195.42
351.77	2295.77
351.99	2301.92
352.20	2404.32
352.41	2445.27
352.62	2023.39
352.83	2236.38
353.04	2213.85
353.25	2185.18
353.46	2349.02
353.67	2408.41
353.88	2080.74
354.09	2211.81
354.30	2263.01
354.52	2326.49
354.73	2179.04
354.94	2170.85
355.15	2232.29
355.36	2480.09
355.57	2265.05
355.78	2306.01
355.99	2193.37
356.20	2142.18
356.41	2359.26
356.62	2326.49
356.83	2211.81
357.04	2392.03
357.25	2117.60
357.46	2205.66
357.68	2105.31
357.89	2162.66
358.10	2277.34
358.31	2281.44
358.52	2230.24
358.73	2097.12
358.94	2142.18
359.15	2207.71
359.36	2207.71
359.57	2285.53
359.78	2222.05
359.99	2271.20
360.20	2193.37
360.41	2215.90
360.62	2293.72
360.83	2326.49
361.04	2209.76
361.25	2246.62
361.46	2465.75
361.67	2201.57
361.88	2267.10
362.09	2234.33
362.30	2279.39
362.51	2197.47
362.72	2176.99
362.93	2392.03
363.14	2295.77
363.35	2303.96
363.56	2224.09
363.78	2389.98
363.99	2426.84
364.20	2215.90
364.41	2224.09
364.62	2437.08
364.83	2310.11
365.04	2252.77
365.25	2201.57
365.46	2539.48
365.67	2215.90
365.88	2199.52
366.09	2199.52
366.30	2217.95
366.51	2301.92
366.72	2113.50
366.93	2215.90
367.14	2234.33
367.35	2416.60
367.56	2254.81
367.77	2363.36
367.98	2248.67
368.18	2287.58
368.39	2228.19
368.60	2029.54
368.81	2285.53
369.02	2291.68
369.23	2220.00
369.44	2109.41
369.65	2250.72
369.86	2269.15
370.07	2281.44
370.28	2088.93
370.49	2336.73
370.70	2346.97
370.91	2125.79
371.12	2080.74
371.33	2349.02
371.54	2195.42
371.75	2338.78
371.96	2078.69
372.17	2258.91
372.38	2314.20
372.59	2232.29
372.80	2215.90
373.01	2195.42
373.22	2250.72
373.43	2211.81
373.64	2168.80
373.85	2383.84
374.06	2420.70
374.26	2213.85
374.47	2316.25
374.68	2365.40
374.89	2316.25
375.10	2170.85
375.31	2285.53
375.52	2203.61
375.73	2209.76
375.94	2072.54
376.15	2387.93
376.36	2246.62
376.57	2162.66
376.78	2158.56
376.99	2273.25
377.20	2402.27
377.40	2176.99
377.61	2334.68
377.82	2101.22
378.03	2416.60
378.24	2346.97
378.45	2209.76
378.66	2265.05
378.87	2021.35
379.08	2064.35
379.29	2226.14
379.50	2320.35
379.71	2250.72
379.91	2351.07
380.12	2179.04
380.33	2240.48
380.54	2236.38
380.75	2275.29
380.96	2236.38
381.17	2220.00
381.38	2213.85
381.59	2283.49
381.80	2226.14
382.00	2316.25
382.21	2308.06
382.42	2447.32
382.63	2428.89
382.84	2371.55
383.05	2389.98
383.26	2396.12
383.47	2275.29
383.68	2260.96
383.88	2269.15
384.09	2306.01
384.30	2408.41
384.51	2324.44
384.72	2160.61
384.93	2117.60
385.14	2291.68
385.35	2297.82
385.55	2068.45
385.76	2379.74
385.97	2228.19
386.18	2154.46
386.39	2185.18
386.60	2195.42
386.81	2176.99
387.02	2168.80
387.22	2160.61
387.43	2389.98
387.64	2326.49
387.85	2402.27
388.06	2514.91
388.27	3823.56
388.48	8275.84
388.68	11745.10
388.89	14188.33
389.10	15529.75
389.31	13926.19
389.52	11022.17
389.73	9478.00
389.93	8632.19
390.14	7872.39
390.35	7126.93
390.56	6498.20
390.77	5222.32
390.98	3981.25
391.18	3223.50
391.39	2670.55
391.60	2416.60
391.81	2408.41
392.02	2215.90
392.23	2514.91
392.43	2383.84
392.64	2379.74
392.85	2183.13
393.06	2447.32
393.27	2265.05
393.47	2193.37
393.68	2275.29
393.89	2228.19
394.10	2383.84
394.31	2236.38
394.52	2150.37
394.72	2179.04
394.93	2357.21
395.14	2162.66
395.35	2306.01
395.56	2166.75
395.76	2330.59
395.97	2279.39
396.18	2363.36
396.39	2385.88
396.60	2734.04
396.80	2508.76
397.01	2375.64
397.22	2439.13
397.43	2439.13
397.64	2224.09
397.84	2273.25
398.05	2500.57
398.26	2295.77
398.47	2371.55
398.67	2346.97
398.88	2291.68
399.09	2256.86
399.30	2189.28
399.51	2263.01
399.71	2170.85
399.92	2310.11
400.13	2349.02
400.34	2244.57
400.54	2228.19
400.75	2394.08
400.96	2310.11
401.17	2359.26
401.37	2326.49
401.58	2217.95
401.79	2269.15
402.00	2308.06
402.21	2629.59
402.41	2553.82
402.62	2648.02
402.83	2713.56
403.04	2707.41
403.24	2820.05
403.45	2420.70
403.66	2471.90
403.87	2447.32
404.07	2502.62
404.28	2502.62
404.49	2480.09
404.70	2322.40
404.90	2258.91
405.11	2318.30
405.32	2338.78
405.52	2275.29
405.73	2215.90
405.94	2189.28
406.15	2201.57
406.35	2342.88
406.56	2281.44
406.77	2258.91
406.98	2263.01
407.18	2152.42
407.39	2365.40
407.60	2260.96
407.80	2295.77
408.01	2240.48
408.22	2340.83
408.43	2170.85
408.63	2314.20
408.84	2310.11
409.05	2320.35
409.25	2220.00
409.46	2121.70
409.67	2199.52
409.88	2168.80
410.08	2273.25
410.29	2230.24
410.50	2269.15
410.70	2275.29
410.91	2179.04
411.12	2269.15
411.32	2234.33
411.53	2158.56
411.74	2303.96
411.95	2344.92
412.15	2318.30
412.36	2375.64
412.57	2308.06
412.77	2471.90
412.98	2279.39
413.19	2183.13
413.39	2230.24
413.60	2316.25
413.81	2387.93
414.01	2228.19
414.22	2322.40
414.43	2291.68
414.63	2185.18
414.84	2351.07
415.05	2244.57
415.25	2105.31
415.46	2269.15
415.67	2281.44
415.87	2273.25
416.08	2254.81
416.29	2215.90
416.49	2344.92
416.70	2189.28
416.91	2217.95
417.11	2220.00
417.32	2332.64
417.53	2316.25
417.73	2299.87
417.94	2220.00
418.15	2306.01
418.35	2295.77
418.56	2281.44
418.77	2506.71
418.97	2226.14
419.18	2271.20
419.38	2033.63
419.59	2236.38
419.80	2379.74
420.00	2150.37
420.21	2306.01
420.42	2349.02
420.62	2258.91
420.83	2179.04
421.04	2275.29
421.24	2226.14
421.45	2441.18
421.65	2299.87
421.86	2211.81
422.07	2363.36
422.27	2330.59
422.48	2258.91
422.69	2265.05
422.89	2269.15
423.10	2220.00
423.30	2213.85
423.51	2297.82
423.72	2291.68
423.92	2328.54
424.13	2058.21
424.33	2242.53
424.54	2367.45
424.75	2308.06
424.95	2351.07
425.16	2220.00
425.36	2258.91
425.57	2353.12
425.78	2322.40
425.98	2295.77
426.19	2236.38
426.39	2154.46
426.60	2252.77
426.81	2328.54
427.01	2230.24
427.22	2107.36
427.42	2113.50
427.63	2166.75
427.83	2392.03
428.04	2402.27
428.25	2365.40
428.45	2342.88
428.66	2385.88
428.86	2308.06
429.07	2154.46
429.28	2168.80
429.48	2189.28
429.69	2232.29
429.89	2277.34
430.10	2068.45
430.30	2375.64
430.51	2293.72
430.71	2154.46
430.92	2318.30
431.13	2209.76
431.33	2275.29
431.54	2289.63
431.74	2424.80
431.95	2580.44
432.15	2238.43
432.36	2332.64
432.56	2275.29
432.77	2439.13
432.98	2435.03
433.18	2277.34
433.39	2191.33
433.59	2189.28
433.80	2406.36
434.00	2404.32
434.21	2170.85
434.41	2133.98
434.62	2400.22
434.82	2133.98
435.03	2220.00
435.23	2332.64
435.44	2129.89
435.64	2199.52
435.85	2291.68
436.06	2316.25
436.26	2297.82
436.47	2185.18
436.67	2154.46
436.88	2248.67
437.08	2359.26
437.29	2414.56
437.49	2199.52
437.70	2437.08
437.90	2246.62
438.11	2385.88
438.31	2377.69
438.52	2490.33
438.72	2432.99
438.93	2588.63
439.13	2355.16
439.34	2314.20
439.54	2308.06
439.75	2330.59
439.95	2297.82
440.16	2183.13
440.36	2209.76
440.57	2265.05
440.77	2320.35
440.98	2267.10
441.18	2334.68
441.39	2154.46
441.59	2195.42
441.80	2480.09
442.00	2211.81
442.21	2338.78
442.41	2097.12
442.62	2328.54
442.82	2187.23
443.02	2252.77
443.23	2244.57
443.43	2269.15
443.64	2447.32
443.84	2256.86
444.05	2394.08
444.25	2275.29
444.46	2258.91
444.66	2275.29
444.87	2422.75
445.07	2150.37
445.28	2287.58
445.48	2404.32
445.69	2297.82
445.89	2469.85
446.09	2283.49
446.30	2490.33
446.50	2834.39
446.71	4444.09
446.91	5715.88
447.12	6410.14
447.32	6784.92
447.53	6225.82
447.73	5136.31
447.93	4554.68
448.14	4163.52
448.34	4136.90
448.55	3549.13
448.75	3620.81
448.96	3373.00
449.16	3067.86
449.36	2861.01
449.57	2602.97
449.77	2412.51
449.98	2244.57
450.18	2334.68
450.39	2389.98
450.59	2398.17
450.79	2232.29
451.00	2258.91
451.20	2306.01
451.41	2228.19
451.61	2285.53
451.81	2199.52
452.02	2240.48
452.22	2267.10
452.43	2271.20
452.63	2197.47
452.84	2295.77
453.04	2209.76
453.24	2291.68
453.45	2203.61
453.65	2283.49
453.86	2310.11
454.06	2205.66
454.26	2256.86
454.47	2209.76
454.67	2373.60
454.87	2297.82
455.08	2277.34
455.28	2408.41
455.49	2351.07
455.69	2263.01
455.89	2535.39
456.10	2404.32
456.30	2236.38
456.51	2357.21
456.71	2242.53
456.91	2301.92
457.12	2242.53
457.32	2316.25
457.52	2154.46
457.73	2334.68
457.93	2330.59
458.14	2275.29
458.34	2152.42
458.54	2336.73
458.75	2199.52
458.95	2344.92
459.15	2252.77
459.36	2258.91
459.56	2346.97
459.76	2451.42
459.97	2308.06
460.17	2209.76
460.37	2377.69
460.58	2328.54
460.78	2283.49
460.99	2195.42
461.19	2285.53
461.39	2226.14
461.60	2220.00
461.80	2285.53
462.00	2117.60
462.21	2301.92
462.41	2164.70
462.61	2174.94
462.82	2109.41
463.02	2330.59
463.22	2273.25
463.43	2260.96
463.63	2303.96
463.83	2418.65
464.04	2301.92
464.24	2271.20
464.44	2224.09
464.64	2308.06
464.85	2242.53
465.05	2484.19
465.25	2318.30
465.46	2226.14
465.66	2351.07
465.86	2162.66
466.07	2258.91
466.27	2209.76
466.47	2136.03
466.68	2062.30
466.88	2416.60
467.08	2306.01
467.29	2283.49
467.49	2273.25
467.69	2312.16
467.89	2357.21
468.10	2215.90
468.30	2295.77
468.50	2338.78
468.71	2441.18
468.91	2154.46
469.11	2486.23
469.31	2299.87
469.52	2174.94
469.72	2422.75
469.92	2367.45
470.13	2299.87
470.33	2279.39
470.53	2330.59
470.73	2629.59
470.94	3071.95
471.14	3055.57
471.34	3585.99
471.54	3422.16
471.75	3112.91
471.95	2807.77
472.15	2686.94
472.36	2815.96
472.56	2693.08
472.76	2668.50
472.96	2699.22
473.17	2623.45
473.37	2496.47
473.57	2349.02
473.77	2334.68
473.98	2359.26
474.18	2140.13
474.38	2555.86
474.58	2176.99
474.79	2250.72
474.99	2336.73
475.19	2435.03
475.39	2191.33
475.60	2277.34
475.80	2285.53
476.00	2256.86
476.20	2242.53
476.41	2242.53
476.61	2367.45
476.81	2385.88
477.01	2168.80
477.21	2441.18
477.42	2435.03
477.62	2150.37
477.82	2410.46
478.02	2195.42
478.23	2326.49
478.43	2154.46
478.63	2238.43
478.83	2295.77
479.03	2226.14
479.24	2420.70
479.44	2463.71
479.64	2195.42
479.84	2066.40
480.04	2277.34
480.25	2408.41
480.45	2189.28
480.65	2254.81
480.85	2414.56
481.06	2211.81
481.26	2318.30
481.46	2289.63
481.66	2260.96
481.86	2179.04
482.06	2314.20
482.27	2183.13
482.47	2252.77
482.67	2297.82
482.87	2236.38
483.07	2318.30
483.28	2217.95
483.48	2158.56
483.68	2226.14
483.88	2150.37
484.08	1988.58
484.29	2119.65
484.49	2234.33
484.69	2136.03
484.89	2439.13
485.09	2289.63
485.29	2349.02
485.50	2351.07
485.70	2252.77
485.90	2361.31
486.10	2324.44
486.30	2279.39
486.50	2371.55
486.71	2312.16
486.91	2379.74
487.11	2392.03
487.31	2148.32
487.51	2383.84
487.71	2164.70
487.91	2150.37
488.12	2047.97
488.32	2121.70
488.52	2277.34
488.72	2109.41
488.92	2299.87
489.12	2346.97
489.32	2400.22
489.53	2318.30
489.73	2107.36
489.93	2521.05
490.13	2220.00
490.33	2158.56
490.53	2322.40
490.73	2316.25
490.94	2080.74
491.14	2365.40
491.34	2297.82
491.54	2555.86
491.74	3248.08
491.94	3710.92
492.14	4018.11
492.34	4110.27
492.54	3745.73
492.75	3176.40
492.95	3174.35
493.15	2971.60
493.35	2916.31
493.55	2820.05
493.75	2736.09
493.95	2697.17
494.15	2570.20
494.35	2465.75
494.56	2355.16
494.76	2324.44
494.96	2394.08
495.16	2283.49
495.36	2324.44
495.56	2310.11
495.76	2224.09
495.96	2236.38
496.16	2224.09
496.36	2439.13
496.56	2265.05
496.77	2277.34
496.97	2232.29
497.17	2389.98
497.37	2236.38
497.57	2334.68
497.77	2297.82
497.97	2154.46
498.17	2258.91
498.37	2220.00
498.57	2334.68
498.77	2193.37
498.97	2291.68
499.17	2416.60
499.38	2314.20
499.58	2322.40
499.78	2379.74
499.98	2293.72
500.18	2234.33
500.38	2199.52
500.58	2416.60
500.78	2967.51
500.98	5160.88
501.18	7266.19
501.38	8929.14
501.58	9981.80
501.78	9658.22
501.98	7720.84
502.18	6436.77
502.38	5484.46
502.58	5126.07
502.78	4755.38
502.98	4456.38
503.18	4270.01
503.38	3876.80
503.59	3405.77
503.79	3145.68
503.99	2940.88
504.19	2801.62
504.39	2813.91
504.59	2899.92
504.79	2834.39
504.99	2781.14
505.19	2592.73
505.39	2457.56
505.59	2691.03
505.79	2674.65
505.99	2459.61
506.19	2289.63
506.39	2471.90
506.59	2363.36
506.79	2256.86
506.99	2465.75
507.19	2224.09
507.39	2301.92
507.59	2226.14
507.79	2209.76
507.99	2246.62
508.19	2207.71
508.39	2236.38
508.59	2254.81
508.79	2412.51
508.99	2414.56
509.19	2209.76
509.39	2363.36
509.59	2133.98
509.79	2242.53
509.99	2232.29
510.19	2260.96
510.39	2301.92
510.59	2250.72
510.79	2234.33
510.99	2170.85
511.19	2265.05
511.39	2467.80
511.59	2355.16
511.79	2447.32
511.99	2267.10
512.19	2502.62
512.38	2244.57
512.58	2230.24
512.78	2244.57
512.98	2361.31
513.18	2428.89
513.38	2125.79
513.58	2396.12
513.78	2236.38
513.98	2269.15
514.18	2189.28
514.38	2238.43
514.58	2295.77
514.78	2211.81
514.98	2183.13
515.18	2281.44
515.38	2201.57
515.58	2426.84
515.78	2160.61
515.98	2271.20
516.18	2258.91
516.38	2254.81
516.57	2275.29
516.77	2195.42
516.97	2346.97
517.17	2207.71
517.37	2093.02
517.57	2334.68
517.77	2209.76
517.97	2174.94
518.17	2351.07
518.37	2205.66
518.57	2228.19
518.77	2349.02
518.97	2269.15
519.16	2273.25
519.36	2445.27
519.56	2234.33
519.76	2217.95
519.96	2291.68
520.16	2412.51
520.36	2152.42
520.56	2435.03
520.76	2205.66
520.96	2195.42
521.16	2445.27
521.35	2389.98
521.55	2422.75
521.75	2269.15
521.95	2209.76
522.15	2312.16
522.35	2185.18
522.55	2248.67
522.75	2346.97
522.95	2213.85
523.14	2074.59
523.34	2283.49
523.54	2236.38
523.74	2361.31
523.94	2269.15
524.14	2170.85
524.34	2379.74
524.54	2346.97
524.73	2203.61
524.93	2318.30
525.13	2129.89
525.33	2105.31
525.53	2496.47
525.73	2285.53
525.93	2326.49
526.13	2242.53
526.32	2242.53
526.52	2439.13
526.72	2330.59
526.92	2283.49
527.12	2195.42
527.32	2205.66
527.52	2289.63
527.71	2263.01
527.91	2267.10
528.11	2283.49
528.31	2228.19
528.51	2170.85
528.71	2310.11
528.90	2254.81
529.10	2437.08
529.30	2338.78
529.50	2056.16
529.70	2318.30
529.90	2236.38
530.09	2242.53
530.29	2142.18
530.49	2154.46
530.69	2506.71
530.89	2234.33
531.09	2363.36
531.28	2273.25
531.48	2420.70
531.68	2199.52
531.88	2310.11
532.08	2283.49
532.28	2199.52
532.47	2342.88
532.67	2361.31
532.87	2295.77
533.07	2181.09
533.27	2410.46
533.46	2342.88
533.66	2340.83
533.86	2256.86
534.06	2185.18
534.26	2320.35
534.45	2236.38
534.65	2346.97
534.85	2301.92
535.05	2283.49
535.25	2338.78
535.44	2078.69
535.64	2379.74
535.84	2209.76
536.04	2254.81
536.24	2133.98
536.43	2207.71
536.63	2269.15
536.83	2244.57
537.03	2232.29
537.22	2144.22
537.42	2179.04
537.62	2203.61
537.82	2148.32
538.02	2404.32
538.21	2394.08
538.41	2572.25
538.61	2277.34
538.81	2293.72
539.00	2349.02
539.20	2156.51
539.40	2183.13
539.60	2310.11
539.79	2375.64
539.99	2269.15
540.19	2236.38
540.39	2281.44
540.58	2285.53
540.78	2377.69
540.98	2310.11
541.18	2428.89
541.37	2361.31
541.57	2179.04
541.77	2250.72
541.97	2115.55
542.16	2140.13
542.36	2293.72
542.56	2162.66
542.76	2400.22
542.95	2359.26
543.15	2332.64
543.35	2279.39
543.54	2220.00
543.74	2121.70
543.94	2447.32
544.14	2236.38
544.33	2310.11
544.53	2228.19
544.73	2267.10
544.93	2215.90
545.12	2170.85
545.32	2250.72
545.52	2191.33
545.71	2146.27
545.91	2215.90
546.11	2220.00
546.30	2138.08
546.50	2240.48
546.70	2318.30
546.90	2265.05
547.09	2111.46
547.29	2363.36
547.49	2254.81
547.68	2258.91
547.88	2166.75
548.08	2340.83
548.27	2772.95
548.47	2195.42
548.67	2244.57
548.87	2346.97
549.06	2197.47
549.26	2303.96
549.46	2365.40
549.65	2166.75
549.85	2228.19
550.05	2324.44
550.24	2144.22
550.44	2195.42
550.64	2301.92
550.83	2258.91
551.03	2387.93
551.23	2338.78
551.42	2318.30
551.62	2203.61
551.82	2207.71
552.01	2217.95
552.21	2392.03
552.41	2285.53
552.60	2404.32
552.80	2299.87
553.00	2191.33
553.19	2224.09
553.39	2432.99
553.59	2156.51
553.78	2338.78
553.98	2281.44
554.17	2101.22
554.37	2271.20
554.57	2330.59
554.76	2140.13
554.96	2187.23
555.16	2334.68
555.35	2332.64
555.55	2318.30
555.75	2242.53
555.94	2383.84
556.14	2070.50
556.33	2367.45
556.53	2209.76
556.73	2293.72
556.92	2220.00
557.12	2310.11
557.32	2398.17
557.51	2377.69
557.71	2273.25
557.90	2408.41
558.10	2414.56
558.30	2183.13
558.49	2226.14
558.69	2154.46
558.88	2291.68
559.08	2238.43
559.28	2220.00
559.47	2244.57
559.67	2273.25
559.86	2553.82
560.06	2265.05
560.26	2293.72
560.45	2269.15
560.65	2228.19
560.84	2383.84
561.04	2172.89
561.24	2240.48
561.43	2195.42
561.63	2471.90
561.82	2297.82
562.02	2267.10
562.22	2152.42
562.41	2103.26
562.61	2306.01
562.80	2168.80
563.00	2539.48
563.19	2322.40
563.39	2392.03
563.59	2312.16
563.78	2170.85
563.98	2154.46
564.17	2244.57
564.37	2179.04
564.56	2318.30
564.76	2166.75
564.96	2346.97
565.15	2297.82
565.35	2602.97
565.54	2205.66
565.74	2316.25
565.93	2326.49
566.13	2260.96
566.32	2332.64
566.52	2324.44
566.71	2269.15
566.91	2404.32
567.11	2387.93
567.30	2197.47
567.50	2318.30
567.69	2322.40
567.89	2222.05
568.08	2224.09
568.28	2369.50
568.47	2168.80
568.67	2283.49
568.86	2146.27
569.06	2318.30
569.25	2244.57
569.45	2064.35
569.64	2220.00
569.84	2275.29
570.04	2404.32
570.23	2226.14
570.43	2176.99
570.62	2283.49
570.82	2428.89
571.01	2174.94
571.21	2189.28
571.40	2222.05
571.60	2396.12
571.79	2291.68
571.99	2250.72
572.18	2172.89
572.38	2301.92
572.57	2228.19
572.77	2295.77
572.96	2469.85
573.16	2371.55
573.35	2293.72
573.55	2385.88
573.74	2275.29
573.94	2260.96
574.13	2258.91
574.33	2355.16
574.52	2336.73
574.71	2277.34
574.91	2363.36
575.10	2158.56
575.30	2238.43
575.49	2211.81
575.69	2211.81
575.88	2316.25
576.08	2238.43
576.27	2480.09
576.47	2271.20
576.66	2406.36
576.86	2387.93
577.05	2410.46
577.25	2299.87
577.44	2445.27
577.64	2199.52
577.83	2404.32
578.02	2281.44
578.22	2424.80
578.41	2410.46
578.61	2228.19
578.80	2090.98
579.00	2303.96
579.19	2301.92
579.39	2367.45
579.58	2336.73
579.77	2191.33
579.97	2439.13
580.16	2424.80
580.36	2432.99
580.55	2385.88
580.75	2318.30
580.94	2277.34
581.13	2471.90
581.33	2480.09
581.52	2289.63
581.72	2486.23
581.91	2432.99
582.11	2226.14
582.30	2367.45
582.49	2402.27
582.69	2467.80
582.88	2330.59
583.08	2301.92
583.27	2379.74
583.47	2277.34
583.66	2297.82
583.85	2258.91
584.05	2248.67
584.24	2414.56
584.44	2379.74
584.63	2404.32
584.82	2400.22
585.02	2467.80
585.21	2463.71
585.41	2457.56
585.60	2389.98
585.79	2523.10
585.99	2652.12
586.18	2424.80
586.37	3014.61
586.57	4523.96
586.76	13969.19
586.96	33353.22
587.15	47392.04
587.34	57175.19
587.54	61643.86
587.73	56587.42
587.93	39800.22
588.12	30522.93
588.31	24477.32
588.51	20971.20
588.70	19502.81
588.89	17592.05
589.09	15273.75
589.28	13014.84
589.47	10678.11
589.67	8380.29
589.86	6565.79
590.06	4732.86
590.25	3762.12
590.44	3282.89
590.64	2889.68
590.83	2662.36
591.02	2580.44
591.22	2404.32
591.41	2394.08
591.60	2359.26
591.80	2562.01
591.99	2142.18
592.18	2340.83
592.38	2414.56
592.57	2238.43
592.76	2316.25
592.96	2281.44
593.15	2320.35
593.34	2463.71
593.54	2306.01
593.73	2344.92
593.92	2293.72
594.12	2430.94
594.31	2332.64
594.50	2439.13
594.70	2412.51
594.89	2547.67
595.08	2252.77
595.28	2359.26
595.47	2609.11
595.66	2322.40
595.86	2189.28
596.05	2242.53
596.24	2283.49
596.43	2484.19
596.63	2359.26
596.82	2349.02
597.01	2375.64
597.21	2490.33
597.40	2303.96
597.59	2334.68
597.79	2385.88
597.98	2355.16
598.17	2318.30
598.36	2318.30
598.56	2432.99
598.75	2217.95
598.94	2357.21
599.14	2275.29
599.33	2277.34
599.52	2334.68
599.71	2318.30
599.91	2328.54
600.10	2387.93
600.29	2289.63
600.48	2338.78
600.68	2332.64
600.87	2332.64
601.06	2238.43
601.26	2256.86
601.45	2297.82
601.64	2226.14
601.83	2308.06
602.03	2234.33
602.22	2131.94
602.41	2400.22
602.60	2463.71
602.80	2332.64
602.99	2338.78
603.18	2299.87
603.37	2320.35
603.57	2301.92
603.76	2277.34
603.95	2392.03
604.14	2244.57
604.34	2232.29
604.53	2252.77
604.72	2207.71
604.91	2396.12
605.10	2310.11
605.30	2217.95
605.49	2537.43
605.68	2351.07
605.87	2260.96
606.07	2111.46
606.26	2252.77
606.45	2324.44
606.64	2281.44
606.84	2199.52
607.03	2342.88
607.22	2328.54
607.41	2258.91
607.60	2232.29
607.80	2385.88
607.99	2254.81
608.18	2289.63
608.37	2220.00
608.56	2226.14
608.76	2455.51
608.95	2488.28
609.14	2318.30
609.33	2494.43
609.52	2428.89
609.72	2396.12
609.91	2414.56
610.10	2404.32
610.29	2441.18
610.48	2351.07
610.68	2308.06
610.87	2308.06
611.06	2367.45
611.25	2240.48
611.44	2416.60
611.63	2232.29
611.83	2385.88
612.02	2109.41
612.21	2389.98
612.40	2125.79
612.59	2250.72
612.79	2236.38
612.98	2242.53
613.17	2480.09
613.36	2306.01
613.55	2389.98
613.74	2322.40
613.93	2459.61
614.13	2490.33
614.32	2500.57
614.51	2432.99
614.70	2359.26
614.89	2252.77
615.08	2410.46
615.28	2717.65
615.47	2250.72
615.66	2310.11
615.85	2308.06
616.04	2514.91
616.23	2334.68
616.42	2269.15
616.62	2326.49
616.81	2226.14
617.00	2306.01
617.19	2330.59
617.38	2263.01
617.57	2277.34
617.76	2406.36
617.95	2394.08
618.15	2351.07
618.34	2396.12
618.53	2209.76
618.72	2428.89
618.91	2402.27
619.10	2330.59
619.29	2265.05
619.48	2240.48
619.68	2109.41
619.87	2201.57
620.06	2090.98
620.25	2310.11
620.44	2199.52
620.63	2285.53
620.82	2234.33
621.01	2320.35
621.20	2275.29
621.39	2291.68
621.59	2336.73
621.78	2326.49
621.97	2285.53
622.16	2308.06
622.35	2242.53
622.54	2322.40
622.73	2318.30
622.92	2037.73
623.11	2416.60
623.30	2260.96
623.49	2273.25
623.68	2152.42
623.88	2510.81
624.07	2209.76
624.26	2217.95
624.45	2316.25
624.64	2277.34
624.83	2332.64
625.02	2242.53
625.21	2224.09
625.40	2316.25
625.59	2457.56
625.78	2336.73
625.97	2424.80
626.16	2443.23
626.35	2353.12
626.54	2396.12
626.74	2455.51
626.93	2351.07
627.12	2295.77
627.31	2414.56
627.50	2338.78
627.69	2428.89
627.88	2205.66
628.07	2279.39
628.26	2066.40
628.45	2107.36
628.64	2140.13
628.83	2203.61
629.02	2174.94
629.21	2326.49
629.40	2340.83
629.59	2187.23
629.78	2211.81
629.97	2265.05
630.16	2392.03
630.35	2281.44
630.54	2254.81
630.73	2129.89
630.92	2291.68
631.11	2220.00
631.30	2254.81
631.49	2322.40
631.68	2265.05
631.87	2303.96
632.06	2131.94
632.25	2553.82
632.44	2416.60
632.63	2258.91
632.82	2363.36
633.01	2351.07
633.20	2355.16
633.39	2291.68
633.58	2119.65
633.77	2330.59
633.96	2256.86
634.15	2369.50
634.34	2381.79
634.53	2301.92
634.72	2240.48
634.91	2121.70
635.10	2285.53
635.29	2396.12
635.48	2344.92
635.67	2123.74
635.86	2183.13
636.05	2371.55
636.24	2252.77
636.43	2275.29
636.62	2375.64
636.81	2023.39
637.00	2232.29
637.19	2349.02
637.38	2250.72
637.57	2199.52
637.76	2303.96
637.95	2408.41
638.14	2275.29
638.33	2394.08
638.52	2346.97
638.71	2189.28
638.89	2195.42
639.08	2557.91
639.27	2441.18
639.46	2457.56
639.65	2865.11
639.84	2916.31
640.03	2959.31
640.22	2844.63
640.41	2910.16
640.60	2654.17
640.79	2492.38
640.98	2375.64
641.17	2465.75
641.36	2439.13
641.55	2449.37
641.74	2213.85
641.92	2228.19
642.11	2252.77
642.30	2254.81
642.49	2279.39
642.68	2207.71
642.87	2351.07
643.06	2308.06
643.25	2150.37
643.44	2183.13
643.63	2230.24
643.82	2359.26
644.00	2150.37
644.19	2230.24
644.38	2195.42
644.57	2346.97
644.76	2254.81
644.95	2254.81
645.14	2220.00
645.33	2256.86
645.52	2289.63
645.71	2154.46
645.89	2156.51
646.08	2314.20
646.27	2230.24
646.46	2461.66
646.65	2174.94
646.84	2330.59
647.03	2176.99
647.22	2371.55
647.40	2275.29
647.59	2244.57
647.78	2129.89
647.97	2080.74
648.16	2136.03
648.35	2359.26
648.54	2394.08
648.73	2207.71
648.91	2332.64
649.10	2306.01
649.29	2174.94
649.48	2344.92
649.67	2281.44
649.86	2299.87
650.05	2310.11
650.23	2496.47
650.42	2363.36
650.61	2514.91
650.80	2377.69
650.99	2527.19
651.18	2398.17
651.36	2420.70
651.55	2217.95
651.74	2367.45
651.93	2168.80
652.12	2256.86
652.31	2263.01
652.49	2287.58
652.68	2187.23
652.87	2463.71
653.06	2306.01
653.25	2496.47
653.44	2371.55
653.62	2439.13
653.81	2279.39
654.00	2213.85
654.19	2383.84
654.38	2574.30
654.56	2361.31
654.75	2279.39
654.94	2392.03
655.13	2232.29
655.32	2220.00
655.51	2308.06
655.69	2226.14
655.88	2285.53
656.07	2185.18
656.26	2346.97
656.45	2203.61
656.63	2242.53
656.82	2244.57
657.01	2344.92
657.20	2215.90
657.38	2359.26
657.57	2265.05
657.76	2117.60
657.95	2359.26
658.14	2181.09
658.32	2293.72
658.51	2199.52
658.70	2340.83
658.89	2244.57
659.08	2232.29
659.26	2449.37
659.45	2164.70
659.64	2428.89
659.83	2252.77
660.01	2652.12
660.20	2355.16
660.39	2441.18
660.58	2039.78
660.76	2398.17
660.95	2103.26
661.14	2306.01
661.33	2103.26
661.51	2228.19
661.70	2136.03
661.89	2326.49
662.08	2267.10
662.26	2078.69
662.45	2183.13
662.64	2424.80
662.83	2377.69
663.01	2172.89
663.20	2144.22
663.39	2400.22
663.58	2199.52
663.76	2201.57
663.95	2299.87
664.14	2254.81
664.32	2220.00
664.51	2174.94
664.70	2142.18
664.89	2289.63
665.07	2125.79
665.26	2357.21
665.45	2162.66
665.64	2330.59
665.82	2254.81
666.01	2394.08
666.20	2170.85
666.38	2428.89
666.57	2410.46
666.76	3450.83
666.95	8249.22
667.13	16451.33
667.32	21700.28
667.51	24970.88
667.69	26781.29
667.88	24272.53
668.07	17438.45
668.25	14098.22
668.44	11654.99
668.63	9987.94
668.81	8804.22
669.00	7741.32
669.19	6862.74
669.38	6107.04
669.56	5142.45
669.75	4313.02
669.94	3620.81
670.12	3055.57
670.31	2797.53
670.50	2643.93
670.68	2527.19
670.87	2373.60
671.06	2359.26
671.24	2392.03
671.43	2482.14
671.62	2394.08
671.80	2256.86
671.99	2320.35
672.18	2263.01
672.36	2359.26
672.55	2244.57
672.74	2269.15
672.92	2252.77
673.11	2320.35
673.29	2144.22
673.48	2310.11
673.67	2281.44
673.85	2332.64
674.04	2224.09
674.23	2199.52
674.41	2449.37
674.60	2152.42
674.79	2142.18
674.97	2187.23
675.16	2400.22
675.34	2416.60
675.53	2228.19
675.72	2373.60
675.90	2435.03
676.09	2195.42
676.28	2258.91
676.46	2166.75
676.65	2338.78
676.83	2213.85
677.02	2217.95
677.21	2277.34
677.39	2285.53
677.58	2197.47
677.77	2250.72
677.95	2248.67
678.14	2289.63
678.32	2240.48
678.51	2191.33
678.70	2523.10
678.88	2236.38
679.07	2228.19
679.25	2291.68
679.44	2238.43
679.63	2052.06
679.81	2285.53
680.00	2375.64
680.18	2340.83
680.37	2412.51
680.55	2289.63
680.74	2121.70
680.93	2060.26
681.11	2375.64
681.30	2258.91
681.48	2228.19
681.67	2215.90
681.85	2226.14
682.04	2224.09
682.23	2338.78
682.41	2226.14
682.60	2260.96
682.78	2160.61
682.97	2205.66
683.15	2277.34
683.34	2226.14
683.53	2383.84
683.71	2121.70
683.90	2394.08
684.08	2404.32
684.27	2250.72
684.45	2357.21
684.64	2383.84
684.82	2236.38
685.01	2263.01
685.19	2297.82
685.38	2387.93
685.57	2195.42
685.75	2170.85
685.94	2228.19
686.12	2230.24
686.31	2156.51
686.49	2457.56
686.68	2113.50
686.86	2265.05
687.05	2285.53
687.23	2385.88
687.42	2256.86
687.60	2095.07
687.79	2316.25
687.97	2369.50
688.16	2381.79
688.34	2383.84
688.53	2084.83
688.71	2226.14
688.90	2461.66
689.08	2279.39
689.27	2101.22
689.45	2346.97
689.64	2301.92
689.82	2316.25
690.01	2375.64
690.19	2334.68
690.38	2195.42
690.56	2355.16
690.75	2154.46
690.93	2211.81
691.12	2207.71
691.30	2275.29
691.49	2250.72
691.67	2277.34
691.86	2367.45
692.04	2236.38
692.23	2217.95
692.41	2283.49
692.60	2551.77
692.78	2381.79
692.97	2303.96
693.15	2338.78
693.34	2396.12
693.52	2410.46
693.71	2228.19
693.89	2217.95
694.08	2097.12
694.26	2322.40
694.44	2324.44
694.63	2330.59
694.81	2136.03
695.00	2265.05
695.18	2392.03
695.37	2523.10
695.55	2244.57
695.74	2191.33
695.92	2201.57
696.10	2353.12
696.29	2125.79
696.47	2197.47
696.66	2207.71
696.84	2181.09
697.03	2240.48
697.21	2467.80
697.40	3364.81
697.58	2426.84
697.76	2144.22
697.95	2256.86
698.13	2160.61
698.32	2181.09
698.50	2162.66
698.68	2285.53
698.87	2293.72
699.05	2394.08
699.24	2260.96
699.42	2121.70
699.61	2340.83
699.79	2289.63
699.97	2246.62
700.16	2129.89
700.34	2209.76
700.53	2228.19
700.71	2465.75
700.89	2324.44
701.08	2238.43
701.26	2314.20
701.45	2781.14
701.63	2179.04
701.81	2154.46
702.00	2234.33
702.18	2301.92
702.37	2297.82
702.55	2408.41
702.73	2465.75
702.92	2373.60
703.10	2539.48
703.28	2502.62
703.47	2310.11
703.65	2406.36
703.84	2426.84
704.02	2373.60
704.20	2441.18
704.39	2154.46
704.57	2299.87
704.75	2402.27
704.94	2383.84
705.12	2293.72
705.30	2572.25
705.49	4503.48
705.67	10704.73
705.86	18497.25
706.04	21966.51
706.22	25349.76
706.41	26130.03
706.59	22308.52
706.77	15951.63
706.96	13129.53
707.14	11585.36
707.32	10114.92
707.51	8918.90
707.69	7317.39
707.87	5898.15
708.06	4894.65
708.24	3971.01
708.42	3203.02
708.61	3151.82
708.79	2439.13
708.97	2510.81
709.16	2346.97
709.34	2297.82
709.52	2295.77
709.71	2332.64
709.89	2353.12
710.07	2160.61
710.26	2117.60
710.44	2263.01
710.62	2265.05
710.80	2246.62
710.99	2301.92
711.17	2336.73
711.35	2207.71
711.54	2203.61
711.72	2357.21
711.90	2299.87
712.09	2244.57
712.27	2238.43
712.45	2351.07
712.63	2211.81
712.82	2322.40
713.00	2306.01
713.18	2328.54
713.37	2328.54
713.55	2289.63
713.73	2312.16
713.91	2306.01
714.10	2179.04
714.28	2256.86
714.46	2342.88
714.65	2332.64
714.83	2334.68
715.01	2303.96
715.19	2306.01
715.38	2123.74
715.56	2220.00
715.74	2213.85
715.92	2131.94
716.11	2422.75
716.29	2103.26
716.47	2224.09
716.65	2213.85
716.84	2125.79
717.02	2361.31
717.20	2093.02
717.38	2220.00
717.57	2373.60
717.75	2265.05
717.93	2154.46
718.11	2342.88
718.30	2142.18
718.48	2256.86
718.66	2293.72
718.84	2371.55
719.03	2201.57
719.21	2142.18
719.39	2404.32
719.57	2248.67
719.75	2320.35
719.94	2109.41
720.12	2236.38
720.30	2238.43
720.48	2291.68
720.67	2205.66
720.85	2234.33
721.03	2111.46
721.21	2138.08
721.39	2371.55
721.58	2346.97
721.76	2346.97
721.94	2279.39
722.12	2279.39
722.30	2377.69
722.49	2242.53
722.67	2263.01
722.85	2250.72
723.03	2158.56
723.21	2236.38
723.40	2283.49
723.58	2400.22
723.76	2363.36
723.94	2420.70
724.12	2404.32
724.30	2430.94
724.49	2445.27
724.67	2232.29
724.85	2398.17
725.03	2209.76
725.21	2334.68
725.40	2465.75
725.58	2209.76
725.76	2371.55
725.94	2316.25
726.12	2203.61
726.30	2281.44
726.49	2215.90
726.67	2187.23
726.85	2334.68
727.03	2553.82
727.21	3567.56
727.39	5111.73
727.57	5992.36
727.76	6453.15
727.94	6815.64
728.12	6406.05
728.30	5193.65
728.48	4485.05
728.66	4218.82
728.84	3704.78
729.03	3342.28
729.21	2955.22
729.39	2672.60
729.57	2451.42
729.75	2496.47
729.93	2355.16
730.11	2201.57
730.30	2238.43
730.48	2230.24
730.66	2310.11
730.84	2359.26
731.02	2308.06
731.20	2109.41
731.38	2283.49
731.56	2156.51
731.74	2191.33
731.93	2193.37
732.11	2193.37
732.29	2293.72
732.47	2377.69
732.65	2310.11
732.83	2375.64
733.01	2265.05
733.19	2154.46
733.37	2349.02
733.56	2303.96
733.74	2205.66
733.92	2387.93
734.10	2203.61
734.28	2342.88
734.46	2088.93
734.64	2152.42
734.82	2174.94
735.00	2162.66
735.18	2142.18
735.36	2254.81
735.54	2236.38
735.73	2277.34
735.91	2299.87
736.09	2400.22
736.27	2244.57
736.45	2291.68
736.63	2082.78
736.81	2213.85
736.99	2357.21
737.17	2428.89
737.35	2170.85
737.53	2283.49
737.71	2211.81
737.89	2297.82
738.07	2220.00
738.25	2150.37
738.43	2127.84
738.61	2193.37
738.80	2068.45
738.98	2211.81
739.16	2138.08
739.34	2162.66
739.52	2408.41
739.70	2205.66
739.88	2365.40
740.06	2322.40
740.24	2072.54
740.42	2336.73
740.60	2097.12
740.78	2230.24
740.96	2156.51
741.14	2258.91
741.32	2248.67
741.50	2097.12
741.68	2469.85
741.86	2344.92
742.04	2164.70
742.22	2179.04
742.40	2277.34
742.58	2328.54
742.76	2197.47
742.94	2338.78
743.12	2185.18
743.30	2226.14
743.48	2338.78
743.66	2222.05
743.84	2248.67
744.02	2164.70
744.20	2244.57
744.38	2154.46
744.56	2162.66
744.74	2437.08
744.92	2312.16
745.10	2404.32
745.28	2310.11
745.46	2416.60
745.64	2271.20
745.82	2365.40
746.00	2277.34
746.18	2283.49
746.36	2201.57
746.54	2301.92
746.72	2240.48
746.90	2138.08
747.08	2359.26
747.26	2293.72
747.44	2377.69
747.62	2387.93
747.80	2271.20
747.98	2351.07
748.15	2232.29
748.33	2504.67
748.51	2310.11
748.69	2375.64
748.87	2142.18
749.05	2269.15
749.23	2201.57
749.41	2252.77
749.59	2250.72
749.77	2318.30
749.95	2211.81
750.13	2195.42
750.31	2215.90
750.49	2189.28
750.67	2308.06
750.85	2385.88
751.03	2254.81
751.20	2447.32
751.38	2267.10
751.56	2220.00
751.74	2308.06
751.92	2220.00
752.10	2203.61
752.28	2412.51
752.46	2172.89
752.64	2248.67
752.82	2281.44
753.00	2387.93
753.18	2203.61
753.35	2244.57
753.53	2254.81
753.71	2283.49
753.89	2283.49
754.07	2183.13
754.25	2349.02
754.43	2260.96
754.61	2193.37
754.79	2293.72
754.97	2240.48
755.14	2326.49
755.32	2164.70
755.50	2228.19
755.68	2252.77
755.86	2172.89
756.04	2267.10
756.22	2047.97
756.40	2316.25
756.57	2383.84
756.75	2197.47
756.93	2379.74
757.11	2439.13
757.29	2158.56
757.47	2168.80
757.65	2101.22
757.82	2062.30
758.00	2121.70
758.18	2240.48
758.36	2168.80
758.54	2428.89
758.72	2076.64
758.90	2379.74
759.07	2357.21
759.25	2152.42
759.43	2293.72
759.61	2056.16
759.79	3123.15
759.97	2265.05
760.15	2170.85
760.32	2199.52
760.50	2312.16
760.68	2326.49
760.86	2109.41
761.04	2349.02
761.22	2377.69
761.39	2244.57
761.57	2381.79
761.75	2199.52
761.93	2265.05
762.11	2265.05
762.28	2277.34
762.46	2156.51
762.64	2258.91
762.82	2119.65
763.00	2228.19
763.18	2451.42
763.35	2240.48
763.53	2238.43
763.71	2236.38
763.89	2228.19
764.07	2211.81
764.24	2170.85
764.42	2265.05
764.60	2205.66
764.78	2285.53
764.96	2355.16
765.13	2334.68
765.31	2142.18
765.49	2299.87
765.67	2162.66
765.84	2142.18
766.02	2217.95
766.20	2160.61
766.38	2254.81
766.56	2246.62
766.73	2346.97
766.91	2234.33
767.09	2277.34
767.27	2338.78
767.44	2158.56
767.62	2322.40
767.80	2252.77
767.98	2170.85
768.15	2211.81
768.33	2400.22
768.51	2365.40
768.69	2342.88
768.87	2254.81
769.04	2140.13
769.22	2613.21
769.40	2455.51
769.58	2408.41
769.75	2293.72
769.93	2351.07
770.11	2193.37
770.28	2217.95
770.46	2326.49
770.64	2236.38
770.82	2248.67
770.99	2197.47
771.17	2332.64
771.35	2226.14
771.53	2254.81
771.70	2207.71
771.88	2320.35
772.06	2224.09
772.23	2226.14
772.41	2181.09
772.59	2187.23
772.77	2260.96
772.94	2260.96
773.12	2234.33
773.30	2140.13
773.47	2283.49
773.65	2142.18
773.83	2375.64
774.01	2330.59
774.18	2072.54
774.36	2207.71
774.54	2095.07
774.71	2291.68
774.89	2127.84
775.07	2179.04
775.24	2193.37
775.42	2197.47
775.60	2521.05
775.78	2185.18
775.95	2150.37
776.13	2097.12
776.31	1976.29
776.48	2277.34
776.66	2344.92
776.84	2199.52
777.01	2168.80
777.19	2183.13
777.37	2170.85
777.54	2322.40
777.72	2504.67
777.90	2246.62
778.07	2156.51
778.25	2535.39
778.43	2318.30
778.60	2156.51
778.78	2306.01
778.96	2338.78
779.13	2158.56
779.31	2312.16
779.49	2179.04
779.66	2293.72
779.84	2269.15
780.01	2211.81
780.19	2125.79
780.37	2342.88
780.54	2342.88
780.72	2146.27
780.90	2191.33
781.07	2199.52
781.25	2211.81
781.43	2283.49
781.60	2244.57
781.78	2410.46
781.95	2250.72
782.13	2156.51
782.31	2195.42
782.48	2090.98
782.66	2279.39
782.83	2400.22
783.01	2297.82
783.19	2289.63
783.36	2199.52
783.54	2084.83
783.72	2349.02
783.89	2170.85
784.07	2324.44
784.24	2293.72
784.42	2359.26
784.60	2254.81
784.77	2293.72
784.95	2101.22
785.12	2238.43
785.30	2273.25
785.47	2140.13
785.65	2136.03
785.83	2236.38
786.00	2146.27
786.18	2199.52
786.35	2146.27
786.53	2129.89
786.71	2334.68
786.88	2338.78
787.06	2195.42
787.23	2217.95
787.41	2009.06
787.58	2244.57
787.76	2152.42
787.94	2289.63
788.11	2260.96
788.29	2203.61
788.46	2152.42
788.64	2117.60
788.81	2228.19
788.99	2142.18
789.16	2174.94
789.34	2254.81
789.52	2158.56
789.69	2211.81
789.87	2058.21
790.04	2207.71
790.22	2236.38
790.39	2439.13
790.57	2174.94
790.74	2125.79
790.92	2351.07
791.09	2052.06
791.27	2240.48
791.44	2314.20
791.62	2236.38
791.79	2359.26
791.97	2326.49
792.15	2553.82
792.32	2303.96
792.50	2308.06
792.67	2432.99
792.85	2306.01
793.02	2316.25
793.20	2170.85
793.37	2181.09
793.55	2232.29
793.72	2172.89
793.90	2314.20
794.07	2215.90
794.25	2201.57
794.42	2244.57
794.60	2183.13
794.77	2293.72
794.95	2330.59
795.12	2342.88
795.30	2185.18
795.47	2078.69
795.65	2555.86
795.82	2230.24
796.00	2142.18
796.17	2226.14
796.34	2179.04
796.52	2213.85
796.69	2283.49
796.87	2293.72
797.04	2222.05
797.22	2293.72
797.39	2293.72
797.57	2273.25
797.74	2240.48
797.92	2310.11
798.09	2195.42
798.27	2375.64
798.44	2195.42
798.62	2160.61
798.79	2283.49
798.96	2340.83
799.14	2275.29
799.31	2441.18
799.49	2185.18
799.66	2232.29
799.84	2293.72
800.01	2158.56
800.19	2318.30
800.36	2138.08
800.53	2256.86
800.71	2244.57
800.88	2385.88
801.06	2220.00
801.23	2168.80
801.41	2174.94
801.58	2142.18
801.75	2176.99
801.93	2273.25
802.10	2322.40
802.28	2265.05
802.45	2183.13
802.63	2349.02
802.80	2506.71
802.97	2265.05
803.15	2215.90
803.32	2289.63
803.50	2127.84
803.67	2181.09
803.84	2162.66
804.02	2199.52
804.19	2246.62
804.37	2021.35
804.54	2127.84
804.71	2228.19
804.89	2334.68
805.06	2099.17
805.24	2101.22
805.41	2162.66
805.58	2172.89
805.76	2482.14
805.93	2269.15
806.10	2252.77
806.28	2301.92
806.45	2301.92
806.63	2211.81
806.80	2291.68
806.97	2273.25
807.15	2269.15
807.32	2238.43
807.49	2236.38
807.67	2136.03
807.84	2201.57
808.01	2162.66
808.19	2404.32
808.36	2512.86
808.54	2215.90
808.71	2105.31
808.88	2215.90
809.06	2310.11
809.23	2387.93
809.40	2244.57
809.58	2375.64
809.75	2244.57
809.92	2166.75
810.10	2490.33
810.27	2215.90
810.44	2293.72
810.62	2342.88
810.79	2299.87
810.96	2220.00
811.14	2181.09
811.31	2340.83
811.48	2340.83
811.66	2217.95
811.83	2193.37
812.00	2306.01
812.18	2275.29
812.35	2435.03
812.52	2195.42
812.69	2170.85
812.87	2209.76
813.04	2144.22
813.21	2250.72
813.39	2174.94
813.56	2193.37
813.73	2322.40
813.91	2103.26
814.08	2256.86
814.25	2242.53
814.42	2086.88
814.60	2250.72
814.77	2285.53
814.94	2273.25
815.12	2279.39
815.29	2402.27
815.46	2179.04
815.63	2334.68
815.81	2232.29
815.98	2156.51
816.15	2162.66
816.33	2211.81
816.50	2213.85
816.67	2203.61
816.84	2226.14
817.02	2117.60
817.19	2152.42
817.36	2250.72
817.53	2303.96
817.71	2179.04
817.88	2365.40
818.05	2172.89
818.22	2211.81
818.40	2363.36
818.57	2222.05
818.74	2326.49
818.91	2252.77
819.09	2314.20
819.26	2336.73
819.43	2156.51
819.60	2164.70
819.78	2322.40
819.95	2297.82
820.12	2160.61
820.29	2422.75
820.47	2351.07
820.64	2181.09
820.81	2109.41
820.98	2115.55
821.15	2160.61
821.33	2330.59
821.50	2138.08
821.67	2275.29
821.84	2191.33
822.02	2267.10
822.19	2359.26
822.36	2131.94
822.53	2176.99
822.70	2080.74
822.88	2238.43
823.05	2404.32
823.22	2211.81
823.39	2353.12
823.56	2232.29
823.74	2359.26
823.91	2176.99
824.08	2113.50
824.25	2187.23
824.42	2365.40
824.60	2082.78
824.77	2318.30
824.94	2201.57
825.11	2359.26
825.28	2160.61
825.45	2295.77
825.63	2207.71
825.80	2152.42
825.97	2318.30
826.14	2265.05
826.31	2113.50
826.48	2326.49
826.66	2220.00
826.83	2183.13
827.00	2217.95
827.17	2105.31
827.34	2250.72
827.51	2142.18
827.69	2217.95
827.86	2125.79
828.03	2193.37
828.20	2258.91
828.37	2234.33
828.54	2297.82
828.71	2142.18
828.89	2371.55
829.06	2246.62
829.23	2402.27
829.40	2154.46
829.57	2152.42
829.74	2299.87
829.91	2144.22
830.09	2187.23
830.26	2359.26
830.43	2443.23
830.60	2209.76
830.77	2334.68
830.94	2351.07
831.11	2252.77
831.28	2283.49
831.46	2326.49
831.63	2211.81
831.80	2322.40
831.97	2109.41
832.14	2203.61
832.31	2314.20
832.48	2244.57
832.65	2375.64
832.82	2195.42
832.99	2279.39
833.17	2162.66
833.34	2486.23
833.51	2287.58
833.68	2084.83
833.85	2291.68
834.02	2183.13
834.19	2174.94
834.36	2201.57
834.53	2301.92
834.70	2328.54
834.87	2291.68
835.04	2127.84
835.22	2238.43
835.39	2150.37
835.56	2162.66
835.73	2195.42
835.90	2252.77
836.07	2207.71
836.24	2324.44
836.41	2236.38
836.58	2107.36
836.75	2310.11
836.92	2187.23
837.09	2162.66
837.26	2389.98
837.43	2334.68
837.60	2224.09
837.77	2181.09
837.94	2293.72
838.12	2346.97
838.29	2189.28
838.46	2056.16
838.63	2156.51
838.80	2410.46
838.97	2260.96
839.14	2156.51
839.31	2248.67
839.48	2357.21
839.65	2271.20
839.82	2209.76
839.99	2263.01
840.16	2299.87
840.33	2162.66
840.50	2232.29
840.67	2211.81
840.84	2060.26
841.01	2170.85
841.18	2205.66
841.35	2301.92
841.52	2236.38
841.69	2400.22
841.86	2162.66
842.03	2203.61
842.20	2310.11
842.37	2240.48
842.54	2220.00
842.71	2279.39
842.88	2004.96
843.05	2258.91
843.22	2226.14
843.39	2334.68
843.56	2170.85
843.73	2222.05
843.90	2293.72
844.07	2267.10
844.24	2381.79
844.41	2316.25
844.58	2252.77
844.75	2211.81
844.92	2209.76
845.09	2222.05
845.26	2181.09
845.43	2365.40
845.60	2246.62
845.77	2293.72
845.94	2215.90
846.10	2310.11
846.27	2166.75
846.44	2103.26
846.61	2101.22
846.78	2232.29
846.95	2359.26
847.12	2195.42
847.29	2308.06
847.46	2164.70
847.63	2379.74
847.80	2230.24
847.97	2217.95
848.14	2441.18
848.31	2203.61
848.48	2109.41
848.65	2301.92
848.82	2246.62
848.98	2473.95
849.15	2293.72
849.32	2306.01
849.49	2365.40
849.66	2234.33
849.83	2258.91
850.00	2129.89
850.17	2330.59
850.34	2201.57
850.51	2133.98
850.68	2156.51
850.85	2404.32
851.01	2260.96
851.18	2203.61
851.35	2131.94
851.52	2295.77
851.69	2385.88
851.86	2072.54
852.03	2234.33
852.20	2365.40
852.37	2240.48
852.53	2062.30
852.70	2129.89
852.87	2355.16
853.04	2365.40
853.21	2152.42
853.38	2324.44
853.55	2349.02
853.72	2416.60
853.89	2168.80
854.05	2136.03
854.22	2217.95
854.39	2203.61
854.56	2232.29
854.73	2226.14
854.90	2119.65
855.07	2236.38
855.23	2176.99
855.40	2195.42
855.57	2265.05
855.74	2070.50
855.91	2363.36
856.08	2082.78
856.25	2179.04
856.41	2213.85
856.58	2217.95
856.75	2291.68
856.92	2121.70
857.09	2283.49
857.26	2111.46
857.42	2265.05
857.59	2269.15
857.76	2226.14
857.93	2265.05
858.10	2303.96
858.27	2119.65
858.43	2277.34
858.60	2170.85
858.77	2170.85
858.94	2193.37
859.11	2342.88
859.27	2201.57
859.44	2150.37
859.61	2357.21
859.78	2320.35
859.95	2156.51
860.12	2099.17
860.28	2461.66
860.45	2414.56
860.62	2142.18
860.79	2252.77
860.95	2224.09
861.12	2117.60
861.29	2115.55
861.46	2191.33
861.63	2281.44
861.79	2228.19
861.96	2129.89
862.13	2179.04
862.30	2357.21
862.47	2193.37
862.63	2131.94
862.80	2238.43
862.97	2404.32
863.14	2303.96
863.30	2281.44
863.47	2199.52
863.64	2312.16
863.81	2303.96
863.97	2201.57
864.14	2254.81
864.31	2183.13
864.48	2320.35
864.65	2148.32
864.81	2265.05
864.98	2308.06
865.15	2414.56
865.32	2316.25
865.48	2367.45
865.65	2396.12
865.82	2158.56
865.98	2291.68
866.15	2308.06
866.32	2258.91
866.49	2172.89
866.65	2314.20
866.82	2121.70
866.99	2174.94
867.16	2199.52
867.32	2187.23
867.49	2086.88
867.66	2244.57
867.83	2187.23
867.99	2086.88
868.16	2168.80
868.33	2176.99
868.49	2236.38
868.66	2154.46
868.83	2265.05
868.99	2148.32
869.16	2336.73
869.33	2332.64
869.50	2271.20
869.66	2213.85
869.83	2217.95
870.00	2131.94
870.16	2273.25
870.33	2164.70
870.50	2260.96
870.66	2240.48
870.83	2236.38
871.00	2283.49
871.17	2306.01
871.33	2244.57
871.50	2136.03
871.67	2217.95
871.83	2142.18
872.00	2414.56
872.17	2150.37
872.33	2435.03
872.50	2340.83
872.67	2174.94
872.83	2199.52
873.00	2328.54
873.17	2258.91
873.33	2258.91
873.50	2256.86
873.67	2152.42
873.83	2187.23
874.00	2185.18
874.16	2299.87
874.33	2301.92
874.50	2152.42
874.66	2191.33
874.83	2224.09
875.00	2316.25
875.16	2385.88
875.33	2316.25
875.50	2054.11
875.66	2217.95
875.83	2224.09
875.99	2250.72
876.16	2340.83
876.33	2170.85
876.49	2211.81
876.66	2220.00
876.83	2260.96
876.99	2082.78
877.16	2242.53
877.32	2150.37
877.49	2248.67
877.66	2269.15
877.82	2334.68
877.99	2269.15
878.15	2299.87
878.32	2269.15
878.49	2299.87
878.65	2142.18
878.82	2314.20
878.98	2179.04
879.15	2332.64
879.32	2334.68
879.48	2308.06
879.65	2215.90
879.81	2133.98
879.98	2176.99
880.15	2127.84
880.31	2260.96
880.48	2168.80
880.64	2306.01
880.81	2183.13
880.97	2432.99
881.14	2387.93
881.31	2109.41
881.47	2389.98
881.64	2301.92
881.80	2027.49
881.97	2211.81
882.13	2254.81
882.30	2154.46
882.47	2191.33
882.63	2150.37
882.80	2170.85
882.96	2207.71
883.13	2424.80
883.29	2213.85
883.46	2228.19
883.62	2408.41
883.79	2324.44
883.95	2308.06
884.12	2222.05
884.29	2351.07
884.45	2236.38
884.62	2322.40
884.78	2109.41
884.95	2365.40
885.11	2146.27
885.28	2310.11
885.44	2234.33
885.61	2299.87
885.77	2336.73
885.94	2240.48
886.10	2166.75
886.27	2299.87
886.43	2416.60
886.60	2349.02
886.76	2191.33
886.93	2056.16
887.09	2267.10
887.26	2088.93
887.42	2228.19
887.59	2275.29
887.75	2461.66
887.92	2351.07
888.08	2279.39
888.25	2490.33
888.41	2263.01
888.58	2265.05
888.74	2076.64
888.91	2162.66
>>>>>End Processed Spectral Data<<<<<
