SpectraSuite Data File
++++++++++++++++++++++++++++++++++++
Date: Thu May 05 13:21:27 CEST 2016
User: root
Dark Spectrum Present: No
Reference Spectrum Present: No
Number of Sampled Component Spectra: 1
Spectrometers: USB4C02835
Integration Time (usec): 100000 (USB4C02835)
Spectra Averaged: 1 (USB4C02835)
Boxcar Smoothing: 0 (USB4C02835)
Correct for Electrical Dark: No (USB4C02835)
Strobe/Lamp Enabled: No (USB4C02835)
Correct for Detector Non-linearity: No (USB4C02835)
Correct for Stray Light: No (USB4C02835)
Number of Pixels in Processed Spectrum: 3648
>>>>>Begin Processed Spectral Data<<<<<
177.47	1751.01
177.69	1751.01
177.91	1751.01
178.13	1843.17
178.36	1832.93
178.58	2164.70
178.80	2265.05
179.02	2117.60
179.24	2197.47
179.46	2148.32
179.68	2297.82
179.90	2254.81
180.13	2297.82
180.35	2090.98
180.57	2174.94
180.79	2326.49
181.01	2170.85
181.23	2222.05
181.45	2252.77
181.67	2273.25
181.90	2340.83
182.12	2199.52
182.34	2045.92
182.56	2330.59
182.78	2273.25
183.00	2168.80
183.22	2224.09
183.44	2127.84
183.66	2529.24
183.89	2310.11
184.11	2240.48
184.33	2281.44
184.55	2414.56
184.77	2252.77
184.99	2220.00
185.21	2220.00
185.43	2547.67
185.65	2140.13
185.87	2142.18
186.10	2488.28
186.32	2545.63
186.54	2152.42
186.76	2258.91
186.98	2357.21
187.20	2164.70
187.42	2168.80
187.64	2201.57
187.86	2246.62
188.08	2367.45
188.30	2131.94
188.52	2199.52
188.75	2480.09
188.97	2342.88
189.19	2185.18
189.41	2211.81
189.63	2334.68
189.85	2320.35
190.07	2095.07
190.29	2088.93
190.51	2281.44
190.73	2158.56
190.95	2316.25
191.17	2119.65
191.39	2142.18
191.61	2195.42
191.84	2162.66
192.06	2156.51
192.28	2154.46
192.50	2621.40
192.72	2207.71
192.94	2189.28
193.16	2306.01
193.38	2351.07
193.60	2080.74
193.82	2205.66
194.04	2379.74
194.26	2260.96
194.48	2203.61
194.70	2150.37
194.92	2158.56
195.14	2392.03
195.36	2140.13
195.58	2301.92
195.80	2224.09
196.02	2203.61
196.24	2191.33
196.46	2238.43
196.69	2172.89
196.91	2541.53
197.13	2211.81
197.35	2131.94
197.57	2369.50
197.79	2320.35
198.01	2238.43
198.23	2230.24
198.45	2351.07
198.67	2185.18
198.89	2070.50
199.11	2203.61
199.33	2185.18
199.55	2045.92
199.77	2084.83
199.99	2236.38
200.21	2246.62
200.43	2240.48
200.65	2183.13
200.87	2027.49
201.09	2297.82
201.31	2226.14
201.53	2269.15
201.75	2162.66
201.97	2308.06
202.19	2220.00
202.41	2228.19
202.63	2346.97
202.85	2334.68
203.07	2312.16
203.29	2154.46
203.51	2191.33
203.73	2226.14
203.95	2539.48
204.17	2158.56
204.39	2312.16
204.61	2203.61
204.83	2191.33
205.05	2248.67
205.27	2265.05
205.49	2451.42
205.71	2293.72
205.93	2105.31
206.15	2170.85
206.37	2299.87
206.59	2250.72
206.81	2113.50
207.03	2170.85
207.25	2097.12
207.47	2326.49
207.69	2152.42
207.91	2414.56
208.13	2406.36
208.34	2152.42
208.56	2133.98
208.78	2179.04
209.00	2203.61
209.22	2154.46
209.44	2217.95
209.66	2136.03
209.88	2226.14
210.10	2168.80
210.32	2170.85
210.54	2240.48
210.76	2338.78
210.98	2314.20
211.20	2007.01
211.42	2138.08
211.64	2367.45
211.86	2310.11
212.08	2160.61
212.30	2101.22
212.52	2301.92
212.74	2254.81
212.96	2236.38
213.17	2297.82
213.39	2308.06
213.61	2381.79
213.83	2113.50
214.05	2260.96
214.27	2346.97
214.49	2072.54
214.71	2142.18
214.93	2211.81
215.15	2252.77
215.37	2330.59
215.59	2086.88
215.81	2281.44
216.03	2414.56
216.24	2215.90
216.46	2211.81
216.68	2224.09
216.90	2326.49
217.12	2318.30
217.34	2162.66
217.56	2285.53
217.78	2432.99
218.00	2228.19
218.22	2179.04
218.44	2217.95
218.66	2299.87
218.87	2488.28
219.09	2242.53
219.31	2189.28
219.53	2271.20
219.75	2238.43
219.97	2183.13
220.19	2148.32
220.41	2240.48
220.63	2410.46
220.85	2271.20
221.06	2195.42
221.28	2385.88
221.50	2402.27
221.72	2133.98
221.94	2144.22
222.16	2281.44
222.38	2349.02
222.60	2242.53
222.82	2170.85
223.03	2363.36
223.25	2162.66
223.47	2166.75
223.69	2324.44
223.91	2318.30
224.13	2265.05
224.35	2090.98
224.57	2306.01
224.78	2310.11
225.00	2133.98
225.22	2158.56
225.44	2201.57
225.66	2408.41
225.88	2138.08
226.10	2252.77
226.32	2158.56
226.53	2377.69
226.75	2176.99
226.97	2193.37
227.19	2179.04
227.41	2265.05
227.63	2242.53
227.85	2023.39
228.06	2174.94
228.28	2340.83
228.50	2365.40
228.72	2050.02
228.94	2045.92
229.16	2050.02
229.37	2101.22
229.59	2142.18
229.81	2328.54
230.03	2277.34
230.25	2043.87
230.47	2035.68
230.69	2211.81
230.90	2324.44
231.12	2195.42
231.34	2228.19
231.56	2234.33
231.78	2154.46
232.00	2303.96
232.21	2179.04
232.43	2176.99
232.65	2060.26
232.87	2287.58
233.09	2105.31
233.30	2136.03
233.52	2258.91
233.74	2244.57
233.96	2144.22
234.18	2260.96
234.40	2258.91
234.61	2523.10
234.83	2088.93
235.05	2123.74
235.27	2590.68
235.49	2432.99
235.70	2166.75
235.92	2226.14
236.14	2314.20
236.36	2408.41
236.58	2072.54
236.79	2170.85
237.01	2183.13
237.23	2203.61
237.45	2428.89
237.67	2183.13
237.88	2258.91
238.10	2398.17
238.32	2105.31
238.54	2160.61
238.76	2248.67
238.97	2193.37
239.19	2115.55
239.41	2250.72
239.63	2351.07
239.85	2193.37
240.06	2240.48
240.28	2105.31
240.50	2332.64
240.72	2250.72
240.93	2176.99
241.15	2314.20
241.37	2211.81
241.59	2375.64
241.81	2160.61
242.02	2217.95
242.24	2285.53
242.46	2318.30
242.68	2054.11
242.89	2176.99
243.11	2537.43
243.33	2220.00
243.55	2220.00
243.76	2252.77
243.98	2217.95
244.20	2269.15
244.42	2220.00
244.64	2303.96
244.85	2117.60
245.07	2187.23
245.29	2213.85
245.51	2211.81
245.72	2246.62
245.94	2322.40
246.16	2215.90
246.38	2203.61
246.59	2265.05
246.81	2162.66
247.03	2133.98
247.24	2074.59
247.46	2176.99
247.68	2318.30
247.90	2133.98
248.11	2142.18
248.33	2297.82
248.55	2185.18
248.77	2220.00
248.98	2236.38
249.20	2346.97
249.42	2279.39
249.64	2250.72
249.85	2131.94
250.07	2256.86
250.29	2340.83
250.50	2203.61
250.72	2033.63
250.94	2349.02
251.16	2529.24
251.37	2244.57
251.59	2238.43
251.81	2355.16
252.02	2383.84
252.24	2162.66
252.46	2258.91
252.68	2142.18
252.89	2285.53
253.11	2072.54
253.33	2332.64
253.54	2439.13
253.76	2111.46
253.98	2160.61
254.20	2162.66
254.41	2105.31
254.63	2209.76
254.85	2047.97
255.06	2226.14
255.28	2267.10
255.50	2215.90
255.71	2201.57
255.93	2093.02
256.15	2236.38
256.36	2336.73
256.58	2121.70
256.80	2164.70
257.02	2195.42
257.23	2138.08
257.45	2187.23
257.67	2142.18
257.88	2273.25
258.10	2250.72
258.32	2176.99
258.53	2174.94
258.75	2418.65
258.97	2267.10
259.18	2220.00
259.40	2187.23
259.62	2451.42
259.83	2457.56
260.05	2142.18
260.27	2594.78
260.48	2301.92
260.70	2193.37
260.92	2146.27
261.13	2269.15
261.35	2291.68
261.57	2326.49
261.78	2017.25
262.00	2129.89
262.22	2271.20
262.43	2201.57
262.65	2232.29
262.86	2199.52
263.08	2521.05
263.30	2287.58
263.51	1976.29
263.73	2113.50
263.95	2430.94
264.16	2191.33
264.38	2142.18
264.60	2136.03
264.81	2260.96
265.03	2295.77
265.25	2297.82
265.46	2105.31
265.68	2484.19
265.89	2306.01
266.11	1957.86
266.33	2226.14
266.54	2351.07
266.76	2291.68
266.98	2273.25
267.19	2297.82
267.41	2357.21
267.62	2273.25
267.84	2050.02
268.06	2246.62
268.27	2308.06
268.49	2330.59
268.70	2236.38
268.92	2150.37
269.14	2222.05
269.35	2078.69
269.57	2183.13
269.79	2246.62
270.00	2234.33
270.22	2422.75
270.43	2080.74
270.65	2029.54
270.87	2207.71
271.08	2285.53
271.30	2244.57
271.51	2244.57
271.73	2301.92
271.95	2414.56
272.16	2189.28
272.38	2181.09
272.59	2199.52
272.81	2324.44
273.02	2133.98
273.24	2205.66
273.46	2289.63
273.67	2158.56
273.89	2129.89
274.10	2201.57
274.32	2349.02
274.54	2291.68
274.75	2281.44
274.97	2222.05
275.18	2299.87
275.40	2306.01
275.61	2244.57
275.83	2242.53
276.05	2138.08
276.26	2279.39
276.48	2267.10
276.69	2129.89
276.91	2187.23
277.12	2418.65
277.34	2342.88
277.55	2252.77
277.77	2312.16
277.99	2244.57
278.20	2160.61
278.42	2037.73
278.63	2238.43
278.85	2170.85
279.06	2146.27
279.28	2275.29
279.49	2297.82
279.71	2236.38
279.93	2324.44
280.14	2191.33
280.36	2111.46
280.57	2293.72
280.79	2269.15
281.00	2127.84
281.22	2258.91
281.43	2342.88
281.65	2015.20
281.86	2125.79
282.08	2291.68
282.29	2555.86
282.51	2119.65
282.73	2199.52
282.94	2156.51
283.16	2254.81
283.37	2363.36
283.59	2246.62
283.80	2346.97
284.02	2271.20
284.23	2248.67
284.45	2215.90
284.66	2158.56
284.88	2170.85
285.09	2242.53
285.31	2293.72
285.52	2357.21
285.74	2080.74
285.95	2299.87
286.17	2301.92
286.38	2342.88
286.60	2220.00
286.81	2228.19
287.03	2240.48
287.24	2230.24
287.46	2267.10
287.67	2267.10
287.89	2320.35
288.10	2267.10
288.32	2312.16
288.53	2414.56
288.75	2209.76
288.96	2346.97
289.18	2172.89
289.39	2209.76
289.61	2322.40
289.82	2445.27
290.04	2445.27
290.25	2117.60
290.47	2242.53
290.68	2209.76
290.90	2363.36
291.11	2064.35
291.33	2303.96
291.54	2131.94
291.76	2179.04
291.97	2220.00
292.18	2312.16
292.40	2228.19
292.61	2244.57
292.83	2412.51
293.04	2246.62
293.26	2310.11
293.47	2199.52
293.69	2127.84
293.90	2209.76
294.12	2328.54
294.33	2230.24
294.55	2191.33
294.76	2330.59
294.97	2488.28
295.19	2424.80
295.40	2265.05
295.62	2299.87
295.83	2220.00
296.05	2154.46
296.26	2320.35
296.48	2211.81
296.69	2283.49
296.90	2176.99
297.12	2297.82
297.33	2398.17
297.55	2273.25
297.76	2234.33
297.98	2332.64
298.19	2263.01
298.41	2193.37
298.62	2078.69
298.83	2318.30
299.05	2246.62
299.26	2226.14
299.48	2103.26
299.69	2256.86
299.90	2234.33
300.12	2191.33
300.33	2359.26
300.55	2310.11
300.76	2318.30
300.98	2201.57
301.19	2293.72
301.40	2193.37
301.62	2203.61
301.83	2289.63
302.05	2209.76
302.26	2220.00
302.47	2244.57
302.69	2152.42
302.90	2291.68
303.12	2015.20
303.33	2260.96
303.54	2463.71
303.76	2277.34
303.97	2283.49
304.19	2410.46
304.40	2240.48
304.61	2301.92
304.83	2359.26
305.04	2332.64
305.26	2269.15
305.47	2265.05
305.68	2252.77
305.90	2140.13
306.11	2408.41
306.33	2293.72
306.54	2117.60
306.75	2183.13
306.97	2117.60
307.18	2138.08
307.39	2170.85
307.61	2277.34
307.82	2215.90
308.04	2301.92
308.25	2146.27
308.46	2271.20
308.68	2258.91
308.89	2277.34
309.10	2256.86
309.32	2226.14
309.53	2213.85
309.74	2340.83
309.96	2232.29
310.17	2387.93
310.39	2220.00
310.60	2242.53
310.81	2164.70
311.03	2152.42
311.24	2316.25
311.45	2269.15
311.67	2424.80
311.88	2303.96
312.09	2260.96
312.31	2199.52
312.52	2234.33
312.73	2197.47
312.95	2170.85
313.16	2166.75
313.37	2326.49
313.59	2289.63
313.80	2297.82
314.01	2443.23
314.23	2170.85
314.44	2189.28
314.65	2142.18
314.87	2154.46
315.08	2203.61
315.29	2133.98
315.51	2166.75
315.72	2097.12
315.93	2342.88
316.15	2260.96
316.36	2211.81
316.57	2308.06
316.79	2285.53
317.00	2248.67
317.21	2285.53
317.43	2097.12
317.64	2250.72
317.85	2138.08
318.07	2248.67
318.28	2271.20
318.49	2463.71
318.70	2516.95
318.92	2371.55
319.13	2351.07
319.34	2404.32
319.56	2301.92
319.77	2422.75
319.98	2412.51
320.20	2404.32
320.41	2314.20
320.62	2346.97
320.83	2152.42
321.05	2367.45
321.26	2209.76
321.47	2277.34
321.69	2377.69
321.90	2097.12
322.11	2179.04
322.32	2310.11
322.54	2398.17
322.75	2187.23
322.96	2588.63
323.18	2183.13
323.39	2023.39
323.60	2170.85
323.81	2310.11
324.03	2125.79
324.24	2181.09
324.45	2310.11
324.66	2174.94
324.88	2379.74
325.09	2437.08
325.30	2217.95
325.52	2265.05
325.73	2277.34
325.94	2111.46
326.15	2088.93
326.37	2109.41
326.58	2281.44
326.79	2424.80
327.00	2213.85
327.22	2236.38
327.43	2138.08
327.64	2097.12
327.85	2379.74
328.07	2277.34
328.28	2412.51
328.49	2136.03
328.70	2228.19
328.92	2199.52
329.13	2244.57
329.34	2291.68
329.55	2396.12
329.76	2310.11
329.98	2297.82
330.19	2410.46
330.40	2224.09
330.61	2172.89
330.83	2332.64
331.04	2183.13
331.25	2213.85
331.46	2203.61
331.68	2097.12
331.89	2326.49
332.10	2244.57
332.31	2176.99
332.52	2316.25
332.74	2410.46
332.95	2072.54
333.16	2166.75
333.37	2355.16
333.58	2183.13
333.80	2242.53
334.01	2136.03
334.22	2232.29
334.43	2162.66
334.64	2238.43
334.86	2146.27
335.07	2146.27
335.28	2379.74
335.49	2224.09
335.70	2260.96
335.92	2359.26
336.13	2529.24
336.34	2265.05
336.55	2271.20
336.76	2379.74
336.98	2045.92
337.19	2203.61
337.40	2326.49
337.61	2592.73
337.82	2224.09
338.04	2228.19
338.25	2105.31
338.46	2260.96
338.67	2215.90
338.88	2127.84
339.09	2158.56
339.31	2162.66
339.52	2125.79
339.73	2129.89
339.94	2195.42
340.15	2404.32
340.36	2164.70
340.58	2295.77
340.79	2131.94
341.00	2340.83
341.21	2140.13
341.42	2381.79
341.63	2179.04
341.85	2365.40
342.06	2351.07
342.27	2138.08
342.48	2299.87
342.69	2187.23
342.90	2269.15
343.12	2344.92
343.33	2162.66
343.54	2314.20
343.75	2379.74
343.96	2187.23
344.17	2193.37
344.38	2281.44
344.60	2131.94
344.81	2129.89
345.02	2236.38
345.23	2414.56
345.44	2559.96
345.65	2250.72
345.86	2267.10
346.07	2332.64
346.29	2195.42
346.50	2316.25
346.71	2301.92
346.92	2430.94
347.13	2410.46
347.34	2199.52
347.55	2179.04
347.76	2367.45
347.98	2101.22
348.19	2248.67
348.40	2310.11
348.61	2244.57
348.82	2402.27
349.03	2267.10
349.24	2154.46
349.45	2504.67
349.66	2088.93
349.88	2211.81
350.09	2158.56
350.30	2408.41
350.51	2328.54
350.72	2193.37
350.93	2265.05
351.14	2234.33
351.35	2232.29
351.56	2306.01
351.77	2232.29
351.99	2265.05
352.20	2418.65
352.41	2342.88
352.62	2119.65
352.83	2211.81
353.04	2215.90
353.25	2160.61
353.46	2330.59
353.67	2359.26
353.88	2070.50
354.09	2215.90
354.30	2179.04
354.52	2248.67
354.73	2197.47
354.94	2160.61
355.15	2234.33
355.36	2478.04
355.57	2260.96
355.78	2234.33
355.99	2144.22
356.20	2226.14
356.41	2412.51
356.62	2283.49
356.83	2207.71
357.04	2404.32
357.25	2086.88
357.46	2217.95
357.68	2138.08
357.89	2152.42
358.10	2209.76
358.31	2269.15
358.52	2201.57
358.73	2220.00
358.94	2191.33
359.15	2138.08
359.36	2310.11
359.57	2250.72
359.78	2256.86
359.99	2324.44
360.20	2158.56
360.41	2248.67
360.62	2322.40
360.83	2279.39
361.04	2187.23
361.25	2236.38
361.46	2490.33
361.67	2324.44
361.88	2271.20
362.09	2285.53
362.30	2252.77
362.51	2265.05
362.72	2281.44
362.93	2363.36
363.14	2299.87
363.35	2346.97
363.56	2170.85
363.78	2328.54
363.99	2355.16
364.20	2170.85
364.41	2295.77
364.62	2486.23
364.83	2222.05
365.04	2244.57
365.25	2226.14
365.46	2471.90
365.67	2138.08
365.88	2234.33
366.09	2142.18
366.30	2232.29
366.51	2297.82
366.72	2113.50
366.93	2269.15
367.14	2244.57
367.35	2453.47
367.56	2236.38
367.77	2312.16
367.98	2236.38
368.18	2267.10
368.39	2326.49
368.60	2093.02
368.81	2387.93
369.02	2244.57
369.23	2220.00
369.44	2115.55
369.65	2232.29
369.86	2250.72
370.07	2215.90
370.28	2080.74
370.49	2281.44
370.70	2285.53
370.91	2146.27
371.12	2068.45
371.33	2340.83
371.54	2199.52
371.75	2365.40
371.96	2017.25
372.17	2240.48
372.38	2201.57
372.59	2246.62
372.80	2174.94
373.01	2246.62
373.22	2342.88
373.43	2213.85
373.64	2117.60
373.85	2357.21
374.06	2392.03
374.26	2346.97
374.47	2332.64
374.68	2461.66
374.89	2269.15
375.10	2162.66
375.31	2263.01
375.52	2234.33
375.73	2242.53
375.94	2179.04
376.15	2375.64
376.36	2164.70
376.57	2203.61
376.78	2168.80
376.99	2295.77
377.20	2373.60
377.40	2207.71
377.61	2447.32
377.82	2152.42
378.03	2385.88
378.24	2322.40
378.45	2242.53
378.66	2326.49
378.87	2129.89
379.08	2101.22
379.29	2195.42
379.50	2428.89
379.71	2205.66
379.91	2336.73
380.12	2236.38
380.33	2181.09
380.54	2252.77
380.75	2285.53
380.96	2209.76
381.17	2398.17
381.38	2295.77
381.59	2287.58
381.80	2250.72
382.00	2455.51
382.21	2260.96
382.42	2457.56
382.63	2463.71
382.84	2359.26
383.05	2332.64
383.26	2330.59
383.47	2375.64
383.68	2258.91
383.88	2265.05
384.09	2269.15
384.30	2502.62
384.51	2293.72
384.72	2193.37
384.93	2121.70
385.14	2224.09
385.35	2320.35
385.55	2111.46
385.76	2412.51
385.97	2267.10
386.18	2095.07
386.39	2179.04
386.60	2211.81
386.81	2207.71
387.02	2172.89
387.22	2142.18
387.43	2340.83
387.64	2334.68
387.85	2441.18
388.06	2502.62
388.27	3964.87
388.48	8247.17
388.68	11587.41
388.89	14214.95
389.10	15206.17
389.31	13995.82
389.52	10985.30
389.73	9539.44
389.93	8542.08
390.14	7890.82
390.35	7290.77
390.56	6406.05
390.77	5189.55
390.98	3993.54
391.18	3211.22
391.39	2772.95
391.60	2351.07
391.81	2437.08
392.02	2220.00
392.23	2492.38
392.43	2332.64
392.64	2404.32
392.85	2273.25
393.06	2359.26
393.27	2322.40
393.47	2138.08
393.68	2201.57
393.89	2236.38
394.10	2400.22
394.31	2174.94
394.52	2203.61
394.72	2187.23
394.93	2463.71
395.14	2105.31
395.35	2353.12
395.56	2193.37
395.76	2269.15
395.97	2271.20
396.18	2389.98
396.39	2367.45
396.60	2758.61
396.80	2473.95
397.01	2349.02
397.22	2428.89
397.43	2355.16
397.64	2267.10
397.84	2383.84
398.05	2568.15
398.26	2303.96
398.47	2371.55
398.67	2287.58
398.88	2269.15
399.09	2308.06
399.30	2220.00
399.51	2340.83
399.71	2121.70
399.92	2306.01
400.13	2289.63
400.34	2250.72
400.54	2199.52
400.75	2416.60
400.96	2365.40
401.17	2414.56
401.37	2316.25
401.58	2283.49
401.79	2299.87
402.00	2359.26
402.21	2699.22
402.41	2459.61
402.62	2635.74
402.83	2639.83
403.04	2717.65
403.24	2877.40
403.45	2457.56
403.66	2529.24
403.87	2486.23
404.07	2512.86
404.28	2506.71
404.49	2486.23
404.70	2324.44
404.90	2308.06
405.11	2355.16
405.32	2351.07
405.52	2213.85
405.73	2187.23
405.94	2191.33
406.15	2258.91
406.35	2310.11
406.56	2322.40
406.77	2244.57
406.98	2351.07
407.18	2193.37
407.39	2392.03
407.60	2193.37
407.80	2265.05
408.01	2293.72
408.22	2349.02
408.43	2217.95
408.63	2367.45
408.84	2375.64
409.05	2308.06
409.25	2217.95
409.46	2269.15
409.67	2152.42
409.88	2256.86
410.08	2291.68
410.29	2240.48
410.50	2240.48
410.70	2318.30
410.91	2127.84
411.12	2228.19
411.32	2269.15
411.53	2201.57
411.74	2349.02
411.95	2406.36
412.15	2271.20
412.36	2330.59
412.57	2373.60
412.77	2351.07
412.98	2246.62
413.19	2361.31
413.39	2279.39
413.60	2269.15
413.81	2355.16
414.01	2181.09
414.22	2338.78
414.43	2285.53
414.63	2256.86
414.84	2398.17
415.05	2236.38
415.25	2111.46
415.46	2293.72
415.67	2226.14
415.87	2287.58
416.08	2285.53
416.29	2250.72
416.49	2303.96
416.70	2267.10
416.91	2232.29
417.11	2269.15
417.32	2330.59
417.53	2346.97
417.73	2295.77
417.94	2234.33
418.15	2332.64
418.35	2316.25
418.56	2220.00
418.77	2351.07
418.97	2271.20
419.18	2199.52
419.38	2031.58
419.59	2174.94
419.80	2445.27
420.00	2207.71
420.21	2203.61
420.42	2437.08
420.62	2291.68
420.83	2195.42
421.04	2183.13
421.24	2254.81
421.45	2340.83
421.65	2244.57
421.86	2211.81
422.07	2353.12
422.27	2326.49
422.48	2183.13
422.69	2103.26
422.89	2283.49
423.10	2236.38
423.30	2197.47
423.51	2246.62
423.72	2269.15
423.92	2308.06
424.13	2138.08
424.33	2318.30
424.54	2351.07
424.75	2211.81
424.95	2398.17
425.16	2220.00
425.36	2279.39
425.57	2318.30
425.78	2355.16
425.98	2387.93
426.19	2246.62
426.39	2203.61
426.60	2277.34
426.81	2336.73
427.01	2342.88
427.22	2191.33
427.42	2052.06
427.63	2236.38
427.83	2340.83
428.04	2365.40
428.25	2308.06
428.45	2355.16
428.66	2408.41
428.86	2269.15
429.07	2289.63
429.28	2254.81
429.48	2170.85
429.69	2119.65
429.89	2265.05
430.10	2148.32
430.30	2351.07
430.51	2318.30
430.71	2220.00
430.92	2238.43
431.13	2222.05
431.33	2277.34
431.54	2242.53
431.74	2416.60
431.95	2523.10
432.15	2205.66
432.36	2230.24
432.56	2371.55
432.77	2430.94
432.98	2453.47
433.18	2316.25
433.39	2269.15
433.59	2193.37
433.80	2453.47
434.00	2473.95
434.21	2244.57
434.41	2199.52
434.62	2484.19
434.82	2152.42
435.03	2113.50
435.23	2289.63
435.44	2138.08
435.64	2152.42
435.85	2281.44
436.06	2351.07
436.26	2332.64
436.47	2193.37
436.67	2154.46
436.88	2162.66
437.08	2394.08
437.29	2486.23
437.49	2246.62
437.70	2340.83
437.90	2224.09
438.11	2484.19
438.31	2308.06
438.52	2512.86
438.72	2443.23
438.93	2510.81
439.13	2306.01
439.34	2480.09
439.54	2340.83
439.75	2439.13
439.95	2318.30
440.16	2179.04
440.36	2375.64
440.57	2326.49
440.77	2342.88
440.98	2275.29
441.18	2346.97
441.39	2205.66
441.59	2115.55
441.80	2480.09
442.00	2285.53
442.21	2379.74
442.41	2162.66
442.62	2314.20
442.82	2244.57
443.02	2263.01
443.23	2252.77
443.43	2252.77
443.64	2377.69
443.84	2220.00
444.05	2324.44
444.25	2301.92
444.46	2283.49
444.66	2220.00
444.87	2412.51
445.07	2166.75
445.28	2240.48
445.48	2355.16
445.69	2369.50
445.89	2473.95
446.09	2293.72
446.30	2475.99
446.50	2795.48
446.71	4462.52
446.91	5707.69
447.12	6391.71
447.32	6778.78
447.53	6281.12
447.73	5089.20
447.93	4542.39
448.14	4341.69
448.34	4054.98
448.55	3647.43
448.75	3571.66
448.96	3348.43
449.16	3059.67
449.36	2885.59
449.57	2570.20
449.77	2367.45
449.98	2279.39
450.18	2285.53
450.39	2310.11
450.59	2377.69
450.79	2326.49
451.00	2191.33
451.20	2418.65
451.41	2209.76
451.61	2258.91
451.81	2260.96
452.02	2217.95
452.22	2246.62
452.43	2256.86
452.63	2228.19
452.84	2275.29
453.04	2244.57
453.24	2301.92
453.45	2207.71
453.65	2303.96
453.86	2230.24
454.06	2299.87
454.26	2310.11
454.47	2269.15
454.67	2379.74
454.87	2332.64
455.08	2183.13
455.28	2408.41
455.49	2238.43
455.69	2129.89
455.89	2541.53
456.10	2316.25
456.30	2230.24
456.51	2375.64
456.71	2342.88
456.91	2324.44
457.12	2332.64
457.32	2269.15
457.52	2217.95
457.73	2291.68
457.93	2301.92
458.14	2363.36
458.34	2150.37
458.54	2277.34
458.75	2260.96
458.95	2375.64
459.15	2324.44
459.36	2273.25
459.56	2310.11
459.76	2496.47
459.97	2228.19
460.17	2273.25
460.37	2412.51
460.58	2383.84
460.78	2377.69
460.99	2303.96
461.19	2260.96
461.39	2273.25
461.60	2234.33
461.80	2324.44
462.00	2154.46
462.21	2277.34
462.41	2168.80
462.61	2240.48
462.82	2113.50
463.02	2334.68
463.22	2314.20
463.43	2353.12
463.63	2322.40
463.83	2432.99
464.04	2306.01
464.24	2299.87
464.44	2095.07
464.64	2312.16
464.85	2332.64
465.05	2291.68
465.25	2254.81
465.46	2232.29
465.66	2342.88
465.86	2379.74
466.07	2250.72
466.27	2244.57
466.47	2119.65
466.68	2131.94
466.88	2449.37
467.08	2346.97
467.29	2424.80
467.49	2344.92
467.69	2287.58
467.89	2308.06
468.10	2185.18
468.30	2191.33
468.50	2375.64
468.71	2398.17
468.91	2133.98
469.11	2414.56
469.31	2326.49
469.52	2197.47
469.72	2469.85
469.92	2398.17
470.13	2236.38
470.33	2303.96
470.53	2373.60
470.73	2695.13
470.94	3016.66
471.14	3198.93
471.34	3495.88
471.54	3348.43
471.75	3100.62
471.95	2871.25
472.15	2609.11
472.36	2830.29
472.56	2707.41
472.76	2779.09
472.96	2686.94
473.17	2512.86
473.37	2449.37
473.57	2179.04
473.77	2359.26
473.98	2275.29
474.18	2172.89
474.38	2650.07
474.58	2197.47
474.79	2197.47
474.99	2363.36
475.19	2465.75
475.39	2197.47
475.60	2326.49
475.80	2263.01
476.00	2283.49
476.20	2228.19
476.41	2211.81
476.61	2375.64
476.81	2334.68
477.01	2166.75
477.21	2389.98
477.42	2424.80
477.62	2138.08
477.82	2355.16
478.02	2217.95
478.23	2281.44
478.43	2213.85
478.63	2119.65
478.83	2342.88
479.03	2232.29
479.24	2371.55
479.44	2480.09
479.64	2160.61
479.84	2144.22
480.04	2158.56
480.25	2402.27
480.45	2191.33
480.65	2244.57
480.85	2353.12
481.06	2189.28
481.26	2226.14
481.46	2346.97
481.66	2359.26
481.86	2115.55
482.06	2432.99
482.27	2195.42
482.47	2277.34
482.67	2303.96
482.87	2146.27
483.07	2318.30
483.28	2226.14
483.48	2164.70
483.68	2256.86
483.88	2254.81
484.08	2084.83
484.29	2146.27
484.49	2201.57
484.69	2138.08
484.89	2336.73
485.09	2373.60
485.29	2314.20
485.50	2326.49
485.70	2310.11
485.90	2383.84
486.10	2258.91
486.30	2353.12
486.50	2344.92
486.71	2260.96
486.91	2375.64
487.11	2394.08
487.31	2158.56
487.51	2344.92
487.71	2185.18
487.91	2203.61
488.12	2142.18
488.32	2088.93
488.52	2160.61
488.72	2047.97
488.92	2283.49
489.12	2465.75
489.32	2324.44
489.53	2275.29
489.73	2150.37
489.93	2408.41
490.13	2234.33
490.33	2097.12
490.53	2195.42
490.73	2394.08
490.94	2097.12
491.14	2361.31
491.34	2338.78
491.54	2582.49
491.74	3155.92
491.94	3741.64
492.14	4065.22
492.34	4046.79
492.54	3825.61
492.75	3266.51
492.95	3164.11
493.15	3018.71
493.35	2969.55
493.55	2811.86
493.75	2686.94
493.95	2793.43
494.15	2592.73
494.35	2447.32
494.56	2367.45
494.76	2269.15
494.96	2256.86
495.16	2359.26
495.36	2252.77
495.56	2248.67
495.76	2326.49
495.96	2203.61
496.16	2195.42
496.36	2471.90
496.56	2211.81
496.77	2318.30
496.97	2252.77
497.17	2406.36
497.37	2277.34
497.57	2301.92
497.77	2263.01
497.97	2176.99
498.17	2215.90
498.37	2146.27
498.57	2357.21
498.77	2193.37
498.97	2299.87
499.17	2406.36
499.38	2244.57
499.58	2328.54
499.78	2312.16
499.98	2430.94
500.18	2238.43
500.38	2199.52
500.58	2463.71
500.78	2965.46
500.98	5269.42
501.18	7221.14
501.38	8849.27
501.58	9768.81
501.78	9623.41
501.98	7667.60
502.18	6438.81
502.38	5644.20
502.58	5142.45
502.78	4652.98
502.98	4454.33
503.18	4315.07
503.38	3856.33
503.59	3405.77
503.79	3243.98
503.99	3006.42
504.19	3004.37
504.39	2838.48
504.59	2826.20
504.79	2834.39
504.99	2820.05
505.19	2572.25
505.39	2400.22
505.59	2602.97
505.79	2482.14
505.99	2430.94
506.19	2342.88
506.39	2424.80
506.59	2246.62
506.79	2260.96
506.99	2396.12
507.19	2318.30
507.39	2318.30
507.59	2217.95
507.79	2203.61
507.99	2131.94
508.19	2265.05
508.39	2238.43
508.59	2199.52
508.79	2322.40
508.99	2514.91
509.19	2285.53
509.39	2318.30
509.59	2150.37
509.79	2187.23
509.99	2236.38
510.19	2349.02
510.39	2328.54
510.59	2306.01
510.79	2193.37
510.99	2187.23
511.19	2220.00
511.39	2531.29
511.59	2338.78
511.79	2375.64
511.99	2285.53
512.19	2435.03
512.38	2250.72
512.58	2256.86
512.78	2258.91
512.98	2418.65
513.18	2494.43
513.38	2088.93
513.58	2213.85
513.78	2248.67
513.98	2234.33
514.18	2179.04
514.38	2176.99
514.58	2301.92
514.78	2297.82
514.98	2121.70
515.18	2256.86
515.38	2150.37
515.58	2478.04
515.78	2242.53
515.98	2240.48
516.18	2283.49
516.38	2283.49
516.57	2172.89
516.77	2170.85
516.97	2336.73
517.17	2267.10
517.37	2095.07
517.57	2359.26
517.77	2269.15
517.97	2181.09
518.17	2310.11
518.37	2172.89
518.57	2217.95
518.77	2226.14
518.97	2207.71
519.16	2301.92
519.36	2351.07
519.56	2213.85
519.76	2275.29
519.96	2273.25
520.16	2447.32
520.36	2162.66
520.56	2351.07
520.76	2303.96
520.96	2213.85
521.16	2381.79
521.35	2396.12
521.55	2377.69
521.75	2240.48
521.95	2240.48
522.15	2289.63
522.35	1996.77
522.55	2164.70
522.75	2385.88
522.95	2297.82
523.14	2263.01
523.34	2338.78
523.54	2170.85
523.74	2273.25
523.94	2303.96
524.14	2138.08
524.34	2338.78
524.54	2344.92
524.73	2324.44
524.93	2383.84
525.13	2256.86
525.33	2172.89
525.53	2490.33
525.73	2324.44
525.93	2295.77
526.13	2162.66
526.32	2228.19
526.52	2385.88
526.72	2363.36
526.92	2224.09
527.12	2164.70
527.32	2080.74
527.52	2287.58
527.71	2369.50
527.91	2211.81
528.11	2250.72
528.31	2244.57
528.51	2209.76
528.71	2275.29
528.90	2316.25
529.10	2383.84
529.30	2349.02
529.50	2113.50
529.70	2258.91
529.90	2224.09
530.09	2234.33
530.29	2174.94
530.49	2187.23
530.69	2576.34
530.89	2203.61
531.09	2310.11
531.28	2277.34
531.48	2478.04
531.68	2238.43
531.88	2248.67
532.08	2389.98
532.28	2203.61
532.47	2336.73
532.67	2291.68
532.87	2308.06
533.07	2185.18
533.27	2389.98
533.46	2306.01
533.66	2291.68
533.86	2183.13
534.06	2271.20
534.26	2252.77
534.45	2254.81
534.65	2404.32
534.85	2277.34
535.05	2179.04
535.25	2308.06
535.44	2195.42
535.64	2260.96
535.84	2246.62
536.04	2228.19
536.24	2248.67
536.43	2195.42
536.63	2301.92
536.83	2295.77
537.03	2248.67
537.22	2127.84
537.42	2179.04
537.62	2283.49
537.82	2197.47
538.02	2420.70
538.21	2406.36
538.41	2588.63
538.61	2381.79
538.81	2299.87
539.00	2387.93
539.20	2152.42
539.40	2207.71
539.60	2254.81
539.79	2310.11
539.99	2187.23
540.19	2166.75
540.39	2244.57
540.58	2273.25
540.78	2369.50
540.98	2244.57
541.18	2369.50
541.37	2328.54
541.57	2273.25
541.77	2291.68
541.97	2209.76
542.16	2119.65
542.36	2142.18
542.56	2228.19
542.76	2439.13
542.95	2269.15
543.15	2293.72
543.35	2326.49
543.54	2228.19
543.74	2203.61
543.94	2363.36
544.14	2283.49
544.33	2275.29
544.53	2267.10
544.73	2211.81
544.93	2226.14
545.12	2281.44
545.32	2293.72
545.52	2234.33
545.71	2158.56
545.91	2195.42
546.11	2220.00
546.30	2152.42
546.50	2357.21
546.70	2260.96
546.90	2260.96
547.09	2136.03
547.29	2295.77
547.49	2381.79
547.68	2222.05
547.88	2205.66
548.08	2334.68
548.27	2789.33
548.47	2170.85
548.67	2281.44
548.87	2328.54
549.06	2256.86
549.26	2222.05
549.46	2381.79
549.65	2160.61
549.85	2281.44
550.05	2289.63
550.24	2191.33
550.44	2254.81
550.64	2293.72
550.83	2269.15
551.03	2351.07
551.23	2314.20
551.42	2306.01
551.62	2340.83
551.82	2281.44
552.01	2222.05
552.21	2324.44
552.41	2248.67
552.60	2318.30
552.80	2289.63
553.00	2260.96
553.19	2222.05
553.39	2381.79
553.59	2187.23
553.78	2308.06
553.98	2310.11
554.17	2207.71
554.37	2244.57
554.57	2332.64
554.76	2187.23
554.96	2224.09
555.16	2238.43
555.35	2301.92
555.55	2385.88
555.75	2293.72
555.94	2449.37
556.14	2121.70
556.33	2293.72
556.53	2260.96
556.73	2260.96
556.92	2279.39
557.12	2277.34
557.32	2445.27
557.51	2451.42
557.71	2293.72
557.90	2351.07
558.10	2418.65
558.30	2287.58
558.49	2187.23
558.69	2197.47
558.88	2312.16
559.08	2336.73
559.28	2265.05
559.47	2265.05
559.67	2373.60
559.86	2467.80
560.06	2293.72
560.26	2297.82
560.45	2271.20
560.65	2246.62
560.84	2363.36
561.04	2217.95
561.24	2289.63
561.43	2125.79
561.63	2379.74
561.82	2224.09
562.02	2367.45
562.22	2193.37
562.41	2176.99
562.61	2222.05
562.80	2181.09
563.00	2559.96
563.19	2301.92
563.39	2312.16
563.59	2285.53
563.78	2084.83
563.98	2136.03
564.17	2211.81
564.37	2144.22
564.56	2232.29
564.76	2211.81
564.96	2359.26
565.15	2201.57
565.35	2486.23
565.54	2199.52
565.74	2281.44
565.93	2416.60
566.13	2195.42
566.32	2285.53
566.52	2297.82
566.71	2332.64
566.91	2344.92
567.11	2299.87
567.30	2215.90
567.50	2340.83
567.69	2293.72
567.89	2211.81
568.08	2144.22
568.28	2271.20
568.47	2215.90
568.67	2273.25
568.86	2224.09
569.06	2371.55
569.25	2125.79
569.45	2066.40
569.64	2181.09
569.84	2326.49
570.04	2269.15
570.23	2211.81
570.43	2238.43
570.62	2281.44
570.82	2467.80
571.01	2138.08
571.21	2240.48
571.40	2230.24
571.60	2383.84
571.79	2273.25
571.99	2369.50
572.18	2230.24
572.38	2389.98
572.57	2238.43
572.77	2263.01
572.96	2588.63
573.16	2344.92
573.35	2260.96
573.55	2418.65
573.74	2377.69
573.94	2265.05
574.13	2238.43
574.33	2375.64
574.52	2357.21
574.71	2269.15
574.91	2351.07
575.10	2103.26
575.30	2291.68
575.49	2211.81
575.69	2222.05
575.88	2312.16
576.08	2271.20
576.27	2484.19
576.47	2273.25
576.66	2402.27
576.86	2508.76
577.05	2312.16
577.25	2383.84
577.44	2535.39
577.64	2297.82
577.83	2342.88
578.02	2228.19
578.22	2400.22
578.41	2473.95
578.61	2269.15
578.80	2185.18
579.00	2332.64
579.19	2340.83
579.39	2387.93
579.58	2357.21
579.77	2324.44
579.97	2461.66
580.16	2383.84
580.36	2375.64
580.55	2349.02
580.75	2363.36
580.94	2236.38
581.13	2482.14
581.33	2418.65
581.52	2232.29
581.72	2486.23
581.91	2408.41
582.11	2166.75
582.30	2416.60
582.49	2349.02
582.69	2480.09
582.88	2301.92
583.08	2308.06
583.27	2375.64
583.47	2355.16
583.66	2226.14
583.85	2166.75
584.05	2209.76
584.24	2373.60
584.44	2301.92
584.63	2467.80
584.82	2463.71
585.02	2418.65
585.21	2473.95
585.41	2387.93
585.60	2351.07
585.79	2564.06
585.99	2541.53
586.18	2475.99
586.37	2963.41
586.57	4775.86
586.76	14135.08
586.96	33644.03
587.15	47179.06
587.34	57042.07
587.54	62082.12
587.73	56884.38
587.93	40322.46
588.12	30463.54
588.31	24419.98
588.51	21071.55
588.70	19631.83
588.89	17757.94
589.09	15157.02
589.28	13115.19
589.47	10671.97
589.67	8140.68
589.86	6594.46
590.06	4814.77
590.25	3983.30
590.44	3325.90
590.64	2822.10
590.83	2535.39
591.02	2594.78
591.22	2365.40
591.41	2400.22
591.60	2359.26
591.80	2564.06
591.99	2217.95
592.18	2289.63
592.38	2414.56
592.57	2301.92
592.76	2312.16
592.96	2394.08
593.15	2293.72
593.34	2392.03
593.54	2328.54
593.73	2373.60
593.92	2428.89
594.12	2383.84
594.31	2308.06
594.50	2449.37
594.70	2414.56
594.89	2543.58
595.08	2136.03
595.28	2441.18
595.47	2717.65
595.66	2316.25
595.86	2133.98
596.05	2269.15
596.24	2238.43
596.43	2473.95
596.63	2449.37
596.82	2265.05
597.01	2287.58
597.21	2510.81
597.40	2306.01
597.59	2363.36
597.79	2273.25
597.98	2375.64
598.17	2306.01
598.36	2217.95
598.56	2359.26
598.75	2258.91
598.94	2340.83
599.14	2224.09
599.33	2281.44
599.52	2383.84
599.71	2359.26
599.91	2363.36
600.10	2320.35
600.29	2285.53
600.48	2359.26
600.68	2344.92
600.87	2301.92
601.06	2181.09
601.26	2293.72
601.45	2314.20
601.64	2267.10
601.83	2428.89
602.03	2199.52
602.22	2213.85
602.41	2408.41
602.60	2555.86
602.80	2398.17
602.99	2191.33
603.18	2232.29
603.37	2293.72
603.57	2222.05
603.76	2316.25
603.95	2365.40
604.14	2215.90
604.34	2181.09
604.53	2211.81
604.72	2240.48
604.91	2369.50
605.10	2369.50
605.30	2146.27
605.49	2445.27
605.68	2312.16
605.87	2308.06
606.07	2242.53
606.26	2293.72
606.45	2338.78
606.64	2336.73
606.84	2326.49
607.03	2318.30
607.22	2418.65
607.41	2203.61
607.60	2224.09
607.80	2357.21
607.99	2283.49
608.18	2310.11
608.37	2285.53
608.56	2203.61
608.76	2441.18
608.95	2514.91
609.14	2340.83
609.33	2473.95
609.52	2432.99
609.72	2363.36
609.91	2426.84
610.10	2297.82
610.29	2494.43
610.48	2400.22
610.68	2367.45
610.87	2285.53
611.06	2314.20
611.25	2213.85
611.44	2392.03
611.63	2293.72
611.83	2432.99
612.02	2170.85
612.21	2375.64
612.40	2068.45
612.59	2179.04
612.79	2107.36
612.98	2263.01
613.17	2416.60
613.36	2281.44
613.55	2441.18
613.74	2324.44
613.93	2435.03
614.13	2480.09
614.32	2494.43
614.51	2465.75
614.70	2338.78
614.89	2252.77
615.08	2416.60
615.28	2811.86
615.47	2209.76
615.66	2314.20
615.85	2392.03
616.04	2486.23
616.23	2322.40
616.42	2287.58
616.62	2326.49
616.81	2340.83
617.00	2308.06
617.19	2375.64
617.38	2203.61
617.57	2256.86
617.76	2334.68
617.95	2465.75
618.15	2351.07
618.34	2422.75
618.53	2103.26
618.72	2430.94
618.91	2480.09
619.10	2359.26
619.29	2267.10
619.48	2240.48
619.68	2136.03
619.87	2273.25
620.06	2187.23
620.25	2400.22
620.44	2291.68
620.63	2230.24
620.82	2281.44
621.01	2258.91
621.20	2199.52
621.39	2326.49
621.59	2252.77
621.78	2256.86
621.97	2289.63
622.16	2314.20
622.35	2265.05
622.54	2312.16
622.73	2365.40
622.92	2129.89
623.11	2359.26
623.30	2312.16
623.49	2281.44
623.68	2209.76
623.88	2435.03
624.07	2318.30
624.26	2207.71
624.45	2334.68
624.64	2250.72
624.83	2273.25
625.02	2248.67
625.21	2308.06
625.40	2277.34
625.59	2445.27
625.78	2246.62
625.97	2412.51
626.16	2408.41
626.35	2359.26
626.54	2334.68
626.74	2480.09
626.93	2224.09
627.12	2297.82
627.31	2318.30
627.50	2322.40
627.69	2455.51
627.88	2166.75
628.07	2148.32
628.26	2101.22
628.45	2236.38
628.64	2209.76
628.83	2299.87
629.02	2162.66
629.21	2375.64
629.40	2293.72
629.59	2207.71
629.78	2203.61
629.97	2260.96
630.16	2236.38
630.35	2187.23
630.54	2234.33
630.73	2193.37
630.92	2250.72
631.11	2113.50
631.30	2277.34
631.49	2414.56
631.68	2203.61
631.87	2295.77
632.06	2105.31
632.25	2453.47
632.44	2297.82
632.63	2271.20
632.82	2291.68
633.01	2281.44
633.20	2275.29
633.39	2258.91
633.58	2220.00
633.77	2342.88
633.96	2361.31
634.15	2314.20
634.34	2244.57
634.53	2324.44
634.72	2248.67
634.91	2121.70
635.10	2252.77
635.29	2326.49
635.48	2201.57
635.67	2228.19
635.86	2095.07
636.05	2385.88
636.24	2316.25
636.43	2250.72
636.62	2246.62
636.81	2041.82
637.00	2316.25
637.19	2258.91
637.38	2299.87
637.57	2283.49
637.76	2293.72
637.95	2445.27
638.14	2355.16
638.33	2392.03
638.52	2334.68
638.71	2166.75
638.89	2240.48
639.08	2508.76
639.27	2314.20
639.46	2519.00
639.65	2842.58
639.84	2793.43
640.03	2996.18
640.22	2899.92
640.41	2904.02
640.60	2564.06
640.79	2514.91
640.98	2500.57
641.17	2480.09
641.36	2441.18
641.55	2424.80
641.74	2187.23
641.92	2279.39
642.11	2267.10
642.30	2230.24
642.49	2226.14
642.68	2250.72
642.87	2322.40
643.06	2301.92
643.25	2166.75
643.44	2154.46
643.63	2174.94
643.82	2260.96
644.00	2220.00
644.19	2183.13
644.38	2142.18
644.57	2363.36
644.76	2256.86
644.95	2187.23
645.14	2256.86
645.33	2306.01
645.52	2277.34
645.71	2101.22
645.89	2121.70
646.08	2375.64
646.27	2211.81
646.46	2412.51
646.65	2138.08
646.84	2326.49
647.03	2185.18
647.22	2344.92
647.40	2310.11
647.59	2217.95
647.78	2127.84
647.97	2248.67
648.16	2158.56
648.35	2447.32
648.54	2363.36
648.73	2144.22
648.91	2367.45
649.10	2310.11
649.29	2093.02
649.48	2236.38
649.67	2332.64
649.86	2365.40
650.05	2349.02
650.23	2455.51
650.42	2318.30
650.61	2537.43
650.80	2447.32
650.99	2578.39
651.18	2424.80
651.36	2457.56
651.55	2252.77
651.74	2330.59
651.93	2191.33
652.12	2226.14
652.31	2306.01
652.49	2293.72
652.68	2193.37
652.87	2424.80
653.06	2392.03
653.25	2543.58
653.44	2330.59
653.62	2496.47
653.81	2220.00
654.00	2250.72
654.19	2297.82
654.38	2504.67
654.56	2314.20
654.75	2207.71
654.94	2418.65
655.13	2316.25
655.32	2191.33
655.51	2306.01
655.69	2142.18
655.88	2363.36
656.07	2185.18
656.26	2312.16
656.45	2109.41
656.63	2326.49
656.82	2263.01
657.01	2430.94
657.20	2211.81
657.38	2353.12
657.57	2193.37
657.76	2160.61
657.95	2373.60
658.14	2093.02
658.32	2281.44
658.51	2097.12
658.70	2306.01
658.89	2318.30
659.08	2277.34
659.26	2555.86
659.45	2203.61
659.64	2408.41
659.83	2248.67
660.01	2588.63
660.20	2342.88
660.39	2467.80
660.58	2150.37
660.76	2367.45
660.95	2119.65
661.14	2287.58
661.33	2164.70
661.51	2189.28
661.70	2211.81
661.89	2297.82
662.08	2179.04
662.26	2070.50
662.45	2172.89
662.64	2445.27
662.83	2349.02
663.01	2142.18
663.20	2146.27
663.39	2400.22
663.58	2162.66
663.76	2263.01
663.95	2275.29
664.14	2140.13
664.32	2271.20
664.51	2174.94
664.70	2195.42
664.89	2316.25
665.07	2127.84
665.26	2408.41
665.45	2176.99
665.64	2283.49
665.82	2220.00
666.01	2308.06
666.20	2109.41
666.38	2373.60
666.57	2463.71
666.76	3254.22
666.95	8200.07
667.13	16475.91
667.32	21128.89
667.51	25009.79
667.69	26734.18
667.88	24424.08
668.07	17428.21
668.25	13930.28
668.44	11718.48
668.63	9910.12
668.81	8793.98
669.00	7665.55
669.19	6930.33
669.38	6172.58
669.56	5199.79
669.75	4169.66
669.94	3624.90
670.12	3055.57
670.31	2758.61
670.50	2576.34
670.68	2512.86
670.87	2406.36
671.06	2293.72
671.24	2334.68
671.43	2506.71
671.62	2361.31
671.80	2248.67
671.99	2328.54
672.18	2269.15
672.36	2414.56
672.55	2306.01
672.74	2205.66
672.92	2277.34
673.11	2394.08
673.29	2258.91
673.48	2295.77
673.67	2232.29
673.85	2377.69
674.04	2117.60
674.23	2269.15
674.41	2537.43
674.60	2203.61
674.79	2068.45
674.97	2228.19
675.16	2392.03
675.34	2359.26
675.53	2220.00
675.72	2279.39
675.90	2465.75
676.09	2215.90
676.28	2242.53
676.46	2105.31
676.65	2283.49
676.83	2193.37
677.02	2183.13
677.21	2267.10
677.39	2244.57
677.58	2287.58
677.77	2258.91
677.95	2152.42
678.14	2273.25
678.32	2203.61
678.51	2158.56
678.70	2453.47
678.88	2176.99
679.07	2342.88
679.25	2269.15
679.44	2148.32
679.63	2166.75
679.81	2332.64
680.00	2351.07
680.18	2340.83
680.37	2353.12
680.55	2267.10
680.74	2115.55
680.93	2045.92
681.11	2342.88
681.30	2263.01
681.48	2252.77
681.67	2220.00
681.85	2256.86
682.04	2244.57
682.23	2326.49
682.41	2240.48
682.60	2222.05
682.78	2275.29
682.97	2234.33
683.15	2279.39
683.34	2312.16
683.53	2379.74
683.71	2127.84
683.90	2400.22
684.08	2471.90
684.27	2240.48
684.45	2330.59
684.64	2318.30
684.82	2240.48
685.01	2236.38
685.19	2242.53
685.38	2392.03
685.57	2263.01
685.75	2150.37
685.94	2154.46
686.12	2125.79
686.31	2228.19
686.49	2414.56
686.68	2189.28
686.86	2312.16
687.05	2174.94
687.23	2383.84
687.42	2168.80
687.60	2220.00
687.79	2361.31
687.97	2299.87
688.16	2367.45
688.34	2359.26
688.53	2140.13
688.71	2306.01
688.90	2453.47
689.08	2207.71
689.27	2129.89
689.45	2363.36
689.64	2291.68
689.82	2338.78
690.01	2293.72
690.19	2324.44
690.38	2349.02
690.56	2457.56
690.75	2131.94
690.93	2291.68
691.12	2195.42
691.30	2252.77
691.49	2226.14
691.67	2236.38
691.86	2471.90
692.04	2166.75
692.23	2314.20
692.41	2314.20
692.60	2486.23
692.78	2394.08
692.97	2326.49
693.15	2301.92
693.34	2414.56
693.52	2375.64
693.71	2215.90
693.89	2217.95
694.08	2060.26
694.26	2285.53
694.44	2338.78
694.63	2357.21
694.81	2179.04
695.00	2174.94
695.18	2377.69
695.37	2551.77
695.55	2263.01
695.74	2242.53
695.92	2168.80
696.10	2426.84
696.29	2170.85
696.47	2224.09
696.66	2140.13
696.84	2183.13
697.03	2236.38
697.21	2502.62
697.40	3282.89
697.58	2365.40
697.76	2209.76
697.95	2199.52
698.13	2142.18
698.32	2283.49
698.50	2283.49
698.68	2265.05
698.87	2326.49
699.05	2428.89
699.24	2273.25
699.42	2201.57
699.61	2306.01
699.79	2297.82
699.97	2224.09
700.16	2166.75
700.34	2168.80
700.53	2275.29
700.71	2490.33
700.89	2361.31
701.08	2220.00
701.26	2246.62
701.45	2772.95
701.63	2187.23
701.81	2252.77
702.00	2220.00
702.18	2283.49
702.37	2234.33
702.55	2426.84
702.73	2416.60
702.92	2389.98
703.10	2568.15
703.28	2447.32
703.47	2297.82
703.65	2516.95
703.84	2453.47
704.02	2349.02
704.20	2467.80
704.39	2236.38
704.57	2281.44
704.75	2496.47
704.94	2432.99
705.12	2318.30
705.30	2432.99
705.49	4403.13
705.67	10362.72
705.86	18290.41
706.04	21814.96
706.22	24888.96
706.41	25970.29
706.59	21927.60
706.77	15572.75
706.96	13199.16
707.14	11306.84
707.32	9969.51
707.51	8836.99
707.69	7266.19
707.87	5953.45
708.06	4777.91
708.24	3954.63
708.42	3082.19
708.61	3035.09
708.79	2605.02
708.97	2389.98
709.16	2441.18
709.34	2320.35
709.52	2283.49
709.71	2326.49
709.89	2316.25
710.07	2217.95
710.26	2187.23
710.44	2242.53
710.62	2359.26
710.80	2291.68
710.99	2299.87
711.17	2346.97
711.35	2230.24
711.54	2162.66
711.72	2324.44
711.90	2299.87
712.09	2322.40
712.27	2271.20
712.45	2318.30
712.63	2246.62
712.82	2283.49
713.00	2232.29
713.18	2308.06
713.37	2297.82
713.55	2363.36
713.73	2355.16
713.91	2318.30
714.10	2154.46
714.28	2273.25
714.46	2330.59
714.65	2299.87
714.83	2275.29
715.01	2244.57
715.19	2291.68
715.38	2154.46
715.56	2252.77
715.74	2220.00
715.92	2222.05
716.11	2422.75
716.29	2064.35
716.47	2203.61
716.65	2226.14
716.84	2117.60
717.02	2287.58
717.20	2111.46
717.38	2269.15
717.57	2281.44
717.75	2220.00
717.93	2232.29
718.11	2242.53
718.30	2068.45
718.48	2291.68
718.66	2295.77
718.84	2361.31
719.03	2281.44
719.21	2179.04
719.39	2398.17
719.57	2332.64
719.75	2316.25
719.94	2125.79
720.12	2209.76
720.30	2287.58
720.48	2344.92
720.67	2133.98
720.85	2154.46
721.03	2176.99
721.21	2158.56
721.39	2338.78
721.58	2332.64
721.76	2316.25
721.94	2336.73
722.12	2279.39
722.30	2412.51
722.49	2193.37
722.67	2267.10
722.85	2289.63
723.03	2101.22
723.21	2199.52
723.40	2293.72
723.58	2408.41
723.76	2308.06
723.94	2355.16
724.12	2363.36
724.30	2428.89
724.49	2418.65
724.67	2215.90
724.85	2416.60
725.03	2187.23
725.21	2404.32
725.40	2332.64
725.58	2138.08
725.76	2277.34
725.94	2332.64
726.12	2125.79
726.30	2234.33
726.49	2203.61
726.67	2238.43
726.85	2324.44
727.03	2490.33
727.21	3643.34
727.39	5033.91
727.57	5746.60
727.76	6436.77
727.94	6664.09
728.12	6373.28
728.30	5300.14
728.48	4366.27
728.66	4089.79
728.84	3827.65
729.03	3301.33
729.21	2996.18
729.39	2734.04
729.57	2521.05
729.75	2398.17
729.93	2396.12
730.11	2256.86
730.30	2283.49
730.48	2289.63
730.66	2414.56
730.84	2318.30
731.02	2271.20
731.20	2117.60
731.38	2228.19
731.56	2052.06
731.74	2074.59
731.93	2301.92
732.11	2217.95
732.29	2234.33
732.47	2260.96
732.65	2226.14
732.83	2353.12
733.01	2310.11
733.19	2203.61
733.37	2281.44
733.56	2250.72
733.74	2129.89
733.92	2418.65
734.10	2146.27
734.28	2312.16
734.46	2095.07
734.64	2256.86
734.82	2228.19
735.00	2230.24
735.18	2183.13
735.36	2318.30
735.54	2232.29
735.73	2209.76
735.91	2246.62
736.09	2211.81
736.27	2297.82
736.45	2394.08
736.63	2056.16
736.81	2158.56
736.99	2318.30
737.17	2404.32
737.35	2197.47
737.53	2211.81
737.71	2197.47
737.89	2373.60
738.07	2160.61
738.25	2154.46
738.43	2140.13
738.61	2217.95
738.80	2148.32
738.98	2197.47
739.16	2205.66
739.34	2138.08
739.52	2334.68
739.70	2248.67
739.88	2308.06
740.06	2387.93
740.24	2080.74
740.42	2326.49
740.60	2062.30
740.78	2250.72
740.96	2058.21
741.14	2263.01
741.32	2256.86
741.50	2070.50
741.68	2473.95
741.86	2422.75
742.04	2199.52
742.22	2226.14
742.40	2240.48
742.58	2363.36
742.76	2129.89
742.94	2314.20
743.12	2144.22
743.30	2236.38
743.48	2301.92
743.66	2195.42
743.84	2289.63
744.02	2228.19
744.20	2211.81
744.38	2187.23
744.56	2150.37
744.74	2334.68
744.92	2250.72
745.10	2406.36
745.28	2281.44
745.46	2475.99
745.64	2172.89
745.82	2344.92
746.00	2164.70
746.18	2338.78
746.36	2195.42
746.54	2283.49
746.72	2201.57
746.90	2156.51
747.08	2410.46
747.26	2250.72
747.44	2359.26
747.62	2332.64
747.80	2283.49
747.98	2310.11
748.15	2228.19
748.33	2473.95
748.51	2303.96
748.69	2310.11
748.87	2170.85
749.05	2281.44
749.23	2265.05
749.41	2258.91
749.59	2230.24
749.77	2334.68
749.95	2265.05
750.13	2174.94
750.31	2250.72
750.49	2236.38
750.67	2394.08
750.85	2340.83
751.03	2273.25
751.20	2498.52
751.38	2197.47
751.56	2230.24
751.74	2232.29
751.92	2293.72
752.10	2101.22
752.28	2334.68
752.46	2133.98
752.64	2258.91
752.82	2273.25
753.00	2432.99
753.18	2213.85
753.35	2281.44
753.53	2279.39
753.71	2203.61
753.89	2211.81
754.07	2240.48
754.25	2326.49
754.43	2281.44
754.61	2125.79
754.79	2252.77
754.97	2226.14
755.14	2344.92
755.32	2211.81
755.50	2265.05
755.68	2324.44
755.86	2183.13
756.04	2269.15
756.22	2090.98
756.40	2287.58
756.57	2449.37
756.75	2211.81
756.93	2349.02
757.11	2365.40
757.29	2162.66
757.47	2183.13
757.65	2101.22
757.82	2027.49
758.00	2121.70
758.18	2205.66
758.36	2232.29
758.54	2519.00
758.72	2115.55
758.90	2371.55
759.07	2265.05
759.25	2183.13
759.43	2375.64
759.61	2101.22
759.79	3112.91
759.97	2334.68
760.15	2242.53
760.32	2179.04
760.50	2226.14
760.68	2398.17
760.86	2107.36
761.04	2373.60
761.22	2349.02
761.39	2211.81
761.57	2324.44
761.75	2217.95
761.93	2301.92
762.11	2222.05
762.28	2185.18
762.46	2107.36
762.64	2359.26
762.82	2156.51
763.00	2293.72
763.18	2367.45
763.35	2176.99
763.53	2248.67
763.71	2265.05
763.89	2258.91
764.07	2234.33
764.24	2240.48
764.42	2295.77
764.60	2156.51
764.78	2236.38
764.96	2269.15
765.13	2312.16
765.31	2293.72
765.49	2293.72
765.67	2127.84
765.84	2146.27
766.02	2099.17
766.20	2131.94
766.38	2342.88
766.56	2359.26
766.73	2260.96
766.91	2318.30
767.09	2197.47
767.27	2250.72
767.44	2170.85
767.62	2240.48
767.80	2256.86
767.98	2211.81
768.15	2215.90
768.33	2277.34
768.51	2357.21
768.69	2338.78
768.87	2246.62
769.04	2260.96
769.22	2494.43
769.40	2428.89
769.58	2455.51
769.75	2346.97
769.93	2340.83
770.11	2265.05
770.28	2099.17
770.46	2349.02
770.64	2252.77
770.82	2193.37
770.99	2248.67
771.17	2283.49
771.35	2234.33
771.53	2201.57
771.70	2220.00
771.88	2334.68
772.06	2228.19
772.23	2232.29
772.41	2267.10
772.59	2213.85
772.77	2170.85
772.94	2193.37
773.12	2289.63
773.30	2176.99
773.47	2289.63
773.65	2150.37
773.83	2328.54
774.01	2195.42
774.18	2070.50
774.36	2209.76
774.54	2152.42
774.71	2303.96
774.89	2082.78
775.07	2174.94
775.24	2133.98
775.42	2211.81
775.60	2469.85
775.78	2203.61
775.95	2193.37
776.13	2148.32
776.31	2142.18
776.48	2269.15
776.66	2320.35
776.84	2217.95
777.01	2172.89
777.19	2197.47
777.37	2172.89
777.54	2385.88
777.72	2408.41
777.90	2306.01
778.07	2129.89
778.25	2609.11
778.43	2396.12
778.60	2265.05
778.78	2320.35
778.96	2342.88
779.13	2099.17
779.31	2248.67
779.49	2195.42
779.66	2285.53
779.84	2265.05
780.01	2230.24
780.19	2133.98
780.37	2437.08
780.54	2271.20
780.72	2146.27
780.90	2170.85
781.07	2250.72
781.25	2203.61
781.43	2359.26
781.60	2197.47
781.78	2338.78
781.95	2293.72
782.13	2183.13
782.31	2205.66
782.48	2027.49
782.66	2273.25
782.83	2445.27
783.01	2269.15
783.19	2303.96
783.36	2265.05
783.54	2136.03
783.72	2324.44
783.89	2193.37
784.07	2310.11
784.24	2408.41
784.42	2351.07
784.60	2279.39
784.77	2275.29
784.95	2088.93
785.12	2277.34
785.30	2240.48
785.47	2162.66
785.65	2172.89
785.83	2265.05
786.00	2213.85
786.18	2248.67
786.35	2181.09
786.53	2191.33
786.71	2435.03
786.88	2316.25
787.06	2271.20
787.23	2207.71
787.41	2174.94
787.58	2207.71
787.76	2207.71
787.94	2265.05
788.11	2324.44
788.29	2168.80
788.46	2099.17
788.64	2129.89
788.81	2248.67
788.99	2158.56
789.16	2148.32
789.34	2232.29
789.52	2244.57
789.69	2215.90
789.87	2109.41
790.04	2260.96
790.22	2277.34
790.39	2463.71
790.57	2148.32
790.74	2195.42
790.92	2379.74
791.09	2088.93
791.27	2285.53
791.44	2389.98
791.62	2158.56
791.79	2340.83
791.97	2158.56
792.15	2525.15
792.32	2269.15
792.50	2359.26
792.67	2359.26
792.85	2349.02
793.02	2326.49
793.20	2181.09
793.37	2097.12
793.55	2136.03
793.72	2127.84
793.90	2318.30
794.07	2068.45
794.25	2170.85
794.42	2252.77
794.60	2250.72
794.77	2258.91
794.95	2269.15
795.12	2334.68
795.30	2220.00
795.47	2074.59
795.65	2453.47
795.82	2316.25
796.00	2156.51
796.17	2226.14
796.34	2125.79
796.52	2224.09
796.69	2328.54
796.87	2291.68
797.04	2265.05
797.22	2299.87
797.39	2312.16
797.57	2299.87
797.74	2301.92
797.92	2275.29
798.09	2123.74
798.27	2342.88
798.44	2232.29
798.62	2179.04
798.79	2320.35
798.96	2217.95
799.14	2230.24
799.31	2519.00
799.49	2215.90
799.66	2211.81
799.84	2226.14
800.01	2156.51
800.19	2299.87
800.36	2129.89
800.53	2277.34
800.71	2267.10
800.88	2396.12
801.06	2176.99
801.23	2176.99
801.41	2228.19
801.58	2148.32
801.75	2150.37
801.93	2260.96
802.10	2267.10
802.28	2193.37
802.45	2195.42
802.63	2369.50
802.80	2363.36
802.97	2187.23
803.15	2324.44
803.32	2213.85
803.50	2111.46
803.67	2246.62
803.84	2133.98
804.02	2215.90
804.19	2252.77
804.37	2033.63
804.54	2174.94
804.71	2236.38
804.89	2179.04
805.06	2115.55
805.24	2146.27
805.41	2152.42
805.58	2220.00
805.76	2404.32
805.93	2263.01
806.10	2328.54
806.28	2340.83
806.45	2234.33
806.63	2295.77
806.80	2283.49
806.97	2269.15
807.15	2234.33
807.32	2236.38
807.49	2267.10
807.67	2158.56
807.84	2351.07
808.01	2080.74
808.19	2469.85
808.36	2490.33
808.54	2236.38
808.71	2244.57
808.88	2215.90
809.06	2336.73
809.23	2359.26
809.40	2193.37
809.58	2394.08
809.75	2209.76
809.92	2136.03
810.10	2449.37
810.27	2232.29
810.44	2281.44
810.62	2326.49
810.79	2324.44
810.96	2183.13
811.14	2248.67
811.31	2252.77
811.48	2297.82
811.66	2273.25
811.83	2367.45
812.00	2336.73
812.18	2244.57
812.35	2432.99
812.52	2260.96
812.69	2248.67
812.87	2133.98
813.04	2189.28
813.21	2207.71
813.39	2301.92
813.56	2193.37
813.73	2349.02
813.91	2125.79
814.08	2349.02
814.25	2240.48
814.42	2170.85
814.60	2209.76
814.77	2297.82
814.94	2234.33
815.12	2238.43
815.29	2447.32
815.46	2207.71
815.63	2291.68
815.81	2158.56
815.98	2228.19
816.15	2283.49
816.33	2277.34
816.50	2289.63
816.67	2185.18
816.84	2220.00
817.02	2127.84
817.19	2217.95
817.36	2316.25
817.53	2234.33
817.71	2181.09
817.88	2328.54
818.05	2269.15
818.22	2244.57
818.40	2389.98
818.57	2152.42
818.74	2244.57
818.91	2250.72
819.09	2316.25
819.26	2392.03
819.43	2244.57
819.60	2148.32
819.78	2248.67
819.95	2338.78
820.12	2072.54
820.29	2369.50
820.47	2359.26
820.64	2244.57
820.81	2193.37
820.98	2127.84
821.15	2183.13
821.33	2334.68
821.50	2121.70
821.67	2252.77
821.84	2246.62
822.02	2222.05
822.19	2324.44
822.36	2205.66
822.53	2279.39
822.70	2215.90
822.88	2224.09
823.05	2396.12
823.22	2242.53
823.39	2256.86
823.56	2252.77
823.74	2410.46
823.91	2201.57
824.08	2127.84
824.25	2146.27
824.42	2412.51
824.60	2101.22
824.77	2322.40
824.94	2207.71
825.11	2236.38
825.28	2113.50
825.45	2273.25
825.63	2283.49
825.80	2176.99
825.97	2377.69
826.14	2293.72
826.31	2117.60
826.48	2289.63
826.66	2125.79
826.83	2176.99
827.00	2215.90
827.17	2187.23
827.34	2220.00
827.51	2185.18
827.69	2236.38
827.86	2123.74
828.03	2314.20
828.20	2316.25
828.37	2187.23
828.54	2265.05
828.71	2129.89
828.89	2351.07
829.06	2252.77
829.23	2283.49
829.40	2152.42
829.57	2269.15
829.74	2291.68
829.91	2197.47
830.09	2086.88
830.26	2312.16
830.43	2392.03
830.60	2254.81
830.77	2277.34
830.94	2338.78
831.11	2334.68
831.28	2275.29
831.46	2363.36
831.63	2187.23
831.80	2422.75
831.97	2080.74
832.14	2189.28
832.31	2293.72
832.48	2234.33
832.65	2373.60
832.82	2312.16
832.99	2316.25
833.17	2146.27
833.34	2387.93
833.51	2234.33
833.68	2080.74
833.85	2244.57
834.02	2250.72
834.19	2086.88
834.36	2209.76
834.53	2275.29
834.70	2322.40
834.87	2310.11
835.04	2150.37
835.22	2183.13
835.39	2111.46
835.56	2011.11
835.73	2236.38
835.90	2351.07
836.07	2185.18
836.24	2371.55
836.41	2117.60
836.58	2162.66
836.75	2316.25
836.92	2242.53
837.09	2226.14
837.26	2375.64
837.43	2228.19
837.60	2230.24
837.77	2144.22
837.94	2308.06
838.12	2469.85
838.29	2191.33
838.46	2152.42
838.63	2166.75
838.80	2375.64
838.97	2326.49
839.14	2220.00
839.31	2326.49
839.48	2320.35
839.65	2232.29
839.82	2287.58
839.99	2306.01
840.16	2275.29
840.33	2086.88
840.50	2164.70
840.67	2185.18
840.84	2062.30
841.01	2209.76
841.18	2099.17
841.35	2248.67
841.52	2265.05
841.69	2398.17
841.86	2252.77
842.03	2224.09
842.20	2308.06
842.37	2271.20
842.54	2283.49
842.71	2211.81
842.88	2133.98
843.05	2183.13
843.22	2211.81
843.39	2367.45
843.56	2176.99
843.73	2183.13
843.90	2244.57
844.07	2293.72
844.24	2392.03
844.41	2303.96
844.58	2222.05
844.75	2254.81
844.92	2275.29
845.09	2154.46
845.26	2133.98
845.43	2316.25
845.60	2187.23
845.77	2314.20
845.94	2258.91
846.10	2422.75
846.27	2115.55
846.44	2150.37
846.61	2113.50
846.78	2301.92
846.95	2346.97
847.12	2150.37
847.29	2144.22
847.46	2240.48
847.63	2357.21
847.80	2072.54
847.97	2209.76
848.14	2459.61
848.31	2201.57
848.48	2125.79
848.65	2250.72
848.82	2095.07
848.98	2498.52
849.15	2277.34
849.32	2330.59
849.49	2357.21
849.66	2162.66
849.83	2185.18
850.00	2207.71
850.17	2277.34
850.34	2236.38
850.51	2101.22
850.68	2197.47
850.85	2463.71
851.01	2273.25
851.18	2179.04
851.35	2183.13
851.52	2293.72
851.69	2373.60
851.86	2095.07
852.03	2240.48
852.20	2326.49
852.37	2185.18
852.53	2076.64
852.70	2213.85
852.87	2252.77
853.04	2400.22
853.21	2263.01
853.38	2314.20
853.55	2439.13
853.72	2377.69
853.89	2201.57
854.05	2258.91
854.22	2195.42
854.39	2189.28
854.56	2246.62
854.73	2330.59
854.90	2193.37
855.07	2246.62
855.23	2138.08
855.40	2193.37
855.57	2267.10
855.74	2101.22
855.91	2340.83
856.08	2097.12
856.25	2086.88
856.41	2170.85
856.58	2191.33
856.75	2209.76
856.92	2103.26
857.09	2371.55
857.26	2125.79
857.42	2191.33
857.59	2361.31
857.76	2199.52
857.93	2240.48
858.10	2260.96
858.27	2086.88
858.43	2308.06
858.60	2191.33
858.77	2123.74
858.94	2267.10
859.11	2385.88
859.27	2224.09
859.44	2160.61
859.61	2400.22
859.78	2328.54
859.95	2203.61
860.12	2215.90
860.28	2430.94
860.45	2432.99
860.62	2127.84
860.79	2250.72
860.95	2187.23
861.12	2176.99
861.29	2176.99
861.46	2183.13
861.63	2269.15
861.79	2289.63
861.96	2125.79
862.13	2125.79
862.30	2392.03
862.47	2111.46
862.63	2152.42
862.80	2203.61
862.97	2473.95
863.14	2260.96
863.30	2166.75
863.47	2144.22
863.64	2355.16
863.81	2293.72
863.97	2232.29
864.14	2207.71
864.31	2209.76
864.48	2228.19
864.65	2228.19
864.81	2310.11
864.98	2301.92
865.15	2322.40
865.32	2265.05
865.48	2293.72
865.65	2342.88
865.82	2226.14
865.98	2269.15
866.15	2277.34
866.32	2201.57
866.49	2148.32
866.65	2301.92
866.82	2160.61
866.99	2213.85
867.16	2228.19
867.32	2191.33
867.49	2168.80
867.66	2244.57
867.83	2199.52
867.99	2113.50
868.16	2197.47
868.33	2226.14
868.49	2230.24
868.66	2176.99
868.83	2269.15
868.99	2281.44
869.16	2310.11
869.33	2406.36
869.50	2240.48
869.66	2228.19
869.83	2170.85
870.00	2140.13
870.16	2267.10
870.33	2207.71
870.50	2326.49
870.66	2209.76
870.83	2310.11
871.00	2275.29
871.17	2365.40
871.33	2260.96
871.50	2254.81
871.67	2301.92
871.83	2213.85
872.00	2326.49
872.17	2220.00
872.33	2508.76
872.50	2334.68
872.67	2234.33
872.83	2181.09
873.00	2193.37
873.17	2232.29
873.33	2273.25
873.50	2326.49
873.67	2129.89
873.83	2133.98
874.00	2258.91
874.16	2342.88
874.33	2244.57
874.50	2117.60
874.66	2215.90
874.83	2199.52
875.00	2406.36
875.16	2332.64
875.33	2285.53
875.50	2078.69
875.66	2205.66
875.83	2283.49
875.99	2275.29
876.16	2232.29
876.33	2170.85
876.49	2140.13
876.66	2191.33
876.83	2131.94
876.99	2121.70
877.16	2236.38
877.32	2144.22
877.49	2195.42
877.66	2336.73
877.82	2328.54
877.99	2301.92
878.15	2320.35
878.32	2265.05
878.49	2314.20
878.65	2234.33
878.82	2357.21
878.98	2166.75
879.15	2389.98
879.32	2340.83
879.48	2260.96
879.65	2228.19
879.81	2172.89
879.98	2152.42
880.15	2176.99
880.31	2269.15
880.48	2119.65
880.64	2279.39
880.81	2320.35
880.97	2308.06
881.14	2412.51
881.31	2131.94
881.47	2389.98
881.64	2228.19
881.80	2101.22
881.97	2271.20
882.13	2254.81
882.30	2181.09
882.47	2146.27
882.63	2166.75
882.80	2105.31
882.96	2269.15
883.13	2330.59
883.29	2146.27
883.46	2207.71
883.62	2439.13
883.79	2256.86
883.95	2287.58
884.12	2224.09
884.29	2373.60
884.45	2269.15
884.62	2263.01
884.78	2193.37
884.95	2424.80
885.11	2131.94
885.28	2295.77
885.44	2160.61
885.61	2322.40
885.77	2465.75
885.94	2226.14
886.10	2267.10
886.27	2234.33
886.43	2367.45
886.60	2279.39
886.76	2160.61
886.93	2138.08
887.09	2287.58
887.26	2150.37
887.42	2168.80
887.59	2283.49
887.75	2498.52
887.92	2322.40
888.08	2256.86
888.25	2389.98
888.41	2301.92
888.58	2297.82
888.74	2133.98
888.91	2203.61
>>>>>End Processed Spectral Data<<<<<
