SpectraSuite Data File
++++++++++++++++++++++++++++++++++++
Date: Thu May 05 13:20:46 CEST 2016
User: root
Dark Spectrum Present: No
Reference Spectrum Present: No
Number of Sampled Component Spectra: 1
Spectrometers: USB4C02835
Integration Time (usec): 100000 (USB4C02835)
Spectra Averaged: 1 (USB4C02835)
Boxcar Smoothing: 0 (USB4C02835)
Correct for Electrical Dark: No (USB4C02835)
Strobe/Lamp Enabled: No (USB4C02835)
Correct for Detector Non-linearity: No (USB4C02835)
Correct for Stray Light: No (USB4C02835)
Number of Pixels in Processed Spectrum: 3648
>>>>>Begin Processed Spectral Data<<<<<
177.47	1785.83
177.69	1785.83
177.91	1785.83
178.13	1837.03
178.36	1757.16
178.58	2209.76
178.80	2258.91
179.02	2125.79
179.24	2084.83
179.46	2181.09
179.68	2203.61
179.90	2226.14
180.13	2234.33
180.35	2056.16
180.57	2123.74
180.79	2260.96
181.01	2203.61
181.23	2310.11
181.45	2355.16
181.67	2242.53
181.90	2254.81
182.12	2166.75
182.34	2070.50
182.56	2287.58
182.78	2301.92
183.00	2103.26
183.22	2189.28
183.44	2095.07
183.66	2490.33
183.89	2326.49
184.11	2168.80
184.33	2291.68
184.55	2316.25
184.77	2222.05
184.99	2172.89
185.21	2310.11
185.43	2510.81
185.65	2150.37
185.87	2199.52
186.10	2484.19
186.32	2510.81
186.54	2310.11
186.76	2224.09
186.98	2338.78
187.20	2275.29
187.42	2095.07
187.64	2158.56
187.86	2289.63
188.08	2248.67
188.30	2217.95
188.52	2183.13
188.75	2324.44
188.97	2375.64
189.19	2140.13
189.41	2174.94
189.63	2316.25
189.85	2297.82
190.07	2117.60
190.29	2015.20
190.51	2318.30
190.73	2176.99
190.95	2283.49
191.17	2211.81
191.39	2082.78
191.61	2211.81
191.84	2154.46
192.06	2277.34
192.28	2144.22
192.50	2545.63
192.72	2224.09
192.94	2209.76
193.16	2351.07
193.38	2291.68
193.60	2142.18
193.82	2236.38
194.04	2355.16
194.26	2248.67
194.48	2228.19
194.70	2234.33
194.92	2230.24
195.14	2277.34
195.36	2129.89
195.58	2250.72
195.80	2176.99
196.02	2193.37
196.24	2131.94
196.46	2250.72
196.69	2176.99
196.91	2457.56
197.13	2162.66
197.35	2193.37
197.57	2424.80
197.79	2263.01
198.01	2224.09
198.23	2256.86
198.45	2301.92
198.67	2115.55
198.89	2064.35
199.11	2279.39
199.33	2160.61
199.55	2080.74
199.77	2119.65
199.99	2179.04
200.21	2172.89
200.43	2301.92
200.65	2097.12
200.87	2070.50
201.09	2226.14
201.31	2232.29
201.53	2246.62
201.75	2213.85
201.97	2293.72
202.19	2244.57
202.41	2287.58
202.63	2244.57
202.85	2260.96
203.07	2308.06
203.29	2217.95
203.51	2109.41
203.73	2119.65
203.95	2564.06
204.17	2113.50
204.39	2291.68
204.61	2209.76
204.83	2228.19
205.05	2224.09
205.27	2187.23
205.49	2488.28
205.71	2224.09
205.93	2088.93
206.15	2109.41
206.37	2244.57
206.59	2250.72
206.81	2125.79
207.03	2131.94
207.25	2164.70
207.47	2387.93
207.69	2211.81
207.91	2346.97
208.13	2367.45
208.34	2291.68
208.56	2097.12
208.78	2201.57
209.00	2287.58
209.22	2222.05
209.44	2125.79
209.66	2129.89
209.88	2277.34
210.10	2240.48
210.32	2113.50
210.54	2258.91
210.76	2211.81
210.98	2340.83
211.20	1984.48
211.42	2222.05
211.64	2344.92
211.86	2340.83
212.08	2179.04
212.30	2181.09
212.52	2211.81
212.74	2258.91
212.96	2201.57
213.17	2228.19
213.39	2389.98
213.61	2457.56
213.83	2179.04
214.05	2211.81
214.27	2400.22
214.49	2125.79
214.71	2039.78
214.93	2318.30
215.15	2183.13
215.37	2265.05
215.59	2095.07
215.81	2232.29
216.03	2379.74
216.24	2189.28
216.46	2183.13
216.68	2166.75
216.90	2273.25
217.12	2342.88
217.34	2121.70
217.56	2189.28
217.78	2412.51
218.00	2238.43
218.22	2181.09
218.44	2246.62
218.66	2250.72
218.87	2508.76
219.09	2129.89
219.31	2217.95
219.53	2291.68
219.75	2170.85
219.97	2176.99
220.19	2213.85
220.41	2199.52
220.63	2385.88
220.85	2234.33
221.06	2222.05
221.28	2459.61
221.50	2285.53
221.72	2244.57
221.94	2103.26
222.16	2246.62
222.38	2357.21
222.60	2234.33
222.82	2189.28
223.03	2355.16
223.25	2179.04
223.47	2248.67
223.69	2420.70
223.91	2299.87
224.13	2238.43
224.35	2064.35
224.57	2265.05
224.78	2258.91
225.00	2146.27
225.22	2273.25
225.44	2150.37
225.66	2330.59
225.88	2289.63
226.10	2246.62
226.32	2170.85
226.53	2424.80
226.75	2226.14
226.97	2252.77
227.19	2199.52
227.41	2156.51
227.63	2168.80
227.85	2004.96
228.06	2209.76
228.28	2295.77
228.50	2377.69
228.72	2150.37
228.94	2154.46
229.16	2097.12
229.37	2086.88
229.59	2101.22
229.81	2250.72
230.03	2162.66
230.25	2174.94
230.47	2068.45
230.69	2064.35
230.90	2371.55
231.12	2164.70
231.34	2205.66
231.56	2277.34
231.78	2140.13
232.00	2224.09
232.21	2215.90
232.43	2172.89
232.65	2041.82
232.87	2361.31
233.09	2107.36
233.30	2111.46
233.52	2349.02
233.74	2250.72
233.96	2113.50
234.18	2285.53
234.40	2287.58
234.61	2488.28
234.83	2090.98
235.05	2113.50
235.27	2457.56
235.49	2400.22
235.70	2119.65
235.92	2265.05
236.14	2355.16
236.36	2494.43
236.58	2080.74
236.79	2228.19
237.01	2279.39
237.23	2215.90
237.45	2320.35
237.67	2203.61
237.88	2287.58
238.10	2551.77
238.32	2168.80
238.54	2168.80
238.76	2303.96
238.97	2152.42
239.19	2123.74
239.41	2308.06
239.63	2310.11
239.85	2224.09
240.06	2176.99
240.28	2203.61
240.50	2244.57
240.72	2228.19
240.93	2187.23
241.15	2189.28
241.37	2201.57
241.59	2349.02
241.81	2236.38
242.02	2136.03
242.24	2277.34
242.46	2334.68
242.68	2103.26
242.89	2179.04
243.11	2252.77
243.33	2299.87
243.55	2199.52
243.76	2289.63
243.98	2150.37
244.20	2187.23
244.42	2220.00
244.64	2193.37
244.85	2158.56
245.07	2222.05
245.29	2258.91
245.51	2166.75
245.72	2275.29
245.94	2408.41
246.16	2195.42
246.38	2244.57
246.59	2086.88
246.81	2152.42
247.03	2119.65
247.24	2082.78
247.46	2179.04
247.68	2205.66
247.90	2162.66
248.11	2211.81
248.33	2383.84
248.55	2252.77
248.77	2205.66
248.98	2256.86
249.20	2422.75
249.42	2316.25
249.64	2228.19
249.85	2170.85
250.07	2244.57
250.29	2275.29
250.50	2277.34
250.72	2121.70
250.94	2260.96
251.16	2457.56
251.37	2205.66
251.59	2246.62
251.81	2344.92
252.02	2408.41
252.24	2154.46
252.46	2275.29
252.68	2265.05
252.89	2193.37
253.11	2047.97
253.33	2394.08
253.54	2404.32
253.76	2113.50
253.98	2189.28
254.20	2129.89
254.41	2109.41
254.63	2170.85
254.85	2152.42
255.06	2195.42
255.28	2318.30
255.50	2322.40
255.71	2078.69
255.93	2113.50
256.15	2242.53
256.36	2291.68
256.58	2125.79
256.80	2187.23
257.02	2240.48
257.23	2217.95
257.45	2121.70
257.67	2189.28
257.88	2183.13
258.10	2240.48
258.32	2234.33
258.53	2181.09
258.75	2373.60
258.97	2226.14
259.18	2168.80
259.40	2183.13
259.62	2430.94
259.83	2404.32
260.05	2269.15
260.27	2654.17
260.48	2318.30
260.70	2160.61
260.92	2113.50
261.13	2181.09
261.35	2258.91
261.57	2240.48
261.78	2158.56
262.00	2162.66
262.22	2340.83
262.43	2154.46
262.65	2146.27
262.86	2166.75
263.08	2478.04
263.30	2195.42
263.51	2047.97
263.73	2220.00
263.95	2367.45
264.16	2039.78
264.38	2105.31
264.60	2166.75
264.81	2306.01
265.03	2398.17
265.25	2342.88
265.46	2136.03
265.68	2461.66
265.89	2281.44
266.11	2166.75
266.33	2197.47
266.54	2351.07
266.76	2279.39
266.98	2269.15
267.19	2299.87
267.41	2334.68
267.62	2183.13
267.84	2138.08
268.06	2359.26
268.27	2314.20
268.49	2381.79
268.70	2267.10
268.92	2197.47
269.14	2168.80
269.35	2131.94
269.57	2211.81
269.79	2217.95
270.00	2193.37
270.22	2367.45
270.43	2152.42
270.65	2068.45
270.87	2324.44
271.08	2351.07
271.30	2242.53
271.51	2179.04
271.73	2324.44
271.95	2445.27
272.16	2162.66
272.38	2242.53
272.59	2220.00
272.81	2361.31
273.02	2193.37
273.24	2183.13
273.46	2365.40
273.67	2170.85
273.89	2136.03
274.10	2117.60
274.32	2240.48
274.54	2254.81
274.75	2220.00
274.97	2181.09
275.18	2256.86
275.40	2263.01
275.61	2179.04
275.83	2236.38
276.05	2150.37
276.26	2252.77
276.48	2240.48
276.69	2176.99
276.91	2252.77
277.12	2355.16
277.34	2269.15
277.55	2322.40
277.77	2291.68
277.99	2226.14
278.20	2129.89
278.42	2109.41
278.63	2244.57
278.85	2242.53
279.06	2105.31
279.28	2224.09
279.49	2283.49
279.71	2332.64
279.93	2273.25
280.14	2187.23
280.36	2193.37
280.57	2375.64
280.79	2336.73
281.00	2093.02
281.22	2158.56
281.43	2400.22
281.65	2068.45
281.86	2158.56
282.08	2269.15
282.29	2410.46
282.51	2154.46
282.73	2146.27
282.94	2138.08
283.16	2316.25
283.37	2334.68
283.59	2248.67
283.80	2232.29
284.02	2193.37
284.23	2289.63
284.45	2291.68
284.66	2269.15
284.88	2144.22
285.09	2207.71
285.31	2344.92
285.52	2295.77
285.74	2080.74
285.95	2377.69
286.17	2265.05
286.38	2367.45
286.60	2170.85
286.81	2234.33
287.03	2174.94
287.24	2152.42
287.46	2344.92
287.67	2260.96
287.89	2392.03
288.10	2252.77
288.32	2308.06
288.53	2285.53
288.75	2244.57
288.96	2269.15
289.18	2211.81
289.39	2170.85
289.61	2297.82
289.82	2461.66
290.04	2400.22
290.25	2129.89
290.47	2226.14
290.68	2273.25
290.90	2387.93
291.11	2103.26
291.33	2244.57
291.54	2095.07
291.76	2150.37
291.97	2215.90
292.18	2240.48
292.40	2230.24
292.61	2101.22
292.83	2439.13
293.04	2371.55
293.26	2271.20
293.47	2203.61
293.69	2162.66
293.90	2201.57
294.12	2318.30
294.33	2203.61
294.55	2154.46
294.76	2285.53
294.97	2400.22
295.19	2463.71
295.40	2252.77
295.62	2179.04
295.83	2291.68
296.05	2146.27
296.26	2342.88
296.48	2127.84
296.69	2238.43
296.90	2209.76
297.12	2291.68
297.33	2353.12
297.55	2220.00
297.76	2293.72
297.98	2271.20
298.19	2293.72
298.41	2242.53
298.62	2166.75
298.83	2344.92
299.05	2224.09
299.26	2242.53
299.48	2156.51
299.69	2244.57
299.90	2220.00
300.12	2113.50
300.33	2299.87
300.55	2269.15
300.76	2215.90
300.98	2144.22
301.19	2353.12
301.40	2154.46
301.62	2162.66
301.83	2260.96
302.05	2203.61
302.26	2203.61
302.47	2301.92
302.69	2160.61
302.90	2215.90
303.12	2060.26
303.33	2269.15
303.54	2437.08
303.76	2224.09
303.97	2265.05
304.19	2377.69
304.40	2201.57
304.61	2260.96
304.83	2387.93
305.04	2318.30
305.26	2349.02
305.47	2211.81
305.68	2246.62
305.90	2211.81
306.11	2441.18
306.33	2187.23
306.54	2236.38
306.75	2215.90
306.97	2152.42
307.18	2154.46
307.39	2189.28
307.61	2334.68
307.82	2224.09
308.04	2263.01
308.25	2162.66
308.46	2256.86
308.68	2271.20
308.89	2217.95
309.10	2340.83
309.32	2201.57
309.53	2287.58
309.74	2254.81
309.96	2263.01
310.17	2310.11
310.39	2162.66
310.60	2320.35
310.81	2289.63
311.03	2142.18
311.24	2363.36
311.45	2244.57
311.67	2344.92
311.88	2242.53
312.09	2181.09
312.31	2234.33
312.52	2201.57
312.73	2248.67
312.95	2088.93
313.16	2209.76
313.37	2334.68
313.59	2338.78
313.80	2349.02
314.01	2349.02
314.23	2279.39
314.44	2166.75
314.65	2121.70
314.87	2211.81
315.08	2154.46
315.29	2183.13
315.51	2152.42
315.72	2099.17
315.93	2385.88
316.15	2267.10
316.36	2179.04
316.57	2271.20
316.79	2291.68
317.00	2131.94
317.21	2217.95
317.43	2222.05
317.64	2220.00
317.85	2174.94
318.07	2226.14
318.28	2207.71
318.49	2346.97
318.70	2461.66
318.92	2428.89
319.13	2424.80
319.34	2426.84
319.56	2314.20
319.77	2314.20
319.98	2379.74
320.20	2349.02
320.41	2308.06
320.62	2377.69
320.83	2166.75
321.05	2385.88
321.26	2248.67
321.47	2234.33
321.69	2453.47
321.90	2121.70
322.11	2154.46
322.32	2213.85
322.54	2363.36
322.75	2162.66
322.96	2508.76
323.18	2131.94
323.39	2127.84
323.60	2213.85
323.81	2375.64
324.03	2187.23
324.24	2203.61
324.45	2281.44
324.66	2193.37
324.88	2398.17
325.09	2394.08
325.30	2265.05
325.52	2201.57
325.73	2367.45
325.94	2156.51
326.15	2121.70
326.37	2195.42
326.58	2330.59
326.79	2355.16
327.00	2166.75
327.22	2283.49
327.43	2226.14
327.64	2191.33
327.85	2283.49
328.07	2234.33
328.28	2461.66
328.49	2232.29
328.70	2244.57
328.92	2215.90
329.13	2195.42
329.34	2383.84
329.55	2334.68
329.76	2242.53
329.98	2344.92
330.19	2363.36
330.40	2256.86
330.61	2277.34
330.83	2312.16
331.04	2099.17
331.25	2295.77
331.46	2224.09
331.68	2156.51
331.89	2414.56
332.10	2275.29
332.31	2047.97
332.52	2275.29
332.74	2412.51
332.95	2086.88
333.16	2166.75
333.37	2349.02
333.58	2156.51
333.80	2256.86
334.01	2080.74
334.22	2166.75
334.43	2252.77
334.64	2162.66
334.86	2170.85
335.07	2109.41
335.28	2426.84
335.49	2107.36
335.70	2314.20
335.92	2453.47
336.13	2514.91
336.34	2310.11
336.55	2308.06
336.76	2306.01
336.98	2066.40
337.19	2220.00
337.40	2367.45
337.61	2469.85
337.82	2250.72
338.04	2275.29
338.25	2103.26
338.46	2197.47
338.67	2310.11
338.88	2154.46
339.09	2152.42
339.31	2201.57
339.52	2144.22
339.73	2097.12
339.94	2170.85
340.15	2322.40
340.36	2170.85
340.58	2187.23
340.79	2168.80
341.00	2277.34
341.21	2181.09
341.42	2383.84
341.63	2209.76
341.85	2328.54
342.06	2289.63
342.27	2195.42
342.48	2351.07
342.69	2099.17
342.90	2314.20
343.12	2363.36
343.33	2193.37
343.54	2314.20
343.75	2469.85
343.96	2287.58
344.17	2162.66
344.38	2226.14
344.60	2174.94
344.81	2121.70
345.02	2220.00
345.23	2324.44
345.44	2486.23
345.65	2349.02
345.86	2256.86
346.07	2269.15
346.29	2232.29
346.50	2273.25
346.71	2265.05
346.92	2387.93
347.13	2496.47
347.34	2250.72
347.55	2187.23
347.76	2238.43
347.98	2035.68
348.19	2209.76
348.40	2402.27
348.61	2349.02
348.82	2441.18
349.03	2277.34
349.24	2117.60
349.45	2428.89
349.66	2004.96
349.88	2269.15
350.09	2160.61
350.30	2383.84
350.51	2424.80
350.72	2285.53
350.93	2338.78
351.14	2215.90
351.35	2340.83
351.56	2281.44
351.77	2187.23
351.99	2287.58
352.20	2392.03
352.41	2287.58
352.62	2095.07
352.83	2277.34
353.04	2228.19
353.25	2191.33
353.46	2277.34
353.67	2322.40
353.88	2074.59
354.09	2342.88
354.30	2275.29
354.52	2351.07
354.73	2160.61
354.94	2201.57
355.15	2256.86
355.36	2447.32
355.57	2172.89
355.78	2160.61
355.99	2193.37
356.20	2179.04
356.41	2365.40
356.62	2263.01
356.83	2201.57
357.04	2387.93
357.25	2136.03
357.46	2299.87
357.68	2113.50
357.89	2179.04
358.10	2275.29
358.31	2226.14
358.52	2275.29
358.73	2127.84
358.94	2133.98
359.15	2123.74
359.36	2320.35
359.57	2236.38
359.78	2179.04
359.99	2310.11
360.20	2082.78
360.41	2146.27
360.62	2312.16
360.83	2213.85
361.04	2209.76
361.25	2279.39
361.46	2441.18
361.67	2293.72
361.88	2248.67
362.09	2351.07
362.30	2283.49
362.51	2195.42
362.72	2230.24
362.93	2318.30
363.14	2248.67
363.35	2271.20
363.56	2142.18
363.78	2406.36
363.99	2357.21
364.20	2111.46
364.41	2226.14
364.62	2496.47
364.83	2297.82
365.04	2252.77
365.25	2246.62
365.46	2449.37
365.67	2156.51
365.88	2273.25
366.09	2203.61
366.30	2244.57
366.51	2236.38
366.72	2101.22
366.93	2256.86
367.14	2332.64
367.35	2379.74
367.56	2183.13
367.77	2318.30
367.98	2217.95
368.18	2346.97
368.39	2277.34
368.60	2179.04
368.81	2322.40
369.02	2289.63
369.23	2217.95
369.44	2060.26
369.65	2213.85
369.86	2209.76
370.07	2392.03
370.28	2162.66
370.49	2299.87
370.70	2306.01
370.91	2234.33
371.12	2064.35
371.33	2398.17
371.54	2226.14
371.75	2365.40
371.96	2072.54
372.17	2326.49
372.38	2228.19
372.59	2279.39
372.80	2154.46
373.01	2244.57
373.22	2285.53
373.43	2201.57
373.64	2070.50
373.85	2455.51
374.06	2465.75
374.26	2355.16
374.47	2207.71
374.68	2447.32
374.89	2324.44
375.10	2172.89
375.31	2248.67
375.52	2258.91
375.73	2228.19
375.94	2181.09
376.15	2363.36
376.36	2228.19
376.57	2252.77
376.78	2185.18
376.99	2273.25
377.20	2365.40
377.40	2209.76
377.61	2349.02
377.82	2160.61
378.03	2408.41
378.24	2349.02
378.45	2252.77
378.66	2318.30
378.87	2148.32
379.08	2140.13
379.29	2209.76
379.50	2340.83
379.71	2250.72
379.91	2349.02
380.12	2215.90
380.33	2306.01
380.54	2176.99
380.75	2285.53
380.96	2189.28
381.17	2326.49
381.38	2254.81
381.59	2344.92
381.80	2220.00
382.00	2396.12
382.21	2287.58
382.42	2461.66
382.63	2506.71
382.84	2228.19
383.05	2351.07
383.26	2461.66
383.47	2357.21
383.68	2291.68
383.88	2318.30
384.09	2346.97
384.30	2412.51
384.51	2328.54
384.72	2199.52
384.93	2136.03
385.14	2203.61
385.35	2351.07
385.55	2097.12
385.76	2414.56
385.97	2248.67
386.18	2162.66
386.39	2199.52
386.60	2273.25
386.81	2162.66
387.02	2185.18
387.22	2160.61
387.43	2392.03
387.64	2402.27
387.85	2467.80
388.06	2496.47
388.27	4134.85
388.48	8302.47
388.68	11839.31
388.89	14184.23
389.10	15283.99
389.31	14067.50
389.52	11095.89
389.73	9475.95
389.93	8728.44
390.14	8077.19
390.35	7126.93
390.56	6352.80
390.77	5175.22
390.98	4063.17
391.18	3233.74
391.39	2775.00
391.60	2375.64
391.81	2471.90
392.02	2238.43
392.23	2439.13
392.43	2258.91
392.64	2439.13
392.85	2287.58
393.06	2449.37
393.27	2236.38
393.47	2179.04
393.68	2217.95
393.89	2213.85
394.10	2398.17
394.31	2179.04
394.52	2185.18
394.72	2252.77
394.93	2453.47
395.14	2095.07
395.35	2295.77
395.56	2222.05
395.76	2301.92
395.97	2326.49
396.18	2426.84
396.39	2379.74
396.60	2738.13
396.80	2475.99
397.01	2349.02
397.22	2412.51
397.43	2435.03
397.64	2179.04
397.84	2375.64
398.05	2486.23
398.26	2310.11
398.47	2322.40
398.67	2377.69
398.88	2236.38
399.09	2332.64
399.30	2267.10
399.51	2328.54
399.71	2203.61
399.92	2228.19
400.13	2246.62
400.34	2193.37
400.54	2281.44
400.75	2344.92
400.96	2301.92
401.17	2412.51
401.37	2332.64
401.58	2271.20
401.79	2260.96
402.00	2422.75
402.21	2641.88
402.41	2541.53
402.62	2637.78
402.83	2668.50
403.04	2738.13
403.24	2777.05
403.45	2435.03
403.66	2473.95
403.87	2480.09
404.07	2463.71
404.28	2488.28
404.49	2457.56
404.70	2263.01
404.90	2383.84
405.11	2287.58
405.32	2318.30
405.52	2152.42
405.73	2244.57
405.94	2166.75
406.15	2213.85
406.35	2306.01
406.56	2375.64
406.77	2250.72
406.98	2258.91
407.18	2217.95
407.39	2363.36
407.60	2187.23
407.80	2301.92
408.01	2185.18
408.22	2279.39
408.43	2179.04
408.63	2312.16
408.84	2273.25
409.05	2408.41
409.25	2084.83
409.46	2224.09
409.67	2183.13
409.88	2150.37
410.08	2244.57
410.29	2207.71
410.50	2303.96
410.70	2297.82
410.91	2068.45
411.12	2211.81
411.32	2334.68
411.53	2183.13
411.74	2275.29
411.95	2363.36
412.15	2265.05
412.36	2422.75
412.57	2349.02
412.77	2385.88
412.98	2258.91
413.19	2260.96
413.39	2326.49
413.60	2228.19
413.81	2383.84
414.01	2109.41
414.22	2295.77
414.43	2365.40
414.63	2207.71
414.84	2404.32
415.05	2273.25
415.25	2115.55
415.46	2361.31
415.67	2115.55
415.87	2289.63
416.08	2316.25
416.29	2220.00
416.49	2357.21
416.70	2228.19
416.91	2185.18
417.11	2158.56
417.32	2338.78
417.53	2281.44
417.73	2314.20
417.94	2232.29
418.15	2291.68
418.35	2209.76
418.56	2248.67
418.77	2422.75
418.97	2220.00
419.18	2232.29
419.38	2056.16
419.59	2299.87
419.80	2353.12
420.00	2244.57
420.21	2265.05
420.42	2373.60
420.62	2240.48
420.83	2170.85
421.04	2248.67
421.24	2191.33
421.45	2402.27
421.65	2252.77
421.86	2205.66
422.07	2357.21
422.27	2236.38
422.48	2189.28
422.69	2133.98
422.89	2226.14
423.10	2260.96
423.30	2205.66
423.51	2273.25
423.72	2310.11
423.92	2260.96
424.13	2127.84
424.33	2211.81
424.54	2402.27
424.75	2228.19
424.95	2351.07
425.16	2275.29
425.36	2181.09
425.57	2340.83
425.78	2228.19
425.98	2402.27
426.19	2203.61
426.39	2107.36
426.60	2236.38
426.81	2365.40
427.01	2260.96
427.22	2258.91
427.42	2127.84
427.63	2140.13
427.83	2273.25
428.04	2439.13
428.25	2363.36
428.45	2320.35
428.66	2357.21
428.86	2316.25
429.07	2193.37
429.28	2252.77
429.48	2281.44
429.69	2140.13
429.89	2267.10
430.10	2131.94
430.30	2338.78
430.51	2455.51
430.71	2136.03
430.92	2258.91
431.13	2179.04
431.33	2396.12
431.54	2279.39
431.74	2410.46
431.95	2441.18
432.15	2179.04
432.36	2326.49
432.56	2287.58
432.77	2449.37
432.98	2467.80
433.18	2242.53
433.39	2220.00
433.59	2234.33
433.80	2498.52
434.00	2496.47
434.21	2283.49
434.41	2131.94
434.62	2555.86
434.82	2162.66
435.03	2164.70
435.23	2308.06
435.44	2129.89
435.64	2238.43
435.85	2310.11
436.06	2332.64
436.26	2389.98
436.47	2273.25
436.67	2158.56
436.88	2174.94
437.08	2371.55
437.29	2365.40
437.49	2299.87
437.70	2379.74
437.90	2232.29
438.11	2484.19
438.31	2330.59
438.52	2469.85
438.72	2453.47
438.93	2564.06
439.13	2349.02
439.34	2365.40
439.54	2320.35
439.75	2336.73
439.95	2375.64
440.16	2256.86
440.36	2273.25
440.57	2271.20
440.77	2357.21
440.98	2281.44
441.18	2256.86
441.39	2236.38
441.59	2166.75
441.80	2420.70
442.00	2250.72
442.21	2318.30
442.41	2170.85
442.62	2346.97
442.82	2176.99
443.02	2250.72
443.23	2293.72
443.43	2297.82
443.64	2398.17
443.84	2160.61
444.05	2383.84
444.25	2308.06
444.46	2271.20
444.66	2330.59
444.87	2422.75
445.07	2068.45
445.28	2205.66
445.48	2396.12
445.69	2263.01
445.89	2557.91
446.09	2340.83
446.30	2596.82
446.50	2856.92
446.71	4440.00
446.91	5697.45
447.12	6500.25
447.32	6807.45
447.53	6332.32
447.73	5201.84
447.93	4632.51
448.14	4165.57
448.34	4079.55
448.55	3542.99
448.75	3559.37
448.96	3499.98
449.16	3014.61
449.36	2908.12
449.57	2605.02
449.77	2342.88
449.98	2275.29
450.18	2326.49
450.39	2318.30
450.59	2303.96
450.79	2244.57
451.00	2236.38
451.20	2373.60
451.41	2226.14
451.61	2320.35
451.81	2291.68
452.02	2115.55
452.22	2220.00
452.43	2236.38
452.63	2154.46
452.84	2263.01
453.04	2224.09
453.24	2314.20
453.45	2152.42
453.65	2217.95
453.86	2322.40
454.06	2312.16
454.26	2234.33
454.47	2170.85
454.67	2428.89
454.87	2363.36
455.08	2242.53
455.28	2406.36
455.49	2238.43
455.69	2211.81
455.89	2451.42
456.10	2338.78
456.30	2179.04
456.51	2400.22
456.71	2375.64
456.91	2265.05
457.12	2209.76
457.32	2338.78
457.52	2136.03
457.73	2299.87
457.93	2385.88
458.14	2195.42
458.34	2150.37
458.54	2207.71
458.75	2242.53
458.95	2367.45
459.15	2285.53
459.36	2299.87
459.56	2351.07
459.76	2494.43
459.97	2209.76
460.17	2156.51
460.37	2344.92
460.58	2277.34
460.78	2332.64
460.99	2144.22
461.19	2203.61
461.39	2277.34
461.60	2269.15
461.80	2322.40
462.00	2123.74
462.21	2250.72
462.41	2148.32
462.61	2222.05
462.82	2076.64
463.02	2404.32
463.22	2258.91
463.43	2410.46
463.63	2306.01
463.83	2430.94
464.04	2365.40
464.24	2285.53
464.44	2254.81
464.64	2344.92
464.85	2314.20
465.05	2308.06
465.25	2265.05
465.46	2228.19
465.66	2342.88
465.86	2293.72
466.07	2277.34
466.27	2256.86
466.47	2129.89
466.68	2164.70
466.88	2441.18
467.08	2285.53
467.29	2369.50
467.49	2342.88
467.69	2166.75
467.89	2310.11
468.10	2207.71
468.30	2246.62
468.50	2322.40
468.71	2367.45
468.91	2172.89
469.11	2351.07
469.31	2293.72
469.52	2162.66
469.72	2482.14
469.92	2379.74
470.13	2158.56
470.33	2310.11
470.53	2297.82
470.73	2760.66
470.94	3061.71
471.14	3184.59
471.34	3557.32
471.54	3452.88
471.75	3162.06
471.95	2805.72
472.15	2844.63
472.36	2846.68
472.56	2676.70
472.76	2641.88
472.96	2605.02
473.17	2654.17
473.37	2480.09
473.57	2349.02
473.77	2404.32
473.98	2232.29
474.18	2162.66
474.38	2629.59
474.58	2152.42
474.79	2172.89
474.99	2330.59
475.19	2467.80
475.39	2078.69
475.60	2263.01
475.80	2349.02
476.00	2373.60
476.20	2220.00
476.41	2310.11
476.61	2355.16
476.81	2428.89
477.01	2215.90
477.21	2387.93
477.42	2371.55
477.62	2209.76
477.82	2334.68
478.02	2211.81
478.23	2252.77
478.43	2129.89
478.63	2156.51
478.83	2273.25
479.03	2236.38
479.24	2375.64
479.44	2525.15
479.64	2150.37
479.84	2095.07
480.04	2168.80
480.25	2260.96
480.45	2166.75
480.65	2226.14
480.85	2414.56
481.06	2303.96
481.26	2207.71
481.46	2269.15
481.66	2252.77
481.86	2144.22
482.06	2342.88
482.27	2224.09
482.47	2179.04
482.67	2371.55
482.87	2179.04
483.07	2328.54
483.28	2179.04
483.48	2172.89
483.68	2236.38
483.88	2166.75
484.08	2121.70
484.29	2144.22
484.49	2267.10
484.69	2121.70
484.89	2455.51
485.09	2297.82
485.29	2316.25
485.50	2338.78
485.70	2246.62
485.90	2383.84
486.10	2306.01
486.30	2338.78
486.50	2385.88
486.71	2351.07
486.91	2293.72
487.11	2306.01
487.31	2093.02
487.51	2308.06
487.71	2181.09
487.91	2207.71
488.12	2166.75
488.32	2015.20
488.52	2195.42
488.72	2093.02
488.92	2205.66
489.12	2389.98
489.32	2381.79
489.53	2332.64
489.73	2107.36
489.93	2383.84
490.13	2097.12
490.33	2099.17
490.53	2324.44
490.73	2400.22
490.94	2176.99
491.14	2334.68
491.34	2383.84
491.54	2617.30
491.74	3178.45
491.94	3770.31
492.14	4132.80
492.34	4165.57
492.54	3807.17
492.75	3299.28
492.95	3225.55
493.15	2922.45
493.35	2981.84
493.55	2801.62
493.75	2686.94
493.95	2811.86
494.15	2519.00
494.35	2443.23
494.56	2422.75
494.76	2263.01
494.96	2301.92
495.16	2269.15
495.36	2215.90
495.56	2281.44
495.76	2168.80
495.96	2211.81
496.16	2232.29
496.36	2459.61
496.56	2252.77
496.77	2269.15
496.97	2291.68
497.17	2340.83
497.37	2111.46
497.57	2308.06
497.77	2187.23
497.97	2230.24
498.17	2260.96
498.37	2207.71
498.57	2295.77
498.77	2283.49
498.97	2281.44
499.17	2484.19
499.38	2277.34
499.58	2381.79
499.78	2332.64
499.98	2412.51
500.18	2199.52
500.38	2172.89
500.58	2512.86
500.78	2949.08
500.98	5066.67
501.18	7212.95
501.38	8882.04
501.58	9721.71
501.78	9697.13
501.98	7608.20
502.18	6414.24
502.38	5529.52
502.58	5175.22
502.78	4710.33
502.98	4515.77
503.18	4235.20
503.38	3991.49
503.59	3379.15
503.79	3155.92
503.99	3008.47
504.19	2787.29
504.39	2781.14
504.59	2793.43
504.79	2846.68
504.99	2779.09
505.19	2629.59
505.39	2465.75
505.59	2578.39
505.79	2553.82
505.99	2383.84
506.19	2334.68
506.39	2512.86
506.59	2275.29
506.79	2287.58
506.99	2336.73
507.19	2252.77
507.39	2308.06
507.59	2185.18
507.79	2252.77
507.99	2246.62
508.19	2258.91
508.39	2150.37
508.59	2299.87
508.79	2400.22
508.99	2555.86
509.19	2236.38
509.39	2336.73
509.59	2133.98
509.79	2193.37
509.99	2234.33
510.19	2346.97
510.39	2383.84
510.59	2260.96
510.79	2191.33
510.99	2211.81
511.19	2332.64
511.39	2504.67
511.59	2428.89
511.79	2351.07
511.99	2248.67
512.19	2461.66
512.38	2240.48
512.58	2179.04
512.78	2187.23
512.98	2346.97
513.18	2455.51
513.38	2119.65
513.58	2379.74
513.78	2240.48
513.98	2226.14
514.18	2234.33
514.38	2187.23
514.58	2383.84
514.78	2158.56
514.98	2172.89
515.18	2289.63
515.38	2113.50
515.58	2478.04
515.78	2244.57
515.98	2244.57
516.18	2357.21
516.38	2346.97
516.57	2215.90
516.77	2199.52
516.97	2303.96
517.17	2187.23
517.37	2131.94
517.57	2357.21
517.77	2324.44
517.97	2211.81
518.17	2246.62
518.37	2189.28
518.57	2176.99
518.77	2269.15
518.97	2273.25
519.16	2324.44
519.36	2441.18
519.56	2209.76
519.76	2273.25
519.96	2199.52
520.16	2365.40
520.36	2211.81
520.56	2412.51
520.76	2211.81
520.96	2211.81
521.16	2373.60
521.35	2320.35
521.55	2459.61
521.75	2357.21
521.95	2258.91
522.15	2201.57
522.35	2144.22
522.55	2314.20
522.75	2326.49
522.95	2140.13
523.14	2172.89
523.34	2250.72
523.54	2174.94
523.74	2334.68
523.94	2273.25
524.14	2220.00
524.34	2330.59
524.54	2400.22
524.73	2215.90
524.93	2330.59
525.13	2291.68
525.33	2199.52
525.53	2437.08
525.73	2326.49
525.93	2316.25
526.13	2322.40
526.32	2187.23
526.52	2301.92
526.72	2430.94
526.92	2187.23
527.12	2230.24
527.32	2095.07
527.52	2291.68
527.71	2291.68
527.91	2220.00
528.11	2193.37
528.31	2238.43
528.51	2222.05
528.71	2260.96
528.90	2285.53
529.10	2373.60
529.30	2379.74
529.50	1998.82
529.70	2289.63
529.90	2287.58
530.09	2297.82
530.29	2160.61
530.49	2220.00
530.69	2496.47
530.89	2258.91
531.09	2326.49
531.28	2275.29
531.48	2449.37
531.68	2277.34
531.88	2232.29
532.08	2306.01
532.28	2133.98
532.47	2338.78
532.67	2316.25
532.87	2367.45
533.07	2185.18
533.27	2351.07
533.46	2297.82
533.66	2336.73
533.86	2299.87
534.06	2248.67
534.26	2336.73
534.45	2242.53
534.65	2428.89
534.85	2318.30
535.05	2211.81
535.25	2357.21
535.44	2230.24
535.64	2346.97
535.84	2322.40
536.04	2181.09
536.24	2230.24
536.43	2160.61
536.63	2299.87
536.83	2217.95
537.03	2203.61
537.22	2140.13
537.42	2101.22
537.62	2316.25
537.82	2146.27
538.02	2367.45
538.21	2326.49
538.41	2605.02
538.61	2293.72
538.81	2168.80
539.00	2361.31
539.20	2133.98
539.40	2230.24
539.60	2234.33
539.79	2392.03
539.99	2244.57
540.19	2205.66
540.39	2220.00
540.58	2242.53
540.78	2340.83
540.98	2244.57
541.18	2336.73
541.37	2334.68
541.57	2281.44
541.77	2250.72
541.97	2140.13
542.16	2142.18
542.36	2263.01
542.56	2105.31
542.76	2473.95
542.95	2344.92
543.15	2320.35
543.35	2338.78
543.54	2193.37
543.74	2226.14
543.94	2396.12
544.14	2217.95
544.33	2289.63
544.53	2189.28
544.73	2277.34
544.93	2220.00
545.12	2179.04
545.32	2267.10
545.52	2207.71
545.71	2148.32
545.91	2142.18
546.11	2205.66
546.30	2207.71
546.50	2185.18
546.70	2330.59
546.90	2301.92
547.09	2064.35
547.29	2361.31
547.49	2371.55
547.68	2240.48
547.88	2205.66
548.08	2326.49
548.27	2746.33
548.47	2226.14
548.67	2199.52
548.87	2273.25
549.06	2199.52
549.26	2324.44
549.46	2267.10
549.65	2230.24
549.85	2240.48
550.05	2258.91
550.24	2138.08
550.44	2211.81
550.64	2267.10
550.83	2281.44
551.03	2351.07
551.23	2416.60
551.42	2330.59
551.62	2248.67
551.82	2234.33
552.01	2283.49
552.21	2308.06
552.41	2258.91
552.60	2457.56
552.80	2289.63
553.00	2258.91
553.19	2269.15
553.39	2467.80
553.59	2117.60
553.78	2281.44
553.98	2357.21
554.17	2179.04
554.37	2303.96
554.57	2353.12
554.76	2088.93
554.96	2156.51
555.16	2359.26
555.35	2312.16
555.55	2330.59
555.75	2256.86
555.94	2385.88
556.14	2097.12
556.33	2291.68
556.53	2260.96
556.73	2283.49
556.92	2267.10
557.12	2291.68
557.32	2418.65
557.51	2367.45
557.71	2291.68
557.90	2396.12
558.10	2381.79
558.30	2248.67
558.49	2258.91
558.69	2232.29
558.88	2379.74
559.08	2213.85
559.28	2291.68
559.47	2277.34
559.67	2371.55
559.86	2424.80
560.06	2240.48
560.26	2260.96
560.45	2396.12
560.65	2273.25
560.84	2416.60
561.04	2207.71
561.24	2355.16
561.43	2154.46
561.63	2445.27
561.82	2357.21
562.02	2277.34
562.22	2174.94
562.41	2156.51
562.61	2232.29
562.80	2187.23
563.00	2449.37
563.19	2338.78
563.39	2326.49
563.59	2373.60
563.78	2121.70
563.98	2109.41
564.17	2193.37
564.37	2129.89
564.56	2281.44
564.76	2121.70
564.96	2308.06
565.15	2330.59
565.35	2471.90
565.54	2162.66
565.74	2306.01
565.93	2330.59
566.13	2260.96
566.32	2277.34
566.52	2277.34
566.71	2326.49
566.91	2392.03
567.11	2289.63
567.30	2205.66
567.50	2361.31
567.69	2297.82
567.89	2232.29
568.08	2183.13
568.28	2263.01
568.47	2254.81
568.67	2349.02
568.86	2213.85
569.06	2387.93
569.25	2209.76
569.45	2187.23
569.64	2207.71
569.84	2228.19
570.04	2220.00
570.23	2220.00
570.43	2228.19
570.62	2277.34
570.82	2435.03
571.01	2170.85
571.21	2168.80
571.40	2121.70
571.60	2420.70
571.79	2320.35
571.99	2338.78
572.18	2187.23
572.38	2301.92
572.57	2209.76
572.77	2312.16
572.96	2523.10
573.16	2203.61
573.35	2162.66
573.55	2449.37
573.74	2351.07
573.94	2269.15
574.13	2207.71
574.33	2308.06
574.52	2453.47
574.71	2250.72
574.91	2269.15
575.10	2146.27
575.30	2269.15
575.49	2224.09
575.69	2203.61
575.88	2428.89
576.08	2289.63
576.27	2473.95
576.47	2273.25
576.66	2457.56
576.86	2480.09
577.05	2328.54
577.25	2336.73
577.44	2465.75
577.64	2328.54
577.83	2357.21
578.02	2179.04
578.22	2308.06
578.41	2381.79
578.61	2246.62
578.80	2129.89
579.00	2256.86
579.19	2363.36
579.39	2396.12
579.58	2287.58
579.77	2250.72
579.97	2453.47
580.16	2478.04
580.36	2326.49
580.55	2408.41
580.75	2346.97
580.94	2383.84
581.13	2498.52
581.33	2430.94
581.52	2265.05
581.72	2572.25
581.91	2475.99
582.11	2287.58
582.30	2365.40
582.49	2344.92
582.69	2445.27
582.88	2310.11
583.08	2320.35
583.27	2430.94
583.47	2338.78
583.66	2185.18
583.85	2252.77
584.05	2277.34
584.24	2383.84
584.44	2359.26
584.63	2463.71
584.82	2437.08
585.02	2432.99
585.21	2535.39
585.41	2490.33
585.60	2310.11
585.79	2516.95
585.99	2557.91
586.18	2383.84
586.37	2934.74
586.57	4609.98
586.76	13946.67
586.96	33252.87
587.15	47017.27
587.34	56741.02
587.54	61731.92
587.73	56235.17
587.93	40142.24
588.12	30182.96
588.31	24288.91
588.51	21493.43
588.70	19435.22
588.89	17669.87
589.09	15208.22
589.28	13133.62
589.47	10757.98
589.67	8116.10
589.86	6352.80
590.06	4677.56
590.25	3809.22
590.44	3225.55
590.64	2863.06
590.83	2678.74
591.02	2625.50
591.22	2367.45
591.41	2447.32
591.60	2410.46
591.80	2621.40
591.99	2150.37
592.18	2338.78
592.38	2457.56
592.57	2260.96
592.76	2326.49
592.96	2392.03
593.15	2281.44
593.34	2402.27
593.54	2277.34
593.73	2260.96
593.92	2445.27
594.12	2353.12
594.31	2310.11
594.50	2402.27
594.70	2381.79
594.89	2535.39
595.08	2189.28
595.28	2330.59
595.47	2617.30
595.66	2310.11
595.86	2191.33
596.05	2291.68
596.24	2283.49
596.43	2451.42
596.63	2355.16
596.82	2324.44
597.01	2367.45
597.21	2430.94
597.40	2404.32
597.59	2310.11
597.79	2277.34
597.98	2367.45
598.17	2306.01
598.36	2254.81
598.56	2379.74
598.75	2209.76
598.94	2303.96
599.14	2351.07
599.33	2193.37
599.52	2392.03
599.71	2265.05
599.91	2406.36
600.10	2408.41
600.29	2340.83
600.48	2289.63
600.68	2428.89
600.87	2283.49
601.06	2248.67
601.26	2281.44
601.45	2291.68
601.64	2242.53
601.83	2379.74
602.03	2152.42
602.22	2142.18
602.41	2402.27
602.60	2559.96
602.80	2334.68
602.99	2297.82
603.18	2209.76
603.37	2273.25
603.57	2248.67
603.76	2322.40
603.95	2330.59
604.14	2242.53
604.34	2195.42
604.53	2285.53
604.72	2289.63
604.91	2285.53
605.10	2316.25
605.30	2125.79
605.49	2453.47
605.68	2328.54
605.87	2299.87
606.07	2220.00
606.26	2293.72
606.45	2244.57
606.64	2344.92
606.84	2236.38
607.03	2365.40
607.22	2412.51
607.41	2295.77
607.60	2293.72
607.80	2346.97
607.99	2322.40
608.18	2357.21
608.37	2351.07
608.56	2125.79
608.76	2408.41
608.95	2494.43
609.14	2334.68
609.33	2363.36
609.52	2562.01
609.72	2396.12
609.91	2379.74
610.10	2332.64
610.29	2541.53
610.48	2308.06
610.68	2248.67
610.87	2246.62
611.06	2373.60
611.25	2285.53
611.44	2424.80
611.63	2168.80
611.83	2336.73
612.02	2185.18
612.21	2359.26
612.40	2039.78
612.59	2123.74
612.79	2183.13
612.98	2289.63
613.17	2398.17
613.36	2295.77
613.55	2471.90
613.74	2301.92
613.93	2414.56
614.13	2525.15
614.32	2469.85
614.51	2490.33
614.70	2349.02
614.89	2240.48
615.08	2351.07
615.28	2791.38
615.47	2217.95
615.66	2387.93
615.85	2285.53
616.04	2482.14
616.23	2314.20
616.42	2293.72
616.62	2338.78
616.81	2295.77
617.00	2277.34
617.19	2383.84
617.38	2250.72
617.57	2295.77
617.76	2394.08
617.95	2396.12
618.15	2361.31
618.34	2406.36
618.53	2150.37
618.72	2375.64
618.91	2396.12
619.10	2381.79
619.29	2297.82
619.48	2258.91
619.68	2285.53
619.87	2201.57
620.06	2164.70
620.25	2301.92
620.44	2220.00
620.63	2201.57
620.82	2209.76
621.01	2312.16
621.20	2291.68
621.39	2314.20
621.59	2310.11
621.78	2269.15
621.97	2336.73
622.16	2373.60
622.35	2285.53
622.54	2330.59
622.73	2326.49
622.92	2119.65
623.11	2340.83
623.30	2215.90
623.49	2318.30
623.68	2183.13
623.88	2426.84
624.07	2258.91
624.26	2189.28
624.45	2301.92
624.64	2224.09
624.83	2250.72
625.02	2246.62
625.21	2230.24
625.40	2371.55
625.59	2361.31
625.78	2176.99
625.97	2394.08
626.16	2445.27
626.35	2410.46
626.54	2334.68
626.74	2492.38
626.93	2285.53
627.12	2355.16
627.31	2445.27
627.50	2279.39
627.69	2332.64
627.88	2166.75
628.07	2207.71
628.26	2166.75
628.45	2224.09
628.64	2199.52
628.83	2254.81
629.02	2193.37
629.21	2324.44
629.40	2281.44
629.59	2289.63
629.78	2220.00
629.97	2285.53
630.16	2273.25
630.35	2158.56
630.54	2312.16
630.73	2220.00
630.92	2285.53
631.11	2265.05
631.30	2310.11
631.49	2416.60
631.68	2281.44
631.87	2349.02
632.06	2144.22
632.25	2531.29
632.44	2308.06
632.63	2248.67
632.82	2281.44
633.01	2326.49
633.20	2310.11
633.39	2263.01
633.58	2256.86
633.77	2328.54
633.96	2363.36
634.15	2283.49
634.34	2342.88
634.53	2293.72
634.72	2277.34
634.91	2113.50
635.10	2277.34
635.29	2414.56
635.48	2310.11
635.67	2144.22
635.86	2129.89
636.05	2383.84
636.24	2334.68
636.43	2230.24
636.62	2383.84
636.81	2136.03
637.00	2207.71
637.19	2277.34
637.38	2260.96
637.57	2240.48
637.76	2187.23
637.95	2338.78
638.14	2330.59
638.33	2338.78
638.52	2330.59
638.71	2201.57
638.89	2226.14
639.08	2531.29
639.27	2453.47
639.46	2521.05
639.65	2863.06
639.84	2826.20
640.03	3020.75
640.22	2856.92
640.41	2916.31
640.60	2527.19
640.79	2482.14
640.98	2428.89
641.17	2449.37
641.36	2523.10
641.55	2469.85
641.74	2185.18
641.92	2234.33
642.11	2236.38
642.30	2273.25
642.49	2207.71
642.68	2168.80
642.87	2342.88
643.06	2324.44
643.25	2189.28
643.44	2228.19
643.63	2244.57
643.82	2363.36
644.00	2160.61
644.19	2273.25
644.38	2176.99
644.57	2371.55
644.76	2267.10
644.95	2228.19
645.14	2334.68
645.33	2281.44
645.52	2271.20
645.71	2129.89
645.89	2213.85
646.08	2297.82
646.27	2281.44
646.46	2387.93
646.65	2193.37
646.84	2232.29
647.03	2113.50
647.22	2349.02
647.40	2277.34
647.59	2224.09
647.78	2185.18
647.97	2183.13
648.16	2168.80
648.35	2402.27
648.54	2412.51
648.73	2234.33
648.91	2297.82
649.10	2250.72
649.29	2228.19
649.48	2244.57
649.67	2383.84
649.86	2230.24
650.05	2254.81
650.23	2463.71
650.42	2326.49
650.61	2461.66
650.80	2449.37
650.99	2537.43
651.18	2373.60
651.36	2414.56
651.55	2285.53
651.74	2443.23
651.93	2277.34
652.12	2252.77
652.31	2232.29
652.49	2332.64
652.68	2269.15
652.87	2445.27
653.06	2277.34
653.25	2400.22
653.44	2297.82
653.62	2424.80
653.81	2285.53
654.00	2277.34
654.19	2301.92
654.38	2527.19
654.56	2248.67
654.75	2224.09
654.94	2377.69
655.13	2324.44
655.32	2232.29
655.51	2285.53
655.69	2217.95
655.88	2281.44
656.07	2187.23
656.26	2314.20
656.45	2181.09
656.63	2242.53
656.82	2228.19
657.01	2353.12
657.20	2308.06
657.38	2432.99
657.57	2195.42
657.76	2121.70
657.95	2316.25
658.14	2265.05
658.32	2248.67
658.51	2185.18
658.70	2289.63
658.89	2310.11
659.08	2275.29
659.26	2471.90
659.45	2254.81
659.64	2344.92
659.83	2367.45
660.01	2623.45
660.20	2328.54
660.39	2455.51
660.58	2076.64
660.76	2324.44
660.95	2170.85
661.14	2287.58
661.33	2152.42
661.51	2222.05
661.70	2228.19
661.89	2328.54
662.08	2250.72
662.26	2103.26
662.45	2211.81
662.64	2381.79
662.83	2312.16
663.01	2066.40
663.20	2144.22
663.39	2369.50
663.58	2203.61
663.76	2250.72
663.95	2301.92
664.14	2201.57
664.32	2240.48
664.51	2138.08
664.70	2088.93
664.89	2306.01
665.07	2111.46
665.26	2344.92
665.45	2101.22
665.64	2349.02
665.82	2283.49
666.01	2340.83
666.20	2148.32
666.38	2389.98
666.57	2465.75
666.76	3397.58
666.95	8161.16
667.13	16580.36
667.32	21468.86
667.51	25149.06
667.69	26754.66
667.88	24499.85
668.07	17571.57
668.25	14133.03
668.44	11646.80
668.63	9996.14
668.81	8667.00
669.00	7772.04
669.19	7020.44
669.38	5986.21
669.56	5142.45
669.75	4347.84
669.94	3624.90
670.12	3080.14
670.31	2772.95
670.50	2672.60
670.68	2494.43
670.87	2377.69
671.06	2306.01
671.24	2359.26
671.43	2406.36
671.62	2285.53
671.80	2267.10
671.99	2283.49
672.18	2295.77
672.36	2490.33
672.55	2281.44
672.74	2162.66
672.92	2234.33
673.11	2326.49
673.29	2207.71
673.48	2361.31
673.67	2263.01
673.85	2355.16
674.04	2191.33
674.23	2320.35
674.41	2484.19
674.60	2068.45
674.79	2035.68
674.97	2156.51
675.16	2349.02
675.34	2430.94
675.53	2166.75
675.72	2291.68
675.90	2424.80
676.09	2230.24
676.28	2275.29
676.46	2058.21
676.65	2357.21
676.83	2174.94
677.02	2250.72
677.21	2306.01
677.39	2260.96
677.58	2201.57
677.77	2211.81
677.95	2185.18
678.14	2187.23
678.32	2318.30
678.51	2166.75
678.70	2463.71
678.88	2179.04
679.07	2291.68
679.25	2254.81
679.44	2265.05
679.63	2101.22
679.81	2244.57
680.00	2432.99
680.18	2281.44
680.37	2377.69
680.55	2252.77
680.74	2107.36
680.93	2158.56
681.11	2349.02
681.30	2174.94
681.48	2215.90
681.67	2224.09
681.85	2240.48
682.04	2236.38
682.23	2301.92
682.41	2289.63
682.60	2285.53
682.78	2260.96
682.97	2166.75
683.15	2246.62
683.34	2299.87
683.53	2359.26
683.71	2166.75
683.90	2398.17
684.08	2443.23
684.27	2279.39
684.45	2234.33
684.64	2414.56
684.82	2252.77
685.01	2295.77
685.19	2256.86
685.38	2404.32
685.57	2279.39
685.75	2150.37
685.94	2283.49
686.12	2162.66
686.31	2224.09
686.49	2471.90
686.68	2119.65
686.86	2289.63
687.05	2281.44
687.23	2502.62
687.42	2213.85
687.60	2179.04
687.79	2383.84
687.97	2379.74
688.16	2375.64
688.34	2416.60
688.53	2084.83
688.71	2312.16
688.90	2402.27
689.08	2189.28
689.27	2099.17
689.45	2373.60
689.64	2371.55
689.82	2230.24
690.01	2332.64
690.19	2220.00
690.38	2224.09
690.56	2373.60
690.75	2195.42
690.93	2224.09
691.12	2187.23
691.30	2295.77
691.49	2176.99
691.67	2197.47
691.86	2408.41
692.04	2236.38
692.23	2211.81
692.41	2271.20
692.60	2525.15
692.78	2351.07
692.97	2303.96
693.15	2297.82
693.34	2516.95
693.52	2443.23
693.71	2240.48
693.89	2195.42
694.08	2150.37
694.26	2324.44
694.44	2342.88
694.63	2299.87
694.81	2142.18
695.00	2185.18
695.18	2355.16
695.37	2527.19
695.55	2260.96
695.74	2242.53
695.92	2265.05
696.10	2373.60
696.29	2146.27
696.47	2211.81
696.66	2185.18
696.84	2176.99
697.03	2236.38
697.21	2426.84
697.40	3293.13
697.58	2400.22
697.76	2236.38
697.95	2183.13
698.13	2127.84
698.32	2191.33
698.50	2248.67
698.68	2355.16
698.87	2211.81
699.05	2432.99
699.24	2252.77
699.42	2166.75
699.61	2281.44
699.79	2234.33
699.97	2246.62
700.16	2256.86
700.34	2142.18
700.53	2240.48
700.71	2424.80
700.89	2326.49
701.08	2154.46
701.26	2330.59
701.45	2791.38
701.63	2146.27
701.81	2213.85
702.00	2199.52
702.18	2267.10
702.37	2314.20
702.55	2482.14
702.73	2467.80
702.92	2351.07
703.10	2605.02
703.28	2492.38
703.47	2310.11
703.65	2428.89
703.84	2400.22
704.02	2244.57
704.20	2439.13
704.39	2230.24
704.57	2334.68
704.75	2369.50
704.94	2361.31
705.12	2410.46
705.30	2519.00
705.49	4476.86
705.67	10403.68
705.86	18554.60
706.04	22154.93
706.22	25345.66
706.41	26353.26
706.59	22208.17
706.77	15955.72
706.96	13158.20
707.14	11622.22
707.32	10141.54
707.51	8861.56
707.69	7337.87
707.87	5859.24
708.06	4700.09
708.24	3852.23
708.42	3276.75
708.61	3108.82
708.79	2420.70
708.97	2412.51
709.16	2445.27
709.34	2392.03
709.52	2234.33
709.71	2250.72
709.89	2330.59
710.07	2220.00
710.26	2166.75
710.44	2131.94
710.62	2373.60
710.80	2228.19
710.99	2269.15
711.17	2383.84
711.35	2250.72
711.54	2234.33
711.72	2326.49
711.90	2244.57
712.09	2320.35
712.27	2265.05
712.45	2338.78
712.63	2234.33
712.82	2228.19
713.00	2176.99
713.18	2359.26
713.37	2402.27
713.55	2375.64
713.73	2295.77
713.91	2260.96
714.10	2174.94
714.28	2222.05
714.46	2285.53
714.65	2273.25
714.83	2234.33
715.01	2228.19
715.19	2224.09
715.38	2220.00
715.56	2310.11
715.74	2213.85
715.92	2236.38
716.11	2359.26
716.29	2088.93
716.47	2242.53
716.65	2226.14
716.84	2105.31
717.02	2330.59
717.20	2064.35
717.38	2197.47
717.57	2273.25
717.75	2232.29
717.93	2158.56
718.11	2336.73
718.30	2170.85
718.48	2314.20
718.66	2310.11
718.84	2320.35
719.03	2248.67
719.21	2133.98
719.39	2351.07
719.57	2346.97
719.75	2297.82
719.94	2199.52
720.12	2287.58
720.30	2338.78
720.48	2318.30
720.67	2217.95
720.85	2195.42
721.03	2201.57
721.21	2203.61
721.39	2314.20
721.58	2285.53
721.76	2226.14
721.94	2432.99
722.12	2281.44
722.30	2322.40
722.49	2209.76
722.67	2308.06
722.85	2326.49
723.03	2203.61
723.21	2250.72
723.40	2222.05
723.58	2367.45
723.76	2318.30
723.94	2400.22
724.12	2271.20
724.30	2389.98
724.49	2389.98
724.67	2213.85
724.85	2424.80
725.03	2215.90
725.21	2322.40
725.40	2375.64
725.58	2269.15
725.76	2287.58
725.94	2310.11
726.12	2154.46
726.30	2240.48
726.49	2265.05
726.67	2224.09
726.85	2299.87
727.03	2549.72
727.21	3577.80
727.39	5038.00
727.57	5912.49
727.76	6494.11
727.94	6852.50
728.12	6477.73
728.30	5250.99
728.48	4472.76
728.66	4177.86
728.84	3780.55
729.03	3289.04
729.21	2998.23
729.39	2801.62
729.57	2535.39
729.75	2346.97
729.93	2420.70
730.11	2164.70
730.30	2234.33
730.48	2299.87
730.66	2379.74
730.84	2322.40
731.02	2326.49
731.20	2226.14
731.38	2232.29
731.56	2136.03
731.74	2166.75
731.93	2281.44
732.11	2222.05
732.29	2197.47
732.47	2308.06
732.65	2267.10
732.83	2351.07
733.01	2228.19
733.19	2211.81
733.37	2336.73
733.56	2318.30
733.74	2236.38
733.92	2471.90
734.10	2201.57
734.28	2334.68
734.46	2060.26
734.64	2203.61
734.82	2193.37
735.00	2242.53
735.18	2168.80
735.36	2238.43
735.54	2220.00
735.73	2226.14
735.91	2260.96
736.09	2381.79
736.27	2260.96
736.45	2226.14
736.63	2033.63
736.81	2183.13
736.99	2377.69
737.17	2363.36
737.35	2183.13
737.53	2271.20
737.71	2240.48
737.89	2404.32
738.07	2183.13
738.25	2201.57
738.43	2129.89
738.61	2215.90
738.80	2160.61
738.98	2207.71
739.16	2265.05
739.34	2088.93
739.52	2410.46
739.70	2199.52
739.88	2342.88
740.06	2385.88
740.24	2086.88
740.42	2355.16
740.60	2103.26
740.78	2260.96
740.96	2039.78
741.14	2183.13
741.32	2252.77
741.50	2121.70
741.68	2453.47
741.86	2430.94
742.04	2140.13
742.22	2131.94
742.40	2301.92
742.58	2248.67
742.76	2199.52
742.94	2318.30
743.12	2176.99
743.30	2256.86
743.48	2291.68
743.66	2252.77
743.84	2303.96
744.02	2220.00
744.20	2256.86
744.38	2144.22
744.56	2146.27
744.74	2379.74
744.92	2346.97
745.10	2299.87
745.28	2252.77
745.46	2357.21
745.64	2238.43
745.82	2297.82
746.00	2344.92
746.18	2326.49
746.36	2195.42
746.54	2267.10
746.72	2303.96
746.90	2162.66
747.08	2408.41
747.26	2248.67
747.44	2373.60
747.62	2285.53
747.80	2308.06
747.98	2334.68
748.15	2228.19
748.33	2463.71
748.51	2303.96
748.69	2273.25
748.87	2142.18
749.05	2281.44
749.23	2269.15
749.41	2154.46
749.59	2179.04
749.77	2293.72
749.95	2252.77
750.13	2228.19
750.31	2303.96
750.49	2287.58
750.67	2387.93
750.85	2330.59
751.03	2269.15
751.20	2418.65
751.38	2260.96
751.56	2260.96
751.74	2232.29
751.92	2195.42
752.10	2176.99
752.28	2389.98
752.46	2195.42
752.64	2236.38
752.82	2248.67
753.00	2340.83
753.18	2199.52
753.35	2252.77
753.53	2195.42
753.71	2252.77
753.89	2371.55
754.07	2301.92
754.25	2369.50
754.43	2310.11
754.61	2111.46
754.79	2326.49
754.97	2185.18
755.14	2375.64
755.32	2086.88
755.50	2201.57
755.68	2346.97
755.86	2101.22
756.04	2140.13
756.22	2121.70
756.40	2379.74
756.57	2414.56
756.75	2179.04
756.93	2355.16
757.11	2293.72
757.29	2140.13
757.47	2172.89
757.65	2062.30
757.82	2013.15
758.00	2164.70
758.18	2138.08
758.36	2181.09
758.54	2435.03
758.72	2105.31
758.90	2338.78
759.07	2289.63
759.25	2197.47
759.43	2346.97
759.61	2088.93
759.79	3102.67
759.97	2369.50
760.15	2228.19
760.32	2228.19
760.50	2287.58
760.68	2404.32
760.86	2131.94
761.04	2301.92
761.22	2299.87
761.39	2246.62
761.57	2308.06
761.75	2318.30
761.93	2308.06
762.11	2211.81
762.28	2187.23
762.46	2154.46
762.64	2334.68
762.82	2105.31
763.00	2230.24
763.18	2412.51
763.35	2136.03
763.53	2381.79
763.71	2246.62
763.89	2252.77
764.07	2234.33
764.24	2324.44
764.42	2287.58
764.60	2205.66
764.78	2363.36
764.96	2375.64
765.13	2344.92
765.31	2199.52
765.49	2320.35
765.67	2160.61
765.84	2146.27
766.02	2234.33
766.20	2103.26
766.38	2236.38
766.56	2256.86
766.73	2287.58
766.91	2289.63
767.09	2285.53
767.27	2295.77
767.44	2211.81
767.62	2330.59
767.80	2303.96
767.98	2289.63
768.15	2181.09
768.33	2326.49
768.51	2301.92
768.69	2291.68
768.87	2246.62
769.04	2318.30
769.22	2496.47
769.40	2349.02
769.58	2572.25
769.75	2220.00
769.93	2336.73
770.11	2258.91
770.28	2213.85
770.46	2324.44
770.64	2234.33
770.82	2152.42
770.99	2154.46
771.17	2301.92
771.35	2158.56
771.53	2224.09
771.70	2232.29
771.88	2258.91
772.06	2187.23
772.23	2150.37
772.41	2224.09
772.59	2213.85
772.77	2193.37
772.94	2164.70
773.12	2289.63
773.30	2281.44
773.47	2318.30
773.65	2187.23
773.83	2379.74
774.01	2240.48
774.18	2031.58
774.36	2258.91
774.54	2113.50
774.71	2254.81
774.89	2109.41
775.07	2037.73
775.24	2201.57
775.42	2176.99
775.60	2383.84
775.78	2258.91
775.95	2170.85
776.13	2039.78
776.31	2080.74
776.48	2275.29
776.66	2330.59
776.84	2131.94
777.01	2207.71
777.19	2136.03
777.37	2154.46
777.54	2265.05
777.72	2408.41
777.90	2303.96
778.07	2242.53
778.25	2559.96
778.43	2351.07
778.60	2189.28
778.78	2303.96
778.96	2367.45
779.13	2105.31
779.31	2299.87
779.49	2224.09
779.66	2260.96
779.84	2195.42
780.01	2187.23
780.19	2232.29
780.37	2418.65
780.54	2340.83
780.72	2127.84
780.90	2250.72
781.07	2168.80
781.25	2232.29
781.43	2398.17
781.60	2217.95
781.78	2465.75
781.95	2234.33
782.13	2129.89
782.31	2195.42
782.48	2113.50
782.66	2244.57
782.83	2465.75
783.01	2314.20
783.19	2287.58
783.36	2301.92
783.54	2129.89
783.72	2336.73
783.89	2232.29
784.07	2254.81
784.24	2340.83
784.42	2338.78
784.60	2236.38
784.77	2275.29
784.95	2129.89
785.12	2172.89
785.30	2291.68
785.47	2150.37
785.65	2248.67
785.83	2211.81
786.00	2244.57
786.18	2230.24
786.35	2113.50
786.53	2203.61
786.71	2332.64
786.88	2240.48
787.06	2338.78
787.23	2205.66
787.41	2154.46
787.58	2191.33
787.76	2207.71
787.94	2287.58
788.11	2217.95
788.29	2179.04
788.46	2119.65
788.64	2107.36
788.81	2179.04
788.99	2097.12
789.16	2072.54
789.34	2195.42
789.52	2160.61
789.69	2201.57
789.87	2062.30
790.04	2121.70
790.22	2248.67
790.39	2428.89
790.57	2146.27
790.74	2160.61
790.92	2314.20
791.09	2146.27
791.27	2297.82
791.44	2232.29
791.62	2275.29
791.79	2297.82
791.97	2242.53
792.15	2473.95
792.32	2371.55
792.50	2340.83
792.67	2396.12
792.85	2428.89
793.02	2226.14
793.20	2244.57
793.37	2101.22
793.55	2166.75
793.72	2138.08
793.90	2263.01
794.07	2181.09
794.25	2244.57
794.42	2250.72
794.60	2205.66
794.77	2217.95
794.95	2400.22
795.12	2293.72
795.30	2170.85
795.47	2080.74
795.65	2516.95
795.82	2293.72
796.00	2121.70
796.17	2267.10
796.34	2152.42
796.52	2303.96
796.69	2344.92
796.87	2324.44
797.04	2314.20
797.22	2369.50
797.39	2232.29
797.57	2379.74
797.74	2293.72
797.92	2234.33
798.09	2224.09
798.27	2316.25
798.44	2203.61
798.62	2162.66
798.79	2287.58
798.96	2236.38
799.14	2176.99
799.31	2531.29
799.49	2293.72
799.66	2275.29
799.84	2209.76
800.01	2170.85
800.19	2351.07
800.36	2136.03
800.53	2246.62
800.71	2326.49
800.88	2387.93
801.06	2146.27
801.23	2256.86
801.41	2232.29
801.58	2179.04
801.75	2176.99
801.93	2334.68
802.10	2318.30
802.28	2283.49
802.45	2222.05
802.63	2326.49
802.80	2424.80
802.97	2209.76
803.15	2244.57
803.32	2138.08
803.50	2181.09
803.67	2224.09
803.84	2129.89
804.02	2234.33
804.19	2273.25
804.37	2138.08
804.54	2201.57
804.71	2154.46
804.89	2295.77
805.06	2146.27
805.24	2138.08
805.41	2168.80
805.58	2213.85
805.76	2441.18
805.93	2197.47
806.10	2342.88
806.28	2310.11
806.45	2226.14
806.63	2367.45
806.80	2351.07
806.97	2289.63
807.15	2191.33
807.32	2351.07
807.49	2246.62
807.67	2174.94
807.84	2283.49
808.01	2082.78
808.19	2392.03
808.36	2371.55
808.54	2148.32
808.71	2197.47
808.88	2267.10
809.06	2398.17
809.23	2416.60
809.40	2133.98
809.58	2248.67
809.75	2277.34
809.92	2156.51
810.10	2541.53
810.27	2269.15
810.44	2297.82
810.62	2340.83
810.79	2238.43
810.96	2195.42
811.14	2220.00
811.31	2289.63
811.48	2404.32
811.66	2269.15
811.83	2400.22
812.00	2295.77
812.18	2318.30
812.35	2490.33
812.52	2240.48
812.69	2240.48
812.87	2252.77
813.04	2209.76
813.21	2224.09
813.39	2191.33
813.56	2152.42
813.73	2306.01
813.91	2150.37
814.08	2172.89
814.25	2250.72
814.42	2162.66
814.60	2195.42
814.77	2316.25
814.94	2248.67
815.12	2287.58
815.29	2314.20
815.46	2217.95
815.63	2176.99
815.81	2168.80
815.98	2301.92
816.15	2267.10
816.33	2258.91
816.50	2129.89
816.67	2269.15
816.84	2269.15
817.02	2162.66
817.19	2203.61
817.36	2326.49
817.53	2217.95
817.71	2076.64
817.88	2308.06
818.05	2299.87
818.22	2285.53
818.40	2428.89
818.57	2097.12
818.74	2277.34
818.91	2252.77
819.09	2365.40
819.26	2283.49
819.43	2228.19
819.60	2228.19
819.78	2234.33
819.95	2359.26
820.12	2176.99
820.29	2406.36
820.47	2373.60
820.64	2146.27
820.81	2121.70
820.98	2191.33
821.15	2201.57
821.33	2357.21
821.50	2131.94
821.67	2279.39
821.84	2136.03
822.02	2271.20
822.19	2375.64
822.36	2093.02
822.53	2187.23
822.70	2080.74
822.88	2240.48
823.05	2375.64
823.22	2285.53
823.39	2281.44
823.56	2306.01
823.74	2416.60
823.91	2174.94
824.08	2078.69
824.25	2133.98
824.42	2402.27
824.60	2097.12
824.77	2303.96
824.94	2119.65
825.11	2346.97
825.28	2176.99
825.45	2263.01
825.63	2226.14
825.80	2138.08
825.97	2318.30
826.14	2271.20
826.31	2105.31
826.48	2291.68
826.66	2176.99
826.83	2273.25
827.00	2160.61
827.17	2203.61
827.34	2142.18
827.51	2195.42
827.69	2299.87
827.86	2138.08
828.03	2293.72
828.20	2293.72
828.37	2148.32
828.54	2310.11
828.71	2152.42
828.89	2424.80
829.06	2283.49
829.23	2363.36
829.40	2162.66
829.57	2306.01
829.74	2310.11
829.91	2207.71
830.09	2187.23
830.26	2246.62
830.43	2363.36
830.60	2269.15
830.77	2217.95
830.94	2369.50
831.11	2293.72
831.28	2162.66
831.46	2338.78
831.63	2144.22
831.80	2330.59
831.97	2111.46
832.14	2189.28
832.31	2269.15
832.48	2246.62
832.65	2422.75
832.82	2279.39
832.99	2226.14
833.17	2117.60
833.34	2375.64
833.51	2236.38
833.68	1978.34
833.85	2351.07
834.02	2166.75
834.19	2183.13
834.36	2211.81
834.53	2256.86
834.70	2353.12
834.87	2324.44
835.04	2215.90
835.22	2174.94
835.39	2248.67
835.56	2117.60
835.73	2154.46
835.90	2336.73
836.07	2199.52
836.24	2324.44
836.41	2209.76
836.58	2103.26
836.75	2359.26
836.92	2238.43
837.09	2213.85
837.26	2336.73
837.43	2289.63
837.60	2252.77
837.77	2162.66
837.94	2392.03
838.12	2342.88
838.29	2195.42
838.46	2076.64
838.63	2158.56
838.80	2430.94
838.97	2244.57
839.14	2211.81
839.31	2242.53
839.48	2318.30
839.65	2258.91
839.82	2244.57
839.99	2271.20
840.16	2234.33
840.33	2142.18
840.50	2195.42
840.67	2181.09
840.84	2027.49
841.01	2258.91
841.18	2195.42
841.35	2195.42
841.52	2316.25
841.69	2496.47
841.86	2248.67
842.03	2283.49
842.20	2301.92
842.37	2203.61
842.54	2209.76
842.71	2285.53
842.88	2111.46
843.05	2242.53
843.22	2127.84
843.39	2271.20
843.56	2150.37
843.73	2260.96
843.90	2326.49
844.07	2246.62
844.24	2367.45
844.41	2258.91
844.58	2158.56
844.75	2170.85
844.92	2324.44
845.09	2187.23
845.26	2279.39
845.43	2267.10
845.60	2201.57
845.77	2332.64
845.94	2197.47
846.10	2349.02
846.27	2076.64
846.44	2158.56
846.61	2127.84
846.78	2269.15
846.95	2303.96
847.12	2263.01
847.29	2144.22
847.46	2162.66
847.63	2367.45
847.80	2131.94
847.97	2215.90
848.14	2445.27
848.31	2195.42
848.48	2150.37
848.65	2258.91
848.82	2142.18
848.98	2547.67
849.15	2250.72
849.32	2281.44
849.49	2326.49
849.66	2203.61
849.83	2258.91
850.00	2066.40
850.17	2252.77
850.34	2220.00
850.51	2064.35
850.68	2203.61
850.85	2465.75
851.01	2263.01
851.18	2269.15
851.35	2279.39
851.52	2308.06
851.69	2340.83
851.86	2095.07
852.03	2156.51
852.20	2359.26
852.37	2246.62
852.53	2007.01
852.70	2236.38
852.87	2275.29
853.04	2236.38
853.21	2226.14
853.38	2260.96
853.55	2293.72
853.72	2394.08
853.89	2121.70
854.05	2103.26
854.22	2281.44
854.39	2217.95
854.56	2174.94
854.73	2281.44
854.90	2179.04
855.07	2246.62
855.23	2168.80
855.40	2166.75
855.57	2170.85
855.74	2068.45
855.91	2359.26
856.08	2105.31
856.25	2179.04
856.41	2097.12
856.58	2166.75
856.75	2189.28
856.92	2170.85
857.09	2271.20
857.26	2090.98
857.42	2240.48
857.59	2365.40
857.76	2129.89
857.93	2209.76
858.10	2215.90
858.27	2129.89
858.43	2220.00
858.60	2199.52
858.77	2142.18
858.94	2174.94
859.11	2396.12
859.27	2138.08
859.44	2179.04
859.61	2506.71
859.78	2275.29
859.95	2162.66
860.12	2220.00
860.28	2496.47
860.45	2443.23
860.62	2174.94
860.79	2293.72
860.95	2277.34
861.12	2179.04
861.29	2105.31
861.46	2144.22
861.63	2213.85
861.79	2250.72
861.96	2152.42
862.13	2166.75
862.30	2351.07
862.47	2232.29
862.63	2138.08
862.80	2260.96
862.97	2308.06
863.14	2254.81
863.30	2179.04
863.47	2150.37
863.64	2326.49
863.81	2246.62
863.97	2154.46
864.14	2242.53
864.31	2232.29
864.48	2289.63
864.65	2191.33
864.81	2330.59
864.98	2338.78
865.15	2320.35
865.32	2269.15
865.48	2320.35
865.65	2410.46
865.82	2213.85
865.98	2285.53
866.15	2303.96
866.32	2252.77
866.49	2211.81
866.65	2371.55
866.82	2150.37
866.99	2260.96
867.16	2148.32
867.32	2224.09
867.49	2179.04
867.66	2273.25
867.83	2207.71
867.99	2140.13
868.16	2248.67
868.33	2150.37
868.49	2144.22
868.66	2189.28
868.83	2281.44
868.99	2293.72
869.16	2224.09
869.33	2369.50
869.50	2263.01
869.66	2220.00
869.83	2166.75
870.00	2080.74
870.16	2367.45
870.33	2217.95
870.50	2318.30
870.66	2136.03
870.83	2361.31
871.00	2250.72
871.17	2250.72
871.33	2269.15
871.50	2138.08
871.67	2215.90
871.83	2101.22
872.00	2324.44
872.17	2187.23
872.33	2406.36
872.50	2340.83
872.67	2195.42
872.83	2152.42
873.00	2199.52
873.17	2291.68
873.33	2271.20
873.50	2340.83
873.67	2193.37
873.83	2152.42
874.00	2209.76
874.16	2332.64
874.33	2265.05
874.50	2113.50
874.66	2191.33
874.83	2314.20
875.00	2351.07
875.16	2373.60
875.33	2367.45
875.50	2031.58
875.66	2136.03
875.83	2246.62
875.99	2281.44
876.16	2244.57
876.33	2123.74
876.49	2232.29
876.66	2222.05
876.83	2197.47
876.99	2117.60
877.16	2256.86
877.32	2158.56
877.49	2209.76
877.66	2222.05
877.82	2322.40
877.99	2193.37
878.15	2285.53
878.32	2297.82
878.49	2277.34
878.65	2195.42
878.82	2412.51
878.98	2140.13
879.15	2303.96
879.32	2269.15
879.48	2211.81
879.65	2232.29
879.81	2162.66
879.98	2195.42
880.15	2220.00
880.31	2228.19
880.48	2168.80
880.64	2336.73
880.81	2209.76
880.97	2359.26
881.14	2385.88
881.31	2179.04
881.47	2392.03
881.64	2158.56
881.80	2080.74
881.97	2193.37
882.13	2236.38
882.30	2154.46
882.47	2097.12
882.63	2203.61
882.80	2146.27
882.96	2152.42
883.13	2332.64
883.29	2187.23
883.46	2224.09
883.62	2424.80
883.79	2349.02
883.95	2301.92
884.12	2183.13
884.29	2293.72
884.45	2256.86
884.62	2269.15
884.78	2150.37
884.95	2414.56
885.11	2179.04
885.28	2285.53
885.44	2162.66
885.61	2263.01
885.77	2275.29
885.94	2318.30
886.10	2201.57
886.27	2320.35
886.43	2408.41
886.60	2316.25
886.76	2228.19
886.93	2287.58
887.09	2308.06
887.26	2035.68
887.42	2215.90
887.59	2297.82
887.75	2514.91
887.92	2359.26
888.08	2326.49
888.25	2334.68
888.41	2308.06
888.58	2234.33
888.74	2150.37
888.91	2236.38
>>>>>End Processed Spectral Data<<<<<
