SpectraSuite Data File
++++++++++++++++++++++++++++++++++++
Date: Thu May 05 13:20:50 CEST 2016
User: root
Dark Spectrum Present: No
Reference Spectrum Present: No
Number of Sampled Component Spectra: 1
Spectrometers: USB4C02835
Integration Time (usec): 100000 (USB4C02835)
Spectra Averaged: 1 (USB4C02835)
Boxcar Smoothing: 0 (USB4C02835)
Correct for Electrical Dark: No (USB4C02835)
Strobe/Lamp Enabled: No (USB4C02835)
Correct for Detector Non-linearity: No (USB4C02835)
Correct for Stray Light: No (USB4C02835)
Number of Pixels in Processed Spectrum: 3648
>>>>>Begin Processed Spectral Data<<<<<
177.47	1767.40
177.69	1767.40
177.91	1767.40
178.13	1755.11
178.36	1828.84
178.58	2160.61
178.80	2318.30
179.02	2064.35
179.24	2211.81
179.46	2152.42
179.68	2211.81
179.90	2224.09
180.13	2222.05
180.35	2099.17
180.57	2138.08
180.79	2299.87
181.01	2260.96
181.23	2260.96
181.45	2271.20
181.67	2275.29
181.90	2396.12
182.12	2195.42
182.34	2007.01
182.56	2242.53
182.78	2293.72
183.00	2258.91
183.22	2230.24
183.44	2084.83
183.66	2545.63
183.89	2283.49
184.11	2144.22
184.33	2269.15
184.55	2310.11
184.77	2144.22
184.99	2136.03
185.21	2170.85
185.43	2541.53
185.65	2146.27
185.87	2129.89
186.10	2506.71
186.32	2408.41
186.54	2250.72
186.76	2310.11
186.98	2359.26
187.20	2240.48
187.42	2174.94
187.64	2111.46
187.86	2289.63
188.08	2342.88
188.30	2088.93
188.52	2142.18
188.75	2365.40
188.97	2447.32
189.19	2158.56
189.41	2285.53
189.63	2207.71
189.85	2211.81
190.07	2031.58
190.29	2121.70
190.51	2193.37
190.73	2115.55
190.95	2349.02
191.17	2213.85
191.39	2123.74
191.61	2252.77
191.84	2207.71
192.06	2263.01
192.28	2129.89
192.50	2559.96
192.72	2252.77
192.94	2105.31
193.16	2355.16
193.38	2326.49
193.60	2160.61
193.82	2199.52
194.04	2404.32
194.26	2263.01
194.48	2162.66
194.70	2119.65
194.92	2201.57
195.14	2375.64
195.36	2127.84
195.58	2236.38
195.80	2220.00
196.02	2162.66
196.24	2136.03
196.46	2154.46
196.69	2193.37
196.91	2545.63
197.13	2138.08
197.35	2117.60
197.57	2394.08
197.79	2295.77
198.01	2346.97
198.23	2154.46
198.45	2336.73
198.67	2066.40
198.89	2072.54
199.11	2250.72
199.33	2174.94
199.55	1986.53
199.77	2129.89
199.99	2279.39
200.21	2220.00
200.43	2269.15
200.65	2113.50
200.87	2052.06
201.09	2209.76
201.31	2185.18
201.53	2193.37
201.75	2207.71
201.97	2363.36
202.19	2326.49
202.41	2191.33
202.63	2312.16
202.85	2285.53
203.07	2217.95
203.29	2160.61
203.51	2179.04
203.73	2234.33
203.95	2572.25
204.17	2166.75
204.39	2226.14
204.61	2152.42
204.83	2215.90
205.05	2217.95
205.27	2209.76
205.49	2553.82
205.71	2199.52
205.93	2101.22
206.15	2095.07
206.37	2234.33
206.59	2174.94
206.81	2054.11
207.03	2113.50
207.25	2164.70
207.47	2326.49
207.69	2230.24
207.91	2328.54
208.13	2383.84
208.34	2191.33
208.56	2160.61
208.78	2117.60
209.00	2240.48
209.22	2232.29
209.44	2252.77
209.66	2154.46
209.88	2273.25
210.10	2232.29
210.32	2158.56
210.54	2324.44
210.76	2277.34
210.98	2330.59
211.20	1957.86
211.42	2260.96
211.64	2342.88
211.86	2252.77
212.08	2217.95
212.30	2217.95
212.52	2152.42
212.74	2334.68
212.96	2248.67
213.17	2291.68
213.39	2344.92
213.61	2383.84
213.83	2129.89
214.05	2234.33
214.27	2375.64
214.49	2154.46
214.71	2133.98
214.93	2308.06
215.15	2281.44
215.37	2267.10
215.59	2058.21
215.81	2260.96
216.03	2422.75
216.24	2353.12
216.46	2220.00
216.68	2213.85
216.90	2303.96
217.12	2359.26
217.34	2160.61
217.56	2287.58
217.78	2375.64
218.00	2324.44
218.22	2179.04
218.44	2213.85
218.66	2258.91
218.87	2420.70
219.09	2215.90
219.31	2199.52
219.53	2295.77
219.75	2176.99
219.97	2168.80
220.19	2226.14
220.41	2260.96
220.63	2510.81
220.85	2195.42
221.06	2230.24
221.28	2287.58
221.50	2318.30
221.72	2242.53
221.94	2160.61
222.16	2310.11
222.38	2363.36
222.60	2201.57
222.82	2189.28
223.03	2295.77
223.25	2117.60
223.47	2211.81
223.69	2310.11
223.91	2379.74
224.13	2324.44
224.35	2179.04
224.57	2306.01
224.78	2265.05
225.00	2086.88
225.22	2181.09
225.44	2176.99
225.66	2324.44
225.88	2265.05
226.10	2269.15
226.32	2205.66
226.53	2426.84
226.75	2193.37
226.97	2142.18
227.19	2146.27
227.41	2201.57
227.63	2228.19
227.85	2007.01
228.06	2172.89
228.28	2244.57
228.50	2326.49
228.72	2105.31
228.94	2217.95
229.16	2084.83
229.37	2105.31
229.59	2146.27
229.81	2303.96
230.03	2215.90
230.25	2129.89
230.47	2080.74
230.69	2125.79
230.90	2353.12
231.12	2170.85
231.34	2273.25
231.56	2211.81
231.78	2129.89
232.00	2254.81
232.21	2166.75
232.43	2256.86
232.65	2039.78
232.87	2273.25
233.09	2029.54
233.30	2105.31
233.52	2355.16
233.74	2275.29
233.96	2158.56
234.18	2220.00
234.40	2293.72
234.61	2490.33
234.83	2052.06
235.05	2054.11
235.27	2490.33
235.49	2330.59
235.70	2150.37
235.92	2287.58
236.14	2275.29
236.36	2447.32
236.58	2086.88
236.79	2258.91
237.01	2228.19
237.23	2273.25
237.45	2396.12
237.67	2189.28
237.88	2287.58
238.10	2381.79
238.32	2084.83
238.54	2113.50
238.76	2226.14
238.97	2191.33
239.19	2123.74
239.41	2248.67
239.63	2318.30
239.85	2207.71
240.06	2187.23
240.28	2154.46
240.50	2324.44
240.72	2291.68
240.93	2127.84
241.15	2301.92
241.37	2199.52
241.59	2367.45
241.81	2144.22
242.02	2158.56
242.24	2283.49
242.46	2267.10
242.68	2101.22
242.89	2179.04
243.11	2359.26
243.33	2203.61
243.55	2195.42
243.76	2217.95
243.98	2275.29
244.20	2248.67
244.42	2195.42
244.64	2236.38
244.85	2144.22
245.07	2058.21
245.29	2156.51
245.51	2154.46
245.72	2252.77
245.94	2355.16
246.16	2156.51
246.38	2209.76
246.59	2209.76
246.81	2187.23
247.03	2185.18
247.24	2019.30
247.46	2228.19
247.68	2338.78
247.90	2156.51
248.11	2162.66
248.33	2293.72
248.55	2285.53
248.77	2226.14
248.98	2236.38
249.20	2459.61
249.42	2324.44
249.64	2185.18
249.85	2103.26
250.07	2148.32
250.29	2349.02
250.50	2226.14
250.72	2170.85
250.94	2314.20
251.16	2478.04
251.37	2220.00
251.59	2234.33
251.81	2258.91
252.02	2398.17
252.24	2183.13
252.46	2193.37
252.68	2185.18
252.89	2172.89
253.11	2068.45
253.33	2332.64
253.54	2375.64
253.76	2119.65
253.98	2131.94
254.20	2154.46
254.41	2195.42
254.63	2203.61
254.85	2064.35
255.06	2324.44
255.28	2373.60
255.50	2168.80
255.71	2166.75
255.93	2080.74
256.15	2181.09
256.36	2396.12
256.58	2105.31
256.80	2162.66
257.02	2242.53
257.23	2191.33
257.45	2232.29
257.67	2248.67
257.88	2148.32
258.10	2303.96
258.32	2154.46
258.53	2271.20
258.75	2387.93
258.97	2129.89
259.18	2222.05
259.40	2185.18
259.62	2465.75
259.83	2353.12
260.05	2215.90
260.27	2652.12
260.48	2316.25
260.70	2090.98
260.92	2095.07
261.13	2263.01
261.35	2248.67
261.57	2285.53
261.78	2054.11
262.00	2160.61
262.22	2246.62
262.43	2183.13
262.65	2211.81
262.86	2160.61
263.08	2488.28
263.30	2213.85
263.51	2035.68
263.73	2150.37
263.95	2514.91
264.16	2234.33
264.38	2105.31
264.60	2187.23
264.81	2242.53
265.03	2353.12
265.25	2375.64
265.46	2158.56
265.68	2392.03
265.89	2310.11
266.11	2086.88
266.33	2199.52
266.54	2324.44
266.76	2285.53
266.98	2201.57
267.19	2258.91
267.41	2326.49
267.62	2299.87
267.84	2121.70
268.06	2301.92
268.27	2342.88
268.49	2291.68
268.70	2179.04
268.92	2199.52
269.14	2211.81
269.35	2109.41
269.57	2230.24
269.79	2283.49
270.00	2148.32
270.22	2375.64
270.43	2129.89
270.65	2056.16
270.87	2265.05
271.08	2381.79
271.30	2324.44
271.51	2228.19
271.73	2326.49
271.95	2295.77
272.16	2111.46
272.38	2234.33
272.59	2240.48
272.81	2303.96
273.02	2138.08
273.24	2234.33
273.46	2408.41
273.67	2064.35
273.89	2082.78
274.10	2162.66
274.32	2346.97
274.54	2285.53
274.75	2240.48
274.97	2181.09
275.18	2289.63
275.40	2314.20
275.61	2181.09
275.83	2172.89
276.05	2199.52
276.26	2195.42
276.48	2244.57
276.69	2318.30
276.91	2238.43
277.12	2342.88
277.34	2346.97
277.55	2326.49
277.77	2281.44
277.99	2207.71
278.20	2140.13
278.42	2176.99
278.63	2205.66
278.85	2248.67
279.06	2113.50
279.28	2277.34
279.49	2375.64
279.71	2377.69
279.93	2260.96
280.14	2326.49
280.36	2195.42
280.57	2281.44
280.79	2297.82
281.00	2146.27
281.22	2136.03
281.43	2367.45
281.65	2060.26
281.86	2093.02
282.08	2355.16
282.29	2461.66
282.51	2125.79
282.73	2152.42
282.94	2179.04
283.16	2340.83
283.37	2359.26
283.59	2181.09
283.80	2324.44
284.02	2230.24
284.23	2293.72
284.45	2150.37
284.66	2152.42
284.88	2146.27
285.09	2230.24
285.31	2316.25
285.52	2306.01
285.74	2144.22
285.95	2320.35
286.17	2281.44
286.38	2359.26
286.60	2176.99
286.81	2211.81
287.03	2172.89
287.24	2263.01
287.46	2330.59
287.67	2187.23
287.89	2426.84
288.10	2193.37
288.32	2209.76
288.53	2381.79
288.75	2226.14
288.96	2322.40
289.18	2123.74
289.39	2197.47
289.61	2291.68
289.82	2490.33
290.04	2414.56
290.25	2146.27
290.47	2236.38
290.68	2269.15
290.90	2334.68
291.11	2133.98
291.33	2203.61
291.54	2160.61
291.76	2172.89
291.97	2252.77
292.18	2228.19
292.40	2269.15
292.61	2191.33
292.83	2359.26
293.04	2160.61
293.26	2195.42
293.47	2201.57
293.69	2136.03
293.90	2183.13
294.12	2295.77
294.33	2232.29
294.55	2230.24
294.76	2248.67
294.97	2432.99
295.19	2516.95
295.40	2306.01
295.62	2254.81
295.83	2340.83
296.05	2176.99
296.26	2324.44
296.48	2172.89
296.69	2326.49
296.90	2265.05
297.12	2256.86
297.33	2312.16
297.55	2320.35
297.76	2267.10
297.98	2250.72
298.19	2260.96
298.41	2287.58
298.62	2195.42
298.83	2422.75
299.05	2301.92
299.26	2224.09
299.48	2172.89
299.69	2293.72
299.90	2189.28
300.12	2226.14
300.33	2318.30
300.55	2199.52
300.76	2228.19
300.98	2113.50
301.19	2289.63
301.40	2162.66
301.62	2183.13
301.83	2310.11
302.05	2308.06
302.26	2144.22
302.47	2211.81
302.69	2160.61
302.90	2256.86
303.12	2050.02
303.33	2310.11
303.54	2430.94
303.76	2238.43
303.97	2267.10
304.19	2326.49
304.40	2187.23
304.61	2340.83
304.83	2340.83
305.04	2422.75
305.26	2318.30
305.47	2236.38
305.68	2191.33
305.90	2099.17
306.11	2295.77
306.33	2244.57
306.54	2179.04
306.75	2146.27
306.97	2103.26
307.18	2191.33
307.39	2191.33
307.61	2277.34
307.82	2260.96
308.04	2301.92
308.25	2170.85
308.46	2256.86
308.68	2285.53
308.89	2217.95
309.10	2310.11
309.32	2301.92
309.53	2209.76
309.74	2203.61
309.96	2111.46
310.17	2297.82
310.39	2209.76
310.60	2326.49
310.81	2187.23
311.03	2054.11
311.24	2306.01
311.45	2250.72
311.67	2293.72
311.88	2297.82
312.09	2269.15
312.31	2248.67
312.52	2150.37
312.73	2176.99
312.95	2183.13
313.16	2066.40
313.37	2316.25
313.59	2318.30
313.80	2269.15
314.01	2381.79
314.23	2166.75
314.44	2146.27
314.65	2138.08
314.87	2174.94
315.08	2279.39
315.29	2187.23
315.51	2105.31
315.72	2093.02
315.93	2357.21
316.15	2359.26
316.36	2195.42
316.57	2338.78
316.79	2228.19
317.00	2203.61
317.21	2322.40
317.43	2107.36
317.64	2320.35
317.85	2119.65
318.07	2154.46
318.28	2254.81
318.49	2359.26
318.70	2482.14
318.92	2392.03
319.13	2441.18
319.34	2435.03
319.56	2277.34
319.77	2455.51
319.98	2291.68
320.20	2355.16
320.41	2318.30
320.62	2416.60
320.83	2152.42
321.05	2486.23
321.26	2277.34
321.47	2197.47
321.69	2359.26
321.90	2162.66
322.11	2211.81
322.32	2318.30
322.54	2287.58
322.75	2166.75
322.96	2551.77
323.18	2136.03
323.39	2119.65
323.60	2072.54
323.81	2324.44
324.03	2217.95
324.24	2269.15
324.45	2252.77
324.66	2217.95
324.88	2389.98
325.09	2351.07
325.30	2226.14
325.52	2234.33
325.73	2211.81
325.94	2183.13
326.15	2086.88
326.37	2183.13
326.58	2353.12
326.79	2408.41
327.00	2203.61
327.22	2236.38
327.43	2189.28
327.64	2148.32
327.85	2246.62
328.07	2222.05
328.28	2508.76
328.49	2244.57
328.70	2228.19
328.92	2254.81
329.13	2260.96
329.34	2308.06
329.55	2404.32
329.76	2236.38
329.98	2320.35
330.19	2385.88
330.40	2289.63
330.61	2324.44
330.83	2271.20
331.04	2205.66
331.25	2277.34
331.46	2228.19
331.68	2154.46
331.89	2357.21
332.10	2236.38
332.31	2115.55
332.52	2248.67
332.74	2381.79
332.95	2105.31
333.16	2193.37
333.37	2273.25
333.58	2191.33
333.80	2285.53
334.01	2084.83
334.22	2254.81
334.43	2201.57
334.64	2224.09
334.86	2119.65
335.07	2179.04
335.28	2351.07
335.49	2084.83
335.70	2310.11
335.92	2367.45
336.13	2465.75
336.34	2299.87
336.55	2234.33
336.76	2308.06
336.98	2045.92
337.19	2252.77
337.40	2406.36
337.61	2439.13
337.82	2203.61
338.04	2371.55
338.25	2125.79
338.46	2263.01
338.67	2256.86
338.88	2179.04
339.09	2131.94
339.31	2179.04
339.52	2207.71
339.73	2097.12
339.94	2172.89
340.15	2291.68
340.36	2209.76
340.58	2222.05
340.79	2146.27
341.00	2269.15
341.21	2078.69
341.42	2437.08
341.63	2226.14
341.85	2349.02
342.06	2244.57
342.27	2201.57
342.48	2332.64
342.69	2136.03
342.90	2246.62
343.12	2371.55
343.33	2228.19
343.54	2387.93
343.75	2424.80
343.96	2211.81
344.17	2150.37
344.38	2256.86
344.60	2117.60
344.81	2129.89
345.02	2170.85
345.23	2252.77
345.44	2504.67
345.65	2340.83
345.86	2275.29
346.07	2299.87
346.29	2246.62
346.50	2301.92
346.71	2301.92
346.92	2306.01
347.13	2375.64
347.34	2234.33
347.55	2187.23
347.76	2338.78
347.98	2088.93
348.19	2220.00
348.40	2318.30
348.61	2199.52
348.82	2432.99
349.03	2318.30
349.24	2121.70
349.45	2453.47
349.66	2045.92
349.88	2217.95
350.09	2232.29
350.30	2414.56
350.51	2361.31
350.72	2201.57
350.93	2344.92
351.14	2279.39
351.35	2285.53
351.56	2195.42
351.77	2176.99
351.99	2322.40
352.20	2392.03
352.41	2355.16
352.62	2097.12
352.83	2277.34
353.04	2295.77
353.25	2142.18
353.46	2322.40
353.67	2412.51
353.88	2088.93
354.09	2152.42
354.30	2263.01
354.52	2291.68
354.73	2236.38
354.94	2176.99
355.15	2301.92
355.36	2465.75
355.57	2201.57
355.78	2226.14
355.99	2146.27
356.20	2250.72
356.41	2324.44
356.62	2254.81
356.83	2256.86
357.04	2428.89
357.25	2088.93
357.46	2195.42
357.68	2084.83
357.89	2113.50
358.10	2277.34
358.31	2201.57
358.52	2236.38
358.73	2170.85
358.94	2183.13
359.15	2168.80
359.36	2246.62
359.57	2252.77
359.78	2179.04
359.99	2209.76
360.20	2123.74
360.41	2244.57
360.62	2326.49
360.83	2265.05
361.04	2170.85
361.25	2301.92
361.46	2469.85
361.67	2377.69
361.88	2277.34
362.09	2353.12
362.30	2291.68
362.51	2162.66
362.72	2193.37
362.93	2322.40
363.14	2285.53
363.35	2226.14
363.56	2007.01
363.78	2357.21
363.99	2406.36
364.20	2179.04
364.41	2242.53
364.62	2482.14
364.83	2263.01
365.04	2127.84
365.25	2293.72
365.46	2432.99
365.67	2150.37
365.88	2193.37
366.09	2291.68
366.30	2242.53
366.51	2273.25
366.72	2074.59
366.93	2279.39
367.14	2283.49
367.35	2383.84
367.56	2293.72
367.77	2328.54
367.98	2211.81
368.18	2303.96
368.39	2240.48
368.60	2146.27
368.81	2281.44
369.02	2267.10
369.23	2156.51
369.44	2062.30
369.65	2201.57
369.86	2338.78
370.07	2301.92
370.28	2168.80
370.49	2197.47
370.70	2281.44
370.91	2117.60
371.12	2160.61
371.33	2389.98
371.54	2234.33
371.75	2367.45
371.96	2021.35
372.17	2269.15
372.38	2244.57
372.59	2254.81
372.80	2252.77
373.01	2187.23
373.22	2258.91
373.43	2162.66
373.64	2095.07
373.85	2385.88
374.06	2441.18
374.26	2361.31
374.47	2318.30
374.68	2424.80
374.89	2297.82
375.10	2170.85
375.31	2271.20
375.52	2226.14
375.73	2287.58
375.94	2095.07
376.15	2408.41
376.36	2228.19
376.57	2166.75
376.78	2148.32
376.99	2316.25
377.20	2430.94
377.40	2234.33
377.61	2398.17
377.82	2166.75
378.03	2404.32
378.24	2330.59
378.45	2195.42
378.66	2346.97
378.87	2101.22
379.08	2090.98
379.29	2179.04
379.50	2400.22
379.71	2283.49
379.91	2332.64
380.12	2195.42
380.33	2351.07
380.54	2287.58
380.75	2287.58
380.96	2293.72
381.17	2351.07
381.38	2312.16
381.59	2324.44
381.80	2332.64
382.00	2432.99
382.21	2342.88
382.42	2408.41
382.63	2498.52
382.84	2387.93
383.05	2324.44
383.26	2525.15
383.47	2297.82
383.68	2170.85
383.88	2322.40
384.09	2283.49
384.30	2478.04
384.51	2248.67
384.72	2230.24
384.93	2117.60
385.14	2316.25
385.35	2392.03
385.55	2168.80
385.76	2445.27
385.97	2277.34
386.18	2156.51
386.39	2166.75
386.60	2154.46
386.81	2250.72
387.02	2148.32
387.22	2154.46
387.43	2336.73
387.64	2389.98
387.85	2414.56
388.06	2385.88
388.27	3958.72
388.48	8208.26
388.68	11640.65
388.89	14010.15
389.10	15085.34
389.31	14141.22
389.52	10913.63
389.73	9514.86
389.93	8615.80
390.14	7903.11
390.35	7065.49
390.56	6455.20
390.77	5306.29
390.98	4038.59
391.18	3184.59
391.39	2731.99
391.60	2463.71
391.81	2404.32
392.02	2232.29
392.23	2482.14
392.43	2252.77
392.64	2320.35
392.85	2187.23
393.06	2394.08
393.27	2322.40
393.47	2199.52
393.68	2224.09
393.89	2228.19
394.10	2394.08
394.31	2203.61
394.52	2211.81
394.72	2207.71
394.93	2351.07
395.14	2088.93
395.35	2301.92
395.56	2133.98
395.76	2330.59
395.97	2242.53
396.18	2340.83
396.39	2334.68
396.60	2721.75
396.80	2453.47
397.01	2428.89
397.22	2381.79
397.43	2488.28
397.64	2203.61
397.84	2355.16
398.05	2496.47
398.26	2193.37
398.47	2340.83
398.67	2373.60
398.88	2232.29
399.09	2342.88
399.30	2236.38
399.51	2258.91
399.71	2170.85
399.92	2277.34
400.13	2334.68
400.34	2269.15
400.54	2193.37
400.75	2482.14
400.96	2246.62
401.17	2385.88
401.37	2318.30
401.58	2226.14
401.79	2250.72
402.00	2351.07
402.21	2662.36
402.41	2549.72
402.62	2605.02
402.83	2656.22
403.04	2752.47
403.24	2777.05
403.45	2346.97
403.66	2572.25
403.87	2447.32
404.07	2619.35
404.28	2469.85
404.49	2453.47
404.70	2387.93
404.90	2410.46
405.11	2267.10
405.32	2320.35
405.52	2203.61
405.73	2152.42
405.94	2154.46
406.15	2232.29
406.35	2299.87
406.56	2349.02
406.77	2260.96
406.98	2267.10
407.18	2246.62
407.39	2430.94
407.60	2179.04
407.80	2314.20
408.01	2185.18
408.22	2346.97
408.43	2185.18
408.63	2211.81
408.84	2351.07
409.05	2410.46
409.25	2179.04
409.46	2164.70
409.67	2174.94
409.88	2162.66
410.08	2281.44
410.29	2146.27
410.50	2238.43
410.70	2299.87
410.91	2236.38
411.12	2326.49
411.32	2232.29
411.53	2197.47
411.74	2373.60
411.95	2357.21
412.15	2392.03
412.36	2404.32
412.57	2336.73
412.77	2318.30
412.98	2256.86
413.19	2260.96
413.39	2324.44
413.60	2279.39
413.81	2404.32
414.01	2240.48
414.22	2306.01
414.43	2314.20
414.63	2283.49
414.84	2381.79
415.05	2170.85
415.25	2123.74
415.46	2332.64
415.67	2197.47
415.87	2306.01
416.08	2250.72
416.29	2224.09
416.49	2344.92
416.70	2150.37
416.91	2170.85
417.11	2138.08
417.32	2303.96
417.53	2324.44
417.73	2226.14
417.94	2211.81
418.15	2267.10
418.35	2301.92
418.56	2220.00
418.77	2510.81
418.97	2242.53
419.18	2260.96
419.38	2021.35
419.59	2242.53
419.80	2482.14
420.00	2207.71
420.21	2240.48
420.42	2357.21
420.62	2269.15
420.83	2211.81
421.04	2283.49
421.24	2260.96
421.45	2353.12
421.65	2265.05
421.86	2189.28
422.07	2314.20
422.27	2322.40
422.48	2273.25
422.69	2047.97
422.89	2308.06
423.10	2220.00
423.30	2138.08
423.51	2201.57
423.72	2330.59
423.92	2422.75
424.13	2138.08
424.33	2203.61
424.54	2308.06
424.75	2176.99
424.95	2398.17
425.16	2263.01
425.36	2285.53
425.57	2303.96
425.78	2306.01
425.98	2277.34
426.19	2289.63
426.39	2146.27
426.60	2285.53
426.81	2410.46
427.01	2267.10
427.22	2125.79
427.42	2144.22
427.63	2166.75
427.83	2293.72
428.04	2422.75
428.25	2373.60
428.45	2318.30
428.66	2293.72
428.86	2273.25
429.07	2228.19
429.28	2232.29
429.48	2236.38
429.69	2172.89
429.89	2336.73
430.10	2170.85
430.30	2277.34
430.51	2404.32
430.71	2211.81
430.92	2179.04
431.13	2170.85
431.33	2320.35
431.54	2131.94
431.74	2392.03
431.95	2473.95
432.15	2127.84
432.36	2211.81
432.56	2324.44
432.77	2482.14
432.98	2422.75
433.18	2297.82
433.39	2220.00
433.59	2203.61
433.80	2455.51
434.00	2437.08
434.21	2230.24
434.41	2209.76
434.62	2537.43
434.82	2144.22
435.03	2172.89
435.23	2277.34
435.44	2129.89
435.64	2170.85
435.85	2260.96
436.06	2324.44
436.26	2287.58
436.47	2273.25
436.67	2183.13
436.88	2170.85
437.08	2377.69
437.29	2332.64
437.49	2224.09
437.70	2383.84
437.90	2224.09
438.11	2471.90
438.31	2389.98
438.52	2478.04
438.72	2488.28
438.93	2533.34
439.13	2295.77
439.34	2392.03
439.54	2330.59
439.75	2351.07
439.95	2424.80
440.16	2256.86
440.36	2269.15
440.57	2154.46
440.77	2275.29
440.98	2222.05
441.18	2359.26
441.39	2148.32
441.59	2129.89
441.80	2482.14
442.00	2203.61
442.21	2357.21
442.41	2142.18
442.62	2443.23
442.82	2197.47
443.02	2303.96
443.23	2275.29
443.43	2260.96
443.64	2365.40
443.84	2189.28
444.05	2385.88
444.25	2277.34
444.46	2195.42
444.66	2258.91
444.87	2394.08
445.07	2136.03
445.28	2220.00
445.48	2379.74
445.69	2291.68
445.89	2578.39
446.09	2277.34
446.30	2578.39
446.50	2901.97
446.71	4335.55
446.91	5525.42
447.12	6248.35
447.32	6651.80
447.53	6299.55
447.73	5119.92
447.93	4487.10
448.14	4077.51
448.34	3956.68
448.55	3669.96
448.75	3604.42
448.96	3502.03
449.16	3016.66
449.36	2897.88
449.57	2596.82
449.77	2326.49
449.98	2301.92
450.18	2351.07
450.39	2287.58
450.59	2353.12
450.79	2291.68
451.00	2209.76
451.20	2285.53
451.41	2205.66
451.61	2336.73
451.81	2168.80
452.02	2236.38
452.22	2230.24
452.43	2232.29
452.63	2191.33
452.84	2267.10
453.04	2224.09
453.24	2254.81
453.45	2160.61
453.65	2168.80
453.86	2308.06
454.06	2277.34
454.26	2289.63
454.47	2263.01
454.67	2363.36
454.87	2258.91
455.08	2365.40
455.28	2443.23
455.49	2351.07
455.69	2117.60
455.89	2418.65
456.10	2424.80
456.30	2250.72
456.51	2330.59
456.71	2285.53
456.91	2252.77
457.12	2281.44
457.32	2326.49
457.52	2158.56
457.73	2248.67
457.93	2293.72
458.14	2258.91
458.34	2144.22
458.54	2211.81
458.75	2226.14
458.95	2420.70
459.15	2273.25
459.36	2287.58
459.56	2301.92
459.76	2469.85
459.97	2287.58
460.17	2301.92
460.37	2432.99
460.58	2220.00
460.78	2310.11
460.99	2248.67
461.19	2230.24
461.39	2205.66
461.60	2273.25
461.80	2326.49
462.00	2166.75
462.21	2349.02
462.41	2240.48
462.61	2166.75
462.82	2095.07
463.02	2342.88
463.22	2138.08
463.43	2406.36
463.63	2285.53
463.83	2361.31
464.04	2379.74
464.24	2269.15
464.44	2138.08
464.64	2183.13
464.85	2373.60
465.05	2414.56
465.25	2232.29
465.46	2191.33
465.66	2303.96
465.86	2381.79
466.07	2244.57
466.27	2279.39
466.47	2007.01
466.68	2039.78
466.88	2394.08
467.08	2314.20
467.29	2285.53
467.49	2271.20
467.69	2287.58
467.89	2340.83
468.10	2267.10
468.30	2273.25
468.50	2396.12
468.71	2418.65
468.91	2136.03
469.11	2428.89
469.31	2238.43
469.52	2162.66
469.72	2424.80
469.92	2400.22
470.13	2236.38
470.33	2297.82
470.53	2359.26
470.73	2619.35
470.94	3100.62
471.14	3141.58
471.34	3542.99
471.54	3438.54
471.75	3102.67
471.95	2758.61
472.15	2721.75
472.36	2707.41
472.56	2721.75
472.76	2742.23
472.96	2666.46
473.17	2584.54
473.37	2469.85
473.57	2367.45
473.77	2377.69
473.98	2263.01
474.18	2224.09
474.38	2545.63
474.58	2248.67
474.79	2183.13
474.99	2422.75
475.19	2404.32
475.39	2144.22
475.60	2326.49
475.80	2269.15
476.00	2316.25
476.20	2201.57
476.41	2242.53
476.61	2392.03
476.81	2439.13
477.01	2170.85
477.21	2414.56
477.42	2334.68
477.62	2121.70
477.82	2281.44
478.02	2213.85
478.23	2318.30
478.43	2121.70
478.63	2275.29
478.83	2310.11
479.03	2195.42
479.24	2381.79
479.44	2475.99
479.64	2166.75
479.84	2095.07
480.04	2240.48
480.25	2281.44
480.45	2230.24
480.65	2250.72
480.85	2432.99
481.06	2293.72
481.26	2287.58
481.46	2260.96
481.66	2240.48
481.86	2129.89
482.06	2291.68
482.27	2168.80
482.47	2203.61
482.67	2318.30
482.87	2203.61
483.07	2338.78
483.28	2181.09
483.48	2174.94
483.68	2162.66
483.88	2138.08
484.08	2105.31
484.29	2187.23
484.49	2265.05
484.69	2064.35
484.89	2422.75
485.09	2310.11
485.29	2301.92
485.50	2269.15
485.70	2281.44
485.90	2422.75
486.10	2263.01
486.30	2316.25
486.50	2338.78
486.71	2379.74
486.91	2340.83
487.11	2432.99
487.31	2148.32
487.51	2330.59
487.71	2158.56
487.91	2158.56
488.12	2193.37
488.32	2039.78
488.52	2209.76
488.72	2111.46
488.92	2293.72
489.12	2381.79
489.32	2377.69
489.53	2369.50
489.73	2146.27
489.93	2486.23
490.13	2172.89
490.33	2129.89
490.53	2299.87
490.73	2385.88
490.94	2117.60
491.14	2324.44
491.34	2410.46
491.54	2570.20
491.74	3162.06
491.94	3837.89
492.14	4003.78
492.34	4243.39
492.54	3811.27
492.75	3295.18
492.95	3088.34
493.15	2944.98
493.35	2944.98
493.55	2840.53
493.75	2725.85
493.95	2832.34
494.15	2562.01
494.35	2457.56
494.56	2375.64
494.76	2232.29
494.96	2265.05
495.16	2293.72
495.36	2310.11
495.56	2291.68
495.76	2244.57
495.96	2172.89
496.16	2146.27
496.36	2469.85
496.56	2226.14
496.77	2275.29
496.97	2209.76
497.17	2414.56
497.37	2074.59
497.57	2277.34
497.77	2359.26
497.97	2152.42
498.17	2250.72
498.37	2234.33
498.57	2402.27
498.77	2224.09
498.97	2267.10
499.17	2488.28
499.38	2244.57
499.58	2336.73
499.78	2412.51
499.98	2396.12
500.18	2263.01
500.38	2174.94
500.58	2389.98
500.78	2893.78
500.98	5089.20
501.18	7227.28
501.38	8767.35
501.58	9920.36
501.78	9410.42
501.98	7565.20
502.18	6432.67
502.38	5406.64
502.58	5216.18
502.78	4650.94
502.98	4462.52
503.18	4159.42
503.38	3915.72
503.59	3403.72
503.79	3192.78
503.99	2934.74
504.19	2867.16
504.39	2797.53
504.59	2785.24
504.79	2858.96
504.99	2924.50
505.19	2529.24
505.39	2490.33
505.59	2639.83
505.79	2580.44
505.99	2486.23
506.19	2318.30
506.39	2400.22
506.59	2207.71
506.79	2269.15
506.99	2387.93
507.19	2281.44
507.39	2306.01
507.59	2136.03
507.79	2203.61
507.99	2191.33
508.19	2230.24
508.39	2215.90
508.59	2242.53
508.79	2392.03
508.99	2467.80
509.19	2215.90
509.39	2406.36
509.59	2164.70
509.79	2119.65
509.99	2279.39
510.19	2445.27
510.39	2301.92
510.59	2293.72
510.79	2244.57
510.99	2160.61
511.19	2244.57
511.39	2439.13
511.59	2326.49
511.79	2330.59
511.99	2195.42
512.19	2363.36
512.38	2342.88
512.58	2162.66
512.78	2269.15
512.98	2394.08
513.18	2441.18
513.38	2168.80
513.58	2228.19
513.78	2326.49
513.98	2308.06
514.18	2193.37
514.38	2217.95
514.58	2340.83
514.78	2203.61
514.98	2158.56
515.18	2195.42
515.38	2150.37
515.58	2484.19
515.78	2217.95
515.98	2240.48
516.18	2324.44
516.38	2162.66
516.57	2150.37
516.77	2197.47
516.97	2338.78
517.17	2220.00
517.37	2107.36
517.57	2349.02
517.77	2273.25
517.97	2285.53
518.17	2308.06
518.37	2183.13
518.57	2203.61
518.77	2172.89
518.97	2289.63
519.16	2346.97
519.36	2359.26
519.56	2170.85
519.76	2260.96
519.96	2289.63
520.16	2439.13
520.36	2174.94
520.56	2367.45
520.76	2113.50
520.96	2232.29
521.16	2430.94
521.35	2357.21
521.55	2516.95
521.75	2254.81
521.95	2232.29
522.15	2256.86
522.35	2068.45
522.55	2250.72
522.75	2416.60
522.95	2271.20
523.14	2138.08
523.34	2254.81
523.54	2199.52
523.74	2381.79
523.94	2281.44
524.14	2176.99
524.34	2351.07
524.54	2410.46
524.73	2226.14
524.93	2375.64
525.13	2332.64
525.33	2174.94
525.53	2516.95
525.73	2377.69
525.93	2316.25
526.13	2244.57
526.32	2256.86
526.52	2351.07
526.72	2310.11
526.92	2203.61
527.12	2244.57
527.32	2088.93
527.52	2277.34
527.71	2220.00
527.91	2244.57
528.11	2277.34
528.31	2265.05
528.51	2129.89
528.71	2306.01
528.90	2299.87
529.10	2424.80
529.30	2349.02
529.50	2095.07
529.70	2279.39
529.90	2287.58
530.09	2306.01
530.29	2105.31
530.49	2234.33
530.69	2521.05
530.89	2326.49
531.09	2250.72
531.28	2275.29
531.48	2430.94
531.68	2297.82
531.88	2332.64
532.08	2408.41
532.28	2324.44
532.47	2408.41
532.67	2455.51
532.87	2318.30
533.07	2250.72
533.27	2314.20
533.46	2396.12
533.66	2293.72
533.86	2244.57
534.06	2260.96
534.26	2346.97
534.45	2306.01
534.65	2385.88
534.85	2338.78
535.05	2244.57
535.25	2432.99
535.44	2111.46
535.64	2301.92
535.84	2336.73
536.04	2166.75
536.24	2211.81
536.43	2150.37
536.63	2240.48
536.83	2289.63
537.03	2228.19
537.22	2168.80
537.42	2105.31
537.62	2217.95
537.82	2109.41
538.02	2357.21
538.21	2381.79
538.41	2625.50
538.61	2275.29
538.81	2220.00
539.00	2328.54
539.20	2232.29
539.40	2199.52
539.60	2275.29
539.79	2310.11
539.99	2265.05
540.19	2154.46
540.39	2215.90
540.58	2258.91
540.78	2265.05
540.98	2291.68
541.18	2254.81
541.37	2369.50
541.57	2318.30
541.77	2285.53
541.97	2152.42
542.16	2170.85
542.36	2273.25
542.56	2265.05
542.76	2457.56
542.95	2283.49
543.15	2285.53
543.35	2346.97
543.54	2162.66
543.74	2256.86
543.94	2418.65
544.14	2211.81
544.33	2275.29
544.53	2238.43
544.73	2265.05
544.93	2215.90
545.12	2269.15
545.32	2222.05
545.52	2236.38
545.71	2146.27
545.91	2215.90
546.11	2215.90
546.30	2138.08
546.50	2242.53
546.70	2314.20
546.90	2299.87
547.09	2074.59
547.29	2244.57
547.49	2267.10
547.68	2213.85
547.88	2117.60
548.08	2244.57
548.27	2813.91
548.47	2222.05
548.67	2217.95
548.87	2238.43
549.06	2295.77
549.26	2293.72
549.46	2283.49
549.65	2164.70
549.85	2228.19
550.05	2220.00
550.24	2154.46
550.44	2232.29
550.64	2238.43
550.83	2283.49
551.03	2375.64
551.23	2389.98
551.42	2301.92
551.62	2136.03
551.82	2355.16
552.01	2172.89
552.21	2375.64
552.41	2263.01
552.60	2416.60
552.80	2230.24
553.00	2211.81
553.19	2299.87
553.39	2385.88
553.59	2080.74
553.78	2224.09
553.98	2318.30
554.17	2203.61
554.37	2228.19
554.57	2258.91
554.76	2160.61
554.96	2187.23
555.16	2267.10
555.35	2269.15
555.55	2349.02
555.75	2349.02
555.94	2351.07
556.14	2133.98
556.33	2269.15
556.53	2297.82
556.73	2310.11
556.92	2308.06
557.12	2295.77
557.32	2539.48
557.51	2375.64
557.71	2342.88
557.90	2402.27
558.10	2312.16
558.30	2226.14
558.49	2260.96
558.69	2258.91
558.88	2242.53
559.08	2158.56
559.28	2217.95
559.47	2306.01
559.67	2318.30
559.86	2504.67
560.06	2308.06
560.26	2211.81
560.45	2267.10
560.65	2265.05
560.84	2422.75
561.04	2181.09
561.24	2361.31
561.43	2166.75
561.63	2453.47
561.82	2306.01
562.02	2308.06
562.22	2256.86
562.41	2166.75
562.61	2166.75
562.80	2154.46
563.00	2492.38
563.19	2281.44
563.39	2312.16
563.59	2328.54
563.78	2197.47
563.98	2062.30
564.17	2148.32
564.37	2109.41
564.56	2277.34
564.76	2166.75
564.96	2334.68
565.15	2330.59
565.35	2559.96
565.54	2273.25
565.74	2344.92
565.93	2303.96
566.13	2265.05
566.32	2248.67
566.52	2404.32
566.71	2301.92
566.91	2351.07
567.11	2357.21
567.30	2226.14
567.50	2258.91
567.69	2293.72
567.89	2310.11
568.08	2279.39
568.28	2287.58
568.47	2121.70
568.67	2252.77
568.86	2199.52
569.06	2330.59
569.25	2248.67
569.45	2152.42
569.64	2172.89
569.84	2195.42
570.04	2252.77
570.23	2260.96
570.43	2215.90
570.62	2277.34
570.82	2420.70
571.01	2146.27
571.21	2152.42
571.40	2211.81
571.60	2342.88
571.79	2332.64
571.99	2252.77
572.18	2150.37
572.38	2328.54
572.57	2258.91
572.77	2314.20
572.96	2566.10
573.16	2269.15
573.35	2291.68
573.55	2416.60
573.74	2285.53
573.94	2273.25
574.13	2191.33
574.33	2338.78
574.52	2379.74
574.71	2340.83
574.91	2308.06
575.10	2025.44
575.30	2234.33
575.49	2252.77
575.69	2199.52
575.88	2320.35
576.08	2215.90
576.27	2392.03
576.47	2342.88
576.66	2473.95
576.86	2398.17
577.05	2318.30
577.25	2295.77
577.44	2482.14
577.64	2330.59
577.83	2383.84
578.02	2285.53
578.22	2398.17
578.41	2351.07
578.61	2267.10
578.80	2181.09
579.00	2271.20
579.19	2263.01
579.39	2351.07
579.58	2369.50
579.77	2230.24
579.97	2459.61
580.16	2363.36
580.36	2322.40
580.55	2385.88
580.75	2263.01
580.94	2275.29
581.13	2445.27
581.33	2482.14
581.52	2283.49
581.72	2525.15
581.91	2387.93
582.11	2258.91
582.30	2340.83
582.49	2338.78
582.69	2361.31
582.88	2383.84
583.08	2357.21
583.27	2420.70
583.47	2308.06
583.66	2230.24
583.85	2121.70
584.05	2277.34
584.24	2402.27
584.44	2324.44
584.63	2379.74
584.82	2514.91
585.02	2457.56
585.21	2473.95
585.41	2398.17
585.60	2406.36
585.79	2594.78
585.99	2578.39
586.18	2498.52
586.37	3006.42
586.57	4677.56
586.76	13743.92
586.96	33027.59
587.15	47082.80
587.34	55837.87
587.54	61281.37
587.73	55854.25
587.93	39394.73
588.12	30148.15
588.31	24043.15
588.51	21055.17
588.70	19341.02
588.89	17225.47
589.09	15314.71
589.28	13047.61
589.47	10436.45
589.67	8468.35
589.86	6424.48
590.06	4673.46
590.25	3854.28
590.44	3190.74
590.64	2820.05
590.83	2641.88
591.02	2586.58
591.22	2369.50
591.41	2457.56
591.60	2336.73
591.80	2545.63
591.99	2203.61
592.18	2314.20
592.38	2359.26
592.57	2228.19
592.76	2338.78
592.96	2306.01
593.15	2232.29
593.34	2463.71
593.54	2306.01
593.73	2328.54
593.92	2314.20
594.12	2351.07
594.31	2252.77
594.50	2410.46
594.70	2334.68
594.89	2541.53
595.08	2138.08
595.28	2330.59
595.47	2611.16
595.66	2414.56
595.86	2203.61
596.05	2220.00
596.24	2267.10
596.43	2508.76
596.63	2310.11
596.82	2310.11
597.01	2349.02
597.21	2432.99
597.40	2351.07
597.59	2328.54
597.79	2258.91
597.98	2357.21
598.17	2269.15
598.36	2293.72
598.56	2400.22
598.75	2213.85
598.94	2351.07
599.14	2275.29
599.33	2168.80
599.52	2308.06
599.71	2342.88
599.91	2324.44
600.10	2367.45
600.29	2289.63
600.48	2365.40
600.68	2379.74
600.87	2277.34
601.06	2256.86
601.26	2250.72
601.45	2361.31
601.64	2228.19
601.83	2430.94
602.03	2183.13
602.22	2076.64
602.41	2306.01
602.60	2549.72
602.80	2359.26
602.99	2324.44
603.18	2252.77
603.37	2269.15
603.57	2326.49
603.76	2328.54
603.95	2353.12
604.14	2279.39
604.34	2119.65
604.53	2267.10
604.72	2381.79
604.91	2326.49
605.10	2246.62
605.30	2279.39
605.49	2490.33
605.68	2369.50
605.87	2355.16
606.07	2176.99
606.26	2293.72
606.45	2295.77
606.64	2283.49
606.84	2260.96
607.03	2299.87
607.22	2447.32
607.41	2295.77
607.60	2340.83
607.80	2330.59
607.99	2285.53
608.18	2275.29
608.37	2176.99
608.56	2195.42
608.76	2340.83
608.95	2455.51
609.14	2301.92
609.33	2455.51
609.52	2514.91
609.72	2412.51
609.91	2359.26
610.10	2357.21
610.29	2490.33
610.48	2373.60
610.68	2402.27
610.87	2277.34
611.06	2375.64
611.25	2324.44
611.44	2351.07
611.63	2258.91
611.83	2385.88
612.02	2179.04
612.21	2359.26
612.40	2080.74
612.59	2199.52
612.79	2187.23
612.98	2224.09
613.17	2404.32
613.36	2359.26
613.55	2367.45
613.74	2367.45
613.93	2303.96
614.13	2371.55
614.32	2484.19
614.51	2445.27
614.70	2273.25
614.89	2250.72
615.08	2367.45
615.28	2785.24
615.47	2250.72
615.66	2463.71
615.85	2326.49
616.04	2475.99
616.23	2263.01
616.42	2271.20
616.62	2359.26
616.81	2344.92
617.00	2265.05
617.19	2299.87
617.38	2244.57
617.57	2263.01
617.76	2351.07
617.95	2363.36
618.15	2232.29
618.34	2475.99
618.53	2154.46
618.72	2342.88
618.91	2410.46
619.10	2381.79
619.29	2281.44
619.48	2287.58
619.68	2228.19
619.87	2228.19
620.06	2166.75
620.25	2346.97
620.44	2207.71
620.63	2269.15
620.82	2258.91
621.01	2281.44
621.20	2232.29
621.39	2338.78
621.59	2310.11
621.78	2334.68
621.97	2367.45
622.16	2312.16
622.35	2234.33
622.54	2342.88
622.73	2297.82
622.92	2076.64
623.11	2324.44
623.30	2285.53
623.49	2232.29
623.68	2217.95
623.88	2394.08
624.07	2240.48
624.26	2293.72
624.45	2334.68
624.64	2297.82
624.83	2211.81
625.02	2250.72
625.21	2224.09
625.40	2248.67
625.59	2381.79
625.78	2256.86
625.97	2375.64
626.16	2400.22
626.35	2439.13
626.54	2406.36
626.74	2449.37
626.93	2283.49
627.12	2308.06
627.31	2342.88
627.50	2322.40
627.69	2308.06
627.88	2207.71
628.07	2195.42
628.26	2084.83
628.45	2232.29
628.64	2146.27
628.83	2263.01
629.02	2115.55
629.21	2365.40
629.40	2240.48
629.59	2207.71
629.78	2195.42
629.97	2197.47
630.16	2342.88
630.35	2236.38
630.54	2275.29
630.73	2211.81
630.92	2289.63
631.11	2097.12
631.30	2203.61
631.49	2375.64
631.68	2236.38
631.87	2277.34
632.06	2195.42
632.25	2559.96
632.44	2301.92
632.63	2308.06
632.82	2240.48
633.01	2256.86
633.20	2346.97
633.39	2332.64
633.58	2142.18
633.77	2273.25
633.96	2336.73
634.15	2342.88
634.34	2301.92
634.53	2269.15
634.72	2199.52
634.91	2082.78
635.10	2283.49
635.29	2383.84
635.48	2306.01
635.67	2199.52
635.86	2201.57
636.05	2367.45
636.24	2318.30
636.43	2297.82
636.62	2320.35
636.81	1994.72
637.00	2301.92
637.19	2322.40
637.38	2252.77
637.57	2312.16
637.76	2271.20
637.95	2408.41
638.14	2324.44
638.33	2383.84
638.52	2303.96
638.71	2226.14
638.89	2203.61
639.08	2559.96
639.27	2326.49
639.46	2467.80
639.65	2879.44
639.84	2809.81
640.03	2961.36
640.22	2906.07
640.41	2924.50
640.60	2535.39
640.79	2602.97
640.98	2451.42
641.17	2473.95
641.36	2402.27
641.55	2406.36
641.74	2242.53
641.92	2187.23
642.11	2201.57
642.30	2275.29
642.49	2236.38
642.68	2203.61
642.87	2297.82
643.06	2336.73
643.25	2281.44
643.44	2207.71
643.63	2260.96
643.82	2306.01
644.00	2131.94
644.19	2263.01
644.38	2158.56
644.57	2287.58
644.76	2351.07
644.95	2291.68
645.14	2330.59
645.33	2248.67
645.52	2277.34
645.71	2107.36
645.89	2109.41
646.08	2187.23
646.27	2205.66
646.46	2420.70
646.65	2101.22
646.84	2342.88
647.03	2105.31
647.22	2299.87
647.40	2258.91
647.59	2242.53
647.78	2152.42
647.97	2119.65
648.16	2107.36
648.35	2445.27
648.54	2408.41
648.73	2265.05
648.91	2334.68
649.10	2238.43
649.29	2187.23
649.48	2215.90
649.67	2260.96
649.86	2248.67
650.05	2301.92
650.23	2535.39
650.42	2289.63
650.61	2461.66
650.80	2463.71
650.99	2611.16
651.18	2475.99
651.36	2504.67
651.55	2289.63
651.74	2412.51
651.93	2260.96
652.12	2299.87
652.31	2293.72
652.49	2258.91
652.68	2285.53
652.87	2439.13
653.06	2332.64
653.25	2455.51
653.44	2242.53
653.62	2408.41
653.81	2244.57
654.00	2324.44
654.19	2330.59
654.38	2549.72
654.56	2430.94
654.75	2232.29
654.94	2334.68
655.13	2244.57
655.32	2291.68
655.51	2334.68
655.69	2265.05
655.88	2312.16
656.07	2105.31
656.26	2318.30
656.45	2203.61
656.63	2234.33
656.82	2267.10
657.01	2389.98
657.20	2185.18
657.38	2412.51
657.57	2181.09
657.76	2086.88
657.95	2383.84
658.14	2170.85
658.32	2273.25
658.51	2156.51
658.70	2236.38
658.89	2260.96
659.08	2244.57
659.26	2465.75
659.45	2299.87
659.64	2355.16
659.83	2271.20
660.01	2543.58
660.20	2297.82
660.39	2482.14
660.58	2127.84
660.76	2344.92
660.95	2158.56
661.14	2263.01
661.33	2183.13
661.51	2248.67
661.70	2256.86
661.89	2277.34
662.08	2256.86
662.26	2131.94
662.45	2215.90
662.64	2467.80
662.83	2316.25
663.01	2191.33
663.20	2195.42
663.39	2404.32
663.58	2222.05
663.76	2238.43
663.95	2396.12
664.14	2170.85
664.32	2254.81
664.51	2213.85
664.70	2109.41
664.89	2277.34
665.07	2119.65
665.26	2387.93
665.45	2097.12
665.64	2412.51
665.82	2197.47
666.01	2349.02
666.20	2105.31
666.38	2404.32
666.57	2459.61
666.76	3397.58
666.95	8265.60
667.13	16164.62
667.32	21241.53
667.51	24864.39
667.69	26576.49
667.88	24178.32
668.07	17192.70
668.25	13918.00
668.44	11534.16
668.63	9963.37
668.81	8687.48
669.00	7778.19
669.19	6778.78
669.38	5965.73
669.56	5103.54
669.75	4388.80
669.94	3700.68
670.12	3104.72
670.31	2709.46
670.50	2605.02
670.68	2537.43
670.87	2396.12
671.06	2293.72
671.24	2359.26
671.43	2514.91
671.62	2320.35
671.80	2187.23
671.99	2332.64
672.18	2279.39
672.36	2322.40
672.55	2318.30
672.74	2289.63
672.92	2195.42
673.11	2250.72
673.29	2183.13
673.48	2293.72
673.67	2140.13
673.85	2357.21
674.04	2164.70
674.23	2220.00
674.41	2492.38
674.60	2162.66
674.79	2150.37
674.97	2144.22
675.16	2310.11
675.34	2357.21
675.53	2228.19
675.72	2328.54
675.90	2428.89
676.09	2232.29
676.28	2299.87
676.46	2107.36
676.65	2373.60
676.83	2203.61
677.02	2224.09
677.21	2228.19
677.39	2220.00
677.58	2179.04
677.77	2242.53
677.95	2154.46
678.14	2211.81
678.32	2209.76
678.51	2211.81
678.70	2430.94
678.88	2260.96
679.07	2295.77
679.25	2285.53
679.44	2293.72
679.63	2179.04
679.81	2310.11
680.00	2404.32
680.18	2273.25
680.37	2453.47
680.55	2244.57
680.74	2195.42
680.93	2086.88
681.11	2289.63
681.30	2297.82
681.48	2340.83
681.67	2238.43
681.85	2193.37
682.04	2179.04
682.23	2314.20
682.41	2277.34
682.60	2297.82
682.78	2220.00
682.97	2201.57
683.15	2287.58
683.34	2316.25
683.53	2381.79
683.71	2133.98
683.90	2369.50
684.08	2392.03
684.27	2246.62
684.45	2220.00
684.64	2430.94
684.82	2291.68
685.01	2334.68
685.19	2277.34
685.38	2375.64
685.57	2234.33
685.75	2107.36
685.94	2170.85
686.12	2238.43
686.31	2209.76
686.49	2340.83
686.68	2039.78
686.86	2287.58
687.05	2140.13
687.23	2346.97
687.42	2176.99
687.60	2107.36
687.79	2326.49
687.97	2353.12
688.16	2293.72
688.34	2381.79
688.53	2084.83
688.71	2328.54
688.90	2326.49
689.08	2226.14
689.27	2066.40
689.45	2367.45
689.64	2297.82
689.82	2314.20
690.01	2267.10
690.19	2269.15
690.38	2293.72
690.56	2336.73
690.75	2164.70
690.93	2158.56
691.12	2195.42
691.30	2185.18
691.49	2195.42
691.67	2346.97
691.86	2387.93
692.04	2185.18
692.23	2179.04
692.41	2277.34
692.60	2494.43
692.78	2332.64
692.97	2285.53
693.15	2379.74
693.34	2437.08
693.52	2357.21
693.71	2162.66
693.89	2209.76
694.08	2072.54
694.26	2328.54
694.44	2408.41
694.63	2355.16
694.81	2164.70
695.00	2142.18
695.18	2400.22
695.37	2504.67
695.55	2250.72
695.74	2144.22
695.92	2179.04
696.10	2457.56
696.29	2142.18
696.47	2244.57
696.66	2129.89
696.84	2179.04
697.03	2224.09
697.21	2473.95
697.40	3366.86
697.58	2357.21
697.76	2213.85
697.95	2183.13
698.13	2211.81
698.32	2191.33
698.50	2170.85
698.68	2344.92
698.87	2265.05
699.05	2441.18
699.24	2265.05
699.42	2125.79
699.61	2236.38
699.79	2258.91
699.97	2232.29
700.16	2179.04
700.34	2129.89
700.53	2179.04
700.71	2406.36
700.89	2283.49
701.08	2250.72
701.26	2310.11
701.45	2850.77
701.63	2201.57
701.81	2152.42
702.00	2250.72
702.18	2316.25
702.37	2267.10
702.55	2449.37
702.73	2430.94
702.92	2277.34
703.10	2609.11
703.28	2516.95
703.47	2332.64
703.65	2447.32
703.84	2443.23
704.02	2279.39
704.20	2553.82
704.39	2226.14
704.57	2310.11
704.75	2359.26
704.94	2308.06
705.12	2342.88
705.30	2490.33
705.49	4440.00
705.67	10325.86
705.86	18106.09
706.04	22015.66
706.22	25028.23
706.41	25927.28
706.59	22175.41
706.77	15597.33
706.96	13012.79
707.14	11435.86
707.32	9772.91
707.51	8929.14
707.69	7241.62
707.87	5879.72
708.06	4716.47
708.24	3983.30
708.42	3246.03
708.61	3053.52
708.79	2498.52
708.97	2455.51
709.16	2389.98
709.34	2363.36
709.52	2224.09
709.71	2240.48
709.89	2295.77
710.07	2181.09
710.26	2201.57
710.44	2162.66
710.62	2346.97
710.80	2269.15
710.99	2408.41
711.17	2320.35
711.35	2242.53
711.54	2211.81
711.72	2334.68
711.90	2285.53
712.09	2275.29
712.27	2187.23
712.45	2338.78
712.63	2213.85
712.82	2195.42
713.00	2267.10
713.18	2330.59
713.37	2367.45
713.55	2346.97
713.73	2291.68
713.91	2310.11
714.10	2252.77
714.28	2166.75
714.46	2283.49
714.65	2232.29
714.83	2220.00
715.01	2318.30
715.19	2281.44
715.38	2150.37
715.56	2336.73
715.74	2136.03
715.92	2170.85
716.11	2449.37
716.29	2015.20
716.47	2220.00
716.65	2277.34
716.84	2072.54
717.02	2373.60
717.20	2037.73
717.38	2170.85
717.57	2277.34
717.75	2287.58
717.93	2199.52
718.11	2332.64
718.30	2185.18
718.48	2336.73
718.66	2383.84
718.84	2346.97
719.03	2211.81
719.21	2052.06
719.39	2449.37
719.57	2334.68
719.75	2428.89
719.94	2121.70
720.12	2258.91
720.30	2236.38
720.48	2355.16
720.67	2187.23
720.85	2220.00
721.03	2215.90
721.21	2181.09
721.39	2281.44
721.58	2310.11
721.76	2252.77
721.94	2240.48
722.12	2324.44
722.30	2379.74
722.49	2228.19
722.67	2224.09
722.85	2265.05
723.03	2097.12
723.21	2242.53
723.40	2301.92
723.58	2392.03
723.76	2314.20
723.94	2377.69
724.12	2269.15
724.30	2461.66
724.49	2375.64
724.67	2150.37
724.85	2381.79
725.03	2183.13
725.21	2326.49
725.40	2475.99
725.58	2246.62
725.76	2369.50
725.94	2299.87
726.12	2176.99
726.30	2267.10
726.49	2230.24
726.67	2160.61
726.85	2252.77
727.03	2539.48
727.21	3684.30
727.39	4945.84
727.57	5824.42
727.76	6434.72
727.94	6664.09
728.12	6350.75
728.30	5083.06
728.48	4448.19
728.66	4052.93
728.84	3743.69
729.03	3303.37
729.21	3022.80
729.39	2705.37
729.57	2416.60
729.75	2490.33
729.93	2355.16
730.11	2295.77
730.30	2222.05
730.48	2279.39
730.66	2416.60
730.84	2328.54
731.02	2285.53
731.20	2158.56
731.38	2318.30
731.56	2197.47
731.74	2158.56
731.93	2334.68
732.11	2244.57
732.29	2273.25
732.47	2355.16
732.65	2275.29
732.83	2418.65
733.01	2252.77
733.19	2166.75
733.37	2318.30
733.56	2293.72
733.74	2263.01
733.92	2361.31
734.10	2142.18
734.28	2365.40
734.46	2078.69
734.64	2166.75
734.82	2228.19
735.00	2211.81
735.18	2193.37
735.36	2228.19
735.54	2220.00
735.73	2240.48
735.91	2162.66
736.09	2252.77
736.27	2281.44
736.45	2342.88
736.63	2035.68
736.81	2220.00
736.99	2285.53
737.17	2318.30
737.35	2195.42
737.53	2285.53
737.71	2170.85
737.89	2332.64
738.07	2265.05
738.25	2136.03
738.43	2129.89
738.61	2207.71
738.80	2133.98
738.98	2125.79
739.16	2205.66
739.34	2144.22
739.52	2394.08
739.70	2189.28
739.88	2314.20
740.06	2318.30
740.24	2015.20
740.42	2414.56
740.60	2054.11
740.78	2146.27
740.96	2015.20
741.14	2158.56
741.32	2260.96
741.50	2039.78
741.68	2478.04
741.86	2367.45
742.04	2103.26
742.22	2179.04
742.40	2281.44
742.58	2318.30
742.76	2146.27
742.94	2365.40
743.12	2127.84
743.30	2342.88
743.48	2375.64
743.66	2246.62
743.84	2355.16
744.02	2248.67
744.20	2260.96
744.38	2138.08
744.56	2187.23
744.74	2449.37
744.92	2326.49
745.10	2373.60
745.28	2232.29
745.46	2408.41
745.64	2222.05
745.82	2289.63
746.00	2207.71
746.18	2283.49
746.36	2133.98
746.54	2265.05
746.72	2176.99
746.90	2205.66
747.08	2326.49
747.26	2156.51
747.44	2351.07
747.62	2326.49
747.80	2285.53
747.98	2301.92
748.15	2236.38
748.33	2490.33
748.51	2310.11
748.69	2371.55
748.87	2123.74
749.05	2207.71
749.23	2263.01
749.41	2258.91
749.59	2242.53
749.77	2326.49
749.95	2170.85
750.13	2142.18
750.31	2351.07
750.49	2260.96
750.67	2314.20
750.85	2396.12
751.03	2236.38
751.20	2449.37
751.38	2195.42
751.56	2209.76
751.74	2217.95
751.92	2168.80
752.10	2226.14
752.28	2365.40
752.46	2209.76
752.64	2250.72
752.82	2232.29
753.00	2351.07
753.18	2150.37
753.35	2281.44
753.53	2244.57
753.71	2146.27
753.89	2396.12
754.07	2287.58
754.25	2404.32
754.43	2306.01
754.61	2127.84
754.79	2332.64
754.97	2220.00
755.14	2373.60
755.32	2181.09
755.50	2258.91
755.68	2277.34
755.86	2209.76
756.04	2107.36
756.22	2052.06
756.40	2301.92
756.57	2437.08
756.75	2213.85
756.93	2334.68
757.11	2406.36
757.29	2146.27
757.47	2119.65
757.65	2084.83
757.82	2039.78
758.00	2183.13
758.18	2176.99
758.36	2144.22
758.54	2496.47
758.72	2029.54
758.90	2336.73
759.07	2246.62
759.25	2168.80
759.43	2226.14
759.61	2125.79
759.79	3211.22
759.97	2275.29
760.15	2179.04
760.32	2199.52
760.50	2318.30
760.68	2437.08
760.86	2105.31
761.04	2359.26
761.22	2250.72
761.39	2242.53
761.57	2285.53
761.75	2203.61
761.93	2375.64
762.11	2232.29
762.28	2224.09
762.46	2150.37
762.64	2428.89
762.82	2121.70
763.00	2228.19
763.18	2430.94
763.35	2160.61
763.53	2297.82
763.71	2142.18
763.89	2248.67
764.07	2312.16
764.24	2228.19
764.42	2287.58
764.60	2213.85
764.78	2217.95
764.96	2310.11
765.13	2285.53
765.31	2246.62
765.49	2312.16
765.67	2113.50
765.84	2207.71
766.02	2195.42
766.20	2121.70
766.38	2285.53
766.56	2256.86
766.73	2375.64
766.91	2258.91
767.09	2271.20
767.27	2306.01
767.44	2187.23
767.62	2324.44
767.80	2310.11
767.98	2256.86
768.15	2213.85
768.33	2330.59
768.51	2340.83
768.69	2326.49
768.87	2263.01
769.04	2260.96
769.22	2482.14
769.40	2365.40
769.58	2455.51
769.75	2351.07
769.93	2342.88
770.11	2240.48
770.28	2148.32
770.46	2340.83
770.64	2256.86
770.82	2164.70
770.99	2201.57
771.17	2351.07
771.35	2224.09
771.53	2252.77
771.70	2256.86
771.88	2269.15
772.06	2228.19
772.23	2162.66
772.41	2318.30
772.59	2187.23
772.77	2179.04
772.94	2232.29
773.12	2318.30
773.30	2176.99
773.47	2338.78
773.65	2160.61
773.83	2363.36
774.01	2228.19
774.18	2086.88
774.36	2240.48
774.54	2133.98
774.71	2334.68
774.89	2056.16
775.07	2158.56
775.24	2199.52
775.42	2189.28
775.60	2373.60
775.78	2226.14
775.95	2050.02
776.13	2011.11
776.31	2047.97
776.48	2201.57
776.66	2400.22
776.84	2236.38
777.01	2244.57
777.19	2109.41
777.37	2187.23
777.54	2275.29
777.72	2463.71
777.90	2199.52
778.07	2179.04
778.25	2611.16
778.43	2344.92
778.60	2215.90
778.78	2308.06
778.96	2357.21
779.13	2129.89
779.31	2340.83
779.49	2205.66
779.66	2236.38
779.84	2236.38
780.01	2201.57
780.19	2183.13
780.37	2355.16
780.54	2254.81
780.72	2236.38
780.90	2211.81
781.07	2113.50
781.25	2136.03
781.43	2310.11
781.60	2217.95
781.78	2308.06
781.95	2244.57
782.13	2166.75
782.31	2215.90
782.48	2070.50
782.66	2260.96
782.83	2512.86
783.01	2293.72
783.19	2265.05
783.36	2220.00
783.54	2056.16
783.72	2318.30
783.89	2236.38
784.07	2236.38
784.24	2281.44
784.42	2342.88
784.60	2260.96
784.77	2291.68
784.95	2109.41
785.12	2111.46
785.30	2295.77
785.47	2142.18
785.65	2131.94
785.83	2217.95
786.00	2179.04
786.18	2293.72
786.35	2121.70
786.53	2205.66
786.71	2336.73
786.88	2330.59
787.06	2314.20
787.23	2176.99
787.41	2207.71
787.58	2263.01
787.76	2117.60
787.94	2234.33
788.11	2330.59
788.29	2240.48
788.46	2217.95
788.64	2121.70
788.81	2236.38
788.99	2127.84
789.16	2172.89
789.34	2263.01
789.52	2176.99
789.69	2179.04
789.87	2088.93
790.04	2201.57
790.22	2271.20
790.39	2498.52
790.57	2283.49
790.74	2133.98
790.92	2369.50
791.09	2191.33
791.27	2267.10
791.44	2279.39
791.62	2215.90
791.79	2342.88
791.97	2260.96
792.15	2512.86
792.32	2260.96
792.50	2406.36
792.67	2353.12
792.85	2349.02
793.02	2260.96
793.20	2162.66
793.37	2115.55
793.55	2176.99
793.72	2105.31
793.90	2260.96
794.07	2158.56
794.25	2123.74
794.42	2285.53
794.60	2162.66
794.77	2287.58
794.95	2340.83
795.12	2342.88
795.30	2258.91
795.47	2113.50
795.65	2519.00
795.82	2252.77
796.00	2150.37
796.17	2203.61
796.34	2187.23
796.52	2187.23
796.69	2277.34
796.87	2363.36
797.04	2250.72
797.22	2379.74
797.39	2273.25
797.57	2367.45
797.74	2289.63
797.92	2306.01
798.09	2162.66
798.27	2346.97
798.44	2246.62
798.62	2193.37
798.79	2215.90
798.96	2369.50
799.14	2199.52
799.31	2463.71
799.49	2269.15
799.66	2191.33
799.84	2293.72
800.01	2056.16
800.19	2328.54
800.36	2052.06
800.53	2179.04
800.71	2367.45
800.88	2375.64
801.06	2136.03
801.23	2179.04
801.41	2269.15
801.58	2172.89
801.75	2207.71
801.93	2355.16
802.10	2349.02
802.28	2250.72
802.45	2215.90
802.63	2289.63
802.80	2334.68
802.97	2152.42
803.15	2236.38
803.32	2246.62
803.50	2195.42
803.67	2113.50
803.84	2127.84
804.02	2355.16
804.19	2193.37
804.37	2025.44
804.54	2236.38
804.71	2191.33
804.89	2258.91
805.06	2117.60
805.24	2146.27
805.41	2176.99
805.58	2166.75
805.76	2502.62
805.93	2244.57
806.10	2349.02
806.28	2234.33
806.45	2232.29
806.63	2273.25
806.80	2168.80
806.97	2256.86
807.15	2252.77
807.32	2369.50
807.49	2211.81
807.67	2129.89
807.84	2263.01
808.01	2121.70
808.19	2414.56
808.36	2523.10
808.54	2281.44
808.71	2127.84
808.88	2287.58
809.06	2312.16
809.23	2381.79
809.40	2111.46
809.58	2346.97
809.75	2211.81
809.92	2154.46
810.10	2492.38
810.27	2248.67
810.44	2375.64
810.62	2322.40
810.79	2277.34
810.96	2154.46
811.14	2176.99
811.31	2340.83
811.48	2342.88
811.66	2213.85
811.83	2359.26
812.00	2375.64
812.18	2234.33
812.35	2478.04
812.52	2220.00
812.69	2172.89
812.87	2203.61
813.04	2152.42
813.21	2213.85
813.39	2179.04
813.56	2129.89
813.73	2361.31
813.91	2080.74
814.08	2265.05
814.25	2258.91
814.42	2107.36
814.60	2252.77
814.77	2230.24
814.94	2215.90
815.12	2283.49
815.29	2392.03
815.46	2209.76
815.63	2197.47
815.81	2306.01
815.98	2220.00
816.15	2185.18
816.33	2136.03
816.50	2187.23
816.67	2215.90
816.84	2201.57
817.02	2199.52
817.19	2187.23
817.36	2283.49
817.53	2254.81
817.71	2146.27
817.88	2314.20
818.05	2273.25
818.22	2166.75
818.40	2396.12
818.57	2181.09
818.74	2314.20
818.91	2242.53
819.09	2357.21
819.26	2365.40
819.43	2211.81
819.60	2189.28
819.78	2291.68
819.95	2340.83
820.12	2103.26
820.29	2430.94
820.47	2381.79
820.64	2111.46
820.81	2129.89
820.98	2195.42
821.15	2236.38
821.33	2289.63
821.50	2080.74
821.67	2246.62
821.84	2187.23
822.02	2252.77
822.19	2336.73
822.36	2203.61
822.53	2142.18
822.70	2146.27
822.88	2228.19
823.05	2312.16
823.22	2138.08
823.39	2306.01
823.56	2215.90
823.74	2455.51
823.91	2144.22
824.08	2099.17
824.25	2119.65
824.42	2398.17
824.60	2105.31
824.77	2342.88
824.94	2181.09
825.11	2353.12
825.28	2068.45
825.45	2295.77
825.63	2267.10
825.80	2115.55
825.97	2334.68
826.14	2203.61
826.31	2154.46
826.48	2220.00
826.66	2158.56
826.83	2277.34
827.00	2244.57
827.17	2119.65
827.34	2242.53
827.51	2142.18
827.69	2158.56
827.86	2047.97
828.03	2234.33
828.20	2260.96
828.37	2199.52
828.54	2215.90
828.71	2144.22
828.89	2359.26
829.06	2240.48
829.23	2475.99
829.40	2183.13
829.57	2207.71
829.74	2365.40
829.91	2209.76
830.09	2236.38
830.26	2338.78
830.43	2379.74
830.60	2228.19
830.77	2301.92
830.94	2324.44
831.11	2271.20
831.28	2125.79
831.46	2379.74
831.63	2297.82
831.80	2297.82
831.97	2119.65
832.14	2179.04
832.31	2320.35
832.48	2260.96
832.65	2353.12
832.82	2189.28
832.99	2285.53
833.17	2144.22
833.34	2439.13
833.51	2277.34
833.68	2056.16
833.85	2306.01
834.02	2113.50
834.19	2129.89
834.36	2197.47
834.53	2291.68
834.70	2310.11
834.87	2312.16
835.04	2142.18
835.22	2146.27
835.39	2195.42
835.56	2105.31
835.73	2131.94
835.90	2357.21
836.07	2158.56
836.24	2246.62
836.41	2113.50
836.58	2170.85
836.75	2398.17
836.92	2269.15
837.09	2123.74
837.26	2234.33
837.43	2293.72
837.60	2293.72
837.77	2183.13
837.94	2351.07
838.12	2418.65
838.29	2127.84
838.46	2060.26
838.63	2084.83
838.80	2330.59
838.97	2232.29
839.14	2207.71
839.31	2236.38
839.48	2379.74
839.65	2195.42
839.82	2269.15
839.99	2332.64
840.16	2260.96
840.33	2199.52
840.50	2283.49
840.67	2111.46
840.84	2117.60
841.01	2209.76
841.18	2156.51
841.35	2166.75
841.52	2308.06
841.69	2416.60
841.86	2220.00
842.03	2236.38
842.20	2381.79
842.37	2156.51
842.54	2240.48
842.71	2187.23
842.88	2039.78
843.05	2265.05
843.22	2193.37
843.39	2277.34
843.56	2187.23
843.73	2213.85
843.90	2185.18
844.07	2252.77
844.24	2346.97
844.41	2228.19
844.58	2215.90
844.75	2297.82
844.92	2301.92
845.09	2203.61
845.26	2209.76
845.43	2357.21
845.60	2213.85
845.77	2287.58
845.94	2232.29
846.10	2246.62
846.27	2109.41
846.44	2093.02
846.61	2170.85
846.78	2326.49
846.95	2269.15
847.12	2162.66
847.29	2228.19
847.46	2127.84
847.63	2340.83
847.80	2164.70
847.97	2181.09
848.14	2469.85
848.31	2275.29
848.48	2111.46
848.65	2265.05
848.82	2205.66
848.98	2498.52
849.15	2299.87
849.32	2326.49
849.49	2234.33
849.66	2224.09
849.83	2203.61
850.00	2107.36
850.17	2383.84
850.34	2097.12
850.51	2156.51
850.68	2220.00
850.85	2435.03
851.01	2217.95
851.18	2258.91
851.35	2176.99
851.52	2226.14
851.69	2420.70
851.86	2072.54
852.03	2093.02
852.20	2279.39
852.37	2211.81
852.53	2054.11
852.70	2138.08
852.87	2318.30
853.04	2256.86
853.21	2277.34
853.38	2248.67
853.55	2340.83
853.72	2330.59
853.89	2111.46
854.05	2146.27
854.22	2236.38
854.39	2115.55
854.56	2176.99
854.73	2277.34
854.90	2199.52
855.07	2285.53
855.23	2119.65
855.40	2179.04
855.57	2297.82
855.74	2058.21
855.91	2408.41
856.08	2142.18
856.25	2119.65
856.41	2226.14
856.58	2162.66
856.75	2275.29
856.92	2064.35
857.09	2256.86
857.26	2054.11
857.42	2287.58
857.59	2361.31
857.76	2213.85
857.93	2228.19
858.10	2203.61
858.27	2109.41
858.43	2170.85
858.60	2174.94
858.77	1974.24
858.94	2166.75
859.11	2299.87
859.27	2203.61
859.44	2213.85
859.61	2437.08
859.78	2332.64
859.95	2148.32
860.12	2127.84
860.28	2490.33
860.45	2449.37
860.62	2215.90
860.79	2242.53
860.95	2260.96
861.12	2121.70
861.29	2136.03
861.46	2156.51
861.63	2260.96
861.79	2308.06
861.96	2080.74
862.13	2160.61
862.30	2398.17
862.47	2209.76
862.63	2183.13
862.80	2236.38
862.97	2322.40
863.14	2285.53
863.30	2207.71
863.47	2232.29
863.64	2441.18
863.81	2328.54
863.97	2220.00
864.14	2236.38
864.31	2224.09
864.48	2287.58
864.65	2099.17
864.81	2299.87
864.98	2287.58
865.15	2314.20
865.32	2217.95
865.48	2334.68
865.65	2349.02
865.82	2166.75
865.98	2213.85
866.15	2246.62
866.32	2199.52
866.49	2269.15
866.65	2332.64
866.82	2211.81
866.99	2193.37
867.16	2166.75
867.32	2203.61
867.49	2150.37
867.66	2226.14
867.83	2254.81
867.99	2095.07
868.16	2252.77
868.33	2152.42
868.49	2199.52
868.66	2158.56
868.83	2269.15
868.99	2232.29
869.16	2334.68
869.33	2277.34
869.50	2254.81
869.66	2238.43
869.83	2258.91
870.00	2054.11
870.16	2246.62
870.33	2301.92
870.50	2236.38
870.66	2267.10
870.83	2271.20
871.00	2185.18
871.17	2248.67
871.33	2252.77
871.50	2230.24
871.67	2250.72
871.83	2111.46
872.00	2250.72
872.17	2154.46
872.33	2418.65
872.50	2306.01
872.67	2185.18
872.83	2187.23
873.00	2236.38
873.17	2277.34
873.33	2289.63
873.50	2273.25
873.67	2193.37
873.83	2170.85
874.00	2213.85
874.16	2379.74
874.33	2224.09
874.50	2121.70
874.66	2197.47
874.83	2195.42
875.00	2351.07
875.16	2310.11
875.33	2217.95
875.50	2095.07
875.66	2207.71
875.83	2260.96
875.99	2267.10
876.16	2152.42
876.33	2162.66
876.49	2166.75
876.66	2191.33
876.83	2228.19
876.99	2121.70
877.16	2256.86
877.32	2154.46
877.49	2150.37
877.66	2211.81
877.82	2396.12
877.99	2258.91
878.15	2334.68
878.32	2224.09
878.49	2277.34
878.65	2162.66
878.82	2326.49
878.98	2222.05
879.15	2353.12
879.32	2303.96
879.48	2205.66
879.65	2234.33
879.81	2084.83
879.98	2140.13
880.15	2201.57
880.31	2346.97
880.48	2154.46
880.64	2303.96
880.81	2299.87
880.97	2400.22
881.14	2365.40
881.31	2195.42
881.47	2340.83
881.64	2148.32
881.80	2105.31
881.97	2211.81
882.13	2273.25
882.30	2158.56
882.47	2144.22
882.63	2150.37
882.80	2224.09
882.96	2201.57
883.13	2475.99
883.29	2277.34
883.46	2209.76
883.62	2439.13
883.79	2293.72
883.95	2324.44
884.12	2113.50
884.29	2301.92
884.45	2250.72
884.62	2275.29
884.78	2107.36
884.95	2381.79
885.11	2115.55
885.28	2283.49
885.44	2154.46
885.61	2310.11
885.77	2355.16
885.94	2277.34
886.10	2273.25
886.27	2318.30
886.43	2418.65
886.60	2367.45
886.76	2224.09
886.93	2187.23
887.09	2275.29
887.26	2115.55
887.42	2199.52
887.59	2404.32
887.75	2510.81
887.92	2326.49
888.08	2281.44
888.25	2408.41
888.41	2314.20
888.58	2183.13
888.74	2068.45
888.91	2232.29
>>>>>End Processed Spectral Data<<<<<
