SpectraSuite Data File
++++++++++++++++++++++++++++++++++++
Date: Thu May 05 13:21:04 CEST 2016
User: root
Dark Spectrum Present: No
Reference Spectrum Present: No
Number of Sampled Component Spectra: 1
Spectrometers: USB4C02835
Integration Time (usec): 100000 (USB4C02835)
Spectra Averaged: 1 (USB4C02835)
Boxcar Smoothing: 0 (USB4C02835)
Correct for Electrical Dark: No (USB4C02835)
Strobe/Lamp Enabled: No (USB4C02835)
Correct for Detector Non-linearity: No (USB4C02835)
Correct for Stray Light: No (USB4C02835)
Number of Pixels in Processed Spectrum: 3648
>>>>>Begin Processed Spectral Data<<<<<
177.47	1748.97
177.69	1748.97
177.91	1748.97
178.13	1802.21
178.36	1814.50
178.58	2086.88
178.80	2308.06
179.02	2084.83
179.24	2121.70
179.46	2113.50
179.68	2277.34
179.90	2244.57
180.13	2248.67
180.35	2152.42
180.57	2176.99
180.79	2334.68
181.01	2154.46
181.23	2217.95
181.45	2269.15
181.67	2340.83
181.90	2275.29
182.12	2191.33
182.34	2058.21
182.56	2301.92
182.78	2330.59
183.00	2154.46
183.22	2232.29
183.44	2060.26
183.66	2545.63
183.89	2260.96
184.11	2234.33
184.33	2283.49
184.55	2351.07
184.77	2154.46
184.99	2189.28
185.21	2144.22
185.43	2420.70
185.65	2187.23
185.87	2189.28
186.10	2492.38
186.32	2488.28
186.54	2224.09
186.76	2254.81
186.98	2330.59
187.20	2254.81
187.42	2129.89
187.64	2166.75
187.86	2318.30
188.08	2351.07
188.30	2021.35
188.52	2250.72
188.75	2375.64
188.97	2492.38
189.19	2203.61
189.41	2209.76
189.63	2355.16
189.85	2271.20
190.07	2054.11
190.29	2064.35
190.51	2283.49
190.73	2093.02
190.95	2287.58
191.17	2191.33
191.39	2146.27
191.61	2248.67
191.84	2162.66
192.06	2248.67
192.28	2033.63
192.50	2512.86
192.72	2187.23
192.94	2205.66
193.16	2377.69
193.38	2326.49
193.60	2093.02
193.82	2193.37
194.04	2318.30
194.26	2336.73
194.48	2220.00
194.70	2123.74
194.92	2236.38
195.14	2316.25
195.36	2109.41
195.58	2193.37
195.80	2236.38
196.02	2166.75
196.24	2146.27
196.46	2228.19
196.69	2283.49
196.91	2537.43
197.13	2146.27
197.35	2205.66
197.57	2387.93
197.79	2240.48
198.01	2256.86
198.23	2267.10
198.45	2365.40
198.67	2172.89
198.89	2080.74
199.11	2306.01
199.33	2121.70
199.55	2023.39
199.77	2232.29
199.99	2303.96
200.21	2176.99
200.43	2260.96
200.65	2054.11
200.87	2086.88
201.09	2267.10
201.31	2211.81
201.53	2207.71
201.75	2207.71
201.97	2232.29
202.19	2260.96
202.41	2244.57
202.63	2289.63
202.85	2351.07
203.07	2242.53
203.29	2142.18
203.51	2148.32
203.73	2193.37
203.95	2543.58
204.17	2205.66
204.39	2275.29
204.61	2277.34
204.83	2269.15
205.05	2283.49
205.27	2299.87
205.49	2498.52
205.71	2203.61
205.93	2045.92
206.15	2090.98
206.37	2297.82
206.59	2240.48
206.81	2154.46
207.03	2125.79
207.25	2109.41
207.47	2371.55
207.69	2133.98
207.91	2396.12
208.13	2400.22
208.34	2168.80
208.56	2138.08
208.78	2183.13
209.00	2195.42
209.22	2248.67
209.44	2152.42
209.66	2142.18
209.88	2334.68
210.10	2248.67
210.32	2189.28
210.54	2369.50
210.76	2220.00
210.98	2414.56
211.20	2097.12
211.42	2252.77
211.64	2349.02
211.86	2228.19
212.08	2258.91
212.30	2172.89
212.52	2215.90
212.74	2310.11
212.96	2226.14
213.17	2228.19
213.39	2363.36
213.61	2301.92
213.83	2215.90
214.05	2234.33
214.27	2412.51
214.49	2115.55
214.71	2197.47
214.93	2236.38
215.15	2289.63
215.37	2275.29
215.59	2035.68
215.81	2240.48
216.03	2398.17
216.24	2191.33
216.46	2248.67
216.68	2187.23
216.90	2437.08
217.12	2367.45
217.34	2146.27
217.56	2252.77
217.78	2422.75
218.00	2293.72
218.22	2209.76
218.44	2260.96
218.66	2324.44
218.87	2506.71
219.09	2109.41
219.31	2191.33
219.53	2256.86
219.75	2248.67
219.97	2199.52
220.19	2234.33
220.41	2222.05
220.63	2420.70
220.85	2162.66
221.06	2236.38
221.28	2332.64
221.50	2340.83
221.72	2199.52
221.94	2203.61
222.16	2207.71
222.38	2281.44
222.60	2203.61
222.82	2162.66
223.03	2353.12
223.25	2166.75
223.47	2140.13
223.69	2285.53
223.91	2373.60
224.13	2248.67
224.35	2121.70
224.57	2324.44
224.78	2314.20
225.00	2160.61
225.22	2195.42
225.44	2207.71
225.66	2351.07
225.88	2234.33
226.10	2240.48
226.32	2185.18
226.53	2334.68
226.75	2228.19
226.97	2228.19
227.19	2166.75
227.41	2195.42
227.63	2228.19
227.85	2119.65
228.06	2203.61
228.28	2187.23
228.50	2215.90
228.72	2168.80
228.94	2142.18
229.16	2007.01
229.37	2105.31
229.59	2101.22
229.81	2301.92
230.03	2242.53
230.25	2078.69
230.47	2129.89
230.69	2203.61
230.90	2240.48
231.12	2213.85
231.34	2187.23
231.56	2232.29
231.78	2176.99
232.00	2269.15
232.21	2234.33
232.43	2148.32
232.65	2043.87
232.87	2283.49
233.09	2058.21
233.30	2117.60
233.52	2338.78
233.74	2226.14
233.96	2201.57
234.18	2191.33
234.40	2303.96
234.61	2480.09
234.83	2103.26
235.05	2084.83
235.27	2523.10
235.49	2408.41
235.70	2121.70
235.92	2248.67
236.14	2277.34
236.36	2539.48
236.58	2095.07
236.79	2260.96
237.01	2248.67
237.23	2215.90
237.45	2328.54
237.67	2160.61
237.88	2285.53
238.10	2475.99
238.32	2131.94
238.54	2179.04
238.76	2207.71
238.97	2156.51
239.19	2086.88
239.41	2174.94
239.63	2463.71
239.85	2203.61
240.06	2176.99
240.28	2160.61
240.50	2306.01
240.72	2256.86
240.93	2127.84
241.15	2209.76
241.37	2187.23
241.59	2353.12
241.81	2211.81
242.02	2224.09
242.24	2291.68
242.46	2306.01
242.68	2129.89
242.89	2199.52
243.11	2322.40
243.33	2336.73
243.55	2213.85
243.76	2246.62
243.98	2146.27
244.20	2275.29
244.42	2133.98
244.64	2232.29
244.85	2093.02
245.07	2179.04
245.29	2213.85
245.51	2205.66
245.72	2265.05
245.94	2435.03
246.16	2191.33
246.38	2207.71
246.59	2220.00
246.81	2179.04
247.03	2109.41
247.24	2043.87
247.46	2158.56
247.68	2334.68
247.90	2115.55
248.11	2228.19
248.33	2369.50
248.55	2236.38
248.77	2162.66
248.98	2211.81
249.20	2500.57
249.42	2267.10
249.64	2252.77
249.85	2244.57
250.07	2203.61
250.29	2258.91
250.50	2277.34
250.72	2127.84
250.94	2330.59
251.16	2437.08
251.37	2144.22
251.59	2191.33
251.81	2359.26
252.02	2398.17
252.24	2172.89
252.46	2342.88
252.68	2197.47
252.89	2189.28
253.11	2088.93
253.33	2324.44
253.54	2326.49
253.76	2133.98
253.98	2119.65
254.20	2142.18
254.41	2168.80
254.63	2312.16
254.85	2076.64
255.06	2146.27
255.28	2340.83
255.50	2265.05
255.71	2203.61
255.93	2125.79
256.15	2197.47
256.36	2326.49
256.58	2162.66
256.80	2203.61
257.02	2271.20
257.23	2211.81
257.45	2162.66
257.67	2213.85
257.88	2207.71
258.10	2320.35
258.32	2166.75
258.53	2179.04
258.75	2443.23
258.97	2181.09
259.18	2160.61
259.40	2113.50
259.62	2465.75
259.83	2418.65
260.05	2228.19
260.27	2676.70
260.48	2351.07
260.70	2191.33
260.92	2136.03
261.13	2162.66
261.35	2332.64
261.57	2340.83
261.78	2070.50
262.00	2144.22
262.22	2383.84
262.43	2289.63
262.65	2183.13
262.86	2168.80
263.08	2471.90
263.30	2240.48
263.51	2043.87
263.73	2156.51
263.95	2349.02
264.16	2260.96
264.38	2099.17
264.60	2148.32
264.81	2275.29
265.03	2316.25
265.25	2283.49
265.46	2113.50
265.68	2416.60
265.89	2363.36
266.11	2103.26
266.33	2193.37
266.54	2387.93
266.76	2308.06
266.98	2338.78
267.19	2359.26
267.41	2346.97
267.62	2228.19
267.84	2072.54
268.06	2234.33
268.27	2228.19
268.49	2349.02
268.70	2220.00
268.92	2154.46
269.14	2146.27
269.35	2119.65
269.57	2170.85
269.79	2271.20
270.00	2156.51
270.22	2445.27
270.43	2088.93
270.65	2023.39
270.87	2351.07
271.08	2320.35
271.30	2209.76
271.51	2152.42
271.73	2365.40
271.95	2387.93
272.16	2133.98
272.38	2238.43
272.59	2189.28
272.81	2371.55
273.02	2088.93
273.24	2234.33
273.46	2365.40
273.67	2179.04
273.89	2101.22
274.10	2109.41
274.32	2287.58
274.54	2277.34
274.75	2236.38
274.97	2127.84
275.18	2359.26
275.40	2240.48
275.61	2236.38
275.83	2242.53
276.05	2117.60
276.26	2310.11
276.48	2191.33
276.69	2238.43
276.91	2164.70
277.12	2324.44
277.34	2301.92
277.55	2244.57
277.77	2250.72
277.99	2199.52
278.20	2099.17
278.42	2066.40
278.63	2181.09
278.85	2199.52
279.06	2193.37
279.28	2324.44
279.49	2383.84
279.71	2367.45
279.93	2170.85
280.14	2236.38
280.36	2140.13
280.57	2340.83
280.79	2324.44
281.00	2170.85
281.22	2179.04
281.43	2314.20
281.65	2072.54
281.86	2174.94
282.08	2332.64
282.29	2410.46
282.51	2113.50
282.73	2080.74
282.94	2074.59
283.16	2351.07
283.37	2410.46
283.59	2256.86
283.80	2320.35
284.02	2285.53
284.23	2275.29
284.45	2074.59
284.66	2172.89
284.88	2234.33
285.09	2287.58
285.31	2287.58
285.52	2281.44
285.74	2097.12
285.95	2297.82
286.17	2250.72
286.38	2392.03
286.60	2203.61
286.81	2209.76
287.03	2191.33
287.24	2222.05
287.46	2301.92
287.67	2293.72
287.89	2377.69
288.10	2303.96
288.32	2424.80
288.53	2359.26
288.75	2277.34
288.96	2279.39
289.18	2187.23
289.39	2291.68
289.61	2291.68
289.82	2473.95
290.04	2449.37
290.25	2170.85
290.47	2211.81
290.68	2242.53
290.90	2342.88
291.11	2095.07
291.33	2226.14
291.54	2113.50
291.76	2170.85
291.97	2234.33
292.18	2238.43
292.40	2269.15
292.61	2226.14
292.83	2465.75
293.04	2285.53
293.26	2187.23
293.47	2099.17
293.69	2162.66
293.90	2176.99
294.12	2363.36
294.33	2232.29
294.55	2226.14
294.76	2316.25
294.97	2297.82
295.19	2445.27
295.40	2148.32
295.62	2234.33
295.83	2279.39
296.05	2146.27
296.26	2263.01
296.48	2150.37
296.69	2232.29
296.90	2250.72
297.12	2389.98
297.33	2346.97
297.55	2242.53
297.76	2275.29
297.98	2367.45
298.19	2238.43
298.41	2252.77
298.62	2117.60
298.83	2340.83
299.05	2246.62
299.26	2162.66
299.48	2160.61
299.69	2265.05
299.90	2289.63
300.12	2129.89
300.33	2361.31
300.55	2301.92
300.76	2336.73
300.98	2174.94
301.19	2308.06
301.40	2211.81
301.62	2158.56
301.83	2246.62
302.05	2314.20
302.26	2250.72
302.47	2301.92
302.69	2170.85
302.90	2312.16
303.12	1925.09
303.33	2334.68
303.54	2410.46
303.76	2220.00
303.97	2260.96
304.19	2353.12
304.40	2205.66
304.61	2269.15
304.83	2344.92
305.04	2408.41
305.26	2310.11
305.47	2220.00
305.68	2213.85
305.90	2121.70
306.11	2375.64
306.33	2271.20
306.54	2127.84
306.75	2222.05
306.97	2117.60
307.18	2185.18
307.39	2195.42
307.61	2242.53
307.82	2252.77
308.04	2310.11
308.25	2232.29
308.46	2271.20
308.68	2242.53
308.89	2195.42
309.10	2303.96
309.32	2250.72
309.53	2269.15
309.74	2271.20
309.96	2154.46
310.17	2289.63
310.39	2201.57
310.60	2334.68
310.81	2256.86
311.03	2105.31
311.24	2365.40
311.45	2263.01
311.67	2422.75
311.88	2252.77
312.09	2228.19
312.31	2209.76
312.52	2203.61
312.73	2250.72
312.95	2105.31
313.16	2179.04
313.37	2385.88
313.59	2295.77
313.80	2326.49
314.01	2428.89
314.23	2211.81
314.44	2127.84
314.65	2101.22
314.87	2154.46
315.08	2224.09
315.29	2183.13
315.51	2183.13
315.72	2166.75
315.93	2328.54
316.15	2269.15
316.36	2170.85
316.57	2297.82
316.79	2281.44
317.00	2133.98
317.21	2291.68
317.43	2107.36
317.64	2267.10
317.85	2099.17
318.07	2193.37
318.28	2285.53
318.49	2322.40
318.70	2559.96
318.92	2383.84
319.13	2357.21
319.34	2443.23
319.56	2361.31
319.77	2334.68
319.98	2369.50
320.20	2365.40
320.41	2336.73
320.62	2375.64
320.83	2119.65
321.05	2400.22
321.26	2301.92
321.47	2271.20
321.69	2351.07
321.90	2172.89
322.11	2156.51
322.32	2293.72
322.54	2389.98
322.75	2138.08
322.96	2576.34
323.18	2152.42
323.39	2152.42
323.60	2121.70
323.81	2306.01
324.03	2232.29
324.24	2246.62
324.45	2265.05
324.66	2119.65
324.88	2357.21
325.09	2392.03
325.30	2201.57
325.52	2207.71
325.73	2338.78
325.94	2101.22
326.15	2064.35
326.37	2158.56
326.58	2224.09
326.79	2435.03
327.00	2181.09
327.22	2230.24
327.43	2256.86
327.64	2121.70
327.85	2342.88
328.07	2308.06
328.28	2461.66
328.49	2220.00
328.70	2316.25
328.92	2187.23
329.13	2129.89
329.34	2353.12
329.55	2412.51
329.76	2310.11
329.98	2271.20
330.19	2416.60
330.40	2246.62
330.61	2260.96
330.83	2346.97
331.04	2224.09
331.25	2252.77
331.46	2222.05
331.68	2168.80
331.89	2383.84
332.10	2303.96
332.31	2138.08
332.52	2179.04
332.74	2303.96
332.95	2101.22
333.16	2166.75
333.37	2234.33
333.58	2248.67
333.80	2265.05
334.01	2125.79
334.22	2162.66
334.43	2154.46
334.64	2258.91
334.86	2105.31
335.07	2107.36
335.28	2426.84
335.49	2138.08
335.70	2289.63
335.92	2340.83
336.13	2420.70
336.34	2394.08
336.55	2320.35
336.76	2238.43
336.98	2136.03
337.19	2263.01
337.40	2359.26
337.61	2504.67
337.82	2240.48
338.04	2320.35
338.25	2117.60
338.46	2217.95
338.67	2236.38
338.88	2111.46
339.09	2093.02
339.31	2183.13
339.52	2152.42
339.73	2095.07
339.94	2209.76
340.15	2332.64
340.36	2242.53
340.58	2332.64
340.79	2101.22
341.00	2301.92
341.21	2211.81
341.42	2363.36
341.63	2224.09
341.85	2398.17
342.06	2260.96
342.27	2123.74
342.48	2359.26
342.69	2136.03
342.90	2320.35
343.12	2322.40
343.33	2170.85
343.54	2328.54
343.75	2404.32
343.96	2193.37
344.17	2193.37
344.38	2269.15
344.60	2103.26
344.81	2144.22
345.02	2205.66
345.23	2291.68
345.44	2529.24
345.65	2338.78
345.86	2269.15
346.07	2316.25
346.29	2209.76
346.50	2220.00
346.71	2306.01
346.92	2367.45
347.13	2467.80
347.34	2183.13
347.55	2119.65
347.76	2301.92
347.98	2078.69
348.19	2220.00
348.40	2363.36
348.61	2224.09
348.82	2463.71
349.03	2301.92
349.24	2138.08
349.45	2461.66
349.66	2060.26
349.88	2195.42
350.09	2158.56
350.30	2389.98
350.51	2316.25
350.72	2244.57
350.93	2265.05
351.14	2267.10
351.35	2293.72
351.56	2248.67
351.77	2185.18
351.99	2318.30
352.20	2375.64
352.41	2310.11
352.62	2172.89
352.83	2217.95
353.04	2271.20
353.25	2174.94
353.46	2322.40
353.67	2373.60
353.88	2066.40
354.09	2310.11
354.30	2250.72
354.52	2295.77
354.73	2256.86
354.94	2258.91
355.15	2275.29
355.36	2430.94
355.57	2240.48
355.78	2349.02
355.99	2267.10
356.20	2242.53
356.41	2424.80
356.62	2285.53
356.83	2273.25
357.04	2428.89
357.25	2029.54
357.46	2152.42
357.68	2103.26
357.89	2195.42
358.10	2197.47
358.31	2185.18
358.52	2217.95
358.73	2142.18
358.94	2217.95
359.15	2211.81
359.36	2293.72
359.57	2127.84
359.78	2158.56
359.99	2277.34
360.20	2193.37
360.41	2101.22
360.62	2375.64
360.83	2246.62
361.04	2283.49
361.25	2308.06
361.46	2455.51
361.67	2301.92
361.88	2299.87
362.09	2359.26
362.30	2334.68
362.51	2222.05
362.72	2215.90
362.93	2359.26
363.14	2242.53
363.35	2297.82
363.56	2191.33
363.78	2389.98
363.99	2332.64
364.20	2179.04
364.41	2267.10
364.62	2441.18
364.83	2271.20
365.04	2185.18
365.25	2236.38
365.46	2572.25
365.67	2197.47
365.88	2285.53
366.09	2142.18
366.30	2279.39
366.51	2301.92
366.72	2109.41
366.93	2222.05
367.14	2263.01
367.35	2375.64
367.56	2197.47
367.77	2365.40
367.98	2195.42
368.18	2396.12
368.39	2222.05
368.60	2207.71
368.81	2324.44
369.02	2299.87
369.23	2170.85
369.44	2119.65
369.65	2213.85
369.86	2260.96
370.07	2312.16
370.28	2269.15
370.49	2220.00
370.70	2349.02
370.91	2136.03
371.12	2058.21
371.33	2359.26
371.54	2232.29
371.75	2326.49
371.96	2013.15
372.17	2275.29
372.38	2346.97
372.59	2213.85
372.80	2277.34
373.01	2308.06
373.22	2287.58
373.43	2244.57
373.64	2131.94
373.85	2301.92
374.06	2547.67
374.26	2373.60
374.47	2269.15
374.68	2420.70
374.89	2365.40
375.10	2146.27
375.31	2240.48
375.52	2244.57
375.73	2344.92
375.94	2160.61
376.15	2324.44
376.36	2222.05
376.57	2187.23
376.78	2154.46
376.99	2254.81
377.20	2441.18
377.40	2250.72
377.61	2457.56
377.82	2203.61
378.03	2392.03
378.24	2275.29
378.45	2203.61
378.66	2226.14
378.87	2195.42
379.08	2086.88
379.29	2209.76
379.50	2439.13
379.71	2277.34
379.91	2322.40
380.12	2281.44
380.33	2265.05
380.54	2260.96
380.75	2228.19
380.96	2250.72
381.17	2330.59
381.38	2246.62
381.59	2242.53
381.80	2179.04
382.00	2432.99
382.21	2301.92
382.42	2441.18
382.63	2510.81
382.84	2330.59
383.05	2406.36
383.26	2488.28
383.47	2220.00
383.68	2355.16
383.88	2357.21
384.09	2269.15
384.30	2406.36
384.51	2279.39
384.72	2142.18
384.93	2133.98
385.14	2236.38
385.35	2322.40
385.55	2119.65
385.76	2377.69
385.97	2183.13
386.18	2064.35
386.39	2189.28
386.60	2211.81
386.81	2242.53
387.02	2123.74
387.22	2140.13
387.43	2383.84
387.64	2314.20
387.85	2342.88
388.06	2439.13
388.27	4001.73
388.48	8066.95
388.68	11458.39
388.89	13809.45
389.10	14837.53
389.31	13881.13
389.52	10778.46
389.73	9305.97
389.93	8519.55
390.14	7790.47
390.35	7063.44
390.56	6301.60
390.77	5337.01
390.98	4030.40
391.18	3194.83
391.39	2752.47
391.60	2281.44
391.81	2357.21
392.02	2234.33
392.23	2482.14
392.43	2285.53
392.64	2355.16
392.85	2263.01
393.06	2570.20
393.27	2265.05
393.47	2160.61
393.68	2203.61
393.89	2160.61
394.10	2443.23
394.31	2248.67
394.52	2176.99
394.72	2162.66
394.93	2328.54
395.14	2138.08
395.35	2301.92
395.56	2174.94
395.76	2172.89
395.97	2334.68
396.18	2318.30
396.39	2375.64
396.60	2691.03
396.80	2578.39
397.01	2404.32
397.22	2373.60
397.43	2392.03
397.64	2213.85
397.84	2310.11
398.05	2478.04
398.26	2281.44
398.47	2432.99
398.67	2326.49
398.88	2254.81
399.09	2328.54
399.30	2160.61
399.51	2328.54
399.71	2166.75
399.92	2252.77
400.13	2320.35
400.34	2308.06
400.54	2293.72
400.75	2404.32
400.96	2299.87
401.17	2445.27
401.37	2308.06
401.58	2291.68
401.79	2236.38
402.00	2422.75
402.21	2625.50
402.41	2625.50
402.62	2645.98
402.83	2660.31
403.04	2645.98
403.24	2877.40
403.45	2406.36
403.66	2576.34
403.87	2498.52
404.07	2490.33
404.28	2519.00
404.49	2402.27
404.70	2383.84
404.90	2326.49
405.11	2349.02
405.32	2316.25
405.52	2158.56
405.73	2240.48
405.94	2230.24
406.15	2267.10
406.35	2316.25
406.56	2324.44
406.77	2291.68
406.98	2256.86
407.18	2140.13
407.39	2428.89
407.60	2211.81
407.80	2260.96
408.01	2189.28
408.22	2209.76
408.43	2127.84
408.63	2291.68
408.84	2367.45
409.05	2404.32
409.25	2209.76
409.46	2211.81
409.67	2269.15
409.88	2244.57
410.08	2273.25
410.29	2170.85
410.50	2277.34
410.70	2338.78
410.91	2183.13
411.12	2306.01
411.32	2238.43
411.53	2211.81
411.74	2312.16
411.95	2322.40
412.15	2316.25
412.36	2424.80
412.57	2367.45
412.77	2389.98
412.98	2252.77
413.19	2228.19
413.39	2301.92
413.60	2328.54
413.81	2443.23
414.01	2172.89
414.22	2334.68
414.43	2301.92
414.63	2215.90
414.84	2449.37
415.05	2224.09
415.25	2107.36
415.46	2326.49
415.67	2193.37
415.87	2240.48
416.08	2250.72
416.29	2258.91
416.49	2351.07
416.70	2308.06
416.91	2191.33
417.11	2275.29
417.32	2398.17
417.53	2351.07
417.73	2349.02
417.94	2187.23
418.15	2193.37
418.35	2332.64
418.56	2234.33
418.77	2420.70
418.97	2275.29
419.18	2224.09
419.38	2076.64
419.59	2281.44
419.80	2361.31
420.00	2242.53
420.21	2265.05
420.42	2379.74
420.62	2287.58
420.83	2189.28
421.04	2226.14
421.24	2273.25
421.45	2330.59
421.65	2332.64
421.86	2287.58
422.07	2400.22
422.27	2252.77
422.48	2187.23
422.69	2144.22
422.89	2267.10
423.10	2129.89
423.30	2146.27
423.51	2230.24
423.72	2408.41
423.92	2349.02
424.13	2158.56
424.33	2316.25
424.54	2357.21
424.75	2263.01
424.95	2426.84
425.16	2375.64
425.36	2236.38
425.57	2316.25
425.78	2338.78
425.98	2359.26
426.19	2176.99
426.39	2183.13
426.60	2246.62
426.81	2373.60
427.01	2170.85
427.22	2133.98
427.42	2066.40
427.63	2199.52
427.83	2291.68
428.04	2459.61
428.25	2371.55
428.45	2355.16
428.66	2396.12
428.86	2215.90
429.07	2228.19
429.28	2228.19
429.48	2291.68
429.69	2168.80
429.89	2285.53
430.10	2220.00
430.30	2234.33
430.51	2316.25
430.71	2250.72
430.92	2207.71
431.13	2166.75
431.33	2275.29
431.54	2301.92
431.74	2457.56
431.95	2531.29
432.15	2158.56
432.36	2281.44
432.56	2338.78
432.77	2461.66
432.98	2439.13
433.18	2340.83
433.39	2248.67
433.59	2179.04
433.80	2461.66
434.00	2400.22
434.21	2166.75
434.41	2170.85
434.62	2527.19
434.82	2168.80
435.03	2179.04
435.23	2297.82
435.44	2123.74
435.64	2203.61
435.85	2324.44
436.06	2318.30
436.26	2316.25
436.47	2205.66
436.67	2172.89
436.88	2162.66
437.08	2338.78
437.29	2404.32
437.49	2342.88
437.70	2373.60
437.90	2310.11
438.11	2422.75
438.31	2308.06
438.52	2404.32
438.72	2469.85
438.93	2514.91
439.13	2326.49
439.34	2420.70
439.54	2293.72
439.75	2398.17
439.95	2338.78
440.16	2207.71
440.36	2314.20
440.57	2248.67
440.77	2314.20
440.98	2275.29
441.18	2314.20
441.39	2193.37
441.59	2162.66
441.80	2455.51
442.00	2277.34
442.21	2441.18
442.41	2082.78
442.62	2291.68
442.82	2242.53
443.02	2269.15
443.23	2271.20
443.43	2220.00
443.64	2428.89
443.84	2138.08
444.05	2449.37
444.25	2310.11
444.46	2275.29
444.66	2168.80
444.87	2318.30
445.07	2156.51
445.28	2293.72
445.48	2365.40
445.69	2289.63
445.89	2492.38
446.09	2301.92
446.30	2578.39
446.50	2877.40
446.71	4298.69
446.91	5394.35
447.12	6262.69
447.32	6653.85
447.53	6111.14
447.73	5203.89
447.93	4517.82
448.14	4112.32
448.34	4120.51
448.55	3637.19
448.75	3565.51
448.96	3348.43
449.16	3059.67
449.36	2891.73
449.57	2523.10
449.77	2389.98
449.98	2306.01
450.18	2332.64
450.39	2320.35
450.59	2283.49
450.79	2324.44
451.00	2195.42
451.20	2394.08
451.41	2211.81
451.61	2389.98
451.81	2289.63
452.02	2185.18
452.22	2228.19
452.43	2138.08
452.63	2217.95
452.84	2209.76
453.04	2230.24
453.24	2344.92
453.45	2217.95
453.65	2250.72
453.86	2342.88
454.06	2285.53
454.26	2252.77
454.47	2133.98
454.67	2400.22
454.87	2355.16
455.08	2295.77
455.28	2400.22
455.49	2265.05
455.69	2140.13
455.89	2549.72
456.10	2437.08
456.30	2232.29
456.51	2281.44
456.71	2258.91
456.91	2299.87
457.12	2207.71
457.32	2306.01
457.52	2154.46
457.73	2408.41
457.93	2392.03
458.14	2152.42
458.34	2101.22
458.54	2308.06
458.75	2285.53
458.95	2351.07
459.15	2285.53
459.36	2275.29
459.56	2281.44
459.76	2531.29
459.97	2275.29
460.17	2195.42
460.37	2394.08
460.58	2289.63
460.78	2285.53
460.99	2234.33
461.19	2187.23
461.39	2226.14
461.60	2197.47
461.80	2301.92
462.00	2197.47
462.21	2273.25
462.41	2158.56
462.61	2115.55
462.82	2105.31
463.02	2346.97
463.22	2244.57
463.43	2328.54
463.63	2203.61
463.83	2439.13
464.04	2265.05
464.24	2234.33
464.44	2150.37
464.64	2209.76
464.85	2277.34
465.05	2310.11
465.25	2220.00
465.46	2252.77
465.66	2375.64
465.86	2371.55
466.07	2228.19
466.27	2187.23
466.47	2127.84
466.68	2088.93
466.88	2412.51
467.08	2273.25
467.29	2365.40
467.49	2283.49
467.69	2275.29
467.89	2281.44
468.10	2242.53
468.30	2324.44
468.50	2342.88
468.71	2400.22
468.91	2115.55
469.11	2465.75
469.31	2314.20
469.52	2226.14
469.72	2449.37
469.92	2441.18
470.13	2256.86
470.33	2281.44
470.53	2355.16
470.73	2703.32
470.94	3000.27
471.14	3121.10
471.34	3499.98
471.54	3432.40
471.75	3022.80
471.95	2906.07
472.15	2787.29
472.36	2734.04
472.56	2699.22
472.76	2695.13
472.96	2652.12
473.17	2463.71
473.37	2512.86
473.57	2330.59
473.77	2400.22
473.98	2252.77
474.18	2203.61
474.38	2539.48
474.58	2191.33
474.79	2201.57
474.99	2318.30
475.19	2389.98
475.39	2187.23
475.60	2308.06
475.80	2238.43
476.00	2283.49
476.20	2195.42
476.41	2287.58
476.61	2394.08
476.81	2398.17
477.01	2172.89
477.21	2516.95
477.42	2377.69
477.62	2154.46
477.82	2367.45
478.02	2293.72
478.23	2295.77
478.43	2168.80
478.63	2277.34
478.83	2301.92
479.03	2203.61
479.24	2310.11
479.44	2527.19
479.64	2189.28
479.84	2174.94
480.04	2170.85
480.25	2279.39
480.45	2189.28
480.65	2195.42
480.85	2451.42
481.06	2265.05
481.26	2334.68
481.46	2326.49
481.66	2375.64
481.86	2160.61
482.06	2297.82
482.27	2193.37
482.47	2146.27
482.67	2322.40
482.87	2244.57
483.07	2357.21
483.28	2201.57
483.48	2201.57
483.68	2211.81
483.88	2181.09
484.08	2062.30
484.29	2172.89
484.49	2258.91
484.69	2191.33
484.89	2453.47
485.09	2336.73
485.29	2289.63
485.50	2236.38
485.70	2281.44
485.90	2316.25
486.10	2375.64
486.30	2346.97
486.50	2365.40
486.71	2361.31
486.91	2281.44
487.11	2392.03
487.31	2142.18
487.51	2267.10
487.71	2152.42
487.91	2150.37
488.12	2158.56
488.32	2072.54
488.52	2193.37
488.72	2086.88
488.92	2281.44
489.12	2357.21
489.32	2342.88
489.53	2334.68
489.73	2078.69
489.93	2416.60
490.13	2273.25
490.33	2047.97
490.53	2291.68
490.73	2387.93
490.94	2152.42
491.14	2416.60
491.34	2363.36
491.54	2504.67
491.74	3055.57
491.94	3753.93
492.14	4005.83
492.34	4210.62
492.54	3741.64
492.75	3252.17
492.95	3104.72
493.15	2926.55
493.35	2932.69
493.55	2914.26
493.75	2754.52
493.95	2793.43
494.15	2633.69
494.35	2346.97
494.56	2342.88
494.76	2301.92
494.96	2373.60
495.16	2310.11
495.36	2271.20
495.56	2263.01
495.76	2365.40
495.96	2240.48
496.16	2187.23
496.36	2543.58
496.56	2279.39
496.77	2269.15
496.97	2322.40
497.17	2418.65
497.37	2187.23
497.57	2367.45
497.77	2242.53
497.97	2203.61
498.17	2260.96
498.37	2187.23
498.57	2367.45
498.77	2215.90
498.97	2357.21
499.17	2441.18
499.38	2240.48
499.58	2340.83
499.78	2299.87
499.98	2412.51
500.18	2299.87
500.38	2230.24
500.58	2422.75
500.78	2846.68
500.98	5177.26
501.18	6973.33
501.38	8966.01
501.58	9643.88
501.78	9490.29
501.98	7520.14
502.18	6365.09
502.38	5353.39
502.58	5038.00
502.78	4546.49
502.98	4480.96
503.18	4186.05
503.38	3880.90
503.59	3409.87
503.79	3270.61
503.99	3059.67
504.19	2908.12
504.39	2908.12
504.59	2899.92
504.79	2832.34
504.99	2858.96
505.19	2592.73
505.39	2508.76
505.59	2576.34
505.79	2582.49
505.99	2461.66
506.19	2361.31
506.39	2447.32
506.59	2236.38
506.79	2213.85
506.99	2445.27
507.19	2277.34
507.39	2381.79
507.59	2160.61
507.79	2217.95
507.99	2136.03
508.19	2187.23
508.39	2267.10
508.59	2277.34
508.79	2334.68
508.99	2428.89
509.19	2160.61
509.39	2265.05
509.59	2285.53
509.79	2185.18
509.99	2293.72
510.19	2314.20
510.39	2263.01
510.59	2306.01
510.79	2189.28
510.99	2172.89
511.19	2283.49
511.39	2441.18
511.59	2351.07
511.79	2457.56
511.99	2326.49
512.19	2406.36
512.38	2281.44
512.58	2199.52
512.78	2203.61
512.98	2375.64
513.18	2435.03
513.38	2152.42
513.58	2328.54
513.78	2256.86
513.98	2170.85
514.18	2220.00
514.38	2166.75
514.58	2310.11
514.78	2265.05
514.98	2211.81
515.18	2281.44
515.38	2127.84
515.58	2512.86
515.78	2250.72
515.98	2324.44
516.18	2389.98
516.38	2209.76
516.57	2299.87
516.77	2242.53
516.97	2281.44
517.17	2240.48
517.37	2111.46
517.57	2316.25
517.77	2240.48
517.97	2152.42
518.17	2314.20
518.37	2150.37
518.57	2185.18
518.77	2189.28
518.97	2277.34
519.16	2293.72
519.36	2402.27
519.56	2207.71
519.76	2289.63
519.96	2236.38
520.16	2387.93
520.36	2117.60
520.56	2332.64
520.76	2236.38
520.96	2152.42
521.16	2314.20
521.35	2389.98
521.55	2488.28
521.75	2271.20
521.95	2226.14
522.15	2275.29
522.35	2146.27
522.55	2252.77
522.75	2324.44
522.95	2154.46
523.14	2099.17
523.34	2275.29
523.54	2170.85
523.74	2357.21
523.94	2260.96
524.14	2113.50
524.34	2306.01
524.54	2392.03
524.73	2230.24
524.93	2385.88
525.13	2316.25
525.33	2133.98
525.53	2482.14
525.73	2385.88
525.93	2234.33
526.13	2244.57
526.32	2238.43
526.52	2381.79
526.72	2449.37
526.92	2254.81
527.12	2183.13
527.32	2105.31
527.52	2289.63
527.71	2279.39
527.91	2236.38
528.11	2146.27
528.31	2260.96
528.51	2140.13
528.71	2363.36
528.90	2346.97
529.10	2406.36
529.30	2432.99
529.50	2033.63
529.70	2256.86
529.90	2297.82
530.09	2244.57
530.29	2168.80
530.49	2144.22
530.69	2523.10
530.89	2267.10
531.09	2316.25
531.28	2222.05
531.48	2482.14
531.68	2281.44
531.88	2271.20
532.08	2359.26
532.28	2263.01
532.47	2375.64
532.67	2367.45
532.87	2359.26
533.07	2197.47
533.27	2369.50
533.46	2275.29
533.66	2342.88
533.86	2230.24
534.06	2340.83
534.26	2265.05
534.45	2174.94
534.65	2291.68
534.85	2299.87
535.05	2236.38
535.25	2420.70
535.44	2056.16
535.64	2361.31
535.84	2252.77
536.04	2310.11
536.24	2254.81
536.43	2195.42
536.63	2232.29
536.83	2289.63
537.03	2187.23
537.22	2121.70
537.42	2080.74
537.62	2217.95
537.82	2146.27
538.02	2385.88
538.21	2379.74
538.41	2611.16
538.61	2342.88
538.81	2236.38
539.00	2349.02
539.20	2127.84
539.40	2168.80
539.60	2340.83
539.79	2322.40
539.99	2283.49
540.19	2179.04
540.39	2195.42
540.58	2312.16
540.78	2342.88
540.98	2322.40
541.18	2484.19
541.37	2353.12
541.57	2316.25
541.77	2291.68
541.97	2097.12
542.16	2138.08
542.36	2191.33
542.56	2224.09
542.76	2424.80
542.95	2295.77
543.15	2230.24
543.35	2326.49
543.54	2220.00
543.74	2248.67
543.94	2422.75
544.14	2199.52
544.33	2320.35
544.53	2203.61
544.73	2222.05
544.93	2220.00
545.12	2215.90
545.32	2209.76
545.52	2244.57
545.71	2166.75
545.91	2199.52
546.11	2193.37
546.30	2183.13
546.50	2291.68
546.70	2430.94
546.90	2301.92
547.09	2105.31
547.29	2271.20
547.49	2396.12
547.68	2215.90
547.88	2234.33
548.08	2338.78
548.27	2785.24
548.47	2215.90
548.67	2189.28
548.87	2260.96
549.06	2234.33
549.26	2326.49
549.46	2342.88
549.65	2244.57
549.85	2316.25
550.05	2299.87
550.24	2119.65
550.44	2281.44
550.64	2310.11
550.83	2283.49
551.03	2367.45
551.23	2365.40
551.42	2308.06
551.62	2158.56
551.82	2265.05
552.01	2230.24
552.21	2441.18
552.41	2306.01
552.60	2473.95
552.80	2277.34
553.00	2191.33
553.19	2297.82
553.39	2330.59
553.59	2238.43
553.78	2289.63
553.98	2254.81
554.17	2152.42
554.37	2316.25
554.57	2357.21
554.76	2209.76
554.96	2207.71
555.16	2291.68
555.35	2252.77
555.55	2334.68
555.75	2244.57
555.94	2293.72
556.14	2179.04
556.33	2318.30
556.53	2320.35
556.73	2209.76
556.92	2351.07
557.12	2285.53
557.32	2416.60
557.51	2353.12
557.71	2281.44
557.90	2478.04
558.10	2379.74
558.30	2265.05
558.49	2254.81
558.69	2295.77
558.88	2258.91
559.08	2248.67
559.28	2160.61
559.47	2301.92
559.67	2363.36
559.86	2445.27
560.06	2232.29
560.26	2244.57
560.45	2244.57
560.65	2193.37
560.84	2332.64
561.04	2275.29
561.24	2357.21
561.43	2201.57
561.63	2379.74
561.82	2281.44
562.02	2299.87
562.22	2248.67
562.41	2201.57
562.61	2228.19
562.80	2174.94
563.00	2467.80
563.19	2297.82
563.39	2351.07
563.59	2396.12
563.78	2195.42
563.98	2121.70
564.17	2226.14
564.37	2117.60
564.56	2252.77
564.76	2121.70
564.96	2398.17
565.15	2383.84
565.35	2531.29
565.54	2199.52
565.74	2248.67
565.93	2334.68
566.13	2244.57
566.32	2324.44
566.52	2289.63
566.71	2291.68
566.91	2334.68
567.11	2392.03
567.30	2103.26
567.50	2316.25
567.69	2320.35
567.89	2250.72
568.08	2140.13
568.28	2303.96
568.47	2234.33
568.67	2289.63
568.86	2246.62
569.06	2316.25
569.25	2275.29
569.45	2224.09
569.64	2187.23
569.84	2293.72
570.04	2250.72
570.23	2172.89
570.43	2256.86
570.62	2281.44
570.82	2451.42
571.01	2154.46
571.21	2162.66
571.40	2209.76
571.60	2334.68
571.79	2326.49
571.99	2361.31
572.18	2170.85
572.38	2375.64
572.57	2207.71
572.77	2232.29
572.96	2564.06
573.16	2271.20
573.35	2238.43
573.55	2426.84
573.74	2334.68
573.94	2371.55
574.13	2263.01
574.33	2441.18
574.52	2357.21
574.71	2293.72
574.91	2297.82
575.10	2183.13
575.30	2168.80
575.49	2133.98
575.69	2195.42
575.88	2281.44
576.08	2308.06
576.27	2430.94
576.47	2301.92
576.66	2471.90
576.86	2443.23
577.05	2332.64
577.25	2314.20
577.44	2449.37
577.64	2207.71
577.83	2383.84
578.02	2318.30
578.22	2289.63
578.41	2441.18
578.61	2306.01
578.80	2093.02
579.00	2291.68
579.19	2269.15
579.39	2308.06
579.58	2361.31
579.77	2256.86
579.97	2441.18
580.16	2414.56
580.36	2332.64
580.55	2379.74
580.75	2318.30
580.94	2308.06
581.13	2471.90
581.33	2385.88
581.52	2260.96
581.72	2516.95
581.91	2453.47
582.11	2260.96
582.30	2365.40
582.49	2310.11
582.69	2404.32
582.88	2342.88
583.08	2346.97
583.27	2367.45
583.47	2226.14
583.66	2176.99
583.85	2185.18
584.05	2199.52
584.24	2320.35
584.44	2306.01
584.63	2430.94
584.82	2478.04
585.02	2437.08
585.21	2428.89
585.41	2482.14
585.60	2414.56
585.79	2547.67
585.99	2598.87
586.18	2363.36
586.37	2969.55
586.57	4640.70
586.76	13844.27
586.96	32595.47
587.15	46302.53
587.34	55403.70
587.54	60490.85
587.73	55618.74
587.93	38890.93
588.12	29580.86
588.31	23912.08
588.51	20803.27
588.70	19144.41
588.89	17358.58
589.09	15111.96
589.28	12775.23
589.47	10393.44
589.67	8114.05
589.86	6260.64
590.06	4634.55
590.25	3825.61
590.44	3219.41
590.64	2731.99
590.83	2676.70
591.02	2594.78
591.22	2392.03
591.41	2400.22
591.60	2326.49
591.80	2557.91
591.99	2232.29
592.18	2246.62
592.38	2482.14
592.57	2334.68
592.76	2301.92
592.96	2338.78
593.15	2267.10
593.34	2379.74
593.54	2226.14
593.73	2424.80
593.92	2326.49
594.12	2326.49
594.31	2355.16
594.50	2357.21
594.70	2379.74
594.89	2613.21
595.08	2166.75
595.28	2385.88
595.47	2639.83
595.66	2422.75
595.86	2129.89
596.05	2250.72
596.24	2244.57
596.43	2523.10
596.63	2424.80
596.82	2340.83
597.01	2267.10
597.21	2441.18
597.40	2338.78
597.59	2303.96
597.79	2306.01
597.98	2340.83
598.17	2332.64
598.36	2291.68
598.56	2338.78
598.75	2301.92
598.94	2258.91
599.14	2303.96
599.33	2334.68
599.52	2346.97
599.71	2273.25
599.91	2363.36
600.10	2398.17
600.29	2217.95
600.48	2301.92
600.68	2375.64
600.87	2340.83
601.06	2269.15
601.26	2271.20
601.45	2314.20
601.64	2314.20
601.83	2465.75
602.03	2277.34
602.22	2136.03
602.41	2373.60
602.60	2519.00
602.80	2363.36
602.99	2293.72
603.18	2260.96
603.37	2301.92
603.57	2316.25
603.76	2359.26
603.95	2363.36
604.14	2185.18
604.34	2224.09
604.53	2195.42
604.72	2299.87
604.91	2320.35
605.10	2383.84
605.30	2129.89
605.49	2523.10
605.68	2408.41
605.87	2334.68
606.07	2217.95
606.26	2269.15
606.45	2371.55
606.64	2273.25
606.84	2269.15
607.03	2322.40
607.22	2334.68
607.41	2232.29
607.60	2217.95
607.80	2383.84
607.99	2275.29
608.18	2328.54
608.37	2308.06
608.56	2201.57
608.76	2457.56
608.95	2500.57
609.14	2318.30
609.33	2367.45
609.52	2521.05
609.72	2344.92
609.91	2412.51
610.10	2326.49
610.29	2475.99
610.48	2375.64
610.68	2346.97
610.87	2314.20
611.06	2299.87
611.25	2207.71
611.44	2387.93
611.63	2232.29
611.83	2457.56
612.02	2088.93
612.21	2455.51
612.40	2035.68
612.59	2136.03
612.79	2146.27
612.98	2281.44
613.17	2420.70
613.36	2285.53
613.55	2459.61
613.74	2273.25
613.93	2432.99
614.13	2525.15
614.32	2533.34
614.51	2418.65
614.70	2308.06
614.89	2408.41
615.08	2349.02
615.28	2770.90
615.47	2359.26
615.66	2363.36
615.85	2303.96
616.04	2467.80
616.23	2230.24
616.42	2367.45
616.62	2283.49
616.81	2269.15
617.00	2293.72
617.19	2365.40
617.38	2252.77
617.57	2195.42
617.76	2373.60
617.95	2353.12
618.15	2359.26
618.34	2484.19
618.53	2168.80
618.72	2295.77
618.91	2400.22
619.10	2379.74
619.29	2279.39
619.48	2273.25
619.68	2136.03
619.87	2224.09
620.06	2133.98
620.25	2326.49
620.44	2301.92
620.63	2209.76
620.82	2375.64
621.01	2303.96
621.20	2326.49
621.39	2277.34
621.59	2316.25
621.78	2346.97
621.97	2295.77
622.16	2279.39
622.35	2334.68
622.54	2355.16
622.73	2326.49
622.92	2097.12
623.11	2361.31
623.30	2269.15
623.49	2400.22
623.68	2195.42
623.88	2334.68
624.07	2306.01
624.26	2275.29
624.45	2293.72
624.64	2236.38
624.83	2263.01
625.02	2228.19
625.21	2222.05
625.40	2244.57
625.59	2449.37
625.78	2193.37
625.97	2363.36
626.16	2351.07
626.35	2453.47
626.54	2379.74
626.74	2480.09
626.93	2250.72
627.12	2273.25
627.31	2381.79
627.50	2357.21
627.69	2351.07
627.88	2215.90
628.07	2310.11
628.26	2146.27
628.45	2230.24
628.64	2213.85
628.83	2230.24
629.02	2189.28
629.21	2287.58
629.40	2246.62
629.59	2170.85
629.78	2322.40
629.97	2310.11
630.16	2254.81
630.35	2170.85
630.54	2230.24
630.73	2244.57
630.92	2324.44
631.11	2220.00
631.30	2240.48
631.49	2387.93
631.68	2293.72
631.87	2226.14
632.06	2170.85
632.25	2514.91
632.44	2187.23
632.63	2383.84
632.82	2285.53
633.01	2287.58
633.20	2396.12
633.39	2322.40
633.58	2254.81
633.77	2365.40
633.96	2361.31
634.15	2314.20
634.34	2359.26
634.53	2351.07
634.72	2299.87
634.91	2172.89
635.10	2295.77
635.29	2404.32
635.48	2295.77
635.67	2148.32
635.86	2115.55
636.05	2437.08
636.24	2256.86
636.43	2271.20
636.62	2289.63
636.81	2072.54
637.00	2238.43
637.19	2308.06
637.38	2308.06
637.57	2332.64
637.76	2383.84
637.95	2387.93
638.14	2332.64
638.33	2344.92
638.52	2334.68
638.71	2232.29
638.89	2209.76
639.08	2553.82
639.27	2381.79
639.46	2496.47
639.65	2840.53
639.84	2842.58
640.03	3035.09
640.22	2842.58
640.41	2877.40
640.60	2473.95
640.79	2519.00
640.98	2445.27
641.17	2475.99
641.36	2480.09
641.55	2379.74
641.74	2199.52
641.92	2250.72
642.11	2193.37
642.30	2203.61
642.49	2220.00
642.68	2248.67
642.87	2379.74
643.06	2359.26
643.25	2152.42
643.44	2228.19
643.63	2234.33
643.82	2404.32
644.00	2150.37
644.19	2213.85
644.38	2228.19
644.57	2273.25
644.76	2363.36
644.95	2285.53
645.14	2314.20
645.33	2297.82
645.52	2226.14
645.71	2074.59
645.89	2113.50
646.08	2320.35
646.27	2209.76
646.46	2381.79
646.65	2179.04
646.84	2220.00
647.03	2193.37
647.22	2383.84
647.40	2283.49
647.59	2189.28
647.78	2101.22
647.97	2220.00
648.16	2211.81
648.35	2383.84
648.54	2338.78
648.73	2265.05
648.91	2299.87
649.10	2314.20
649.29	2191.33
649.48	2228.19
649.67	2310.11
649.86	2301.92
650.05	2234.33
650.23	2502.62
650.42	2293.72
650.61	2422.75
650.80	2447.32
650.99	2519.00
651.18	2406.36
651.36	2412.51
651.55	2297.82
651.74	2385.88
651.93	2203.61
652.12	2303.96
652.31	2346.97
652.49	2203.61
652.68	2203.61
652.87	2400.22
653.06	2338.78
653.25	2586.58
653.44	2263.01
653.62	2447.32
653.81	2213.85
654.00	2289.63
654.19	2369.50
654.38	2498.52
654.56	2260.96
654.75	2230.24
654.94	2367.45
655.13	2359.26
655.32	2256.86
655.51	2279.39
655.69	2179.04
655.88	2349.02
656.07	2160.61
656.26	2355.16
656.45	2154.46
656.63	2295.77
656.82	2277.34
657.01	2441.18
657.20	2258.91
657.38	2420.70
657.57	2211.81
657.76	2064.35
657.95	2328.54
658.14	2332.64
658.32	2320.35
658.51	2107.36
658.70	2279.39
658.89	2260.96
659.08	2273.25
659.26	2482.14
659.45	2211.81
659.64	2346.97
659.83	2166.75
660.01	2670.55
660.20	2293.72
660.39	2465.75
660.58	2131.94
660.76	2301.92
660.95	2095.07
661.14	2285.53
661.33	2111.46
661.51	2215.90
661.70	2254.81
661.89	2322.40
662.08	2203.61
662.26	2111.46
662.45	2113.50
662.64	2392.03
662.83	2299.87
663.01	2158.56
663.20	2301.92
663.39	2392.03
663.58	2230.24
663.76	2217.95
663.95	2314.20
664.14	2195.42
664.32	2203.61
664.51	2226.14
664.70	2152.42
664.89	2281.44
665.07	2093.02
665.26	2295.77
665.45	2191.33
665.64	2340.83
665.82	2199.52
666.01	2314.20
666.20	2136.03
666.38	2375.64
666.57	2457.56
666.76	3381.20
666.95	8075.14
667.13	16137.99
667.32	21057.21
667.51	24565.39
667.69	26416.75
667.88	24041.11
668.07	17157.88
668.25	13786.93
668.44	11292.50
668.63	9879.40
668.81	8912.76
669.00	7835.53
669.19	6780.82
669.38	5922.73
669.56	5109.68
669.75	4290.49
669.94	3637.19
670.12	3151.82
670.31	2775.00
670.50	2627.54
670.68	2570.20
670.87	2473.95
671.06	2301.92
671.24	2359.26
671.43	2439.13
671.62	2381.79
671.80	2256.86
671.99	2265.05
672.18	2283.49
672.36	2355.16
672.55	2351.07
672.74	2295.77
672.92	2277.34
673.11	2310.11
673.29	2140.13
673.48	2346.97
673.67	2324.44
673.85	2320.35
674.04	2209.76
674.23	2287.58
674.41	2387.93
674.60	2265.05
674.79	2078.69
674.97	2250.72
675.16	2342.88
675.34	2406.36
675.53	2179.04
675.72	2342.88
675.90	2559.96
676.09	2181.09
676.28	2299.87
676.46	2086.88
676.65	2306.01
676.83	2211.81
677.02	2375.64
677.21	2279.39
677.39	2191.33
677.58	2133.98
677.77	2258.91
677.95	2236.38
678.14	2277.34
678.32	2265.05
678.51	2174.94
678.70	2453.47
678.88	2162.66
679.07	2201.57
679.25	2310.11
679.44	2199.52
679.63	2168.80
679.81	2293.72
680.00	2375.64
680.18	2285.53
680.37	2412.51
680.55	2228.19
680.74	2174.94
680.93	2060.26
681.11	2244.57
681.30	2283.49
681.48	2269.15
681.67	2209.76
681.85	2318.30
682.04	2088.93
682.23	2400.22
682.41	2269.15
682.60	2291.68
682.78	2314.20
682.97	2078.69
683.15	2351.07
683.34	2248.67
683.53	2322.40
683.71	2101.22
683.90	2371.55
684.08	2408.41
684.27	2260.96
684.45	2240.48
684.64	2273.25
684.82	2275.29
685.01	2330.59
685.19	2226.14
685.38	2426.84
685.57	2254.81
685.75	2224.09
685.94	2220.00
686.12	2119.65
686.31	2152.42
686.49	2422.75
686.68	2119.65
686.86	2269.15
687.05	2279.39
687.23	2400.22
687.42	2158.56
687.60	2033.63
687.79	2394.08
687.97	2428.89
688.16	2432.99
688.34	2324.44
688.53	2072.54
688.71	2244.57
688.90	2373.60
689.08	2252.77
689.27	2060.26
689.45	2316.25
689.64	2301.92
689.82	2254.81
690.01	2250.72
690.19	2281.44
690.38	2269.15
690.56	2363.36
690.75	2162.66
690.93	2195.42
691.12	2129.89
691.30	2242.53
691.49	2224.09
691.67	2252.77
691.86	2387.93
692.04	2203.61
692.23	2260.96
692.41	2295.77
692.60	2439.13
692.78	2375.64
692.97	2291.68
693.15	2418.65
693.34	2498.52
693.52	2381.79
693.71	2193.37
693.89	2215.90
694.08	2111.46
694.26	2400.22
694.44	2369.50
694.63	2342.88
694.81	2121.70
695.00	2217.95
695.18	2320.35
695.37	2494.43
695.55	2324.44
695.74	2154.46
695.92	2125.79
696.10	2400.22
696.29	2029.54
696.47	2105.31
696.66	2148.32
696.84	2185.18
697.03	2179.04
697.21	2539.48
697.40	3291.09
697.58	2379.74
697.76	2217.95
697.95	2209.76
698.13	2144.22
698.32	2201.57
698.50	2256.86
698.68	2324.44
698.87	2334.68
699.05	2353.12
699.24	2205.66
699.42	2140.13
699.61	2279.39
699.79	2316.25
699.97	2277.34
700.16	2105.31
700.34	2166.75
700.53	2203.61
700.71	2369.50
700.89	2336.73
701.08	2162.66
701.26	2224.09
701.45	2783.19
701.63	2226.14
701.81	2281.44
702.00	2215.90
702.18	2281.44
702.37	2174.94
702.55	2492.38
702.73	2506.71
702.92	2359.26
703.10	2572.25
703.28	2490.33
703.47	2236.38
703.65	2439.13
703.84	2457.56
704.02	2310.11
704.20	2498.52
704.39	2277.34
704.57	2215.90
704.75	2357.21
704.94	2289.63
705.12	2285.53
705.30	2525.15
705.49	4460.48
705.67	10280.80
705.86	18042.60
706.04	21737.14
706.22	24700.55
706.41	25902.71
706.59	21874.35
706.77	15492.88
706.96	12912.44
707.14	11315.03
707.32	9746.28
707.51	8757.11
707.69	7339.92
707.87	5861.29
708.06	4804.53
708.24	3858.37
708.42	3172.30
708.61	3035.09
708.79	2465.75
708.97	2369.50
709.16	2416.60
709.34	2367.45
709.52	2271.20
709.71	2328.54
709.89	2318.30
710.07	2222.05
710.26	2172.89
710.44	2244.57
710.62	2293.72
710.80	2271.20
710.99	2310.11
711.17	2326.49
711.35	2146.27
711.54	2269.15
711.72	2326.49
711.90	2330.59
712.09	2344.92
712.27	2220.00
712.45	2334.68
712.63	2242.53
712.82	2330.59
713.00	2267.10
713.18	2289.63
713.37	2314.20
713.55	2336.73
713.73	2361.31
713.91	2320.35
714.10	2195.42
714.28	2273.25
714.46	2334.68
714.65	2248.67
714.83	2303.96
715.01	2203.61
715.19	2269.15
715.38	2213.85
715.56	2297.82
715.74	2156.51
715.92	2195.42
716.11	2416.60
716.29	2154.46
716.47	2265.05
716.65	2267.10
716.84	2041.82
717.02	2322.40
717.20	2113.50
717.38	2189.28
717.57	2283.49
717.75	2203.61
717.93	2224.09
718.11	2299.87
718.30	2154.46
718.48	2275.29
718.66	2404.32
718.84	2420.70
719.03	2244.57
719.21	2176.99
719.39	2371.55
719.57	2291.68
719.75	2383.84
719.94	2203.61
720.12	2217.95
720.30	2250.72
720.48	2289.63
720.67	2174.94
720.85	2166.75
721.03	2174.94
721.21	2203.61
721.39	2328.54
721.58	2285.53
721.76	2281.44
721.94	2359.26
722.12	2326.49
722.30	2451.42
722.49	2195.42
722.67	2232.29
722.85	2244.57
723.03	2078.69
723.21	2277.34
723.40	2291.68
723.58	2340.83
723.76	2322.40
723.94	2379.74
724.12	2330.59
724.30	2461.66
724.49	2402.27
724.67	2164.70
724.85	2455.51
725.03	2207.71
725.21	2326.49
725.40	2375.64
725.58	2220.00
725.76	2322.40
725.94	2308.06
726.12	2193.37
726.30	2267.10
726.49	2256.86
726.67	2256.86
726.85	2412.51
727.03	2547.67
727.21	3561.42
727.39	4986.80
727.57	5928.87
727.76	6332.32
727.94	6715.29
728.12	6399.90
728.30	5130.16
728.48	4491.20
728.66	4136.90
728.84	3758.02
729.03	3266.51
729.21	2934.74
729.39	2719.70
729.57	2496.47
729.75	2506.71
729.93	2426.84
730.11	2170.85
730.30	2240.48
730.48	2308.06
730.66	2383.84
730.84	2381.79
731.02	2267.10
731.20	2160.61
731.38	2285.53
731.56	2179.04
731.74	2170.85
731.93	2293.72
732.11	2234.33
732.29	2265.05
732.47	2228.19
732.65	2281.44
732.83	2381.79
733.01	2250.72
733.19	2248.67
733.37	2344.92
733.56	2301.92
733.74	2119.65
733.92	2275.29
734.10	2150.37
734.28	2367.45
734.46	2039.78
734.64	2240.48
734.82	2260.96
735.00	2105.31
735.18	2189.28
735.36	2232.29
735.54	2248.67
735.73	2228.19
735.91	2273.25
736.09	2375.64
736.27	2220.00
736.45	2324.44
736.63	2045.92
736.81	2215.90
736.99	2416.60
737.17	2389.98
737.35	2205.66
737.53	2244.57
737.71	2236.38
737.89	2408.41
738.07	2228.19
738.25	2224.09
738.43	2160.61
738.61	2244.57
738.80	2203.61
738.98	2211.81
739.16	2205.66
739.34	2176.99
739.52	2521.05
739.70	2217.95
739.88	2334.68
740.06	2334.68
740.24	2054.11
740.42	2406.36
740.60	2068.45
740.78	2250.72
740.96	2097.12
741.14	2207.71
741.32	2314.20
741.50	2097.12
741.68	2412.51
741.86	2351.07
742.04	2078.69
742.22	2111.46
742.40	2244.57
742.58	2267.10
742.76	2164.70
742.94	2396.12
743.12	2076.64
743.30	2222.05
743.48	2301.92
743.66	2123.74
743.84	2273.25
744.02	2242.53
744.20	2273.25
744.38	2162.66
744.56	2170.85
744.74	2402.27
744.92	2234.33
745.10	2432.99
745.28	2369.50
745.46	2469.85
745.64	2205.66
745.82	2285.53
746.00	2195.42
746.18	2295.77
746.36	2209.76
746.54	2267.10
746.72	2242.53
746.90	2152.42
747.08	2328.54
747.26	2220.00
747.44	2297.82
747.62	2258.91
747.80	2346.97
747.98	2283.49
748.15	2240.48
748.33	2375.64
748.51	2230.24
748.69	2342.88
748.87	2142.18
749.05	2269.15
749.23	2228.19
749.41	2285.53
749.59	2289.63
749.77	2316.25
749.95	2222.05
750.13	2103.26
750.31	2334.68
750.49	2244.57
750.67	2299.87
750.85	2355.16
751.03	2228.19
751.20	2510.81
751.38	2191.33
751.56	2211.81
751.74	2277.34
751.92	2154.46
752.10	2168.80
752.28	2342.88
752.46	2224.09
752.64	2226.14
752.82	2318.30
753.00	2342.88
753.18	2293.72
753.35	2230.24
753.53	2228.19
753.71	2220.00
753.89	2328.54
754.07	2244.57
754.25	2314.20
754.43	2260.96
754.61	2176.99
754.79	2277.34
754.97	2181.09
755.14	2342.88
755.32	2121.70
755.50	2232.29
755.68	2297.82
755.86	2158.56
756.04	2244.57
756.22	2088.93
756.40	2258.91
756.57	2449.37
756.75	2162.66
756.93	2310.11
757.11	2285.53
757.29	2170.85
757.47	2215.90
757.65	2103.26
757.82	2140.13
758.00	2244.57
758.18	2191.33
758.36	2211.81
758.54	2432.99
758.72	2105.31
758.90	2336.73
759.07	2263.01
759.25	2193.37
759.43	2375.64
759.61	2144.22
759.79	3168.21
759.97	2402.27
760.15	2138.08
760.32	2199.52
760.50	2252.77
760.68	2432.99
760.86	2125.79
761.04	2359.26
761.22	2318.30
761.39	2240.48
761.57	2293.72
761.75	2318.30
761.93	2310.11
762.11	2189.28
762.28	2273.25
762.46	2146.27
762.64	2377.69
762.82	2207.71
763.00	2242.53
763.18	2334.68
763.35	2156.51
763.53	2330.59
763.71	2275.29
763.89	2183.13
764.07	2256.86
764.24	2275.29
764.42	2299.87
764.60	2242.53
764.78	2314.20
764.96	2281.44
765.13	2258.91
765.31	2187.23
765.49	2215.90
765.67	2133.98
765.84	2170.85
766.02	2228.19
766.20	2119.65
766.38	2281.44
766.56	2281.44
766.73	2246.62
766.91	2250.72
767.09	2291.68
767.27	2346.97
767.44	2156.51
767.62	2291.68
767.80	2275.29
767.98	2148.32
768.15	2248.67
768.33	2250.72
768.51	2389.98
768.69	2334.68
768.87	2291.68
769.04	2207.71
769.22	2453.47
769.40	2418.65
769.58	2453.47
769.75	2318.30
769.93	2365.40
770.11	2248.67
770.28	2148.32
770.46	2330.59
770.64	2209.76
770.82	2170.85
770.99	2205.66
771.17	2293.72
771.35	2263.01
771.53	2207.71
771.70	2160.61
771.88	2211.81
772.06	2281.44
772.23	2215.90
772.41	2340.83
772.59	2154.46
772.77	2113.50
772.94	2201.57
773.12	2310.11
773.30	2250.72
773.47	2224.09
773.65	2152.42
773.83	2455.51
774.01	2228.19
774.18	2070.50
774.36	2273.25
774.54	2164.70
774.71	2244.57
774.89	2162.66
775.07	2242.53
775.24	2164.70
775.42	2148.32
775.60	2416.60
775.78	2195.42
775.95	2162.66
776.13	2078.69
776.31	2095.07
776.48	2357.21
776.66	2334.68
776.84	2179.04
777.01	2232.29
777.19	2150.37
777.37	2179.04
777.54	2263.01
777.72	2457.56
777.90	2301.92
778.07	2220.00
778.25	2547.67
778.43	2385.88
778.60	2168.80
778.78	2260.96
778.96	2367.45
779.13	2142.18
779.31	2365.40
779.49	2306.01
779.66	2244.57
779.84	2336.73
780.01	2265.05
780.19	2150.37
780.37	2371.55
780.54	2332.64
780.72	2152.42
780.90	2240.48
781.07	2295.77
781.25	2205.66
781.43	2357.21
781.60	2205.66
781.78	2424.80
781.95	2275.29
782.13	2211.81
782.31	2260.96
782.48	2097.12
782.66	2271.20
782.83	2398.17
783.01	2281.44
783.19	2367.45
783.36	2269.15
783.54	2088.93
783.72	2281.44
783.89	2226.14
784.07	2328.54
784.24	2256.86
784.42	2430.94
784.60	2273.25
784.77	2220.00
784.95	2031.58
785.12	2170.85
785.30	2281.44
785.47	2121.70
785.65	2185.18
785.83	2289.63
786.00	2252.77
786.18	2265.05
786.35	2113.50
786.53	2148.32
786.71	2338.78
786.88	2271.20
787.06	2277.34
787.23	2279.39
787.41	2203.61
787.58	2185.18
787.76	2183.13
787.94	2248.67
788.11	2291.68
788.29	2193.37
788.46	2220.00
788.64	2115.55
788.81	2293.72
788.99	2111.46
789.16	2105.31
789.34	2199.52
789.52	2297.82
789.69	2252.77
789.87	2109.41
790.04	2166.75
790.22	2281.44
790.39	2504.67
790.57	2236.38
790.74	2179.04
790.92	2379.74
791.09	2045.92
791.27	2283.49
791.44	2379.74
791.62	2246.62
791.79	2330.59
791.97	2277.34
792.15	2553.82
792.32	2330.59
792.50	2285.53
792.67	2359.26
792.85	2504.67
793.02	2246.62
793.20	2224.09
793.37	2164.70
793.55	2283.49
793.72	2131.94
793.90	2340.83
794.07	2150.37
794.25	2115.55
794.42	2267.10
794.60	2217.95
794.77	2279.39
794.95	2367.45
795.12	2258.91
795.30	2260.96
795.47	1996.77
795.65	2535.39
795.82	2267.10
796.00	2183.13
796.17	2211.81
796.34	2238.43
796.52	2258.91
796.69	2301.92
796.87	2250.72
797.04	2338.78
797.22	2340.83
797.39	2260.96
797.57	2316.25
797.74	2234.33
797.92	2293.72
798.09	2269.15
798.27	2281.44
798.44	2193.37
798.62	2256.86
798.79	2244.57
798.96	2220.00
799.14	2189.28
799.31	2449.37
799.49	2306.01
799.66	2174.94
799.84	2207.71
800.01	2088.93
800.19	2293.72
800.36	2043.87
800.53	2285.53
800.71	2338.78
800.88	2371.55
801.06	2119.65
801.23	2215.90
801.41	2283.49
801.58	2129.89
801.75	2095.07
801.93	2258.91
802.10	2277.34
802.28	2215.90
802.45	2217.95
802.63	2316.25
802.80	2402.27
802.97	2183.13
803.15	2254.81
803.32	2215.90
803.50	2199.52
803.67	2189.28
803.84	2185.18
804.02	2213.85
804.19	2293.72
804.37	2064.35
804.54	2138.08
804.71	2252.77
804.89	2217.95
805.06	2140.13
805.24	2222.05
805.41	2123.74
805.58	2162.66
805.76	2451.42
805.93	2267.10
806.10	2396.12
806.28	2281.44
806.45	2238.43
806.63	2301.92
806.80	2342.88
806.97	2252.77
807.15	2285.53
807.32	2277.34
807.49	2256.86
807.67	2113.50
807.84	2332.64
808.01	2052.06
808.19	2371.55
808.36	2539.48
808.54	2217.95
808.71	2158.56
808.88	2289.63
809.06	2387.93
809.23	2359.26
809.40	2207.71
809.58	2244.57
809.75	2226.14
809.92	2195.42
810.10	2416.60
810.27	2310.11
810.44	2273.25
810.62	2326.49
810.79	2285.53
810.96	2265.05
811.14	2220.00
811.31	2297.82
811.48	2275.29
811.66	2168.80
811.83	2301.92
812.00	2267.10
812.18	2236.38
812.35	2420.70
812.52	2226.14
812.69	2234.33
812.87	2213.85
813.04	2162.66
813.21	2246.62
813.39	2211.81
813.56	2242.53
813.73	2326.49
813.91	2174.94
814.08	2226.14
814.25	2273.25
814.42	2045.92
814.60	2232.29
814.77	2215.90
814.94	2201.57
815.12	2248.67
815.29	2432.99
815.46	2191.33
815.63	2183.13
815.81	2240.48
815.98	2256.86
816.15	2240.48
816.33	2197.47
816.50	2168.80
816.67	2260.96
816.84	2252.77
817.02	2103.26
817.19	2125.79
817.36	2269.15
817.53	2283.49
817.71	2203.61
817.88	2355.16
818.05	2195.42
818.22	2179.04
818.40	2408.41
818.57	2217.95
818.74	2299.87
818.91	2224.09
819.09	2283.49
819.26	2400.22
819.43	2228.19
819.60	2119.65
819.78	2277.34
819.95	2355.16
820.12	2152.42
820.29	2432.99
820.47	2353.12
820.64	2199.52
820.81	2176.99
820.98	2138.08
821.15	2281.44
821.33	2301.92
821.50	2047.97
821.67	2299.87
821.84	2236.38
822.02	2328.54
822.19	2310.11
822.36	2181.09
822.53	2176.99
822.70	2222.05
822.88	2179.04
823.05	2308.06
823.22	2240.48
823.39	2256.86
823.56	2256.86
823.74	2482.14
823.91	2152.42
824.08	2105.31
824.25	2129.89
824.42	2424.80
824.60	2176.99
824.77	2222.05
824.94	2273.25
825.11	2234.33
825.28	2117.60
825.45	2256.86
825.63	2285.53
825.80	2242.53
825.97	2248.67
826.14	2316.25
826.31	2056.16
826.48	2244.57
826.66	2213.85
826.83	2199.52
827.00	2191.33
827.17	2144.22
827.34	2277.34
827.51	2226.14
827.69	2183.13
827.86	2041.82
828.03	2168.80
828.20	2252.77
828.37	2170.85
828.54	2301.92
828.71	2191.33
828.89	2330.59
829.06	2324.44
829.23	2361.31
829.40	2076.64
829.57	2166.75
829.74	2283.49
829.91	2246.62
830.09	2168.80
830.26	2226.14
830.43	2375.64
830.60	2195.42
830.77	2375.64
830.94	2430.94
831.11	2359.26
831.28	2179.04
831.46	2342.88
831.63	2260.96
831.80	2353.12
831.97	2228.19
832.14	2197.47
832.31	2338.78
832.48	2224.09
832.65	2363.36
832.82	2283.49
832.99	2244.57
833.17	2170.85
833.34	2365.40
833.51	2258.91
833.68	2060.26
833.85	2351.07
834.02	2185.18
834.19	2144.22
834.36	2136.03
834.53	2326.49
834.70	2373.60
834.87	2205.66
835.04	2142.18
835.22	2226.14
835.39	2215.90
835.56	2129.89
835.73	2211.81
835.90	2381.79
836.07	2144.22
836.24	2301.92
836.41	2125.79
836.58	2148.32
836.75	2363.36
836.92	2179.04
837.09	2162.66
837.26	2332.64
837.43	2334.68
837.60	2195.42
837.77	2142.18
837.94	2349.02
838.12	2291.68
838.29	2220.00
838.46	2074.59
838.63	2109.41
838.80	2416.60
838.97	2215.90
839.14	2244.57
839.31	2297.82
839.48	2334.68
839.65	2195.42
839.82	2291.68
839.99	2283.49
840.16	2281.44
840.33	2228.19
840.50	2185.18
840.67	2232.29
840.84	2045.92
841.01	2287.58
841.18	2127.84
841.35	2199.52
841.52	2351.07
841.69	2449.37
841.86	2228.19
842.03	2201.57
842.20	2306.01
842.37	2185.18
842.54	2148.32
842.71	2222.05
842.88	2146.27
843.05	2179.04
843.22	2197.47
843.39	2269.15
843.56	2076.64
843.73	2127.84
843.90	2201.57
844.07	2222.05
844.24	2355.16
844.41	2240.48
844.58	2170.85
844.75	2248.67
844.92	2328.54
845.09	2252.77
845.26	2256.86
845.43	2365.40
845.60	2222.05
845.77	2209.76
845.94	2258.91
846.10	2371.55
846.27	2115.55
846.44	2103.26
846.61	2168.80
846.78	2346.97
846.95	2320.35
847.12	2168.80
847.29	2150.37
847.46	2138.08
847.63	2269.15
847.80	2226.14
847.97	2256.86
848.14	2480.09
848.31	2217.95
848.48	2119.65
848.65	2238.43
848.82	2133.98
848.98	2541.53
849.15	2220.00
849.32	2301.92
849.49	2336.73
849.66	2271.20
849.83	2244.57
850.00	2076.64
850.17	2330.59
850.34	2189.28
850.51	2209.76
850.68	2142.18
850.85	2484.19
851.01	2232.29
851.18	2174.94
851.35	2215.90
851.52	2254.81
851.69	2392.03
851.86	2146.27
852.03	2209.76
852.20	2398.17
852.37	2236.38
852.53	2105.31
852.70	2240.48
852.87	2209.76
853.04	2330.59
853.21	2158.56
853.38	2326.49
853.55	2367.45
853.72	2398.17
853.89	2138.08
854.05	2097.12
854.22	2193.37
854.39	2248.67
854.56	2250.72
854.73	2301.92
854.90	2158.56
855.07	2228.19
855.23	2170.85
855.40	2133.98
855.57	2174.94
855.74	2090.98
855.91	2414.56
856.08	2174.94
856.25	2211.81
856.41	2187.23
856.58	2117.60
856.75	2258.91
856.92	2052.06
857.09	2383.84
857.26	2037.73
857.42	2207.71
857.59	2273.25
857.76	2183.13
857.93	2207.71
858.10	2185.18
858.27	2203.61
858.43	2301.92
858.60	2166.75
858.77	2144.22
858.94	2199.52
859.11	2363.36
859.27	2195.42
859.44	2224.09
859.61	2449.37
859.78	2355.16
859.95	2160.61
860.12	2150.37
860.28	2455.51
860.45	2494.43
860.62	2179.04
860.79	2277.34
860.95	2191.33
861.12	2269.15
861.29	2088.93
861.46	2174.94
861.63	2291.68
861.79	2281.44
861.96	2097.12
862.13	2181.09
862.30	2334.68
862.47	2248.67
862.63	2070.50
862.80	2322.40
862.97	2275.29
863.14	2263.01
863.30	2226.14
863.47	2189.28
863.64	2430.94
863.81	2269.15
863.97	2129.89
864.14	2242.53
864.31	2232.29
864.48	2308.06
864.65	2203.61
864.81	2381.79
864.98	2297.82
865.15	2285.53
865.32	2299.87
865.48	2285.53
865.65	2398.17
865.82	2191.33
865.98	2248.67
866.15	2269.15
866.32	2203.61
866.49	2183.13
866.65	2234.33
866.82	2097.12
866.99	2201.57
867.16	2072.54
867.32	2228.19
867.49	2217.95
867.66	2215.90
867.83	2246.62
867.99	2148.32
868.16	2193.37
868.33	2154.46
868.49	2203.61
868.66	2162.66
868.83	2281.44
868.99	2187.23
869.16	2195.42
869.33	2334.68
869.50	2258.91
869.66	2234.33
869.83	2146.27
870.00	2187.23
870.16	2260.96
870.33	2187.23
870.50	2363.36
870.66	2193.37
870.83	2314.20
871.00	2252.77
871.17	2228.19
871.33	2258.91
871.50	2201.57
871.67	2240.48
871.83	2260.96
872.00	2324.44
872.17	2199.52
872.33	2428.89
872.50	2365.40
872.67	2207.71
872.83	2236.38
873.00	2297.82
873.17	2244.57
873.33	2269.15
873.50	2265.05
873.67	2142.18
873.83	2232.29
874.00	2205.66
874.16	2332.64
874.33	2258.91
874.50	2197.47
874.66	2232.29
874.83	2181.09
875.00	2414.56
875.16	2373.60
875.33	2334.68
875.50	2064.35
875.66	2187.23
875.83	2211.81
875.99	2258.91
876.16	2238.43
876.33	2133.98
876.49	2199.52
876.66	2166.75
876.83	2232.29
876.99	2166.75
877.16	2230.24
877.32	2205.66
877.49	2189.28
877.66	2271.20
877.82	2465.75
877.99	2256.86
878.15	2342.88
878.32	2273.25
878.49	2232.29
878.65	2263.01
878.82	2308.06
878.98	2162.66
879.15	2340.83
879.32	2310.11
879.48	2273.25
879.65	2187.23
879.81	2185.18
879.98	2193.37
880.15	2297.82
880.31	2314.20
880.48	2187.23
880.64	2295.77
880.81	2314.20
880.97	2377.69
881.14	2406.36
881.31	2150.37
881.47	2432.99
881.64	2236.38
881.80	2076.64
881.97	2299.87
882.13	2260.96
882.30	2136.03
882.47	2215.90
882.63	2144.22
882.80	2172.89
882.96	2244.57
883.13	2365.40
883.29	2142.18
883.46	2176.99
883.62	2412.51
883.79	2256.86
883.95	2250.72
884.12	2156.51
884.29	2308.06
884.45	2252.77
884.62	2220.00
884.78	2119.65
884.95	2371.55
885.11	2211.81
885.28	2220.00
885.44	2183.13
885.61	2273.25
885.77	2367.45
885.94	2244.57
886.10	2222.05
886.27	2220.00
886.43	2416.60
886.60	2250.72
886.76	2162.66
886.93	2209.76
887.09	2277.34
887.26	2047.97
887.42	2240.48
887.59	2428.89
887.75	2437.08
887.92	2248.67
888.08	2308.06
888.25	2418.65
888.41	2359.26
888.58	2207.71
888.74	2195.42
888.91	2217.95
>>>>>End Processed Spectral Data<<<<<
