SpectraSuite Data File
++++++++++++++++++++++++++++++++++++
Date: Thu May 05 13:21:23 CEST 2016
User: root
Dark Spectrum Present: No
Reference Spectrum Present: No
Number of Sampled Component Spectra: 1
Spectrometers: USB4C02835
Integration Time (usec): 100000 (USB4C02835)
Spectra Averaged: 1 (USB4C02835)
Boxcar Smoothing: 0 (USB4C02835)
Correct for Electrical Dark: No (USB4C02835)
Strobe/Lamp Enabled: No (USB4C02835)
Correct for Detector Non-linearity: No (USB4C02835)
Correct for Stray Light: No (USB4C02835)
Number of Pixels in Processed Spectrum: 3648
>>>>>Begin Processed Spectral Data<<<<<
177.47	1798.12
177.69	1798.12
177.91	1798.12
178.13	1814.50
178.36	1785.83
178.58	2162.66
178.80	2318.30
179.02	2125.79
179.24	2185.18
179.46	2111.46
179.68	2248.67
179.90	2260.96
180.13	2203.61
180.35	2136.03
180.57	2107.36
180.79	2400.22
181.01	2293.72
181.23	2185.18
181.45	2267.10
181.67	2291.68
181.90	2303.96
182.12	2220.00
182.34	2064.35
182.56	2293.72
182.78	2271.20
183.00	2129.89
183.22	2215.90
183.44	2076.64
183.66	2553.82
183.89	2234.33
184.11	2168.80
184.33	2332.64
184.55	2324.44
184.77	2193.37
184.99	2187.23
185.21	2131.94
185.43	2519.00
185.65	2164.70
185.87	2197.47
186.10	2424.80
186.32	2469.85
186.54	2197.47
186.76	2228.19
186.98	2334.68
187.20	2195.42
187.42	2129.89
187.64	2174.94
187.86	2346.97
188.08	2338.78
188.30	2123.74
188.52	2252.77
188.75	2330.59
188.97	2326.49
189.19	2150.37
189.41	2222.05
189.63	2230.24
189.85	2129.89
190.07	2070.50
190.29	2076.64
190.51	2318.30
190.73	2105.31
190.95	2334.68
191.17	2170.85
191.39	2101.22
191.61	2240.48
191.84	2148.32
192.06	2269.15
192.28	2136.03
192.50	2484.19
192.72	2226.14
192.94	2209.76
193.16	2326.49
193.38	2236.38
193.60	2121.70
193.82	2240.48
194.04	2346.97
194.26	2240.48
194.48	2179.04
194.70	2125.79
194.92	2179.04
195.14	2277.34
195.36	2150.37
195.58	2211.81
195.80	2234.33
196.02	2211.81
196.24	2142.18
196.46	2211.81
196.69	2224.09
196.91	2572.25
197.13	2160.61
197.35	2197.47
197.57	2398.17
197.79	2308.06
198.01	2244.57
198.23	2232.29
198.45	2289.63
198.67	2140.13
198.89	2138.08
199.11	2346.97
199.33	2158.56
199.55	2093.02
199.77	2121.70
199.99	2279.39
200.21	2158.56
200.43	2252.77
200.65	2121.70
200.87	1978.34
201.09	2228.19
201.31	2285.53
201.53	2238.43
201.75	2207.71
201.97	2306.01
202.19	2228.19
202.41	2277.34
202.63	2342.88
202.85	2314.20
203.07	2289.63
203.29	2191.33
203.51	2117.60
203.73	2252.77
203.95	2574.30
204.17	2183.13
204.39	2265.05
204.61	2234.33
204.83	2209.76
205.05	2226.14
205.27	2293.72
205.49	2459.61
205.71	2248.67
205.93	2121.70
206.15	2148.32
206.37	2240.48
206.59	2203.61
206.81	2129.89
207.03	2095.07
207.25	2160.61
207.47	2244.57
207.69	2133.98
207.91	2324.44
208.13	2373.60
208.34	2238.43
208.56	2125.79
208.78	2224.09
209.00	2250.72
209.22	2244.57
209.44	2248.67
209.66	2142.18
209.88	2203.61
210.10	2146.27
210.32	2195.42
210.54	2232.29
210.76	2238.43
210.98	2359.26
211.20	2007.01
211.42	2199.52
211.64	2387.93
211.86	2361.31
212.08	2242.53
212.30	2224.09
212.52	2250.72
212.74	2346.97
212.96	2226.14
213.17	2238.43
213.39	2316.25
213.61	2424.80
213.83	2160.61
214.05	2150.37
214.27	2416.60
214.49	2105.31
214.71	2138.08
214.93	2289.63
215.15	2291.68
215.37	2256.86
215.59	2097.12
215.81	2217.95
216.03	2361.31
216.24	2310.11
216.46	2160.61
216.68	2199.52
216.90	2392.03
217.12	2316.25
217.34	2224.09
217.56	2263.01
217.78	2355.16
218.00	2293.72
218.22	2203.61
218.44	2201.57
218.66	2273.25
218.87	2430.94
219.09	2213.85
219.31	2191.33
219.53	2306.01
219.75	2183.13
219.97	2199.52
220.19	2209.76
220.41	2187.23
220.63	2437.08
220.85	2207.71
221.06	2189.28
221.28	2428.89
221.50	2326.49
221.72	2136.03
221.94	2123.74
222.16	2303.96
222.38	2426.84
222.60	2236.38
222.82	2211.81
223.03	2332.64
223.25	2222.05
223.47	2226.14
223.69	2406.36
223.91	2385.88
224.13	2279.39
224.35	2066.40
224.57	2334.68
224.78	2308.06
225.00	2224.09
225.22	2211.81
225.44	2136.03
225.66	2289.63
225.88	2201.57
226.10	2240.48
226.32	2240.48
226.53	2428.89
226.75	2187.23
226.97	2228.19
227.19	2136.03
227.41	2193.37
227.63	2170.85
227.85	2072.54
228.06	2191.33
228.28	2199.52
228.50	2322.40
228.72	2095.07
228.94	2115.55
229.16	2166.75
229.37	2148.32
229.59	2176.99
229.81	2301.92
230.03	2220.00
230.25	2090.98
230.47	2072.54
230.69	2119.65
230.90	2340.83
231.12	2191.33
231.34	2226.14
231.56	2285.53
231.78	2158.56
232.00	2299.87
232.21	2176.99
232.43	2162.66
232.65	2039.78
232.87	2322.40
233.09	2093.02
233.30	2119.65
233.52	2353.12
233.74	2201.57
233.96	2111.46
234.18	2232.29
234.40	2236.38
234.61	2439.13
234.83	2060.26
235.05	2172.89
235.27	2551.77
235.49	2424.80
235.70	2127.84
235.92	2191.33
236.14	2285.53
236.36	2453.47
236.58	2136.03
236.79	2297.82
237.01	2252.77
237.23	2160.61
237.45	2310.11
237.67	2123.74
237.88	2265.05
238.10	2404.32
238.32	2131.94
238.54	2236.38
238.76	2244.57
238.97	2154.46
239.19	2103.26
239.41	2273.25
239.63	2389.98
239.85	2140.13
240.06	2203.61
240.28	2121.70
240.50	2367.45
240.72	2193.37
240.93	2090.98
241.15	2203.61
241.37	2226.14
241.59	2242.53
241.81	2148.32
242.02	2256.86
242.24	2267.10
242.46	2277.34
242.68	2076.64
242.89	2203.61
243.11	2396.12
243.33	2230.24
243.55	2252.77
243.76	2209.76
243.98	2265.05
244.20	2287.58
244.42	2189.28
244.64	2166.75
244.85	2203.61
245.07	2090.98
245.29	2209.76
245.51	2183.13
245.72	2293.72
245.94	2455.51
246.16	2172.89
246.38	2248.67
246.59	2207.71
246.81	2176.99
247.03	2193.37
247.24	2146.27
247.46	2205.66
247.68	2230.24
247.90	2146.27
248.11	2215.90
248.33	2326.49
248.55	2265.05
248.77	2318.30
248.98	2275.29
249.20	2410.46
249.42	2242.53
249.64	2207.71
249.85	2127.84
250.07	2111.46
250.29	2334.68
250.50	2291.68
250.72	2078.69
250.94	2306.01
251.16	2504.67
251.37	2158.56
251.59	2193.37
251.81	2318.30
252.02	2334.68
252.24	2185.18
252.46	2342.88
252.68	2207.71
252.89	2138.08
253.11	1955.81
253.33	2281.44
253.54	2398.17
253.76	2121.70
253.98	2217.95
254.20	2144.22
254.41	2117.60
254.63	2277.34
254.85	2144.22
255.06	2160.61
255.28	2322.40
255.50	2228.19
255.71	2107.36
255.93	2056.16
256.15	2277.34
256.36	2295.77
256.58	2103.26
256.80	2228.19
257.02	2256.86
257.23	2226.14
257.45	2228.19
257.67	2244.57
257.88	2160.61
258.10	2318.30
258.32	2209.76
258.53	2226.14
258.75	2408.41
258.97	2211.81
259.18	2099.17
259.40	2179.04
259.62	2365.40
259.83	2396.12
260.05	2281.44
260.27	2746.33
260.48	2359.26
260.70	2142.18
260.92	2052.06
261.13	2162.66
261.35	2236.38
261.57	2254.81
261.78	2095.07
262.00	2056.16
262.22	2308.06
262.43	2162.66
262.65	2244.57
262.86	2185.18
263.08	2508.76
263.30	2207.71
263.51	1982.43
263.73	2109.41
263.95	2328.54
264.16	2211.81
264.38	2129.89
264.60	2133.98
264.81	2211.81
265.03	2287.58
265.25	2373.60
265.46	2174.94
265.68	2478.04
265.89	2289.63
266.11	2097.12
266.33	2265.05
266.54	2363.36
266.76	2269.15
266.98	2162.66
267.19	2334.68
267.41	2383.84
267.62	2283.49
267.84	2060.26
268.06	2260.96
268.27	2273.25
268.49	2299.87
268.70	2318.30
268.92	2224.09
269.14	2156.51
269.35	2201.57
269.57	2125.79
269.79	2310.11
270.00	2187.23
270.22	2490.33
270.43	2062.30
270.65	2037.73
270.87	2334.68
271.08	2338.78
271.30	2199.52
271.51	2189.28
271.73	2281.44
271.95	2383.84
272.16	2258.91
272.38	2263.01
272.59	2193.37
272.81	2299.87
273.02	2189.28
273.24	2205.66
273.46	2334.68
273.67	2213.85
273.89	2047.97
274.10	2199.52
274.32	2437.08
274.54	2269.15
274.75	2185.18
274.97	2279.39
275.18	2367.45
275.40	2297.82
275.61	2203.61
275.83	2310.11
276.05	2181.09
276.26	2238.43
276.48	2326.49
276.69	2250.72
276.91	2215.90
277.12	2398.17
277.34	2301.92
277.55	2328.54
277.77	2252.77
277.99	2236.38
278.20	2146.27
278.42	2097.12
278.63	2142.18
278.85	2129.89
279.06	2105.31
279.28	2287.58
279.49	2314.20
279.71	2349.02
279.93	2277.34
280.14	2191.33
280.36	2187.23
280.57	2383.84
280.79	2334.68
281.00	2140.13
281.22	2179.04
281.43	2367.45
281.65	2101.22
281.86	2170.85
282.08	2365.40
282.29	2473.95
282.51	2080.74
282.73	2107.36
282.94	2193.37
283.16	2410.46
283.37	2430.94
283.59	2236.38
283.80	2326.49
284.02	2260.96
284.23	2297.82
284.45	2207.71
284.66	2234.33
284.88	2179.04
285.09	2252.77
285.31	2265.05
285.52	2301.92
285.74	2148.32
285.95	2326.49
286.17	2228.19
286.38	2299.87
286.60	2242.53
286.81	2226.14
287.03	2228.19
287.24	2230.24
287.46	2285.53
287.67	2258.91
287.89	2486.23
288.10	2299.87
288.32	2205.66
288.53	2385.88
288.75	2275.29
288.96	2346.97
289.18	2166.75
289.39	2138.08
289.61	2273.25
289.82	2416.60
290.04	2396.12
290.25	2109.41
290.47	2293.72
290.68	2232.29
290.90	2344.92
291.11	2076.64
291.33	2314.20
291.54	2133.98
291.76	2203.61
291.97	2269.15
292.18	2322.40
292.40	2183.13
292.61	2228.19
292.83	2439.13
293.04	2281.44
293.26	2293.72
293.47	2228.19
293.69	2088.93
293.90	2125.79
294.12	2400.22
294.33	2275.29
294.55	2211.81
294.76	2324.44
294.97	2308.06
295.19	2422.75
295.40	2217.95
295.62	2293.72
295.83	2349.02
296.05	2232.29
296.26	2375.64
296.48	2213.85
296.69	2269.15
296.90	2244.57
297.12	2299.87
297.33	2238.43
297.55	2283.49
297.76	2318.30
297.98	2318.30
298.19	2301.92
298.41	2279.39
298.62	2140.13
298.83	2387.93
299.05	2230.24
299.26	2281.44
299.48	2220.00
299.69	2299.87
299.90	2265.05
300.12	2150.37
300.33	2383.84
300.55	2207.71
300.76	2220.00
300.98	2162.66
301.19	2387.93
301.40	2199.52
301.62	2162.66
301.83	2310.11
302.05	2244.57
302.26	2183.13
302.47	2250.72
302.69	2160.61
302.90	2297.82
303.12	2021.35
303.33	2213.85
303.54	2475.99
303.76	2226.14
303.97	2248.67
304.19	2473.95
304.40	2179.04
304.61	2344.92
304.83	2371.55
305.04	2363.36
305.26	2369.50
305.47	2232.29
305.68	2267.10
305.90	2121.70
306.11	2285.53
306.33	2234.33
306.54	2160.61
306.75	2207.71
306.97	2146.27
307.18	2207.71
307.39	2162.66
307.61	2301.92
307.82	2254.81
308.04	2301.92
308.25	2170.85
308.46	2318.30
308.68	2338.78
308.89	2232.29
309.10	2416.60
309.32	2263.01
309.53	2228.19
309.74	2301.92
309.96	2152.42
310.17	2351.07
310.39	2273.25
310.60	2314.20
310.81	2205.66
311.03	2088.93
311.24	2334.68
311.45	2256.86
311.67	2426.84
311.88	2279.39
312.09	2244.57
312.31	2197.47
312.52	2211.81
312.73	2232.29
312.95	2103.26
313.16	2068.45
313.37	2287.58
313.59	2248.67
313.80	2271.20
314.01	2432.99
314.23	2209.76
314.44	2129.89
314.65	2164.70
314.87	2195.42
315.08	2220.00
315.29	2226.14
315.51	2162.66
315.72	2203.61
315.93	2332.64
316.15	2332.64
316.36	2207.71
316.57	2269.15
316.79	2367.45
317.00	2138.08
317.21	2299.87
317.43	2154.46
317.64	2316.25
317.85	2162.66
318.07	2185.18
318.28	2187.23
318.49	2334.68
318.70	2396.12
318.92	2398.17
319.13	2418.65
319.34	2408.41
319.56	2396.12
319.77	2377.69
319.98	2367.45
320.20	2310.11
320.41	2303.96
320.62	2306.01
320.83	2187.23
321.05	2318.30
321.26	2332.64
321.47	2250.72
321.69	2473.95
321.90	2160.61
322.11	2150.37
322.32	2232.29
322.54	2500.57
322.75	2226.14
322.96	2570.20
323.18	2191.33
323.39	2084.83
323.60	2193.37
323.81	2285.53
324.03	2146.27
324.24	2144.22
324.45	2224.09
324.66	2183.13
324.88	2338.78
325.09	2430.94
325.30	2170.85
325.52	2183.13
325.73	2334.68
325.94	2199.52
326.15	2076.64
326.37	2103.26
326.58	2328.54
326.79	2453.47
327.00	2125.79
327.22	2232.29
327.43	2195.42
327.64	2150.37
327.85	2306.01
328.07	2236.38
328.28	2455.51
328.49	2146.27
328.70	2209.76
328.92	2211.81
329.13	2269.15
329.34	2349.02
329.55	2494.43
329.76	2308.06
329.98	2310.11
330.19	2320.35
330.40	2258.91
330.61	2248.67
330.83	2209.76
331.04	2252.77
331.25	2246.62
331.46	2271.20
331.68	2144.22
331.89	2344.92
332.10	2152.42
332.31	2099.17
332.52	2248.67
332.74	2396.12
332.95	2119.65
333.16	2170.85
333.37	2381.79
333.58	2189.28
333.80	2246.62
334.01	2109.41
334.22	2230.24
334.43	2256.86
334.64	2269.15
334.86	2172.89
335.07	2170.85
335.28	2420.70
335.49	2090.98
335.70	2273.25
335.92	2414.56
336.13	2406.36
336.34	2310.11
336.55	2228.19
336.76	2324.44
336.98	2095.07
337.19	2244.57
337.40	2424.80
337.61	2478.04
337.82	2246.62
338.04	2209.76
338.25	2121.70
338.46	2236.38
338.67	2123.74
338.88	2125.79
339.09	2109.41
339.31	2187.23
339.52	2099.17
339.73	2168.80
339.94	2174.94
340.15	2310.11
340.36	2254.81
340.58	2248.67
340.79	2150.37
341.00	2381.79
341.21	2228.19
341.42	2424.80
341.63	2197.47
341.85	2320.35
342.06	2230.24
342.27	2197.47
342.48	2293.72
342.69	2152.42
342.90	2250.72
343.12	2254.81
343.33	2070.50
343.54	2375.64
343.75	2379.74
343.96	2316.25
344.17	2146.27
344.38	2285.53
344.60	2224.09
344.81	2035.68
345.02	2258.91
345.23	2336.73
345.44	2461.66
345.65	2260.96
345.86	2256.86
346.07	2316.25
346.29	2156.51
346.50	2267.10
346.71	2312.16
346.92	2330.59
347.13	2510.81
347.34	2148.32
347.55	2199.52
347.76	2322.40
347.98	2170.85
348.19	2291.68
348.40	2326.49
348.61	2260.96
348.82	2408.41
349.03	2281.44
349.24	2176.99
349.45	2443.23
349.66	2146.27
349.88	2267.10
350.09	2129.89
350.30	2340.83
350.51	2408.41
350.72	2269.15
350.93	2220.00
351.14	2195.42
351.35	2277.34
351.56	2183.13
351.77	2256.86
351.99	2299.87
352.20	2359.26
352.41	2349.02
352.62	2097.12
352.83	2207.71
353.04	2263.01
353.25	2176.99
353.46	2301.92
353.67	2324.44
353.88	2088.93
354.09	2160.61
354.30	2248.67
354.52	2293.72
354.73	2236.38
354.94	2150.37
355.15	2289.63
355.36	2441.18
355.57	2203.61
355.78	2322.40
355.99	2193.37
356.20	2179.04
356.41	2342.88
356.62	2269.15
356.83	2189.28
357.04	2363.36
357.25	2138.08
357.46	2195.42
357.68	2113.50
357.89	2150.37
358.10	2258.91
358.31	2310.11
358.52	2267.10
358.73	2209.76
358.94	2093.02
359.15	2248.67
359.36	2346.97
359.57	2269.15
359.78	2267.10
359.99	2332.64
360.20	2158.56
360.41	2242.53
360.62	2385.88
360.83	2172.89
361.04	2275.29
361.25	2277.34
361.46	2387.93
361.67	2351.07
361.88	2164.70
362.09	2338.78
362.30	2242.53
362.51	2136.03
362.72	2228.19
362.93	2371.55
363.14	2346.97
363.35	2234.33
363.56	2166.75
363.78	2351.07
363.99	2344.92
364.20	2217.95
364.41	2303.96
364.62	2400.22
364.83	2365.40
365.04	2179.04
365.25	2269.15
365.46	2514.91
365.67	2242.53
365.88	2203.61
366.09	2168.80
366.30	2185.18
366.51	2242.53
366.72	2107.36
366.93	2193.37
367.14	2281.44
367.35	2445.27
367.56	2234.33
367.77	2308.06
367.98	2275.29
368.18	2267.10
368.39	2297.82
368.60	2109.41
368.81	2232.29
369.02	2342.88
369.23	2316.25
369.44	2144.22
369.65	2166.75
369.86	2297.82
370.07	2281.44
370.28	2138.08
370.49	2201.57
370.70	2367.45
370.91	2154.46
371.12	2133.98
371.33	2420.70
371.54	2125.79
371.75	2402.27
371.96	2078.69
372.17	2342.88
372.38	2209.76
372.59	2342.88
372.80	2189.28
373.01	2174.94
373.22	2254.81
373.43	2199.52
373.64	2144.22
373.85	2420.70
374.06	2449.37
374.26	2346.97
374.47	2369.50
374.68	2334.68
374.89	2273.25
375.10	2269.15
375.31	2281.44
375.52	2224.09
375.73	2308.06
375.94	2193.37
376.15	2357.21
376.36	2217.95
376.57	2234.33
376.78	2283.49
376.99	2269.15
377.20	2340.83
377.40	2230.24
377.61	2416.60
377.82	2162.66
378.03	2432.99
378.24	2322.40
378.45	2236.38
378.66	2301.92
378.87	2113.50
379.08	2095.07
379.29	2230.24
379.50	2322.40
379.71	2250.72
379.91	2342.88
380.12	2244.57
380.33	2273.25
380.54	2187.23
380.75	2289.63
380.96	2166.75
381.17	2289.63
381.38	2236.38
381.59	2240.48
381.80	2244.57
382.00	2412.51
382.21	2326.49
382.42	2525.15
382.63	2459.61
382.84	2314.20
383.05	2342.88
383.26	2500.57
383.47	2318.30
383.68	2346.97
383.88	2263.01
384.09	2181.09
384.30	2398.17
384.51	2310.11
384.72	2158.56
384.93	2193.37
385.14	2306.01
385.35	2344.92
385.55	2129.89
385.76	2424.80
385.97	2215.90
386.18	2146.27
386.39	2154.46
386.60	2181.09
386.81	2275.29
387.02	2080.74
387.22	2168.80
387.43	2336.73
387.64	2281.44
387.85	2426.84
388.06	2449.37
388.27	3973.06
388.48	8097.67
388.68	11675.47
388.89	13719.34
389.10	14835.49
389.31	13813.55
389.52	10696.54
389.73	9310.07
389.93	8593.28
390.14	7952.26
390.35	7128.98
390.56	6342.56
390.77	5207.98
390.98	4122.56
391.18	3311.57
391.39	2703.32
391.60	2336.73
391.81	2457.56
392.02	2283.49
392.23	2455.51
392.43	2293.72
392.64	2420.70
392.85	2277.34
393.06	2439.13
393.27	2244.57
393.47	2187.23
393.68	2154.46
393.89	2260.96
394.10	2308.06
394.31	2187.23
394.52	2170.85
394.72	2193.37
394.93	2430.94
395.14	2176.99
395.35	2285.53
395.56	2228.19
395.76	2215.90
395.97	2303.96
396.18	2359.26
396.39	2363.36
396.60	2707.41
396.80	2580.44
397.01	2416.60
397.22	2377.69
397.43	2418.65
397.64	2232.29
397.84	2322.40
398.05	2504.67
398.26	2260.96
398.47	2349.02
398.67	2383.84
398.88	2273.25
399.09	2340.83
399.30	2281.44
399.51	2256.86
399.71	2154.46
399.92	2334.68
400.13	2308.06
400.34	2201.57
400.54	2301.92
400.75	2469.85
400.96	2373.60
401.17	2377.69
401.37	2336.73
401.58	2236.38
401.79	2260.96
402.00	2324.44
402.21	2637.78
402.41	2463.71
402.62	2588.63
402.83	2715.61
403.04	2695.13
403.24	2815.96
403.45	2432.99
403.66	2525.15
403.87	2512.86
404.07	2471.90
404.28	2510.81
404.49	2545.63
404.70	2277.34
404.90	2285.53
405.11	2295.77
405.32	2334.68
405.52	2111.46
405.73	2217.95
405.94	2142.18
406.15	2281.44
406.35	2392.03
406.56	2359.26
406.77	2306.01
406.98	2240.48
407.18	2170.85
407.39	2420.70
407.60	2279.39
407.80	2250.72
408.01	2236.38
408.22	2273.25
408.43	2191.33
408.63	2293.72
408.84	2318.30
409.05	2328.54
409.25	2146.27
409.46	2193.37
409.67	2228.19
409.88	2174.94
410.08	2252.77
410.29	2154.46
410.50	2295.77
410.70	2260.96
410.91	2095.07
411.12	2248.67
411.32	2269.15
411.53	2207.71
411.74	2375.64
411.95	2340.83
412.15	2326.49
412.36	2340.83
412.57	2377.69
412.77	2318.30
412.98	2332.64
413.19	2240.48
413.39	2263.01
413.60	2336.73
413.81	2392.03
414.01	2150.37
414.22	2289.63
414.43	2387.93
414.63	2215.90
414.84	2359.26
415.05	2215.90
415.25	2121.70
415.46	2277.34
415.67	2158.56
415.87	2263.01
416.08	2308.06
416.29	2125.79
416.49	2232.29
416.70	2136.03
416.91	2250.72
417.11	2211.81
417.32	2342.88
417.53	2346.97
417.73	2260.96
417.94	2168.80
418.15	2306.01
418.35	2301.92
418.56	2287.58
418.77	2543.58
418.97	2224.09
419.18	2258.91
419.38	2007.01
419.59	2258.91
419.80	2473.95
420.00	2207.71
420.21	2232.29
420.42	2381.79
420.62	2256.86
420.83	2205.66
421.04	2236.38
421.24	2207.71
421.45	2289.63
421.65	2306.01
421.86	2279.39
422.07	2381.79
422.27	2332.64
422.48	2258.91
422.69	2189.28
422.89	2273.25
423.10	2234.33
423.30	2187.23
423.51	2297.82
423.72	2301.92
423.92	2371.55
424.13	2062.30
424.33	2222.05
424.54	2359.26
424.75	2220.00
424.95	2385.88
425.16	2269.15
425.36	2162.66
425.57	2383.84
425.78	2318.30
425.98	2293.72
426.19	2234.33
426.39	2179.04
426.60	2281.44
426.81	2432.99
427.01	2306.01
427.22	2168.80
427.42	2127.84
427.63	2160.61
427.83	2365.40
428.04	2377.69
428.25	2346.97
428.45	2340.83
428.66	2375.64
428.86	2275.29
429.07	2297.82
429.28	2199.52
429.48	2256.86
429.69	2244.57
429.89	2265.05
430.10	2142.18
430.30	2275.29
430.51	2381.79
430.71	2158.56
430.92	2265.05
431.13	2162.66
431.33	2359.26
431.54	2220.00
431.74	2430.94
431.95	2457.56
432.15	2166.75
432.36	2260.96
432.56	2334.68
432.77	2412.51
432.98	2420.70
433.18	2265.05
433.39	2240.48
433.59	2273.25
433.80	2461.66
434.00	2447.32
434.21	2226.14
434.41	2234.33
434.62	2545.63
434.82	2193.37
435.03	2125.79
435.23	2365.40
435.44	2172.89
435.64	2174.94
435.85	2267.10
436.06	2301.92
436.26	2318.30
436.47	2244.57
436.67	2213.85
436.88	2357.21
437.08	2377.69
437.29	2371.55
437.49	2324.44
437.70	2408.41
437.90	2164.70
438.11	2453.47
438.31	2330.59
438.52	2449.37
438.72	2490.33
438.93	2578.39
439.13	2367.45
439.34	2443.23
439.54	2308.06
439.75	2322.40
439.95	2349.02
440.16	2220.00
440.36	2336.73
440.57	2260.96
440.77	2199.52
440.98	2232.29
441.18	2353.12
441.39	2191.33
441.59	2197.47
441.80	2416.60
442.00	2285.53
442.21	2381.79
442.41	2101.22
442.62	2412.51
442.82	2119.65
443.02	2242.53
443.23	2195.42
443.43	2244.57
443.64	2451.42
443.84	2185.18
444.05	2373.60
444.25	2267.10
444.46	2260.96
444.66	2297.82
444.87	2396.12
445.07	2064.35
445.28	2336.73
445.48	2475.99
445.69	2297.82
445.89	2463.71
446.09	2265.05
446.30	2564.06
446.50	2785.24
446.71	4419.52
446.91	5543.85
447.12	6332.32
447.32	6700.95
447.53	6123.43
447.73	5212.08
447.93	4571.07
448.14	4261.82
448.34	4042.69
448.55	3665.86
448.75	3526.60
448.96	3508.17
449.16	3121.10
449.36	2908.12
449.57	2570.20
449.77	2389.98
449.98	2258.91
450.18	2375.64
450.39	2326.49
450.59	2332.64
450.79	2209.76
451.00	2183.13
451.20	2246.62
451.41	2174.94
451.61	2349.02
451.81	2299.87
452.02	2234.33
452.22	2246.62
452.43	2258.91
452.63	2170.85
452.84	2275.29
453.04	2242.53
453.24	2260.96
453.45	2211.81
453.65	2316.25
453.86	2258.91
454.06	2334.68
454.26	2336.73
454.47	2162.66
454.67	2428.89
454.87	2338.78
455.08	2281.44
455.28	2359.26
455.49	2287.58
455.69	2146.27
455.89	2437.08
456.10	2383.84
456.30	2283.49
456.51	2228.19
456.71	2326.49
456.91	2383.84
457.12	2179.04
457.32	2244.57
457.52	2101.22
457.73	2357.21
457.93	2293.72
458.14	2240.48
458.34	2176.99
458.54	2240.48
458.75	2246.62
458.95	2324.44
459.15	2371.55
459.36	2265.05
459.56	2293.72
459.76	2551.77
459.97	2299.87
460.17	2322.40
460.37	2375.64
460.58	2226.14
460.78	2269.15
460.99	2203.61
461.19	2252.77
461.39	2236.38
461.60	2226.14
461.80	2275.29
462.00	2250.72
462.21	2181.09
462.41	2250.72
462.61	2179.04
462.82	2088.93
463.02	2283.49
463.22	2273.25
463.43	2342.88
463.63	2308.06
463.83	2412.51
464.04	2326.49
464.24	2240.48
464.44	2209.76
464.64	2318.30
464.85	2326.49
465.05	2344.92
465.25	2258.91
465.46	2211.81
465.66	2359.26
465.86	2398.17
466.07	2199.52
466.27	2273.25
466.47	2187.23
466.68	2093.02
466.88	2394.08
467.08	2269.15
467.29	2357.21
467.49	2213.85
467.69	2179.04
467.89	2326.49
468.10	2269.15
468.30	2277.34
468.50	2346.97
468.71	2396.12
468.91	2150.37
469.11	2414.56
469.31	2328.54
469.52	2193.37
469.72	2410.46
469.92	2428.89
470.13	2228.19
470.33	2293.72
470.53	2344.92
470.73	2688.98
470.94	2963.41
471.14	3155.92
471.34	3497.93
471.54	3436.49
471.75	3110.86
471.95	2777.05
472.15	2678.74
472.36	2805.72
472.56	2725.85
472.76	2684.89
472.96	2617.30
473.17	2531.29
473.37	2545.63
473.57	2287.58
473.77	2416.60
473.98	2316.25
474.18	2217.95
474.38	2549.72
474.58	2256.86
474.79	2189.28
474.99	2324.44
475.19	2379.74
475.39	2220.00
475.60	2260.96
475.80	2246.62
476.00	2277.34
476.20	2334.68
476.41	2246.62
476.61	2349.02
476.81	2392.03
477.01	2226.14
477.21	2351.07
477.42	2412.51
477.62	2170.85
477.82	2455.51
478.02	2164.70
478.23	2334.68
478.43	2115.55
478.63	2199.52
478.83	2281.44
479.03	2265.05
479.24	2328.54
479.44	2469.85
479.64	2158.56
479.84	2007.01
480.04	2275.29
480.25	2328.54
480.45	2133.98
480.65	2224.09
480.85	2453.47
481.06	2252.77
481.26	2359.26
481.46	2215.90
481.66	2306.01
481.86	2228.19
482.06	2351.07
482.27	2283.49
482.47	2228.19
482.67	2346.97
482.87	2213.85
483.07	2400.22
483.28	2195.42
483.48	2146.27
483.68	2232.29
483.88	2146.27
484.08	2103.26
484.29	2084.83
484.49	2187.23
484.69	2185.18
484.89	2371.55
485.09	2408.41
485.29	2283.49
485.50	2371.55
485.70	2314.20
485.90	2334.68
486.10	2265.05
486.30	2238.43
486.50	2379.74
486.71	2242.53
486.91	2326.49
487.11	2310.11
487.31	2189.28
487.51	2373.60
487.71	2217.95
487.91	2160.61
488.12	2146.27
488.32	2064.35
488.52	2250.72
488.72	1918.95
488.92	2250.72
489.12	2314.20
489.32	2342.88
489.53	2228.19
489.73	2064.35
489.93	2437.08
490.13	2174.94
490.33	2097.12
490.53	2293.72
490.73	2377.69
490.94	2224.09
491.14	2373.60
491.34	2349.02
491.54	2645.98
491.74	3162.06
491.94	3674.06
492.14	3964.87
492.34	4163.52
492.54	3874.76
492.75	3149.78
492.95	3231.69
493.15	3053.52
493.35	2904.02
493.55	2820.05
493.75	2740.18
493.95	2768.85
494.15	2514.91
494.35	2432.99
494.56	2326.49
494.76	2193.37
494.96	2332.64
495.16	2260.96
495.36	2269.15
495.56	2283.49
495.76	2246.62
495.96	2224.09
496.16	2185.18
496.36	2424.80
496.56	2246.62
496.77	2322.40
496.97	2256.86
497.17	2389.98
497.37	2168.80
497.57	2299.87
497.77	2306.01
497.97	2211.81
498.17	2244.57
498.37	2260.96
498.57	2330.59
498.77	2273.25
498.97	2389.98
499.17	2422.75
499.38	2236.38
499.58	2365.40
499.78	2334.68
499.98	2414.56
500.18	2291.68
500.38	2256.86
500.58	2377.69
500.78	2842.58
500.98	5111.73
501.18	7081.88
501.38	8730.49
501.58	9674.60
501.78	9445.23
501.98	7645.07
502.18	6426.53
502.38	5586.86
502.58	5124.02
502.78	4673.46
502.98	4530.11
503.18	4306.88
503.38	3948.48
503.59	3395.53
503.79	3243.98
503.99	3035.09
504.19	2873.30
504.39	2762.71
504.59	2805.72
504.79	2803.67
504.99	2834.39
505.19	2516.95
505.39	2541.53
505.59	2525.15
505.79	2578.39
505.99	2455.51
506.19	2402.27
506.39	2537.43
506.59	2203.61
506.79	2211.81
506.99	2359.26
507.19	2213.85
507.39	2324.44
507.59	2176.99
507.79	2236.38
507.99	2207.71
508.19	2211.81
508.39	2199.52
508.59	2293.72
508.79	2404.32
508.99	2424.80
509.19	2129.89
509.39	2281.44
509.59	2256.86
509.79	2211.81
509.99	2349.02
510.19	2385.88
510.39	2349.02
510.59	2279.39
510.79	2162.66
510.99	2199.52
511.19	2310.11
511.39	2473.95
511.59	2359.26
511.79	2418.65
511.99	2283.49
512.19	2426.84
512.38	2310.11
512.58	2244.57
512.78	2213.85
512.98	2367.45
513.18	2486.23
513.38	2150.37
513.58	2273.25
513.78	2226.14
513.98	2230.24
514.18	2252.77
514.38	2197.47
514.58	2211.81
514.78	2158.56
514.98	2244.57
515.18	2285.53
515.38	2224.09
515.58	2437.08
515.78	2222.05
515.98	2269.15
516.18	2310.11
516.38	2252.77
516.57	2224.09
516.77	2187.23
516.97	2293.72
517.17	2113.50
517.37	2142.18
517.57	2379.74
517.77	2312.16
517.97	2191.33
518.17	2289.63
518.37	2138.08
518.57	2203.61
518.77	2168.80
518.97	2267.10
519.16	2355.16
519.36	2387.93
519.56	2226.14
519.76	2201.57
519.96	2242.53
520.16	2461.66
520.36	2244.57
520.56	2318.30
520.76	2195.42
520.96	2213.85
521.16	2342.88
521.35	2293.72
521.55	2392.03
521.75	2375.64
521.95	2271.20
522.15	2234.33
522.35	2158.56
522.55	2232.29
522.75	2342.88
522.95	2191.33
523.14	2187.23
523.34	2230.24
523.54	2248.67
523.74	2355.16
523.94	2289.63
524.14	2162.66
524.34	2306.01
524.54	2379.74
524.73	2199.52
524.93	2322.40
525.13	2277.34
525.33	2117.60
525.53	2469.85
525.73	2299.87
525.93	2258.91
526.13	2269.15
526.32	2267.10
526.52	2381.79
526.72	2316.25
526.92	2326.49
527.12	2187.23
527.32	2195.42
527.52	2346.97
527.71	2351.07
527.91	2166.75
528.11	2283.49
528.31	2265.05
528.51	2166.75
528.71	2375.64
528.90	2301.92
529.10	2471.90
529.30	2252.77
529.50	2119.65
529.70	2285.53
529.90	2291.68
530.09	2236.38
530.29	2140.13
530.49	2166.75
530.69	2529.24
530.89	2205.66
531.09	2371.55
531.28	2248.67
531.48	2320.35
531.68	2318.30
531.88	2293.72
532.08	2392.03
532.28	2250.72
532.47	2308.06
532.67	2277.34
532.87	2295.77
533.07	2242.53
533.27	2396.12
533.46	2396.12
533.66	2295.77
533.86	2260.96
534.06	2301.92
534.26	2351.07
534.45	2260.96
534.65	2332.64
534.85	2256.86
535.05	2205.66
535.25	2424.80
535.44	2123.74
535.64	2344.92
535.84	2263.01
536.04	2226.14
536.24	2205.66
536.43	2203.61
536.63	2273.25
536.83	2295.77
537.03	2269.15
537.22	2117.60
537.42	2119.65
537.62	2293.72
537.82	2172.89
538.02	2400.22
538.21	2326.49
538.41	2611.16
538.61	2279.39
538.81	2265.05
539.00	2279.39
539.20	2154.46
539.40	2260.96
539.60	2267.10
539.79	2363.36
539.99	2234.33
540.19	2240.48
540.39	2203.61
540.58	2226.14
540.78	2398.17
540.98	2338.78
541.18	2365.40
541.37	2279.39
541.57	2340.83
541.77	2236.38
541.97	2179.04
542.16	2156.51
542.36	2185.18
542.56	2228.19
542.76	2469.85
542.95	2334.68
543.15	2277.34
543.35	2273.25
543.54	2158.56
543.74	2191.33
543.94	2377.69
544.14	2224.09
544.33	2320.35
544.53	2133.98
544.73	2170.85
544.93	2201.57
545.12	2258.91
545.32	2293.72
545.52	2318.30
545.71	2185.18
545.91	2228.19
546.11	2199.52
546.30	2072.54
546.50	2277.34
546.70	2287.58
546.90	2250.72
547.09	2138.08
547.29	2232.29
547.49	2406.36
547.68	2338.78
547.88	2213.85
548.08	2367.45
548.27	2809.81
548.47	2215.90
548.67	2154.46
548.87	2351.07
549.06	2228.19
549.26	2301.92
549.46	2248.67
549.65	2160.61
549.85	2256.86
550.05	2371.55
550.24	2181.09
550.44	2277.34
550.64	2236.38
550.83	2179.04
551.03	2400.22
551.23	2322.40
551.42	2267.10
551.62	2289.63
551.82	2217.95
552.01	2287.58
552.21	2383.84
552.41	2271.20
552.60	2416.60
552.80	2303.96
553.00	2281.44
553.19	2246.62
553.39	2463.71
553.59	2142.18
553.78	2295.77
553.98	2203.61
554.17	2154.46
554.37	2306.01
554.57	2357.21
554.76	2199.52
554.96	2256.86
555.16	2242.53
555.35	2308.06
555.55	2349.02
555.75	2359.26
555.94	2340.83
556.14	2148.32
556.33	2318.30
556.53	2254.81
556.73	2250.72
556.92	2353.12
557.12	2379.74
557.32	2449.37
557.51	2418.65
557.71	2320.35
557.90	2392.03
558.10	2400.22
558.30	2242.53
558.49	2183.13
558.69	2195.42
558.88	2330.59
559.08	2293.72
559.28	2162.66
559.47	2306.01
559.67	2312.16
559.86	2455.51
560.06	2234.33
560.26	2271.20
560.45	2342.88
560.65	2244.57
560.84	2371.55
561.04	2160.61
561.24	2375.64
561.43	2203.61
561.63	2424.80
561.82	2271.20
562.02	2443.23
562.22	2222.05
562.41	2154.46
562.61	2207.71
562.80	2138.08
563.00	2523.10
563.19	2314.20
563.39	2330.59
563.59	2318.30
563.78	2074.59
563.98	2080.74
564.17	2138.08
564.37	2109.41
564.56	2250.72
564.76	2156.51
564.96	2359.26
565.15	2269.15
565.35	2504.67
565.54	2244.57
565.74	2349.02
565.93	2365.40
566.13	2236.38
566.32	2318.30
566.52	2324.44
566.71	2326.49
566.91	2404.32
567.11	2283.49
567.30	2185.18
567.50	2371.55
567.69	2373.60
567.89	2271.20
568.08	2142.18
568.28	2326.49
568.47	2199.52
568.67	2326.49
568.86	2195.42
569.06	2346.97
569.25	2265.05
569.45	2174.94
569.64	2297.82
569.84	2291.68
570.04	2248.67
570.23	2273.25
570.43	2285.53
570.62	2330.59
570.82	2392.03
571.01	2154.46
571.21	2224.09
571.40	2148.32
571.60	2310.11
571.79	2310.11
571.99	2351.07
572.18	2179.04
572.38	2281.44
572.57	2185.18
572.77	2312.16
572.96	2506.71
573.16	2275.29
573.35	2224.09
573.55	2400.22
573.74	2342.88
573.94	2217.95
574.13	2193.37
574.33	2353.12
574.52	2432.99
574.71	2252.77
574.91	2314.20
575.10	2232.29
575.30	2312.16
575.49	2127.84
575.69	2207.71
575.88	2340.83
576.08	2363.36
576.27	2414.56
576.47	2303.96
576.66	2432.99
576.86	2385.88
577.05	2322.40
577.25	2381.79
577.44	2432.99
577.64	2230.24
577.83	2406.36
578.02	2285.53
578.22	2406.36
578.41	2469.85
578.61	2277.34
578.80	2101.22
579.00	2265.05
579.19	2306.01
579.39	2289.63
579.58	2416.60
579.77	2287.58
579.97	2469.85
580.16	2392.03
580.36	2312.16
580.55	2326.49
580.75	2332.64
580.94	2293.72
581.13	2455.51
581.33	2408.41
581.52	2244.57
581.72	2529.24
581.91	2455.51
582.11	2275.29
582.30	2367.45
582.49	2357.21
582.69	2553.82
582.88	2334.68
583.08	2289.63
583.27	2404.32
583.47	2387.93
583.66	2209.76
583.85	2220.00
584.05	2283.49
584.24	2332.64
584.44	2361.31
584.63	2281.44
584.82	2473.95
585.02	2420.70
585.21	2432.99
585.41	2437.08
585.60	2404.32
585.79	2586.58
585.99	2516.95
586.18	2396.12
586.37	2994.13
586.57	4642.75
586.76	13692.72
586.96	33035.78
587.15	46660.92
587.34	56243.37
587.54	60929.12
587.73	55932.07
587.93	39687.59
588.12	30043.70
588.31	24094.35
588.51	21001.92
588.70	19027.68
588.89	17385.21
589.09	15050.52
589.28	12928.83
589.47	10631.01
589.67	8339.33
589.86	6291.36
590.06	4724.66
590.25	3856.33
590.44	3229.65
590.64	2877.40
590.83	2619.35
591.02	2613.21
591.22	2316.25
591.41	2424.80
591.60	2346.97
591.80	2506.71
591.99	2207.71
592.18	2244.57
592.38	2432.99
592.57	2250.72
592.76	2381.79
592.96	2385.88
593.15	2260.96
593.34	2459.61
593.54	2183.13
593.73	2289.63
593.92	2373.60
594.12	2322.40
594.31	2400.22
594.50	2406.36
594.70	2250.72
594.89	2605.02
595.08	2211.81
595.28	2430.94
595.47	2576.34
595.66	2336.73
595.86	2176.99
596.05	2308.06
596.24	2344.92
596.43	2441.18
596.63	2457.56
596.82	2332.64
597.01	2306.01
597.21	2465.75
597.40	2353.12
597.59	2340.83
597.79	2275.29
597.98	2369.50
598.17	2387.93
598.36	2236.38
598.56	2437.08
598.75	2252.77
598.94	2332.64
599.14	2248.67
599.33	2244.57
599.52	2320.35
599.71	2340.83
599.91	2428.89
600.10	2373.60
600.29	2291.68
600.48	2301.92
600.68	2289.63
600.87	2291.68
601.06	2220.00
601.26	2326.49
601.45	2387.93
601.64	2256.86
601.83	2437.08
602.03	2215.90
602.22	2111.46
602.41	2394.08
602.60	2551.77
602.80	2396.12
602.99	2287.58
603.18	2289.63
603.37	2289.63
603.57	2281.44
603.76	2291.68
603.95	2318.30
604.14	2226.14
604.34	2213.85
604.53	2295.77
604.72	2308.06
604.91	2385.88
605.10	2310.11
605.30	2174.94
605.49	2529.24
605.68	2355.16
605.87	2310.11
606.07	2133.98
606.26	2269.15
606.45	2301.92
606.64	2324.44
606.84	2240.48
607.03	2293.72
607.22	2355.16
607.41	2306.01
607.60	2185.18
607.80	2449.37
607.99	2191.33
608.18	2367.45
608.37	2256.86
608.56	2228.19
608.76	2281.44
608.95	2506.71
609.14	2361.31
609.33	2392.03
609.52	2478.04
609.72	2392.03
609.91	2426.84
610.10	2340.83
610.29	2398.17
610.48	2351.07
610.68	2273.25
610.87	2324.44
611.06	2342.88
611.25	2248.67
611.44	2516.95
611.63	2256.86
611.83	2330.59
612.02	2236.38
612.21	2404.32
612.40	2129.89
612.59	2222.05
612.79	2232.29
612.98	2318.30
613.17	2480.09
613.36	2271.20
613.55	2449.37
613.74	2338.78
613.93	2334.68
614.13	2473.95
614.32	2471.90
614.51	2488.28
614.70	2404.32
614.89	2377.69
615.08	2400.22
615.28	2863.06
615.47	2250.72
615.66	2359.26
615.85	2301.92
616.04	2435.03
616.23	2283.49
616.42	2318.30
616.62	2357.21
616.81	2330.59
617.00	2291.68
617.19	2355.16
617.38	2299.87
617.57	2310.11
617.76	2320.35
617.95	2453.47
618.15	2371.55
618.34	2445.27
618.53	2088.93
618.72	2377.69
618.91	2371.55
619.10	2414.56
619.29	2303.96
619.48	2301.92
619.68	2179.04
619.87	2232.29
620.06	2152.42
620.25	2402.27
620.44	2176.99
620.63	2236.38
620.82	2248.67
621.01	2297.82
621.20	2277.34
621.39	2320.35
621.59	2371.55
621.78	2316.25
621.97	2346.97
622.16	2381.79
622.35	2217.95
622.54	2344.92
622.73	2398.17
622.92	2045.92
623.11	2408.41
623.30	2209.76
623.49	2428.89
623.68	2176.99
623.88	2355.16
624.07	2252.77
624.26	2230.24
624.45	2260.96
624.64	2269.15
624.83	2260.96
625.02	2277.34
625.21	2301.92
625.40	2316.25
625.59	2367.45
625.78	2258.91
625.97	2377.69
626.16	2430.94
626.35	2320.35
626.54	2334.68
626.74	2426.84
626.93	2324.44
627.12	2273.25
627.31	2355.16
627.50	2193.37
627.69	2418.65
627.88	2209.76
628.07	2176.99
628.26	2164.70
628.45	2154.46
628.64	2133.98
628.83	2312.16
629.02	2179.04
629.21	2248.67
629.40	2301.92
629.59	2258.91
629.78	2240.48
629.97	2334.68
630.16	2289.63
630.35	2293.72
630.54	2230.24
630.73	2220.00
630.92	2314.20
631.11	2168.80
631.30	2285.53
631.49	2299.87
631.68	2203.61
631.87	2293.72
632.06	2181.09
632.25	2523.10
632.44	2283.49
632.63	2252.77
632.82	2281.44
633.01	2349.02
633.20	2398.17
633.39	2287.58
633.58	2234.33
633.77	2349.02
633.96	2377.69
634.15	2414.56
634.34	2301.92
634.53	2334.68
634.72	2320.35
634.91	2080.74
635.10	2301.92
635.29	2256.86
635.48	2291.68
635.67	2250.72
635.86	2121.70
636.05	2389.98
636.24	2295.77
636.43	2220.00
636.62	2193.37
636.81	2064.35
637.00	2320.35
637.19	2265.05
637.38	2306.01
637.57	2306.01
637.76	2301.92
637.95	2351.07
638.14	2336.73
638.33	2389.98
638.52	2416.60
638.71	2279.39
638.89	2172.89
639.08	2498.52
639.27	2371.55
639.46	2457.56
639.65	2805.72
639.84	2826.20
640.03	2918.36
640.22	2856.92
640.41	2899.92
640.60	2465.75
640.79	2473.95
640.98	2441.18
641.17	2435.03
641.36	2432.99
641.55	2375.64
641.74	2297.82
641.92	2244.57
642.11	2209.76
642.30	2230.24
642.49	2140.13
642.68	2226.14
642.87	2316.25
643.06	2385.88
643.25	2201.57
643.44	2174.94
643.63	2285.53
643.82	2322.40
644.00	2166.75
644.19	2291.68
644.38	2183.13
644.57	2324.44
644.76	2310.11
644.95	2213.85
645.14	2297.82
645.33	2207.71
645.52	2275.29
645.71	2146.27
645.89	2148.32
646.08	2320.35
646.27	2256.86
646.46	2420.70
646.65	2152.42
646.84	2324.44
647.03	2185.18
647.22	2344.92
647.40	2277.34
647.59	2170.85
647.78	2152.42
647.97	2277.34
648.16	2146.27
648.35	2353.12
648.54	2441.18
648.73	2230.24
648.91	2318.30
649.10	2269.15
649.29	2154.46
649.48	2281.44
649.67	2279.39
649.86	2281.44
650.05	2291.68
650.23	2463.71
650.42	2326.49
650.61	2482.14
650.80	2453.47
650.99	2547.67
651.18	2377.69
651.36	2402.27
651.55	2207.71
651.74	2392.03
651.93	2322.40
652.12	2260.96
652.31	2244.57
652.49	2181.09
652.68	2318.30
652.87	2430.94
653.06	2412.51
653.25	2449.37
653.44	2226.14
653.62	2394.08
653.81	2203.61
654.00	2316.25
654.19	2330.59
654.38	2531.29
654.56	2240.48
654.75	2209.76
654.94	2392.03
655.13	2248.67
655.32	2277.34
655.51	2359.26
655.69	2222.05
655.88	2389.98
656.07	2138.08
656.26	2232.29
656.45	2187.23
656.63	2242.53
656.82	2228.19
657.01	2371.55
657.20	2232.29
657.38	2449.37
657.57	2232.29
657.76	2152.42
657.95	2332.64
658.14	2303.96
658.32	2244.57
658.51	2125.79
658.70	2277.34
658.89	2254.81
659.08	2301.92
659.26	2441.18
659.45	2217.95
659.64	2392.03
659.83	2250.72
660.01	2566.10
660.20	2158.56
660.39	2475.99
660.58	2080.74
660.76	2289.63
660.95	2170.85
661.14	2217.95
661.33	2158.56
661.51	2158.56
661.70	2176.99
661.89	2330.59
662.08	2236.38
662.26	2195.42
662.45	2185.18
662.64	2463.71
662.83	2287.58
663.01	2185.18
663.20	2222.05
663.39	2414.56
663.58	2174.94
663.76	2265.05
663.95	2312.16
664.14	2164.70
664.32	2207.71
664.51	2154.46
664.70	2101.22
664.89	2258.91
665.07	2113.50
665.26	2314.20
665.45	2107.36
665.64	2363.36
665.82	2220.00
666.01	2316.25
666.20	2207.71
666.38	2451.42
666.57	2437.08
666.76	3391.44
666.95	8200.07
667.13	16318.22
667.32	21257.92
667.51	24757.89
667.69	26707.56
667.88	24307.34
668.07	17338.10
668.25	13803.31
668.44	11581.26
668.63	10026.86
668.81	8753.02
669.00	7460.75
669.19	6887.32
669.38	5984.16
669.56	5152.69
669.75	4267.97
669.94	3712.97
670.12	3028.95
670.31	2805.72
670.50	2662.36
670.68	2586.58
670.87	2412.51
671.06	2271.20
671.24	2361.31
671.43	2430.94
671.62	2359.26
671.80	2289.63
671.99	2367.45
672.18	2234.33
672.36	2400.22
672.55	2240.48
672.74	2215.90
672.92	2306.01
673.11	2396.12
673.29	2183.13
673.48	2330.59
673.67	2176.99
673.85	2392.03
674.04	2217.95
674.23	2310.11
674.41	2488.28
674.60	2170.85
674.79	2021.35
674.97	2170.85
675.16	2338.78
675.34	2295.77
675.53	2160.61
675.72	2344.92
675.90	2367.45
676.09	2248.67
676.28	2220.00
676.46	2195.42
676.65	2326.49
676.83	2185.18
677.02	2246.62
677.21	2252.77
677.39	2289.63
677.58	2242.53
677.77	2195.42
677.95	2164.70
678.14	2226.14
678.32	2220.00
678.51	2162.66
678.70	2447.32
678.88	2185.18
679.07	2303.96
679.25	2213.85
679.44	2199.52
679.63	2127.84
679.81	2199.52
680.00	2439.13
680.18	2306.01
680.37	2308.06
680.55	2283.49
680.74	2142.18
680.93	2138.08
681.11	2260.96
681.30	2289.63
681.48	2226.14
681.67	2236.38
681.85	2269.15
682.04	2220.00
682.23	2379.74
682.41	2174.94
682.60	2258.91
682.78	2291.68
682.97	2166.75
683.15	2256.86
683.34	2322.40
683.53	2400.22
683.71	2152.42
683.90	2400.22
684.08	2387.93
684.27	2258.91
684.45	2252.77
684.64	2324.44
684.82	2293.72
685.01	2312.16
685.19	2273.25
685.38	2471.90
685.57	2271.20
685.75	2176.99
685.94	2170.85
686.12	2158.56
686.31	2207.71
686.49	2428.89
686.68	2109.41
686.86	2301.92
687.05	2263.01
687.23	2432.99
687.42	2162.66
687.60	2113.50
687.79	2301.92
687.97	2441.18
688.16	2371.55
688.34	2396.12
688.53	2025.44
688.71	2379.74
688.90	2349.02
689.08	2220.00
689.27	2086.88
689.45	2271.20
689.64	2242.53
689.82	2283.49
690.01	2258.91
690.19	2265.05
690.38	2332.64
690.56	2326.49
690.75	2209.76
690.93	2203.61
691.12	2170.85
691.30	2213.85
691.49	2279.39
691.67	2224.09
691.86	2508.76
692.04	2215.90
692.23	2220.00
692.41	2283.49
692.60	2467.80
692.78	2314.20
692.97	2310.11
693.15	2365.40
693.34	2475.99
693.52	2424.80
693.71	2236.38
693.89	2228.19
694.08	2162.66
694.26	2273.25
694.44	2314.20
694.63	2359.26
694.81	2127.84
695.00	2252.77
695.18	2303.96
695.37	2519.00
695.55	2291.68
695.74	2215.90
695.92	2199.52
696.10	2373.60
696.29	2111.46
696.47	2220.00
696.66	2168.80
696.84	2158.56
697.03	2220.00
697.21	2439.13
697.40	3268.56
697.58	2441.18
697.76	2152.42
697.95	2217.95
698.13	2166.75
698.32	2193.37
698.50	2267.10
698.68	2283.49
698.87	2332.64
699.05	2453.47
699.24	2277.34
699.42	2093.02
699.61	2244.57
699.79	2215.90
699.97	2211.81
700.16	2125.79
700.34	2138.08
700.53	2310.11
700.71	2357.21
700.89	2361.31
701.08	2197.47
701.26	2232.29
701.45	2799.57
701.63	2189.28
701.81	2207.71
702.00	2191.33
702.18	2267.10
702.37	2205.66
702.55	2478.04
702.73	2414.56
702.92	2334.68
703.10	2521.05
703.28	2562.01
703.47	2324.44
703.65	2406.36
703.84	2375.64
704.02	2244.57
704.20	2404.32
704.39	2283.49
704.57	2242.53
704.75	2383.84
704.94	2484.19
705.12	2293.72
705.30	2562.01
705.49	4454.33
705.67	10278.76
705.86	18159.34
706.04	21452.47
706.22	24725.13
706.41	25460.35
706.59	21909.17
706.77	15255.32
706.96	12949.31
707.14	11442.00
707.32	9705.32
707.51	8814.46
707.69	7214.99
707.87	5855.14
708.06	4755.38
708.24	3975.11
708.42	3256.27
708.61	3016.66
708.79	2457.56
708.97	2482.14
709.16	2422.75
709.34	2377.69
709.52	2244.57
709.71	2277.34
709.89	2324.44
710.07	2246.62
710.26	2146.27
710.44	2260.96
710.62	2314.20
710.80	2357.21
710.99	2240.48
711.17	2371.55
711.35	2162.66
711.54	2187.23
711.72	2357.21
711.90	2269.15
712.09	2209.76
712.27	2185.18
712.45	2291.68
712.63	2244.57
712.82	2228.19
713.00	2187.23
713.18	2318.30
713.37	2314.20
713.55	2371.55
713.73	2299.87
713.91	2353.12
714.10	2252.77
714.28	2271.20
714.46	2316.25
714.65	2236.38
714.83	2254.81
715.01	2203.61
715.19	2240.48
715.38	2220.00
715.56	2306.01
715.74	2160.61
715.92	2152.42
716.11	2346.97
716.29	2070.50
716.47	2226.14
716.65	2185.18
716.84	2078.69
717.02	2338.78
717.20	2113.50
717.38	2201.57
717.57	2252.77
717.75	2244.57
717.93	2232.29
718.11	2303.96
718.30	2183.13
718.48	2346.97
718.66	2494.43
718.84	2373.60
719.03	2265.05
719.21	2113.50
719.39	2441.18
719.57	2283.49
719.75	2351.07
719.94	2168.80
720.12	2154.46
720.30	2230.24
720.48	2361.31
720.67	2162.66
720.85	2172.89
721.03	2181.09
721.21	2168.80
721.39	2383.84
721.58	2293.72
721.76	2263.01
721.94	2287.58
722.12	2324.44
722.30	2373.60
722.49	2203.61
722.67	2226.14
722.85	2248.67
723.03	2154.46
723.21	2203.61
723.40	2222.05
723.58	2336.73
723.76	2289.63
723.94	2412.51
724.12	2344.92
724.30	2432.99
724.49	2420.70
724.67	2224.09
724.85	2469.85
725.03	2121.70
725.21	2408.41
725.40	2494.43
725.58	2260.96
725.76	2457.56
725.94	2334.68
726.12	2166.75
726.30	2240.48
726.49	2248.67
726.67	2269.15
726.85	2306.01
727.03	2412.51
727.21	3600.33
727.39	4986.80
727.57	5861.29
727.76	6381.47
727.94	6776.73
728.12	6451.10
728.30	5255.09
728.48	4513.72
728.66	4075.46
728.84	3692.49
729.03	3321.81
729.21	3069.91
729.39	2729.94
729.57	2457.56
729.75	2420.70
729.93	2406.36
730.11	2246.62
730.30	2236.38
730.48	2146.27
730.66	2435.03
730.84	2318.30
731.02	2285.53
731.20	2222.05
731.38	2238.43
731.56	2215.90
731.74	2197.47
731.93	2383.84
732.11	2265.05
732.29	2209.76
732.47	2297.82
732.65	2310.11
732.83	2353.12
733.01	2301.92
733.19	2195.42
733.37	2326.49
733.56	2277.34
733.74	2168.80
733.92	2469.85
734.10	2179.04
734.28	2287.58
734.46	2168.80
734.64	2209.76
734.82	2234.33
735.00	2176.99
735.18	2166.75
735.36	2281.44
735.54	2256.86
735.73	2275.29
735.91	2289.63
736.09	2338.78
736.27	2217.95
736.45	2269.15
736.63	2070.50
736.81	2269.15
736.99	2314.20
737.17	2412.51
737.35	2242.53
737.53	2281.44
737.71	2306.01
737.89	2379.74
738.07	2160.61
738.25	2209.76
738.43	2097.12
738.61	2246.62
738.80	2138.08
738.98	2117.60
739.16	2248.67
739.34	2193.37
739.52	2412.51
739.70	2197.47
739.88	2383.84
740.06	2367.45
740.24	2035.68
740.42	2441.18
740.60	2154.46
740.78	2150.37
740.96	2039.78
741.14	2273.25
741.32	2238.43
741.50	2160.61
741.68	2451.42
741.86	2349.02
742.04	2166.75
742.22	2174.94
742.40	2244.57
742.58	2332.64
742.76	2170.85
742.94	2383.84
743.12	2115.55
743.30	2242.53
743.48	2351.07
743.66	2228.19
743.84	2318.30
744.02	2289.63
744.20	2217.95
744.38	2174.94
744.56	2187.23
744.74	2416.60
744.92	2281.44
745.10	2432.99
745.28	2351.07
745.46	2387.93
745.64	2140.13
745.82	2287.58
746.00	2258.91
746.18	2226.14
746.36	2174.94
746.54	2230.24
746.72	2285.53
746.90	2136.03
747.08	2375.64
747.26	2170.85
747.44	2340.83
747.62	2324.44
747.80	2301.92
747.98	2318.30
748.15	2277.34
748.33	2525.15
748.51	2283.49
748.69	2324.44
748.87	2047.97
749.05	2187.23
749.23	2267.10
749.41	2283.49
749.59	2215.90
749.77	2412.51
749.95	2213.85
750.13	2220.00
750.31	2334.68
750.49	2244.57
750.67	2301.92
750.85	2371.55
751.03	2293.72
751.20	2465.75
751.38	2271.20
751.56	2256.86
751.74	2232.29
751.92	2236.38
752.10	2191.33
752.28	2435.03
752.46	2136.03
752.64	2179.04
752.82	2301.92
753.00	2351.07
753.18	2220.00
753.35	2195.42
753.53	2209.76
753.71	2211.81
753.89	2195.42
754.07	2330.59
754.25	2293.72
754.43	2113.50
754.61	2207.71
754.79	2416.60
754.97	2185.18
755.14	2396.12
755.32	2142.18
755.50	2236.38
755.68	2312.16
755.86	2138.08
756.04	2193.37
756.22	2080.74
756.40	2322.40
756.57	2455.51
756.75	2215.90
756.93	2432.99
757.11	2357.21
757.29	2156.51
757.47	2144.22
757.65	2158.56
757.82	2074.59
758.00	2174.94
758.18	2269.15
758.36	2201.57
758.54	2402.27
758.72	2029.54
758.90	2267.10
759.07	2275.29
759.25	2191.33
759.43	2377.69
759.61	2113.50
759.79	3198.93
759.97	2326.49
760.15	2136.03
760.32	2277.34
760.50	2293.72
760.68	2424.80
760.86	2054.11
761.04	2396.12
761.22	2258.91
761.39	2281.44
761.57	2291.68
761.75	2209.76
761.93	2299.87
762.11	2170.85
762.28	2232.29
762.46	2191.33
762.64	2422.75
762.82	2166.75
763.00	2183.13
763.18	2318.30
763.35	2109.41
763.53	2346.97
763.71	2230.24
763.89	2242.53
764.07	2277.34
764.24	2232.29
764.42	2213.85
764.60	2187.23
764.78	2308.06
764.96	2301.92
765.13	2355.16
765.31	2176.99
765.49	2267.10
765.67	2179.04
765.84	2127.84
766.02	2209.76
766.20	2117.60
766.38	2258.91
766.56	2357.21
766.73	2318.30
766.91	2316.25
767.09	2236.38
767.27	2306.01
767.44	2191.33
767.62	2308.06
767.80	2246.62
767.98	2152.42
768.15	2265.05
768.33	2357.21
768.51	2293.72
768.69	2301.92
768.87	2291.68
769.04	2324.44
769.22	2549.72
769.40	2383.84
769.58	2559.96
769.75	2295.77
769.93	2432.99
770.11	2207.71
770.28	2105.31
770.46	2322.40
770.64	2240.48
770.82	2234.33
770.99	2310.11
771.17	2240.48
771.35	2162.66
771.53	2195.42
771.70	2166.75
771.88	2314.20
772.06	2222.05
772.23	2240.48
772.41	2355.16
772.59	2256.86
772.77	2115.55
772.94	2217.95
773.12	2211.81
773.30	2271.20
773.47	2269.15
773.65	2162.66
773.83	2377.69
774.01	2150.37
774.18	2125.79
774.36	2252.77
774.54	2076.64
774.71	2320.35
774.89	2150.37
775.07	2144.22
775.24	2160.61
775.42	2254.81
775.60	2490.33
775.78	2172.89
775.95	2176.99
776.13	2121.70
776.31	2041.82
776.48	2258.91
776.66	2330.59
776.84	2240.48
777.01	2195.42
777.19	2146.27
777.37	2129.89
777.54	2332.64
777.72	2478.04
777.90	2267.10
778.07	2179.04
778.25	2637.78
778.43	2353.12
778.60	2263.01
778.78	2277.34
778.96	2449.37
779.13	2101.22
779.31	2299.87
779.49	2232.29
779.66	2232.29
779.84	2232.29
780.01	2246.62
780.19	2215.90
780.37	2367.45
780.54	2344.92
780.72	2166.75
780.90	2271.20
781.07	2170.85
781.25	2176.99
781.43	2244.57
781.60	2277.34
781.78	2342.88
781.95	2299.87
782.13	2228.19
782.31	2220.00
782.48	2084.83
782.66	2291.68
782.83	2410.46
783.01	2285.53
783.19	2308.06
783.36	2236.38
783.54	2170.85
783.72	2389.98
783.89	2224.09
784.07	2291.68
784.24	2254.81
784.42	2281.44
784.60	2306.01
784.77	2291.68
784.95	2121.70
785.12	2144.22
785.30	2295.77
785.47	2140.13
785.65	2181.09
785.83	2215.90
786.00	2150.37
786.18	2258.91
786.35	2156.51
786.53	2195.42
786.71	2281.44
786.88	2308.06
787.06	2260.96
787.23	2265.05
787.41	2160.61
787.58	2254.81
787.76	2146.27
787.94	2230.24
788.11	2250.72
788.29	2195.42
788.46	2215.90
788.64	2068.45
788.81	2250.72
788.99	2162.66
789.16	2209.76
789.34	2201.57
789.52	2238.43
789.69	2238.43
789.87	2070.50
790.04	2199.52
790.22	2256.86
790.39	2445.27
790.57	2129.89
790.74	2193.37
790.92	2375.64
791.09	2105.31
791.27	2215.90
791.44	2379.74
791.62	2199.52
791.79	2328.54
791.97	2260.96
792.15	2549.72
792.32	2340.83
792.50	2334.68
792.67	2324.44
792.85	2340.83
793.02	2246.62
793.20	2242.53
793.37	2084.83
793.55	2199.52
793.72	2113.50
793.90	2297.82
794.07	2207.71
794.25	2113.50
794.42	2211.81
794.60	2209.76
794.77	2260.96
794.95	2285.53
795.12	2344.92
795.30	2297.82
795.47	2070.50
795.65	2578.39
795.82	2271.20
796.00	2220.00
796.17	2232.29
796.34	2195.42
796.52	2357.21
796.69	2379.74
796.87	2330.59
797.04	2289.63
797.22	2359.26
797.39	2277.34
797.57	2324.44
797.74	2330.59
797.92	2256.86
798.09	2185.18
798.27	2367.45
798.44	2316.25
798.62	2183.13
798.79	2246.62
798.96	2244.57
799.14	2258.91
799.31	2453.47
799.49	2318.30
799.66	2119.65
799.84	2281.44
800.01	2203.61
800.19	2310.11
800.36	2146.27
800.53	2371.55
800.71	2328.54
800.88	2394.08
801.06	2158.56
801.23	2146.27
801.41	2209.76
801.58	2193.37
801.75	2220.00
801.93	2203.61
802.10	2383.84
802.28	2203.61
802.45	2160.61
802.63	2344.92
802.80	2445.27
802.97	2179.04
803.15	2187.23
803.32	2228.19
803.50	2093.02
803.67	2176.99
803.84	2150.37
804.02	2209.76
804.19	2170.85
804.37	2056.16
804.54	2107.36
804.71	2205.66
804.89	2322.40
805.06	2203.61
805.24	2144.22
805.41	2131.94
805.58	2187.23
805.76	2486.23
805.93	2320.35
806.10	2285.53
806.28	2306.01
806.45	2285.53
806.63	2385.88
806.80	2344.92
806.97	2353.12
807.15	2201.57
807.32	2301.92
807.49	2310.11
807.67	2166.75
807.84	2293.72
808.01	2041.82
808.19	2412.51
808.36	2469.85
808.54	2201.57
808.71	2174.94
808.88	2312.16
809.06	2367.45
809.23	2398.17
809.40	2301.92
809.58	2332.64
809.75	2248.67
809.92	2187.23
810.10	2439.13
810.27	2238.43
810.44	2312.16
810.62	2308.06
810.79	2211.81
810.96	2222.05
811.14	2199.52
811.31	2179.04
811.48	2291.68
811.66	2254.81
811.83	2449.37
812.00	2215.90
812.18	2326.49
812.35	2369.50
812.52	2234.33
812.69	2238.43
812.87	2170.85
813.04	2160.61
813.21	2291.68
813.39	2179.04
813.56	2174.94
813.73	2406.36
813.91	2117.60
814.08	2242.53
814.25	2236.38
814.42	2056.16
814.60	2228.19
814.77	2269.15
814.94	2170.85
815.12	2314.20
815.29	2375.64
815.46	2195.42
815.63	2271.20
815.81	2228.19
815.98	2293.72
816.15	2250.72
816.33	2228.19
816.50	2217.95
816.67	2232.29
816.84	2176.99
817.02	2187.23
817.19	2160.61
817.36	2301.92
817.53	2340.83
817.71	2217.95
817.88	2344.92
818.05	2242.53
818.22	2154.46
818.40	2441.18
818.57	2244.57
818.74	2289.63
818.91	2187.23
819.09	2281.44
819.26	2299.87
819.43	2195.42
819.60	2189.28
819.78	2351.07
819.95	2334.68
820.12	2095.07
820.29	2482.14
820.47	2428.89
820.64	2207.71
820.81	2144.22
820.98	2205.66
821.15	2279.39
821.33	2277.34
821.50	2121.70
821.67	2277.34
821.84	2203.61
822.02	2293.72
822.19	2408.41
822.36	2158.56
822.53	2156.51
822.70	2138.08
822.88	2150.37
823.05	2363.36
823.22	2248.67
823.39	2326.49
823.56	2199.52
823.74	2324.44
823.91	2136.03
824.08	2129.89
824.25	2131.94
824.42	2482.14
824.60	2105.31
824.77	2283.49
824.94	2248.67
825.11	2314.20
825.28	2050.02
825.45	2263.01
825.63	2295.77
825.80	2174.94
825.97	2211.81
826.14	2242.53
826.31	2088.93
826.48	2291.68
826.66	2142.18
826.83	2125.79
827.00	2191.33
827.17	2105.31
827.34	2269.15
827.51	2133.98
827.69	2146.27
827.86	2160.61
828.03	2174.94
828.20	2238.43
828.37	2170.85
828.54	2289.63
828.71	2170.85
828.89	2338.78
829.06	2244.57
829.23	2355.16
829.40	2136.03
829.57	2207.71
829.74	2320.35
829.91	2215.90
830.09	2187.23
830.26	2256.86
830.43	2355.16
830.60	2277.34
830.77	2324.44
830.94	2365.40
831.11	2332.64
831.28	2205.66
831.46	2351.07
831.63	2181.09
831.80	2355.16
831.97	2166.75
832.14	2174.94
832.31	2285.53
832.48	2316.25
832.65	2258.91
832.82	2310.11
832.99	2334.68
833.17	2191.33
833.34	2406.36
833.51	2252.77
833.68	1961.95
833.85	2285.53
834.02	2131.94
834.19	2191.33
834.36	2142.18
834.53	2269.15
834.70	2297.82
834.87	2285.53
835.04	2156.51
835.22	2158.56
835.39	2242.53
835.56	2170.85
835.73	2183.13
835.90	2408.41
836.07	2129.89
836.24	2203.61
836.41	2193.37
836.58	2170.85
836.75	2389.98
836.92	2185.18
837.09	2101.22
837.26	2381.79
837.43	2312.16
837.60	2260.96
837.77	2158.56
837.94	2273.25
838.12	2494.43
838.29	2232.29
838.46	1996.77
838.63	2185.18
838.80	2469.85
838.97	2267.10
839.14	2242.53
839.31	2242.53
839.48	2353.12
839.65	2146.27
839.82	2314.20
839.99	2226.14
840.16	2187.23
840.33	2211.81
840.50	2250.72
840.67	2211.81
840.84	2041.82
841.01	2242.53
841.18	2226.14
841.35	2129.89
841.52	2375.64
841.69	2441.18
841.86	2195.42
842.03	2211.81
842.20	2369.50
842.37	2201.57
842.54	2152.42
842.71	2244.57
842.88	2129.89
843.05	2256.86
843.22	2220.00
843.39	2322.40
843.56	2191.33
843.73	2193.37
843.90	2258.91
844.07	2267.10
844.24	2373.60
844.41	2291.68
844.58	2174.94
844.75	2228.19
844.92	2332.64
845.09	2236.38
845.26	2144.22
845.43	2322.40
845.60	2189.28
845.77	2252.77
845.94	2269.15
846.10	2349.02
846.27	2119.65
846.44	2201.57
846.61	2076.64
846.78	2244.57
846.95	2346.97
847.12	2166.75
847.29	2217.95
847.46	2138.08
847.63	2445.27
847.80	2148.32
847.97	2228.19
848.14	2494.43
848.31	2230.24
848.48	2125.79
848.65	2197.47
848.82	2209.76
848.98	2529.24
849.15	2277.34
849.32	2322.40
849.49	2318.30
849.66	2224.09
849.83	2109.41
850.00	2115.55
850.17	2334.68
850.34	2203.61
850.51	2199.52
850.68	2166.75
850.85	2439.13
851.01	2291.68
851.18	2236.38
851.35	2121.70
851.52	2228.19
851.69	2338.78
851.86	2105.31
852.03	2256.86
852.20	2289.63
852.37	2252.77
852.53	2064.35
852.70	2150.37
852.87	2176.99
853.04	2301.92
853.21	2168.80
853.38	2394.08
853.55	2359.26
853.72	2359.26
853.89	2136.03
854.05	2144.22
854.22	2256.86
854.39	2209.76
854.56	2236.38
854.73	2291.68
854.90	2152.42
855.07	2181.09
855.23	2183.13
855.40	2215.90
855.57	2154.46
855.74	2103.26
855.91	2365.40
856.08	2097.12
856.25	2086.88
856.41	2152.42
856.58	2211.81
856.75	2152.42
856.92	2152.42
857.09	2301.92
857.26	2125.79
857.42	2217.95
857.59	2297.82
857.76	2168.80
857.93	2228.19
858.10	2234.33
858.27	2144.22
858.43	2293.72
858.60	2179.04
858.77	2097.12
858.94	2283.49
859.11	2273.25
859.27	2113.50
859.44	2168.80
859.61	2424.80
859.78	2322.40
859.95	2224.09
860.12	2127.84
860.28	2576.34
860.45	2453.47
860.62	2215.90
860.79	2275.29
860.95	2211.81
861.12	2191.33
861.29	2174.94
861.46	2174.94
861.63	2179.04
861.79	2285.53
861.96	2185.18
862.13	2080.74
862.30	2392.03
862.47	2142.18
862.63	2131.94
862.80	2265.05
862.97	2318.30
863.14	2303.96
863.30	2299.87
863.47	2093.02
863.64	2398.17
863.81	2285.53
863.97	2234.33
864.14	2283.49
864.31	2215.90
864.48	2250.72
864.65	2191.33
864.81	2324.44
864.98	2338.78
865.15	2346.97
865.32	2226.14
865.48	2308.06
865.65	2531.29
865.82	2156.51
865.98	2263.01
866.15	2287.58
866.32	2267.10
866.49	2236.38
866.65	2316.25
866.82	2113.50
866.99	2258.91
867.16	2205.66
867.32	2176.99
867.49	2187.23
867.66	2148.32
867.83	2166.75
867.99	2080.74
868.16	2207.71
868.33	2121.70
868.49	2250.72
868.66	2199.52
868.83	2349.02
868.99	2318.30
869.16	2273.25
869.33	2293.72
869.50	2338.78
869.66	2238.43
869.83	2168.80
870.00	2045.92
870.16	2273.25
870.33	2201.57
870.50	2351.07
870.66	2195.42
870.83	2293.72
871.00	2252.77
871.17	2244.57
871.33	2271.20
871.50	2119.65
871.67	2236.38
871.83	2162.66
872.00	2326.49
872.17	2207.71
872.33	2398.17
872.50	2430.94
872.67	2152.42
872.83	2121.70
873.00	2230.24
873.17	2299.87
873.33	2215.90
873.50	2250.72
873.67	2156.51
873.83	2174.94
874.00	2166.75
874.16	2263.01
874.33	2306.01
874.50	2160.61
874.66	2211.81
874.83	2131.94
875.00	2404.32
875.16	2383.84
875.33	2322.40
875.50	2043.87
875.66	2127.84
875.83	2222.05
875.99	2250.72
876.16	2172.89
876.33	2224.09
876.49	2215.90
876.66	2260.96
876.83	2158.56
876.99	2129.89
877.16	2162.66
877.32	2179.04
877.49	2103.26
877.66	2256.86
877.82	2396.12
877.99	2250.72
878.15	2340.83
878.32	2269.15
878.49	2287.58
878.65	2236.38
878.82	2379.74
878.98	2172.89
879.15	2326.49
879.32	2289.63
879.48	2326.49
879.65	2197.47
879.81	2273.25
879.98	2193.37
880.15	2148.32
880.31	2240.48
880.48	2197.47
880.64	2293.72
880.81	2267.10
880.97	2449.37
881.14	2443.23
881.31	2191.33
881.47	2420.70
881.64	2209.76
881.80	2099.17
881.97	2306.01
882.13	2197.47
882.30	2131.94
882.47	2138.08
882.63	2164.70
882.80	2179.04
882.96	2265.05
883.13	2445.27
883.29	2170.85
883.46	2269.15
883.62	2408.41
883.79	2279.39
883.95	2310.11
884.12	2176.99
884.29	2414.56
884.45	2230.24
884.62	2232.29
884.78	2142.18
884.95	2400.22
885.11	2211.81
885.28	2277.34
885.44	2256.86
885.61	2277.34
885.77	2336.73
885.94	2330.59
886.10	2250.72
886.27	2267.10
886.43	2432.99
886.60	2342.88
886.76	2170.85
886.93	2076.64
887.09	2228.19
887.26	2086.88
887.42	2220.00
887.59	2344.92
887.75	2418.65
887.92	2269.15
888.08	2308.06
888.25	2385.88
888.41	2353.12
888.58	2199.52
888.74	2093.02
888.91	2176.99
>>>>>End Processed Spectral Data<<<<<
