SpectraSuite Data File
++++++++++++++++++++++++++++++++++++
Date: Thu May 05 13:21:29 CEST 2016
User: root
Dark Spectrum Present: No
Reference Spectrum Present: No
Number of Sampled Component Spectra: 1
Spectrometers: USB4C02835
Integration Time (usec): 100000 (USB4C02835)
Spectra Averaged: 1 (USB4C02835)
Boxcar Smoothing: 0 (USB4C02835)
Correct for Electrical Dark: No (USB4C02835)
Strobe/Lamp Enabled: No (USB4C02835)
Correct for Detector Non-linearity: No (USB4C02835)
Correct for Stray Light: No (USB4C02835)
Number of Pixels in Processed Spectrum: 3648
>>>>>Begin Processed Spectral Data<<<<<
177.47	1820.64
177.69	1820.64
177.91	1820.64
178.13	1769.44
178.36	1849.32
178.58	2203.61
178.80	2314.20
179.02	2097.12
179.24	2105.31
179.46	2160.61
179.68	2199.52
179.90	2234.33
180.13	2322.40
180.35	2142.18
180.57	2166.75
180.79	2349.02
181.01	2260.96
181.23	2230.24
181.45	2312.16
181.67	2234.33
181.90	2320.35
182.12	2205.66
182.34	2045.92
182.56	2349.02
182.78	2260.96
183.00	2131.94
183.22	2226.14
183.44	2131.94
183.66	2498.52
183.89	2283.49
184.11	2256.86
184.33	2326.49
184.55	2322.40
184.77	2136.03
184.99	2185.18
185.21	2271.20
185.43	2547.67
185.65	2189.28
185.87	2113.50
186.10	2519.00
186.32	2443.23
186.54	2258.91
186.76	2250.72
186.98	2306.01
187.20	2248.67
187.42	2172.89
187.64	2265.05
187.86	2244.57
188.08	2375.64
188.30	2115.55
188.52	2209.76
188.75	2326.49
188.97	2398.17
189.19	2170.85
189.41	2113.50
189.63	2269.15
189.85	2267.10
190.07	2142.18
190.29	2035.68
190.51	2250.72
190.73	2119.65
190.95	2269.15
191.17	2242.53
191.39	2179.04
191.61	2242.53
191.84	2191.33
192.06	2187.23
192.28	2162.66
192.50	2617.30
192.72	2236.38
192.94	2209.76
193.16	2346.97
193.38	2308.06
193.60	2125.79
193.82	2265.05
194.04	2392.03
194.26	2258.91
194.48	2215.90
194.70	2197.47
194.92	2215.90
195.14	2351.07
195.36	2183.13
195.58	2189.28
195.80	2240.48
196.02	2211.81
196.24	2152.42
196.46	2271.20
196.69	2226.14
196.91	2500.57
197.13	2174.94
197.35	2179.04
197.57	2371.55
197.79	2306.01
198.01	2148.32
198.23	2101.22
198.45	2310.11
198.67	2097.12
198.89	2138.08
199.11	2260.96
199.33	2162.66
199.55	2035.68
199.77	2119.65
199.99	2303.96
200.21	2203.61
200.43	2275.29
200.65	2078.69
200.87	2086.88
201.09	2267.10
201.31	2260.96
201.53	2260.96
201.75	2133.98
201.97	2269.15
202.19	2281.44
202.41	2277.34
202.63	2328.54
202.85	2224.09
203.07	2316.25
203.29	2166.75
203.51	2162.66
203.73	2127.84
203.95	2439.13
204.17	2174.94
204.39	2326.49
204.61	2303.96
204.83	2271.20
205.05	2236.38
205.27	2240.48
205.49	2394.08
205.71	2215.90
205.93	2097.12
206.15	2127.84
206.37	2254.81
206.59	2248.67
206.81	2101.22
207.03	2058.21
207.25	2158.56
207.47	2250.72
207.69	2242.53
207.91	2385.88
208.13	2353.12
208.34	2213.85
208.56	2078.69
208.78	2211.81
209.00	2174.94
209.22	2234.33
209.44	2162.66
209.66	2195.42
209.88	2197.47
210.10	2193.37
210.32	2185.18
210.54	2250.72
210.76	2301.92
210.98	2277.34
211.20	2064.35
211.42	2191.33
211.64	2299.87
211.86	2316.25
212.08	2187.23
212.30	2107.36
212.52	2236.38
212.74	2240.48
212.96	2193.37
213.17	2232.29
213.39	2351.07
213.61	2445.27
213.83	2162.66
214.05	2209.76
214.27	2375.64
214.49	2164.70
214.71	2050.02
214.93	2267.10
215.15	2285.53
215.37	2326.49
215.59	2136.03
215.81	2310.11
216.03	2363.36
216.24	2201.57
216.46	2162.66
216.68	2215.90
216.90	2367.45
217.12	2389.98
217.34	2174.94
217.56	2236.38
217.78	2334.68
218.00	2377.69
218.22	2220.00
218.44	2232.29
218.66	2236.38
218.87	2482.14
219.09	2158.56
219.31	2158.56
219.53	2289.63
219.75	2123.74
219.97	2256.86
220.19	2174.94
220.41	2250.72
220.63	2408.41
220.85	2230.24
221.06	2226.14
221.28	2447.32
221.50	2240.48
221.72	2133.98
221.94	2203.61
222.16	2314.20
222.38	2326.49
222.60	2136.03
222.82	2215.90
223.03	2332.64
223.25	2113.50
223.47	2142.18
223.69	2271.20
223.91	2336.73
224.13	2252.77
224.35	2148.32
224.57	2220.00
224.78	2367.45
225.00	2154.46
225.22	2242.53
225.44	2156.51
225.66	2324.44
225.88	2258.91
226.10	2211.81
226.32	2238.43
226.53	2414.56
226.75	2207.71
226.97	2191.33
227.19	2136.03
227.41	2133.98
227.63	2176.99
227.85	2076.64
228.06	2187.23
228.28	2320.35
228.50	2383.84
228.72	2068.45
228.94	2193.37
229.16	2117.60
229.37	2146.27
229.59	2146.27
229.81	2344.92
230.03	2213.85
230.25	2119.65
230.47	2138.08
230.69	2123.74
230.90	2365.40
231.12	2095.07
231.34	2199.52
231.56	2357.21
231.78	2099.17
232.00	2252.77
232.21	2203.61
232.43	2230.24
232.65	2027.49
232.87	2353.12
233.09	2103.26
233.30	2093.02
233.52	2367.45
233.74	2252.77
233.96	2109.41
234.18	2228.19
234.40	2203.61
234.61	2463.71
234.83	2043.87
235.05	2101.22
235.27	2543.58
235.49	2385.88
235.70	2131.94
235.92	2224.09
236.14	2310.11
236.36	2590.68
236.58	2076.64
236.79	2217.95
237.01	2211.81
237.23	2273.25
237.45	2289.63
237.67	2078.69
237.88	2252.77
238.10	2357.21
238.32	2162.66
238.54	2189.28
238.76	2246.62
238.97	2230.24
239.19	2111.46
239.41	2189.28
239.63	2432.99
239.85	2242.53
240.06	2260.96
240.28	2187.23
240.50	2353.12
240.72	2346.97
240.93	2146.27
241.15	2326.49
241.37	2269.15
241.59	2437.08
241.81	2242.53
242.02	2158.56
242.24	2285.53
242.46	2377.69
242.68	2086.88
242.89	2111.46
243.11	2346.97
243.33	2258.91
243.55	2260.96
243.76	2123.74
243.98	2209.76
244.20	2179.04
244.42	2164.70
244.64	2107.36
244.85	2119.65
245.07	2095.07
245.29	2185.18
245.51	2189.28
245.72	2297.82
245.94	2367.45
246.16	2162.66
246.38	2197.47
246.59	2193.37
246.81	2174.94
247.03	2158.56
247.24	1994.72
247.46	2222.05
247.68	2260.96
247.90	2080.74
248.11	2160.61
248.33	2351.07
248.55	2215.90
248.77	2252.77
248.98	2342.88
249.20	2342.88
249.42	2260.96
249.64	2162.66
249.85	2191.33
250.07	2228.19
250.29	2359.26
250.50	2258.91
250.72	2052.06
250.94	2244.57
251.16	2562.01
251.37	2203.61
251.59	2222.05
251.81	2287.58
252.02	2379.74
252.24	2195.42
252.46	2332.64
252.68	2154.46
252.89	2101.22
253.11	2111.46
253.33	2314.20
253.54	2461.66
253.76	2187.23
253.98	2154.46
254.20	2154.46
254.41	2123.74
254.63	2273.25
254.85	2117.60
255.06	2215.90
255.28	2283.49
255.50	2170.85
255.71	2158.56
255.93	2074.59
256.15	2246.62
256.36	2326.49
256.58	2056.16
256.80	2195.42
257.02	2193.37
257.23	2242.53
257.45	2211.81
257.67	2260.96
257.88	2248.67
258.10	2244.57
258.32	2150.37
258.53	2209.76
258.75	2408.41
258.97	2170.85
259.18	2150.37
259.40	2189.28
259.62	2373.60
259.83	2457.56
260.05	2156.51
260.27	2627.54
260.48	2332.64
260.70	2113.50
260.92	2166.75
261.13	2144.22
261.35	2211.81
261.57	2215.90
261.78	2115.55
262.00	2111.46
262.22	2301.92
262.43	2125.79
262.65	2226.14
262.86	2220.00
263.08	2447.32
263.30	2269.15
263.51	2068.45
263.73	2072.54
263.95	2445.27
264.16	2088.93
264.38	2172.89
264.60	2283.49
264.81	2279.39
265.03	2318.30
265.25	2357.21
265.46	2199.52
265.68	2432.99
265.89	2330.59
266.11	2158.56
266.33	2260.96
266.54	2371.55
266.76	2396.12
266.98	2281.44
267.19	2310.11
267.41	2414.56
267.62	2295.77
267.84	2047.97
268.06	2281.44
268.27	2322.40
268.49	2375.64
268.70	2277.34
268.92	2246.62
269.14	2195.42
269.35	2207.71
269.57	2215.90
269.79	2217.95
270.00	2136.03
270.22	2430.94
270.43	2119.65
270.65	1992.67
270.87	2185.18
271.08	2340.83
271.30	2291.68
271.51	2215.90
271.73	2357.21
271.95	2418.65
272.16	2179.04
272.38	2222.05
272.59	2234.33
272.81	2375.64
273.02	2170.85
273.24	2207.71
273.46	2363.36
273.67	2068.45
273.89	2058.21
274.10	2148.32
274.32	2260.96
274.54	2242.53
274.75	2193.37
274.97	2193.37
275.18	2410.46
275.40	2299.87
275.61	2207.71
275.83	2226.14
276.05	2150.37
276.26	2213.85
276.48	2220.00
276.69	2224.09
276.91	2207.71
277.12	2439.13
277.34	2277.34
277.55	2381.79
277.77	2273.25
277.99	2187.23
278.20	2191.33
278.42	2056.16
278.63	2248.67
278.85	2170.85
279.06	2166.75
279.28	2275.29
279.49	2301.92
279.71	2289.63
279.93	2238.43
280.14	2222.05
280.36	2211.81
280.57	2412.51
280.79	2301.92
281.00	2187.23
281.22	2322.40
281.43	2324.44
281.65	2031.58
281.86	2119.65
282.08	2285.53
282.29	2494.43
282.51	2111.46
282.73	2103.26
282.94	2035.68
283.16	2338.78
283.37	2375.64
283.59	2232.29
283.80	2269.15
284.02	2242.53
284.23	2281.44
284.45	2176.99
284.66	2111.46
284.88	2195.42
285.09	2213.85
285.31	2279.39
285.52	2299.87
285.74	2222.05
285.95	2353.12
286.17	2252.77
286.38	2389.98
286.60	2181.09
286.81	2185.18
287.03	2211.81
287.24	2203.61
287.46	2379.74
287.67	2250.72
287.89	2445.27
288.10	2217.95
288.32	2258.91
288.53	2408.41
288.75	2162.66
288.96	2287.58
289.18	2240.48
289.39	2248.67
289.61	2285.53
289.82	2441.18
290.04	2457.56
290.25	2156.51
290.47	2260.96
290.68	2301.92
290.90	2359.26
291.11	2088.93
291.33	2306.01
291.54	2195.42
291.76	2105.31
291.97	2238.43
292.18	2281.44
292.40	2131.94
292.61	2224.09
292.83	2457.56
293.04	2256.86
293.26	2330.59
293.47	2256.86
293.69	2133.98
293.90	2246.62
294.12	2387.93
294.33	2240.48
294.55	2289.63
294.76	2363.36
294.97	2441.18
295.19	2475.99
295.40	2195.42
295.62	2273.25
295.83	2301.92
296.05	2207.71
296.26	2338.78
296.48	2207.71
296.69	2146.27
296.90	2353.12
297.12	2258.91
297.33	2308.06
297.55	2160.61
297.76	2322.40
297.98	2271.20
298.19	2172.89
298.41	2258.91
298.62	2193.37
298.83	2383.84
299.05	2248.67
299.26	2170.85
299.48	2136.03
299.69	2314.20
299.90	2299.87
300.12	2187.23
300.33	2289.63
300.55	2189.28
300.76	2301.92
300.98	2162.66
301.19	2355.16
301.40	2220.00
301.62	2244.57
301.83	2330.59
302.05	2220.00
302.26	2207.71
302.47	2189.28
302.69	2185.18
302.90	2230.24
303.12	2064.35
303.33	2293.72
303.54	2453.47
303.76	2105.31
303.97	2238.43
304.19	2377.69
304.40	2179.04
304.61	2308.06
304.83	2408.41
305.04	2306.01
305.26	2301.92
305.47	2166.75
305.68	2285.53
305.90	2105.31
306.11	2363.36
306.33	2244.57
306.54	2129.89
306.75	2144.22
306.97	2115.55
307.18	2088.93
307.39	2228.19
307.61	2269.15
307.82	2228.19
308.04	2312.16
308.25	2152.42
308.46	2240.48
308.68	2228.19
308.89	2236.38
309.10	2340.83
309.32	2240.48
309.53	2220.00
309.74	2244.57
309.96	2154.46
310.17	2299.87
310.39	2203.61
310.60	2283.49
310.81	2271.20
311.03	2217.95
311.24	2314.20
311.45	2224.09
311.67	2330.59
311.88	2303.96
312.09	2222.05
312.31	2109.41
312.52	2297.82
312.73	2213.85
312.95	2144.22
313.16	2220.00
313.37	2367.45
313.59	2293.72
313.80	2318.30
314.01	2355.16
314.23	2187.23
314.44	2197.47
314.65	2154.46
314.87	2217.95
315.08	2160.61
315.29	2189.28
315.51	2103.26
315.72	2064.35
315.93	2371.55
316.15	2250.72
316.36	2260.96
316.57	2285.53
316.79	2232.29
317.00	2195.42
317.21	2359.26
317.43	2207.71
317.64	2265.05
317.85	2162.66
318.07	2183.13
318.28	2215.90
318.49	2365.40
318.70	2564.06
318.92	2396.12
319.13	2392.03
319.34	2502.62
319.56	2400.22
319.77	2379.74
319.98	2418.65
320.20	2336.73
320.41	2346.97
320.62	2373.60
320.83	2166.75
321.05	2435.03
321.26	2334.68
321.47	2224.09
321.69	2367.45
321.90	2115.55
322.11	2226.14
322.32	2299.87
322.54	2435.03
322.75	2193.37
322.96	2555.86
323.18	2125.79
323.39	2181.09
323.60	2148.32
323.81	2277.34
324.03	2220.00
324.24	2297.82
324.45	2252.77
324.66	2244.57
324.88	2439.13
325.09	2392.03
325.30	2273.25
325.52	2170.85
325.73	2236.38
325.94	2179.04
326.15	2093.02
326.37	2138.08
326.58	2285.53
326.79	2428.89
327.00	2160.61
327.22	2240.48
327.43	2191.33
327.64	2133.98
327.85	2256.86
328.07	2213.85
328.28	2412.51
328.49	2215.90
328.70	2199.52
328.92	2291.68
329.13	2203.61
329.34	2277.34
329.55	2371.55
329.76	2293.72
329.98	2271.20
330.19	2326.49
330.40	2295.77
330.61	2285.53
330.83	2308.06
331.04	2199.52
331.25	2220.00
331.46	2187.23
331.68	2123.74
331.89	2385.88
332.10	2283.49
332.31	2154.46
332.52	2238.43
332.74	2299.87
332.95	2170.85
333.16	2289.63
333.37	2332.64
333.58	2234.33
333.80	2228.19
334.01	2084.83
334.22	2256.86
334.43	2213.85
334.64	2269.15
334.86	2115.55
335.07	2203.61
335.28	2422.75
335.49	2191.33
335.70	2193.37
335.92	2365.40
336.13	2531.29
336.34	2328.54
336.55	2246.62
336.76	2293.72
336.98	2007.01
337.19	2299.87
337.40	2392.03
337.61	2494.43
337.82	2144.22
338.04	2357.21
338.25	2060.26
338.46	2185.18
338.67	2248.67
338.88	2166.75
339.09	2107.36
339.31	2226.14
339.52	2084.83
339.73	2093.02
339.94	2279.39
340.15	2316.25
340.36	2181.09
340.58	2265.05
340.79	2129.89
341.00	2254.81
341.21	2226.14
341.42	2334.68
341.63	2201.57
341.85	2385.88
342.06	2250.72
342.27	2097.12
342.48	2316.25
342.69	2052.06
342.90	2320.35
343.12	2287.58
343.33	2168.80
343.54	2326.49
343.75	2328.54
343.96	2291.68
344.17	2187.23
344.38	2285.53
344.60	2133.98
344.81	2191.33
345.02	2240.48
345.23	2260.96
345.44	2408.41
345.65	2299.87
345.86	2293.72
346.07	2203.61
346.29	2176.99
346.50	2285.53
346.71	2263.01
346.92	2455.51
347.13	2453.47
347.34	2244.57
347.55	2260.96
347.76	2293.72
347.98	2084.83
348.19	2254.81
348.40	2291.68
348.61	2295.77
348.82	2342.88
349.03	2316.25
349.24	2115.55
349.45	2404.32
349.66	2052.06
349.88	2277.34
350.09	2146.27
350.30	2359.26
350.51	2428.89
350.72	2301.92
350.93	2279.39
351.14	2207.71
351.35	2224.09
351.56	2211.81
351.77	2238.43
351.99	2250.72
352.20	2416.60
352.41	2342.88
352.62	2099.17
352.83	2291.68
353.04	2273.25
353.25	2224.09
353.46	2236.38
353.67	2326.49
353.88	2074.59
354.09	2293.72
354.30	2248.67
354.52	2406.36
354.73	2281.44
354.94	2142.18
355.15	2213.85
355.36	2465.75
355.57	2150.37
355.78	2326.49
355.99	2119.65
356.20	2195.42
356.41	2342.88
356.62	2275.29
356.83	2260.96
357.04	2363.36
357.25	2101.22
357.46	2183.13
357.68	2166.75
357.89	2160.61
358.10	2179.04
358.31	2269.15
358.52	2258.91
358.73	2174.94
358.94	2103.26
359.15	2166.75
359.36	2297.82
359.57	2236.38
359.78	2213.85
359.99	2256.86
360.20	2148.32
360.41	2248.67
360.62	2353.12
360.83	2211.81
361.04	2289.63
361.25	2281.44
361.46	2478.04
361.67	2277.34
361.88	2201.57
362.09	2310.11
362.30	2310.11
362.51	2152.42
362.72	2263.01
362.93	2412.51
363.14	2291.68
363.35	2299.87
363.56	2176.99
363.78	2355.16
363.99	2373.60
364.20	2189.28
364.41	2267.10
364.62	2473.95
364.83	2357.21
365.04	2238.43
365.25	2236.38
365.46	2453.47
365.67	2166.75
365.88	2217.95
366.09	2170.85
366.30	2248.67
366.51	2301.92
366.72	2144.22
366.93	2236.38
367.14	2306.01
367.35	2318.30
367.56	2195.42
367.77	2346.97
367.98	2256.86
368.18	2252.77
368.39	2232.29
368.60	2156.51
368.81	2285.53
369.02	2256.86
369.23	2246.62
369.44	2121.70
369.65	2258.91
369.86	2277.34
370.07	2322.40
370.28	2211.81
370.49	2367.45
370.70	2316.25
370.91	2111.46
371.12	2205.66
371.33	2367.45
371.54	2203.61
371.75	2383.84
371.96	2060.26
372.17	2310.11
372.38	2213.85
372.59	2320.35
372.80	2131.94
373.01	2242.53
373.22	2299.87
373.43	2185.18
373.64	2138.08
373.85	2383.84
374.06	2404.32
374.26	2357.21
374.47	2222.05
374.68	2346.97
374.89	2275.29
375.10	2205.66
375.31	2375.64
375.52	2279.39
375.73	2275.29
375.94	2207.71
376.15	2396.12
376.36	2185.18
376.57	2185.18
376.78	2152.42
376.99	2267.10
377.20	2381.79
377.40	2254.81
377.61	2428.89
377.82	2150.37
378.03	2414.56
378.24	2342.88
378.45	2242.53
378.66	2265.05
378.87	2140.13
379.08	2199.52
379.29	2176.99
379.50	2316.25
379.71	2293.72
379.91	2310.11
380.12	2103.26
380.33	2224.09
380.54	2215.90
380.75	2232.29
380.96	2222.05
381.17	2367.45
381.38	2246.62
381.59	2244.57
381.80	2242.53
382.00	2455.51
382.21	2248.67
382.42	2473.95
382.63	2480.09
382.84	2314.20
383.05	2334.68
383.26	2428.89
383.47	2273.25
383.68	2334.68
383.88	2340.83
384.09	2371.55
384.30	2389.98
384.51	2267.10
384.72	2195.42
384.93	2150.37
385.14	2265.05
385.35	2338.78
385.55	2162.66
385.76	2418.65
385.97	2310.11
386.18	2111.46
386.39	2226.14
386.60	2209.76
386.81	2265.05
387.02	2129.89
387.22	2129.89
387.43	2342.88
387.64	2281.44
387.85	2439.13
388.06	2568.15
388.27	3923.91
388.48	8060.80
388.68	11632.46
388.89	13877.04
389.10	14886.68
389.31	13868.84
389.52	11032.41
389.73	9441.14
389.93	8464.25
390.14	7976.84
390.35	7198.61
390.56	6346.66
390.77	5197.74
390.98	4022.21
391.18	3198.93
391.39	2727.89
391.60	2359.26
391.81	2465.75
392.02	2187.23
392.23	2492.38
392.43	2332.64
392.64	2355.16
392.85	2263.01
393.06	2346.97
393.27	2185.18
393.47	2228.19
393.68	2240.48
393.89	2166.75
394.10	2402.27
394.31	2183.13
394.52	2217.95
394.72	2162.66
394.93	2355.16
395.14	2109.41
395.35	2285.53
395.56	2140.13
395.76	2226.14
395.97	2256.86
396.18	2408.41
396.39	2371.55
396.60	2729.94
396.80	2502.62
397.01	2416.60
397.22	2375.64
397.43	2414.56
397.64	2199.52
397.84	2269.15
398.05	2519.00
398.26	2285.53
398.47	2301.92
398.67	2312.16
398.88	2244.57
399.09	2308.06
399.30	2224.09
399.51	2287.58
399.71	2215.90
399.92	2324.44
400.13	2310.11
400.34	2140.13
400.54	2244.57
400.75	2381.79
400.96	2365.40
401.17	2445.27
401.37	2340.83
401.58	2199.52
401.79	2222.05
402.00	2408.41
402.21	2703.32
402.41	2543.58
402.62	2650.07
402.83	2643.93
403.04	2723.80
403.24	2772.95
403.45	2451.42
403.66	2478.04
403.87	2457.56
404.07	2473.95
404.28	2506.71
404.49	2482.14
404.70	2310.11
404.90	2420.70
405.11	2314.20
405.32	2445.27
405.52	2258.91
405.73	2195.42
405.94	2195.42
406.15	2258.91
406.35	2248.67
406.56	2334.68
406.77	2281.44
406.98	2291.68
407.18	2181.09
407.39	2475.99
407.60	2236.38
407.80	2371.55
408.01	2236.38
408.22	2322.40
408.43	2193.37
408.63	2310.11
408.84	2338.78
409.05	2392.03
409.25	2205.66
409.46	2179.04
409.67	2226.14
409.88	2244.57
410.08	2263.01
410.29	2263.01
410.50	2342.88
410.70	2363.36
410.91	2101.22
411.12	2228.19
411.32	2201.57
411.53	2138.08
411.74	2297.82
411.95	2408.41
412.15	2367.45
412.36	2459.61
412.57	2326.49
412.77	2461.66
412.98	2299.87
413.19	2236.38
413.39	2293.72
413.60	2330.59
413.81	2310.11
414.01	2179.04
414.22	2293.72
414.43	2363.36
414.63	2228.19
414.84	2346.97
415.05	2269.15
415.25	2148.32
415.46	2295.77
415.67	2228.19
415.87	2277.34
416.08	2301.92
416.29	2211.81
416.49	2357.21
416.70	2252.77
416.91	2222.05
417.11	2226.14
417.32	2340.83
417.53	2326.49
417.73	2336.73
417.94	2269.15
418.15	2238.43
418.35	2265.05
418.56	2256.86
418.77	2422.75
418.97	2236.38
419.18	2277.34
419.38	2007.01
419.59	2279.39
419.80	2314.20
420.00	2293.72
420.21	2346.97
420.42	2443.23
420.62	2236.38
420.83	2162.66
421.04	2289.63
421.24	2211.81
421.45	2332.64
421.65	2254.81
421.86	2205.66
422.07	2240.48
422.27	2260.96
422.48	2193.37
422.69	2099.17
422.89	2240.48
423.10	2250.72
423.30	2162.66
423.51	2220.00
423.72	2320.35
423.92	2310.11
424.13	2160.61
424.33	2289.63
424.54	2363.36
424.75	2297.82
424.95	2336.73
425.16	2187.23
425.36	2275.29
425.57	2437.08
425.78	2303.96
425.98	2338.78
426.19	2291.68
426.39	2234.33
426.60	2334.68
426.81	2377.69
427.01	2260.96
427.22	2236.38
427.42	2080.74
427.63	2174.94
427.83	2387.93
428.04	2473.95
428.25	2365.40
428.45	2377.69
428.66	2365.40
428.86	2260.96
429.07	2170.85
429.28	2240.48
429.48	2263.01
429.69	2197.47
429.89	2211.81
430.10	2152.42
430.30	2314.20
430.51	2385.88
430.71	2136.03
430.92	2281.44
431.13	2236.38
431.33	2299.87
431.54	2291.68
431.74	2338.78
431.95	2545.63
432.15	2185.18
432.36	2295.77
432.56	2242.53
432.77	2439.13
432.98	2465.75
433.18	2357.21
433.39	2240.48
433.59	2291.68
433.80	2424.80
434.00	2461.66
434.21	2226.14
434.41	2252.77
434.62	2467.80
434.82	2209.76
435.03	2176.99
435.23	2291.68
435.44	2097.12
435.64	2301.92
435.85	2363.36
436.06	2340.83
436.26	2361.31
436.47	2195.42
436.67	2181.09
436.88	2265.05
437.08	2383.84
437.29	2443.23
437.49	2301.92
437.70	2383.84
437.90	2265.05
438.11	2475.99
438.31	2301.92
438.52	2445.27
438.72	2441.18
438.93	2559.96
439.13	2318.30
439.34	2512.86
439.54	2287.58
439.75	2349.02
439.95	2320.35
440.16	2242.53
440.36	2295.77
440.57	2240.48
440.77	2224.09
440.98	2244.57
441.18	2301.92
441.39	2252.77
441.59	2217.95
441.80	2465.75
442.00	2299.87
442.21	2346.97
442.41	2187.23
442.62	2359.26
442.82	2269.15
443.02	2246.62
443.23	2330.59
443.43	2240.48
443.64	2400.22
443.84	2162.66
444.05	2387.93
444.25	2240.48
444.46	2215.90
444.66	2283.49
444.87	2314.20
445.07	2101.22
445.28	2283.49
445.48	2375.64
445.69	2344.92
445.89	2527.19
446.09	2326.49
446.30	2621.40
446.50	2830.29
446.71	4399.04
446.91	5560.24
447.12	6242.21
447.32	6518.68
447.53	6231.97
447.73	5218.22
447.93	4503.48
448.14	4124.61
448.34	4153.28
448.55	3592.14
448.75	3579.85
448.96	3379.15
449.16	2996.18
449.36	2912.21
449.57	2504.67
449.77	2365.40
449.98	2220.00
450.18	2361.31
450.39	2330.59
450.59	2324.44
450.79	2303.96
451.00	2203.61
451.20	2326.49
451.41	2238.43
451.61	2320.35
451.81	2250.72
452.02	2234.33
452.22	2244.57
452.43	2283.49
452.63	2246.62
452.84	2201.57
453.04	2224.09
453.24	2211.81
453.45	2174.94
453.65	2277.34
453.86	2285.53
454.06	2226.14
454.26	2238.43
454.47	2179.04
454.67	2338.78
454.87	2336.73
455.08	2291.68
455.28	2420.70
455.49	2299.87
455.69	2179.04
455.89	2492.38
456.10	2351.07
456.30	2215.90
456.51	2334.68
456.71	2303.96
456.91	2338.78
457.12	2342.88
457.32	2340.83
457.52	2232.29
457.73	2383.84
457.93	2265.05
458.14	2234.33
458.34	2111.46
458.54	2211.81
458.75	2303.96
458.95	2367.45
459.15	2269.15
459.36	2258.91
459.56	2254.81
459.76	2449.37
459.97	2332.64
460.17	2314.20
460.37	2387.93
460.58	2273.25
460.78	2314.20
460.99	2162.66
461.19	2230.24
461.39	2170.85
461.60	2312.16
461.80	2295.77
462.00	2170.85
462.21	2125.79
462.41	2162.66
462.61	2222.05
462.82	2054.11
463.02	2324.44
463.22	2279.39
463.43	2318.30
463.63	2336.73
463.83	2437.08
464.04	2375.64
464.24	2258.91
464.44	2193.37
464.64	2328.54
464.85	2301.92
465.05	2353.12
465.25	2263.01
465.46	2181.09
465.66	2310.11
465.86	2338.78
466.07	2301.92
466.27	2267.10
466.47	2166.75
466.68	2244.57
466.88	2441.18
467.08	2273.25
467.29	2383.84
467.49	2353.12
467.69	2267.10
467.89	2285.53
468.10	2246.62
468.30	2351.07
468.50	2365.40
468.71	2387.93
468.91	2183.13
469.11	2412.51
469.31	2271.20
469.52	2140.13
469.72	2482.14
469.92	2488.28
470.13	2260.96
470.33	2240.48
470.53	2375.64
470.73	2666.46
470.94	3051.47
471.14	3157.97
471.34	3659.72
471.54	3405.77
471.75	3035.09
471.95	2826.20
472.15	2781.14
472.36	2850.77
472.56	2740.18
472.76	2711.51
472.96	2586.58
473.17	2525.15
473.37	2449.37
473.57	2361.31
473.77	2342.88
473.98	2240.48
474.18	2195.42
474.38	2537.43
474.58	2246.62
474.79	2176.99
474.99	2330.59
475.19	2357.21
475.39	2195.42
475.60	2293.72
475.80	2232.29
476.00	2326.49
476.20	2265.05
476.41	2342.88
476.61	2281.44
476.81	2437.08
477.01	2148.32
477.21	2430.94
477.42	2289.63
477.62	2170.85
477.82	2316.25
478.02	2220.00
478.23	2306.01
478.43	2168.80
478.63	2217.95
478.83	2279.39
479.03	2222.05
479.24	2465.75
479.44	2398.17
479.64	2220.00
479.84	2084.83
480.04	2191.33
480.25	2340.83
480.45	2195.42
480.65	2228.19
480.85	2469.85
481.06	2207.71
481.26	2226.14
481.46	2320.35
481.66	2334.68
481.86	2158.56
482.06	2342.88
482.27	2328.54
482.47	2148.32
482.67	2351.07
482.87	2189.28
483.07	2351.07
483.28	2179.04
483.48	2140.13
483.68	2301.92
483.88	2174.94
484.08	2054.11
484.29	2207.71
484.49	2250.72
484.69	2121.70
484.89	2404.32
485.09	2449.37
485.29	2326.49
485.50	2308.06
485.70	2301.92
485.90	2346.97
486.10	2265.05
486.30	2254.81
486.50	2392.03
486.71	2297.82
486.91	2351.07
487.11	2330.59
487.31	2136.03
487.51	2312.16
487.71	2154.46
487.91	2228.19
488.12	2176.99
488.32	2113.50
488.52	2275.29
488.72	2076.64
488.92	2346.97
489.12	2363.36
489.32	2361.31
489.53	2389.98
489.73	2101.22
489.93	2441.18
490.13	2183.13
490.33	2084.83
490.53	2318.30
490.73	2471.90
490.94	2172.89
491.14	2357.21
491.34	2355.16
491.54	2551.77
491.74	3225.55
491.94	3837.89
492.14	4126.66
492.34	4085.70
492.54	3792.84
492.75	3284.94
492.95	3221.45
493.15	2963.41
493.35	2889.68
493.55	2899.92
493.75	2748.37
493.95	2824.15
494.15	2551.77
494.35	2443.23
494.56	2367.45
494.76	2250.72
494.96	2346.97
495.16	2291.68
495.36	2318.30
495.56	2293.72
495.76	2297.82
495.96	2238.43
496.16	2211.81
496.36	2486.23
496.56	2340.83
496.77	2340.83
496.97	2260.96
497.17	2398.17
497.37	2142.18
497.57	2308.06
497.77	2215.90
497.97	2199.52
498.17	2236.38
498.37	2230.24
498.57	2316.25
498.77	2217.95
498.97	2285.53
499.17	2355.16
499.38	2228.19
499.58	2377.69
499.78	2248.67
499.98	2389.98
500.18	2240.48
500.38	2224.09
500.58	2422.75
500.78	2840.53
500.98	5111.73
501.18	7124.88
501.38	8871.80
501.58	9592.69
501.78	9486.19
501.98	7567.24
502.18	6338.46
502.38	5377.97
502.58	5046.20
502.78	4655.03
502.98	4313.02
503.18	4241.34
503.38	3905.48
503.59	3522.51
503.79	3176.40
503.99	3022.80
504.19	2818.00
504.39	2752.47
504.59	2906.07
504.79	2795.48
504.99	2770.90
505.19	2555.86
505.39	2412.51
505.59	2514.91
505.79	2498.52
505.99	2406.36
506.19	2303.96
506.39	2498.52
506.59	2277.34
506.79	2265.05
506.99	2408.41
507.19	2222.05
507.39	2355.16
507.59	2187.23
507.79	2176.99
507.99	2162.66
508.19	2248.67
508.39	2234.33
508.59	2310.11
508.79	2457.56
508.99	2451.42
509.19	2193.37
509.39	2334.68
509.59	2207.71
509.79	2222.05
509.99	2256.86
510.19	2373.60
510.39	2400.22
510.59	2379.74
510.79	2176.99
510.99	2158.56
511.19	2234.33
511.39	2389.98
511.59	2346.97
511.79	2355.16
511.99	2279.39
512.19	2484.19
512.38	2256.86
512.58	2211.81
512.78	2224.09
512.98	2441.18
513.18	2471.90
513.38	2095.07
513.58	2424.80
513.78	2258.91
513.98	2224.09
514.18	2201.57
514.38	2258.91
514.58	2306.01
514.78	2183.13
514.98	2199.52
515.18	2242.53
515.38	2170.85
515.58	2406.36
515.78	2277.34
515.98	2195.42
516.18	2322.40
516.38	2273.25
516.57	2228.19
516.77	2279.39
516.97	2340.83
517.17	2164.70
517.37	2039.78
517.57	2349.02
517.77	2338.78
517.97	2166.75
518.17	2275.29
518.37	2230.24
518.57	2254.81
518.77	2205.66
518.97	2252.77
519.16	2291.68
519.36	2496.47
519.56	2246.62
519.76	2230.24
519.96	2297.82
520.16	2471.90
520.36	2187.23
520.56	2394.08
520.76	2207.71
520.96	2228.19
521.16	2371.55
521.35	2254.81
521.55	2369.50
521.75	2277.34
521.95	2174.94
522.15	2146.27
522.35	2121.70
522.55	2209.76
522.75	2349.02
522.95	2232.29
523.14	2160.61
523.34	2281.44
523.54	2166.75
523.74	2326.49
523.94	2277.34
524.14	2097.12
524.34	2301.92
524.54	2430.94
524.73	2193.37
524.93	2258.91
525.13	2226.14
525.33	2162.66
525.53	2453.47
525.73	2363.36
525.93	2217.95
526.13	2213.85
526.32	2220.00
526.52	2424.80
526.72	2334.68
526.92	2258.91
527.12	2211.81
527.32	2181.09
527.52	2351.07
527.71	2293.72
527.91	2273.25
528.11	2234.33
528.31	2250.72
528.51	2226.14
528.71	2195.42
528.90	2295.77
529.10	2375.64
529.30	2293.72
529.50	2082.78
529.70	2295.77
529.90	2250.72
530.09	2301.92
530.29	2222.05
530.49	2176.99
530.69	2523.10
530.89	2308.06
531.09	2314.20
531.28	2174.94
531.48	2359.26
531.68	2267.10
531.88	2367.45
532.08	2289.63
532.28	2265.05
532.47	2293.72
532.67	2349.02
532.87	2330.59
533.07	2254.81
533.27	2418.65
533.46	2318.30
533.66	2248.67
533.86	2336.73
534.06	2228.19
534.26	2293.72
534.45	2279.39
534.65	2480.09
534.85	2220.00
535.05	2191.33
535.25	2365.40
535.44	2183.13
535.64	2375.64
535.84	2279.39
536.04	2244.57
536.24	2314.20
536.43	2160.61
536.63	2293.72
536.83	2291.68
537.03	2209.76
537.22	2080.74
537.42	2111.46
537.62	2267.10
537.82	2136.03
538.02	2338.78
538.21	2396.12
538.41	2572.25
538.61	2310.11
538.81	2269.15
539.00	2355.16
539.20	2187.23
539.40	2277.34
539.60	2238.43
539.79	2363.36
539.99	2269.15
540.19	2183.13
540.39	2293.72
540.58	2232.29
540.78	2306.01
540.98	2342.88
541.18	2478.04
541.37	2308.06
541.57	2281.44
541.77	2308.06
541.97	2121.70
542.16	2117.60
542.36	2193.37
542.56	2176.99
542.76	2469.85
542.95	2326.49
543.15	2306.01
543.35	2357.21
543.54	2228.19
543.74	2236.38
543.94	2373.60
544.14	2154.46
544.33	2363.36
544.53	2209.76
544.73	2222.05
544.93	2228.19
545.12	2260.96
545.32	2279.39
545.52	2291.68
545.71	2125.79
545.91	2201.57
546.11	2222.05
546.30	2121.70
546.50	2279.39
546.70	2340.83
546.90	2295.77
547.09	2142.18
547.29	2287.58
547.49	2340.83
547.68	2316.25
547.88	2183.13
548.08	2396.12
548.27	2772.95
548.47	2260.96
548.67	2125.79
548.87	2289.63
549.06	2154.46
549.26	2308.06
549.46	2334.68
549.65	2238.43
549.85	2260.96
550.05	2289.63
550.24	2156.51
550.44	2256.86
550.64	2256.86
550.83	2265.05
551.03	2451.42
551.23	2414.56
551.42	2293.72
551.62	2191.33
551.82	2310.11
552.01	2125.79
552.21	2353.12
552.41	2275.29
552.60	2396.12
552.80	2265.05
553.00	2179.04
553.19	2215.90
553.39	2439.13
553.59	2136.03
553.78	2326.49
553.98	2260.96
554.17	2217.95
554.37	2306.01
554.57	2283.49
554.76	2109.41
554.96	2152.42
555.16	2277.34
555.35	2250.72
555.55	2371.55
555.75	2369.50
555.94	2359.26
556.14	2099.17
556.33	2342.88
556.53	2299.87
556.73	2258.91
556.92	2357.21
557.12	2373.60
557.32	2457.56
557.51	2402.27
557.71	2265.05
557.90	2451.42
558.10	2441.18
558.30	2226.14
558.49	2160.61
558.69	2248.67
558.88	2260.96
559.08	2279.39
559.28	2250.72
559.47	2301.92
559.67	2258.91
559.86	2469.85
560.06	2244.57
560.26	2242.53
560.45	2301.92
560.65	2172.89
560.84	2424.80
561.04	2203.61
561.24	2340.83
561.43	2162.66
561.63	2359.26
561.82	2265.05
562.02	2269.15
562.22	2179.04
562.41	2254.81
562.61	2209.76
562.80	2195.42
563.00	2531.29
563.19	2260.96
563.39	2303.96
563.59	2324.44
563.78	2226.14
563.98	2154.46
564.17	2224.09
564.37	2127.84
564.56	2211.81
564.76	2152.42
564.96	2394.08
565.15	2246.62
565.35	2510.81
565.54	2242.53
565.74	2367.45
565.93	2277.34
566.13	2244.57
566.32	2285.53
566.52	2400.22
566.71	2265.05
566.91	2330.59
567.11	2342.88
567.30	2220.00
567.50	2346.97
567.69	2328.54
567.89	2220.00
568.08	2201.57
568.28	2381.79
568.47	2174.94
568.67	2318.30
568.86	2283.49
569.06	2263.01
569.25	2215.90
569.45	2142.18
569.64	2228.19
569.84	2224.09
570.04	2242.53
570.23	2209.76
570.43	2191.33
570.62	2224.09
570.82	2473.95
571.01	2166.75
571.21	2228.19
571.40	2220.00
571.60	2240.48
571.79	2308.06
571.99	2324.44
572.18	2189.28
572.38	2336.73
572.57	2271.20
572.77	2322.40
572.96	2578.39
573.16	2283.49
573.35	2260.96
573.55	2381.79
573.74	2299.87
573.94	2287.58
574.13	2291.68
574.33	2338.78
574.52	2342.88
574.71	2232.29
574.91	2289.63
575.10	2136.03
575.30	2199.52
575.49	2170.85
575.69	2201.57
575.88	2273.25
576.08	2172.89
576.27	2441.18
576.47	2293.72
576.66	2408.41
576.86	2422.75
577.05	2389.98
577.25	2299.87
577.44	2473.95
577.64	2252.77
577.83	2379.74
578.02	2252.77
578.22	2457.56
578.41	2416.60
578.61	2248.67
578.80	2131.94
579.00	2299.87
579.19	2310.11
579.39	2385.88
579.58	2408.41
579.77	2211.81
579.97	2422.75
580.16	2467.80
580.36	2416.60
580.55	2375.64
580.75	2316.25
580.94	2252.77
581.13	2453.47
581.33	2465.75
581.52	2277.34
581.72	2543.58
581.91	2500.57
582.11	2279.39
582.30	2363.36
582.49	2314.20
582.69	2461.66
582.88	2328.54
583.08	2318.30
583.27	2404.32
583.47	2326.49
583.66	2283.49
583.85	2172.89
584.05	2349.02
584.24	2404.32
584.44	2314.20
584.63	2422.75
584.82	2482.14
585.02	2441.18
585.21	2447.32
585.41	2340.83
585.60	2422.75
585.79	2555.86
585.99	2547.67
586.18	2484.19
586.37	2865.11
586.57	4644.79
586.76	13625.14
586.96	33146.37
587.15	46589.24
587.34	55936.17
587.54	61262.94
587.73	55823.53
587.93	39519.65
588.12	29781.56
588.31	23858.84
588.51	21079.74
588.70	19171.04
588.89	17331.96
589.09	15200.02
589.28	13043.51
589.47	10422.11
589.67	8271.75
589.86	6307.74
590.06	4747.19
590.25	3903.43
590.44	3160.02
590.64	2850.77
590.83	2652.12
591.02	2547.67
591.22	2336.73
591.41	2428.89
591.60	2441.18
591.80	2574.30
591.99	2224.09
592.18	2242.53
592.38	2379.74
592.57	2220.00
592.76	2285.53
592.96	2306.01
593.15	2287.58
593.34	2346.97
593.54	2265.05
593.73	2293.72
593.92	2326.49
594.12	2373.60
594.31	2365.40
594.50	2453.47
594.70	2392.03
594.89	2539.48
595.08	2146.27
595.28	2426.84
595.47	2660.31
595.66	2449.37
595.86	2256.86
596.05	2254.81
596.24	2265.05
596.43	2416.60
596.63	2389.98
596.82	2279.39
597.01	2281.44
597.21	2457.56
597.40	2363.36
597.59	2242.53
597.79	2338.78
597.98	2420.70
598.17	2326.49
598.36	2283.49
598.56	2312.16
598.75	2244.57
598.94	2342.88
599.14	2306.01
599.33	2242.53
599.52	2346.97
599.71	2324.44
599.91	2355.16
600.10	2314.20
600.29	2328.54
600.48	2330.59
600.68	2318.30
600.87	2248.67
601.06	2207.71
601.26	2289.63
601.45	2316.25
601.64	2301.92
601.83	2379.74
602.03	2199.52
602.22	2156.51
602.41	2340.83
602.60	2510.81
602.80	2342.88
602.99	2330.59
603.18	2232.29
603.37	2349.02
603.57	2349.02
603.76	2330.59
603.95	2377.69
604.14	2289.63
604.34	2166.75
604.53	2271.20
604.72	2275.29
604.91	2326.49
605.10	2228.19
605.30	2168.80
605.49	2521.05
605.68	2373.60
605.87	2326.49
606.07	2185.18
606.26	2301.92
606.45	2379.74
606.64	2291.68
606.84	2220.00
607.03	2367.45
607.22	2412.51
607.41	2314.20
607.60	2242.53
607.80	2463.71
607.99	2252.77
608.18	2310.11
608.37	2258.91
608.56	2203.61
608.76	2342.88
608.95	2490.33
609.14	2312.16
609.33	2449.37
609.52	2467.80
609.72	2408.41
609.91	2361.31
610.10	2326.49
610.29	2455.51
610.48	2402.27
610.68	2283.49
610.87	2299.87
611.06	2314.20
611.25	2195.42
611.44	2371.55
611.63	2236.38
611.83	2543.58
612.02	2133.98
612.21	2375.64
612.40	2041.82
612.59	2246.62
612.79	2138.08
612.98	2297.82
613.17	2420.70
613.36	2240.48
613.55	2449.37
613.74	2385.88
613.93	2338.78
614.13	2525.15
614.32	2420.70
614.51	2490.33
614.70	2371.55
614.89	2308.06
615.08	2324.44
615.28	2752.47
615.47	2220.00
615.66	2326.49
615.85	2349.02
616.04	2473.95
616.23	2351.07
616.42	2295.77
616.62	2367.45
616.81	2326.49
617.00	2318.30
617.19	2291.68
617.38	2209.76
617.57	2265.05
617.76	2326.49
617.95	2357.21
618.15	2367.45
618.34	2482.14
618.53	2099.17
618.72	2435.03
618.91	2406.36
619.10	2398.17
619.29	2203.61
619.48	2371.55
619.68	2195.42
619.87	2260.96
620.06	2170.85
620.25	2367.45
620.44	2201.57
620.63	2275.29
620.82	2263.01
621.01	2269.15
621.20	2316.25
621.39	2291.68
621.59	2299.87
621.78	2326.49
621.97	2346.97
622.16	2369.50
622.35	2326.49
622.54	2422.75
622.73	2324.44
622.92	2086.88
623.11	2351.07
623.30	2193.37
623.49	2310.11
623.68	2213.85
623.88	2379.74
624.07	2228.19
624.26	2258.91
624.45	2211.81
624.64	2152.42
624.83	2267.10
625.02	2246.62
625.21	2277.34
625.40	2338.78
625.59	2371.55
625.78	2252.77
625.97	2385.88
626.16	2478.04
626.35	2389.98
626.54	2269.15
626.74	2488.28
626.93	2318.30
627.12	2254.81
627.31	2480.09
627.50	2324.44
627.69	2357.21
627.88	2191.33
628.07	2265.05
628.26	2156.51
628.45	2170.85
628.64	2136.03
628.83	2291.68
629.02	2142.18
629.21	2330.59
629.40	2211.81
629.59	2142.18
629.78	2238.43
629.97	2318.30
630.16	2316.25
630.35	2207.71
630.54	2283.49
630.73	2230.24
630.92	2246.62
631.11	2187.23
631.30	2273.25
631.49	2301.92
631.68	2254.81
631.87	2346.97
632.06	2117.60
632.25	2514.91
632.44	2359.26
632.63	2338.78
632.82	2322.40
633.01	2340.83
633.20	2338.78
633.39	2256.86
633.58	2215.90
633.77	2318.30
633.96	2400.22
634.15	2402.27
634.34	2367.45
634.53	2297.82
634.72	2187.23
634.91	2095.07
635.10	2299.87
635.29	2287.58
635.48	2285.53
635.67	2150.37
635.86	2142.18
636.05	2379.74
636.24	2277.34
636.43	2306.01
636.62	2236.38
636.81	2078.69
637.00	2281.44
637.19	2306.01
637.38	2252.77
637.57	2185.18
637.76	2330.59
637.95	2346.97
638.14	2285.53
638.33	2432.99
638.52	2316.25
638.71	2220.00
638.89	2191.33
639.08	2600.92
639.27	2475.99
639.46	2533.34
639.65	2734.04
639.84	2850.77
640.03	2922.45
640.22	2871.25
640.41	2832.34
640.60	2572.25
640.79	2553.82
640.98	2443.23
641.17	2504.67
641.36	2334.68
641.55	2498.52
641.74	2244.57
641.92	2217.95
642.11	2271.20
642.30	2295.77
642.49	2187.23
642.68	2238.43
642.87	2275.29
643.06	2367.45
643.25	2142.18
643.44	2148.32
643.63	2234.33
643.82	2322.40
644.00	2154.46
644.19	2228.19
644.38	2142.18
644.57	2398.17
644.76	2310.11
644.95	2236.38
645.14	2238.43
645.33	2271.20
645.52	2232.29
645.71	2166.75
645.89	2138.08
646.08	2310.11
646.27	2256.86
646.46	2389.98
646.65	2138.08
646.84	2287.58
647.03	2172.89
647.22	2377.69
647.40	2365.40
647.59	2260.96
647.78	2072.54
647.97	2125.79
648.16	2095.07
648.35	2412.51
648.54	2396.12
648.73	2170.85
648.91	2422.75
649.10	2256.86
649.29	2201.57
649.48	2224.09
649.67	2308.06
649.86	2287.58
650.05	2349.02
650.23	2439.13
650.42	2338.78
650.61	2539.48
650.80	2473.95
650.99	2531.29
651.18	2387.93
651.36	2381.79
651.55	2207.71
651.74	2459.61
651.93	2174.94
652.12	2332.64
652.31	2203.61
652.49	2164.70
652.68	2191.33
652.87	2418.65
653.06	2359.26
653.25	2351.07
653.44	2303.96
653.62	2383.84
653.81	2275.29
654.00	2215.90
654.19	2416.60
654.38	2510.81
654.56	2306.01
654.75	2170.85
654.94	2371.55
655.13	2232.29
655.32	2283.49
655.51	2293.72
655.69	2189.28
655.88	2451.42
656.07	2191.33
656.26	2293.72
656.45	2129.89
656.63	2314.20
656.82	2308.06
657.01	2408.41
657.20	2179.04
657.38	2308.06
657.57	2220.00
657.76	2162.66
657.95	2263.01
658.14	2228.19
658.32	2316.25
658.51	2117.60
658.70	2314.20
658.89	2291.68
659.08	2308.06
659.26	2383.84
659.45	2185.18
659.64	2359.26
659.83	2342.88
660.01	2600.92
660.20	2289.63
660.39	2465.75
660.58	2080.74
660.76	2359.26
660.95	2148.32
661.14	2320.35
661.33	2107.36
661.51	2234.33
661.70	2176.99
661.89	2306.01
662.08	2234.33
662.26	2052.06
662.45	2174.94
662.64	2463.71
662.83	2271.20
663.01	2123.74
663.20	2318.30
663.39	2359.26
663.58	2201.57
663.76	2187.23
663.95	2301.92
664.14	2187.23
664.32	2281.44
664.51	2152.42
664.70	2074.59
664.89	2346.97
665.07	2150.37
665.26	2353.12
665.45	2138.08
665.64	2244.57
665.82	2283.49
666.01	2336.73
666.20	2230.24
666.38	2334.68
666.57	2414.56
666.76	3364.81
666.95	8136.58
667.13	16172.81
667.32	21241.53
667.51	24381.07
667.69	26631.79
667.88	24002.19
668.07	17039.10
668.25	13930.28
668.44	11485.01
668.63	9586.54
668.81	8748.92
669.00	7720.84
669.19	6778.78
669.38	5957.54
669.56	5119.92
669.75	4370.37
669.94	3692.49
670.12	3133.39
670.31	2805.72
670.50	2643.93
670.68	2572.25
670.87	2412.51
671.06	2318.30
671.24	2361.31
671.43	2537.43
671.62	2342.88
671.80	2232.29
671.99	2398.17
672.18	2236.38
672.36	2377.69
672.55	2283.49
672.74	2365.40
672.92	2240.48
673.11	2383.84
673.29	2172.89
673.48	2283.49
673.67	2203.61
673.85	2377.69
674.04	2197.47
674.23	2326.49
674.41	2453.47
674.60	2068.45
674.79	2080.74
674.97	2138.08
675.16	2310.11
675.34	2373.60
675.53	2203.61
675.72	2322.40
675.90	2506.71
676.09	2205.66
676.28	2234.33
676.46	2127.84
676.65	2441.18
676.83	2199.52
677.02	2267.10
677.21	2238.43
677.39	2330.59
677.58	2154.46
677.77	2185.18
677.95	2215.90
678.14	2220.00
678.32	2244.57
678.51	2308.06
678.70	2398.17
678.88	2312.16
679.07	2306.01
679.25	2236.38
679.44	2230.24
679.63	2076.64
679.81	2371.55
680.00	2289.63
680.18	2330.59
680.37	2387.93
680.55	2244.57
680.74	2078.69
680.93	2117.60
681.11	2273.25
681.30	2254.81
681.48	2205.66
681.67	2265.05
681.85	2283.49
682.04	2195.42
682.23	2314.20
682.41	2291.68
682.60	2256.86
682.78	2170.85
682.97	2242.53
683.15	2242.53
683.34	2285.53
683.53	2404.32
683.71	2154.46
683.90	2484.19
684.08	2371.55
684.27	2193.37
684.45	2400.22
684.64	2398.17
684.82	2217.95
685.01	2295.77
685.19	2172.89
685.38	2428.89
685.57	2324.44
685.75	2201.57
685.94	2215.90
686.12	2187.23
686.31	2201.57
686.49	2369.50
686.68	2109.41
686.86	2357.21
687.05	2199.52
687.23	2457.56
687.42	2240.48
687.60	2058.21
687.79	2375.64
687.97	2420.70
688.16	2303.96
688.34	2389.98
688.53	2115.55
688.71	2396.12
688.90	2318.30
689.08	2201.57
689.27	2179.04
689.45	2375.64
689.64	2250.72
689.82	2359.26
690.01	2265.05
690.19	2334.68
690.38	2279.39
690.56	2408.41
690.75	2220.00
690.93	2162.66
691.12	2170.85
691.30	2183.13
691.49	2293.72
691.67	2236.38
691.86	2471.90
692.04	2215.90
692.23	2199.52
692.41	2387.93
692.60	2564.06
692.78	2426.84
692.97	2318.30
693.15	2342.88
693.34	2457.56
693.52	2367.45
693.71	2211.81
693.89	2220.00
694.08	2041.82
694.26	2265.05
694.44	2389.98
694.63	2346.97
694.81	2121.70
695.00	2138.08
695.18	2385.88
695.37	2543.58
695.55	2248.67
695.74	2246.62
695.92	2303.96
696.10	2389.98
696.29	2119.65
696.47	2242.53
696.66	2246.62
696.84	2152.42
697.03	2236.38
697.21	2473.95
697.40	3309.52
697.58	2308.06
697.76	2220.00
697.95	2154.46
698.13	2166.75
698.32	2199.52
698.50	2240.48
698.68	2271.20
698.87	2306.01
699.05	2416.60
699.24	2291.68
699.42	2103.26
699.61	2322.40
699.79	2285.53
699.97	2355.16
700.16	2103.26
700.34	2148.32
700.53	2320.35
700.71	2465.75
700.89	2392.03
701.08	2215.90
701.26	2236.38
701.45	2791.38
701.63	2109.41
701.81	2224.09
702.00	2211.81
702.18	2254.81
702.37	2285.53
702.55	2529.24
702.73	2459.61
702.92	2375.64
703.10	2613.21
703.28	2586.58
703.47	2240.48
703.65	2441.18
703.84	2492.38
704.02	2301.92
704.20	2484.19
704.39	2252.77
704.57	2256.86
704.75	2428.89
704.94	2297.82
705.12	2203.61
705.30	2537.43
705.49	4415.42
705.67	10338.15
705.86	17829.62
706.04	21690.04
706.22	24673.93
706.41	25507.45
706.59	21552.82
706.77	15574.80
706.96	12969.79
707.14	11374.42
707.32	9879.40
707.51	8757.11
707.69	7305.10
707.87	6033.32
708.06	4753.34
708.24	3946.44
708.42	3112.91
708.61	3088.34
708.79	2467.80
708.97	2496.47
709.16	2459.61
709.34	2320.35
709.52	2310.11
709.71	2338.78
709.89	2349.02
710.07	2172.89
710.26	2203.61
710.44	2265.05
710.62	2342.88
710.80	2275.29
710.99	2389.98
711.17	2357.21
711.35	2232.29
711.54	2232.29
711.72	2406.36
711.90	2299.87
712.09	2193.37
712.27	2226.14
712.45	2299.87
712.63	2232.29
712.82	2242.53
713.00	2168.80
713.18	2326.49
713.37	2297.82
713.55	2420.70
713.73	2328.54
713.91	2316.25
714.10	2183.13
714.28	2197.47
714.46	2303.96
714.65	2322.40
714.83	2224.09
715.01	2260.96
715.19	2269.15
715.38	2209.76
715.56	2279.39
715.74	2209.76
715.92	2203.61
716.11	2498.52
716.29	2064.35
716.47	2213.85
716.65	2256.86
716.84	2099.17
717.02	2375.64
717.20	2133.98
717.38	2185.18
717.57	2234.33
717.75	2260.96
717.93	2236.38
718.11	2363.36
718.30	2142.18
718.48	2299.87
718.66	2422.75
718.84	2412.51
719.03	2301.92
719.21	2074.59
719.39	2371.55
719.57	2326.49
719.75	2357.21
719.94	2193.37
720.12	2197.47
720.30	2277.34
720.48	2244.57
720.67	2187.23
720.85	2133.98
721.03	2195.42
721.21	2193.37
721.39	2373.60
721.58	2330.59
721.76	2287.58
721.94	2310.11
722.12	2242.53
722.30	2428.89
722.49	2205.66
722.67	2275.29
722.85	2338.78
723.03	2095.07
723.21	2187.23
723.40	2349.02
723.58	2379.74
723.76	2351.07
723.94	2396.12
724.12	2342.88
724.30	2303.96
724.49	2420.70
724.67	2201.57
724.85	2416.60
725.03	2105.31
725.21	2291.68
725.40	2383.84
725.58	2207.71
725.76	2369.50
725.94	2226.14
726.12	2158.56
726.30	2220.00
726.49	2240.48
726.67	2281.44
726.85	2326.49
727.03	2490.33
727.21	3692.49
727.39	4947.89
727.57	5767.08
727.76	6281.12
727.94	6703.00
728.12	6311.84
728.30	5117.87
728.48	4548.54
728.66	4083.65
728.84	3708.87
729.03	3330.00
729.21	3069.91
729.39	2715.61
729.57	2445.27
729.75	2510.81
729.93	2441.18
730.11	2273.25
730.30	2281.44
730.48	2187.23
730.66	2400.22
730.84	2322.40
731.02	2283.49
731.20	2228.19
731.38	2338.78
731.56	2152.42
731.74	2154.46
731.93	2234.33
732.11	2291.68
732.29	2248.67
732.47	2342.88
732.65	2238.43
732.83	2420.70
733.01	2293.72
733.19	2258.91
733.37	2273.25
733.56	2267.10
733.74	2222.05
733.92	2392.03
734.10	2201.57
734.28	2281.44
734.46	1996.77
734.64	2189.28
734.82	2267.10
735.00	2138.08
735.18	2152.42
735.36	2252.77
735.54	2320.35
735.73	2244.57
735.91	2318.30
736.09	2349.02
736.27	2230.24
736.45	2342.88
736.63	2068.45
736.81	2129.89
736.99	2342.88
737.17	2346.97
737.35	2181.09
737.53	2357.21
737.71	2199.52
737.89	2400.22
738.07	2105.31
738.25	2195.42
738.43	2062.30
738.61	2129.89
738.80	2168.80
738.98	2115.55
739.16	2154.46
739.34	2162.66
739.52	2361.31
739.70	2228.19
739.88	2267.10
740.06	2332.64
740.24	2088.93
740.42	2346.97
740.60	2078.69
740.78	2138.08
740.96	2082.78
741.14	2203.61
741.32	2301.92
741.50	2154.46
741.68	2478.04
741.86	2412.51
742.04	2195.42
742.22	2138.08
742.40	2238.43
742.58	2220.00
742.76	2207.71
742.94	2412.51
743.12	2095.07
743.30	2185.18
743.48	2336.73
743.66	2154.46
743.84	2301.92
744.02	2234.33
744.20	2224.09
744.38	2152.42
744.56	2131.94
744.74	2383.84
744.92	2228.19
745.10	2426.84
745.28	2318.30
745.46	2435.03
745.64	2267.10
745.82	2363.36
746.00	2232.29
746.18	2263.01
746.36	2187.23
746.54	2299.87
746.72	2273.25
746.90	2086.88
747.08	2389.98
747.26	2228.19
747.44	2281.44
747.62	2271.20
747.80	2265.05
747.98	2273.25
748.15	2183.13
748.33	2426.84
748.51	2334.68
748.69	2215.90
748.87	2127.84
749.05	2299.87
749.23	2242.53
749.41	2275.29
749.59	2240.48
749.77	2398.17
749.95	2205.66
750.13	2232.29
750.31	2297.82
750.49	2166.75
750.67	2318.30
750.85	2389.98
751.03	2226.14
751.20	2447.32
751.38	2252.77
751.56	2203.61
751.74	2215.90
751.92	2160.61
752.10	2117.60
752.28	2273.25
752.46	2142.18
752.64	2346.97
752.82	2226.14
753.00	2381.79
753.18	2256.86
753.35	2207.71
753.53	2226.14
753.71	2125.79
753.89	2340.83
754.07	2242.53
754.25	2408.41
754.43	2260.96
754.61	2166.75
754.79	2314.20
754.97	2244.57
755.14	2392.03
755.32	2146.27
755.50	2312.16
755.68	2308.06
755.86	2211.81
756.04	2260.96
756.22	2080.74
756.40	2318.30
756.57	2387.93
756.75	2232.29
756.93	2381.79
757.11	2297.82
757.29	2138.08
757.47	2209.76
757.65	2076.64
757.82	2095.07
758.00	2176.99
758.18	2125.79
758.36	2160.61
758.54	2488.28
758.72	2064.35
758.90	2416.60
759.07	2293.72
759.25	2209.76
759.43	2275.29
759.61	2136.03
759.79	3117.01
759.97	2330.59
760.15	2138.08
760.32	2263.01
760.50	2283.49
760.68	2363.36
760.86	2160.61
761.04	2355.16
761.22	2314.20
761.39	2340.83
761.57	2195.42
761.75	2248.67
761.93	2273.25
762.11	2234.33
762.28	2314.20
762.46	2138.08
762.64	2301.92
762.82	2162.66
763.00	2228.19
763.18	2346.97
763.35	2131.94
763.53	2289.63
763.71	2222.05
763.89	2269.15
764.07	2269.15
764.24	2287.58
764.42	2316.25
764.60	2273.25
764.78	2316.25
764.96	2260.96
765.13	2289.63
765.31	2242.53
765.49	2324.44
765.67	2156.51
765.84	2187.23
766.02	2195.42
766.20	2064.35
766.38	2349.02
766.56	2277.34
766.73	2287.58
766.91	2203.61
767.09	2295.77
767.27	2318.30
767.44	2230.24
767.62	2357.21
767.80	2318.30
767.98	2209.76
768.15	2224.09
768.33	2318.30
768.51	2387.93
768.69	2342.88
768.87	2306.01
769.04	2269.15
769.22	2498.52
769.40	2406.36
769.58	2387.93
769.75	2316.25
769.93	2373.60
770.11	2289.63
770.28	2152.42
770.46	2336.73
770.64	2252.77
770.82	2168.80
770.99	2179.04
771.17	2310.11
771.35	2170.85
771.53	2244.57
771.70	2195.42
771.88	2281.44
772.06	2287.58
772.23	2224.09
772.41	2328.54
772.59	2258.91
772.77	2174.94
772.94	2236.38
773.12	2244.57
773.30	2138.08
773.47	2213.85
773.65	2154.46
773.83	2383.84
774.01	2260.96
774.18	2125.79
774.36	2187.23
774.54	2209.76
774.71	2351.07
774.89	2074.59
775.07	2179.04
775.24	2207.71
775.42	2187.23
775.60	2396.12
775.78	2160.61
775.95	2197.47
776.13	2035.68
776.31	2068.45
776.48	2224.09
776.66	2277.34
776.84	2234.33
777.01	2220.00
777.19	2105.31
777.37	2242.53
777.54	2371.55
777.72	2463.71
777.90	2246.62
778.07	2187.23
778.25	2619.35
778.43	2277.34
778.60	2187.23
778.78	2369.50
778.96	2410.46
779.13	2158.56
779.31	2297.82
779.49	2263.01
779.66	2301.92
779.84	2179.04
780.01	2203.61
780.19	2189.28
780.37	2373.60
780.54	2220.00
780.72	2113.50
780.90	2285.53
781.07	2228.19
781.25	2207.71
781.43	2224.09
781.60	2254.81
781.78	2375.64
781.95	2283.49
782.13	2185.18
782.31	2199.52
782.48	2086.88
782.66	2271.20
782.83	2494.43
783.01	2340.83
783.19	2381.79
783.36	2195.42
783.54	2133.98
783.72	2334.68
783.89	2209.76
784.07	2322.40
784.24	2332.64
784.42	2373.60
784.60	2258.91
784.77	2224.09
784.95	2025.44
785.12	2179.04
785.30	2195.42
785.47	2170.85
785.65	2150.37
785.83	2197.47
786.00	2201.57
786.18	2306.01
786.35	2176.99
786.53	2179.04
786.71	2351.07
786.88	2301.92
787.06	2310.11
787.23	2224.09
787.41	2093.02
787.58	2179.04
787.76	2162.66
787.94	2217.95
788.11	2207.71
788.29	2136.03
788.46	2172.89
788.64	2103.26
788.81	2240.48
788.99	2093.02
789.16	2203.61
789.34	2285.53
789.52	2211.81
789.69	2195.42
789.87	2064.35
790.04	2154.46
790.22	2281.44
790.39	2402.27
790.57	2109.41
790.74	2125.79
790.92	2383.84
791.09	2160.61
791.27	2273.25
791.44	2314.20
791.62	2213.85
791.79	2285.53
791.97	2230.24
792.15	2500.57
792.32	2283.49
792.50	2316.25
792.67	2349.02
792.85	2320.35
793.02	2308.06
793.20	2228.19
793.37	2047.97
793.55	2338.78
793.72	2125.79
793.90	2252.77
794.07	2156.51
794.25	2162.66
794.42	2252.77
794.60	2224.09
794.77	2301.92
794.95	2316.25
795.12	2320.35
795.30	2207.71
795.47	2033.63
795.65	2529.24
795.82	2260.96
796.00	2152.42
796.17	2246.62
796.34	2176.99
796.52	2295.77
796.69	2404.32
796.87	2291.68
797.04	2213.85
797.22	2406.36
797.39	2226.14
797.57	2322.40
797.74	2238.43
797.92	2277.34
798.09	2152.42
798.27	2353.12
798.44	2246.62
798.62	2113.50
798.79	2303.96
798.96	2260.96
799.14	2181.09
799.31	2482.14
799.49	2256.86
799.66	2121.70
799.84	2193.37
800.01	2150.37
800.19	2285.53
800.36	2109.41
800.53	2310.11
800.71	2320.35
800.88	2387.93
801.06	2166.75
801.23	2267.10
801.41	2166.75
801.58	2240.48
801.75	2160.61
801.93	2267.10
802.10	2365.40
802.28	2179.04
802.45	2176.99
802.63	2316.25
802.80	2365.40
802.97	2271.20
803.15	2256.86
803.32	2203.61
803.50	2252.77
803.67	2162.66
803.84	2156.51
804.02	2195.42
804.19	2267.10
804.37	2088.93
804.54	2088.93
804.71	2129.89
804.89	2287.58
805.06	2142.18
805.24	2203.61
805.41	2158.56
805.58	2205.66
805.76	2473.95
805.93	2230.24
806.10	2389.98
806.28	2281.44
806.45	2232.29
806.63	2293.72
806.80	2312.16
806.97	2291.68
807.15	2277.34
807.32	2326.49
807.49	2222.05
807.67	2129.89
807.84	2297.82
808.01	2121.70
808.19	2475.99
808.36	2498.52
808.54	2172.89
808.71	2193.37
808.88	2297.82
809.06	2357.21
809.23	2373.60
809.40	2148.32
809.58	2320.35
809.75	2252.77
809.92	2146.27
810.10	2428.89
810.27	2176.99
810.44	2279.39
810.62	2349.02
810.79	2246.62
810.96	2152.42
811.14	2242.53
811.31	2263.01
811.48	2332.64
811.66	2203.61
811.83	2344.92
812.00	2310.11
812.18	2306.01
812.35	2422.75
812.52	2224.09
812.69	2179.04
812.87	2193.37
813.04	2168.80
813.21	2185.18
813.39	2152.42
813.56	2115.55
813.73	2375.64
813.91	2107.36
814.08	2275.29
814.25	2308.06
814.42	2097.12
814.60	2185.18
814.77	2240.48
814.94	2359.26
815.12	2244.57
815.29	2422.75
815.46	2197.47
815.63	2203.61
815.81	2209.76
815.98	2187.23
816.15	2252.77
816.33	2217.95
816.50	2170.85
816.67	2193.37
816.84	2279.39
817.02	2105.31
817.19	2179.04
817.36	2293.72
817.53	2293.72
817.71	2140.13
817.88	2412.51
818.05	2138.08
818.22	2179.04
818.40	2416.60
818.57	2230.24
818.74	2291.68
818.91	2254.81
819.09	2306.01
819.26	2357.21
819.43	2174.94
819.60	2158.56
819.78	2316.25
819.95	2324.44
820.12	2224.09
820.29	2389.98
820.47	2389.98
820.64	2226.14
820.81	2101.22
820.98	2185.18
821.15	2201.57
821.33	2379.74
821.50	2142.18
821.67	2281.44
821.84	2152.42
822.02	2248.67
822.19	2389.98
822.36	2236.38
822.53	2273.25
822.70	2103.26
822.88	2289.63
823.05	2416.60
823.22	2215.90
823.39	2279.39
823.56	2201.57
823.74	2424.80
823.91	2111.46
824.08	2170.85
824.25	2146.27
824.42	2389.98
824.60	2086.88
824.77	2285.53
824.94	2242.53
825.11	2263.01
825.28	2047.97
825.45	2277.34
825.63	2271.20
825.80	2154.46
825.97	2248.67
826.14	2320.35
826.31	2146.27
826.48	2324.44
826.66	2199.52
826.83	2232.29
827.00	2279.39
827.17	2207.71
827.34	2162.66
827.51	2195.42
827.69	2191.33
827.86	2103.26
828.03	2158.56
828.20	2189.28
828.37	2166.75
828.54	2316.25
828.71	2211.81
828.89	2408.41
829.06	2265.05
829.23	2387.93
829.40	2162.66
829.57	2181.09
829.74	2291.68
829.91	2293.72
830.09	2179.04
830.26	2217.95
830.43	2445.27
830.60	2181.09
830.77	2349.02
830.94	2355.16
831.11	2349.02
831.28	2215.90
831.46	2394.08
831.63	2217.95
831.80	2351.07
831.97	2217.95
832.14	2154.46
832.31	2240.48
832.48	2252.77
832.65	2426.84
832.82	2224.09
832.99	2236.38
833.17	2211.81
833.34	2441.18
833.51	2285.53
833.68	2111.46
833.85	2375.64
834.02	2117.60
834.19	2195.42
834.36	2152.42
834.53	2269.15
834.70	2308.06
834.87	2381.79
835.04	2174.94
835.22	2224.09
835.39	2252.77
835.56	2097.12
835.73	2138.08
835.90	2359.26
836.07	2144.22
836.24	2246.62
836.41	2160.61
836.58	2136.03
836.75	2355.16
836.92	2191.33
837.09	2179.04
837.26	2342.88
837.43	2279.39
837.60	2351.07
837.77	2273.25
837.94	2340.83
838.12	2371.55
838.29	2144.22
838.46	2062.30
838.63	2076.64
838.80	2451.42
838.97	2310.11
839.14	2222.05
839.31	2232.29
839.48	2275.29
839.65	2260.96
839.82	2281.44
839.99	2226.14
840.16	2222.05
840.33	2148.32
840.50	2179.04
840.67	2228.19
840.84	2025.44
841.01	2187.23
841.18	2185.18
841.35	2220.00
841.52	2342.88
841.69	2445.27
841.86	2279.39
842.03	2213.85
842.20	2228.19
842.37	2195.42
842.54	2152.42
842.71	2191.33
842.88	2097.12
843.05	2185.18
843.22	2228.19
843.39	2283.49
843.56	2176.99
843.73	2170.85
843.90	2244.57
844.07	2338.78
844.24	2334.68
844.41	2275.29
844.58	2133.98
844.75	2252.77
844.92	2322.40
845.09	2217.95
845.26	2142.18
845.43	2316.25
845.60	2090.98
845.77	2383.84
845.94	2281.44
846.10	2373.60
846.27	2097.12
846.44	2193.37
846.61	2170.85
846.78	2301.92
846.95	2387.93
847.12	2217.95
847.29	2254.81
847.46	2144.22
847.63	2375.64
847.80	2187.23
847.97	2138.08
848.14	2461.66
848.31	2201.57
848.48	2138.08
848.65	2234.33
848.82	2183.13
848.98	2531.29
849.15	2299.87
849.32	2334.68
849.49	2367.45
849.66	2224.09
849.83	2209.76
850.00	2084.83
850.17	2373.60
850.34	2203.61
850.51	2144.22
850.68	2154.46
850.85	2482.14
851.01	2310.11
851.18	2267.10
851.35	2136.03
851.52	2232.29
851.69	2389.98
851.86	2090.98
852.03	2201.57
852.20	2351.07
852.37	2342.88
852.53	2076.64
852.70	2160.61
852.87	2285.53
853.04	2373.60
853.21	2234.33
853.38	2242.53
853.55	2387.93
853.72	2287.58
853.89	2111.46
854.05	2097.12
854.22	2215.90
854.39	2226.14
854.56	2191.33
854.73	2357.21
854.90	2103.26
855.07	2299.87
855.23	2168.80
855.40	2133.98
855.57	2201.57
855.74	2088.93
855.91	2383.84
856.08	2119.65
856.25	2064.35
856.41	2207.71
856.58	2226.14
856.75	2209.76
856.92	2203.61
857.09	2310.11
857.26	2064.35
857.42	2154.46
857.59	2238.43
857.76	2244.57
857.93	2222.05
858.10	2201.57
858.27	2119.65
858.43	2275.29
858.60	2152.42
858.77	2045.92
858.94	2232.29
859.11	2299.87
859.27	2172.89
859.44	2230.24
859.61	2457.56
859.78	2303.96
859.95	2191.33
860.12	2142.18
860.28	2449.37
860.45	2449.37
860.62	2162.66
860.79	2240.48
860.95	2273.25
861.12	2203.61
861.29	2168.80
861.46	2105.31
861.63	2191.33
861.79	2236.38
861.96	2076.64
862.13	2193.37
862.30	2383.84
862.47	2189.28
862.63	2129.89
862.80	2326.49
862.97	2310.11
863.14	2222.05
863.30	2220.00
863.47	2080.74
863.64	2385.88
863.81	2236.38
863.97	2160.61
864.14	2131.94
864.31	2250.72
864.48	2291.68
864.65	2158.56
864.81	2324.44
864.98	2293.72
865.15	2303.96
865.32	2316.25
865.48	2263.01
865.65	2303.96
865.82	2076.64
865.98	2203.61
866.15	2252.77
866.32	2295.77
866.49	2213.85
866.65	2260.96
866.82	2154.46
866.99	2195.42
867.16	2185.18
867.32	2211.81
867.49	2144.22
867.66	2203.61
867.83	2179.04
867.99	2095.07
868.16	2244.57
868.33	2119.65
868.49	2242.53
868.66	2166.75
868.83	2250.72
868.99	2293.72
869.16	2252.77
869.33	2244.57
869.50	2289.63
869.66	2297.82
869.83	2226.14
870.00	2080.74
870.16	2285.53
870.33	2265.05
870.50	2359.26
870.66	2308.06
870.83	2340.83
871.00	2287.58
871.17	2346.97
871.33	2269.15
871.50	2129.89
871.67	2154.46
871.83	2260.96
872.00	2297.82
872.17	2181.09
872.33	2355.16
872.50	2396.12
872.67	2125.79
872.83	2207.71
873.00	2291.68
873.17	2322.40
873.33	2316.25
873.50	2244.57
873.67	2217.95
873.83	2150.37
874.00	2160.61
874.16	2277.34
874.33	2326.49
874.50	2222.05
874.66	2215.90
874.83	2234.33
875.00	2269.15
875.16	2389.98
875.33	2306.01
875.50	2011.11
875.66	2224.09
875.83	2318.30
875.99	2265.05
876.16	2228.19
876.33	2158.56
876.49	2224.09
876.66	2238.43
876.83	2150.37
876.99	2129.89
877.16	2279.39
877.32	2152.42
877.49	2205.66
877.66	2299.87
877.82	2418.65
877.99	2222.05
878.15	2326.49
878.32	2285.53
878.49	2312.16
878.65	2209.76
878.82	2320.35
878.98	2152.42
879.15	2422.75
879.32	2234.33
879.48	2183.13
879.65	2215.90
879.81	2183.13
879.98	2230.24
880.15	2154.46
880.31	2254.81
880.48	2238.43
880.64	2318.30
880.81	2267.10
880.97	2342.88
881.14	2342.88
881.31	2142.18
881.47	2422.75
881.64	2191.33
881.80	2156.51
881.97	2220.00
882.13	2215.90
882.30	2127.84
882.47	2197.47
882.63	2074.59
882.80	2088.93
882.96	2236.38
883.13	2410.46
883.29	2150.37
883.46	2236.38
883.62	2455.51
883.79	2303.96
883.95	2332.64
884.12	2263.01
884.29	2293.72
884.45	2308.06
884.62	2289.63
884.78	2160.61
884.95	2357.21
885.11	2142.18
885.28	2199.52
885.44	2181.09
885.61	2291.68
885.77	2408.41
885.94	2211.81
886.10	2207.71
886.27	2258.91
886.43	2381.79
886.60	2359.26
886.76	2248.67
886.93	2211.81
887.09	2287.58
887.26	2047.97
887.42	2220.00
887.59	2314.20
887.75	2412.51
887.92	2308.06
888.08	2269.15
888.25	2412.51
888.41	2275.29
888.58	2197.47
888.74	2187.23
888.91	2152.42
>>>>>End Processed Spectral Data<<<<<
