SpectraSuite Data File
++++++++++++++++++++++++++++++++++++
Date: Thu May 05 13:20:43 CEST 2016
User: root
Dark Spectrum Present: No
Reference Spectrum Present: No
Number of Sampled Component Spectra: 1
Spectrometers: USB4C02835
Integration Time (usec): 100000 (USB4C02835)
Spectra Averaged: 1 (USB4C02835)
Boxcar Smoothing: 0 (USB4C02835)
Correct for Electrical Dark: No (USB4C02835)
Strobe/Lamp Enabled: No (USB4C02835)
Correct for Detector Non-linearity: No (USB4C02835)
Correct for Stray Light: No (USB4C02835)
Number of Pixels in Processed Spectrum: 3648
>>>>>Begin Processed Spectral Data<<<<<
177.47	1826.79
177.69	1826.79
177.91	1826.79
178.13	1867.75
178.36	1728.49
178.58	2181.09
178.80	2213.85
179.02	2131.94
179.24	2142.18
179.46	2162.66
179.68	2236.38
179.90	2183.13
180.13	2205.66
180.35	2144.22
180.57	2144.22
180.79	2320.35
181.01	2281.44
181.23	2248.67
181.45	2256.86
181.67	2277.34
181.90	2375.64
182.12	2138.08
182.34	2043.87
182.56	2346.97
182.78	2238.43
183.00	2072.54
183.22	2211.81
183.44	2095.07
183.66	2559.96
183.89	2314.20
184.11	2174.94
184.33	2334.68
184.55	2375.64
184.77	2127.84
184.99	2185.18
185.21	2181.09
185.43	2453.47
185.65	2146.27
185.87	2176.99
186.10	2414.56
186.32	2557.91
186.54	2260.96
186.76	2232.29
186.98	2332.64
187.20	2342.88
187.42	2105.31
187.64	2213.85
187.86	2291.68
188.08	2320.35
188.30	2113.50
188.52	2133.98
188.75	2439.13
188.97	2353.12
189.19	2109.41
189.41	2138.08
189.63	2318.30
189.85	2207.71
190.07	2078.69
190.29	2023.39
190.51	2324.44
190.73	2164.70
190.95	2316.25
191.17	2144.22
191.39	2133.98
191.61	2248.67
191.84	2160.61
192.06	2197.47
192.28	2060.26
192.50	2527.19
192.72	2267.10
192.94	2220.00
193.16	2291.68
193.38	2351.07
193.60	2142.18
193.82	2170.85
194.04	2379.74
194.26	2273.25
194.48	2162.66
194.70	2131.94
194.92	2185.18
195.14	2273.25
195.36	2113.50
195.58	2303.96
195.80	2195.42
196.02	2215.90
196.24	2140.13
196.46	2308.06
196.69	2258.91
196.91	2445.27
197.13	2213.85
197.35	2129.89
197.57	2428.89
197.79	2285.53
198.01	2234.33
198.23	2123.74
198.45	2297.82
198.67	2183.13
198.89	2133.98
199.11	2265.05
199.33	2195.42
199.55	2121.70
199.77	2148.32
199.99	2277.34
200.21	2207.71
200.43	2215.90
200.65	2113.50
200.87	2037.73
201.09	2240.48
201.31	2156.51
201.53	2191.33
201.75	2271.20
201.97	2285.53
202.19	2258.91
202.41	2250.72
202.63	2303.96
202.85	2316.25
203.07	2244.57
203.29	2133.98
203.51	2039.78
203.73	2217.95
203.95	2566.10
204.17	2146.27
204.39	2269.15
204.61	2226.14
204.83	2142.18
205.05	2213.85
205.27	2285.53
205.49	2447.32
205.71	2281.44
205.93	2187.23
206.15	2162.66
206.37	2228.19
206.59	2217.95
206.81	2086.88
207.03	2109.41
207.25	2150.37
207.47	2277.34
207.69	2215.90
207.91	2422.75
208.13	2459.61
208.34	2125.79
208.56	2109.41
208.78	2209.76
209.00	2234.33
209.22	2146.27
209.44	2170.85
209.66	2125.79
209.88	2269.15
210.10	2191.33
210.32	2068.45
210.54	2314.20
210.76	2316.25
210.98	2285.53
211.20	2017.25
211.42	2252.77
211.64	2383.84
211.86	2244.57
212.08	2205.66
212.30	2224.09
212.52	2129.89
212.74	2312.16
212.96	2226.14
213.17	2215.90
213.39	2363.36
213.61	2342.88
213.83	2129.89
214.05	2281.44
214.27	2277.34
214.49	2136.03
214.71	2121.70
214.93	2287.58
215.15	2246.62
215.37	2367.45
215.59	2007.01
215.81	2158.56
216.03	2373.60
216.24	2254.81
216.46	2191.33
216.68	2215.90
216.90	2269.15
217.12	2303.96
217.34	2265.05
217.56	2273.25
217.78	2367.45
218.00	2365.40
218.22	2215.90
218.44	2285.53
218.66	2342.88
218.87	2541.53
219.09	2097.12
219.31	2172.89
219.53	2381.79
219.75	2234.33
219.97	2252.77
220.19	2220.00
220.41	2203.61
220.63	2363.36
220.85	2170.85
221.06	2131.94
221.28	2396.12
221.50	2326.49
221.72	2228.19
221.94	2136.03
222.16	2260.96
222.38	2338.78
222.60	2183.13
222.82	2154.46
223.03	2326.49
223.25	2117.60
223.47	2199.52
223.69	2416.60
223.91	2369.50
224.13	2301.92
224.35	2205.66
224.57	2252.77
224.78	2308.06
225.00	2166.75
225.22	2209.76
225.44	2187.23
225.66	2308.06
225.88	2224.09
226.10	2183.13
226.32	2199.52
226.53	2389.98
226.75	2252.77
226.97	2211.81
227.19	2176.99
227.41	2291.68
227.63	2088.93
227.85	2015.20
228.06	2138.08
228.28	2258.91
228.50	2404.32
228.72	2011.11
228.94	2191.33
229.16	2076.64
229.37	2166.75
229.59	2144.22
229.81	2215.90
230.03	2203.61
230.25	2070.50
230.47	2029.54
230.69	2058.21
230.90	2375.64
231.12	2207.71
231.34	2203.61
231.56	2308.06
231.78	2080.74
232.00	2220.00
232.21	2179.04
232.43	2158.56
232.65	2117.60
232.87	2297.82
233.09	2047.97
233.30	2066.40
233.52	2359.26
233.74	2222.05
233.96	2162.66
234.18	2185.18
234.40	2244.57
234.61	2482.14
234.83	2166.75
235.05	2133.98
235.27	2535.39
235.49	2369.50
235.70	2203.61
235.92	2252.77
236.14	2242.53
236.36	2461.66
236.58	2111.46
236.79	2244.57
237.01	2234.33
237.23	2271.20
237.45	2318.30
237.67	2084.83
237.88	2267.10
238.10	2510.81
238.32	2129.89
238.54	2238.43
238.76	2222.05
238.97	2162.66
239.19	2129.89
239.41	2213.85
239.63	2328.54
239.85	2228.19
240.06	2207.71
240.28	2154.46
240.50	2273.25
240.72	2263.01
240.93	2138.08
241.15	2299.87
241.37	2283.49
241.59	2424.80
241.81	2174.94
242.02	2179.04
242.24	2310.11
242.46	2324.44
242.68	2119.65
242.89	2211.81
243.11	2389.98
243.33	2275.29
243.55	2154.46
243.76	2203.61
243.98	2207.71
244.20	2320.35
244.42	2228.19
244.64	2224.09
244.85	2078.69
245.07	2211.81
245.29	2238.43
245.51	2189.28
245.72	2154.46
245.94	2365.40
246.16	2252.77
246.38	2263.01
246.59	2252.77
246.81	2232.29
247.03	2093.02
247.24	2140.13
247.46	2170.85
247.68	2310.11
247.90	2115.55
248.11	2209.76
248.33	2416.60
248.55	2168.80
248.77	2195.42
248.98	2201.57
249.20	2439.13
249.42	2267.10
249.64	2301.92
249.85	2158.56
250.07	2217.95
250.29	2322.40
250.50	2193.37
250.72	2160.61
250.94	2265.05
251.16	2381.79
251.37	2273.25
251.59	2203.61
251.81	2346.97
252.02	2398.17
252.24	2109.41
252.46	2353.12
252.68	2207.71
252.89	2215.90
253.11	2086.88
253.33	2324.44
253.54	2387.93
253.76	2193.37
253.98	2162.66
254.20	2220.00
254.41	2093.02
254.63	2246.62
254.85	2072.54
255.06	2093.02
255.28	2381.79
255.50	2203.61
255.71	2158.56
255.93	2097.12
256.15	2254.81
256.36	2318.30
256.58	2119.65
256.80	2140.13
257.02	2258.91
257.23	2121.70
257.45	2183.13
257.67	2195.42
257.88	2234.33
258.10	2297.82
258.32	2207.71
258.53	2234.33
258.75	2449.37
258.97	2226.14
259.18	2164.70
259.40	2146.27
259.62	2451.42
259.83	2392.03
260.05	2234.33
260.27	2676.70
260.48	2361.31
260.70	2176.99
260.92	2228.19
261.13	2164.70
261.35	2248.67
261.57	2353.12
261.78	2031.58
262.00	2136.03
262.22	2275.29
262.43	2260.96
262.65	2232.29
262.86	2129.89
263.08	2478.04
263.30	2291.68
263.51	2086.88
263.73	2121.70
263.95	2367.45
264.16	2144.22
264.38	2158.56
264.60	2146.27
264.81	2244.57
265.03	2310.11
265.25	2265.05
265.46	2117.60
265.68	2412.51
265.89	2308.06
266.11	2019.30
266.33	2207.71
266.54	2310.11
266.76	2248.67
266.98	2320.35
267.19	2312.16
267.41	2297.82
267.62	2244.57
267.84	2035.68
268.06	2189.28
268.27	2334.68
268.49	2359.26
268.70	2213.85
268.92	2236.38
269.14	2146.27
269.35	2121.70
269.57	2203.61
269.79	2166.75
270.00	2224.09
270.22	2385.88
270.43	2133.98
270.65	2060.26
270.87	2306.01
271.08	2314.20
271.30	2277.34
271.51	2191.33
271.73	2361.31
271.95	2392.03
272.16	2269.15
272.38	2291.68
272.59	2248.67
272.81	2291.68
273.02	2179.04
273.24	2217.95
273.46	2398.17
273.67	2140.13
273.89	2129.89
274.10	2103.26
274.32	2332.64
274.54	2320.35
274.75	2220.00
274.97	2162.66
275.18	2279.39
275.40	2332.64
275.61	2187.23
275.83	2277.34
276.05	2123.74
276.26	2324.44
276.48	2185.18
276.69	2174.94
276.91	2166.75
277.12	2349.02
277.34	2299.87
277.55	2301.92
277.77	2291.68
277.99	2170.85
278.20	2209.76
278.42	2154.46
278.63	2209.76
278.85	2172.89
279.06	2103.26
279.28	2301.92
279.49	2342.88
279.71	2357.21
279.93	2246.62
280.14	2207.71
280.36	2138.08
280.57	2273.25
280.79	2330.59
281.00	2211.81
281.22	2179.04
281.43	2349.02
281.65	2080.74
281.86	2193.37
282.08	2289.63
282.29	2424.80
282.51	2129.89
282.73	2095.07
282.94	2045.92
283.16	2301.92
283.37	2344.92
283.59	2234.33
283.80	2273.25
284.02	2279.39
284.23	2306.01
284.45	2189.28
284.66	2234.33
284.88	2197.47
285.09	2260.96
285.31	2295.77
285.52	2265.05
285.74	2117.60
285.95	2346.97
286.17	2191.33
286.38	2445.27
286.60	2234.33
286.81	2129.89
287.03	2207.71
287.24	2275.29
287.46	2254.81
287.67	2310.11
287.89	2441.18
288.10	2172.89
288.32	2250.72
288.53	2324.44
288.75	2172.89
288.96	2392.03
289.18	2244.57
289.39	2148.32
289.61	2316.25
289.82	2469.85
290.04	2502.62
290.25	2168.80
290.47	2236.38
290.68	2207.71
290.90	2383.84
291.11	2117.60
291.33	2310.11
291.54	2232.29
291.76	2121.70
291.97	2285.53
292.18	2275.29
292.40	2222.05
292.61	2236.38
292.83	2537.43
293.04	2373.60
293.26	2226.14
293.47	2209.76
293.69	2144.22
293.90	2117.60
294.12	2381.79
294.33	2166.75
294.55	2207.71
294.76	2287.58
294.97	2447.32
295.19	2457.56
295.40	2170.85
295.62	2252.77
295.83	2410.46
296.05	2170.85
296.26	2310.11
296.48	2162.66
296.69	2250.72
296.90	2281.44
297.12	2283.49
297.33	2328.54
297.55	2215.90
297.76	2303.96
297.98	2367.45
298.19	2299.87
298.41	2281.44
298.62	2162.66
298.83	2342.88
299.05	2254.81
299.26	2201.57
299.48	2191.33
299.69	2299.87
299.90	2199.52
300.12	2160.61
300.33	2320.35
300.55	2271.20
300.76	2234.33
300.98	2220.00
301.19	2326.49
301.40	2217.95
301.62	2220.00
301.83	2332.64
302.05	2295.77
302.26	2271.20
302.47	2310.11
302.69	2181.09
302.90	2303.96
303.12	2064.35
303.33	2316.25
303.54	2449.37
303.76	2246.62
303.97	2215.90
304.19	2408.41
304.40	2164.70
304.61	2301.92
304.83	2408.41
305.04	2289.63
305.26	2277.34
305.47	2242.53
305.68	2236.38
305.90	2113.50
306.11	2371.55
306.33	2285.53
306.54	2228.19
306.75	2123.74
306.97	2117.60
307.18	2144.22
307.39	2183.13
307.61	2306.01
307.82	2232.29
308.04	2297.82
308.25	2093.02
308.46	2252.77
308.68	2273.25
308.89	2287.58
309.10	2349.02
309.32	2242.53
309.53	2246.62
309.74	2242.53
309.96	2187.23
310.17	2357.21
310.39	2211.81
310.60	2293.72
310.81	2252.77
311.03	2156.51
311.24	2359.26
311.45	2301.92
311.67	2396.12
311.88	2248.67
312.09	2222.05
312.31	2160.61
312.52	2146.27
312.73	2148.32
312.95	2222.05
313.16	2187.23
313.37	2406.36
313.59	2258.91
313.80	2252.77
314.01	2439.13
314.23	2154.46
314.44	2138.08
314.65	2183.13
314.87	2199.52
315.08	2250.72
315.29	2152.42
315.51	2172.89
315.72	2160.61
315.93	2322.40
316.15	2240.48
316.36	2183.13
316.57	2277.34
316.79	2330.59
317.00	2142.18
317.21	2318.30
317.43	2148.32
317.64	2230.24
317.85	2101.22
318.07	2142.18
318.28	2265.05
318.49	2453.47
318.70	2486.23
318.92	2330.59
319.13	2408.41
319.34	2473.95
319.56	2299.87
319.77	2293.72
319.98	2353.12
320.20	2367.45
320.41	2369.50
320.62	2222.05
320.83	2189.28
321.05	2473.95
321.26	2222.05
321.47	2220.00
321.69	2373.60
321.90	2088.93
322.11	2185.18
322.32	2242.53
322.54	2453.47
322.75	2185.18
322.96	2494.43
323.18	2125.79
323.39	2078.69
323.60	2291.68
323.81	2342.88
324.03	2199.52
324.24	2277.34
324.45	2308.06
324.66	2187.23
324.88	2490.33
325.09	2404.32
325.30	2226.14
325.52	2318.30
325.73	2265.05
325.94	2160.61
326.15	2068.45
326.37	2117.60
326.58	2351.07
326.79	2371.55
327.00	2105.31
327.22	2170.85
327.43	2242.53
327.64	2174.94
327.85	2260.96
328.07	2158.56
328.28	2449.37
328.49	2150.37
328.70	2242.53
328.92	2191.33
329.13	2250.72
329.34	2271.20
329.55	2414.56
329.76	2326.49
329.98	2263.01
330.19	2340.83
330.40	2230.24
330.61	2260.96
330.83	2310.11
331.04	2176.99
331.25	2267.10
331.46	2154.46
331.68	2195.42
331.89	2361.31
332.10	2228.19
332.31	2117.60
332.52	2222.05
332.74	2365.40
332.95	2160.61
333.16	2185.18
333.37	2310.11
333.58	2240.48
333.80	2209.76
334.01	2084.83
334.22	2246.62
334.43	2185.18
334.64	2195.42
334.86	2103.26
335.07	2205.66
335.28	2351.07
335.49	2179.04
335.70	2179.04
335.92	2359.26
336.13	2504.67
336.34	2283.49
336.55	2211.81
336.76	2224.09
336.98	2105.31
337.19	2191.33
337.40	2478.04
337.61	2514.91
337.82	2240.48
338.04	2269.15
338.25	2076.64
338.46	2211.81
338.67	2269.15
338.88	2129.89
339.09	2150.37
339.31	2162.66
339.52	2080.74
339.73	2127.84
339.94	2263.01
340.15	2281.44
340.36	2244.57
340.58	2260.96
340.79	2142.18
341.00	2383.84
341.21	2131.94
341.42	2424.80
341.63	2220.00
341.85	2326.49
342.06	2295.77
342.27	2158.56
342.48	2281.44
342.69	2088.93
342.90	2236.38
343.12	2336.73
343.33	2191.33
343.54	2375.64
343.75	2484.19
343.96	2244.57
344.17	2211.81
344.38	2271.20
344.60	2168.80
344.81	2154.46
345.02	2193.37
345.23	2310.11
345.44	2580.44
345.65	2265.05
345.86	2349.02
346.07	2242.53
346.29	2144.22
346.50	2281.44
346.71	2289.63
346.92	2424.80
347.13	2514.91
347.34	2220.00
347.55	2213.85
347.76	2322.40
347.98	2127.84
348.19	2224.09
348.40	2232.29
348.61	2236.38
348.82	2379.74
349.03	2281.44
349.24	2119.65
349.45	2412.51
349.66	2138.08
349.88	2232.29
350.09	2133.98
350.30	2375.64
350.51	2400.22
350.72	2269.15
350.93	2226.14
351.14	2140.13
351.35	2260.96
351.56	2248.67
351.77	2240.48
351.99	2297.82
352.20	2404.32
352.41	2312.16
352.62	2080.74
352.83	2281.44
353.04	2265.05
353.25	2183.13
353.46	2289.63
353.67	2400.22
353.88	2097.12
354.09	2269.15
354.30	2201.57
354.52	2291.68
354.73	2207.71
354.94	2269.15
355.15	2158.56
355.36	2496.47
355.57	2172.89
355.78	2226.14
355.99	2160.61
356.20	2170.85
356.41	2322.40
356.62	2250.72
356.83	2312.16
357.04	2367.45
357.25	2201.57
357.46	2201.57
357.68	2127.84
357.89	2179.04
358.10	2291.68
358.31	2269.15
358.52	2226.14
358.73	2086.88
358.94	2070.50
359.15	2217.95
359.36	2310.11
359.57	2269.15
359.78	2220.00
359.99	2293.72
360.20	2156.51
360.41	2179.04
360.62	2351.07
360.83	2287.58
361.04	2195.42
361.25	2322.40
361.46	2445.27
361.67	2310.11
361.88	2295.77
362.09	2359.26
362.30	2369.50
362.51	2240.48
362.72	2263.01
362.93	2359.26
363.14	2314.20
363.35	2267.10
363.56	2113.50
363.78	2342.88
363.99	2363.36
364.20	2187.23
364.41	2213.85
364.62	2535.39
364.83	2303.96
365.04	2279.39
365.25	2207.71
365.46	2519.00
365.67	2209.76
365.88	2283.49
366.09	2275.29
366.30	2228.19
366.51	2283.49
366.72	2154.46
366.93	2207.71
367.14	2244.57
367.35	2346.97
367.56	2211.81
367.77	2338.78
367.98	2236.38
368.18	2344.92
368.39	2271.20
368.60	2103.26
368.81	2361.31
369.02	2326.49
369.23	2133.98
369.44	2111.46
369.65	2191.33
369.86	2238.43
370.07	2297.82
370.28	2166.75
370.49	2277.34
370.70	2244.57
370.91	2125.79
371.12	2117.60
371.33	2322.40
371.54	2234.33
371.75	2426.84
371.96	2023.39
372.17	2281.44
372.38	2256.86
372.59	2293.72
372.80	2252.77
373.01	2201.57
373.22	2215.90
373.43	2199.52
373.64	2113.50
373.85	2373.60
374.06	2488.28
374.26	2260.96
374.47	2277.34
374.68	2363.36
374.89	2320.35
375.10	2195.42
375.31	2179.04
375.52	2244.57
375.73	2260.96
375.94	2105.31
376.15	2392.03
376.36	2201.57
376.57	2197.47
376.78	2189.28
376.99	2228.19
377.20	2330.59
377.40	2174.94
377.61	2426.84
377.82	2179.04
378.03	2346.97
378.24	2371.55
378.45	2236.38
378.66	2303.96
378.87	2113.50
379.08	2088.93
379.29	2154.46
379.50	2416.60
379.71	2263.01
379.91	2359.26
380.12	2209.76
380.33	2236.38
380.54	2285.53
380.75	2301.92
380.96	2256.86
381.17	2217.95
381.38	2277.34
381.59	2275.29
381.80	2277.34
382.00	2408.41
382.21	2342.88
382.42	2500.57
382.63	2510.81
382.84	2312.16
383.05	2332.64
383.26	2396.12
383.47	2265.05
383.68	2314.20
383.88	2318.30
384.09	2279.39
384.30	2351.07
384.51	2269.15
384.72	2230.24
384.93	2176.99
385.14	2273.25
385.35	2332.64
385.55	2095.07
385.76	2326.49
385.97	2179.04
386.18	2131.94
386.39	2176.99
386.60	2187.23
386.81	2260.96
387.02	2127.84
387.22	2181.09
387.43	2330.59
387.64	2244.57
387.85	2338.78
388.06	2424.80
388.27	3960.77
388.48	8226.69
388.68	11517.78
388.89	13930.28
389.10	15130.39
389.31	14044.97
389.52	10997.59
389.73	9318.26
389.93	8589.18
390.14	7950.21
390.35	7141.27
390.56	6307.74
390.77	5234.61
390.98	3932.10
391.18	3282.89
391.39	2729.94
391.60	2256.86
391.81	2389.98
392.02	2248.67
392.23	2508.76
392.43	2310.11
392.64	2340.83
392.85	2232.29
393.06	2478.04
393.27	2308.06
393.47	2154.46
393.68	2232.29
393.89	2228.19
394.10	2416.60
394.31	2117.60
394.52	2166.75
394.72	2127.84
394.93	2422.75
395.14	2144.22
395.35	2346.97
395.56	2205.66
395.76	2207.71
395.97	2236.38
396.18	2322.40
396.39	2408.41
396.60	2799.57
396.80	2459.61
397.01	2387.93
397.22	2439.13
397.43	2387.93
397.64	2215.90
397.84	2289.63
398.05	2486.23
398.26	2197.47
398.47	2359.26
398.67	2342.88
398.88	2306.01
399.09	2293.72
399.30	2187.23
399.51	2295.77
399.71	2226.14
399.92	2265.05
400.13	2267.10
400.34	2209.76
400.54	2220.00
400.75	2519.00
400.96	2258.91
401.17	2428.89
401.37	2371.55
401.58	2336.73
401.79	2209.76
402.00	2336.73
402.21	2701.27
402.41	2525.15
402.62	2519.00
402.83	2772.95
403.04	2664.41
403.24	2852.82
403.45	2383.84
403.66	2525.15
403.87	2451.42
404.07	2539.48
404.28	2459.61
404.49	2494.43
404.70	2359.26
404.90	2314.20
405.11	2301.92
405.32	2363.36
405.52	2260.96
405.73	2166.75
405.94	2185.18
406.15	2224.09
406.35	2322.40
406.56	2371.55
406.77	2269.15
406.98	2246.62
407.18	2236.38
407.39	2398.17
407.60	2183.13
407.80	2281.44
408.01	2199.52
408.22	2293.72
408.43	2140.13
408.63	2277.34
408.84	2297.82
409.05	2359.26
409.25	2125.79
409.46	2150.37
409.67	2236.38
409.88	2107.36
410.08	2217.95
410.29	2187.23
410.50	2392.03
410.70	2320.35
410.91	2164.70
411.12	2263.01
411.32	2199.52
411.53	2164.70
411.74	2351.07
411.95	2271.20
412.15	2398.17
412.36	2318.30
412.57	2320.35
412.77	2455.51
412.98	2293.72
413.19	2211.81
413.39	2295.77
413.60	2316.25
413.81	2416.60
414.01	2226.14
414.22	2236.38
414.43	2287.58
414.63	2226.14
414.84	2297.82
415.05	2232.29
415.25	2076.64
415.46	2275.29
415.67	2260.96
415.87	2308.06
416.08	2220.00
416.29	2146.27
416.49	2344.92
416.70	2236.38
416.91	2193.37
417.11	2277.34
417.32	2318.30
417.53	2314.20
417.73	2267.10
417.94	2244.57
418.15	2265.05
418.35	2236.38
418.56	2242.53
418.77	2482.14
418.97	2226.14
419.18	2195.42
419.38	1990.63
419.59	2240.48
419.80	2402.27
420.00	2172.89
420.21	2289.63
420.42	2400.22
420.62	2273.25
420.83	2156.51
421.04	2277.34
421.24	2217.95
421.45	2320.35
421.65	2297.82
421.86	2220.00
422.07	2416.60
422.27	2242.53
422.48	2230.24
422.69	2148.32
422.89	2260.96
423.10	2283.49
423.30	2228.19
423.51	2306.01
423.72	2293.72
423.92	2303.96
424.13	2162.66
424.33	2263.01
424.54	2357.21
424.75	2236.38
424.95	2439.13
425.16	2232.29
425.36	2226.14
425.57	2349.02
425.78	2273.25
425.98	2301.92
426.19	2281.44
426.39	2170.85
426.60	2248.67
426.81	2306.01
427.01	2355.16
427.22	2154.46
427.42	2109.41
427.63	2162.66
427.83	2351.07
428.04	2369.50
428.25	2334.68
428.45	2336.73
428.66	2363.36
428.86	2293.72
429.07	2275.29
429.28	2220.00
429.48	2234.33
429.69	2138.08
429.89	2267.10
430.10	2121.70
430.30	2291.68
430.51	2361.31
430.71	2158.56
430.92	2172.89
431.13	2224.09
431.33	2248.67
431.54	2238.43
431.74	2381.79
431.95	2523.10
432.15	2152.42
432.36	2142.18
432.56	2310.11
432.77	2498.52
432.98	2486.23
433.18	2189.28
433.39	2240.48
433.59	2277.34
433.80	2496.47
434.00	2471.90
434.21	2248.67
434.41	2244.57
434.62	2424.80
434.82	2086.88
435.03	2148.32
435.23	2267.10
435.44	2064.35
435.64	2273.25
435.85	2211.81
436.06	2379.74
436.26	2359.26
436.47	2254.81
436.67	2205.66
436.88	2240.48
437.08	2357.21
437.29	2357.21
437.49	2275.29
437.70	2428.89
437.90	2303.96
438.11	2469.85
438.31	2287.58
438.52	2457.56
438.72	2482.14
438.93	2564.06
439.13	2271.20
439.34	2424.80
439.54	2215.90
439.75	2410.46
439.95	2322.40
440.16	2158.56
440.36	2297.82
440.57	2314.20
440.77	2275.29
440.98	2201.57
441.18	2342.88
441.39	2236.38
441.59	2109.41
441.80	2465.75
442.00	2191.33
442.21	2338.78
442.41	2193.37
442.62	2398.17
442.82	2220.00
443.02	2228.19
443.23	2238.43
443.43	2250.72
443.64	2445.27
443.84	2140.13
444.05	2400.22
444.25	2322.40
444.46	2240.48
444.66	2242.53
444.87	2449.37
445.07	2146.27
445.28	2314.20
445.48	2334.68
445.69	2318.30
445.89	2510.81
446.09	2322.40
446.30	2572.25
446.50	2818.00
446.71	4382.65
446.91	5535.66
447.12	6291.36
447.32	6823.83
447.53	6283.17
447.73	5246.90
447.93	4700.09
448.14	4239.30
448.34	4042.69
448.55	3637.19
448.75	3530.70
448.96	3395.53
449.16	3026.90
449.36	2883.54
449.57	2619.35
449.77	2371.55
449.98	2271.20
450.18	2312.16
450.39	2340.83
450.59	2367.45
450.79	2297.82
451.00	2146.27
451.20	2334.68
451.41	2269.15
451.61	2367.45
451.81	2273.25
452.02	2199.52
452.22	2154.46
452.43	2234.33
452.63	2273.25
452.84	2236.38
453.04	2273.25
453.24	2359.26
453.45	2224.09
453.65	2224.09
453.86	2349.02
454.06	2365.40
454.26	2207.71
454.47	2232.29
454.67	2381.79
454.87	2285.53
455.08	2205.66
455.28	2318.30
455.49	2371.55
455.69	2179.04
455.89	2471.90
456.10	2412.51
456.30	2246.62
456.51	2334.68
456.71	2373.60
456.91	2297.82
457.12	2203.61
457.32	2310.11
457.52	2170.85
457.73	2365.40
457.93	2297.82
458.14	2252.77
458.34	2095.07
458.54	2183.13
458.75	2244.57
458.95	2332.64
459.15	2344.92
459.36	2310.11
459.56	2287.58
459.76	2447.32
459.97	2193.37
460.17	2244.57
460.37	2308.06
460.58	2277.34
460.78	2277.34
460.99	2127.84
461.19	2205.66
461.39	2174.94
461.60	2179.04
461.80	2269.15
462.00	2211.81
462.21	2291.68
462.41	2222.05
462.61	2123.74
462.82	2111.46
463.02	2277.34
463.22	2252.77
463.43	2299.87
463.63	2207.71
463.83	2346.97
464.04	2281.44
464.24	2203.61
464.44	2129.89
464.64	2232.29
464.85	2330.59
465.05	2381.79
465.25	2209.76
465.46	2226.14
465.66	2351.07
465.86	2318.30
466.07	2260.96
466.27	2256.86
466.47	2156.51
466.68	2146.27
466.88	2402.27
467.08	2275.29
467.29	2340.83
467.49	2316.25
467.69	2263.01
467.89	2340.83
468.10	2166.75
468.30	2349.02
468.50	2459.61
468.71	2379.74
468.91	2205.66
469.11	2441.18
469.31	2277.34
469.52	2189.28
469.72	2422.75
469.92	2449.37
470.13	2322.40
470.33	2228.19
470.53	2379.74
470.73	2738.13
470.94	2983.89
471.14	3143.63
471.34	3493.83
471.54	3405.77
471.75	3082.19
471.95	2865.11
472.15	2674.65
472.36	2830.29
472.56	2633.69
472.76	2725.85
472.96	2629.59
473.17	2594.78
473.37	2514.91
473.57	2435.03
473.77	2351.07
473.98	2359.26
474.18	2123.74
474.38	2543.58
474.58	2183.13
474.79	2260.96
474.99	2365.40
475.19	2408.41
475.39	2154.46
475.60	2265.05
475.80	2285.53
476.00	2402.27
476.20	2279.39
476.41	2213.85
476.61	2377.69
476.81	2377.69
477.01	2201.57
477.21	2441.18
477.42	2340.83
477.62	2195.42
477.82	2340.83
478.02	2273.25
478.23	2332.64
478.43	2160.61
478.63	2277.34
478.83	2250.72
479.03	2236.38
479.24	2408.41
479.44	2486.23
479.64	2179.04
479.84	2203.61
480.04	2189.28
480.25	2392.03
480.45	2168.80
480.65	2183.13
480.85	2453.47
481.06	2211.81
481.26	2330.59
481.46	2273.25
481.66	2265.05
481.86	2228.19
482.06	2342.88
482.27	2258.91
482.47	2228.19
482.67	2322.40
482.87	2179.04
483.07	2357.21
483.28	2273.25
483.48	2101.22
483.68	2238.43
483.88	2191.33
484.08	2070.50
484.29	2152.42
484.49	2246.62
484.69	2160.61
484.89	2371.55
485.09	2338.78
485.29	2293.72
485.50	2193.37
485.70	2269.15
485.90	2441.18
486.10	2289.63
486.30	2279.39
486.50	2365.40
486.71	2301.92
486.91	2314.20
487.11	2346.97
487.31	2154.46
487.51	2285.53
487.71	2187.23
487.91	2183.13
488.12	2201.57
488.32	2027.49
488.52	2168.80
488.72	2029.54
488.92	2336.73
489.12	2254.81
489.32	2406.36
489.53	2306.01
489.73	2150.37
489.93	2267.10
490.13	2166.75
490.33	2113.50
490.53	2277.34
490.73	2322.40
490.94	2111.46
491.14	2293.72
491.34	2308.06
491.54	2641.88
491.74	3203.02
491.94	3819.46
492.14	4003.78
492.34	3993.54
492.54	3844.04
492.75	3246.03
492.95	3153.87
493.15	3028.95
493.35	2889.68
493.55	2805.72
493.75	2742.23
493.95	2818.00
494.15	2574.30
494.35	2371.55
494.56	2383.84
494.76	2316.25
494.96	2342.88
495.16	2279.39
495.36	2228.19
495.56	2306.01
495.76	2138.08
495.96	2211.81
496.16	2185.18
496.36	2443.23
496.56	2244.57
496.77	2269.15
496.97	2273.25
497.17	2416.60
497.37	2097.12
497.57	2375.64
497.77	2287.58
497.97	2183.13
498.17	2320.35
498.37	2181.09
498.57	2398.17
498.77	2228.19
498.97	2351.07
499.17	2576.34
499.38	2230.24
499.58	2387.93
499.78	2404.32
499.98	2404.32
500.18	2260.96
500.38	2267.10
500.58	2461.66
500.78	2875.35
500.98	5097.39
501.18	7118.74
501.38	8884.09
501.58	9633.64
501.78	9449.33
501.98	7628.68
502.18	6391.71
502.38	5447.60
502.58	5152.69
502.78	4526.01
502.98	4384.70
503.18	4202.43
503.38	3887.04
503.59	3375.05
503.79	3160.02
503.99	2992.08
504.19	2883.54
504.39	2793.43
504.59	2832.34
504.79	2834.39
504.99	2809.81
505.19	2588.63
505.39	2512.86
505.59	2676.70
505.79	2572.25
505.99	2404.32
506.19	2344.92
506.39	2492.38
506.59	2258.91
506.79	2267.10
506.99	2351.07
507.19	2297.82
507.39	2334.68
507.59	2183.13
507.79	2129.89
507.99	2224.09
508.19	2291.68
508.39	2232.29
508.59	2349.02
508.79	2375.64
508.99	2506.71
509.19	2174.94
509.39	2400.22
509.59	2220.00
509.79	2183.13
509.99	2291.68
510.19	2398.17
510.39	2281.44
510.59	2258.91
510.79	2211.81
510.99	2152.42
511.19	2209.76
511.39	2394.08
511.59	2387.93
511.79	2316.25
511.99	2246.62
512.19	2469.85
512.38	2236.38
512.58	2179.04
512.78	2254.81
512.98	2389.98
513.18	2432.99
513.38	2054.11
513.58	2367.45
513.78	2220.00
513.98	2244.57
514.18	2158.56
514.38	2295.77
514.58	2222.05
514.78	2244.57
514.98	2267.10
515.18	2287.58
515.38	2215.90
515.58	2457.56
515.78	2228.19
515.98	2252.77
516.18	2328.54
516.38	2336.73
516.57	2228.19
516.77	2125.79
516.97	2385.88
517.17	2201.57
517.37	2103.26
517.57	2322.40
517.77	2260.96
517.97	2138.08
518.17	2293.72
518.37	2179.04
518.57	2265.05
518.77	2226.14
518.97	2308.06
519.16	2258.91
519.36	2392.03
519.56	2265.05
519.76	2269.15
519.96	2228.19
520.16	2408.41
520.36	2242.53
520.56	2432.99
520.76	2228.19
520.96	2168.80
521.16	2369.50
521.35	2353.12
521.55	2359.26
521.75	2312.16
521.95	2191.33
522.15	2277.34
522.35	2095.07
522.55	2203.61
522.75	2383.84
522.95	2105.31
523.14	2224.09
523.34	2209.76
523.54	2215.90
523.74	2281.44
523.94	2279.39
524.14	2146.27
524.34	2340.83
524.54	2389.98
524.73	2172.89
524.93	2375.64
525.13	2236.38
525.33	2160.61
525.53	2418.65
525.73	2252.77
525.93	2211.81
526.13	2220.00
526.32	2195.42
526.52	2381.79
526.72	2314.20
526.92	2236.38
527.12	2277.34
527.32	2117.60
527.52	2377.69
527.71	2324.44
527.91	2248.67
528.11	2203.61
528.31	2230.24
528.51	2176.99
528.71	2256.86
528.90	2367.45
529.10	2289.63
529.30	2349.02
529.50	2117.60
529.70	2258.91
529.90	2203.61
530.09	2271.20
530.29	2113.50
530.49	2168.80
530.69	2543.58
530.89	2287.58
531.09	2351.07
531.28	2269.15
531.48	2439.13
531.68	2267.10
531.88	2244.57
532.08	2408.41
532.28	2230.24
532.47	2340.83
532.67	2320.35
532.87	2373.60
533.07	2226.14
533.27	2363.36
533.46	2312.16
533.66	2301.92
533.86	2363.36
534.06	2334.68
534.26	2277.34
534.45	2291.68
534.65	2416.60
534.85	2263.01
535.05	2250.72
535.25	2437.08
535.44	2123.74
535.64	2301.92
535.84	2195.42
536.04	2203.61
536.24	2248.67
536.43	2183.13
536.63	2277.34
536.83	2252.77
537.03	2349.02
537.22	2129.89
537.42	2111.46
537.62	2240.48
537.82	2242.53
538.02	2447.32
538.21	2400.22
538.41	2562.01
538.61	2412.51
538.81	2281.44
539.00	2351.07
539.20	2228.19
539.40	2209.76
539.60	2271.20
539.79	2344.92
539.99	2273.25
540.19	2095.07
540.39	2140.13
540.58	2303.96
540.78	2301.92
540.98	2269.15
541.18	2369.50
541.37	2310.11
541.57	2289.63
541.77	2263.01
541.97	2183.13
542.16	2129.89
542.36	2170.85
542.56	2176.99
542.76	2396.12
542.95	2306.01
543.15	2355.16
543.35	2355.16
543.54	2220.00
543.74	2199.52
543.94	2351.07
544.14	2232.29
544.33	2297.82
544.53	2211.81
544.73	2203.61
544.93	2236.38
545.12	2224.09
545.32	2299.87
545.52	2183.13
545.71	2080.74
545.91	2152.42
546.11	2168.80
546.30	2179.04
546.50	2310.11
546.70	2334.68
546.90	2232.29
547.09	2076.64
547.29	2267.10
547.49	2203.61
547.68	2226.14
547.88	2142.18
548.08	2361.31
548.27	2760.66
548.47	2181.09
548.67	2207.71
548.87	2342.88
549.06	2240.48
549.26	2310.11
549.46	2332.64
549.65	2191.33
549.85	2299.87
550.05	2291.68
550.24	2088.93
550.44	2252.77
550.64	2336.73
550.83	2342.88
551.03	2379.74
551.23	2437.08
551.42	2273.25
551.62	2203.61
551.82	2265.05
552.01	2224.09
552.21	2367.45
552.41	2398.17
552.60	2392.03
552.80	2359.26
553.00	2160.61
553.19	2285.53
553.39	2449.37
553.59	2179.04
553.78	2267.10
553.98	2322.40
554.17	2176.99
554.37	2318.30
554.57	2283.49
554.76	2185.18
554.96	2252.77
555.16	2220.00
555.35	2310.11
555.55	2299.87
555.75	2232.29
555.94	2355.16
556.14	2121.70
556.33	2328.54
556.53	2322.40
556.73	2256.86
556.92	2379.74
557.12	2363.36
557.32	2551.77
557.51	2455.51
557.71	2353.12
557.90	2363.36
558.10	2312.16
558.30	2236.38
558.49	2281.44
558.69	2269.15
558.88	2346.97
559.08	2254.81
559.28	2220.00
559.47	2228.19
559.67	2351.07
559.86	2473.95
560.06	2193.37
560.26	2236.38
560.45	2396.12
560.65	2256.86
560.84	2357.21
561.04	2174.94
561.24	2371.55
561.43	2220.00
561.63	2351.07
561.82	2322.40
562.02	2326.49
562.22	2187.23
562.41	2242.53
562.61	2209.76
562.80	2142.18
563.00	2473.95
563.19	2273.25
563.39	2277.34
563.59	2394.08
563.78	2246.62
563.98	2041.82
564.17	2222.05
564.37	2117.60
564.56	2252.77
564.76	2144.22
564.96	2324.44
565.15	2236.38
565.35	2580.44
565.54	2189.28
565.74	2349.02
565.93	2365.40
566.13	2220.00
566.32	2301.92
566.52	2330.59
566.71	2326.49
566.91	2283.49
567.11	2357.21
567.30	2234.33
567.50	2371.55
567.69	2265.05
567.89	2195.42
568.08	2211.81
568.28	2334.68
568.47	2205.66
568.67	2283.49
568.86	2244.57
569.06	2367.45
569.25	2189.28
569.45	2176.99
569.64	2197.47
569.84	2256.86
570.04	2365.40
570.23	2197.47
570.43	2254.81
570.62	2353.12
570.82	2379.74
571.01	2158.56
571.21	2209.76
571.40	2230.24
571.60	2367.45
571.79	2379.74
571.99	2316.25
572.18	2187.23
572.38	2236.38
572.57	2260.96
572.77	2275.29
572.96	2490.33
573.16	2308.06
573.35	2224.09
573.55	2383.84
573.74	2217.95
573.94	2273.25
574.13	2285.53
574.33	2342.88
574.52	2398.17
574.71	2289.63
574.91	2281.44
575.10	2170.85
575.30	2289.63
575.49	2224.09
575.69	2215.90
575.88	2295.77
576.08	2242.53
576.27	2447.32
576.47	2299.87
576.66	2461.66
576.86	2463.71
577.05	2332.64
577.25	2375.64
577.44	2531.29
577.64	2234.33
577.83	2459.61
578.02	2277.34
578.22	2334.68
578.41	2455.51
578.61	2205.66
578.80	2078.69
579.00	2291.68
579.19	2246.62
579.39	2318.30
579.58	2303.96
579.77	2260.96
579.97	2492.38
580.16	2441.18
580.36	2379.74
580.55	2398.17
580.75	2375.64
580.94	2275.29
581.13	2406.36
581.33	2512.86
581.52	2252.77
581.72	2500.57
581.91	2379.74
582.11	2277.34
582.30	2338.78
582.49	2303.96
582.69	2400.22
582.88	2346.97
583.08	2310.11
583.27	2404.32
583.47	2306.01
583.66	2236.38
583.85	2185.18
584.05	2277.34
584.24	2346.97
584.44	2404.32
584.63	2430.94
584.82	2430.94
585.02	2553.82
585.21	2463.71
585.41	2396.12
585.60	2326.49
585.79	2531.29
585.99	2469.85
586.18	2453.47
586.37	2979.79
586.57	4706.23
586.76	13715.25
586.96	33113.61
587.15	46626.10
587.34	55858.35
587.54	61068.38
587.73	56038.57
587.93	39337.38
588.12	30082.61
588.31	23926.42
588.51	20901.57
588.70	19347.16
588.89	17446.65
589.09	15259.42
589.28	12939.07
589.47	10551.14
589.67	8163.20
589.86	6463.39
590.06	4782.01
590.25	3735.50
590.44	3155.92
590.64	2850.77
590.83	2564.06
591.02	2564.06
591.22	2453.47
591.41	2392.03
591.60	2330.59
591.80	2596.82
591.99	2228.19
592.18	2193.37
592.38	2400.22
592.57	2324.44
592.76	2263.01
592.96	2349.02
593.15	2285.53
593.34	2394.08
593.54	2308.06
593.73	2303.96
593.92	2377.69
594.12	2332.64
594.31	2371.55
594.50	2449.37
594.70	2346.97
594.89	2570.20
595.08	2217.95
595.28	2357.21
595.47	2564.06
595.66	2387.93
595.86	2228.19
596.05	2267.10
596.24	2176.99
596.43	2453.47
596.63	2408.41
596.82	2344.92
597.01	2310.11
597.21	2488.28
597.40	2353.12
597.59	2303.96
597.79	2232.29
597.98	2375.64
598.17	2273.25
598.36	2322.40
598.56	2324.44
598.75	2254.81
598.94	2310.11
599.14	2236.38
599.33	2273.25
599.52	2383.84
599.71	2328.54
599.91	2373.60
600.10	2330.59
600.29	2306.01
600.48	2349.02
600.68	2289.63
600.87	2269.15
601.06	2252.77
601.26	2281.44
601.45	2308.06
601.64	2260.96
601.83	2367.45
602.03	2220.00
602.22	2199.52
602.41	2416.60
602.60	2506.71
602.80	2371.55
602.99	2346.97
603.18	2201.57
603.37	2398.17
603.57	2277.34
603.76	2318.30
603.95	2408.41
604.14	2248.67
604.34	2183.13
604.53	2260.96
604.72	2318.30
604.91	2306.01
605.10	2361.31
605.30	2133.98
605.49	2545.63
605.68	2392.03
605.87	2340.83
606.07	2185.18
606.26	2254.81
606.45	2308.06
606.64	2228.19
606.84	2291.68
607.03	2289.63
607.22	2330.59
607.41	2263.01
607.60	2310.11
607.80	2416.60
607.99	2349.02
608.18	2232.29
608.37	2285.53
608.56	2217.95
608.76	2435.03
608.95	2422.75
609.14	2342.88
609.33	2367.45
609.52	2447.32
609.72	2324.44
609.91	2443.23
610.10	2338.78
610.29	2430.94
610.48	2330.59
610.68	2338.78
610.87	2248.67
611.06	2383.84
611.25	2263.01
611.44	2371.55
611.63	2203.61
611.83	2387.93
612.02	2095.07
612.21	2475.99
612.40	2119.65
612.59	2211.81
612.79	2125.79
612.98	2273.25
613.17	2439.13
613.36	2303.96
613.55	2461.66
613.74	2340.83
613.93	2392.03
614.13	2449.37
614.32	2533.34
614.51	2498.52
614.70	2310.11
614.89	2334.68
615.08	2371.55
615.28	2758.61
615.47	2220.00
615.66	2412.51
615.85	2408.41
616.04	2455.51
616.23	2353.12
616.42	2365.40
616.62	2363.36
616.81	2242.53
617.00	2277.34
617.19	2381.79
617.38	2224.09
617.57	2318.30
617.76	2416.60
617.95	2349.02
618.15	2371.55
618.34	2492.38
618.53	2105.31
618.72	2369.50
618.91	2400.22
619.10	2398.17
619.29	2293.72
619.48	2326.49
619.68	2095.07
619.87	2258.91
620.06	2133.98
620.25	2367.45
620.44	2283.49
620.63	2199.52
620.82	2357.21
621.01	2320.35
621.20	2226.14
621.39	2357.21
621.59	2357.21
621.78	2279.39
621.97	2222.05
622.16	2265.05
622.35	2301.92
622.54	2334.68
622.73	2346.97
622.92	2146.27
623.11	2338.78
623.30	2240.48
623.49	2260.96
623.68	2211.81
623.88	2408.41
624.07	2263.01
624.26	2220.00
624.45	2310.11
624.64	2283.49
624.83	2258.91
625.02	2273.25
625.21	2197.47
625.40	2326.49
625.59	2389.98
625.78	2334.68
625.97	2385.88
626.16	2383.84
626.35	2422.75
626.54	2303.96
626.74	2432.99
626.93	2234.33
627.12	2303.96
627.31	2367.45
627.50	2285.53
627.69	2392.03
627.88	2187.23
628.07	2316.25
628.26	2228.19
628.45	2156.51
628.64	2164.70
628.83	2234.33
629.02	2154.46
629.21	2306.01
629.40	2287.58
629.59	2263.01
629.78	2220.00
629.97	2281.44
630.16	2293.72
630.35	2217.95
630.54	2285.53
630.73	2260.96
630.92	2283.49
631.11	2236.38
631.30	2244.57
631.49	2404.32
631.68	2248.67
631.87	2291.68
632.06	2211.81
632.25	2557.91
632.44	2299.87
632.63	2312.16
632.82	2355.16
633.01	2195.42
633.20	2373.60
633.39	2277.34
633.58	2201.57
633.77	2258.91
633.96	2441.18
634.15	2447.32
634.34	2355.16
634.53	2334.68
634.72	2222.05
634.91	2152.42
635.10	2209.76
635.29	2338.78
635.48	2308.06
635.67	2174.94
635.86	2211.81
636.05	2359.26
636.24	2267.10
636.43	2191.33
636.62	2244.57
636.81	1994.72
637.00	2275.29
637.19	2318.30
637.38	2244.57
637.57	2236.38
637.76	2303.96
637.95	2408.41
638.14	2234.33
638.33	2379.74
638.52	2330.59
638.71	2252.77
638.89	2195.42
639.08	2553.82
639.27	2467.80
639.46	2525.15
639.65	2889.68
639.84	2867.16
640.03	2932.69
640.22	2897.88
640.41	2930.64
640.60	2537.43
640.79	2555.86
640.98	2457.56
641.17	2529.24
641.36	2531.29
641.55	2441.18
641.74	2267.10
641.92	2297.82
642.11	2211.81
642.30	2310.11
642.49	2197.47
642.68	2209.76
642.87	2375.64
643.06	2357.21
643.25	2193.37
643.44	2217.95
643.63	2252.77
643.82	2383.84
644.00	2209.76
644.19	2248.67
644.38	2156.51
644.57	2330.59
644.76	2330.59
644.95	2222.05
645.14	2275.29
645.33	2322.40
645.52	2240.48
645.71	2131.94
645.89	2242.53
646.08	2246.62
646.27	2283.49
646.46	2465.75
646.65	2131.94
646.84	2250.72
647.03	2174.94
647.22	2312.16
647.40	2260.96
647.59	2346.97
647.78	2086.88
647.97	2195.42
648.16	2207.71
648.35	2459.61
648.54	2355.16
648.73	2158.56
648.91	2342.88
649.10	2301.92
649.29	2133.98
649.48	2240.48
649.67	2248.67
649.86	2308.06
650.05	2336.73
650.23	2465.75
650.42	2299.87
650.61	2506.71
650.80	2424.80
650.99	2521.05
651.18	2426.84
651.36	2336.73
651.55	2279.39
651.74	2432.99
651.93	2252.77
652.12	2201.57
652.31	2236.38
652.49	2306.01
652.68	2254.81
652.87	2426.84
653.06	2318.30
653.25	2400.22
653.44	2301.92
653.62	2351.07
653.81	2320.35
654.00	2267.10
654.19	2336.73
654.38	2562.01
654.56	2332.64
654.75	2150.37
654.94	2353.12
655.13	2351.07
655.32	2191.33
655.51	2373.60
655.69	2269.15
655.88	2318.30
656.07	2117.60
656.26	2316.25
656.45	2129.89
656.63	2285.53
656.82	2203.61
657.01	2369.50
657.20	2199.52
657.38	2459.61
657.57	2312.16
657.76	2088.93
657.95	2379.74
658.14	2183.13
658.32	2265.05
658.51	2162.66
658.70	2308.06
658.89	2295.77
659.08	2220.00
659.26	2471.90
659.45	2242.53
659.64	2389.98
659.83	2228.19
660.01	2594.78
660.20	2330.59
660.39	2486.23
660.58	2162.66
660.76	2269.15
660.95	2158.56
661.14	2316.25
661.33	2224.09
661.51	2217.95
661.70	2244.57
661.89	2326.49
662.08	2191.33
662.26	2179.04
662.45	2117.60
662.64	2457.56
662.83	2297.82
663.01	2164.70
663.20	2217.95
663.39	2402.27
663.58	2164.70
663.76	2162.66
663.95	2306.01
664.14	2127.84
664.32	2234.33
664.51	2176.99
664.70	2199.52
664.89	2308.06
665.07	2158.56
665.26	2400.22
665.45	2142.18
665.64	2355.16
665.82	2222.05
666.01	2332.64
666.20	2199.52
666.38	2375.64
666.57	2412.51
666.76	3440.59
666.95	8122.24
667.13	16170.76
667.32	21255.87
667.51	25202.30
667.69	26670.70
667.88	24149.65
668.07	17430.26
668.25	13831.98
668.44	11517.78
668.63	9873.26
668.81	8779.64
669.00	7708.55
669.19	6897.56
669.38	5980.07
669.56	5169.07
669.75	4421.56
669.94	3608.52
670.12	3166.16
670.31	2846.68
670.50	2590.68
670.68	2572.25
670.87	2359.26
671.06	2267.10
671.24	2303.96
671.43	2494.43
671.62	2375.64
671.80	2281.44
671.99	2389.98
672.18	2193.37
672.36	2342.88
672.55	2392.03
672.74	2244.57
672.92	2228.19
673.11	2308.06
673.29	2168.80
673.48	2281.44
673.67	2279.39
673.85	2342.88
674.04	2273.25
674.23	2340.83
674.41	2447.32
674.60	2111.46
674.79	2068.45
674.97	2217.95
675.16	2295.77
675.34	2367.45
675.53	2207.71
675.72	2260.96
675.90	2439.13
676.09	2201.57
676.28	2271.20
676.46	2058.21
676.65	2289.63
676.83	2160.61
677.02	2215.90
677.21	2265.05
677.39	2265.05
677.58	2226.14
677.77	2193.37
677.95	2201.57
678.14	2238.43
678.32	2238.43
678.51	2242.53
678.70	2432.99
678.88	2260.96
679.07	2326.49
679.25	2220.00
679.44	2191.33
679.63	2140.13
679.81	2318.30
680.00	2346.97
680.18	2244.57
680.37	2381.79
680.55	2242.53
680.74	2146.27
680.93	2047.97
681.11	2287.58
681.30	2232.29
681.48	2269.15
681.67	2209.76
681.85	2238.43
682.04	2232.29
682.23	2301.92
682.41	2293.72
682.60	2220.00
682.78	2224.09
682.97	2170.85
683.15	2265.05
683.34	2275.29
683.53	2396.12
683.71	2113.50
683.90	2412.51
684.08	2457.56
684.27	2224.09
684.45	2269.15
684.64	2422.75
684.82	2238.43
685.01	2332.64
685.19	2222.05
685.38	2414.56
685.57	2260.96
685.75	2121.70
685.94	2179.04
686.12	2185.18
686.31	2244.57
686.49	2445.27
686.68	2101.22
686.86	2359.26
687.05	2326.49
687.23	2404.32
687.42	2213.85
687.60	2154.46
687.79	2326.49
687.97	2412.51
688.16	2365.40
688.34	2383.84
688.53	2105.31
688.71	2281.44
688.90	2424.80
689.08	2170.85
689.27	2113.50
689.45	2269.15
689.64	2373.60
689.82	2176.99
690.01	2267.10
690.19	2238.43
690.38	2236.38
690.56	2424.80
690.75	2170.85
690.93	2295.77
691.12	2228.19
691.30	2240.48
691.49	2256.86
691.67	2353.12
691.86	2441.18
692.04	2187.23
692.23	2275.29
692.41	2269.15
692.60	2551.77
692.78	2334.68
692.97	2383.84
693.15	2359.26
693.34	2430.94
693.52	2453.47
693.71	2226.14
693.89	2191.33
694.08	2111.46
694.26	2342.88
694.44	2334.68
694.63	2303.96
694.81	2086.88
695.00	2187.23
695.18	2297.82
695.37	2453.47
695.55	2226.14
695.74	2293.72
695.92	2226.14
696.10	2369.50
696.29	2162.66
696.47	2240.48
696.66	2142.18
696.84	2158.56
697.03	2246.62
697.21	2471.90
697.40	3370.96
697.58	2340.83
697.76	2160.61
697.95	2152.42
698.13	2142.18
698.32	2168.80
698.50	2291.68
698.68	2238.43
698.87	2328.54
699.05	2344.92
699.24	2207.71
699.42	2183.13
699.61	2318.30
699.79	2265.05
699.97	2236.38
700.16	2080.74
700.34	2203.61
700.53	2248.67
700.71	2383.84
700.89	2326.49
701.08	2058.21
701.26	2220.00
701.45	2842.58
701.63	2140.13
701.81	2195.42
702.00	2179.04
702.18	2234.33
702.37	2226.14
702.55	2598.87
702.73	2418.65
702.92	2357.21
703.10	2471.90
703.28	2473.95
703.47	2334.68
703.65	2408.41
703.84	2449.37
704.02	2283.49
704.20	2471.90
704.39	2260.96
704.57	2299.87
704.75	2392.03
704.94	2373.60
705.12	2265.05
705.30	2613.21
705.49	4485.05
705.67	10289.00
705.86	18210.54
706.04	21982.90
706.22	25161.34
706.41	26185.33
706.59	22095.53
706.77	15482.64
706.96	13133.62
707.14	11599.70
707.32	9883.50
707.51	8828.79
707.69	7389.07
707.87	5750.70
708.06	4808.63
708.24	3944.39
708.42	3211.22
708.61	3041.23
708.79	2502.62
708.97	2428.89
709.16	2439.13
709.34	2353.12
709.52	2236.38
709.71	2271.20
709.89	2283.49
710.07	2189.28
710.26	2312.16
710.44	2240.48
710.62	2351.07
710.80	2250.72
710.99	2353.12
711.17	2349.02
711.35	2215.90
711.54	2248.67
711.72	2316.25
711.90	2346.97
712.09	2320.35
712.27	2211.81
712.45	2381.79
712.63	2191.33
712.82	2185.18
713.00	2269.15
713.18	2422.75
713.37	2289.63
713.55	2250.72
713.73	2301.92
713.91	2310.11
714.10	2162.66
714.28	2265.05
714.46	2334.68
714.65	2349.02
714.83	2353.12
715.01	2281.44
715.19	2310.11
715.38	2107.36
715.56	2310.11
715.74	2150.37
715.92	2220.00
716.11	2406.36
716.29	2160.61
716.47	2291.68
716.65	2234.33
716.84	2133.98
717.02	2322.40
717.20	2090.98
717.38	2211.81
717.57	2318.30
717.75	2303.96
717.93	2291.68
718.11	2265.05
718.30	2105.31
718.48	2279.39
718.66	2330.59
718.84	2260.96
719.03	2277.34
719.21	2197.47
719.39	2514.91
719.57	2293.72
719.75	2320.35
719.94	2082.78
720.12	2224.09
720.30	2244.57
720.48	2410.46
720.67	2146.27
720.85	2215.90
721.03	2195.42
721.21	2117.60
721.39	2357.21
721.58	2334.68
721.76	2277.34
721.94	2297.82
722.12	2238.43
722.30	2332.64
722.49	2187.23
722.67	2295.77
722.85	2283.49
723.03	2088.93
723.21	2162.66
723.40	2334.68
723.58	2363.36
723.76	2318.30
723.94	2383.84
724.12	2342.88
724.30	2404.32
724.49	2441.18
724.67	2252.77
724.85	2332.64
725.03	2146.27
725.21	2426.84
725.40	2387.93
725.58	2250.72
725.76	2349.02
725.94	2275.29
726.12	2234.33
726.30	2303.96
726.49	2240.48
726.67	2277.34
726.85	2326.49
727.03	2492.38
727.21	3592.14
727.39	5029.81
727.57	5865.38
727.76	6520.73
727.94	6881.18
728.12	6469.53
728.30	5300.14
728.48	4464.57
728.66	4206.53
728.84	3766.21
729.03	3225.55
729.21	3080.14
729.39	2715.61
729.57	2404.32
729.75	2396.12
729.93	2320.35
730.11	2222.05
730.30	2248.67
730.48	2220.00
730.66	2377.69
730.84	2432.99
731.02	2285.53
731.20	2217.95
731.38	2316.25
731.56	2213.85
731.74	2113.50
731.93	2279.39
732.11	2246.62
732.29	2168.80
732.47	2318.30
732.65	2256.86
732.83	2381.79
733.01	2349.02
733.19	2152.42
733.37	2367.45
733.56	2285.53
733.74	2172.89
733.92	2392.03
734.10	2248.67
734.28	2250.72
734.46	2080.74
734.64	2183.13
734.82	2256.86
735.00	2222.05
735.18	2185.18
735.36	2213.85
735.54	2279.39
735.73	2162.66
735.91	2314.20
736.09	2346.97
736.27	2203.61
736.45	2308.06
736.63	2136.03
736.81	2215.90
736.99	2449.37
737.17	2400.22
737.35	2179.04
737.53	2293.72
737.71	2207.71
737.89	2408.41
738.07	2154.46
738.25	2220.00
738.43	2097.12
738.61	2201.57
738.80	2076.64
738.98	2148.32
739.16	2170.85
739.34	2148.32
739.52	2461.66
739.70	2244.57
739.88	2301.92
740.06	2326.49
740.24	2078.69
740.42	2363.36
740.60	2009.06
740.78	2256.86
740.96	2101.22
741.14	2195.42
741.32	2211.81
741.50	2129.89
741.68	2441.18
741.86	2349.02
742.04	2019.30
742.22	2164.70
742.40	2162.66
742.58	2238.43
742.76	2164.70
742.94	2332.64
743.12	2062.30
743.30	2263.01
743.48	2271.20
743.66	2242.53
743.84	2269.15
744.02	2220.00
744.20	2303.96
744.38	2154.46
744.56	2203.61
744.74	2502.62
744.92	2334.68
745.10	2389.98
745.28	2349.02
745.46	2404.32
745.64	2205.66
745.82	2326.49
746.00	2197.47
746.18	2238.43
746.36	2179.04
746.54	2291.68
746.72	2293.72
746.90	2201.57
747.08	2353.12
747.26	2195.42
747.44	2318.30
747.62	2263.01
747.80	2256.86
747.98	2334.68
748.15	2224.09
748.33	2432.99
748.51	2285.53
748.69	2334.68
748.87	2220.00
749.05	2234.33
749.23	2250.72
749.41	2342.88
749.59	2285.53
749.77	2297.82
749.95	2201.57
750.13	2209.76
750.31	2359.26
750.49	2222.05
750.67	2322.40
750.85	2389.98
751.03	2256.86
751.20	2398.17
751.38	2240.48
751.56	2254.81
751.74	2228.19
751.92	2187.23
752.10	2107.36
752.28	2258.91
752.46	2140.13
752.64	2310.11
752.82	2285.53
753.00	2408.41
753.18	2236.38
753.35	2209.76
753.53	2258.91
753.71	2226.14
753.89	2332.64
754.07	2328.54
754.25	2342.88
754.43	2267.10
754.61	2103.26
754.79	2349.02
754.97	2273.25
755.14	2269.15
755.32	2084.83
755.50	2168.80
755.68	2228.19
755.86	2142.18
756.04	2174.94
756.22	2080.74
756.40	2332.64
756.57	2414.56
756.75	2254.81
756.93	2353.12
757.11	2285.53
757.29	2150.37
757.47	2158.56
757.65	2105.31
757.82	1968.10
758.00	2197.47
758.18	2185.18
758.36	2152.42
758.54	2355.16
758.72	2158.56
758.90	2271.20
759.07	2310.11
759.25	2172.89
759.43	2240.48
759.61	2123.74
759.79	3080.14
759.97	2367.45
760.15	2117.60
760.32	2254.81
760.50	2238.43
760.68	2435.03
760.86	2129.89
761.04	2355.16
761.22	2342.88
761.39	2275.29
761.57	2303.96
761.75	2201.57
761.93	2260.96
762.11	2209.76
762.28	2209.76
762.46	2275.29
762.64	2320.35
762.82	2127.84
763.00	2236.38
763.18	2389.98
763.35	2164.70
763.53	2334.68
763.71	2275.29
763.89	2308.06
764.07	2238.43
764.24	2232.29
764.42	2367.45
764.60	2269.15
764.78	2279.39
764.96	2344.92
765.13	2326.49
765.31	2301.92
765.49	2373.60
765.67	2201.57
765.84	2201.57
766.02	2220.00
766.20	2080.74
766.38	2185.18
766.56	2252.77
766.73	2373.60
766.91	2152.42
767.09	2303.96
767.27	2293.72
767.44	2187.23
767.62	2275.29
767.80	2236.38
767.98	2162.66
768.15	2154.46
768.33	2324.44
768.51	2355.16
768.69	2357.21
768.87	2289.63
769.04	2281.44
769.22	2506.71
769.40	2443.23
769.58	2430.94
769.75	2250.72
769.93	2353.12
770.11	2203.61
770.28	2140.13
770.46	2392.03
770.64	2224.09
770.82	2203.61
770.99	2199.52
771.17	2336.73
771.35	2131.94
771.53	2236.38
771.70	2179.04
771.88	2263.01
772.06	2267.10
772.23	2152.42
772.41	2260.96
772.59	2156.51
772.77	2162.66
772.94	2201.57
773.12	2256.86
773.30	2142.18
773.47	2275.29
773.65	2156.51
773.83	2406.36
774.01	2213.85
774.18	2060.26
774.36	2291.68
774.54	2068.45
774.71	2254.81
774.89	2086.88
775.07	2133.98
775.24	2129.89
775.42	2156.51
775.60	2500.57
775.78	2174.94
775.95	2107.36
776.13	2080.74
776.31	2058.21
776.48	2332.64
776.66	2338.78
776.84	2183.13
777.01	2133.98
777.19	2230.24
777.37	2187.23
777.54	2236.38
777.72	2457.56
777.90	2291.68
778.07	2191.33
778.25	2553.82
778.43	2344.92
778.60	2281.44
778.78	2351.07
778.96	2363.36
779.13	2170.85
779.31	2353.12
779.49	2289.63
779.66	2326.49
779.84	2234.33
780.01	2246.62
780.19	2203.61
780.37	2379.74
780.54	2248.67
780.72	2117.60
780.90	2209.76
781.07	2185.18
781.25	2174.94
781.43	2308.06
781.60	2217.95
781.78	2424.80
781.95	2248.67
782.13	2222.05
782.31	2203.61
782.48	2088.93
782.66	2285.53
782.83	2365.40
783.01	2193.37
783.19	2357.21
783.36	2242.53
783.54	2133.98
783.72	2301.92
783.89	2168.80
784.07	2301.92
784.24	2340.83
784.42	2418.65
784.60	2310.11
784.77	2273.25
784.95	2074.59
785.12	2187.23
785.30	2244.57
785.47	2160.61
785.65	2213.85
785.83	2183.13
786.00	2119.65
786.18	2263.01
786.35	2117.60
786.53	2224.09
786.71	2297.82
786.88	2332.64
787.06	2250.72
787.23	2250.72
787.41	2088.93
787.58	2293.72
787.76	2189.28
787.94	2263.01
788.11	2217.95
788.29	2140.13
788.46	2185.18
788.64	2117.60
788.81	2314.20
788.99	2191.33
789.16	2234.33
789.34	2199.52
789.52	2127.84
789.69	2160.61
789.87	2136.03
790.04	2152.42
790.22	2263.01
790.39	2459.61
790.57	2121.70
790.74	2195.42
790.92	2396.12
791.09	2086.88
791.27	2209.76
791.44	2299.87
791.62	2242.53
791.79	2363.36
791.97	2217.95
792.15	2496.47
792.32	2258.91
792.50	2320.35
792.67	2400.22
792.85	2334.68
793.02	2281.44
793.20	2267.10
793.37	2152.42
793.55	2236.38
793.72	2179.04
793.90	2310.11
794.07	2099.17
794.25	2154.46
794.42	2174.94
794.60	2131.94
794.77	2277.34
794.95	2334.68
795.12	2310.11
795.30	2191.33
795.47	1994.72
795.65	2467.80
795.82	2357.21
796.00	2150.37
796.17	2228.19
796.34	2187.23
796.52	2226.14
796.69	2346.97
796.87	2351.07
797.04	2240.48
797.22	2326.49
797.39	2299.87
797.57	2297.82
797.74	2248.67
797.92	2340.83
798.09	2162.66
798.27	2232.29
798.44	2215.90
798.62	2152.42
798.79	2289.63
798.96	2308.06
799.14	2254.81
799.31	2492.38
799.49	2220.00
799.66	2281.44
799.84	2248.67
800.01	2150.37
800.19	2234.33
800.36	2099.17
800.53	2267.10
800.71	2379.74
800.88	2412.51
801.06	2176.99
801.23	2183.13
801.41	2195.42
801.58	2144.22
801.75	2150.37
801.93	2289.63
802.10	2326.49
802.28	2183.13
802.45	2189.28
802.63	2367.45
802.80	2332.64
802.97	2260.96
803.15	2220.00
803.32	2258.91
803.50	2043.87
803.67	2107.36
803.84	2166.75
804.02	2285.53
804.19	2236.38
804.37	2064.35
804.54	2179.04
804.71	2228.19
804.89	2228.19
805.06	2097.12
805.24	2150.37
805.41	2166.75
805.58	2185.18
805.76	2531.29
805.93	2283.49
806.10	2334.68
806.28	2371.55
806.45	2301.92
806.63	2293.72
806.80	2293.72
806.97	2265.05
807.15	2220.00
807.32	2154.46
807.49	2283.49
807.67	2158.56
807.84	2195.42
808.01	2056.16
808.19	2475.99
808.36	2514.91
808.54	2207.71
808.71	2232.29
808.88	2291.68
809.06	2342.88
809.23	2357.21
809.40	2185.18
809.58	2256.86
809.75	2306.01
809.92	2138.08
810.10	2392.03
810.27	2179.04
810.44	2303.96
810.62	2267.10
810.79	2232.29
810.96	2179.04
811.14	2234.33
811.31	2412.51
811.48	2275.29
811.66	2201.57
811.83	2351.07
812.00	2254.81
812.18	2195.42
812.35	2439.13
812.52	2248.67
812.69	2142.18
812.87	2191.33
813.04	2136.03
813.21	2242.53
813.39	2209.76
813.56	2140.13
813.73	2351.07
813.91	2103.26
814.08	2293.72
814.25	2291.68
814.42	2054.11
814.60	2211.81
814.77	2310.11
814.94	2185.18
815.12	2252.77
815.29	2396.12
815.46	2199.52
815.63	2209.76
815.81	2133.98
815.98	2234.33
816.15	2224.09
816.33	2215.90
816.50	2154.46
816.67	2220.00
816.84	2250.72
817.02	2275.29
817.19	2170.85
817.36	2267.10
817.53	2287.58
817.71	2220.00
817.88	2318.30
818.05	2224.09
818.22	2162.66
818.40	2418.65
818.57	2265.05
818.74	2230.24
818.91	2244.57
819.09	2328.54
819.26	2394.08
819.43	2191.33
819.60	2131.94
819.78	2283.49
819.95	2351.07
820.12	2220.00
820.29	2359.26
820.47	2396.12
820.64	2195.42
820.81	2154.46
820.98	2183.13
821.15	2230.24
821.33	2301.92
821.50	2074.59
821.67	2342.88
821.84	2248.67
822.02	2303.96
822.19	2422.75
822.36	2207.71
822.53	2230.24
822.70	2062.30
822.88	2168.80
823.05	2445.27
823.22	2193.37
823.39	2293.72
823.56	2240.48
823.74	2303.96
823.91	2121.70
824.08	2084.83
824.25	2162.66
824.42	2488.28
824.60	2127.84
824.77	2244.57
824.94	2277.34
825.11	2260.96
825.28	2117.60
825.45	2207.71
825.63	2250.72
825.80	2228.19
825.97	2301.92
826.14	2211.81
826.31	2043.87
826.48	2279.39
826.66	2080.74
826.83	2160.61
827.00	2146.27
827.17	2146.27
827.34	2236.38
827.51	2244.57
827.69	2246.62
827.86	2158.56
828.03	2326.49
828.20	2222.05
828.37	2127.84
828.54	2248.67
828.71	2203.61
828.89	2310.11
829.06	2297.82
829.23	2389.98
829.40	2144.22
829.57	2176.99
829.74	2396.12
829.91	2115.55
830.09	2217.95
830.26	2248.67
830.43	2379.74
830.60	2226.14
830.77	2242.53
830.94	2406.36
831.11	2287.58
831.28	2244.57
831.46	2281.44
831.63	2179.04
831.80	2281.44
831.97	2203.61
832.14	2168.80
832.31	2334.68
832.48	2281.44
832.65	2385.88
832.82	2277.34
832.99	2224.09
833.17	2123.74
833.34	2400.22
833.51	2220.00
833.68	2090.98
833.85	2326.49
834.02	2125.79
834.19	2152.42
834.36	2203.61
834.53	2318.30
834.70	2367.45
834.87	2277.34
835.04	2162.66
835.22	2162.66
835.39	2234.33
835.56	2105.31
835.73	2187.23
835.90	2322.40
836.07	2150.37
836.24	2297.82
836.41	2150.37
836.58	2187.23
836.75	2285.53
836.92	2185.18
837.09	2125.79
837.26	2355.16
837.43	2265.05
837.60	2217.95
837.77	2156.51
837.94	2306.01
838.12	2387.93
838.29	2220.00
838.46	2064.35
838.63	2138.08
838.80	2410.46
838.97	2236.38
839.14	2199.52
839.31	2334.68
839.48	2336.73
839.65	2199.52
839.82	2211.81
839.99	2291.68
840.16	2297.82
840.33	2199.52
840.50	2381.79
840.67	2199.52
840.84	2074.59
841.01	2109.41
841.18	2142.18
841.35	2209.76
841.52	2211.81
841.69	2408.41
841.86	2248.67
842.03	2195.42
842.20	2332.64
842.37	2201.57
842.54	2176.99
842.71	2228.19
842.88	2115.55
843.05	2246.62
843.22	2209.76
843.39	2359.26
843.56	2156.51
843.73	2263.01
843.90	2187.23
844.07	2269.15
844.24	2260.96
844.41	2267.10
844.58	2234.33
844.75	2224.09
844.92	2353.12
845.09	2199.52
845.26	2170.85
845.43	2217.95
845.60	2297.82
845.77	2324.44
845.94	2197.47
846.10	2408.41
846.27	2146.27
846.44	2133.98
846.61	2121.70
846.78	2246.62
846.95	2295.77
847.12	2176.99
847.29	2185.18
847.46	2138.08
847.63	2336.73
847.80	2142.18
847.97	2174.94
848.14	2502.62
848.31	2211.81
848.48	2105.31
848.65	2289.63
848.82	2125.79
848.98	2508.76
849.15	2295.77
849.32	2318.30
849.49	2322.40
849.66	2254.81
849.83	2160.61
850.00	2162.66
850.17	2326.49
850.34	2224.09
850.51	2111.46
850.68	2242.53
850.85	2453.47
851.01	2267.10
851.18	2187.23
851.35	2138.08
851.52	2226.14
851.69	2326.49
851.86	2138.08
852.03	2154.46
852.20	2215.90
852.37	2215.90
852.53	2133.98
852.70	2160.61
852.87	2281.44
853.04	2283.49
853.21	2240.48
853.38	2336.73
853.55	2402.27
853.72	2359.26
853.89	2113.50
854.05	2138.08
854.22	2201.57
854.39	2195.42
854.56	2236.38
854.73	2228.19
854.90	2176.99
855.07	2254.81
855.23	2265.05
855.40	2193.37
855.57	2230.24
855.74	2064.35
855.91	2371.55
856.08	2179.04
856.25	2187.23
856.41	2162.66
856.58	2242.53
856.75	2199.52
856.92	2142.18
857.09	2330.59
857.26	2045.92
857.42	2232.29
857.59	2289.63
857.76	2224.09
857.93	2263.01
858.10	2265.05
858.27	2113.50
858.43	2316.25
858.60	2146.27
858.77	2084.83
858.94	2191.33
859.11	2363.36
859.27	2166.75
859.44	2215.90
859.61	2357.21
859.78	2336.73
859.95	2232.29
860.12	2166.75
860.28	2527.19
860.45	2408.41
860.62	2109.41
860.79	2228.19
860.95	2224.09
861.12	2144.22
861.29	2136.03
861.46	2035.68
861.63	2269.15
861.79	2283.49
861.96	2211.81
862.13	2154.46
862.30	2367.45
862.47	2193.37
862.63	2064.35
862.80	2246.62
862.97	2322.40
863.14	2310.11
863.30	2195.42
863.47	2068.45
863.64	2416.60
863.81	2336.73
863.97	2201.57
864.14	2295.77
864.31	2211.81
864.48	2256.86
864.65	2125.79
864.81	2244.57
864.98	2322.40
865.15	2336.73
865.32	2314.20
865.48	2234.33
865.65	2404.32
865.82	2164.70
865.98	2248.67
866.15	2275.29
866.32	2277.34
866.49	2250.72
866.65	2301.92
866.82	2160.61
866.99	2242.53
867.16	2121.70
867.32	2244.57
867.49	2172.89
867.66	2242.53
867.83	2226.14
867.99	2027.49
868.16	2201.57
868.33	2236.38
868.49	2236.38
868.66	2201.57
868.83	2201.57
868.99	2244.57
869.16	2271.20
869.33	2318.30
869.50	2316.25
869.66	2211.81
869.83	2217.95
870.00	2129.89
870.16	2256.86
870.33	2234.33
870.50	2295.77
870.66	2211.81
870.83	2299.87
871.00	2281.44
871.17	2273.25
871.33	2252.77
871.50	2166.75
871.67	2144.22
871.83	2070.50
872.00	2336.73
872.17	2170.85
872.33	2351.07
872.50	2254.81
872.67	2220.00
872.83	2144.22
873.00	2291.68
873.17	2301.92
873.33	2170.85
873.50	2228.19
873.67	2252.77
873.83	2203.61
874.00	2136.03
874.16	2252.77
874.33	2179.04
874.50	2172.89
874.66	2258.91
874.83	2211.81
875.00	2293.72
875.16	2328.54
875.33	2271.20
875.50	2101.22
875.66	2203.61
875.83	2361.31
875.99	2252.77
876.16	2234.33
876.33	2179.04
876.49	2246.62
876.66	2193.37
876.83	2170.85
876.99	2105.31
877.16	2244.57
877.32	2215.90
877.49	2209.76
877.66	2308.06
877.82	2301.92
877.99	2260.96
878.15	2330.59
878.32	2199.52
878.49	2215.90
878.65	2174.94
878.82	2275.29
878.98	2189.28
879.15	2318.30
879.32	2287.58
879.48	2324.44
879.65	2166.75
879.81	2181.09
879.98	2084.83
880.15	2097.12
880.31	2357.21
880.48	2211.81
880.64	2234.33
880.81	2256.86
880.97	2398.17
881.14	2279.39
881.31	2158.56
881.47	2269.15
881.64	2230.24
881.80	2084.83
881.97	2326.49
882.13	2277.34
882.30	2140.13
882.47	2181.09
882.63	2107.36
882.80	2217.95
882.96	2226.14
883.13	2387.93
883.29	2195.42
883.46	2265.05
883.62	2527.19
883.79	2244.57
883.95	2258.91
884.12	2162.66
884.29	2361.31
884.45	2263.01
884.62	2283.49
884.78	2138.08
884.95	2422.75
885.11	2191.33
885.28	2269.15
885.44	2183.13
885.61	2287.58
885.77	2379.74
885.94	2277.34
886.10	2183.13
886.27	2195.42
886.43	2375.64
886.60	2369.50
886.76	2185.18
886.93	2146.27
887.09	2236.38
887.26	2080.74
887.42	2146.27
887.59	2340.83
887.75	2478.04
887.92	2215.90
888.08	2318.30
888.25	2369.50
888.41	2342.88
888.58	2240.48
888.74	2095.07
888.91	2211.81
>>>>>End Processed Spectral Data<<<<<
