SpectraSuite Data File
++++++++++++++++++++++++++++++++++++
Date: Thu May 05 13:21:30 CEST 2016
User: root
Dark Spectrum Present: No
Reference Spectrum Present: No
Number of Sampled Component Spectra: 1
Spectrometers: USB4C02835
Integration Time (usec): 100000 (USB4C02835)
Spectra Averaged: 1 (USB4C02835)
Boxcar Smoothing: 0 (USB4C02835)
Correct for Electrical Dark: No (USB4C02835)
Strobe/Lamp Enabled: No (USB4C02835)
Correct for Detector Non-linearity: No (USB4C02835)
Correct for Stray Light: No (USB4C02835)
Number of Pixels in Processed Spectrum: 3648
>>>>>Begin Processed Spectral Data<<<<<
177.47	1781.73
177.69	1781.73
177.91	1781.73
178.13	1740.77
178.36	1843.17
178.58	2088.93
178.80	2310.11
179.02	2152.42
179.24	2131.94
179.46	2129.89
179.68	2252.77
179.90	2187.23
180.13	2308.06
180.35	2093.02
180.57	2127.84
180.79	2318.30
181.01	2289.63
181.23	2187.23
181.45	2244.57
181.67	2344.92
181.90	2293.72
182.12	2170.85
182.34	2029.54
182.56	2314.20
182.78	2332.64
183.00	2168.80
183.22	2201.57
183.44	2107.36
183.66	2506.71
183.89	2271.20
184.11	2240.48
184.33	2299.87
184.55	2389.98
184.77	2211.81
184.99	2213.85
185.21	2211.81
185.43	2523.10
185.65	2228.19
185.87	2172.89
186.10	2402.27
186.32	2478.04
186.54	2164.70
186.76	2260.96
186.98	2349.02
187.20	2320.35
187.42	2217.95
187.64	2158.56
187.86	2310.11
188.08	2398.17
188.30	2084.83
188.52	2156.51
188.75	2383.84
188.97	2412.51
189.19	2095.07
189.41	2174.94
189.63	2375.64
189.85	2269.15
190.07	2109.41
190.29	2066.40
190.51	2389.98
190.73	2111.46
190.95	2293.72
191.17	2187.23
191.39	2097.12
191.61	2232.29
191.84	2086.88
192.06	2174.94
192.28	2131.94
192.50	2562.01
192.72	2277.34
192.94	2170.85
193.16	2334.68
193.38	2293.72
193.60	2109.41
193.82	2203.61
194.04	2406.36
194.26	2211.81
194.48	2195.42
194.70	2127.84
194.92	2160.61
195.14	2301.92
195.36	2080.74
195.58	2164.70
195.80	2244.57
196.02	2156.51
196.24	2168.80
196.46	2295.77
196.69	2172.89
196.91	2467.80
197.13	2185.18
197.35	2101.22
197.57	2455.51
197.79	2275.29
198.01	2226.14
198.23	2183.13
198.45	2289.63
198.67	2158.56
198.89	2148.32
199.11	2203.61
199.33	2203.61
199.55	2047.97
199.77	2193.37
199.99	2293.72
200.21	2234.33
200.43	2287.58
200.65	2133.98
200.87	2125.79
201.09	2195.42
201.31	2236.38
201.53	2234.33
201.75	2172.89
201.97	2316.25
202.19	2277.34
202.41	2152.42
202.63	2324.44
202.85	2275.29
203.07	2359.26
203.29	2162.66
203.51	2101.22
203.73	2117.60
203.95	2523.10
204.17	2150.37
204.39	2242.53
204.61	2220.00
204.83	2265.05
205.05	2301.92
205.27	2289.63
205.49	2480.09
205.71	2211.81
205.93	2041.82
206.15	2158.56
206.37	2240.48
206.59	2211.81
206.81	2013.15
207.03	2150.37
207.25	2168.80
207.47	2254.81
207.69	2179.04
207.91	2334.68
208.13	2449.37
208.34	2207.71
208.56	2113.50
208.78	2176.99
209.00	2176.99
209.22	2144.22
209.44	2170.85
209.66	2121.70
209.88	2215.90
210.10	2121.70
210.32	2064.35
210.54	2269.15
210.76	2267.10
210.98	2359.26
211.20	2056.16
211.42	2269.15
211.64	2406.36
211.86	2240.48
212.08	2252.77
212.30	2234.33
212.52	2252.77
212.74	2344.92
212.96	2199.52
213.17	2256.86
213.39	2375.64
213.61	2381.79
213.83	2154.46
214.05	2220.00
214.27	2420.70
214.49	2105.31
214.71	2121.70
214.93	2252.77
215.15	2267.10
215.37	2252.77
215.59	2093.02
215.81	2342.88
216.03	2373.60
216.24	2224.09
216.46	2140.13
216.68	2197.47
216.90	2349.02
217.12	2408.41
217.34	2215.90
217.56	2222.05
217.78	2332.64
218.00	2244.57
218.22	2207.71
218.44	2236.38
218.66	2275.29
218.87	2465.75
219.09	2174.94
219.31	2121.70
219.53	2351.07
219.75	2211.81
219.97	2240.48
220.19	2191.33
220.41	2281.44
220.63	2381.79
220.85	2207.71
221.06	2152.42
221.28	2349.02
221.50	2301.92
221.72	2187.23
221.94	2115.55
222.16	2336.73
222.38	2301.92
222.60	2195.42
222.82	2197.47
223.03	2381.79
223.25	2129.89
223.47	2154.46
223.69	2340.83
223.91	2211.81
224.13	2252.77
224.35	2187.23
224.57	2234.33
224.78	2236.38
225.00	2207.71
225.22	2170.85
225.44	2226.14
225.66	2285.53
225.88	2168.80
226.10	2291.68
226.32	2209.76
226.53	2465.75
226.75	2224.09
226.97	2281.44
227.19	2236.38
227.41	2119.65
227.63	2181.09
227.85	2035.68
228.06	2199.52
228.28	2289.63
228.50	2351.07
228.72	2138.08
228.94	2162.66
229.16	2080.74
229.37	2230.24
229.59	2176.99
229.81	2355.16
230.03	2179.04
230.25	2078.69
230.47	2072.54
230.69	2181.09
230.90	2365.40
231.12	2185.18
231.34	2271.20
231.56	2256.86
231.78	2113.50
232.00	2267.10
232.21	2176.99
232.43	2168.80
232.65	2045.92
232.87	2338.78
233.09	2097.12
233.30	2119.65
233.52	2289.63
233.74	2260.96
233.96	2220.00
234.18	2226.14
234.40	2187.23
234.61	2469.85
234.83	2183.13
235.05	2172.89
235.27	2543.58
235.49	2322.40
235.70	2142.18
235.92	2279.39
236.14	2193.37
236.36	2471.90
236.58	2039.78
236.79	2234.33
237.01	2220.00
237.23	2205.66
237.45	2326.49
237.67	2058.21
237.88	2295.77
238.10	2414.56
238.32	2103.26
238.54	2252.77
238.76	2242.53
238.97	2166.75
239.19	2101.22
239.41	2207.71
239.63	2277.34
239.85	2185.18
240.06	2179.04
240.28	2152.42
240.50	2389.98
240.72	2267.10
240.93	2152.42
241.15	2162.66
241.37	2281.44
241.59	2342.88
241.81	2203.61
242.02	2234.33
242.24	2303.96
242.46	2260.96
242.68	2095.07
242.89	2215.90
243.11	2369.50
243.33	2199.52
243.55	2234.33
243.76	2187.23
243.98	2217.95
244.20	2291.68
244.42	2209.76
244.64	2238.43
244.85	2103.26
245.07	2146.27
245.29	2203.61
245.51	2230.24
245.72	2240.48
245.94	2346.97
246.16	2172.89
246.38	2293.72
246.59	2162.66
246.81	2136.03
247.03	2176.99
247.24	2052.06
247.46	2240.48
247.68	2195.42
247.90	2129.89
248.11	2195.42
248.33	2344.92
248.55	2236.38
248.77	2201.57
248.98	2232.29
249.20	2383.84
249.42	2277.34
249.64	2189.28
249.85	2244.57
250.07	2170.85
250.29	2342.88
250.50	2269.15
250.72	2154.46
250.94	2191.33
251.16	2420.70
251.37	2228.19
251.59	2215.90
251.81	2285.53
252.02	2363.36
252.24	2162.66
252.46	2301.92
252.68	2136.03
252.89	2205.66
253.11	2031.58
253.33	2334.68
253.54	2351.07
253.76	2113.50
253.98	2258.91
254.20	2131.94
254.41	2125.79
254.63	2228.19
254.85	2074.59
255.06	2207.71
255.28	2322.40
255.50	2230.24
255.71	2199.52
255.93	2097.12
256.15	2236.38
256.36	2318.30
256.58	2129.89
256.80	2195.42
257.02	2199.52
257.23	2265.05
257.45	2138.08
257.67	2232.29
257.88	2201.57
258.10	2285.53
258.32	2162.66
258.53	2236.38
258.75	2400.22
258.97	2174.94
259.18	2080.74
259.40	2197.47
259.62	2318.30
259.83	2379.74
260.05	2220.00
260.27	2660.31
260.48	2387.93
260.70	2170.85
260.92	2179.04
261.13	2260.96
261.35	2316.25
261.57	2381.79
261.78	1976.29
262.00	2107.36
262.22	2334.68
262.43	2172.89
262.65	2193.37
262.86	2191.33
263.08	2551.77
263.30	2209.76
263.51	2072.54
263.73	2183.13
263.95	2447.32
264.16	2181.09
264.38	2088.93
264.60	2179.04
264.81	2258.91
265.03	2318.30
265.25	2375.64
265.46	2174.94
265.68	2342.88
265.89	2355.16
266.11	2080.74
266.33	2160.61
266.54	2351.07
266.76	2320.35
266.98	2189.28
267.19	2269.15
267.41	2457.56
267.62	2166.75
267.84	2054.11
268.06	2263.01
268.27	2248.67
268.49	2310.11
268.70	2164.70
268.92	2240.48
269.14	2199.52
269.35	2123.74
269.57	2240.48
269.79	2283.49
270.00	2158.56
270.22	2396.12
270.43	2084.83
270.65	2076.64
270.87	2250.72
271.08	2283.49
271.30	2217.95
271.51	2205.66
271.73	2320.35
271.95	2408.41
272.16	2228.19
272.38	2267.10
272.59	2164.70
272.81	2303.96
273.02	2166.75
273.24	2199.52
273.46	2291.68
273.67	2099.17
273.89	2097.12
274.10	2215.90
274.32	2389.98
274.54	2260.96
274.75	2293.72
274.97	2189.28
275.18	2318.30
275.40	2363.36
275.61	2150.37
275.83	2252.77
276.05	2136.03
276.26	2269.15
276.48	2269.15
276.69	2252.77
276.91	2293.72
277.12	2371.55
277.34	2275.29
277.55	2289.63
277.77	2256.86
277.99	2267.10
278.20	2115.55
278.42	2093.02
278.63	2193.37
278.85	2064.35
279.06	2152.42
279.28	2291.68
279.49	2344.92
279.71	2281.44
279.93	2260.96
280.14	2267.10
280.36	2187.23
280.57	2410.46
280.79	2265.05
281.00	2189.28
281.22	2174.94
281.43	2396.12
281.65	2086.88
281.86	2095.07
282.08	2279.39
282.29	2488.28
282.51	2105.31
282.73	2162.66
282.94	2097.12
283.16	2293.72
283.37	2342.88
283.59	2211.81
283.80	2342.88
284.02	2250.72
284.23	2203.61
284.45	2148.32
284.66	2166.75
284.88	2142.18
285.09	2269.15
285.31	2320.35
285.52	2279.39
285.74	2097.12
285.95	2330.59
286.17	2279.39
286.38	2402.27
286.60	2230.24
286.81	2115.55
287.03	2174.94
287.24	2277.34
287.46	2334.68
287.67	2316.25
287.89	2412.51
288.10	2244.57
288.32	2222.05
288.53	2340.83
288.75	2195.42
288.96	2312.16
289.18	2234.33
289.39	2240.48
289.61	2273.25
289.82	2449.37
290.04	2426.84
290.25	2179.04
290.47	2318.30
290.68	2217.95
290.90	2342.88
291.11	2127.84
291.33	2320.35
291.54	2189.28
291.76	2183.13
291.97	2267.10
292.18	2244.57
292.40	2226.14
292.61	2181.09
292.83	2422.75
293.04	2287.58
293.26	2303.96
293.47	2195.42
293.69	2242.53
293.90	2203.61
294.12	2351.07
294.33	2277.34
294.55	2228.19
294.76	2220.00
294.97	2316.25
295.19	2412.51
295.40	2209.76
295.62	2207.71
295.83	2293.72
296.05	2314.20
296.26	2357.21
296.48	2170.85
296.69	2320.35
296.90	2209.76
297.12	2355.16
297.33	2342.88
297.55	2281.44
297.76	2250.72
297.98	2283.49
298.19	2312.16
298.41	2232.29
298.62	2183.13
298.83	2293.72
299.05	2334.68
299.26	2252.77
299.48	2181.09
299.69	2271.20
299.90	2222.05
300.12	2152.42
300.33	2293.72
300.55	2303.96
300.76	2230.24
300.98	2183.13
301.19	2303.96
301.40	2176.99
301.62	2168.80
301.83	2291.68
302.05	2322.40
302.26	2220.00
302.47	2277.34
302.69	2154.46
302.90	2283.49
303.12	2105.31
303.33	2303.96
303.54	2475.99
303.76	2176.99
303.97	2203.61
304.19	2383.84
304.40	2236.38
304.61	2297.82
304.83	2443.23
305.04	2258.91
305.26	2291.68
305.47	2246.62
305.68	2228.19
305.90	2076.64
306.11	2402.27
306.33	2275.29
306.54	2193.37
306.75	2236.38
306.97	2113.50
307.18	2183.13
307.39	2226.14
307.61	2336.73
307.82	2152.42
308.04	2363.36
308.25	2187.23
308.46	2271.20
308.68	2275.29
308.89	2330.59
309.10	2371.55
309.32	2217.95
309.53	2256.86
309.74	2346.97
309.96	2142.18
310.17	2402.27
310.39	2246.62
310.60	2363.36
310.81	2252.77
311.03	2138.08
311.24	2269.15
311.45	2148.32
311.67	2451.42
311.88	2248.67
312.09	2199.52
312.31	2136.03
312.52	2189.28
312.73	2213.85
312.95	2148.32
313.16	2179.04
313.37	2332.64
313.59	2299.87
313.80	2312.16
314.01	2430.94
314.23	2207.71
314.44	2195.42
314.65	2045.92
314.87	2211.81
315.08	2187.23
315.29	2199.52
315.51	2136.03
315.72	2111.46
315.93	2375.64
316.15	2355.16
316.36	2220.00
316.57	2254.81
316.79	2301.92
317.00	2213.85
317.21	2318.30
317.43	2226.14
317.64	2258.91
317.85	2084.83
318.07	2250.72
318.28	2287.58
318.49	2383.84
318.70	2519.00
318.92	2447.32
319.13	2394.08
319.34	2478.04
319.56	2355.16
319.77	2287.58
319.98	2346.97
320.20	2301.92
320.41	2236.38
320.62	2306.01
320.83	2201.57
321.05	2453.47
321.26	2234.33
321.47	2322.40
321.69	2330.59
321.90	2127.84
322.11	2187.23
322.32	2334.68
322.54	2447.32
322.75	2267.10
322.96	2559.96
323.18	2093.02
323.39	2019.30
323.60	2125.79
323.81	2258.91
324.03	2213.85
324.24	2195.42
324.45	2318.30
324.66	2234.33
324.88	2426.84
325.09	2504.67
325.30	2246.62
325.52	2211.81
325.73	2306.01
325.94	2179.04
326.15	2029.54
326.37	2123.74
326.58	2418.65
326.79	2435.03
327.00	2121.70
327.22	2287.58
327.43	2267.10
327.64	2181.09
327.85	2342.88
328.07	2265.05
328.28	2504.67
328.49	2230.24
328.70	2189.28
328.92	2238.43
329.13	2240.48
329.34	2334.68
329.55	2359.26
329.76	2293.72
329.98	2176.99
330.19	2328.54
330.40	2310.11
330.61	2230.24
330.83	2392.03
331.04	2193.37
331.25	2281.44
331.46	2242.53
331.68	2080.74
331.89	2404.32
332.10	2246.62
332.31	2174.94
332.52	2269.15
332.74	2414.56
332.95	2144.22
333.16	2228.19
333.37	2340.83
333.58	2242.53
333.80	2306.01
334.01	2121.70
334.22	2211.81
334.43	2142.18
334.64	2193.37
334.86	2101.22
335.07	2179.04
335.28	2422.75
335.49	2066.40
335.70	2279.39
335.92	2437.08
336.13	2461.66
336.34	2269.15
336.55	2256.86
336.76	2215.90
336.98	2095.07
337.19	2217.95
337.40	2432.99
337.61	2443.23
337.82	2174.94
338.04	2277.34
338.25	2119.65
338.46	2238.43
338.67	2252.77
338.88	2127.84
339.09	2113.50
339.31	2256.86
339.52	2129.89
339.73	2201.57
339.94	2289.63
340.15	2359.26
340.36	2207.71
340.58	2220.00
340.79	2150.37
341.00	2310.11
341.21	2109.41
341.42	2375.64
341.63	2240.48
341.85	2271.20
342.06	2277.34
342.27	2220.00
342.48	2328.54
342.69	2125.79
342.90	2252.77
343.12	2289.63
343.33	2160.61
343.54	2424.80
343.75	2381.79
343.96	2283.49
344.17	2144.22
344.38	2293.72
344.60	2224.09
344.81	2172.89
345.02	2236.38
345.23	2310.11
345.44	2496.47
345.65	2205.66
345.86	2326.49
346.07	2293.72
346.29	2224.09
346.50	2162.66
346.71	2263.01
346.92	2387.93
347.13	2516.95
347.34	2213.85
347.55	2070.50
347.76	2328.54
347.98	2150.37
348.19	2260.96
348.40	2412.51
348.61	2166.75
348.82	2508.76
349.03	2324.44
349.24	2158.56
349.45	2449.37
349.66	2064.35
349.88	2283.49
350.09	2179.04
350.30	2441.18
350.51	2461.66
350.72	2250.72
350.93	2215.90
351.14	2197.47
351.35	2330.59
351.56	2179.04
351.77	2279.39
351.99	2316.25
352.20	2430.94
352.41	2312.16
352.62	2107.36
352.83	2205.66
353.04	2287.58
353.25	2187.23
353.46	2334.68
353.67	2396.12
353.88	2107.36
354.09	2201.57
354.30	2269.15
354.52	2293.72
354.73	2228.19
354.94	2187.23
355.15	2185.18
355.36	2457.56
355.57	2207.71
355.78	2209.76
355.99	2160.61
356.20	2224.09
356.41	2351.07
356.62	2185.18
356.83	2160.61
357.04	2381.79
357.25	2052.06
357.46	2252.77
357.68	2068.45
357.89	2111.46
358.10	2269.15
358.31	2203.61
358.52	2185.18
358.73	2160.61
358.94	2097.12
359.15	2168.80
359.36	2265.05
359.57	2281.44
359.78	2234.33
359.99	2334.68
360.20	2152.42
360.41	2256.86
360.62	2437.08
360.83	2275.29
361.04	2193.37
361.25	2299.87
361.46	2416.60
361.67	2242.53
361.88	2252.77
362.09	2310.11
362.30	2342.88
362.51	2154.46
362.72	2326.49
362.93	2363.36
363.14	2330.59
363.35	2244.57
363.56	2127.84
363.78	2383.84
363.99	2326.49
364.20	2199.52
364.41	2265.05
364.62	2435.03
364.83	2342.88
365.04	2166.75
365.25	2189.28
365.46	2389.98
365.67	2164.70
365.88	2195.42
366.09	2226.14
366.30	2246.62
366.51	2260.96
366.72	2125.79
366.93	2283.49
367.14	2226.14
367.35	2346.97
367.56	2260.96
367.77	2344.92
367.98	2174.94
368.18	2277.34
368.39	2316.25
368.60	2138.08
368.81	2301.92
369.02	2275.29
369.23	2269.15
369.44	2043.87
369.65	2154.46
369.86	2295.77
370.07	2289.63
370.28	2209.76
370.49	2324.44
370.70	2267.10
370.91	2080.74
371.12	2101.22
371.33	2314.20
371.54	2213.85
371.75	2351.07
371.96	2023.39
372.17	2269.15
372.38	2230.24
372.59	2392.03
372.80	2260.96
373.01	2232.29
373.22	2281.44
373.43	2324.44
373.64	2107.36
373.85	2392.03
374.06	2447.32
374.26	2281.44
374.47	2328.54
374.68	2404.32
374.89	2252.77
375.10	2236.38
375.31	2271.20
375.52	2228.19
375.73	2277.34
375.94	2170.85
376.15	2383.84
376.36	2164.70
376.57	2248.67
376.78	2111.46
376.99	2273.25
377.20	2383.84
377.40	2168.80
377.61	2387.93
377.82	2170.85
378.03	2432.99
378.24	2340.83
378.45	2303.96
378.66	2242.53
378.87	2195.42
379.08	2117.60
379.29	2162.66
379.50	2414.56
379.71	2203.61
379.91	2389.98
380.12	2199.52
380.33	2195.42
380.54	2222.05
380.75	2256.86
380.96	2230.24
381.17	2324.44
381.38	2213.85
381.59	2334.68
381.80	2283.49
382.00	2443.23
382.21	2371.55
382.42	2488.28
382.63	2432.99
382.84	2295.77
383.05	2316.25
383.26	2426.84
383.47	2322.40
383.68	2371.55
383.88	2379.74
384.09	2303.96
384.30	2430.94
384.51	2287.58
384.72	2201.57
384.93	2054.11
385.14	2314.20
385.35	2359.26
385.55	2138.08
385.76	2396.12
385.97	2260.96
386.18	2064.35
386.39	2242.53
386.60	2234.33
386.81	2142.18
387.02	2133.98
387.22	2117.60
387.43	2383.84
387.64	2287.58
387.85	2418.65
388.06	2432.99
388.27	3911.62
388.48	8148.87
388.68	11562.83
388.89	14016.30
389.10	14956.32
389.31	13825.84
389.52	11040.60
389.73	9394.03
389.93	8537.98
390.14	7896.97
390.35	7114.64
390.56	6266.78
390.77	5238.70
390.98	4063.17
391.18	3203.02
391.39	2871.25
391.60	2375.64
391.81	2400.22
392.02	2174.94
392.23	2473.95
392.43	2310.11
392.64	2349.02
392.85	2285.53
393.06	2422.75
393.27	2254.81
393.47	2185.18
393.68	2197.47
393.89	2293.72
394.10	2326.49
394.31	2197.47
394.52	2185.18
394.72	2185.18
394.93	2473.95
395.14	2146.27
395.35	2361.31
395.56	2158.56
395.76	2189.28
395.97	2387.93
396.18	2365.40
396.39	2381.79
396.60	2768.85
396.80	2613.21
397.01	2412.51
397.22	2463.71
397.43	2416.60
397.64	2324.44
397.84	2338.78
398.05	2500.57
398.26	2291.68
398.47	2318.30
398.67	2349.02
398.88	2236.38
399.09	2353.12
399.30	2226.14
399.51	2260.96
399.71	2164.70
399.92	2285.53
400.13	2297.82
400.34	2238.43
400.54	2232.29
400.75	2430.94
400.96	2308.06
401.17	2387.93
401.37	2396.12
401.58	2193.37
401.79	2275.29
402.00	2396.12
402.21	2691.03
402.41	2582.49
402.62	2529.24
402.83	2678.74
403.04	2693.08
403.24	2832.34
403.45	2387.93
403.66	2559.96
403.87	2547.67
404.07	2392.03
404.28	2500.57
404.49	2562.01
404.70	2330.59
404.90	2338.78
405.11	2306.01
405.32	2324.44
405.52	2199.52
405.73	2265.05
405.94	2183.13
406.15	2226.14
406.35	2363.36
406.56	2363.36
406.77	2250.72
406.98	2314.20
407.18	2195.42
407.39	2377.69
407.60	2138.08
407.80	2297.82
408.01	2211.81
408.22	2338.78
408.43	2181.09
408.63	2330.59
408.84	2301.92
409.05	2342.88
409.25	2236.38
409.46	2285.53
409.67	2217.95
409.88	2179.04
410.08	2281.44
410.29	2195.42
410.50	2404.32
410.70	2340.83
410.91	2164.70
411.12	2269.15
411.32	2299.87
411.53	2226.14
411.74	2336.73
411.95	2355.16
412.15	2371.55
412.36	2351.07
412.57	2281.44
412.77	2420.70
412.98	2260.96
413.19	2236.38
413.39	2316.25
413.60	2283.49
413.81	2389.98
414.01	2201.57
414.22	2318.30
414.43	2293.72
414.63	2154.46
414.84	2406.36
415.05	2224.09
415.25	2070.50
415.46	2371.55
415.67	2252.77
415.87	2236.38
416.08	2295.77
416.29	2228.19
416.49	2330.59
416.70	2226.14
416.91	2203.61
417.11	2285.53
417.32	2402.27
417.53	2406.36
417.73	2283.49
417.94	2260.96
418.15	2334.68
418.35	2281.44
418.56	2260.96
418.77	2527.19
418.97	2250.72
419.18	2265.05
419.38	2095.07
419.59	2281.44
419.80	2328.54
420.00	2162.66
420.21	2174.94
420.42	2394.08
420.62	2293.72
420.83	2162.66
421.04	2269.15
421.24	2295.77
421.45	2349.02
421.65	2318.30
421.86	2181.09
422.07	2371.55
422.27	2308.06
422.48	2236.38
422.69	2144.22
422.89	2215.90
423.10	2246.62
423.30	2269.15
423.51	2301.92
423.72	2277.34
423.92	2353.12
424.13	2150.37
424.33	2287.58
424.54	2326.49
424.75	2281.44
424.95	2371.55
425.16	2277.34
425.36	2330.59
425.57	2398.17
425.78	2285.53
425.98	2312.16
426.19	2242.53
426.39	2181.09
426.60	2275.29
426.81	2400.22
427.01	2217.95
427.22	2183.13
427.42	2101.22
427.63	2197.47
427.83	2330.59
428.04	2367.45
428.25	2365.40
428.45	2402.27
428.66	2367.45
428.86	2226.14
429.07	2246.62
429.28	2199.52
429.48	2244.57
429.69	2246.62
429.89	2334.68
430.10	2117.60
430.30	2283.49
430.51	2412.51
430.71	2154.46
430.92	2211.81
431.13	2226.14
431.33	2324.44
431.54	2303.96
431.74	2420.70
431.95	2447.32
432.15	2090.98
432.36	2277.34
432.56	2375.64
432.77	2480.09
432.98	2510.81
433.18	2279.39
433.39	2209.76
433.59	2238.43
433.80	2461.66
434.00	2432.99
434.21	2164.70
434.41	2207.71
434.62	2496.47
434.82	2179.04
435.03	2197.47
435.23	2277.34
435.44	2131.94
435.64	2269.15
435.85	2271.20
436.06	2398.17
436.26	2322.40
436.47	2232.29
436.67	2238.43
436.88	2201.57
437.08	2371.55
437.29	2412.51
437.49	2287.58
437.70	2404.32
437.90	2244.57
438.11	2340.83
438.31	2334.68
438.52	2447.32
438.72	2424.80
438.93	2508.76
439.13	2340.83
439.34	2398.17
439.54	2258.91
439.75	2342.88
439.95	2265.05
440.16	2234.33
440.36	2342.88
440.57	2273.25
440.77	2351.07
440.98	2314.20
441.18	2363.36
441.39	2146.27
441.59	2236.38
441.80	2490.33
442.00	2277.34
442.21	2346.97
442.41	2072.54
442.62	2451.42
442.82	2201.57
443.02	2301.92
443.23	2236.38
443.43	2244.57
443.64	2369.50
443.84	2191.33
444.05	2363.36
444.25	2314.20
444.46	2244.57
444.66	2252.77
444.87	2326.49
445.07	2125.79
445.28	2265.05
445.48	2404.32
445.69	2330.59
445.89	2525.15
446.09	2306.01
446.30	2572.25
446.50	2824.15
446.71	4435.90
446.91	5519.28
447.12	6330.27
447.32	6629.27
447.53	6299.55
447.73	5103.54
447.93	4587.45
448.14	4114.37
448.34	4087.75
448.55	3602.38
448.75	3565.51
448.96	3289.04
449.16	3104.72
449.36	2869.20
449.57	2559.96
449.77	2392.03
449.98	2236.38
450.18	2344.92
450.39	2330.59
450.59	2310.11
450.79	2226.14
451.00	2205.66
451.20	2353.12
451.41	2232.29
451.61	2320.35
451.81	2260.96
452.02	2201.57
452.22	2220.00
452.43	2183.13
452.63	2230.24
452.84	2191.33
453.04	2187.23
453.24	2281.44
453.45	2193.37
453.65	2236.38
453.86	2316.25
454.06	2269.15
454.26	2240.48
454.47	2123.74
454.67	2351.07
454.87	2326.49
455.08	2152.42
455.28	2385.88
455.49	2334.68
455.69	2211.81
455.89	2486.23
456.10	2349.02
456.30	2283.49
456.51	2295.77
456.71	2342.88
456.91	2297.82
457.12	2303.96
457.32	2260.96
457.52	2142.18
457.73	2275.29
457.93	2353.12
458.14	2113.50
458.34	2174.94
458.54	2244.57
458.75	2170.85
458.95	2291.68
459.15	2312.16
459.36	2283.49
459.56	2318.30
459.76	2445.27
459.97	2279.39
460.17	2269.15
460.37	2324.44
460.58	2250.72
460.78	2379.74
460.99	2217.95
461.19	2201.57
461.39	2303.96
461.60	2234.33
461.80	2314.20
462.00	2138.08
462.21	2260.96
462.41	2103.26
462.61	2252.77
462.82	2119.65
463.02	2275.29
463.22	2244.57
463.43	2381.79
463.63	2279.39
463.83	2406.36
464.04	2342.88
464.24	2338.78
464.44	2209.76
464.64	2269.15
464.85	2287.58
465.05	2357.21
465.25	2220.00
465.46	2211.81
465.66	2318.30
465.86	2265.05
466.07	2244.57
466.27	2179.04
466.47	2125.79
466.68	2142.18
466.88	2361.31
467.08	2299.87
467.29	2336.73
467.49	2357.21
467.69	2281.44
467.89	2312.16
468.10	2179.04
468.30	2220.00
468.50	2367.45
468.71	2283.49
468.91	2078.69
469.11	2455.51
469.31	2150.37
469.52	2195.42
469.72	2504.67
469.92	2383.84
470.13	2275.29
470.33	2346.97
470.53	2310.11
470.73	2670.55
470.94	3024.85
471.14	3133.39
471.34	3612.62
471.54	3422.16
471.75	3117.01
471.95	2830.29
472.15	2717.65
472.36	2818.00
472.56	2746.33
472.76	2695.13
472.96	2631.64
473.17	2506.71
473.37	2562.01
473.57	2312.16
473.77	2334.68
473.98	2295.77
474.18	2105.31
474.38	2531.29
474.58	2224.09
474.79	2271.20
474.99	2297.82
475.19	2404.32
475.39	2176.99
475.60	2359.26
475.80	2242.53
476.00	2312.16
476.20	2179.04
476.41	2340.83
476.61	2369.50
476.81	2414.56
477.01	2189.28
477.21	2449.37
477.42	2396.12
477.62	2254.81
477.82	2357.21
478.02	2242.53
478.23	2258.91
478.43	2154.46
478.63	2277.34
478.83	2306.01
479.03	2222.05
479.24	2408.41
479.44	2430.94
479.64	2162.66
479.84	2093.02
480.04	2164.70
480.25	2320.35
480.45	2152.42
480.65	2269.15
480.85	2392.03
481.06	2242.53
481.26	2267.10
481.46	2289.63
481.66	2287.58
481.86	2195.42
482.06	2353.12
482.27	2273.25
482.47	2238.43
482.67	2363.36
482.87	2220.00
483.07	2346.97
483.28	2281.44
483.48	2119.65
483.68	2310.11
483.88	2127.84
484.08	2138.08
484.29	2164.70
484.49	2224.09
484.69	2109.41
484.89	2437.08
485.09	2371.55
485.29	2410.46
485.50	2316.25
485.70	2252.77
485.90	2389.98
486.10	2285.53
486.30	2269.15
486.50	2404.32
486.71	2285.53
486.91	2314.20
487.11	2342.88
487.31	2244.57
487.51	2308.06
487.71	2205.66
487.91	2160.61
488.12	2201.57
488.32	2101.22
488.52	2242.53
488.72	2082.78
488.92	2303.96
489.12	2439.13
489.32	2389.98
489.53	2322.40
489.73	2138.08
489.93	2500.57
490.13	2201.57
490.33	2074.59
490.53	2291.68
490.73	2396.12
490.94	2070.50
491.14	2301.92
491.34	2375.64
491.54	2641.88
491.74	3274.70
491.94	3794.89
492.14	4102.08
492.34	4095.94
492.54	3811.27
492.75	3227.60
492.95	3209.17
493.15	3002.32
493.35	2908.12
493.55	2858.96
493.75	2666.46
493.95	2691.03
494.15	2598.87
494.35	2392.03
494.56	2293.72
494.76	2238.43
494.96	2332.64
495.16	2236.38
495.36	2256.86
495.56	2312.16
495.76	2258.91
495.96	2191.33
496.16	2187.23
496.36	2490.33
496.56	2248.67
496.77	2289.63
496.97	2226.14
497.17	2408.41
497.37	2183.13
497.57	2344.92
497.77	2224.09
497.97	2230.24
498.17	2299.87
498.37	2164.70
498.57	2383.84
498.77	2209.76
498.97	2373.60
499.17	2428.89
499.38	2326.49
499.58	2322.40
499.78	2342.88
499.98	2420.70
500.18	2244.57
500.38	2156.51
500.58	2480.09
500.78	2887.64
500.98	5185.46
501.18	7184.27
501.38	8607.61
501.58	9564.01
501.78	9602.93
501.98	7626.64
502.18	6397.85
502.38	5486.51
502.58	5146.55
502.78	4603.83
502.98	4396.99
503.18	4130.75
503.38	3907.52
503.59	3313.61
503.79	3291.09
503.99	3022.80
504.19	2709.46
504.39	2770.90
504.59	2785.24
504.79	2861.01
504.99	2822.10
505.19	2555.86
505.39	2473.95
505.59	2752.47
505.79	2498.52
505.99	2461.66
506.19	2330.59
506.39	2480.09
506.59	2299.87
506.79	2244.57
506.99	2430.94
507.19	2236.38
507.39	2283.49
507.59	2113.50
507.79	2189.28
507.99	2160.61
508.19	2306.01
508.39	2244.57
508.59	2279.39
508.79	2308.06
508.99	2437.08
509.19	2129.89
509.39	2303.96
509.59	2203.61
509.79	2254.81
509.99	2236.38
510.19	2406.36
510.39	2389.98
510.59	2318.30
510.79	2269.15
510.99	2168.80
511.19	2217.95
511.39	2424.80
511.59	2357.21
511.79	2301.92
511.99	2258.91
512.19	2414.56
512.38	2281.44
512.58	2150.37
512.78	2326.49
512.98	2392.03
513.18	2381.79
513.38	2125.79
513.58	2303.96
513.78	2148.32
513.98	2258.91
514.18	2232.29
514.38	2179.04
514.58	2359.26
514.78	2158.56
514.98	2162.66
515.18	2269.15
515.38	2154.46
515.58	2471.90
515.78	2265.05
515.98	2258.91
516.18	2349.02
516.38	2267.10
516.57	2205.66
516.77	2162.66
516.97	2324.44
517.17	2217.95
517.37	2054.11
517.57	2353.12
517.77	2330.59
517.97	2211.81
518.17	2316.25
518.37	2242.53
518.57	2185.18
518.77	2232.29
518.97	2230.24
519.16	2277.34
519.36	2363.36
519.56	2220.00
519.76	2220.00
519.96	2263.01
520.16	2445.27
520.36	2189.28
520.56	2365.40
520.76	2244.57
520.96	2244.57
521.16	2408.41
521.35	2414.56
521.55	2490.33
521.75	2172.89
521.95	2248.67
522.15	2226.14
522.35	2138.08
522.55	2236.38
522.75	2328.54
522.95	2234.33
523.14	2136.03
523.34	2263.01
523.54	2199.52
523.74	2408.41
523.94	2322.40
524.14	2127.84
524.34	2258.91
524.54	2375.64
524.73	2287.58
524.93	2283.49
525.13	2265.05
525.33	2123.74
525.53	2543.58
525.73	2263.01
525.93	2301.92
526.13	2179.04
526.32	2224.09
526.52	2357.21
526.72	2375.64
526.92	2228.19
527.12	2283.49
527.32	2164.70
527.52	2283.49
527.71	2330.59
527.91	2244.57
528.11	2306.01
528.31	2303.96
528.51	2174.94
528.71	2314.20
528.90	2293.72
529.10	2422.75
529.30	2357.21
529.50	2052.06
529.70	2306.01
529.90	2279.39
530.09	2277.34
530.29	2146.27
530.49	2142.18
530.69	2572.25
530.89	2285.53
531.09	2303.96
531.28	2187.23
531.48	2449.37
531.68	2242.53
531.88	2236.38
532.08	2306.01
532.28	2285.53
532.47	2316.25
532.67	2392.03
532.87	2338.78
533.07	2285.53
533.27	2367.45
533.46	2285.53
533.66	2383.84
533.86	2340.83
534.06	2349.02
534.26	2299.87
534.45	2244.57
534.65	2265.05
534.85	2303.96
535.05	2142.18
535.25	2389.98
535.44	2138.08
535.64	2369.50
535.84	2246.62
536.04	2160.61
536.24	2195.42
536.43	2189.28
536.63	2351.07
536.83	2330.59
537.03	2236.38
537.22	2181.09
537.42	2156.51
537.62	2336.73
537.82	2185.18
538.02	2418.65
538.21	2396.12
538.41	2609.11
538.61	2277.34
538.81	2170.85
539.00	2351.07
539.20	2152.42
539.40	2232.29
539.60	2326.49
539.79	2344.92
539.99	2271.20
540.19	2254.81
540.39	2238.43
540.58	2263.01
540.78	2449.37
540.98	2258.91
541.18	2367.45
541.37	2357.21
541.57	2277.34
541.77	2318.30
541.97	2136.03
542.16	2158.56
542.36	2242.53
542.56	2234.33
542.76	2463.71
542.95	2392.03
543.15	2447.32
543.35	2297.82
543.54	2113.50
543.74	2174.94
543.94	2459.61
544.14	2209.76
544.33	2314.20
544.53	2224.09
544.73	2234.33
544.93	2193.37
545.12	2209.76
545.32	2205.66
545.52	2291.68
545.71	2138.08
545.91	2162.66
546.11	2281.44
546.30	2185.18
546.50	2248.67
546.70	2281.44
546.90	2211.81
547.09	2064.35
547.29	2283.49
547.49	2369.50
547.68	2293.72
547.88	2209.76
548.08	2349.02
548.27	2777.05
548.47	2140.13
548.67	2203.61
548.87	2314.20
549.06	2308.06
549.26	2185.18
549.46	2342.88
549.65	2211.81
549.85	2252.77
550.05	2250.72
550.24	2236.38
550.44	2248.67
550.64	2252.77
550.83	2228.19
551.03	2392.03
551.23	2355.16
551.42	2308.06
551.62	2271.20
551.82	2281.44
552.01	2340.83
552.21	2377.69
552.41	2248.67
552.60	2435.03
552.80	2318.30
553.00	2242.53
553.19	2281.44
553.39	2480.09
553.59	2164.70
553.78	2306.01
553.98	2226.14
554.17	2176.99
554.37	2332.64
554.57	2330.59
554.76	2203.61
554.96	2277.34
555.16	2248.67
555.35	2299.87
555.55	2349.02
555.75	2291.68
555.94	2371.55
556.14	2113.50
556.33	2371.55
556.53	2193.37
556.73	2248.67
556.92	2394.08
557.12	2283.49
557.32	2484.19
557.51	2367.45
557.71	2381.79
557.90	2467.80
558.10	2406.36
558.30	2236.38
558.49	2234.33
558.69	2201.57
558.88	2299.87
559.08	2324.44
559.28	2271.20
559.47	2248.67
559.67	2273.25
559.86	2537.43
560.06	2256.86
560.26	2287.58
560.45	2310.11
560.65	2209.76
560.84	2404.32
561.04	2226.14
561.24	2332.64
561.43	2164.70
561.63	2385.88
561.82	2334.68
562.02	2301.92
562.22	2176.99
562.41	2238.43
562.61	2162.66
562.80	2228.19
563.00	2523.10
563.19	2342.88
563.39	2260.96
563.59	2244.57
563.78	2211.81
563.98	2123.74
564.17	2199.52
564.37	2109.41
564.56	2269.15
564.76	2039.78
564.96	2373.60
565.15	2400.22
565.35	2428.89
565.54	2267.10
565.74	2334.68
565.93	2379.74
566.13	2226.14
566.32	2338.78
566.52	2310.11
566.71	2269.15
566.91	2445.27
567.11	2400.22
567.30	2189.28
567.50	2349.02
567.69	2299.87
567.89	2299.87
568.08	2138.08
568.28	2260.96
568.47	2150.37
568.67	2342.88
568.86	2176.99
569.06	2351.07
569.25	2232.29
569.45	2170.85
569.64	2211.81
569.84	2199.52
570.04	2355.16
570.23	2217.95
570.43	2299.87
570.62	2244.57
570.82	2439.13
571.01	2205.66
571.21	2185.18
571.40	2170.85
571.60	2349.02
571.79	2291.68
571.99	2215.90
572.18	2191.33
572.38	2281.44
572.57	2209.76
572.77	2308.06
572.96	2525.15
573.16	2318.30
573.35	2228.19
573.55	2455.51
573.74	2301.92
573.94	2269.15
574.13	2269.15
574.33	2342.88
574.52	2435.03
574.71	2228.19
574.91	2404.32
575.10	2199.52
575.30	2244.57
575.49	2185.18
575.69	2158.56
575.88	2373.60
576.08	2330.59
576.27	2441.18
576.47	2289.63
576.66	2523.10
576.86	2465.75
577.05	2322.40
577.25	2396.12
577.44	2531.29
577.64	2303.96
577.83	2439.13
578.02	2306.01
578.22	2392.03
578.41	2463.71
578.61	2248.67
578.80	2162.66
579.00	2283.49
579.19	2291.68
579.39	2385.88
579.58	2310.11
579.77	2265.05
579.97	2523.10
580.16	2340.83
580.36	2432.99
580.55	2428.89
580.75	2383.84
580.94	2285.53
581.13	2455.51
581.33	2473.95
581.52	2293.72
581.72	2473.95
581.91	2451.42
582.11	2277.34
582.30	2394.08
582.49	2318.30
582.69	2375.64
582.88	2363.36
583.08	2316.25
583.27	2424.80
583.47	2260.96
583.66	2232.29
583.85	2205.66
584.05	2314.20
584.24	2381.79
584.44	2310.11
584.63	2441.18
584.82	2447.32
585.02	2400.22
585.21	2461.66
585.41	2488.28
585.60	2363.36
585.79	2533.34
585.99	2445.27
586.18	2392.03
586.37	2977.75
586.57	4620.22
586.76	13840.17
586.96	32722.44
587.15	46546.23
587.34	55835.82
587.54	61006.94
587.73	56093.86
587.93	39767.46
588.12	29912.63
588.31	23895.70
588.51	21026.50
588.70	19185.37
588.89	17342.20
589.09	15179.54
589.28	12771.13
589.47	10461.02
589.67	8267.65
589.86	6367.13
590.06	4802.49
590.25	3796.93
590.44	3248.08
590.64	2828.24
590.83	2645.98
591.02	2553.82
591.22	2398.17
591.41	2478.04
591.60	2404.32
591.80	2656.22
591.99	2113.50
592.18	2238.43
592.38	2471.90
592.57	2164.70
592.76	2301.92
592.96	2312.16
593.15	2344.92
593.34	2408.41
593.54	2293.72
593.73	2457.56
593.92	2422.75
594.12	2297.82
594.31	2371.55
594.50	2387.93
594.70	2342.88
594.89	2635.74
595.08	2187.23
595.28	2426.84
595.47	2594.78
595.66	2432.99
595.86	2088.93
596.05	2254.81
596.24	2283.49
596.43	2506.71
596.63	2379.74
596.82	2224.09
597.01	2336.73
597.21	2451.42
597.40	2414.56
597.59	2281.44
597.79	2256.86
597.98	2351.07
598.17	2342.88
598.36	2275.29
598.56	2381.79
598.75	2213.85
598.94	2394.08
599.14	2308.06
599.33	2164.70
599.52	2330.59
599.71	2308.06
599.91	2398.17
600.10	2328.54
600.29	2428.89
600.48	2385.88
600.68	2357.21
600.87	2258.91
601.06	2174.94
601.26	2320.35
601.45	2258.91
601.64	2234.33
601.83	2332.64
602.03	2220.00
602.22	2125.79
602.41	2377.69
602.60	2580.44
602.80	2400.22
602.99	2349.02
603.18	2154.46
603.37	2203.61
603.57	2242.53
603.76	2328.54
603.95	2408.41
604.14	2310.11
604.34	2193.37
604.53	2213.85
604.72	2351.07
604.91	2328.54
605.10	2275.29
605.30	2150.37
605.49	2514.91
605.68	2422.75
605.87	2295.77
606.07	2086.88
606.26	2351.07
606.45	2275.29
606.64	2232.29
606.84	2254.81
607.03	2412.51
607.22	2445.27
607.41	2244.57
607.60	2295.77
607.80	2394.08
607.99	2310.11
608.18	2357.21
608.37	2293.72
608.56	2242.53
608.76	2402.27
608.95	2516.95
609.14	2310.11
609.33	2367.45
609.52	2461.66
609.72	2363.36
609.91	2355.16
610.10	2316.25
610.29	2447.32
610.48	2355.16
610.68	2424.80
610.87	2238.43
611.06	2385.88
611.25	2275.29
611.44	2412.51
611.63	2187.23
611.83	2303.96
612.02	2160.61
612.21	2365.40
612.40	2154.46
612.59	2172.89
612.79	2252.77
612.98	2297.82
613.17	2408.41
613.36	2308.06
613.55	2490.33
613.74	2379.74
613.93	2389.98
614.13	2465.75
614.32	2519.00
614.51	2437.08
614.70	2369.50
614.89	2330.59
615.08	2394.08
615.28	2785.24
615.47	2228.19
615.66	2299.87
615.85	2346.97
616.04	2482.14
616.23	2334.68
616.42	2303.96
616.62	2373.60
616.81	2318.30
617.00	2252.77
617.19	2314.20
617.38	2289.63
617.57	2310.11
617.76	2308.06
617.95	2365.40
618.15	2418.65
618.34	2381.79
618.53	2220.00
618.72	2353.12
618.91	2342.88
619.10	2349.02
619.29	2256.86
619.48	2277.34
619.68	2211.81
619.87	2226.14
620.06	2138.08
620.25	2383.84
620.44	2144.22
620.63	2267.10
620.82	2240.48
621.01	2236.38
621.20	2269.15
621.39	2301.92
621.59	2328.54
621.78	2277.34
621.97	2328.54
622.16	2379.74
622.35	2299.87
622.54	2303.96
622.73	2338.78
622.92	2179.04
623.11	2299.87
623.30	2279.39
623.49	2387.93
623.68	2191.33
623.88	2371.55
624.07	2258.91
624.26	2226.14
624.45	2299.87
624.64	2207.71
624.83	2232.29
625.02	2228.19
625.21	2281.44
625.40	2324.44
625.59	2406.36
625.78	2291.68
625.97	2303.96
626.16	2383.84
626.35	2373.60
626.54	2314.20
626.74	2494.43
626.93	2260.96
627.12	2334.68
627.31	2381.79
627.50	2326.49
627.69	2426.84
627.88	2273.25
628.07	2287.58
628.26	2215.90
628.45	2238.43
628.64	2195.42
628.83	2363.36
629.02	2176.99
629.21	2322.40
629.40	2295.77
629.59	2250.72
629.78	2299.87
629.97	2318.30
630.16	2316.25
630.35	2232.29
630.54	2207.71
630.73	2224.09
630.92	2275.29
631.11	2217.95
631.30	2265.05
631.49	2396.12
631.68	2226.14
631.87	2250.72
632.06	2125.79
632.25	2521.05
632.44	2254.81
632.63	2332.64
632.82	2392.03
633.01	2250.72
633.20	2328.54
633.39	2324.44
633.58	2144.22
633.77	2269.15
633.96	2392.03
634.15	2396.12
634.34	2314.20
634.53	2297.82
634.72	2220.00
634.91	2103.26
635.10	2363.36
635.29	2332.64
635.48	2297.82
635.67	2279.39
635.86	2195.42
636.05	2383.84
636.24	2254.81
636.43	2232.29
636.62	2306.01
636.81	2107.36
637.00	2314.20
637.19	2236.38
637.38	2299.87
637.57	2279.39
637.76	2355.16
637.95	2404.32
638.14	2285.53
638.33	2377.69
638.52	2402.27
638.71	2230.24
638.89	2164.70
639.08	2506.71
639.27	2455.51
639.46	2412.51
639.65	2793.43
639.84	2953.17
640.03	2953.17
640.22	2885.59
640.41	2863.06
640.60	2602.97
640.79	2598.87
640.98	2504.67
641.17	2480.09
641.36	2381.79
641.55	2465.75
641.74	2242.53
641.92	2189.28
642.11	2226.14
642.30	2277.34
642.49	2226.14
642.68	2236.38
642.87	2326.49
643.06	2398.17
643.25	2230.24
643.44	2234.33
643.63	2209.76
643.82	2359.26
644.00	2154.46
644.19	2265.05
644.38	2103.26
644.57	2357.21
644.76	2371.55
644.95	2248.67
645.14	2248.67
645.33	2248.67
645.52	2269.15
645.71	2160.61
645.89	2199.52
646.08	2256.86
646.27	2129.89
646.46	2416.60
646.65	2183.13
646.84	2277.34
647.03	2195.42
647.22	2263.01
647.40	2285.53
647.59	2234.33
647.78	2078.69
647.97	2234.33
648.16	2193.37
648.35	2359.26
648.54	2455.51
648.73	2213.85
648.91	2346.97
649.10	2224.09
649.29	2228.19
649.48	2215.90
649.67	2314.20
649.86	2281.44
650.05	2254.81
650.23	2437.08
650.42	2269.15
650.61	2473.95
650.80	2369.50
650.99	2613.21
651.18	2443.23
651.36	2439.13
651.55	2220.00
651.74	2357.21
651.93	2283.49
652.12	2250.72
652.31	2269.15
652.49	2244.57
652.68	2162.66
652.87	2424.80
653.06	2273.25
653.25	2508.76
653.44	2346.97
653.62	2412.51
653.81	2242.53
654.00	2316.25
654.19	2367.45
654.38	2531.29
654.56	2299.87
654.75	2195.42
654.94	2387.93
655.13	2269.15
655.32	2238.43
655.51	2310.11
655.69	2201.57
655.88	2283.49
656.07	2213.85
656.26	2332.64
656.45	2179.04
656.63	2252.77
656.82	2283.49
657.01	2453.47
657.20	2179.04
657.38	2398.17
657.57	2217.95
657.76	2144.22
657.95	2332.64
658.14	2320.35
658.32	2252.77
658.51	2123.74
658.70	2344.92
658.89	2248.67
659.08	2232.29
659.26	2473.95
659.45	2279.39
659.64	2316.25
659.83	2289.63
660.01	2580.44
660.20	2342.88
660.39	2453.47
660.58	2080.74
660.76	2293.72
660.95	2160.61
661.14	2357.21
661.33	2144.22
661.51	2236.38
661.70	2199.52
661.89	2389.98
662.08	2293.72
662.26	2162.66
662.45	2146.27
662.64	2428.89
662.83	2306.01
663.01	2103.26
663.20	2236.38
663.39	2461.66
663.58	2226.14
663.76	2242.53
663.95	2367.45
664.14	2185.18
664.32	2250.72
664.51	2207.71
664.70	2154.46
664.89	2297.82
665.07	2105.31
665.26	2377.69
665.45	2193.37
665.64	2281.44
665.82	2287.58
666.01	2306.01
666.20	2144.22
666.38	2342.88
666.57	2482.14
666.76	3366.86
666.95	8204.16
667.13	16178.95
667.32	21100.22
667.51	24839.81
667.69	26470.00
667.88	24084.11
668.07	17061.63
668.25	13711.15
668.44	11460.43
668.63	9772.91
668.81	8732.54
669.00	7501.71
669.19	6834.07
669.38	5906.34
669.56	5226.42
669.75	4243.39
669.94	3733.45
670.12	3145.68
670.31	2764.76
670.50	2627.54
670.68	2506.71
670.87	2406.36
671.06	2342.88
671.24	2301.92
671.43	2392.03
671.62	2318.30
671.80	2308.06
671.99	2293.72
672.18	2320.35
672.36	2293.72
672.55	2316.25
672.74	2258.91
672.92	2295.77
673.11	2359.26
673.29	2217.95
673.48	2336.73
673.67	2224.09
673.85	2398.17
674.04	2193.37
674.23	2299.87
674.41	2422.75
674.60	2105.31
674.79	2146.27
674.97	2189.28
675.16	2310.11
675.34	2373.60
675.53	2228.19
675.72	2334.68
675.90	2508.76
676.09	2211.81
676.28	2283.49
676.46	2115.55
676.65	2316.25
676.83	2277.34
677.02	2252.77
677.21	2308.06
677.39	2285.53
677.58	2174.94
677.77	2203.61
677.95	2228.19
678.14	2281.44
678.32	2312.16
678.51	2209.76
678.70	2367.45
678.88	2201.57
679.07	2293.72
679.25	2236.38
679.44	2205.66
679.63	2232.29
679.81	2334.68
680.00	2416.60
680.18	2301.92
680.37	2365.40
680.55	2244.57
680.74	2179.04
680.93	2082.78
681.11	2285.53
681.30	2301.92
681.48	2195.42
681.67	2207.71
681.85	2260.96
682.04	2228.19
682.23	2346.97
682.41	2297.82
682.60	2236.38
682.78	2287.58
682.97	2146.27
683.15	2209.76
683.34	2310.11
683.53	2377.69
683.71	2142.18
683.90	2428.89
684.08	2461.66
684.27	2236.38
684.45	2283.49
684.64	2359.26
684.82	2248.67
685.01	2303.96
685.19	2252.77
685.38	2410.46
685.57	2236.38
685.75	2203.61
685.94	2220.00
686.12	2187.23
686.31	2203.61
686.49	2437.08
686.68	2170.85
686.86	2254.81
687.05	2250.72
687.23	2375.64
687.42	2205.66
687.60	2140.13
687.79	2389.98
687.97	2338.78
688.16	2394.08
688.34	2428.89
688.53	2148.32
688.71	2326.49
688.90	2359.26
689.08	2252.77
689.27	2129.89
689.45	2299.87
689.64	2344.92
689.82	2297.82
690.01	2318.30
690.19	2297.82
690.38	2303.96
690.56	2381.79
690.75	2154.46
690.93	2283.49
691.12	2246.62
691.30	2187.23
691.49	2201.57
691.67	2273.25
691.86	2510.81
692.04	2260.96
692.23	2250.72
692.41	2258.91
692.60	2578.39
692.78	2392.03
692.97	2252.77
693.15	2396.12
693.34	2455.51
693.52	2400.22
693.71	2283.49
693.89	2203.61
694.08	2115.55
694.26	2398.17
694.44	2273.25
694.63	2355.16
694.81	2174.94
695.00	2166.75
695.18	2398.17
695.37	2480.09
695.55	2205.66
695.74	2209.76
695.92	2228.19
696.10	2406.36
696.29	2136.03
696.47	2176.99
696.66	2138.08
696.84	2201.57
697.03	2283.49
697.21	2332.64
697.40	3252.17
697.58	2306.01
697.76	2226.14
697.95	2185.18
698.13	2191.33
698.32	2187.23
698.50	2232.29
698.68	2324.44
698.87	2240.48
699.05	2443.23
699.24	2250.72
699.42	2144.22
699.61	2357.21
699.79	2301.92
699.97	2207.71
700.16	2105.31
700.34	2176.99
700.53	2250.72
700.71	2389.98
700.89	2338.78
701.08	2217.95
701.26	2342.88
701.45	2752.47
701.63	2183.13
701.81	2291.68
702.00	2207.71
702.18	2310.11
702.37	2209.76
702.55	2488.28
702.73	2422.75
702.92	2293.72
703.10	2635.74
703.28	2547.67
703.47	2322.40
703.65	2439.13
703.84	2414.56
704.02	2324.44
704.20	2422.75
704.39	2244.57
704.57	2232.29
704.75	2387.93
704.94	2332.64
705.12	2310.11
705.30	2519.00
705.49	4425.66
705.67	10284.90
705.86	17948.40
706.04	21571.25
706.22	24565.39
706.41	25525.88
706.59	21513.91
706.77	15490.84
706.96	13039.42
707.14	11339.60
707.32	9734.00
707.51	8687.48
707.69	7354.26
707.87	5896.10
708.06	4808.63
708.24	3866.56
708.42	3078.10
708.61	2998.23
708.79	2512.86
708.97	2437.08
709.16	2400.22
709.34	2402.27
709.52	2250.72
709.71	2250.72
709.89	2381.79
710.07	2246.62
710.26	2203.61
710.44	2236.38
710.62	2398.17
710.80	2318.30
710.99	2303.96
711.17	2340.83
711.35	2220.00
711.54	2174.94
711.72	2373.60
711.90	2273.25
712.09	2203.61
712.27	2174.94
712.45	2301.92
712.63	2193.37
712.82	2258.91
713.00	2273.25
713.18	2338.78
713.37	2277.34
713.55	2287.58
713.73	2301.92
713.91	2283.49
714.10	2228.19
714.28	2273.25
714.46	2293.72
714.65	2269.15
714.83	2320.35
715.01	2285.53
715.19	2336.73
715.38	2215.90
715.56	2285.53
715.74	2193.37
715.92	2203.61
716.11	2428.89
716.29	2111.46
716.47	2224.09
716.65	2201.57
716.84	2168.80
717.02	2420.70
717.20	2156.51
717.38	2238.43
717.57	2306.01
717.75	2242.53
717.93	2176.99
718.11	2254.81
718.30	2109.41
718.48	2289.63
718.66	2392.03
718.84	2375.64
719.03	2179.04
719.21	2183.13
719.39	2465.75
719.57	2301.92
719.75	2379.74
719.94	2191.33
720.12	2183.13
720.30	2263.01
720.48	2271.20
720.67	2158.56
720.85	2162.66
721.03	2183.13
721.21	2207.71
721.39	2361.31
721.58	2293.72
721.76	2277.34
721.94	2269.15
722.12	2297.82
722.30	2469.85
722.49	2211.81
722.67	2275.29
722.85	2273.25
723.03	2162.66
723.21	2152.42
723.40	2281.44
723.58	2377.69
723.76	2351.07
723.94	2432.99
724.12	2342.88
724.30	2451.42
724.49	2326.49
724.67	2258.91
724.85	2412.51
725.03	2070.50
725.21	2332.64
725.40	2387.93
725.58	2109.41
725.76	2336.73
725.94	2351.07
726.12	2129.89
726.30	2209.76
726.49	2263.01
726.67	2176.99
726.85	2412.51
727.03	2637.78
727.21	3536.84
727.39	4913.08
727.57	5787.56
727.76	6297.50
727.94	6756.25
728.12	6352.80
728.30	5005.24
728.48	4618.17
728.66	4159.42
728.84	3813.32
729.03	3342.28
729.21	3051.47
729.39	2772.95
729.57	2467.80
729.75	2392.03
729.93	2342.88
730.11	2269.15
730.30	2297.82
730.48	2273.25
730.66	2365.40
730.84	2340.83
731.02	2224.09
731.20	2195.42
731.38	2252.77
731.56	2176.99
731.74	2109.41
731.93	2285.53
732.11	2267.10
732.29	2230.24
732.47	2383.84
732.65	2342.88
732.83	2269.15
733.01	2283.49
733.19	2193.37
733.37	2295.77
733.56	2312.16
733.74	2166.75
733.92	2441.18
734.10	2158.56
734.28	2318.30
734.46	2160.61
734.64	2240.48
734.82	2269.15
735.00	2226.14
735.18	2236.38
735.36	2263.01
735.54	2252.77
735.73	2220.00
735.91	2265.05
736.09	2363.36
736.27	2250.72
736.45	2297.82
736.63	2129.89
736.81	2203.61
736.99	2285.53
737.17	2355.16
737.35	2168.80
737.53	2230.24
737.71	2279.39
737.89	2324.44
738.07	2179.04
738.25	2064.35
738.43	2131.94
738.61	2166.75
738.80	2119.65
738.98	2164.70
739.16	2172.89
739.34	2144.22
739.52	2377.69
739.70	2236.38
739.88	2297.82
740.06	2324.44
740.24	2078.69
740.42	2332.64
740.60	2056.16
740.78	2211.81
740.96	2117.60
741.14	2273.25
741.32	2234.33
741.50	2101.22
741.68	2424.80
741.86	2340.83
742.04	2146.27
742.22	2260.96
742.40	2240.48
742.58	2310.11
742.76	2181.09
742.94	2377.69
743.12	2064.35
743.30	2271.20
743.48	2287.58
743.66	2181.09
743.84	2367.45
744.02	2267.10
744.20	2326.49
744.38	2201.57
744.56	2183.13
744.74	2471.90
744.92	2373.60
745.10	2422.75
745.28	2295.77
745.46	2437.08
745.64	2269.15
745.82	2316.25
746.00	2301.92
746.18	2211.81
746.36	2191.33
746.54	2258.91
746.72	2258.91
746.90	2189.28
747.08	2303.96
747.26	2201.57
747.44	2324.44
747.62	2287.58
747.80	2297.82
747.98	2353.12
748.15	2220.00
748.33	2437.08
748.51	2258.91
748.69	2269.15
748.87	2199.52
749.05	2271.20
749.23	2246.62
749.41	2250.72
749.59	2191.33
749.77	2422.75
749.95	2228.19
750.13	2197.47
750.31	2269.15
750.49	2293.72
750.67	2365.40
750.85	2394.08
751.03	2256.86
751.20	2455.51
751.38	2207.71
751.56	2238.43
751.74	2260.96
751.92	2236.38
752.10	2199.52
752.28	2416.60
752.46	2187.23
752.64	2152.42
752.82	2191.33
753.00	2367.45
753.18	2228.19
753.35	2301.92
753.53	2224.09
753.71	2279.39
753.89	2246.62
754.07	2236.38
754.25	2375.64
754.43	2269.15
754.61	2119.65
754.79	2244.57
754.97	2250.72
755.14	2349.02
755.32	2041.82
755.50	2244.57
755.68	2303.96
755.86	2154.46
756.04	2127.84
756.22	2117.60
756.40	2379.74
756.57	2521.05
756.75	2250.72
756.93	2359.26
757.11	2275.29
757.29	2080.74
757.47	2136.03
757.65	2080.74
757.82	2054.11
758.00	2228.19
758.18	2176.99
758.36	2117.60
758.54	2410.46
758.72	2164.70
758.90	2387.93
759.07	2226.14
759.25	2215.90
759.43	2283.49
759.61	2099.17
759.79	3184.59
759.97	2322.40
760.15	2238.43
760.32	2197.47
760.50	2240.48
760.68	2396.12
760.86	2156.51
761.04	2361.31
761.22	2387.93
761.39	2293.72
761.57	2324.44
761.75	2263.01
761.93	2277.34
762.11	2293.72
762.28	2207.71
762.46	2254.81
762.64	2379.74
762.82	2148.32
763.00	2250.72
763.18	2338.78
763.35	2138.08
763.53	2330.59
763.71	2236.38
763.89	2246.62
764.07	2267.10
764.24	2209.76
764.42	2389.98
764.60	2168.80
764.78	2285.53
764.96	2301.92
765.13	2465.75
765.31	2224.09
765.49	2289.63
765.67	2113.50
765.84	2158.56
766.02	2258.91
766.20	2076.64
766.38	2277.34
766.56	2224.09
766.73	2306.01
766.91	2242.53
767.09	2244.57
767.27	2310.11
767.44	2166.75
767.62	2342.88
767.80	2236.38
767.98	2199.52
768.15	2160.61
768.33	2392.03
768.51	2353.12
768.69	2244.57
768.87	2326.49
769.04	2201.57
769.22	2449.37
769.40	2512.86
769.58	2482.14
769.75	2357.21
769.93	2340.83
770.11	2209.76
770.28	2172.89
770.46	2285.53
770.64	2256.86
770.82	2232.29
770.99	2238.43
771.17	2312.16
771.35	2213.85
771.53	2238.43
771.70	2254.81
771.88	2330.59
772.06	2250.72
772.23	2246.62
772.41	2373.60
772.59	2297.82
772.77	2176.99
772.94	2244.57
773.12	2283.49
773.30	2271.20
773.47	2314.20
773.65	2179.04
773.83	2379.74
774.01	2236.38
774.18	2090.98
774.36	2314.20
774.54	2140.13
774.71	2277.34
774.89	2019.30
775.07	2138.08
775.24	2199.52
775.42	2187.23
775.60	2435.03
775.78	2230.24
775.95	2090.98
776.13	2150.37
776.31	2127.84
776.48	2269.15
776.66	2400.22
776.84	2191.33
777.01	2189.28
777.19	2138.08
777.37	2187.23
777.54	2277.34
777.72	2418.65
777.90	2318.30
778.07	2097.12
778.25	2498.52
778.43	2332.64
778.60	2138.08
778.78	2285.53
778.96	2334.68
779.13	2160.61
779.31	2340.83
779.49	2246.62
779.66	2236.38
779.84	2156.51
780.01	2199.52
780.19	2158.56
780.37	2428.89
780.54	2314.20
780.72	2197.47
780.90	2207.71
781.07	2279.39
781.25	2154.46
781.43	2291.68
781.60	2256.86
781.78	2334.68
781.95	2303.96
782.13	2215.90
782.31	2185.18
782.48	2039.78
782.66	2228.19
782.83	2480.09
783.01	2236.38
783.19	2324.44
783.36	2248.67
783.54	2127.84
783.72	2408.41
783.89	2205.66
784.07	2201.57
784.24	2299.87
784.42	2303.96
784.60	2318.30
784.77	2279.39
784.95	2084.83
785.12	2062.30
785.30	2252.77
785.47	2181.09
785.65	2179.04
785.83	2246.62
786.00	2254.81
786.18	2238.43
786.35	2146.27
786.53	2195.42
786.71	2318.30
786.88	2330.59
787.06	2248.67
787.23	2267.10
787.41	2133.98
787.58	2203.61
787.76	2215.90
787.94	2207.71
788.11	2256.86
788.29	2076.64
788.46	2181.09
788.64	2093.02
788.81	2269.15
788.99	2181.09
789.16	2078.69
789.34	2228.19
789.52	2154.46
789.69	2269.15
789.87	2035.68
790.04	2154.46
790.22	2197.47
790.39	2441.18
790.57	2127.84
790.74	2201.57
790.92	2322.40
791.09	2052.06
791.27	2250.72
791.44	2310.11
791.62	2181.09
791.79	2387.93
791.97	2252.77
792.15	2504.67
792.32	2326.49
792.50	2293.72
792.67	2449.37
792.85	2361.31
793.02	2275.29
793.20	2254.81
793.37	2154.46
793.55	2158.56
793.72	2129.89
793.90	2250.72
794.07	2158.56
794.25	2121.70
794.42	2277.34
794.60	2230.24
794.77	2230.24
794.95	2265.05
795.12	2377.69
795.30	2230.24
795.47	2039.78
795.65	2537.43
795.82	2285.53
796.00	2244.57
796.17	2310.11
796.34	2146.27
796.52	2148.32
796.69	2287.58
796.87	2250.72
797.04	2480.09
797.22	2330.59
797.39	2203.61
797.57	2338.78
797.74	2285.53
797.92	2312.16
798.09	2273.25
798.27	2373.60
798.44	2222.05
798.62	2160.61
798.79	2271.20
798.96	2265.05
799.14	2162.66
799.31	2557.91
799.49	2201.57
799.66	2172.89
799.84	2236.38
800.01	2154.46
800.19	2342.88
800.36	2105.31
800.53	2244.57
800.71	2308.06
800.88	2406.36
801.06	2187.23
801.23	2191.33
801.41	2185.18
801.58	2146.27
801.75	2152.42
801.93	2277.34
802.10	2396.12
802.28	2220.00
802.45	2281.44
802.63	2279.39
802.80	2484.19
802.97	2129.89
803.15	2230.24
803.32	2199.52
803.50	2072.54
803.67	2105.31
803.84	2150.37
804.02	2209.76
804.19	2160.61
804.37	2060.26
804.54	2088.93
804.71	2240.48
804.89	2332.64
805.06	2095.07
805.24	2222.05
805.41	2111.46
805.58	2230.24
805.76	2484.19
805.93	2158.56
806.10	2389.98
806.28	2291.68
806.45	2203.61
806.63	2295.77
806.80	2310.11
806.97	2353.12
807.15	2330.59
807.32	2179.04
807.49	2234.33
807.67	2133.98
807.84	2332.64
808.01	2154.46
808.19	2316.25
808.36	2535.39
808.54	2193.37
808.71	2185.18
808.88	2195.42
809.06	2301.92
809.23	2412.51
809.40	2193.37
809.58	2254.81
809.75	2258.91
809.92	2146.27
810.10	2471.90
810.27	2244.57
810.44	2285.53
810.62	2318.30
810.79	2228.19
810.96	2133.98
811.14	2234.33
811.31	2344.92
811.48	2326.49
811.66	2244.57
811.83	2336.73
812.00	2310.11
812.18	2340.83
812.35	2461.66
812.52	2097.12
812.69	2224.09
812.87	2267.10
813.04	2195.42
813.21	2228.19
813.39	2176.99
813.56	2201.57
813.73	2398.17
813.91	2140.13
814.08	2314.20
814.25	2252.77
814.42	2105.31
814.60	2355.16
814.77	2265.05
814.94	2269.15
815.12	2187.23
815.29	2375.64
815.46	2156.51
815.63	2248.67
815.81	2281.44
815.98	2179.04
816.15	2224.09
816.33	2285.53
816.50	2232.29
816.67	2289.63
816.84	2252.77
817.02	2170.85
817.19	2244.57
817.36	2226.14
817.53	2289.63
817.71	2197.47
817.88	2396.12
818.05	2236.38
818.22	2203.61
818.40	2426.84
818.57	2199.52
818.74	2230.24
818.91	2236.38
819.09	2340.83
819.26	2301.92
819.43	2150.37
819.60	2207.71
819.78	2314.20
819.95	2308.06
820.12	2232.29
820.29	2330.59
820.47	2381.79
820.64	2176.99
820.81	2111.46
820.98	2133.98
821.15	2269.15
821.33	2377.69
821.50	2107.36
821.67	2334.68
821.84	2252.77
822.02	2260.96
822.19	2256.86
822.36	2222.05
822.53	2222.05
822.70	2129.89
822.88	2176.99
823.05	2289.63
823.22	2228.19
823.39	2346.97
823.56	2273.25
823.74	2402.27
823.91	2203.61
824.08	2146.27
824.25	2150.37
824.42	2363.36
824.60	2090.98
824.77	2314.20
824.94	2209.76
825.11	2277.34
825.28	2146.27
825.45	2293.72
825.63	2293.72
825.80	2228.19
825.97	2373.60
826.14	2316.25
826.31	2095.07
826.48	2265.05
826.66	2148.32
826.83	2172.89
827.00	2207.71
827.17	2170.85
827.34	2201.57
827.51	2263.01
827.69	2281.44
827.86	2166.75
828.03	2281.44
828.20	2279.39
828.37	2217.95
828.54	2269.15
828.71	2164.70
828.89	2389.98
829.06	2236.38
829.23	2379.74
829.40	2140.13
829.57	2156.51
829.74	2336.73
829.91	2152.42
830.09	2232.29
830.26	2310.11
830.43	2379.74
830.60	2258.91
830.77	2256.86
830.94	2312.16
831.11	2373.60
831.28	2228.19
831.46	2281.44
831.63	2152.42
831.80	2457.56
831.97	2146.27
832.14	2170.85
832.31	2248.67
832.48	2250.72
832.65	2367.45
832.82	2267.10
832.99	2310.11
833.17	2176.99
833.34	2349.02
833.51	2240.48
833.68	2068.45
833.85	2299.87
834.02	2152.42
834.19	2039.78
834.36	2209.76
834.53	2195.42
834.70	2330.59
834.87	2303.96
835.04	2209.76
835.22	2185.18
835.39	2222.05
835.56	2203.61
835.73	2189.28
835.90	2242.53
836.07	2154.46
836.24	2273.25
836.41	2183.13
836.58	2136.03
836.75	2310.11
836.92	2142.18
837.09	2138.08
837.26	2267.10
837.43	2342.88
837.60	2295.77
837.77	2250.72
837.94	2338.78
838.12	2426.84
838.29	2250.72
838.46	2105.31
838.63	2099.17
838.80	2420.70
838.97	2330.59
839.14	2162.66
839.31	2203.61
839.48	2371.55
839.65	2179.04
839.82	2275.29
839.99	2187.23
840.16	2275.29
840.33	2144.22
840.50	2179.04
840.67	2207.71
840.84	1964.00
841.01	2172.89
841.18	2131.94
841.35	2162.66
841.52	2318.30
841.69	2441.18
841.86	2217.95
842.03	2297.82
842.20	2351.07
842.37	2220.00
842.54	2179.04
842.71	2279.39
842.88	2144.22
843.05	2236.38
843.22	2254.81
843.39	2310.11
843.56	2174.94
843.73	2201.57
843.90	2228.19
844.07	2189.28
844.24	2340.83
844.41	2330.59
844.58	2273.25
844.75	2226.14
844.92	2367.45
845.09	2215.90
845.26	2152.42
845.43	2199.52
845.60	2228.19
845.77	2377.69
845.94	2258.91
846.10	2359.26
846.27	2097.12
846.44	2160.61
846.61	2082.78
846.78	2322.40
846.95	2287.58
847.12	2179.04
847.29	2158.56
847.46	2224.09
847.63	2334.68
847.80	2152.42
847.97	2170.85
848.14	2519.00
848.31	2179.04
848.48	2150.37
848.65	2269.15
848.82	2152.42
848.98	2490.33
849.15	2299.87
849.32	2334.68
849.49	2365.40
849.66	2232.29
849.83	2213.85
850.00	2127.84
850.17	2379.74
850.34	2131.94
850.51	2209.76
850.68	2164.70
850.85	2424.80
851.01	2271.20
851.18	2252.77
851.35	2209.76
851.52	2346.97
851.69	2371.55
851.86	2144.22
852.03	2158.56
852.20	2334.68
852.37	2228.19
852.53	2039.78
852.70	2252.77
852.87	2234.33
853.04	2265.05
853.21	2195.42
853.38	2297.82
853.55	2330.59
853.72	2416.60
853.89	2166.75
854.05	2133.98
854.22	2275.29
854.39	2211.81
854.56	2222.05
854.73	2326.49
854.90	2181.09
855.07	2260.96
855.23	2146.27
855.40	2170.85
855.57	2277.34
855.74	2031.58
855.91	2414.56
856.08	2107.36
856.25	2176.99
856.41	2140.13
856.58	2129.89
856.75	2252.77
856.92	2164.70
857.09	2404.32
857.26	2082.78
857.42	2172.89
857.59	2258.91
857.76	2299.87
857.93	2195.42
858.10	2275.29
858.27	2150.37
858.43	2277.34
858.60	2127.84
858.77	2093.02
858.94	2162.66
859.11	2340.83
859.27	2211.81
859.44	2252.77
859.61	2496.47
859.78	2312.16
859.95	2193.37
860.12	2172.89
860.28	2447.32
860.45	2447.32
860.62	2187.23
860.79	2215.90
860.95	2242.53
861.12	2129.89
861.29	2138.08
861.46	2158.56
861.63	2256.86
861.79	2150.37
861.96	2105.31
862.13	2174.94
862.30	2416.60
862.47	2133.98
862.63	2154.46
862.80	2297.82
862.97	2328.54
863.14	2265.05
863.30	2250.72
863.47	2160.61
863.64	2418.65
863.81	2281.44
863.97	2222.05
864.14	2215.90
864.31	2168.80
864.48	2224.09
864.65	2144.22
864.81	2293.72
864.98	2281.44
865.15	2340.83
865.32	2244.57
865.48	2265.05
865.65	2459.61
865.82	2176.99
865.98	2283.49
866.15	2322.40
866.32	2263.01
866.49	2197.47
866.65	2287.58
866.82	2125.79
866.99	2242.53
867.16	2193.37
867.32	2152.42
867.49	2183.13
867.66	2138.08
867.83	2172.89
867.99	2070.50
868.16	2285.53
868.33	2148.32
868.49	2189.28
868.66	2209.76
868.83	2308.06
868.99	2263.01
869.16	2258.91
869.33	2334.68
869.50	2275.29
869.66	2191.33
869.83	2246.62
870.00	2138.08
870.16	2326.49
870.33	2154.46
870.50	2287.58
870.66	2201.57
870.83	2279.39
871.00	2238.43
871.17	2291.68
871.33	2265.05
871.50	2195.42
871.67	2236.38
871.83	2217.95
872.00	2285.53
872.17	2187.23
872.33	2406.36
872.50	2365.40
872.67	2244.57
872.83	2183.13
873.00	2267.10
873.17	2293.72
873.33	2312.16
873.50	2232.29
873.67	2152.42
873.83	2226.14
874.00	2162.66
874.16	2250.72
874.33	2207.71
874.50	2158.56
874.66	2236.38
874.83	2228.19
875.00	2387.93
875.16	2344.92
875.33	2353.12
875.50	2002.91
875.66	2220.00
875.83	2160.61
875.99	2306.01
876.16	2197.47
876.33	2203.61
876.49	2244.57
876.66	2301.92
876.83	2228.19
876.99	2029.54
877.16	2277.34
877.32	2158.56
877.49	2195.42
877.66	2324.44
877.82	2344.92
877.99	2260.96
878.15	2303.96
878.32	2308.06
878.49	2279.39
878.65	2115.55
878.82	2351.07
878.98	2199.52
879.15	2326.49
879.32	2250.72
879.48	2211.81
879.65	2187.23
879.81	2205.66
879.98	2123.74
880.15	2146.27
880.31	2367.45
880.48	2254.81
880.64	2279.39
880.81	2299.87
880.97	2428.89
881.14	2363.36
881.31	2152.42
881.47	2351.07
881.64	2203.61
881.80	2129.89
881.97	2303.96
882.13	2285.53
882.30	2052.06
882.47	2113.50
882.63	2138.08
882.80	2179.04
882.96	2203.61
883.13	2357.21
883.29	2258.91
883.46	2263.01
883.62	2410.46
883.79	2328.54
883.95	2281.44
884.12	2201.57
884.29	2349.02
884.45	2217.95
884.62	2205.66
884.78	2144.22
884.95	2432.99
885.11	2129.89
885.28	2258.91
885.44	2174.94
885.61	2242.53
885.77	2420.70
885.94	2246.62
886.10	2105.31
886.27	2285.53
886.43	2557.91
886.60	2289.63
886.76	2146.27
886.93	2140.13
887.09	2260.96
887.26	2080.74
887.42	2179.04
887.59	2377.69
887.75	2465.75
887.92	2344.92
888.08	2277.34
888.25	2379.74
888.41	2281.44
888.58	2269.15
888.74	2125.79
888.91	2207.71
>>>>>End Processed Spectral Data<<<<<
