SpectraSuite Data File
++++++++++++++++++++++++++++++++++++
Date: Thu May 05 13:21:13 CEST 2016
User: root
Dark Spectrum Present: No
Reference Spectrum Present: No
Number of Sampled Component Spectra: 1
Spectrometers: USB4C02835
Integration Time (usec): 100000 (USB4C02835)
Spectra Averaged: 1 (USB4C02835)
Boxcar Smoothing: 0 (USB4C02835)
Correct for Electrical Dark: No (USB4C02835)
Strobe/Lamp Enabled: No (USB4C02835)
Correct for Detector Non-linearity: No (USB4C02835)
Correct for Stray Light: No (USB4C02835)
Number of Pixels in Processed Spectrum: 3648
>>>>>Begin Processed Spectral Data<<<<<
177.47	1736.68
177.69	1736.68
177.91	1736.68
178.13	1820.64
178.36	1742.82
178.58	2209.76
178.80	2232.29
179.02	2121.70
179.24	2123.74
179.46	2166.75
179.68	2220.00
179.90	2269.15
180.13	2277.34
180.35	2082.78
180.57	2158.56
180.79	2385.88
181.01	2250.72
181.23	2211.81
181.45	2301.92
181.67	2277.34
181.90	2328.54
182.12	2170.85
182.34	2097.12
182.56	2291.68
182.78	2258.91
183.00	2199.52
183.22	2244.57
183.44	2047.97
183.66	2480.09
183.89	2318.30
184.11	2174.94
184.33	2301.92
184.55	2359.26
184.77	2154.46
184.99	2152.42
185.21	2183.13
185.43	2498.52
185.65	2164.70
185.87	2109.41
186.10	2435.03
186.32	2496.47
186.54	2228.19
186.76	2269.15
186.98	2295.77
187.20	2269.15
187.42	2162.66
187.64	2265.05
187.86	2314.20
188.08	2404.32
188.30	2076.64
188.52	2129.89
188.75	2349.02
188.97	2334.68
189.19	2142.18
189.41	2179.04
189.63	2267.10
189.85	2248.67
190.07	2037.73
190.29	2043.87
190.51	2285.53
190.73	2228.19
190.95	2308.06
191.17	2170.85
191.39	2131.94
191.61	2189.28
191.84	2170.85
192.06	2306.01
192.28	2136.03
192.50	2531.29
192.72	2211.81
192.94	2185.18
193.16	2432.99
193.38	2293.72
193.60	2133.98
193.82	2209.76
194.04	2404.32
194.26	2285.53
194.48	2193.37
194.70	2136.03
194.92	2181.09
195.14	2322.40
195.36	2217.95
195.58	2246.62
195.80	2291.68
196.02	2230.24
196.24	2150.37
196.46	2199.52
196.69	2228.19
196.91	2523.10
197.13	2201.57
197.35	2146.27
197.57	2412.51
197.79	2312.16
198.01	2281.44
198.23	2254.81
198.45	2277.34
198.67	2076.64
198.89	2086.88
199.11	2303.96
199.33	2211.81
199.55	2060.26
199.77	2181.09
199.99	2283.49
200.21	2160.61
200.43	2203.61
200.65	2052.06
200.87	2062.30
201.09	2256.86
201.31	2162.66
201.53	2176.99
201.75	2291.68
201.97	2330.59
202.19	2205.66
202.41	2234.33
202.63	2344.92
202.85	2306.01
203.07	2224.09
203.29	2181.09
203.51	2084.83
203.73	2170.85
203.95	2529.24
204.17	2136.03
204.39	2232.29
204.61	2193.37
204.83	2213.85
205.05	2189.28
205.27	2220.00
205.49	2498.52
205.71	2316.25
205.93	2129.89
206.15	2129.89
206.37	2166.75
206.59	2250.72
206.81	2138.08
207.03	2031.58
207.25	2111.46
207.47	2293.72
207.69	2207.71
207.91	2306.01
208.13	2408.41
208.34	2189.28
208.56	2133.98
208.78	2174.94
209.00	2254.81
209.22	2201.57
209.44	2228.19
209.66	2117.60
209.88	2271.20
210.10	2265.05
210.32	2156.51
210.54	2220.00
210.76	2267.10
210.98	2312.16
211.20	2076.64
211.42	2224.09
211.64	2351.07
211.86	2293.72
212.08	2176.99
212.30	2205.66
212.52	2207.71
212.74	2275.29
212.96	2248.67
213.17	2308.06
213.39	2258.91
213.61	2424.80
213.83	2138.08
214.05	2170.85
214.27	2357.21
214.49	2136.03
214.71	2195.42
214.93	2318.30
215.15	2258.91
215.37	2281.44
215.59	2111.46
215.81	2269.15
216.03	2400.22
216.24	2285.53
216.46	2209.76
216.68	2265.05
216.90	2316.25
217.12	2369.50
217.34	2220.00
217.56	2220.00
217.78	2430.94
218.00	2349.02
218.22	2224.09
218.44	2217.95
218.66	2250.72
218.87	2478.04
219.09	2189.28
219.31	2240.48
219.53	2240.48
219.75	2220.00
219.97	2228.19
220.19	2220.00
220.41	2287.58
220.63	2437.08
220.85	2277.34
221.06	2183.13
221.28	2357.21
221.50	2254.81
221.72	2271.20
221.94	2162.66
222.16	2213.85
222.38	2344.92
222.60	2232.29
222.82	2146.27
223.03	2424.80
223.25	2183.13
223.47	2183.13
223.69	2314.20
223.91	2392.03
224.13	2306.01
224.35	2127.84
224.57	2265.05
224.78	2217.95
225.00	2168.80
225.22	2232.29
225.44	2152.42
225.66	2330.59
225.88	2254.81
226.10	2263.01
226.32	2160.61
226.53	2375.64
226.75	2174.94
226.97	2203.61
227.19	2195.42
227.41	2176.99
227.63	2162.66
227.85	2004.96
228.06	2209.76
228.28	2367.45
228.50	2285.53
228.72	2103.26
228.94	2179.04
229.16	2052.06
229.37	2148.32
229.59	2179.04
229.81	2334.68
230.03	2209.76
230.25	2117.60
230.47	1966.05
230.69	2148.32
230.90	2342.88
231.12	2211.81
231.34	2220.00
231.56	2361.31
231.78	2115.55
232.00	2291.68
232.21	2166.75
232.43	2203.61
232.65	2076.64
232.87	2275.29
233.09	2099.17
233.30	2136.03
233.52	2349.02
233.74	2203.61
233.96	2191.33
234.18	2263.01
234.40	2263.01
234.61	2473.95
234.83	2072.54
235.05	2072.54
235.27	2482.14
235.49	2375.64
235.70	2193.37
235.92	2258.91
236.14	2279.39
236.36	2537.43
236.58	2064.35
236.79	2185.18
237.01	2316.25
237.23	2189.28
237.45	2330.59
237.67	2176.99
237.88	2285.53
238.10	2496.47
238.32	2084.83
238.54	2185.18
238.76	2183.13
238.97	2170.85
239.19	2099.17
239.41	2238.43
239.63	2299.87
239.85	2260.96
240.06	2162.66
240.28	2150.37
240.50	2400.22
240.72	2228.19
240.93	2144.22
241.15	2228.19
241.37	2291.68
241.59	2367.45
241.81	2185.18
242.02	2144.22
242.24	2244.57
242.46	2340.83
242.68	2133.98
242.89	2174.94
243.11	2318.30
243.33	2291.68
243.55	2164.70
243.76	2207.71
243.98	2191.33
244.20	2287.58
244.42	2127.84
244.64	2140.13
244.85	2154.46
245.07	2176.99
245.29	2213.85
245.51	2226.14
245.72	2263.01
245.94	2373.60
246.16	2252.77
246.38	2306.01
246.59	2224.09
246.81	2080.74
247.03	2138.08
247.24	2113.50
247.46	2154.46
247.68	2222.05
247.90	2117.60
248.11	2123.74
248.33	2291.68
248.55	2162.66
248.77	2142.18
248.98	2244.57
249.20	2490.33
249.42	2297.82
249.64	2140.13
249.85	2179.04
250.07	2211.81
250.29	2330.59
250.50	2277.34
250.72	2068.45
250.94	2318.30
251.16	2404.32
251.37	2158.56
251.59	2199.52
251.81	2248.67
252.02	2394.08
252.24	2105.31
252.46	2244.57
252.68	2179.04
252.89	2197.47
253.11	2062.30
253.33	2371.55
253.54	2342.88
253.76	2146.27
253.98	2148.32
254.20	2136.03
254.41	2117.60
254.63	2281.44
254.85	2039.78
255.06	2220.00
255.28	2267.10
255.50	2299.87
255.71	2111.46
255.93	2131.94
256.15	2215.90
256.36	2318.30
256.58	2154.46
256.80	2176.99
257.02	2213.85
257.23	2166.75
257.45	2162.66
257.67	2318.30
257.88	2150.37
258.10	2308.06
258.32	2154.46
258.53	2185.18
258.75	2478.04
258.97	2199.52
259.18	2197.47
259.40	2238.43
259.62	2455.51
259.83	2342.88
260.05	2170.85
260.27	2623.45
260.48	2371.55
260.70	2109.41
260.92	2068.45
261.13	2162.66
261.35	2318.30
261.57	2359.26
261.78	2133.98
262.00	2129.89
262.22	2285.53
262.43	2117.60
262.65	2242.53
262.86	2209.76
263.08	2449.37
263.30	2269.15
263.51	2015.20
263.73	2086.88
263.95	2340.83
264.16	2187.23
264.38	2084.83
264.60	2226.14
264.81	2293.72
265.03	2353.12
265.25	2324.44
265.46	2133.98
265.68	2408.41
265.89	2314.20
266.11	2152.42
266.33	2162.66
266.54	2291.68
266.76	2230.24
266.98	2248.67
267.19	2310.11
267.41	2363.36
267.62	2281.44
267.84	2068.45
268.06	2236.38
268.27	2156.51
268.49	2375.64
268.70	2299.87
268.92	2226.14
269.14	2164.70
269.35	2117.60
269.57	2189.28
269.79	2269.15
270.00	2148.32
270.22	2523.10
270.43	2150.37
270.65	2037.73
270.87	2312.16
271.08	2328.54
271.30	2187.23
271.51	2170.85
271.73	2334.68
271.95	2379.74
272.16	2164.70
272.38	2265.05
272.59	2131.94
272.81	2308.06
273.02	2258.91
273.24	2217.95
273.46	2338.78
273.67	2166.75
273.89	2103.26
274.10	2160.61
274.32	2389.98
274.54	2301.92
274.75	2265.05
274.97	2080.74
275.18	2295.77
275.40	2346.97
275.61	2160.61
275.83	2236.38
276.05	2121.70
276.26	2271.20
276.48	2168.80
276.69	2230.24
276.91	2263.01
277.12	2359.26
277.34	2283.49
277.55	2387.93
277.77	2340.83
277.99	2211.81
278.20	2213.85
278.42	2105.31
278.63	2162.66
278.85	2086.88
279.06	2121.70
279.28	2242.53
279.49	2351.07
279.71	2394.08
279.93	2205.66
280.14	2310.11
280.36	2176.99
280.57	2412.51
280.79	2256.86
281.00	2113.50
281.22	2220.00
281.43	2322.40
281.65	2015.20
281.86	2152.42
282.08	2277.34
282.29	2441.18
282.51	2187.23
282.73	2115.55
282.94	2127.84
283.16	2250.72
283.37	2357.21
283.59	2252.77
283.80	2324.44
284.02	2207.71
284.23	2244.57
284.45	2185.18
284.66	2174.94
284.88	2127.84
285.09	2277.34
285.31	2207.71
285.52	2244.57
285.74	2072.54
285.95	2318.30
286.17	2271.20
286.38	2392.03
286.60	2193.37
286.81	2088.93
287.03	2158.56
287.24	2244.57
287.46	2324.44
287.67	2220.00
287.89	2435.03
288.10	2217.95
288.32	2263.01
288.53	2332.64
288.75	2289.63
288.96	2293.72
289.18	2209.76
289.39	2203.61
289.61	2285.53
289.82	2502.62
290.04	2422.75
290.25	2078.69
290.47	2179.04
290.68	2273.25
290.90	2398.17
291.11	2105.31
291.33	2412.51
291.54	2133.98
291.76	2201.57
291.97	2283.49
292.18	2248.67
292.40	2197.47
292.61	2138.08
292.83	2437.08
293.04	2318.30
293.26	2254.81
293.47	2267.10
293.69	2166.75
293.90	2162.66
294.12	2449.37
294.33	2222.05
294.55	2220.00
294.76	2260.96
294.97	2410.46
295.19	2519.00
295.40	2230.24
295.62	2238.43
295.83	2342.88
296.05	2191.33
296.26	2310.11
296.48	2226.14
296.69	2183.13
296.90	2273.25
297.12	2310.11
297.33	2371.55
297.55	2289.63
297.76	2242.53
297.98	2289.63
298.19	2256.86
298.41	2285.53
298.62	2127.84
298.83	2418.65
299.05	2238.43
299.26	2176.99
299.48	2244.57
299.69	2203.61
299.90	2181.09
300.12	2121.70
300.33	2369.50
300.55	2234.33
300.76	2256.86
300.98	2203.61
301.19	2301.92
301.40	2176.99
301.62	2211.81
301.83	2207.71
302.05	2250.72
302.26	2193.37
302.47	2246.62
302.69	2095.07
302.90	2224.09
303.12	2093.02
303.33	2332.64
303.54	2521.05
303.76	2191.33
303.97	2236.38
304.19	2414.56
304.40	2144.22
304.61	2301.92
304.83	2392.03
305.04	2322.40
305.26	2263.01
305.47	2224.09
305.68	2195.42
305.90	2148.32
306.11	2377.69
306.33	2285.53
306.54	2203.61
306.75	2166.75
306.97	2117.60
307.18	2140.13
307.39	2244.57
307.61	2346.97
307.82	2293.72
308.04	2310.11
308.25	2207.71
308.46	2205.66
308.68	2287.58
308.89	2295.77
309.10	2379.74
309.32	2275.29
309.53	2275.29
309.74	2283.49
309.96	2281.44
310.17	2342.88
310.39	2277.34
310.60	2340.83
310.81	2176.99
311.03	2095.07
311.24	2324.44
311.45	2283.49
311.67	2412.51
311.88	2303.96
312.09	2269.15
312.31	2168.80
312.52	2199.52
312.73	2191.33
312.95	2166.75
313.16	2072.54
313.37	2351.07
313.59	2285.53
313.80	2342.88
314.01	2412.51
314.23	2164.70
314.44	2127.84
314.65	2209.76
314.87	2150.37
315.08	2228.19
315.29	2236.38
315.51	2121.70
315.72	2080.74
315.93	2281.44
316.15	2297.82
316.36	2246.62
316.57	2301.92
316.79	2185.18
317.00	2168.80
317.21	2346.97
317.43	2226.14
317.64	2252.77
317.85	2146.27
318.07	2195.42
318.28	2238.43
318.49	2312.16
318.70	2449.37
318.92	2310.11
319.13	2361.31
319.34	2506.71
319.56	2353.12
319.77	2295.77
319.98	2375.64
320.20	2351.07
320.41	2359.26
320.62	2293.72
320.83	2174.94
321.05	2461.66
321.26	2263.01
321.47	2250.72
321.69	2430.94
321.90	2138.08
322.11	2144.22
322.32	2381.79
322.54	2373.60
322.75	2228.19
322.96	2527.19
323.18	2133.98
323.39	2119.65
323.60	2215.90
323.81	2324.44
324.03	2252.77
324.24	2203.61
324.45	2246.62
324.66	2209.76
324.88	2334.68
325.09	2359.26
325.30	2201.57
325.52	2281.44
325.73	2246.62
325.94	2150.37
326.15	2062.30
326.37	2148.32
326.58	2293.72
326.79	2445.27
327.00	2117.60
327.22	2271.20
327.43	2160.61
327.64	2154.46
327.85	2269.15
328.07	2269.15
328.28	2328.54
328.49	2150.37
328.70	2252.77
328.92	2248.67
329.13	2181.09
329.34	2306.01
329.55	2351.07
329.76	2428.89
329.98	2340.83
330.19	2398.17
330.40	2254.81
330.61	2273.25
330.83	2355.16
331.04	2179.04
331.25	2168.80
331.46	2238.43
331.68	2113.50
331.89	2318.30
332.10	2314.20
332.31	2152.42
332.52	2359.26
332.74	2338.78
332.95	2039.78
333.16	2183.13
333.37	2301.92
333.58	2154.46
333.80	2211.81
334.01	2056.16
334.22	2349.02
334.43	2160.61
334.64	2246.62
334.86	2082.78
335.07	2129.89
335.28	2422.75
335.49	2109.41
335.70	2277.34
335.92	2414.56
336.13	2506.71
336.34	2306.01
336.55	2244.57
336.76	2342.88
336.98	2119.65
337.19	2209.76
337.40	2295.77
337.61	2531.29
337.82	2172.89
338.04	2269.15
338.25	2105.31
338.46	2217.95
338.67	2191.33
338.88	2160.61
339.09	2170.85
339.31	2154.46
339.52	2088.93
339.73	2166.75
339.94	2285.53
340.15	2342.88
340.36	2203.61
340.58	2275.29
340.79	2076.64
341.00	2383.84
341.21	2121.70
341.42	2373.60
341.63	2238.43
341.85	2314.20
342.06	2301.92
342.27	2162.66
342.48	2285.53
342.69	2162.66
342.90	2285.53
343.12	2234.33
343.33	2168.80
343.54	2404.32
343.75	2394.08
343.96	2244.57
344.17	2201.57
344.38	2244.57
344.60	2187.23
344.81	2160.61
345.02	2207.71
345.23	2373.60
345.44	2578.39
345.65	2310.11
345.86	2328.54
346.07	2248.67
346.29	2244.57
346.50	2279.39
346.71	2179.04
346.92	2404.32
347.13	2484.19
347.34	2166.75
347.55	2170.85
347.76	2291.68
347.98	2125.79
348.19	2236.38
348.40	2441.18
348.61	2185.18
348.82	2371.55
349.03	2236.38
349.24	2234.33
349.45	2514.91
349.66	2050.02
349.88	2199.52
350.09	2121.70
350.30	2392.03
350.51	2412.51
350.72	2283.49
350.93	2310.11
351.14	2170.85
351.35	2263.01
351.56	2275.29
351.77	2201.57
351.99	2293.72
352.20	2455.51
352.41	2308.06
352.62	2062.30
352.83	2283.49
353.04	2314.20
353.25	2160.61
353.46	2324.44
353.67	2328.54
353.88	2070.50
354.09	2244.57
354.30	2164.70
354.52	2346.97
354.73	2217.95
354.94	2170.85
355.15	2230.24
355.36	2473.95
355.57	2156.51
355.78	2267.10
355.99	2185.18
356.20	2183.13
356.41	2373.60
356.62	2324.44
356.83	2213.85
357.04	2357.21
357.25	2043.87
357.46	2160.61
357.68	2041.82
357.89	2133.98
358.10	2176.99
358.31	2297.82
358.52	2242.53
358.73	2201.57
358.94	2105.31
359.15	2133.98
359.36	2310.11
359.57	2338.78
359.78	2228.19
359.99	2336.73
360.20	2133.98
360.41	2310.11
360.62	2396.12
360.83	2234.33
361.04	2291.68
361.25	2260.96
361.46	2408.41
361.67	2326.49
361.88	2230.24
362.09	2404.32
362.30	2351.07
362.51	2193.37
362.72	2279.39
362.93	2351.07
363.14	2316.25
363.35	2281.44
363.56	2121.70
363.78	2398.17
363.99	2351.07
364.20	2242.53
364.41	2285.53
364.62	2527.19
364.83	2297.82
365.04	2099.17
365.25	2248.67
365.46	2539.48
365.67	2250.72
365.88	2187.23
366.09	2152.42
366.30	2152.42
366.51	2299.87
366.72	2144.22
366.93	2185.18
367.14	2306.01
367.35	2416.60
367.56	2242.53
367.77	2412.51
367.98	2283.49
368.18	2314.20
368.39	2281.44
368.60	2183.13
368.81	2357.21
369.02	2287.58
369.23	2244.57
369.44	2125.79
369.65	2213.85
369.86	2306.01
370.07	2381.79
370.28	2156.51
370.49	2346.97
370.70	2306.01
370.91	2203.61
371.12	2119.65
371.33	2351.07
371.54	2158.56
371.75	2355.16
371.96	1996.77
372.17	2344.92
372.38	2195.42
372.59	2265.05
372.80	2222.05
373.01	2287.58
373.22	2269.15
373.43	2187.23
373.64	2166.75
373.85	2371.55
374.06	2492.38
374.26	2336.73
374.47	2263.01
374.68	2367.45
374.89	2312.16
375.10	2226.14
375.31	2334.68
375.52	2269.15
375.73	2318.30
375.94	2109.41
376.15	2373.60
376.36	2160.61
376.57	2203.61
376.78	2164.70
376.99	2258.91
377.20	2359.26
377.40	2199.52
377.61	2322.40
377.82	2160.61
378.03	2447.32
378.24	2306.01
378.45	2244.57
378.66	2258.91
378.87	2123.74
379.08	2193.37
379.29	2168.80
379.50	2303.96
379.71	2236.38
379.91	2340.83
380.12	2250.72
380.33	2191.33
380.54	2201.57
380.75	2301.92
380.96	2203.61
381.17	2246.62
381.38	2277.34
381.59	2275.29
381.80	2234.33
382.00	2455.51
382.21	2306.01
382.42	2422.75
382.63	2559.96
382.84	2318.30
383.05	2398.17
383.26	2437.08
383.47	2244.57
383.68	2265.05
383.88	2324.44
384.09	2301.92
384.30	2375.64
384.51	2285.53
384.72	2269.15
384.93	2125.79
385.14	2230.24
385.35	2367.45
385.55	2119.65
385.76	2383.84
385.97	2269.15
386.18	2101.22
386.39	2236.38
386.60	2203.61
386.81	2183.13
387.02	2158.56
387.22	2068.45
387.43	2326.49
387.64	2312.16
387.85	2424.80
388.06	2469.85
388.27	3979.20
388.48	8148.87
388.68	11618.13
388.89	13766.45
389.10	14954.27
389.31	13952.81
389.52	10850.14
389.73	9281.39
389.93	8525.69
390.14	7849.86
390.35	6975.38
390.56	6428.57
390.77	5126.07
390.98	3882.95
391.18	3198.93
391.39	2801.62
391.60	2367.45
391.81	2293.72
392.02	2244.57
392.23	2531.29
392.43	2269.15
392.64	2346.97
392.85	2301.92
393.06	2457.56
393.27	2248.67
393.47	2201.57
393.68	2256.86
393.89	2187.23
394.10	2406.36
394.31	2193.37
394.52	2172.89
394.72	2146.27
394.93	2447.32
395.14	2170.85
395.35	2232.29
395.56	2072.54
395.76	2322.40
395.97	2318.30
396.18	2301.92
396.39	2369.50
396.60	2723.80
396.80	2459.61
397.01	2387.93
397.22	2441.18
397.43	2463.71
397.64	2199.52
397.84	2289.63
398.05	2578.39
398.26	2281.44
398.47	2398.17
398.67	2408.41
398.88	2351.07
399.09	2271.20
399.30	2193.37
399.51	2263.01
399.71	2136.03
399.92	2187.23
400.13	2310.11
400.34	2283.49
400.54	2252.77
400.75	2435.03
400.96	2269.15
401.17	2430.94
401.37	2361.31
401.58	2293.72
401.79	2131.94
402.00	2308.06
402.21	2678.74
402.41	2572.25
402.62	2592.73
402.83	2715.61
403.04	2660.31
403.24	2799.57
403.45	2318.30
403.66	2486.23
403.87	2455.51
404.07	2551.77
404.28	2502.62
404.49	2439.13
404.70	2383.84
404.90	2416.60
405.11	2299.87
405.32	2338.78
405.52	2220.00
405.73	2199.52
405.94	2187.23
406.15	2236.38
406.35	2363.36
406.56	2359.26
406.77	2265.05
406.98	2234.33
407.18	2138.08
407.39	2443.23
407.60	2211.81
407.80	2357.21
408.01	2217.95
408.22	2285.53
408.43	2185.18
408.63	2306.01
408.84	2310.11
409.05	2412.51
409.25	2172.89
409.46	2111.46
409.67	2203.61
409.88	2207.71
410.08	2213.85
410.29	2195.42
410.50	2289.63
410.70	2297.82
410.91	2236.38
411.12	2238.43
411.32	2279.39
411.53	2203.61
411.74	2410.46
411.95	2349.02
412.15	2326.49
412.36	2410.46
412.57	2342.88
412.77	2367.45
412.98	2254.81
413.19	2279.39
413.39	2332.64
413.60	2252.77
413.81	2389.98
414.01	2183.13
414.22	2318.30
414.43	2328.54
414.63	2254.81
414.84	2297.82
415.05	2183.13
415.25	2115.55
415.46	2303.96
415.67	2240.48
415.87	2273.25
416.08	2207.71
416.29	2242.53
416.49	2310.11
416.70	2191.33
416.91	2226.14
417.11	2187.23
417.32	2367.45
417.53	2365.40
417.73	2283.49
417.94	2209.76
418.15	2248.67
418.35	2273.25
418.56	2226.14
418.77	2541.53
418.97	2379.74
419.18	2295.77
419.38	2011.11
419.59	2301.92
419.80	2459.61
420.00	2228.19
420.21	2279.39
420.42	2381.79
420.62	2211.81
420.83	2166.75
421.04	2179.04
421.24	2250.72
421.45	2349.02
421.65	2295.77
421.86	2232.29
422.07	2324.44
422.27	2326.49
422.48	2203.61
422.69	2129.89
422.89	2269.15
423.10	2256.86
423.30	2168.80
423.51	2263.01
423.72	2222.05
423.92	2400.22
424.13	2127.84
424.33	2230.24
424.54	2285.53
424.75	2318.30
424.95	2361.31
425.16	2303.96
425.36	2207.71
425.57	2381.79
425.78	2318.30
425.98	2291.68
426.19	2230.24
426.39	2232.29
426.60	2232.29
426.81	2351.07
427.01	2293.72
427.22	2142.18
427.42	2097.12
427.63	2113.50
427.83	2334.68
428.04	2459.61
428.25	2408.41
428.45	2287.58
428.66	2375.64
428.86	2234.33
429.07	2201.57
429.28	2326.49
429.48	2320.35
429.69	2152.42
429.89	2283.49
430.10	2123.74
430.30	2316.25
430.51	2361.31
430.71	2220.00
430.92	2217.95
431.13	2222.05
431.33	2228.19
431.54	2355.16
431.74	2404.32
431.95	2441.18
432.15	2244.57
432.36	2322.40
432.56	2312.16
432.77	2535.39
432.98	2463.71
433.18	2283.49
433.39	2240.48
433.59	2195.42
433.80	2441.18
434.00	2496.47
434.21	2187.23
434.41	2095.07
434.62	2600.92
434.82	2205.66
435.03	2111.46
435.23	2357.21
435.44	2095.07
435.64	2220.00
435.85	2334.68
436.06	2381.79
436.26	2361.31
436.47	2254.81
436.67	2224.09
436.88	2273.25
437.08	2414.56
437.29	2396.12
437.49	2275.29
437.70	2455.51
437.90	2236.38
438.11	2422.75
438.31	2322.40
438.52	2523.10
438.72	2428.89
438.93	2588.63
439.13	2287.58
439.34	2383.84
439.54	2281.44
439.75	2277.34
439.95	2340.83
440.16	2222.05
440.36	2246.62
440.57	2269.15
440.77	2301.92
440.98	2224.09
441.18	2338.78
441.39	2187.23
441.59	2154.46
441.80	2512.86
442.00	2275.29
442.21	2375.64
442.41	2037.73
442.62	2387.93
442.82	2168.80
443.02	2193.37
443.23	2330.59
443.43	2220.00
443.64	2375.64
443.84	2215.90
444.05	2385.88
444.25	2230.24
444.46	2269.15
444.66	2289.63
444.87	2496.47
445.07	2072.54
445.28	2176.99
445.48	2365.40
445.69	2334.68
445.89	2449.37
446.09	2273.25
446.30	2553.82
446.50	2756.57
446.71	4493.24
446.91	5590.95
447.12	6289.31
447.32	6758.30
447.53	6162.34
447.73	5132.21
447.93	4493.24
448.14	4231.10
448.34	4030.40
448.55	3555.27
448.75	3536.84
448.96	3354.57
449.16	3039.19
449.36	2920.40
449.57	2521.05
449.77	2467.80
449.98	2267.10
450.18	2383.84
450.39	2355.16
450.59	2408.41
450.79	2340.83
451.00	2252.77
451.20	2338.78
451.41	2301.92
451.61	2281.44
451.81	2297.82
452.02	2203.61
452.22	2195.42
452.43	2201.57
452.63	2131.94
452.84	2299.87
453.04	2150.37
453.24	2404.32
453.45	2232.29
453.65	2277.34
453.86	2303.96
454.06	2351.07
454.26	2295.77
454.47	2136.03
454.67	2392.03
454.87	2201.57
455.08	2277.34
455.28	2359.26
455.49	2308.06
455.69	2166.75
455.89	2545.63
456.10	2389.98
456.30	2242.53
456.51	2324.44
456.71	2277.34
456.91	2318.30
457.12	2277.34
457.32	2281.44
457.52	2164.70
457.73	2379.74
457.93	2400.22
458.14	2260.96
458.34	2111.46
458.54	2269.15
458.75	2285.53
458.95	2344.92
459.15	2236.38
459.36	2328.54
459.56	2367.45
459.76	2531.29
459.97	2287.58
460.17	2279.39
460.37	2340.83
460.58	2322.40
460.78	2326.49
460.99	2183.13
461.19	2166.75
461.39	2250.72
461.60	2252.77
461.80	2322.40
462.00	2158.56
462.21	2248.67
462.41	2228.19
462.61	2215.90
462.82	2138.08
463.02	2361.31
463.22	2232.29
463.43	2299.87
463.63	2283.49
463.83	2414.56
464.04	2383.84
464.24	2269.15
464.44	2119.65
464.64	2265.05
464.85	2301.92
465.05	2281.44
465.25	2273.25
465.46	2252.77
465.66	2381.79
465.86	2318.30
466.07	2279.39
466.27	2207.71
466.47	2101.22
466.68	2097.12
466.88	2355.16
467.08	2258.91
467.29	2379.74
467.49	2322.40
467.69	2265.05
467.89	2367.45
468.10	2236.38
468.30	2308.06
468.50	2414.56
468.71	2332.64
468.91	2154.46
469.11	2414.56
469.31	2228.19
469.52	2154.46
469.72	2435.03
469.92	2447.32
470.13	2281.44
470.33	2306.01
470.53	2357.21
470.73	2709.46
470.94	3004.37
471.14	3254.22
471.34	3557.32
471.54	3420.11
471.75	3172.30
471.95	2832.34
472.15	2764.76
472.36	2793.43
472.56	2691.03
472.76	2676.70
472.96	2648.02
473.17	2578.39
473.37	2523.10
473.57	2258.91
473.77	2314.20
473.98	2244.57
474.18	2185.18
474.38	2521.05
474.58	2252.77
474.79	2189.28
474.99	2310.11
475.19	2392.03
475.39	2158.56
475.60	2318.30
475.80	2224.09
476.00	2316.25
476.20	2285.53
476.41	2263.01
476.61	2357.21
476.81	2330.59
477.01	2260.96
477.21	2443.23
477.42	2375.64
477.62	2097.12
477.82	2398.17
478.02	2234.33
478.23	2308.06
478.43	2150.37
478.63	2195.42
478.83	2236.38
479.03	2236.38
479.24	2369.50
479.44	2455.51
479.64	2158.56
479.84	2101.22
480.04	2220.00
480.25	2291.68
480.45	2197.47
480.65	2187.23
480.85	2467.80
481.06	2244.57
481.26	2236.38
481.46	2340.83
481.66	2265.05
481.86	2160.61
482.06	2416.60
482.27	2289.63
482.47	2228.19
482.67	2392.03
482.87	2287.58
483.07	2375.64
483.28	2222.05
483.48	2170.85
483.68	2160.61
483.88	2156.51
484.08	2105.31
484.29	2162.66
484.49	2271.20
484.69	2058.21
484.89	2469.85
485.09	2363.36
485.29	2289.63
485.50	2301.92
485.70	2234.33
485.90	2318.30
486.10	2365.40
486.30	2301.92
486.50	2375.64
486.71	2359.26
486.91	2365.40
487.11	2326.49
487.31	2095.07
487.51	2244.57
487.71	2154.46
487.91	2066.40
488.12	2179.04
488.32	2023.39
488.52	2199.52
488.72	2039.78
488.92	2308.06
489.12	2375.64
489.32	2330.59
489.53	2291.68
489.73	2160.61
489.93	2484.19
490.13	2236.38
490.33	2119.65
490.53	2283.49
490.73	2383.84
490.94	2068.45
491.14	2306.01
491.34	2389.98
491.54	2592.73
491.74	3256.27
491.94	3690.44
492.14	3928.00
492.34	4077.51
492.54	3837.89
492.75	3225.55
492.95	3051.47
493.15	3008.47
493.35	2899.92
493.55	2811.86
493.75	2731.99
493.95	2658.26
494.15	2545.63
494.35	2359.26
494.56	2297.82
494.76	2181.09
494.96	2275.29
495.16	2306.01
495.36	2248.67
495.56	2275.29
495.76	2308.06
495.96	2183.13
496.16	2197.47
496.36	2412.51
496.56	2289.63
496.77	2340.83
496.97	2263.01
497.17	2387.93
497.37	2199.52
497.57	2258.91
497.77	2265.05
497.97	2293.72
498.17	2306.01
498.37	2187.23
498.57	2297.82
498.77	2234.33
498.97	2414.56
499.17	2521.05
499.38	2285.53
499.58	2367.45
499.78	2414.56
499.98	2387.93
500.18	2220.00
500.38	2250.72
500.58	2443.23
500.78	2863.06
500.98	5017.52
501.18	7194.51
501.38	8904.57
501.58	9625.45
501.78	9604.97
501.98	7479.18
502.18	6381.47
502.38	5500.84
502.58	5050.29
502.78	4650.94
502.98	4495.29
503.18	4134.85
503.38	3870.66
503.59	3469.26
503.79	3131.34
503.99	3043.28
504.19	2805.72
504.39	2832.34
504.59	2842.58
504.79	2858.96
504.99	2834.39
505.19	2580.44
505.39	2516.95
505.59	2731.99
505.79	2527.19
505.99	2422.75
506.19	2326.49
506.39	2426.84
506.59	2334.68
506.79	2226.14
506.99	2365.40
507.19	2344.92
507.39	2267.10
507.59	2199.52
507.79	2172.89
507.99	2129.89
508.19	2224.09
508.39	2250.72
508.59	2269.15
508.79	2338.78
508.99	2529.24
509.19	2166.75
509.39	2265.05
509.59	2146.27
509.79	2230.24
509.99	2387.93
510.19	2310.11
510.39	2303.96
510.59	2256.86
510.79	2211.81
510.99	2111.46
511.19	2228.19
511.39	2447.32
511.59	2441.18
511.79	2383.84
511.99	2232.29
512.19	2445.27
512.38	2349.02
512.58	2162.66
512.78	2252.77
512.98	2365.40
513.18	2408.41
513.38	2133.98
513.58	2334.68
513.78	2220.00
513.98	2238.43
514.18	2273.25
514.38	2160.61
514.58	2267.10
514.78	2191.33
514.98	2236.38
515.18	2287.58
515.38	2146.27
515.58	2392.03
515.78	2199.52
515.98	2250.72
516.18	2385.88
516.38	2271.20
516.57	2133.98
516.77	2283.49
516.97	2375.64
517.17	2185.18
517.37	2099.17
517.57	2363.36
517.77	2248.67
517.97	2179.04
518.17	2291.68
518.37	2181.09
518.57	2176.99
518.77	2199.52
518.97	2240.48
519.16	2312.16
519.36	2389.98
519.56	2240.48
519.76	2193.37
519.96	2254.81
520.16	2406.36
520.36	2125.79
520.56	2430.94
520.76	2199.52
520.96	2195.42
521.16	2355.16
521.35	2299.87
521.55	2375.64
521.75	2285.53
521.95	2244.57
522.15	2258.91
522.35	2119.65
522.55	2179.04
522.75	2379.74
522.95	2215.90
523.14	2080.74
523.34	2295.77
523.54	2179.04
523.74	2291.68
523.94	2330.59
524.14	2146.27
524.34	2400.22
524.54	2412.51
524.73	2252.77
524.93	2285.53
525.13	2349.02
525.33	2109.41
525.53	2432.99
525.73	2424.80
525.93	2228.19
526.13	2293.72
526.32	2201.57
526.52	2281.44
526.72	2375.64
526.92	2248.67
527.12	2289.63
527.32	2113.50
527.52	2357.21
527.71	2344.92
527.91	2160.61
528.11	2207.71
528.31	2271.20
528.51	2201.57
528.71	2387.93
528.90	2367.45
529.10	2367.45
529.30	2338.78
529.50	1996.77
529.70	2244.57
529.90	2269.15
530.09	2187.23
530.29	2154.46
530.49	2291.68
530.69	2590.68
530.89	2373.60
531.09	2420.70
531.28	2308.06
531.48	2367.45
531.68	2211.81
531.88	2263.01
532.08	2351.07
532.28	2232.29
532.47	2293.72
532.67	2396.12
532.87	2318.30
533.07	2158.56
533.27	2373.60
533.46	2301.92
533.66	2385.88
533.86	2252.77
534.06	2222.05
534.26	2324.44
534.45	2283.49
534.65	2351.07
534.85	2342.88
535.05	2197.47
535.25	2383.84
535.44	2144.22
535.64	2342.88
535.84	2228.19
536.04	2199.52
536.24	2228.19
536.43	2263.01
536.63	2291.68
536.83	2273.25
537.03	2277.34
537.22	2121.70
537.42	2058.21
537.62	2326.49
537.82	2207.71
538.02	2355.16
538.21	2367.45
538.41	2566.10
538.61	2340.83
538.81	2269.15
539.00	2387.93
539.20	2166.75
539.40	2222.05
539.60	2324.44
539.79	2371.55
539.99	2203.61
540.19	2203.61
540.39	2330.59
540.58	2228.19
540.78	2367.45
540.98	2306.01
541.18	2414.56
541.37	2291.68
541.57	2258.91
541.77	2297.82
541.97	2185.18
542.16	2121.70
542.36	2191.33
542.56	2226.14
542.76	2453.47
542.95	2281.44
543.15	2326.49
543.35	2279.39
543.54	2193.37
543.74	2168.80
543.94	2408.41
544.14	2246.62
544.33	2260.96
544.53	2228.19
544.73	2224.09
544.93	2254.81
545.12	2256.86
545.32	2293.72
545.52	2250.72
545.71	2181.09
545.91	2246.62
546.11	2258.91
546.30	2174.94
546.50	2236.38
546.70	2346.97
546.90	2260.96
547.09	2123.74
547.29	2293.72
547.49	2330.59
547.68	2228.19
547.88	2185.18
548.08	2308.06
548.27	2684.89
548.47	2273.25
548.67	2222.05
548.87	2244.57
549.06	2236.38
549.26	2260.96
549.46	2371.55
549.65	2187.23
549.85	2291.68
550.05	2252.77
550.24	2136.03
550.44	2283.49
550.64	2310.11
550.83	2211.81
551.03	2408.41
551.23	2383.84
551.42	2334.68
551.62	2181.09
551.82	2275.29
552.01	2324.44
552.21	2455.51
552.41	2246.62
552.60	2416.60
552.80	2326.49
553.00	2217.95
553.19	2293.72
553.39	2404.32
553.59	2097.12
553.78	2310.11
553.98	2248.67
554.17	2203.61
554.37	2277.34
554.57	2342.88
554.76	2105.31
554.96	2246.62
555.16	2299.87
555.35	2228.19
555.55	2357.21
555.75	2410.46
555.94	2297.82
556.14	2070.50
556.33	2316.25
556.53	2293.72
556.73	2256.86
556.92	2322.40
557.12	2342.88
557.32	2519.00
557.51	2392.03
557.71	2297.82
557.90	2381.79
558.10	2408.41
558.30	2224.09
558.49	2260.96
558.69	2228.19
558.88	2367.45
559.08	2252.77
559.28	2242.53
559.47	2283.49
559.67	2346.97
559.86	2457.56
560.06	2230.24
560.26	2176.99
560.45	2314.20
560.65	2238.43
560.84	2365.40
561.04	2207.71
561.24	2269.15
561.43	2162.66
561.63	2400.22
561.82	2228.19
562.02	2385.88
562.22	2220.00
562.41	2246.62
562.61	2254.81
562.80	2160.61
563.00	2531.29
563.19	2306.01
563.39	2295.77
563.59	2437.08
563.78	2142.18
563.98	2090.98
564.17	2170.85
564.37	2127.84
564.56	2236.38
564.76	2224.09
564.96	2457.56
565.15	2277.34
565.35	2451.42
565.54	2207.71
565.74	2369.50
565.93	2351.07
566.13	2267.10
566.32	2367.45
566.52	2287.58
566.71	2301.92
566.91	2412.51
567.11	2342.88
567.30	2273.25
567.50	2299.87
567.69	2336.73
567.89	2189.28
568.08	2220.00
568.28	2265.05
568.47	2193.37
568.67	2277.34
568.86	2209.76
569.06	2445.27
569.25	2332.64
569.45	2119.65
569.64	2277.34
569.84	2291.68
570.04	2342.88
570.23	2228.19
570.43	2232.29
570.62	2295.77
570.82	2445.27
571.01	2187.23
571.21	2179.04
571.40	2222.05
571.60	2381.79
571.79	2308.06
571.99	2281.44
572.18	2164.70
572.38	2375.64
572.57	2187.23
572.77	2295.77
572.96	2637.78
573.16	2250.72
573.35	2273.25
573.55	2437.08
573.74	2334.68
573.94	2256.86
574.13	2240.48
574.33	2361.31
574.52	2410.46
574.71	2295.77
574.91	2334.68
575.10	2187.23
575.30	2220.00
575.49	2193.37
575.69	2220.00
575.88	2279.39
576.08	2293.72
576.27	2334.68
576.47	2334.68
576.66	2488.28
576.86	2422.75
577.05	2338.78
577.25	2349.02
577.44	2473.95
577.64	2189.28
577.83	2273.25
578.02	2301.92
578.22	2400.22
578.41	2471.90
578.61	2338.78
578.80	2170.85
579.00	2250.72
579.19	2191.33
579.39	2379.74
579.58	2449.37
579.77	2215.90
579.97	2418.65
580.16	2349.02
580.36	2349.02
580.55	2316.25
580.75	2351.07
580.94	2338.78
581.13	2500.57
581.33	2455.51
581.52	2306.01
581.72	2533.34
581.91	2457.56
582.11	2316.25
582.30	2478.04
582.49	2344.92
582.69	2424.80
582.88	2301.92
583.08	2328.54
583.27	2443.23
583.47	2310.11
583.66	2287.58
583.85	2121.70
584.05	2240.48
584.24	2351.07
584.44	2332.64
584.63	2430.94
584.82	2467.80
585.02	2447.32
585.21	2453.47
585.41	2496.47
585.60	2510.81
585.79	2578.39
585.99	2531.29
586.18	2408.41
586.37	2973.65
586.57	4667.32
586.76	13719.34
586.96	33193.48
587.15	46777.65
587.34	56042.66
587.54	60933.21
587.73	55674.03
587.93	39615.91
588.12	29713.98
588.31	23789.20
588.51	20848.32
588.70	19195.61
588.89	17501.94
589.09	15247.13
589.28	12894.01
589.47	10651.49
589.67	8126.34
589.86	6367.13
590.06	4605.88
590.25	3788.74
590.44	3196.88
590.64	2893.78
590.83	2590.68
591.02	2559.96
591.22	2324.44
591.41	2475.99
591.60	2322.40
591.80	2535.39
591.99	2256.86
592.18	2338.78
592.38	2398.17
592.57	2246.62
592.76	2293.72
592.96	2379.74
593.15	2318.30
593.34	2379.74
593.54	2168.80
593.73	2318.30
593.92	2383.84
594.12	2432.99
594.31	2338.78
594.50	2367.45
594.70	2383.84
594.89	2580.44
595.08	2162.66
595.28	2357.21
595.47	2666.46
595.66	2387.93
595.86	2197.47
596.05	2236.38
596.24	2279.39
596.43	2453.47
596.63	2406.36
596.82	2326.49
597.01	2277.34
597.21	2498.52
597.40	2260.96
597.59	2326.49
597.79	2299.87
597.98	2412.51
598.17	2314.20
598.36	2312.16
598.56	2379.74
598.75	2269.15
598.94	2293.72
599.14	2248.67
599.33	2226.14
599.52	2439.13
599.71	2371.55
599.91	2322.40
600.10	2404.32
600.29	2326.49
600.48	2340.83
600.68	2260.96
600.87	2330.59
601.06	2244.57
601.26	2326.49
601.45	2320.35
601.64	2258.91
601.83	2449.37
602.03	2226.14
602.22	2187.23
602.41	2453.47
602.60	2535.39
602.80	2310.11
602.99	2340.83
603.18	2269.15
603.37	2303.96
603.57	2326.49
603.76	2308.06
603.95	2369.50
604.14	2265.05
604.34	2222.05
604.53	2265.05
604.72	2301.92
604.91	2363.36
605.10	2297.82
605.30	2144.22
605.49	2385.88
605.68	2394.08
605.87	2318.30
606.07	2166.75
606.26	2357.21
606.45	2344.92
606.64	2256.86
606.84	2203.61
607.03	2283.49
607.22	2377.69
607.41	2283.49
607.60	2349.02
607.80	2338.78
607.99	2330.59
608.18	2240.48
608.37	2322.40
608.56	2209.76
608.76	2363.36
608.95	2451.42
609.14	2242.53
609.33	2408.41
609.52	2512.86
609.72	2369.50
609.91	2418.65
610.10	2353.12
610.29	2424.80
610.48	2306.01
610.68	2314.20
610.87	2244.57
611.06	2355.16
611.25	2236.38
611.44	2383.84
611.63	2164.70
611.83	2406.36
612.02	2199.52
612.21	2359.26
612.40	2064.35
612.59	2166.75
612.79	2187.23
612.98	2244.57
613.17	2465.75
613.36	2318.30
613.55	2459.61
613.74	2404.32
613.93	2424.80
614.13	2377.69
614.32	2465.75
614.51	2445.27
614.70	2402.27
614.89	2310.11
615.08	2363.36
615.28	2760.66
615.47	2220.00
615.66	2412.51
615.85	2410.46
616.04	2441.18
616.23	2301.92
616.42	2318.30
616.62	2340.83
616.81	2320.35
617.00	2281.44
617.19	2349.02
617.38	2277.34
617.57	2314.20
617.76	2301.92
617.95	2357.21
618.15	2291.68
618.34	2439.13
618.53	2101.22
618.72	2412.51
618.91	2402.27
619.10	2371.55
619.29	2242.53
619.48	2222.05
619.68	2170.85
619.87	2244.57
620.06	2181.09
620.25	2224.09
620.44	2246.62
620.63	2258.91
620.82	2256.86
621.01	2301.92
621.20	2248.67
621.39	2330.59
621.59	2289.63
621.78	2301.92
621.97	2306.01
622.16	2351.07
622.35	2299.87
622.54	2297.82
622.73	2437.08
622.92	2123.74
623.11	2430.94
623.30	2236.38
623.49	2271.20
623.68	2205.66
623.88	2453.47
624.07	2258.91
624.26	2209.76
624.45	2248.67
624.64	2256.86
624.83	2326.49
625.02	2250.72
625.21	2220.00
625.40	2285.53
625.59	2412.51
625.78	2242.53
625.97	2301.92
626.16	2523.10
626.35	2439.13
626.54	2322.40
626.74	2527.19
626.93	2314.20
627.12	2297.82
627.31	2367.45
627.50	2295.77
627.69	2369.50
627.88	2279.39
628.07	2265.05
628.26	2176.99
628.45	2228.19
628.64	2164.70
628.83	2285.53
629.02	2140.13
629.21	2334.68
629.40	2322.40
629.59	2224.09
629.78	2250.72
629.97	2332.64
630.16	2277.34
630.35	2258.91
630.54	2338.78
630.73	2217.95
630.92	2314.20
631.11	2203.61
631.30	2330.59
631.49	2351.07
631.68	2220.00
631.87	2244.57
632.06	2138.08
632.25	2512.86
632.44	2234.33
632.63	2346.97
632.82	2322.40
633.01	2230.24
633.20	2455.51
633.39	2316.25
633.58	2125.79
633.77	2324.44
633.96	2346.97
634.15	2326.49
634.34	2316.25
634.53	2328.54
634.72	2267.10
634.91	2187.23
635.10	2285.53
635.29	2334.68
635.48	2340.83
635.67	2248.67
635.86	2140.13
636.05	2432.99
636.24	2308.06
636.43	2291.68
636.62	2269.15
636.81	2088.93
637.00	2199.52
637.19	2314.20
637.38	2195.42
637.57	2211.81
637.76	2291.68
637.95	2500.57
638.14	2301.92
638.33	2351.07
638.52	2355.16
638.71	2203.61
638.89	2228.19
639.08	2578.39
639.27	2500.57
639.46	2519.00
639.65	2818.00
639.84	2936.79
640.03	2885.59
640.22	2979.79
640.41	2807.77
640.60	2574.30
640.79	2535.39
640.98	2392.03
641.17	2551.77
641.36	2484.19
641.55	2441.18
641.74	2203.61
641.92	2193.37
642.11	2236.38
642.30	2332.64
642.49	2174.94
642.68	2224.09
642.87	2346.97
643.06	2289.63
643.25	2174.94
643.44	2232.29
643.63	2267.10
643.82	2324.44
644.00	2187.23
644.19	2269.15
644.38	2121.70
644.57	2338.78
644.76	2293.72
644.95	2199.52
645.14	2281.44
645.33	2207.71
645.52	2252.77
645.71	2142.18
645.89	2195.42
646.08	2129.89
646.27	2160.61
646.46	2475.99
646.65	2187.23
646.84	2228.19
647.03	2136.03
647.22	2379.74
647.40	2211.81
647.59	2246.62
647.78	2133.98
647.97	2211.81
648.16	2152.42
648.35	2463.71
648.54	2334.68
648.73	2174.94
648.91	2334.68
649.10	2252.77
649.29	2236.38
649.48	2277.34
649.67	2318.30
649.86	2252.77
650.05	2340.83
650.23	2465.75
650.42	2297.82
650.61	2392.03
650.80	2473.95
650.99	2543.58
651.18	2441.18
651.36	2473.95
651.55	2226.14
651.74	2342.88
651.93	2293.72
652.12	2291.68
652.31	2220.00
652.49	2211.81
652.68	2203.61
652.87	2455.51
653.06	2281.44
653.25	2422.75
653.44	2260.96
653.62	2357.21
653.81	2256.86
654.00	2187.23
654.19	2377.69
654.38	2623.45
654.56	2324.44
654.75	2183.13
654.94	2414.56
655.13	2297.82
655.32	2215.90
655.51	2320.35
655.69	2244.57
655.88	2340.83
656.07	2209.76
656.26	2310.11
656.45	2183.13
656.63	2240.48
656.82	2164.70
657.01	2355.16
657.20	2195.42
657.38	2424.80
657.57	2236.38
657.76	2142.18
657.95	2293.72
658.14	2244.57
658.32	2281.44
658.51	2097.12
658.70	2326.49
658.89	2271.20
659.08	2301.92
659.26	2389.98
659.45	2224.09
659.64	2293.72
659.83	2244.57
660.01	2596.82
660.20	2289.63
660.39	2383.84
660.58	2054.11
660.76	2293.72
660.95	2129.89
661.14	2340.83
661.33	2166.75
661.51	2269.15
661.70	2244.57
661.89	2306.01
662.08	2277.34
662.26	2133.98
662.45	2088.93
662.64	2435.03
662.83	2308.06
663.01	2123.74
663.20	2220.00
663.39	2484.19
663.58	2250.72
663.76	2265.05
663.95	2275.29
664.14	2174.94
664.32	2234.33
664.51	2201.57
664.70	2072.54
664.89	2269.15
665.07	2191.33
665.26	2281.44
665.45	2142.18
665.64	2328.54
665.82	2215.90
666.01	2338.78
666.20	2160.61
666.38	2373.60
666.57	2469.85
666.76	3289.04
666.95	8064.90
667.13	16131.85
667.32	21249.72
667.51	24807.05
667.69	26277.49
667.88	24305.29
668.07	17153.79
668.25	13881.13
668.44	11444.05
668.63	9883.50
668.81	8896.38
669.00	7503.76
669.19	6918.04
669.38	5869.48
669.56	5078.96
669.75	4317.12
669.94	3592.14
670.12	3074.00
670.31	2801.62
670.50	2619.35
670.68	2523.10
670.87	2412.51
671.06	2308.06
671.24	2310.11
671.43	2396.12
671.62	2387.93
671.80	2277.34
671.99	2244.57
672.18	2308.06
672.36	2490.33
672.55	2281.44
672.74	2252.77
672.92	2293.72
673.11	2404.32
673.29	2133.98
673.48	2320.35
673.67	2217.95
673.85	2387.93
674.04	2170.85
674.23	2293.72
674.41	2469.85
674.60	2185.18
674.79	2031.58
674.97	2183.13
675.16	2406.36
675.34	2430.94
675.53	2181.09
675.72	2334.68
675.90	2473.95
676.09	2265.05
676.28	2297.82
676.46	2097.12
676.65	2297.82
676.83	2138.08
677.02	2203.61
677.21	2228.19
677.39	2299.87
677.58	2215.90
677.77	2228.19
677.95	2174.94
678.14	2263.01
678.32	2283.49
678.51	2174.94
678.70	2496.47
678.88	2201.57
679.07	2256.86
679.25	2324.44
679.44	2289.63
679.63	2168.80
679.81	2199.52
680.00	2400.22
680.18	2357.21
680.37	2340.83
680.55	2301.92
680.74	2176.99
680.93	2074.59
681.11	2258.91
681.30	2299.87
681.48	2263.01
681.67	2174.94
681.85	2269.15
682.04	2207.71
682.23	2346.97
682.41	2285.53
682.60	2209.76
682.78	2121.70
682.97	2203.61
683.15	2414.56
683.34	2271.20
683.53	2392.03
683.71	2211.81
683.90	2408.41
684.08	2498.52
684.27	2170.85
684.45	2277.34
684.64	2312.16
684.82	2211.81
685.01	2291.68
685.19	2256.86
685.38	2324.44
685.57	2195.42
685.75	2181.09
685.94	2224.09
686.12	2144.22
686.31	2199.52
686.49	2480.09
686.68	2105.31
686.86	2312.16
687.05	2248.67
687.23	2396.12
687.42	2293.72
687.60	2105.31
687.79	2342.88
687.97	2441.18
688.16	2363.36
688.34	2402.27
688.53	2146.27
688.71	2377.69
688.90	2420.70
689.08	2269.15
689.27	2113.50
689.45	2260.96
689.64	2334.68
689.82	2217.95
690.01	2273.25
690.19	2369.50
690.38	2232.29
690.56	2316.25
690.75	2072.54
690.93	2295.77
691.12	2291.68
691.30	2258.91
691.49	2250.72
691.67	2209.76
691.86	2404.32
692.04	2211.81
692.23	2152.42
692.41	2308.06
692.60	2498.52
692.78	2398.17
692.97	2377.69
693.15	2310.11
693.34	2461.66
693.52	2363.36
693.71	2254.81
693.89	2226.14
694.08	2146.27
694.26	2322.40
694.44	2402.27
694.63	2346.97
694.81	2215.90
695.00	2185.18
695.18	2394.08
695.37	2590.68
695.55	2293.72
695.74	2242.53
695.92	2166.75
696.10	2334.68
696.29	2174.94
696.47	2201.57
696.66	2170.85
696.84	2179.04
697.03	2240.48
697.21	2457.56
697.40	3327.95
697.58	2301.92
697.76	2148.32
697.95	2168.80
698.13	2123.74
698.32	2189.28
698.50	2258.91
698.68	2314.20
698.87	2256.86
699.05	2404.32
699.24	2256.86
699.42	2203.61
699.61	2301.92
699.79	2201.57
699.97	2263.01
700.16	2121.70
700.34	2127.84
700.53	2236.38
700.71	2404.32
700.89	2375.64
701.08	2285.53
701.26	2236.38
701.45	2799.57
701.63	2185.18
701.81	2217.95
702.00	2193.37
702.18	2244.57
702.37	2260.96
702.55	2488.28
702.73	2445.27
702.92	2389.98
703.10	2543.58
703.28	2475.99
703.47	2228.19
703.65	2519.00
703.84	2424.80
704.02	2316.25
704.20	2435.03
704.39	2203.61
704.57	2209.76
704.75	2412.51
704.94	2379.74
705.12	2297.82
705.30	2545.63
705.49	4448.19
705.67	10182.50
705.86	18196.20
706.04	21675.70
706.22	24829.57
706.41	25671.29
706.59	21958.32
706.77	15431.44
706.96	12996.41
707.14	11294.55
707.32	9727.85
707.51	8839.03
707.69	7167.89
707.87	5926.82
708.06	4698.04
708.24	3897.28
708.42	3211.22
708.61	2953.17
708.79	2594.78
708.97	2432.99
709.16	2449.37
709.34	2359.26
709.52	2238.43
709.71	2277.34
709.89	2351.07
710.07	2146.27
710.26	2142.18
710.44	2236.38
710.62	2432.99
710.80	2299.87
710.99	2359.26
711.17	2291.68
711.35	2236.38
711.54	2217.95
711.72	2488.28
711.90	2244.57
712.09	2291.68
712.27	2195.42
712.45	2365.40
712.63	2162.66
712.82	2248.67
713.00	2275.29
713.18	2398.17
713.37	2455.51
713.55	2336.73
713.73	2320.35
713.91	2297.82
714.10	2121.70
714.28	2230.24
714.46	2236.38
714.65	2293.72
714.83	2314.20
715.01	2285.53
715.19	2318.30
715.38	2131.94
715.56	2248.67
715.74	2193.37
715.92	2236.38
716.11	2381.79
716.29	2045.92
716.47	2244.57
716.65	2263.01
716.84	2107.36
717.02	2338.78
717.20	2119.65
717.38	2211.81
717.57	2306.01
717.75	2303.96
717.93	2248.67
718.11	2392.03
718.30	2154.46
718.48	2287.58
718.66	2377.69
718.84	2373.60
719.03	2203.61
719.21	2146.27
719.39	2400.22
719.57	2269.15
719.75	2359.26
719.94	2142.18
720.12	2228.19
720.30	2271.20
720.48	2359.26
720.67	2187.23
720.85	2279.39
721.03	2209.76
721.21	2111.46
721.39	2381.79
721.58	2334.68
721.76	2211.81
721.94	2281.44
722.12	2250.72
722.30	2328.54
722.49	2250.72
722.67	2295.77
722.85	2310.11
723.03	2060.26
723.21	2138.08
723.40	2367.45
723.58	2383.84
723.76	2297.82
723.94	2426.84
724.12	2365.40
724.30	2375.64
724.49	2381.79
724.67	2211.81
724.85	2392.03
725.03	2199.52
725.21	2365.40
725.40	2359.26
725.58	2146.27
725.76	2396.12
725.94	2236.38
726.12	2138.08
726.30	2193.37
726.49	2240.48
726.67	2254.81
726.85	2357.21
727.03	2564.06
727.21	3635.14
727.39	4933.56
727.57	5803.94
727.76	6426.53
727.94	6782.87
728.12	6315.94
728.30	5238.70
728.48	4478.91
728.66	4022.21
728.84	3768.26
729.03	3262.41
729.21	2932.69
729.39	2785.24
729.57	2449.37
729.75	2402.27
729.93	2349.02
730.11	2326.49
730.30	2246.62
730.48	2258.91
730.66	2430.94
730.84	2260.96
731.02	2250.72
731.20	2154.46
731.38	2273.25
731.56	2095.07
731.74	2121.70
731.93	2291.68
732.11	2267.10
732.29	2242.53
732.47	2338.78
732.65	2310.11
732.83	2426.84
733.01	2297.82
733.19	2150.37
733.37	2252.77
733.56	2297.82
733.74	2234.33
733.92	2414.56
734.10	2191.33
734.28	2234.33
734.46	2156.51
734.64	2228.19
734.82	2203.61
735.00	2336.73
735.18	2168.80
735.36	2277.34
735.54	2199.52
735.73	2267.10
735.91	2275.29
736.09	2314.20
736.27	2183.13
736.45	2289.63
736.63	2039.78
736.81	2242.53
736.99	2387.93
737.17	2332.64
737.35	2232.29
737.53	2256.86
737.71	2306.01
737.89	2414.56
738.07	2217.95
738.25	2142.18
738.43	2168.80
738.61	2258.91
738.80	2025.44
738.98	2123.74
739.16	2211.81
739.34	2107.36
739.52	2437.08
739.70	2279.39
739.88	2336.73
740.06	2398.17
740.24	2029.54
740.42	2326.49
740.60	2095.07
740.78	2209.76
740.96	2107.36
741.14	2256.86
741.32	2273.25
741.50	2088.93
741.68	2459.61
741.86	2340.83
742.04	2152.42
742.22	2140.13
742.40	2176.99
742.58	2279.39
742.76	2203.61
742.94	2338.78
743.12	2222.05
743.30	2203.61
743.48	2293.72
743.66	2191.33
743.84	2306.01
744.02	2160.61
744.20	2265.05
744.38	2226.14
744.56	2148.32
744.74	2412.51
744.92	2271.20
745.10	2428.89
745.28	2291.68
745.46	2414.56
745.64	2222.05
745.82	2308.06
746.00	2215.90
746.18	2283.49
746.36	2195.42
746.54	2306.01
746.72	2174.94
746.90	2111.46
747.08	2289.63
747.26	2191.33
747.44	2301.92
747.62	2375.64
747.80	2226.14
747.98	2371.55
748.15	2199.52
748.33	2447.32
748.51	2232.29
748.69	2248.67
748.87	2222.05
749.05	2258.91
749.23	2230.24
749.41	2252.77
749.59	2209.76
749.77	2373.60
749.95	2226.14
750.13	2240.48
750.31	2283.49
750.49	2271.20
750.67	2277.34
750.85	2408.41
751.03	2328.54
751.20	2443.23
751.38	2258.91
751.56	2191.33
751.74	2203.61
751.92	2299.87
752.10	2154.46
752.28	2328.54
752.46	2203.61
752.64	2217.95
752.82	2222.05
753.00	2400.22
753.18	2187.23
753.35	2256.86
753.53	2265.05
753.71	2179.04
753.89	2275.29
754.07	2332.64
754.25	2308.06
754.43	2306.01
754.61	2156.51
754.79	2338.78
754.97	2269.15
755.14	2338.78
755.32	2199.52
755.50	2234.33
755.68	2351.07
755.86	2150.37
756.04	2222.05
756.22	2129.89
756.40	2406.36
756.57	2439.13
756.75	2242.53
756.93	2312.16
757.11	2299.87
757.29	2123.74
757.47	2156.51
757.65	2054.11
757.82	1980.39
758.00	2191.33
758.18	2215.90
758.36	2238.43
758.54	2439.13
758.72	2111.46
758.90	2314.20
759.07	2285.53
759.25	2168.80
759.43	2332.64
759.61	2076.64
759.79	3067.86
759.97	2279.39
760.15	2232.29
760.32	2248.67
760.50	2336.73
760.68	2457.56
760.86	2103.26
761.04	2412.51
761.22	2365.40
761.39	2258.91
761.57	2174.94
761.75	2193.37
761.93	2295.77
762.11	2170.85
762.28	2263.01
762.46	2215.90
762.64	2258.91
762.82	2086.88
763.00	2285.53
763.18	2254.81
763.35	2199.52
763.53	2422.75
763.71	2246.62
763.89	2224.09
764.07	2289.63
764.24	2236.38
764.42	2301.92
764.60	2142.18
764.78	2293.72
764.96	2322.40
765.13	2291.68
765.31	2215.90
765.49	2277.34
765.67	2209.76
765.84	2176.99
766.02	2131.94
766.20	2113.50
766.38	2258.91
766.56	2240.48
766.73	2365.40
766.91	2260.96
767.09	2301.92
767.27	2316.25
767.44	2152.42
767.62	2211.81
767.80	2207.71
767.98	2176.99
768.15	2217.95
768.33	2377.69
768.51	2293.72
768.69	2346.97
768.87	2342.88
769.04	2250.72
769.22	2549.72
769.40	2320.35
769.58	2396.12
769.75	2308.06
769.93	2371.55
770.11	2234.33
770.28	2095.07
770.46	2361.31
770.64	2281.44
770.82	2226.14
770.99	2242.53
771.17	2271.20
771.35	2189.28
771.53	2263.01
771.70	2166.75
771.88	2283.49
772.06	2191.33
772.23	2195.42
772.41	2314.20
772.59	2195.42
772.77	2109.41
772.94	2185.18
773.12	2318.30
773.30	2179.04
773.47	2271.20
773.65	2244.57
773.83	2346.97
774.01	2301.92
774.18	2166.75
774.36	2260.96
774.54	2062.30
774.71	2267.10
774.89	2078.69
775.07	2170.85
775.24	2220.00
775.42	2213.85
775.60	2432.99
775.78	2187.23
775.95	2209.76
776.13	2113.50
776.31	2099.17
776.48	2328.54
776.66	2340.83
776.84	2140.13
777.01	2097.12
777.19	2207.71
777.37	2160.61
777.54	2240.48
777.72	2457.56
777.90	2303.96
778.07	2201.57
778.25	2572.25
778.43	2349.02
778.60	2240.48
778.78	2306.01
778.96	2326.49
779.13	2189.28
779.31	2379.74
779.49	2199.52
779.66	2320.35
779.84	2168.80
780.01	2217.95
780.19	2185.18
780.37	2351.07
780.54	2287.58
780.72	2111.46
780.90	2248.67
781.07	2248.67
781.25	2162.66
781.43	2310.11
781.60	2201.57
781.78	2340.83
781.95	2318.30
782.13	2174.94
782.31	2244.57
782.48	2064.35
782.66	2226.14
782.83	2457.56
783.01	2324.44
783.19	2324.44
783.36	2224.09
783.54	2113.50
783.72	2267.10
783.89	2224.09
784.07	2215.90
784.24	2373.60
784.42	2414.56
784.60	2340.83
784.77	2242.53
784.95	2060.26
785.12	2265.05
785.30	2277.34
785.47	2133.98
785.65	2136.03
785.83	2203.61
786.00	2209.76
786.18	2322.40
786.35	2123.74
786.53	2240.48
786.71	2299.87
786.88	2306.01
787.06	2289.63
787.23	2228.19
787.41	2086.88
787.58	2191.33
787.76	2236.38
787.94	2201.57
788.11	2260.96
788.29	2125.79
788.46	2111.46
788.64	2080.74
788.81	2226.14
788.99	2187.23
789.16	2138.08
789.34	2250.72
789.52	2187.23
789.69	2121.70
789.87	2064.35
790.04	2269.15
790.22	2222.05
790.39	2490.33
790.57	2181.09
790.74	2115.55
790.92	2342.88
791.09	2095.07
791.27	2387.93
791.44	2367.45
791.62	2287.58
791.79	2324.44
791.97	2228.19
792.15	2531.29
792.32	2260.96
792.50	2295.77
792.67	2414.56
792.85	2439.13
793.02	2258.91
793.20	2172.89
793.37	2080.74
793.55	2215.90
793.72	2185.18
793.90	2273.25
794.07	2158.56
794.25	2201.57
794.42	2234.33
794.60	2185.18
794.77	2267.10
794.95	2416.60
795.12	2342.88
795.30	2174.94
795.47	1990.63
795.65	2463.71
795.82	2236.38
796.00	2158.56
796.17	2271.20
796.34	2224.09
796.52	2185.18
796.69	2330.59
796.87	2332.64
797.04	2234.33
797.22	2342.88
797.39	2246.62
797.57	2334.68
797.74	2297.82
797.92	2203.61
798.09	2213.85
798.27	2400.22
798.44	2211.81
798.62	2240.48
798.79	2203.61
798.96	2267.10
799.14	2263.01
799.31	2519.00
799.49	2168.80
799.66	2176.99
799.84	2181.09
800.01	2045.92
800.19	2312.16
800.36	2082.78
800.53	2260.96
800.71	2355.16
800.88	2430.94
801.06	2154.46
801.23	2181.09
801.41	2203.61
801.58	2238.43
801.75	2170.85
801.93	2267.10
802.10	2287.58
802.28	2281.44
802.45	2080.74
802.63	2408.41
802.80	2322.40
802.97	2250.72
803.15	2217.95
803.32	2250.72
803.50	2254.81
803.67	2117.60
803.84	2168.80
804.02	2260.96
804.19	2160.61
804.37	2062.30
804.54	2095.07
804.71	2275.29
804.89	2260.96
805.06	2113.50
805.24	2113.50
805.41	2129.89
805.58	2203.61
805.76	2426.84
805.93	2277.34
806.10	2396.12
806.28	2308.06
806.45	2248.67
806.63	2217.95
806.80	2346.97
806.97	2346.97
807.15	2277.34
807.32	2314.20
807.49	2195.42
807.67	2052.06
807.84	2224.09
808.01	2125.79
808.19	2371.55
808.36	2414.56
808.54	2215.90
808.71	2133.98
808.88	2197.47
809.06	2387.93
809.23	2359.26
809.40	2168.80
809.58	2314.20
809.75	2283.49
809.92	2119.65
810.10	2439.13
810.27	2150.37
810.44	2258.91
810.62	2322.40
810.79	2267.10
810.96	2230.24
811.14	2185.18
811.31	2265.05
811.48	2281.44
811.66	2101.22
811.83	2326.49
812.00	2265.05
812.18	2226.14
812.35	2449.37
812.52	2283.49
812.69	2146.27
812.87	2217.95
813.04	2193.37
813.21	2299.87
813.39	2176.99
813.56	2111.46
813.73	2342.88
813.91	2133.98
814.08	2256.86
814.25	2138.08
814.42	2056.16
814.60	2203.61
814.77	2244.57
814.94	2277.34
815.12	2220.00
815.29	2430.94
815.46	2138.08
815.63	2242.53
815.81	2240.48
815.98	2201.57
816.15	2232.29
816.33	2244.57
816.50	2150.37
816.67	2244.57
816.84	2199.52
817.02	2160.61
817.19	2242.53
817.36	2256.86
817.53	2277.34
817.71	2267.10
817.88	2387.93
818.05	2267.10
818.22	2242.53
818.40	2473.95
818.57	2181.09
818.74	2166.75
818.91	2205.66
819.09	2312.16
819.26	2369.50
819.43	2119.65
819.60	2129.89
819.78	2338.78
819.95	2410.46
820.12	2121.70
820.29	2367.45
820.47	2308.06
820.64	2105.31
820.81	2097.12
820.98	2193.37
821.15	2318.30
821.33	2281.44
821.50	2111.46
821.67	2314.20
821.84	2140.13
822.02	2318.30
822.19	2457.56
822.36	2275.29
822.53	2250.72
822.70	2160.61
822.88	2152.42
823.05	2406.36
823.22	2299.87
823.39	2279.39
823.56	2273.25
823.74	2447.32
823.91	2201.57
824.08	2226.14
824.25	2164.70
824.42	2422.75
824.60	2176.99
824.77	2287.58
824.94	2217.95
825.11	2314.20
825.28	2037.73
825.45	2258.91
825.63	2258.91
825.80	2154.46
825.97	2236.38
826.14	2283.49
826.31	2121.70
826.48	2234.33
826.66	2117.60
826.83	2162.66
827.00	2301.92
827.17	2172.89
827.34	2256.86
827.51	2224.09
827.69	2111.46
827.86	2140.13
828.03	2211.81
828.20	2240.48
828.37	2263.01
828.54	2295.77
828.71	2203.61
828.89	2340.83
829.06	2224.09
829.23	2404.32
829.40	2148.32
829.57	2197.47
829.74	2271.20
829.91	2232.29
830.09	2138.08
830.26	2303.96
830.43	2424.80
830.60	2203.61
830.77	2244.57
830.94	2379.74
831.11	2246.62
831.28	2072.54
831.46	2322.40
831.63	2207.71
831.80	2424.80
831.97	2150.37
832.14	2209.76
832.31	2301.92
832.48	2269.15
832.65	2361.31
832.82	2254.81
832.99	2318.30
833.17	2269.15
833.34	2416.60
833.51	2306.01
833.68	2072.54
833.85	2353.12
834.02	2170.85
834.19	2150.37
834.36	2170.85
834.53	2187.23
834.70	2346.97
834.87	2318.30
835.04	2133.98
835.22	2226.14
835.39	2228.19
835.56	2213.85
835.73	2211.81
835.90	2342.88
836.07	2222.05
836.24	2256.86
836.41	2179.04
836.58	2170.85
836.75	2363.36
836.92	2201.57
837.09	2101.22
837.26	2314.20
837.43	2269.15
837.60	2271.20
837.77	2250.72
837.94	2310.11
838.12	2449.37
838.29	2183.13
838.46	2070.50
838.63	2140.13
838.80	2373.60
838.97	2306.01
839.14	2273.25
839.31	2277.34
839.48	2234.33
839.65	2191.33
839.82	2256.86
839.99	2285.53
840.16	2215.90
840.33	2162.66
840.50	2246.62
840.67	2125.79
840.84	2031.58
841.01	2166.75
841.18	2209.76
841.35	2277.34
841.52	2293.72
841.69	2451.42
841.86	2170.85
842.03	2168.80
842.20	2396.12
842.37	2232.29
842.54	2185.18
842.71	2248.67
842.88	2140.13
843.05	2252.77
843.22	2179.04
843.39	2357.21
843.56	2213.85
843.73	2181.09
843.90	2250.72
844.07	2224.09
844.24	2373.60
844.41	2285.53
844.58	2224.09
844.75	2232.29
844.92	2357.21
845.09	2209.76
845.26	2138.08
845.43	2357.21
845.60	2199.52
845.77	2285.53
845.94	2271.20
846.10	2328.54
846.27	2117.60
846.44	2138.08
846.61	2107.36
846.78	2314.20
846.95	2330.59
847.12	2170.85
847.29	2232.29
847.46	2201.57
847.63	2293.72
847.80	2224.09
847.97	2187.23
848.14	2527.19
848.31	2240.48
848.48	2185.18
848.65	2244.57
848.82	2144.22
848.98	2502.62
849.15	2242.53
849.32	2287.58
849.49	2428.89
849.66	2197.47
849.83	2222.05
850.00	2121.70
850.17	2285.53
850.34	2267.10
850.51	2174.94
850.68	2187.23
850.85	2562.01
851.01	2293.72
851.18	2201.57
851.35	2187.23
851.52	2252.77
851.69	2340.83
851.86	2136.03
852.03	2205.66
852.20	2308.06
852.37	2263.01
852.53	2097.12
852.70	2191.33
852.87	2242.53
853.04	2240.48
853.21	2172.89
853.38	2289.63
853.55	2383.84
853.72	2375.64
853.89	2129.89
854.05	2187.23
854.22	2199.52
854.39	2277.34
854.56	2269.15
854.73	2310.11
854.90	2168.80
855.07	2228.19
855.23	2201.57
855.40	2203.61
855.57	2144.22
855.74	2107.36
855.91	2375.64
856.08	2111.46
856.25	2127.84
856.41	2211.81
856.58	2205.66
856.75	2279.39
856.92	2187.23
857.09	2400.22
857.26	2072.54
857.42	2273.25
857.59	2269.15
857.76	2293.72
857.93	2269.15
858.10	2236.38
858.27	2162.66
858.43	2250.72
858.60	2170.85
858.77	2160.61
858.94	2215.90
859.11	2301.92
859.27	2142.18
859.44	2105.31
859.61	2389.98
859.78	2353.12
859.95	2199.52
860.12	2170.85
860.28	2469.85
860.45	2447.32
860.62	2197.47
860.79	2242.53
860.95	2260.96
861.12	2172.89
861.29	2088.93
861.46	2138.08
861.63	2217.95
861.79	2355.16
861.96	2113.50
862.13	2176.99
862.30	2379.74
862.47	2246.62
862.63	2123.74
862.80	2265.05
862.97	2383.84
863.14	2355.16
863.30	2236.38
863.47	2111.46
863.64	2441.18
863.81	2297.82
863.97	2138.08
864.14	2168.80
864.31	2244.57
864.48	2207.71
864.65	2197.47
864.81	2285.53
864.98	2299.87
865.15	2308.06
865.32	2320.35
865.48	2330.59
865.65	2416.60
865.82	2168.80
865.98	2203.61
866.15	2236.38
866.32	2248.67
866.49	2217.95
866.65	2312.16
866.82	2185.18
866.99	2220.00
867.16	2197.47
867.32	2187.23
867.49	2093.02
867.66	2220.00
867.83	2156.51
867.99	2090.98
868.16	2195.42
868.33	2131.94
868.49	2250.72
868.66	2236.38
868.83	2301.92
868.99	2314.20
869.16	2277.34
869.33	2207.71
869.50	2258.91
869.66	2156.51
869.83	2209.76
870.00	2072.54
870.16	2310.11
870.33	2207.71
870.50	2306.01
870.66	2234.33
870.83	2297.82
871.00	2236.38
871.17	2248.67
871.33	2234.33
871.50	2172.89
871.67	2324.44
871.83	2086.88
872.00	2326.49
872.17	2207.71
872.33	2392.03
872.50	2344.92
872.67	2209.76
872.83	2148.32
873.00	2271.20
873.17	2211.81
873.33	2211.81
873.50	2244.57
873.67	2150.37
873.83	2246.62
874.00	2285.53
874.16	2273.25
874.33	2236.38
874.50	2158.56
874.66	2232.29
874.83	2179.04
875.00	2404.32
875.16	2308.06
875.33	2293.72
875.50	1992.67
875.66	2154.46
875.83	2252.77
875.99	2246.62
876.16	2244.57
876.33	2109.41
876.49	2207.71
876.66	2293.72
876.83	2234.33
876.99	2080.74
877.16	2207.71
877.32	2095.07
877.49	2238.43
877.66	2256.86
877.82	2432.99
877.99	2179.04
878.15	2299.87
878.32	2238.43
878.49	2158.56
878.65	2197.47
878.82	2260.96
878.98	2234.33
879.15	2297.82
879.32	2310.11
879.48	2199.52
879.65	2293.72
879.81	2246.62
879.98	2131.94
880.15	2142.18
880.31	2340.83
880.48	2179.04
880.64	2265.05
880.81	2183.13
880.97	2359.26
881.14	2365.40
881.31	2097.12
881.47	2340.83
881.64	2248.67
881.80	2111.46
881.97	2242.53
882.13	2254.81
882.30	2174.94
882.47	2203.61
882.63	2146.27
882.80	2105.31
882.96	2197.47
883.13	2381.79
883.29	2138.08
883.46	2185.18
883.62	2441.18
883.79	2308.06
883.95	2283.49
884.12	2203.61
884.29	2303.96
884.45	2332.64
884.62	2281.44
884.78	2113.50
884.95	2404.32
885.11	2215.90
885.28	2310.11
885.44	2170.85
885.61	2351.07
885.77	2404.32
885.94	2254.81
886.10	2215.90
886.27	2260.96
886.43	2365.40
886.60	2295.77
886.76	2138.08
886.93	2162.66
887.09	2258.91
887.26	2158.56
887.42	2209.76
887.59	2301.92
887.75	2432.99
887.92	2342.88
888.08	2340.83
888.25	2418.65
888.41	2342.88
888.58	2191.33
888.74	2193.37
888.91	2203.61
>>>>>End Processed Spectral Data<<<<<
