SpectraSuite Data File
++++++++++++++++++++++++++++++++++++
Date: Thu May 05 13:20:47 CEST 2016
User: root
Dark Spectrum Present: No
Reference Spectrum Present: No
Number of Sampled Component Spectra: 1
Spectrometers: USB4C02835
Integration Time (usec): 100000 (USB4C02835)
Spectra Averaged: 1 (USB4C02835)
Boxcar Smoothing: 0 (USB4C02835)
Correct for Electrical Dark: No (USB4C02835)
Strobe/Lamp Enabled: No (USB4C02835)
Correct for Detector Non-linearity: No (USB4C02835)
Correct for Stray Light: No (USB4C02835)
Number of Pixels in Processed Spectrum: 3648
>>>>>Begin Processed Spectral Data<<<<<
177.47	1794.02
177.69	1794.02
177.91	1794.02
178.13	1753.06
178.36	1806.31
178.58	2209.76
178.80	2283.49
179.02	2166.75
179.24	2144.22
179.46	2183.13
179.68	2318.30
179.90	2209.76
180.13	2211.81
180.35	2062.30
180.57	2228.19
180.79	2359.26
181.01	2244.57
181.23	2260.96
181.45	2260.96
181.67	2332.64
181.90	2283.49
182.12	2209.76
182.34	2072.54
182.56	2215.90
182.78	2291.68
183.00	2156.51
183.22	2195.42
183.44	2029.54
183.66	2478.04
183.89	2318.30
184.11	2176.99
184.33	2365.40
184.55	2346.97
184.77	2166.75
184.99	2129.89
185.21	2226.14
185.43	2502.62
185.65	2154.46
185.87	2125.79
186.10	2473.95
186.32	2420.70
186.54	2267.10
186.76	2203.61
186.98	2379.74
187.20	2246.62
187.42	2090.98
187.64	2189.28
187.86	2265.05
188.08	2336.73
188.30	2195.42
188.52	2154.46
188.75	2432.99
188.97	2430.94
189.19	2138.08
189.41	2133.98
189.63	2342.88
189.85	2119.65
190.07	2113.50
190.29	2064.35
190.51	2344.92
190.73	2129.89
190.95	2297.82
191.17	2240.48
191.39	2138.08
191.61	2185.18
191.84	2097.12
192.06	2179.04
192.28	2109.41
192.50	2478.04
192.72	2217.95
192.94	2119.65
193.16	2373.60
193.38	2236.38
193.60	2080.74
193.82	2136.03
194.04	2432.99
194.26	2303.96
194.48	2220.00
194.70	2093.02
194.92	2189.28
195.14	2297.82
195.36	2183.13
195.58	2213.85
195.80	2236.38
196.02	2246.62
196.24	2181.09
196.46	2220.00
196.69	2263.01
196.91	2512.86
197.13	2201.57
197.35	2095.07
197.57	2349.02
197.79	2355.16
198.01	2152.42
198.23	2084.83
198.45	2267.10
198.67	2150.37
198.89	2183.13
199.11	2244.57
199.33	2242.53
199.55	1998.82
199.77	2121.70
199.99	2320.35
200.21	2189.28
200.43	2318.30
200.65	2181.09
200.87	2090.98
201.09	2203.61
201.31	2189.28
201.53	2301.92
201.75	2224.09
201.97	2285.53
202.19	2242.53
202.41	2240.48
202.63	2441.18
202.85	2293.72
203.07	2222.05
203.29	2088.93
203.51	2117.60
203.73	2181.09
203.95	2547.67
204.17	2187.23
204.39	2275.29
204.61	2160.61
204.83	2195.42
205.05	2273.25
205.27	2277.34
205.49	2566.10
205.71	2129.89
205.93	2039.78
206.15	2138.08
206.37	2224.09
206.59	2228.19
206.81	2086.88
207.03	2105.31
207.25	2181.09
207.47	2277.34
207.69	2183.13
207.91	2373.60
208.13	2416.60
208.34	2234.33
208.56	2146.27
208.78	2265.05
209.00	2203.61
209.22	2256.86
209.44	2267.10
209.66	2058.21
209.88	2295.77
210.10	2228.19
210.32	2174.94
210.54	2275.29
210.76	2209.76
210.98	2389.98
211.20	2078.69
211.42	2193.37
211.64	2363.36
211.86	2373.60
212.08	2238.43
212.30	2187.23
212.52	2226.14
212.74	2297.82
212.96	2193.37
213.17	2240.48
213.39	2328.54
213.61	2310.11
213.83	2138.08
214.05	2187.23
214.27	2338.78
214.49	2119.65
214.71	2166.75
214.93	2308.06
215.15	2291.68
215.37	2281.44
215.59	2064.35
215.81	2209.76
216.03	2357.21
216.24	2263.01
216.46	2187.23
216.68	2213.85
216.90	2363.36
217.12	2379.74
217.34	2176.99
217.56	2193.37
217.78	2455.51
218.00	2269.15
218.22	2172.89
218.44	2258.91
218.66	2217.95
218.87	2424.80
219.09	2160.61
219.31	2205.66
219.53	2269.15
219.75	2193.37
219.97	2215.90
220.19	2232.29
220.41	2220.00
220.63	2463.71
220.85	2160.61
221.06	2103.26
221.28	2330.59
221.50	2383.84
221.72	2154.46
221.94	2142.18
222.16	2277.34
222.38	2340.83
222.60	2176.99
222.82	2224.09
223.03	2297.82
223.25	2152.42
223.47	2226.14
223.69	2256.86
223.91	2283.49
224.13	2248.67
224.35	2138.08
224.57	2322.40
224.78	2240.48
225.00	2179.04
225.22	2179.04
225.44	2152.42
225.66	2373.60
225.88	2234.33
226.10	2217.95
226.32	2230.24
226.53	2400.22
226.75	2209.76
226.97	2187.23
227.19	2144.22
227.41	2115.55
227.63	2201.57
227.85	2062.30
228.06	2160.61
228.28	2271.20
228.50	2330.59
228.72	2088.93
228.94	2166.75
229.16	2136.03
229.37	2136.03
229.59	2170.85
229.81	2355.16
230.03	2242.53
230.25	2076.64
230.47	2072.54
230.69	2047.97
230.90	2389.98
231.12	2232.29
231.34	2279.39
231.56	2224.09
231.78	2138.08
232.00	2185.18
232.21	2191.33
232.43	2111.46
232.65	1974.24
232.87	2295.77
233.09	2170.85
233.30	2152.42
233.52	2383.84
233.74	2254.81
233.96	2176.99
234.18	2242.53
234.40	2195.42
234.61	2492.38
234.83	2035.68
235.05	2052.06
235.27	2592.73
235.49	2330.59
235.70	2121.70
235.92	2234.33
236.14	2289.63
236.36	2551.77
236.58	2068.45
236.79	2244.57
237.01	2244.57
237.23	2258.91
237.45	2303.96
237.67	2121.70
237.88	2242.53
238.10	2394.08
238.32	2103.26
238.54	2179.04
238.76	2338.78
238.97	2168.80
239.19	2115.55
239.41	2271.20
239.63	2293.72
239.85	2199.52
240.06	2187.23
240.28	2179.04
240.50	2334.68
240.72	2281.44
240.93	2136.03
241.15	2248.67
241.37	2283.49
241.59	2369.50
241.81	2158.56
242.02	2287.58
242.24	2273.25
242.46	2381.79
242.68	2047.97
242.89	2170.85
243.11	2383.84
243.33	2310.11
243.55	2260.96
243.76	2275.29
243.98	2140.13
244.20	2183.13
244.42	2136.03
244.64	2195.42
244.85	2193.37
245.07	2183.13
245.29	2215.90
245.51	2211.81
245.72	2232.29
245.94	2426.84
246.16	2164.70
246.38	2260.96
246.59	2193.37
246.81	2119.65
247.03	2142.18
247.24	2074.59
247.46	2234.33
247.68	2330.59
247.90	2166.75
248.11	2117.60
248.33	2363.36
248.55	2228.19
248.77	2226.14
248.98	2363.36
249.20	2369.50
249.42	2226.14
249.64	2158.56
249.85	2222.05
250.07	2256.86
250.29	2301.92
250.50	2217.95
250.72	2144.22
250.94	2277.34
251.16	2467.80
251.37	2207.71
251.59	2285.53
251.81	2318.30
252.02	2375.64
252.24	2170.85
252.46	2189.28
252.68	2201.57
252.89	2199.52
253.11	2154.46
253.33	2375.64
253.54	2396.12
253.76	2058.21
253.98	2093.02
254.20	2127.84
254.41	2129.89
254.63	2168.80
254.85	1996.77
255.06	2181.09
255.28	2318.30
255.50	2207.71
255.71	2164.70
255.93	2176.99
256.15	2183.13
256.36	2301.92
256.58	2090.98
256.80	2291.68
257.02	2201.57
257.23	2252.77
257.45	2250.72
257.67	2293.72
257.88	2121.70
258.10	2293.72
258.32	2226.14
258.53	2150.37
258.75	2375.64
258.97	2240.48
259.18	2127.84
259.40	2150.37
259.62	2383.84
259.83	2492.38
260.05	2209.76
260.27	2662.36
260.48	2383.84
260.70	2222.05
260.92	2125.79
261.13	2220.00
261.35	2310.11
261.57	2281.44
261.78	2086.88
262.00	2170.85
262.22	2359.26
262.43	2236.38
262.65	2246.62
262.86	2189.28
263.08	2529.24
263.30	2295.77
263.51	1968.10
263.73	2113.50
263.95	2400.22
264.16	2174.94
264.38	2144.22
264.60	2187.23
264.81	2265.05
265.03	2365.40
265.25	2363.36
265.46	2170.85
265.68	2432.99
265.89	2295.77
266.11	2043.87
266.33	2121.70
266.54	2320.35
266.76	2332.64
266.98	2250.72
267.19	2340.83
267.41	2293.72
267.62	2250.72
267.84	2095.07
268.06	2269.15
268.27	2213.85
268.49	2359.26
268.70	2236.38
268.92	2228.19
269.14	2209.76
269.35	2111.46
269.57	2244.57
269.79	2197.47
270.00	2172.89
270.22	2330.59
270.43	2062.30
270.65	2002.91
270.87	2220.00
271.08	2299.87
271.30	2281.44
271.51	2172.89
271.73	2322.40
271.95	2363.36
272.16	2189.28
272.38	2250.72
272.59	2297.82
272.81	2291.68
273.02	2150.37
273.24	2144.22
273.46	2385.88
273.67	2152.42
273.89	2129.89
274.10	2117.60
274.32	2310.11
274.54	2258.91
274.75	2230.24
274.97	2211.81
275.18	2330.59
275.40	2308.06
275.61	2226.14
275.83	2285.53
276.05	2103.26
276.26	2205.66
276.48	2254.81
276.69	2156.51
276.91	2133.98
277.12	2396.12
277.34	2281.44
277.55	2310.11
277.77	2195.42
277.99	2199.52
278.20	2113.50
278.42	2072.54
278.63	2211.81
278.85	2131.94
279.06	2150.37
279.28	2236.38
279.49	2418.65
279.71	2297.82
279.93	2191.33
280.14	2260.96
280.36	2152.42
280.57	2310.11
280.79	2322.40
281.00	2140.13
281.22	2207.71
281.43	2353.12
281.65	2064.35
281.86	2236.38
282.08	2265.05
282.29	2486.23
282.51	2113.50
282.73	2146.27
282.94	2101.22
283.16	2297.82
283.37	2383.84
283.59	2217.95
283.80	2230.24
284.02	2301.92
284.23	2176.99
284.45	2236.38
284.66	2217.95
284.88	2113.50
285.09	2240.48
285.31	2246.62
285.52	2275.29
285.74	2156.51
285.95	2310.11
286.17	2273.25
286.38	2289.63
286.60	2183.13
286.81	2183.13
287.03	2183.13
287.24	2226.14
287.46	2281.44
287.67	2242.53
287.89	2392.03
288.10	2283.49
288.32	2289.63
288.53	2389.98
288.75	2265.05
288.96	2279.39
289.18	2217.95
289.39	2154.46
289.61	2289.63
289.82	2379.74
290.04	2443.23
290.25	2162.66
290.47	2244.57
290.68	2172.89
290.90	2334.68
291.11	2064.35
291.33	2363.36
291.54	2176.99
291.76	2176.99
291.97	2252.77
292.18	2271.20
292.40	2232.29
292.61	2215.90
292.83	2435.03
293.04	2275.29
293.26	2291.68
293.47	2263.01
293.69	2086.88
293.90	2271.20
294.12	2400.22
294.33	2326.49
294.55	2242.53
294.76	2279.39
294.97	2375.64
295.19	2482.14
295.40	2203.61
295.62	2330.59
295.83	2324.44
296.05	2172.89
296.26	2279.39
296.48	2160.61
296.69	2258.91
296.90	2281.44
297.12	2328.54
297.33	2383.84
297.55	2293.72
297.76	2293.72
297.98	2301.92
298.19	2234.33
298.41	2308.06
298.62	2220.00
298.83	2303.96
299.05	2187.23
299.26	2207.71
299.48	2154.46
299.69	2269.15
299.90	2252.77
300.12	2084.83
300.33	2346.97
300.55	2185.18
300.76	2324.44
300.98	2105.31
301.19	2281.44
301.40	2195.42
301.62	2150.37
301.83	2273.25
302.05	2265.05
302.26	2299.87
302.47	2310.11
302.69	2160.61
302.90	2283.49
303.12	2070.50
303.33	2301.92
303.54	2496.47
303.76	2162.66
303.97	2197.47
304.19	2392.03
304.40	2199.52
304.61	2228.19
304.83	2441.18
305.04	2326.49
305.26	2250.72
305.47	2246.62
305.68	2222.05
305.90	2072.54
306.11	2383.84
306.33	2236.38
306.54	2144.22
306.75	2119.65
306.97	2019.30
307.18	2176.99
307.39	2191.33
307.61	2277.34
307.82	2156.51
308.04	2240.48
308.25	2207.71
308.46	2275.29
308.68	2217.95
308.89	2230.24
309.10	2289.63
309.32	2283.49
309.53	2238.43
309.74	2353.12
309.96	2256.86
310.17	2281.44
310.39	2217.95
310.60	2297.82
310.81	2252.77
311.03	2090.98
311.24	2213.85
311.45	2265.05
311.67	2338.78
311.88	2246.62
312.09	2209.76
312.31	2146.27
312.52	2168.80
312.73	2234.33
312.95	2154.46
313.16	2203.61
313.37	2359.26
313.59	2301.92
313.80	2301.92
314.01	2475.99
314.23	2191.33
314.44	2162.66
314.65	2109.41
314.87	2174.94
315.08	2209.76
315.29	2217.95
315.51	2193.37
315.72	2181.09
315.93	2373.60
316.15	2209.76
316.36	2207.71
316.57	2176.99
316.79	2277.34
317.00	2244.57
317.21	2277.34
317.43	2129.89
317.64	2179.04
317.85	2224.09
318.07	2193.37
318.28	2203.61
318.49	2369.50
318.70	2512.86
318.92	2414.56
319.13	2451.42
319.34	2418.65
319.56	2355.16
319.77	2367.45
319.98	2369.50
320.20	2367.45
320.41	2269.15
320.62	2283.49
320.83	2172.89
321.05	2441.18
321.26	2310.11
321.47	2211.81
321.69	2338.78
321.90	2170.85
322.11	2174.94
322.32	2318.30
322.54	2400.22
322.75	2199.52
322.96	2562.01
323.18	2097.12
323.39	2111.46
323.60	2195.42
323.81	2265.05
324.03	2166.75
324.24	2174.94
324.45	2277.34
324.66	2220.00
324.88	2506.71
325.09	2439.13
325.30	2201.57
325.52	2215.90
325.73	2424.80
325.94	2052.06
326.15	2023.39
326.37	2185.18
326.58	2355.16
326.79	2367.45
327.00	2160.61
327.22	2244.57
327.43	2203.61
327.64	2078.69
327.85	2297.82
328.07	2269.15
328.28	2463.71
328.49	2154.46
328.70	2306.01
328.92	2224.09
329.13	2234.33
329.34	2316.25
329.55	2392.03
329.76	2308.06
329.98	2234.33
330.19	2369.50
330.40	2234.33
330.61	2240.48
330.83	2201.57
331.04	2199.52
331.25	2242.53
331.46	2179.04
331.68	2152.42
331.89	2351.07
332.10	2277.34
332.31	2136.03
332.52	2179.04
332.74	2340.83
332.95	2039.78
333.16	2189.28
333.37	2322.40
333.58	2203.61
333.80	2308.06
334.01	2047.97
334.22	2158.56
334.43	2191.33
334.64	2129.89
334.86	2187.23
335.07	2199.52
335.28	2492.38
335.49	2088.93
335.70	2277.34
335.92	2332.64
336.13	2455.51
336.34	2326.49
336.55	2275.29
336.76	2291.68
336.98	2064.35
337.19	2242.53
337.40	2400.22
337.61	2580.44
337.82	2199.52
338.04	2392.03
338.25	2023.39
338.46	2195.42
338.67	2203.61
338.88	2166.75
339.09	2146.27
339.31	2244.57
339.52	2084.83
339.73	2152.42
339.94	2232.29
340.15	2291.68
340.36	2207.71
340.58	2207.71
340.79	2115.55
341.00	2318.30
341.21	2127.84
341.42	2383.84
341.63	2217.95
341.85	2359.26
342.06	2365.40
342.27	2242.53
342.48	2338.78
342.69	2154.46
342.90	2312.16
343.12	2324.44
343.33	2248.67
343.54	2342.88
343.75	2459.61
343.96	2209.76
344.17	2119.65
344.38	2217.95
344.60	2109.41
344.81	2064.35
345.02	2201.57
345.23	2334.68
345.44	2465.75
345.65	2318.30
345.86	2252.77
346.07	2246.62
346.29	2215.90
346.50	2303.96
346.71	2252.77
346.92	2410.46
347.13	2461.66
347.34	2299.87
347.55	2217.95
347.76	2254.81
347.98	2101.22
348.19	2191.33
348.40	2334.68
348.61	2238.43
348.82	2406.36
349.03	2291.68
349.24	2144.22
349.45	2496.47
349.66	2052.06
349.88	2209.76
350.09	2240.48
350.30	2359.26
350.51	2375.64
350.72	2324.44
350.93	2250.72
351.14	2226.14
351.35	2254.81
351.56	2158.56
351.77	2211.81
351.99	2260.96
352.20	2387.93
352.41	2365.40
352.62	2068.45
352.83	2287.58
353.04	2226.14
353.25	2250.72
353.46	2260.96
353.67	2365.40
353.88	2095.07
354.09	2203.61
354.30	2267.10
354.52	2303.96
354.73	2170.85
354.94	2215.90
355.15	2254.81
355.36	2441.18
355.57	2242.53
355.78	2213.85
355.99	2191.33
356.20	2152.42
356.41	2334.68
356.62	2234.33
356.83	2240.48
357.04	2392.03
357.25	2117.60
357.46	2131.94
357.68	2080.74
357.89	2072.54
358.10	2179.04
358.31	2187.23
358.52	2199.52
358.73	2127.84
358.94	2199.52
359.15	2166.75
359.36	2213.85
359.57	2215.90
359.78	2191.33
359.99	2269.15
360.20	2179.04
360.41	2252.77
360.62	2301.92
360.83	2236.38
361.04	2258.91
361.25	2234.33
361.46	2463.71
361.67	2250.72
361.88	2308.06
362.09	2336.73
362.30	2269.15
362.51	2240.48
362.72	2244.57
362.93	2316.25
363.14	2297.82
363.35	2256.86
363.56	2183.13
363.78	2326.49
363.99	2349.02
364.20	2301.92
364.41	2220.00
364.62	2480.09
364.83	2220.00
365.04	2191.33
365.25	2244.57
365.46	2484.19
365.67	2189.28
365.88	2207.71
366.09	2148.32
366.30	2310.11
366.51	2281.44
366.72	2144.22
366.93	2252.77
367.14	2277.34
367.35	2375.64
367.56	2170.85
367.77	2383.84
367.98	2318.30
368.18	2365.40
368.39	2342.88
368.60	2150.37
368.81	2349.02
369.02	2220.00
369.23	2310.11
369.44	2103.26
369.65	2220.00
369.86	2318.30
370.07	2215.90
370.28	2088.93
370.49	2320.35
370.70	2293.72
370.91	2185.18
371.12	2181.09
371.33	2396.12
371.54	2228.19
371.75	2412.51
371.96	2023.39
372.17	2244.57
372.38	2349.02
372.59	2260.96
372.80	2232.29
373.01	2271.20
373.22	2238.43
373.43	2228.19
373.64	2193.37
373.85	2414.56
374.06	2455.51
374.26	2301.92
374.47	2242.53
374.68	2461.66
374.89	2371.55
375.10	2203.61
375.31	2357.21
375.52	2287.58
375.73	2322.40
375.94	2142.18
376.15	2379.74
376.36	2152.42
376.57	2179.04
376.78	2258.91
376.99	2271.20
377.20	2271.20
377.40	2228.19
377.61	2400.22
377.82	2203.61
378.03	2351.07
378.24	2326.49
378.45	2232.29
378.66	2281.44
378.87	2121.70
379.08	2090.98
379.29	2162.66
379.50	2426.84
379.71	2291.68
379.91	2349.02
380.12	2217.95
380.33	2244.57
380.54	2260.96
380.75	2252.77
380.96	2201.57
381.17	2230.24
381.38	2166.75
381.59	2222.05
381.80	2306.01
382.00	2435.03
382.21	2359.26
382.42	2447.32
382.63	2443.23
382.84	2306.01
383.05	2281.44
383.26	2420.70
383.47	2248.67
383.68	2326.49
383.88	2375.64
384.09	2322.40
384.30	2387.93
384.51	2314.20
384.72	2228.19
384.93	2113.50
385.14	2234.33
385.35	2387.93
385.55	2129.89
385.76	2318.30
385.97	2277.34
386.18	2115.55
386.39	2160.61
386.60	2172.89
386.81	2195.42
387.02	2150.37
387.22	2170.85
387.43	2398.17
387.64	2301.92
387.85	2439.13
388.06	2496.47
388.27	4093.89
388.48	8028.04
388.68	11550.54
388.89	13973.29
389.10	15087.39
389.31	13864.75
389.52	10923.87
389.73	9400.18
389.93	8587.13
390.14	7817.10
390.35	7151.51
390.56	6485.92
390.77	5201.84
390.98	4050.88
391.18	3227.60
391.39	2777.05
391.60	2424.80
391.81	2424.80
392.02	2256.86
392.23	2551.77
392.43	2256.86
392.64	2326.49
392.85	2277.34
393.06	2355.16
393.27	2232.29
393.47	2213.85
393.68	2265.05
393.89	2226.14
394.10	2420.70
394.31	2150.37
394.52	2170.85
394.72	2217.95
394.93	2381.79
395.14	2166.75
395.35	2301.92
395.56	2166.75
395.76	2244.57
395.97	2328.54
396.18	2301.92
396.39	2449.37
396.60	2637.78
396.80	2490.33
397.01	2459.61
397.22	2340.83
397.43	2418.65
397.64	2285.53
397.84	2314.20
398.05	2478.04
398.26	2277.34
398.47	2332.64
398.67	2357.21
398.88	2334.68
399.09	2273.25
399.30	2162.66
399.51	2359.26
399.71	2181.09
399.92	2285.53
400.13	2355.16
400.34	2207.71
400.54	2209.76
400.75	2389.98
400.96	2254.81
401.17	2506.71
401.37	2357.21
401.58	2185.18
401.79	2213.85
402.00	2441.18
402.21	2736.09
402.41	2506.71
402.62	2627.54
402.83	2637.78
403.04	2676.70
403.24	2789.33
403.45	2435.03
403.66	2488.28
403.87	2488.28
404.07	2564.06
404.28	2564.06
404.49	2478.04
404.70	2430.94
404.90	2308.06
405.11	2377.69
405.32	2361.31
405.52	2203.61
405.73	2226.14
405.94	2193.37
406.15	2316.25
406.35	2328.54
406.56	2355.16
406.77	2291.68
406.98	2256.86
407.18	2140.13
407.39	2502.62
407.60	2211.81
407.80	2277.34
408.01	2156.51
408.22	2308.06
408.43	2140.13
408.63	2359.26
408.84	2367.45
409.05	2316.25
409.25	2254.81
409.46	2263.01
409.67	2193.37
409.88	2172.89
410.08	2277.34
410.29	2230.24
410.50	2351.07
410.70	2271.20
410.91	2129.89
411.12	2281.44
411.32	2220.00
411.53	2285.53
411.74	2281.44
411.95	2301.92
412.15	2424.80
412.36	2359.26
412.57	2424.80
412.77	2402.27
412.98	2340.83
413.19	2154.46
413.39	2332.64
413.60	2349.02
413.81	2471.90
414.01	2172.89
414.22	2312.16
414.43	2297.82
414.63	2277.34
414.84	2441.18
415.05	2271.20
415.25	2093.02
415.46	2357.21
415.67	2213.85
415.87	2310.11
416.08	2269.15
416.29	2254.81
416.49	2318.30
416.70	2205.66
416.91	2244.57
417.11	2197.47
417.32	2303.96
417.53	2342.88
417.73	2260.96
417.94	2248.67
418.15	2287.58
418.35	2353.12
418.56	2224.09
418.77	2516.95
418.97	2195.42
419.18	2250.72
419.38	2035.68
419.59	2207.71
419.80	2332.64
420.00	2164.70
420.21	2207.71
420.42	2351.07
420.62	2301.92
420.83	2174.94
421.04	2269.15
421.24	2293.72
421.45	2328.54
421.65	2342.88
421.86	2244.57
422.07	2308.06
422.27	2328.54
422.48	2224.09
422.69	2074.59
422.89	2281.44
423.10	2195.42
423.30	2205.66
423.51	2248.67
423.72	2269.15
423.92	2299.87
424.13	2138.08
424.33	2312.16
424.54	2328.54
424.75	2260.96
424.95	2414.56
425.16	2281.44
425.36	2263.01
425.57	2353.12
425.78	2432.99
425.98	2332.64
426.19	2226.14
426.39	2172.89
426.60	2293.72
426.81	2357.21
427.01	2295.77
427.22	2088.93
427.42	2160.61
427.63	2164.70
427.83	2334.68
428.04	2430.94
428.25	2338.78
428.45	2379.74
428.66	2392.03
428.86	2240.48
429.07	2236.38
429.28	2222.05
429.48	2258.91
429.69	2172.89
429.89	2291.68
430.10	2086.88
430.30	2312.16
430.51	2404.32
430.71	2168.80
430.92	2242.53
431.13	2117.60
431.33	2312.16
431.54	2314.20
431.74	2332.64
431.95	2457.56
432.15	2215.90
432.36	2283.49
432.56	2285.53
432.77	2410.46
432.98	2482.14
433.18	2265.05
433.39	2236.38
433.59	2211.81
433.80	2396.12
434.00	2387.93
434.21	2230.24
434.41	2250.72
434.62	2498.52
434.82	2144.22
435.03	2232.29
435.23	2279.39
435.44	2144.22
435.64	2205.66
435.85	2306.01
436.06	2340.83
436.26	2342.88
436.47	2228.19
436.67	2181.09
436.88	2252.77
437.08	2519.00
437.29	2408.41
437.49	2318.30
437.70	2363.36
437.90	2265.05
438.11	2416.60
438.31	2301.92
438.52	2482.14
438.72	2467.80
438.93	2588.63
439.13	2314.20
439.34	2408.41
439.54	2295.77
439.75	2410.46
439.95	2320.35
440.16	2289.63
440.36	2289.63
440.57	2322.40
440.77	2285.53
440.98	2250.72
441.18	2344.92
441.39	2193.37
441.59	2166.75
441.80	2441.18
442.00	2316.25
442.21	2369.50
442.41	2129.89
442.62	2342.88
442.82	2195.42
443.02	2375.64
443.23	2252.77
443.43	2154.46
443.64	2392.03
443.84	2195.42
444.05	2365.40
444.25	2299.87
444.46	2197.47
444.66	2267.10
444.87	2361.31
445.07	2086.88
445.28	2267.10
445.48	2451.42
445.69	2330.59
445.89	2570.20
446.09	2201.57
446.30	2504.67
446.50	2809.81
446.71	4411.32
446.91	5404.59
447.12	6297.50
447.32	6643.61
447.53	6141.86
447.73	4949.94
447.93	4554.68
448.14	4208.58
448.34	4020.16
448.55	3596.23
448.75	3594.19
448.96	3422.16
449.16	3088.34
449.36	2840.53
449.57	2572.25
449.77	2373.60
449.98	2332.64
450.18	2355.16
450.39	2359.26
450.59	2394.08
450.79	2254.81
451.00	2207.71
451.20	2365.40
451.41	2189.28
451.61	2316.25
451.81	2289.63
452.02	2162.66
452.22	2205.66
452.43	2207.71
452.63	2211.81
452.84	2203.61
453.04	2213.85
453.24	2256.86
453.45	2230.24
453.65	2295.77
453.86	2320.35
454.06	2326.49
454.26	2330.59
454.47	2158.56
454.67	2392.03
454.87	2412.51
455.08	2285.53
455.28	2424.80
455.49	2267.10
455.69	2148.32
455.89	2447.32
456.10	2310.11
456.30	2172.89
456.51	2351.07
456.71	2330.59
456.91	2260.96
457.12	2236.38
457.32	2371.55
457.52	2226.14
457.73	2359.26
457.93	2254.81
458.14	2230.24
458.34	2121.70
458.54	2240.48
458.75	2228.19
458.95	2334.68
459.15	2357.21
459.36	2379.74
459.56	2308.06
459.76	2496.47
459.97	2322.40
460.17	2267.10
460.37	2297.82
460.58	2283.49
460.78	2254.81
460.99	2215.90
461.19	2228.19
461.39	2215.90
461.60	2117.60
461.80	2326.49
462.00	2168.80
462.21	2260.96
462.41	2138.08
462.61	2144.22
462.82	2140.13
463.02	2252.77
463.22	2226.14
463.43	2351.07
463.63	2176.99
463.83	2449.37
464.04	2297.82
464.24	2299.87
464.44	2258.91
464.64	2306.01
464.85	2283.49
465.05	2367.45
465.25	2127.84
465.46	2185.18
465.66	2381.79
465.86	2326.49
466.07	2273.25
466.27	2220.00
466.47	2136.03
466.68	2136.03
466.88	2404.32
467.08	2379.74
467.29	2361.31
467.49	2336.73
467.69	2258.91
467.89	2359.26
468.10	2234.33
468.30	2248.67
468.50	2342.88
468.71	2398.17
468.91	2127.84
469.11	2465.75
469.31	2250.72
469.52	2162.66
469.72	2471.90
469.92	2465.75
470.13	2267.10
470.33	2283.49
470.53	2336.73
470.73	2559.96
470.94	2906.07
471.14	3223.50
471.34	3604.42
471.54	3358.67
471.75	3084.24
471.95	2795.48
472.15	2772.95
472.36	2785.24
472.56	2715.61
472.76	2803.67
472.96	2633.69
473.17	2572.25
473.37	2424.80
473.57	2244.57
473.77	2389.98
473.98	2308.06
474.18	2113.50
474.38	2586.58
474.58	2236.38
474.79	2240.48
474.99	2342.88
475.19	2367.45
475.39	2117.60
475.60	2295.77
475.80	2260.96
476.00	2220.00
476.20	2293.72
476.41	2285.53
476.61	2373.60
476.81	2359.26
477.01	2211.81
477.21	2357.21
477.42	2318.30
477.62	2187.23
477.82	2420.70
478.02	2187.23
478.23	2293.72
478.43	2179.04
478.63	2293.72
478.83	2222.05
479.03	2176.99
479.24	2457.56
479.44	2478.04
479.64	2170.85
479.84	2129.89
480.04	2228.19
480.25	2426.84
480.45	2185.18
480.65	2170.85
480.85	2443.23
481.06	2244.57
481.26	2303.96
481.46	2279.39
481.66	2338.78
481.86	2230.24
482.06	2355.16
482.27	2269.15
482.47	2277.34
482.67	2277.34
482.87	2209.76
483.07	2275.29
483.28	2189.28
483.48	2162.66
483.68	2203.61
483.88	2205.66
484.08	2105.31
484.29	2119.65
484.49	2281.44
484.69	2101.22
484.89	2377.69
485.09	2289.63
485.29	2232.29
485.50	2334.68
485.70	2244.57
485.90	2387.93
486.10	2306.01
486.30	2263.01
486.50	2385.88
486.71	2285.53
486.91	2299.87
487.11	2457.56
487.31	2160.61
487.51	2330.59
487.71	2187.23
487.91	2232.29
488.12	2170.85
488.32	2039.78
488.52	2228.19
488.72	2041.82
488.92	2310.11
489.12	2306.01
489.32	2394.08
489.53	2285.53
489.73	2136.03
489.93	2455.51
490.13	2197.47
490.33	2103.26
490.53	2168.80
490.73	2439.13
490.94	2146.27
491.14	2357.21
491.34	2332.64
491.54	2553.82
491.74	3168.21
491.94	3762.12
492.14	3989.44
492.34	4042.69
492.54	3772.36
492.75	3192.78
492.95	3266.51
493.15	2944.98
493.35	2858.96
493.55	2783.19
493.75	2779.09
493.95	2805.72
494.15	2498.52
494.35	2389.98
494.56	2320.35
494.76	2240.48
494.96	2344.92
495.16	2220.00
495.36	2308.06
495.56	2308.06
495.76	2273.25
495.96	2215.90
496.16	2160.61
496.36	2426.84
496.56	2234.33
496.77	2338.78
496.97	2260.96
497.17	2414.56
497.37	2174.94
497.57	2346.97
497.77	2367.45
497.97	2166.75
498.17	2299.87
498.37	2228.19
498.57	2326.49
498.77	2176.99
498.97	2306.01
499.17	2449.37
499.38	2277.34
499.58	2383.84
499.78	2359.26
499.98	2381.79
500.18	2209.76
500.38	2199.52
500.58	2416.60
500.78	2834.39
500.98	5164.98
501.18	7100.31
501.38	8722.30
501.58	9779.05
501.78	9549.68
501.98	7487.37
502.18	6434.72
502.38	5619.63
502.58	5128.11
502.78	4665.27
502.98	4427.71
503.18	4214.72
503.38	3870.66
503.59	3383.24
503.79	3209.17
503.99	2985.94
504.19	2826.20
504.39	2785.24
504.59	2775.00
504.79	2779.09
504.99	2836.44
505.19	2564.06
505.39	2576.34
505.59	2602.97
505.79	2613.21
505.99	2420.70
506.19	2318.30
506.39	2447.32
506.59	2267.10
506.79	2254.81
506.99	2361.31
507.19	2244.57
507.39	2334.68
507.59	2265.05
507.79	2138.08
507.99	2213.85
508.19	2267.10
508.39	2209.76
508.59	2220.00
508.79	2379.74
508.99	2498.52
509.19	2199.52
509.39	2244.57
509.59	2129.89
509.79	2162.66
509.99	2394.08
510.19	2320.35
510.39	2412.51
510.59	2248.67
510.79	2201.57
510.99	2138.08
511.19	2267.10
511.39	2475.99
511.59	2398.17
511.79	2334.68
511.99	2283.49
512.19	2428.89
512.38	2281.44
512.58	2209.76
512.78	2258.91
512.98	2342.88
513.18	2416.60
513.38	2080.74
513.58	2338.78
513.78	2191.33
513.98	2230.24
514.18	2252.77
514.38	2213.85
514.58	2308.06
514.78	2263.01
514.98	2211.81
515.18	2209.76
515.38	2193.37
515.58	2521.05
515.78	2232.29
515.98	2224.09
516.18	2379.74
516.38	2254.81
516.57	2226.14
516.77	2195.42
516.97	2389.98
517.17	2230.24
517.37	2019.30
517.57	2308.06
517.77	2318.30
517.97	2172.89
518.17	2291.68
518.37	2228.19
518.57	2152.42
518.77	2273.25
518.97	2217.95
519.16	2285.53
519.36	2400.22
519.56	2222.05
519.76	2281.44
519.96	2289.63
520.16	2389.98
520.36	2265.05
520.56	2346.97
520.76	2277.34
520.96	2236.38
521.16	2357.21
521.35	2455.51
521.55	2457.56
521.75	2172.89
521.95	2226.14
522.15	2263.01
522.35	2088.93
522.55	2187.23
522.75	2359.26
522.95	2254.81
523.14	2201.57
523.34	2293.72
523.54	2252.77
523.74	2392.03
523.94	2285.53
524.14	2209.76
524.34	2355.16
524.54	2469.85
524.73	2344.92
524.93	2355.16
525.13	2242.53
525.33	2133.98
525.53	2504.67
525.73	2428.89
525.93	2303.96
526.13	2213.85
526.32	2246.62
526.52	2357.21
526.72	2428.89
526.92	2222.05
527.12	2277.34
527.32	2154.46
527.52	2349.02
527.71	2244.57
527.91	2285.53
528.11	2152.42
528.31	2289.63
528.51	2154.46
528.71	2306.01
528.90	2234.33
529.10	2404.32
529.30	2398.17
529.50	2050.02
529.70	2351.07
529.90	2258.91
530.09	2285.53
530.29	2072.54
530.49	2191.33
530.69	2531.29
530.89	2308.06
531.09	2314.20
531.28	2207.71
531.48	2379.74
531.68	2285.53
531.88	2295.77
532.08	2291.68
532.28	2289.63
532.47	2326.49
532.67	2357.21
532.87	2355.16
533.07	2191.33
533.27	2332.64
533.46	2306.01
533.66	2375.64
533.86	2207.71
534.06	2301.92
534.26	2299.87
534.45	2217.95
534.65	2363.36
534.85	2291.68
535.05	2263.01
535.25	2402.27
535.44	2119.65
535.64	2367.45
535.84	2199.52
536.04	2252.77
536.24	2252.77
536.43	2080.74
536.63	2322.40
536.83	2244.57
537.03	2174.94
537.22	2107.36
537.42	2078.69
537.62	2330.59
537.82	2136.03
538.02	2375.64
538.21	2269.15
538.41	2584.54
538.61	2230.24
538.81	2295.77
539.00	2336.73
539.20	2111.46
539.40	2232.29
539.60	2250.72
539.79	2394.08
539.99	2256.86
540.19	2232.29
540.39	2310.11
540.58	2248.67
540.78	2400.22
540.98	2248.67
541.18	2457.56
541.37	2299.87
541.57	2236.38
541.77	2269.15
541.97	2127.84
542.16	2115.55
542.36	2236.38
542.56	2236.38
542.76	2414.56
542.95	2353.12
543.15	2349.02
543.35	2365.40
543.54	2170.85
543.74	2195.42
543.94	2342.88
544.14	2174.94
544.33	2326.49
544.53	2234.33
544.73	2236.38
544.93	2252.77
545.12	2220.00
545.32	2260.96
545.52	2250.72
545.71	2183.13
545.91	2189.28
546.11	2293.72
546.30	2150.37
546.50	2160.61
546.70	2365.40
546.90	2183.13
547.09	2117.60
547.29	2265.05
547.49	2383.84
547.68	2242.53
547.88	2183.13
548.08	2314.20
548.27	2734.04
548.47	2211.81
548.67	2138.08
548.87	2351.07
549.06	2193.37
549.26	2275.29
549.46	2324.44
549.65	2277.34
549.85	2326.49
550.05	2252.77
550.24	2142.18
550.44	2252.77
550.64	2273.25
550.83	2217.95
551.03	2342.88
551.23	2475.99
551.42	2293.72
551.62	2258.91
551.82	2269.15
552.01	2318.30
552.21	2383.84
552.41	2244.57
552.60	2488.28
552.80	2318.30
553.00	2217.95
553.19	2254.81
553.39	2469.85
553.59	2215.90
553.78	2297.82
553.98	2248.67
554.17	2170.85
554.37	2291.68
554.57	2306.01
554.76	2195.42
554.96	2179.04
555.16	2230.24
555.35	2277.34
555.55	2357.21
555.75	2322.40
555.94	2306.01
556.14	2179.04
556.33	2299.87
556.53	2367.45
556.73	2179.04
556.92	2410.46
557.12	2351.07
557.32	2418.65
557.51	2363.36
557.71	2277.34
557.90	2428.89
558.10	2469.85
558.30	2232.29
558.49	2234.33
558.69	2285.53
558.88	2400.22
559.08	2265.05
559.28	2222.05
559.47	2310.11
559.67	2283.49
559.86	2449.37
560.06	2275.29
560.26	2230.24
560.45	2334.68
560.65	2293.72
560.84	2373.60
561.04	2168.80
561.24	2340.83
561.43	2211.81
561.63	2494.43
561.82	2197.47
562.02	2334.68
562.22	2105.31
562.41	2181.09
562.61	2209.76
562.80	2236.38
563.00	2449.37
563.19	2303.96
563.39	2285.53
563.59	2318.30
563.78	2097.12
563.98	2033.63
564.17	2207.71
564.37	2109.41
564.56	2260.96
564.76	2125.79
564.96	2293.72
565.15	2299.87
565.35	2490.33
565.54	2174.94
565.74	2377.69
565.93	2412.51
566.13	2281.44
566.32	2299.87
566.52	2293.72
566.71	2226.14
566.91	2351.07
567.11	2314.20
567.30	2205.66
567.50	2340.83
567.69	2322.40
567.89	2238.43
568.08	2213.85
568.28	2285.53
568.47	2097.12
568.67	2232.29
568.86	2207.71
569.06	2324.44
569.25	2254.81
569.45	2123.74
569.64	2179.04
569.84	2236.38
570.04	2293.72
570.23	2193.37
570.43	2252.77
570.62	2310.11
570.82	2473.95
571.01	2181.09
571.21	2273.25
571.40	2207.71
571.60	2301.92
571.79	2240.48
571.99	2279.39
572.18	2170.85
572.38	2297.82
572.57	2185.18
572.77	2287.58
572.96	2523.10
573.16	2310.11
573.35	2299.87
573.55	2410.46
573.74	2281.44
573.94	2244.57
574.13	2254.81
574.33	2320.35
574.52	2445.27
574.71	2277.34
574.91	2330.59
575.10	2199.52
575.30	2191.33
575.49	2211.81
575.69	2222.05
575.88	2308.06
576.08	2285.53
576.27	2332.64
576.47	2310.11
576.66	2404.32
576.86	2441.18
577.05	2293.72
577.25	2246.62
577.44	2461.66
577.64	2211.81
577.83	2387.93
578.02	2201.57
578.22	2449.37
578.41	2471.90
578.61	2211.81
578.80	2154.46
579.00	2181.09
579.19	2277.34
579.39	2322.40
579.58	2318.30
579.77	2252.77
579.97	2406.36
580.16	2414.56
580.36	2326.49
580.55	2357.21
580.75	2285.53
580.94	2420.70
581.13	2461.66
581.33	2365.40
581.52	2242.53
581.72	2555.86
581.91	2469.85
582.11	2244.57
582.30	2430.94
582.49	2283.49
582.69	2443.23
582.88	2408.41
583.08	2318.30
583.27	2400.22
583.47	2303.96
583.66	2287.58
583.85	2191.33
584.05	2322.40
584.24	2340.83
584.44	2285.53
584.63	2375.64
584.82	2467.80
585.02	2531.29
585.21	2447.32
585.41	2510.81
585.60	2400.22
585.79	2498.52
585.99	2492.38
586.18	2441.18
586.37	2971.60
586.57	4745.14
586.76	13793.07
586.96	32884.23
587.15	46826.81
587.34	55755.95
587.54	60566.63
587.73	55774.38
587.93	39220.65
588.12	29728.31
588.31	23977.62
588.51	20786.88
588.70	19185.37
588.89	17364.73
589.09	15066.91
589.28	12803.90
589.47	10235.75
589.67	8288.13
589.86	6352.80
590.06	4628.41
590.25	3833.80
590.44	3184.59
590.64	2830.29
590.83	2564.06
591.02	2564.06
591.22	2496.47
591.41	2441.18
591.60	2344.92
591.80	2566.10
591.99	2217.95
592.18	2267.10
592.38	2469.85
592.57	2217.95
592.76	2297.82
592.96	2269.15
593.15	2332.64
593.34	2392.03
593.54	2281.44
593.73	2355.16
593.92	2344.92
594.12	2322.40
594.31	2342.88
594.50	2414.56
594.70	2342.88
594.89	2578.39
595.08	2209.76
595.28	2353.12
595.47	2635.74
595.66	2301.92
595.86	2185.18
596.05	2252.77
596.24	2306.01
596.43	2465.75
596.63	2451.42
596.82	2340.83
597.01	2396.12
597.21	2531.29
597.40	2375.64
597.59	2334.68
597.79	2295.77
597.98	2334.68
598.17	2363.36
598.36	2289.63
598.56	2377.69
598.75	2236.38
598.94	2267.10
599.14	2263.01
599.33	2240.48
599.52	2338.78
599.71	2318.30
599.91	2400.22
600.10	2392.03
600.29	2234.33
600.48	2439.13
600.68	2314.20
600.87	2328.54
601.06	2185.18
601.26	2267.10
601.45	2258.91
601.64	2250.72
601.83	2453.47
602.03	2127.84
602.22	2152.42
602.41	2389.98
602.60	2467.80
602.80	2256.86
602.99	2234.33
603.18	2226.14
603.37	2228.19
603.57	2301.92
603.76	2312.16
603.95	2369.50
604.14	2211.81
604.34	2166.75
604.53	2277.34
604.72	2306.01
604.91	2318.30
605.10	2303.96
605.30	2168.80
605.49	2500.57
605.68	2410.46
605.87	2334.68
606.07	2215.90
606.26	2283.49
606.45	2316.25
606.64	2279.39
606.84	2224.09
607.03	2285.53
607.22	2424.80
607.41	2207.71
607.60	2154.46
607.80	2379.74
607.99	2289.63
608.18	2234.33
608.37	2199.52
608.56	2230.24
608.76	2336.73
608.95	2379.74
609.14	2297.82
609.33	2480.09
609.52	2500.57
609.72	2371.55
609.91	2349.02
610.10	2322.40
610.29	2412.51
610.48	2318.30
610.68	2281.44
610.87	2340.83
611.06	2359.26
611.25	2236.38
611.44	2381.79
611.63	2277.34
611.83	2361.31
612.02	2158.56
612.21	2416.60
612.40	2125.79
612.59	2187.23
612.79	2170.85
612.98	2217.95
613.17	2496.47
613.36	2256.86
613.55	2486.23
613.74	2330.59
613.93	2422.75
614.13	2482.14
614.32	2533.34
614.51	2514.91
614.70	2332.64
614.89	2351.07
615.08	2437.08
615.28	2740.18
615.47	2187.23
615.66	2385.88
615.85	2351.07
616.04	2478.04
616.23	2439.13
616.42	2287.58
616.62	2359.26
616.81	2281.44
617.00	2328.54
617.19	2308.06
617.38	2281.44
617.57	2359.26
617.76	2373.60
617.95	2330.59
618.15	2361.31
618.34	2465.75
618.53	2187.23
618.72	2357.21
618.91	2338.78
619.10	2441.18
619.29	2299.87
619.48	2375.64
619.68	2136.03
619.87	2318.30
620.06	2076.64
620.25	2226.14
620.44	2195.42
620.63	2199.52
620.82	2301.92
621.01	2158.56
621.20	2267.10
621.39	2385.88
621.59	2322.40
621.78	2285.53
621.97	2297.82
622.16	2310.11
622.35	2301.92
622.54	2416.60
622.73	2338.78
622.92	2097.12
623.11	2430.94
623.30	2232.29
623.49	2312.16
623.68	2236.38
623.88	2318.30
624.07	2248.67
624.26	2217.95
624.45	2301.92
624.64	2293.72
624.83	2209.76
625.02	2201.57
625.21	2260.96
625.40	2193.37
625.59	2328.54
625.78	2275.29
625.97	2377.69
626.16	2381.79
626.35	2410.46
626.54	2385.88
626.74	2484.19
626.93	2269.15
627.12	2351.07
627.31	2449.37
627.50	2254.81
627.69	2371.55
627.88	2197.47
628.07	2240.48
628.26	2181.09
628.45	2191.33
628.64	2172.89
628.83	2285.53
629.02	2074.59
629.21	2244.57
629.40	2269.15
629.59	2179.04
629.78	2226.14
629.97	2265.05
630.16	2248.67
630.35	2234.33
630.54	2275.29
630.73	2193.37
630.92	2252.77
631.11	2224.09
631.30	2252.77
631.49	2381.79
631.68	2340.83
631.87	2330.59
632.06	2136.03
632.25	2588.63
632.44	2242.53
632.63	2353.12
632.82	2275.29
633.01	2301.92
633.20	2293.72
633.39	2281.44
633.58	2176.99
633.77	2430.94
633.96	2375.64
634.15	2373.60
634.34	2342.88
634.53	2326.49
634.72	2211.81
634.91	2109.41
635.10	2330.59
635.29	2293.72
635.48	2306.01
635.67	2174.94
635.86	2113.50
636.05	2451.42
636.24	2291.68
636.43	2283.49
636.62	2310.11
636.81	1964.00
637.00	2285.53
637.19	2297.82
637.38	2326.49
637.57	2269.15
637.76	2314.20
637.95	2430.94
638.14	2312.16
638.33	2404.32
638.52	2293.72
638.71	2275.29
638.89	2232.29
639.08	2594.78
639.27	2420.70
639.46	2467.80
639.65	2904.02
639.84	2824.15
640.03	2963.41
640.22	2924.50
640.41	2854.87
640.60	2445.27
640.79	2486.23
640.98	2445.27
641.17	2451.42
641.36	2398.17
641.55	2482.14
641.74	2277.34
641.92	2265.05
642.11	2273.25
642.30	2269.15
642.49	2170.85
642.68	2217.95
642.87	2258.91
643.06	2297.82
643.25	2185.18
643.44	2144.22
643.63	2250.72
643.82	2359.26
644.00	2138.08
644.19	2277.34
644.38	2187.23
644.57	2344.92
644.76	2250.72
644.95	2318.30
645.14	2228.19
645.33	2234.33
645.52	2232.29
645.71	2201.57
645.89	2170.85
646.08	2226.14
646.27	2162.66
646.46	2449.37
646.65	2148.32
646.84	2250.72
647.03	2176.99
647.22	2299.87
647.40	2314.20
647.59	2205.66
647.78	2170.85
647.97	2220.00
648.16	2154.46
648.35	2383.84
648.54	2342.88
648.73	2201.57
648.91	2357.21
649.10	2275.29
649.29	2228.19
649.48	2197.47
649.67	2363.36
649.86	2273.25
650.05	2265.05
650.23	2457.56
650.42	2275.29
650.61	2498.52
650.80	2381.79
650.99	2525.15
651.18	2385.88
651.36	2459.61
651.55	2250.72
651.74	2389.98
651.93	2250.72
652.12	2187.23
652.31	2269.15
652.49	2195.42
652.68	2195.42
652.87	2408.41
653.06	2447.32
653.25	2465.75
653.44	2273.25
653.62	2392.03
653.81	2254.81
654.00	2277.34
654.19	2349.02
654.38	2506.71
654.56	2258.91
654.75	2205.66
654.94	2297.82
655.13	2291.68
655.32	2283.49
655.51	2269.15
655.69	2195.42
655.88	2385.88
656.07	2154.46
656.26	2269.15
656.45	2107.36
656.63	2334.68
656.82	2277.34
657.01	2303.96
657.20	2236.38
657.38	2443.23
657.57	2281.44
657.76	2144.22
657.95	2338.78
658.14	2123.74
658.32	2230.24
658.51	2084.83
658.70	2199.52
658.89	2285.53
659.08	2316.25
659.26	2420.70
659.45	2226.14
659.64	2383.84
659.83	2232.29
660.01	2596.82
660.20	2291.68
660.39	2379.74
660.58	2101.22
660.76	2316.25
660.95	2158.56
661.14	2299.87
661.33	2170.85
661.51	2250.72
661.70	2193.37
661.89	2293.72
662.08	2269.15
662.26	2105.31
662.45	2228.19
662.64	2416.60
662.83	2361.31
663.01	2209.76
663.20	2269.15
663.39	2412.51
663.58	2269.15
663.76	2152.42
663.95	2398.17
664.14	2168.80
664.32	2287.58
664.51	2127.84
664.70	2121.70
664.89	2256.86
665.07	2119.65
665.26	2367.45
665.45	2047.97
665.64	2342.88
665.82	2289.63
666.01	2340.83
666.20	2217.95
666.38	2490.33
666.57	2457.56
666.76	3342.28
666.95	8138.63
667.13	16432.90
667.32	21397.18
667.51	25050.75
667.69	26560.11
667.88	23821.97
668.07	16985.85
668.25	13907.76
668.44	11517.78
668.63	9766.76
668.81	8650.62
669.00	7692.17
669.19	6733.72
669.38	6102.95
669.56	5048.24
669.75	4382.65
669.94	3743.69
670.12	3014.61
670.31	2791.38
670.50	2705.37
670.68	2498.52
670.87	2359.26
671.06	2236.38
671.24	2389.98
671.43	2510.81
671.62	2389.98
671.80	2256.86
671.99	2289.63
672.18	2236.38
672.36	2359.26
672.55	2346.97
672.74	2330.59
672.92	2273.25
673.11	2283.49
673.29	2160.61
673.48	2285.53
673.67	2297.82
673.85	2383.84
674.04	2232.29
674.23	2265.05
674.41	2492.38
674.60	2148.32
674.79	2133.98
674.97	2158.56
675.16	2406.36
675.34	2357.21
675.53	2217.95
675.72	2263.01
675.90	2447.32
676.09	2226.14
676.28	2250.72
676.46	2181.09
676.65	2310.11
676.83	2254.81
677.02	2277.34
677.21	2246.62
677.39	2330.59
677.58	2193.37
677.77	2154.46
677.95	2215.90
678.14	2265.05
678.32	2275.29
678.51	2193.37
678.70	2435.03
678.88	2187.23
679.07	2340.83
679.25	2252.77
679.44	2258.91
679.63	2244.57
679.81	2240.48
680.00	2383.84
680.18	2297.82
680.37	2480.09
680.55	2217.95
680.74	2179.04
680.93	2105.31
681.11	2293.72
681.30	2312.16
681.48	2201.57
681.67	2211.81
681.85	2263.01
682.04	2166.75
682.23	2328.54
682.41	2318.30
682.60	2203.61
682.78	2252.77
682.97	2162.66
683.15	2220.00
683.34	2303.96
683.53	2377.69
683.71	2150.37
683.90	2318.30
684.08	2449.37
684.27	2265.05
684.45	2308.06
684.64	2314.20
684.82	2220.00
685.01	2301.92
685.19	2254.81
685.38	2365.40
685.57	2252.77
685.75	2195.42
685.94	2258.91
686.12	2168.80
686.31	2197.47
686.49	2453.47
686.68	2074.59
686.86	2318.30
687.05	2293.72
687.23	2441.18
687.42	2267.10
687.60	2095.07
687.79	2326.49
687.97	2330.59
688.16	2334.68
688.34	2240.48
688.53	2105.31
688.71	2344.92
688.90	2379.74
689.08	2267.10
689.27	2183.13
689.45	2416.60
689.64	2310.11
689.82	2263.01
690.01	2299.87
690.19	2342.88
690.38	2234.33
690.56	2308.06
690.75	2242.53
690.93	2113.50
691.12	2170.85
691.30	2297.82
691.49	2156.51
691.67	2181.09
691.86	2463.71
692.04	2215.90
692.23	2258.91
692.41	2279.39
692.60	2510.81
692.78	2396.12
692.97	2314.20
693.15	2416.60
693.34	2441.18
693.52	2389.98
693.71	2330.59
693.89	2236.38
694.08	2183.13
694.26	2359.26
694.44	2357.21
694.63	2334.68
694.81	2179.04
695.00	2191.33
695.18	2377.69
695.37	2416.60
695.55	2332.64
695.74	2181.09
695.92	2258.91
696.10	2494.43
696.29	2166.75
696.47	2201.57
696.66	2176.99
696.84	2152.42
697.03	2242.53
697.21	2461.66
697.40	3364.81
697.58	2263.01
697.76	2244.57
697.95	2160.61
698.13	2201.57
698.32	2211.81
698.50	2273.25
698.68	2232.29
698.87	2285.53
699.05	2381.79
699.24	2213.85
699.42	2168.80
699.61	2295.77
699.79	2242.53
699.97	2275.29
700.16	2066.40
700.34	2160.61
700.53	2260.96
700.71	2363.36
700.89	2334.68
701.08	2273.25
701.26	2224.09
701.45	2682.84
701.63	2189.28
701.81	2187.23
702.00	2234.33
702.18	2217.95
702.37	2324.44
702.55	2473.95
702.73	2465.75
702.92	2289.63
703.10	2555.86
703.28	2523.10
703.47	2287.58
703.65	2447.32
703.84	2387.93
704.02	2308.06
704.20	2480.09
704.39	2256.86
704.57	2332.64
704.75	2373.60
704.94	2383.84
705.12	2355.16
705.30	2551.77
705.49	4382.65
705.67	10399.59
705.86	18357.99
706.04	22030.00
706.22	24997.51
706.41	25773.69
706.59	22009.52
706.77	15882.00
706.96	13049.66
707.14	11472.72
707.32	10006.38
707.51	8750.97
707.69	7303.06
707.87	6023.08
708.06	4868.02
708.24	3899.33
708.42	3250.13
708.61	2955.22
708.79	2379.74
708.97	2420.70
709.16	2455.51
709.34	2439.13
709.52	2291.68
709.71	2248.67
709.89	2355.16
710.07	2207.71
710.26	2207.71
710.44	2226.14
710.62	2332.64
710.80	2267.10
710.99	2359.26
711.17	2314.20
711.35	2258.91
711.54	2166.75
711.72	2394.08
711.90	2293.72
712.09	2250.72
712.27	2220.00
712.45	2326.49
712.63	2293.72
712.82	2310.11
713.00	2275.29
713.18	2258.91
713.37	2277.34
713.55	2381.79
713.73	2303.96
713.91	2297.82
714.10	2277.34
714.28	2252.77
714.46	2277.34
714.65	2295.77
714.83	2267.10
715.01	2246.62
715.19	2234.33
715.38	2211.81
715.56	2250.72
715.74	2217.95
715.92	2172.89
716.11	2359.26
716.29	2086.88
716.47	2228.19
716.65	2258.91
716.84	2115.55
717.02	2383.84
717.20	2093.02
717.38	2217.95
717.57	2248.67
717.75	2269.15
717.93	2306.01
718.11	2336.73
718.30	2125.79
718.48	2256.86
718.66	2353.12
718.84	2396.12
719.03	2275.29
719.21	2160.61
719.39	2385.88
719.57	2306.01
719.75	2383.84
719.94	2191.33
720.12	2199.52
720.30	2340.83
720.48	2377.69
720.67	2183.13
720.85	2150.37
721.03	2125.79
721.21	2236.38
721.39	2426.84
721.58	2256.86
721.76	2301.92
721.94	2277.34
722.12	2260.96
722.30	2328.54
722.49	2260.96
722.67	2234.33
722.85	2244.57
723.03	2174.94
723.21	2166.75
723.40	2269.15
723.58	2416.60
723.76	2334.68
723.94	2432.99
724.12	2293.72
724.30	2414.56
724.49	2379.74
724.67	2211.81
724.85	2346.97
725.03	2164.70
725.21	2242.53
725.40	2498.52
725.58	2152.42
725.76	2342.88
725.94	2334.68
726.12	2129.89
726.30	2189.28
726.49	2285.53
726.67	2244.57
726.85	2318.30
727.03	2506.71
727.21	3637.19
727.39	5124.02
727.57	5859.24
727.76	6537.12
727.94	6901.65
728.12	6295.46
728.30	5289.90
728.48	4513.72
728.66	4243.39
728.84	3692.49
729.03	3258.32
729.21	2973.65
729.39	2666.46
729.57	2502.62
729.75	2414.56
729.93	2449.37
730.11	2209.76
730.30	2207.71
730.48	2326.49
730.66	2359.26
730.84	2414.56
731.02	2256.86
731.20	2234.33
731.38	2277.34
731.56	2097.12
731.74	2068.45
731.93	2242.53
732.11	2285.53
732.29	2183.13
732.47	2365.40
732.65	2318.30
732.83	2422.75
733.01	2340.83
733.19	2152.42
733.37	2293.72
733.56	2244.57
733.74	2283.49
733.92	2353.12
734.10	2281.44
734.28	2281.44
734.46	2045.92
734.64	2211.81
734.82	2197.47
735.00	2213.85
735.18	2172.89
735.36	2252.77
735.54	2217.95
735.73	2263.01
735.91	2213.85
736.09	2283.49
736.27	2265.05
736.45	2306.01
736.63	2111.46
736.81	2211.81
736.99	2373.60
737.17	2480.09
737.35	2209.76
737.53	2269.15
737.71	2211.81
737.89	2326.49
738.07	2174.94
738.25	2179.04
738.43	2142.18
738.61	2263.01
738.80	2119.65
738.98	2103.26
739.16	2152.42
739.34	2170.85
739.52	2416.60
739.70	2232.29
739.88	2293.72
740.06	2375.64
740.24	2076.64
740.42	2351.07
740.60	2058.21
740.78	2138.08
740.96	2047.97
741.14	2232.29
741.32	2277.34
741.50	2093.02
741.68	2457.56
741.86	2359.26
742.04	2140.13
742.22	2172.89
742.40	2238.43
742.58	2306.01
742.76	2176.99
742.94	2375.64
743.12	2138.08
743.30	2215.90
743.48	2308.06
743.66	2193.37
743.84	2275.29
744.02	2197.47
744.20	2275.29
744.38	2127.84
744.56	2217.95
744.74	2430.94
744.92	2295.77
745.10	2383.84
745.28	2375.64
745.46	2435.03
745.64	2297.82
745.82	2381.79
746.00	2293.72
746.18	2367.45
746.36	2170.85
746.54	2246.62
746.72	2215.90
746.90	2136.03
747.08	2404.32
747.26	2260.96
747.44	2285.53
747.62	2342.88
747.80	2351.07
747.98	2285.53
748.15	2228.19
748.33	2424.80
748.51	2293.72
748.69	2301.92
748.87	2187.23
749.05	2269.15
749.23	2191.33
749.41	2271.20
749.59	2230.24
749.77	2287.58
749.95	2269.15
750.13	2195.42
750.31	2281.44
750.49	2220.00
750.67	2326.49
750.85	2430.94
751.03	2199.52
751.20	2469.85
751.38	2328.54
751.56	2250.72
751.74	2236.38
751.92	2213.85
752.10	2166.75
752.28	2308.06
752.46	2312.16
752.64	2246.62
752.82	2275.29
753.00	2342.88
753.18	2256.86
753.35	2160.61
753.53	2195.42
753.71	2211.81
753.89	2365.40
754.07	2260.96
754.25	2369.50
754.43	2297.82
754.61	2136.03
754.79	2301.92
754.97	2273.25
755.14	2359.26
755.32	2111.46
755.50	2299.87
755.68	2201.57
755.86	2111.46
756.04	2146.27
756.22	2127.84
756.40	2351.07
756.57	2426.84
756.75	2293.72
756.93	2301.92
757.11	2258.91
757.29	2097.12
757.47	2148.32
757.65	2039.78
757.82	2068.45
758.00	2136.03
758.18	2181.09
758.36	2179.04
758.54	2377.69
758.72	2160.61
758.90	2363.36
759.07	2318.30
759.25	2191.33
759.43	2293.72
759.61	2136.03
759.79	3211.22
759.97	2365.40
760.15	2224.09
760.32	2263.01
760.50	2230.24
760.68	2482.14
760.86	2131.94
761.04	2398.17
761.22	2301.92
761.39	2277.34
761.57	2342.88
761.75	2199.52
761.93	2275.29
762.11	2203.61
762.28	2252.77
762.46	2125.79
762.64	2383.84
762.82	2150.37
763.00	2291.68
763.18	2408.41
763.35	2199.52
763.53	2275.29
763.71	2211.81
763.89	2269.15
764.07	2271.20
764.24	2293.72
764.42	2283.49
764.60	2258.91
764.78	2334.68
764.96	2396.12
765.13	2365.40
765.31	2260.96
765.49	2342.88
765.67	2166.75
765.84	2244.57
766.02	2211.81
766.20	2136.03
766.38	2263.01
766.56	2316.25
766.73	2275.29
766.91	2244.57
767.09	2256.86
767.27	2314.20
767.44	2129.89
767.62	2340.83
767.80	2308.06
767.98	2234.33
768.15	2277.34
768.33	2299.87
768.51	2289.63
768.69	2326.49
768.87	2316.25
769.04	2201.57
769.22	2424.80
769.40	2392.03
769.58	2455.51
769.75	2310.11
769.93	2275.29
770.11	2238.43
770.28	2142.18
770.46	2308.06
770.64	2220.00
770.82	2244.57
770.99	2193.37
771.17	2310.11
771.35	2269.15
771.53	2297.82
771.70	2172.89
771.88	2289.63
772.06	2275.29
772.23	2146.27
772.41	2213.85
772.59	2220.00
772.77	2240.48
772.94	2230.24
773.12	2213.85
773.30	2291.68
773.47	2301.92
773.65	2156.51
773.83	2389.98
774.01	2265.05
774.18	2113.50
774.36	2162.66
774.54	2136.03
774.71	2326.49
774.89	2138.08
775.07	2138.08
775.24	2215.90
775.42	2293.72
775.60	2373.60
775.78	2166.75
775.95	2144.22
776.13	2105.31
776.31	2068.45
776.48	2359.26
776.66	2359.26
776.84	2201.57
777.01	2084.83
777.19	2195.42
777.37	2250.72
777.54	2310.11
777.72	2439.13
777.90	2310.11
778.07	2160.61
778.25	2490.33
778.43	2310.11
778.60	2162.66
778.78	2340.83
778.96	2340.83
779.13	2209.76
779.31	2330.59
779.49	2256.86
779.66	2211.81
779.84	2197.47
780.01	2320.35
780.19	2146.27
780.37	2367.45
780.54	2357.21
780.72	2220.00
780.90	2209.76
781.07	2203.61
781.25	2240.48
781.43	2301.92
781.60	2228.19
781.78	2310.11
781.95	2324.44
782.13	2154.46
782.31	2271.20
782.48	2076.64
782.66	2287.58
782.83	2449.37
783.01	2295.77
783.19	2381.79
783.36	2250.72
783.54	2095.07
783.72	2349.02
783.89	2246.62
784.07	2338.78
784.24	2344.92
784.42	2357.21
784.60	2254.81
784.77	2279.39
784.95	2070.50
785.12	2176.99
785.30	2310.11
785.47	2162.66
785.65	2211.81
785.83	2250.72
786.00	2160.61
786.18	2207.71
786.35	2189.28
786.53	2191.33
786.71	2260.96
786.88	2297.82
787.06	2371.55
787.23	2205.66
787.41	2113.50
787.58	2303.96
787.76	2121.70
787.94	2328.54
788.11	2265.05
788.29	2138.08
788.46	2193.37
788.64	2144.22
788.81	2154.46
788.99	2162.66
789.16	2183.13
789.34	2129.89
789.52	2174.94
789.69	2187.23
789.87	2099.17
790.04	2258.91
790.22	2228.19
790.39	2396.12
790.57	2144.22
790.74	2136.03
790.92	2301.92
791.09	2166.75
791.27	2281.44
791.44	2342.88
791.62	2197.47
791.79	2260.96
791.97	2185.18
792.15	2439.13
792.32	2316.25
792.50	2283.49
792.67	2396.12
792.85	2334.68
793.02	2283.49
793.20	2176.99
793.37	2131.94
793.55	2168.80
793.72	2125.79
793.90	2326.49
794.07	2226.14
794.25	2183.13
794.42	2256.86
794.60	2176.99
794.77	2269.15
794.95	2256.86
795.12	2334.68
795.30	2269.15
795.47	2111.46
795.65	2553.82
795.82	2293.72
796.00	2103.26
796.17	2217.95
796.34	2209.76
796.52	2236.38
796.69	2301.92
796.87	2351.07
797.04	2299.87
797.22	2367.45
797.39	2207.71
797.57	2324.44
797.74	2279.39
797.92	2287.58
798.09	2232.29
798.27	2242.53
798.44	2242.53
798.62	2195.42
798.79	2312.16
798.96	2213.85
799.14	2203.61
799.31	2562.01
799.49	2211.81
799.66	2119.65
799.84	2285.53
800.01	2045.92
800.19	2250.72
800.36	2068.45
800.53	2273.25
800.71	2285.53
800.88	2330.59
801.06	2230.24
801.23	2185.18
801.41	2265.05
801.58	2238.43
801.75	2260.96
801.93	2273.25
802.10	2334.68
802.28	2265.05
802.45	2232.29
802.63	2318.30
802.80	2449.37
802.97	2260.96
803.15	2265.05
803.32	2189.28
803.50	2195.42
803.67	2129.89
803.84	2084.83
804.02	2215.90
804.19	2179.04
804.37	2035.68
804.54	2234.33
804.71	2220.00
804.89	2222.05
805.06	2138.08
805.24	2115.55
805.41	2101.22
805.58	2205.66
805.76	2480.09
805.93	2269.15
806.10	2242.53
806.28	2334.68
806.45	2213.85
806.63	2330.59
806.80	2340.83
806.97	2338.78
807.15	2287.58
807.32	2203.61
807.49	2187.23
807.67	2113.50
807.84	2306.01
808.01	2138.08
808.19	2463.71
808.36	2416.60
808.54	2211.81
808.71	2109.41
808.88	2199.52
809.06	2314.20
809.23	2412.51
809.40	2258.91
809.58	2322.40
809.75	2226.14
809.92	2160.61
810.10	2445.27
810.27	2166.75
810.44	2273.25
810.62	2293.72
810.79	2297.82
810.96	2183.13
811.14	2275.29
811.31	2265.05
811.48	2269.15
811.66	2281.44
811.83	2387.93
812.00	2295.77
812.18	2289.63
812.35	2377.69
812.52	2156.51
812.69	2228.19
812.87	2224.09
813.04	2164.70
813.21	2306.01
813.39	2226.14
813.56	2158.56
813.73	2324.44
813.91	2144.22
814.08	2183.13
814.25	2244.57
814.42	2181.09
814.60	2168.80
814.77	2211.81
814.94	2193.37
815.12	2271.20
815.29	2328.54
815.46	2172.89
815.63	2265.05
815.81	2211.81
815.98	2203.61
816.15	2209.76
816.33	2293.72
816.50	2201.57
816.67	2179.04
816.84	2201.57
817.02	2158.56
817.19	2166.75
817.36	2314.20
817.53	2211.81
817.71	2129.89
817.88	2314.20
818.05	2248.67
818.22	2281.44
818.40	2392.03
818.57	2138.08
818.74	2326.49
818.91	2199.52
819.09	2375.64
819.26	2297.82
819.43	2183.13
819.60	2185.18
819.78	2287.58
819.95	2346.97
820.12	2154.46
820.29	2389.98
820.47	2346.97
820.64	2195.42
820.81	2031.58
820.98	2156.51
821.15	2236.38
821.33	2324.44
821.50	2060.26
821.67	2326.49
821.84	2160.61
822.02	2303.96
822.19	2308.06
822.36	2254.81
822.53	2170.85
822.70	2088.93
822.88	2205.66
823.05	2387.93
823.22	2176.99
823.39	2273.25
823.56	2299.87
823.74	2402.27
823.91	2187.23
824.08	2160.61
824.25	2070.50
824.42	2506.71
824.60	2111.46
824.77	2265.05
824.94	2252.77
825.11	2367.45
825.28	2095.07
825.45	2269.15
825.63	2252.77
825.80	2078.69
825.97	2250.72
826.14	2226.14
826.31	2054.11
826.48	2248.67
826.66	2162.66
826.83	2228.19
827.00	2195.42
827.17	2117.60
827.34	2224.09
827.51	2199.52
827.69	2236.38
827.86	2099.17
828.03	2213.85
828.20	2213.85
828.37	2220.00
828.54	2349.02
828.71	2121.70
828.89	2363.36
829.06	2357.21
829.23	2385.88
829.40	2222.05
829.57	2224.09
829.74	2308.06
829.91	2244.57
830.09	2176.99
830.26	2301.92
830.43	2404.32
830.60	2308.06
830.77	2299.87
830.94	2277.34
831.11	2306.01
831.28	2193.37
831.46	2334.68
831.63	2209.76
831.80	2293.72
831.97	2187.23
832.14	2197.47
832.31	2316.25
832.48	2207.71
832.65	2349.02
832.82	2301.92
832.99	2301.92
833.17	2125.79
833.34	2457.56
833.51	2250.72
833.68	2105.31
833.85	2359.26
834.02	2176.99
834.19	2056.16
834.36	2142.18
834.53	2277.34
834.70	2330.59
834.87	2303.96
835.04	2166.75
835.22	2174.94
835.39	2187.23
835.56	2133.98
835.73	2162.66
835.90	2383.84
836.07	2146.27
836.24	2269.15
836.41	2160.61
836.58	2183.13
836.75	2299.87
836.92	2220.00
837.09	2160.61
837.26	2375.64
837.43	2244.57
837.60	2217.95
837.77	2123.74
837.94	2430.94
838.12	2349.02
838.29	2226.14
838.46	2105.31
838.63	2119.65
838.80	2420.70
838.97	2306.01
839.14	2211.81
839.31	2209.76
839.48	2344.92
839.65	2252.77
839.82	2322.40
839.99	2234.33
840.16	2222.05
840.33	2138.08
840.50	2213.85
840.67	2131.94
840.84	2068.45
841.01	2207.71
841.18	2136.03
841.35	2275.29
841.52	2320.35
841.69	2408.41
841.86	2211.81
842.03	2240.48
842.20	2367.45
842.37	2154.46
842.54	2271.20
842.71	2252.77
842.88	2170.85
843.05	2258.91
843.22	2183.13
843.39	2273.25
843.56	2187.23
843.73	2203.61
843.90	2324.44
844.07	2273.25
844.24	2314.20
844.41	2289.63
844.58	2217.95
844.75	2267.10
844.92	2322.40
845.09	2250.72
845.26	2113.50
845.43	2248.67
845.60	2179.04
845.77	2283.49
845.94	2207.71
846.10	2334.68
846.27	2148.32
846.44	2064.35
846.61	2170.85
846.78	2316.25
846.95	2318.30
847.12	2170.85
847.29	2209.76
847.46	2162.66
847.63	2402.27
847.80	2166.75
847.97	2205.66
848.14	2480.09
848.31	2236.38
848.48	2062.30
848.65	2246.62
848.82	2156.51
848.98	2469.85
849.15	2195.42
849.32	2242.53
849.49	2293.72
849.66	2129.89
849.83	2174.94
850.00	2054.11
850.17	2314.20
850.34	2205.66
850.51	2228.19
850.68	2185.18
850.85	2480.09
851.01	2314.20
851.18	2238.43
851.35	2224.09
851.52	2269.15
851.69	2248.67
851.86	2088.93
852.03	2191.33
852.20	2338.78
852.37	2220.00
852.53	2095.07
852.70	2176.99
852.87	2230.24
853.04	2340.83
853.21	2234.33
853.38	2260.96
853.55	2422.75
853.72	2342.88
853.89	2111.46
854.05	2191.33
854.22	2187.23
854.39	2236.38
854.56	2203.61
854.73	2332.64
854.90	2189.28
855.07	2228.19
855.23	2232.29
855.40	2166.75
855.57	2240.48
855.74	2093.02
855.91	2383.84
856.08	2076.64
856.25	2144.22
856.41	2209.76
856.58	2240.48
856.75	2222.05
856.92	2097.12
857.09	2357.21
857.26	2099.17
857.42	2226.14
857.59	2281.44
857.76	2172.89
857.93	2260.96
858.10	2269.15
858.27	2158.56
858.43	2234.33
858.60	2144.22
858.77	2074.59
858.94	2250.72
859.11	2324.44
859.27	2201.57
859.44	2228.19
859.61	2447.32
859.78	2293.72
859.95	2263.01
860.12	2060.26
860.28	2488.28
860.45	2432.99
860.62	2160.61
860.79	2312.16
860.95	2252.77
861.12	2187.23
861.29	2115.55
861.46	2187.23
861.63	2160.61
861.79	2191.33
861.96	2158.56
862.13	2160.61
862.30	2332.64
862.47	2123.74
862.63	2121.70
862.80	2297.82
862.97	2295.77
863.14	2297.82
863.30	2260.96
863.47	2170.85
863.64	2389.98
863.81	2250.72
863.97	2138.08
864.14	2228.19
864.31	2207.71
864.48	2146.27
864.65	2166.75
864.81	2310.11
864.98	2326.49
865.15	2299.87
865.32	2250.72
865.48	2324.44
865.65	2375.64
865.82	2113.50
865.98	2318.30
866.15	2324.44
866.32	2220.00
866.49	2189.28
866.65	2289.63
866.82	2181.09
866.99	2211.81
867.16	2131.94
867.32	2203.61
867.49	2183.13
867.66	2211.81
867.83	2162.66
867.99	2097.12
868.16	2199.52
868.33	2101.22
868.49	2320.35
868.66	2193.37
868.83	2263.01
868.99	2269.15
869.16	2256.86
869.33	2324.44
869.50	2228.19
869.66	2283.49
869.83	2252.77
870.00	2166.75
870.16	2267.10
870.33	2301.92
870.50	2426.84
870.66	2199.52
870.83	2306.01
871.00	2213.85
871.17	2330.59
871.33	2250.72
871.50	2164.70
871.67	2265.05
871.83	2111.46
872.00	2340.83
872.17	2199.52
872.33	2482.14
872.50	2318.30
872.67	2248.67
872.83	2248.67
873.00	2267.10
873.17	2291.68
873.33	2291.68
873.50	2256.86
873.67	2101.22
873.83	2105.31
874.00	2189.28
874.16	2240.48
874.33	2258.91
874.50	2099.17
874.66	2224.09
874.83	2250.72
875.00	2320.35
875.16	2303.96
875.33	2279.39
875.50	2007.01
875.66	2199.52
875.83	2232.29
875.99	2236.38
876.16	2133.98
876.33	2103.26
876.49	2162.66
876.66	2256.86
876.83	2179.04
876.99	2068.45
877.16	2285.53
877.32	2152.42
877.49	2215.90
877.66	2301.92
877.82	2351.07
877.99	2256.86
878.15	2355.16
878.32	2256.86
878.49	2310.11
878.65	2160.61
878.82	2396.12
878.98	2185.18
879.15	2400.22
879.32	2258.91
879.48	2211.81
879.65	2236.38
879.81	2207.71
879.98	2158.56
880.15	2174.94
880.31	2322.40
880.48	2117.60
880.64	2310.11
880.81	2252.77
880.97	2398.17
881.14	2367.45
881.31	2080.74
881.47	2422.75
881.64	2166.75
881.80	2125.79
881.97	2238.43
882.13	2310.11
882.30	2152.42
882.47	2226.14
882.63	2037.73
882.80	2109.41
882.96	2201.57
883.13	2310.11
883.29	2211.81
883.46	2203.61
883.62	2400.22
883.79	2250.72
883.95	2281.44
884.12	2281.44
884.29	2301.92
884.45	2289.63
884.62	2217.95
884.78	2179.04
884.95	2301.92
885.11	2158.56
885.28	2265.05
885.44	2256.86
885.61	2322.40
885.77	2389.98
885.94	2349.02
886.10	2160.61
886.27	2240.48
886.43	2367.45
886.60	2338.78
886.76	2136.03
886.93	2158.56
887.09	2283.49
887.26	2107.36
887.42	2217.95
887.59	2330.59
887.75	2422.75
887.92	2295.77
888.08	2248.67
888.25	2369.50
888.41	2285.53
888.58	2197.47
888.74	2170.85
888.91	2150.37
>>>>>End Processed Spectral Data<<<<<
