SpectraSuite Data File
++++++++++++++++++++++++++++++++++++
Date: Thu May 05 13:21:28 CEST 2016
User: root
Dark Spectrum Present: No
Reference Spectrum Present: No
Number of Sampled Component Spectra: 1
Spectrometers: USB4C02835
Integration Time (usec): 100000 (USB4C02835)
Spectra Averaged: 1 (USB4C02835)
Boxcar Smoothing: 0 (USB4C02835)
Correct for Electrical Dark: No (USB4C02835)
Strobe/Lamp Enabled: No (USB4C02835)
Correct for Detector Non-linearity: No (USB4C02835)
Correct for Stray Light: No (USB4C02835)
Number of Pixels in Processed Spectrum: 3648
>>>>>Begin Processed Spectral Data<<<<<
177.47	1767.40
177.69	1767.40
177.91	1767.40
178.13	1781.73
178.36	1794.02
178.58	2136.03
178.80	2222.05
179.02	2105.31
179.24	2222.05
179.46	2146.27
179.68	2293.72
179.90	2291.68
180.13	2226.14
180.35	2095.07
180.57	2183.13
180.79	2326.49
181.01	2205.66
181.23	2246.62
181.45	2185.18
181.67	2349.02
181.90	2277.34
182.12	2183.13
182.34	2060.26
182.56	2322.40
182.78	2324.44
183.00	2125.79
183.22	2215.90
183.44	2039.78
183.66	2471.90
183.89	2275.29
184.11	2234.33
184.33	2299.87
184.55	2451.42
184.77	2277.34
184.99	2197.47
185.21	2172.89
185.43	2592.73
185.65	2121.70
185.87	2220.00
186.10	2506.71
186.32	2496.47
186.54	2367.45
186.76	2293.72
186.98	2351.07
187.20	2314.20
187.42	2285.53
187.64	2205.66
187.86	2291.68
188.08	2355.16
188.30	2146.27
188.52	2228.19
188.75	2420.70
188.97	2334.68
189.19	2078.69
189.41	2154.46
189.63	2289.63
189.85	2187.23
190.07	2088.93
190.29	2119.65
190.51	2318.30
190.73	2131.94
190.95	2267.10
191.17	2183.13
191.39	2064.35
191.61	2220.00
191.84	2103.26
192.06	2293.72
192.28	2172.89
192.50	2566.10
192.72	2226.14
192.94	2179.04
193.16	2379.74
193.38	2301.92
193.60	2107.36
193.82	2174.94
194.04	2381.79
194.26	2363.36
194.48	2131.94
194.70	2154.46
194.92	2207.71
195.14	2297.82
195.36	2166.75
195.58	2232.29
195.80	2277.34
196.02	2197.47
196.24	2146.27
196.46	2269.15
196.69	2215.90
196.91	2527.19
197.13	2154.46
197.35	2115.55
197.57	2353.12
197.79	2303.96
198.01	2154.46
198.23	2172.89
198.45	2263.01
198.67	2121.70
198.89	2138.08
199.11	2234.33
199.33	2172.89
199.55	2007.01
199.77	2195.42
199.99	2308.06
200.21	2205.66
200.43	2244.57
200.65	2090.98
200.87	2031.58
201.09	2263.01
201.31	2131.94
201.53	2195.42
201.75	2230.24
201.97	2252.77
202.19	2312.16
202.41	2256.86
202.63	2316.25
202.85	2351.07
203.07	2297.82
203.29	2179.04
203.51	2133.98
203.73	2166.75
203.95	2533.34
204.17	2193.37
204.39	2217.95
204.61	2293.72
204.83	2199.52
205.05	2291.68
205.27	2250.72
205.49	2527.19
205.71	2308.06
205.93	2133.98
206.15	2121.70
206.37	2240.48
206.59	2250.72
206.81	2142.18
207.03	2152.42
207.25	2115.55
207.47	2273.25
207.69	2121.70
207.91	2330.59
208.13	2426.84
208.34	2242.53
208.56	2150.37
208.78	2248.67
209.00	2209.76
209.22	2240.48
209.44	2148.32
209.66	2201.57
209.88	2236.38
210.10	2187.23
210.32	2176.99
210.54	2301.92
210.76	2263.01
210.98	2359.26
211.20	1994.72
211.42	2283.49
211.64	2379.74
211.86	2308.06
212.08	2308.06
212.30	2209.76
212.52	2197.47
212.74	2299.87
212.96	2172.89
213.17	2263.01
213.39	2308.06
213.61	2369.50
213.83	2197.47
214.05	2275.29
214.27	2289.63
214.49	2121.70
214.71	2207.71
214.93	2256.86
215.15	2346.97
215.37	2275.29
215.59	2138.08
215.81	2220.00
216.03	2365.40
216.24	2277.34
216.46	2189.28
216.68	2220.00
216.90	2412.51
217.12	2316.25
217.34	2166.75
217.56	2254.81
217.78	2455.51
218.00	2283.49
218.22	2174.94
218.44	2273.25
218.66	2248.67
218.87	2428.89
219.09	2095.07
219.31	2252.77
219.53	2248.67
219.75	2252.77
219.97	2158.56
220.19	2256.86
220.41	2179.04
220.63	2377.69
220.85	2238.43
221.06	2176.99
221.28	2375.64
221.50	2281.44
221.72	2176.99
221.94	2174.94
222.16	2256.86
222.38	2301.92
222.60	2142.18
222.82	2199.52
223.03	2324.44
223.25	2232.29
223.47	2197.47
223.69	2383.84
223.91	2293.72
224.13	2240.48
224.35	2078.69
224.57	2310.11
224.78	2279.39
225.00	2162.66
225.22	2238.43
225.44	2185.18
225.66	2373.60
225.88	2244.57
226.10	2342.88
226.32	2181.09
226.53	2365.40
226.75	2195.42
226.97	2164.70
227.19	2209.76
227.41	2185.18
227.63	2299.87
227.85	2109.41
228.06	2179.04
228.28	2207.71
228.50	2312.16
228.72	2095.07
228.94	2148.32
229.16	2121.70
229.37	2146.27
229.59	2181.09
229.81	2279.39
230.03	2254.81
230.25	2203.61
230.47	2068.45
230.69	2142.18
230.90	2371.55
231.12	2197.47
231.34	2193.37
231.56	2258.91
231.78	2113.50
232.00	2250.72
232.21	2174.94
232.43	2088.93
232.65	2004.96
232.87	2215.90
233.09	2088.93
233.30	2160.61
233.52	2281.44
233.74	2260.96
233.96	2127.84
234.18	2244.57
234.40	2217.95
234.61	2451.42
234.83	2121.70
235.05	2146.27
235.27	2529.24
235.49	2398.17
235.70	2123.74
235.92	2246.62
236.14	2371.55
236.36	2504.67
236.58	2158.56
236.79	2265.05
237.01	2195.42
237.23	2334.68
237.45	2357.21
237.67	2119.65
237.88	2297.82
238.10	2437.08
238.32	2080.74
238.54	2099.17
238.76	2201.57
238.97	2168.80
239.19	2086.88
239.41	2195.42
239.63	2383.84
239.85	2258.91
240.06	2250.72
240.28	2119.65
240.50	2334.68
240.72	2250.72
240.93	2127.84
241.15	2336.73
241.37	2275.29
241.59	2406.36
241.81	2174.94
242.02	2179.04
242.24	2273.25
242.46	2291.68
242.68	2121.70
242.89	2129.89
243.11	2389.98
243.33	2205.66
243.55	2121.70
243.76	2183.13
243.98	2109.41
244.20	2281.44
244.42	2129.89
244.64	2228.19
244.85	2125.79
245.07	2152.42
245.29	2179.04
245.51	2291.68
245.72	2306.01
245.94	2326.49
246.16	2193.37
246.38	2295.77
246.59	2166.75
246.81	2168.80
247.03	2162.66
247.24	2109.41
247.46	2256.86
247.68	2254.81
247.90	2222.05
248.11	2176.99
248.33	2351.07
248.55	2224.09
248.77	2203.61
248.98	2234.33
249.20	2420.70
249.42	2220.00
249.64	2199.52
249.85	2158.56
250.07	2191.33
250.29	2340.83
250.50	2254.81
250.72	2138.08
250.94	2260.96
251.16	2484.19
251.37	2220.00
251.59	2205.66
251.81	2316.25
252.02	2371.55
252.24	2172.89
252.46	2295.77
252.68	2209.76
252.89	2199.52
253.11	2019.30
253.33	2258.91
253.54	2351.07
253.76	2097.12
253.98	2170.85
254.20	2217.95
254.41	2187.23
254.63	2203.61
254.85	2033.63
255.06	2211.81
255.28	2187.23
255.50	2166.75
255.71	2170.85
255.93	2045.92
256.15	2228.19
256.36	2295.77
256.58	2109.41
256.80	2111.46
257.02	2207.71
257.23	2238.43
257.45	2203.61
257.67	2277.34
257.88	2097.12
258.10	2256.86
258.32	2164.70
258.53	2176.99
258.75	2392.03
258.97	2162.66
259.18	2088.93
259.40	2146.27
259.62	2398.17
259.83	2371.55
260.05	2193.37
260.27	2615.26
260.48	2408.41
260.70	2203.61
260.92	2103.26
261.13	2215.90
261.35	2228.19
261.57	2240.48
261.78	2037.73
262.00	2068.45
262.22	2367.45
262.43	2111.46
262.65	2152.42
262.86	2131.94
263.08	2504.67
263.30	2236.38
263.51	2095.07
263.73	2121.70
263.95	2430.94
264.16	2187.23
264.38	2088.93
264.60	2220.00
264.81	2195.42
265.03	2387.93
265.25	2351.07
265.46	2168.80
265.68	2344.92
265.89	2310.11
266.11	2111.46
266.33	2220.00
266.54	2285.53
266.76	2273.25
266.98	2240.48
267.19	2238.43
267.41	2400.22
267.62	2310.11
267.84	2078.69
268.06	2269.15
268.27	2263.01
268.49	2400.22
268.70	2199.52
268.92	2189.28
269.14	2142.18
269.35	2084.83
269.57	2162.66
269.79	2293.72
270.00	2197.47
270.22	2408.41
270.43	2170.85
270.65	2031.58
270.87	2271.20
271.08	2318.30
271.30	2240.48
271.51	2181.09
271.73	2291.68
271.95	2330.59
272.16	2183.13
272.38	2250.72
272.59	2263.01
272.81	2314.20
273.02	2211.81
273.24	2254.81
273.46	2357.21
273.67	2136.03
273.89	2086.88
274.10	2086.88
274.32	2316.25
274.54	2269.15
274.75	2240.48
274.97	2226.14
275.18	2332.64
275.40	2310.11
275.61	2232.29
275.83	2295.77
276.05	2203.61
276.26	2269.15
276.48	2201.57
276.69	2211.81
276.91	2226.14
277.12	2416.60
277.34	2308.06
277.55	2285.53
277.77	2217.95
277.99	2226.14
278.20	2176.99
278.42	2183.13
278.63	2144.22
278.85	2127.84
279.06	2129.89
279.28	2263.01
279.49	2346.97
279.71	2371.55
279.93	2234.33
280.14	2164.70
280.36	2162.66
280.57	2277.34
280.79	2314.20
281.00	2113.50
281.22	2179.04
281.43	2363.36
281.65	2050.02
281.86	2154.46
282.08	2287.58
282.29	2428.89
282.51	2105.31
282.73	2064.35
282.94	2117.60
283.16	2330.59
283.37	2422.75
283.59	2224.09
283.80	2289.63
284.02	2316.25
284.23	2220.00
284.45	2158.56
284.66	2099.17
284.88	2201.57
285.09	2222.05
285.31	2271.20
285.52	2201.57
285.74	2064.35
285.95	2295.77
286.17	2287.58
286.38	2322.40
286.60	2183.13
286.81	2045.92
287.03	2142.18
287.24	2301.92
287.46	2308.06
287.67	2303.96
287.89	2359.26
288.10	2256.86
288.32	2215.90
288.53	2396.12
288.75	2224.09
288.96	2357.21
289.18	2252.77
289.39	2074.59
289.61	2351.07
289.82	2488.28
290.04	2494.43
290.25	2224.09
290.47	2281.44
290.68	2244.57
290.90	2349.02
291.11	2121.70
291.33	2328.54
291.54	2179.04
291.76	2256.86
291.97	2310.11
292.18	2256.86
292.40	2265.05
292.61	2244.57
292.83	2394.08
293.04	2228.19
293.26	2236.38
293.47	2234.33
293.69	2215.90
293.90	2222.05
294.12	2383.84
294.33	2236.38
294.55	2195.42
294.76	2306.01
294.97	2389.98
295.19	2488.28
295.40	2209.76
295.62	2238.43
295.83	2308.06
296.05	2131.94
296.26	2273.25
296.48	2136.03
296.69	2269.15
296.90	2252.77
297.12	2324.44
297.33	2396.12
297.55	2322.40
297.76	2265.05
297.98	2371.55
298.19	2230.24
298.41	2263.01
298.62	2176.99
298.83	2375.64
299.05	2183.13
299.26	2211.81
299.48	2144.22
299.69	2203.61
299.90	2170.85
300.12	2154.46
300.33	2277.34
300.55	2215.90
300.76	2220.00
300.98	2111.46
301.19	2367.45
301.40	2164.70
301.62	2258.91
301.83	2351.07
302.05	2168.80
302.26	2125.79
302.47	2265.05
302.69	2158.56
302.90	2306.01
303.12	2082.78
303.33	2269.15
303.54	2461.66
303.76	2250.72
303.97	2342.88
304.19	2373.60
304.40	2152.42
304.61	2322.40
304.83	2273.25
305.04	2318.30
305.26	2293.72
305.47	2197.47
305.68	2299.87
305.90	2191.33
306.11	2406.36
306.33	2234.33
306.54	2183.13
306.75	2205.66
306.97	2154.46
307.18	2082.78
307.39	2217.95
307.61	2310.11
307.82	2242.53
308.04	2340.83
308.25	2113.50
308.46	2273.25
308.68	2254.81
308.89	2326.49
309.10	2314.20
309.32	2238.43
309.53	2187.23
309.74	2334.68
309.96	2275.29
310.17	2318.30
310.39	2209.76
310.60	2314.20
310.81	2234.33
311.03	2056.16
311.24	2338.78
311.45	2224.09
311.67	2392.03
311.88	2260.96
312.09	2181.09
312.31	2160.61
312.52	2205.66
312.73	2301.92
312.95	2127.84
313.16	2199.52
313.37	2359.26
313.59	2271.20
313.80	2375.64
314.01	2441.18
314.23	2174.94
314.44	2121.70
314.65	2146.27
314.87	2209.76
315.08	2234.33
315.29	2197.47
315.51	2199.52
315.72	2123.74
315.93	2357.21
316.15	2320.35
316.36	2250.72
316.57	2273.25
316.79	2334.68
317.00	2207.71
317.21	2371.55
317.43	2097.12
317.64	2174.94
317.85	2168.80
318.07	2162.66
318.28	2330.59
318.49	2375.64
318.70	2478.04
318.92	2387.93
319.13	2451.42
319.34	2500.57
319.56	2318.30
319.77	2344.92
319.98	2342.88
320.20	2389.98
320.41	2326.49
320.62	2285.53
320.83	2146.27
321.05	2441.18
321.26	2242.53
321.47	2256.86
321.69	2363.36
321.90	2148.32
322.11	2166.75
322.32	2318.30
322.54	2394.08
322.75	2246.62
322.96	2586.58
323.18	2142.18
323.39	2054.11
323.60	2082.78
323.81	2430.94
324.03	2142.18
324.24	2226.14
324.45	2189.28
324.66	2273.25
324.88	2353.12
325.09	2428.89
325.30	2176.99
325.52	2207.71
325.73	2293.72
325.94	2185.18
326.15	2043.87
326.37	2131.94
326.58	2404.32
326.79	2447.32
327.00	2156.51
327.22	2269.15
327.43	2179.04
327.64	2170.85
327.85	2211.81
328.07	2183.13
328.28	2443.23
328.49	2232.29
328.70	2248.67
328.92	2215.90
329.13	2193.37
329.34	2308.06
329.55	2377.69
329.76	2334.68
329.98	2277.34
330.19	2379.74
330.40	2263.01
330.61	2242.53
330.83	2342.88
331.04	2140.13
331.25	2275.29
331.46	2240.48
331.68	2193.37
331.89	2285.53
332.10	2260.96
332.31	2080.74
332.52	2201.57
332.74	2332.64
332.95	2131.94
333.16	2187.23
333.37	2381.79
333.58	2256.86
333.80	2236.38
334.01	2090.98
334.22	2269.15
334.43	2201.57
334.64	2271.20
334.86	2109.41
335.07	2107.36
335.28	2451.42
335.49	2076.64
335.70	2338.78
335.92	2379.74
336.13	2449.37
336.34	2254.81
336.55	2367.45
336.76	2248.67
336.98	2080.74
337.19	2211.81
337.40	2375.64
337.61	2555.86
337.82	2256.86
338.04	2316.25
338.25	2058.21
338.46	2232.29
338.67	2299.87
338.88	2072.54
339.09	2170.85
339.31	2283.49
339.52	2133.98
339.73	2183.13
339.94	2283.49
340.15	2414.56
340.36	2197.47
340.58	2265.05
340.79	2164.70
341.00	2303.96
341.21	2160.61
341.42	2422.75
341.63	2287.58
341.85	2404.32
342.06	2289.63
342.27	2144.22
342.48	2303.96
342.69	2097.12
342.90	2228.19
343.12	2349.02
343.33	2136.03
343.54	2369.50
343.75	2359.26
343.96	2211.81
344.17	2154.46
344.38	2187.23
344.60	2170.85
344.81	2121.70
345.02	2160.61
345.23	2367.45
345.44	2523.10
345.65	2269.15
345.86	2291.68
346.07	2342.88
346.29	2256.86
346.50	2308.06
346.71	2289.63
346.92	2500.57
347.13	2514.91
347.34	2244.57
347.55	2133.98
347.76	2351.07
347.98	2195.42
348.19	2258.91
348.40	2426.84
348.61	2224.09
348.82	2482.14
349.03	2293.72
349.24	2164.70
349.45	2428.89
349.66	2045.92
349.88	2224.09
350.09	2183.13
350.30	2379.74
350.51	2439.13
350.72	2228.19
350.93	2299.87
351.14	2203.61
351.35	2316.25
351.56	2301.92
351.77	2203.61
351.99	2373.60
352.20	2396.12
352.41	2402.27
352.62	2052.06
352.83	2273.25
353.04	2287.58
353.25	2181.09
353.46	2289.63
353.67	2414.56
353.88	2109.41
354.09	2283.49
354.30	2297.82
354.52	2332.64
354.73	2306.01
354.94	2281.44
355.15	2234.33
355.36	2519.00
355.57	2179.04
355.78	2193.37
355.99	2150.37
356.20	2244.57
356.41	2303.96
356.62	2277.34
356.83	2256.86
357.04	2455.51
357.25	2060.26
357.46	2187.23
357.68	2093.02
357.89	2164.70
358.10	2236.38
358.31	2213.85
358.52	2123.74
358.73	2150.37
358.94	2076.64
359.15	2215.90
359.36	2312.16
359.57	2263.01
359.78	2236.38
359.99	2297.82
360.20	2080.74
360.41	2236.38
360.62	2306.01
360.83	2289.63
361.04	2205.66
361.25	2324.44
361.46	2435.03
361.67	2281.44
361.88	2203.61
362.09	2371.55
362.30	2267.10
362.51	2195.42
362.72	2197.47
362.93	2373.60
363.14	2322.40
363.35	2199.52
363.56	2203.61
363.78	2349.02
363.99	2369.50
364.20	2203.61
364.41	2295.77
364.62	2478.04
364.83	2361.31
365.04	2146.27
365.25	2195.42
365.46	2529.24
365.67	2207.71
365.88	2238.43
366.09	2228.19
366.30	2211.81
366.51	2287.58
366.72	2236.38
366.93	2162.66
367.14	2293.72
367.35	2340.83
367.56	2195.42
367.77	2340.83
367.98	2228.19
368.18	2336.73
368.39	2414.56
368.60	2093.02
368.81	2338.78
369.02	2326.49
369.23	2199.52
369.44	2105.31
369.65	2170.85
369.86	2308.06
370.07	2226.14
370.28	2162.66
370.49	2275.29
370.70	2404.32
370.91	2121.70
371.12	2097.12
371.33	2383.84
371.54	2226.14
371.75	2410.46
371.96	2009.06
372.17	2256.86
372.38	2277.34
372.59	2322.40
372.80	2248.67
373.01	2146.27
373.22	2322.40
373.43	2179.04
373.64	2115.55
373.85	2404.32
374.06	2467.80
374.26	2326.49
374.47	2265.05
374.68	2408.41
374.89	2295.77
375.10	2158.56
375.31	2275.29
375.52	2326.49
375.73	2324.44
375.94	2121.70
376.15	2404.32
376.36	2234.33
376.57	2275.29
376.78	2166.75
376.99	2275.29
377.20	2363.36
377.40	2154.46
377.61	2383.84
377.82	2191.33
378.03	2424.80
378.24	2273.25
378.45	2289.63
378.66	2256.86
378.87	2088.93
379.08	2107.36
379.29	2297.82
379.50	2338.78
379.71	2232.29
379.91	2291.68
380.12	2211.81
380.33	2250.72
380.54	2207.71
380.75	2203.61
380.96	2154.46
381.17	2322.40
381.38	2207.71
381.59	2293.72
381.80	2234.33
382.00	2467.80
382.21	2316.25
382.42	2486.23
382.63	2473.95
382.84	2287.58
383.05	2336.73
383.26	2435.03
383.47	2318.30
383.68	2285.53
383.88	2340.83
384.09	2277.34
384.30	2394.08
384.51	2332.64
384.72	2179.04
384.93	2084.83
385.14	2250.72
385.35	2389.98
385.55	2127.84
385.76	2363.36
385.97	2232.29
386.18	2119.65
386.39	2162.66
386.60	2248.67
386.81	2279.39
387.02	2179.04
387.22	2162.66
387.43	2324.44
387.64	2351.07
387.85	2381.79
388.06	2428.89
388.27	4030.40
388.48	8054.66
388.68	11812.68
388.89	14004.01
389.10	15120.15
389.31	13975.34
389.52	11034.46
389.73	9490.29
389.93	8593.28
390.14	8032.13
390.35	7200.66
390.56	6381.47
390.77	5152.69
390.98	4028.35
391.18	3215.31
391.39	2785.24
391.60	2359.26
391.81	2396.12
392.02	2254.81
392.23	2523.10
392.43	2273.25
392.64	2412.51
392.85	2211.81
393.06	2439.13
393.27	2250.72
393.47	2207.71
393.68	2283.49
393.89	2213.85
394.10	2367.45
394.31	2195.42
394.52	2220.00
394.72	2228.19
394.93	2344.92
395.14	2150.37
395.35	2246.62
395.56	2187.23
395.76	2234.33
395.97	2252.77
396.18	2363.36
396.39	2334.68
396.60	2725.85
396.80	2559.96
397.01	2473.95
397.22	2420.70
397.43	2422.75
397.64	2273.25
397.84	2303.96
398.05	2498.52
398.26	2242.53
398.47	2389.98
398.67	2389.98
398.88	2301.92
399.09	2301.92
399.30	2228.19
399.51	2271.20
399.71	2154.46
399.92	2252.77
400.13	2267.10
400.34	2248.67
400.54	2277.34
400.75	2445.27
400.96	2252.77
401.17	2435.03
401.37	2351.07
401.58	2195.42
401.79	2244.57
402.00	2478.04
402.21	2723.80
402.41	2519.00
402.62	2607.06
402.83	2643.93
403.04	2742.23
403.24	2842.58
403.45	2400.22
403.66	2562.01
403.87	2523.10
404.07	2437.08
404.28	2543.58
404.49	2510.81
404.70	2355.16
404.90	2359.26
405.11	2291.68
405.32	2322.40
405.52	2244.57
405.73	2150.37
405.94	2154.46
406.15	2260.96
406.35	2392.03
406.56	2318.30
406.77	2220.00
406.98	2269.15
407.18	2189.28
407.39	2439.13
407.60	2207.71
407.80	2281.44
408.01	2220.00
408.22	2306.01
408.43	2162.66
408.63	2254.81
408.84	2310.11
409.05	2392.03
409.25	2121.70
409.46	2162.66
409.67	2183.13
409.88	2158.56
410.08	2273.25
410.29	2179.04
410.50	2353.12
410.70	2383.84
410.91	2172.89
411.12	2234.33
411.32	2273.25
411.53	2138.08
411.74	2316.25
411.95	2355.16
412.15	2383.84
412.36	2387.93
412.57	2353.12
412.77	2463.71
412.98	2283.49
413.19	2303.96
413.39	2275.29
413.60	2252.77
413.81	2392.03
414.01	2133.98
414.22	2232.29
414.43	2320.35
414.63	2244.57
414.84	2326.49
415.05	2289.63
415.25	2199.52
415.46	2287.58
415.67	2220.00
415.87	2332.64
416.08	2201.57
416.29	2201.57
416.49	2402.27
416.70	2209.76
416.91	2281.44
417.11	2250.72
417.32	2379.74
417.53	2334.68
417.73	2303.96
417.94	2267.10
418.15	2336.73
418.35	2164.70
418.56	2179.04
418.77	2445.27
418.97	2232.29
419.18	2242.53
419.38	2056.16
419.59	2291.68
419.80	2439.13
420.00	2144.22
420.21	2248.67
420.42	2406.36
420.62	2308.06
420.83	2258.91
421.04	2201.57
421.24	2254.81
421.45	2244.57
421.65	2287.58
421.86	2283.49
422.07	2342.88
422.27	2263.01
422.48	2238.43
422.69	2207.71
422.89	2226.14
423.10	2336.73
423.30	2090.98
423.51	2191.33
423.72	2326.49
423.92	2301.92
424.13	2158.56
424.33	2234.33
424.54	2314.20
424.75	2326.49
424.95	2500.57
425.16	2226.14
425.36	2236.38
425.57	2351.07
425.78	2316.25
425.98	2277.34
426.19	2228.19
426.39	2205.66
426.60	2277.34
426.81	2392.03
427.01	2342.88
427.22	2179.04
427.42	2144.22
427.63	2166.75
427.83	2338.78
428.04	2455.51
428.25	2328.54
428.45	2332.64
428.66	2316.25
428.86	2320.35
429.07	2228.19
429.28	2224.09
429.48	2226.14
429.69	2166.75
429.89	2260.96
430.10	2189.28
430.30	2271.20
430.51	2297.82
430.71	2195.42
430.92	2263.01
431.13	2244.57
431.33	2387.93
431.54	2285.53
431.74	2375.64
431.95	2471.90
432.15	2119.65
432.36	2252.77
432.56	2316.25
432.77	2498.52
432.98	2455.51
433.18	2242.53
433.39	2256.86
433.59	2203.61
433.80	2512.86
434.00	2445.27
434.21	2209.76
434.41	2158.56
434.62	2523.10
434.82	2174.94
435.03	2127.84
435.23	2283.49
435.44	2136.03
435.64	2146.27
435.85	2181.09
436.06	2285.53
436.26	2373.60
436.47	2211.81
436.67	2136.03
436.88	2265.05
437.08	2408.41
437.29	2351.07
437.49	2277.34
437.70	2461.66
437.90	2209.76
438.11	2473.95
438.31	2299.87
438.52	2432.99
438.72	2473.95
438.93	2473.95
439.13	2351.07
439.34	2514.91
439.54	2265.05
439.75	2437.08
439.95	2328.54
440.16	2277.34
440.36	2303.96
440.57	2226.14
440.77	2283.49
440.98	2299.87
441.18	2306.01
441.39	2146.27
441.59	2203.61
441.80	2514.91
442.00	2316.25
442.21	2424.80
442.41	2162.66
442.62	2400.22
442.82	2191.33
443.02	2258.91
443.23	2285.53
443.43	2174.94
443.64	2377.69
443.84	2195.42
444.05	2322.40
444.25	2285.53
444.46	2211.81
444.66	2248.67
444.87	2441.18
445.07	2121.70
445.28	2289.63
445.48	2414.56
445.69	2363.36
445.89	2506.71
446.09	2328.54
446.30	2559.96
446.50	2813.91
446.71	4476.86
446.91	5595.05
447.12	6344.61
447.32	6664.09
447.53	6057.89
447.73	5076.91
447.93	4587.45
448.14	4255.68
448.34	4118.47
448.55	3629.00
448.75	3626.95
448.96	3350.48
449.16	3096.53
449.36	2904.02
449.57	2572.25
449.77	2414.56
449.98	2256.86
450.18	2340.83
450.39	2312.16
450.59	2383.84
450.79	2324.44
451.00	2267.10
451.20	2422.75
451.41	2265.05
451.61	2353.12
451.81	2293.72
452.02	2242.53
452.22	2224.09
452.43	2199.52
452.63	2236.38
452.84	2199.52
453.04	2148.32
453.24	2293.72
453.45	2183.13
453.65	2265.05
453.86	2230.24
454.06	2213.85
454.26	2265.05
454.47	2215.90
454.67	2383.84
454.87	2451.42
455.08	2297.82
455.28	2471.90
455.49	2303.96
455.69	2179.04
455.89	2500.57
456.10	2381.79
456.30	2209.76
456.51	2326.49
456.71	2275.29
456.91	2326.49
457.12	2336.73
457.32	2297.82
457.52	2246.62
457.73	2349.02
457.93	2379.74
458.14	2273.25
458.34	2136.03
458.54	2236.38
458.75	2197.47
458.95	2322.40
459.15	2275.29
459.36	2289.63
459.56	2301.92
459.76	2539.48
459.97	2318.30
460.17	2275.29
460.37	2349.02
460.58	2228.19
460.78	2346.97
460.99	2211.81
461.19	2314.20
461.39	2258.91
461.60	2228.19
461.80	2318.30
462.00	2211.81
462.21	2217.95
462.41	2220.00
462.61	2172.89
462.82	2113.50
463.02	2318.30
463.22	2314.20
463.43	2365.40
463.63	2236.38
463.83	2439.13
464.04	2392.03
464.24	2273.25
464.44	2183.13
464.64	2244.57
464.85	2361.31
465.05	2297.82
465.25	2160.61
465.46	2293.72
465.66	2338.78
465.86	2297.82
466.07	2228.19
466.27	2281.44
466.47	2129.89
466.68	2154.46
466.88	2412.51
467.08	2371.55
467.29	2402.27
467.49	2203.61
467.69	2252.77
467.89	2318.30
468.10	2258.91
468.30	2291.68
468.50	2385.88
468.71	2361.31
468.91	2220.00
469.11	2461.66
469.31	2226.14
469.52	2115.55
469.72	2453.47
469.92	2441.18
470.13	2254.81
470.33	2215.90
470.53	2303.96
470.73	2693.08
470.94	2973.65
471.14	3243.98
471.34	3579.85
471.54	3377.10
471.75	3047.38
471.95	2725.85
472.15	2801.62
472.36	2848.72
472.56	2752.47
472.76	2660.31
472.96	2645.98
473.17	2469.85
473.37	2492.38
473.57	2367.45
473.77	2435.03
473.98	2349.02
474.18	2205.66
474.38	2531.29
474.58	2256.86
474.79	2217.95
474.99	2260.96
475.19	2402.27
475.39	2142.18
475.60	2279.39
475.80	2242.53
476.00	2244.57
476.20	2203.61
476.41	2336.73
476.61	2408.41
476.81	2435.03
477.01	2201.57
477.21	2490.33
477.42	2451.42
477.62	2224.09
477.82	2392.03
478.02	2215.90
478.23	2211.81
478.43	2136.03
478.63	2222.05
478.83	2211.81
479.03	2344.92
479.24	2496.47
479.44	2453.47
479.64	2174.94
479.84	2078.69
480.04	2154.46
480.25	2367.45
480.45	2236.38
480.65	2275.29
480.85	2422.75
481.06	2281.44
481.26	2263.01
481.46	2353.12
481.66	2301.92
481.86	2187.23
482.06	2398.17
482.27	2271.20
482.47	2344.92
482.67	2334.68
482.87	2242.53
483.07	2344.92
483.28	2265.05
483.48	2138.08
483.68	2265.05
483.88	2250.72
484.08	2064.35
484.29	2133.98
484.49	2275.29
484.69	2203.61
484.89	2424.80
485.09	2334.68
485.29	2359.26
485.50	2353.12
485.70	2367.45
485.90	2334.68
486.10	2363.36
486.30	2318.30
486.50	2416.60
486.71	2285.53
486.91	2381.79
487.11	2361.31
487.31	2142.18
487.51	2250.72
487.71	2187.23
487.91	2152.42
488.12	2242.53
488.32	2015.20
488.52	2121.70
488.72	2095.07
488.92	2263.01
489.12	2379.74
489.32	2367.45
489.53	2287.58
489.73	2162.66
489.93	2496.47
490.13	2220.00
490.33	2125.79
490.53	2240.48
490.73	2396.12
490.94	2088.93
491.14	2320.35
491.34	2342.88
491.54	2557.91
491.74	3258.32
491.94	3850.18
492.14	4052.93
492.34	4063.17
492.54	3805.13
492.75	3309.52
492.95	3145.68
493.15	2949.08
493.35	2871.25
493.55	2846.68
493.75	2703.32
493.95	2783.19
494.15	2500.57
494.35	2443.23
494.56	2351.07
494.76	2303.96
494.96	2318.30
495.16	2387.93
495.36	2211.81
495.56	2316.25
495.76	2283.49
495.96	2244.57
496.16	2248.67
496.36	2443.23
496.56	2240.48
496.77	2340.83
496.97	2179.04
497.17	2416.60
497.37	2160.61
497.57	2332.64
497.77	2367.45
497.97	2195.42
498.17	2318.30
498.37	2144.22
498.57	2281.44
498.77	2236.38
498.97	2322.40
499.17	2461.66
499.38	2238.43
499.58	2301.92
499.78	2389.98
499.98	2480.09
500.18	2174.94
500.38	2201.57
500.58	2498.52
500.78	2818.00
500.98	5160.88
501.18	7153.55
501.38	8978.30
501.58	9805.67
501.78	9756.52
501.98	7569.29
502.18	6424.48
502.38	5574.57
502.58	5207.98
502.78	4622.27
502.98	4513.72
503.18	4184.00
503.38	3887.04
503.59	3403.72
503.79	3260.37
503.99	2926.55
504.19	2842.58
504.39	2801.62
504.59	2889.68
504.79	2789.33
504.99	2711.51
505.19	2621.40
505.39	2494.43
505.59	2605.02
505.79	2596.82
505.99	2392.03
506.19	2332.64
506.39	2443.23
506.59	2318.30
506.79	2244.57
506.99	2342.88
507.19	2220.00
507.39	2254.81
507.59	2217.95
507.79	2142.18
507.99	2207.71
508.19	2308.06
508.39	2324.44
508.59	2203.61
508.79	2392.03
508.99	2506.71
509.19	2220.00
509.39	2330.59
509.59	2220.00
509.79	2207.71
509.99	2258.91
510.19	2308.06
510.39	2351.07
510.59	2244.57
510.79	2172.89
510.99	2078.69
511.19	2263.01
511.39	2441.18
511.59	2293.72
511.79	2457.56
511.99	2273.25
512.19	2467.80
512.38	2277.34
512.58	2224.09
512.78	2166.75
512.98	2441.18
513.18	2332.64
513.38	2129.89
513.58	2332.64
513.78	2179.04
513.98	2293.72
514.18	2205.66
514.38	2287.58
514.58	2301.92
514.78	2187.23
514.98	2168.80
515.18	2295.77
515.38	2205.66
515.58	2428.89
515.78	2170.85
515.98	2193.37
516.18	2361.31
516.38	2314.20
516.57	2224.09
516.77	2176.99
516.97	2375.64
517.17	2228.19
517.37	2080.74
517.57	2318.30
517.77	2303.96
517.97	2195.42
518.17	2240.48
518.37	2248.67
518.57	2297.82
518.77	2258.91
518.97	2252.77
519.16	2336.73
519.36	2359.26
519.56	2244.57
519.76	2254.81
519.96	2295.77
520.16	2416.60
520.36	2168.80
520.56	2340.83
520.76	2260.96
520.96	2232.29
521.16	2346.97
521.35	2342.88
521.55	2412.51
521.75	2299.87
521.95	2232.29
522.15	2187.23
522.35	2144.22
522.55	2166.75
522.75	2373.60
522.95	2213.85
523.14	2142.18
523.34	2238.43
523.54	2195.42
523.74	2299.87
523.94	2240.48
524.14	2195.42
524.34	2285.53
524.54	2392.03
524.73	2252.77
524.93	2322.40
525.13	2299.87
525.33	2189.28
525.53	2447.32
525.73	2334.68
525.93	2226.14
526.13	2258.91
526.32	2131.94
526.52	2379.74
526.72	2324.44
526.92	2232.29
527.12	2189.28
527.32	2131.94
527.52	2271.20
527.71	2273.25
527.91	2228.19
528.11	2170.85
528.31	2336.73
528.51	2142.18
528.71	2287.58
528.90	2353.12
529.10	2365.40
529.30	2359.26
529.50	2021.35
529.70	2381.79
529.90	2248.67
530.09	2285.53
530.29	2146.27
530.49	2117.60
530.69	2553.82
530.89	2355.16
531.09	2299.87
531.28	2228.19
531.48	2306.01
531.68	2258.91
531.88	2306.01
532.08	2404.32
532.28	2228.19
532.47	2322.40
532.67	2381.79
532.87	2402.27
533.07	2215.90
533.27	2349.02
533.46	2404.32
533.66	2275.29
533.86	2256.86
534.06	2285.53
534.26	2250.72
534.45	2193.37
534.65	2385.88
534.85	2281.44
535.05	2277.34
535.25	2385.88
535.44	2209.76
535.64	2269.15
535.84	2263.01
536.04	2220.00
536.24	2248.67
536.43	2142.18
536.63	2289.63
536.83	2250.72
537.03	2195.42
537.22	2170.85
537.42	2074.59
537.62	2342.88
537.82	2265.05
538.02	2404.32
538.21	2428.89
538.41	2543.58
538.61	2318.30
538.81	2238.43
539.00	2349.02
539.20	2234.33
539.40	2254.81
539.60	2244.57
539.79	2330.59
539.99	2312.16
540.19	2154.46
540.39	2211.81
540.58	2289.63
540.78	2416.60
540.98	2275.29
541.18	2432.99
541.37	2387.93
541.57	2236.38
541.77	2281.44
541.97	2181.09
542.16	2123.74
542.36	2168.80
542.56	2289.63
542.76	2447.32
542.95	2357.21
543.15	2387.93
543.35	2293.72
543.54	2244.57
543.74	2211.81
543.94	2398.17
544.14	2215.90
544.33	2256.86
544.53	2222.05
544.73	2265.05
544.93	2232.29
545.12	2310.11
545.32	2213.85
545.52	2238.43
545.71	2148.32
545.91	2203.61
546.11	2297.82
546.30	2193.37
546.50	2273.25
546.70	2269.15
546.90	2252.77
547.09	2078.69
547.29	2211.81
547.49	2336.73
547.68	2324.44
547.88	2154.46
548.08	2334.68
548.27	2801.62
548.47	2236.38
548.67	2220.00
548.87	2322.40
549.06	2176.99
549.26	2242.53
549.46	2306.01
549.65	2256.86
549.85	2238.43
550.05	2324.44
550.24	2066.40
550.44	2318.30
550.64	2250.72
550.83	2211.81
551.03	2447.32
551.23	2328.54
551.42	2342.88
551.62	2189.28
551.82	2228.19
552.01	2260.96
552.21	2328.54
552.41	2279.39
552.60	2416.60
552.80	2250.72
553.00	2293.72
553.19	2269.15
553.39	2432.99
553.59	2185.18
553.78	2332.64
553.98	2275.29
554.17	2152.42
554.37	2252.77
554.57	2346.97
554.76	2179.04
554.96	2254.81
555.16	2220.00
555.35	2314.20
555.55	2332.64
555.75	2338.78
555.94	2349.02
556.14	2097.12
556.33	2306.01
556.53	2256.86
556.73	2299.87
556.92	2312.16
557.12	2336.73
557.32	2447.32
557.51	2453.47
557.71	2334.68
557.90	2398.17
558.10	2447.32
558.30	2246.62
558.49	2203.61
558.69	2220.00
558.88	2381.79
559.08	2267.10
559.28	2273.25
559.47	2252.77
559.67	2299.87
559.86	2471.90
560.06	2275.29
560.26	2201.57
560.45	2351.07
560.65	2256.86
560.84	2383.84
561.04	2228.19
561.24	2385.88
561.43	2248.67
561.63	2367.45
561.82	2291.68
562.02	2316.25
562.22	2187.23
562.41	2154.46
562.61	2183.13
562.80	2217.95
563.00	2486.23
563.19	2263.01
563.39	2322.40
563.59	2310.11
563.78	2170.85
563.98	2144.22
564.17	2189.28
564.37	2070.50
564.56	2215.90
564.76	2176.99
564.96	2342.88
565.15	2265.05
565.35	2439.13
565.54	2199.52
565.74	2308.06
565.93	2349.02
566.13	2314.20
566.32	2326.49
566.52	2367.45
566.71	2254.81
566.91	2346.97
567.11	2301.92
567.30	2267.10
567.50	2332.64
567.69	2383.84
567.89	2263.01
568.08	2176.99
568.28	2293.72
568.47	2146.27
568.67	2260.96
568.86	2125.79
569.06	2379.74
569.25	2359.26
569.45	2213.85
569.64	2273.25
569.84	2285.53
570.04	2318.30
570.23	2195.42
570.43	2226.14
570.62	2322.40
570.82	2437.08
571.01	2117.60
571.21	2185.18
571.40	2201.57
571.60	2334.68
571.79	2344.92
571.99	2285.53
572.18	2222.05
572.38	2301.92
572.57	2172.89
572.77	2308.06
572.96	2588.63
573.16	2314.20
573.35	2215.90
573.55	2387.93
573.74	2387.93
573.94	2215.90
574.13	2201.57
574.33	2353.12
574.52	2342.88
574.71	2320.35
574.91	2293.72
575.10	2127.84
575.30	2308.06
575.49	2181.09
575.69	2250.72
575.88	2277.34
576.08	2228.19
576.27	2445.27
576.47	2363.36
576.66	2453.47
576.86	2377.69
577.05	2260.96
577.25	2289.63
577.44	2547.67
577.64	2273.25
577.83	2375.64
578.02	2308.06
578.22	2383.84
578.41	2482.14
578.61	2246.62
578.80	2140.13
579.00	2267.10
579.19	2260.96
579.39	2287.58
579.58	2334.68
579.77	2277.34
579.97	2385.88
580.16	2482.14
580.36	2437.08
580.55	2338.78
580.75	2342.88
580.94	2346.97
581.13	2355.16
581.33	2457.56
581.52	2387.93
581.72	2570.20
581.91	2383.84
582.11	2275.29
582.30	2414.56
582.49	2244.57
582.69	2471.90
582.88	2316.25
583.08	2308.06
583.27	2432.99
583.47	2265.05
583.66	2162.66
583.85	2146.27
584.05	2295.77
584.24	2301.92
584.44	2332.64
584.63	2457.56
584.82	2502.62
585.02	2539.48
585.21	2494.43
585.41	2420.70
585.60	2328.54
585.79	2543.58
585.99	2562.01
586.18	2439.13
586.37	2969.55
586.57	4685.75
586.76	14028.59
586.96	33340.93
587.15	47664.42
587.34	56431.78
587.54	61647.96
587.73	56493.22
587.93	40101.28
588.12	30209.59
588.31	24217.23
588.51	21184.19
588.70	19312.35
588.89	17669.87
589.09	15343.38
589.28	13195.06
589.47	10790.75
589.67	8296.32
589.86	6287.26
590.06	4726.71
590.25	3833.80
590.44	3227.60
590.64	2865.11
590.83	2570.20
591.02	2533.34
591.22	2392.03
591.41	2422.75
591.60	2306.01
591.80	2539.48
591.99	2240.48
592.18	2285.53
592.38	2406.36
592.57	2236.38
592.76	2256.86
592.96	2310.11
593.15	2297.82
593.34	2418.65
593.54	2293.72
593.73	2398.17
593.92	2447.32
594.12	2432.99
594.31	2244.57
594.50	2412.51
594.70	2369.50
594.89	2553.82
595.08	2187.23
595.28	2461.66
595.47	2617.30
595.66	2363.36
595.86	2146.27
596.05	2283.49
596.24	2207.71
596.43	2375.64
596.63	2441.18
596.82	2318.30
597.01	2322.40
597.21	2447.32
597.40	2392.03
597.59	2256.86
597.79	2342.88
597.98	2355.16
598.17	2310.11
598.36	2308.06
598.56	2408.41
598.75	2248.67
598.94	2285.53
599.14	2355.16
599.33	2258.91
599.52	2342.88
599.71	2340.83
599.91	2355.16
600.10	2279.39
600.29	2310.11
600.48	2340.83
600.68	2359.26
600.87	2303.96
601.06	2203.61
601.26	2240.48
601.45	2346.97
601.64	2293.72
601.83	2383.84
602.03	2258.91
602.22	2127.84
602.41	2416.60
602.60	2631.64
602.80	2310.11
602.99	2371.55
603.18	2260.96
603.37	2410.46
603.57	2258.91
603.76	2326.49
603.95	2406.36
604.14	2244.57
604.34	2095.07
604.53	2170.85
604.72	2363.36
604.91	2396.12
605.10	2250.72
605.30	2183.13
605.49	2447.32
605.68	2303.96
605.87	2332.64
606.07	2191.33
606.26	2299.87
606.45	2363.36
606.64	2318.30
606.84	2189.28
607.03	2277.34
607.22	2392.03
607.41	2260.96
607.60	2267.10
607.80	2334.68
607.99	2273.25
608.18	2269.15
608.37	2269.15
608.56	2185.18
608.76	2359.26
608.95	2447.32
609.14	2318.30
609.33	2514.91
609.52	2512.86
609.72	2338.78
609.91	2447.32
610.10	2367.45
610.29	2445.27
610.48	2416.60
610.68	2310.11
610.87	2289.63
611.06	2316.25
611.25	2285.53
611.44	2447.32
611.63	2244.57
611.83	2400.22
612.02	2195.42
612.21	2367.45
612.40	2170.85
612.59	2250.72
612.79	2203.61
612.98	2281.44
613.17	2463.71
613.36	2332.64
613.55	2408.41
613.74	2283.49
613.93	2371.55
614.13	2447.32
614.32	2414.56
614.51	2480.09
614.70	2283.49
614.89	2303.96
615.08	2365.40
615.28	2818.00
615.47	2240.48
615.66	2361.31
615.85	2297.82
616.04	2469.85
616.23	2260.96
616.42	2252.77
616.62	2301.92
616.81	2306.01
617.00	2291.68
617.19	2383.84
617.38	2242.53
617.57	2265.05
617.76	2346.97
617.95	2355.16
618.15	2314.20
618.34	2416.60
618.53	2129.89
618.72	2412.51
618.91	2398.17
619.10	2398.17
619.29	2285.53
619.48	2289.63
619.68	2101.22
619.87	2197.47
620.06	2133.98
620.25	2306.01
620.44	2203.61
620.63	2252.77
620.82	2326.49
621.01	2303.96
621.20	2228.19
621.39	2351.07
621.59	2375.64
621.78	2244.57
621.97	2248.67
622.16	2308.06
622.35	2297.82
622.54	2367.45
622.73	2418.65
622.92	2105.31
623.11	2369.50
623.30	2207.71
623.49	2263.01
623.68	2144.22
623.88	2351.07
624.07	2252.77
624.26	2267.10
624.45	2215.90
624.64	2246.62
624.83	2285.53
625.02	2220.00
625.21	2260.96
625.40	2392.03
625.59	2328.54
625.78	2277.34
625.97	2375.64
626.16	2523.10
626.35	2418.65
626.54	2346.97
626.74	2475.99
626.93	2252.77
627.12	2236.38
627.31	2346.97
627.50	2320.35
627.69	2351.07
627.88	2197.47
628.07	2215.90
628.26	2088.93
628.45	2236.38
628.64	2164.70
628.83	2260.96
629.02	2144.22
629.21	2420.70
629.40	2312.16
629.59	2224.09
629.78	2183.13
629.97	2256.86
630.16	2256.86
630.35	2191.33
630.54	2236.38
630.73	2191.33
630.92	2242.53
631.11	2215.90
631.30	2328.54
631.49	2326.49
631.68	2299.87
631.87	2351.07
632.06	2191.33
632.25	2455.51
632.44	2314.20
632.63	2357.21
632.82	2334.68
633.01	2246.62
633.20	2340.83
633.39	2301.92
633.58	2146.27
633.77	2363.36
633.96	2353.12
634.15	2406.36
634.34	2320.35
634.53	2265.05
634.72	2152.42
634.91	2189.28
635.10	2369.50
635.29	2326.49
635.48	2346.97
635.67	2142.18
635.86	2170.85
636.05	2471.90
636.24	2269.15
636.43	2256.86
636.62	2258.91
636.81	2023.39
637.00	2275.29
637.19	2299.87
637.38	2260.96
637.57	2295.77
637.76	2406.36
637.95	2426.84
638.14	2267.10
638.33	2371.55
638.52	2334.68
638.71	2203.61
638.89	2291.68
639.08	2547.67
639.27	2500.57
639.46	2527.19
639.65	2934.74
639.84	2875.35
640.03	2965.46
640.22	2897.88
640.41	2979.79
640.60	2555.86
640.79	2521.05
640.98	2453.47
641.17	2506.71
641.36	2408.41
641.55	2381.79
641.74	2269.15
641.92	2185.18
642.11	2168.80
642.30	2310.11
642.49	2158.56
642.68	2240.48
642.87	2269.15
643.06	2267.10
643.25	2203.61
643.44	2211.81
643.63	2234.33
643.82	2342.88
644.00	2162.66
644.19	2285.53
644.38	2203.61
644.57	2355.16
644.76	2244.57
644.95	2260.96
645.14	2303.96
645.33	2260.96
645.52	2220.00
645.71	2133.98
645.89	2109.41
646.08	2230.24
646.27	2217.95
646.46	2404.32
646.65	2146.27
646.84	2291.68
647.03	2189.28
647.22	2281.44
647.40	2375.64
647.59	2232.29
647.78	2101.22
647.97	2213.85
648.16	2179.04
648.35	2346.97
648.54	2299.87
648.73	2254.81
648.91	2398.17
649.10	2289.63
649.29	2205.66
649.48	2275.29
649.67	2308.06
649.86	2285.53
650.05	2326.49
650.23	2463.71
650.42	2269.15
650.61	2502.62
650.80	2529.24
650.99	2605.02
651.18	2398.17
651.36	2539.48
651.55	2283.49
651.74	2383.84
651.93	2246.62
652.12	2230.24
652.31	2285.53
652.49	2232.29
652.68	2273.25
652.87	2451.42
653.06	2359.26
653.25	2437.08
653.44	2340.83
653.62	2437.08
653.81	2236.38
654.00	2228.19
654.19	2467.80
654.38	2576.34
654.56	2258.91
654.75	2201.57
654.94	2392.03
655.13	2334.68
655.32	2258.91
655.51	2248.67
655.69	2203.61
655.88	2326.49
656.07	2203.61
656.26	2263.01
656.45	2140.13
656.63	2338.78
656.82	2244.57
657.01	2408.41
657.20	2185.18
657.38	2463.71
657.57	2170.85
657.76	2131.94
657.95	2277.34
658.14	2271.20
658.32	2224.09
658.51	2176.99
658.70	2295.77
658.89	2295.77
659.08	2324.44
659.26	2455.51
659.45	2222.05
659.64	2373.60
659.83	2187.23
660.01	2695.13
660.20	2349.02
660.39	2428.89
660.58	2056.16
660.76	2353.12
660.95	2187.23
661.14	2258.91
661.33	2070.50
661.51	2136.03
661.70	2267.10
661.89	2340.83
662.08	2306.01
662.26	2156.51
662.45	2158.56
662.64	2439.13
662.83	2365.40
663.01	2176.99
663.20	2195.42
663.39	2383.84
663.58	2209.76
663.76	2236.38
663.95	2340.83
664.14	2162.66
664.32	2203.61
664.51	2209.76
664.70	2060.26
664.89	2322.40
665.07	2129.89
665.26	2392.03
665.45	2201.57
665.64	2367.45
665.82	2215.90
666.01	2363.36
666.20	2154.46
666.38	2408.41
666.57	2482.14
666.76	3401.68
666.95	8316.80
667.13	16277.26
667.32	21507.77
667.51	25042.56
667.69	26715.75
667.88	24333.96
668.07	17487.61
668.25	14133.03
668.44	11538.26
668.63	9981.80
668.81	8978.30
669.00	7833.48
669.19	6991.77
669.38	5963.68
669.56	5126.07
669.75	4284.35
669.94	3706.82
670.12	3123.15
670.31	2727.89
670.50	2666.46
670.68	2580.44
670.87	2387.93
671.06	2383.84
671.24	2387.93
671.43	2541.53
671.62	2209.76
671.80	2269.15
671.99	2383.84
672.18	2310.11
672.36	2445.27
672.55	2263.01
672.74	2256.86
672.92	2277.34
673.11	2404.32
673.29	2146.27
673.48	2353.12
673.67	2310.11
673.85	2361.31
674.04	2244.57
674.23	2289.63
674.41	2467.80
674.60	2154.46
674.79	2121.70
674.97	2181.09
675.16	2359.26
675.34	2328.54
675.53	2201.57
675.72	2289.63
675.90	2453.47
676.09	2195.42
676.28	2234.33
676.46	2158.56
676.65	2316.25
676.83	2127.84
677.02	2363.36
677.21	2232.29
677.39	2330.59
677.58	2193.37
677.77	2232.29
677.95	2168.80
678.14	2236.38
678.32	2166.75
678.51	2236.38
678.70	2490.33
678.88	2203.61
679.07	2285.53
679.25	2246.62
679.44	2271.20
679.63	2201.57
679.81	2232.29
680.00	2367.45
680.18	2314.20
680.37	2293.72
680.55	2228.19
680.74	2105.31
680.93	2052.06
681.11	2273.25
681.30	2220.00
681.48	2340.83
681.67	2267.10
681.85	2215.90
682.04	2185.18
682.23	2324.44
682.41	2295.77
682.60	2183.13
682.78	2252.77
682.97	2185.18
683.15	2201.57
683.34	2336.73
683.53	2416.60
683.71	2125.79
683.90	2406.36
684.08	2473.95
684.27	2287.58
684.45	2324.44
684.64	2312.16
684.82	2220.00
685.01	2281.44
685.19	2265.05
685.38	2424.80
685.57	2334.68
685.75	2113.50
685.94	2226.14
686.12	2158.56
686.31	2285.53
686.49	2396.12
686.68	2062.30
686.86	2297.82
687.05	2217.95
687.23	2441.18
687.42	2226.14
687.60	2183.13
687.79	2330.59
687.97	2430.94
688.16	2365.40
688.34	2363.36
688.53	2150.37
688.71	2334.68
688.90	2349.02
689.08	2228.19
689.27	2088.93
689.45	2330.59
689.64	2275.29
689.82	2349.02
690.01	2301.92
690.19	2314.20
690.38	2228.19
690.56	2355.16
690.75	2228.19
690.93	2250.72
691.12	2277.34
691.30	2209.76
691.49	2211.81
691.67	2293.72
691.86	2424.80
692.04	2154.46
692.23	2269.15
692.41	2363.36
692.60	2471.90
692.78	2445.27
692.97	2422.75
693.15	2406.36
693.34	2420.70
693.52	2365.40
693.71	2248.67
693.89	2220.00
694.08	2105.31
694.26	2392.03
694.44	2381.79
694.63	2369.50
694.81	2187.23
695.00	2236.38
695.18	2383.84
695.37	2521.05
695.55	2283.49
695.74	2232.29
695.92	2211.81
696.10	2334.68
696.29	2125.79
696.47	2187.23
696.66	2101.22
696.84	2201.57
697.03	2285.53
697.21	2437.08
697.40	3325.90
697.58	2478.04
697.76	2273.25
697.95	2230.24
698.13	2162.66
698.32	2213.85
698.50	2293.72
698.68	2248.67
698.87	2285.53
699.05	2451.42
699.24	2211.81
699.42	2195.42
699.61	2273.25
699.79	2260.96
699.97	2320.35
700.16	2084.83
700.34	2058.21
700.53	2256.86
700.71	2457.56
700.89	2281.44
701.08	2240.48
701.26	2250.72
701.45	2801.62
701.63	2291.68
701.81	2238.43
702.00	2205.66
702.18	2263.01
702.37	2277.34
702.55	2457.56
702.73	2475.99
702.92	2381.79
703.10	2582.49
703.28	2504.67
703.47	2230.24
703.65	2451.42
703.84	2467.80
704.02	2277.34
704.20	2480.09
704.39	2295.77
704.57	2240.48
704.75	2377.69
704.94	2385.88
705.12	2377.69
705.30	2586.58
705.49	4372.41
705.67	10616.67
705.86	18081.52
706.04	22081.20
706.22	25017.99
706.41	26029.68
706.59	22021.81
706.77	15562.51
706.96	13287.22
707.14	11466.58
707.32	10069.86
707.51	8822.65
707.69	7341.97
707.87	5980.07
708.06	4732.86
708.24	3940.29
708.42	3235.79
708.61	3084.24
708.79	2465.75
708.97	2437.08
709.16	2398.17
709.34	2318.30
709.52	2220.00
709.71	2283.49
709.89	2357.21
710.07	2291.68
710.26	2250.72
710.44	2236.38
710.62	2334.68
710.80	2346.97
710.99	2371.55
711.17	2279.39
711.35	2232.29
711.54	2156.51
711.72	2410.46
711.90	2252.77
712.09	2387.93
712.27	2215.90
712.45	2334.68
712.63	2187.23
712.82	2297.82
713.00	2277.34
713.18	2287.58
713.37	2426.84
713.55	2338.78
713.73	2281.44
713.91	2338.78
714.10	2193.37
714.28	2269.15
714.46	2301.92
714.65	2187.23
714.83	2269.15
715.01	2254.81
715.19	2283.49
715.38	2242.53
715.56	2308.06
715.74	2185.18
715.92	2154.46
716.11	2418.65
716.29	2160.61
716.47	2162.66
716.65	2119.65
716.84	2176.99
717.02	2387.93
717.20	2062.30
717.38	2228.19
717.57	2217.95
717.75	2277.34
717.93	2279.39
718.11	2342.88
718.30	2097.12
718.48	2238.43
718.66	2346.97
718.84	2361.31
719.03	2232.29
719.21	2160.61
719.39	2455.51
719.57	2289.63
719.75	2306.01
719.94	2158.56
720.12	2203.61
720.30	2308.06
720.48	2383.84
720.67	2166.75
720.85	2170.85
721.03	2162.66
721.21	2146.27
721.39	2340.83
721.58	2332.64
721.76	2222.05
721.94	2269.15
722.12	2301.92
722.30	2490.33
722.49	2170.85
722.67	2324.44
722.85	2338.78
723.03	2146.27
723.21	2160.61
723.40	2215.90
723.58	2281.44
723.76	2349.02
723.94	2523.10
724.12	2375.64
724.30	2461.66
724.49	2408.41
724.67	2181.09
724.85	2422.75
725.03	2136.03
725.21	2344.92
725.40	2379.74
725.58	2215.90
725.76	2248.67
725.94	2205.66
726.12	2193.37
726.30	2217.95
726.49	2250.72
726.67	2191.33
726.85	2308.06
727.03	2572.25
727.21	3473.36
727.39	4951.99
727.57	5849.00
727.76	6537.12
727.94	6729.63
728.12	6377.37
728.30	5093.30
728.48	4487.10
728.66	4120.51
728.84	3706.82
729.03	3325.90
729.21	2979.79
729.39	2662.36
729.57	2475.99
729.75	2416.60
729.93	2416.60
730.11	2275.29
730.30	2258.91
730.48	2349.02
730.66	2404.32
730.84	2346.97
731.02	2220.00
731.20	2197.47
731.38	2297.82
731.56	2203.61
731.74	2203.61
731.93	2242.53
732.11	2203.61
732.29	2289.63
732.47	2275.29
732.65	2260.96
732.83	2424.80
733.01	2281.44
733.19	2273.25
733.37	2303.96
733.56	2314.20
733.74	2181.09
733.92	2375.64
734.10	2187.23
734.28	2342.88
734.46	2133.98
734.64	2234.33
734.82	2213.85
735.00	2179.04
735.18	2166.75
735.36	2238.43
735.54	2254.81
735.73	2326.49
735.91	2271.20
736.09	2340.83
736.27	2269.15
736.45	2236.38
736.63	2152.42
736.81	2172.89
736.99	2252.77
737.17	2334.68
737.35	2162.66
737.53	2326.49
737.71	2220.00
737.89	2365.40
738.07	2154.46
738.25	2185.18
738.43	2170.85
738.61	2224.09
738.80	2144.22
738.98	2162.66
739.16	2215.90
739.34	2129.89
739.52	2447.32
739.70	2281.44
739.88	2383.84
740.06	2349.02
740.24	2072.54
740.42	2326.49
740.60	2144.22
740.78	2168.80
740.96	2064.35
741.14	2244.57
741.32	2217.95
741.50	2070.50
741.68	2441.18
741.86	2435.03
742.04	2187.23
742.22	2129.89
742.40	2220.00
742.58	2322.40
742.76	2187.23
742.94	2426.84
743.12	2105.31
743.30	2355.16
743.48	2308.06
743.66	2263.01
743.84	2293.72
744.02	2244.57
744.20	2230.24
744.38	2133.98
744.56	2211.81
744.74	2430.94
744.92	2256.86
745.10	2334.68
745.28	2310.11
745.46	2432.99
745.64	2228.19
745.82	2334.68
746.00	2252.77
746.18	2342.88
746.36	2207.71
746.54	2271.20
746.72	2265.05
746.90	2179.04
747.08	2301.92
747.26	2289.63
747.44	2326.49
747.62	2318.30
747.80	2215.90
747.98	2365.40
748.15	2232.29
748.33	2369.50
748.51	2316.25
748.69	2285.53
748.87	2197.47
749.05	2160.61
749.23	2211.81
749.41	2246.62
749.59	2201.57
749.77	2314.20
749.95	2287.58
750.13	2121.70
750.31	2277.34
750.49	2183.13
750.67	2342.88
750.85	2363.36
751.03	2222.05
751.20	2473.95
751.38	2254.81
751.56	2150.37
751.74	2265.05
751.92	2203.61
752.10	2160.61
752.28	2367.45
752.46	2211.81
752.64	2228.19
752.82	2310.11
753.00	2349.02
753.18	2193.37
753.35	2201.57
753.53	2303.96
753.71	2277.34
753.89	2295.77
754.07	2220.00
754.25	2289.63
754.43	2271.20
754.61	2138.08
754.79	2359.26
754.97	2281.44
755.14	2377.69
755.32	2129.89
755.50	2371.55
755.68	2254.81
755.86	2146.27
756.04	2209.76
756.22	2088.93
756.40	2285.53
756.57	2422.75
756.75	2226.14
756.93	2367.45
757.11	2342.88
757.29	2129.89
757.47	2183.13
757.65	2117.60
757.82	2064.35
758.00	2199.52
758.18	2160.61
758.36	2172.89
758.54	2349.02
758.72	2099.17
758.90	2277.34
759.07	2353.12
759.25	2162.66
759.43	2330.59
759.61	2181.09
759.79	3121.10
759.97	2422.75
760.15	2109.41
760.32	2207.71
760.50	2285.53
760.68	2410.46
760.86	2170.85
761.04	2349.02
761.22	2301.92
761.39	2306.01
761.57	2254.81
761.75	2164.70
761.93	2363.36
762.11	2228.19
762.28	2310.11
762.46	2172.89
762.64	2363.36
762.82	2113.50
763.00	2232.29
763.18	2349.02
763.35	2211.81
763.53	2303.96
763.71	2179.04
763.89	2230.24
764.07	2301.92
764.24	2287.58
764.42	2310.11
764.60	2207.71
764.78	2301.92
764.96	2283.49
765.13	2334.68
765.31	2234.33
765.49	2310.11
765.67	2052.06
765.84	2193.37
766.02	2220.00
766.20	2146.27
766.38	2287.58
766.56	2330.59
766.73	2269.15
766.91	2228.19
767.09	2281.44
767.27	2332.64
767.44	2164.70
767.62	2359.26
767.80	2228.19
767.98	2129.89
768.15	2179.04
768.33	2281.44
768.51	2359.26
768.69	2244.57
768.87	2310.11
769.04	2252.77
769.22	2519.00
769.40	2437.08
769.58	2453.47
769.75	2252.77
769.93	2367.45
770.11	2203.61
770.28	2209.76
770.46	2326.49
770.64	2269.15
770.82	2205.66
770.99	2158.56
771.17	2353.12
771.35	2260.96
771.53	2203.61
771.70	2275.29
771.88	2359.26
772.06	2246.62
772.23	2260.96
772.41	2269.15
772.59	2246.62
772.77	2107.36
772.94	2183.13
773.12	2240.48
773.30	2326.49
773.47	2263.01
773.65	2168.80
773.83	2340.83
774.01	2267.10
774.18	2054.11
774.36	2195.42
774.54	2117.60
774.71	2275.29
774.89	2025.44
775.07	2117.60
775.24	2201.57
775.42	2193.37
775.60	2521.05
775.78	2207.71
775.95	2154.46
776.13	2097.12
776.31	2078.69
776.48	2318.30
776.66	2297.82
776.84	2234.33
777.01	2160.61
777.19	2162.66
777.37	2133.98
777.54	2326.49
777.72	2443.23
777.90	2310.11
778.07	2174.94
778.25	2613.21
778.43	2291.68
778.60	2174.94
778.78	2250.72
778.96	2377.69
779.13	2162.66
779.31	2299.87
779.49	2306.01
779.66	2232.29
779.84	2215.90
780.01	2185.18
780.19	2121.70
780.37	2334.68
780.54	2265.05
780.72	2220.00
780.90	2283.49
781.07	2232.29
781.25	2209.76
781.43	2318.30
781.60	2136.03
781.78	2392.03
781.95	2238.43
782.13	2142.18
782.31	2211.81
782.48	2080.74
782.66	2234.33
782.83	2379.74
783.01	2301.92
783.19	2332.64
783.36	2226.14
783.54	2162.66
783.72	2351.07
783.89	2295.77
784.07	2326.49
784.24	2258.91
784.42	2389.98
784.60	2301.92
784.77	2297.82
784.95	2115.55
785.12	2162.66
785.30	2283.49
785.47	2199.52
785.65	2129.89
785.83	2160.61
786.00	2138.08
786.18	2275.29
786.35	2181.09
786.53	2166.75
786.71	2324.44
786.88	2248.67
787.06	2299.87
787.23	2197.47
787.41	2207.71
787.58	2289.63
787.76	2138.08
787.94	2240.48
788.11	2285.53
788.29	2121.70
788.46	2205.66
788.64	2111.46
788.81	2236.38
788.99	2238.43
789.16	2119.65
789.34	2209.76
789.52	2211.81
789.69	2283.49
789.87	2070.50
790.04	2164.70
790.22	2232.29
790.39	2504.67
790.57	2158.56
790.74	2211.81
790.92	2383.84
791.09	2136.03
791.27	2287.58
791.44	2308.06
791.62	2199.52
791.79	2359.26
791.97	2301.92
792.15	2545.63
792.32	2322.40
792.50	2310.11
792.67	2445.27
792.85	2363.36
793.02	2271.20
793.20	2209.76
793.37	2041.82
793.55	2211.81
793.72	2109.41
793.90	2281.44
794.07	2111.46
794.25	2133.98
794.42	2197.47
794.60	2189.28
794.77	2244.57
794.95	2285.53
795.12	2342.88
795.30	2226.14
795.47	2109.41
795.65	2514.91
795.82	2269.15
796.00	2203.61
796.17	2185.18
796.34	2150.37
796.52	2250.72
796.69	2355.16
796.87	2277.34
797.04	2275.29
797.22	2371.55
797.39	2269.15
797.57	2318.30
797.74	2289.63
797.92	2387.93
798.09	2238.43
798.27	2349.02
798.44	2236.38
798.62	2181.09
798.79	2281.44
798.96	2310.11
799.14	2209.76
799.31	2551.77
799.49	2301.92
799.66	2201.57
799.84	2238.43
800.01	2133.98
800.19	2226.14
800.36	2162.66
800.53	2209.76
800.71	2334.68
800.88	2353.12
801.06	2217.95
801.23	2193.37
801.41	2234.33
801.58	2213.85
801.75	2140.13
801.93	2306.01
802.10	2318.30
802.28	2213.85
802.45	2236.38
802.63	2301.92
802.80	2385.88
802.97	2265.05
803.15	2289.63
803.32	2267.10
803.50	2107.36
803.67	2154.46
803.84	2154.46
804.02	2265.05
804.19	2254.81
804.37	2009.06
804.54	2220.00
804.71	2220.00
804.89	2150.37
805.06	2201.57
805.24	2205.66
805.41	2109.41
805.58	2142.18
805.76	2492.38
805.93	2248.67
806.10	2414.56
806.28	2258.91
806.45	2275.29
806.63	2256.86
806.80	2252.77
806.97	2340.83
807.15	2260.96
807.32	2228.19
807.49	2183.13
807.67	2168.80
807.84	2260.96
808.01	2111.46
808.19	2535.39
808.36	2455.51
808.54	2232.29
808.71	2148.32
808.88	2265.05
809.06	2308.06
809.23	2418.65
809.40	2179.04
809.58	2279.39
809.75	2193.37
809.92	2084.83
810.10	2424.80
810.27	2238.43
810.44	2318.30
810.62	2316.25
810.79	2316.25
810.96	2199.52
811.14	2250.72
811.31	2228.19
811.48	2295.77
811.66	2176.99
811.83	2334.68
812.00	2183.13
812.18	2336.73
812.35	2451.42
812.52	2269.15
812.69	2176.99
812.87	2185.18
813.04	2166.75
813.21	2189.28
813.39	2170.85
813.56	2146.27
813.73	2371.55
813.91	2146.27
814.08	2283.49
814.25	2236.38
814.42	2082.78
814.60	2224.09
814.77	2258.91
814.94	2291.68
815.12	2236.38
815.29	2392.03
815.46	2101.22
815.63	2230.24
815.81	2250.72
815.98	2125.79
816.15	2238.43
816.33	2209.76
816.50	2209.76
816.67	2267.10
816.84	2287.58
817.02	2142.18
817.19	2234.33
817.36	2258.91
817.53	2353.12
817.71	2176.99
817.88	2299.87
818.05	2176.99
818.22	2183.13
818.40	2420.70
818.57	2244.57
818.74	2301.92
818.91	2191.33
819.09	2330.59
819.26	2283.49
819.43	2211.81
819.60	2148.32
819.78	2220.00
819.95	2363.36
820.12	2080.74
820.29	2424.80
820.47	2320.35
820.64	2185.18
820.81	2138.08
820.98	2179.04
821.15	2127.84
821.33	2330.59
821.50	2056.16
821.67	2279.39
821.84	2179.04
822.02	2299.87
822.19	2336.73
822.36	2179.04
822.53	2203.61
822.70	2185.18
822.88	2224.09
823.05	2420.70
823.22	2299.87
823.39	2285.53
823.56	2289.63
823.74	2416.60
823.91	2220.00
824.08	2068.45
824.25	2193.37
824.42	2521.05
824.60	2123.74
824.77	2226.14
824.94	2193.37
825.11	2273.25
825.28	2101.22
825.45	2238.43
825.63	2211.81
825.80	2207.71
825.97	2258.91
826.14	2244.57
826.31	2131.94
826.48	2201.57
826.66	2156.51
826.83	2228.19
827.00	2273.25
827.17	2148.32
827.34	2181.09
827.51	2144.22
827.69	2256.86
827.86	2105.31
828.03	2215.90
828.20	2269.15
828.37	2176.99
828.54	2263.01
828.71	2187.23
828.89	2424.80
829.06	2193.37
829.23	2310.11
829.40	2224.09
829.57	2201.57
829.74	2410.46
829.91	2187.23
830.09	2176.99
830.26	2340.83
830.43	2416.60
830.60	2322.40
830.77	2326.49
830.94	2414.56
831.11	2367.45
831.28	2234.33
831.46	2281.44
831.63	2166.75
831.80	2240.48
831.97	2179.04
832.14	2232.29
832.31	2349.02
832.48	2201.57
832.65	2312.16
832.82	2195.42
832.99	2283.49
833.17	2097.12
833.34	2340.83
833.51	2293.72
833.68	2154.46
833.85	2334.68
834.02	2158.56
834.19	2082.78
834.36	2060.26
834.53	2312.16
834.70	2404.32
834.87	2260.96
835.04	2195.42
835.22	2207.71
835.39	2162.66
835.56	2138.08
835.73	2152.42
835.90	2355.16
836.07	2131.94
836.24	2301.92
836.41	2111.46
836.58	2138.08
836.75	2336.73
836.92	2189.28
837.09	2111.46
837.26	2367.45
837.43	2301.92
837.60	2377.69
837.77	2191.33
837.94	2326.49
838.12	2293.72
838.29	2226.14
838.46	2062.30
838.63	2074.59
838.80	2400.22
838.97	2291.68
839.14	2248.67
839.31	2252.77
839.48	2353.12
839.65	2142.18
839.82	2254.81
839.99	2260.96
840.16	2279.39
840.33	2226.14
840.50	2263.01
840.67	2205.66
840.84	2056.16
841.01	2166.75
841.18	2220.00
841.35	2267.10
841.52	2320.35
841.69	2430.94
841.86	2228.19
842.03	2258.91
842.20	2349.02
842.37	2226.14
842.54	2156.51
842.71	2285.53
842.88	2140.13
843.05	2234.33
843.22	2181.09
843.39	2322.40
843.56	2228.19
843.73	2244.57
843.90	2224.09
844.07	2242.53
844.24	2338.78
844.41	2291.68
844.58	2256.86
844.75	2236.38
844.92	2318.30
845.09	2199.52
845.26	2109.41
845.43	2275.29
845.60	2236.38
845.77	2267.10
845.94	2213.85
846.10	2263.01
846.27	2138.08
846.44	2140.13
846.61	2129.89
846.78	2353.12
846.95	2310.11
847.12	2170.85
847.29	2215.90
847.46	2127.84
847.63	2367.45
847.80	2158.56
847.97	2242.53
848.14	2463.71
848.31	2136.03
848.48	2101.22
848.65	2310.11
848.82	2217.95
848.98	2514.91
849.15	2285.53
849.32	2277.34
849.49	2404.32
849.66	2217.95
849.83	2228.19
850.00	2105.31
850.17	2318.30
850.34	2193.37
850.51	2176.99
850.68	2222.05
850.85	2445.27
851.01	2269.15
851.18	2211.81
851.35	2211.81
851.52	2283.49
851.69	2502.62
851.86	2066.40
852.03	2160.61
852.20	2334.68
852.37	2244.57
852.53	2172.89
852.70	2209.76
852.87	2236.38
853.04	2416.60
853.21	2248.67
853.38	2232.29
853.55	2367.45
853.72	2408.41
853.89	2181.09
854.05	2156.51
854.22	2191.33
854.39	2129.89
854.56	2176.99
854.73	2269.15
854.90	2203.61
855.07	2183.13
855.23	2088.93
855.40	2142.18
855.57	2224.09
855.74	2074.59
855.91	2406.36
856.08	2121.70
856.25	2146.27
856.41	2179.04
856.58	2224.09
856.75	2217.95
856.92	2131.94
857.09	2351.07
857.26	2072.54
857.42	2193.37
857.59	2326.49
857.76	2242.53
857.93	2154.46
858.10	2232.29
858.27	2160.61
858.43	2318.30
858.60	2183.13
858.77	2058.21
858.94	2203.61
859.11	2226.14
859.27	2154.46
859.44	2174.94
859.61	2435.03
859.78	2330.59
859.95	2179.04
860.12	2138.08
860.28	2445.27
860.45	2437.08
860.62	2168.80
860.79	2265.05
860.95	2273.25
861.12	2226.14
861.29	2256.86
861.46	2136.03
861.63	2222.05
861.79	2318.30
861.96	2084.83
862.13	2191.33
862.30	2428.89
862.47	2205.66
862.63	2201.57
862.80	2289.63
862.97	2359.26
863.14	2316.25
863.30	2310.11
863.47	2150.37
863.64	2406.36
863.81	2281.44
863.97	2119.65
864.14	2207.71
864.31	2273.25
864.48	2299.87
864.65	2160.61
864.81	2238.43
864.98	2275.29
865.15	2283.49
865.32	2213.85
865.48	2324.44
865.65	2371.55
865.82	2138.08
865.98	2244.57
866.15	2326.49
866.32	2289.63
866.49	2242.53
866.65	2324.44
866.82	2195.42
866.99	2312.16
867.16	2234.33
867.32	2260.96
867.49	2191.33
867.66	2236.38
867.83	2199.52
867.99	2093.02
868.16	2203.61
868.33	2170.85
868.49	2273.25
868.66	2203.61
868.83	2299.87
868.99	2201.57
869.16	2250.72
869.33	2349.02
869.50	2250.72
869.66	2285.53
869.83	2187.23
870.00	2146.27
870.16	2242.53
870.33	2217.95
870.50	2283.49
870.66	2260.96
870.83	2310.11
871.00	2269.15
871.17	2324.44
871.33	2232.29
871.50	2168.80
871.67	2275.29
871.83	2205.66
872.00	2471.90
872.17	2158.56
872.33	2392.03
872.50	2371.55
872.67	2256.86
872.83	2203.61
873.00	2326.49
873.17	2203.61
873.33	2297.82
873.50	2191.33
873.67	2086.88
873.83	2228.19
874.00	2189.28
874.16	2279.39
874.33	2234.33
874.50	2150.37
874.66	2187.23
874.83	2267.10
875.00	2263.01
875.16	2260.96
875.33	2287.58
875.50	2080.74
875.66	2121.70
875.83	2281.44
875.99	2232.29
876.16	2215.90
876.33	2144.22
876.49	2232.29
876.66	2209.76
876.83	2154.46
876.99	2107.36
877.16	2271.20
877.32	2152.42
877.49	2205.66
877.66	2293.72
877.82	2408.41
877.99	2215.90
878.15	2342.88
878.32	2330.59
878.49	2287.58
878.65	2199.52
878.82	2389.98
878.98	2203.61
879.15	2289.63
879.32	2273.25
879.48	2246.62
879.65	2209.76
879.81	2234.33
879.98	2240.48
880.15	2150.37
880.31	2283.49
880.48	2170.85
880.64	2263.01
880.81	2197.47
880.97	2340.83
881.14	2375.64
881.31	2176.99
881.47	2361.31
881.64	2201.57
881.80	2156.51
881.97	2291.68
882.13	2236.38
882.30	2179.04
882.47	2158.56
882.63	2146.27
882.80	2095.07
882.96	2195.42
883.13	2432.99
883.29	2150.37
883.46	2310.11
883.62	2471.90
883.79	2332.64
883.95	2330.59
884.12	2195.42
884.29	2361.31
884.45	2277.34
884.62	2232.29
884.78	2220.00
884.95	2314.20
885.11	2273.25
885.28	2273.25
885.44	2119.65
885.61	2357.21
885.77	2389.98
885.94	2267.10
886.10	2256.86
886.27	2283.49
886.43	2449.37
886.60	2297.82
886.76	2142.18
886.93	2187.23
887.09	2285.53
887.26	2080.74
887.42	2168.80
887.59	2375.64
887.75	2447.32
887.92	2269.15
888.08	2265.05
888.25	2441.18
888.41	2332.64
888.58	2211.81
888.74	2146.27
888.91	2160.61
>>>>>End Processed Spectral Data<<<<<
