SpectraSuite Data File
++++++++++++++++++++++++++++++++++++
Date: Thu May 05 13:21:00 CEST 2016
User: root
Dark Spectrum Present: No
Reference Spectrum Present: No
Number of Sampled Component Spectra: 1
Spectrometers: USB4C02835
Integration Time (usec): 100000 (USB4C02835)
Spectra Averaged: 1 (USB4C02835)
Boxcar Smoothing: 0 (USB4C02835)
Correct for Electrical Dark: No (USB4C02835)
Strobe/Lamp Enabled: No (USB4C02835)
Correct for Detector Non-linearity: No (USB4C02835)
Correct for Stray Light: No (USB4C02835)
Number of Pixels in Processed Spectrum: 3648
>>>>>Begin Processed Spectral Data<<<<<
177.47	1816.55
177.69	1816.55
177.91	1816.55
178.13	1843.17
178.36	1820.64
178.58	2191.33
178.80	2273.25
179.02	2170.85
179.24	2193.37
179.46	2152.42
179.68	2238.43
179.90	2244.57
180.13	2269.15
180.35	2113.50
180.57	2207.71
180.79	2344.92
181.01	2222.05
181.23	2269.15
181.45	2287.58
181.67	2287.58
181.90	2289.63
182.12	2215.90
182.34	2076.64
182.56	2314.20
182.78	2269.15
183.00	2168.80
183.22	2232.29
183.44	2070.50
183.66	2463.71
183.89	2240.48
184.11	2191.33
184.33	2334.68
184.55	2328.54
184.77	2187.23
184.99	2181.09
185.21	2195.42
185.43	2502.62
185.65	2205.66
185.87	2158.56
186.10	2465.75
186.32	2443.23
186.54	2232.29
186.76	2240.48
186.98	2351.07
187.20	2242.53
187.42	2215.90
187.64	2209.76
187.86	2301.92
188.08	2422.75
188.30	2146.27
188.52	2150.37
188.75	2396.12
188.97	2322.40
189.19	2150.37
189.41	2193.37
189.63	2201.57
189.85	2211.81
190.07	2152.42
190.29	2093.02
190.51	2269.15
190.73	2058.21
190.95	2324.44
191.17	2244.57
191.39	2039.78
191.61	2258.91
191.84	2244.57
192.06	2236.38
192.28	2062.30
192.50	2615.26
192.72	2226.14
192.94	2162.66
193.16	2412.51
193.38	2285.53
193.60	2160.61
193.82	2215.90
194.04	2291.68
194.26	2285.53
194.48	2176.99
194.70	2080.74
194.92	2248.67
195.14	2236.38
195.36	2119.65
195.58	2306.01
195.80	2271.20
196.02	2150.37
196.24	2162.66
196.46	2289.63
196.69	2238.43
196.91	2510.81
197.13	2144.22
197.35	2150.37
197.57	2371.55
197.79	2303.96
198.01	2265.05
198.23	2312.16
198.45	2224.09
198.67	2166.75
198.89	2166.75
199.11	2277.34
199.33	2160.61
199.55	1970.15
199.77	2129.89
199.99	2224.09
200.21	2164.70
200.43	2289.63
200.65	2101.22
200.87	2113.50
201.09	2275.29
201.31	2209.76
201.53	2301.92
201.75	2242.53
201.97	2318.30
202.19	2179.04
202.41	2203.61
202.63	2318.30
202.85	2308.06
203.07	2328.54
203.29	2080.74
203.51	2088.93
203.73	2213.85
203.95	2590.68
204.17	2238.43
204.39	2201.57
204.61	2269.15
204.83	2183.13
205.05	2281.44
205.27	2240.48
205.49	2475.99
205.71	2224.09
205.93	2150.37
206.15	2150.37
206.37	2234.33
206.59	2217.95
206.81	2011.11
207.03	2097.12
207.25	2115.55
207.47	2367.45
207.69	2199.52
207.91	2412.51
208.13	2406.36
208.34	2209.76
208.56	2136.03
208.78	2222.05
209.00	2209.76
209.22	2205.66
209.44	2121.70
209.66	2183.13
209.88	2297.82
210.10	2283.49
210.32	2152.42
210.54	2293.72
210.76	2170.85
210.98	2359.26
211.20	1998.82
211.42	2263.01
211.64	2363.36
211.86	2310.11
212.08	2222.05
212.30	2209.76
212.52	2220.00
212.74	2332.64
212.96	2244.57
213.17	2238.43
213.39	2334.68
213.61	2381.79
213.83	2156.51
214.05	2170.85
214.27	2301.92
214.49	2203.61
214.71	2197.47
214.93	2303.96
215.15	2293.72
215.37	2275.29
215.59	2002.91
215.81	2203.61
216.03	2346.97
216.24	2318.30
216.46	2146.27
216.68	2228.19
216.90	2428.89
217.12	2254.81
217.34	2127.84
217.56	2260.96
217.78	2332.64
218.00	2312.16
218.22	2220.00
218.44	2322.40
218.66	2396.12
218.87	2359.26
219.09	2211.81
219.31	2201.57
219.53	2222.05
219.75	2230.24
219.97	2199.52
220.19	2199.52
220.41	2246.62
220.63	2475.99
220.85	2254.81
221.06	2105.31
221.28	2353.12
221.50	2392.03
221.72	2189.28
221.94	2152.42
222.16	2318.30
222.38	2324.44
222.60	2234.33
222.82	2187.23
223.03	2355.16
223.25	2170.85
223.47	2103.26
223.69	2426.84
223.91	2357.21
224.13	2244.57
224.35	2105.31
224.57	2306.01
224.78	2301.92
225.00	2136.03
225.22	2246.62
225.44	2146.27
225.66	2293.72
225.88	2170.85
226.10	2211.81
226.32	2154.46
226.53	2383.84
226.75	2289.63
226.97	2138.08
227.19	2176.99
227.41	2197.47
227.63	2117.60
227.85	2064.35
228.06	2191.33
228.28	2232.29
228.50	2320.35
228.72	2111.46
228.94	2166.75
229.16	2060.26
229.37	2142.18
229.59	2072.54
229.81	2318.30
230.03	2207.71
230.25	2086.88
230.47	2019.30
230.69	2156.51
230.90	2361.31
231.12	2129.89
231.34	2144.22
231.56	2203.61
231.78	2146.27
232.00	2248.67
232.21	2127.84
232.43	2166.75
232.65	2021.35
232.87	2301.92
233.09	2088.93
233.30	2111.46
233.52	2361.31
233.74	2199.52
233.96	2199.52
234.18	2277.34
234.40	2209.76
234.61	2506.71
234.83	2215.90
235.05	2076.64
235.27	2508.76
235.49	2406.36
235.70	2181.09
235.92	2254.81
236.14	2236.38
236.36	2600.92
236.58	2060.26
236.79	2246.62
237.01	2224.09
237.23	2176.99
237.45	2346.97
237.67	2170.85
237.88	2310.11
238.10	2410.46
238.32	2047.97
238.54	2193.37
238.76	2318.30
238.97	2144.22
239.19	2166.75
239.41	2222.05
239.63	2430.94
239.85	2166.75
240.06	2164.70
240.28	2099.17
240.50	2332.64
240.72	2279.39
240.93	2185.18
241.15	2258.91
241.37	2254.81
241.59	2457.56
241.81	2185.18
242.02	2174.94
242.24	2236.38
242.46	2349.02
242.68	2095.07
242.89	2166.75
243.11	2383.84
243.33	2289.63
243.55	2205.66
243.76	2277.34
243.98	2160.61
244.20	2240.48
244.42	2111.46
244.64	2228.19
244.85	2162.66
245.07	2285.53
245.29	2269.15
245.51	2211.81
245.72	2211.81
245.94	2250.72
246.16	2162.66
246.38	2244.57
246.59	2191.33
246.81	2101.22
247.03	2176.99
247.24	2127.84
247.46	2283.49
247.68	2301.92
247.90	2203.61
248.11	2125.79
248.33	2303.96
248.55	2254.81
248.77	2187.23
248.98	2226.14
249.20	2369.50
249.42	2297.82
249.64	2146.27
249.85	2209.76
250.07	2205.66
250.29	2260.96
250.50	2199.52
250.72	2148.32
250.94	2365.40
251.16	2449.37
251.37	2199.52
251.59	2207.71
251.81	2234.33
252.02	2379.74
252.24	2174.94
252.46	2293.72
252.68	2205.66
252.89	2125.79
253.11	2029.54
253.33	2244.57
253.54	2332.64
253.76	2160.61
253.98	2142.18
254.20	2105.31
254.41	2056.16
254.63	2265.05
254.85	2072.54
255.06	2144.22
255.28	2246.62
255.50	2248.67
255.71	2168.80
255.93	2080.74
256.15	2193.37
256.36	2310.11
256.58	2113.50
256.80	2187.23
257.02	2240.48
257.23	2232.29
257.45	2121.70
257.67	2260.96
257.88	2133.98
258.10	2244.57
258.32	2164.70
258.53	2232.29
258.75	2461.66
258.97	2152.42
259.18	2201.57
259.40	2148.32
259.62	2387.93
259.83	2379.74
260.05	2248.67
260.27	2670.55
260.48	2365.40
260.70	2148.32
260.92	2154.46
261.13	2187.23
261.35	2269.15
261.57	2248.67
261.78	2109.41
262.00	2127.84
262.22	2318.30
262.43	2226.14
262.65	2226.14
262.86	2193.37
263.08	2432.99
263.30	2234.33
263.51	2095.07
263.73	2170.85
263.95	2428.89
264.16	2164.70
264.38	2142.18
264.60	2086.88
264.81	2252.77
265.03	2318.30
265.25	2316.25
265.46	2154.46
265.68	2396.12
265.89	2351.07
266.11	2154.46
266.33	2222.05
266.54	2410.46
266.76	2330.59
266.98	2267.10
267.19	2324.44
267.41	2351.07
267.62	2293.72
267.84	2068.45
268.06	2283.49
268.27	2285.53
268.49	2359.26
268.70	2203.61
268.92	2101.22
269.14	2113.50
269.35	2176.99
269.57	2238.43
269.79	2244.57
270.00	2224.09
270.22	2394.08
270.43	2066.40
270.65	2070.50
270.87	2226.14
271.08	2332.64
271.30	2230.24
271.51	2181.09
271.73	2277.34
271.95	2291.68
272.16	2226.14
272.38	2238.43
272.59	2156.51
272.81	2316.25
273.02	2166.75
273.24	2146.27
273.46	2383.84
273.67	2201.57
273.89	2131.94
274.10	2119.65
274.32	2342.88
274.54	2246.62
274.75	2244.57
274.97	2189.28
275.18	2355.16
275.40	2297.82
275.61	2224.09
275.83	2230.24
276.05	2162.66
276.26	2279.39
276.48	2195.42
276.69	2109.41
276.91	2203.61
277.12	2369.50
277.34	2289.63
277.55	2283.49
277.77	2306.01
277.99	2205.66
278.20	2142.18
278.42	2129.89
278.63	2195.42
278.85	2068.45
279.06	2125.79
279.28	2310.11
279.49	2295.77
279.71	2338.78
279.93	2301.92
280.14	2285.53
280.36	2230.24
280.57	2242.53
280.79	2318.30
281.00	2144.22
281.22	2121.70
281.43	2344.92
281.65	2017.25
281.86	2136.03
282.08	2283.49
282.29	2504.67
282.51	2074.59
282.73	2156.51
282.94	2129.89
283.16	2353.12
283.37	2404.32
283.59	2265.05
283.80	2271.20
284.02	2101.22
284.23	2203.61
284.45	2168.80
284.66	2150.37
284.88	2183.13
285.09	2250.72
285.31	2256.86
285.52	2258.91
285.74	2013.15
285.95	2289.63
286.17	2244.57
286.38	2371.55
286.60	2234.33
286.81	2203.61
287.03	2195.42
287.24	2228.19
287.46	2295.77
287.67	2281.44
287.89	2367.45
288.10	2287.58
288.32	2269.15
288.53	2367.45
288.75	2281.44
288.96	2365.40
289.18	2220.00
289.39	2185.18
289.61	2310.11
289.82	2494.43
290.04	2551.77
290.25	2160.61
290.47	2260.96
290.68	2197.47
290.90	2361.31
291.11	2105.31
291.33	2295.77
291.54	2146.27
291.76	2113.50
291.97	2201.57
292.18	2250.72
292.40	2185.18
292.61	2187.23
292.83	2392.03
293.04	2236.38
293.26	2281.44
293.47	2213.85
293.69	2119.65
293.90	2263.01
294.12	2365.40
294.33	2238.43
294.55	2244.57
294.76	2340.83
294.97	2437.08
295.19	2478.04
295.40	2154.46
295.62	2283.49
295.83	2324.44
296.05	2166.75
296.26	2265.05
296.48	2211.81
296.69	2203.61
296.90	2279.39
297.12	2285.53
297.33	2318.30
297.55	2226.14
297.76	2275.29
297.98	2260.96
298.19	2244.57
298.41	2301.92
298.62	2095.07
298.83	2314.20
299.05	2252.77
299.26	2187.23
299.48	2148.32
299.69	2236.38
299.90	2217.95
300.12	2187.23
300.33	2260.96
300.55	2301.92
300.76	2217.95
300.98	2179.04
301.19	2340.83
301.40	2244.57
301.62	2193.37
301.83	2303.96
302.05	2289.63
302.26	2203.61
302.47	2291.68
302.69	2191.33
302.90	2381.79
303.12	2105.31
303.33	2275.29
303.54	2459.61
303.76	2238.43
303.97	2248.67
304.19	2310.11
304.40	2195.42
304.61	2267.10
304.83	2340.83
305.04	2332.64
305.26	2283.49
305.47	2277.34
305.68	2269.15
305.90	2090.98
306.11	2342.88
306.33	2220.00
306.54	2176.99
306.75	2172.89
306.97	2158.56
307.18	2162.66
307.39	2191.33
307.61	2306.01
307.82	2176.99
308.04	2349.02
308.25	2166.75
308.46	2260.96
308.68	2254.81
308.89	2244.57
309.10	2357.21
309.32	2244.57
309.53	2199.52
309.74	2242.53
309.96	2156.51
310.17	2285.53
310.39	2269.15
310.60	2250.72
310.81	2277.34
311.03	2109.41
311.24	2277.34
311.45	2303.96
311.67	2449.37
311.88	2240.48
312.09	2236.38
312.31	2254.81
312.52	2187.23
312.73	2162.66
312.95	2068.45
313.16	2162.66
313.37	2367.45
313.59	2260.96
313.80	2353.12
314.01	2355.16
314.23	2224.09
314.44	2146.27
314.65	2201.57
314.87	2166.75
315.08	2172.89
315.29	2207.71
315.51	2234.33
315.72	2097.12
315.93	2342.88
316.15	2287.58
316.36	2193.37
316.57	2291.68
316.79	2209.76
317.00	2105.31
317.21	2332.64
317.43	2222.05
317.64	2172.89
317.85	2064.35
318.07	2230.24
318.28	2244.57
318.49	2377.69
318.70	2539.48
318.92	2379.74
319.13	2465.75
319.34	2453.47
319.56	2275.29
319.77	2443.23
319.98	2396.12
320.20	2402.27
320.41	2306.01
320.62	2285.53
320.83	2269.15
321.05	2471.90
321.26	2252.77
321.47	2199.52
321.69	2396.12
321.90	2160.61
322.11	2187.23
322.32	2306.01
322.54	2432.99
322.75	2179.04
322.96	2500.57
323.18	2056.16
323.39	2136.03
323.60	2168.80
323.81	2285.53
324.03	2207.71
324.24	2248.67
324.45	2322.40
324.66	2201.57
324.88	2381.79
325.09	2389.98
325.30	2193.37
325.52	2201.57
325.73	2342.88
325.94	2170.85
326.15	2172.89
326.37	2121.70
326.58	2371.55
326.79	2263.01
327.00	2213.85
327.22	2189.28
327.43	2176.99
327.64	2129.89
327.85	2199.52
328.07	2215.90
328.28	2453.47
328.49	2234.33
328.70	2228.19
328.92	2199.52
329.13	2226.14
329.34	2355.16
329.55	2475.99
329.76	2310.11
329.98	2271.20
330.19	2361.31
330.40	2226.14
330.61	2310.11
330.83	2301.92
331.04	2105.31
331.25	2267.10
331.46	2289.63
331.68	2146.27
331.89	2400.22
332.10	2197.47
332.31	2156.51
332.52	2265.05
332.74	2459.61
332.95	2136.03
333.16	2248.67
333.37	2316.25
333.58	2174.94
333.80	2220.00
334.01	2072.54
334.22	2269.15
334.43	2195.42
334.64	2203.61
334.86	2133.98
335.07	2146.27
335.28	2346.97
335.49	2095.07
335.70	2271.20
335.92	2353.12
336.13	2428.89
336.34	2308.06
336.55	2213.85
336.76	2234.33
336.98	2062.30
337.19	2236.38
337.40	2338.78
337.61	2461.66
337.82	2228.19
338.04	2250.72
338.25	2060.26
338.46	2230.24
338.67	2215.90
338.88	2154.46
339.09	2107.36
339.31	2105.31
339.52	2078.69
339.73	2115.55
339.94	2318.30
340.15	2357.21
340.36	2189.28
340.58	2211.81
340.79	2086.88
341.00	2340.83
341.21	2121.70
341.42	2383.84
341.63	2213.85
341.85	2340.83
342.06	2281.44
342.27	2150.37
342.48	2297.82
342.69	2146.27
342.90	2322.40
343.12	2383.84
343.33	2191.33
343.54	2330.59
343.75	2426.84
343.96	2271.20
344.17	2174.94
344.38	2248.67
344.60	2158.56
344.81	2097.12
345.02	2125.79
345.23	2322.40
345.44	2471.90
345.65	2322.40
345.86	2183.13
346.07	2316.25
346.29	2191.33
346.50	2269.15
346.71	2265.05
346.92	2326.49
347.13	2504.67
347.34	2211.81
347.55	2254.81
347.76	2320.35
347.98	2125.79
348.19	2314.20
348.40	2359.26
348.61	2267.10
348.82	2441.18
349.03	2240.48
349.24	2197.47
349.45	2455.51
349.66	2115.55
349.88	2250.72
350.09	2164.70
350.30	2392.03
350.51	2447.32
350.72	2293.72
350.93	2205.66
351.14	2172.89
351.35	2346.97
351.56	2273.25
351.77	2220.00
351.99	2334.68
352.20	2418.65
352.41	2363.36
352.62	2136.03
352.83	2183.13
353.04	2217.95
353.25	2211.81
353.46	2340.83
353.67	2408.41
353.88	2076.64
354.09	2242.53
354.30	2224.09
354.52	2308.06
354.73	2232.29
354.94	2236.38
355.15	2226.14
355.36	2492.38
355.57	2254.81
355.78	2238.43
355.99	2156.51
356.20	2197.47
356.41	2396.12
356.62	2277.34
356.83	2150.37
357.04	2387.93
357.25	2068.45
357.46	2146.27
357.68	2078.69
357.89	2152.42
358.10	2263.01
358.31	2160.61
358.52	2248.67
358.73	2148.32
358.94	2107.36
359.15	2230.24
359.36	2265.05
359.57	2289.63
359.78	2289.63
359.99	2363.36
360.20	2170.85
360.41	2179.04
360.62	2330.59
360.83	2273.25
361.04	2121.70
361.25	2299.87
361.46	2465.75
361.67	2308.06
361.88	2232.29
362.09	2408.41
362.30	2359.26
362.51	2220.00
362.72	2265.05
362.93	2318.30
363.14	2306.01
363.35	2283.49
363.56	2187.23
363.78	2400.22
363.99	2379.74
364.20	2113.50
364.41	2265.05
364.62	2416.60
364.83	2306.01
365.04	2230.24
365.25	2207.71
365.46	2510.81
365.67	2197.47
365.88	2172.89
366.09	2162.66
366.30	2226.14
366.51	2258.91
366.72	2052.06
366.93	2176.99
367.14	2297.82
367.35	2310.11
367.56	2162.66
367.77	2357.21
367.98	2242.53
368.18	2277.34
368.39	2265.05
368.60	2160.61
368.81	2271.20
369.02	2404.32
369.23	2244.57
369.44	2004.96
369.65	2174.94
369.86	2326.49
370.07	2312.16
370.28	2209.76
370.49	2265.05
370.70	2263.01
370.91	2052.06
371.12	2097.12
371.33	2385.88
371.54	2205.66
371.75	2381.79
371.96	2047.97
372.17	2308.06
372.38	2189.28
372.59	2236.38
372.80	2222.05
373.01	2363.36
373.22	2297.82
373.43	2244.57
373.64	2189.28
373.85	2330.59
374.06	2441.18
374.26	2406.36
374.47	2308.06
374.68	2435.03
374.89	2330.59
375.10	2162.66
375.31	2375.64
375.52	2308.06
375.73	2234.33
375.94	2103.26
376.15	2344.92
376.36	2138.08
376.57	2211.81
376.78	2203.61
376.99	2293.72
377.20	2377.69
377.40	2230.24
377.61	2365.40
377.82	2119.65
378.03	2416.60
378.24	2207.71
378.45	2248.67
378.66	2260.96
378.87	2095.07
379.08	2080.74
379.29	2162.66
379.50	2443.23
379.71	2150.37
379.91	2273.25
380.12	2164.70
380.33	2256.86
380.54	2199.52
380.75	2265.05
380.96	2252.77
381.17	2279.39
381.38	2252.77
381.59	2303.96
381.80	2191.33
382.00	2428.89
382.21	2244.57
382.42	2424.80
382.63	2406.36
382.84	2287.58
383.05	2385.88
383.26	2453.47
383.47	2322.40
383.68	2230.24
383.88	2277.34
384.09	2293.72
384.30	2402.27
384.51	2263.01
384.72	2277.34
384.93	2129.89
385.14	2281.44
385.35	2379.74
385.55	2127.84
385.76	2381.79
385.97	2287.58
386.18	2131.94
386.39	2144.22
386.60	2197.47
386.81	2166.75
387.02	2093.02
387.22	2148.32
387.43	2349.02
387.64	2312.16
387.85	2441.18
388.06	2580.44
388.27	3962.82
388.48	8157.06
388.68	11689.81
388.89	13858.60
389.10	14792.48
389.31	13682.48
389.52	10884.95
389.73	9359.22
389.93	8521.60
390.14	7774.09
390.35	7014.29
390.56	6297.50
390.77	5181.36
390.98	4036.55
391.18	3295.18
391.39	2764.76
391.60	2412.51
391.81	2430.94
392.02	2123.74
392.23	2445.27
392.43	2324.44
392.64	2432.99
392.85	2287.58
393.06	2375.64
393.27	2240.48
393.47	2187.23
393.68	2334.68
393.89	2260.96
394.10	2432.99
394.31	2258.91
394.52	2156.51
394.72	2152.42
394.93	2408.41
395.14	2148.32
395.35	2269.15
395.56	2265.05
395.76	2271.20
395.97	2252.77
396.18	2357.21
396.39	2371.55
396.60	2736.09
396.80	2439.13
397.01	2392.03
397.22	2396.12
397.43	2508.76
397.64	2265.05
397.84	2355.16
398.05	2537.43
398.26	2260.96
398.47	2367.45
398.67	2410.46
398.88	2252.77
399.09	2310.11
399.30	2174.94
399.51	2314.20
399.71	2101.22
399.92	2308.06
400.13	2324.44
400.34	2222.05
400.54	2267.10
400.75	2443.23
400.96	2277.34
401.17	2383.84
401.37	2369.50
401.58	2230.24
401.79	2277.34
402.00	2398.17
402.21	2684.89
402.41	2605.02
402.62	2584.54
402.83	2668.50
403.04	2736.09
403.24	2783.19
403.45	2312.16
403.66	2394.08
403.87	2461.66
404.07	2457.56
404.28	2455.51
404.49	2523.10
404.70	2361.31
404.90	2392.03
405.11	2258.91
405.32	2328.54
405.52	2183.13
405.73	2222.05
405.94	2107.36
406.15	2211.81
406.35	2287.58
406.56	2176.99
406.77	2267.10
406.98	2353.12
407.18	2113.50
407.39	2361.31
407.60	2258.91
407.80	2330.59
408.01	2179.04
408.22	2361.31
408.43	2179.04
408.63	2355.16
408.84	2322.40
409.05	2316.25
409.25	2152.42
409.46	2156.51
409.67	2131.94
409.88	2205.66
410.08	2318.30
410.29	2170.85
410.50	2324.44
410.70	2269.15
410.91	2187.23
411.12	2328.54
411.32	2263.01
411.53	2236.38
411.74	2316.25
411.95	2316.25
412.15	2365.40
412.36	2363.36
412.57	2324.44
412.77	2453.47
412.98	2287.58
413.19	2244.57
413.39	2322.40
413.60	2260.96
413.81	2351.07
414.01	2228.19
414.22	2260.96
414.43	2293.72
414.63	2275.29
414.84	2342.88
415.05	2256.86
415.25	2039.78
415.46	2359.26
415.67	2164.70
415.87	2234.33
416.08	2277.34
416.29	2228.19
416.49	2316.25
416.70	2232.29
416.91	2258.91
417.11	2226.14
417.32	2336.73
417.53	2371.55
417.73	2273.25
417.94	2179.04
418.15	2238.43
418.35	2301.92
418.56	2279.39
418.77	2437.08
418.97	2199.52
419.18	2301.92
419.38	2009.06
419.59	2273.25
419.80	2484.19
420.00	2228.19
420.21	2258.91
420.42	2346.97
420.62	2301.92
420.83	2152.42
421.04	2230.24
421.24	2244.57
421.45	2351.07
421.65	2254.81
421.86	2224.09
422.07	2398.17
422.27	2269.15
422.48	2217.95
422.69	2179.04
422.89	2248.67
423.10	2260.96
423.30	2088.93
423.51	2283.49
423.72	2342.88
423.92	2340.83
424.13	2105.31
424.33	2228.19
424.54	2383.84
424.75	2254.81
424.95	2330.59
425.16	2209.76
425.36	2179.04
425.57	2379.74
425.78	2301.92
425.98	2351.07
426.19	2195.42
426.39	2113.50
426.60	2211.81
426.81	2336.73
427.01	2287.58
427.22	2170.85
427.42	2101.22
427.63	2111.46
427.83	2389.98
428.04	2387.93
428.25	2332.64
428.45	2408.41
428.66	2295.77
428.86	2277.34
429.07	2215.90
429.28	2203.61
429.48	2148.32
429.69	2226.14
429.89	2316.25
430.10	2133.98
430.30	2379.74
430.51	2326.49
430.71	2187.23
430.92	2250.72
431.13	2138.08
431.33	2389.98
431.54	2254.81
431.74	2416.60
431.95	2430.94
432.15	2166.75
432.36	2246.62
432.56	2310.11
432.77	2447.32
432.98	2465.75
433.18	2295.77
433.39	2226.14
433.59	2215.90
433.80	2379.74
434.00	2514.91
434.21	2220.00
434.41	2174.94
434.62	2449.37
434.82	2185.18
435.03	2144.22
435.23	2342.88
435.44	2031.58
435.64	2215.90
435.85	2224.09
436.06	2396.12
436.26	2422.75
436.47	2209.76
436.67	2211.81
436.88	2310.11
437.08	2303.96
437.29	2418.65
437.49	2351.07
437.70	2492.38
437.90	2185.18
438.11	2412.51
438.31	2314.20
438.52	2512.86
438.72	2451.42
438.93	2578.39
439.13	2295.77
439.34	2383.84
439.54	2324.44
439.75	2355.16
439.95	2291.68
440.16	2256.86
440.36	2217.95
440.57	2281.44
440.77	2256.86
440.98	2260.96
441.18	2293.72
441.39	2248.67
441.59	2103.26
441.80	2521.05
442.00	2301.92
442.21	2340.83
442.41	2103.26
442.62	2367.45
442.82	2271.20
443.02	2220.00
443.23	2301.92
443.43	2222.05
443.64	2414.56
443.84	2230.24
444.05	2437.08
444.25	2306.01
444.46	2242.53
444.66	2199.52
444.87	2428.89
445.07	2154.46
445.28	2211.81
445.48	2387.93
445.69	2338.78
445.89	2478.04
446.09	2152.42
446.30	2502.62
446.50	2916.31
446.71	4409.28
446.91	5447.60
447.12	6274.98
447.32	6709.15
447.53	6145.95
447.73	5124.02
447.93	4534.20
448.14	4220.86
448.34	4028.35
448.55	3557.32
448.75	3620.81
448.96	3405.77
449.16	3047.38
449.36	2818.00
449.57	2557.91
449.77	2344.92
449.98	2195.42
450.18	2381.79
450.39	2344.92
450.59	2340.83
450.79	2320.35
451.00	2160.61
451.20	2334.68
451.41	2230.24
451.61	2310.11
451.81	2377.69
452.02	2193.37
452.22	2236.38
452.43	2197.47
452.63	2258.91
452.84	2252.77
453.04	2193.37
453.24	2301.92
453.45	2176.99
453.65	2242.53
453.86	2336.73
454.06	2316.25
454.26	2301.92
454.47	2201.57
454.67	2326.49
454.87	2267.10
455.08	2222.05
455.28	2422.75
455.49	2265.05
455.69	2195.42
455.89	2523.10
456.10	2392.03
456.30	2240.48
456.51	2250.72
456.71	2293.72
456.91	2318.30
457.12	2277.34
457.32	2344.92
457.52	2275.29
457.73	2324.44
457.93	2359.26
458.14	2160.61
458.34	2187.23
458.54	2269.15
458.75	2236.38
458.95	2389.98
459.15	2246.62
459.36	2209.76
459.56	2428.89
459.76	2473.95
459.97	2326.49
460.17	2240.48
460.37	2314.20
460.58	2183.13
460.78	2346.97
460.99	2234.33
461.19	2265.05
461.39	2183.13
461.60	2293.72
461.80	2387.93
462.00	2146.27
462.21	2306.01
462.41	2146.27
462.61	2160.61
462.82	2105.31
463.02	2330.59
463.22	2332.64
463.43	2353.12
463.63	2228.19
463.83	2459.61
464.04	2373.60
464.24	2226.14
464.44	2140.13
464.64	2269.15
464.85	2398.17
465.05	2424.80
465.25	2275.29
465.46	2185.18
465.66	2326.49
465.86	2326.49
466.07	2260.96
466.27	2250.72
466.47	2146.27
466.68	2111.46
466.88	2389.98
467.08	2267.10
467.29	2412.51
467.49	2283.49
467.69	2224.09
467.89	2291.68
468.10	2244.57
468.30	2228.19
468.50	2385.88
468.71	2392.03
468.91	2232.29
469.11	2437.08
469.31	2260.96
469.52	2199.52
469.72	2406.36
469.92	2482.14
470.13	2209.76
470.33	2195.42
470.53	2369.50
470.73	2641.88
470.94	2957.27
471.14	3094.48
471.34	3534.79
471.54	3434.44
471.75	3069.91
471.95	2805.72
472.15	2785.24
472.36	2840.53
472.56	2752.47
472.76	2674.65
472.96	2635.74
473.17	2508.76
473.37	2539.48
473.57	2326.49
473.77	2377.69
473.98	2252.77
474.18	2187.23
474.38	2545.63
474.58	2209.76
474.79	2179.04
474.99	2346.97
475.19	2416.60
475.39	2146.27
475.60	2281.44
475.80	2375.64
476.00	2211.81
476.20	2228.19
476.41	2275.29
476.61	2314.20
476.81	2506.71
477.01	2154.46
477.21	2455.51
477.42	2367.45
477.62	2185.18
477.82	2404.32
478.02	2195.42
478.23	2375.64
478.43	2166.75
478.63	2267.10
478.83	2232.29
479.03	2228.19
479.24	2381.79
479.44	2461.66
479.64	2162.66
479.84	2138.08
480.04	2205.66
480.25	2334.68
480.45	2138.08
480.65	2260.96
480.85	2418.65
481.06	2224.09
481.26	2285.53
481.46	2256.86
481.66	2349.02
481.86	2138.08
482.06	2381.79
482.27	2236.38
482.47	2240.48
482.67	2256.86
482.87	2289.63
483.07	2283.49
483.28	2258.91
483.48	2148.32
483.68	2246.62
483.88	2234.33
484.08	2133.98
484.29	2201.57
484.49	2289.63
484.69	2136.03
484.89	2449.37
485.09	2385.88
485.29	2303.96
485.50	2385.88
485.70	2281.44
485.90	2373.60
486.10	2291.68
486.30	2217.95
486.50	2439.13
486.71	2330.59
486.91	2412.51
487.11	2308.06
487.31	2176.99
487.51	2260.96
487.71	2203.61
487.91	2125.79
488.12	2117.60
488.32	2111.46
488.52	2166.75
488.72	2133.98
488.92	2303.96
489.12	2367.45
489.32	2301.92
489.53	2326.49
489.73	2101.22
489.93	2445.27
490.13	2152.42
490.33	2082.78
490.53	2287.58
490.73	2408.41
490.94	2156.51
491.14	2267.10
491.34	2377.69
491.54	2547.67
491.74	3176.40
491.94	3729.35
492.14	4050.88
492.34	4145.09
492.54	3827.65
492.75	3282.89
492.95	3211.22
493.15	2994.13
493.35	2916.31
493.55	2848.72
493.75	2770.90
493.95	2709.46
494.15	2625.50
494.35	2441.18
494.56	2287.58
494.76	2267.10
494.96	2359.26
495.16	2281.44
495.36	2234.33
495.56	2258.91
495.76	2271.20
495.96	2234.33
496.16	2228.19
496.36	2486.23
496.56	2172.89
496.77	2338.78
496.97	2197.47
497.17	2416.60
497.37	2172.89
497.57	2330.59
497.77	2320.35
497.97	2191.33
498.17	2201.57
498.37	2201.57
498.57	2346.97
498.77	2256.86
498.97	2371.55
499.17	2455.51
499.38	2228.19
499.58	2293.72
499.78	2351.07
499.98	2406.36
500.18	2211.81
500.38	2252.77
500.58	2465.75
500.78	2908.12
500.98	5058.48
501.18	6913.94
501.38	8820.60
501.58	9699.18
501.78	9529.20
501.98	7616.40
502.18	6297.50
502.38	5509.04
502.58	5105.59
502.78	4612.03
502.98	4388.80
503.18	4294.59
503.38	3866.56
503.59	3293.13
503.79	3192.78
503.99	3012.56
504.19	2772.95
504.39	2781.14
504.59	2822.10
504.79	2748.37
504.99	2834.39
505.19	2645.98
505.39	2549.72
505.59	2578.39
505.79	2506.71
505.99	2494.43
506.19	2297.82
506.39	2465.75
506.59	2170.85
506.79	2275.29
506.99	2426.84
507.19	2306.01
507.39	2217.95
507.59	2080.74
507.79	2217.95
507.99	2207.71
508.19	2316.25
508.39	2260.96
508.59	2281.44
508.79	2293.72
508.99	2426.84
509.19	2183.13
509.39	2312.16
509.59	2154.46
509.79	2162.66
509.99	2287.58
510.19	2385.88
510.39	2289.63
510.59	2293.72
510.79	2189.28
510.99	2127.84
511.19	2293.72
511.39	2492.38
511.59	2402.27
511.79	2359.26
511.99	2310.11
512.19	2392.03
512.38	2318.30
512.58	2174.94
512.78	2265.05
512.98	2381.79
513.18	2441.18
513.38	2189.28
513.58	2306.01
513.78	2179.04
513.98	2220.00
514.18	2279.39
514.38	2195.42
514.58	2330.59
514.78	2226.14
514.98	2189.28
515.18	2179.04
515.38	2179.04
515.58	2402.27
515.78	2269.15
515.98	2185.18
516.18	2326.49
516.38	2250.72
516.57	2322.40
516.77	2193.37
516.97	2320.35
517.17	2258.91
517.37	2097.12
517.57	2349.02
517.77	2351.07
517.97	2197.47
518.17	2389.98
518.37	2213.85
518.57	2154.46
518.77	2277.34
518.97	2271.20
519.16	2320.35
519.36	2392.03
519.56	2176.99
519.76	2285.53
519.96	2267.10
520.16	2414.56
520.36	2256.86
520.56	2334.68
520.76	2195.42
520.96	2170.85
521.16	2351.07
521.35	2357.21
521.55	2381.79
521.75	2248.67
521.95	2328.54
522.15	2176.99
522.35	2103.26
522.55	2197.47
522.75	2312.16
522.95	2215.90
523.14	2129.89
523.34	2308.06
523.54	2213.85
523.74	2297.82
523.94	2244.57
524.14	2117.60
524.34	2355.16
524.54	2426.84
524.73	2283.49
524.93	2310.11
525.13	2260.96
525.33	2133.98
525.53	2422.75
525.73	2365.40
525.93	2328.54
526.13	2166.75
526.32	2187.23
526.52	2334.68
526.72	2349.02
526.92	2271.20
527.12	2166.75
527.32	2166.75
527.52	2359.26
527.71	2322.40
527.91	2265.05
528.11	2205.66
528.31	2277.34
528.51	2246.62
528.71	2377.69
528.90	2301.92
529.10	2406.36
529.30	2396.12
529.50	2078.69
529.70	2351.07
529.90	2256.86
530.09	2306.01
530.29	2113.50
530.49	2162.66
530.69	2453.47
530.89	2332.64
531.09	2359.26
531.28	2267.10
531.48	2367.45
531.68	2263.01
531.88	2293.72
532.08	2389.98
532.28	2244.57
532.47	2326.49
532.67	2365.40
532.87	2404.32
533.07	2230.24
533.27	2334.68
533.46	2400.22
533.66	2232.29
533.86	2324.44
534.06	2334.68
534.26	2340.83
534.45	2252.77
534.65	2437.08
534.85	2252.77
535.05	2213.85
535.25	2293.72
535.44	2093.02
535.64	2330.59
535.84	2191.33
536.04	2242.53
536.24	2179.04
536.43	2226.14
536.63	2283.49
536.83	2332.64
537.03	2252.77
537.22	2115.55
537.42	2142.18
537.62	2238.43
537.82	2211.81
538.02	2392.03
538.21	2394.08
538.41	2625.50
538.61	2318.30
538.81	2277.34
539.00	2338.78
539.20	2115.55
539.40	2244.57
539.60	2252.77
539.79	2336.73
539.99	2273.25
540.19	2195.42
540.39	2242.53
540.58	2207.71
540.78	2392.03
540.98	2269.15
541.18	2392.03
541.37	2275.29
541.57	2303.96
541.77	2269.15
541.97	2207.71
542.16	2144.22
542.36	2269.15
542.56	2220.00
542.76	2414.56
542.95	2301.92
543.15	2346.97
543.35	2365.40
543.54	2146.27
543.74	2197.47
543.94	2310.11
544.14	2127.84
544.33	2367.45
544.53	2269.15
544.73	2299.87
544.93	2240.48
545.12	2250.72
545.32	2260.96
545.52	2234.33
545.71	2162.66
545.91	2283.49
546.11	2179.04
546.30	2152.42
546.50	2162.66
546.70	2324.44
546.90	2213.85
547.09	2136.03
547.29	2330.59
547.49	2289.63
547.68	2312.16
547.88	2258.91
548.08	2342.88
548.27	2727.89
548.47	2158.56
548.67	2181.09
548.87	2332.64
549.06	2314.20
549.26	2246.62
549.46	2342.88
549.65	2179.04
549.85	2260.96
550.05	2242.53
550.24	2062.30
550.44	2232.29
550.64	2316.25
550.83	2285.53
551.03	2412.51
551.23	2400.22
551.42	2289.63
551.62	2168.80
551.82	2277.34
552.01	2242.53
552.21	2338.78
552.41	2283.49
552.60	2492.38
552.80	2287.58
553.00	2193.37
553.19	2297.82
553.39	2420.70
553.59	2125.79
553.78	2359.26
553.98	2299.87
554.17	2185.18
554.37	2299.87
554.57	2269.15
554.76	2160.61
554.96	2236.38
555.16	2330.59
555.35	2281.44
555.55	2269.15
555.75	2310.11
555.94	2359.26
556.14	2199.52
556.33	2389.98
556.53	2285.53
556.73	2250.72
556.92	2312.16
557.12	2332.64
557.32	2525.15
557.51	2328.54
557.71	2303.96
557.90	2449.37
558.10	2377.69
558.30	2230.24
558.49	2203.61
558.69	2236.38
558.88	2256.86
559.08	2303.96
559.28	2209.76
559.47	2346.97
559.67	2277.34
559.86	2539.48
560.06	2293.72
560.26	2260.96
560.45	2287.58
560.65	2271.20
560.84	2269.15
561.04	2201.57
561.24	2432.99
561.43	2133.98
561.63	2416.60
561.82	2269.15
562.02	2340.83
562.22	2203.61
562.41	2174.94
562.61	2220.00
562.80	2129.89
563.00	2504.67
563.19	2310.11
563.39	2256.86
563.59	2330.59
563.78	2129.89
563.98	2111.46
564.17	2144.22
564.37	2228.19
564.56	2191.33
564.76	2207.71
564.96	2416.60
565.15	2306.01
565.35	2498.52
565.54	2189.28
565.74	2254.81
565.93	2346.97
566.13	2203.61
566.32	2260.96
566.52	2387.93
566.71	2293.72
566.91	2355.16
567.11	2381.79
567.30	2203.61
567.50	2334.68
567.69	2226.14
567.89	2342.88
568.08	2193.37
568.28	2342.88
568.47	2179.04
568.67	2346.97
568.86	2244.57
569.06	2310.11
569.25	2238.43
569.45	2136.03
569.64	2158.56
569.84	2205.66
570.04	2310.11
570.23	2250.72
570.43	2326.49
570.62	2289.63
570.82	2355.16
571.01	2072.54
571.21	2260.96
571.40	2310.11
571.60	2412.51
571.79	2217.95
571.99	2267.10
572.18	2193.37
572.38	2320.35
572.57	2269.15
572.77	2381.79
572.96	2568.15
573.16	2306.01
573.35	2269.15
573.55	2371.55
573.74	2275.29
573.94	2236.38
574.13	2234.33
574.33	2480.09
574.52	2383.84
574.71	2256.86
574.91	2379.74
575.10	2136.03
575.30	2220.00
575.49	2152.42
575.69	2170.85
575.88	2355.16
576.08	2299.87
576.27	2447.32
576.47	2355.16
576.66	2422.75
576.86	2437.08
577.05	2334.68
577.25	2373.60
577.44	2521.05
577.64	2236.38
577.83	2422.75
578.02	2201.57
578.22	2412.51
578.41	2467.80
578.61	2256.86
578.80	2179.04
579.00	2334.68
579.19	2303.96
579.39	2299.87
579.58	2373.60
579.77	2308.06
579.97	2357.21
580.16	2400.22
580.36	2389.98
580.55	2359.26
580.75	2338.78
580.94	2299.87
581.13	2396.12
581.33	2404.32
581.52	2312.16
581.72	2424.80
581.91	2400.22
582.11	2248.67
582.30	2351.07
582.49	2314.20
582.69	2523.10
582.88	2326.49
583.08	2396.12
583.27	2422.75
583.47	2301.92
583.66	2252.77
583.85	2197.47
584.05	2285.53
584.24	2351.07
584.44	2365.40
584.63	2422.75
584.82	2453.47
585.02	2469.85
585.21	2402.27
585.41	2439.13
585.60	2424.80
585.79	2496.47
585.99	2523.10
586.18	2389.98
586.37	2914.26
586.57	4562.87
586.76	13662.00
586.96	32820.75
587.15	46198.08
587.34	55432.37
587.54	60658.79
587.73	55622.83
587.93	39024.04
588.12	30115.38
588.31	24086.16
588.51	20825.79
588.70	19140.32
588.89	17338.10
589.09	15030.04
589.28	12889.92
589.47	10389.35
589.67	8236.93
589.86	6535.07
590.06	4745.14
590.25	3854.28
590.44	3252.17
590.64	2777.05
590.83	2643.93
591.02	2580.44
591.22	2342.88
591.41	2404.32
591.60	2422.75
591.80	2570.20
591.99	2236.38
592.18	2287.58
592.38	2332.64
592.57	2260.96
592.76	2263.01
592.96	2359.26
593.15	2342.88
593.34	2351.07
593.54	2267.10
593.73	2351.07
593.92	2414.56
594.12	2406.36
594.31	2269.15
594.50	2455.51
594.70	2357.21
594.89	2637.78
595.08	2176.99
595.28	2342.88
595.47	2602.97
595.66	2404.32
595.86	2234.33
596.05	2244.57
596.24	2285.53
596.43	2508.76
596.63	2353.12
596.82	2340.83
597.01	2283.49
597.21	2480.09
597.40	2310.11
597.59	2301.92
597.79	2330.59
597.98	2326.49
598.17	2326.49
598.36	2267.10
598.56	2389.98
598.75	2158.56
598.94	2248.67
599.14	2316.25
599.33	2213.85
599.52	2297.82
599.71	2303.96
599.91	2353.12
600.10	2336.73
600.29	2295.77
600.48	2310.11
600.68	2318.30
600.87	2291.68
601.06	2179.04
601.26	2318.30
601.45	2254.81
601.64	2220.00
601.83	2443.23
602.03	2283.49
602.22	2207.71
602.41	2381.79
602.60	2504.67
602.80	2293.72
602.99	2328.54
603.18	2234.33
603.37	2295.77
603.57	2316.25
603.76	2279.39
603.95	2455.51
604.14	2267.10
604.34	2160.61
604.53	2310.11
604.72	2252.77
604.91	2389.98
605.10	2349.02
605.30	2127.84
605.49	2455.51
605.68	2355.16
605.87	2281.44
606.07	2203.61
606.26	2289.63
606.45	2306.01
606.64	2299.87
606.84	2308.06
607.03	2338.78
607.22	2361.31
607.41	2277.34
607.60	2308.06
607.80	2367.45
607.99	2310.11
608.18	2308.06
608.37	2303.96
608.56	2244.57
608.76	2480.09
608.95	2457.56
609.14	2277.34
609.33	2379.74
609.52	2432.99
609.72	2363.36
609.91	2453.47
610.10	2328.54
610.29	2367.45
610.48	2287.58
610.68	2414.56
610.87	2258.91
611.06	2371.55
611.25	2197.47
611.44	2365.40
611.63	2322.40
611.83	2453.47
612.02	2174.94
612.21	2389.98
612.40	2207.71
612.59	2269.15
612.79	2199.52
612.98	2234.33
613.17	2496.47
613.36	2258.91
613.55	2432.99
613.74	2285.53
613.93	2342.88
614.13	2414.56
614.32	2500.57
614.51	2375.64
614.70	2334.68
614.89	2308.06
615.08	2346.97
615.28	2766.81
615.47	2269.15
615.66	2301.92
615.85	2383.84
616.04	2453.47
616.23	2301.92
616.42	2277.34
616.62	2267.10
616.81	2213.85
617.00	2250.72
617.19	2320.35
617.38	2273.25
617.57	2334.68
617.76	2318.30
617.95	2244.57
618.15	2351.07
618.34	2383.84
618.53	2082.78
618.72	2314.20
618.91	2406.36
619.10	2394.08
619.29	2314.20
619.48	2269.15
619.68	2211.81
619.87	2263.01
620.06	2166.75
620.25	2308.06
620.44	2230.24
620.63	2263.01
620.82	2328.54
621.01	2217.95
621.20	2332.64
621.39	2310.11
621.59	2351.07
621.78	2170.85
621.97	2389.98
622.16	2310.11
622.35	2232.29
622.54	2414.56
622.73	2389.98
622.92	2107.36
623.11	2437.08
623.30	2297.82
623.49	2275.29
623.68	2277.34
623.88	2324.44
624.07	2244.57
624.26	2201.57
624.45	2248.67
624.64	2295.77
624.83	2283.49
625.02	2203.61
625.21	2238.43
625.40	2357.21
625.59	2373.60
625.78	2365.40
625.97	2416.60
626.16	2461.66
626.35	2422.75
626.54	2318.30
626.74	2559.96
626.93	2191.33
627.12	2246.62
627.31	2334.68
627.50	2318.30
627.69	2297.82
627.88	2174.94
628.07	2226.14
628.26	2162.66
628.45	2164.70
628.64	2174.94
628.83	2334.68
629.02	2176.99
629.21	2314.20
629.40	2328.54
629.59	2215.90
629.78	2179.04
629.97	2289.63
630.16	2213.85
630.35	2295.77
630.54	2295.77
630.73	2230.24
630.92	2250.72
631.11	2226.14
631.30	2248.67
631.49	2359.26
631.68	2220.00
631.87	2342.88
632.06	2125.79
632.25	2482.14
632.44	2349.02
632.63	2258.91
632.82	2250.72
633.01	2207.71
633.20	2387.93
633.39	2379.74
633.58	2164.70
633.77	2297.82
633.96	2320.35
634.15	2336.73
634.34	2269.15
634.53	2326.49
634.72	2193.37
634.91	2117.60
635.10	2314.20
635.29	2414.56
635.48	2289.63
635.67	2131.94
635.86	2101.22
636.05	2408.41
636.24	2293.72
636.43	2365.40
636.62	2342.88
636.81	2045.92
637.00	2320.35
637.19	2314.20
637.38	2256.86
637.57	2215.90
637.76	2199.52
637.95	2437.08
638.14	2277.34
638.33	2349.02
638.52	2369.50
638.71	2265.05
638.89	2154.46
639.08	2564.06
639.27	2492.38
639.46	2490.33
639.65	2832.34
639.84	2889.68
640.03	3035.09
640.22	2877.40
640.41	2861.01
640.60	2555.86
640.79	2527.19
640.98	2408.41
641.17	2465.75
641.36	2486.23
641.55	2545.63
641.74	2240.48
641.92	2265.05
642.11	2258.91
642.30	2234.33
642.49	2226.14
642.68	2285.53
642.87	2267.10
643.06	2320.35
643.25	2211.81
643.44	2162.66
643.63	2166.75
643.82	2381.79
644.00	2193.37
644.19	2244.57
644.38	2107.36
644.57	2363.36
644.76	2289.63
644.95	2285.53
645.14	2363.36
645.33	2203.61
645.52	2310.11
645.71	2078.69
645.89	2234.33
646.08	2375.64
646.27	2213.85
646.46	2414.56
646.65	2105.31
646.84	2326.49
647.03	2246.62
647.22	2416.60
647.40	2306.01
647.59	2316.25
647.78	2195.42
647.97	2166.75
648.16	2156.51
648.35	2465.75
648.54	2400.22
648.73	2215.90
648.91	2275.29
649.10	2263.01
649.29	2191.33
649.48	2338.78
649.67	2295.77
649.86	2275.29
650.05	2336.73
650.23	2547.67
650.42	2330.59
650.61	2525.15
650.80	2435.03
650.99	2562.01
651.18	2422.75
651.36	2394.08
651.55	2201.57
651.74	2404.32
651.93	2332.64
652.12	2269.15
652.31	2326.49
652.49	2265.05
652.68	2301.92
652.87	2416.60
653.06	2306.01
653.25	2478.04
653.44	2234.33
653.62	2490.33
653.81	2306.01
654.00	2195.42
654.19	2353.12
654.38	2592.73
654.56	2267.10
654.75	2213.85
654.94	2355.16
655.13	2346.97
655.32	2291.68
655.51	2363.36
655.69	2193.37
655.88	2306.01
656.07	2138.08
656.26	2236.38
656.45	2166.75
656.63	2203.61
656.82	2248.67
657.01	2342.88
657.20	2201.57
657.38	2469.85
657.57	2310.11
657.76	2109.41
657.95	2383.84
658.14	2207.71
658.32	2326.49
658.51	2136.03
658.70	2228.19
658.89	2324.44
659.08	2303.96
659.26	2422.75
659.45	2240.48
659.64	2416.60
659.83	2246.62
660.01	2684.89
660.20	2357.21
660.39	2498.52
660.58	2064.35
660.76	2328.54
660.95	2195.42
661.14	2351.07
661.33	2213.85
661.51	2224.09
661.70	2207.71
661.89	2267.10
662.08	2267.10
662.26	2068.45
662.45	2138.08
662.64	2510.81
662.83	2281.44
663.01	2144.22
663.20	2224.09
663.39	2412.51
663.58	2260.96
663.76	2162.66
663.95	2351.07
664.14	2162.66
664.32	2201.57
664.51	2187.23
664.70	2172.89
664.89	2293.72
665.07	2127.84
665.26	2330.59
665.45	2185.18
665.64	2326.49
665.82	2267.10
666.01	2279.39
666.20	2162.66
666.38	2369.50
666.57	2439.13
666.76	3467.21
666.95	8112.00
667.13	16224.01
667.32	21194.43
667.51	24372.88
667.69	26478.19
667.88	23948.95
668.07	16983.80
668.25	13684.53
668.44	11274.07
668.63	9832.30
668.81	8851.32
669.00	7626.64
669.19	6866.84
669.38	5822.38
669.56	5128.11
669.75	4349.89
669.94	3596.23
670.12	3129.30
670.31	2750.42
670.50	2555.86
670.68	2461.66
670.87	2459.61
671.06	2306.01
671.24	2375.64
671.43	2516.95
671.62	2346.97
671.80	2250.72
671.99	2351.07
672.18	2310.11
672.36	2332.64
672.55	2312.16
672.74	2267.10
672.92	2228.19
673.11	2342.88
673.29	2125.79
673.48	2336.73
673.67	2326.49
673.85	2367.45
674.04	2179.04
674.23	2269.15
674.41	2455.51
674.60	2158.56
674.79	2170.85
674.97	2213.85
675.16	2342.88
675.34	2398.17
675.53	2260.96
675.72	2236.38
675.90	2455.51
676.09	2236.38
676.28	2289.63
676.46	2105.31
676.65	2369.50
676.83	2185.18
677.02	2215.90
677.21	2260.96
677.39	2306.01
677.58	2217.95
677.77	2228.19
677.95	2174.94
678.14	2271.20
678.32	2287.58
678.51	2248.67
678.70	2529.24
678.88	2170.85
679.07	2330.59
679.25	2244.57
679.44	2260.96
679.63	2119.65
679.81	2289.63
680.00	2398.17
680.18	2260.96
680.37	2441.18
680.55	2285.53
680.74	2136.03
680.93	2097.12
681.11	2301.92
681.30	2252.77
681.48	2215.90
681.67	2234.33
681.85	2240.48
682.04	2207.71
682.23	2316.25
682.41	2314.20
682.60	2234.33
682.78	2232.29
682.97	2226.14
683.15	2254.81
683.34	2285.53
683.53	2439.13
683.71	2144.22
683.90	2383.84
684.08	2389.98
684.27	2293.72
684.45	2201.57
684.64	2291.68
684.82	2199.52
685.01	2318.30
685.19	2301.92
685.38	2387.93
685.57	2250.72
685.75	2254.81
685.94	2199.52
686.12	2191.33
686.31	2090.98
686.49	2285.53
686.68	2170.85
686.86	2334.68
687.05	2217.95
687.23	2406.36
687.42	2193.37
687.60	2136.03
687.79	2365.40
687.97	2326.49
688.16	2295.77
688.34	2400.22
688.53	2031.58
688.71	2308.06
688.90	2377.69
689.08	2244.57
689.27	2136.03
689.45	2269.15
689.64	2318.30
689.82	2232.29
690.01	2318.30
690.19	2260.96
690.38	2244.57
690.56	2258.91
690.75	2136.03
690.93	2162.66
691.12	2201.57
691.30	2263.01
691.49	2275.29
691.67	2199.52
691.86	2412.51
692.04	2279.39
692.23	2314.20
692.41	2232.29
692.60	2480.09
692.78	2416.60
692.97	2252.77
693.15	2365.40
693.34	2478.04
693.52	2355.16
693.71	2240.48
693.89	2252.77
694.08	2129.89
694.26	2310.11
694.44	2357.21
694.63	2342.88
694.81	2113.50
695.00	2136.03
695.18	2416.60
695.37	2535.39
695.55	2217.95
695.74	2185.18
695.92	2150.37
696.10	2451.42
696.29	2152.42
696.47	2285.53
696.66	2150.37
696.84	2185.18
697.03	2277.34
697.21	2428.89
697.40	3252.17
697.58	2371.55
697.76	2187.23
697.95	2211.81
698.13	2201.57
698.32	2211.81
698.50	2220.00
698.68	2293.72
698.87	2250.72
699.05	2443.23
699.24	2269.15
699.42	2129.89
699.61	2312.16
699.79	2269.15
699.97	2269.15
700.16	2095.07
700.34	2193.37
700.53	2289.63
700.71	2385.88
700.89	2338.78
701.08	2260.96
701.26	2224.09
701.45	2818.00
701.63	2230.24
701.81	2166.75
702.00	2136.03
702.18	2170.85
702.37	2246.62
702.55	2447.32
702.73	2400.22
702.92	2357.21
703.10	2469.85
703.28	2455.51
703.47	2248.67
703.65	2541.53
703.84	2482.14
704.02	2267.10
704.20	2482.14
704.39	2242.53
704.57	2332.64
704.75	2340.83
704.94	2351.07
705.12	2271.20
705.30	2598.87
705.49	4495.29
705.67	10352.48
705.86	18231.02
706.04	21563.06
706.22	24579.72
706.41	25634.42
706.59	21743.28
706.77	15290.13
706.96	12967.74
707.14	11331.41
707.32	9758.57
707.51	8793.98
707.69	7237.52
707.87	5824.42
708.06	4804.53
708.24	3950.53
708.42	3192.78
708.61	3039.19
708.79	2432.99
708.97	2418.65
709.16	2408.41
709.34	2351.07
709.52	2248.67
709.71	2248.67
709.89	2306.01
710.07	2154.46
710.26	2183.13
710.44	2269.15
710.62	2340.83
710.80	2242.53
710.99	2275.29
711.17	2430.94
711.35	2150.37
711.54	2119.65
711.72	2408.41
711.90	2383.84
712.09	2330.59
712.27	2203.61
712.45	2324.44
712.63	2146.27
712.82	2308.06
713.00	2265.05
713.18	2293.72
713.37	2275.29
713.55	2357.21
713.73	2351.07
713.91	2242.53
714.10	2240.48
714.28	2320.35
714.46	2367.45
714.65	2248.67
714.83	2263.01
715.01	2250.72
715.19	2244.57
715.38	2209.76
715.56	2275.29
715.74	2199.52
715.92	2187.23
716.11	2349.02
716.29	2039.78
716.47	2238.43
716.65	2258.91
716.84	2213.85
717.02	2371.55
717.20	2113.50
717.38	2217.95
717.57	2330.59
717.75	2322.40
717.93	2197.47
718.11	2279.39
718.30	2191.33
718.48	2322.40
718.66	2314.20
718.84	2373.60
719.03	2232.29
719.21	2170.85
719.39	2424.80
719.57	2353.12
719.75	2273.25
719.94	2142.18
720.12	2176.99
720.30	2271.20
720.48	2293.72
720.67	2185.18
720.85	2213.85
721.03	2195.42
721.21	2209.76
721.39	2387.93
721.58	2291.68
721.76	2281.44
721.94	2287.58
722.12	2289.63
722.30	2400.22
722.49	2176.99
722.67	2277.34
722.85	2248.67
723.03	2080.74
723.21	2174.94
723.40	2308.06
723.58	2338.78
723.76	2377.69
723.94	2408.41
724.12	2299.87
724.30	2428.89
724.49	2336.73
724.67	2199.52
724.85	2414.56
725.03	2191.33
725.21	2428.89
725.40	2383.84
725.58	2205.66
725.76	2351.07
725.94	2289.63
726.12	2226.14
726.30	2265.05
726.49	2285.53
726.67	2211.81
726.85	2314.20
727.03	2580.44
727.21	3588.04
727.39	5087.15
727.57	5908.39
727.76	6371.23
727.94	6594.46
728.12	6322.08
728.30	5136.31
728.48	4403.13
728.66	4190.14
728.84	3858.37
729.03	3276.75
729.21	2996.18
729.39	2664.41
729.57	2465.75
729.75	2439.13
729.93	2338.78
730.11	2201.57
730.30	2277.34
730.48	2271.20
730.66	2351.07
730.84	2342.88
731.02	2285.53
731.20	2228.19
731.38	2211.81
731.56	2154.46
731.74	2074.59
731.93	2295.77
732.11	2211.81
732.29	2256.86
732.47	2285.53
732.65	2246.62
732.83	2334.68
733.01	2340.83
733.19	2179.04
733.37	2275.29
733.56	2275.29
733.74	2240.48
733.92	2400.22
734.10	2213.85
734.28	2285.53
734.46	2150.37
734.64	2215.90
734.82	2205.66
735.00	2115.55
735.18	2156.51
735.36	2252.77
735.54	2297.82
735.73	2295.77
735.91	2312.16
736.09	2367.45
736.27	2269.15
736.45	2273.25
736.63	2080.74
736.81	2187.23
736.99	2318.30
737.17	2355.16
737.35	2209.76
737.53	2252.77
737.71	2285.53
737.89	2379.74
738.07	2199.52
738.25	2193.37
738.43	2150.37
738.61	2310.11
738.80	2058.21
738.98	2152.42
739.16	2234.33
739.34	2211.81
739.52	2428.89
739.70	2213.85
739.88	2299.87
740.06	2389.98
740.24	2090.98
740.42	2385.88
740.60	2117.60
740.78	2211.81
740.96	2068.45
741.14	2211.81
741.32	2277.34
741.50	2146.27
741.68	2447.32
741.86	2412.51
742.04	2160.61
742.22	2185.18
742.40	2297.82
742.58	2320.35
742.76	2236.38
742.94	2299.87
743.12	2113.50
743.30	2215.90
743.48	2275.29
743.66	2164.70
743.84	2351.07
744.02	2275.29
744.20	2271.20
744.38	2162.66
744.56	2170.85
744.74	2398.17
744.92	2389.98
745.10	2375.64
745.28	2320.35
745.46	2439.13
745.64	2146.27
745.82	2334.68
746.00	2240.48
746.18	2250.72
746.36	2129.89
746.54	2252.77
746.72	2371.55
746.90	2127.84
747.08	2402.27
747.26	2242.53
747.44	2310.11
747.62	2310.11
747.80	2193.37
747.98	2250.72
748.15	2226.14
748.33	2514.91
748.51	2293.72
748.69	2334.68
748.87	2242.53
749.05	2234.33
749.23	2224.09
749.41	2236.38
749.59	2269.15
749.77	2332.64
749.95	2248.67
750.13	2197.47
750.31	2291.68
750.49	2166.75
750.67	2209.76
750.85	2381.79
751.03	2258.91
751.20	2475.99
751.38	2299.87
751.56	2267.10
751.74	2336.73
751.92	2174.94
752.10	2179.04
752.28	2375.64
752.46	2217.95
752.64	2179.04
752.82	2306.01
753.00	2344.92
753.18	2187.23
753.35	2193.37
753.53	2244.57
753.71	2217.95
753.89	2359.26
754.07	2269.15
754.25	2400.22
754.43	2306.01
754.61	2170.85
754.79	2312.16
754.97	2263.01
755.14	2314.20
755.32	2107.36
755.50	2330.59
755.68	2265.05
755.86	2265.05
756.04	2152.42
756.22	2045.92
756.40	2344.92
756.57	2537.43
756.75	2230.24
756.93	2322.40
757.11	2330.59
757.29	2168.80
757.47	2138.08
757.65	2121.70
757.82	2084.83
758.00	2113.50
758.18	2197.47
758.36	2176.99
758.54	2453.47
758.72	2099.17
758.90	2297.82
759.07	2240.48
759.25	2170.85
759.43	2351.07
759.61	2125.79
759.79	3110.86
759.97	2359.26
760.15	2183.13
760.32	2140.13
760.50	2269.15
760.68	2406.36
760.86	2119.65
761.04	2359.26
761.22	2351.07
761.39	2314.20
761.57	2301.92
761.75	2205.66
761.93	2273.25
762.11	2240.48
762.28	2207.71
762.46	2199.52
762.64	2359.26
762.82	2127.84
763.00	2220.00
763.18	2441.18
763.35	2209.76
763.53	2334.68
763.71	2183.13
763.89	2220.00
764.07	2291.68
764.24	2308.06
764.42	2387.93
764.60	2195.42
764.78	2297.82
764.96	2371.55
765.13	2318.30
765.31	2185.18
765.49	2324.44
765.67	2125.79
765.84	2160.61
766.02	2168.80
766.20	2035.68
766.38	2318.30
766.56	2260.96
766.73	2275.29
766.91	2179.04
767.09	2220.00
767.27	2363.36
767.44	2174.94
767.62	2289.63
767.80	2293.72
767.98	2201.57
768.15	2271.20
768.33	2387.93
768.51	2316.25
768.69	2336.73
768.87	2303.96
769.04	2293.72
769.22	2512.86
769.40	2359.26
769.58	2519.00
769.75	2289.63
769.93	2381.79
770.11	2185.18
770.28	2211.81
770.46	2367.45
770.64	2308.06
770.82	2238.43
770.99	2172.89
771.17	2326.49
771.35	2254.81
771.53	2254.81
771.70	2211.81
771.88	2236.38
772.06	2209.76
772.23	2242.53
772.41	2269.15
772.59	2265.05
772.77	2125.79
772.94	2283.49
773.12	2322.40
773.30	2115.55
773.47	2277.34
773.65	2215.90
773.83	2342.88
774.01	2215.90
774.18	1990.63
774.36	2246.62
774.54	2172.89
774.71	2373.60
774.89	2127.84
775.07	2162.66
775.24	2209.76
775.42	2246.62
775.60	2432.99
775.78	2166.75
775.95	2131.94
776.13	2031.58
776.31	2123.74
776.48	2248.67
776.66	2287.58
776.84	2211.81
777.01	2146.27
777.19	2109.41
777.37	2179.04
777.54	2285.53
777.72	2463.71
777.90	2248.67
778.07	2154.46
778.25	2568.15
778.43	2400.22
778.60	2232.29
778.78	2287.58
778.96	2408.41
779.13	2154.46
779.31	2371.55
779.49	2205.66
779.66	2281.44
779.84	2228.19
780.01	2176.99
780.19	2160.61
780.37	2236.38
780.54	2267.10
780.72	2230.24
780.90	2168.80
781.07	2189.28
781.25	2168.80
781.43	2383.84
781.60	2183.13
781.78	2412.51
781.95	2283.49
782.13	2176.99
782.31	2215.90
782.48	2103.26
782.66	2230.24
782.83	2422.75
783.01	2285.53
783.19	2351.07
783.36	2260.96
783.54	2201.57
783.72	2322.40
783.89	2236.38
784.07	2215.90
784.24	2344.92
784.42	2412.51
784.60	2283.49
784.77	2248.67
784.95	2064.35
785.12	2133.98
785.30	2293.72
785.47	2113.50
785.65	2105.31
785.83	2136.03
786.00	2195.42
786.18	2250.72
786.35	2136.03
786.53	2109.41
786.71	2367.45
786.88	2256.86
787.06	2303.96
787.23	2189.28
787.41	2160.61
787.58	2211.81
787.76	2117.60
787.94	2326.49
788.11	2277.34
788.29	2158.56
788.46	2193.37
788.64	2123.74
788.81	2207.71
788.99	2176.99
789.16	2187.23
789.34	2228.19
789.52	2166.75
789.69	2226.14
789.87	2031.58
790.04	2084.83
790.22	2275.29
790.39	2467.80
790.57	2170.85
790.74	2121.70
790.92	2308.06
791.09	2045.92
791.27	2244.57
791.44	2258.91
791.62	2240.48
791.79	2369.50
791.97	2250.72
792.15	2504.67
792.32	2326.49
792.50	2349.02
792.67	2467.80
792.85	2351.07
793.02	2252.77
793.20	2258.91
793.37	2080.74
793.55	2248.67
793.72	2129.89
793.90	2238.43
794.07	2179.04
794.25	2195.42
794.42	2271.20
794.60	2248.67
794.77	2244.57
794.95	2287.58
795.12	2359.26
795.30	2242.53
795.47	2148.32
795.65	2519.00
795.82	2265.05
796.00	2179.04
796.17	2273.25
796.34	2226.14
796.52	2351.07
796.69	2260.96
796.87	2324.44
797.04	2215.90
797.22	2273.25
797.39	2244.57
797.57	2334.68
797.74	2213.85
797.92	2187.23
798.09	2271.20
798.27	2363.36
798.44	2275.29
798.62	2258.91
798.79	2295.77
798.96	2338.78
799.14	2213.85
799.31	2553.82
799.49	2215.90
799.66	2168.80
799.84	2213.85
800.01	2123.74
800.19	2281.44
800.36	2045.92
800.53	2318.30
800.71	2267.10
800.88	2371.55
801.06	2078.69
801.23	2160.61
801.41	2187.23
801.58	2183.13
801.75	2113.50
801.93	2275.29
802.10	2359.26
802.28	2240.48
802.45	2303.96
802.63	2314.20
802.80	2375.64
802.97	2211.81
803.15	2236.38
803.32	2254.81
803.50	2197.47
803.67	2129.89
803.84	2103.26
804.02	2222.05
804.19	2277.34
804.37	1933.28
804.54	2035.68
804.71	2176.99
804.89	2232.29
805.06	2133.98
805.24	2185.18
805.41	2158.56
805.58	2154.46
805.76	2451.42
805.93	2199.52
806.10	2373.60
806.28	2312.16
806.45	2340.83
806.63	2285.53
806.80	2289.63
806.97	2318.30
807.15	2301.92
807.32	2240.48
807.49	2164.70
807.67	2121.70
807.84	2336.73
808.01	2074.59
808.19	2418.65
808.36	2516.95
808.54	2211.81
808.71	2195.42
808.88	2258.91
809.06	2359.26
809.23	2371.55
809.40	2181.09
809.58	2306.01
809.75	2179.04
809.92	2156.51
810.10	2400.22
810.27	2224.09
810.44	2252.77
810.62	2299.87
810.79	2285.53
810.96	2193.37
811.14	2267.10
811.31	2277.34
811.48	2254.81
811.66	2310.11
811.83	2367.45
812.00	2326.49
812.18	2236.38
812.35	2494.43
812.52	2179.04
812.69	2252.77
812.87	2150.37
813.04	2220.00
813.21	2203.61
813.39	2168.80
813.56	2152.42
813.73	2389.98
813.91	2176.99
814.08	2279.39
814.25	2236.38
814.42	2111.46
814.60	2174.94
814.77	2252.77
814.94	2195.42
815.12	2359.26
815.29	2369.50
815.46	2277.34
815.63	2320.35
815.81	2273.25
815.98	2228.19
816.15	2258.91
816.33	2191.33
816.50	2248.67
816.67	2332.64
816.84	2254.81
817.02	2156.51
817.19	2265.05
817.36	2273.25
817.53	2236.38
817.71	2105.31
817.88	2346.97
818.05	2166.75
818.22	2158.56
818.40	2330.59
818.57	2174.94
818.74	2265.05
818.91	2187.23
819.09	2379.74
819.26	2285.53
819.43	2228.19
819.60	2162.66
819.78	2256.86
819.95	2306.01
820.12	2191.33
820.29	2432.99
820.47	2428.89
820.64	2172.89
820.81	2111.46
820.98	2220.00
821.15	2258.91
821.33	2351.07
821.50	2119.65
821.67	2260.96
821.84	2166.75
822.02	2293.72
822.19	2371.55
822.36	2267.10
822.53	2203.61
822.70	2170.85
822.88	2222.05
823.05	2471.90
823.22	2228.19
823.39	2277.34
823.56	2226.14
823.74	2453.47
823.91	2107.36
824.08	2142.18
824.25	2164.70
824.42	2488.28
824.60	2156.51
824.77	2318.30
824.94	2195.42
825.11	2246.62
825.28	2047.97
825.45	2205.66
825.63	2277.34
825.80	2107.36
825.97	2285.53
826.14	2203.61
826.31	2097.12
826.48	2297.82
826.66	2242.53
826.83	2217.95
827.00	2150.37
827.17	2220.00
827.34	2230.24
827.51	2285.53
827.69	2213.85
827.86	2195.42
828.03	2220.00
828.20	2230.24
828.37	2168.80
828.54	2297.82
828.71	2244.57
828.89	2326.49
829.06	2273.25
829.23	2375.64
829.40	2093.02
829.57	2185.18
829.74	2310.11
829.91	2140.13
830.09	2205.66
830.26	2236.38
830.43	2383.84
830.60	2273.25
830.77	2263.01
830.94	2318.30
831.11	2301.92
831.28	2220.00
831.46	2308.06
831.63	2207.71
831.80	2351.07
831.97	2222.05
832.14	2297.82
832.31	2260.96
832.48	2283.49
832.65	2355.16
832.82	2279.39
832.99	2230.24
833.17	2088.93
833.34	2441.18
833.51	2283.49
833.68	2090.98
833.85	2392.03
834.02	2215.90
834.19	2144.22
834.36	2154.46
834.53	2281.44
834.70	2338.78
834.87	2310.11
835.04	2193.37
835.22	2195.42
835.39	2211.81
835.56	2131.94
835.73	2265.05
835.90	2363.36
836.07	2220.00
836.24	2310.11
836.41	2123.74
836.58	2199.52
836.75	2293.72
836.92	2240.48
837.09	2117.60
837.26	2285.53
837.43	2318.30
837.60	2297.82
837.77	2209.76
837.94	2289.63
838.12	2367.45
838.29	2158.56
838.46	2078.69
838.63	2199.52
838.80	2437.08
838.97	2291.68
839.14	2170.85
839.31	2220.00
839.48	2332.64
839.65	2136.03
839.82	2291.68
839.99	2211.81
840.16	2279.39
840.33	2195.42
840.50	2246.62
840.67	2199.52
840.84	2045.92
841.01	2183.13
841.18	2199.52
841.35	2285.53
841.52	2293.72
841.69	2437.08
841.86	2213.85
842.03	2279.39
842.20	2357.21
842.37	2234.33
842.54	2213.85
842.71	2265.05
842.88	2138.08
843.05	2213.85
843.22	2238.43
843.39	2355.16
843.56	2199.52
843.73	2187.23
843.90	2195.42
844.07	2308.06
844.24	2338.78
844.41	2281.44
844.58	2256.86
844.75	2211.81
844.92	2303.96
845.09	2256.86
845.26	2170.85
845.43	2359.26
845.60	2226.14
845.77	2400.22
845.94	2263.01
846.10	2357.21
846.27	2105.31
846.44	2113.50
846.61	2101.22
846.78	2299.87
846.95	2324.44
847.12	2179.04
847.29	2156.51
847.46	2226.14
847.63	2275.29
847.80	2183.13
847.97	2228.19
848.14	2471.90
848.31	2250.72
848.48	2111.46
848.65	2230.24
848.82	2170.85
848.98	2529.24
849.15	2260.96
849.32	2267.10
849.49	2377.69
849.66	2275.29
849.83	2236.38
850.00	2125.79
850.17	2318.30
850.34	2258.91
850.51	2142.18
850.68	2170.85
850.85	2377.69
851.01	2252.77
851.18	2189.28
851.35	2250.72
851.52	2285.53
851.69	2381.79
851.86	2176.99
852.03	2160.61
852.20	2318.30
852.37	2207.71
852.53	2062.30
852.70	2117.60
852.87	2310.11
853.04	2289.63
853.21	2152.42
853.38	2371.55
853.55	2342.88
853.72	2299.87
853.89	2111.46
854.05	2144.22
854.22	2222.05
854.39	2195.42
854.56	2154.46
854.73	2283.49
854.90	2148.32
855.07	2224.09
855.23	2105.31
855.40	2170.85
855.57	2191.33
855.74	2111.46
855.91	2412.51
856.08	2125.79
856.25	2133.98
856.41	2170.85
856.58	2207.71
856.75	2246.62
856.92	2142.18
857.09	2361.31
857.26	2043.87
857.42	2217.95
857.59	2342.88
857.76	2162.66
857.93	2217.95
858.10	2217.95
858.27	2140.13
858.43	2252.77
858.60	2136.03
858.77	2121.70
858.94	2226.14
859.11	2301.92
859.27	2144.22
859.44	2076.64
859.61	2445.27
859.78	2297.82
859.95	2220.00
860.12	2193.37
860.28	2435.03
860.45	2461.66
860.62	2152.42
860.79	2234.33
860.95	2187.23
861.12	2160.61
861.29	2113.50
861.46	2195.42
861.63	2234.33
861.79	2211.81
861.96	2080.74
862.13	2168.80
862.30	2359.26
862.47	2133.98
862.63	2080.74
862.80	2353.12
862.97	2359.26
863.14	2244.57
863.30	2238.43
863.47	2121.70
863.64	2375.64
863.81	2217.95
863.97	2095.07
864.14	2283.49
864.31	2285.53
864.48	2252.77
864.65	2205.66
864.81	2306.01
864.98	2342.88
865.15	2406.36
865.32	2234.33
865.48	2353.12
865.65	2387.93
865.82	2179.04
865.98	2215.90
866.15	2291.68
866.32	2258.91
866.49	2252.77
866.65	2269.15
866.82	2154.46
866.99	2234.33
867.16	2090.98
867.32	2127.84
867.49	2152.42
867.66	2199.52
867.83	2203.61
867.99	2105.31
868.16	2154.46
868.33	2146.27
868.49	2199.52
868.66	2140.13
868.83	2324.44
868.99	2222.05
869.16	2230.24
869.33	2283.49
869.50	2226.14
869.66	2205.66
869.83	2287.58
870.00	2117.60
870.16	2279.39
870.33	2228.19
870.50	2306.01
870.66	2267.10
870.83	2195.42
871.00	2285.53
871.17	2297.82
871.33	2277.34
871.50	2191.33
871.67	2281.44
871.83	2203.61
872.00	2285.53
872.17	2203.61
872.33	2455.51
872.50	2275.29
872.67	2267.10
872.83	2146.27
873.00	2299.87
873.17	2213.85
873.33	2306.01
873.50	2297.82
873.67	2203.61
873.83	2174.94
874.00	2240.48
874.16	2232.29
874.33	2301.92
874.50	2101.22
874.66	2226.14
874.83	2199.52
875.00	2353.12
875.16	2363.36
875.33	2287.58
875.50	2000.87
875.66	2271.20
875.83	2267.10
875.99	2258.91
876.16	2183.13
876.33	2168.80
876.49	2269.15
876.66	2217.95
876.83	2195.42
876.99	2066.40
877.16	2252.77
877.32	2168.80
877.49	2170.85
877.66	2250.72
877.82	2326.49
877.99	2246.62
878.15	2369.50
878.32	2306.01
878.49	2232.29
878.65	2154.46
878.82	2318.30
878.98	2131.94
879.15	2314.20
879.32	2201.57
879.48	2224.09
879.65	2330.59
879.81	2232.29
879.98	2215.90
880.15	2174.94
880.31	2330.59
880.48	2273.25
880.64	2240.48
880.81	2297.82
880.97	2418.65
881.14	2324.44
881.31	2099.17
881.47	2396.12
881.64	2269.15
881.80	2142.18
881.97	2181.09
882.13	2277.34
882.30	2146.27
882.47	2211.81
882.63	2158.56
882.80	2179.04
882.96	2176.99
883.13	2367.45
883.29	2234.33
883.46	2271.20
883.62	2398.17
883.79	2238.43
883.95	2281.44
884.12	2183.13
884.29	2277.34
884.45	2215.90
884.62	2252.77
884.78	2148.32
884.95	2371.55
885.11	2211.81
885.28	2283.49
885.44	2146.27
885.61	2359.26
885.77	2379.74
885.94	2236.38
886.10	2263.01
886.27	2248.67
886.43	2396.12
886.60	2293.72
886.76	2062.30
886.93	2193.37
887.09	2287.58
887.26	2078.69
887.42	2207.71
887.59	2359.26
887.75	2457.56
887.92	2277.34
888.08	2285.53
888.25	2394.08
888.41	2379.74
888.58	2222.05
888.74	2199.52
888.91	2174.94
>>>>>End Processed Spectral Data<<<<<
