SpectraSuite Data File
++++++++++++++++++++++++++++++++++++
Date: Thu May 05 13:21:31 CEST 2016
User: root
Dark Spectrum Present: No
Reference Spectrum Present: No
Number of Sampled Component Spectra: 1
Spectrometers: USB4C02835
Integration Time (usec): 100000 (USB4C02835)
Spectra Averaged: 1 (USB4C02835)
Boxcar Smoothing: 0 (USB4C02835)
Correct for Electrical Dark: No (USB4C02835)
Strobe/Lamp Enabled: No (USB4C02835)
Correct for Detector Non-linearity: No (USB4C02835)
Correct for Stray Light: No (USB4C02835)
Number of Pixels in Processed Spectrum: 3648
>>>>>Begin Processed Spectral Data<<<<<
177.47	1810.40
177.69	1810.40
177.91	1810.40
178.13	1906.66
178.36	1814.50
178.58	2220.00
178.80	2308.06
179.02	2064.35
179.24	2142.18
179.46	2136.03
179.68	2176.99
179.90	2344.92
180.13	2224.09
180.35	2058.21
180.57	2187.23
180.79	2385.88
181.01	2256.86
181.23	2211.81
181.45	2328.54
181.67	2351.07
181.90	2406.36
182.12	2240.48
182.34	2097.12
182.56	2267.10
182.78	2349.02
183.00	2185.18
183.22	2258.91
183.44	2099.17
183.66	2572.25
183.89	2236.38
184.11	2187.23
184.33	2326.49
184.55	2351.07
184.77	2199.52
184.99	2179.04
185.21	2207.71
185.43	2455.51
185.65	2133.98
185.87	2179.04
186.10	2414.56
186.32	2570.20
186.54	2230.24
186.76	2252.77
186.98	2385.88
187.20	2220.00
187.42	2121.70
187.64	2195.42
187.86	2234.33
188.08	2285.53
188.30	2150.37
188.52	2140.13
188.75	2392.03
188.97	2424.80
189.19	2203.61
189.41	2211.81
189.63	2308.06
189.85	2203.61
190.07	1984.48
190.29	2115.55
190.51	2316.25
190.73	2174.94
190.95	2326.49
191.17	2133.98
191.39	2170.85
191.61	2297.82
191.84	2152.42
192.06	2281.44
192.28	2107.36
192.50	2643.93
192.72	2207.71
192.94	2248.67
193.16	2344.92
193.38	2285.53
193.60	2095.07
193.82	2230.24
194.04	2392.03
194.26	2277.34
194.48	2187.23
194.70	2179.04
194.92	2211.81
195.14	2256.86
195.36	2121.70
195.58	2146.27
195.80	2228.19
196.02	2181.09
196.24	2166.75
196.46	2263.01
196.69	2228.19
196.91	2449.37
197.13	2244.57
197.35	2215.90
197.57	2353.12
197.79	2312.16
198.01	2170.85
198.23	2201.57
198.45	2271.20
198.67	2113.50
198.89	2148.32
199.11	2203.61
199.33	2162.66
199.55	2029.54
199.77	2209.76
199.99	2295.77
200.21	2224.09
200.43	2318.30
200.65	2113.50
200.87	2027.49
201.09	2301.92
201.31	2238.43
201.53	2234.33
201.75	2256.86
201.97	2314.20
202.19	2209.76
202.41	2193.37
202.63	2379.74
202.85	2215.90
203.07	2258.91
203.29	2181.09
203.51	2125.79
203.73	2152.42
203.95	2521.05
204.17	2209.76
204.39	2166.75
204.61	2230.24
204.83	2199.52
205.05	2287.58
205.27	2195.42
205.49	2510.81
205.71	2166.75
205.93	2056.16
206.15	2160.61
206.37	2226.14
206.59	2355.16
206.81	2074.59
207.03	2131.94
207.25	2107.36
207.47	2318.30
207.69	2179.04
207.91	2314.20
208.13	2369.50
208.34	2191.33
208.56	2138.08
208.78	2209.76
209.00	2232.29
209.22	2209.76
209.44	2236.38
209.66	2080.74
209.88	2240.48
210.10	2187.23
210.32	2187.23
210.54	2256.86
210.76	2269.15
210.98	2316.25
211.20	2078.69
211.42	2197.47
211.64	2392.03
211.86	2201.57
212.08	2203.61
212.30	2252.77
212.52	2199.52
212.74	2314.20
212.96	2193.37
213.17	2234.33
213.39	2412.51
213.61	2469.85
213.83	2228.19
214.05	2220.00
214.27	2318.30
214.49	2146.27
214.71	2113.50
214.93	2342.88
215.15	2277.34
215.37	2279.39
215.59	2062.30
215.81	2207.71
216.03	2373.60
216.24	2240.48
216.46	2199.52
216.68	2156.51
216.90	2297.82
217.12	2334.68
217.34	2183.13
217.56	2316.25
217.78	2346.97
218.00	2320.35
218.22	2207.71
218.44	2299.87
218.66	2342.88
218.87	2498.52
219.09	2150.37
219.31	2215.90
219.53	2277.34
219.75	2308.06
219.97	2179.04
220.19	2242.53
220.41	2236.38
220.63	2420.70
220.85	2203.61
221.06	2133.98
221.28	2414.56
221.50	2301.92
221.72	2220.00
221.94	2105.31
222.16	2211.81
222.38	2371.55
222.60	2162.66
222.82	2209.76
223.03	2377.69
223.25	2179.04
223.47	2199.52
223.69	2306.01
223.91	2394.08
224.13	2320.35
224.35	2142.18
224.57	2353.12
224.78	2232.29
225.00	2154.46
225.22	2138.08
225.44	2121.70
225.66	2353.12
225.88	2279.39
226.10	2246.62
226.32	2172.89
226.53	2441.18
226.75	2140.13
226.97	2240.48
227.19	2152.42
227.41	2123.74
227.63	2211.81
227.85	2113.50
228.06	2226.14
228.28	2246.62
228.50	2301.92
228.72	2103.26
228.94	2105.31
229.16	2088.93
229.37	2236.38
229.59	2158.56
229.81	2334.68
230.03	2195.42
230.25	2158.56
230.47	2129.89
230.69	2185.18
230.90	2283.49
231.12	2211.81
231.34	2201.57
231.56	2263.01
231.78	2105.31
232.00	2256.86
232.21	2168.80
232.43	2158.56
232.65	2037.73
232.87	2252.77
233.09	2052.06
233.30	2076.64
233.52	2349.02
233.74	2299.87
233.96	2193.37
234.18	2263.01
234.40	2207.71
234.61	2465.75
234.83	2054.11
235.05	2119.65
235.27	2521.05
235.49	2392.03
235.70	2103.26
235.92	2316.25
236.14	2328.54
236.36	2539.48
236.58	2029.54
236.79	2252.77
237.01	2226.14
237.23	2287.58
237.45	2318.30
237.67	2203.61
237.88	2211.81
238.10	2432.99
238.32	2068.45
238.54	2256.86
238.76	2195.42
238.97	2103.26
239.19	2113.50
239.41	2236.38
239.63	2379.74
239.85	2152.42
240.06	2146.27
240.28	2254.81
240.50	2318.30
240.72	2281.44
240.93	2179.04
241.15	2297.82
241.37	2246.62
241.59	2381.79
241.81	2138.08
242.02	2252.77
242.24	2320.35
242.46	2279.39
242.68	2052.06
242.89	2168.80
243.11	2293.72
243.33	2258.91
243.55	2236.38
243.76	2203.61
243.98	2220.00
244.20	2254.81
244.42	2195.42
244.64	2189.28
244.85	2150.37
245.07	2146.27
245.29	2170.85
245.51	2179.04
245.72	2170.85
245.94	2332.64
246.16	2211.81
246.38	2267.10
246.59	2238.43
246.81	2179.04
247.03	2164.70
247.24	2109.41
247.46	2201.57
247.68	2297.82
247.90	2158.56
248.11	2066.40
248.33	2293.72
248.55	2209.76
248.77	2242.53
248.98	2322.40
249.20	2506.71
249.42	2267.10
249.64	2138.08
249.85	2162.66
250.07	2119.65
250.29	2412.51
250.50	2213.85
250.72	2125.79
250.94	2324.44
251.16	2490.33
251.37	2248.67
251.59	2252.77
251.81	2342.88
252.02	2441.18
252.24	2150.37
252.46	2322.40
252.68	2269.15
252.89	2115.55
253.11	2099.17
253.33	2306.01
253.54	2338.78
253.76	2138.08
253.98	2224.09
254.20	2228.19
254.41	2138.08
254.63	2228.19
254.85	2076.64
255.06	2297.82
255.28	2322.40
255.50	2183.13
255.71	2236.38
255.93	2068.45
256.15	2236.38
256.36	2349.02
256.58	2103.26
256.80	2179.04
257.02	2154.46
257.23	2170.85
257.45	2263.01
257.67	2324.44
257.88	2197.47
258.10	2269.15
258.32	2162.66
258.53	2267.10
258.75	2353.12
258.97	2205.66
259.18	2213.85
259.40	2226.14
259.62	2441.18
259.83	2359.26
260.05	2242.53
260.27	2699.22
260.48	2293.72
260.70	2240.48
260.92	2146.27
261.13	2232.29
261.35	2308.06
261.57	2256.86
261.78	2088.93
262.00	2183.13
262.22	2312.16
262.43	2179.04
262.65	2236.38
262.86	2191.33
263.08	2535.39
263.30	2279.39
263.51	2037.73
263.73	2183.13
263.95	2349.02
264.16	2260.96
264.38	2088.93
264.60	2154.46
264.81	2283.49
265.03	2371.55
265.25	2314.20
265.46	2185.18
265.68	2346.97
265.89	2310.11
266.11	2015.20
266.33	2205.66
266.54	2396.12
266.76	2308.06
266.98	2263.01
267.19	2244.57
267.41	2371.55
267.62	2195.42
267.84	2047.97
268.06	2185.18
268.27	2258.91
268.49	2332.64
268.70	2260.96
268.92	2242.53
269.14	2189.28
269.35	2133.98
269.57	2185.18
269.79	2248.67
270.00	2146.27
270.22	2432.99
270.43	2113.50
270.65	2039.78
270.87	2318.30
271.08	2394.08
271.30	2279.39
271.51	2199.52
271.73	2369.50
271.95	2406.36
272.16	2189.28
272.38	2226.14
272.59	2232.29
272.81	2316.25
273.02	2168.80
273.24	2211.81
273.46	2375.64
273.67	2080.74
273.89	2152.42
274.10	2109.41
274.32	2353.12
274.54	2271.20
274.75	2275.29
274.97	2162.66
275.18	2383.84
275.40	2252.77
275.61	2183.13
275.83	2263.01
276.05	2166.75
276.26	2248.67
276.48	2183.13
276.69	2127.84
276.91	2228.19
277.12	2355.16
277.34	2299.87
277.55	2377.69
277.77	2228.19
277.99	2236.38
278.20	2095.07
278.42	2105.31
278.63	2150.37
278.85	2172.89
279.06	2115.55
279.28	2252.77
279.49	2355.16
279.71	2318.30
279.93	2320.35
280.14	2162.66
280.36	2176.99
280.57	2353.12
280.79	2248.67
281.00	2148.32
281.22	2226.14
281.43	2330.59
281.65	2060.26
281.86	2121.70
282.08	2365.40
282.29	2482.14
282.51	2105.31
282.73	2156.51
282.94	2107.36
283.16	2252.77
283.37	2383.84
283.59	2195.42
283.80	2316.25
284.02	2271.20
284.23	2291.68
284.45	2199.52
284.66	2201.57
284.88	2179.04
285.09	2195.42
285.31	2289.63
285.52	2336.73
285.74	2174.94
285.95	2351.07
286.17	2269.15
286.38	2365.40
286.60	2160.61
286.81	2220.00
287.03	2183.13
287.24	2217.95
287.46	2293.72
287.67	2258.91
287.89	2383.84
288.10	2252.77
288.32	2207.71
288.53	2435.03
288.75	2248.67
288.96	2265.05
289.18	2179.04
289.39	2150.37
289.61	2297.82
289.82	2494.43
290.04	2432.99
290.25	2097.12
290.47	2256.86
290.68	2252.77
290.90	2375.64
291.11	2117.60
291.33	2283.49
291.54	2154.46
291.76	2187.23
291.97	2162.66
292.18	2275.29
292.40	2185.18
292.61	2133.98
292.83	2357.21
293.04	2287.58
293.26	2322.40
293.47	2256.86
293.69	2242.53
293.90	2197.47
294.12	2377.69
294.33	2279.39
294.55	2166.75
294.76	2301.92
294.97	2379.74
295.19	2459.61
295.40	2160.61
295.62	2222.05
295.83	2316.25
296.05	2248.67
296.26	2359.26
296.48	2154.46
296.69	2195.42
296.90	2220.00
297.12	2279.39
297.33	2408.41
297.55	2279.39
297.76	2355.16
297.98	2342.88
298.19	2285.53
298.41	2195.42
298.62	2113.50
298.83	2404.32
299.05	2260.96
299.26	2181.09
299.48	2121.70
299.69	2328.54
299.90	2263.01
300.12	2119.65
300.33	2318.30
300.55	2207.71
300.76	2209.76
300.98	2187.23
301.19	2310.11
301.40	2258.91
301.62	2203.61
301.83	2359.26
302.05	2299.87
302.26	2211.81
302.47	2283.49
302.69	2217.95
302.90	2355.16
303.12	2035.68
303.33	2232.29
303.54	2408.41
303.76	2220.00
303.97	2236.38
304.19	2369.50
304.40	2138.08
304.61	2404.32
304.83	2387.93
305.04	2336.73
305.26	2301.92
305.47	2199.52
305.68	2176.99
305.90	2170.85
306.11	2359.26
306.33	2224.09
306.54	2166.75
306.75	2176.99
306.97	2107.36
307.18	2195.42
307.39	2166.75
307.61	2301.92
307.82	2269.15
308.04	2291.68
308.25	2127.84
308.46	2220.00
308.68	2254.81
308.89	2277.34
309.10	2338.78
309.32	2318.30
309.53	2234.33
309.74	2328.54
309.96	2193.37
310.17	2471.90
310.39	2252.77
310.60	2322.40
310.81	2203.61
311.03	2166.75
311.24	2332.64
311.45	2277.34
311.67	2449.37
311.88	2242.53
312.09	2230.24
312.31	2207.71
312.52	2193.37
312.73	2154.46
312.95	2047.97
313.16	2201.57
313.37	2387.93
313.59	2281.44
313.80	2340.83
314.01	2496.47
314.23	2269.15
314.44	2146.27
314.65	2189.28
314.87	2222.05
315.08	2211.81
315.29	2207.71
315.51	2136.03
315.72	2052.06
315.93	2400.22
316.15	2310.11
316.36	2213.85
316.57	2234.33
316.79	2269.15
317.00	2195.42
317.21	2275.29
317.43	2179.04
317.64	2367.45
317.85	2203.61
318.07	2207.71
318.28	2170.85
318.49	2428.89
318.70	2422.75
318.92	2342.88
319.13	2398.17
319.34	2441.18
319.56	2295.77
319.77	2318.30
319.98	2363.36
320.20	2375.64
320.41	2318.30
320.62	2351.07
320.83	2117.60
321.05	2353.12
321.26	2232.29
321.47	2318.30
321.69	2371.55
321.90	2142.18
322.11	2242.53
322.32	2187.23
322.54	2459.61
322.75	2199.52
322.96	2596.82
323.18	2146.27
323.39	2080.74
323.60	2226.14
323.81	2375.64
324.03	2236.38
324.24	2287.58
324.45	2277.34
324.66	2224.09
324.88	2420.70
325.09	2412.51
325.30	2209.76
325.52	2236.38
325.73	2273.25
325.94	2158.56
326.15	2080.74
326.37	2156.51
326.58	2383.84
326.79	2396.12
327.00	2158.56
327.22	2295.77
327.43	2211.81
327.64	2117.60
327.85	2271.20
328.07	2310.11
328.28	2473.95
328.49	2176.99
328.70	2174.94
328.92	2203.61
329.13	2332.64
329.34	2291.68
329.55	2406.36
329.76	2416.60
329.98	2312.16
330.19	2422.75
330.40	2260.96
330.61	2267.10
330.83	2330.59
331.04	2144.22
331.25	2265.05
331.46	2168.80
331.68	2076.64
331.89	2367.45
332.10	2203.61
332.31	2144.22
332.52	2265.05
332.74	2344.92
332.95	2101.22
333.16	2199.52
333.37	2334.68
333.58	2142.18
333.80	2273.25
334.01	2027.49
334.22	2199.52
334.43	2232.29
334.64	2203.61
334.86	2129.89
335.07	2236.38
335.28	2461.66
335.49	2170.85
335.70	2355.16
335.92	2316.25
336.13	2533.34
336.34	2359.26
336.55	2209.76
336.76	2312.16
336.98	2093.02
337.19	2281.44
337.40	2324.44
337.61	2568.15
337.82	2303.96
338.04	2322.40
338.25	2062.30
338.46	2252.77
338.67	2193.37
338.88	2195.42
339.09	2131.94
339.31	2131.94
339.52	2174.94
339.73	2109.41
339.94	2228.19
340.15	2324.44
340.36	2207.71
340.58	2236.38
340.79	2238.43
341.00	2267.10
341.21	2125.79
341.42	2367.45
341.63	2269.15
341.85	2381.79
342.06	2242.53
342.27	2099.17
342.48	2297.82
342.69	2043.87
342.90	2332.64
343.12	2293.72
343.33	2187.23
343.54	2400.22
343.75	2318.30
343.96	2185.18
344.17	2150.37
344.38	2265.05
344.60	2133.98
344.81	2176.99
345.02	2183.13
345.23	2359.26
345.44	2539.48
345.65	2314.20
345.86	2228.19
346.07	2232.29
346.29	2195.42
346.50	2269.15
346.71	2275.29
346.92	2465.75
347.13	2555.86
347.34	2240.48
347.55	2242.53
347.76	2338.78
347.98	2129.89
348.19	2236.38
348.40	2408.41
348.61	2203.61
348.82	2449.37
349.03	2244.57
349.24	2117.60
349.45	2392.03
349.66	2023.39
349.88	2236.38
350.09	2191.33
350.30	2371.55
350.51	2406.36
350.72	2252.77
350.93	2203.61
351.14	2195.42
351.35	2306.01
351.56	2207.71
351.77	2197.47
351.99	2324.44
352.20	2400.22
352.41	2340.83
352.62	2064.35
352.83	2185.18
353.04	2338.78
353.25	2179.04
353.46	2314.20
353.67	2471.90
353.88	2088.93
354.09	2269.15
354.30	2267.10
354.52	2361.31
354.73	2172.89
354.94	2193.37
355.15	2226.14
355.36	2367.45
355.57	2187.23
355.78	2228.19
355.99	2099.17
356.20	2133.98
356.41	2299.87
356.62	2277.34
356.83	2310.11
357.04	2326.49
357.25	2140.13
357.46	2226.14
357.68	2076.64
357.89	2242.53
358.10	2170.85
358.31	2215.90
358.52	2242.53
358.73	2179.04
358.94	2158.56
359.15	2113.50
359.36	2293.72
359.57	2189.28
359.78	2211.81
359.99	2254.81
360.20	2179.04
360.41	2258.91
360.62	2344.92
360.83	2195.42
361.04	2254.81
361.25	2392.03
361.46	2457.56
361.67	2349.02
361.88	2269.15
362.09	2441.18
362.30	2260.96
362.51	2195.42
362.72	2220.00
362.93	2351.07
363.14	2351.07
363.35	2269.15
363.56	2113.50
363.78	2340.83
363.99	2293.72
364.20	2215.90
364.41	2228.19
364.62	2482.14
364.83	2285.53
365.04	2242.53
365.25	2224.09
365.46	2482.14
365.67	2160.61
365.88	2207.71
366.09	2144.22
366.30	2285.53
366.51	2310.11
366.72	2125.79
366.93	2226.14
367.14	2306.01
367.35	2398.17
367.56	2250.72
367.77	2342.88
367.98	2285.53
368.18	2338.78
368.39	2324.44
368.60	2164.70
368.81	2357.21
369.02	2330.59
369.23	2168.80
369.44	2084.83
369.65	2158.56
369.86	2303.96
370.07	2258.91
370.28	2150.37
370.49	2394.08
370.70	2263.01
370.91	2117.60
371.12	2072.54
371.33	2308.06
371.54	2209.76
371.75	2381.79
371.96	2133.98
372.17	2301.92
372.38	2244.57
372.59	2299.87
372.80	2293.72
373.01	2160.61
373.22	2252.77
373.43	2306.01
373.64	2138.08
373.85	2469.85
374.06	2416.60
374.26	2338.78
374.47	2248.67
374.68	2363.36
374.89	2314.20
375.10	2174.94
375.31	2265.05
375.52	2275.29
375.73	2275.29
375.94	2078.69
376.15	2361.31
376.36	2211.81
376.57	2154.46
376.78	2220.00
376.99	2185.18
377.20	2471.90
377.40	2301.92
377.61	2514.91
377.82	2162.66
378.03	2383.84
378.24	2408.41
378.45	2191.33
378.66	2215.90
378.87	2121.70
379.08	2150.37
379.29	2203.61
379.50	2353.12
379.71	2105.31
379.91	2314.20
380.12	2179.04
380.33	2265.05
380.54	2232.29
380.75	2172.89
380.96	2211.81
381.17	2344.92
381.38	2199.52
381.59	2258.91
381.80	2240.48
382.00	2412.51
382.21	2277.34
382.42	2521.05
382.63	2512.86
382.84	2357.21
383.05	2357.21
383.26	2469.85
383.47	2299.87
383.68	2283.49
383.88	2353.12
384.09	2220.00
384.30	2484.19
384.51	2338.78
384.72	2236.38
384.93	2115.55
385.14	2162.66
385.35	2408.41
385.55	2131.94
385.76	2326.49
385.97	2248.67
386.18	2140.13
386.39	2166.75
386.60	2211.81
386.81	2152.42
387.02	2146.27
387.22	2179.04
387.43	2414.56
387.64	2342.88
387.85	2400.22
388.06	2441.18
388.27	3917.76
388.48	8091.52
388.68	11571.02
388.89	13791.02
389.10	15040.28
389.31	13680.43
389.52	10991.45
389.73	9496.43
389.93	8712.06
390.14	7831.43
390.35	7063.44
390.56	6297.50
390.77	5242.80
390.98	3991.49
391.18	3299.28
391.39	2699.22
391.60	2326.49
391.81	2306.01
392.02	2252.77
392.23	2471.90
392.43	2314.20
392.64	2330.59
392.85	2267.10
393.06	2521.05
393.27	2242.53
393.47	2119.65
393.68	2242.53
393.89	2240.48
394.10	2455.51
394.31	2203.61
394.52	2193.37
394.72	2166.75
394.93	2439.13
395.14	2195.42
395.35	2252.77
395.56	2150.37
395.76	2269.15
395.97	2236.38
396.18	2402.27
396.39	2412.51
396.60	2775.00
396.80	2529.24
397.01	2383.84
397.22	2457.56
397.43	2461.66
397.64	2269.15
397.84	2375.64
398.05	2539.48
398.26	2289.63
398.47	2385.88
398.67	2301.92
398.88	2211.81
399.09	2326.49
399.30	2222.05
399.51	2269.15
399.71	2220.00
399.92	2162.66
400.13	2373.60
400.34	2236.38
400.54	2273.25
400.75	2420.70
400.96	2291.68
401.17	2406.36
401.37	2301.92
401.58	2234.33
401.79	2269.15
402.00	2351.07
402.21	2695.13
402.41	2574.30
402.62	2609.11
402.83	2703.32
403.04	2672.60
403.24	2809.81
403.45	2346.97
403.66	2564.06
403.87	2453.47
404.07	2537.43
404.28	2549.72
404.49	2471.90
404.70	2363.36
404.90	2392.03
405.11	2322.40
405.32	2355.16
405.52	2217.95
405.73	2195.42
405.94	2109.41
406.15	2203.61
406.35	2367.45
406.56	2273.25
406.77	2303.96
406.98	2232.29
407.18	2252.77
407.39	2400.22
407.60	2242.53
407.80	2310.11
408.01	2260.96
408.22	2297.82
408.43	2205.66
408.63	2252.77
408.84	2322.40
409.05	2293.72
409.25	2183.13
409.46	2101.22
409.67	2226.14
409.88	2097.12
410.08	2273.25
410.29	2232.29
410.50	2318.30
410.70	2316.25
410.91	2136.03
411.12	2283.49
411.32	2279.39
411.53	2195.42
411.74	2328.54
411.95	2385.88
412.15	2314.20
412.36	2371.55
412.57	2342.88
412.77	2451.42
412.98	2244.57
413.19	2254.81
413.39	2363.36
413.60	2260.96
413.81	2404.32
414.01	2174.94
414.22	2269.15
414.43	2334.68
414.63	2162.66
414.84	2359.26
415.05	2258.91
415.25	2082.78
415.46	2334.68
415.67	2160.61
415.87	2269.15
416.08	2174.94
416.29	2265.05
416.49	2306.01
416.70	2269.15
416.91	2201.57
417.11	2355.16
417.32	2289.63
417.53	2330.59
417.73	2322.40
417.94	2148.32
418.15	2363.36
418.35	2267.10
418.56	2291.68
418.77	2508.76
418.97	2263.01
419.18	2252.77
419.38	2068.45
419.59	2250.72
419.80	2404.32
420.00	2244.57
420.21	2342.88
420.42	2430.94
420.62	2369.50
420.83	2209.76
421.04	2213.85
421.24	2230.24
421.45	2365.40
421.65	2240.48
421.86	2250.72
422.07	2312.16
422.27	2279.39
422.48	2240.48
422.69	2097.12
422.89	2256.86
423.10	2293.72
423.30	2119.65
423.51	2275.29
423.72	2293.72
423.92	2340.83
424.13	2193.37
424.33	2332.64
424.54	2250.72
424.75	2258.91
424.95	2428.89
425.16	2226.14
425.36	2162.66
425.57	2449.37
425.78	2344.92
425.98	2301.92
426.19	2205.66
426.39	2234.33
426.60	2252.77
426.81	2330.59
427.01	2199.52
427.22	2154.46
427.42	2121.70
427.63	2138.08
427.83	2412.51
428.04	2447.32
428.25	2496.47
428.45	2383.84
428.66	2383.84
428.86	2201.57
429.07	2189.28
429.28	2324.44
429.48	2271.20
429.69	2144.22
429.89	2297.82
430.10	2043.87
430.30	2297.82
430.51	2359.26
430.71	2179.04
430.92	2236.38
431.13	2160.61
431.33	2258.91
431.54	2318.30
431.74	2351.07
431.95	2457.56
432.15	2148.32
432.36	2220.00
432.56	2326.49
432.77	2484.19
432.98	2449.37
433.18	2252.77
433.39	2185.18
433.59	2211.81
433.80	2514.91
434.00	2535.39
434.21	2193.37
434.41	2189.28
434.62	2531.29
434.82	2129.89
435.03	2183.13
435.23	2234.33
435.44	2080.74
435.64	2205.66
435.85	2340.83
436.06	2404.32
436.26	2297.82
436.47	2226.14
436.67	2220.00
436.88	2269.15
437.08	2320.35
437.29	2287.58
437.49	2281.44
437.70	2318.30
437.90	2297.82
438.11	2500.57
438.31	2297.82
438.52	2445.27
438.72	2478.04
438.93	2531.29
439.13	2322.40
439.34	2387.93
439.54	2244.57
439.75	2363.36
439.95	2340.83
440.16	2234.33
440.36	2252.77
440.57	2238.43
440.77	2285.53
440.98	2301.92
441.18	2365.40
441.39	2289.63
441.59	2150.37
441.80	2465.75
442.00	2308.06
442.21	2396.12
442.41	2095.07
442.62	2351.07
442.82	2183.13
443.02	2248.67
443.23	2230.24
443.43	2209.76
443.64	2377.69
443.84	2209.76
444.05	2340.83
444.25	2293.72
444.46	2172.89
444.66	2269.15
444.87	2377.69
445.07	2107.36
445.28	2271.20
445.48	2424.80
445.69	2342.88
445.89	2537.43
446.09	2236.38
446.30	2527.19
446.50	2768.85
446.71	4458.43
446.91	5437.36
447.12	6401.95
447.32	6696.86
447.53	6215.59
447.73	5216.18
447.93	4571.07
448.14	4284.35
448.34	4132.80
448.55	3659.72
448.75	3526.60
448.96	3375.05
449.16	2979.79
449.36	2940.88
449.57	2539.48
449.77	2449.37
449.98	2215.90
450.18	2365.40
450.39	2322.40
450.59	2363.36
450.79	2250.72
451.00	2220.00
451.20	2392.03
451.41	2314.20
451.61	2248.67
451.81	2215.90
452.02	2252.77
452.22	2283.49
452.43	2205.66
452.63	2269.15
452.84	2289.63
453.04	2193.37
453.24	2314.20
453.45	2131.94
453.65	2252.77
453.86	2248.67
454.06	2297.82
454.26	2248.67
454.47	2179.04
454.67	2420.70
454.87	2342.88
455.08	2224.09
455.28	2396.12
455.49	2271.20
455.69	2199.52
455.89	2408.41
456.10	2396.12
456.30	2207.71
456.51	2310.11
456.71	2303.96
456.91	2236.38
457.12	2273.25
457.32	2328.54
457.52	2129.89
457.73	2316.25
457.93	2312.16
458.14	2176.99
458.34	2129.89
458.54	2301.92
458.75	2224.09
458.95	2318.30
459.15	2256.86
459.36	2211.81
459.56	2263.01
459.76	2553.82
459.97	2346.97
460.17	2248.67
460.37	2402.27
460.58	2322.40
460.78	2342.88
460.99	2168.80
461.19	2234.33
461.39	2199.52
461.60	2254.81
461.80	2285.53
462.00	2191.33
462.21	2269.15
462.41	2234.33
462.61	2168.80
462.82	2072.54
463.02	2260.96
463.22	2340.83
463.43	2383.84
463.63	2297.82
463.83	2375.64
464.04	2310.11
464.24	2277.34
464.44	2129.89
464.64	2301.92
464.85	2355.16
465.05	2267.10
465.25	2301.92
465.46	2252.77
465.66	2342.88
465.86	2324.44
466.07	2295.77
466.27	2222.05
466.47	2183.13
466.68	2127.84
466.88	2424.80
467.08	2392.03
467.29	2404.32
467.49	2277.34
467.69	2248.67
467.89	2326.49
468.10	2220.00
468.30	2297.82
468.50	2363.36
468.71	2447.32
468.91	2123.74
469.11	2340.83
469.31	2269.15
469.52	2150.37
469.72	2471.90
469.92	2392.03
470.13	2197.47
470.33	2240.48
470.53	2342.88
470.73	2559.96
470.94	2971.60
471.14	3112.91
471.34	3528.65
471.54	3321.81
471.75	3082.19
471.95	2760.66
472.15	2760.66
472.36	2758.61
472.56	2676.70
472.76	2703.32
472.96	2717.65
473.17	2514.91
473.37	2461.66
473.57	2330.59
473.77	2379.74
473.98	2308.06
474.18	2162.66
474.38	2602.97
474.58	2220.00
474.79	2199.52
474.99	2301.92
475.19	2400.22
475.39	2144.22
475.60	2287.58
475.80	2324.44
476.00	2308.06
476.20	2277.34
476.41	2277.34
476.61	2293.72
476.81	2271.20
477.01	2267.10
477.21	2437.08
477.42	2367.45
477.62	2203.61
477.82	2357.21
478.02	2172.89
478.23	2277.34
478.43	2217.95
478.63	2254.81
478.83	2220.00
479.03	2201.57
479.24	2367.45
479.44	2459.61
479.64	2152.42
479.84	2056.16
480.04	2166.75
480.25	2334.68
480.45	2240.48
480.65	2281.44
480.85	2422.75
481.06	2176.99
481.26	2285.53
481.46	2320.35
481.66	2326.49
481.86	2250.72
482.06	2377.69
482.27	2201.57
482.47	2232.29
482.67	2355.16
482.87	2172.89
483.07	2367.45
483.28	2220.00
483.48	2191.33
483.68	2170.85
483.88	2152.42
484.08	2103.26
484.29	2121.70
484.49	2281.44
484.69	2164.70
484.89	2467.80
485.09	2334.68
485.29	2293.72
485.50	2334.68
485.70	2281.44
485.90	2514.91
486.10	2379.74
486.30	2291.68
486.50	2398.17
486.71	2228.19
486.91	2289.63
487.11	2377.69
487.31	2148.32
487.51	2301.92
487.71	2179.04
487.91	2228.19
488.12	2156.51
488.32	2031.58
488.52	2172.89
488.72	2084.83
488.92	2349.02
489.12	2392.03
489.32	2334.68
489.53	2287.58
489.73	2166.75
489.93	2394.08
490.13	2252.77
490.33	2064.35
490.53	2324.44
490.73	2400.22
490.94	2185.18
491.14	2334.68
491.34	2367.45
491.54	2592.73
491.74	3213.26
491.94	3821.51
492.14	3956.68
492.34	4050.88
492.54	3715.02
492.75	3211.22
492.95	3153.87
493.15	2971.60
493.35	2867.16
493.55	2746.33
493.75	2742.23
493.95	2703.32
494.15	2533.34
494.35	2439.13
494.56	2293.72
494.76	2324.44
494.96	2287.58
495.16	2283.49
495.36	2299.87
495.56	2265.05
495.76	2181.09
495.96	2277.34
496.16	2213.85
496.36	2482.14
496.56	2185.18
496.77	2299.87
496.97	2263.01
497.17	2387.93
497.37	2072.54
497.57	2263.01
497.77	2228.19
497.97	2189.28
498.17	2220.00
498.37	2215.90
498.57	2306.01
498.77	2252.77
498.97	2353.12
499.17	2379.74
499.38	2332.64
499.58	2330.59
499.78	2326.49
499.98	2400.22
500.18	2252.77
500.38	2283.49
500.58	2469.85
500.78	2951.12
500.98	5259.18
501.18	7092.12
501.38	8816.51
501.58	9752.43
501.78	9566.06
501.98	7577.48
502.18	6305.70
502.38	5504.94
502.58	5136.31
502.78	4652.98
502.98	4468.67
503.18	4304.83
503.38	3946.44
503.59	3475.40
503.79	3135.44
503.99	2971.60
504.19	2838.48
504.39	2850.77
504.59	2818.00
504.79	2764.76
504.99	2861.01
505.19	2506.71
505.39	2480.09
505.59	2654.17
505.79	2564.06
505.99	2385.88
506.19	2338.78
506.39	2490.33
506.59	2238.43
506.79	2326.49
506.99	2310.11
507.19	2281.44
507.39	2260.96
507.59	2123.74
507.79	2203.61
507.99	2240.48
508.19	2334.68
508.39	2283.49
508.59	2250.72
508.79	2445.27
508.99	2498.52
509.19	2183.13
509.39	2342.88
509.59	2224.09
509.79	2199.52
509.99	2320.35
510.19	2406.36
510.39	2308.06
510.59	2244.57
510.79	2207.71
510.99	2138.08
511.19	2224.09
511.39	2523.10
511.59	2365.40
511.79	2396.12
511.99	2326.49
512.19	2432.99
512.38	2291.68
512.58	2179.04
512.78	2195.42
512.98	2398.17
513.18	2453.47
513.38	2136.03
513.58	2306.01
513.78	2328.54
513.98	2248.67
514.18	2244.57
514.38	2275.29
514.58	2342.88
514.78	2267.10
514.98	2211.81
515.18	2215.90
515.38	2084.83
515.58	2435.03
515.78	2209.76
515.98	2291.68
516.18	2334.68
516.38	2285.53
516.57	2258.91
516.77	2166.75
516.97	2359.26
517.17	2250.72
517.37	2105.31
517.57	2318.30
517.77	2293.72
517.97	2295.77
518.17	2267.10
518.37	2160.61
518.57	2267.10
518.77	2215.90
518.97	2217.95
519.16	2244.57
519.36	2449.37
519.56	2256.86
519.76	2342.88
519.96	2263.01
520.16	2525.15
520.36	2209.76
520.56	2365.40
520.76	2306.01
520.96	2201.57
521.16	2359.26
521.35	2351.07
521.55	2447.32
521.75	2242.53
521.95	2211.81
522.15	2242.53
522.35	2111.46
522.55	2187.23
522.75	2306.01
522.95	2154.46
523.14	2187.23
523.34	2234.33
523.54	2156.51
523.74	2342.88
523.94	2174.94
524.14	2170.85
524.34	2297.82
524.54	2375.64
524.73	2254.81
524.93	2279.39
525.13	2244.57
525.33	2228.19
525.53	2424.80
525.73	2336.73
525.93	2252.77
526.13	2299.87
526.32	2279.39
526.52	2338.78
526.72	2340.83
526.92	2291.68
527.12	2213.85
527.32	2138.08
527.52	2291.68
527.71	2299.87
527.91	2228.19
528.11	2236.38
528.31	2295.77
528.51	2170.85
528.71	2330.59
528.90	2338.78
529.10	2357.21
529.30	2363.36
529.50	1974.24
529.70	2277.34
529.90	2228.19
530.09	2291.68
530.29	2107.36
530.49	2234.33
530.69	2547.67
530.89	2244.57
531.09	2389.98
531.28	2217.95
531.48	2451.42
531.68	2297.82
531.88	2260.96
532.08	2330.59
532.28	2199.52
532.47	2285.53
532.67	2359.26
532.87	2396.12
533.07	2220.00
533.27	2285.53
533.46	2287.58
533.66	2330.59
533.86	2275.29
534.06	2301.92
534.26	2242.53
534.45	2246.62
534.65	2422.75
534.85	2385.88
535.05	2263.01
535.25	2338.78
535.44	2150.37
535.64	2342.88
535.84	2220.00
536.04	2244.57
536.24	2185.18
536.43	2193.37
536.63	2379.74
536.83	2240.48
537.03	2213.85
537.22	2140.13
537.42	2138.08
537.62	2252.77
537.82	2181.09
538.02	2426.84
538.21	2344.92
538.41	2549.72
538.61	2273.25
538.81	2220.00
539.00	2404.32
539.20	2115.55
539.40	2236.38
539.60	2336.73
539.79	2387.93
539.99	2258.91
540.19	2240.48
540.39	2248.67
540.58	2291.68
540.78	2379.74
540.98	2236.38
541.18	2377.69
541.37	2400.22
541.57	2254.81
541.77	2351.07
541.97	2127.84
542.16	2191.33
542.36	2207.71
542.56	2197.47
542.76	2402.27
542.95	2357.21
543.15	2330.59
543.35	2344.92
543.54	2193.37
543.74	2277.34
543.94	2375.64
544.14	2193.37
544.33	2322.40
544.53	2248.67
544.73	2273.25
544.93	2273.25
545.12	2232.29
545.32	2260.96
545.52	2273.25
545.71	2138.08
545.91	2265.05
546.11	2193.37
546.30	2172.89
546.50	2263.01
546.70	2308.06
546.90	2269.15
547.09	2086.88
547.29	2174.94
547.49	2359.26
547.68	2193.37
547.88	2203.61
548.08	2330.59
548.27	2789.33
548.47	2162.66
548.67	2275.29
548.87	2242.53
549.06	2291.68
549.26	2211.81
549.46	2332.64
549.65	2263.01
549.85	2330.59
550.05	2326.49
550.24	2162.66
550.44	2269.15
550.64	2326.49
550.83	2252.77
551.03	2387.93
551.23	2394.08
551.42	2320.35
551.62	2215.90
551.82	2248.67
552.01	2179.04
552.21	2394.08
552.41	2289.63
552.60	2424.80
552.80	2295.77
553.00	2193.37
553.19	2277.34
553.39	2414.56
553.59	2138.08
553.78	2297.82
553.98	2254.81
554.17	2138.08
554.37	2256.86
554.57	2301.92
554.76	2162.66
554.96	2314.20
555.16	2293.72
555.35	2291.68
555.55	2293.72
555.75	2361.31
555.94	2332.64
556.14	2121.70
556.33	2369.50
556.53	2301.92
556.73	2332.64
556.92	2340.83
557.12	2389.98
557.32	2410.46
557.51	2432.99
557.71	2340.83
557.90	2426.84
558.10	2424.80
558.30	2289.63
558.49	2203.61
558.69	2275.29
558.88	2283.49
559.08	2320.35
559.28	2236.38
559.47	2297.82
559.67	2418.65
559.86	2494.43
560.06	2283.49
560.26	2254.81
560.45	2346.97
560.65	2213.85
560.84	2308.06
561.04	2220.00
561.24	2310.11
561.43	2224.09
561.63	2408.41
561.82	2322.40
562.02	2349.02
562.22	2150.37
562.41	2152.42
562.61	2220.00
562.80	2158.56
563.00	2461.66
563.19	2244.57
563.39	2318.30
563.59	2301.92
563.78	2211.81
563.98	2113.50
564.17	2203.61
564.37	2099.17
564.56	2306.01
564.76	2125.79
564.96	2408.41
565.15	2373.60
565.35	2580.44
565.54	2203.61
565.74	2334.68
565.93	2383.84
566.13	2271.20
566.32	2220.00
566.52	2342.88
566.71	2322.40
566.91	2406.36
567.11	2367.45
567.30	2250.72
567.50	2351.07
567.69	2301.92
567.89	2220.00
568.08	2172.89
568.28	2303.96
568.47	2228.19
568.67	2293.72
568.86	2199.52
569.06	2355.16
569.25	2193.37
569.45	2148.32
569.64	2238.43
569.84	2244.57
570.04	2371.55
570.23	2224.09
570.43	2211.81
570.62	2318.30
570.82	2430.94
571.01	2105.31
571.21	2265.05
571.40	2254.81
571.60	2308.06
571.79	2338.78
571.99	2299.87
572.18	2187.23
572.38	2293.72
572.57	2191.33
572.77	2308.06
572.96	2502.62
573.16	2308.06
573.35	2240.48
573.55	2408.41
573.74	2402.27
573.94	2277.34
574.13	2252.77
574.33	2359.26
574.52	2412.51
574.71	2283.49
574.91	2389.98
575.10	2113.50
575.30	2228.19
575.49	2183.13
575.69	2254.81
575.88	2336.73
576.08	2326.49
576.27	2469.85
576.47	2301.92
576.66	2410.46
576.86	2414.56
577.05	2336.73
577.25	2373.60
577.44	2424.80
577.64	2187.23
577.83	2410.46
578.02	2250.72
578.22	2344.92
578.41	2496.47
578.61	2299.87
578.80	2207.71
579.00	2242.53
579.19	2193.37
579.39	2330.59
579.58	2396.12
579.77	2254.81
579.97	2441.18
580.16	2420.70
580.36	2547.67
580.55	2406.36
580.75	2351.07
580.94	2289.63
581.13	2361.31
581.33	2486.23
581.52	2353.12
581.72	2469.85
581.91	2469.85
582.11	2265.05
582.30	2316.25
582.49	2379.74
582.69	2432.99
582.88	2349.02
583.08	2285.53
583.27	2402.27
583.47	2301.92
583.66	2158.56
583.85	2197.47
584.05	2367.45
584.24	2426.84
584.44	2269.15
584.63	2449.37
584.82	2570.20
585.02	2400.22
585.21	2400.22
585.41	2432.99
585.60	2402.27
585.79	2555.86
585.99	2512.86
586.18	2461.66
586.37	3037.14
586.57	4497.34
586.76	13813.55
586.96	33046.02
587.15	46585.15
587.34	56132.78
587.54	61072.48
587.73	55774.38
587.93	39110.06
588.12	30297.65
588.31	23959.19
588.51	20801.22
588.70	19283.67
588.89	17309.43
589.09	15228.70
589.28	12836.67
589.47	10645.34
589.67	8372.10
589.86	6238.11
590.06	4739.00
590.25	3854.28
590.44	3139.54
590.64	2953.17
590.83	2641.88
591.02	2600.92
591.22	2301.92
591.41	2383.84
591.60	2303.96
591.80	2527.19
591.99	2160.61
592.18	2299.87
592.38	2373.60
592.57	2267.10
592.76	2389.98
592.96	2308.06
593.15	2240.48
593.34	2449.37
593.54	2332.64
593.73	2244.57
593.92	2326.49
594.12	2351.07
594.31	2357.21
594.50	2455.51
594.70	2408.41
594.89	2576.34
595.08	2205.66
595.28	2363.36
595.47	2650.07
595.66	2441.18
595.86	2170.85
596.05	2179.04
596.24	2301.92
596.43	2498.52
596.63	2398.17
596.82	2346.97
597.01	2381.79
597.21	2420.70
597.40	2346.97
597.59	2328.54
597.79	2336.73
597.98	2396.12
598.17	2320.35
598.36	2254.81
598.56	2447.32
598.75	2232.29
598.94	2310.11
599.14	2287.58
599.33	2306.01
599.52	2361.31
599.71	2330.59
599.91	2340.83
600.10	2342.88
600.29	2330.59
600.48	2277.34
600.68	2281.44
600.87	2303.96
601.06	2140.13
601.26	2297.82
601.45	2328.54
601.64	2277.34
601.83	2437.08
602.03	2260.96
602.22	2121.70
602.41	2437.08
602.60	2564.06
602.80	2285.53
602.99	2275.29
603.18	2281.44
603.37	2359.26
603.57	2293.72
603.76	2316.25
603.95	2359.26
604.14	2224.09
604.34	2248.67
604.53	2232.29
604.72	2324.44
604.91	2310.11
605.10	2265.05
605.30	2142.18
605.49	2441.18
605.68	2316.25
605.87	2291.68
606.07	2248.67
606.26	2373.60
606.45	2316.25
606.64	2283.49
606.84	2203.61
607.03	2238.43
607.22	2357.21
607.41	2299.87
607.60	2267.10
607.80	2428.89
607.99	2260.96
608.18	2283.49
608.37	2340.83
608.56	2127.84
608.76	2318.30
608.95	2482.14
609.14	2383.84
609.33	2441.18
609.52	2435.03
609.72	2357.21
609.91	2406.36
610.10	2234.33
610.29	2447.32
610.48	2340.83
610.68	2338.78
610.87	2203.61
611.06	2392.03
611.25	2273.25
611.44	2398.17
611.63	2260.96
611.83	2389.98
612.02	2154.46
612.21	2330.59
612.40	2111.46
612.59	2129.89
612.79	2238.43
612.98	2285.53
613.17	2451.42
613.36	2254.81
613.55	2527.19
613.74	2301.92
613.93	2363.36
614.13	2478.04
614.32	2504.67
614.51	2367.45
614.70	2430.94
614.89	2344.92
615.08	2394.08
615.28	2805.72
615.47	2271.20
615.66	2400.22
615.85	2256.86
616.04	2484.19
616.23	2248.67
616.42	2289.63
616.62	2326.49
616.81	2381.79
617.00	2220.00
617.19	2316.25
617.38	2244.57
617.57	2265.05
617.76	2353.12
617.95	2336.73
618.15	2250.72
618.34	2467.80
618.53	2129.89
618.72	2369.50
618.91	2338.78
619.10	2342.88
619.29	2308.06
619.48	2258.91
619.68	2193.37
619.87	2283.49
620.06	2162.66
620.25	2291.68
620.44	2201.57
620.63	2232.29
620.82	2295.77
621.01	2299.87
621.20	2195.42
621.39	2322.40
621.59	2383.84
621.78	2301.92
621.97	2285.53
622.16	2326.49
622.35	2273.25
622.54	2437.08
622.73	2430.94
622.92	2129.89
623.11	2359.26
623.30	2220.00
623.49	2289.63
623.68	2230.24
623.88	2457.56
624.07	2289.63
624.26	2176.99
624.45	2220.00
624.64	2217.95
624.83	2334.68
625.02	2215.90
625.21	2228.19
625.40	2277.34
625.59	2355.16
625.78	2246.62
625.97	2392.03
626.16	2422.75
626.35	2443.23
626.54	2424.80
626.74	2478.04
626.93	2232.29
627.12	2263.01
627.31	2387.93
627.50	2363.36
627.69	2303.96
627.88	2275.29
628.07	2242.53
628.26	2129.89
628.45	2220.00
628.64	2215.90
628.83	2232.29
629.02	2148.32
629.21	2326.49
629.40	2303.96
629.59	2220.00
629.78	2252.77
629.97	2275.29
630.16	2256.86
630.35	2260.96
630.54	2334.68
630.73	2176.99
630.92	2316.25
631.11	2111.46
631.30	2263.01
631.49	2351.07
631.68	2265.05
631.87	2269.15
632.06	2097.12
632.25	2435.03
632.44	2283.49
632.63	2326.49
632.82	2244.57
633.01	2211.81
633.20	2269.15
633.39	2338.78
633.58	2195.42
633.77	2334.68
633.96	2334.68
634.15	2281.44
634.34	2383.84
634.53	2283.49
634.72	2238.43
634.91	2176.99
635.10	2332.64
635.29	2310.11
635.48	2303.96
635.67	2224.09
635.86	2131.94
636.05	2437.08
636.24	2301.92
636.43	2244.57
636.62	2330.59
636.81	2041.82
637.00	2295.77
637.19	2258.91
637.38	2291.68
637.57	2220.00
637.76	2361.31
637.95	2445.27
638.14	2283.49
638.33	2338.78
638.52	2320.35
638.71	2138.08
638.89	2209.76
639.08	2619.35
639.27	2451.42
639.46	2482.14
639.65	2826.20
639.84	2803.67
640.03	3020.75
640.22	2938.84
640.41	2824.15
640.60	2574.30
640.79	2570.20
640.98	2457.56
641.17	2432.99
641.36	2457.56
641.55	2400.22
641.74	2273.25
641.92	2312.16
642.11	2258.91
642.30	2236.38
642.49	2246.62
642.68	2199.52
642.87	2256.86
643.06	2346.97
643.25	2179.04
643.44	2168.80
643.63	2293.72
643.82	2287.58
644.00	2234.33
644.19	2209.76
644.38	2129.89
644.57	2310.11
644.76	2326.49
644.95	2211.81
645.14	2248.67
645.33	2275.29
645.52	2287.58
645.71	2146.27
645.89	2195.42
646.08	2224.09
646.27	2236.38
646.46	2428.89
646.65	2154.46
646.84	2281.44
647.03	2050.02
647.22	2342.88
647.40	2303.96
647.59	2279.39
647.78	2097.12
647.97	2179.04
648.16	2213.85
648.35	2361.31
648.54	2383.84
648.73	2193.37
648.91	2346.97
649.10	2314.20
649.29	2140.13
649.48	2248.67
649.67	2342.88
649.86	2322.40
650.05	2322.40
650.23	2514.91
650.42	2349.02
650.61	2541.53
650.80	2432.99
650.99	2598.87
651.18	2344.92
651.36	2424.80
651.55	2209.76
651.74	2420.70
651.93	2168.80
652.12	2260.96
652.31	2340.83
652.49	2273.25
652.68	2220.00
652.87	2426.84
653.06	2316.25
653.25	2469.85
653.44	2379.74
653.62	2449.37
653.81	2310.11
654.00	2293.72
654.19	2439.13
654.38	2559.96
654.56	2355.16
654.75	2187.23
654.94	2328.54
655.13	2244.57
655.32	2240.48
655.51	2396.12
655.69	2158.56
655.88	2344.92
656.07	2166.75
656.26	2287.58
656.45	2181.09
656.63	2195.42
656.82	2250.72
657.01	2293.72
657.20	2187.23
657.38	2400.22
657.57	2236.38
657.76	2156.51
657.95	2373.60
658.14	2185.18
658.32	2291.68
658.51	2136.03
658.70	2281.44
658.89	2328.54
659.08	2236.38
659.26	2340.83
659.45	2232.29
659.64	2392.03
659.83	2252.77
660.01	2645.98
660.20	2279.39
660.39	2334.68
660.58	2072.54
660.76	2303.96
660.95	2113.50
661.14	2258.91
661.33	2152.42
661.51	2213.85
661.70	2199.52
661.89	2353.12
662.08	2230.24
662.26	2164.70
662.45	2170.85
662.64	2416.60
662.83	2342.88
663.01	2111.46
663.20	2203.61
663.39	2445.27
663.58	2297.82
663.76	2310.11
663.95	2342.88
664.14	2211.81
664.32	2291.68
664.51	2203.61
664.70	2152.42
664.89	2310.11
665.07	2133.98
665.26	2371.55
665.45	2162.66
665.64	2349.02
665.82	2179.04
666.01	2285.53
666.20	2201.57
666.38	2336.73
666.57	2330.59
666.76	3352.52
666.95	8032.13
667.13	16228.10
667.32	21094.08
667.51	24626.82
667.69	26551.91
667.88	24327.82
668.07	17127.16
668.25	13776.69
668.44	11423.57
668.63	9744.24
668.81	8746.87
669.00	7772.04
669.19	6793.11
669.38	6055.84
669.56	5005.24
669.75	4292.54
669.94	3706.82
670.12	3084.24
670.31	2762.71
670.50	2580.44
670.68	2498.52
670.87	2392.03
671.06	2363.36
671.24	2389.98
671.43	2461.66
671.62	2406.36
671.80	2152.42
671.99	2408.41
672.18	2217.95
672.36	2357.21
672.55	2260.96
672.74	2258.91
672.92	2170.85
673.11	2340.83
673.29	2172.89
673.48	2289.63
673.67	2230.24
673.85	2349.02
674.04	2228.19
674.23	2291.68
674.41	2441.18
674.60	2230.24
674.79	2142.18
674.97	2181.09
675.16	2260.96
675.34	2377.69
675.53	2236.38
675.72	2320.35
675.90	2414.56
676.09	2252.77
676.28	2230.24
676.46	2119.65
676.65	2273.25
676.83	2209.76
677.02	2285.53
677.21	2265.05
677.39	2392.03
677.58	2191.33
677.77	2277.34
677.95	2183.13
678.14	2246.62
678.32	2226.14
678.51	2099.17
678.70	2445.27
678.88	2193.37
679.07	2273.25
679.25	2220.00
679.44	2195.42
679.63	2185.18
679.81	2293.72
680.00	2381.79
680.18	2303.96
680.37	2377.69
680.55	2238.43
680.74	2129.89
680.93	2113.50
681.11	2301.92
681.30	2215.90
681.48	2310.11
681.67	2236.38
681.85	2355.16
682.04	2215.90
682.23	2375.64
682.41	2277.34
682.60	2269.15
682.78	2215.90
682.97	2197.47
683.15	2267.10
683.34	2269.15
683.53	2379.74
683.71	2101.22
683.90	2371.55
684.08	2392.03
684.27	2277.34
684.45	2308.06
684.64	2355.16
684.82	2295.77
685.01	2389.98
685.19	2279.39
685.38	2355.16
685.57	2246.62
685.75	2164.70
685.94	2117.60
686.12	2240.48
686.31	2201.57
686.49	2398.17
686.68	2088.93
686.86	2207.71
687.05	2260.96
687.23	2463.71
687.42	2283.49
687.60	2197.47
687.79	2310.11
687.97	2361.31
688.16	2408.41
688.34	2416.60
688.53	2152.42
688.71	2277.34
688.90	2432.99
689.08	2267.10
689.27	2113.50
689.45	2375.64
689.64	2258.91
689.82	2314.20
690.01	2394.08
690.19	2326.49
690.38	2256.86
690.56	2359.26
690.75	2164.70
690.93	2228.19
691.12	2183.13
691.30	2275.29
691.49	2234.33
691.67	2351.07
691.86	2467.80
692.04	2254.81
692.23	2252.77
692.41	2215.90
692.60	2559.96
692.78	2394.08
692.97	2318.30
693.15	2432.99
693.34	2461.66
693.52	2275.29
693.71	2179.04
693.89	2267.10
694.08	2015.20
694.26	2373.60
694.44	2383.84
694.63	2351.07
694.81	2125.79
695.00	2211.81
695.18	2377.69
695.37	2531.29
695.55	2252.77
695.74	2240.48
695.92	2191.33
696.10	2310.11
696.29	2095.07
696.47	2240.48
696.66	2111.46
696.84	2201.57
697.03	2316.25
697.21	2449.37
697.40	3289.04
697.58	2375.64
697.76	2168.80
697.95	2179.04
698.13	2162.66
698.32	2287.58
698.50	2293.72
698.68	2334.68
698.87	2246.62
699.05	2371.55
699.24	2232.29
699.42	2093.02
699.61	2297.82
699.79	2289.63
699.97	2273.25
700.16	2097.12
700.34	2191.33
700.53	2306.01
700.71	2328.54
700.89	2326.49
701.08	2234.33
701.26	2281.44
701.45	2824.15
701.63	2238.43
701.81	2228.19
702.00	2222.05
702.18	2334.68
702.37	2195.42
702.55	2543.58
702.73	2512.86
702.92	2328.54
703.10	2605.02
703.28	2506.71
703.47	2242.53
703.65	2424.80
703.84	2404.32
704.02	2226.14
704.20	2449.37
704.39	2308.06
704.57	2263.01
704.75	2365.40
704.94	2269.15
705.12	2359.26
705.30	2645.98
705.49	4468.67
705.67	10344.29
705.86	18118.38
706.04	21956.27
706.22	24729.22
706.41	25566.84
706.59	21778.10
706.77	15216.41
706.96	12894.01
707.14	11235.16
707.32	9662.32
707.51	8765.31
707.69	7309.20
707.87	5785.51
708.06	4616.12
708.24	3948.48
708.42	3147.73
708.61	2904.02
708.79	2453.47
708.97	2424.80
709.16	2340.83
709.34	2346.97
709.52	2195.42
709.71	2258.91
709.89	2344.92
710.07	2166.75
710.26	2203.61
710.44	2236.38
710.62	2449.37
710.80	2289.63
710.99	2310.11
711.17	2351.07
711.35	2123.74
711.54	2224.09
711.72	2346.97
711.90	2310.11
712.09	2318.30
712.27	2193.37
712.45	2293.72
712.63	2211.81
712.82	2299.87
713.00	2244.57
713.18	2291.68
713.37	2316.25
713.55	2320.35
713.73	2240.48
713.91	2334.68
714.10	2252.77
714.28	2236.38
714.46	2308.06
714.65	2289.63
714.83	2308.06
715.01	2273.25
715.19	2334.68
715.38	2201.57
715.56	2361.31
715.74	2172.89
715.92	2125.79
716.11	2412.51
716.29	2084.83
716.47	2234.33
716.65	2265.05
716.84	2136.03
717.02	2252.77
717.20	2121.70
717.38	2209.76
717.57	2265.05
717.75	2154.46
717.93	2285.53
718.11	2303.96
718.30	2170.85
718.48	2367.45
718.66	2340.83
718.84	2332.64
719.03	2277.34
719.21	2080.74
719.39	2424.80
719.57	2334.68
719.75	2373.60
719.94	2232.29
720.12	2252.77
720.30	2283.49
720.48	2326.49
720.67	2121.70
720.85	2168.80
721.03	2205.66
721.21	2228.19
721.39	2365.40
721.58	2220.00
721.76	2256.86
721.94	2310.11
722.12	2265.05
722.30	2383.84
722.49	2205.66
722.67	2232.29
722.85	2301.92
723.03	2166.75
723.21	2166.75
723.40	2271.20
723.58	2389.98
723.76	2416.60
723.94	2441.18
724.12	2400.22
724.30	2453.47
724.49	2383.84
724.67	2213.85
724.85	2428.89
725.03	2158.56
725.21	2310.11
725.40	2387.93
725.58	2201.57
725.76	2303.96
725.94	2271.20
726.12	2144.22
726.30	2285.53
726.49	2209.76
726.67	2183.13
726.85	2279.39
727.03	2521.05
727.21	3600.33
727.39	4992.95
727.57	5730.22
727.76	6315.94
727.94	6610.84
728.12	6356.90
728.30	5179.31
728.48	4407.23
728.66	4112.32
728.84	3731.40
729.03	3270.61
729.21	3045.33
729.39	2756.57
729.57	2512.86
729.75	2490.33
729.93	2363.36
730.11	2267.10
730.30	2277.34
730.48	2220.00
730.66	2457.56
730.84	2373.60
731.02	2254.81
731.20	2332.64
731.38	2269.15
731.56	2179.04
731.74	2136.03
731.93	2260.96
732.11	2258.91
732.29	2228.19
732.47	2287.58
732.65	2234.33
732.83	2488.28
733.01	2326.49
733.19	2187.23
733.37	2344.92
733.56	2349.02
733.74	2197.47
733.92	2369.50
734.10	2197.47
734.28	2269.15
734.46	2133.98
734.64	2283.49
734.82	2269.15
735.00	2158.56
735.18	2213.85
735.36	2285.53
735.54	2248.67
735.73	2293.72
735.91	2285.53
736.09	2285.53
736.27	2224.09
736.45	2269.15
736.63	2142.18
736.81	2201.57
736.99	2377.69
737.17	2324.44
737.35	2121.70
737.53	2275.29
737.71	2306.01
737.89	2389.98
738.07	2189.28
738.25	2187.23
738.43	2170.85
738.61	2215.90
738.80	2158.56
738.98	2121.70
739.16	2273.25
739.34	2156.51
739.52	2402.27
739.70	2252.77
739.88	2342.88
740.06	2291.68
740.24	2029.54
740.42	2359.26
740.60	2050.02
740.78	2238.43
740.96	2054.11
741.14	2203.61
741.32	2269.15
741.50	2142.18
741.68	2469.85
741.86	2445.27
742.04	2215.90
742.22	2156.51
742.40	2242.53
742.58	2263.01
742.76	2228.19
742.94	2359.26
743.12	2154.46
743.30	2263.01
743.48	2295.77
743.66	2189.28
743.84	2301.92
744.02	2267.10
744.20	2195.42
744.38	2226.14
744.56	2230.24
744.74	2508.76
744.92	2283.49
745.10	2416.60
745.28	2248.67
745.46	2389.98
745.64	2310.11
745.82	2301.92
746.00	2236.38
746.18	2359.26
746.36	2187.23
746.54	2226.14
746.72	2215.90
746.90	2199.52
747.08	2306.01
747.26	2224.09
747.44	2330.59
747.62	2373.60
747.80	2346.97
747.98	2344.92
748.15	2236.38
748.33	2424.80
748.51	2248.67
748.69	2375.64
748.87	2174.94
749.05	2238.43
749.23	2308.06
749.41	2271.20
749.59	2234.33
749.77	2353.12
749.95	2183.13
750.13	2232.29
750.31	2256.86
750.49	2203.61
750.67	2324.44
750.85	2408.41
751.03	2306.01
751.20	2430.94
751.38	2281.44
751.56	2228.19
751.74	2228.19
751.92	2230.24
752.10	2185.18
752.28	2422.75
752.46	2176.99
752.64	2281.44
752.82	2271.20
753.00	2385.88
753.18	2205.66
753.35	2187.23
753.53	2269.15
753.71	2209.76
753.89	2267.10
754.07	2222.05
754.25	2424.80
754.43	2222.05
754.61	2166.75
754.79	2267.10
754.97	2185.18
755.14	2404.32
755.32	2103.26
755.50	2265.05
755.68	2318.30
755.86	2156.51
756.04	2207.71
756.22	2056.16
756.40	2344.92
756.57	2332.64
756.75	2248.67
756.93	2463.71
757.11	2355.16
757.29	2197.47
757.47	2226.14
757.65	2097.12
757.82	2084.83
758.00	2142.18
758.18	2105.31
758.36	2215.90
758.54	2437.08
758.72	2107.36
758.90	2381.79
759.07	2306.01
759.25	2189.28
759.43	2228.19
759.61	2185.18
759.79	3059.67
759.97	2316.25
760.15	2220.00
760.32	2189.28
760.50	2316.25
760.68	2394.08
760.86	2140.13
761.04	2355.16
761.22	2308.06
761.39	2248.67
761.57	2359.26
761.75	2226.14
761.93	2340.83
762.11	2244.57
762.28	2342.88
762.46	2123.74
762.64	2340.83
762.82	2252.77
763.00	2179.04
763.18	2353.12
763.35	2142.18
763.53	2400.22
763.71	2258.91
763.89	2260.96
764.07	2308.06
764.24	2279.39
764.42	2357.21
764.60	2183.13
764.78	2283.49
764.96	2342.88
765.13	2254.81
765.31	2150.37
765.49	2291.68
765.67	2119.65
765.84	2162.66
766.02	2148.32
766.20	2062.30
766.38	2326.49
766.56	2246.62
766.73	2271.20
766.91	2277.34
767.09	2199.52
767.27	2299.87
767.44	2115.55
767.62	2306.01
767.80	2314.20
767.98	2228.19
768.15	2213.85
768.33	2359.26
768.51	2285.53
768.69	2222.05
768.87	2314.20
769.04	2236.38
769.22	2496.47
769.40	2383.84
769.58	2447.32
769.75	2332.64
769.93	2346.97
770.11	2258.91
770.28	2176.99
770.46	2338.78
770.64	2398.17
770.82	2228.19
770.99	2179.04
771.17	2334.68
771.35	2211.81
771.53	2179.04
771.70	2121.70
771.88	2269.15
772.06	2242.53
772.23	2269.15
772.41	2308.06
772.59	2267.10
772.77	2144.22
772.94	2226.14
773.12	2215.90
773.30	2277.34
773.47	2265.05
773.65	2351.07
773.83	2326.49
774.01	2248.67
774.18	2068.45
774.36	2201.57
774.54	2148.32
774.71	2314.20
774.89	2082.78
775.07	2080.74
775.24	2244.57
775.42	2187.23
775.60	2437.08
775.78	2252.77
775.95	2127.84
776.13	2142.18
776.31	1974.24
776.48	2254.81
776.66	2373.60
776.84	2170.85
777.01	2211.81
777.19	2101.22
777.37	2181.09
777.54	2312.16
777.72	2381.79
777.90	2228.19
778.07	2152.42
778.25	2521.05
778.43	2332.64
778.60	2273.25
778.78	2359.26
778.96	2387.93
779.13	2078.69
779.31	2310.11
779.49	2207.71
779.66	2281.44
779.84	2215.90
780.01	2258.91
780.19	2209.76
780.37	2383.84
780.54	2297.82
780.72	2205.66
780.90	2189.28
781.07	2220.00
781.25	2156.51
781.43	2289.63
781.60	2197.47
781.78	2365.40
781.95	2285.53
782.13	2168.80
782.31	2258.91
782.48	2113.50
782.66	2242.53
782.83	2484.19
783.01	2299.87
783.19	2359.26
783.36	2238.43
783.54	2121.70
783.72	2365.40
783.89	2244.57
784.07	2359.26
784.24	2234.33
784.42	2359.26
784.60	2195.42
784.77	2254.81
784.95	2093.02
785.12	2279.39
785.30	2289.63
785.47	2138.08
785.65	2203.61
785.83	2267.10
786.00	2127.84
786.18	2357.21
786.35	2037.73
786.53	2109.41
786.71	2318.30
786.88	2363.36
787.06	2260.96
787.23	2234.33
787.41	2154.46
787.58	2248.67
787.76	2111.46
787.94	2295.77
788.11	2287.58
788.29	2193.37
788.46	2105.31
788.64	2183.13
788.81	2152.42
788.99	2133.98
789.16	2119.65
789.34	2230.24
789.52	2185.18
789.69	2170.85
789.87	2019.30
790.04	2146.27
790.22	2308.06
790.39	2471.90
790.57	2084.83
790.74	2240.48
790.92	2285.53
791.09	2105.31
791.27	2168.80
791.44	2361.31
791.62	2260.96
791.79	2310.11
791.97	2240.48
792.15	2551.77
792.32	2330.59
792.50	2320.35
792.67	2422.75
792.85	2371.55
793.02	2195.42
793.20	2232.29
793.37	2152.42
793.55	2205.66
793.72	2246.62
793.90	2332.64
794.07	2215.90
794.25	2220.00
794.42	2279.39
794.60	2195.42
794.77	2346.97
794.95	2301.92
795.12	2328.54
795.30	2211.81
795.47	2070.50
795.65	2553.82
795.82	2324.44
796.00	2142.18
796.17	2273.25
796.34	2158.56
796.52	2295.77
796.69	2326.49
796.87	2285.53
797.04	2277.34
797.22	2383.84
797.39	2220.00
797.57	2263.01
797.74	2246.62
797.92	2316.25
798.09	2183.13
798.27	2396.12
798.44	2228.19
798.62	2191.33
798.79	2297.82
798.96	2267.10
799.14	2273.25
799.31	2531.29
799.49	2232.29
799.66	2277.34
799.84	2308.06
800.01	2150.37
800.19	2322.40
800.36	2123.74
800.53	2250.72
800.71	2344.92
800.88	2473.95
801.06	2146.27
801.23	2105.31
801.41	2254.81
801.58	2170.85
801.75	2115.55
801.93	2289.63
802.10	2297.82
802.28	2209.76
802.45	2299.87
802.63	2299.87
802.80	2394.08
802.97	2195.42
803.15	2267.10
803.32	2215.90
803.50	2187.23
803.67	2170.85
803.84	2170.85
804.02	2301.92
804.19	2201.57
804.37	1998.82
804.54	2125.79
804.71	2201.57
804.89	2209.76
805.06	2168.80
805.24	2088.93
805.41	2129.89
805.58	2283.49
805.76	2449.37
805.93	2242.53
806.10	2353.12
806.28	2308.06
806.45	2312.16
806.63	2314.20
806.80	2226.14
806.97	2240.48
807.15	2285.53
807.32	2240.48
807.49	2242.53
807.67	2201.57
807.84	2330.59
808.01	2185.18
808.19	2383.84
808.36	2471.90
808.54	2179.04
808.71	2187.23
808.88	2203.61
809.06	2330.59
809.23	2445.27
809.40	2189.28
809.58	2371.55
809.75	2250.72
809.92	2154.46
810.10	2422.75
810.27	2246.62
810.44	2359.26
810.62	2316.25
810.79	2285.53
810.96	2146.27
811.14	2187.23
811.31	2322.40
811.48	2303.96
811.66	2217.95
811.83	2224.09
812.00	2283.49
812.18	2238.43
812.35	2506.71
812.52	2207.71
812.69	2222.05
812.87	2105.31
813.04	2176.99
813.21	2236.38
813.39	2181.09
813.56	2082.78
813.73	2338.78
813.91	2111.46
814.08	2248.67
814.25	2297.82
814.42	2111.46
814.60	2187.23
814.77	2252.77
814.94	2217.95
815.12	2291.68
815.29	2383.84
815.46	2220.00
815.63	2224.09
815.81	2176.99
815.98	2209.76
816.15	2228.19
816.33	2252.77
816.50	2170.85
816.67	2250.72
816.84	2117.60
817.02	2236.38
817.19	2164.70
817.36	2326.49
817.53	2252.77
817.71	2131.94
817.88	2277.34
818.05	2222.05
818.22	2131.94
818.40	2424.80
818.57	2203.61
818.74	2287.58
818.91	2260.96
819.09	2242.53
819.26	2363.36
819.43	2170.85
819.60	2191.33
819.78	2260.96
819.95	2392.03
820.12	2197.47
820.29	2326.49
820.47	2344.92
820.64	2078.69
820.81	2037.73
820.98	2144.22
821.15	2174.94
821.33	2346.97
821.50	2121.70
821.67	2338.78
821.84	2228.19
822.02	2336.73
822.19	2273.25
822.36	2193.37
822.53	2234.33
822.70	2107.36
822.88	2222.05
823.05	2377.69
823.22	2191.33
823.39	2324.44
823.56	2228.19
823.74	2486.23
823.91	2170.85
824.08	2154.46
824.25	2127.84
824.42	2408.41
824.60	2211.81
824.77	2265.05
824.94	2303.96
825.11	2340.83
825.28	2121.70
825.45	2187.23
825.63	2322.40
825.80	2203.61
825.97	2224.09
826.14	2220.00
826.31	2072.54
826.48	2353.12
826.66	2097.12
826.83	2162.66
827.00	2191.33
827.17	2115.55
827.34	2220.00
827.51	2213.85
827.69	2179.04
827.86	2146.27
828.03	2260.96
828.20	2185.18
828.37	2119.65
828.54	2285.53
828.71	2148.32
828.89	2334.68
829.06	2236.38
829.23	2404.32
829.40	2203.61
829.57	2199.52
829.74	2330.59
829.91	2164.70
830.09	2146.27
830.26	2338.78
830.43	2379.74
830.60	2230.24
830.77	2332.64
830.94	2367.45
831.11	2275.29
831.28	2265.05
831.46	2318.30
831.63	2189.28
831.80	2334.68
831.97	2230.24
832.14	2226.14
832.31	2267.10
832.48	2334.68
832.65	2267.10
832.82	2220.00
832.99	2312.16
833.17	2168.80
833.34	2408.41
833.51	2211.81
833.68	2047.97
833.85	2344.92
834.02	2095.07
834.19	2256.86
834.36	2156.51
834.53	2281.44
834.70	2297.82
834.87	2248.67
835.04	2203.61
835.22	2260.96
835.39	2244.57
835.56	2119.65
835.73	2166.75
835.90	2396.12
836.07	2138.08
836.24	2301.92
836.41	2160.61
836.58	2187.23
836.75	2342.88
836.92	2138.08
837.09	2144.22
837.26	2299.87
837.43	2301.92
837.60	2303.96
837.77	2205.66
837.94	2340.83
838.12	2375.64
838.29	2215.90
838.46	2111.46
838.63	2076.64
838.80	2383.84
838.97	2260.96
839.14	2222.05
839.31	2330.59
839.48	2340.83
839.65	2207.71
839.82	2244.57
839.99	2260.96
840.16	2252.77
840.33	2127.84
840.50	2258.91
840.67	2226.14
840.84	1998.82
841.01	2226.14
841.18	2107.36
841.35	2224.09
841.52	2314.20
841.69	2381.79
841.86	2207.71
842.03	2226.14
842.20	2387.93
842.37	2193.37
842.54	2275.29
842.71	2277.34
842.88	2133.98
843.05	2269.15
843.22	2168.80
843.39	2381.79
843.56	2232.29
843.73	2172.89
843.90	2217.95
844.07	2265.05
844.24	2201.57
844.41	2316.25
844.58	2230.24
844.75	2281.44
844.92	2340.83
845.09	2189.28
845.26	2168.80
845.43	2408.41
845.60	2267.10
845.77	2236.38
845.94	2234.33
846.10	2353.12
846.27	2150.37
846.44	2064.35
846.61	2099.17
846.78	2293.72
846.95	2324.44
847.12	2209.76
847.29	2121.70
847.46	2158.56
847.63	2318.30
847.80	2195.42
847.97	2158.56
848.14	2435.03
848.31	2220.00
848.48	2113.50
848.65	2220.00
848.82	2224.09
848.98	2545.63
849.15	2301.92
849.32	2283.49
849.49	2363.36
849.66	2203.61
849.83	2244.57
850.00	2181.09
850.17	2289.63
850.34	2220.00
850.51	2084.83
850.68	2172.89
850.85	2506.71
851.01	2217.95
851.18	2185.18
851.35	2209.76
851.52	2340.83
851.69	2406.36
851.86	2117.60
852.03	2150.37
852.20	2353.12
852.37	2293.72
852.53	2093.02
852.70	2236.38
852.87	2195.42
853.04	2277.34
853.21	2207.71
853.38	2291.68
853.55	2408.41
853.72	2367.45
853.89	2064.35
854.05	2170.85
854.22	2181.09
854.39	2220.00
854.56	2238.43
854.73	2303.96
854.90	2148.32
855.07	2273.25
855.23	2109.41
855.40	2203.61
855.57	2252.77
855.74	2015.20
855.91	2443.23
856.08	2136.03
856.25	2209.76
856.41	2265.05
856.58	2129.89
856.75	2203.61
856.92	2101.22
857.09	2291.68
857.26	2095.07
857.42	2195.42
857.59	2342.88
857.76	2185.18
857.93	2289.63
858.10	2234.33
858.27	2154.46
858.43	2166.75
858.60	2121.70
858.77	2088.93
858.94	2183.13
859.11	2365.40
859.27	2168.80
859.44	2125.79
859.61	2559.96
859.78	2234.33
859.95	2203.61
860.12	2138.08
860.28	2506.71
860.45	2521.05
860.62	2211.81
860.79	2244.57
860.95	2215.90
861.12	2185.18
861.29	2133.98
861.46	2123.74
861.63	2314.20
861.79	2299.87
861.96	2140.13
862.13	2150.37
862.30	2353.12
862.47	2152.42
862.63	2043.87
862.80	2285.53
862.97	2365.40
863.14	2287.58
863.30	2195.42
863.47	2115.55
863.64	2349.02
863.81	2285.53
863.97	2199.52
864.14	2240.48
864.31	2220.00
864.48	2265.05
864.65	2170.85
864.81	2385.88
864.98	2273.25
865.15	2263.01
865.32	2236.38
865.48	2285.53
865.65	2453.47
865.82	2246.62
865.98	2281.44
866.15	2256.86
866.32	2252.77
866.49	2127.84
866.65	2279.39
866.82	2172.89
866.99	2293.72
867.16	2232.29
867.32	2097.12
867.49	2127.84
867.66	2236.38
867.83	2168.80
867.99	2179.04
868.16	2172.89
868.33	2088.93
868.49	2220.00
868.66	2166.75
868.83	2215.90
868.99	2285.53
869.16	2293.72
869.33	2326.49
869.50	2299.87
869.66	2250.72
869.83	2213.85
870.00	2064.35
870.16	2273.25
870.33	2220.00
870.50	2314.20
870.66	2252.77
870.83	2287.58
871.00	2242.53
871.17	2318.30
871.33	2224.09
871.50	2211.81
871.67	2201.57
871.83	2187.23
872.00	2293.72
872.17	2166.75
872.33	2457.56
872.50	2355.16
872.67	2107.36
872.83	2138.08
873.00	2242.53
873.17	2236.38
873.33	2330.59
873.50	2211.81
873.67	2217.95
873.83	2109.41
874.00	2174.94
874.16	2297.82
874.33	2187.23
874.50	2058.21
874.66	2191.33
874.83	2265.05
875.00	2441.18
875.16	2263.01
875.33	2312.16
875.50	2084.83
875.66	2181.09
875.83	2226.14
875.99	2240.48
876.16	2158.56
876.33	2207.71
876.49	2185.18
876.66	2287.58
876.83	2117.60
876.99	2119.65
877.16	2185.18
877.32	2252.77
877.49	2172.89
877.66	2271.20
877.82	2473.95
877.99	2199.52
878.15	2336.73
878.32	2314.20
878.49	2271.20
878.65	2277.34
878.82	2308.06
878.98	2097.12
879.15	2297.82
879.32	2273.25
879.48	2285.53
879.65	2295.77
879.81	2172.89
879.98	2144.22
880.15	2277.34
880.31	2303.96
880.48	2199.52
880.64	2357.21
880.81	2263.01
880.97	2475.99
881.14	2306.01
881.31	2123.74
881.47	2420.70
881.64	2254.81
881.80	2105.31
881.97	2215.90
882.13	2174.94
882.30	2228.19
882.47	2203.61
882.63	2150.37
882.80	2174.94
882.96	2195.42
883.13	2400.22
883.29	2209.76
883.46	2236.38
883.62	2428.89
883.79	2226.14
883.95	2316.25
884.12	2267.10
884.29	2326.49
884.45	2287.58
884.62	2222.05
884.78	2136.03
884.95	2441.18
885.11	2220.00
885.28	2277.34
885.44	2209.76
885.61	2228.19
885.77	2371.55
885.94	2256.86
886.10	2269.15
886.27	2254.81
886.43	2453.47
886.60	2285.53
886.76	2170.85
886.93	2183.13
887.09	2265.05
887.26	2125.79
887.42	2236.38
887.59	2383.84
887.75	2467.80
887.92	2334.68
888.08	2303.96
888.25	2392.03
888.41	2303.96
888.58	2176.99
888.74	2111.46
888.91	2220.00
>>>>>End Processed Spectral Data<<<<<
