SpectraSuite Data File
++++++++++++++++++++++++++++++++++++
Date: Thu May 05 13:21:15 CEST 2016
User: root
Dark Spectrum Present: No
Reference Spectrum Present: No
Number of Sampled Component Spectra: 1
Spectrometers: USB4C02835
Integration Time (usec): 100000 (USB4C02835)
Spectra Averaged: 1 (USB4C02835)
Boxcar Smoothing: 0 (USB4C02835)
Correct for Electrical Dark: No (USB4C02835)
Strobe/Lamp Enabled: No (USB4C02835)
Correct for Detector Non-linearity: No (USB4C02835)
Correct for Stray Light: No (USB4C02835)
Number of Pixels in Processed Spectrum: 3648
>>>>>Begin Processed Spectral Data<<<<<
177.47	1777.64
177.69	1777.64
177.91	1777.64
178.13	1822.69
178.36	1679.33
178.58	2138.08
178.80	2256.86
179.02	2066.40
179.24	2117.60
179.46	2117.60
179.68	2240.48
179.90	2146.27
180.13	2269.15
180.35	2107.36
180.57	2129.89
180.79	2353.12
181.01	2197.47
181.23	2201.57
181.45	2295.77
181.67	2330.59
181.90	2342.88
182.12	2146.27
182.34	2080.74
182.56	2316.25
182.78	2349.02
183.00	2209.76
183.22	2211.81
183.44	2047.97
183.66	2527.19
183.89	2310.11
184.11	2176.99
184.33	2289.63
184.55	2430.94
184.77	2209.76
184.99	2215.90
185.21	2201.57
185.43	2514.91
185.65	2207.71
185.87	2127.84
186.10	2506.71
186.32	2494.43
186.54	2179.04
186.76	2279.39
186.98	2396.12
187.20	2228.19
187.42	2242.53
187.64	2224.09
187.86	2293.72
188.08	2318.30
188.30	2129.89
188.52	2183.13
188.75	2389.98
188.97	2318.30
189.19	2097.12
189.41	2170.85
189.63	2314.20
189.85	2174.94
190.07	2054.11
190.29	2129.89
190.51	2273.25
190.73	2148.32
190.95	2258.91
191.17	2250.72
191.39	2144.22
191.61	2234.33
191.84	2146.27
192.06	2312.16
192.28	2148.32
192.50	2545.63
192.72	2260.96
192.94	2310.11
193.16	2281.44
193.38	2377.69
193.60	2105.31
193.82	2187.23
194.04	2275.29
194.26	2308.06
194.48	2222.05
194.70	2101.22
194.92	2236.38
195.14	2355.16
195.36	2113.50
195.58	2217.95
195.80	2224.09
196.02	2125.79
196.24	2111.46
196.46	2250.72
196.69	2267.10
196.91	2457.56
197.13	2230.24
197.35	2191.33
197.57	2359.26
197.79	2342.88
198.01	2234.33
198.23	2203.61
198.45	2299.87
198.67	2191.33
198.89	2080.74
199.11	2244.57
199.33	2189.28
199.55	2054.11
199.77	2179.04
199.99	2246.62
200.21	2246.62
200.43	2285.53
200.65	2105.31
200.87	2056.16
201.09	2242.53
201.31	2295.77
201.53	2248.67
201.75	2209.76
201.97	2301.92
202.19	2275.29
202.41	2297.82
202.63	2377.69
202.85	2306.01
203.07	2195.42
203.29	2138.08
203.51	2150.37
203.73	2168.80
203.95	2527.19
204.17	2211.81
204.39	2205.66
204.61	2199.52
204.83	2230.24
205.05	2244.57
205.27	2254.81
205.49	2473.95
205.71	2236.38
205.93	2050.02
206.15	2129.89
206.37	2279.39
206.59	2330.59
206.81	2138.08
207.03	2060.26
207.25	2150.37
207.47	2275.29
207.69	2183.13
207.91	2334.68
208.13	2426.84
208.34	2179.04
208.56	2150.37
208.78	2158.56
209.00	2176.99
209.22	2207.71
209.44	2166.75
209.66	2121.70
209.88	2275.29
210.10	2265.05
210.32	2187.23
210.54	2299.87
210.76	2236.38
210.98	2363.36
211.20	1994.72
211.42	2238.43
211.64	2324.44
211.86	2303.96
212.08	2162.66
212.30	2236.38
212.52	2185.18
212.74	2228.19
212.96	2195.42
213.17	2310.11
213.39	2322.40
213.61	2473.95
213.83	2201.57
214.05	2158.56
214.27	2318.30
214.49	2207.71
214.71	2146.27
214.93	2299.87
215.15	2250.72
215.37	2359.26
215.59	2084.83
215.81	2277.34
216.03	2359.26
216.24	2271.20
216.46	2148.32
216.68	2244.57
216.90	2330.59
217.12	2308.06
217.34	2142.18
217.56	2318.30
217.78	2449.37
218.00	2326.49
218.22	2260.96
218.44	2203.61
218.66	2314.20
218.87	2504.67
219.09	2236.38
219.31	2252.77
219.53	2250.72
219.75	2263.01
219.97	2197.47
220.19	2193.37
220.41	2240.48
220.63	2369.50
220.85	2252.77
221.06	2158.56
221.28	2383.84
221.50	2314.20
221.72	2179.04
221.94	2142.18
222.16	2316.25
222.38	2295.77
222.60	2209.76
222.82	2160.61
223.03	2326.49
223.25	2242.53
223.47	2195.42
223.69	2328.54
223.91	2365.40
224.13	2242.53
224.35	2152.42
224.57	2267.10
224.78	2373.60
225.00	2209.76
225.22	2187.23
225.44	2191.33
225.66	2301.92
225.88	2242.53
226.10	2252.77
226.32	2203.61
226.53	2416.60
226.75	2162.66
226.97	2170.85
227.19	2160.61
227.41	2236.38
227.63	2246.62
227.85	2043.87
228.06	2199.52
228.28	2138.08
228.50	2332.64
228.72	2090.98
228.94	2187.23
229.16	2064.35
229.37	2166.75
229.59	2152.42
229.81	2344.92
230.03	2252.77
230.25	2119.65
230.47	2099.17
230.69	2158.56
230.90	2381.79
231.12	2133.98
231.34	2181.09
231.56	2244.57
231.78	2191.33
232.00	2267.10
232.21	2168.80
232.43	2228.19
232.65	2041.82
232.87	2224.09
233.09	2121.70
233.30	2115.55
233.52	2365.40
233.74	2301.92
233.96	2187.23
234.18	2172.89
234.40	2308.06
234.61	2459.61
234.83	2113.50
235.05	2129.89
235.27	2559.96
235.49	2365.40
235.70	2095.07
235.92	2277.34
236.14	2383.84
236.36	2443.23
236.58	2072.54
236.79	2217.95
237.01	2203.61
237.23	2211.81
237.45	2336.73
237.67	2154.46
237.88	2314.20
238.10	2494.43
238.32	2007.01
238.54	2105.31
238.76	2283.49
238.97	2144.22
239.19	2172.89
239.41	2285.53
239.63	2418.65
239.85	2222.05
240.06	2209.76
240.28	2119.65
240.50	2332.64
240.72	2228.19
240.93	2176.99
241.15	2346.97
241.37	2189.28
241.59	2420.70
241.81	2213.85
242.02	2215.90
242.24	2228.19
242.46	2365.40
242.68	2117.60
242.89	2248.67
243.11	2381.79
243.33	2275.29
243.55	2195.42
243.76	2179.04
243.98	2176.99
244.20	2326.49
244.42	2193.37
244.64	2267.10
244.85	2097.12
245.07	2129.89
245.29	2211.81
245.51	2156.51
245.72	2254.81
245.94	2303.96
246.16	2172.89
246.38	2195.42
246.59	2168.80
246.81	2179.04
247.03	2170.85
247.24	2105.31
247.46	2197.47
247.68	2236.38
247.90	2138.08
248.11	2179.04
248.33	2283.49
248.55	2287.58
248.77	2152.42
248.98	2213.85
249.20	2406.36
249.42	2226.14
249.64	2179.04
249.85	2201.57
250.07	2183.13
250.29	2328.54
250.50	2191.33
250.72	2084.83
250.94	2215.90
251.16	2488.28
251.37	2258.91
251.59	2248.67
251.81	2322.40
252.02	2455.51
252.24	2123.74
252.46	2283.49
252.68	2086.88
252.89	2205.66
253.11	2080.74
253.33	2338.78
253.54	2416.60
253.76	2099.17
253.98	2207.71
254.20	2154.46
254.41	2121.70
254.63	2281.44
254.85	2033.63
255.06	2265.05
255.28	2418.65
255.50	2275.29
255.71	2138.08
255.93	2043.87
256.15	2164.70
256.36	2293.72
256.58	2119.65
256.80	2187.23
257.02	2228.19
257.23	2275.29
257.45	2189.28
257.67	2256.86
257.88	2201.57
258.10	2320.35
258.32	2154.46
258.53	2209.76
258.75	2396.12
258.97	2158.56
259.18	2176.99
259.40	2176.99
259.62	2568.15
259.83	2400.22
260.05	2226.14
260.27	2660.31
260.48	2260.96
260.70	2129.89
260.92	2080.74
261.13	2234.33
261.35	2238.43
261.57	2312.16
261.78	2039.78
262.00	2136.03
262.22	2318.30
262.43	2119.65
262.65	2187.23
262.86	2201.57
263.08	2531.29
263.30	2301.92
263.51	2074.59
263.73	2150.37
263.95	2330.59
264.16	2189.28
264.38	2127.84
264.60	2220.00
264.81	2197.47
265.03	2396.12
265.25	2310.11
265.46	2160.61
265.68	2340.83
265.89	2314.20
266.11	2107.36
266.33	2166.75
266.54	2375.64
266.76	2258.91
266.98	2242.53
267.19	2346.97
267.41	2381.79
267.62	2232.29
267.84	2035.68
268.06	2224.09
268.27	2303.96
268.49	2322.40
268.70	2220.00
268.92	2195.42
269.14	2162.66
269.35	2113.50
269.57	2217.95
269.79	2242.53
270.00	2260.96
270.22	2432.99
270.43	2088.93
270.65	2015.20
270.87	2283.49
271.08	2308.06
271.30	2244.57
271.51	2254.81
271.73	2299.87
271.95	2375.64
272.16	2170.85
272.38	2265.05
272.59	2158.56
272.81	2254.81
273.02	2187.23
273.24	2176.99
273.46	2385.88
273.67	2181.09
273.89	2121.70
274.10	2113.50
274.32	2308.06
274.54	2277.34
274.75	2248.67
274.97	2193.37
275.18	2308.06
275.40	2299.87
275.61	2179.04
275.83	2265.05
276.05	2174.94
276.26	2156.51
276.48	2205.66
276.69	2191.33
276.91	2195.42
277.12	2428.89
277.34	2318.30
277.55	2293.72
277.77	2277.34
277.99	2211.81
278.20	2220.00
278.42	2125.79
278.63	2176.99
278.85	2187.23
279.06	2174.94
279.28	2269.15
279.49	2340.83
279.71	2310.11
279.93	2244.57
280.14	2248.67
280.36	2097.12
280.57	2375.64
280.79	2328.54
281.00	2176.99
281.22	2191.33
281.43	2445.27
281.65	2031.58
281.86	2127.84
282.08	2271.20
282.29	2455.51
282.51	2119.65
282.73	2146.27
282.94	2047.97
283.16	2279.39
283.37	2400.22
283.59	2211.81
283.80	2238.43
284.02	2283.49
284.23	2234.33
284.45	2150.37
284.66	2170.85
284.88	2160.61
285.09	2240.48
285.31	2211.81
285.52	2334.68
285.74	2088.93
285.95	2342.88
286.17	2248.67
286.38	2353.12
286.60	2258.91
286.81	2121.70
287.03	2226.14
287.24	2293.72
287.46	2379.74
287.67	2179.04
287.89	2475.99
288.10	2160.61
288.32	2285.53
288.53	2387.93
288.75	2209.76
288.96	2326.49
289.18	2172.89
289.39	2176.99
289.61	2297.82
289.82	2459.61
290.04	2416.60
290.25	2131.94
290.47	2250.72
290.68	2162.66
290.90	2441.18
291.11	2133.98
291.33	2258.91
291.54	2138.08
291.76	2197.47
291.97	2332.64
292.18	2289.63
292.40	2136.03
292.61	2172.89
292.83	2357.21
293.04	2224.09
293.26	2322.40
293.47	2203.61
293.69	2174.94
293.90	2154.46
294.12	2344.92
294.33	2258.91
294.55	2164.70
294.76	2332.64
294.97	2439.13
295.19	2465.75
295.40	2203.61
295.62	2295.77
295.83	2379.74
296.05	2154.46
296.26	2351.07
296.48	2246.62
296.69	2258.91
296.90	2217.95
297.12	2273.25
297.33	2361.31
297.55	2242.53
297.76	2330.59
297.98	2342.88
298.19	2170.85
298.41	2211.81
298.62	2205.66
298.83	2400.22
299.05	2246.62
299.26	2220.00
299.48	2138.08
299.69	2314.20
299.90	2234.33
300.12	2150.37
300.33	2349.02
300.55	2191.33
300.76	2273.25
300.98	2095.07
301.19	2301.92
301.40	2172.89
301.62	2244.57
301.83	2275.29
302.05	2236.38
302.26	2176.99
302.47	2295.77
302.69	2183.13
302.90	2189.28
303.12	2066.40
303.33	2287.58
303.54	2473.95
303.76	2174.94
303.97	2258.91
304.19	2355.16
304.40	2152.42
304.61	2297.82
304.83	2392.03
305.04	2275.29
305.26	2215.90
305.47	2232.29
305.68	2220.00
305.90	2185.18
306.11	2359.26
306.33	2172.89
306.54	2074.59
306.75	2113.50
306.97	2115.55
307.18	2205.66
307.39	2166.75
307.61	2283.49
307.82	2197.47
308.04	2293.72
308.25	2201.57
308.46	2275.29
308.68	2301.92
308.89	2215.90
309.10	2244.57
309.32	2222.05
309.53	2220.00
309.74	2275.29
309.96	2176.99
310.17	2392.03
310.39	2187.23
310.60	2281.44
310.81	2267.10
311.03	2097.12
311.24	2242.53
311.45	2230.24
311.67	2357.21
311.88	2248.67
312.09	2215.90
312.31	2154.46
312.52	2250.72
312.73	2240.48
312.95	2127.84
313.16	2174.94
313.37	2375.64
313.59	2357.21
313.80	2310.11
314.01	2365.40
314.23	2256.86
314.44	2123.74
314.65	2129.89
314.87	2228.19
315.08	2146.27
315.29	2142.18
315.51	2203.61
315.72	2062.30
315.93	2371.55
316.15	2244.57
316.36	2195.42
316.57	2267.10
316.79	2324.44
317.00	2154.46
317.21	2308.06
317.43	2207.71
317.64	2275.29
317.85	2215.90
318.07	2217.95
318.28	2236.38
318.49	2406.36
318.70	2432.99
318.92	2424.80
319.13	2400.22
319.34	2473.95
319.56	2297.82
319.77	2340.83
319.98	2453.47
320.20	2326.49
320.41	2351.07
320.62	2357.21
320.83	2123.74
321.05	2447.32
321.26	2281.44
321.47	2248.67
321.69	2398.17
321.90	2070.50
322.11	2220.00
322.32	2269.15
322.54	2502.62
322.75	2166.75
322.96	2514.91
323.18	2170.85
323.39	2062.30
323.60	2191.33
323.81	2256.86
324.03	2164.70
324.24	2310.11
324.45	2267.10
324.66	2254.81
324.88	2420.70
325.09	2412.51
325.30	2240.48
325.52	2230.24
325.73	2275.29
325.94	2207.71
326.15	2047.97
326.37	2136.03
326.58	2453.47
326.79	2392.03
327.00	2176.99
327.22	2217.95
327.43	2258.91
327.64	2113.50
327.85	2293.72
328.07	2285.53
328.28	2416.60
328.49	2215.90
328.70	2232.29
328.92	2185.18
329.13	2220.00
329.34	2351.07
329.55	2469.85
329.76	2230.24
329.98	2265.05
330.19	2381.79
330.40	2295.77
330.61	2303.96
330.83	2297.82
331.04	2152.42
331.25	2232.29
331.46	2195.42
331.68	2164.70
331.89	2349.02
332.10	2260.96
332.31	2076.64
332.52	2232.29
332.74	2398.17
332.95	2113.50
333.16	2162.66
333.37	2314.20
333.58	2174.94
333.80	2213.85
334.01	2039.78
334.22	2314.20
334.43	2170.85
334.64	2207.71
334.86	2109.41
335.07	2158.56
335.28	2402.27
335.49	2047.97
335.70	2242.53
335.92	2308.06
336.13	2488.28
336.34	2332.64
336.55	2330.59
336.76	2295.77
336.98	2199.52
337.19	2179.04
337.40	2320.35
337.61	2545.63
337.82	2232.29
338.04	2330.59
338.25	2093.02
338.46	2238.43
338.67	2295.77
338.88	2168.80
339.09	2117.60
339.31	2252.77
339.52	2103.26
339.73	2146.27
339.94	2228.19
340.15	2281.44
340.36	2193.37
340.58	2260.96
340.79	2172.89
341.00	2314.20
341.21	2127.84
341.42	2363.36
341.63	2265.05
341.85	2326.49
342.06	2293.72
342.27	2136.03
342.48	2283.49
342.69	2181.09
342.90	2252.77
343.12	2306.01
343.33	2191.33
343.54	2344.92
343.75	2430.94
343.96	2256.86
344.17	2150.37
344.38	2254.81
344.60	2142.18
344.81	2146.27
345.02	2277.34
345.23	2369.50
345.44	2500.57
345.65	2308.06
345.86	2289.63
346.07	2244.57
346.29	2240.48
346.50	2271.20
346.71	2318.30
346.92	2459.61
347.13	2490.33
347.34	2289.63
347.55	2215.90
347.76	2340.83
347.98	2109.41
348.19	2330.59
348.40	2283.49
348.61	2176.99
348.82	2514.91
349.03	2301.92
349.24	2131.94
349.45	2447.32
349.66	2039.78
349.88	2205.66
350.09	2166.75
350.30	2398.17
350.51	2437.08
350.72	2226.14
350.93	2238.43
351.14	2101.22
351.35	2308.06
351.56	2193.37
351.77	2281.44
351.99	2338.78
352.20	2439.13
352.41	2285.53
352.62	2109.41
352.83	2281.44
353.04	2205.66
353.25	2185.18
353.46	2330.59
353.67	2344.92
353.88	2035.68
354.09	2250.72
354.30	2222.05
354.52	2357.21
354.73	2207.71
354.94	2127.84
355.15	2222.05
355.36	2394.08
355.57	2187.23
355.78	2187.23
355.99	2179.04
356.20	2215.90
356.41	2408.41
356.62	2299.87
356.83	2166.75
357.04	2324.44
357.25	2088.93
357.46	2285.53
357.68	2138.08
357.89	2140.13
358.10	2263.01
358.31	2228.19
358.52	2244.57
358.73	2101.22
358.94	2193.37
359.15	2232.29
359.36	2297.82
359.57	2217.95
359.78	2265.05
359.99	2330.59
360.20	2113.50
360.41	2217.95
360.62	2342.88
360.83	2260.96
361.04	2220.00
361.25	2324.44
361.46	2392.03
361.67	2314.20
361.88	2248.67
362.09	2299.87
362.30	2250.72
362.51	2136.03
362.72	2211.81
362.93	2357.21
363.14	2277.34
363.35	2224.09
363.56	2174.94
363.78	2410.46
363.99	2385.88
364.20	2154.46
364.41	2289.63
364.62	2451.42
364.83	2269.15
365.04	2154.46
365.25	2258.91
365.46	2398.17
365.67	2121.70
365.88	2148.32
366.09	2230.24
366.30	2258.91
366.51	2260.96
366.72	2203.61
366.93	2281.44
367.14	2328.54
367.35	2402.27
367.56	2248.67
367.77	2344.92
367.98	2215.90
368.18	2250.72
368.39	2217.95
368.60	2117.60
368.81	2326.49
369.02	2291.68
369.23	2211.81
369.44	2101.22
369.65	2226.14
369.86	2299.87
370.07	2199.52
370.28	2111.46
370.49	2228.19
370.70	2299.87
370.91	2195.42
371.12	2222.05
371.33	2369.50
371.54	2207.71
371.75	2342.88
371.96	2052.06
372.17	2238.43
372.38	2160.61
372.59	2310.11
372.80	2181.09
373.01	2246.62
373.22	2289.63
373.43	2187.23
373.64	2105.31
373.85	2457.56
374.06	2400.22
374.26	2326.49
374.47	2316.25
374.68	2420.70
374.89	2224.09
375.10	2179.04
375.31	2285.53
375.52	2240.48
375.73	2359.26
375.94	2148.32
376.15	2402.27
376.36	2244.57
376.57	2224.09
376.78	2174.94
376.99	2211.81
377.20	2359.26
377.40	2193.37
377.61	2330.59
377.82	2187.23
378.03	2402.27
378.24	2349.02
378.45	2215.90
378.66	2275.29
378.87	2054.11
379.08	2095.07
379.29	2187.23
379.50	2357.21
379.71	2271.20
379.91	2256.86
380.12	2187.23
380.33	2332.64
380.54	2281.44
380.75	2293.72
380.96	2236.38
381.17	2269.15
381.38	2201.57
381.59	2258.91
381.80	2224.09
382.00	2508.76
382.21	2400.22
382.42	2531.29
382.63	2412.51
382.84	2267.10
383.05	2381.79
383.26	2314.20
383.47	2324.44
383.68	2322.40
383.88	2318.30
384.09	2306.01
384.30	2359.26
384.51	2267.10
384.72	2252.77
384.93	2176.99
385.14	2277.34
385.35	2301.92
385.55	2117.60
385.76	2459.61
385.97	2193.37
386.18	2179.04
386.39	2170.85
386.60	2228.19
386.81	2207.71
387.02	2115.55
387.22	2185.18
387.43	2314.20
387.64	2295.77
387.85	2359.26
388.06	2467.80
388.27	3846.09
388.48	8044.42
388.68	11802.44
388.89	13934.38
389.10	15075.10
389.31	13807.41
389.52	11079.51
389.73	9482.10
389.93	8796.03
390.14	7896.97
390.35	7094.16
390.56	6406.05
390.77	5177.26
390.98	4075.46
391.18	3311.57
391.39	2699.22
391.60	2361.31
391.81	2400.22
392.02	2211.81
392.23	2521.05
392.43	2301.92
392.64	2369.50
392.85	2322.40
393.06	2383.84
393.27	2248.67
393.47	2220.00
393.68	2179.04
393.89	2224.09
394.10	2400.22
394.31	2187.23
394.52	2193.37
394.72	2314.20
394.93	2490.33
395.14	2105.31
395.35	2285.53
395.56	2162.66
395.76	2195.42
395.97	2244.57
396.18	2377.69
396.39	2338.78
396.60	2725.85
396.80	2525.15
397.01	2363.36
397.22	2453.47
397.43	2398.17
397.64	2211.81
397.84	2295.77
398.05	2457.56
398.26	2310.11
398.47	2328.54
398.67	2379.74
398.88	2301.92
399.09	2340.83
399.30	2152.42
399.51	2293.72
399.71	2217.95
399.92	2234.33
400.13	2277.34
400.34	2220.00
400.54	2197.47
400.75	2424.80
400.96	2326.49
401.17	2404.32
401.37	2363.36
401.58	2220.00
401.79	2258.91
402.00	2367.45
402.21	2721.75
402.41	2488.28
402.62	2605.02
402.83	2740.18
403.04	2684.89
403.24	2895.83
403.45	2406.36
403.66	2449.37
403.87	2465.75
404.07	2555.86
404.28	2531.29
404.49	2428.89
404.70	2381.79
404.90	2258.91
405.11	2285.53
405.32	2275.29
405.52	2220.00
405.73	2207.71
405.94	2170.85
406.15	2267.10
406.35	2396.12
406.56	2328.54
406.77	2357.21
406.98	2342.88
407.18	2125.79
407.39	2469.85
407.60	2263.01
407.80	2269.15
408.01	2152.42
408.22	2373.60
408.43	2170.85
408.63	2254.81
408.84	2351.07
409.05	2269.15
409.25	2121.70
409.46	2133.98
409.67	2242.53
409.88	2174.94
410.08	2301.92
410.29	2299.87
410.50	2312.16
410.70	2308.06
410.91	2156.51
411.12	2191.33
411.32	2285.53
411.53	2230.24
411.74	2392.03
411.95	2346.97
412.15	2277.34
412.36	2367.45
412.57	2308.06
412.77	2359.26
412.98	2293.72
413.19	2220.00
413.39	2285.53
413.60	2291.68
413.81	2451.42
414.01	2252.77
414.22	2252.77
414.43	2349.02
414.63	2258.91
414.84	2344.92
415.05	2185.18
415.25	2154.46
415.46	2306.01
415.67	2224.09
415.87	2289.63
416.08	2205.66
416.29	2242.53
416.49	2297.82
416.70	2199.52
416.91	2260.96
417.11	2236.38
417.32	2375.64
417.53	2351.07
417.73	2258.91
417.94	2273.25
418.15	2269.15
418.35	2254.81
418.56	2252.77
418.77	2480.09
418.97	2277.34
419.18	2285.53
419.38	2070.50
419.59	2277.34
419.80	2363.36
420.00	2205.66
420.21	2267.10
420.42	2424.80
420.62	2310.11
420.83	2201.57
421.04	2250.72
421.24	2183.13
421.45	2340.83
421.65	2316.25
421.86	2195.42
422.07	2301.92
422.27	2269.15
422.48	2236.38
422.69	2117.60
422.89	2234.33
423.10	2179.04
423.30	2176.99
423.51	2285.53
423.72	2359.26
423.92	2297.82
424.13	2105.31
424.33	2263.01
424.54	2330.59
424.75	2263.01
424.95	2326.49
425.16	2242.53
425.36	2240.48
425.57	2355.16
425.78	2230.24
425.98	2338.78
426.19	2187.23
426.39	2250.72
426.60	2234.33
426.81	2381.79
427.01	2277.34
427.22	2230.24
427.42	2066.40
427.63	2129.89
427.83	2392.03
428.04	2490.33
428.25	2299.87
428.45	2406.36
428.66	2297.82
428.86	2265.05
429.07	2156.51
429.28	2265.05
429.48	2365.40
429.69	2236.38
429.89	2338.78
430.10	2072.54
430.30	2375.64
430.51	2338.78
430.71	2226.14
430.92	2199.52
431.13	2193.37
431.33	2310.11
431.54	2263.01
431.74	2463.71
431.95	2494.43
432.15	2248.67
432.36	2273.25
432.56	2246.62
432.77	2545.63
432.98	2422.75
433.18	2314.20
433.39	2154.46
433.59	2269.15
433.80	2498.52
434.00	2424.80
434.21	2193.37
434.41	2181.09
434.62	2529.24
434.82	2224.09
435.03	2152.42
435.23	2273.25
435.44	2095.07
435.64	2220.00
435.85	2217.95
436.06	2342.88
436.26	2320.35
436.47	2127.84
436.67	2176.99
436.88	2207.71
437.08	2346.97
437.29	2457.56
437.49	2342.88
437.70	2365.40
437.90	2267.10
438.11	2504.67
438.31	2283.49
438.52	2488.28
438.72	2490.33
438.93	2521.05
439.13	2346.97
439.34	2461.66
439.54	2211.81
439.75	2463.71
439.95	2336.73
440.16	2234.33
440.36	2340.83
440.57	2269.15
440.77	2258.91
440.98	2230.24
441.18	2383.84
441.39	2220.00
441.59	2166.75
441.80	2457.56
442.00	2301.92
442.21	2367.45
442.41	2121.70
442.62	2361.31
442.82	2279.39
443.02	2203.61
443.23	2252.77
443.43	2187.23
443.64	2432.99
443.84	2179.04
444.05	2326.49
444.25	2326.49
444.46	2246.62
444.66	2228.19
444.87	2406.36
445.07	2109.41
445.28	2285.53
445.48	2441.18
445.69	2287.58
445.89	2568.15
446.09	2289.63
446.30	2549.72
446.50	2846.68
446.71	4392.89
446.91	5783.46
447.12	6391.71
447.32	6789.02
447.53	6234.02
447.73	5173.17
447.93	4624.31
448.14	4186.05
448.34	4118.47
448.55	3592.14
448.75	3518.41
448.96	3319.76
449.16	3106.77
449.36	2881.49
449.57	2562.01
449.77	2447.32
449.98	2310.11
450.18	2283.49
450.39	2332.64
450.59	2353.12
450.79	2326.49
451.00	2213.85
451.20	2336.73
451.41	2269.15
451.61	2279.39
451.81	2244.57
452.02	2176.99
452.22	2154.46
452.43	2230.24
452.63	2195.42
452.84	2244.57
453.04	2140.13
453.24	2256.86
453.45	2172.89
453.65	2211.81
453.86	2330.59
454.06	2295.77
454.26	2260.96
454.47	2097.12
454.67	2459.61
454.87	2355.16
455.08	2330.59
455.28	2451.42
455.49	2301.92
455.69	2203.61
455.89	2416.60
456.10	2379.74
456.30	2240.48
456.51	2396.12
456.71	2281.44
456.91	2322.40
457.12	2252.77
457.32	2332.64
457.52	2095.07
457.73	2332.64
457.93	2310.11
458.14	2207.71
458.34	2168.80
458.54	2275.29
458.75	2222.05
458.95	2363.36
459.15	2351.07
459.36	2342.88
459.56	2293.72
459.76	2465.75
459.97	2281.44
460.17	2195.42
460.37	2299.87
460.58	2248.67
460.78	2334.68
460.99	2236.38
461.19	2260.96
461.39	2252.77
461.60	2209.76
461.80	2306.01
462.00	2176.99
462.21	2260.96
462.41	2152.42
462.61	2168.80
462.82	2179.04
463.02	2359.26
463.22	2220.00
463.43	2371.55
463.63	2308.06
463.83	2394.08
464.04	2322.40
464.24	2279.39
464.44	2244.57
464.64	2283.49
464.85	2293.72
465.05	2379.74
465.25	2232.29
465.46	2160.61
465.66	2351.07
465.86	2359.26
466.07	2236.38
466.27	2250.72
466.47	2138.08
466.68	2191.33
466.88	2365.40
467.08	2326.49
467.29	2330.59
467.49	2263.01
467.69	2267.10
467.89	2365.40
468.10	2273.25
468.30	2250.72
468.50	2394.08
468.71	2412.51
468.91	2150.37
469.11	2396.12
469.31	2236.38
469.52	2144.22
469.72	2414.56
469.92	2441.18
470.13	2248.67
470.33	2332.64
470.53	2293.72
470.73	2619.35
470.94	3041.23
471.14	3108.82
471.34	3553.23
471.54	3395.53
471.75	3080.14
471.95	2793.43
472.15	2674.65
472.36	2789.33
472.56	2658.26
472.76	2645.98
472.96	2672.60
473.17	2621.40
473.37	2465.75
473.57	2306.01
473.77	2340.83
473.98	2232.29
474.18	2220.00
474.38	2555.86
474.58	2220.00
474.79	2170.85
474.99	2316.25
475.19	2332.64
475.39	2189.28
475.60	2301.92
475.80	2277.34
476.00	2211.81
476.20	2185.18
476.41	2332.64
476.61	2365.40
476.81	2396.12
477.01	2260.96
477.21	2459.61
477.42	2365.40
477.62	2230.24
477.82	2328.54
478.02	2289.63
478.23	2277.34
478.43	2154.46
478.63	2256.86
478.83	2213.85
479.03	2285.53
479.24	2365.40
479.44	2475.99
479.64	2187.23
479.84	2052.06
480.04	2174.94
480.25	2306.01
480.45	2228.19
480.65	2189.28
480.85	2383.84
481.06	2234.33
481.26	2310.11
481.46	2254.81
481.66	2351.07
481.86	2183.13
482.06	2351.07
482.27	2179.04
482.47	2187.23
482.67	2299.87
482.87	2179.04
483.07	2344.92
483.28	2197.47
483.48	2181.09
483.68	2236.38
483.88	2176.99
484.08	2093.02
484.29	2121.70
484.49	2230.24
484.69	2099.17
484.89	2432.99
485.09	2457.56
485.29	2326.49
485.50	2342.88
485.70	2269.15
485.90	2351.07
486.10	2265.05
486.30	2316.25
486.50	2361.31
486.71	2269.15
486.91	2338.78
487.11	2342.88
487.31	2138.08
487.51	2404.32
487.71	2123.74
487.91	2238.43
488.12	2232.29
488.32	2050.02
488.52	2215.90
488.72	2084.83
488.92	2279.39
489.12	2412.51
489.32	2349.02
489.53	2277.34
489.73	2136.03
489.93	2373.60
490.13	2242.53
490.33	2136.03
490.53	2316.25
490.73	2402.27
490.94	2103.26
491.14	2392.03
491.34	2392.03
491.54	2523.10
491.74	3157.97
491.94	3823.56
492.14	4122.56
492.34	4161.47
492.54	3751.88
492.75	3207.12
492.95	3170.26
493.15	2965.46
493.35	3047.38
493.55	2789.33
493.75	2740.18
493.95	2856.92
494.15	2449.37
494.35	2512.86
494.56	2359.26
494.76	2283.49
494.96	2328.54
495.16	2209.76
495.36	2246.62
495.56	2275.29
495.76	2195.42
495.96	2199.52
496.16	2183.13
496.36	2482.14
496.56	2222.05
496.77	2297.82
496.97	2256.86
497.17	2441.18
497.37	2088.93
497.57	2383.84
497.77	2349.02
497.97	2060.26
498.17	2238.43
498.37	2267.10
498.57	2357.21
498.77	2248.67
498.97	2344.92
499.17	2445.27
499.38	2263.01
499.58	2346.97
499.78	2306.01
499.98	2428.89
500.18	2209.76
500.38	2211.81
500.58	2432.99
500.78	2807.77
500.98	5148.59
501.18	7235.47
501.38	8822.65
501.58	9652.08
501.78	9631.60
501.98	7643.02
502.18	6379.42
502.38	5541.80
502.58	5144.50
502.78	4712.38
502.98	4382.65
503.18	4233.15
503.38	3932.10
503.59	3407.82
503.79	3264.46
503.99	3008.47
504.19	2852.82
504.39	2813.91
504.59	2830.29
504.79	2791.38
504.99	2832.34
505.19	2568.15
505.39	2516.95
505.59	2600.92
505.79	2514.91
505.99	2373.60
506.19	2367.45
506.39	2439.13
506.59	2293.72
506.79	2220.00
506.99	2389.98
507.19	2306.01
507.39	2314.20
507.59	2181.09
507.79	2168.80
507.99	2252.77
508.19	2242.53
508.39	2281.44
508.59	2295.77
508.79	2342.88
508.99	2422.75
509.19	2224.09
509.39	2306.01
509.59	2162.66
509.79	2224.09
509.99	2330.59
510.19	2400.22
510.39	2316.25
510.59	2226.14
510.79	2252.77
510.99	2119.65
511.19	2250.72
511.39	2482.14
511.59	2471.90
511.79	2375.64
511.99	2277.34
512.19	2416.60
512.38	2242.53
512.58	2183.13
512.78	2285.53
512.98	2265.05
513.18	2424.80
513.38	2119.65
513.58	2318.30
513.78	2176.99
513.98	2277.34
514.18	2205.66
514.38	2172.89
514.58	2269.15
514.78	2236.38
514.98	2152.42
515.18	2252.77
515.38	2080.74
515.58	2416.60
515.78	2217.95
515.98	2211.81
516.18	2318.30
516.38	2281.44
516.57	2230.24
516.77	2183.13
516.97	2326.49
517.17	2209.76
517.37	2101.22
517.57	2316.25
517.77	2277.34
517.97	2269.15
518.17	2297.82
518.37	2148.32
518.57	2232.29
518.77	2310.11
518.97	2217.95
519.16	2318.30
519.36	2377.69
519.56	2121.70
519.76	2277.34
519.96	2240.48
520.16	2449.37
520.36	2154.46
520.56	2398.17
520.76	2250.72
520.96	2267.10
521.16	2318.30
521.35	2359.26
521.55	2420.70
521.75	2267.10
521.95	2269.15
522.15	2269.15
522.35	2080.74
522.55	2152.42
522.75	2416.60
522.95	2127.84
523.14	2187.23
523.34	2222.05
523.54	2301.92
523.74	2359.26
523.94	2326.49
524.14	2172.89
524.34	2244.57
524.54	2402.27
524.73	2258.91
524.93	2349.02
525.13	2283.49
525.33	2127.84
525.53	2482.14
525.73	2289.63
525.93	2316.25
526.13	2258.91
526.32	2265.05
526.52	2367.45
526.72	2420.70
526.92	2308.06
527.12	2197.47
527.32	2072.54
527.52	2248.67
527.71	2301.92
527.91	2250.72
528.11	2277.34
528.31	2310.11
528.51	2234.33
528.71	2295.77
528.90	2306.01
529.10	2455.51
529.30	2389.98
529.50	2117.60
529.70	2217.95
529.90	2291.68
530.09	2252.77
530.29	2156.51
530.49	2176.99
530.69	2527.19
530.89	2258.91
531.09	2301.92
531.28	2258.91
531.48	2326.49
531.68	2303.96
531.88	2275.29
532.08	2260.96
532.28	2285.53
532.47	2346.97
532.67	2457.56
532.87	2357.21
533.07	2156.51
533.27	2342.88
533.46	2269.15
533.66	2324.44
533.86	2273.25
534.06	2293.72
534.26	2254.81
534.45	2228.19
534.65	2441.18
534.85	2252.77
535.05	2226.14
535.25	2357.21
535.44	2072.54
535.64	2301.92
535.84	2232.29
536.04	2250.72
536.24	2246.62
536.43	2215.90
536.63	2242.53
536.83	2258.91
537.03	2254.81
537.22	2146.27
537.42	2086.88
537.62	2279.39
537.82	2242.53
538.02	2344.92
538.21	2338.78
538.41	2596.82
538.61	2322.40
538.81	2176.99
539.00	2351.07
539.20	2154.46
539.40	2281.44
539.60	2295.77
539.79	2267.10
539.99	2201.57
540.19	2220.00
540.39	2191.33
540.58	2289.63
540.78	2377.69
540.98	2316.25
541.18	2334.68
541.37	2342.88
541.57	2252.77
541.77	2320.35
541.97	2189.28
542.16	2170.85
542.36	2232.29
542.56	2191.33
542.76	2465.75
542.95	2344.92
543.15	2275.29
543.35	2326.49
543.54	2195.42
543.74	2203.61
543.94	2430.94
544.14	2252.77
544.33	2318.30
544.53	2181.09
544.73	2283.49
544.93	2144.22
545.12	2279.39
545.32	2281.44
545.52	2254.81
545.71	2181.09
545.91	2191.33
546.11	2154.46
546.30	2179.04
546.50	2232.29
546.70	2310.11
546.90	2271.20
547.09	2095.07
547.29	2312.16
547.49	2326.49
547.68	2230.24
547.88	2191.33
548.08	2338.78
548.27	2697.17
548.47	2191.33
548.67	2215.90
548.87	2353.12
549.06	2193.37
549.26	2263.01
549.46	2357.21
549.65	2187.23
549.85	2322.40
550.05	2312.16
550.24	2160.61
550.44	2260.96
550.64	2316.25
550.83	2260.96
551.03	2394.08
551.23	2389.98
551.42	2301.92
551.62	2185.18
551.82	2308.06
552.01	2297.82
552.21	2437.08
552.41	2297.82
552.60	2371.55
552.80	2301.92
553.00	2195.42
553.19	2273.25
553.39	2480.09
553.59	2256.86
553.78	2342.88
553.98	2277.34
554.17	2146.27
554.37	2328.54
554.57	2365.40
554.76	2140.13
554.96	2226.14
555.16	2306.01
555.35	2285.53
555.55	2299.87
555.75	2250.72
555.94	2297.82
556.14	2119.65
556.33	2328.54
556.53	2301.92
556.73	2359.26
556.92	2332.64
557.12	2338.78
557.32	2486.23
557.51	2392.03
557.71	2312.16
557.90	2420.70
558.10	2375.64
558.30	2240.48
558.49	2195.42
558.69	2295.77
558.88	2334.68
559.08	2303.96
559.28	2215.90
559.47	2248.67
559.67	2297.82
559.86	2527.19
560.06	2312.16
560.26	2250.72
560.45	2414.56
560.65	2279.39
560.84	2385.88
561.04	2156.51
561.24	2287.58
561.43	2154.46
561.63	2301.92
561.82	2275.29
562.02	2410.46
562.22	2209.76
562.41	2064.35
562.61	2222.05
562.80	2187.23
563.00	2473.95
563.19	2328.54
563.39	2209.76
563.59	2281.44
563.78	2185.18
563.98	2127.84
564.17	2269.15
564.37	2076.64
564.56	2220.00
564.76	2154.46
564.96	2351.07
565.15	2328.54
565.35	2547.67
565.54	2306.01
565.74	2306.01
565.93	2295.77
566.13	2269.15
566.32	2310.11
566.52	2293.72
566.71	2289.63
566.91	2383.84
567.11	2277.34
567.30	2205.66
567.50	2396.12
567.69	2316.25
567.89	2252.77
568.08	2199.52
568.28	2357.21
568.47	2179.04
568.67	2363.36
568.86	2256.86
569.06	2385.88
569.25	2314.20
569.45	2170.85
569.64	2209.76
569.84	2234.33
570.04	2285.53
570.23	2224.09
570.43	2224.09
570.62	2258.91
570.82	2418.65
571.01	2168.80
571.21	2256.86
571.40	2170.85
571.60	2400.22
571.79	2308.06
571.99	2287.58
572.18	2185.18
572.38	2371.55
572.57	2199.52
572.77	2283.49
572.96	2553.82
573.16	2248.67
573.35	2240.48
573.55	2383.84
573.74	2318.30
573.94	2211.81
574.13	2301.92
574.33	2371.55
574.52	2445.27
574.71	2252.77
574.91	2359.26
575.10	2156.51
575.30	2283.49
575.49	2197.47
575.69	2248.67
575.88	2402.27
576.08	2328.54
576.27	2346.97
576.47	2326.49
576.66	2441.18
576.86	2428.89
577.05	2316.25
577.25	2349.02
577.44	2469.85
577.64	2234.33
577.83	2475.99
578.02	2203.61
578.22	2369.50
578.41	2430.94
578.61	2234.33
578.80	2158.56
579.00	2306.01
579.19	2353.12
579.39	2293.72
579.58	2338.78
579.77	2336.73
579.97	2340.83
580.16	2359.26
580.36	2447.32
580.55	2408.41
580.75	2281.44
580.94	2373.60
581.13	2449.37
581.33	2432.99
581.52	2271.20
581.72	2492.38
581.91	2437.08
582.11	2297.82
582.30	2392.03
582.49	2318.30
582.69	2424.80
582.88	2336.73
583.08	2258.91
583.27	2400.22
583.47	2324.44
583.66	2213.85
583.85	2172.89
584.05	2314.20
584.24	2455.51
584.44	2334.68
584.63	2535.39
584.82	2486.23
585.02	2455.51
585.21	2420.70
585.41	2478.04
585.60	2412.51
585.79	2537.43
585.99	2529.24
586.18	2410.46
586.37	2928.60
586.57	4618.17
586.76	13813.55
586.96	33549.82
587.15	47406.38
587.34	56444.07
587.54	61428.82
587.73	56493.22
587.93	39908.77
588.12	30092.85
588.31	24260.24
588.51	21194.43
588.70	19265.24
588.89	17518.32
589.09	15279.89
589.28	13047.61
589.47	10663.77
589.67	8304.51
589.86	6340.51
590.06	4689.85
590.25	3721.16
590.44	3133.39
590.64	2824.15
590.83	2578.39
591.02	2580.44
591.22	2424.80
591.41	2463.71
591.60	2299.87
591.80	2498.52
591.99	2242.53
592.18	2230.24
592.38	2416.60
592.57	2248.67
592.76	2297.82
592.96	2353.12
593.15	2232.29
593.34	2367.45
593.54	2277.34
593.73	2387.93
593.92	2308.06
594.12	2351.07
594.31	2316.25
594.50	2394.08
594.70	2387.93
594.89	2568.15
595.08	2254.81
595.28	2363.36
595.47	2637.78
595.66	2383.84
595.86	2215.90
596.05	2314.20
596.24	2314.20
596.43	2432.99
596.63	2371.55
596.82	2332.64
597.01	2306.01
597.21	2424.80
597.40	2273.25
597.59	2346.97
597.79	2371.55
597.98	2430.94
598.17	2342.88
598.36	2240.48
598.56	2443.23
598.75	2287.58
598.94	2283.49
599.14	2285.53
599.33	2220.00
599.52	2355.16
599.71	2291.68
599.91	2334.68
600.10	2318.30
600.29	2252.77
600.48	2240.48
600.68	2299.87
600.87	2283.49
601.06	2215.90
601.26	2215.90
601.45	2252.77
601.64	2138.08
601.83	2406.36
602.03	2179.04
602.22	2183.13
602.41	2430.94
602.60	2654.17
602.80	2355.16
602.99	2400.22
603.18	2217.95
603.37	2271.20
603.57	2353.12
603.76	2322.40
603.95	2389.98
604.14	2211.81
604.34	2242.53
604.53	2267.10
604.72	2367.45
604.91	2291.68
605.10	2273.25
605.30	2076.64
605.49	2488.28
605.68	2260.96
605.87	2258.91
606.07	2146.27
606.26	2275.29
606.45	2373.60
606.64	2291.68
606.84	2234.33
607.03	2308.06
607.22	2336.73
607.41	2250.72
607.60	2326.49
607.80	2387.93
607.99	2277.34
608.18	2258.91
608.37	2273.25
608.56	2230.24
608.76	2316.25
608.95	2498.52
609.14	2340.83
609.33	2441.18
609.52	2539.48
609.72	2357.21
609.91	2445.27
610.10	2332.64
610.29	2467.80
610.48	2349.02
610.68	2334.68
610.87	2226.14
611.06	2402.27
611.25	2265.05
611.44	2402.27
611.63	2162.66
611.83	2375.64
612.02	2185.18
612.21	2385.88
612.40	2058.21
612.59	2183.13
612.79	2181.09
612.98	2316.25
613.17	2426.84
613.36	2306.01
613.55	2469.85
613.74	2334.68
613.93	2379.74
614.13	2482.14
614.32	2426.84
614.51	2486.23
614.70	2340.83
614.89	2269.15
615.08	2367.45
615.28	2740.18
615.47	2222.05
615.66	2400.22
615.85	2326.49
616.04	2506.71
616.23	2365.40
616.42	2324.44
616.62	2301.92
616.81	2381.79
617.00	2273.25
617.19	2256.86
617.38	2240.48
617.57	2281.44
617.76	2357.21
617.95	2414.56
618.15	2332.64
618.34	2373.60
618.53	2090.98
618.72	2389.98
618.91	2389.98
619.10	2379.74
619.29	2269.15
619.48	2220.00
619.68	2258.91
619.87	2263.01
620.06	2179.04
620.25	2334.68
620.44	2203.61
620.63	2275.29
620.82	2209.76
621.01	2303.96
621.20	2263.01
621.39	2338.78
621.59	2287.58
621.78	2322.40
621.97	2238.43
622.16	2334.68
622.35	2334.68
622.54	2375.64
622.73	2310.11
622.92	2127.84
623.11	2349.02
623.30	2252.77
623.49	2281.44
623.68	2217.95
623.88	2416.60
624.07	2244.57
624.26	2226.14
624.45	2303.96
624.64	2228.19
624.83	2207.71
625.02	2199.52
625.21	2301.92
625.40	2277.34
625.59	2406.36
625.78	2256.86
625.97	2412.51
626.16	2424.80
626.35	2394.08
626.54	2369.50
626.74	2508.76
626.93	2293.72
627.12	2260.96
627.31	2359.26
627.50	2308.06
627.69	2410.46
627.88	2303.96
628.07	2228.19
628.26	2181.09
628.45	2176.99
628.64	2215.90
628.83	2269.15
629.02	2131.94
629.21	2322.40
629.40	2242.53
629.59	2183.13
629.78	2250.72
629.97	2285.53
630.16	2236.38
630.35	2265.05
630.54	2256.86
630.73	2256.86
630.92	2220.00
631.11	2164.70
631.30	2267.10
631.49	2426.84
631.68	2238.43
631.87	2283.49
632.06	2121.70
632.25	2619.35
632.44	2158.56
632.63	2301.92
632.82	2277.34
633.01	2277.34
633.20	2369.50
633.39	2318.30
633.58	2265.05
633.77	2269.15
633.96	2414.56
634.15	2334.68
634.34	2291.68
634.53	2318.30
634.72	2322.40
634.91	2260.96
635.10	2312.16
635.29	2349.02
635.48	2236.38
635.67	2207.71
635.86	2099.17
636.05	2416.60
636.24	2203.61
636.43	2275.29
636.62	2387.93
636.81	2070.50
637.00	2217.95
637.19	2260.96
637.38	2209.76
637.57	2222.05
637.76	2359.26
637.95	2426.84
638.14	2314.20
638.33	2414.56
638.52	2336.73
638.71	2185.18
638.89	2127.84
639.08	2580.44
639.27	2443.23
639.46	2420.70
639.65	2838.48
639.84	2881.49
640.03	2924.50
640.22	2799.57
640.41	2854.87
640.60	2424.80
640.79	2510.81
640.98	2488.28
641.17	2553.82
641.36	2412.51
641.55	2439.13
641.74	2217.95
641.92	2299.87
642.11	2273.25
642.30	2279.39
642.49	2203.61
642.68	2252.77
642.87	2326.49
643.06	2303.96
643.25	2181.09
643.44	2185.18
643.63	2160.61
643.82	2338.78
644.00	2101.22
644.19	2232.29
644.38	2150.37
644.57	2375.64
644.76	2346.97
644.95	2220.00
645.14	2332.64
645.33	2301.92
645.52	2291.68
645.71	2058.21
645.89	2179.04
646.08	2199.52
646.27	2250.72
646.46	2349.02
646.65	2166.75
646.84	2316.25
647.03	2080.74
647.22	2351.07
647.40	2324.44
647.59	2297.82
647.78	2062.30
647.97	2205.66
648.16	2207.71
648.35	2408.41
648.54	2318.30
648.73	2209.76
648.91	2326.49
649.10	2275.29
649.29	2220.00
649.48	2254.81
649.67	2252.77
649.86	2285.53
650.05	2334.68
650.23	2443.23
650.42	2334.68
650.61	2490.33
650.80	2435.03
650.99	2570.20
651.18	2457.56
651.36	2299.87
651.55	2240.48
651.74	2338.78
651.93	2222.05
652.12	2308.06
652.31	2248.67
652.49	2289.63
652.68	2197.47
652.87	2445.27
653.06	2314.20
653.25	2426.84
653.44	2310.11
653.62	2449.37
653.81	2334.68
654.00	2293.72
654.19	2326.49
654.38	2523.10
654.56	2334.68
654.75	2285.53
654.94	2398.17
655.13	2295.77
655.32	2185.18
655.51	2277.34
655.69	2195.42
655.88	2312.16
656.07	2201.57
656.26	2342.88
656.45	2224.09
656.63	2344.92
656.82	2293.72
657.01	2357.21
657.20	2176.99
657.38	2414.56
657.57	2260.96
657.76	2140.13
657.95	2367.45
658.14	2256.86
658.32	2277.34
658.51	2101.22
658.70	2328.54
658.89	2308.06
659.08	2289.63
659.26	2449.37
659.45	2234.33
659.64	2349.02
659.83	2205.66
660.01	2623.45
660.20	2291.68
660.39	2475.99
660.58	2095.07
660.76	2428.89
660.95	2121.70
661.14	2275.29
661.33	2058.21
661.51	2236.38
661.70	2217.95
661.89	2295.77
662.08	2289.63
662.26	2129.89
662.45	2146.27
662.64	2480.09
662.83	2381.79
663.01	2156.51
663.20	2228.19
663.39	2400.22
663.58	2244.57
663.76	2154.46
663.95	2293.72
664.14	2193.37
664.32	2209.76
664.51	2099.17
664.70	2179.04
664.89	2289.63
665.07	2146.27
665.26	2381.79
665.45	2170.85
665.64	2402.27
665.82	2217.95
666.01	2379.74
666.20	2226.14
666.38	2369.50
666.57	2379.74
666.76	3334.09
666.95	8269.70
667.13	16430.85
667.32	21173.95
667.51	25177.73
667.69	26629.74
667.88	24430.22
668.07	17354.49
668.25	13817.65
668.44	11603.79
668.63	9996.14
668.81	8937.34
669.00	7649.16
669.19	6793.11
669.38	6059.94
669.56	5195.70
669.75	4396.99
669.94	3594.19
670.12	3071.95
670.31	2861.01
670.50	2568.15
670.68	2535.39
670.87	2439.13
671.06	2250.72
671.24	2443.23
671.43	2441.18
671.62	2357.21
671.80	2228.19
671.99	2285.53
672.18	2203.61
672.36	2400.22
672.55	2367.45
672.74	2312.16
672.92	2189.28
673.11	2310.11
673.29	2172.89
673.48	2258.91
673.67	2187.23
673.85	2420.70
674.04	2195.42
674.23	2244.57
674.41	2459.61
674.60	2193.37
674.79	2056.16
674.97	2191.33
675.16	2379.74
675.34	2359.26
675.53	2232.29
675.72	2269.15
675.90	2392.03
676.09	2183.13
676.28	2232.29
676.46	2121.70
676.65	2312.16
676.83	2215.90
677.02	2289.63
677.21	2260.96
677.39	2310.11
677.58	2224.09
677.77	2207.71
677.95	2162.66
678.14	2209.76
678.32	2285.53
678.51	2256.86
678.70	2439.13
678.88	2185.18
679.07	2293.72
679.25	2226.14
679.44	2275.29
679.63	2160.61
679.81	2166.75
680.00	2437.08
680.18	2373.60
680.37	2445.27
680.55	2226.14
680.74	2111.46
680.93	2103.26
681.11	2285.53
681.30	2260.96
681.48	2297.82
681.67	2215.90
681.85	2250.72
682.04	2203.61
682.23	2361.31
682.41	2265.05
682.60	2277.34
682.78	2211.81
682.97	2113.50
683.15	2258.91
683.34	2203.61
683.53	2381.79
683.71	2152.42
683.90	2293.72
684.08	2439.13
684.27	2181.09
684.45	2330.59
684.64	2369.50
684.82	2244.57
685.01	2285.53
685.19	2215.90
685.38	2412.51
685.57	2267.10
685.75	2179.04
685.94	2170.85
686.12	2121.70
686.31	2236.38
686.49	2410.46
686.68	2066.40
686.86	2263.01
687.05	2254.81
687.23	2394.08
687.42	2197.47
687.60	2076.64
687.79	2357.21
687.97	2396.12
688.16	2422.75
688.34	2326.49
688.53	2127.84
688.71	2244.57
688.90	2359.26
689.08	2232.29
689.27	2054.11
689.45	2258.91
689.64	2398.17
689.82	2301.92
690.01	2342.88
690.19	2250.72
690.38	2230.24
690.56	2381.79
690.75	2215.90
690.93	2250.72
691.12	2203.61
691.30	2299.87
691.49	2267.10
691.67	2195.42
691.86	2461.66
692.04	2162.66
692.23	2301.92
692.41	2318.30
692.60	2637.78
692.78	2344.92
692.97	2220.00
693.15	2451.42
693.34	2457.56
693.52	2357.21
693.71	2256.86
693.89	2199.52
694.08	2121.70
694.26	2269.15
694.44	2355.16
694.63	2420.70
694.81	2121.70
695.00	2209.76
695.18	2445.27
695.37	2447.32
695.55	2285.53
695.74	2185.18
695.92	2189.28
696.10	2340.83
696.29	2080.74
696.47	2183.13
696.66	2117.60
696.84	2164.70
697.03	2269.15
697.21	2461.66
697.40	3219.41
697.58	2377.69
697.76	2211.81
697.95	2205.66
698.13	2123.74
698.32	2146.27
698.50	2234.33
698.68	2254.81
698.87	2293.72
699.05	2455.51
699.24	2215.90
699.42	2203.61
699.61	2228.19
699.79	2250.72
699.97	2244.57
700.16	2181.09
700.34	2142.18
700.53	2271.20
700.71	2404.32
700.89	2394.08
701.08	2246.62
701.26	2310.11
701.45	2777.05
701.63	2168.80
701.81	2179.04
702.00	2150.37
702.18	2269.15
702.37	2265.05
702.55	2504.67
702.73	2478.04
702.92	2340.83
703.10	2621.40
703.28	2533.34
703.47	2326.49
703.65	2455.51
703.84	2367.45
704.02	2338.78
704.20	2512.86
704.39	2215.90
704.57	2199.52
704.75	2342.88
704.94	2383.84
705.12	2301.92
705.30	2488.28
705.49	4417.47
705.67	10409.83
705.86	18243.31
706.04	21800.63
706.22	24917.64
706.41	25972.34
706.59	22097.58
706.77	15728.40
706.96	13207.35
707.14	11415.38
707.32	9813.87
707.51	8853.37
707.69	7286.67
707.87	5824.42
708.06	4683.70
708.24	3885.00
708.42	3160.02
708.61	3108.82
708.79	2605.02
708.97	2394.08
709.16	2328.54
709.34	2287.58
709.52	2242.53
709.71	2250.72
709.89	2316.25
710.07	2181.09
710.26	2211.81
710.44	2197.47
710.62	2402.27
710.80	2254.81
710.99	2463.71
711.17	2295.77
711.35	2224.09
711.54	2174.94
711.72	2414.56
711.90	2267.10
712.09	2326.49
712.27	2156.51
712.45	2369.50
712.63	2234.33
712.82	2236.38
713.00	2275.29
713.18	2312.16
713.37	2355.16
713.55	2306.01
713.73	2410.46
713.91	2404.32
714.10	2236.38
714.28	2195.42
714.46	2252.77
714.65	2256.86
714.83	2203.61
715.01	2250.72
715.19	2308.06
715.38	2164.70
715.56	2342.88
715.74	2242.53
715.92	2154.46
716.11	2416.60
716.29	2101.22
716.47	2187.23
716.65	2324.44
716.84	2037.73
717.02	2236.38
717.20	2179.04
717.38	2265.05
717.57	2322.40
717.75	2295.77
717.93	2258.91
718.11	2367.45
718.30	2146.27
718.48	2357.21
718.66	2367.45
718.84	2398.17
719.03	2236.38
719.21	2117.60
719.39	2465.75
719.57	2326.49
719.75	2291.68
719.94	2148.32
720.12	2244.57
720.30	2252.77
720.48	2387.93
720.67	2193.37
720.85	2152.42
721.03	2285.53
721.21	2152.42
721.39	2349.02
721.58	2267.10
721.76	2308.06
721.94	2385.88
722.12	2281.44
722.30	2416.60
722.49	2195.42
722.67	2275.29
722.85	2287.58
723.03	2101.22
723.21	2203.61
723.40	2252.77
723.58	2408.41
723.76	2349.02
723.94	2428.89
724.12	2285.53
724.30	2488.28
724.49	2471.90
724.67	2277.34
724.85	2512.86
725.03	2195.42
725.21	2410.46
725.40	2361.31
725.58	2195.42
725.76	2342.88
725.94	2285.53
726.12	2213.85
726.30	2207.71
726.49	2248.67
726.67	2234.33
726.85	2258.91
727.03	2523.10
727.21	3622.86
727.39	4935.60
727.57	5930.92
727.76	6467.49
727.94	6791.06
728.12	6297.50
728.30	5316.53
728.48	4456.38
728.66	4046.79
728.84	3780.55
729.03	3258.32
729.21	2922.45
729.39	2688.98
729.57	2400.22
729.75	2387.93
729.93	2443.23
730.11	2144.22
730.30	2258.91
730.48	2316.25
730.66	2430.94
730.84	2314.20
731.02	2222.05
731.20	2201.57
731.38	2306.01
731.56	2187.23
731.74	2070.50
731.93	2269.15
732.11	2179.04
732.29	2220.00
732.47	2203.61
732.65	2285.53
732.83	2432.99
733.01	2303.96
733.19	2187.23
733.37	2346.97
733.56	2340.83
733.74	2211.81
733.92	2389.98
734.10	2234.33
734.28	2330.59
734.46	2101.22
734.64	2228.19
734.82	2289.63
735.00	2201.57
735.18	2273.25
735.36	2265.05
735.54	2248.67
735.73	2215.90
735.91	2283.49
736.09	2369.50
736.27	2287.58
736.45	2295.77
736.63	2101.22
736.81	2203.61
736.99	2277.34
737.17	2340.83
737.35	2220.00
737.53	2256.86
737.71	2191.33
737.89	2439.13
738.07	2117.60
738.25	2107.36
738.43	2160.61
738.61	2232.29
738.80	2111.46
738.98	2119.65
739.16	2111.46
739.34	2125.79
739.52	2338.78
739.70	2242.53
739.88	2318.30
740.06	2373.60
740.24	2011.11
740.42	2318.30
740.60	2121.70
740.78	2195.42
740.96	2068.45
741.14	2260.96
741.32	2269.15
741.50	2121.70
741.68	2486.23
741.86	2406.36
742.04	2150.37
742.22	2211.81
742.40	2277.34
742.58	2301.92
742.76	2170.85
742.94	2265.05
743.12	2125.79
743.30	2185.18
743.48	2404.32
743.66	2158.56
743.84	2224.09
744.02	2252.77
744.20	2277.34
744.38	2123.74
744.56	2072.54
744.74	2439.13
744.92	2314.20
745.10	2412.51
745.28	2258.91
745.46	2363.36
745.64	2189.28
745.82	2342.88
746.00	2228.19
746.18	2351.07
746.36	2166.75
746.54	2217.95
746.72	2289.63
746.90	2162.66
747.08	2392.03
747.26	2277.34
747.44	2246.62
747.62	2322.40
747.80	2228.19
747.98	2281.44
748.15	2166.75
748.33	2428.89
748.51	2258.91
748.69	2301.92
748.87	2179.04
749.05	2234.33
749.23	2215.90
749.41	2246.62
749.59	2195.42
749.77	2349.02
749.95	2256.86
750.13	2189.28
750.31	2332.64
750.49	2236.38
750.67	2322.40
750.85	2371.55
751.03	2232.29
751.20	2482.14
751.38	2355.16
751.56	2252.77
751.74	2258.91
751.92	2291.68
752.10	2105.31
752.28	2457.56
752.46	2187.23
752.64	2211.81
752.82	2238.43
753.00	2269.15
753.18	2156.51
753.35	2260.96
753.53	2291.68
753.71	2138.08
753.89	2328.54
754.07	2244.57
754.25	2342.88
754.43	2324.44
754.61	2140.13
754.79	2318.30
754.97	2226.14
755.14	2398.17
755.32	2207.71
755.50	2244.57
755.68	2301.92
755.86	2156.51
756.04	2197.47
756.22	2052.06
756.40	2340.83
756.57	2514.91
756.75	2187.23
756.93	2346.97
757.11	2410.46
757.29	2127.84
757.47	2064.35
757.65	2162.66
757.82	2011.11
758.00	2181.09
758.18	2203.61
758.36	2201.57
758.54	2443.23
758.72	2152.42
758.90	2383.84
759.07	2318.30
759.25	2179.04
759.43	2260.96
759.61	2131.94
759.79	3153.87
759.97	2353.12
760.15	2213.85
760.32	2211.81
760.50	2220.00
760.68	2371.55
760.86	2117.60
761.04	2398.17
761.22	2314.20
761.39	2265.05
761.57	2283.49
761.75	2273.25
761.93	2299.87
762.11	2248.67
762.28	2207.71
762.46	2113.50
762.64	2346.97
762.82	2189.28
763.00	2236.38
763.18	2328.54
763.35	2070.50
763.53	2291.68
763.71	2248.67
763.89	2263.01
764.07	2310.11
764.24	2176.99
764.42	2349.02
764.60	2228.19
764.78	2277.34
764.96	2318.30
765.13	2330.59
765.31	2252.77
765.49	2303.96
765.67	2174.94
765.84	2072.54
766.02	2256.86
766.20	2119.65
766.38	2224.09
766.56	2320.35
766.73	2355.16
766.91	2228.19
767.09	2273.25
767.27	2250.72
767.44	2176.99
767.62	2273.25
767.80	2318.30
767.98	2248.67
768.15	2277.34
768.33	2334.68
768.51	2373.60
768.69	2287.58
768.87	2277.34
769.04	2252.77
769.22	2451.42
769.40	2418.65
769.58	2392.03
769.75	2291.68
769.93	2385.88
770.11	2185.18
770.28	2140.13
770.46	2357.21
770.64	2283.49
770.82	2258.91
770.99	2129.89
771.17	2310.11
771.35	2189.28
771.53	2324.44
771.70	2195.42
771.88	2303.96
772.06	2275.29
772.23	2246.62
772.41	2260.96
772.59	2228.19
772.77	2097.12
772.94	2209.76
773.12	2226.14
773.30	2146.27
773.47	2222.05
773.65	2207.71
773.83	2383.84
774.01	2211.81
774.18	2115.55
774.36	2277.34
774.54	2164.70
774.71	2355.16
774.89	2176.99
775.07	2129.89
775.24	2142.18
775.42	2301.92
775.60	2424.80
775.78	2174.94
775.95	2142.18
776.13	2088.93
776.31	2097.12
776.48	2306.01
776.66	2349.02
776.84	2162.66
777.01	2201.57
777.19	2144.22
777.37	2211.81
777.54	2326.49
777.72	2400.22
777.90	2318.30
778.07	2162.66
778.25	2551.77
778.43	2293.72
778.60	2201.57
778.78	2279.39
778.96	2371.55
779.13	2160.61
779.31	2338.78
779.49	2193.37
779.66	2279.39
779.84	2162.66
780.01	2297.82
780.19	2138.08
780.37	2375.64
780.54	2338.78
780.72	2164.70
780.90	2158.56
781.07	2277.34
781.25	2164.70
781.43	2293.72
781.60	2228.19
781.78	2334.68
781.95	2187.23
782.13	2226.14
782.31	2242.53
782.48	2072.54
782.66	2228.19
782.83	2412.51
783.01	2344.92
783.19	2303.96
783.36	2211.81
783.54	2226.14
783.72	2314.20
783.89	2248.67
784.07	2357.21
784.24	2301.92
784.42	2359.26
784.60	2322.40
784.77	2332.64
784.95	2037.73
785.12	2162.66
785.30	2283.49
785.47	2185.18
785.65	2179.04
785.83	2236.38
786.00	2179.04
786.18	2314.20
786.35	2125.79
786.53	2117.60
786.71	2357.21
786.88	2291.68
787.06	2301.92
787.23	2162.66
787.41	2154.46
787.58	2211.81
787.76	2179.04
787.94	2236.38
788.11	2303.96
788.29	2138.08
788.46	2252.77
788.64	2082.78
788.81	2226.14
788.99	2187.23
789.16	2246.62
789.34	2215.90
789.52	2160.61
789.69	2183.13
789.87	2074.59
790.04	2174.94
790.22	2133.98
790.39	2408.41
790.57	2097.12
790.74	2142.18
790.92	2318.30
791.09	2125.79
791.27	2265.05
791.44	2299.87
791.62	2293.72
791.79	2287.58
791.97	2326.49
792.15	2537.43
792.32	2256.86
792.50	2310.11
792.67	2361.31
792.85	2385.88
793.02	2267.10
793.20	2162.66
793.37	2105.31
793.55	2256.86
793.72	2146.27
793.90	2271.20
794.07	2174.94
794.25	2176.99
794.42	2275.29
794.60	2271.20
794.77	2285.53
794.95	2234.33
795.12	2301.92
795.30	2263.01
795.47	2119.65
795.65	2463.71
795.82	2359.26
796.00	2213.85
796.17	2170.85
796.34	2199.52
796.52	2220.00
796.69	2324.44
796.87	2252.77
797.04	2265.05
797.22	2301.92
797.39	2283.49
797.57	2310.11
797.74	2248.67
797.92	2316.25
798.09	2181.09
798.27	2340.83
798.44	2160.61
798.62	2176.99
798.79	2226.14
798.96	2308.06
799.14	2236.38
799.31	2500.57
799.49	2193.37
799.66	2211.81
799.84	2230.24
800.01	2101.22
800.19	2256.86
800.36	2154.46
800.53	2306.01
800.71	2283.49
800.88	2482.14
801.06	2168.80
801.23	2129.89
801.41	2222.05
801.58	2238.43
801.75	2174.94
801.93	2291.68
802.10	2250.72
802.28	2279.39
802.45	2242.53
802.63	2293.72
802.80	2445.27
802.97	2314.20
803.15	2230.24
803.32	2195.42
803.50	2115.55
803.67	2201.57
803.84	2179.04
804.02	2211.81
804.19	2181.09
804.37	2009.06
804.54	2062.30
804.71	2224.09
804.89	2166.75
805.06	2088.93
805.24	2136.03
805.41	2146.27
805.58	2160.61
805.76	2449.37
805.93	2277.34
806.10	2326.49
806.28	2260.96
806.45	2185.18
806.63	2285.53
806.80	2283.49
806.97	2334.68
807.15	2250.72
807.32	2244.57
807.49	2232.29
807.67	2113.50
807.84	2275.29
808.01	2107.36
808.19	2424.80
808.36	2465.75
808.54	2293.72
808.71	2146.27
808.88	2258.91
809.06	2437.08
809.23	2447.32
809.40	2146.27
809.58	2342.88
809.75	2217.95
809.92	2170.85
810.10	2424.80
810.27	2285.53
810.44	2273.25
810.62	2373.60
810.79	2222.05
810.96	2242.53
811.14	2179.04
811.31	2271.20
811.48	2322.40
811.66	2242.53
811.83	2301.92
812.00	2308.06
812.18	2256.86
812.35	2469.85
812.52	2250.72
812.69	2113.50
812.87	2189.28
813.04	2140.13
813.21	2189.28
813.39	2189.28
813.56	2144.22
813.73	2342.88
813.91	2023.39
814.08	2187.23
814.25	2222.05
814.42	2140.13
814.60	2162.66
814.77	2265.05
814.94	2277.34
815.12	2332.64
815.29	2385.88
815.46	2166.75
815.63	2271.20
815.81	2185.18
815.98	2244.57
816.15	2195.42
816.33	2179.04
816.50	2252.77
816.67	2293.72
816.84	2160.61
817.02	2211.81
817.19	2279.39
817.36	2334.68
817.53	2273.25
817.71	2176.99
817.88	2361.31
818.05	2258.91
818.22	2174.94
818.40	2400.22
818.57	2211.81
818.74	2402.27
818.91	2113.50
819.09	2310.11
819.26	2297.82
819.43	2181.09
819.60	2084.83
819.78	2217.95
819.95	2381.79
820.12	2117.60
820.29	2357.21
820.47	2381.79
820.64	2179.04
820.81	2093.02
820.98	2115.55
821.15	2246.62
821.33	2308.06
821.50	2136.03
821.67	2260.96
821.84	2138.08
822.02	2273.25
822.19	2342.88
822.36	2195.42
822.53	2234.33
822.70	2105.31
822.88	2179.04
823.05	2404.32
823.22	2269.15
823.39	2277.34
823.56	2207.71
823.74	2375.64
823.91	2187.23
824.08	2109.41
824.25	2164.70
824.42	2447.32
824.60	2068.45
824.77	2275.29
824.94	2293.72
825.11	2301.92
825.28	2121.70
825.45	2314.20
825.63	2273.25
825.80	2162.66
825.97	2324.44
826.14	2217.95
826.31	2093.02
826.48	2342.88
826.66	2125.79
826.83	2166.75
827.00	2179.04
827.17	2119.65
827.34	2256.86
827.51	2133.98
827.69	2240.48
827.86	2162.66
828.03	2211.81
828.20	2224.09
828.37	2258.91
828.54	2277.34
828.71	2164.70
828.89	2373.60
829.06	2193.37
829.23	2394.08
829.40	2291.68
829.57	2211.81
829.74	2310.11
829.91	2226.14
830.09	2207.71
830.26	2322.40
830.43	2351.07
830.60	2222.05
830.77	2353.12
830.94	2357.21
831.11	2392.03
831.28	2187.23
831.46	2308.06
831.63	2211.81
831.80	2351.07
831.97	2168.80
832.14	2207.71
832.31	2308.06
832.48	2234.33
832.65	2297.82
832.82	2324.44
832.99	2312.16
833.17	2142.18
833.34	2404.32
833.51	2308.06
833.68	2035.68
833.85	2246.62
834.02	2070.50
834.19	2195.42
834.36	2170.85
834.53	2338.78
834.70	2285.53
834.87	2273.25
835.04	2193.37
835.22	2138.08
835.39	2215.90
835.56	2090.98
835.73	2158.56
835.90	2318.30
836.07	2160.61
836.24	2340.83
836.41	2123.74
836.58	2193.37
836.75	2353.12
836.92	2187.23
837.09	2174.94
837.26	2367.45
837.43	2258.91
837.60	2275.29
837.77	2176.99
837.94	2342.88
838.12	2346.97
838.29	2258.91
838.46	2078.69
838.63	2203.61
838.80	2439.13
838.97	2308.06
839.14	2222.05
839.31	2330.59
839.48	2332.64
839.65	2111.46
839.82	2312.16
839.99	2297.82
840.16	2303.96
840.33	2197.47
840.50	2148.32
840.67	2195.42
840.84	2029.54
841.01	2187.23
841.18	2123.74
841.35	2242.53
841.52	2332.64
841.69	2445.27
841.86	2256.86
842.03	2203.61
842.20	2361.31
842.37	2207.71
842.54	2220.00
842.71	2217.95
842.88	2133.98
843.05	2277.34
843.22	2193.37
843.39	2371.55
843.56	2197.47
843.73	2183.13
843.90	2187.23
844.07	2291.68
844.24	2277.34
844.41	2234.33
844.58	2217.95
844.75	2203.61
844.92	2297.82
845.09	2322.40
845.26	2162.66
845.43	2242.53
845.60	2166.75
845.77	2299.87
845.94	2238.43
846.10	2349.02
846.27	2101.22
846.44	2133.98
846.61	2084.83
846.78	2283.49
846.95	2387.93
847.12	2166.75
847.29	2185.18
847.46	2185.18
847.63	2326.49
847.80	2152.42
847.97	2166.75
848.14	2430.94
848.31	2170.85
848.48	2152.42
848.65	2260.96
848.82	2207.71
848.98	2490.33
849.15	2201.57
849.32	2318.30
849.49	2398.17
849.66	2291.68
849.83	2260.96
850.00	2148.32
850.17	2199.52
850.34	2156.51
850.51	2129.89
850.68	2129.89
850.85	2480.09
851.01	2271.20
851.18	2195.42
851.35	2068.45
851.52	2211.81
851.69	2373.60
851.86	2060.26
852.03	2181.09
852.20	2256.86
852.37	2228.19
852.53	2074.59
852.70	2263.01
852.87	2269.15
853.04	2318.30
853.21	2226.14
853.38	2353.12
853.55	2338.78
853.72	2289.63
853.89	2166.75
854.05	2115.55
854.22	2226.14
854.39	2193.37
854.56	2260.96
854.73	2334.68
854.90	2136.03
855.07	2232.29
855.23	2125.79
855.40	2205.66
855.57	2162.66
855.74	2035.68
855.91	2383.84
856.08	2117.60
856.25	2146.27
856.41	2236.38
856.58	2160.61
856.75	2140.13
856.92	2154.46
857.09	2312.16
857.26	2011.11
857.42	2224.09
857.59	2256.86
857.76	2164.70
857.93	2174.94
858.10	2334.68
858.27	2058.21
858.43	2285.53
858.60	2189.28
858.77	2078.69
858.94	2119.65
859.11	2320.35
859.27	2236.38
859.44	2185.18
859.61	2473.95
859.78	2361.31
859.95	2146.27
860.12	2170.85
860.28	2465.75
860.45	2453.47
860.62	2170.85
860.79	2275.29
860.95	2220.00
861.12	2201.57
861.29	2125.79
861.46	2129.89
861.63	2215.90
861.79	2316.25
861.96	2174.94
862.13	2058.21
862.30	2441.18
862.47	2121.70
862.63	2035.68
862.80	2160.61
862.97	2342.88
863.14	2260.96
863.30	2236.38
863.47	2226.14
863.64	2383.84
863.81	2371.55
863.97	2170.85
864.14	2275.29
864.31	2203.61
864.48	2236.38
864.65	2232.29
864.81	2234.33
864.98	2293.72
865.15	2359.26
865.32	2316.25
865.48	2250.72
865.65	2316.25
865.82	2174.94
865.98	2260.96
866.15	2287.58
866.32	2267.10
866.49	2187.23
866.65	2324.44
866.82	2193.37
866.99	2248.67
867.16	2203.61
867.32	2203.61
867.49	2095.07
867.66	2220.00
867.83	2174.94
867.99	2125.79
868.16	2195.42
868.33	2199.52
868.49	2269.15
868.66	2164.70
868.83	2220.00
868.99	2279.39
869.16	2287.58
869.33	2273.25
869.50	2193.37
869.66	2195.42
869.83	2203.61
870.00	2117.60
870.16	2359.26
870.33	2226.14
870.50	2326.49
870.66	2258.91
870.83	2299.87
871.00	2258.91
871.17	2230.24
871.33	2277.34
871.50	2213.85
871.67	2211.81
871.83	2201.57
872.00	2349.02
872.17	2176.99
872.33	2406.36
872.50	2377.69
872.67	2185.18
872.83	2109.41
873.00	2297.82
873.17	2297.82
873.33	2297.82
873.50	2281.44
873.67	2113.50
873.83	2166.75
874.00	2084.83
874.16	2275.29
874.33	2181.09
874.50	2121.70
874.66	2176.99
874.83	2260.96
875.00	2383.84
875.16	2267.10
875.33	2263.01
875.50	1982.43
875.66	2176.99
875.83	2359.26
875.99	2260.96
876.16	2179.04
876.33	2127.84
876.49	2158.56
876.66	2301.92
876.83	2205.66
876.99	2045.92
877.16	2285.53
877.32	2162.66
877.49	2142.18
877.66	2293.72
877.82	2375.64
877.99	2252.77
878.15	2310.11
878.32	2279.39
878.49	2271.20
878.65	2179.04
878.82	2416.60
878.98	2152.42
879.15	2346.97
879.32	2285.53
879.48	2168.80
879.65	2209.76
879.81	2203.61
879.98	2195.42
880.15	2195.42
880.31	2359.26
880.48	2113.50
880.64	2363.36
880.81	2256.86
880.97	2334.68
881.14	2363.36
881.31	2080.74
881.47	2428.89
881.64	2258.91
881.80	2058.21
881.97	2256.86
882.13	2252.77
882.30	2193.37
882.47	2191.33
882.63	2166.75
882.80	2138.08
882.96	2207.71
883.13	2324.44
883.29	2166.75
883.46	2199.52
883.62	2469.85
883.79	2201.57
883.95	2324.44
884.12	2224.09
884.29	2387.93
884.45	2203.61
884.62	2256.86
884.78	2179.04
884.95	2422.75
885.11	2105.31
885.28	2371.55
885.44	2142.18
885.61	2334.68
885.77	2437.08
885.94	2234.33
886.10	2220.00
886.27	2193.37
886.43	2330.59
886.60	2344.92
886.76	2263.01
886.93	2189.28
887.09	2275.29
887.26	2138.08
887.42	2240.48
887.59	2369.50
887.75	2486.23
887.92	2310.11
888.08	2308.06
888.25	2439.13
888.41	2314.20
888.58	2158.56
888.74	2160.61
888.91	2217.95
>>>>>End Processed Spectral Data<<<<<
