SpectraSuite Data File
++++++++++++++++++++++++++++++++++++
Date: Thu May 05 13:21:25 CEST 2016
User: root
Dark Spectrum Present: No
Reference Spectrum Present: No
Number of Sampled Component Spectra: 1
Spectrometers: USB4C02835
Integration Time (usec): 100000 (USB4C02835)
Spectra Averaged: 1 (USB4C02835)
Boxcar Smoothing: 0 (USB4C02835)
Correct for Electrical Dark: No (USB4C02835)
Strobe/Lamp Enabled: No (USB4C02835)
Correct for Detector Non-linearity: No (USB4C02835)
Correct for Stray Light: No (USB4C02835)
Number of Pixels in Processed Spectrum: 3648
>>>>>Begin Processed Spectral Data<<<<<
177.47	1794.02
177.69	1794.02
177.91	1794.02
178.13	1779.68
178.36	1732.58
178.58	2193.37
178.80	2242.53
179.02	2150.37
179.24	2129.89
179.46	2176.99
179.68	2236.38
179.90	2263.01
180.13	2250.72
180.35	2095.07
180.57	2246.62
180.79	2308.06
181.01	2287.58
181.23	2217.95
181.45	2322.40
181.67	2301.92
181.90	2326.49
182.12	2179.04
182.34	2052.06
182.56	2310.11
182.78	2277.34
183.00	2138.08
183.22	2152.42
183.44	2113.50
183.66	2535.39
183.89	2275.29
184.11	2220.00
184.33	2346.97
184.55	2414.56
184.77	2201.57
184.99	2179.04
185.21	2244.57
185.43	2482.14
185.65	2185.18
185.87	2140.13
186.10	2500.57
186.32	2531.29
186.54	2312.16
186.76	2306.01
186.98	2316.25
187.20	2236.38
187.42	2170.85
187.64	2215.90
187.86	2310.11
188.08	2334.68
188.30	2090.98
188.52	2158.56
188.75	2334.68
188.97	2377.69
189.19	2127.84
189.41	2136.03
189.63	2318.30
189.85	2263.01
190.07	2007.01
190.29	2084.83
190.51	2306.01
190.73	2084.83
190.95	2322.40
191.17	2176.99
191.39	2146.27
191.61	2185.18
191.84	2224.09
192.06	2222.05
192.28	2070.50
192.50	2555.86
192.72	2211.81
192.94	2166.75
193.16	2340.83
193.38	2332.64
193.60	2179.04
193.82	2224.09
194.04	2379.74
194.26	2244.57
194.48	2156.51
194.70	2215.90
194.92	2174.94
195.14	2310.11
195.36	2160.61
195.58	2254.81
195.80	2224.09
196.02	2191.33
196.24	2127.84
196.46	2308.06
196.69	2187.23
196.91	2500.57
197.13	2129.89
197.35	2113.50
197.57	2414.56
197.79	2287.58
198.01	2273.25
198.23	2183.13
198.45	2291.68
198.67	2115.55
198.89	2119.65
199.11	2275.29
199.33	2140.13
199.55	2015.20
199.77	2138.08
199.99	2260.96
200.21	2174.94
200.43	2340.83
200.65	2113.50
200.87	1998.82
201.09	2265.05
201.31	2207.71
201.53	2193.37
201.75	2224.09
201.97	2238.43
202.19	2260.96
202.41	2232.29
202.63	2387.93
202.85	2299.87
203.07	2287.58
203.29	2220.00
203.51	2117.60
203.73	2193.37
203.95	2535.39
204.17	2140.13
204.39	2213.85
204.61	2197.47
204.83	2181.09
205.05	2269.15
205.27	2234.33
205.49	2500.57
205.71	2211.81
205.93	2080.74
206.15	2150.37
206.37	2201.57
206.59	2273.25
206.81	2113.50
207.03	2039.78
207.25	2162.66
207.47	2400.22
207.69	2164.70
207.91	2349.02
208.13	2402.27
208.34	2250.72
208.56	2103.26
208.78	2191.33
209.00	2256.86
209.22	2207.71
209.44	2211.81
209.66	2179.04
209.88	2205.66
210.10	2230.24
210.32	2138.08
210.54	2293.72
210.76	2295.77
210.98	2299.87
211.20	2064.35
211.42	2256.86
211.64	2371.55
211.86	2299.87
212.08	2226.14
212.30	2123.74
212.52	2220.00
212.74	2293.72
212.96	2269.15
213.17	2189.28
213.39	2230.24
213.61	2377.69
213.83	2105.31
214.05	2277.34
214.27	2373.60
214.49	2146.27
214.71	2133.98
214.93	2185.18
215.15	2310.11
215.37	2332.64
215.59	2031.58
215.81	2226.14
216.03	2387.93
216.24	2189.28
216.46	2152.42
216.68	2220.00
216.90	2432.99
217.12	2490.33
217.34	2228.19
217.56	2279.39
217.78	2371.55
218.00	2322.40
218.22	2236.38
218.44	2195.42
218.66	2293.72
218.87	2480.09
219.09	2109.41
219.31	2172.89
219.53	2260.96
219.75	2166.75
219.97	2201.57
220.19	2197.47
220.41	2193.37
220.63	2383.84
220.85	2189.28
221.06	2125.79
221.28	2285.53
221.50	2340.83
221.72	2156.51
221.94	2127.84
222.16	2301.92
222.38	2271.20
222.60	2248.67
222.82	2146.27
223.03	2318.30
223.25	2144.22
223.47	2179.04
223.69	2371.55
223.91	2316.25
224.13	2258.91
224.35	2072.54
224.57	2344.92
224.78	2256.86
225.00	2117.60
225.22	2246.62
225.44	2162.66
225.66	2340.83
225.88	2203.61
226.10	2222.05
226.32	2195.42
226.53	2408.41
226.75	2220.00
226.97	2275.29
227.19	2191.33
227.41	2236.38
227.63	2215.90
227.85	2062.30
228.06	2236.38
228.28	2205.66
228.50	2432.99
228.72	2148.32
228.94	2142.18
229.16	2107.36
229.37	2127.84
229.59	2160.61
229.81	2324.44
230.03	2195.42
230.25	2166.75
230.47	2105.31
230.69	2113.50
230.90	2383.84
231.12	2133.98
231.34	2158.56
231.56	2250.72
231.78	2170.85
232.00	2318.30
232.21	2146.27
232.43	2162.66
232.65	2068.45
232.87	2285.53
233.09	2099.17
233.30	2144.22
233.52	2310.11
233.74	2260.96
233.96	2195.42
234.18	2203.61
234.40	2213.85
234.61	2488.28
234.83	2125.79
235.05	2070.50
235.27	2494.43
235.49	2334.68
235.70	2119.65
235.92	2242.53
236.14	2314.20
236.36	2473.95
236.58	2045.92
236.79	2349.02
237.01	2277.34
237.23	2248.67
237.45	2346.97
237.67	2144.22
237.88	2332.64
238.10	2506.71
238.32	2052.06
238.54	2138.08
238.76	2201.57
238.97	2226.14
239.19	2107.36
239.41	2236.38
239.63	2396.12
239.85	2170.85
240.06	2260.96
240.28	2179.04
240.50	2297.82
240.72	2301.92
240.93	2127.84
241.15	2191.33
241.37	2250.72
241.59	2437.08
241.81	2179.04
242.02	2152.42
242.24	2291.68
242.46	2277.34
242.68	2154.46
242.89	2220.00
243.11	2355.16
243.33	2220.00
243.55	2207.71
243.76	2189.28
243.98	2201.57
244.20	2324.44
244.42	2146.27
244.64	2187.23
244.85	2123.74
245.07	2158.56
245.29	2224.09
245.51	2220.00
245.72	2246.62
245.94	2340.83
246.16	2195.42
246.38	2213.85
246.59	2148.32
246.81	2164.70
247.03	2125.79
247.24	2088.93
247.46	2217.95
247.68	2242.53
247.90	2093.02
248.11	2142.18
248.33	2361.31
248.55	2162.66
248.77	2293.72
248.98	2285.53
249.20	2451.42
249.42	2211.81
249.64	2129.89
249.85	2185.18
250.07	2142.18
250.29	2344.92
250.50	2324.44
250.72	2054.11
250.94	2326.49
251.16	2523.10
251.37	2181.09
251.59	2234.33
251.81	2265.05
252.02	2340.83
252.24	2129.89
252.46	2303.96
252.68	2164.70
252.89	2183.13
253.11	2050.02
253.33	2316.25
253.54	2439.13
253.76	2121.70
253.98	2191.33
254.20	2146.27
254.41	2105.31
254.63	2273.25
254.85	2113.50
255.06	2203.61
255.28	2260.96
255.50	2185.18
255.71	2213.85
255.93	2154.46
256.15	2258.91
256.36	2326.49
256.58	2121.70
256.80	2129.89
257.02	2224.09
257.23	2217.95
257.45	2263.01
257.67	2256.86
257.88	2150.37
258.10	2349.02
258.32	2209.76
258.53	2265.05
258.75	2449.37
258.97	2164.70
259.18	2117.60
259.40	2168.80
259.62	2400.22
259.83	2392.03
260.05	2273.25
260.27	2674.65
260.48	2408.41
260.70	2140.13
260.92	2152.42
261.13	2217.95
261.35	2361.31
261.57	2277.34
261.78	2084.83
262.00	2105.31
262.22	2232.29
262.43	2205.66
262.65	2150.37
262.86	2191.33
263.08	2523.10
263.30	2340.83
263.51	2080.74
263.73	2105.31
263.95	2318.30
264.16	2199.52
264.38	2152.42
264.60	2158.56
264.81	2222.05
265.03	2332.64
265.25	2402.27
265.46	2084.83
265.68	2367.45
265.89	2265.05
266.11	2007.01
266.33	2220.00
266.54	2349.02
266.76	2269.15
266.98	2217.95
267.19	2265.05
267.41	2279.39
267.62	2240.48
267.84	2101.22
268.06	2271.20
268.27	2244.57
268.49	2389.98
268.70	2217.95
268.92	2150.37
269.14	2176.99
269.35	2191.33
269.57	2220.00
269.79	2240.48
270.00	2172.89
270.22	2467.80
270.43	2115.55
270.65	2039.78
270.87	2246.62
271.08	2365.40
271.30	2213.85
271.51	2201.57
271.73	2265.05
271.95	2428.89
272.16	2215.90
272.38	2195.42
272.59	2187.23
272.81	2287.58
273.02	2193.37
273.24	2273.25
273.46	2334.68
273.67	2097.12
273.89	2150.37
274.10	2207.71
274.32	2332.64
274.54	2283.49
274.75	2211.81
274.97	2220.00
275.18	2281.44
275.40	2228.19
275.61	2207.71
275.83	2244.57
276.05	2197.47
276.26	2283.49
276.48	2277.34
276.69	2209.76
276.91	2220.00
277.12	2414.56
277.34	2277.34
277.55	2320.35
277.77	2260.96
277.99	2195.42
278.20	2176.99
278.42	2144.22
278.63	2213.85
278.85	2097.12
279.06	2113.50
279.28	2303.96
279.49	2346.97
279.71	2344.92
279.93	2250.72
280.14	2174.94
280.36	2174.94
280.57	2310.11
280.79	2301.92
281.00	2185.18
281.22	2220.00
281.43	2283.49
281.65	2023.39
281.86	2127.84
282.08	2334.68
282.29	2498.52
282.51	2170.85
282.73	2146.27
282.94	2088.93
283.16	2334.68
283.37	2359.26
283.59	2303.96
283.80	2252.77
284.02	2263.01
284.23	2349.02
284.45	2195.42
284.66	2267.10
284.88	2158.56
285.09	2250.72
285.31	2260.96
285.52	2260.96
285.74	2056.16
285.95	2332.64
286.17	2269.15
286.38	2344.92
286.60	2263.01
286.81	2191.33
287.03	2213.85
287.24	2234.33
287.46	2326.49
287.67	2265.05
287.89	2318.30
288.10	2265.05
288.32	2215.90
288.53	2367.45
288.75	2228.19
288.96	2271.20
289.18	2189.28
289.39	2273.25
289.61	2283.49
289.82	2500.57
290.04	2402.27
290.25	2058.21
290.47	2168.80
290.68	2236.38
290.90	2392.03
291.11	2111.46
291.33	2279.39
291.54	2217.95
291.76	2164.70
291.97	2273.25
292.18	2258.91
292.40	2162.66
292.61	2187.23
292.83	2430.94
293.04	2316.25
293.26	2238.43
293.47	2248.67
293.69	2109.41
293.90	2244.57
294.12	2389.98
294.33	2240.48
294.55	2209.76
294.76	2265.05
294.97	2338.78
295.19	2412.51
295.40	2183.13
295.62	2293.72
295.83	2322.40
296.05	2105.31
296.26	2373.60
296.48	2215.90
296.69	2242.53
296.90	2174.94
297.12	2320.35
297.33	2318.30
297.55	2265.05
297.76	2240.48
297.98	2314.20
298.19	2306.01
298.41	2222.05
298.62	2117.60
298.83	2355.16
299.05	2252.77
299.26	2263.01
299.48	2185.18
299.69	2299.87
299.90	2230.24
300.12	2090.98
300.33	2318.30
300.55	2269.15
300.76	2215.90
300.98	2166.75
301.19	2324.44
301.40	2236.38
301.62	2174.94
301.83	2287.58
302.05	2289.63
302.26	2189.28
302.47	2258.91
302.69	2162.66
302.90	2277.34
303.12	2031.58
303.33	2228.19
303.54	2383.84
303.76	2201.57
303.97	2211.81
304.19	2387.93
304.40	2220.00
304.61	2318.30
304.83	2398.17
305.04	2242.53
305.26	2322.40
305.47	2242.53
305.68	2287.58
305.90	2097.12
306.11	2361.31
306.33	2183.13
306.54	2168.80
306.75	2170.85
306.97	2117.60
307.18	2148.32
307.39	2203.61
307.61	2234.33
307.82	2205.66
308.04	2359.26
308.25	2203.61
308.46	2297.82
308.68	2226.14
308.89	2203.61
309.10	2277.34
309.32	2285.53
309.53	2369.50
309.74	2267.10
309.96	2193.37
310.17	2351.07
310.39	2226.14
310.60	2355.16
310.81	2269.15
311.03	2119.65
311.24	2207.71
311.45	2306.01
311.67	2412.51
311.88	2226.14
312.09	2144.22
312.31	2234.33
312.52	2199.52
312.73	2146.27
312.95	2156.51
313.16	2201.57
313.37	2349.02
313.59	2306.01
313.80	2346.97
314.01	2402.27
314.23	2199.52
314.44	2191.33
314.65	2101.22
314.87	2170.85
315.08	2215.90
315.29	2252.77
315.51	2242.53
315.72	2105.31
315.93	2318.30
316.15	2340.83
316.36	2228.19
316.57	2195.42
316.79	2277.34
317.00	2160.61
317.21	2334.68
317.43	2232.29
317.64	2258.91
317.85	2215.90
318.07	2234.33
318.28	2277.34
318.49	2359.26
318.70	2457.56
318.92	2363.36
319.13	2353.12
319.34	2490.33
319.56	2322.40
319.77	2342.88
319.98	2367.45
320.20	2285.53
320.41	2328.54
320.62	2359.26
320.83	2183.13
321.05	2439.13
321.26	2293.72
321.47	2201.57
321.69	2351.07
321.90	2166.75
322.11	2205.66
322.32	2193.37
322.54	2396.12
322.75	2258.91
322.96	2521.05
323.18	2062.30
323.39	2113.50
323.60	2117.60
323.81	2351.07
324.03	2185.18
324.24	2248.67
324.45	2244.57
324.66	2203.61
324.88	2289.63
325.09	2377.69
325.30	2226.14
325.52	2289.63
325.73	2332.64
325.94	2189.28
326.15	2121.70
326.37	2146.27
326.58	2318.30
326.79	2443.23
327.00	2152.42
327.22	2258.91
327.43	2205.66
327.64	2193.37
327.85	2246.62
328.07	2260.96
328.28	2430.94
328.49	2183.13
328.70	2228.19
328.92	2285.53
329.13	2256.86
329.34	2349.02
329.55	2367.45
329.76	2314.20
329.98	2203.61
330.19	2408.41
330.40	2314.20
330.61	2244.57
330.83	2365.40
331.04	2248.67
331.25	2224.09
331.46	2146.27
331.68	2093.02
331.89	2312.16
332.10	2162.66
332.31	2064.35
332.52	2201.57
332.74	2396.12
332.95	2125.79
333.16	2154.46
333.37	2299.87
333.58	2252.77
333.80	2344.92
334.01	2078.69
334.22	2334.68
334.43	2246.62
334.64	2172.89
334.86	2166.75
335.07	2115.55
335.28	2437.08
335.49	2156.51
335.70	2273.25
335.92	2428.89
336.13	2449.37
336.34	2283.49
336.55	2306.01
336.76	2342.88
336.98	2080.74
337.19	2240.48
337.40	2400.22
337.61	2537.43
337.82	2301.92
338.04	2336.73
338.25	2115.55
338.46	2199.52
338.67	2285.53
338.88	2086.88
339.09	2105.31
339.31	2170.85
339.52	2211.81
339.73	2150.37
339.94	2271.20
340.15	2351.07
340.36	2170.85
340.58	2191.33
340.79	2189.28
341.00	2289.63
341.21	2152.42
341.42	2422.75
341.63	2265.05
341.85	2344.92
342.06	2297.82
342.27	2232.29
342.48	2342.88
342.69	2168.80
342.90	2271.20
343.12	2383.84
343.33	2205.66
343.54	2365.40
343.75	2398.17
343.96	2230.24
344.17	2238.43
344.38	2267.10
344.60	2138.08
344.81	2086.88
345.02	2160.61
345.23	2324.44
345.44	2519.00
345.65	2301.92
345.86	2291.68
346.07	2201.57
346.29	2209.76
346.50	2240.48
346.71	2269.15
346.92	2283.49
347.13	2484.19
347.34	2285.53
347.55	2228.19
347.76	2228.19
347.98	2133.98
348.19	2176.99
348.40	2299.87
348.61	2297.82
348.82	2396.12
349.03	2353.12
349.24	2193.37
349.45	2424.80
349.66	2090.98
349.88	2269.15
350.09	2195.42
350.30	2414.56
350.51	2344.92
350.72	2220.00
350.93	2215.90
351.14	2154.46
351.35	2271.20
351.56	2236.38
351.77	2197.47
351.99	2334.68
352.20	2445.27
352.41	2342.88
352.62	2097.12
352.83	2287.58
353.04	2289.63
353.25	2179.04
353.46	2267.10
353.67	2406.36
353.88	2115.55
354.09	2248.67
354.30	2269.15
354.52	2361.31
354.73	2269.15
354.94	2123.74
355.15	2209.76
355.36	2494.43
355.57	2187.23
355.78	2199.52
355.99	2217.95
356.20	2273.25
356.41	2441.18
356.62	2258.91
356.83	2248.67
357.04	2375.64
357.25	2150.37
357.46	2183.13
357.68	2152.42
357.89	2097.12
358.10	2222.05
358.31	2254.81
358.52	2174.94
358.73	2117.60
358.94	2193.37
359.15	2086.88
359.36	2238.43
359.57	2306.01
359.78	2260.96
359.99	2338.78
360.20	2095.07
360.41	2213.85
360.62	2322.40
360.83	2263.01
361.04	2203.61
361.25	2322.40
361.46	2377.69
361.67	2301.92
361.88	2314.20
362.09	2412.51
362.30	2308.06
362.51	2160.61
362.72	2238.43
362.93	2351.07
363.14	2355.16
363.35	2289.63
363.56	2254.81
363.78	2402.27
363.99	2295.77
364.20	2240.48
364.41	2269.15
364.62	2392.03
364.83	2297.82
365.04	2222.05
365.25	2254.81
365.46	2473.95
365.67	2162.66
365.88	2228.19
366.09	2187.23
366.30	2207.71
366.51	2275.29
366.72	2086.88
366.93	2209.76
367.14	2232.29
367.35	2387.93
367.56	2201.57
367.77	2330.59
367.98	2185.18
368.18	2310.11
368.39	2260.96
368.60	2152.42
368.81	2365.40
369.02	2295.77
369.23	2240.48
369.44	2111.46
369.65	2138.08
369.86	2269.15
370.07	2314.20
370.28	2164.70
370.49	2291.68
370.70	2318.30
370.91	2164.70
371.12	2050.02
371.33	2426.84
371.54	2160.61
371.75	2377.69
371.96	2088.93
372.17	2217.95
372.38	2252.77
372.59	2240.48
372.80	2111.46
373.01	2215.90
373.22	2217.95
373.43	2275.29
373.64	2095.07
373.85	2424.80
374.06	2475.99
374.26	2332.64
374.47	2328.54
374.68	2340.83
374.89	2273.25
375.10	2199.52
375.31	2267.10
375.52	2273.25
375.73	2303.96
375.94	2220.00
376.15	2420.70
376.36	2185.18
376.57	2150.37
376.78	2146.27
376.99	2314.20
377.20	2340.83
377.40	2197.47
377.61	2441.18
377.82	2217.95
378.03	2408.41
378.24	2346.97
378.45	2248.67
378.66	2326.49
378.87	2146.27
379.08	2138.08
379.29	2187.23
379.50	2322.40
379.71	2236.38
379.91	2371.55
380.12	2209.76
380.33	2211.81
380.54	2273.25
380.75	2193.37
380.96	2234.33
381.17	2318.30
381.38	2224.09
381.59	2369.50
381.80	2254.81
382.00	2420.70
382.21	2244.57
382.42	2480.09
382.63	2533.34
382.84	2340.83
383.05	2295.77
383.26	2449.37
383.47	2275.29
383.68	2254.81
383.88	2340.83
384.09	2224.09
384.30	2455.51
384.51	2310.11
384.72	2201.57
384.93	2142.18
385.14	2250.72
385.35	2400.22
385.55	2142.18
385.76	2375.64
385.97	2250.72
386.18	2121.70
386.39	2209.76
386.60	2158.56
386.81	2181.09
387.02	2170.85
387.22	2166.75
387.43	2363.36
387.64	2314.20
387.85	2379.74
388.06	2455.51
388.27	4087.75
388.48	8210.31
388.68	11730.76
388.89	14012.20
389.10	15128.35
389.31	14001.96
389.52	10895.19
389.73	9498.48
389.93	8533.89
390.14	7919.50
390.35	7227.28
390.56	6238.11
390.77	5253.04
390.98	4026.31
391.18	3213.26
391.39	2748.37
391.60	2392.03
391.81	2328.54
392.02	2306.01
392.23	2412.51
392.43	2273.25
392.64	2385.88
392.85	2246.62
393.06	2478.04
393.27	2326.49
393.47	2168.80
393.68	2291.68
393.89	2220.00
394.10	2400.22
394.31	2195.42
394.52	2195.42
394.72	2154.46
394.93	2471.90
395.14	2142.18
395.35	2326.49
395.56	2138.08
395.76	2326.49
395.97	2252.77
396.18	2209.76
396.39	2394.08
396.60	2645.98
396.80	2465.75
397.01	2445.27
397.22	2383.84
397.43	2412.51
397.64	2234.33
397.84	2398.17
398.05	2486.23
398.26	2295.77
398.47	2400.22
398.67	2392.03
398.88	2246.62
399.09	2314.20
399.30	2277.34
399.51	2248.67
399.71	2160.61
399.92	2246.62
400.13	2367.45
400.34	2213.85
400.54	2285.53
400.75	2473.95
400.96	2244.57
401.17	2389.98
401.37	2277.34
401.58	2250.72
401.79	2287.58
402.00	2445.27
402.21	2686.94
402.41	2582.49
402.62	2629.59
402.83	2707.41
403.04	2686.94
403.24	2742.23
403.45	2414.56
403.66	2494.43
403.87	2510.81
404.07	2519.00
404.28	2537.43
404.49	2506.71
404.70	2332.64
404.90	2420.70
405.11	2277.34
405.32	2301.92
405.52	2185.18
405.73	2236.38
405.94	2076.64
406.15	2230.24
406.35	2301.92
406.56	2353.12
406.77	2254.81
406.98	2246.62
407.18	2187.23
407.39	2420.70
407.60	2252.77
407.80	2320.35
408.01	2183.13
408.22	2336.73
408.43	2209.76
408.63	2260.96
408.84	2359.26
409.05	2324.44
409.25	2142.18
409.46	2162.66
409.67	2195.42
409.88	2195.42
410.08	2299.87
410.29	2236.38
410.50	2373.60
410.70	2263.01
410.91	2103.26
411.12	2236.38
411.32	2244.57
411.53	2215.90
411.74	2369.50
411.95	2334.68
412.15	2392.03
412.36	2342.88
412.57	2367.45
412.77	2396.12
412.98	2297.82
413.19	2297.82
413.39	2353.12
413.60	2281.44
413.81	2441.18
414.01	2144.22
414.22	2279.39
414.43	2310.11
414.63	2226.14
414.84	2316.25
415.05	2260.96
415.25	2070.50
415.46	2349.02
415.67	2189.28
415.87	2252.77
416.08	2236.38
416.29	2244.57
416.49	2328.54
416.70	2187.23
416.91	2228.19
417.11	2201.57
417.32	2432.99
417.53	2310.11
417.73	2383.84
417.94	2273.25
418.15	2293.72
418.35	2215.90
418.56	2281.44
418.77	2432.99
418.97	2232.29
419.18	2291.68
419.38	2054.11
419.59	2217.95
419.80	2389.98
420.00	2160.61
420.21	2263.01
420.42	2445.27
420.62	2334.68
420.83	2193.37
421.04	2183.13
421.24	2281.44
421.45	2277.34
421.65	2351.07
421.86	2236.38
422.07	2293.72
422.27	2351.07
422.48	2252.77
422.69	2138.08
422.89	2267.10
423.10	2281.44
423.30	2105.31
423.51	2355.16
423.72	2310.11
423.92	2340.83
424.13	2113.50
424.33	2293.72
424.54	2342.88
424.75	2203.61
424.95	2398.17
425.16	2340.83
425.36	2260.96
425.57	2367.45
425.78	2293.72
425.98	2349.02
426.19	2228.19
426.39	2181.09
426.60	2242.53
426.81	2406.36
427.01	2367.45
427.22	2156.51
427.42	2127.84
427.63	2236.38
427.83	2349.02
428.04	2467.80
428.25	2318.30
428.45	2318.30
428.66	2349.02
428.86	2226.14
429.07	2250.72
429.28	2224.09
429.48	2199.52
429.69	2195.42
429.89	2293.72
430.10	2144.22
430.30	2228.19
430.51	2289.63
430.71	2252.77
430.92	2187.23
431.13	2215.90
431.33	2295.77
431.54	2213.85
431.74	2398.17
431.95	2494.43
432.15	2107.36
432.36	2324.44
432.56	2293.72
432.77	2398.17
432.98	2373.60
433.18	2326.49
433.39	2240.48
433.59	2222.05
433.80	2445.27
434.00	2381.79
434.21	2174.94
434.41	2187.23
434.62	2600.92
434.82	2283.49
435.03	2195.42
435.23	2283.49
435.44	2146.27
435.64	2265.05
435.85	2303.96
436.06	2363.36
436.26	2359.26
436.47	2250.72
436.67	2174.94
436.88	2260.96
437.08	2392.03
437.29	2387.93
437.49	2275.29
437.70	2355.16
437.90	2310.11
438.11	2443.23
438.31	2281.44
438.52	2379.74
438.72	2473.95
438.93	2527.19
439.13	2363.36
439.34	2396.12
439.54	2338.78
439.75	2303.96
439.95	2283.49
440.16	2203.61
440.36	2316.25
440.57	2373.60
440.77	2351.07
440.98	2248.67
441.18	2336.73
441.39	2209.76
441.59	2220.00
441.80	2488.28
442.00	2310.11
442.21	2394.08
442.41	2131.94
442.62	2322.40
442.82	2187.23
443.02	2293.72
443.23	2260.96
443.43	2207.71
443.64	2418.65
443.84	2166.75
444.05	2416.60
444.25	2297.82
444.46	2271.20
444.66	2273.25
444.87	2383.84
445.07	2121.70
445.28	2277.34
445.48	2301.92
445.69	2299.87
445.89	2416.60
446.09	2277.34
446.30	2510.81
446.50	2764.76
446.71	4399.04
446.91	5752.74
447.12	6383.52
447.32	6600.60
447.53	6217.63
447.73	5132.21
447.93	4569.02
448.14	4173.76
448.34	4054.98
448.55	3581.90
448.75	3575.75
448.96	3350.48
449.16	3104.72
449.36	2934.74
449.57	2529.24
449.77	2359.26
449.98	2285.53
450.18	2383.84
450.39	2392.03
450.59	2404.32
450.79	2363.36
451.00	2222.05
451.20	2338.78
451.41	2324.44
451.61	2416.60
451.81	2314.20
452.02	2172.89
452.22	2269.15
452.43	2293.72
452.63	2252.77
452.84	2224.09
453.04	2252.77
453.24	2244.57
453.45	2140.13
453.65	2277.34
453.86	2332.64
454.06	2367.45
454.26	2246.62
454.47	2205.66
454.67	2363.36
454.87	2301.92
455.08	2297.82
455.28	2441.18
455.49	2244.57
455.69	2133.98
455.89	2439.13
456.10	2334.68
456.30	2224.09
456.51	2375.64
456.71	2252.77
456.91	2285.53
457.12	2295.77
457.32	2351.07
457.52	2154.46
457.73	2301.92
457.93	2334.68
458.14	2228.19
458.34	2076.64
458.54	2260.96
458.75	2230.24
458.95	2369.50
459.15	2258.91
459.36	2297.82
459.56	2287.58
459.76	2533.34
459.97	2275.29
460.17	2297.82
460.37	2373.60
460.58	2256.86
460.78	2342.88
460.99	2211.81
461.19	2263.01
461.39	2174.94
461.60	2205.66
461.80	2248.67
462.00	2193.37
462.21	2230.24
462.41	2215.90
462.61	2156.51
462.82	2090.98
463.02	2334.68
463.22	2301.92
463.43	2381.79
463.63	2187.23
463.83	2439.13
464.04	2326.49
464.24	2240.48
464.44	2154.46
464.64	2240.48
464.85	2316.25
465.05	2277.34
465.25	2301.92
465.46	2179.04
465.66	2303.96
465.86	2287.58
466.07	2244.57
466.27	2250.72
466.47	2203.61
466.68	2133.98
466.88	2392.03
467.08	2316.25
467.29	2445.27
467.49	2283.49
467.69	2250.72
467.89	2332.64
468.10	2205.66
468.30	2328.54
468.50	2373.60
468.71	2439.13
468.91	2172.89
469.11	2490.33
469.31	2267.10
469.52	2236.38
469.72	2482.14
469.92	2363.36
470.13	2193.37
470.33	2277.34
470.53	2353.12
470.73	2682.84
470.94	2916.31
471.14	3186.64
471.34	3477.45
471.54	3430.35
471.75	3041.23
471.95	2842.58
472.15	2725.85
472.36	2813.91
472.56	2670.55
472.76	2744.28
472.96	2664.41
473.17	2529.24
473.37	2490.33
473.57	2260.96
473.77	2387.93
473.98	2269.15
474.18	2156.51
474.38	2547.67
474.58	2215.90
474.79	2193.37
474.99	2314.20
475.19	2332.64
475.39	2170.85
475.60	2248.67
475.80	2189.28
476.00	2260.96
476.20	2228.19
476.41	2306.01
476.61	2473.95
476.81	2430.94
477.01	2220.00
477.21	2463.71
477.42	2359.26
477.62	2176.99
477.82	2359.26
478.02	2213.85
478.23	2316.25
478.43	2172.89
478.63	2250.72
478.83	2258.91
479.03	2160.61
479.24	2478.04
479.44	2498.52
479.64	2185.18
479.84	2064.35
480.04	2187.23
480.25	2314.20
480.45	2076.64
480.65	2156.51
480.85	2430.94
481.06	2205.66
481.26	2328.54
481.46	2338.78
481.66	2310.11
481.86	2168.80
482.06	2346.97
482.27	2275.29
482.47	2244.57
482.67	2281.44
482.87	2193.37
483.07	2273.25
483.28	2201.57
483.48	2133.98
483.68	2314.20
483.88	2105.31
484.08	2043.87
484.29	2181.09
484.49	2283.49
484.69	2152.42
484.89	2459.61
485.09	2318.30
485.29	2293.72
485.50	2314.20
485.70	2183.13
485.90	2367.45
486.10	2281.44
486.30	2281.44
486.50	2328.54
486.71	2244.57
486.91	2416.60
487.11	2359.26
487.31	2113.50
487.51	2406.36
487.71	2119.65
487.91	2193.37
488.12	2279.39
488.32	2121.70
488.52	2215.90
488.72	2045.92
488.92	2340.83
489.12	2351.07
489.32	2291.68
489.53	2246.62
489.73	2164.70
489.93	2406.36
490.13	2203.61
490.33	2136.03
490.53	2220.00
490.73	2392.03
490.94	2129.89
491.14	2392.03
491.34	2355.16
491.54	2590.68
491.74	3219.41
491.94	3835.85
492.14	3997.64
492.34	4206.53
492.54	3780.55
492.75	3258.32
492.95	3145.68
493.15	2981.84
493.35	2901.97
493.55	2752.47
493.75	2750.42
493.95	2707.41
494.15	2607.06
494.35	2420.70
494.56	2265.05
494.76	2209.76
494.96	2363.36
495.16	2283.49
495.36	2340.83
495.56	2265.05
495.76	2308.06
495.96	2246.62
496.16	2183.13
496.36	2461.66
496.56	2207.71
496.77	2189.28
496.97	2234.33
497.17	2381.79
497.37	2117.60
497.57	2326.49
497.77	2287.58
497.97	2199.52
498.17	2269.15
498.37	2170.85
498.57	2363.36
498.77	2222.05
498.97	2293.72
499.17	2381.79
499.38	2295.77
499.58	2400.22
499.78	2404.32
499.98	2351.07
500.18	2271.20
500.38	2283.49
500.58	2334.68
500.78	2826.20
500.98	5126.07
501.18	7294.86
501.38	8802.17
501.58	9690.99
501.78	9697.13
501.98	7597.96
502.18	6504.35
502.38	5322.67
502.58	5134.26
502.78	4530.11
502.98	4501.44
503.18	4184.00
503.38	3983.30
503.59	3370.96
503.79	3268.56
503.99	3010.51
504.19	2809.81
504.39	2852.82
504.59	2807.77
504.79	2920.40
504.99	2863.06
505.19	2572.25
505.39	2449.37
505.59	2490.33
505.79	2525.15
505.99	2463.71
506.19	2285.53
506.39	2377.69
506.59	2312.16
506.79	2279.39
506.99	2367.45
507.19	2293.72
507.39	2320.35
507.59	2101.22
507.79	2250.72
507.99	2162.66
508.19	2246.62
508.39	2220.00
508.59	2228.19
508.79	2451.42
508.99	2412.51
509.19	2189.28
509.39	2306.01
509.59	2107.36
509.79	2197.47
509.99	2209.76
510.19	2375.64
510.39	2310.11
510.59	2248.67
510.79	2234.33
510.99	2078.69
511.19	2301.92
511.39	2449.37
511.59	2359.26
511.79	2385.88
511.99	2179.04
512.19	2465.75
512.38	2269.15
512.58	2172.89
512.78	2269.15
512.98	2373.60
513.18	2420.70
513.38	2154.46
513.58	2269.15
513.78	2289.63
513.98	2359.26
514.18	2226.14
514.38	2191.33
514.58	2252.77
514.78	2222.05
514.98	2158.56
515.18	2228.19
515.38	2127.84
515.58	2408.41
515.78	2220.00
515.98	2236.38
516.18	2377.69
516.38	2269.15
516.57	2228.19
516.77	2230.24
516.97	2394.08
517.17	2170.85
517.37	2070.50
517.57	2369.50
517.77	2310.11
517.97	2154.46
518.17	2334.68
518.37	2154.46
518.57	2217.95
518.77	2172.89
518.97	2179.04
519.16	2320.35
519.36	2367.45
519.56	2234.33
519.76	2260.96
519.96	2193.37
520.16	2455.51
520.36	2144.22
520.56	2455.51
520.76	2297.82
520.96	2224.09
521.16	2465.75
521.35	2408.41
521.55	2408.41
521.75	2240.48
521.95	2215.90
522.15	2179.04
522.35	2152.42
522.55	2162.66
522.75	2371.55
522.95	2195.42
523.14	2150.37
523.34	2275.29
523.54	2277.34
523.74	2314.20
523.94	2383.84
524.14	2162.66
524.34	2263.01
524.54	2457.56
524.73	2246.62
524.93	2295.77
525.13	2248.67
525.33	2072.54
525.53	2521.05
525.73	2379.74
525.93	2310.11
526.13	2232.29
526.32	2256.86
526.52	2369.50
526.72	2381.79
526.92	2308.06
527.12	2248.67
527.32	2056.16
527.52	2244.57
527.71	2269.15
527.91	2209.76
528.11	2275.29
528.31	2189.28
528.51	2195.42
528.71	2297.82
528.90	2314.20
529.10	2400.22
529.30	2471.90
529.50	1964.00
529.70	2336.73
529.90	2293.72
530.09	2301.92
530.29	2166.75
530.49	2263.01
530.69	2498.52
530.89	2195.42
531.09	2396.12
531.28	2287.58
531.48	2328.54
531.68	2357.21
531.88	2267.10
532.08	2381.79
532.28	2183.13
532.47	2332.64
532.67	2435.03
532.87	2340.83
533.07	2168.80
533.27	2422.75
533.46	2363.36
533.66	2326.49
533.86	2267.10
534.06	2295.77
534.26	2263.01
534.45	2217.95
534.65	2371.55
534.85	2308.06
535.05	2222.05
535.25	2359.26
535.44	2115.55
535.64	2375.64
535.84	2314.20
536.04	2179.04
536.24	2275.29
536.43	2248.67
536.63	2293.72
536.83	2258.91
537.03	2193.37
537.22	2129.89
537.42	2062.30
537.62	2308.06
537.82	2179.04
538.02	2445.27
538.21	2398.17
538.41	2660.31
538.61	2320.35
538.81	2293.72
539.00	2310.11
539.20	2187.23
539.40	2289.63
539.60	2279.39
539.79	2418.65
539.99	2258.91
540.19	2258.91
540.39	2250.72
540.58	2299.87
540.78	2383.84
540.98	2281.44
541.18	2334.68
541.37	2277.34
541.57	2308.06
541.77	2340.83
541.97	2199.52
542.16	2039.78
542.36	2160.61
542.56	2283.49
542.76	2385.88
542.95	2353.12
543.15	2375.64
543.35	2334.68
543.54	2189.28
543.74	2187.23
543.94	2385.88
544.14	2183.13
544.33	2332.64
544.53	2240.48
544.73	2236.38
544.93	2248.67
545.12	2279.39
545.32	2244.57
545.52	2226.14
545.71	2207.71
545.91	2236.38
546.11	2213.85
546.30	2244.57
546.50	2326.49
546.70	2269.15
546.90	2301.92
547.09	2150.37
547.29	2326.49
547.49	2355.16
547.68	2191.33
547.88	2189.28
548.08	2338.78
548.27	2729.94
548.47	2224.09
548.67	2250.72
548.87	2342.88
549.06	2250.72
549.26	2189.28
549.46	2387.93
549.65	2160.61
549.85	2306.01
550.05	2273.25
550.24	2080.74
550.44	2283.49
550.64	2281.44
550.83	2258.91
551.03	2453.47
551.23	2258.91
551.42	2355.16
551.62	2224.09
551.82	2293.72
552.01	2236.38
552.21	2467.80
552.41	2236.38
552.60	2408.41
552.80	2279.39
553.00	2228.19
553.19	2260.96
553.39	2521.05
553.59	2203.61
553.78	2217.95
553.98	2289.63
554.17	2152.42
554.37	2285.53
554.57	2308.06
554.76	2191.33
554.96	2252.77
555.16	2252.77
555.35	2291.68
555.55	2312.16
555.75	2260.96
555.94	2344.92
556.14	2193.37
556.33	2330.59
556.53	2392.03
556.73	2267.10
556.92	2342.88
557.12	2346.97
557.32	2523.10
557.51	2461.66
557.71	2240.48
557.90	2406.36
558.10	2504.67
558.30	2164.70
558.49	2265.05
558.69	2252.77
558.88	2228.19
559.08	2334.68
559.28	2310.11
559.47	2258.91
559.67	2281.44
559.86	2467.80
560.06	2285.53
560.26	2277.34
560.45	2301.92
560.65	2226.14
560.84	2398.17
561.04	2217.95
561.24	2334.68
561.43	2211.81
561.63	2428.89
561.82	2318.30
562.02	2338.78
562.22	2187.23
562.41	2183.13
562.61	2240.48
562.80	2207.71
563.00	2519.00
563.19	2324.44
563.39	2244.57
563.59	2310.11
563.78	2211.81
563.98	2062.30
564.17	2195.42
564.37	2193.37
564.56	2199.52
564.76	2125.79
564.96	2330.59
565.15	2310.11
565.35	2545.63
565.54	2226.14
565.74	2320.35
565.93	2330.59
566.13	2267.10
566.32	2267.10
566.52	2418.65
566.71	2281.44
566.91	2367.45
567.11	2316.25
567.30	2201.57
567.50	2373.60
567.69	2303.96
567.89	2258.91
568.08	2293.72
568.28	2293.72
568.47	2125.79
568.67	2351.07
568.86	2224.09
569.06	2361.31
569.25	2316.25
569.45	2138.08
569.64	2236.38
569.84	2201.57
570.04	2346.97
570.23	2170.85
570.43	2205.66
570.62	2271.20
570.82	2373.60
571.01	2127.84
571.21	2195.42
571.40	2131.94
571.60	2402.27
571.79	2265.05
571.99	2279.39
572.18	2215.90
572.38	2359.26
572.57	2195.42
572.77	2389.98
572.96	2527.19
573.16	2310.11
573.35	2277.34
573.55	2418.65
573.74	2351.07
573.94	2201.57
574.13	2232.29
574.33	2408.41
574.52	2373.60
574.71	2242.53
574.91	2367.45
575.10	2101.22
575.30	2158.56
575.49	2144.22
575.69	2107.36
575.88	2377.69
576.08	2334.68
576.27	2445.27
576.47	2263.01
576.66	2400.22
576.86	2471.90
577.05	2430.94
577.25	2338.78
577.44	2435.03
577.64	2254.81
577.83	2373.60
578.02	2201.57
578.22	2328.54
578.41	2373.60
578.61	2291.68
578.80	2121.70
579.00	2301.92
579.19	2312.16
579.39	2308.06
579.58	2381.79
579.77	2340.83
579.97	2463.71
580.16	2392.03
580.36	2381.79
580.55	2392.03
580.75	2330.59
580.94	2285.53
581.13	2475.99
581.33	2426.84
581.52	2220.00
581.72	2506.71
581.91	2492.38
582.11	2224.09
582.30	2404.32
582.49	2267.10
582.69	2416.60
582.88	2303.96
583.08	2336.73
583.27	2422.75
583.47	2275.29
583.66	2267.10
583.85	2260.96
584.05	2279.39
584.24	2430.94
584.44	2301.92
584.63	2437.08
584.82	2482.14
585.02	2389.98
585.21	2373.60
585.41	2422.75
585.60	2385.88
585.79	2551.77
585.99	2494.43
586.18	2447.32
586.37	2955.22
586.57	4642.75
586.76	13989.67
586.96	33043.98
587.15	47150.38
587.34	56550.56
587.54	61768.79
587.73	56282.28
587.93	39953.82
588.12	30258.74
588.31	24319.63
588.51	21081.79
588.70	19314.39
588.89	17739.51
589.09	15177.50
589.28	13375.28
589.47	10551.14
589.67	8281.99
589.86	6444.96
590.06	4681.66
590.25	3858.37
590.44	3192.78
590.64	2770.90
590.83	2619.35
591.02	2650.07
591.22	2387.93
591.41	2400.22
591.60	2375.64
591.80	2467.80
591.99	2306.01
592.18	2240.48
592.38	2400.22
592.57	2306.01
592.76	2310.11
592.96	2402.27
593.15	2283.49
593.34	2443.23
593.54	2238.43
593.73	2357.21
593.92	2355.16
594.12	2353.12
594.31	2334.68
594.50	2414.56
594.70	2432.99
594.89	2551.77
595.08	2160.61
595.28	2379.74
595.47	2615.26
595.66	2428.89
595.86	2185.18
596.05	2285.53
596.24	2267.10
596.43	2525.15
596.63	2314.20
596.82	2277.34
597.01	2375.64
597.21	2572.25
597.40	2387.93
597.59	2291.68
597.79	2258.91
597.98	2414.56
598.17	2369.50
598.36	2258.91
598.56	2473.95
598.75	2271.20
598.94	2332.64
599.14	2236.38
599.33	2250.72
599.52	2361.31
599.71	2220.00
599.91	2367.45
600.10	2318.30
600.29	2236.38
600.48	2387.93
600.68	2263.01
600.87	2254.81
601.06	2306.01
601.26	2312.16
601.45	2338.78
601.64	2301.92
601.83	2299.87
602.03	2193.37
602.22	2138.08
602.41	2408.41
602.60	2502.62
602.80	2430.94
602.99	2367.45
603.18	2224.09
603.37	2287.58
603.57	2318.30
603.76	2381.79
603.95	2340.83
604.14	2240.48
604.34	2156.51
604.53	2291.68
604.72	2318.30
604.91	2334.68
605.10	2342.88
605.30	2146.27
605.49	2504.67
605.68	2285.53
605.87	2328.54
606.07	2191.33
606.26	2295.77
606.45	2369.50
606.64	2320.35
606.84	2228.19
607.03	2220.00
607.22	2449.37
607.41	2273.25
607.60	2220.00
607.80	2359.26
607.99	2285.53
608.18	2314.20
608.37	2258.91
608.56	2244.57
608.76	2424.80
608.95	2461.66
609.14	2324.44
609.33	2428.89
609.52	2484.19
609.72	2342.88
609.91	2432.99
610.10	2285.53
610.29	2439.13
610.48	2369.50
610.68	2293.72
610.87	2355.16
611.06	2357.21
611.25	2275.29
611.44	2310.11
611.63	2244.57
611.83	2428.89
612.02	2086.88
612.21	2439.13
612.40	2099.17
612.59	2172.89
612.79	2133.98
612.98	2258.91
613.17	2422.75
613.36	2250.72
613.55	2336.73
613.74	2365.40
613.93	2424.80
614.13	2367.45
614.32	2424.80
614.51	2420.70
614.70	2424.80
614.89	2332.64
615.08	2416.60
615.28	2768.85
615.47	2136.03
615.66	2400.22
615.85	2291.68
616.04	2441.18
616.23	2349.02
616.42	2334.68
616.62	2375.64
616.81	2363.36
617.00	2291.68
617.19	2379.74
617.38	2242.53
617.57	2308.06
617.76	2365.40
617.95	2283.49
618.15	2334.68
618.34	2447.32
618.53	2164.70
618.72	2416.60
618.91	2430.94
619.10	2363.36
619.29	2297.82
619.48	2230.24
619.68	2183.13
619.87	2224.09
620.06	2201.57
620.25	2332.64
620.44	2303.96
620.63	2228.19
620.82	2207.71
621.01	2269.15
621.20	2232.29
621.39	2252.77
621.59	2346.97
621.78	2277.34
621.97	2217.95
622.16	2355.16
622.35	2318.30
622.54	2437.08
622.73	2373.60
622.92	2125.79
623.11	2383.84
623.30	2222.05
623.49	2420.70
623.68	2228.19
623.88	2471.90
624.07	2250.72
624.26	2256.86
624.45	2244.57
624.64	2224.09
624.83	2244.57
625.02	2201.57
625.21	2207.71
625.40	2316.25
625.59	2310.11
625.78	2310.11
625.97	2400.22
626.16	2412.51
626.35	2498.52
626.54	2414.56
626.74	2414.56
626.93	2252.77
627.12	2285.53
627.31	2389.98
627.50	2314.20
627.69	2369.50
627.88	2187.23
628.07	2250.72
628.26	2162.66
628.45	2244.57
628.64	2185.18
628.83	2260.96
629.02	2220.00
629.21	2416.60
629.40	2303.96
629.59	2146.27
629.78	2168.80
629.97	2314.20
630.16	2281.44
630.35	2215.90
630.54	2289.63
630.73	2263.01
630.92	2244.57
631.11	2191.33
631.30	2349.02
631.49	2349.02
631.68	2275.29
631.87	2281.44
632.06	2172.89
632.25	2559.96
632.44	2318.30
632.63	2277.34
632.82	2263.01
633.01	2291.68
633.20	2342.88
633.39	2400.22
633.58	2220.00
633.77	2303.96
633.96	2420.70
634.15	2357.21
634.34	2326.49
634.53	2303.96
634.72	2228.19
634.91	2172.89
635.10	2258.91
635.29	2340.83
635.48	2318.30
635.67	2260.96
635.86	2080.74
636.05	2412.51
636.24	2267.10
636.43	2267.10
636.62	2238.43
636.81	2097.12
637.00	2265.05
637.19	2326.49
637.38	2275.29
637.57	2267.10
637.76	2359.26
637.95	2461.66
638.14	2318.30
638.33	2318.30
638.52	2392.03
638.71	2191.33
638.89	2236.38
639.08	2535.39
639.27	2445.27
639.46	2521.05
639.65	2797.53
639.84	2824.15
640.03	3049.43
640.22	2830.29
640.41	2924.50
640.60	2586.58
640.79	2553.82
640.98	2404.32
641.17	2437.08
641.36	2457.56
641.55	2459.61
641.74	2244.57
641.92	2228.19
642.11	2207.71
642.30	2326.49
642.49	2230.24
642.68	2232.29
642.87	2283.49
643.06	2353.12
643.25	2209.76
643.44	2191.33
643.63	2277.34
643.82	2308.06
644.00	2176.99
644.19	2195.42
644.38	2195.42
644.57	2355.16
644.76	2308.06
644.95	2254.81
645.14	2217.95
645.33	2269.15
645.52	2355.16
645.71	2138.08
645.89	2138.08
646.08	2340.83
646.27	2244.57
646.46	2455.51
646.65	2201.57
646.84	2267.10
647.03	2076.64
647.22	2371.55
647.40	2293.72
647.59	2234.33
647.78	2086.88
647.97	2209.76
648.16	2168.80
648.35	2389.98
648.54	2432.99
648.73	2207.71
648.91	2398.17
649.10	2277.34
649.29	2258.91
649.48	2258.91
649.67	2334.68
649.86	2242.53
650.05	2318.30
650.23	2385.88
650.42	2318.30
650.61	2484.19
650.80	2461.66
650.99	2521.05
651.18	2406.36
651.36	2428.89
651.55	2211.81
651.74	2365.40
651.93	2328.54
652.12	2291.68
652.31	2301.92
652.49	2211.81
652.68	2269.15
652.87	2461.66
653.06	2273.25
653.25	2400.22
653.44	2281.44
653.62	2467.80
653.81	2260.96
654.00	2174.94
654.19	2359.26
654.38	2543.58
654.56	2277.34
654.75	2267.10
654.94	2349.02
655.13	2312.16
655.32	2291.68
655.51	2322.40
655.69	2211.81
655.88	2340.83
656.07	2078.69
656.26	2330.59
656.45	2105.31
656.63	2226.14
656.82	2289.63
657.01	2285.53
657.20	2195.42
657.38	2398.17
657.57	2269.15
657.76	2047.97
657.95	2336.73
658.14	2205.66
658.32	2301.92
658.51	2103.26
658.70	2289.63
658.89	2244.57
659.08	2324.44
659.26	2486.23
659.45	2303.96
659.64	2355.16
659.83	2244.57
660.01	2570.20
660.20	2316.25
660.39	2420.70
660.58	2068.45
660.76	2400.22
660.95	2109.41
661.14	2287.58
661.33	2136.03
661.51	2230.24
661.70	2224.09
661.89	2287.58
662.08	2162.66
662.26	2093.02
662.45	2150.37
662.64	2484.19
662.83	2279.39
663.01	2072.54
663.20	2168.80
663.39	2338.78
663.58	2158.56
663.76	2226.14
663.95	2342.88
664.14	2176.99
664.32	2248.67
664.51	2199.52
664.70	2082.78
664.89	2295.77
665.07	2138.08
665.26	2416.60
665.45	2125.79
665.64	2316.25
665.82	2250.72
666.01	2330.59
666.20	2193.37
666.38	2291.68
666.57	2412.51
666.76	3342.28
666.95	8353.66
667.13	16183.05
667.32	21452.47
667.51	24594.06
667.69	26504.81
667.88	24178.32
668.07	17350.39
668.25	14034.73
668.44	11417.43
668.63	9934.70
668.81	8730.49
669.00	7952.26
669.19	6856.60
669.38	5957.54
669.56	5091.25
669.75	4290.49
669.94	3686.34
670.12	3045.33
670.31	2822.10
670.50	2656.22
670.68	2516.95
670.87	2363.36
671.06	2346.97
671.24	2289.63
671.43	2408.41
671.62	2322.40
671.80	2275.29
671.99	2220.00
672.18	2248.67
672.36	2330.59
672.55	2275.29
672.74	2285.53
672.92	2244.57
673.11	2373.60
673.29	2103.26
673.48	2277.34
673.67	2252.77
673.85	2353.12
674.04	2207.71
674.23	2301.92
674.41	2480.09
674.60	2215.90
674.79	2074.59
674.97	2129.89
675.16	2324.44
675.34	2346.97
675.53	2146.27
675.72	2285.53
675.90	2422.75
676.09	2246.62
676.28	2371.55
676.46	2060.26
676.65	2344.92
676.83	2150.37
677.02	2277.34
677.21	2236.38
677.39	2277.34
677.58	2185.18
677.77	2240.48
677.95	2238.43
678.14	2228.19
678.32	2215.90
678.51	2236.38
678.70	2389.98
678.88	2197.47
679.07	2295.77
679.25	2224.09
679.44	2244.57
679.63	2140.13
679.81	2346.97
680.00	2361.31
680.18	2308.06
680.37	2412.51
680.55	2293.72
680.74	2119.65
680.93	2064.35
681.11	2326.49
681.30	2224.09
681.48	2236.38
681.67	2240.48
681.85	2250.72
682.04	2129.89
682.23	2326.49
682.41	2291.68
682.60	2275.29
682.78	2226.14
682.97	2211.81
683.15	2285.53
683.34	2316.25
683.53	2404.32
683.71	2086.88
683.90	2424.80
684.08	2426.84
684.27	2271.20
684.45	2363.36
684.64	2346.97
684.82	2228.19
685.01	2217.95
685.19	2203.61
685.38	2392.03
685.57	2322.40
685.75	2187.23
685.94	2244.57
686.12	2154.46
686.31	2168.80
686.49	2525.15
686.68	2101.22
686.86	2277.34
687.05	2322.40
687.23	2392.03
687.42	2187.23
687.60	2088.93
687.79	2357.21
687.97	2447.32
688.16	2367.45
688.34	2342.88
688.53	2138.08
688.71	2338.78
688.90	2326.49
689.08	2220.00
689.27	2121.70
689.45	2441.18
689.64	2285.53
689.82	2269.15
690.01	2267.10
690.19	2361.31
690.38	2244.57
690.56	2314.20
690.75	2172.89
690.93	2217.95
691.12	2174.94
691.30	2220.00
691.49	2193.37
691.67	2297.82
691.86	2439.13
692.04	2242.53
692.23	2215.90
692.41	2209.76
692.60	2494.43
692.78	2379.74
692.97	2322.40
693.15	2385.88
693.34	2469.85
693.52	2424.80
693.71	2277.34
693.89	2234.33
694.08	2125.79
694.26	2297.82
694.44	2318.30
694.63	2293.72
694.81	2158.56
695.00	2140.13
695.18	2344.92
695.37	2564.06
695.55	2318.30
695.74	2232.29
695.92	2121.70
696.10	2437.08
696.29	2242.53
696.47	2252.77
696.66	2199.52
696.84	2148.32
697.03	2220.00
697.21	2443.23
697.40	3252.17
697.58	2342.88
697.76	2174.94
697.95	2209.76
698.13	2113.50
698.32	2193.37
698.50	2306.01
698.68	2273.25
698.87	2340.83
699.05	2441.18
699.24	2209.76
699.42	2144.22
699.61	2324.44
699.79	2281.44
699.97	2209.76
700.16	2136.03
700.34	2146.27
700.53	2279.39
700.71	2447.32
700.89	2349.02
701.08	2334.68
701.26	2269.15
701.45	2797.53
701.63	2201.57
701.81	2211.81
702.00	2246.62
702.18	2308.06
702.37	2207.71
702.55	2533.34
702.73	2375.64
702.92	2435.03
703.10	2547.67
703.28	2451.42
703.47	2326.49
703.65	2496.47
703.84	2412.51
704.02	2228.19
704.20	2410.46
704.39	2283.49
704.57	2244.57
704.75	2404.32
704.94	2346.97
705.12	2334.68
705.30	2572.25
705.49	4423.61
705.67	10082.15
705.86	18288.36
706.04	21591.73
706.22	24745.61
706.41	25867.89
706.59	21774.00
706.77	15394.58
706.96	12871.48
707.14	11351.89
707.32	9912.17
707.51	8947.58
707.69	7268.24
707.87	5865.38
708.06	4732.86
708.24	3917.76
708.42	3219.41
708.61	3084.24
708.79	2432.99
708.97	2424.80
709.16	2326.49
709.34	2316.25
709.52	2332.64
709.71	2330.59
709.89	2265.05
710.07	2195.42
710.26	2181.09
710.44	2283.49
710.62	2301.92
710.80	2230.24
710.99	2367.45
711.17	2340.83
711.35	2162.66
711.54	2232.29
711.72	2326.49
711.90	2332.64
712.09	2250.72
712.27	2211.81
712.45	2334.68
712.63	2197.47
712.82	2275.29
713.00	2226.14
713.18	2285.53
713.37	2318.30
713.55	2369.50
713.73	2299.87
713.91	2285.53
714.10	2181.09
714.28	2193.37
714.46	2312.16
714.65	2232.29
714.83	2230.24
715.01	2308.06
715.19	2281.44
715.38	2129.89
715.56	2297.82
715.74	2236.38
715.92	2123.74
716.11	2408.41
716.29	2072.54
716.47	2244.57
716.65	2248.67
716.84	2095.07
717.02	2353.12
717.20	2072.54
717.38	2187.23
717.57	2353.12
717.75	2189.28
717.93	2136.03
718.11	2275.29
718.30	2183.13
718.48	2205.66
718.66	2275.29
718.84	2365.40
719.03	2179.04
719.21	2203.61
719.39	2400.22
719.57	2326.49
719.75	2408.41
719.94	2095.07
720.12	2217.95
720.30	2244.57
720.48	2357.21
720.67	2133.98
720.85	2220.00
721.03	2240.48
721.21	2203.61
721.39	2392.03
721.58	2363.36
721.76	2207.71
721.94	2314.20
722.12	2308.06
722.30	2439.13
722.49	2222.05
722.67	2285.53
722.85	2375.64
723.03	2189.28
723.21	2209.76
723.40	2265.05
723.58	2367.45
723.76	2357.21
723.94	2383.84
724.12	2312.16
724.30	2412.51
724.49	2375.64
724.67	2138.08
724.85	2389.98
725.03	2162.66
725.21	2328.54
725.40	2428.89
725.58	2242.53
725.76	2428.89
725.94	2373.60
726.12	2207.71
726.30	2308.06
726.49	2170.85
726.67	2193.37
726.85	2326.49
727.03	2527.19
727.21	3618.76
727.39	5015.48
727.57	5781.42
727.76	6279.07
727.94	6664.09
728.12	6313.89
728.30	5087.15
728.48	4423.61
728.66	4145.09
728.84	3760.07
729.03	3334.09
729.21	3004.37
729.39	2734.04
729.57	2414.56
729.75	2383.84
729.93	2449.37
730.11	2263.01
730.30	2220.00
730.48	2289.63
730.66	2338.78
730.84	2297.82
731.02	2277.34
731.20	2189.28
731.38	2293.72
731.56	2150.37
731.74	2125.79
731.93	2191.33
732.11	2189.28
732.29	2242.53
732.47	2238.43
732.65	2263.01
732.83	2330.59
733.01	2285.53
733.19	2176.99
733.37	2281.44
733.56	2314.20
733.74	2211.81
733.92	2441.18
734.10	2185.18
734.28	2314.20
734.46	2158.56
734.64	2197.47
734.82	2220.00
735.00	2256.86
735.18	2213.85
735.36	2236.38
735.54	2269.15
735.73	2285.53
735.91	2228.19
736.09	2340.83
736.27	2269.15
736.45	2273.25
736.63	2125.79
736.81	2215.90
736.99	2340.83
737.17	2414.56
737.35	2265.05
737.53	2269.15
737.71	2252.77
737.89	2394.08
738.07	2142.18
738.25	2125.79
738.43	2148.32
738.61	2303.96
738.80	2121.70
738.98	2150.37
739.16	2181.09
739.34	2203.61
739.52	2400.22
739.70	2258.91
739.88	2351.07
740.06	2349.02
740.24	2000.87
740.42	2349.02
740.60	2062.30
740.78	2179.04
740.96	2054.11
741.14	2168.80
741.32	2256.86
741.50	2176.99
741.68	2441.18
741.86	2406.36
742.04	2117.60
742.22	2121.70
742.40	2234.33
742.58	2271.20
742.76	2168.80
742.94	2400.22
743.12	2146.27
743.30	2246.62
743.48	2287.58
743.66	2203.61
743.84	2293.72
744.02	2187.23
744.20	2211.81
744.38	2203.61
744.56	2185.18
744.74	2424.80
744.92	2340.83
745.10	2346.97
745.28	2318.30
745.46	2443.23
745.64	2234.33
745.82	2357.21
746.00	2191.33
746.18	2260.96
746.36	2185.18
746.54	2269.15
746.72	2324.44
746.90	2211.81
747.08	2375.64
747.26	2160.61
747.44	2312.16
747.62	2426.84
747.80	2279.39
747.98	2346.97
748.15	2166.75
748.33	2400.22
748.51	2285.53
748.69	2383.84
748.87	2174.94
749.05	2240.48
749.23	2258.91
749.41	2275.29
749.59	2232.29
749.77	2355.16
749.95	2260.96
750.13	2254.81
750.31	2289.63
750.49	2195.42
750.67	2277.34
750.85	2334.68
751.03	2248.67
751.20	2498.52
751.38	2322.40
751.56	2258.91
751.74	2355.16
751.92	2154.46
752.10	2226.14
752.28	2445.27
752.46	2170.85
752.64	2246.62
752.82	2148.32
753.00	2277.34
753.18	2176.99
753.35	2291.68
753.53	2258.91
753.71	2189.28
753.89	2301.92
754.07	2211.81
754.25	2310.11
754.43	2279.39
754.61	2187.23
754.79	2277.34
754.97	2191.33
755.14	2392.03
755.32	2166.75
755.50	2224.09
755.68	2246.62
755.86	2211.81
756.04	2248.67
756.22	2019.30
756.40	2295.77
756.57	2389.98
756.75	2146.27
756.93	2437.08
757.11	2303.96
757.29	2144.22
757.47	2193.37
757.65	2086.88
757.82	2097.12
758.00	2213.85
758.18	2234.33
758.36	2133.98
758.54	2394.08
758.72	2150.37
758.90	2342.88
759.07	2312.16
759.25	2111.46
759.43	2340.83
759.61	2140.13
759.79	3123.15
759.97	2320.35
760.15	2209.76
760.32	2246.62
760.50	2265.05
760.68	2342.88
760.86	2117.60
761.04	2297.82
761.22	2285.53
761.39	2269.15
761.57	2332.64
761.75	2242.53
761.93	2306.01
762.11	2224.09
762.28	2326.49
762.46	2211.81
762.64	2326.49
762.82	2172.89
763.00	2234.33
763.18	2430.94
763.35	2170.85
763.53	2336.73
763.71	2133.98
763.89	2236.38
764.07	2236.38
764.24	2287.58
764.42	2324.44
764.60	2158.56
764.78	2336.73
764.96	2308.06
765.13	2312.16
765.31	2168.80
765.49	2351.07
765.67	2193.37
765.84	2222.05
766.02	2142.18
766.20	2136.03
766.38	2349.02
766.56	2277.34
766.73	2353.12
766.91	2244.57
767.09	2283.49
767.27	2371.55
767.44	2097.12
767.62	2314.20
767.80	2285.53
767.98	2236.38
768.15	2248.67
768.33	2285.53
768.51	2334.68
768.69	2416.60
768.87	2330.59
769.04	2224.09
769.22	2500.57
769.40	2342.88
769.58	2486.23
769.75	2265.05
769.93	2420.70
770.11	2154.46
770.28	2138.08
770.46	2392.03
770.64	2285.53
770.82	2240.48
770.99	2181.09
771.17	2312.16
771.35	2201.57
771.53	2228.19
771.70	2224.09
771.88	2287.58
772.06	2191.33
772.23	2222.05
772.41	2236.38
772.59	2258.91
772.77	2076.64
772.94	2252.77
773.12	2320.35
773.30	2168.80
773.47	2258.91
773.65	2203.61
773.83	2406.36
774.01	2285.53
774.18	2039.78
774.36	2248.67
774.54	2183.13
774.71	2377.69
774.89	2133.98
775.07	2146.27
775.24	2160.61
775.42	2191.33
775.60	2437.08
775.78	2220.00
775.95	2160.61
776.13	2129.89
776.31	2125.79
776.48	2242.53
776.66	2371.55
776.84	2179.04
777.01	2220.00
777.19	2215.90
777.37	2166.75
777.54	2314.20
777.72	2422.75
777.90	2220.00
778.07	2191.33
778.25	2645.98
778.43	2332.64
778.60	2185.18
778.78	2269.15
778.96	2432.99
779.13	2072.54
779.31	2363.36
779.49	2193.37
779.66	2236.38
779.84	2105.31
780.01	2187.23
780.19	2170.85
780.37	2334.68
780.54	2387.93
780.72	2154.46
780.90	2232.29
781.07	2232.29
781.25	2160.61
781.43	2283.49
781.60	2217.95
781.78	2410.46
781.95	2252.77
782.13	2131.94
782.31	2230.24
782.48	2029.54
782.66	2234.33
782.83	2422.75
783.01	2283.49
783.19	2418.65
783.36	2195.42
783.54	2195.42
783.72	2318.30
783.89	2209.76
784.07	2217.95
784.24	2275.29
784.42	2310.11
784.60	2258.91
784.77	2252.77
784.95	2058.21
785.12	2222.05
785.30	2277.34
785.47	2187.23
785.65	2138.08
785.83	2232.29
786.00	2248.67
786.18	2230.24
786.35	2127.84
786.53	2179.04
786.71	2328.54
786.88	2279.39
787.06	2252.77
787.23	2228.19
787.41	2160.61
787.58	2254.81
787.76	2193.37
787.94	2213.85
788.11	2330.59
788.29	2189.28
788.46	2201.57
788.64	2056.16
788.81	2244.57
788.99	2195.42
789.16	2232.29
789.34	2172.89
789.52	2211.81
789.69	2168.80
789.87	2133.98
790.04	2275.29
790.22	2230.24
790.39	2502.62
790.57	2144.22
790.74	2209.76
790.92	2277.34
791.09	2113.50
791.27	2240.48
791.44	2342.88
791.62	2351.07
791.79	2330.59
791.97	2150.37
792.15	2488.28
792.32	2297.82
792.50	2273.25
792.67	2437.08
792.85	2357.21
793.02	2209.76
793.20	2187.23
793.37	2105.31
793.55	2232.29
793.72	2162.66
793.90	2265.05
794.07	2113.50
794.25	2185.18
794.42	2240.48
794.60	2215.90
794.77	2236.38
794.95	2367.45
795.12	2303.96
795.30	2275.29
795.47	2107.36
795.65	2512.86
795.82	2285.53
796.00	2203.61
796.17	2191.33
796.34	2193.37
796.52	2263.01
796.69	2332.64
796.87	2314.20
797.04	2314.20
797.22	2330.59
797.39	2215.90
797.57	2283.49
797.74	2252.77
797.92	2260.96
798.09	2127.84
798.27	2301.92
798.44	2189.28
798.62	2144.22
798.79	2244.57
798.96	2211.81
799.14	2324.44
799.31	2537.43
799.49	2209.76
799.66	2129.89
799.84	2238.43
800.01	2150.37
800.19	2267.10
800.36	2125.79
800.53	2277.34
800.71	2349.02
800.88	2441.18
801.06	2228.19
801.23	2162.66
801.41	2224.09
801.58	2203.61
801.75	2199.52
801.93	2369.50
802.10	2326.49
802.28	2252.77
802.45	2160.61
802.63	2271.20
802.80	2394.08
802.97	2215.90
803.15	2236.38
803.32	2207.71
803.50	2119.65
803.67	2127.84
803.84	2170.85
804.02	2297.82
804.19	2191.33
804.37	2013.15
804.54	2101.22
804.71	2250.72
804.89	2252.77
805.06	2138.08
805.24	2133.98
805.41	2172.89
805.58	2138.08
805.76	2521.05
805.93	2207.71
806.10	2322.40
806.28	2318.30
806.45	2250.72
806.63	2250.72
806.80	2263.01
806.97	2344.92
807.15	2273.25
807.32	2299.87
807.49	2267.10
807.67	2170.85
807.84	2308.06
808.01	2019.30
808.19	2365.40
808.36	2469.85
808.54	2197.47
808.71	2179.04
808.88	2254.81
809.06	2406.36
809.23	2375.64
809.40	2129.89
809.58	2254.81
809.75	2260.96
809.92	2129.89
810.10	2428.89
810.27	2244.57
810.44	2330.59
810.62	2293.72
810.79	2263.01
810.96	2215.90
811.14	2133.98
811.31	2279.39
811.48	2299.87
811.66	2271.20
811.83	2355.16
812.00	2297.82
812.18	2275.29
812.35	2408.41
812.52	2226.14
812.69	2248.67
812.87	2222.05
813.04	2158.56
813.21	2275.29
813.39	2197.47
813.56	2097.12
813.73	2265.05
813.91	2033.63
814.08	2224.09
814.25	2240.48
814.42	2060.26
814.60	2191.33
814.77	2332.64
814.94	2207.71
815.12	2187.23
815.29	2443.23
815.46	2207.71
815.63	2199.52
815.81	2267.10
815.98	2201.57
816.15	2269.15
816.33	2213.85
816.50	2242.53
816.67	2301.92
816.84	2176.99
817.02	2176.99
817.19	2215.90
817.36	2306.01
817.53	2322.40
817.71	2195.42
817.88	2394.08
818.05	2248.67
818.22	2203.61
818.40	2375.64
818.57	2160.61
818.74	2244.57
818.91	2183.13
819.09	2250.72
819.26	2281.44
819.43	2146.27
819.60	2189.28
819.78	2252.77
819.95	2385.88
820.12	2103.26
820.29	2387.93
820.47	2389.98
820.64	2201.57
820.81	2109.41
820.98	2179.04
821.15	2176.99
821.33	2287.58
821.50	2093.02
821.67	2291.68
821.84	2209.76
822.02	2240.48
822.19	2283.49
822.36	2179.04
822.53	2185.18
822.70	2146.27
822.88	2183.13
823.05	2406.36
823.22	2263.01
823.39	2306.01
823.56	2152.42
823.74	2420.70
823.91	2211.81
824.08	2121.70
824.25	2105.31
824.42	2410.46
824.60	2129.89
824.77	2246.62
824.94	2228.19
825.11	2258.91
825.28	2088.93
825.45	2308.06
825.63	2301.92
825.80	2105.31
825.97	2334.68
826.14	2220.00
826.31	2056.16
826.48	2310.11
826.66	2166.75
826.83	2183.13
827.00	2181.09
827.17	2148.32
827.34	2080.74
827.51	2217.95
827.69	2275.29
827.86	2127.84
828.03	2228.19
828.20	2193.37
828.37	2172.89
828.54	2287.58
828.71	2197.47
828.89	2357.21
829.06	2281.44
829.23	2406.36
829.40	2174.94
829.57	2088.93
829.74	2310.11
829.91	2068.45
830.09	2230.24
830.26	2283.49
830.43	2357.21
830.60	2236.38
830.77	2263.01
830.94	2322.40
831.11	2277.34
831.28	2232.29
831.46	2279.39
831.63	2232.29
831.80	2308.06
831.97	2164.70
832.14	2148.32
832.31	2310.11
832.48	2224.09
832.65	2387.93
832.82	2269.15
832.99	2271.20
833.17	2199.52
833.34	2392.03
833.51	2297.82
833.68	2050.02
833.85	2344.92
834.02	2207.71
834.19	2136.03
834.36	2232.29
834.53	2283.49
834.70	2236.38
834.87	2275.29
835.04	2103.26
835.22	2127.84
835.39	2193.37
835.56	2117.60
835.73	2150.37
835.90	2281.44
836.07	2154.46
836.24	2293.72
836.41	2148.32
836.58	2220.00
836.75	2400.22
836.92	2168.80
837.09	2131.94
837.26	2267.10
837.43	2291.68
837.60	2252.77
837.77	2187.23
837.94	2340.83
838.12	2365.40
838.29	2226.14
838.46	2109.41
838.63	2136.03
838.80	2367.45
838.97	2346.97
839.14	2263.01
839.31	2285.53
839.48	2308.06
839.65	2158.56
839.82	2281.44
839.99	2258.91
840.16	2213.85
840.33	2125.79
840.50	2203.61
840.67	2183.13
840.84	1992.67
841.01	2199.52
841.18	2220.00
841.35	2248.67
841.52	2271.20
841.69	2449.37
841.86	2232.29
842.03	2242.53
842.20	2363.36
842.37	2189.28
842.54	2181.09
842.71	2254.81
842.88	2119.65
843.05	2252.77
843.22	2183.13
843.39	2303.96
843.56	2158.56
843.73	2207.71
843.90	2166.75
844.07	2322.40
844.24	2273.25
844.41	2260.96
844.58	2224.09
844.75	2265.05
844.92	2306.01
845.09	2166.75
845.26	2129.89
845.43	2283.49
845.60	2238.43
845.77	2297.82
845.94	2209.76
846.10	2330.59
846.27	2199.52
846.44	2150.37
846.61	2088.93
846.78	2277.34
846.95	2355.16
847.12	2176.99
847.29	2203.61
847.46	2121.70
847.63	2265.05
847.80	2142.18
847.97	2127.84
848.14	2465.75
848.31	2224.09
848.48	2158.56
848.65	2285.53
848.82	2162.66
848.98	2486.23
849.15	2176.99
849.32	2324.44
849.49	2375.64
849.66	2209.76
849.83	2189.28
850.00	2131.94
850.17	2340.83
850.34	2230.24
850.51	2160.61
850.68	2129.89
850.85	2482.14
851.01	2346.97
851.18	2252.77
851.35	2203.61
851.52	2248.67
851.69	2349.02
851.86	2103.26
852.03	2168.80
852.20	2295.77
852.37	2236.38
852.53	2168.80
852.70	2162.66
852.87	2258.91
853.04	2285.53
853.21	2185.18
853.38	2314.20
853.55	2344.92
853.72	2387.93
853.89	2160.61
854.05	2115.55
854.22	2248.67
854.39	2283.49
854.56	2277.34
854.73	2361.31
854.90	2146.27
855.07	2238.43
855.23	2136.03
855.40	2179.04
855.57	2265.05
855.74	2070.50
855.91	2357.21
856.08	2060.26
856.25	2125.79
856.41	2232.29
856.58	2199.52
856.75	2242.53
856.92	2138.08
857.09	2342.88
857.26	2113.50
857.42	2260.96
857.59	2258.91
857.76	2238.43
857.93	2156.51
858.10	2195.42
858.27	2142.18
858.43	2224.09
858.60	2133.98
858.77	2088.93
858.94	2158.56
859.11	2377.69
859.27	2258.91
859.44	2127.84
859.61	2408.41
859.78	2283.49
859.95	2119.65
860.12	2127.84
860.28	2455.51
860.45	2453.47
860.62	2228.19
860.79	2220.00
860.95	2234.33
861.12	2144.22
861.29	2195.42
861.46	2160.61
861.63	2234.33
861.79	2275.29
861.96	2234.33
862.13	2113.50
862.30	2361.31
862.47	2181.09
862.63	2146.27
862.80	2222.05
862.97	2258.91
863.14	2240.48
863.30	2252.77
863.47	2127.84
863.64	2463.71
863.81	2271.20
863.97	2127.84
864.14	2252.77
864.31	2232.29
864.48	2240.48
864.65	2209.76
864.81	2351.07
864.98	2293.72
865.15	2346.97
865.32	2263.01
865.48	2383.84
865.65	2439.13
865.82	2166.75
865.98	2301.92
866.15	2234.33
866.32	2160.61
866.49	2256.86
866.65	2306.01
866.82	2156.51
866.99	2213.85
867.16	2215.90
867.32	2193.37
867.49	2170.85
867.66	2271.20
867.83	2136.03
867.99	2121.70
868.16	2220.00
868.33	2185.18
868.49	2256.86
868.66	2228.19
868.83	2256.86
868.99	2246.62
869.16	2244.57
869.33	2267.10
869.50	2293.72
869.66	2250.72
869.83	2232.29
870.00	2129.89
870.16	2301.92
870.33	2195.42
870.50	2334.68
870.66	2240.48
870.83	2316.25
871.00	2209.76
871.17	2256.86
871.33	2275.29
871.50	2158.56
871.67	2232.29
871.83	2197.47
872.00	2396.12
872.17	2252.77
872.33	2428.89
872.50	2318.30
872.67	2209.76
872.83	2136.03
873.00	2293.72
873.17	2254.81
873.33	2291.68
873.50	2228.19
873.67	2170.85
873.83	2131.94
874.00	2271.20
874.16	2310.11
874.33	2209.76
874.50	2105.31
874.66	2197.47
874.83	2234.33
875.00	2351.07
875.16	2349.02
875.33	2277.34
875.50	2119.65
875.66	2211.81
875.83	2297.82
875.99	2277.34
876.16	2193.37
876.33	2144.22
876.49	2158.56
876.66	2265.05
876.83	2207.71
876.99	2103.26
877.16	2265.05
877.32	2154.46
877.49	2248.67
877.66	2285.53
877.82	2314.20
877.99	2244.57
878.15	2326.49
878.32	2205.66
878.49	2271.20
878.65	2207.71
878.82	2293.72
878.98	2209.76
879.15	2293.72
879.32	2252.77
879.48	2252.77
879.65	2217.95
879.81	2193.37
879.98	2211.81
880.15	2236.38
880.31	2279.39
880.48	2197.47
880.64	2226.14
880.81	2220.00
880.97	2426.84
881.14	2371.55
881.31	2146.27
881.47	2406.36
881.64	2232.29
881.80	2101.22
881.97	2306.01
882.13	2232.29
882.30	2170.85
882.47	2203.61
882.63	2103.26
882.80	2074.59
882.96	2238.43
883.13	2394.08
883.29	2201.57
883.46	2232.29
883.62	2482.14
883.79	2211.81
883.95	2267.10
884.12	2211.81
884.29	2353.12
884.45	2279.39
884.62	2220.00
884.78	2207.71
884.95	2404.32
885.11	2260.96
885.28	2246.62
885.44	2199.52
885.61	2228.19
885.77	2430.94
885.94	2240.48
886.10	2162.66
886.27	2250.72
886.43	2377.69
886.60	2402.27
886.76	2101.22
886.93	2133.98
887.09	2271.20
887.26	2064.35
887.42	2334.68
887.59	2310.11
887.75	2432.99
887.92	2316.25
888.08	2326.49
888.25	2490.33
888.41	2383.84
888.58	2244.57
888.74	2168.80
888.91	2168.80
>>>>>End Processed Spectral Data<<<<<
