SpectraSuite Data File
++++++++++++++++++++++++++++++++++++
Date: Thu May 05 13:21:10 CEST 2016
User: root
Dark Spectrum Present: No
Reference Spectrum Present: No
Number of Sampled Component Spectra: 1
Spectrometers: USB4C02835
Integration Time (usec): 100000 (USB4C02835)
Spectra Averaged: 1 (USB4C02835)
Boxcar Smoothing: 0 (USB4C02835)
Correct for Electrical Dark: No (USB4C02835)
Strobe/Lamp Enabled: No (USB4C02835)
Correct for Detector Non-linearity: No (USB4C02835)
Correct for Stray Light: No (USB4C02835)
Number of Pixels in Processed Spectrum: 3648
>>>>>Begin Processed Spectral Data<<<<<
177.47	1814.50
177.69	1814.50
177.91	1814.50
178.13	1834.98
178.36	1802.21
178.58	2136.03
178.80	2316.25
179.02	2179.04
179.24	2066.40
179.46	2109.41
179.68	2174.94
179.90	2314.20
180.13	2289.63
180.35	2023.39
180.57	2127.84
180.79	2291.68
181.01	2207.71
181.23	2158.56
181.45	2244.57
181.67	2381.79
181.90	2357.21
182.12	2146.27
182.34	1957.86
182.56	2314.20
182.78	2357.21
183.00	2162.66
183.22	2203.61
183.44	2037.73
183.66	2521.05
183.89	2279.39
184.11	2162.66
184.33	2310.11
184.55	2445.27
184.77	2183.13
184.99	2220.00
185.21	2205.66
185.43	2551.77
185.65	2150.37
185.87	2191.33
186.10	2346.97
186.32	2461.66
186.54	2293.72
186.76	2242.53
186.98	2392.03
187.20	2240.48
187.42	2232.29
187.64	2195.42
187.86	2320.35
188.08	2303.96
188.30	2121.70
188.52	2220.00
188.75	2381.79
188.97	2375.64
189.19	2176.99
189.41	2133.98
189.63	2293.72
189.85	2179.04
190.07	2043.87
190.29	2052.06
190.51	2301.92
190.73	2176.99
190.95	2287.58
191.17	2146.27
191.39	2148.32
191.61	2217.95
191.84	2113.50
192.06	2230.24
192.28	2099.17
192.50	2510.81
192.72	2332.64
192.94	2222.05
193.16	2330.59
193.38	2242.53
193.60	2037.73
193.82	2187.23
194.04	2404.32
194.26	2258.91
194.48	2236.38
194.70	2129.89
194.92	2236.38
195.14	2285.53
195.36	2152.42
195.58	2258.91
195.80	2240.48
196.02	2144.22
196.24	2228.19
196.46	2250.72
196.69	2230.24
196.91	2465.75
197.13	2203.61
197.35	2170.85
197.57	2420.70
197.79	2322.40
198.01	2271.20
198.23	2228.19
198.45	2291.68
198.67	2213.85
198.89	2076.64
199.11	2193.37
199.33	2234.33
199.55	1972.19
199.77	2191.33
199.99	2258.91
200.21	2142.18
200.43	2322.40
200.65	2103.26
200.87	2015.20
201.09	2269.15
201.31	2207.71
201.53	2303.96
201.75	2209.76
201.97	2338.78
202.19	2228.19
202.41	2269.15
202.63	2287.58
202.85	2330.59
203.07	2256.86
203.29	2222.05
203.51	2097.12
203.73	2179.04
203.95	2590.68
204.17	2176.99
204.39	2269.15
204.61	2209.76
204.83	2252.77
205.05	2226.14
205.27	2205.66
205.49	2412.51
205.71	2293.72
205.93	2101.22
206.15	2056.16
206.37	2342.88
206.59	2248.67
206.81	1982.43
207.03	2121.70
207.25	2181.09
207.47	2412.51
207.69	2172.89
207.91	2367.45
208.13	2432.99
208.34	2164.70
208.56	2201.57
208.78	2240.48
209.00	2234.33
209.22	2215.90
209.44	2240.48
209.66	2105.31
209.88	2283.49
210.10	2234.33
210.32	2162.66
210.54	2242.53
210.76	2234.33
210.98	2373.60
211.20	2013.15
211.42	2166.75
211.64	2314.20
211.86	2291.68
212.08	2326.49
212.30	2121.70
212.52	2232.29
212.74	2275.29
212.96	2281.44
213.17	2256.86
213.39	2351.07
213.61	2480.09
213.83	2183.13
214.05	2205.66
214.27	2342.88
214.49	2123.74
214.71	2146.27
214.93	2326.49
215.15	2205.66
215.37	2353.12
215.59	2111.46
215.81	2240.48
216.03	2365.40
216.24	2269.15
216.46	2148.32
216.68	2217.95
216.90	2260.96
217.12	2412.51
217.34	2154.46
217.56	2289.63
217.78	2332.64
218.00	2375.64
218.22	2226.14
218.44	2228.19
218.66	2273.25
218.87	2426.84
219.09	2236.38
219.31	2258.91
219.53	2293.72
219.75	2203.61
219.97	2148.32
220.19	2258.91
220.41	2156.51
220.63	2336.73
220.85	2228.19
221.06	2185.18
221.28	2392.03
221.50	2308.06
221.72	2170.85
221.94	2150.37
222.16	2324.44
222.38	2326.49
222.60	2205.66
222.82	2217.95
223.03	2359.26
223.25	2195.42
223.47	2242.53
223.69	2414.56
223.91	2338.78
224.13	2275.29
224.35	2136.03
224.57	2310.11
224.78	2322.40
225.00	2138.08
225.22	2170.85
225.44	2187.23
225.66	2324.44
225.88	2228.19
226.10	2279.39
226.32	2170.85
226.53	2377.69
226.75	2211.81
226.97	2164.70
227.19	2236.38
227.41	2246.62
227.63	2179.04
227.85	1998.82
228.06	2170.85
228.28	2250.72
228.50	2422.75
228.72	2084.83
228.94	2084.83
229.16	2058.21
229.37	2144.22
229.59	2160.61
229.81	2242.53
230.03	2193.37
230.25	2164.70
230.47	2105.31
230.69	2037.73
230.90	2387.93
231.12	2179.04
231.34	2213.85
231.56	2217.95
231.78	2146.27
232.00	2217.95
232.21	2195.42
232.43	2193.37
232.65	2062.30
232.87	2334.68
233.09	2101.22
233.30	2154.46
233.52	2383.84
233.74	2232.29
233.96	2162.66
234.18	2211.81
234.40	2217.95
234.61	2551.77
234.83	2109.41
235.05	2095.07
235.27	2447.32
235.49	2383.84
235.70	2142.18
235.92	2357.21
236.14	2269.15
236.36	2506.71
236.58	2117.60
236.79	2183.13
237.01	2291.68
237.23	2293.72
237.45	2338.78
237.67	2121.70
237.88	2232.29
238.10	2432.99
238.32	2127.84
238.54	2248.67
238.76	2301.92
238.97	2166.75
239.19	2101.22
239.41	2271.20
239.63	2412.51
239.85	2267.10
240.06	2195.42
240.28	2136.03
240.50	2400.22
240.72	2254.81
240.93	2176.99
241.15	2195.42
241.37	2267.10
241.59	2385.88
241.81	2203.61
242.02	2154.46
242.24	2306.01
242.46	2334.68
242.68	2129.89
242.89	2117.60
243.11	2353.12
243.33	2252.77
243.55	2211.81
243.76	2183.13
243.98	2187.23
244.20	2156.51
244.42	2174.94
244.64	2250.72
244.85	2121.70
245.07	2150.37
245.29	2166.75
245.51	2142.18
245.72	2316.25
245.94	2281.44
246.16	2232.29
246.38	2226.14
246.59	2228.19
246.81	2220.00
247.03	2103.26
247.24	2015.20
247.46	2213.85
247.68	2275.29
247.90	2115.55
248.11	2103.26
248.33	2334.68
248.55	2258.91
248.77	2222.05
248.98	2328.54
249.20	2414.56
249.42	2213.85
249.64	2201.57
249.85	2119.65
250.07	2238.43
250.29	2338.78
250.50	2226.14
250.72	2047.97
250.94	2281.44
251.16	2422.75
251.37	2203.61
251.59	2226.14
251.81	2295.77
252.02	2408.41
252.24	2160.61
252.46	2308.06
252.68	2170.85
252.89	2222.05
253.11	2031.58
253.33	2371.55
253.54	2404.32
253.76	2117.60
253.98	2170.85
254.20	2228.19
254.41	2121.70
254.63	2213.85
254.85	2138.08
255.06	2232.29
255.28	2244.57
255.50	2256.86
255.71	2103.26
255.93	2027.49
256.15	2170.85
256.36	2310.11
256.58	2174.94
256.80	2201.57
257.02	2189.28
257.23	2189.28
257.45	2148.32
257.67	2250.72
257.88	2138.08
258.10	2344.92
258.32	2168.80
258.53	2254.81
258.75	2457.56
258.97	2146.27
259.18	2193.37
259.40	2101.22
259.62	2471.90
259.83	2506.71
260.05	2203.61
260.27	2645.98
260.48	2381.79
260.70	2174.94
260.92	2154.46
261.13	2230.24
261.35	2299.87
261.57	2310.11
261.78	2035.68
262.00	2148.32
262.22	2338.78
262.43	2191.33
262.65	2220.00
262.86	2168.80
263.08	2531.29
263.30	2252.77
263.51	2105.31
263.73	2138.08
263.95	2369.50
264.16	2146.27
264.38	2123.74
264.60	2160.61
264.81	2252.77
265.03	2383.84
265.25	2402.27
265.46	2215.90
265.68	2357.21
265.89	2336.73
266.11	2013.15
266.33	2236.38
266.54	2400.22
266.76	2301.92
266.98	2267.10
267.19	2224.09
267.41	2416.60
267.62	2256.86
267.84	1976.29
268.06	2236.38
268.27	2271.20
268.49	2338.78
268.70	2236.38
268.92	2052.06
269.14	2146.27
269.35	2152.42
269.57	2211.81
269.79	2277.34
270.00	2222.05
270.22	2412.51
270.43	2023.39
270.65	2031.58
270.87	2291.68
271.08	2324.44
271.30	2154.46
271.51	2170.85
271.73	2303.96
271.95	2346.97
272.16	2197.47
272.38	2193.37
272.59	2228.19
272.81	2336.73
273.02	2144.22
273.24	2181.09
273.46	2299.87
273.67	2197.47
273.89	2097.12
274.10	2131.94
274.32	2322.40
274.54	2205.66
274.75	2267.10
274.97	2127.84
275.18	2326.49
275.40	2355.16
275.61	2226.14
275.83	2232.29
276.05	2142.18
276.26	2234.33
276.48	2258.91
276.69	2195.42
276.91	2179.04
277.12	2361.31
277.34	2285.53
277.55	2338.78
277.77	2203.61
277.99	2195.42
278.20	2103.26
278.42	2136.03
278.63	2170.85
278.85	2156.51
279.06	2086.88
279.28	2289.63
279.49	2359.26
279.71	2293.72
279.93	2283.49
280.14	2308.06
280.36	2125.79
280.57	2377.69
280.79	2228.19
281.00	2154.46
281.22	2228.19
281.43	2389.98
281.65	2066.40
281.86	2123.74
282.08	2310.11
282.29	2418.65
282.51	2101.22
282.73	2080.74
282.94	2119.65
283.16	2312.16
283.37	2271.20
283.59	2211.81
283.80	2357.21
284.02	2295.77
284.23	2326.49
284.45	2211.81
284.66	2187.23
284.88	2250.72
285.09	2281.44
285.31	2301.92
285.52	2267.10
285.74	2101.22
285.95	2279.39
286.17	2244.57
286.38	2353.12
286.60	2242.53
286.81	2205.66
287.03	2215.90
287.24	2250.72
287.46	2328.54
287.67	2269.15
287.89	2453.47
288.10	2232.29
288.32	2281.44
288.53	2359.26
288.75	2168.80
288.96	2332.64
289.18	2156.51
289.39	2211.81
289.61	2398.17
289.82	2455.51
290.04	2412.51
290.25	2150.37
290.47	2283.49
290.68	2254.81
290.90	2387.93
291.11	2045.92
291.33	2349.02
291.54	2121.70
291.76	2144.22
291.97	2234.33
292.18	2277.34
292.40	2123.74
292.61	2172.89
292.83	2455.51
293.04	2269.15
293.26	2250.72
293.47	2303.96
293.69	2183.13
293.90	2236.38
294.12	2392.03
294.33	2277.34
294.55	2172.89
294.76	2320.35
294.97	2363.36
295.19	2443.23
295.40	2195.42
295.62	2285.53
295.83	2314.20
296.05	2148.32
296.26	2306.01
296.48	2152.42
296.69	2273.25
296.90	2306.01
297.12	2371.55
297.33	2387.93
297.55	2260.96
297.76	2367.45
297.98	2306.01
298.19	2162.66
298.41	2170.85
298.62	2170.85
298.83	2383.84
299.05	2123.74
299.26	2250.72
299.48	2138.08
299.69	2336.73
299.90	2312.16
300.12	2154.46
300.33	2340.83
300.55	2297.82
300.76	2269.15
300.98	2066.40
301.19	2353.12
301.40	2263.01
301.62	2252.77
301.83	2269.15
302.05	2242.53
302.26	2242.53
302.47	2265.05
302.69	2158.56
302.90	2349.02
303.12	2047.97
303.33	2318.30
303.54	2467.80
303.76	2256.86
303.97	2277.34
304.19	2424.80
304.40	2138.08
304.61	2336.73
304.83	2392.03
305.04	2287.58
305.26	2353.12
305.47	2193.37
305.68	2220.00
305.90	2140.13
306.11	2404.32
306.33	2183.13
306.54	2187.23
306.75	2213.85
306.97	2136.03
307.18	2160.61
307.39	2203.61
307.61	2187.23
307.82	2170.85
308.04	2217.95
308.25	2185.18
308.46	2275.29
308.68	2322.40
308.89	2236.38
309.10	2412.51
309.32	2310.11
309.53	2220.00
309.74	2295.77
309.96	2176.99
310.17	2293.72
310.39	2209.76
310.60	2230.24
310.81	2277.34
311.03	2095.07
311.24	2310.11
311.45	2234.33
311.67	2377.69
311.88	2244.57
312.09	2197.47
312.31	2172.89
312.52	2193.37
312.73	2228.19
312.95	2105.31
313.16	2103.26
313.37	2363.36
313.59	2277.34
313.80	2246.62
314.01	2404.32
314.23	2220.00
314.44	2154.46
314.65	2070.50
314.87	2133.98
315.08	2228.19
315.29	2152.42
315.51	2201.57
315.72	2095.07
315.93	2383.84
316.15	2265.05
316.36	2285.53
316.57	2277.34
316.79	2211.81
317.00	2201.57
317.21	2250.72
317.43	2187.23
317.64	2209.76
317.85	2117.60
318.07	2117.60
318.28	2281.44
318.49	2392.03
318.70	2523.10
318.92	2455.51
319.13	2412.51
319.34	2439.13
319.56	2244.57
319.77	2400.22
319.98	2398.17
320.20	2340.83
320.41	2303.96
320.62	2330.59
320.83	2146.27
321.05	2496.47
321.26	2295.77
321.47	2203.61
321.69	2367.45
321.90	2121.70
322.11	2158.56
322.32	2267.10
322.54	2408.41
322.75	2179.04
322.96	2527.19
323.18	2136.03
323.39	2078.69
323.60	2142.18
323.81	2306.01
324.03	2293.72
324.24	2328.54
324.45	2277.34
324.66	2199.52
324.88	2439.13
325.09	2381.79
325.30	2203.61
325.52	2189.28
325.73	2318.30
325.94	2205.66
326.15	2074.59
326.37	2187.23
326.58	2301.92
326.79	2359.26
327.00	2107.36
327.22	2283.49
327.43	2244.57
327.64	2158.56
327.85	2332.64
328.07	2215.90
328.28	2430.94
328.49	2164.70
328.70	2242.53
328.92	2166.75
329.13	2226.14
329.34	2381.79
329.55	2334.68
329.76	2301.92
329.98	2209.76
330.19	2375.64
330.40	2211.81
330.61	2238.43
330.83	2281.44
331.04	2191.33
331.25	2334.68
331.46	2346.97
331.68	2203.61
331.89	2314.20
332.10	2250.72
332.31	2101.22
332.52	2248.67
332.74	2369.50
332.95	2101.22
333.16	2164.70
333.37	2283.49
333.58	2136.03
333.80	2269.15
334.01	2127.84
334.22	2256.86
334.43	2144.22
334.64	2207.71
334.86	2084.83
335.07	2207.71
335.28	2377.69
335.49	2097.12
335.70	2203.61
335.92	2389.98
336.13	2453.47
336.34	2277.34
336.55	2303.96
336.76	2220.00
336.98	2086.88
337.19	2228.19
337.40	2396.12
337.61	2527.19
337.82	2260.96
338.04	2297.82
338.25	2121.70
338.46	2236.38
338.67	2269.15
338.88	2050.02
339.09	2183.13
339.31	2105.31
339.52	2111.46
339.73	2203.61
339.94	2203.61
340.15	2365.40
340.36	2146.27
340.58	2258.91
340.79	2156.51
341.00	2318.30
341.21	2140.13
341.42	2422.75
341.63	2144.22
341.85	2383.84
342.06	2240.48
342.27	2117.60
342.48	2277.34
342.69	2209.76
342.90	2334.68
343.12	2365.40
343.33	2129.89
343.54	2451.42
343.75	2303.96
343.96	2256.86
344.17	2142.18
344.38	2252.77
344.60	2138.08
344.81	2113.50
345.02	2244.57
345.23	2402.27
345.44	2508.76
345.65	2289.63
345.86	2299.87
346.07	2377.69
346.29	2203.61
346.50	2363.36
346.71	2363.36
346.92	2408.41
347.13	2449.37
347.34	2240.48
347.55	2275.29
347.76	2299.87
347.98	2127.84
348.19	2269.15
348.40	2306.01
348.61	2230.24
348.82	2373.60
349.03	2346.97
349.24	2154.46
349.45	2478.04
349.66	2146.27
349.88	2226.14
350.09	2176.99
350.30	2369.50
350.51	2314.20
350.72	2295.77
350.93	2201.57
351.14	2195.42
351.35	2299.87
351.56	2250.72
351.77	2211.81
351.99	2244.57
352.20	2410.46
352.41	2291.68
352.62	2097.12
352.83	2224.09
353.04	2271.20
353.25	2209.76
353.46	2242.53
353.67	2365.40
353.88	2107.36
354.09	2293.72
354.30	2250.72
354.52	2314.20
354.73	2232.29
354.94	2154.46
355.15	2285.53
355.36	2465.75
355.57	2189.28
355.78	2205.66
355.99	2179.04
356.20	2215.90
356.41	2396.12
356.62	2310.11
356.83	2267.10
357.04	2357.21
357.25	2119.65
357.46	2162.66
357.68	2072.54
357.89	2138.08
358.10	2236.38
358.31	2211.81
358.52	2250.72
358.73	2176.99
358.94	2131.94
359.15	2187.23
359.36	2381.79
359.57	2250.72
359.78	2226.14
359.99	2334.68
360.20	2127.84
360.41	2242.53
360.62	2359.26
360.83	2236.38
361.04	2234.33
361.25	2330.59
361.46	2365.40
361.67	2381.79
361.88	2283.49
362.09	2342.88
362.30	2246.62
362.51	2215.90
362.72	2258.91
362.93	2316.25
363.14	2322.40
363.35	2226.14
363.56	2123.74
363.78	2359.26
363.99	2392.03
364.20	2166.75
364.41	2263.01
364.62	2412.51
364.83	2291.68
365.04	2201.57
365.25	2240.48
365.46	2371.55
365.67	2131.94
365.88	2281.44
366.09	2234.33
366.30	2269.15
366.51	2271.20
366.72	2103.26
366.93	2222.05
367.14	2285.53
367.35	2394.08
367.56	2269.15
367.77	2349.02
367.98	2228.19
368.18	2232.29
368.39	2226.14
368.60	2211.81
368.81	2394.08
369.02	2349.02
369.23	2312.16
369.44	2144.22
369.65	2187.23
369.86	2285.53
370.07	2224.09
370.28	2269.15
370.49	2373.60
370.70	2285.53
370.91	2105.31
371.12	2097.12
371.33	2332.64
371.54	2217.95
371.75	2340.83
371.96	1990.63
372.17	2207.71
372.38	2183.13
372.59	2322.40
372.80	2197.47
373.01	2351.07
373.22	2301.92
373.43	2242.53
373.64	2168.80
373.85	2353.12
374.06	2430.94
374.26	2400.22
374.47	2289.63
374.68	2363.36
374.89	2244.57
375.10	2275.29
375.31	2265.05
375.52	2205.66
375.73	2301.92
375.94	2142.18
376.15	2400.22
376.36	2220.00
376.57	2191.33
376.78	2201.57
376.99	2170.85
377.20	2377.69
377.40	2260.96
377.61	2387.93
377.82	2162.66
378.03	2465.75
378.24	2373.60
378.45	2295.77
378.66	2385.88
378.87	2080.74
379.08	2123.74
379.29	2172.89
379.50	2367.45
379.71	2209.76
379.91	2377.69
380.12	2244.57
380.33	2289.63
380.54	2217.95
380.75	2181.09
380.96	2215.90
381.17	2318.30
381.38	2250.72
381.59	2265.05
381.80	2310.11
382.00	2480.09
382.21	2263.01
382.42	2414.56
382.63	2496.47
382.84	2377.69
383.05	2361.31
383.26	2387.93
383.47	2258.91
383.68	2289.63
383.88	2338.78
384.09	2256.86
384.30	2443.23
384.51	2336.73
384.72	2179.04
384.93	2150.37
385.14	2271.20
385.35	2363.36
385.55	2105.31
385.76	2301.92
385.97	2242.53
386.18	2121.70
386.39	2209.76
386.60	2275.29
386.81	2209.76
387.02	2179.04
387.22	2166.75
387.43	2318.30
387.64	2353.12
387.85	2439.13
388.06	2432.99
388.27	3993.54
388.48	8247.17
388.68	11644.75
388.89	14006.06
389.10	15300.37
389.31	13928.24
389.52	11054.94
389.73	9414.51
389.93	8664.96
390.14	7901.06
390.35	7063.44
390.56	6467.49
390.77	5169.07
390.98	4024.26
391.18	3260.37
391.39	2719.70
391.60	2402.27
391.81	2404.32
392.02	2220.00
392.23	2514.91
392.43	2293.72
392.64	2342.88
392.85	2301.92
393.06	2463.71
393.27	2322.40
393.47	2228.19
393.68	2256.86
393.89	2283.49
394.10	2369.50
394.31	2209.76
394.52	2119.65
394.72	2166.75
394.93	2453.47
395.14	2123.74
395.35	2295.77
395.56	2170.85
395.76	2252.77
395.97	2361.31
396.18	2340.83
396.39	2385.88
396.60	2815.96
396.80	2484.19
397.01	2359.26
397.22	2404.32
397.43	2340.83
397.64	2295.77
397.84	2349.02
398.05	2475.99
398.26	2277.34
398.47	2377.69
398.67	2385.88
398.88	2308.06
399.09	2248.67
399.30	2226.14
399.51	2250.72
399.71	2215.90
399.92	2310.11
400.13	2308.06
400.34	2228.19
400.54	2308.06
400.75	2439.13
400.96	2273.25
401.17	2457.56
401.37	2334.68
401.58	2365.40
401.79	2281.44
402.00	2367.45
402.21	2602.97
402.41	2559.96
402.62	2535.39
402.83	2643.93
403.04	2703.32
403.24	2760.66
403.45	2365.40
403.66	2596.82
403.87	2422.75
404.07	2570.20
404.28	2498.52
404.49	2506.71
404.70	2367.45
404.90	2363.36
405.11	2258.91
405.32	2301.92
405.52	2174.94
405.73	2203.61
405.94	2162.66
406.15	2224.09
406.35	2326.49
406.56	2330.59
406.77	2295.77
406.98	2297.82
407.18	2203.61
407.39	2381.79
407.60	2252.77
407.80	2232.29
408.01	2238.43
408.22	2316.25
408.43	2162.66
408.63	2342.88
408.84	2353.12
409.05	2324.44
409.25	2129.89
409.46	2156.51
409.67	2160.61
409.88	2242.53
410.08	2246.62
410.29	2254.81
410.50	2387.93
410.70	2322.40
410.91	2189.28
411.12	2213.85
411.32	2183.13
411.53	2215.90
411.74	2326.49
411.95	2332.64
412.15	2342.88
412.36	2420.70
412.57	2400.22
412.77	2404.32
412.98	2232.29
413.19	2252.77
413.39	2410.46
413.60	2351.07
413.81	2342.88
414.01	2207.71
414.22	2297.82
414.43	2330.59
414.63	2232.29
414.84	2416.60
415.05	2279.39
415.25	2133.98
415.46	2349.02
415.67	2252.77
415.87	2330.59
416.08	2271.20
416.29	2258.91
416.49	2310.11
416.70	2217.95
416.91	2250.72
417.11	2238.43
417.32	2308.06
417.53	2303.96
417.73	2314.20
417.94	2215.90
418.15	2281.44
418.35	2275.29
418.56	2230.24
418.77	2514.91
418.97	2236.38
419.18	2283.49
419.38	2097.12
419.59	2310.11
419.80	2371.55
420.00	2191.33
420.21	2340.83
420.42	2346.97
420.62	2322.40
420.83	2267.10
421.04	2127.84
421.24	2154.46
421.45	2369.50
421.65	2281.44
421.86	2146.27
422.07	2338.78
422.27	2312.16
422.48	2199.52
422.69	2111.46
422.89	2291.68
423.10	2174.94
423.30	2097.12
423.51	2263.01
423.72	2310.11
423.92	2301.92
424.13	2058.21
424.33	2318.30
424.54	2357.21
424.75	2252.77
424.95	2449.37
425.16	2265.05
425.36	2234.33
425.57	2316.25
425.78	2308.06
425.98	2291.68
426.19	2209.76
426.39	2187.23
426.60	2273.25
426.81	2457.56
427.01	2301.92
427.22	2213.85
427.42	2123.74
427.63	2152.42
427.83	2377.69
428.04	2457.56
428.25	2349.02
428.45	2260.96
428.66	2306.01
428.86	2281.44
429.07	2242.53
429.28	2230.24
429.48	2193.37
429.69	2199.52
429.89	2383.84
430.10	2176.99
430.30	2330.59
430.51	2377.69
430.71	2211.81
430.92	2215.90
431.13	2228.19
431.33	2328.54
431.54	2244.57
431.74	2367.45
431.95	2484.19
432.15	2170.85
432.36	2256.86
432.56	2256.86
432.77	2519.00
432.98	2519.00
433.18	2326.49
433.39	2238.43
433.59	2256.86
433.80	2443.23
434.00	2463.71
434.21	2232.29
434.41	2203.61
434.62	2445.27
434.82	2097.12
435.03	2166.75
435.23	2252.77
435.44	2054.11
435.64	2289.63
435.85	2299.87
436.06	2283.49
436.26	2400.22
436.47	2234.33
436.67	2176.99
436.88	2201.57
437.08	2416.60
437.29	2439.13
437.49	2281.44
437.70	2406.36
437.90	2242.53
438.11	2361.31
438.31	2310.11
438.52	2453.47
438.72	2457.56
438.93	2525.15
439.13	2377.69
439.34	2367.45
439.54	2322.40
439.75	2336.73
439.95	2367.45
440.16	2185.18
440.36	2285.53
440.57	2326.49
440.77	2183.13
440.98	2299.87
441.18	2256.86
441.39	2220.00
441.59	2183.13
441.80	2529.24
442.00	2242.53
442.21	2326.49
442.41	2142.18
442.62	2432.99
442.82	2224.09
443.02	2226.14
443.23	2193.37
443.43	2308.06
443.64	2435.03
443.84	2217.95
444.05	2385.88
444.25	2324.44
444.46	2260.96
444.66	2244.57
444.87	2398.17
445.07	2148.32
445.28	2279.39
445.48	2412.51
445.69	2310.11
445.89	2506.71
446.09	2293.72
446.30	2521.05
446.50	2805.72
446.71	4356.03
446.91	5511.08
447.12	6561.69
447.32	6762.39
447.53	6322.08
447.73	5253.04
447.93	4548.54
448.14	4284.35
448.34	4224.96
448.55	3624.90
448.75	3540.94
448.96	3321.81
449.16	3071.95
449.36	2867.16
449.57	2600.92
449.77	2424.80
449.98	2252.77
450.18	2326.49
450.39	2326.49
450.59	2389.98
450.79	2308.06
451.00	2265.05
451.20	2342.88
451.41	2314.20
451.61	2351.07
451.81	2246.62
452.02	2160.61
452.22	2287.58
452.43	2201.57
452.63	2244.57
452.84	2226.14
453.04	2209.76
453.24	2310.11
453.45	2142.18
453.65	2162.66
453.86	2322.40
454.06	2332.64
454.26	2271.20
454.47	2187.23
454.67	2502.62
454.87	2365.40
455.08	2215.90
455.28	2402.27
455.49	2308.06
455.69	2220.00
455.89	2488.28
456.10	2334.68
456.30	2244.57
456.51	2320.35
456.71	2322.40
456.91	2375.64
457.12	2293.72
457.32	2299.87
457.52	2183.13
457.73	2289.63
457.93	2297.82
458.14	2215.90
458.34	2093.02
458.54	2308.06
458.75	2185.18
458.95	2392.03
459.15	2310.11
459.36	2326.49
459.56	2400.22
459.76	2441.18
459.97	2265.05
460.17	2205.66
460.37	2351.07
460.58	2256.86
460.78	2252.77
460.99	2252.77
461.19	2240.48
461.39	2189.28
461.60	2156.51
461.80	2320.35
462.00	2215.90
462.21	2326.49
462.41	2211.81
462.61	2211.81
462.82	2109.41
463.02	2373.60
463.22	2285.53
463.43	2408.41
463.63	2211.81
463.83	2367.45
464.04	2357.21
464.24	2232.29
464.44	2211.81
464.64	2322.40
464.85	2367.45
465.05	2406.36
465.25	2220.00
465.46	2248.67
465.66	2375.64
465.86	2314.20
466.07	2222.05
466.27	2267.10
466.47	2199.52
466.68	2140.13
466.88	2344.92
467.08	2367.45
467.29	2443.23
467.49	2271.20
467.69	2217.95
467.89	2273.25
468.10	2226.14
468.30	2334.68
468.50	2371.55
468.71	2420.70
468.91	2129.89
469.11	2400.22
469.31	2293.72
469.52	2168.80
469.72	2426.84
469.92	2506.71
470.13	2240.48
470.33	2289.63
470.53	2361.31
470.73	2693.08
470.94	2985.94
471.14	3157.97
471.34	3502.03
471.54	3321.81
471.75	3071.95
471.95	2844.63
472.15	2695.13
472.36	2734.04
472.56	2727.89
472.76	2691.03
472.96	2572.25
473.17	2562.01
473.37	2457.56
473.57	2271.20
473.77	2297.82
473.98	2285.53
474.18	2215.90
474.38	2559.96
474.58	2201.57
474.79	2127.84
474.99	2246.62
475.19	2277.34
475.39	2203.61
475.60	2318.30
475.80	2310.11
476.00	2260.96
476.20	2244.57
476.41	2301.92
476.61	2351.07
476.81	2375.64
477.01	2217.95
477.21	2383.84
477.42	2330.59
477.62	2142.18
477.82	2402.27
478.02	2168.80
478.23	2275.29
478.43	2146.27
478.63	2191.33
478.83	2260.96
479.03	2281.44
479.24	2404.32
479.44	2478.04
479.64	2222.05
479.84	2088.93
480.04	2250.72
480.25	2363.36
480.45	2150.37
480.65	2181.09
480.85	2404.32
481.06	2281.44
481.26	2185.18
481.46	2349.02
481.66	2316.25
481.86	2170.85
482.06	2383.84
482.27	2277.34
482.47	2256.86
482.67	2357.21
482.87	2152.42
483.07	2301.92
483.28	2240.48
483.48	2211.81
483.68	2310.11
483.88	2244.57
484.08	2072.54
484.29	2156.51
484.49	2215.90
484.69	2172.89
484.89	2424.80
485.09	2412.51
485.29	2318.30
485.50	2371.55
485.70	2267.10
485.90	2412.51
486.10	2351.07
486.30	2326.49
486.50	2414.56
486.71	2351.07
486.91	2375.64
487.11	2369.50
487.31	2179.04
487.51	2275.29
487.71	2160.61
487.91	2099.17
488.12	2226.14
488.32	2041.82
488.52	2236.38
488.72	2138.08
488.92	2308.06
489.12	2375.64
489.32	2412.51
489.53	2291.68
489.73	2060.26
489.93	2447.32
490.13	2242.53
490.33	2107.36
490.53	2226.14
490.73	2357.21
490.94	2195.42
491.14	2324.44
491.34	2365.40
491.54	2598.87
491.74	3198.93
491.94	3743.69
492.14	4192.19
492.34	4042.69
492.54	3852.23
492.75	3219.41
492.95	3229.65
493.15	2951.12
493.35	2834.39
493.55	2879.44
493.75	2807.77
493.95	2736.09
494.15	2502.62
494.35	2416.60
494.56	2310.11
494.76	2238.43
494.96	2334.68
495.16	2236.38
495.36	2222.05
495.56	2271.20
495.76	2238.43
495.96	2232.29
496.16	2183.13
496.36	2465.75
496.56	2277.34
496.77	2334.68
496.97	2310.11
497.17	2365.40
497.37	2150.37
497.57	2279.39
497.77	2336.73
497.97	2144.22
498.17	2258.91
498.37	2242.53
498.57	2363.36
498.77	2250.72
498.97	2328.54
499.17	2463.71
499.38	2277.34
499.58	2367.45
499.78	2381.79
499.98	2469.85
500.18	2258.91
500.38	2195.42
500.58	2447.32
500.78	2957.27
500.98	5197.74
501.18	7145.36
501.38	8785.79
501.58	9731.95
501.78	9660.27
501.98	7626.64
502.18	6348.70
502.38	5502.89
502.58	5230.51
502.78	4743.10
502.98	4460.48
503.18	4173.76
503.38	3940.29
503.59	3508.17
503.79	3223.50
503.99	3000.27
504.19	2676.70
504.39	2783.19
504.59	2916.31
504.79	2727.89
504.99	2772.95
505.19	2596.82
505.39	2529.24
505.59	2613.21
505.79	2510.81
505.99	2480.09
506.19	2381.79
506.39	2504.67
506.59	2269.15
506.79	2314.20
506.99	2373.60
507.19	2269.15
507.39	2303.96
507.59	2133.98
507.79	2154.46
507.99	2275.29
508.19	2197.47
508.39	2232.29
508.59	2265.05
508.79	2396.12
508.99	2465.75
509.19	2193.37
509.39	2365.40
509.59	2226.14
509.79	2187.23
509.99	2226.14
510.19	2367.45
510.39	2289.63
510.59	2291.68
510.79	2191.33
510.99	2117.60
511.19	2287.58
511.39	2516.95
511.59	2439.13
511.79	2416.60
511.99	2166.75
512.19	2449.37
512.38	2283.49
512.58	2236.38
512.78	2217.95
512.98	2387.93
513.18	2418.65
513.38	2160.61
513.58	2301.92
513.78	2207.71
513.98	2252.77
514.18	2150.37
514.38	2215.90
514.58	2267.10
514.78	2228.19
514.98	2203.61
515.18	2256.86
515.38	2170.85
515.58	2449.37
515.78	2203.61
515.98	2256.86
516.18	2383.84
516.38	2195.42
516.57	2260.96
516.77	2244.57
516.97	2326.49
517.17	2220.00
517.37	2050.02
517.57	2394.08
517.77	2297.82
517.97	2240.48
518.17	2291.68
518.37	2181.09
518.57	2199.52
518.77	2209.76
518.97	2242.53
519.16	2250.72
519.36	2349.02
519.56	2195.42
519.76	2217.95
519.96	2287.58
520.16	2430.94
520.36	2166.75
520.56	2326.49
520.76	2234.33
520.96	2195.42
521.16	2351.07
521.35	2392.03
521.55	2428.89
521.75	2263.01
521.95	2265.05
522.15	2236.38
522.35	2111.46
522.55	2195.42
522.75	2367.45
522.95	2199.52
523.14	2187.23
523.34	2217.95
523.54	2250.72
523.74	2252.77
523.94	2322.40
524.14	2105.31
524.34	2320.35
524.54	2375.64
524.73	2281.44
524.93	2365.40
525.13	2273.25
525.33	2125.79
525.53	2502.62
525.73	2293.72
525.93	2256.86
526.13	2211.81
526.32	2207.71
526.52	2389.98
526.72	2365.40
526.92	2318.30
527.12	2172.89
527.32	2176.99
527.52	2328.54
527.71	2287.58
527.91	2215.90
528.11	2232.29
528.31	2308.06
528.51	2172.89
528.71	2285.53
528.90	2355.16
529.10	2349.02
529.30	2392.03
529.50	2023.39
529.70	2359.26
529.90	2244.57
530.09	2301.92
530.29	2168.80
530.49	2127.84
530.69	2500.57
530.89	2244.57
531.09	2330.59
531.28	2220.00
531.48	2416.60
531.68	2220.00
531.88	2250.72
532.08	2299.87
532.28	2144.22
532.47	2373.60
532.67	2371.55
532.87	2340.83
533.07	2162.66
533.27	2316.25
533.46	2314.20
533.66	2254.81
533.86	2265.05
534.06	2330.59
534.26	2310.11
534.45	2340.83
534.65	2396.12
534.85	2250.72
535.05	2162.66
535.25	2351.07
535.44	2136.03
535.64	2359.26
535.84	2170.85
536.04	2150.37
536.24	2191.33
536.43	2203.61
536.63	2326.49
536.83	2260.96
537.03	2289.63
537.22	2220.00
537.42	2211.81
537.62	2240.48
537.82	2213.85
538.02	2328.54
538.21	2383.84
538.41	2719.70
538.61	2271.20
538.81	2258.91
539.00	2338.78
539.20	2121.70
539.40	2232.29
539.60	2303.96
539.79	2306.01
539.99	2179.04
540.19	2238.43
540.39	2220.00
540.58	2195.42
540.78	2334.68
540.98	2224.09
541.18	2365.40
541.37	2246.62
541.57	2306.01
541.77	2324.44
541.97	2174.94
542.16	2154.46
542.36	2295.77
542.56	2238.43
542.76	2375.64
542.95	2322.40
543.15	2340.83
543.35	2326.49
543.54	2248.67
543.74	2193.37
543.94	2445.27
544.14	2265.05
544.33	2203.61
544.53	2269.15
544.73	2312.16
544.93	2236.38
545.12	2297.82
545.32	2260.96
545.52	2236.38
545.71	2226.14
545.91	2207.71
546.11	2228.19
546.30	2136.03
546.50	2277.34
546.70	2351.07
546.90	2299.87
547.09	2072.54
547.29	2301.92
547.49	2383.84
547.68	2281.44
547.88	2228.19
548.08	2346.97
548.27	2750.42
548.47	2226.14
548.67	2258.91
548.87	2246.62
549.06	2248.67
549.26	2320.35
549.46	2375.64
549.65	2228.19
549.85	2306.01
550.05	2277.34
550.24	2136.03
550.44	2289.63
550.64	2211.81
550.83	2211.81
551.03	2430.94
551.23	2383.84
551.42	2297.82
551.62	2209.76
551.82	2324.44
552.01	2269.15
552.21	2303.96
552.41	2287.58
552.60	2412.51
552.80	2271.20
553.00	2263.01
553.19	2344.92
553.39	2410.46
553.59	2160.61
553.78	2303.96
553.98	2252.77
554.17	2140.13
554.37	2340.83
554.57	2320.35
554.76	2187.23
554.96	2232.29
555.16	2197.47
555.35	2252.77
555.55	2381.79
555.75	2244.57
555.94	2285.53
556.14	2203.61
556.33	2318.30
556.53	2387.93
556.73	2265.05
556.92	2383.84
557.12	2297.82
557.32	2432.99
557.51	2428.89
557.71	2340.83
557.90	2402.27
558.10	2377.69
558.30	2248.67
558.49	2226.14
558.69	2252.77
558.88	2291.68
559.08	2265.05
559.28	2285.53
559.47	2275.29
559.67	2295.77
559.86	2432.99
560.06	2357.21
560.26	2211.81
560.45	2293.72
560.65	2209.76
560.84	2406.36
561.04	2211.81
561.24	2275.29
561.43	2179.04
561.63	2441.18
561.82	2373.60
562.02	2310.11
562.22	2234.33
562.41	2232.29
562.61	2271.20
562.80	2193.37
563.00	2514.91
563.19	2299.87
563.39	2297.82
563.59	2285.53
563.78	2133.98
563.98	2072.54
564.17	2191.33
564.37	2138.08
564.56	2244.57
564.76	2142.18
564.96	2375.64
565.15	2271.20
565.35	2504.67
565.54	2220.00
565.74	2310.11
565.93	2324.44
566.13	2310.11
566.32	2285.53
566.52	2318.30
566.71	2269.15
566.91	2330.59
567.11	2289.63
567.30	2201.57
567.50	2324.44
567.69	2303.96
567.89	2244.57
568.08	2258.91
568.28	2269.15
568.47	2217.95
568.67	2293.72
568.86	2187.23
569.06	2324.44
569.25	2226.14
569.45	2246.62
569.64	2252.77
569.84	2254.81
570.04	2269.15
570.23	2207.71
570.43	2244.57
570.62	2291.68
570.82	2461.66
571.01	2154.46
571.21	2263.01
571.40	2129.89
571.60	2420.70
571.79	2377.69
571.99	2252.77
572.18	2115.55
572.38	2355.16
572.57	2238.43
572.77	2254.81
572.96	2574.30
573.16	2291.68
573.35	2332.64
573.55	2445.27
573.74	2371.55
573.94	2260.96
574.13	2199.52
574.33	2310.11
574.52	2318.30
574.71	2334.68
574.91	2295.77
575.10	2115.55
575.30	2217.95
575.49	2232.29
575.69	2217.95
575.88	2330.59
576.08	2256.86
576.27	2426.84
576.47	2273.25
576.66	2500.57
576.86	2463.71
577.05	2312.16
577.25	2324.44
577.44	2478.04
577.64	2281.44
577.83	2346.97
578.02	2236.38
578.22	2486.23
578.41	2447.32
578.61	2301.92
578.80	2185.18
579.00	2228.19
579.19	2271.20
579.39	2340.83
579.58	2349.02
579.77	2252.77
579.97	2451.42
580.16	2422.75
580.36	2402.27
580.55	2398.17
580.75	2410.46
580.94	2299.87
581.13	2351.07
581.33	2396.12
581.52	2277.34
581.72	2533.34
581.91	2453.47
582.11	2353.12
582.30	2443.23
582.49	2332.64
582.69	2412.51
582.88	2369.50
583.08	2330.59
583.27	2281.44
583.47	2414.56
583.66	2252.77
583.85	2220.00
584.05	2289.63
584.24	2402.27
584.44	2322.40
584.63	2455.51
584.82	2510.81
585.02	2504.67
585.21	2467.80
585.41	2463.71
585.60	2379.74
585.79	2613.21
585.99	2521.05
586.18	2424.80
586.37	3129.30
586.57	4759.48
586.76	13870.89
586.96	33705.47
587.15	47146.29
587.34	56329.38
587.54	61920.34
587.73	56722.59
587.93	40023.45
588.12	30242.35
588.31	24190.61
588.51	21343.93
588.70	19285.72
588.89	17563.38
589.09	15329.05
589.28	13029.18
589.47	10647.39
589.67	8406.91
589.86	6457.25
590.06	4644.79
590.25	3882.95
590.44	3209.17
590.64	2836.44
590.83	2641.88
591.02	2551.77
591.22	2414.56
591.41	2424.80
591.60	2338.78
591.80	2512.86
591.99	2244.57
592.18	2201.57
592.38	2408.41
592.57	2246.62
592.76	2355.16
592.96	2387.93
593.15	2174.94
593.34	2375.64
593.54	2269.15
593.73	2414.56
593.92	2344.92
594.12	2342.88
594.31	2412.51
594.50	2484.19
594.70	2299.87
594.89	2504.67
595.08	2256.86
595.28	2365.40
595.47	2699.22
595.66	2349.02
595.86	2193.37
596.05	2265.05
596.24	2316.25
596.43	2512.86
596.63	2435.03
596.82	2265.05
597.01	2342.88
597.21	2469.85
597.40	2332.64
597.59	2291.68
597.79	2346.97
597.98	2396.12
598.17	2277.34
598.36	2328.54
598.56	2326.49
598.75	2260.96
598.94	2361.31
599.14	2215.90
599.33	2283.49
599.52	2367.45
599.71	2226.14
599.91	2363.36
600.10	2351.07
600.29	2283.49
600.48	2334.68
600.68	2314.20
600.87	2334.68
601.06	2269.15
601.26	2293.72
601.45	2363.36
601.64	2232.29
601.83	2426.84
602.03	2197.47
602.22	2174.94
602.41	2373.60
602.60	2510.81
602.80	2357.21
602.99	2312.16
603.18	2181.09
603.37	2314.20
603.57	2283.49
603.76	2338.78
603.95	2430.94
604.14	2220.00
604.34	2164.70
604.53	2263.01
604.72	2306.01
604.91	2346.97
605.10	2316.25
605.30	2166.75
605.49	2576.34
605.68	2349.02
605.87	2326.49
606.07	2195.42
606.26	2269.15
606.45	2301.92
606.64	2291.68
606.84	2260.96
607.03	2299.87
607.22	2422.75
607.41	2281.44
607.60	2248.67
607.80	2473.95
607.99	2265.05
608.18	2338.78
608.37	2232.29
608.56	2209.76
608.76	2398.17
608.95	2420.70
609.14	2283.49
609.33	2504.67
609.52	2447.32
609.72	2340.83
609.91	2406.36
610.10	2285.53
610.29	2531.29
610.48	2297.82
610.68	2324.44
610.87	2332.64
611.06	2359.26
611.25	2248.67
611.44	2314.20
611.63	2269.15
611.83	2377.69
612.02	2107.36
612.21	2357.21
612.40	2127.84
612.59	2170.85
612.79	2230.24
612.98	2244.57
613.17	2373.60
613.36	2185.18
613.55	2473.95
613.74	2349.02
613.93	2404.32
614.13	2465.75
614.32	2531.29
614.51	2441.18
614.70	2385.88
614.89	2371.55
615.08	2404.32
615.28	2770.90
615.47	2162.66
615.66	2301.92
615.85	2301.92
616.04	2437.08
616.23	2326.49
616.42	2277.34
616.62	2381.79
616.81	2297.82
617.00	2228.19
617.19	2318.30
617.38	2197.47
617.57	2301.92
617.76	2398.17
617.95	2326.49
618.15	2402.27
618.34	2428.89
618.53	2203.61
618.72	2420.70
618.91	2375.64
619.10	2355.16
619.29	2291.68
619.48	2285.53
619.68	2242.53
619.87	2316.25
620.06	2140.13
620.25	2316.25
620.44	2267.10
620.63	2168.80
620.82	2224.09
621.01	2265.05
621.20	2168.80
621.39	2295.77
621.59	2285.53
621.78	2183.13
621.97	2334.68
622.16	2375.64
622.35	2344.92
622.54	2303.96
622.73	2326.49
622.92	2076.64
623.11	2389.98
623.30	2316.25
623.49	2301.92
623.68	2158.56
623.88	2379.74
624.07	2203.61
624.26	2207.71
624.45	2287.58
624.64	2252.77
624.83	2326.49
625.02	2234.33
625.21	2201.57
625.40	2240.48
625.59	2373.60
625.78	2291.68
625.97	2328.54
626.16	2465.75
626.35	2447.32
626.54	2310.11
626.74	2432.99
626.93	2283.49
627.12	2267.10
627.31	2394.08
627.50	2334.68
627.69	2432.99
627.88	2140.13
628.07	2232.29
628.26	2138.08
628.45	2228.19
628.64	2160.61
628.83	2297.82
629.02	2187.23
629.21	2396.12
629.40	2269.15
629.59	2277.34
629.78	2285.53
629.97	2275.29
630.16	2314.20
630.35	2244.57
630.54	2326.49
630.73	2265.05
630.92	2269.15
631.11	2203.61
631.30	2258.91
631.49	2351.07
631.68	2299.87
631.87	2334.68
632.06	2195.42
632.25	2525.15
632.44	2363.36
632.63	2312.16
632.82	2242.53
633.01	2332.64
633.20	2336.73
633.39	2310.11
633.58	2160.61
633.77	2310.11
633.96	2367.45
634.15	2252.77
634.34	2318.30
634.53	2342.88
634.72	2252.77
634.91	2084.83
635.10	2332.64
635.29	2367.45
635.48	2326.49
635.67	2228.19
635.86	2142.18
636.05	2349.02
636.24	2299.87
636.43	2195.42
636.62	2263.01
636.81	2064.35
637.00	2209.76
637.19	2275.29
637.38	2326.49
637.57	2258.91
637.76	2295.77
637.95	2437.08
638.14	2363.36
638.33	2324.44
638.52	2346.97
638.71	2129.89
638.89	2187.23
639.08	2541.53
639.27	2441.18
639.46	2383.84
639.65	2881.49
639.84	2863.06
640.03	3045.33
640.22	2797.53
640.41	2887.64
640.60	2465.75
640.79	2564.06
640.98	2459.61
641.17	2453.47
641.36	2486.23
641.55	2437.08
641.74	2228.19
641.92	2244.57
642.11	2162.66
642.30	2326.49
642.49	2281.44
642.68	2203.61
642.87	2297.82
643.06	2326.49
643.25	2150.37
643.44	2183.13
643.63	2187.23
643.82	2287.58
644.00	2129.89
644.19	2254.81
644.38	2107.36
644.57	2439.13
644.76	2260.96
644.95	2258.91
645.14	2265.05
645.33	2258.91
645.52	2281.44
645.71	2199.52
645.89	2154.46
646.08	2254.81
646.27	2176.99
646.46	2420.70
646.65	2176.99
646.84	2240.48
647.03	2138.08
647.22	2277.34
647.40	2228.19
647.59	2252.77
647.78	2097.12
647.97	2193.37
648.16	2142.18
648.35	2369.50
648.54	2369.50
648.73	2254.81
648.91	2326.49
649.10	2238.43
649.29	2179.04
649.48	2267.10
649.67	2228.19
649.86	2258.91
650.05	2299.87
650.23	2383.84
650.42	2338.78
650.61	2519.00
650.80	2408.41
650.99	2568.15
651.18	2369.50
651.36	2369.50
651.55	2318.30
651.74	2402.27
651.93	2349.02
652.12	2285.53
652.31	2332.64
652.49	2258.91
652.68	2205.66
652.87	2428.89
653.06	2326.49
653.25	2461.66
653.44	2228.19
653.62	2363.36
653.81	2244.57
654.00	2310.11
654.19	2375.64
654.38	2586.58
654.56	2363.36
654.75	2185.18
654.94	2316.25
655.13	2263.01
655.32	2207.71
655.51	2287.58
655.69	2144.22
655.88	2377.69
656.07	2138.08
656.26	2217.95
656.45	2179.04
656.63	2269.15
656.82	2240.48
657.01	2359.26
657.20	2220.00
657.38	2400.22
657.57	2236.38
657.76	2052.06
657.95	2400.22
658.14	2254.81
658.32	2254.81
658.51	2205.66
658.70	2295.77
658.89	2297.82
659.08	2297.82
659.26	2498.52
659.45	2189.28
659.64	2400.22
659.83	2269.15
660.01	2656.22
660.20	2365.40
660.39	2465.75
660.58	2052.06
660.76	2359.26
660.95	2144.22
661.14	2258.91
661.33	2154.46
661.51	2185.18
661.70	2234.33
661.89	2326.49
662.08	2217.95
662.26	2117.60
662.45	2248.67
662.64	2459.61
662.83	2312.16
663.01	2119.65
663.20	2144.22
663.39	2432.99
663.58	2197.47
663.76	2258.91
663.95	2289.63
664.14	2224.09
664.32	2195.42
664.51	2211.81
664.70	2090.98
664.89	2252.77
665.07	2195.42
665.26	2398.17
665.45	2160.61
665.64	2258.91
665.82	2269.15
666.01	2416.60
666.20	2187.23
666.38	2314.20
666.57	2373.60
666.76	3424.20
666.95	8140.68
667.13	16185.10
667.32	21362.36
667.51	24972.93
667.69	26725.99
667.88	24581.77
668.07	17186.55
668.25	14147.37
668.44	11597.65
668.63	9961.32
668.81	8814.46
669.00	7798.66
669.19	6743.96
669.38	6143.91
669.56	5050.29
669.75	4313.02
669.94	3612.62
670.12	3106.77
670.31	2834.39
670.50	2637.78
670.68	2463.71
670.87	2381.79
671.06	2334.68
671.24	2381.79
671.43	2432.99
671.62	2383.84
671.80	2236.38
671.99	2432.99
672.18	2363.36
672.36	2394.08
672.55	2394.08
672.74	2299.87
672.92	2250.72
673.11	2308.06
673.29	2197.47
673.48	2308.06
673.67	2213.85
673.85	2412.51
674.04	2211.81
674.23	2291.68
674.41	2469.85
674.60	2109.41
674.79	2136.03
674.97	2226.14
675.16	2346.97
675.34	2439.13
675.53	2228.19
675.72	2373.60
675.90	2400.22
676.09	2197.47
676.28	2273.25
676.46	2193.37
676.65	2338.78
676.83	2209.76
677.02	2215.90
677.21	2250.72
677.39	2252.77
677.58	2172.89
677.77	2162.66
677.95	2215.90
678.14	2260.96
678.32	2236.38
678.51	2234.33
678.70	2490.33
678.88	2215.90
679.07	2265.05
679.25	2250.72
679.44	2222.05
679.63	2105.31
679.81	2269.15
680.00	2387.93
680.18	2279.39
680.37	2363.36
680.55	2193.37
680.74	2111.46
680.93	2035.68
681.11	2314.20
681.30	2273.25
681.48	2248.67
681.67	2209.76
681.85	2252.77
682.04	2207.71
682.23	2359.26
682.41	2269.15
682.60	2213.85
682.78	2205.66
682.97	2133.98
683.15	2260.96
683.34	2285.53
683.53	2371.55
683.71	2105.31
683.90	2398.17
684.08	2408.41
684.27	2295.77
684.45	2344.92
684.64	2371.55
684.82	2285.53
685.01	2287.58
685.19	2258.91
685.38	2461.66
685.57	2275.29
685.75	2183.13
685.94	2154.46
686.12	2146.27
686.31	2179.04
686.49	2463.71
686.68	2146.27
686.86	2297.82
687.05	2269.15
687.23	2389.98
687.42	2199.52
687.60	2123.74
687.79	2322.40
687.97	2420.70
688.16	2400.22
688.34	2449.37
688.53	2023.39
688.71	2283.49
688.90	2387.93
689.08	2201.57
689.27	2088.93
689.45	2326.49
689.64	2289.63
689.82	2179.04
690.01	2301.92
690.19	2297.82
690.38	2250.72
690.56	2326.49
690.75	2174.94
690.93	2228.19
691.12	2195.42
691.30	2285.53
691.49	2211.81
691.67	2328.54
691.86	2426.84
692.04	2183.13
692.23	2281.44
692.41	2322.40
692.60	2490.33
692.78	2355.16
692.97	2303.96
693.15	2336.73
693.34	2455.51
693.52	2344.92
693.71	2224.09
693.89	2234.33
694.08	2166.75
694.26	2369.50
694.44	2326.49
694.63	2334.68
694.81	2220.00
695.00	2220.00
695.18	2291.68
695.37	2506.71
695.55	2279.39
695.74	2267.10
695.92	2250.72
696.10	2332.64
696.29	2064.35
696.47	2185.18
696.66	2193.37
696.84	2162.66
697.03	2246.62
697.21	2490.33
697.40	3241.93
697.58	2408.41
697.76	2209.76
697.95	2203.61
698.13	2101.22
698.32	2228.19
698.50	2256.86
698.68	2281.44
698.87	2324.44
699.05	2430.94
699.24	2275.29
699.42	2129.89
699.61	2283.49
699.79	2228.19
699.97	2244.57
700.16	2150.37
700.34	2146.27
700.53	2252.77
700.71	2449.37
700.89	2285.53
701.08	2226.14
701.26	2285.53
701.45	2797.53
701.63	2207.71
701.81	2220.00
702.00	2209.76
702.18	2281.44
702.37	2275.29
702.55	2465.75
702.73	2463.71
702.92	2369.50
703.10	2582.49
703.28	2482.14
703.47	2312.16
703.65	2484.19
703.84	2408.41
704.02	2236.38
704.20	2488.28
704.39	2236.38
704.57	2256.86
704.75	2447.32
704.94	2324.44
705.12	2326.49
705.30	2541.53
705.49	4485.05
705.67	10366.82
705.86	18073.32
706.04	21857.97
706.22	25089.67
706.41	25978.48
706.59	22058.67
706.77	15660.82
706.96	13229.88
707.14	11517.78
707.32	9852.78
707.51	8796.03
707.69	7311.25
707.87	5924.77
708.06	4724.66
708.24	4003.78
708.42	3196.88
708.61	3035.09
708.79	2439.13
708.97	2400.22
709.16	2439.13
709.34	2330.59
709.52	2308.06
709.71	2168.80
709.89	2332.64
710.07	2248.67
710.26	2154.46
710.44	2260.96
710.62	2363.36
710.80	2289.63
710.99	2400.22
711.17	2318.30
711.35	2183.13
711.54	2220.00
711.72	2373.60
711.90	2310.11
712.09	2287.58
712.27	2181.09
712.45	2340.83
712.63	2142.18
712.82	2277.34
713.00	2271.20
713.18	2273.25
713.37	2342.88
713.55	2324.44
713.73	2220.00
713.91	2340.83
714.10	2260.96
714.28	2230.24
714.46	2289.63
714.65	2285.53
714.83	2285.53
715.01	2297.82
715.19	2320.35
715.38	2138.08
715.56	2353.12
715.74	2183.13
715.92	2193.37
716.11	2369.50
716.29	2080.74
716.47	2258.91
716.65	2220.00
716.84	2144.22
717.02	2293.72
717.20	2084.83
717.38	2152.42
717.57	2277.34
717.75	2228.19
717.93	2213.85
718.11	2285.53
718.30	2170.85
718.48	2267.10
718.66	2340.83
718.84	2375.64
719.03	2271.20
719.21	2125.79
719.39	2555.86
719.57	2443.23
719.75	2332.64
719.94	2154.46
720.12	2277.34
720.30	2289.63
720.48	2359.26
720.67	2250.72
720.85	2176.99
721.03	2187.23
721.21	2162.66
721.39	2310.11
721.58	2293.72
721.76	2260.96
721.94	2375.64
722.12	2295.77
722.30	2406.36
722.49	2240.48
722.67	2260.96
722.85	2295.77
723.03	2097.12
723.21	2211.81
723.40	2275.29
723.58	2416.60
723.76	2359.26
723.94	2414.56
724.12	2346.97
724.30	2437.08
724.49	2459.61
724.67	2224.09
724.85	2404.32
725.03	2185.18
725.21	2375.64
725.40	2314.20
725.58	2146.27
725.76	2432.99
725.94	2310.11
726.12	2201.57
726.30	2328.54
726.49	2179.04
726.67	2199.52
726.85	2312.16
727.03	2514.91
727.21	3506.12
727.39	5062.58
727.57	5918.63
727.76	6496.16
727.94	6647.71
728.12	6201.25
728.30	5074.87
728.48	4579.26
728.66	4147.14
728.84	3735.50
729.03	3344.33
729.21	3094.48
729.39	2654.17
729.57	2514.91
729.75	2494.43
729.93	2357.21
730.11	2256.86
730.30	2207.71
730.48	2252.77
730.66	2396.12
730.84	2267.10
731.02	2226.14
731.20	2199.52
731.38	2340.83
731.56	2162.66
731.74	2121.70
731.93	2273.25
732.11	2234.33
732.29	2176.99
732.47	2275.29
732.65	2318.30
732.83	2328.54
733.01	2285.53
733.19	2138.08
733.37	2267.10
733.56	2256.86
733.74	2220.00
733.92	2377.69
734.10	2213.85
734.28	2293.72
734.46	2060.26
734.64	2254.81
734.82	2242.53
735.00	2220.00
735.18	2256.86
735.36	2166.75
735.54	2285.53
735.73	2285.53
735.91	2269.15
736.09	2375.64
736.27	2318.30
736.45	2252.77
736.63	2101.22
736.81	2228.19
736.99	2359.26
737.17	2318.30
737.35	2224.09
737.53	2340.83
737.71	2179.04
737.89	2424.80
738.07	2222.05
738.25	2226.14
738.43	2107.36
738.61	2195.42
738.80	2105.31
738.98	2150.37
739.16	2224.09
739.34	2138.08
739.52	2336.73
739.70	2312.16
739.88	2338.78
740.06	2308.06
740.24	2015.20
740.42	2371.55
740.60	2117.60
740.78	2236.38
740.96	2170.85
741.14	2232.29
741.32	2224.09
741.50	2107.36
741.68	2488.28
741.86	2381.79
742.04	2125.79
742.22	2138.08
742.40	2260.96
742.58	2291.68
742.76	2133.98
742.94	2295.77
743.12	2152.42
743.30	2322.40
743.48	2314.20
743.66	2215.90
743.84	2334.68
744.02	2226.14
744.20	2318.30
744.38	2258.91
744.56	2168.80
744.74	2521.05
744.92	2287.58
745.10	2439.13
745.28	2301.92
745.46	2439.13
745.64	2252.77
745.82	2291.68
746.00	2287.58
746.18	2394.08
746.36	2156.51
746.54	2217.95
746.72	2222.05
746.90	2174.94
747.08	2387.93
747.26	2242.53
747.44	2289.63
747.62	2271.20
747.80	2342.88
747.98	2357.21
748.15	2228.19
748.33	2459.61
748.51	2236.38
748.69	2285.53
748.87	2105.31
749.05	2291.68
749.23	2230.24
749.41	2291.68
749.59	2234.33
749.77	2338.78
749.95	2279.39
750.13	2172.89
750.31	2228.19
750.49	2258.91
750.67	2346.97
750.85	2414.56
751.03	2291.68
751.20	2363.36
751.38	2240.48
751.56	2226.14
751.74	2289.63
751.92	2162.66
752.10	2138.08
752.28	2389.98
752.46	2209.76
752.64	2215.90
752.82	2256.86
753.00	2400.22
753.18	2232.29
753.35	2230.24
753.53	2211.81
753.71	2187.23
753.89	2283.49
754.07	2238.43
754.25	2471.90
754.43	2318.30
754.61	2164.70
754.79	2326.49
754.97	2246.62
755.14	2369.50
755.32	2127.84
755.50	2252.77
755.68	2332.64
755.86	2254.81
756.04	2086.88
756.22	2007.01
756.40	2371.55
756.57	2420.70
756.75	2220.00
756.93	2351.07
757.11	2340.83
757.29	2146.27
757.47	2181.09
757.65	2121.70
757.82	2090.98
758.00	2152.42
758.18	2170.85
758.36	2252.77
758.54	2412.51
758.72	2109.41
758.90	2263.01
759.07	2203.61
759.25	2101.22
759.43	2293.72
759.61	2127.84
759.79	3104.72
759.97	2324.44
760.15	2277.34
760.32	2207.71
760.50	2334.68
760.68	2428.89
760.86	2144.22
761.04	2392.03
761.22	2334.68
761.39	2279.39
761.57	2289.63
761.75	2236.38
761.93	2316.25
762.11	2154.46
762.28	2269.15
762.46	2109.41
762.64	2396.12
762.82	2160.61
763.00	2301.92
763.18	2375.64
763.35	2148.32
763.53	2377.69
763.71	2332.64
763.89	2258.91
764.07	2252.77
764.24	2252.77
764.42	2306.01
764.60	2154.46
764.78	2279.39
764.96	2357.21
765.13	2383.84
765.31	2205.66
765.49	2336.73
765.67	2187.23
765.84	2142.18
766.02	2152.42
766.20	2174.94
766.38	2299.87
766.56	2265.05
766.73	2256.86
766.91	2211.81
767.09	2275.29
767.27	2234.33
767.44	2205.66
767.62	2332.64
767.80	2203.61
767.98	2154.46
768.15	2133.98
768.33	2351.07
768.51	2322.40
768.69	2310.11
768.87	2256.86
769.04	2250.72
769.22	2478.04
769.40	2408.41
769.58	2461.66
769.75	2430.94
769.93	2336.73
770.11	2273.25
770.28	2220.00
770.46	2379.74
770.64	2306.01
770.82	2187.23
770.99	2263.01
771.17	2260.96
771.35	2236.38
771.53	2289.63
771.70	2123.74
771.88	2285.53
772.06	2187.23
772.23	2222.05
772.41	2248.67
772.59	2203.61
772.77	2133.98
772.94	2179.04
773.12	2295.77
773.30	2250.72
773.47	2258.91
773.65	2203.61
773.83	2422.75
774.01	2244.57
774.18	2103.26
774.36	2176.99
774.54	2160.61
774.71	2326.49
774.89	2121.70
775.07	2170.85
775.24	2189.28
775.42	2170.85
775.60	2349.02
775.78	2179.04
775.95	2154.46
776.13	2125.79
776.31	2007.01
776.48	2256.86
776.66	2400.22
776.84	2183.13
777.01	2156.51
777.19	2220.00
777.37	2185.18
777.54	2355.16
777.72	2512.86
777.90	2310.11
778.07	2258.91
778.25	2631.64
778.43	2375.64
778.60	2140.13
778.78	2277.34
778.96	2379.74
779.13	2187.23
779.31	2301.92
779.49	2250.72
779.66	2207.71
779.84	2170.85
780.01	2197.47
780.19	2189.28
780.37	2367.45
780.54	2308.06
780.72	2234.33
780.90	2211.81
781.07	2209.76
781.25	2191.33
781.43	2306.01
781.60	2226.14
781.78	2408.41
781.95	2322.40
782.13	2220.00
782.31	2195.42
782.48	2138.08
782.66	2267.10
782.83	2414.56
783.01	2330.59
783.19	2371.55
783.36	2109.41
783.54	2136.03
783.72	2314.20
783.89	2207.71
784.07	2297.82
784.24	2316.25
784.42	2424.80
784.60	2244.57
784.77	2277.34
784.95	2072.54
785.12	2166.75
785.30	2265.05
785.47	2129.89
785.65	2197.47
785.83	2224.09
786.00	2236.38
786.18	2271.20
786.35	2158.56
786.53	2183.13
786.71	2379.74
786.88	2295.77
787.06	2230.24
787.23	2222.05
787.41	2166.75
787.58	2136.03
787.76	2166.75
787.94	2301.92
788.11	2256.86
788.29	2164.70
788.46	2129.89
788.64	2115.55
788.81	2277.34
788.99	2154.46
789.16	2142.18
789.34	2189.28
789.52	2183.13
789.69	2187.23
789.87	2136.03
790.04	2195.42
790.22	2299.87
790.39	2473.95
790.57	2174.94
790.74	2129.89
790.92	2379.74
791.09	2150.37
791.27	2273.25
791.44	2357.21
791.62	2256.86
791.79	2387.93
791.97	2279.39
792.15	2521.05
792.32	2281.44
792.50	2330.59
792.67	2439.13
792.85	2408.41
793.02	2287.58
793.20	2314.20
793.37	2103.26
793.55	2244.57
793.72	2156.51
793.90	2283.49
794.07	2152.42
794.25	2197.47
794.42	2260.96
794.60	2187.23
794.77	2277.34
794.95	2322.40
795.12	2349.02
795.30	2185.18
795.47	2109.41
795.65	2500.57
795.82	2260.96
796.00	2179.04
796.17	2248.67
796.34	2115.55
796.52	2246.62
796.69	2346.97
796.87	2353.12
797.04	2260.96
797.22	2381.79
797.39	2174.94
797.57	2389.98
797.74	2250.72
797.92	2244.57
798.09	2217.95
798.27	2351.07
798.44	2217.95
798.62	2162.66
798.79	2269.15
798.96	2355.16
799.14	2258.91
799.31	2584.54
799.49	2269.15
799.66	2211.81
799.84	2269.15
800.01	2019.30
800.19	2254.81
800.36	2082.78
800.53	2211.81
800.71	2293.72
800.88	2383.84
801.06	2242.53
801.23	2248.67
801.41	2217.95
801.58	2162.66
801.75	2211.81
801.93	2318.30
802.10	2349.02
802.28	2236.38
802.45	2195.42
802.63	2371.55
802.80	2369.50
802.97	2195.42
803.15	2220.00
803.32	2193.37
803.50	2211.81
803.67	2205.66
803.84	2086.88
804.02	2238.43
804.19	2203.61
804.37	2050.02
804.54	2224.09
804.71	2199.52
804.89	2299.87
805.06	2189.28
805.24	2138.08
805.41	2095.07
805.58	2181.09
805.76	2519.00
805.93	2252.77
806.10	2361.31
806.28	2363.36
806.45	2306.01
806.63	2291.68
806.80	2365.40
806.97	2316.25
807.15	2334.68
807.32	2228.19
807.49	2258.91
807.67	2142.18
807.84	2201.57
808.01	2121.70
808.19	2424.80
808.36	2541.53
808.54	2220.00
808.71	2174.94
808.88	2263.01
809.06	2365.40
809.23	2408.41
809.40	2160.61
809.58	2301.92
809.75	2244.57
809.92	2154.46
810.10	2457.56
810.27	2199.52
810.44	2299.87
810.62	2297.82
810.79	2330.59
810.96	2121.70
811.14	2162.66
811.31	2271.20
811.48	2263.01
811.66	2144.22
811.83	2367.45
812.00	2316.25
812.18	2265.05
812.35	2465.75
812.52	2211.81
812.69	2263.01
812.87	2217.95
813.04	2220.00
813.21	2279.39
813.39	2164.70
813.56	2129.89
813.73	2318.30
813.91	2080.74
814.08	2193.37
814.25	2260.96
814.42	2103.26
814.60	2228.19
814.77	2211.81
814.94	2248.67
815.12	2299.87
815.29	2349.02
815.46	2224.09
815.63	2301.92
815.81	2285.53
815.98	2228.19
816.15	2244.57
816.33	2232.29
816.50	2193.37
816.67	2209.76
816.84	2250.72
817.02	2220.00
817.19	2318.30
817.36	2226.14
817.53	2285.53
817.71	2109.41
817.88	2246.62
818.05	2211.81
818.22	2295.77
818.40	2342.88
818.57	2183.13
818.74	2258.91
818.91	2250.72
819.09	2301.92
819.26	2326.49
819.43	2088.93
819.60	2170.85
819.78	2269.15
819.95	2281.44
820.12	2113.50
820.29	2361.31
820.47	2328.54
820.64	2107.36
820.81	2162.66
820.98	2176.99
821.15	2144.22
821.33	2308.06
821.50	2103.26
821.67	2281.44
821.84	2250.72
822.02	2314.20
822.19	2373.60
822.36	2162.66
822.53	2242.53
822.70	2156.51
822.88	2224.09
823.05	2367.45
823.22	2113.50
823.39	2342.88
823.56	2246.62
823.74	2371.55
823.91	2189.28
824.08	2113.50
824.25	2144.22
824.42	2492.38
824.60	2140.13
824.77	2324.44
824.94	2209.76
825.11	2310.11
825.28	2113.50
825.45	2281.44
825.63	2349.02
825.80	2162.66
825.97	2306.01
826.14	2295.77
826.31	2066.40
826.48	2256.86
826.66	2179.04
826.83	2203.61
827.00	2236.38
827.17	2152.42
827.34	2242.53
827.51	2170.85
827.69	2256.86
827.86	2117.60
828.03	2201.57
828.20	2222.05
828.37	2187.23
828.54	2275.29
828.71	2176.99
828.89	2402.27
829.06	2217.95
829.23	2443.23
829.40	2152.42
829.57	2197.47
829.74	2330.59
829.91	2230.24
830.09	2162.66
830.26	2248.67
830.43	2420.70
830.60	2215.90
830.77	2279.39
830.94	2351.07
831.11	2373.60
831.28	2187.23
831.46	2365.40
831.63	2185.18
831.80	2359.26
831.97	2215.90
832.14	2113.50
832.31	2252.77
832.48	2285.53
832.65	2336.73
832.82	2275.29
832.99	2265.05
833.17	2150.37
833.34	2371.55
833.51	2299.87
833.68	2113.50
833.85	2396.12
834.02	2162.66
834.19	2195.42
834.36	2215.90
834.53	2322.40
834.70	2359.26
834.87	2242.53
835.04	2138.08
835.22	2236.38
835.39	2183.13
835.56	2121.70
835.73	2162.66
835.90	2351.07
836.07	2117.60
836.24	2299.87
836.41	2115.55
836.58	2152.42
836.75	2338.78
836.92	2291.68
837.09	2160.61
837.26	2379.74
837.43	2349.02
837.60	2301.92
837.77	2199.52
837.94	2306.01
838.12	2351.07
838.29	2211.81
838.46	2136.03
838.63	2189.28
838.80	2473.95
838.97	2269.15
839.14	2240.48
839.31	2246.62
839.48	2297.82
839.65	2181.09
839.82	2332.64
839.99	2273.25
840.16	2303.96
840.33	2220.00
840.50	2277.34
840.67	2152.42
840.84	2068.45
841.01	2220.00
841.18	2183.13
841.35	2301.92
841.52	2355.16
841.69	2334.68
841.86	2191.33
842.03	2187.23
842.20	2281.44
842.37	2220.00
842.54	2213.85
842.71	2228.19
842.88	2068.45
843.05	2174.94
843.22	2082.78
843.39	2287.58
843.56	2129.89
843.73	2299.87
843.90	2269.15
844.07	2226.14
844.24	2291.68
844.41	2269.15
844.58	2211.81
844.75	2215.90
844.92	2205.66
845.09	2193.37
845.26	2113.50
845.43	2338.78
845.60	2238.43
845.77	2332.64
845.94	2174.94
846.10	2363.36
846.27	2154.46
846.44	2179.04
846.61	2093.02
846.78	2322.40
846.95	2322.40
847.12	2164.70
847.29	2154.46
847.46	2146.27
847.63	2269.15
847.80	2176.99
847.97	2189.28
848.14	2490.33
848.31	2273.25
848.48	2113.50
848.65	2285.53
848.82	2230.24
848.98	2465.75
849.15	2340.83
849.32	2277.34
849.49	2367.45
849.66	2267.10
849.83	2250.72
850.00	2123.74
850.17	2342.88
850.34	2273.25
850.51	2232.29
850.68	2199.52
850.85	2547.67
851.01	2217.95
851.18	2203.61
851.35	2197.47
851.52	2275.29
851.69	2428.89
851.86	2088.93
852.03	2185.18
852.20	2291.68
852.37	2244.57
852.53	2066.40
852.70	2142.18
852.87	2215.90
853.04	2340.83
853.21	2185.18
853.38	2285.53
853.55	2326.49
853.72	2369.50
853.89	2131.94
854.05	2162.66
854.22	2236.38
854.39	2191.33
854.56	2226.14
854.73	2324.44
854.90	2193.37
855.07	2234.33
855.23	2142.18
855.40	2203.61
855.57	2203.61
855.74	2062.30
855.91	2398.17
856.08	2113.50
856.25	2142.18
856.41	2201.57
856.58	2205.66
856.75	2193.37
856.92	2076.64
857.09	2363.36
857.26	2101.22
857.42	2220.00
857.59	2267.10
857.76	2211.81
857.93	2244.57
858.10	2258.91
858.27	2123.74
858.43	2310.11
858.60	2041.82
858.77	2119.65
858.94	2228.19
859.11	2293.72
859.27	2246.62
859.44	2234.33
859.61	2351.07
859.78	2316.25
859.95	2224.09
860.12	2193.37
860.28	2455.51
860.45	2416.60
860.62	2203.61
860.79	2318.30
860.95	2199.52
861.12	2127.84
861.29	2146.27
861.46	2236.38
861.63	2154.46
861.79	2191.33
861.96	2152.42
862.13	2187.23
862.30	2389.98
862.47	2185.18
862.63	2111.46
862.80	2338.78
862.97	2277.34
863.14	2301.92
863.30	2195.42
863.47	2101.22
863.64	2355.16
863.81	2211.81
863.97	2179.04
864.14	2260.96
864.31	2226.14
864.48	2193.37
864.65	2291.68
864.81	2267.10
864.98	2326.49
865.15	2314.20
865.32	2244.57
865.48	2250.72
865.65	2379.74
865.82	2252.77
865.98	2234.33
866.15	2328.54
866.32	2260.96
866.49	2281.44
866.65	2316.25
866.82	2105.31
866.99	2228.19
867.16	2185.18
867.32	2168.80
867.49	2185.18
867.66	2140.13
867.83	2271.20
867.99	2201.57
868.16	2185.18
868.33	2191.33
868.49	2308.06
868.66	2193.37
868.83	2263.01
868.99	2252.77
869.16	2281.44
869.33	2398.17
869.50	2277.34
869.66	2174.94
869.83	2242.53
870.00	2009.06
870.16	2301.92
870.33	2254.81
870.50	2269.15
870.66	2263.01
870.83	2394.08
871.00	2240.48
871.17	2248.67
871.33	2258.91
871.50	2142.18
871.67	2293.72
871.83	2234.33
872.00	2359.26
872.17	2144.22
872.33	2459.61
872.50	2367.45
872.67	2181.09
872.83	2193.37
873.00	2269.15
873.17	2213.85
873.33	2250.72
873.50	2220.00
873.67	2207.71
873.83	2301.92
874.00	2189.28
874.16	2283.49
874.33	2260.96
874.50	2093.02
874.66	2209.76
874.83	2230.24
875.00	2371.55
875.16	2342.88
875.33	2203.61
875.50	2011.11
875.66	2138.08
875.83	2265.05
875.99	2226.14
876.16	2195.42
876.33	2152.42
876.49	2158.56
876.66	2250.72
876.83	2224.09
876.99	2136.03
877.16	2181.09
877.32	2226.14
877.49	2101.22
877.66	2263.01
877.82	2322.40
877.99	2207.71
878.15	2430.94
878.32	2258.91
878.49	2260.96
878.65	2189.28
878.82	2367.45
878.98	2179.04
879.15	2301.92
879.32	2320.35
879.48	2289.63
879.65	2217.95
879.81	2166.75
879.98	2197.47
880.15	2220.00
880.31	2306.01
880.48	2131.94
880.64	2334.68
880.81	2226.14
880.97	2330.59
881.14	2310.11
881.31	2199.52
881.47	2316.25
881.64	2203.61
881.80	2109.41
881.97	2265.05
882.13	2238.43
882.30	2148.32
882.47	2236.38
882.63	2103.26
882.80	2199.52
882.96	2265.05
883.13	2445.27
883.29	2211.81
883.46	2201.57
883.62	2357.21
883.79	2306.01
883.95	2265.05
884.12	2230.24
884.29	2381.79
884.45	2199.52
884.62	2330.59
884.78	2154.46
884.95	2389.98
885.11	2158.56
885.28	2342.88
885.44	2176.99
885.61	2277.34
885.77	2408.41
885.94	2271.20
886.10	2299.87
886.27	2342.88
886.43	2424.80
886.60	2287.58
886.76	2222.05
886.93	2093.02
887.09	2281.44
887.26	2099.17
887.42	2248.67
887.59	2252.77
887.75	2480.09
887.92	2316.25
888.08	2271.20
888.25	2504.67
888.41	2285.53
888.58	2273.25
888.74	2170.85
888.91	2179.04
>>>>>End Processed Spectral Data<<<<<
