SpectraSuite Data File
++++++++++++++++++++++++++++++++++++
Date: Thu May 05 13:20:59 CEST 2016
User: root
Dark Spectrum Present: No
Reference Spectrum Present: No
Number of Sampled Component Spectra: 1
Spectrometers: USB4C02835
Integration Time (usec): 100000 (USB4C02835)
Spectra Averaged: 1 (USB4C02835)
Boxcar Smoothing: 0 (USB4C02835)
Correct for Electrical Dark: No (USB4C02835)
Strobe/Lamp Enabled: No (USB4C02835)
Correct for Detector Non-linearity: No (USB4C02835)
Correct for Stray Light: No (USB4C02835)
Number of Pixels in Processed Spectrum: 3648
>>>>>Begin Processed Spectral Data<<<<<
177.47	1824.74
177.69	1824.74
177.91	1824.74
178.13	1783.78
178.36	1822.69
178.58	2185.18
178.80	2303.96
179.02	2111.46
179.24	2166.75
179.46	2138.08
179.68	2260.96
179.90	2256.86
180.13	2215.90
180.35	2119.65
180.57	2107.36
180.79	2383.84
181.01	2267.10
181.23	2240.48
181.45	2256.86
181.67	2256.86
181.90	2387.93
182.12	2170.85
182.34	2109.41
182.56	2295.77
182.78	2269.15
183.00	2179.04
183.22	2179.04
183.44	2078.69
183.66	2484.19
183.89	2267.10
184.11	2179.04
184.33	2318.30
184.55	2285.53
184.77	2193.37
184.99	2240.48
185.21	2240.48
185.43	2480.09
185.65	2226.14
185.87	2076.64
186.10	2516.95
186.32	2480.09
186.54	2265.05
186.76	2267.10
186.98	2351.07
187.20	2244.57
187.42	2168.80
187.64	2209.76
187.86	2359.26
188.08	2342.88
188.30	2097.12
188.52	2191.33
188.75	2457.56
188.97	2400.22
189.19	2172.89
189.41	2162.66
189.63	2256.86
189.85	2170.85
190.07	2045.92
190.29	2086.88
190.51	2306.01
190.73	2088.93
190.95	2338.78
191.17	2215.90
191.39	2086.88
191.61	2314.20
191.84	2129.89
192.06	2199.52
192.28	2056.16
192.50	2596.82
192.72	2293.72
192.94	2170.85
193.16	2383.84
193.38	2275.29
193.60	2119.65
193.82	2176.99
194.04	2404.32
194.26	2330.59
194.48	2207.71
194.70	2170.85
194.92	2172.89
195.14	2404.32
195.36	2164.70
195.58	2217.95
195.80	2156.51
196.02	2166.75
196.24	2187.23
196.46	2193.37
196.69	2166.75
196.91	2471.90
197.13	2174.94
197.35	2158.56
197.57	2402.27
197.79	2334.68
198.01	2213.85
198.23	2281.44
198.45	2312.16
198.67	2121.70
198.89	2127.84
199.11	2289.63
199.33	2187.23
199.55	2023.39
199.77	2215.90
199.99	2324.44
200.21	2217.95
200.43	2281.44
200.65	2183.13
200.87	2031.58
201.09	2220.00
201.31	2326.49
201.53	2273.25
201.75	2193.37
201.97	2379.74
202.19	2236.38
202.41	2289.63
202.63	2289.63
202.85	2256.86
203.07	2248.67
203.29	2166.75
203.51	2138.08
203.73	2256.86
203.95	2490.33
204.17	2123.74
204.39	2252.77
204.61	2220.00
204.83	2252.77
205.05	2220.00
205.27	2252.77
205.49	2516.95
205.71	2314.20
205.93	2078.69
206.15	2140.13
206.37	2265.05
206.59	2285.53
206.81	2103.26
207.03	2123.74
207.25	2093.02
207.47	2299.87
207.69	2207.71
207.91	2400.22
208.13	2359.26
208.34	2201.57
208.56	2072.54
208.78	2162.66
209.00	2162.66
209.22	2222.05
209.44	2195.42
209.66	2033.63
209.88	2256.86
210.10	2168.80
210.32	2068.45
210.54	2258.91
210.76	2332.64
210.98	2314.20
211.20	1992.67
211.42	2248.67
211.64	2389.98
211.86	2338.78
212.08	2236.38
212.30	2179.04
212.52	2195.42
212.74	2203.61
212.96	2287.58
213.17	2232.29
213.39	2334.68
213.61	2299.87
213.83	2111.46
214.05	2222.05
214.27	2424.80
214.49	2152.42
214.71	2115.55
214.93	2340.83
215.15	2273.25
215.37	2308.06
215.59	2080.74
215.81	2287.58
216.03	2369.50
216.24	2193.37
216.46	2146.27
216.68	2131.94
216.90	2330.59
217.12	2381.79
217.34	2146.27
217.56	2234.33
217.78	2420.70
218.00	2291.68
218.22	2207.71
218.44	2205.66
218.66	2283.49
218.87	2439.13
219.09	2160.61
219.31	2176.99
219.53	2154.46
219.75	2201.57
219.97	2201.57
220.19	2289.63
220.41	2174.94
220.63	2478.04
220.85	2105.31
221.06	2179.04
221.28	2398.17
221.50	2308.06
221.72	2220.00
221.94	2181.09
222.16	2240.48
222.38	2336.73
222.60	2220.00
222.82	2168.80
223.03	2277.34
223.25	2195.42
223.47	2201.57
223.69	2326.49
223.91	2326.49
224.13	2232.29
224.35	2062.30
224.57	2283.49
224.78	2185.18
225.00	2095.07
225.22	2193.37
225.44	2158.56
225.66	2320.35
225.88	2240.48
226.10	2211.81
226.32	2172.89
226.53	2367.45
226.75	2256.86
226.97	2158.56
227.19	2226.14
227.41	2222.05
227.63	2183.13
227.85	2025.44
228.06	2252.77
228.28	2287.58
228.50	2353.12
228.72	2074.59
228.94	2166.75
229.16	2181.09
229.37	2148.32
229.59	2133.98
229.81	2303.96
230.03	2252.77
230.25	2052.06
230.47	2080.74
230.69	2142.18
230.90	2326.49
231.12	2217.95
231.34	2226.14
231.56	2271.20
231.78	2181.09
232.00	2322.40
232.21	2215.90
232.43	2076.64
232.65	2097.12
232.87	2336.73
233.09	2035.68
233.30	2142.18
233.52	2244.57
233.74	2244.57
233.96	2191.33
234.18	2246.62
234.40	2217.95
234.61	2420.70
234.83	2181.09
235.05	2123.74
235.27	2531.29
235.49	2412.51
235.70	2144.22
235.92	2260.96
236.14	2295.77
236.36	2428.89
236.58	2109.41
236.79	2275.29
237.01	2138.08
237.23	2195.42
237.45	2371.55
237.67	2127.84
237.88	2312.16
238.10	2453.47
238.32	2111.46
238.54	2117.60
238.76	2205.66
238.97	2203.61
239.19	2138.08
239.41	2224.09
239.63	2412.51
239.85	2129.89
240.06	2199.52
240.28	2154.46
240.50	2412.51
240.72	2256.86
240.93	2093.02
241.15	2224.09
241.37	2213.85
241.59	2381.79
241.81	2150.37
242.02	2176.99
242.24	2355.16
242.46	2318.30
242.68	2097.12
242.89	2197.47
243.11	2392.03
243.33	2248.67
243.55	2236.38
243.76	2248.67
243.98	2187.23
244.20	2295.77
244.42	2168.80
244.64	2252.77
244.85	2113.50
245.07	2207.71
245.29	2295.77
245.51	2220.00
245.72	2224.09
245.94	2449.37
246.16	2228.19
246.38	2252.77
246.59	2267.10
246.81	2174.94
247.03	2170.85
247.24	2072.54
247.46	2226.14
247.68	2236.38
247.90	2187.23
248.11	2209.76
248.33	2297.82
248.55	2308.06
248.77	2258.91
248.98	2230.24
249.20	2396.12
249.42	2258.91
249.64	2250.72
249.85	2226.14
250.07	2119.65
250.29	2332.64
250.50	2236.38
250.72	2150.37
250.94	2303.96
251.16	2473.95
251.37	2189.28
251.59	2230.24
251.81	2334.68
252.02	2396.12
252.24	2148.32
252.46	2263.01
252.68	2129.89
252.89	2209.76
253.11	2007.01
253.33	2285.53
253.54	2361.31
253.76	2142.18
253.98	2183.13
254.20	2103.26
254.41	2154.46
254.63	2263.01
254.85	2072.54
255.06	2217.95
255.28	2244.57
255.50	2183.13
255.71	2174.94
255.93	2052.06
256.15	2201.57
256.36	2322.40
256.58	2111.46
256.80	2160.61
257.02	2258.91
257.23	2191.33
257.45	2172.89
257.67	2209.76
257.88	2217.95
258.10	2379.74
258.32	2119.65
258.53	2213.85
258.75	2414.56
258.97	2199.52
259.18	2158.56
259.40	2174.94
259.62	2424.80
259.83	2314.20
260.05	2244.57
260.27	2660.31
260.48	2369.50
260.70	2205.66
260.92	2121.70
261.13	2170.85
261.35	2260.96
261.57	2265.05
261.78	2066.40
262.00	2152.42
262.22	2334.68
262.43	2150.37
262.65	2201.57
262.86	2162.66
263.08	2510.81
263.30	2326.49
263.51	1968.10
263.73	2113.50
263.95	2414.56
264.16	2203.61
264.38	2133.98
264.60	2224.09
264.81	2260.96
265.03	2367.45
265.25	2314.20
265.46	2154.46
265.68	2359.26
265.89	2265.05
266.11	2043.87
266.33	2252.77
266.54	2414.56
266.76	2297.82
266.98	2213.85
267.19	2308.06
267.41	2297.82
267.62	2281.44
267.84	2007.01
268.06	2250.72
268.27	2281.44
268.49	2303.96
268.70	2193.37
268.92	2154.46
269.14	2088.93
269.35	2138.08
269.57	2275.29
269.79	2234.33
270.00	2236.38
270.22	2400.22
270.43	2097.12
270.65	2052.06
270.87	2338.78
271.08	2359.26
271.30	2222.05
271.51	2195.42
271.73	2310.11
271.95	2443.23
272.16	2185.18
272.38	2226.14
272.59	2293.72
272.81	2299.87
273.02	2213.85
273.24	2232.29
273.46	2375.64
273.67	2170.85
273.89	2080.74
274.10	2133.98
274.32	2379.74
274.54	2287.58
274.75	2187.23
274.97	2195.42
275.18	2349.02
275.40	2377.69
275.61	2154.46
275.83	2254.81
276.05	2152.42
276.26	2164.70
276.48	2232.29
276.69	2238.43
276.91	2146.27
277.12	2375.64
277.34	2355.16
277.55	2349.02
277.77	2195.42
277.99	2207.71
278.20	2152.42
278.42	2187.23
278.63	2095.07
278.85	2170.85
279.06	2144.22
279.28	2203.61
279.49	2230.24
279.71	2394.08
279.93	2226.14
280.14	2207.71
280.36	2136.03
280.57	2297.82
280.79	2326.49
281.00	2068.45
281.22	2220.00
281.43	2308.06
281.65	2062.30
281.86	2062.30
282.08	2324.44
282.29	2453.47
282.51	2054.11
282.73	2162.66
282.94	2162.66
283.16	2371.55
283.37	2363.36
283.59	2197.47
283.80	2236.38
284.02	2299.87
284.23	2222.05
284.45	2217.95
284.66	2144.22
284.88	2113.50
285.09	2201.57
285.31	2289.63
285.52	2301.92
285.74	2045.92
285.95	2299.87
286.17	2287.58
286.38	2367.45
286.60	2220.00
286.81	2121.70
287.03	2209.76
287.24	2211.81
287.46	2236.38
287.67	2273.25
287.89	2377.69
288.10	2293.72
288.32	2232.29
288.53	2293.72
288.75	2283.49
288.96	2281.44
289.18	2201.57
289.39	2183.13
289.61	2328.54
289.82	2482.14
290.04	2432.99
290.25	2099.17
290.47	2238.43
290.68	2179.04
290.90	2432.99
291.11	2119.65
291.33	2279.39
291.54	2179.04
291.76	2242.53
291.97	2293.72
292.18	2199.52
292.40	2166.75
292.61	2150.37
292.83	2406.36
293.04	2201.57
293.26	2306.01
293.47	2252.77
293.69	2146.27
293.90	2174.94
294.12	2410.46
294.33	2312.16
294.55	2187.23
294.76	2246.62
294.97	2430.94
295.19	2461.66
295.40	2250.72
295.62	2312.16
295.83	2342.88
296.05	2152.42
296.26	2295.77
296.48	2195.42
296.69	2248.67
296.90	2283.49
297.12	2287.58
297.33	2297.82
297.55	2299.87
297.76	2346.97
297.98	2324.44
298.19	2215.90
298.41	2176.99
298.62	2129.89
298.83	2389.98
299.05	2220.00
299.26	2244.57
299.48	2203.61
299.69	2238.43
299.90	2252.77
300.12	2224.09
300.33	2308.06
300.55	2236.38
300.76	2258.91
300.98	2160.61
301.19	2340.83
301.40	2236.38
301.62	2162.66
301.83	2269.15
302.05	2211.81
302.26	2244.57
302.47	2238.43
302.69	2084.83
302.90	2269.15
303.12	2068.45
303.33	2322.40
303.54	2432.99
303.76	2236.38
303.97	2263.01
304.19	2365.40
304.40	2105.31
304.61	2252.77
304.83	2375.64
305.04	2357.21
305.26	2224.09
305.47	2267.10
305.68	2146.27
305.90	2142.18
306.11	2377.69
306.33	2265.05
306.54	2172.89
306.75	2133.98
306.97	2129.89
307.18	2183.13
307.39	2228.19
307.61	2228.19
307.82	2199.52
308.04	2373.60
308.25	2172.89
308.46	2271.20
308.68	2179.04
308.89	2334.68
309.10	2228.19
309.32	2236.38
309.53	2224.09
309.74	2269.15
309.96	2195.42
310.17	2377.69
310.39	2113.50
310.60	2371.55
310.81	2252.77
311.03	2115.55
311.24	2346.97
311.45	2203.61
311.67	2465.75
311.88	2240.48
312.09	2160.61
312.31	2238.43
312.52	2170.85
312.73	2228.19
312.95	2189.28
313.16	2187.23
313.37	2389.98
313.59	2258.91
313.80	2312.16
314.01	2447.32
314.23	2121.70
314.44	2209.76
314.65	2082.78
314.87	2115.55
315.08	2201.57
315.29	2207.71
315.51	2176.99
315.72	2097.12
315.93	2416.60
316.15	2228.19
316.36	2183.13
316.57	2242.53
316.79	2205.66
317.00	2181.09
317.21	2336.73
317.43	2107.36
317.64	2242.53
317.85	2105.31
318.07	2201.57
318.28	2267.10
318.49	2369.50
318.70	2445.27
318.92	2441.18
319.13	2439.13
319.34	2504.67
319.56	2365.40
319.77	2367.45
319.98	2375.64
320.20	2359.26
320.41	2375.64
320.62	2299.87
320.83	2176.99
321.05	2375.64
321.26	2291.68
321.47	2256.86
321.69	2355.16
321.90	2105.31
322.11	2226.14
322.32	2226.14
322.54	2400.22
322.75	2146.27
322.96	2512.86
323.18	2111.46
323.39	2099.17
323.60	2189.28
323.81	2299.87
324.03	2170.85
324.24	2209.76
324.45	2269.15
324.66	2154.46
324.88	2283.49
325.09	2396.12
325.30	2209.76
325.52	2252.77
325.73	2273.25
325.94	2174.94
326.15	2156.51
326.37	2224.09
326.58	2365.40
326.79	2435.03
327.00	2232.29
327.22	2166.75
327.43	2129.89
327.64	2203.61
327.85	2220.00
328.07	2289.63
328.28	2377.69
328.49	2230.24
328.70	2273.25
328.92	2308.06
329.13	2203.61
329.34	2287.58
329.55	2414.56
329.76	2349.02
329.98	2240.48
330.19	2424.80
330.40	2220.00
330.61	2236.38
330.83	2267.10
331.04	2148.32
331.25	2191.33
331.46	2162.66
331.68	2105.31
331.89	2428.89
332.10	2285.53
332.31	2136.03
332.52	2189.28
332.74	2320.35
332.95	2121.70
333.16	2191.33
333.37	2207.71
333.58	2250.72
333.80	2228.19
334.01	2064.35
334.22	2246.62
334.43	2168.80
334.64	2236.38
334.86	2148.32
335.07	2146.27
335.28	2420.70
335.49	2099.17
335.70	2283.49
335.92	2381.79
336.13	2508.76
336.34	2387.93
336.55	2252.77
336.76	2293.72
336.98	2039.78
337.19	2193.37
337.40	2455.51
337.61	2502.62
337.82	2273.25
338.04	2301.92
338.25	2062.30
338.46	2183.13
338.67	2258.91
338.88	2138.08
339.09	2172.89
339.31	2230.24
339.52	2154.46
339.73	2117.60
339.94	2226.14
340.15	2285.53
340.36	2201.57
340.58	2213.85
340.79	2193.37
341.00	2289.63
341.21	2121.70
341.42	2371.55
341.63	2136.03
341.85	2353.12
342.06	2297.82
342.27	2095.07
342.48	2301.92
342.69	2105.31
342.90	2297.82
343.12	2334.68
343.33	2131.94
343.54	2371.55
343.75	2422.75
343.96	2244.57
344.17	2160.61
344.38	2254.81
344.60	2230.24
344.81	2170.85
345.02	2256.86
345.23	2394.08
345.44	2547.67
345.65	2213.85
345.86	2248.67
346.07	2224.09
346.29	2172.89
346.50	2250.72
346.71	2303.96
346.92	2303.96
347.13	2398.17
347.34	2273.25
347.55	2191.33
347.76	2324.44
347.98	2097.12
348.19	2170.85
348.40	2400.22
348.61	2205.66
348.82	2437.08
349.03	2207.71
349.24	2166.75
349.45	2478.04
349.66	2105.31
349.88	2260.96
350.09	2090.98
350.30	2320.35
350.51	2367.45
350.72	2224.09
350.93	2260.96
351.14	2234.33
351.35	2310.11
351.56	2158.56
351.77	2226.14
351.99	2332.64
352.20	2412.51
352.41	2322.40
352.62	2062.30
352.83	2228.19
353.04	2258.91
353.25	2252.77
353.46	2308.06
353.67	2367.45
353.88	2045.92
354.09	2189.28
354.30	2258.91
354.52	2281.44
354.73	2254.81
354.94	2191.33
355.15	2308.06
355.36	2432.99
355.57	2152.42
355.78	2310.11
355.99	2181.09
356.20	2187.23
356.41	2381.79
356.62	2269.15
356.83	2236.38
357.04	2338.78
357.25	2086.88
357.46	2191.33
357.68	2129.89
357.89	2144.22
358.10	2285.53
358.31	2154.46
358.52	2142.18
358.73	2193.37
358.94	2150.37
359.15	2162.66
359.36	2252.77
359.57	2179.04
359.78	2183.13
359.99	2326.49
360.20	2162.66
360.41	2217.95
360.62	2336.73
360.83	2260.96
361.04	2181.09
361.25	2256.86
361.46	2461.66
361.67	2258.91
361.88	2260.96
362.09	2328.54
362.30	2314.20
362.51	2211.81
362.72	2246.62
362.93	2330.59
363.14	2291.68
363.35	2267.10
363.56	2150.37
363.78	2320.35
363.99	2357.21
364.20	2187.23
364.41	2187.23
364.62	2441.18
364.83	2326.49
365.04	2170.85
365.25	2199.52
365.46	2508.76
365.67	2123.74
365.88	2234.33
366.09	2193.37
366.30	2318.30
366.51	2246.62
366.72	2228.19
366.93	2246.62
367.14	2179.04
367.35	2375.64
367.56	2187.23
367.77	2371.55
367.98	2256.86
368.18	2314.20
368.39	2326.49
368.60	2181.09
368.81	2273.25
369.02	2213.85
369.23	2217.95
369.44	2039.78
369.65	2263.01
369.86	2334.68
370.07	2236.38
370.28	2197.47
370.49	2289.63
370.70	2281.44
370.91	2117.60
371.12	2101.22
371.33	2365.40
371.54	2267.10
371.75	2381.79
371.96	2088.93
372.17	2312.16
372.38	2232.29
372.59	2310.11
372.80	2162.66
373.01	2224.09
373.22	2226.14
373.43	2250.72
373.64	2189.28
373.85	2381.79
374.06	2482.14
374.26	2359.26
374.47	2209.76
374.68	2381.79
374.89	2361.31
375.10	2193.37
375.31	2312.16
375.52	2273.25
375.73	2297.82
375.94	2086.88
376.15	2402.27
376.36	2146.27
376.57	2142.18
376.78	2213.85
376.99	2179.04
377.20	2351.07
377.40	2277.34
377.61	2426.84
377.82	2203.61
378.03	2381.79
378.24	2334.68
378.45	2269.15
378.66	2252.77
378.87	2078.69
379.08	2166.75
379.29	2179.04
379.50	2250.72
379.71	2260.96
379.91	2314.20
380.12	2230.24
380.33	2236.38
380.54	2283.49
380.75	2195.42
380.96	2230.24
381.17	2326.49
381.38	2248.67
381.59	2236.38
381.80	2252.77
382.00	2408.41
382.21	2357.21
382.42	2426.84
382.63	2549.72
382.84	2207.71
383.05	2371.55
383.26	2377.69
383.47	2220.00
383.68	2172.89
383.88	2351.07
384.09	2265.05
384.30	2361.31
384.51	2306.01
384.72	2187.23
384.93	2113.50
385.14	2328.54
385.35	2383.84
385.55	2136.03
385.76	2394.08
385.97	2224.09
386.18	2150.37
386.39	2203.61
386.60	2236.38
386.81	2258.91
387.02	2179.04
387.22	2220.00
387.43	2322.40
387.64	2310.11
387.85	2416.60
388.06	2543.58
388.27	3837.89
388.48	8134.53
388.68	11802.44
388.89	13991.72
389.10	15011.61
389.31	14102.31
389.52	10960.73
389.73	9525.10
389.93	8673.15
390.14	8009.61
390.35	7096.21
390.56	6414.24
390.77	5271.47
390.98	4075.46
391.18	3323.85
391.39	2807.77
391.60	2375.64
391.81	2381.79
392.02	2179.04
392.23	2455.51
392.43	2289.63
392.64	2349.02
392.85	2258.91
393.06	2410.46
393.27	2222.05
393.47	2131.94
393.68	2260.96
393.89	2189.28
394.10	2314.20
394.31	2224.09
394.52	2142.18
394.72	2224.09
394.93	2416.60
395.14	2193.37
395.35	2320.35
395.56	2136.03
395.76	2289.63
395.97	2326.49
396.18	2275.29
396.39	2400.22
396.60	2799.57
396.80	2613.21
397.01	2447.32
397.22	2428.89
397.43	2385.88
397.64	2187.23
397.84	2351.07
398.05	2496.47
398.26	2283.49
398.47	2301.92
398.67	2428.89
398.88	2263.01
399.09	2303.96
399.30	2150.37
399.51	2285.53
399.71	2193.37
399.92	2213.85
400.13	2301.92
400.34	2244.57
400.54	2285.53
400.75	2408.41
400.96	2287.58
401.17	2375.64
401.37	2346.97
401.58	2146.27
401.79	2285.53
402.00	2340.83
402.21	2631.64
402.41	2484.19
402.62	2572.25
402.83	2629.59
403.04	2684.89
403.24	2850.77
403.45	2437.08
403.66	2414.56
403.87	2453.47
404.07	2572.25
404.28	2545.63
404.49	2555.86
404.70	2330.59
404.90	2346.97
405.11	2230.24
405.32	2293.72
405.52	2195.42
405.73	2248.67
405.94	2240.48
406.15	2326.49
406.35	2316.25
406.56	2310.11
406.77	2271.20
406.98	2314.20
407.18	2226.14
407.39	2383.84
407.60	2242.53
407.80	2322.40
408.01	2193.37
408.22	2275.29
408.43	2215.90
408.63	2306.01
408.84	2385.88
409.05	2361.31
409.25	2172.89
409.46	2176.99
409.67	2234.33
409.88	2197.47
410.08	2226.14
410.29	2150.37
410.50	2332.64
410.70	2281.44
410.91	2103.26
411.12	2277.34
411.32	2244.57
411.53	2203.61
411.74	2400.22
411.95	2308.06
412.15	2263.01
412.36	2439.13
412.57	2330.59
412.77	2283.49
412.98	2285.53
413.19	2189.28
413.39	2211.81
413.60	2248.67
413.81	2418.65
414.01	2197.47
414.22	2273.25
414.43	2357.21
414.63	2211.81
414.84	2361.31
415.05	2232.29
415.25	2078.69
415.46	2326.49
415.67	2148.32
415.87	2318.30
416.08	2234.33
416.29	2306.01
416.49	2260.96
416.70	2234.33
416.91	2240.48
417.11	2213.85
417.32	2357.21
417.53	2363.36
417.73	2281.44
417.94	2207.71
418.15	2283.49
418.35	2246.62
418.56	2226.14
418.77	2461.66
418.97	2240.48
419.18	2211.81
419.38	2027.49
419.59	2312.16
419.80	2377.69
420.00	2207.71
420.21	2281.44
420.42	2398.17
420.62	2277.34
420.83	2152.42
421.04	2224.09
421.24	2162.66
421.45	2277.34
421.65	2283.49
421.86	2244.57
422.07	2293.72
422.27	2303.96
422.48	2289.63
422.69	2133.98
422.89	2242.53
423.10	2187.23
423.30	2172.89
423.51	2215.90
423.72	2299.87
423.92	2392.03
424.13	2144.22
424.33	2295.77
424.54	2293.72
424.75	2316.25
424.95	2400.22
425.16	2256.86
425.36	2281.44
425.57	2351.07
425.78	2246.62
425.98	2328.54
426.19	2176.99
426.39	2179.04
426.60	2285.53
426.81	2306.01
427.01	2297.82
427.22	2236.38
427.42	2117.60
427.63	2144.22
427.83	2312.16
428.04	2455.51
428.25	2332.64
428.45	2340.83
428.66	2344.92
428.86	2297.82
429.07	2232.29
429.28	2271.20
429.48	2193.37
429.69	2191.33
429.89	2297.82
430.10	2228.19
430.30	2310.11
430.51	2400.22
430.71	2170.85
430.92	2215.90
431.13	2222.05
431.33	2308.06
431.54	2293.72
431.74	2441.18
431.95	2435.03
432.15	2240.48
432.36	2160.61
432.56	2224.09
432.77	2412.51
432.98	2432.99
433.18	2285.53
433.39	2170.85
433.59	2252.77
433.80	2533.34
434.00	2488.28
434.21	2205.66
434.41	2215.90
434.62	2498.52
434.82	2174.94
435.03	2166.75
435.23	2301.92
435.44	2095.07
435.64	2252.77
435.85	2273.25
436.06	2328.54
436.26	2363.36
436.47	2258.91
436.67	2160.61
436.88	2260.96
437.08	2269.15
437.29	2428.89
437.49	2232.29
437.70	2346.97
437.90	2222.05
438.11	2394.08
438.31	2289.63
438.52	2482.14
438.72	2445.27
438.93	2519.00
439.13	2367.45
439.34	2375.64
439.54	2252.77
439.75	2297.82
439.95	2359.26
440.16	2267.10
440.36	2326.49
440.57	2359.26
440.77	2248.67
440.98	2291.68
441.18	2283.49
441.39	2232.29
441.59	2213.85
441.80	2504.67
442.00	2287.58
442.21	2412.51
442.41	2197.47
442.62	2406.36
442.82	2146.27
443.02	2281.44
443.23	2293.72
443.43	2103.26
443.64	2381.79
443.84	2179.04
444.05	2414.56
444.25	2256.86
444.46	2162.66
444.66	2201.57
444.87	2496.47
445.07	2099.17
445.28	2277.34
445.48	2342.88
445.69	2271.20
445.89	2535.39
446.09	2244.57
446.30	2584.54
446.50	2815.96
446.71	4464.57
446.91	5574.57
447.12	6262.69
447.32	6727.58
447.53	6117.28
447.73	5021.62
447.93	4562.87
448.14	4177.86
448.34	4071.36
448.55	3575.75
448.75	3620.81
448.96	3432.40
449.16	3229.65
449.36	2867.16
449.57	2488.28
449.77	2428.89
449.98	2316.25
450.18	2346.97
450.39	2301.92
450.59	2392.03
450.79	2271.20
451.00	2176.99
451.20	2318.30
451.41	2297.82
451.61	2306.01
451.81	2248.67
452.02	2170.85
452.22	2113.50
452.43	2183.13
452.63	2215.90
452.84	2164.70
453.04	2213.85
453.24	2361.31
453.45	2170.85
453.65	2250.72
453.86	2234.33
454.06	2275.29
454.26	2217.95
454.47	2248.67
454.67	2400.22
454.87	2387.93
455.08	2211.81
455.28	2441.18
455.49	2213.85
455.69	2228.19
455.89	2459.61
456.10	2316.25
456.30	2279.39
456.51	2371.55
456.71	2320.35
456.91	2283.49
457.12	2263.01
457.32	2324.44
457.52	2150.37
457.73	2355.16
457.93	2293.72
458.14	2220.00
458.34	2162.66
458.54	2336.73
458.75	2254.81
458.95	2342.88
459.15	2277.34
459.36	2248.67
459.56	2299.87
459.76	2568.15
459.97	2289.63
460.17	2265.05
460.37	2269.15
460.58	2269.15
460.78	2346.97
460.99	2191.33
461.19	2197.47
461.39	2203.61
461.60	2306.01
461.80	2297.82
462.00	2123.74
462.21	2232.29
462.41	2220.00
462.61	2174.94
462.82	2078.69
463.02	2322.40
463.22	2234.33
463.43	2387.93
463.63	2256.86
463.83	2346.97
464.04	2369.50
464.24	2297.82
464.44	2138.08
464.64	2301.92
464.85	2308.06
465.05	2308.06
465.25	2299.87
465.46	2226.14
465.66	2342.88
465.86	2316.25
466.07	2291.68
466.27	2297.82
466.47	2113.50
466.68	2154.46
466.88	2375.64
467.08	2328.54
467.29	2349.02
467.49	2293.72
467.69	2271.20
467.89	2355.16
468.10	2224.09
468.30	2260.96
468.50	2408.41
468.71	2400.22
468.91	2162.66
469.11	2389.98
469.31	2252.77
469.52	2125.79
469.72	2428.89
469.92	2463.71
470.13	2308.06
470.33	2252.77
470.53	2293.72
470.73	2680.79
470.94	2990.03
471.14	3231.69
471.34	3456.97
471.54	3348.43
471.75	3043.28
471.95	2822.10
472.15	2766.81
472.36	2848.72
472.56	2748.37
472.76	2711.51
472.96	2643.93
473.17	2547.67
473.37	2539.48
473.57	2273.25
473.77	2353.12
473.98	2260.96
474.18	2187.23
474.38	2611.16
474.58	2236.38
474.79	2176.99
474.99	2310.11
475.19	2392.03
475.39	2152.42
475.60	2330.59
475.80	2252.77
476.00	2291.68
476.20	2252.77
476.41	2201.57
476.61	2299.87
476.81	2351.07
477.01	2207.71
477.21	2510.81
477.42	2336.73
477.62	2181.09
477.82	2371.55
478.02	2258.91
478.23	2273.25
478.43	2138.08
478.63	2185.18
478.83	2275.29
479.03	2273.25
479.24	2389.98
479.44	2490.33
479.64	2203.61
479.84	2133.98
480.04	2154.46
480.25	2334.68
480.45	2166.75
480.65	2267.10
480.85	2410.46
481.06	2248.67
481.26	2303.96
481.46	2258.91
481.66	2306.01
481.86	2164.70
482.06	2320.35
482.27	2236.38
482.47	2199.52
482.67	2269.15
482.87	2236.38
483.07	2404.32
483.28	2217.95
483.48	2162.66
483.68	2277.34
483.88	2224.09
484.08	2080.74
484.29	2168.80
484.49	2269.15
484.69	2136.03
484.89	2400.22
485.09	2326.49
485.29	2234.33
485.50	2344.92
485.70	2267.10
485.90	2394.08
486.10	2326.49
486.30	2271.20
486.50	2410.46
486.71	2310.11
486.91	2346.97
487.11	2381.79
487.31	2174.94
487.51	2326.49
487.71	2183.13
487.91	2183.13
488.12	2197.47
488.32	2015.20
488.52	2199.52
488.72	2093.02
488.92	2252.77
489.12	2441.18
489.32	2373.60
489.53	2297.82
489.73	2109.41
489.93	2457.56
490.13	2240.48
490.33	2060.26
490.53	2265.05
490.73	2326.49
490.94	2080.74
491.14	2373.60
491.34	2316.25
491.54	2531.29
491.74	3190.74
491.94	3858.37
492.14	4169.66
492.34	4204.48
492.54	3837.89
492.75	3270.61
492.95	3211.22
493.15	2965.46
493.35	2985.94
493.55	2844.63
493.75	2670.55
493.95	2813.91
494.15	2576.34
494.35	2424.80
494.56	2377.69
494.76	2299.87
494.96	2428.89
495.16	2236.38
495.36	2263.01
495.56	2338.78
495.76	2271.20
495.96	2217.95
496.16	2197.47
496.36	2482.14
496.56	2207.71
496.77	2293.72
496.97	2277.34
497.17	2355.16
497.37	2121.70
497.57	2357.21
497.77	2236.38
497.97	2224.09
498.17	2228.19
498.37	2230.24
498.57	2312.16
498.77	2254.81
498.97	2306.01
499.17	2512.86
499.38	2228.19
499.58	2392.03
499.78	2383.84
499.98	2383.84
500.18	2301.92
500.38	2195.42
500.58	2437.08
500.78	2906.07
500.98	5259.18
501.18	7266.19
501.38	8818.55
501.58	9815.91
501.78	9504.62
501.98	7724.94
502.18	6676.38
502.38	5545.90
502.58	5121.97
502.78	4564.92
502.98	4468.67
503.18	4231.10
503.38	3885.00
503.59	3346.38
503.79	3276.75
503.99	2936.79
504.19	2760.66
504.39	2877.40
504.59	2856.92
504.79	2822.10
504.99	2818.00
505.19	2613.21
505.39	2537.43
505.59	2572.25
505.79	2576.34
505.99	2451.42
506.19	2340.83
506.39	2482.14
506.59	2252.77
506.79	2230.24
506.99	2373.60
507.19	2244.57
507.39	2314.20
507.59	2113.50
507.79	2195.42
507.99	2203.61
508.19	2285.53
508.39	2281.44
508.59	2174.94
508.79	2412.51
508.99	2422.75
509.19	2191.33
509.39	2406.36
509.59	2176.99
509.79	2256.86
509.99	2273.25
510.19	2369.50
510.39	2291.68
510.59	2238.43
510.79	2203.61
510.99	2105.31
511.19	2240.48
511.39	2514.91
511.59	2430.94
511.79	2355.16
511.99	2287.58
512.19	2510.81
512.38	2252.77
512.58	2189.28
512.78	2301.92
512.98	2400.22
513.18	2432.99
513.38	2131.94
513.58	2426.84
513.78	2287.58
513.98	2256.86
514.18	2176.99
514.38	2133.98
514.58	2297.82
514.78	2168.80
514.98	2209.76
515.18	2232.29
515.38	2179.04
515.58	2486.23
515.78	2244.57
515.98	2277.34
516.18	2330.59
516.38	2265.05
516.57	2156.51
516.77	2242.53
516.97	2326.49
517.17	2240.48
517.37	2095.07
517.57	2318.30
517.77	2363.36
517.97	2316.25
518.17	2285.53
518.37	2197.47
518.57	2183.13
518.77	2201.57
518.97	2252.77
519.16	2373.60
519.36	2404.32
519.56	2193.37
519.76	2248.67
519.96	2215.90
520.16	2338.78
520.36	2136.03
520.56	2361.31
520.76	2172.89
520.96	2199.52
521.16	2340.83
521.35	2363.36
521.55	2467.80
521.75	2310.11
521.95	2234.33
522.15	2306.01
522.35	2125.79
522.55	2195.42
522.75	2301.92
522.95	2125.79
523.14	2179.04
523.34	2250.72
523.54	2283.49
523.74	2277.34
523.94	2299.87
524.14	2090.98
524.34	2318.30
524.54	2441.18
524.73	2246.62
524.93	2375.64
525.13	2326.49
525.33	2082.78
525.53	2469.85
525.73	2408.41
525.93	2267.10
526.13	2172.89
526.32	2265.05
526.52	2422.75
526.72	2387.93
526.92	2267.10
527.12	2195.42
527.32	2142.18
527.52	2263.01
527.71	2252.77
527.91	2246.62
528.11	2275.29
528.31	2220.00
528.51	2179.04
528.71	2334.68
528.90	2338.78
529.10	2385.88
529.30	2402.27
529.50	2045.92
529.70	2211.81
529.90	2277.34
530.09	2375.64
530.29	2146.27
530.49	2226.14
530.69	2553.82
530.89	2236.38
531.09	2381.79
531.28	2220.00
531.48	2455.51
531.68	2338.78
531.88	2314.20
532.08	2375.64
532.28	2267.10
532.47	2408.41
532.67	2400.22
532.87	2324.44
533.07	2256.86
533.27	2273.25
533.46	2359.26
533.66	2365.40
533.86	2279.39
534.06	2293.72
534.26	2330.59
534.45	2289.63
534.65	2400.22
534.85	2273.25
535.05	2252.77
535.25	2314.20
535.44	2138.08
535.64	2369.50
535.84	2250.72
536.04	2293.72
536.24	2170.85
536.43	2156.51
536.63	2271.20
536.83	2228.19
537.03	2367.45
537.22	2060.26
537.42	2121.70
537.62	2226.14
537.82	2301.92
538.02	2383.84
538.21	2406.36
538.41	2609.11
538.61	2359.26
538.81	2283.49
539.00	2332.64
539.20	2097.12
539.40	2158.56
539.60	2267.10
539.79	2344.92
539.99	2209.76
540.19	2154.46
540.39	2217.95
540.58	2250.72
540.78	2406.36
540.98	2232.29
541.18	2351.07
541.37	2287.58
541.57	2179.04
541.77	2297.82
541.97	2160.61
542.16	2113.50
542.36	2277.34
542.56	2189.28
542.76	2510.81
542.95	2250.72
543.15	2318.30
543.35	2299.87
543.54	2199.52
543.74	2185.18
543.94	2410.46
544.14	2248.67
544.33	2316.25
544.53	2281.44
544.73	2121.70
544.93	2176.99
545.12	2203.61
545.32	2246.62
545.52	2195.42
545.71	2195.42
545.91	2170.85
546.11	2281.44
546.30	2138.08
546.50	2238.43
546.70	2326.49
546.90	2260.96
547.09	2127.84
547.29	2234.33
547.49	2285.53
547.68	2246.62
547.88	2209.76
548.08	2314.20
548.27	2785.24
548.47	2220.00
548.67	2146.27
548.87	2351.07
549.06	2244.57
549.26	2312.16
549.46	2318.30
549.65	2256.86
549.85	2236.38
550.05	2361.31
550.24	2129.89
550.44	2318.30
550.64	2256.86
550.83	2250.72
551.03	2461.66
551.23	2318.30
551.42	2297.82
551.62	2275.29
551.82	2316.25
552.01	2297.82
552.21	2375.64
552.41	2269.15
552.60	2435.03
552.80	2226.14
553.00	2185.18
553.19	2176.99
553.39	2398.17
553.59	2121.70
553.78	2353.12
553.98	2334.68
554.17	2133.98
554.37	2342.88
554.57	2400.22
554.76	2088.93
554.96	2254.81
555.16	2240.48
555.35	2320.35
555.55	2260.96
555.75	2308.06
555.94	2326.49
556.14	2084.83
556.33	2330.59
556.53	2301.92
556.73	2260.96
556.92	2285.53
557.12	2269.15
557.32	2426.84
557.51	2410.46
557.71	2314.20
557.90	2387.93
558.10	2318.30
558.30	2256.86
558.49	2267.10
558.69	2289.63
558.88	2285.53
559.08	2260.96
559.28	2213.85
559.47	2330.59
559.67	2326.49
559.86	2428.89
560.06	2283.49
560.26	2209.76
560.45	2363.36
560.65	2189.28
560.84	2349.02
561.04	2158.56
561.24	2398.17
561.43	2176.99
561.63	2373.60
561.82	2322.40
562.02	2273.25
562.22	2152.42
562.41	2152.42
562.61	2217.95
562.80	2217.95
563.00	2539.48
563.19	2291.68
563.39	2328.54
563.59	2318.30
563.78	2123.74
563.98	2129.89
564.17	2215.90
564.37	2138.08
564.56	2228.19
564.76	2162.66
564.96	2379.74
565.15	2363.36
565.35	2519.00
565.54	2260.96
565.74	2291.68
565.93	2338.78
566.13	2310.11
566.32	2269.15
566.52	2342.88
566.71	2301.92
566.91	2297.82
567.11	2240.48
567.30	2129.89
567.50	2330.59
567.69	2248.67
567.89	2258.91
568.08	2207.71
568.28	2244.57
568.47	2205.66
568.67	2277.34
568.86	2328.54
569.06	2398.17
569.25	2170.85
569.45	2185.18
569.64	2119.65
569.84	2244.57
570.04	2310.11
570.23	2211.81
570.43	2232.29
570.62	2285.53
570.82	2428.89
571.01	2162.66
571.21	2209.76
571.40	2162.66
571.60	2326.49
571.79	2269.15
571.99	2246.62
572.18	2152.42
572.38	2375.64
572.57	2254.81
572.77	2228.19
572.96	2619.35
573.16	2375.64
573.35	2256.86
573.55	2389.98
573.74	2357.21
573.94	2281.44
574.13	2275.29
574.33	2412.51
574.52	2383.84
574.71	2205.66
574.91	2236.38
575.10	2201.57
575.30	2285.53
575.49	2176.99
575.69	2236.38
575.88	2338.78
576.08	2334.68
576.27	2363.36
576.47	2285.53
576.66	2346.97
576.86	2379.74
577.05	2291.68
577.25	2312.16
577.44	2459.61
577.64	2242.53
577.83	2420.70
578.02	2299.87
578.22	2357.21
578.41	2459.61
578.61	2230.24
578.80	2170.85
579.00	2297.82
579.19	2306.01
579.39	2269.15
579.58	2273.25
579.77	2301.92
579.97	2439.13
580.16	2424.80
580.36	2424.80
580.55	2369.50
580.75	2357.21
580.94	2303.96
581.13	2453.47
581.33	2478.04
581.52	2236.38
581.72	2586.58
581.91	2473.95
582.11	2289.63
582.30	2398.17
582.49	2316.25
582.69	2420.70
582.88	2267.10
583.08	2369.50
583.27	2478.04
583.47	2303.96
583.66	2244.57
583.85	2269.15
584.05	2303.96
584.24	2334.68
584.44	2361.31
584.63	2469.85
584.82	2441.18
585.02	2445.27
585.21	2453.47
585.41	2488.28
585.60	2478.04
585.79	2555.86
585.99	2473.95
586.18	2394.08
586.37	2838.48
586.57	4534.20
586.76	13795.12
586.96	33005.06
587.15	46636.34
587.34	56245.41
587.54	60796.00
587.73	55831.72
587.93	39597.48
588.12	29812.28
588.31	24088.21
588.51	20588.23
588.70	19259.10
588.89	17403.64
589.09	15034.14
589.28	12703.55
589.47	10346.34
589.67	8195.97
589.86	6299.55
590.06	4683.70
590.25	3786.69
590.44	3141.58
590.64	2895.83
590.83	2627.54
591.02	2535.39
591.22	2359.26
591.41	2408.41
591.60	2342.88
591.80	2525.15
591.99	2236.38
592.18	2275.29
592.38	2416.60
592.57	2191.33
592.76	2349.02
592.96	2303.96
593.15	2326.49
593.34	2422.75
593.54	2324.44
593.73	2281.44
593.92	2361.31
594.12	2383.84
594.31	2330.59
594.50	2465.75
594.70	2357.21
594.89	2619.35
595.08	2203.61
595.28	2316.25
595.47	2609.11
595.66	2355.16
595.86	2217.95
596.05	2258.91
596.24	2215.90
596.43	2490.33
596.63	2406.36
596.82	2373.60
597.01	2357.21
597.21	2486.23
597.40	2310.11
597.59	2330.59
597.79	2232.29
597.98	2404.32
598.17	2357.21
598.36	2252.77
598.56	2416.60
598.75	2240.48
598.94	2289.63
599.14	2244.57
599.33	2228.19
599.52	2478.04
599.71	2314.20
599.91	2332.64
600.10	2330.59
600.29	2402.27
600.48	2330.59
600.68	2359.26
600.87	2330.59
601.06	2222.05
601.26	2211.81
601.45	2220.00
601.64	2260.96
601.83	2443.23
602.03	2189.28
602.22	2107.36
602.41	2375.64
602.60	2523.10
602.80	2320.35
602.99	2328.54
603.18	2277.34
603.37	2369.50
603.57	2297.82
603.76	2301.92
603.95	2402.27
604.14	2191.33
604.34	2203.61
604.53	2207.71
604.72	2318.30
604.91	2310.11
605.10	2244.57
605.30	2195.42
605.49	2502.62
605.68	2367.45
605.87	2310.11
606.07	2211.81
606.26	2310.11
606.45	2228.19
606.64	2349.02
606.84	2287.58
607.03	2353.12
607.22	2449.37
607.41	2199.52
607.60	2228.19
607.80	2379.74
607.99	2242.53
608.18	2291.68
608.37	2248.67
608.56	2195.42
608.76	2379.74
608.95	2441.18
609.14	2359.26
609.33	2484.19
609.52	2510.81
609.72	2416.60
609.91	2424.80
610.10	2383.84
610.29	2430.94
610.48	2316.25
610.68	2412.51
610.87	2250.72
611.06	2404.32
611.25	2396.12
611.44	2320.35
611.63	2275.29
611.83	2373.60
612.02	2199.52
612.21	2400.22
612.40	2144.22
612.59	2162.66
612.79	2181.09
612.98	2179.04
613.17	2459.61
613.36	2234.33
613.55	2414.56
613.74	2369.50
613.93	2424.80
614.13	2408.41
614.32	2512.86
614.51	2533.34
614.70	2217.95
614.89	2308.06
615.08	2387.93
615.28	2820.05
615.47	2215.90
615.66	2418.65
615.85	2248.67
616.04	2465.75
616.23	2228.19
616.42	2301.92
616.62	2269.15
616.81	2365.40
617.00	2289.63
617.19	2398.17
617.38	2301.92
617.57	2244.57
617.76	2334.68
617.95	2334.68
618.15	2289.63
618.34	2410.46
618.53	2189.28
618.72	2357.21
618.91	2373.60
619.10	2459.61
619.29	2269.15
619.48	2308.06
619.68	2158.56
619.87	2277.34
620.06	2086.88
620.25	2301.92
620.44	2230.24
620.63	2222.05
620.82	2351.07
621.01	2316.25
621.20	2242.53
621.39	2346.97
621.59	2310.11
621.78	2308.06
621.97	2314.20
622.16	2318.30
622.35	2383.84
622.54	2351.07
622.73	2318.30
622.92	2187.23
623.11	2351.07
623.30	2146.27
623.49	2306.01
623.68	2183.13
623.88	2422.75
624.07	2211.81
624.26	2254.81
624.45	2379.74
624.64	2193.37
624.83	2392.03
625.02	2162.66
625.21	2254.81
625.40	2320.35
625.59	2422.75
625.78	2242.53
625.97	2342.88
626.16	2465.75
626.35	2389.98
626.54	2269.15
626.74	2424.80
626.93	2267.10
627.12	2252.77
627.31	2420.70
627.50	2258.91
627.69	2400.22
627.88	2244.57
628.07	2220.00
628.26	2103.26
628.45	2187.23
628.64	2215.90
628.83	2258.91
629.02	2131.94
629.21	2355.16
629.40	2283.49
629.59	2197.47
629.78	2275.29
629.97	2168.80
630.16	2297.82
630.35	2326.49
630.54	2244.57
630.73	2215.90
630.92	2269.15
631.11	2187.23
631.30	2256.86
631.49	2346.97
631.68	2250.72
631.87	2285.53
632.06	2131.94
632.25	2445.27
632.44	2265.05
632.63	2349.02
632.82	2293.72
633.01	2385.88
633.20	2287.58
633.39	2306.01
633.58	2246.62
633.77	2285.53
633.96	2375.64
634.15	2383.84
634.34	2375.64
634.53	2236.38
634.72	2252.77
634.91	2242.53
635.10	2250.72
635.29	2308.06
635.48	2301.92
635.67	2228.19
635.86	2160.61
636.05	2449.37
636.24	2301.92
636.43	2291.68
636.62	2250.72
636.81	2027.49
637.00	2320.35
637.19	2297.82
637.38	2283.49
637.57	2236.38
637.76	2359.26
637.95	2437.08
638.14	2326.49
638.33	2432.99
638.52	2439.13
638.71	2193.37
638.89	2162.66
639.08	2672.60
639.27	2342.88
639.46	2502.62
639.65	2750.42
639.84	2875.35
640.03	2979.79
640.22	2826.20
640.41	2848.72
640.60	2498.52
640.79	2492.38
640.98	2465.75
641.17	2424.80
641.36	2457.56
641.55	2377.69
641.74	2297.82
641.92	2226.14
642.11	2301.92
642.30	2277.34
642.49	2142.18
642.68	2267.10
642.87	2377.69
643.06	2338.78
643.25	2138.08
643.44	2187.23
643.63	2265.05
643.82	2367.45
644.00	2138.08
644.19	2232.29
644.38	2185.18
644.57	2367.45
644.76	2269.15
644.95	2277.34
645.14	2215.90
645.33	2203.61
645.52	2267.10
645.71	2117.60
645.89	2168.80
646.08	2217.95
646.27	2213.85
646.46	2441.18
646.65	2086.88
646.84	2295.77
647.03	2140.13
647.22	2369.50
647.40	2228.19
647.59	2308.06
647.78	2072.54
647.97	2195.42
648.16	2097.12
648.35	2396.12
648.54	2396.12
648.73	2228.19
648.91	2373.60
649.10	2236.38
649.29	2162.66
649.48	2236.38
649.67	2242.53
649.86	2252.77
650.05	2217.95
650.23	2447.32
650.42	2299.87
650.61	2494.43
650.80	2439.13
650.99	2545.63
651.18	2332.64
651.36	2424.80
651.55	2301.92
651.74	2389.98
651.93	2240.48
652.12	2275.29
652.31	2228.19
652.49	2230.24
652.68	2293.72
652.87	2408.41
653.06	2351.07
653.25	2377.69
653.44	2306.01
653.62	2461.66
653.81	2232.29
654.00	2256.86
654.19	2342.88
654.38	2504.67
654.56	2269.15
654.75	2191.33
654.94	2394.08
655.13	2246.62
655.32	2191.33
655.51	2316.25
655.69	2195.42
655.88	2295.77
656.07	2166.75
656.26	2297.82
656.45	2162.66
656.63	2297.82
656.82	2267.10
657.01	2379.74
657.20	2222.05
657.38	2310.11
657.57	2297.82
657.76	2136.03
657.95	2324.44
658.14	2199.52
658.32	2289.63
658.51	2129.89
658.70	2277.34
658.89	2267.10
659.08	2199.52
659.26	2414.56
659.45	2140.13
659.64	2301.92
659.83	2269.15
660.01	2641.88
660.20	2281.44
660.39	2486.23
660.58	2054.11
660.76	2240.48
660.95	2127.84
661.14	2211.81
661.33	2176.99
661.51	2195.42
661.70	2174.94
661.89	2351.07
662.08	2250.72
662.26	2111.46
662.45	2248.67
662.64	2445.27
662.83	2385.88
663.01	2111.46
663.20	2234.33
663.39	2383.84
663.58	2232.29
663.76	2209.76
663.95	2334.68
664.14	2195.42
664.32	2160.61
664.51	2125.79
664.70	2097.12
664.89	2260.96
665.07	2166.75
665.26	2330.59
665.45	2127.84
665.64	2340.83
665.82	2277.34
666.01	2361.31
666.20	2097.12
666.38	2508.76
666.57	2508.76
666.76	3346.38
666.95	7974.79
667.13	16310.02
667.32	21356.22
667.51	24538.76
667.69	26396.27
667.88	24168.08
668.07	17260.28
668.25	13975.34
668.44	11485.01
668.63	9813.87
668.81	8771.45
669.00	7630.73
669.19	6801.30
669.38	5963.68
669.56	5152.69
669.75	4366.27
669.94	3573.71
670.12	3155.92
670.31	2772.95
670.50	2596.82
670.68	2478.04
670.87	2392.03
671.06	2228.19
671.24	2363.36
671.43	2385.88
671.62	2312.16
671.80	2220.00
671.99	2346.97
672.18	2334.68
672.36	2371.55
672.55	2342.88
672.74	2295.77
672.92	2230.24
673.11	2308.06
673.29	2138.08
673.48	2312.16
673.67	2248.67
673.85	2396.12
674.04	2226.14
674.23	2277.34
674.41	2461.66
674.60	2150.37
674.79	2160.61
674.97	2146.27
675.16	2349.02
675.34	2402.27
675.53	2211.81
675.72	2295.77
675.90	2562.01
676.09	2179.04
676.28	2326.49
676.46	2133.98
676.65	2306.01
676.83	2176.99
677.02	2275.29
677.21	2279.39
677.39	2316.25
677.58	2195.42
677.77	2258.91
677.95	2154.46
678.14	2209.76
678.32	2279.39
678.51	2179.04
678.70	2406.36
678.88	2191.33
679.07	2308.06
679.25	2263.01
679.44	2203.61
679.63	2111.46
679.81	2326.49
680.00	2324.44
680.18	2316.25
680.37	2363.36
680.55	2303.96
680.74	2164.70
680.93	2093.02
681.11	2260.96
681.30	2252.77
681.48	2277.34
681.67	2197.47
681.85	2193.37
682.04	2244.57
682.23	2371.55
682.41	2303.96
682.60	2146.27
682.78	2252.77
682.97	2187.23
683.15	2189.28
683.34	2293.72
683.53	2375.64
683.71	2072.54
683.90	2316.25
684.08	2375.64
684.27	2207.71
684.45	2258.91
684.64	2379.74
684.82	2279.39
685.01	2310.11
685.19	2326.49
685.38	2492.38
685.57	2254.81
685.75	2117.60
685.94	2252.77
686.12	2197.47
686.31	2211.81
686.49	2392.03
686.68	2074.59
686.86	2236.38
687.05	2226.14
687.23	2439.13
687.42	2222.05
687.60	2129.89
687.79	2318.30
687.97	2392.03
688.16	2334.68
688.34	2334.68
688.53	2035.68
688.71	2330.59
688.90	2373.60
689.08	2220.00
689.27	2047.97
689.45	2359.26
689.64	2371.55
689.82	2275.29
690.01	2316.25
690.19	2312.16
690.38	2346.97
690.56	2389.98
690.75	2224.09
690.93	2250.72
691.12	2263.01
691.30	2244.57
691.49	2260.96
691.67	2228.19
691.86	2435.03
692.04	2242.53
692.23	2242.53
692.41	2220.00
692.60	2478.04
692.78	2375.64
692.97	2260.96
693.15	2375.64
693.34	2424.80
693.52	2389.98
693.71	2254.81
693.89	2148.32
694.08	2109.41
694.26	2361.31
694.44	2312.16
694.63	2254.81
694.81	2183.13
695.00	2191.33
695.18	2322.40
695.37	2492.38
695.55	2332.64
695.74	2236.38
695.92	2201.57
696.10	2432.99
696.29	2121.70
696.47	2201.57
696.66	2226.14
696.84	2199.52
697.03	2220.00
697.21	2457.56
697.40	3332.05
697.58	2306.01
697.76	2285.53
697.95	2174.94
698.13	2181.09
698.32	2238.43
698.50	2275.29
698.68	2277.34
698.87	2283.49
699.05	2346.97
699.24	2269.15
699.42	2168.80
699.61	2236.38
699.79	2308.06
699.97	2248.67
700.16	2138.08
700.34	2138.08
700.53	2273.25
700.71	2461.66
700.89	2334.68
701.08	2293.72
701.26	2244.57
701.45	2742.23
701.63	2197.47
701.81	2199.52
702.00	2183.13
702.18	2295.77
702.37	2242.53
702.55	2506.71
702.73	2441.18
702.92	2424.80
703.10	2502.62
703.28	2465.75
703.47	2234.33
703.65	2398.17
703.84	2445.27
704.02	2324.44
704.20	2459.61
704.39	2226.14
704.57	2306.01
704.75	2379.74
704.94	2383.84
705.12	2332.64
705.30	2531.29
705.49	4505.53
705.67	10362.72
705.86	18337.51
706.04	21884.59
706.22	24811.14
706.41	26029.68
706.59	21739.19
706.77	15687.44
706.96	12881.72
707.14	11507.54
707.32	9994.09
707.51	8761.21
707.69	7356.30
707.87	6016.93
708.06	4782.01
708.24	4063.17
708.42	3211.22
708.61	3055.57
708.79	2492.38
708.97	2406.36
709.16	2424.80
709.34	2371.55
709.52	2258.91
709.71	2308.06
709.89	2299.87
710.07	2176.99
710.26	2154.46
710.44	2252.77
710.62	2377.69
710.80	2256.86
710.99	2338.78
711.17	2301.92
711.35	2242.53
711.54	2217.95
711.72	2387.93
711.90	2244.57
712.09	2281.44
712.27	2199.52
712.45	2310.11
712.63	2195.42
712.82	2400.22
713.00	2250.72
713.18	2320.35
713.37	2283.49
713.55	2389.98
713.73	2359.26
713.91	2285.53
714.10	2263.01
714.28	2160.61
714.46	2254.81
714.65	2228.19
714.83	2248.67
715.01	2258.91
715.19	2318.30
715.38	2228.19
715.56	2297.82
715.74	2199.52
715.92	2136.03
716.11	2428.89
716.29	2078.69
716.47	2240.48
716.65	2256.86
716.84	2170.85
717.02	2365.40
717.20	2105.31
717.38	2232.29
717.57	2279.39
717.75	2267.10
717.93	2152.42
718.11	2322.40
718.30	2150.37
718.48	2320.35
718.66	2318.30
718.84	2355.16
719.03	2306.01
719.21	2123.74
719.39	2381.79
719.57	2383.84
719.75	2410.46
719.94	2205.66
720.12	2203.61
720.30	2285.53
720.48	2334.68
720.67	2224.09
720.85	2154.46
721.03	2199.52
721.21	2172.89
721.39	2314.20
721.58	2357.21
721.76	2306.01
721.94	2285.53
722.12	2250.72
722.30	2426.84
722.49	2191.33
722.67	2324.44
722.85	2267.10
723.03	2187.23
723.21	2156.51
723.40	2244.57
723.58	2383.84
723.76	2375.64
723.94	2379.74
724.12	2285.53
724.30	2414.56
724.49	2381.79
724.67	2185.18
724.85	2400.22
725.03	2162.66
725.21	2314.20
725.40	2314.20
725.58	2185.18
725.76	2351.07
725.94	2301.92
726.12	2199.52
726.30	2244.57
726.49	2191.33
726.67	2224.09
726.85	2269.15
727.03	2590.68
727.21	3651.53
727.39	4986.80
727.57	5853.09
727.76	6487.96
727.94	6786.97
728.12	6315.94
728.30	5218.22
728.48	4542.39
728.66	4165.57
728.84	3768.26
729.03	3309.52
729.21	2996.18
729.39	2772.95
729.57	2467.80
729.75	2439.13
729.93	2379.74
730.11	2199.52
730.30	2209.76
730.48	2207.71
730.66	2453.47
730.84	2387.93
731.02	2295.77
731.20	2179.04
731.38	2244.57
731.56	2195.42
731.74	2183.13
731.93	2232.29
732.11	2179.04
732.29	2236.38
732.47	2404.32
732.65	2271.20
732.83	2363.36
733.01	2295.77
733.19	2166.75
733.37	2312.16
733.56	2277.34
733.74	2166.75
733.92	2357.21
734.10	2185.18
734.28	2267.10
734.46	2183.13
734.64	2252.77
734.82	2224.09
735.00	2215.90
735.18	2220.00
735.36	2279.39
735.54	2258.91
735.73	2299.87
735.91	2242.53
736.09	2396.12
736.27	2164.70
736.45	2287.58
736.63	2074.59
736.81	2191.33
736.99	2314.20
737.17	2392.03
737.35	2238.43
737.53	2281.44
737.71	2154.46
737.89	2488.28
738.07	2176.99
738.25	2187.23
738.43	2095.07
738.61	2258.91
738.80	2088.93
738.98	2209.76
739.16	2166.75
739.34	2203.61
739.52	2381.79
739.70	2260.96
739.88	2285.53
740.06	2392.03
740.24	2029.54
740.42	2361.31
740.60	2082.78
740.78	2203.61
740.96	2084.83
741.14	2185.18
741.32	2275.29
741.50	2076.64
741.68	2484.19
741.86	2338.78
742.04	2119.65
742.22	2185.18
742.40	2314.20
742.58	2334.68
742.76	2236.38
742.94	2258.91
743.12	2058.21
743.30	2269.15
743.48	2389.98
743.66	2088.93
743.84	2273.25
744.02	2203.61
744.20	2213.85
744.38	2152.42
744.56	2174.94
744.74	2387.93
744.92	2306.01
745.10	2387.93
745.28	2340.83
745.46	2437.08
745.64	2275.29
745.82	2381.79
746.00	2215.90
746.18	2283.49
746.36	2189.28
746.54	2185.18
746.72	2289.63
746.90	2185.18
747.08	2400.22
747.26	2209.76
747.44	2244.57
747.62	2392.03
747.80	2242.53
747.98	2334.68
748.15	2308.06
748.33	2512.86
748.51	2248.67
748.69	2269.15
748.87	2136.03
749.05	2250.72
749.23	2207.71
749.41	2342.88
749.59	2197.47
749.77	2373.60
749.95	2213.85
750.13	2166.75
750.31	2240.48
750.49	2244.57
750.67	2338.78
750.85	2408.41
751.03	2316.25
751.20	2471.90
751.38	2340.83
751.56	2215.90
751.74	2297.82
751.92	2199.52
752.10	2170.85
752.28	2353.12
752.46	2162.66
752.64	2260.96
752.82	2271.20
753.00	2342.88
753.18	2138.08
753.35	2199.52
753.53	2238.43
753.71	2226.14
753.89	2318.30
754.07	2267.10
754.25	2306.01
754.43	2269.15
754.61	2150.37
754.79	2299.87
754.97	2234.33
755.14	2308.06
755.32	2154.46
755.50	2260.96
755.68	2334.68
755.86	2203.61
756.04	2193.37
756.22	2078.69
756.40	2312.16
756.57	2490.33
756.75	2207.71
756.93	2351.07
757.11	2400.22
757.29	2097.12
757.47	2107.36
757.65	2197.47
757.82	2097.12
758.00	2166.75
758.18	2193.37
758.36	2154.46
758.54	2394.08
758.72	2070.50
758.90	2301.92
759.07	2295.77
759.25	2142.18
759.43	2314.20
759.61	2097.12
759.79	3194.83
759.97	2324.44
760.15	2199.52
760.32	2269.15
760.50	2318.30
760.68	2445.27
760.86	2080.74
761.04	2359.26
761.22	2287.58
761.39	2299.87
761.57	2334.68
761.75	2193.37
761.93	2299.87
762.11	2297.82
762.28	2232.29
762.46	2226.14
762.64	2342.88
762.82	2195.42
763.00	2244.57
763.18	2303.96
763.35	2152.42
763.53	2279.39
763.71	2279.39
763.89	2199.52
764.07	2310.11
764.24	2236.38
764.42	2383.84
764.60	2213.85
764.78	2303.96
764.96	2277.34
765.13	2301.92
765.31	2150.37
765.49	2318.30
765.67	2101.22
765.84	2187.23
766.02	2215.90
766.20	2070.50
766.38	2250.72
766.56	2301.92
766.73	2400.22
766.91	2232.29
767.09	2265.05
767.27	2301.92
767.44	2193.37
767.62	2297.82
767.80	2277.34
767.98	2228.19
768.15	2156.51
768.33	2373.60
768.51	2338.78
768.69	2291.68
768.87	2273.25
769.04	2265.05
769.22	2482.14
769.40	2383.84
769.58	2488.28
769.75	2207.71
769.93	2365.40
770.11	2263.01
770.28	2252.77
770.46	2365.40
770.64	2238.43
770.82	2187.23
770.99	2271.20
771.17	2332.64
771.35	2281.44
771.53	2254.81
771.70	2191.33
771.88	2287.58
772.06	2203.61
772.23	2179.04
772.41	2263.01
772.59	2222.05
772.77	2109.41
772.94	2238.43
773.12	2293.72
773.30	2201.57
773.47	2248.67
773.65	2088.93
773.83	2355.16
774.01	2258.91
774.18	2064.35
774.36	2195.42
774.54	2109.41
774.71	2226.14
774.89	2133.98
775.07	2148.32
775.24	2138.08
775.42	2207.71
775.60	2410.46
775.78	2174.94
775.95	2156.51
776.13	2150.37
776.31	2035.68
776.48	2273.25
776.66	2320.35
776.84	2224.09
777.01	2258.91
777.19	2148.32
777.37	2152.42
777.54	2260.96
777.72	2441.18
777.90	2324.44
778.07	2232.29
778.25	2559.96
778.43	2285.53
778.60	2228.19
778.78	2316.25
778.96	2306.01
779.13	2060.26
779.31	2324.44
779.49	2281.44
779.66	2299.87
779.84	2226.14
780.01	2199.52
780.19	2103.26
780.37	2291.68
780.54	2277.34
780.72	2144.22
780.90	2224.09
781.07	2125.79
781.25	2107.36
781.43	2281.44
781.60	2179.04
781.78	2430.94
781.95	2195.42
782.13	2154.46
782.31	2209.76
782.48	1996.77
782.66	2201.57
782.83	2439.13
783.01	2273.25
783.19	2281.44
783.36	2260.96
783.54	2162.66
783.72	2326.49
783.89	2228.19
784.07	2228.19
784.24	2308.06
784.42	2381.79
784.60	2252.77
784.77	2232.29
784.95	2121.70
785.12	2248.67
785.30	2301.92
785.47	2140.13
785.65	2052.06
785.83	2217.95
786.00	2217.95
786.18	2303.96
786.35	2154.46
786.53	2162.66
786.71	2408.41
786.88	2269.15
787.06	2217.95
787.23	2232.29
787.41	2174.94
787.58	2224.09
787.76	2185.18
787.94	2250.72
788.11	2228.19
788.29	2166.75
788.46	2199.52
788.64	2088.93
788.81	2240.48
788.99	2162.66
789.16	2193.37
789.34	2277.34
789.52	2129.89
789.69	2166.75
789.87	2150.37
790.04	2197.47
790.22	2277.34
790.39	2435.03
790.57	2041.82
790.74	2222.05
790.92	2326.49
791.09	2187.23
791.27	2246.62
791.44	2314.20
791.62	2230.24
791.79	2254.81
791.97	2265.05
792.15	2496.47
792.32	2277.34
792.50	2301.92
792.67	2357.21
792.85	2338.78
793.02	2207.71
793.20	2222.05
793.37	2138.08
793.55	2158.56
793.72	2162.66
793.90	2289.63
794.07	2222.05
794.25	2174.94
794.42	2318.30
794.60	2193.37
794.77	2316.25
794.95	2316.25
795.12	2406.36
795.30	2232.29
795.47	2070.50
795.65	2535.39
795.82	2203.61
796.00	2125.79
796.17	2226.14
796.34	2211.81
796.52	2254.81
796.69	2396.12
796.87	2330.59
797.04	2299.87
797.22	2375.64
797.39	2326.49
797.57	2258.91
797.74	2254.81
797.92	2258.91
798.09	2168.80
798.27	2338.78
798.44	2220.00
798.62	2076.64
798.79	2254.81
798.96	2234.33
799.14	2248.67
799.31	2555.86
799.49	2209.76
799.66	2121.70
799.84	2265.05
800.01	2115.55
800.19	2314.20
800.36	2138.08
800.53	2310.11
800.71	2289.63
800.88	2410.46
801.06	2199.52
801.23	2174.94
801.41	2199.52
801.58	2224.09
801.75	2152.42
801.93	2269.15
802.10	2351.07
802.28	2224.09
802.45	2228.19
802.63	2338.78
802.80	2383.84
802.97	2183.13
803.15	2299.87
803.32	2191.33
803.50	2109.41
803.67	2234.33
803.84	2119.65
804.02	2267.10
804.19	2267.10
804.37	2080.74
804.54	2152.42
804.71	2199.52
804.89	2258.91
805.06	2179.04
805.24	2131.94
805.41	2113.50
805.58	2160.61
805.76	2529.24
805.93	2209.76
806.10	2428.89
806.28	2330.59
806.45	2301.92
806.63	2260.96
806.80	2277.34
806.97	2295.77
807.15	2265.05
807.32	2275.29
807.49	2183.13
807.67	2158.56
807.84	2226.14
808.01	2174.94
808.19	2381.79
808.36	2463.71
808.54	2236.38
808.71	2189.28
808.88	2179.04
809.06	2377.69
809.23	2416.60
809.40	2217.95
809.58	2265.05
809.75	2211.81
809.92	2144.22
810.10	2439.13
810.27	2250.72
810.44	2297.82
810.62	2285.53
810.79	2224.09
810.96	2152.42
811.14	2146.27
811.31	2224.09
811.48	2314.20
811.66	2195.42
811.83	2389.98
812.00	2326.49
812.18	2312.16
812.35	2496.47
812.52	2160.61
812.69	2213.85
812.87	2187.23
813.04	2156.51
813.21	2226.14
813.39	2191.33
813.56	2146.27
813.73	2392.03
813.91	2129.89
814.08	2211.81
814.25	2211.81
814.42	2144.22
814.60	2242.53
814.77	2346.97
814.94	2181.09
815.12	2248.67
815.29	2318.30
815.46	2156.51
815.63	2260.96
815.81	2211.81
815.98	2228.19
816.15	2250.72
816.33	2275.29
816.50	2248.67
816.67	2209.76
816.84	2267.10
817.02	2170.85
817.19	2176.99
817.36	2308.06
817.53	2246.62
817.71	2150.37
817.88	2320.35
818.05	2211.81
818.22	2195.42
818.40	2377.69
818.57	2146.27
818.74	2260.96
818.91	2234.33
819.09	2279.39
819.26	2297.82
819.43	2170.85
819.60	2254.81
819.78	2320.35
819.95	2283.49
820.12	2060.26
820.29	2408.41
820.47	2291.68
820.64	2199.52
820.81	2054.11
820.98	2156.51
821.15	2246.62
821.33	2312.16
821.50	2050.02
821.67	2320.35
821.84	2222.05
822.02	2289.63
822.19	2359.26
822.36	2193.37
822.53	2209.76
822.70	2203.61
822.88	2310.11
823.05	2412.51
823.22	2201.57
823.39	2326.49
823.56	2250.72
823.74	2523.10
823.91	2160.61
824.08	2140.13
824.25	2205.66
824.42	2318.30
824.60	2078.69
824.77	2248.67
824.94	2172.89
825.11	2285.53
825.28	2101.22
825.45	2316.25
825.63	2316.25
825.80	2142.18
825.97	2312.16
826.14	2299.87
826.31	2105.31
826.48	2275.29
826.66	2185.18
826.83	2179.04
827.00	2275.29
827.17	2062.30
827.34	2174.94
827.51	2277.34
827.69	2236.38
827.86	2054.11
828.03	2260.96
828.20	2226.14
828.37	2201.57
828.54	2277.34
828.71	2215.90
828.89	2367.45
829.06	2201.57
829.23	2375.64
829.40	2164.70
829.57	2160.61
829.74	2379.74
829.91	2193.37
830.09	2232.29
830.26	2285.53
830.43	2367.45
830.60	2193.37
830.77	2351.07
830.94	2308.06
831.11	2324.44
831.28	2238.43
831.46	2412.51
831.63	2267.10
831.80	2342.88
831.97	2224.09
832.14	2228.19
832.31	2340.83
832.48	2248.67
832.65	2414.56
832.82	2220.00
832.99	2275.29
833.17	2162.66
833.34	2420.70
833.51	2326.49
833.68	2060.26
833.85	2334.68
834.02	2111.46
834.19	2113.50
834.36	2078.69
834.53	2308.06
834.70	2291.68
834.87	2269.15
835.04	2183.13
835.22	2185.18
835.39	2310.11
835.56	2111.46
835.73	2209.76
835.90	2422.75
836.07	2121.70
836.24	2252.77
836.41	2095.07
836.58	2179.04
836.75	2297.82
836.92	2185.18
837.09	2162.66
837.26	2281.44
837.43	2353.12
837.60	2220.00
837.77	2207.71
837.94	2351.07
838.12	2291.68
838.29	2203.61
838.46	2148.32
838.63	2082.78
838.80	2367.45
838.97	2281.44
839.14	2166.75
839.31	2238.43
839.48	2365.40
839.65	2152.42
839.82	2254.81
839.99	2242.53
840.16	2246.62
840.33	2160.61
840.50	2215.90
840.67	2125.79
840.84	1982.43
841.01	2127.84
841.18	2199.52
841.35	2205.66
841.52	2346.97
841.69	2322.40
841.86	2185.18
842.03	2265.05
842.20	2334.68
842.37	2222.05
842.54	2215.90
842.71	2310.11
842.88	2193.37
843.05	2318.30
843.22	2150.37
843.39	2365.40
843.56	2170.85
843.73	2250.72
843.90	2252.77
844.07	2299.87
844.24	2340.83
844.41	2275.29
844.58	2236.38
844.75	2297.82
844.92	2281.44
845.09	2205.66
845.26	2136.03
845.43	2203.61
845.60	2191.33
845.77	2301.92
845.94	2220.00
846.10	2297.82
846.27	2068.45
846.44	2105.31
846.61	2105.31
846.78	2281.44
846.95	2342.88
847.12	2273.25
847.29	2185.18
847.46	2168.80
847.63	2322.40
847.80	2129.89
847.97	2152.42
848.14	2506.71
848.31	2209.76
848.48	2125.79
848.65	2275.29
848.82	2138.08
848.98	2533.34
849.15	2240.48
849.32	2252.77
849.49	2324.44
849.66	2273.25
849.83	2168.80
850.00	2111.46
850.17	2228.19
850.34	2230.24
850.51	2164.70
850.68	2203.61
850.85	2510.81
851.01	2252.77
851.18	2207.71
851.35	2195.42
851.52	2195.42
851.69	2357.21
851.86	2123.74
852.03	2115.55
852.20	2394.08
852.37	2252.77
852.53	2045.92
852.70	2170.85
852.87	2285.53
853.04	2299.87
853.21	2230.24
853.38	2322.40
853.55	2338.78
853.72	2271.20
853.89	2181.09
854.05	2125.79
854.22	2162.66
854.39	2199.52
854.56	2207.71
854.73	2260.96
854.90	2232.29
855.07	2256.86
855.23	2150.37
855.40	2162.66
855.57	2254.81
855.74	2029.54
855.91	2340.83
856.08	2113.50
856.25	2095.07
856.41	2162.66
856.58	2232.29
856.75	2199.52
856.92	2095.07
857.09	2322.40
857.26	2136.03
857.42	2203.61
857.59	2363.36
857.76	2244.57
857.93	2226.14
858.10	2285.53
858.27	2207.71
858.43	2248.67
858.60	2172.89
858.77	2037.73
858.94	2158.56
859.11	2320.35
859.27	2136.03
859.44	2242.53
859.61	2455.51
859.78	2318.30
859.95	2187.23
860.12	2142.18
860.28	2484.19
860.45	2416.60
860.62	2183.13
860.79	2260.96
860.95	2244.57
861.12	2260.96
861.29	2162.66
861.46	2121.70
861.63	2209.76
861.79	2279.39
861.96	2074.59
862.13	2086.88
862.30	2379.74
862.47	2195.42
862.63	2025.44
862.80	2326.49
862.97	2340.83
863.14	2271.20
863.30	2240.48
863.47	2162.66
863.64	2410.46
863.81	2234.33
863.97	2217.95
864.14	2220.00
864.31	2242.53
864.48	2252.77
864.65	2185.18
864.81	2281.44
864.98	2279.39
865.15	2320.35
865.32	2232.29
865.48	2291.68
865.65	2435.03
865.82	2217.95
865.98	2226.14
866.15	2250.72
866.32	2256.86
866.49	2195.42
866.65	2281.44
866.82	2152.42
866.99	2373.60
867.16	2258.91
867.32	2146.27
867.49	2129.89
867.66	2228.19
867.83	2179.04
867.99	2095.07
868.16	2160.61
868.33	2119.65
868.49	2289.63
868.66	2195.42
868.83	2293.72
868.99	2211.81
869.16	2271.20
869.33	2322.40
869.50	2275.29
869.66	2267.10
869.83	2185.18
870.00	2062.30
870.16	2297.82
870.33	2236.38
870.50	2267.10
870.66	2222.05
870.83	2314.20
871.00	2203.61
871.17	2260.96
871.33	2342.88
871.50	2160.61
871.67	2215.90
871.83	2232.29
872.00	2359.26
872.17	2183.13
872.33	2473.95
872.50	2342.88
872.67	2146.27
872.83	2146.27
873.00	2344.92
873.17	2228.19
873.33	2150.37
873.50	2260.96
873.67	2140.13
873.83	2121.70
874.00	2222.05
874.16	2312.16
874.33	2289.63
874.50	2105.31
874.66	2232.29
874.83	2105.31
875.00	2328.54
875.16	2342.88
875.33	2318.30
875.50	2056.16
875.66	2170.85
875.83	2291.68
875.99	2346.97
876.16	2168.80
876.33	2113.50
876.49	2183.13
876.66	2256.86
876.83	2187.23
876.99	2142.18
877.16	2228.19
877.32	2170.85
877.49	2142.18
877.66	2291.68
877.82	2367.45
877.99	2250.72
878.15	2236.38
878.32	2250.72
878.49	2301.92
878.65	2189.28
878.82	2299.87
878.98	2265.05
879.15	2275.29
879.32	2271.20
879.48	2269.15
879.65	2232.29
879.81	2224.09
879.98	2191.33
880.15	2242.53
880.31	2306.01
880.48	2179.04
880.64	2299.87
880.81	2269.15
880.97	2449.37
881.14	2334.68
881.31	2123.74
881.47	2365.40
881.64	2228.19
881.80	2062.30
881.97	2238.43
882.13	2301.92
882.30	2078.69
882.47	2115.55
882.63	2142.18
882.80	2170.85
882.96	2125.79
883.13	2303.96
883.29	2193.37
883.46	2156.51
883.62	2426.84
883.79	2260.96
883.95	2301.92
884.12	2195.42
884.29	2318.30
884.45	2263.01
884.62	2265.05
884.78	2121.70
884.95	2451.42
885.11	2187.23
885.28	2285.53
885.44	2269.15
885.61	2310.11
885.77	2367.45
885.94	2295.77
886.10	2158.56
886.27	2273.25
886.43	2359.26
886.60	2316.25
886.76	2269.15
886.93	2201.57
887.09	2191.33
887.26	2121.70
887.42	2199.52
887.59	2320.35
887.75	2506.71
887.92	2256.86
888.08	2279.39
888.25	2471.90
888.41	2248.67
888.58	2224.09
888.74	2222.05
888.91	2148.32
>>>>>End Processed Spectral Data<<<<<
