SpectraSuite Data File
++++++++++++++++++++++++++++++++++++
Date: Thu May 05 13:21:07 CEST 2016
User: root
Dark Spectrum Present: No
Reference Spectrum Present: No
Number of Sampled Component Spectra: 1
Spectrometers: USB4C02835
Integration Time (usec): 100000 (USB4C02835)
Spectra Averaged: 1 (USB4C02835)
Boxcar Smoothing: 0 (USB4C02835)
Correct for Electrical Dark: No (USB4C02835)
Strobe/Lamp Enabled: No (USB4C02835)
Correct for Detector Non-linearity: No (USB4C02835)
Correct for Stray Light: No (USB4C02835)
Number of Pixels in Processed Spectrum: 3648
>>>>>Begin Processed Spectral Data<<<<<
177.47	1777.64
177.69	1777.64
177.91	1777.64
178.13	1800.16
178.36	1818.60
178.58	2152.42
178.80	2246.62
179.02	2072.54
179.24	2244.57
179.46	2152.42
179.68	2185.18
179.90	2244.57
180.13	2201.57
180.35	2115.55
180.57	2215.90
180.79	2353.12
181.01	2246.62
181.23	2211.81
181.45	2281.44
181.67	2310.11
181.90	2365.40
182.12	2140.13
182.34	2033.63
182.56	2324.44
182.78	2215.90
183.00	2146.27
183.22	2174.94
183.44	2105.31
183.66	2572.25
183.89	2271.20
184.11	2191.33
184.33	2334.68
184.55	2381.79
184.77	2156.51
184.99	2144.22
185.21	2133.98
185.43	2521.05
185.65	2127.84
185.87	2131.94
186.10	2453.47
186.32	2500.57
186.54	2234.33
186.76	2265.05
186.98	2351.07
187.20	2301.92
187.42	2105.31
187.64	2166.75
187.86	2267.10
188.08	2342.88
188.30	2220.00
188.52	2123.74
188.75	2326.49
188.97	2398.17
189.19	2166.75
189.41	2205.66
189.63	2279.39
189.85	2267.10
190.07	2058.21
190.29	2136.03
190.51	2263.01
190.73	2138.08
190.95	2346.97
191.17	2228.19
191.39	2152.42
191.61	2265.05
191.84	2197.47
192.06	2297.82
192.28	2068.45
192.50	2551.77
192.72	2224.09
192.94	2176.99
193.16	2338.78
193.38	2277.34
193.60	2119.65
193.82	2181.09
194.04	2365.40
194.26	2299.87
194.48	2195.42
194.70	2074.59
194.92	2260.96
195.14	2306.01
195.36	2201.57
195.58	2203.61
195.80	2174.94
196.02	2156.51
196.24	2211.81
196.46	2203.61
196.69	2170.85
196.91	2549.72
197.13	2168.80
197.35	2113.50
197.57	2371.55
197.79	2342.88
198.01	2207.71
198.23	2205.66
198.45	2275.29
198.67	2103.26
198.89	2168.80
199.11	2338.78
199.33	2250.72
199.55	2060.26
199.77	2201.57
199.99	2265.05
200.21	2250.72
200.43	2256.86
200.65	2068.45
200.87	2062.30
201.09	2193.37
201.31	2254.81
201.53	2181.09
201.75	2240.48
201.97	2236.38
202.19	2217.95
202.41	2275.29
202.63	2359.26
202.85	2310.11
203.07	2285.53
203.29	2133.98
203.51	2158.56
203.73	2166.75
203.95	2596.82
204.17	2236.38
204.39	2322.40
204.61	2183.13
204.83	2191.33
205.05	2287.58
205.27	2308.06
205.49	2496.47
205.71	2248.67
205.93	2072.54
206.15	2156.51
206.37	2301.92
206.59	2207.71
206.81	2056.16
207.03	2109.41
207.25	2215.90
207.47	2383.84
207.69	2170.85
207.91	2326.49
208.13	2447.32
208.34	2189.28
208.56	2160.61
208.78	2142.18
209.00	2193.37
209.22	2232.29
209.44	2232.29
209.66	2088.93
209.88	2215.90
210.10	2226.14
210.32	2152.42
210.54	2248.67
210.76	2189.28
210.98	2383.84
211.20	2056.16
211.42	2263.01
211.64	2375.64
211.86	2291.68
212.08	2224.09
212.30	2258.91
212.52	2195.42
212.74	2250.72
212.96	2213.85
213.17	2271.20
213.39	2220.00
213.61	2445.27
213.83	2154.46
214.05	2176.99
214.27	2412.51
214.49	2187.23
214.71	2162.66
214.93	2203.61
215.15	2244.57
215.37	2293.72
215.59	2103.26
215.81	2172.89
216.03	2422.75
216.24	2220.00
216.46	2224.09
216.68	2205.66
216.90	2389.98
217.12	2404.32
217.34	2176.99
217.56	2195.42
217.78	2414.56
218.00	2351.07
218.22	2244.57
218.44	2211.81
218.66	2248.67
218.87	2369.50
219.09	2150.37
219.31	2222.05
219.53	2332.64
219.75	2240.48
219.97	2203.61
220.19	2172.89
220.41	2299.87
220.63	2428.89
220.85	2217.95
221.06	2199.52
221.28	2344.92
221.50	2269.15
221.72	2211.81
221.94	2162.66
222.16	2277.34
222.38	2367.45
222.60	2260.96
222.82	2201.57
223.03	2379.74
223.25	2170.85
223.47	2187.23
223.69	2392.03
223.91	2285.53
224.13	2230.24
224.35	2220.00
224.57	2293.72
224.78	2334.68
225.00	2080.74
225.22	2207.71
225.44	2201.57
225.66	2250.72
225.88	2121.70
226.10	2244.57
226.32	2246.62
226.53	2379.74
226.75	2203.61
226.97	2211.81
227.19	2150.37
227.41	2215.90
227.63	2197.47
227.85	2095.07
228.06	2146.27
228.28	2236.38
228.50	2375.64
228.72	2115.55
228.94	2105.31
229.16	1996.77
229.37	2179.04
229.59	2129.89
229.81	2287.58
230.03	2170.85
230.25	2154.46
230.47	2097.12
230.69	2113.50
230.90	2322.40
231.12	2187.23
231.34	2220.00
231.56	2299.87
231.78	2170.85
232.00	2273.25
232.21	2273.25
232.43	2197.47
232.65	2060.26
232.87	2322.40
233.09	2088.93
233.30	2111.46
233.52	2301.92
233.74	2275.29
233.96	2119.65
234.18	2244.57
234.40	2273.25
234.61	2506.71
234.83	2105.31
235.05	2064.35
235.27	2455.51
235.49	2367.45
235.70	2107.36
235.92	2260.96
236.14	2301.92
236.36	2502.62
236.58	2097.12
236.79	2297.82
237.01	2291.68
237.23	2226.14
237.45	2326.49
237.67	2154.46
237.88	2330.59
238.10	2514.91
238.32	2021.35
238.54	2138.08
238.76	2252.77
238.97	2107.36
239.19	2166.75
239.41	2203.61
239.63	2383.84
239.85	2119.65
240.06	2160.61
240.28	2185.18
240.50	2367.45
240.72	2299.87
240.93	2166.75
241.15	2293.72
241.37	2250.72
241.59	2256.86
241.81	2160.61
242.02	2238.43
242.24	2271.20
242.46	2322.40
242.68	2072.54
242.89	2189.28
243.11	2328.54
243.33	2203.61
243.55	2187.23
243.76	2148.32
243.98	2220.00
244.20	2195.42
244.42	2152.42
244.64	2185.18
244.85	2088.93
245.07	2121.70
245.29	2299.87
245.51	2172.89
245.72	2275.29
245.94	2322.40
246.16	2183.13
246.38	2215.90
246.59	2187.23
246.81	2170.85
247.03	2179.04
247.24	2021.35
247.46	2138.08
247.68	2281.44
247.90	2072.54
248.11	2109.41
248.33	2396.12
248.55	2170.85
248.77	2179.04
248.98	2220.00
249.20	2398.17
249.42	2367.45
249.64	2260.96
249.85	2211.81
250.07	2242.53
250.29	2250.72
250.50	2269.15
250.72	2138.08
250.94	2310.11
251.16	2473.95
251.37	2275.29
251.59	2193.37
251.81	2324.44
252.02	2412.51
252.24	2144.22
252.46	2301.92
252.68	2283.49
252.89	2170.85
253.11	2076.64
253.33	2306.01
253.54	2355.16
253.76	2150.37
253.98	2174.94
254.20	2148.32
254.41	2138.08
254.63	2232.29
254.85	2121.70
255.06	2203.61
255.28	2340.83
255.50	2234.33
255.71	2213.85
255.93	2056.16
256.15	2201.57
256.36	2242.53
256.58	2136.03
256.80	2234.33
257.02	2207.71
257.23	2240.48
257.45	2201.57
257.67	2246.62
257.88	2215.90
258.10	2238.43
258.32	2252.77
258.53	2105.31
258.75	2367.45
258.97	2127.84
259.18	2152.42
259.40	2160.61
259.62	2414.56
259.83	2410.46
260.05	2203.61
260.27	2676.70
260.48	2400.22
260.70	2234.33
260.92	2148.32
261.13	2172.89
261.35	2301.92
261.57	2359.26
261.78	2086.88
262.00	2133.98
262.22	2324.44
262.43	2170.85
262.65	2252.77
262.86	2162.66
263.08	2461.66
263.30	2299.87
263.51	2072.54
263.73	2074.59
263.95	2353.12
264.16	2228.19
264.38	2084.83
264.60	2119.65
264.81	2168.80
265.03	2418.65
265.25	2400.22
265.46	2224.09
265.68	2332.64
265.89	2338.78
266.11	2146.27
266.33	2176.99
266.54	2375.64
266.76	2316.25
266.98	2232.29
267.19	2260.96
267.41	2322.40
267.62	2279.39
267.84	2039.78
268.06	2203.61
268.27	2211.81
268.49	2410.46
268.70	2207.71
268.92	2199.52
269.14	2146.27
269.35	2074.59
269.57	2240.48
269.79	2236.38
270.00	2170.85
270.22	2351.07
270.43	2127.84
270.65	2025.44
270.87	2279.39
271.08	2330.59
271.30	2203.61
271.51	2228.19
271.73	2279.39
271.95	2357.21
272.16	2211.81
272.38	2285.53
272.59	2228.19
272.81	2383.84
273.02	2133.98
273.24	2234.33
273.46	2396.12
273.67	2224.09
273.89	2097.12
274.10	2154.46
274.32	2344.92
274.54	2301.92
274.75	2211.81
274.97	2224.09
275.18	2340.83
275.40	2308.06
275.61	2172.89
275.83	2260.96
276.05	2162.66
276.26	2236.38
276.48	2220.00
276.69	2185.18
276.91	2179.04
277.12	2369.50
277.34	2320.35
277.55	2263.01
277.77	2289.63
277.99	2273.25
278.20	2121.70
278.42	2101.22
278.63	2256.86
278.85	2236.38
279.06	2144.22
279.28	2316.25
279.49	2379.74
279.71	2330.59
279.93	2250.72
280.14	2174.94
280.36	2174.94
280.57	2377.69
280.79	2324.44
281.00	2183.13
281.22	2181.09
281.43	2465.75
281.65	2056.16
281.86	2162.66
282.08	2318.30
282.29	2404.32
282.51	2172.89
282.73	2160.61
282.94	2133.98
283.16	2281.44
283.37	2344.92
283.59	2260.96
283.80	2191.33
284.02	2236.38
284.23	2248.67
284.45	2207.71
284.66	2181.09
284.88	2164.70
285.09	2273.25
285.31	2252.77
285.52	2238.43
285.74	2105.31
285.95	2301.92
286.17	2275.29
286.38	2349.02
286.60	2166.75
286.81	2187.23
287.03	2201.57
287.24	2267.10
287.46	2328.54
287.67	2285.53
287.89	2369.50
288.10	2269.15
288.32	2252.77
288.53	2301.92
288.75	2248.67
288.96	2287.58
289.18	2213.85
289.39	2226.14
289.61	2250.72
289.82	2562.01
290.04	2435.03
290.25	2105.31
290.47	2244.57
290.68	2250.72
290.90	2330.59
291.11	2095.07
291.33	2252.77
291.54	2250.72
291.76	2201.57
291.97	2238.43
292.18	2197.47
292.40	2189.28
292.61	2150.37
292.83	2428.89
293.04	2250.72
293.26	2291.68
293.47	2299.87
293.69	2117.60
293.90	2185.18
294.12	2326.49
294.33	2236.38
294.55	2303.96
294.76	2289.63
294.97	2414.56
295.19	2500.57
295.40	2250.72
295.62	2289.63
295.83	2351.07
296.05	2181.09
296.26	2408.41
296.48	2047.97
296.69	2338.78
296.90	2248.67
297.12	2289.63
297.33	2330.59
297.55	2277.34
297.76	2387.93
297.98	2269.15
298.19	2242.53
298.41	2260.96
298.62	2142.18
298.83	2293.72
299.05	2281.44
299.26	2205.66
299.48	2176.99
299.69	2299.87
299.90	2213.85
300.12	2195.42
300.33	2318.30
300.55	2230.24
300.76	2293.72
300.98	2168.80
301.19	2271.20
301.40	2256.86
301.62	2189.28
301.83	2273.25
302.05	2324.44
302.26	2213.85
302.47	2203.61
302.69	2105.31
302.90	2287.58
303.12	2037.73
303.33	2224.09
303.54	2471.90
303.76	2213.85
303.97	2242.53
304.19	2363.36
304.40	2158.56
304.61	2283.49
304.83	2316.25
305.04	2299.87
305.26	2293.72
305.47	2205.66
305.68	2256.86
305.90	2113.50
306.11	2379.74
306.33	2240.48
306.54	2148.32
306.75	2199.52
306.97	2105.31
307.18	2125.79
307.39	2234.33
307.61	2234.33
307.82	2187.23
308.04	2224.09
308.25	2166.75
308.46	2316.25
308.68	2230.24
308.89	2285.53
309.10	2336.73
309.32	2285.53
309.53	2314.20
309.74	2346.97
309.96	2220.00
310.17	2336.73
310.39	2217.95
310.60	2285.53
310.81	2226.14
311.03	2123.74
311.24	2281.44
311.45	2265.05
311.67	2344.92
311.88	2318.30
312.09	2211.81
312.31	2174.94
312.52	2226.14
312.73	2187.23
312.95	2095.07
313.16	2222.05
313.37	2369.50
313.59	2297.82
313.80	2283.49
314.01	2410.46
314.23	2181.09
314.44	2203.61
314.65	2101.22
314.87	2273.25
315.08	2166.75
315.29	2260.96
315.51	2150.37
315.72	2088.93
315.93	2357.21
316.15	2271.20
316.36	2152.42
316.57	2299.87
316.79	2332.64
317.00	2187.23
317.21	2256.86
317.43	2160.61
317.64	2252.77
317.85	2084.83
318.07	2088.93
318.28	2265.05
318.49	2381.79
318.70	2600.92
318.92	2402.27
319.13	2455.51
319.34	2463.71
319.56	2349.02
319.77	2287.58
319.98	2330.59
320.20	2473.95
320.41	2295.77
320.62	2254.81
320.83	2164.70
321.05	2449.37
321.26	2287.58
321.47	2244.57
321.69	2396.12
321.90	2088.93
322.11	2183.13
322.32	2289.63
322.54	2424.80
322.75	2217.95
322.96	2551.77
323.18	2144.22
323.39	2105.31
323.60	2156.51
323.81	2357.21
324.03	2199.52
324.24	2260.96
324.45	2281.44
324.66	2154.46
324.88	2402.27
325.09	2453.47
325.30	2191.33
325.52	2217.95
325.73	2209.76
325.94	2150.37
326.15	2103.26
326.37	2224.09
326.58	2342.88
326.79	2467.80
327.00	2119.65
327.22	2324.44
327.43	2222.05
327.64	2146.27
327.85	2265.05
328.07	2242.53
328.28	2480.09
328.49	2179.04
328.70	2185.18
328.92	2226.14
329.13	2246.62
329.34	2275.29
329.55	2432.99
329.76	2318.30
329.98	2236.38
330.19	2310.11
330.40	2265.05
330.61	2228.19
330.83	2334.68
331.04	2113.50
331.25	2232.29
331.46	2248.67
331.68	2123.74
331.89	2322.40
332.10	2242.53
332.31	2064.35
332.52	2228.19
332.74	2338.78
332.95	2095.07
333.16	2250.72
333.37	2351.07
333.58	2172.89
333.80	2252.77
334.01	2127.84
334.22	2275.29
334.43	2166.75
334.64	2215.90
334.86	2086.88
335.07	2138.08
335.28	2389.98
335.49	2136.03
335.70	2324.44
335.92	2445.27
336.13	2465.75
336.34	2299.87
336.55	2201.57
336.76	2301.92
336.98	2084.83
337.19	2283.49
337.40	2359.26
337.61	2539.48
337.82	2211.81
338.04	2351.07
338.25	2146.27
338.46	2199.52
338.67	2232.29
338.88	2211.81
339.09	2095.07
339.31	2160.61
339.52	2140.13
339.73	2193.37
339.94	2207.71
340.15	2275.29
340.36	2191.33
340.58	2293.72
340.79	2191.33
341.00	2326.49
341.21	2166.75
341.42	2316.25
341.63	2263.01
341.85	2373.60
342.06	2303.96
342.27	2164.70
342.48	2394.08
342.69	2125.79
342.90	2248.67
343.12	2283.49
343.33	2246.62
343.54	2355.16
343.75	2373.60
343.96	2220.00
344.17	2162.66
344.38	2277.34
344.60	2236.38
344.81	2168.80
345.02	2226.14
345.23	2269.15
345.44	2545.63
345.65	2349.02
345.86	2246.62
346.07	2252.77
346.29	2150.37
346.50	2306.01
346.71	2240.48
346.92	2414.56
347.13	2471.90
347.34	2166.75
347.55	2217.95
347.76	2283.49
347.98	2109.41
348.19	2199.52
348.40	2322.40
348.61	2254.81
348.82	2426.84
349.03	2301.92
349.24	2138.08
349.45	2355.16
349.66	2021.35
349.88	2263.01
350.09	2158.56
350.30	2322.40
350.51	2394.08
350.72	2244.57
350.93	2211.81
351.14	2201.57
351.35	2297.82
351.56	2246.62
351.77	2258.91
351.99	2310.11
352.20	2428.89
352.41	2310.11
352.62	2054.11
352.83	2193.37
353.04	2271.20
353.25	2189.28
353.46	2275.29
353.67	2351.07
353.88	2101.22
354.09	2129.89
354.30	2211.81
354.52	2297.82
354.73	2238.43
354.94	2152.42
355.15	2129.89
355.36	2367.45
355.57	2228.19
355.78	2248.67
355.99	2162.66
356.20	2174.94
356.41	2373.60
356.62	2260.96
356.83	2308.06
357.04	2349.02
357.25	2080.74
357.46	2187.23
357.68	2080.74
357.89	2207.71
358.10	2226.14
358.31	2224.09
358.52	2181.09
358.73	2193.37
358.94	2152.42
359.15	2203.61
359.36	2301.92
359.57	2297.82
359.78	2220.00
359.99	2244.57
360.20	2138.08
360.41	2254.81
360.62	2328.54
360.83	2306.01
361.04	2285.53
361.25	2306.01
361.46	2498.52
361.67	2291.68
361.88	2306.01
362.09	2303.96
362.30	2252.77
362.51	2164.70
362.72	2207.71
362.93	2379.74
363.14	2301.92
363.35	2260.96
363.56	2138.08
363.78	2449.37
363.99	2308.06
364.20	2230.24
364.41	2211.81
364.62	2404.32
364.83	2314.20
365.04	2179.04
365.25	2162.66
365.46	2459.61
365.67	2191.33
365.88	2232.29
366.09	2193.37
366.30	2162.66
366.51	2258.91
366.72	2131.94
366.93	2224.09
367.14	2299.87
367.35	2480.09
367.56	2203.61
367.77	2326.49
367.98	2236.38
368.18	2306.01
368.39	2238.43
368.60	2152.42
368.81	2357.21
369.02	2260.96
369.23	2154.46
369.44	2082.78
369.65	2193.37
369.86	2447.32
370.07	2295.77
370.28	2185.18
370.49	2306.01
370.70	2246.62
370.91	2179.04
371.12	2138.08
371.33	2373.60
371.54	2220.00
371.75	2344.92
371.96	2064.35
372.17	2303.96
372.38	2240.48
372.59	2293.72
372.80	2236.38
373.01	2234.33
373.22	2236.38
373.43	2226.14
373.64	2136.03
373.85	2416.60
374.06	2402.27
374.26	2306.01
374.47	2201.57
374.68	2365.40
374.89	2277.34
375.10	2293.72
375.31	2269.15
375.52	2349.02
375.73	2199.52
375.94	2176.99
376.15	2379.74
376.36	2170.85
376.57	2142.18
376.78	2209.76
376.99	2328.54
377.20	2447.32
377.40	2185.18
377.61	2437.08
377.82	2179.04
378.03	2381.79
378.24	2306.01
378.45	2244.57
378.66	2234.33
378.87	2047.97
379.08	2111.46
379.29	2246.62
379.50	2375.64
379.71	2209.76
379.91	2267.10
380.12	2136.03
380.33	2228.19
380.54	2211.81
380.75	2277.34
380.96	2213.85
381.17	2263.01
381.38	2211.81
381.59	2277.34
381.80	2308.06
382.00	2437.08
382.21	2322.40
382.42	2500.57
382.63	2502.62
382.84	2297.82
383.05	2353.12
383.26	2408.41
383.47	2254.81
383.68	2303.96
383.88	2326.49
384.09	2310.11
384.30	2371.55
384.51	2330.59
384.72	2176.99
384.93	2138.08
385.14	2263.01
385.35	2295.77
385.55	2111.46
385.76	2402.27
385.97	2185.18
386.18	2097.12
386.39	2152.42
386.60	2205.66
386.81	2234.33
387.02	2226.14
387.22	2119.65
387.43	2428.89
387.64	2326.49
387.85	2414.56
388.06	2463.71
388.27	3915.72
388.48	8335.23
388.68	11722.57
388.89	13887.28
389.10	15015.71
389.31	13877.04
389.52	10860.38
389.73	9449.33
389.93	8624.00
390.14	7935.88
390.35	7157.65
390.56	6229.92
390.77	5322.67
390.98	4143.04
391.18	3272.65
391.39	2766.81
391.60	2394.08
391.81	2410.46
392.02	2162.66
392.23	2486.23
392.43	2217.95
392.64	2400.22
392.85	2281.44
393.06	2408.41
393.27	2217.95
393.47	2162.66
393.68	2228.19
393.89	2224.09
394.10	2441.18
394.31	2164.70
394.52	2189.28
394.72	2205.66
394.93	2490.33
395.14	2115.55
395.35	2281.44
395.56	2160.61
395.76	2234.33
395.97	2267.10
396.18	2416.60
396.39	2410.46
396.60	2715.61
396.80	2533.34
397.01	2381.79
397.22	2418.65
397.43	2383.84
397.64	2277.34
397.84	2330.59
398.05	2529.24
398.26	2228.19
398.47	2326.49
398.67	2445.27
398.88	2242.53
399.09	2351.07
399.30	2199.52
399.51	2308.06
399.71	2179.04
399.92	2308.06
400.13	2310.11
400.34	2258.91
400.54	2275.29
400.75	2441.18
400.96	2275.29
401.17	2445.27
401.37	2312.16
401.58	2258.91
401.79	2252.77
402.00	2301.92
402.21	2613.21
402.41	2580.44
402.62	2588.63
402.83	2670.55
403.04	2670.55
403.24	2832.34
403.45	2463.71
403.66	2580.44
403.87	2514.91
404.07	2490.33
404.28	2498.52
404.49	2523.10
404.70	2310.11
404.90	2357.21
405.11	2271.20
405.32	2328.54
405.52	2121.70
405.73	2201.57
405.94	2168.80
406.15	2246.62
406.35	2283.49
406.56	2373.60
406.77	2260.96
406.98	2301.92
407.18	2220.00
407.39	2441.18
407.60	2236.38
407.80	2326.49
408.01	2285.53
408.22	2254.81
408.43	2205.66
408.63	2342.88
408.84	2383.84
409.05	2326.49
409.25	2164.70
409.46	2111.46
409.67	2211.81
409.88	2187.23
410.08	2248.67
410.29	2162.66
410.50	2332.64
410.70	2197.47
410.91	2193.37
411.12	2256.86
411.32	2244.57
411.53	2176.99
411.74	2338.78
411.95	2318.30
412.15	2332.64
412.36	2506.71
412.57	2293.72
412.77	2473.95
412.98	2316.25
413.19	2273.25
413.39	2295.77
413.60	2346.97
413.81	2439.13
414.01	2129.89
414.22	2256.86
414.43	2346.97
414.63	2252.77
414.84	2285.53
415.05	2213.85
415.25	2064.35
415.46	2349.02
415.67	2203.61
415.87	2224.09
416.08	2203.61
416.29	2189.28
416.49	2351.07
416.70	2179.04
416.91	2170.85
417.11	2189.28
417.32	2334.68
417.53	2301.92
417.73	2285.53
417.94	2197.47
418.15	2273.25
418.35	2283.49
418.56	2291.68
418.77	2504.67
418.97	2228.19
419.18	2215.90
419.38	2015.20
419.59	2312.16
419.80	2363.36
420.00	2185.18
420.21	2256.86
420.42	2398.17
420.62	2267.10
420.83	2191.33
421.04	2234.33
421.24	2197.47
421.45	2322.40
421.65	2371.55
421.86	2189.28
422.07	2322.40
422.27	2324.44
422.48	2244.57
422.69	2189.28
422.89	2117.60
423.10	2277.34
423.30	2086.88
423.51	2256.86
423.72	2353.12
423.92	2293.72
424.13	2131.94
424.33	2260.96
424.54	2346.97
424.75	2260.96
424.95	2408.41
425.16	2269.15
425.36	2220.00
425.57	2377.69
425.78	2273.25
425.98	2318.30
426.19	2197.47
426.39	2148.32
426.60	2244.57
426.81	2316.25
427.01	2342.88
427.22	2222.05
427.42	2064.35
427.63	2086.88
427.83	2334.68
428.04	2412.51
428.25	2312.16
428.45	2289.63
428.66	2357.21
428.86	2158.56
429.07	2242.53
429.28	2271.20
429.48	2217.95
429.69	2101.22
429.89	2246.62
430.10	2170.85
430.30	2269.15
430.51	2449.37
430.71	2195.42
430.92	2217.95
431.13	2162.66
431.33	2428.89
431.54	2205.66
431.74	2373.60
431.95	2482.14
432.15	2152.42
432.36	2217.95
432.56	2326.49
432.77	2443.23
432.98	2506.71
433.18	2207.71
433.39	2195.42
433.59	2187.23
433.80	2430.94
434.00	2387.93
434.21	2213.85
434.41	2220.00
434.62	2545.63
434.82	2187.23
435.03	2144.22
435.23	2271.20
435.44	2156.51
435.64	2193.37
435.85	2236.38
436.06	2306.01
436.26	2344.92
436.47	2185.18
436.67	2158.56
436.88	2234.33
437.08	2379.74
437.29	2430.94
437.49	2203.61
437.70	2457.56
437.90	2312.16
438.11	2398.17
438.31	2283.49
438.52	2539.48
438.72	2402.27
438.93	2555.86
439.13	2320.35
439.34	2512.86
439.54	2250.72
439.75	2355.16
439.95	2269.15
440.16	2220.00
440.36	2340.83
440.57	2215.90
440.77	2275.29
440.98	2277.34
441.18	2330.59
441.39	2230.24
441.59	2187.23
441.80	2447.32
442.00	2260.96
442.21	2369.50
442.41	2185.18
442.62	2285.53
442.82	2168.80
443.02	2293.72
443.23	2248.67
443.43	2217.95
443.64	2437.08
443.84	2148.32
444.05	2439.13
444.25	2271.20
444.46	2183.13
444.66	2310.11
444.87	2387.93
445.07	2095.07
445.28	2250.72
445.48	2389.98
445.69	2301.92
445.89	2512.86
446.09	2334.68
446.30	2541.53
446.50	2879.44
446.71	4423.61
446.91	5523.37
447.12	6449.05
447.32	6647.71
447.53	6373.28
447.73	5214.13
447.93	4515.77
448.14	4163.52
448.34	4143.04
448.55	3588.04
448.75	3536.84
448.96	3342.28
449.16	3080.14
449.36	2914.26
449.57	2588.63
449.77	2373.60
449.98	2303.96
450.18	2332.64
450.39	2369.50
450.59	2297.82
450.79	2336.73
451.00	2260.96
451.20	2324.44
451.41	2252.77
451.61	2383.84
451.81	2295.77
452.02	2285.53
452.22	2160.61
452.43	2224.09
452.63	2232.29
452.84	2220.00
453.04	2181.09
453.24	2338.78
453.45	2154.46
453.65	2306.01
453.86	2238.43
454.06	2328.54
454.26	2320.35
454.47	2162.66
454.67	2385.88
454.87	2367.45
455.08	2238.43
455.28	2406.36
455.49	2301.92
455.69	2220.00
455.89	2418.65
456.10	2299.87
456.30	2254.81
456.51	2326.49
456.71	2269.15
456.91	2308.06
457.12	2242.53
457.32	2314.20
457.52	2146.27
457.73	2320.35
457.93	2365.40
458.14	2203.61
458.34	2080.74
458.54	2191.33
458.75	2176.99
458.95	2334.68
459.15	2301.92
459.36	2381.79
459.56	2342.88
459.76	2461.66
459.97	2330.59
460.17	2260.96
460.37	2332.64
460.58	2220.00
460.78	2412.51
460.99	2215.90
461.19	2232.29
461.39	2265.05
461.60	2195.42
461.80	2316.25
462.00	2195.42
462.21	2285.53
462.41	2195.42
462.61	2166.75
462.82	2054.11
463.02	2263.01
463.22	2322.40
463.43	2414.56
463.63	2211.81
463.83	2437.08
464.04	2293.72
464.24	2205.66
464.44	2228.19
464.64	2338.78
464.85	2349.02
465.05	2355.16
465.25	2263.01
465.46	2140.13
465.66	2363.36
465.86	2379.74
466.07	2244.57
466.27	2183.13
466.47	2203.61
466.68	2152.42
466.88	2379.74
467.08	2258.91
467.29	2381.79
467.49	2248.67
467.69	2258.91
467.89	2308.06
468.10	2230.24
468.30	2301.92
468.50	2396.12
468.71	2398.17
468.91	2117.60
469.11	2449.37
469.31	2250.72
469.52	2146.27
469.72	2398.17
469.92	2430.94
470.13	2258.91
470.33	2236.38
470.53	2441.18
470.73	2662.36
470.94	3012.56
471.14	3053.52
471.34	3565.51
471.54	3438.54
471.75	3045.33
471.95	2758.61
472.15	2703.32
472.36	2777.05
472.56	2658.26
472.76	2731.99
472.96	2645.98
473.17	2510.81
473.37	2480.09
473.57	2398.17
473.77	2338.78
473.98	2265.05
474.18	2187.23
474.38	2535.39
474.58	2254.81
474.79	2185.18
474.99	2293.72
475.19	2359.26
475.39	2144.22
475.60	2301.92
475.80	2252.77
476.00	2275.29
476.20	2244.57
476.41	2263.01
476.61	2228.19
476.81	2467.80
477.01	2172.89
477.21	2383.84
477.42	2396.12
477.62	2156.51
477.82	2254.81
478.02	2203.61
478.23	2314.20
478.43	2115.55
478.63	2232.29
478.83	2346.97
479.03	2283.49
479.24	2375.64
479.44	2389.98
479.64	2107.36
479.84	2129.89
480.04	2211.81
480.25	2322.40
480.45	2193.37
480.65	2195.42
480.85	2465.75
481.06	2209.76
481.26	2242.53
481.46	2283.49
481.66	2293.72
481.86	2183.13
482.06	2346.97
482.27	2248.67
482.47	2203.61
482.67	2349.02
482.87	2277.34
483.07	2351.07
483.28	2199.52
483.48	2168.80
483.68	2215.90
483.88	2166.75
484.08	2023.39
484.29	2111.46
484.49	2258.91
484.69	2121.70
484.89	2357.21
485.09	2308.06
485.29	2318.30
485.50	2277.34
485.70	2285.53
485.90	2432.99
486.10	2314.20
486.30	2269.15
486.50	2301.92
486.71	2334.68
486.91	2375.64
487.11	2334.68
487.31	2156.51
487.51	2303.96
487.71	2183.13
487.91	2191.33
488.12	2230.24
488.32	2007.01
488.52	2197.47
488.72	2097.12
488.92	2291.68
489.12	2371.55
489.32	2439.13
489.53	2330.59
489.73	2111.46
489.93	2394.08
490.13	2185.18
490.33	2146.27
490.53	2318.30
490.73	2318.30
490.94	2158.56
491.14	2340.83
491.34	2340.83
491.54	2574.30
491.74	3219.41
491.94	3667.91
492.14	4110.27
492.34	4126.66
492.54	3938.24
492.75	3160.02
492.95	3162.06
493.15	3037.14
493.35	3020.75
493.55	2865.11
493.75	2826.20
493.95	2805.72
494.15	2455.51
494.35	2404.32
494.56	2367.45
494.76	2207.71
494.96	2318.30
495.16	2363.36
495.36	2265.05
495.56	2220.00
495.76	2254.81
495.96	2228.19
496.16	2234.33
496.36	2432.99
496.56	2269.15
496.77	2273.25
496.97	2160.61
497.17	2342.88
497.37	2211.81
497.57	2361.31
497.77	2236.38
497.97	2136.03
498.17	2281.44
498.37	2189.28
498.57	2295.77
498.77	2222.05
498.97	2318.30
499.17	2394.08
499.38	2301.92
499.58	2334.68
499.78	2432.99
499.98	2351.07
500.18	2326.49
500.38	2211.81
500.58	2504.67
500.78	2846.68
500.98	5218.22
501.18	7159.70
501.38	8834.94
501.58	9799.53
501.78	9486.19
501.98	7733.13
502.18	6422.43
502.38	5425.07
502.58	5091.25
502.78	4669.37
502.98	4493.24
503.18	4220.86
503.38	3858.37
503.59	3340.24
503.79	3207.12
503.99	3022.80
504.19	2922.45
504.39	2865.11
504.59	2881.49
504.79	2940.88
504.99	2861.01
505.19	2578.39
505.39	2480.09
505.59	2572.25
505.79	2500.57
505.99	2484.19
506.19	2332.64
506.39	2519.00
506.59	2293.72
506.79	2306.01
506.99	2381.79
507.19	2256.86
507.39	2226.14
507.59	2158.56
507.79	2252.77
507.99	2203.61
508.19	2310.11
508.39	2260.96
508.59	2242.53
508.79	2342.88
508.99	2480.09
509.19	2232.29
509.39	2371.55
509.59	2205.66
509.79	2236.38
509.99	2244.57
510.19	2389.98
510.39	2371.55
510.59	2297.82
510.79	2240.48
510.99	2191.33
511.19	2308.06
511.39	2379.74
511.59	2340.83
511.79	2443.23
511.99	2314.20
512.19	2437.08
512.38	2330.59
512.58	2207.71
512.78	2224.09
512.98	2367.45
513.18	2432.99
513.38	2062.30
513.58	2295.77
513.78	2230.24
513.98	2144.22
514.18	2179.04
514.38	2236.38
514.58	2258.91
514.78	2220.00
514.98	2154.46
515.18	2269.15
515.38	2185.18
515.58	2467.80
515.78	2207.71
515.98	2260.96
516.18	2365.40
516.38	2246.62
516.57	2220.00
516.77	2172.89
516.97	2334.68
517.17	2203.61
517.37	2072.54
517.57	2340.83
517.77	2265.05
517.97	2199.52
518.17	2271.20
518.37	2176.99
518.57	2201.57
518.77	2246.62
518.97	2179.04
519.16	2269.15
519.36	2365.40
519.56	2258.91
519.76	2334.68
519.96	2308.06
520.16	2418.65
520.36	2156.51
520.56	2392.03
520.76	2185.18
520.96	2197.47
521.16	2361.31
521.35	2365.40
521.55	2428.89
521.75	2306.01
521.95	2240.48
522.15	2226.14
522.35	2119.65
522.55	2136.03
522.75	2334.68
522.95	2240.48
523.14	2187.23
523.34	2252.77
523.54	2260.96
523.74	2306.01
523.94	2279.39
524.14	2101.22
524.34	2346.97
524.54	2426.84
524.73	2260.96
524.93	2326.49
525.13	2211.81
525.33	2170.85
525.53	2494.43
525.73	2301.92
525.93	2252.77
526.13	2203.61
526.32	2160.61
526.52	2346.97
526.72	2256.86
526.92	2238.43
527.12	2228.19
527.32	2170.85
527.52	2310.11
527.71	2240.48
527.91	2293.72
528.11	2269.15
528.31	2256.86
528.51	2195.42
528.71	2346.97
528.90	2234.33
529.10	2301.92
529.30	2381.79
529.50	2101.22
529.70	2275.29
529.90	2242.53
530.09	2275.29
530.29	2154.46
530.49	2170.85
530.69	2611.16
530.89	2381.79
531.09	2349.02
531.28	2306.01
531.48	2326.49
531.68	2293.72
531.88	2324.44
532.08	2375.64
532.28	2248.67
532.47	2346.97
532.67	2324.44
532.87	2312.16
533.07	2129.89
533.27	2301.92
533.46	2295.77
533.66	2359.26
533.86	2224.09
534.06	2275.29
534.26	2287.58
534.45	2242.53
534.65	2410.46
534.85	2260.96
535.05	2209.76
535.25	2373.60
535.44	2136.03
535.64	2428.89
535.84	2275.29
536.04	2224.09
536.24	2230.24
536.43	2248.67
536.63	2263.01
536.83	2215.90
537.03	2297.82
537.22	2199.52
537.42	2084.83
537.62	2252.77
537.82	2166.75
538.02	2428.89
538.21	2349.02
538.41	2547.67
538.61	2306.01
538.81	2267.10
539.00	2396.12
539.20	2109.41
539.40	2228.19
539.60	2250.72
539.79	2381.79
539.99	2220.00
540.19	2160.61
540.39	2234.33
540.58	2250.72
540.78	2377.69
540.98	2326.49
541.18	2406.36
541.37	2260.96
541.57	2293.72
541.77	2297.82
541.97	2187.23
542.16	2158.56
542.36	2217.95
542.56	2254.81
542.76	2363.36
542.95	2344.92
543.15	2314.20
543.35	2375.64
543.54	2195.42
543.74	2303.96
543.94	2389.98
544.14	2166.75
544.33	2258.91
544.53	2230.24
544.73	2228.19
544.93	2248.67
545.12	2234.33
545.32	2220.00
545.52	2244.57
545.71	2183.13
545.91	2220.00
546.11	2355.16
546.30	2195.42
546.50	2265.05
546.70	2310.11
546.90	2260.96
547.09	2095.07
547.29	2254.81
547.49	2371.55
547.68	2256.86
547.88	2172.89
548.08	2334.68
548.27	2779.09
548.47	2228.19
548.67	2211.81
548.87	2379.74
549.06	2265.05
549.26	2211.81
549.46	2326.49
549.65	2213.85
549.85	2269.15
550.05	2351.07
550.24	2133.98
550.44	2260.96
550.64	2205.66
550.83	2275.29
551.03	2463.71
551.23	2365.40
551.42	2269.15
551.62	2179.04
551.82	2346.97
552.01	2254.81
552.21	2338.78
552.41	2291.68
552.60	2459.61
552.80	2318.30
553.00	2179.04
553.19	2256.86
553.39	2496.47
553.59	2179.04
553.78	2318.30
553.98	2308.06
554.17	2117.60
554.37	2267.10
554.57	2277.34
554.76	2191.33
554.96	2228.19
555.16	2340.83
555.35	2260.96
555.55	2359.26
555.75	2349.02
555.94	2328.54
556.14	2119.65
556.33	2316.25
556.53	2258.91
556.73	2248.67
556.92	2320.35
557.12	2359.26
557.32	2529.24
557.51	2379.74
557.71	2318.30
557.90	2375.64
558.10	2447.32
558.30	2238.43
558.49	2256.86
558.69	2301.92
558.88	2363.36
559.08	2244.57
559.28	2269.15
559.47	2209.76
559.67	2332.64
559.86	2506.71
560.06	2281.44
560.26	2312.16
560.45	2297.82
560.65	2332.64
560.84	2418.65
561.04	2156.51
561.24	2330.59
561.43	2166.75
561.63	2498.52
561.82	2299.87
562.02	2355.16
562.22	2129.89
562.41	2150.37
562.61	2217.95
562.80	2119.65
563.00	2424.80
563.19	2334.68
563.39	2314.20
563.59	2330.59
563.78	2140.13
563.98	2054.11
564.17	2244.57
564.37	2105.31
564.56	2279.39
564.76	2164.70
564.96	2412.51
565.15	2275.29
565.35	2432.99
565.54	2310.11
565.74	2375.64
565.93	2349.02
566.13	2252.77
566.32	2287.58
566.52	2306.01
566.71	2312.16
566.91	2394.08
567.11	2363.36
567.30	2209.76
567.50	2318.30
567.69	2318.30
567.89	2222.05
568.08	2142.18
568.28	2377.69
568.47	2179.04
568.67	2320.35
568.86	2195.42
569.06	2400.22
569.25	2271.20
569.45	2162.66
569.64	2172.89
569.84	2211.81
570.04	2293.72
570.23	2160.61
570.43	2267.10
570.62	2332.64
570.82	2459.61
571.01	2193.37
571.21	2203.61
571.40	2142.18
571.60	2334.68
571.79	2326.49
571.99	2273.25
572.18	2195.42
572.38	2342.88
572.57	2224.09
572.77	2295.77
572.96	2586.58
573.16	2330.59
573.35	2242.53
573.55	2394.08
573.74	2363.36
573.94	2240.48
574.13	2236.38
574.33	2314.20
574.52	2375.64
574.71	2318.30
574.91	2322.40
575.10	2107.36
575.30	2162.66
575.49	2187.23
575.69	2217.95
575.88	2398.17
576.08	2353.12
576.27	2418.65
576.47	2269.15
576.66	2494.43
576.86	2408.41
577.05	2392.03
577.25	2334.68
577.44	2475.99
577.64	2285.53
577.83	2410.46
578.02	2267.10
578.22	2318.30
578.41	2408.41
578.61	2252.77
578.80	2140.13
579.00	2256.86
579.19	2318.30
579.39	2351.07
579.58	2398.17
579.77	2310.11
579.97	2416.60
580.16	2346.97
580.36	2373.60
580.55	2420.70
580.75	2336.73
580.94	2326.49
581.13	2408.41
581.33	2453.47
581.52	2242.53
581.72	2519.00
581.91	2510.81
582.11	2265.05
582.30	2373.60
582.49	2353.12
582.69	2369.50
582.88	2342.88
583.08	2336.73
583.27	2416.60
583.47	2334.68
583.66	2289.63
583.85	2220.00
584.05	2265.05
584.24	2328.54
584.44	2316.25
584.63	2494.43
584.82	2455.51
585.02	2490.33
585.21	2392.03
585.41	2539.48
585.60	2418.65
585.79	2541.53
585.99	2555.86
586.18	2478.04
586.37	2985.94
586.57	4763.58
586.76	13793.07
586.96	33060.36
587.15	46425.40
587.34	56329.38
587.54	61185.11
587.73	56034.47
587.93	39415.21
588.12	30115.38
588.31	23946.90
588.51	21096.13
588.70	19191.52
588.89	17417.97
589.09	15220.50
589.28	13016.89
589.47	10540.90
589.67	8206.21
589.86	6274.98
590.06	4730.81
590.25	3798.98
590.44	3211.22
590.64	2867.16
590.83	2652.12
591.02	2516.95
591.22	2357.21
591.41	2418.65
591.60	2258.91
591.80	2557.91
591.99	2197.47
592.18	2326.49
592.38	2396.12
592.57	2232.29
592.76	2346.97
592.96	2267.10
593.15	2285.53
593.34	2408.41
593.54	2291.68
593.73	2289.63
593.92	2408.41
594.12	2363.36
594.31	2273.25
594.50	2461.66
594.70	2418.65
594.89	2535.39
595.08	2187.23
595.28	2326.49
595.47	2566.10
595.66	2383.84
595.86	2220.00
596.05	2297.82
596.24	2220.00
596.43	2469.85
596.63	2414.56
596.82	2211.81
597.01	2398.17
597.21	2568.15
597.40	2330.59
597.59	2295.77
597.79	2330.59
597.98	2351.07
598.17	2363.36
598.36	2256.86
598.56	2279.39
598.75	2199.52
598.94	2236.38
599.14	2338.78
599.33	2269.15
599.52	2373.60
599.71	2275.29
599.91	2353.12
600.10	2287.58
600.29	2314.20
600.48	2359.26
600.68	2355.16
600.87	2338.78
601.06	2226.14
601.26	2287.58
601.45	2324.44
601.64	2267.10
601.83	2355.16
602.03	2213.85
602.22	2146.27
602.41	2406.36
602.60	2547.67
602.80	2254.81
602.99	2277.34
603.18	2156.51
603.37	2326.49
603.57	2312.16
603.76	2418.65
603.95	2432.99
604.14	2254.81
604.34	2260.96
604.53	2209.76
604.72	2297.82
604.91	2334.68
605.10	2363.36
605.30	2228.19
605.49	2469.85
605.68	2396.12
605.87	2406.36
606.07	2252.77
606.26	2271.20
606.45	2277.34
606.64	2375.64
606.84	2176.99
607.03	2351.07
607.22	2441.18
607.41	2283.49
607.60	2242.53
607.80	2410.46
607.99	2310.11
608.18	2285.53
608.37	2211.81
608.56	2174.94
608.76	2439.13
608.95	2537.43
609.14	2355.16
609.33	2461.66
609.52	2447.32
609.72	2301.92
609.91	2355.16
610.10	2424.80
610.29	2414.56
610.48	2439.13
610.68	2314.20
610.87	2197.47
611.06	2353.12
611.25	2258.91
611.44	2355.16
611.63	2275.29
611.83	2392.03
612.02	2152.42
612.21	2359.26
612.40	2119.65
612.59	2211.81
612.79	2197.47
612.98	2222.05
613.17	2500.57
613.36	2236.38
613.55	2467.80
613.74	2258.91
613.93	2473.95
614.13	2488.28
614.32	2471.90
614.51	2428.89
614.70	2351.07
614.89	2234.33
615.08	2349.02
615.28	2834.39
615.47	2252.77
615.66	2285.53
615.85	2306.01
616.04	2432.99
616.23	2299.87
616.42	2318.30
616.62	2308.06
616.81	2357.21
617.00	2334.68
617.19	2301.92
617.38	2203.61
617.57	2271.20
617.76	2351.07
617.95	2396.12
618.15	2340.83
618.34	2445.27
618.53	2090.98
618.72	2363.36
618.91	2416.60
619.10	2387.93
619.29	2285.53
619.48	2265.05
619.68	2193.37
619.87	2252.77
620.06	2170.85
620.25	2301.92
620.44	2228.19
620.63	2201.57
620.82	2301.92
621.01	2267.10
621.20	2250.72
621.39	2363.36
621.59	2228.19
621.78	2244.57
621.97	2310.11
622.16	2306.01
622.35	2205.66
622.54	2424.80
622.73	2340.83
622.92	2097.12
623.11	2326.49
623.30	2244.57
623.49	2400.22
623.68	2209.76
623.88	2328.54
624.07	2236.38
624.26	2236.38
624.45	2246.62
624.64	2273.25
624.83	2197.47
625.02	2273.25
625.21	2207.71
625.40	2240.48
625.59	2392.03
625.78	2238.43
625.97	2416.60
626.16	2400.22
626.35	2416.60
626.54	2291.68
626.74	2463.71
626.93	2275.29
627.12	2273.25
627.31	2398.17
627.50	2346.97
627.69	2408.41
627.88	2240.48
628.07	2230.24
628.26	2095.07
628.45	2238.43
628.64	2162.66
628.83	2269.15
629.02	2150.37
629.21	2420.70
629.40	2387.93
629.59	2238.43
629.78	2170.85
629.97	2277.34
630.16	2289.63
630.35	2283.49
630.54	2258.91
630.73	2222.05
630.92	2279.39
631.11	2277.34
631.30	2226.14
631.49	2293.72
631.68	2211.81
631.87	2324.44
632.06	2205.66
632.25	2533.34
632.44	2310.11
632.63	2326.49
632.82	2240.48
633.01	2285.53
633.20	2416.60
633.39	2248.67
633.58	2164.70
633.77	2301.92
633.96	2306.01
634.15	2392.03
634.34	2344.92
634.53	2334.68
634.72	2211.81
634.91	2158.56
635.10	2293.72
635.29	2381.79
635.48	2230.24
635.67	2203.61
635.86	2222.05
636.05	2385.88
636.24	2230.24
636.43	2260.96
636.62	2334.68
636.81	2054.11
637.00	2269.15
637.19	2254.81
637.38	2260.96
637.57	2244.57
637.76	2371.55
637.95	2420.70
638.14	2361.31
638.33	2328.54
638.52	2371.55
638.71	2179.04
638.89	2097.12
639.08	2531.29
639.27	2422.75
639.46	2432.99
639.65	2754.52
639.84	2899.92
640.03	2904.02
640.22	2924.50
640.41	2893.78
640.60	2471.90
640.79	2467.80
640.98	2482.14
641.17	2537.43
641.36	2441.18
641.55	2449.37
641.74	2303.96
641.92	2244.57
642.11	2244.57
642.30	2273.25
642.49	2224.09
642.68	2187.23
642.87	2324.44
643.06	2297.82
643.25	2222.05
643.44	2146.27
643.63	2277.34
643.82	2363.36
644.00	2105.31
644.19	2303.96
644.38	2205.66
644.57	2285.53
644.76	2291.68
644.95	2215.90
645.14	2205.66
645.33	2248.67
645.52	2240.48
645.71	2127.84
645.89	2162.66
646.08	2228.19
646.27	2207.71
646.46	2504.67
646.65	2111.46
646.84	2322.40
647.03	2136.03
647.22	2334.68
647.40	2267.10
647.59	2263.01
647.78	2111.46
647.97	2213.85
648.16	2236.38
648.35	2381.79
648.54	2365.40
648.73	2271.20
648.91	2301.92
649.10	2324.44
649.29	2205.66
649.48	2263.01
649.67	2244.57
649.86	2455.51
650.05	2291.68
650.23	2457.56
650.42	2330.59
650.61	2467.80
650.80	2490.33
650.99	2617.30
651.18	2559.96
651.36	2338.78
651.55	2215.90
651.74	2326.49
651.93	2242.53
652.12	2209.76
652.31	2275.29
652.49	2258.91
652.68	2308.06
652.87	2471.90
653.06	2303.96
653.25	2545.63
653.44	2355.16
653.62	2402.27
653.81	2236.38
654.00	2242.53
654.19	2396.12
654.38	2519.00
654.56	2293.72
654.75	2285.53
654.94	2398.17
655.13	2344.92
655.32	2258.91
655.51	2373.60
655.69	2185.18
655.88	2355.16
656.07	2123.74
656.26	2230.24
656.45	2164.70
656.63	2277.34
656.82	2248.67
657.01	2328.54
657.20	2174.94
657.38	2402.27
657.57	2172.89
657.76	2101.22
657.95	2359.26
658.14	2211.81
658.32	2306.01
658.51	2131.94
658.70	2252.77
658.89	2297.82
659.08	2303.96
659.26	2486.23
659.45	2187.23
659.64	2396.12
659.83	2238.43
660.01	2623.45
660.20	2330.59
660.39	2504.67
660.58	2099.17
660.76	2295.77
660.95	2152.42
661.14	2283.49
661.33	2105.31
661.51	2213.85
661.70	2183.13
661.89	2308.06
662.08	2281.44
662.26	2095.07
662.45	2222.05
662.64	2396.12
662.83	2267.10
663.01	2125.79
663.20	2244.57
663.39	2244.57
663.58	2265.05
663.76	2258.91
663.95	2367.45
664.14	2183.13
664.32	2299.87
664.51	2236.38
664.70	2070.50
664.89	2232.29
665.07	2080.74
665.26	2359.26
665.45	2176.99
665.64	2340.83
665.82	2246.62
666.01	2285.53
666.20	2187.23
666.38	2336.73
666.57	2392.03
666.76	3354.57
666.95	8261.51
667.13	16342.79
667.32	21425.85
667.51	24718.98
667.69	26422.89
667.88	24614.54
668.07	17413.88
668.25	13905.71
668.44	11575.12
668.63	10076.01
668.81	8871.80
669.00	7722.89
669.19	6801.30
669.38	5881.77
669.56	5095.35
669.75	4218.82
669.94	3624.90
670.12	3067.86
670.31	2738.13
670.50	2586.58
670.68	2494.43
670.87	2441.18
671.06	2387.93
671.24	2326.49
671.43	2508.76
671.62	2322.40
671.80	2211.81
671.99	2375.64
672.18	2326.49
672.36	2326.49
672.55	2342.88
672.74	2250.72
672.92	2258.91
673.11	2330.59
673.29	2185.18
673.48	2383.84
673.67	2150.37
673.85	2334.68
674.04	2166.75
674.23	2260.96
674.41	2457.56
674.60	2191.33
674.79	2097.12
674.97	2187.23
675.16	2299.87
675.34	2258.91
675.53	2174.94
675.72	2273.25
675.90	2420.70
676.09	2185.18
676.28	2256.86
676.46	2131.94
676.65	2283.49
676.83	2125.79
677.02	2232.29
677.21	2389.98
677.39	2260.96
677.58	2215.90
677.77	2303.96
677.95	2211.81
678.14	2240.48
678.32	2193.37
678.51	2166.75
678.70	2471.90
678.88	2224.09
679.07	2199.52
679.25	2314.20
679.44	2277.34
679.63	2150.37
679.81	2260.96
680.00	2432.99
680.18	2289.63
680.37	2375.64
680.55	2248.67
680.74	2019.30
680.93	2052.06
681.11	2285.53
681.30	2242.53
681.48	2244.57
681.67	2293.72
681.85	2312.16
682.04	2211.81
682.23	2258.91
682.41	2308.06
682.60	2297.82
682.78	2332.64
682.97	2205.66
683.15	2197.47
683.34	2187.23
683.53	2346.97
683.71	2158.56
683.90	2295.77
684.08	2373.60
684.27	2252.77
684.45	2342.88
684.64	2359.26
684.82	2234.33
685.01	2308.06
685.19	2252.77
685.38	2475.99
685.57	2193.37
685.75	2209.76
685.94	2152.42
686.12	2138.08
686.31	2271.20
686.49	2437.08
686.68	2121.70
686.86	2246.62
687.05	2248.67
687.23	2406.36
687.42	2258.91
687.60	2185.18
687.79	2291.68
687.97	2355.16
688.16	2361.31
688.34	2371.55
688.53	2111.46
688.71	2344.92
688.90	2389.98
689.08	2183.13
689.27	2056.16
689.45	2320.35
689.64	2371.55
689.82	2277.34
690.01	2301.92
690.19	2269.15
690.38	2279.39
690.56	2453.47
690.75	2277.34
690.93	2160.61
691.12	2162.66
691.30	2250.72
691.49	2283.49
691.67	2232.29
691.86	2412.51
692.04	2301.92
692.23	2318.30
692.41	2299.87
692.60	2537.43
692.78	2375.64
692.97	2334.68
693.15	2424.80
693.34	2408.41
693.52	2361.31
693.71	2217.95
693.89	2281.44
694.08	2172.89
694.26	2396.12
694.44	2367.45
694.63	2351.07
694.81	2111.46
695.00	2220.00
695.18	2332.64
695.37	2555.86
695.55	2287.58
695.74	2207.71
695.92	2226.14
696.10	2330.59
696.29	2162.66
696.47	2191.33
696.66	2160.61
696.84	2158.56
697.03	2203.61
697.21	2502.62
697.40	3266.51
697.58	2422.75
697.76	2258.91
697.95	2172.89
698.13	2234.33
698.32	2213.85
698.50	2287.58
698.68	2342.88
698.87	2234.33
699.05	2398.17
699.24	2250.72
699.42	2154.46
699.61	2301.92
699.79	2236.38
699.97	2193.37
700.16	2113.50
700.34	2138.08
700.53	2338.78
700.71	2451.42
700.89	2336.73
701.08	2160.61
701.26	2279.39
701.45	2756.57
701.63	2158.56
701.81	2248.67
702.00	2117.60
702.18	2232.29
702.37	2340.83
702.55	2482.14
702.73	2410.46
702.92	2371.55
703.10	2537.43
703.28	2502.62
703.47	2287.58
703.65	2385.88
703.84	2449.37
704.02	2281.44
704.20	2408.41
704.39	2187.23
704.57	2256.86
704.75	2441.18
704.94	2424.80
705.12	2340.83
705.30	2639.83
705.49	4435.90
705.67	10391.39
705.86	18452.20
706.04	21909.17
706.22	24911.49
706.41	26068.59
706.59	22159.02
706.77	15814.41
706.96	13168.44
707.14	11528.02
707.32	9953.13
707.51	8966.01
707.69	7354.26
707.87	5986.21
708.06	4833.21
708.24	3964.87
708.42	3203.02
708.61	3059.67
708.79	2459.61
708.97	2508.76
709.16	2441.18
709.34	2299.87
709.52	2308.06
709.71	2301.92
709.89	2330.59
710.07	2131.94
710.26	2162.66
710.44	2301.92
710.62	2334.68
710.80	2260.96
710.99	2379.74
711.17	2361.31
711.35	2228.19
711.54	2136.03
711.72	2406.36
711.90	2344.92
712.09	2213.85
712.27	2140.13
712.45	2334.68
712.63	2254.81
712.82	2240.48
713.00	2301.92
713.18	2269.15
713.37	2355.16
713.55	2291.68
713.73	2316.25
713.91	2328.54
714.10	2220.00
714.28	2197.47
714.46	2301.92
714.65	2162.66
714.83	2211.81
715.01	2277.34
715.19	2256.86
715.38	2117.60
715.56	2226.14
715.74	2150.37
715.92	2213.85
716.11	2428.89
716.29	2113.50
716.47	2281.44
716.65	2220.00
716.84	2138.08
717.02	2340.83
717.20	2117.60
717.38	2240.48
717.57	2283.49
717.75	2232.29
717.93	2191.33
718.11	2322.40
718.30	2207.71
718.48	2258.91
718.66	2349.02
718.84	2369.50
719.03	2215.90
719.21	2174.94
719.39	2441.18
719.57	2359.26
719.75	2357.21
719.94	2215.90
720.12	2269.15
720.30	2248.67
720.48	2375.64
720.67	2185.18
720.85	2125.79
721.03	2197.47
721.21	2136.03
721.39	2295.77
721.58	2310.11
721.76	2250.72
721.94	2273.25
722.12	2371.55
722.30	2355.16
722.49	2238.43
722.67	2310.11
722.85	2220.00
723.03	2170.85
723.21	2211.81
723.40	2260.96
723.58	2373.60
723.76	2367.45
723.94	2443.23
724.12	2316.25
724.30	2469.85
724.49	2461.66
724.67	2228.19
724.85	2377.69
725.03	2189.28
725.21	2330.59
725.40	2426.84
725.58	2230.24
725.76	2256.86
725.94	2279.39
726.12	2183.13
726.30	2260.96
726.49	2285.53
726.67	2205.66
726.85	2252.77
727.03	2662.36
727.21	3571.66
727.39	4923.32
727.57	5844.90
727.76	6561.69
727.94	6750.10
728.12	6434.72
728.30	5242.80
728.48	4388.80
728.66	4143.04
728.84	3694.54
729.03	3252.17
729.21	2961.36
729.39	2727.89
729.57	2523.10
729.75	2469.85
729.93	2404.32
730.11	2281.44
730.30	2240.48
730.48	2201.57
730.66	2412.51
730.84	2330.59
731.02	2281.44
731.20	2217.95
731.38	2228.19
731.56	2187.23
731.74	2068.45
731.93	2316.25
732.11	2203.61
732.29	2211.81
732.47	2344.92
732.65	2285.53
732.83	2299.87
733.01	2303.96
733.19	2197.47
733.37	2244.57
733.56	2250.72
733.74	2119.65
733.92	2346.97
734.10	2306.01
734.28	2320.35
734.46	2068.45
734.64	2193.37
734.82	2097.12
735.00	2183.13
735.18	2193.37
735.36	2215.90
735.54	2285.53
735.73	2281.44
735.91	2297.82
736.09	2367.45
736.27	2295.77
736.45	2244.57
736.63	2088.93
736.81	2258.91
736.99	2295.77
737.17	2363.36
737.35	2101.22
737.53	2308.06
737.71	2209.76
737.89	2346.97
738.07	2160.61
738.25	2160.61
738.43	2185.18
738.61	2281.44
738.80	2097.12
738.98	2150.37
739.16	2236.38
739.34	2211.81
739.52	2322.40
739.70	2260.96
739.88	2355.16
740.06	2324.44
740.24	2060.26
740.42	2369.50
740.60	2115.55
740.78	2252.77
740.96	2080.74
741.14	2228.19
741.32	2392.03
741.50	2140.13
741.68	2445.27
741.86	2342.88
742.04	2187.23
742.22	2154.46
742.40	2285.53
742.58	2271.20
742.76	2179.04
742.94	2400.22
743.12	2103.26
743.30	2351.07
743.48	2320.35
743.66	2158.56
743.84	2232.29
744.02	2183.13
744.20	2260.96
744.38	2226.14
744.56	2162.66
744.74	2471.90
744.92	2342.88
745.10	2480.09
745.28	2351.07
745.46	2424.80
745.64	2269.15
745.82	2328.54
746.00	2217.95
746.18	2242.53
746.36	2283.49
746.54	2179.04
746.72	2203.61
746.90	2160.61
747.08	2379.74
747.26	2267.10
747.44	2385.88
747.62	2301.92
747.80	2322.40
747.98	2363.36
748.15	2310.11
748.33	2514.91
748.51	2252.77
748.69	2273.25
748.87	2133.98
749.05	2209.76
749.23	2185.18
749.41	2351.07
749.59	2244.57
749.77	2346.97
749.95	2176.99
750.13	2230.24
750.31	2357.21
750.49	2146.27
750.67	2371.55
750.85	2383.84
751.03	2228.19
751.20	2486.23
751.38	2248.67
751.56	2228.19
751.74	2242.53
751.92	2201.57
752.10	2121.70
752.28	2267.10
752.46	2258.91
752.64	2314.20
752.82	2236.38
753.00	2342.88
753.18	2238.43
753.35	2242.53
753.53	2211.81
753.71	2220.00
753.89	2277.34
754.07	2324.44
754.25	2326.49
754.43	2285.53
754.61	2146.27
754.79	2301.92
754.97	2162.66
755.14	2404.32
755.32	2150.37
755.50	2281.44
755.68	2291.68
755.86	2088.93
756.04	2201.57
756.22	2142.18
756.40	2301.92
756.57	2408.41
756.75	2185.18
756.93	2310.11
757.11	2318.30
757.29	2127.84
757.47	2213.85
757.65	2142.18
757.82	1988.58
758.00	2152.42
758.18	2189.28
758.36	2183.13
758.54	2398.17
758.72	2179.04
758.90	2297.82
759.07	2236.38
759.25	2115.55
759.43	2252.77
759.61	2084.83
759.79	3080.14
759.97	2283.49
760.15	2213.85
760.32	2226.14
760.50	2312.16
760.68	2424.80
760.86	2158.56
761.04	2424.80
761.22	2334.68
761.39	2279.39
761.57	2285.53
761.75	2203.61
761.93	2314.20
762.11	2162.66
762.28	2240.48
762.46	2176.99
762.64	2322.40
762.82	2076.64
763.00	2179.04
763.18	2410.46
763.35	2183.13
763.53	2306.01
763.71	2213.85
763.89	2220.00
764.07	2256.86
764.24	2256.86
764.42	2363.36
764.60	2185.18
764.78	2301.92
764.96	2375.64
765.13	2306.01
765.31	2224.09
765.49	2357.21
765.67	2150.37
765.84	2240.48
766.02	2154.46
766.20	2090.98
766.38	2273.25
766.56	2330.59
766.73	2326.49
766.91	2260.96
767.09	2269.15
767.27	2318.30
767.44	2176.99
767.62	2285.53
767.80	2275.29
767.98	2154.46
768.15	2236.38
768.33	2340.83
768.51	2371.55
768.69	2267.10
768.87	2217.95
769.04	2291.68
769.22	2543.58
769.40	2326.49
769.58	2469.85
769.75	2334.68
769.93	2437.08
770.11	2211.81
770.28	2156.51
770.46	2367.45
770.64	2287.58
770.82	2176.99
770.99	2230.24
771.17	2283.49
771.35	2158.56
771.53	2189.28
771.70	2183.13
771.88	2271.20
772.06	2162.66
772.23	2217.95
772.41	2238.43
772.59	2146.27
772.77	2197.47
772.94	2279.39
773.12	2242.53
773.30	2217.95
773.47	2246.62
773.65	2191.33
773.83	2389.98
774.01	2201.57
774.18	2099.17
774.36	2281.44
774.54	2107.36
774.71	2279.39
774.89	2152.42
775.07	2148.32
775.24	2129.89
775.42	2148.32
775.60	2486.23
775.78	2179.04
775.95	2154.46
776.13	2105.31
776.31	2097.12
776.48	2252.77
776.66	2357.21
776.84	2224.09
777.01	2185.18
777.19	2220.00
777.37	2236.38
777.54	2299.87
777.72	2465.75
777.90	2342.88
778.07	2191.33
778.25	2572.25
778.43	2334.68
778.60	2224.09
778.78	2271.20
778.96	2369.50
779.13	2133.98
779.31	2351.07
779.49	2297.82
779.66	2351.07
779.84	2228.19
780.01	2138.08
780.19	2144.22
780.37	2379.74
780.54	2277.34
780.72	2090.98
780.90	2242.53
781.07	2275.29
781.25	2310.11
781.43	2383.84
781.60	2242.53
781.78	2334.68
781.95	2242.53
782.13	2179.04
782.31	2250.72
782.48	2064.35
782.66	2211.81
782.83	2465.75
783.01	2324.44
783.19	2369.50
783.36	2267.10
783.54	2129.89
783.72	2342.88
783.89	2240.48
784.07	2308.06
784.24	2232.29
784.42	2336.73
784.60	2260.96
784.77	2308.06
784.95	2062.30
785.12	2232.29
785.30	2277.34
785.47	2166.75
785.65	2138.08
785.83	2217.95
786.00	2224.09
786.18	2252.77
786.35	2195.42
786.53	2224.09
786.71	2334.68
786.88	2236.38
787.06	2271.20
787.23	2265.05
787.41	2185.18
787.58	2246.62
787.76	2185.18
787.94	2260.96
788.11	2275.29
788.29	2211.81
788.46	2187.23
788.64	2082.78
788.81	2324.44
788.99	2201.57
789.16	2166.75
789.34	2217.95
789.52	2195.42
789.69	2170.85
789.87	2074.59
790.04	2226.14
790.22	2256.86
790.39	2488.28
790.57	2207.71
790.74	2203.61
790.92	2314.20
791.09	2105.31
791.27	2207.71
791.44	2349.02
791.62	2211.81
791.79	2363.36
791.97	2260.96
792.15	2463.71
792.32	2252.77
792.50	2367.45
792.67	2320.35
792.85	2392.03
793.02	2230.24
793.20	2121.70
793.37	2127.84
793.55	2236.38
793.72	2119.65
793.90	2316.25
794.07	2240.48
794.25	2136.03
794.42	2148.32
794.60	2201.57
794.77	2273.25
794.95	2342.88
795.12	2310.11
795.30	2215.90
795.47	2070.50
795.65	2545.63
795.82	2316.25
796.00	2146.27
796.17	2187.23
796.34	2154.46
796.52	2293.72
796.69	2312.16
796.87	2312.16
797.04	2203.61
797.22	2322.40
797.39	2295.77
797.57	2283.49
797.74	2279.39
797.92	2275.29
798.09	2183.13
798.27	2273.25
798.44	2220.00
798.62	2191.33
798.79	2252.77
798.96	2299.87
799.14	2254.81
799.31	2480.09
799.49	2174.94
799.66	2189.28
799.84	2236.38
800.01	2109.41
800.19	2265.05
800.36	2068.45
800.53	2193.37
800.71	2299.87
800.88	2394.08
801.06	2150.37
801.23	2281.44
801.41	2273.25
801.58	2222.05
801.75	2256.86
801.93	2299.87
802.10	2260.96
802.28	2293.72
802.45	2185.18
802.63	2207.71
802.80	2367.45
802.97	2295.77
803.15	2232.29
803.32	2215.90
803.50	2193.37
803.67	2191.33
803.84	2179.04
804.02	2246.62
804.19	2238.43
804.37	2127.84
804.54	2101.22
804.71	2199.52
804.89	2234.33
805.06	2131.94
805.24	2109.41
805.41	2166.75
805.58	2183.13
805.76	2490.33
805.93	2281.44
806.10	2318.30
806.28	2326.49
806.45	2224.09
806.63	2260.96
806.80	2279.39
806.97	2299.87
807.15	2258.91
807.32	2265.05
807.49	2252.77
807.67	2158.56
807.84	2322.40
808.01	2050.02
808.19	2418.65
808.36	2510.81
808.54	2242.53
808.71	2117.60
808.88	2193.37
809.06	2338.78
809.23	2383.84
809.40	2207.71
809.58	2220.00
809.75	2252.77
809.92	2125.79
810.10	2449.37
810.27	2195.42
810.44	2236.38
810.62	2324.44
810.79	2297.82
810.96	2220.00
811.14	2136.03
811.31	2252.77
811.48	2252.77
811.66	2269.15
811.83	2334.68
812.00	2217.95
812.18	2299.87
812.35	2475.99
812.52	2252.77
812.69	2152.42
812.87	2244.57
813.04	2193.37
813.21	2244.57
813.39	2152.42
813.56	2127.84
813.73	2340.83
813.91	2088.93
814.08	2252.77
814.25	2201.57
814.42	2101.22
814.60	2236.38
814.77	2299.87
814.94	2252.77
815.12	2220.00
815.29	2322.40
815.46	2211.81
815.63	2217.95
815.81	2203.61
815.98	2185.18
816.15	2220.00
816.33	2215.90
816.50	2213.85
816.67	2228.19
816.84	2289.63
817.02	2174.94
817.19	2195.42
817.36	2375.64
817.53	2291.68
817.71	2168.80
817.88	2330.59
818.05	2209.76
818.22	2181.09
818.40	2375.64
818.57	2166.75
818.74	2244.57
818.91	2340.83
819.09	2369.50
819.26	2314.20
819.43	2195.42
819.60	2131.94
819.78	2275.29
819.95	2342.88
820.12	2226.14
820.29	2392.03
820.47	2318.30
820.64	2160.61
820.81	2138.08
820.98	2172.89
821.15	2220.00
821.33	2334.68
821.50	2176.99
821.67	2244.57
821.84	2156.51
822.02	2299.87
822.19	2308.06
822.36	2291.68
822.53	2154.46
822.70	2166.75
822.88	2193.37
823.05	2306.01
823.22	2213.85
823.39	2256.86
823.56	2244.57
823.74	2424.80
823.91	2156.51
824.08	2156.51
824.25	2158.56
824.42	2463.71
824.60	2183.13
824.77	2271.20
824.94	2232.29
825.11	2265.05
825.28	2080.74
825.45	2308.06
825.63	2252.77
825.80	2158.56
825.97	2297.82
826.14	2263.01
826.31	2060.26
826.48	2293.72
826.66	2199.52
826.83	2215.90
827.00	2195.42
827.17	2185.18
827.34	2254.81
827.51	2187.23
827.69	2234.33
827.86	2150.37
828.03	2179.04
828.20	2209.76
828.37	2172.89
828.54	2293.72
828.71	2138.08
828.89	2324.44
829.06	2244.57
829.23	2365.40
829.40	2127.84
829.57	2183.13
829.74	2310.11
829.91	2191.33
830.09	2232.29
830.26	2316.25
830.43	2344.92
830.60	2228.19
830.77	2306.01
830.94	2330.59
831.11	2301.92
831.28	2174.94
831.46	2346.97
831.63	2217.95
831.80	2324.44
831.97	2220.00
832.14	2203.61
832.31	2281.44
832.48	2267.10
832.65	2385.88
832.82	2250.72
832.99	2283.49
833.17	2209.76
833.34	2357.21
833.51	2240.48
833.68	2125.79
833.85	2310.11
834.02	2041.82
834.19	2121.70
834.36	2222.05
834.53	2226.14
834.70	2291.68
834.87	2363.36
835.04	2097.12
835.22	2265.05
835.39	2232.29
835.56	2072.54
835.73	2166.75
835.90	2322.40
836.07	2162.66
836.24	2297.82
836.41	2150.37
836.58	2146.27
836.75	2344.92
836.92	2308.06
837.09	2117.60
837.26	2383.84
837.43	2381.79
837.60	2183.13
837.77	2111.46
837.94	2267.10
838.12	2412.51
838.29	2222.05
838.46	2140.13
838.63	2230.24
838.80	2402.27
838.97	2234.33
839.14	2197.47
839.31	2308.06
839.48	2369.50
839.65	2228.19
839.82	2193.37
839.99	2336.73
840.16	2254.81
840.33	2189.28
840.50	2209.76
840.67	2154.46
840.84	2043.87
841.01	2129.89
841.18	2181.09
841.35	2246.62
841.52	2279.39
841.69	2398.17
841.86	2248.67
842.03	2172.89
842.20	2359.26
842.37	2244.57
842.54	2230.24
842.71	2252.77
842.88	2168.80
843.05	2293.72
843.22	2187.23
843.39	2310.11
843.56	2127.84
843.73	2201.57
843.90	2230.24
844.07	2238.43
844.24	2299.87
844.41	2203.61
844.58	2211.81
844.75	2265.05
844.92	2324.44
845.09	2183.13
845.26	2179.04
845.43	2248.67
845.60	2189.28
845.77	2299.87
845.94	2244.57
846.10	2381.79
846.27	2115.55
846.44	2060.26
846.61	2160.61
846.78	2293.72
846.95	2301.92
847.12	2209.76
847.29	2203.61
847.46	2160.61
847.63	2287.58
847.80	2226.14
847.97	2146.27
848.14	2445.27
848.31	2150.37
848.48	2086.88
848.65	2220.00
848.82	2220.00
848.98	2455.51
849.15	2326.49
849.32	2285.53
849.49	2330.59
849.66	2293.72
849.83	2146.27
850.00	2127.84
850.17	2224.09
850.34	2160.61
850.51	2166.75
850.68	2232.29
850.85	2473.95
851.01	2318.30
851.18	2211.81
851.35	2228.19
851.52	2297.82
851.69	2387.93
851.86	2084.83
852.03	2195.42
852.20	2367.45
852.37	2252.77
852.53	2090.98
852.70	2144.22
852.87	2242.53
853.04	2357.21
853.21	2250.72
853.38	2281.44
853.55	2365.40
853.72	2387.93
853.89	2213.85
854.05	2152.42
854.22	2154.46
854.39	2197.47
854.56	2146.27
854.73	2260.96
854.90	2144.22
855.07	2256.86
855.23	2152.42
855.40	2152.42
855.57	2215.90
855.74	2090.98
855.91	2430.94
856.08	2060.26
856.25	2129.89
856.41	2316.25
856.58	2199.52
856.75	2191.33
856.92	2179.04
857.09	2314.20
857.26	2090.98
857.42	2226.14
857.59	2338.78
857.76	2269.15
857.93	2236.38
858.10	2258.91
858.27	2136.03
858.43	2258.91
858.60	2168.80
858.77	2117.60
858.94	2170.85
859.11	2435.03
859.27	2154.46
859.44	2220.00
859.61	2488.28
859.78	2277.34
859.95	2258.91
860.12	2183.13
860.28	2428.89
860.45	2443.23
860.62	2179.04
860.79	2236.38
860.95	2166.75
861.12	2181.09
861.29	2103.26
861.46	2150.37
861.63	2226.14
861.79	2254.81
861.96	2123.74
862.13	2121.70
862.30	2351.07
862.47	2203.61
862.63	2170.85
862.80	2242.53
862.97	2334.68
863.14	2260.96
863.30	2209.76
863.47	2119.65
863.64	2367.45
863.81	2267.10
863.97	2164.70
864.14	2281.44
864.31	2187.23
864.48	2199.52
864.65	2172.89
864.81	2291.68
864.98	2295.77
865.15	2328.54
865.32	2320.35
865.48	2277.34
865.65	2349.02
865.82	2166.75
865.98	2263.01
866.15	2312.16
866.32	2267.10
866.49	2142.18
866.65	2285.53
866.82	2146.27
866.99	2279.39
867.16	2199.52
867.32	2185.18
867.49	2211.81
867.66	2160.61
867.83	2187.23
867.99	2138.08
868.16	2230.24
868.33	2142.18
868.49	2269.15
868.66	2185.18
868.83	2306.01
868.99	2277.34
869.16	2303.96
869.33	2250.72
869.50	2277.34
869.66	2283.49
869.83	2342.88
870.00	2101.22
870.16	2250.72
870.33	2187.23
870.50	2373.60
870.66	2244.57
870.83	2326.49
871.00	2285.53
871.17	2263.01
871.33	2332.64
871.50	2248.67
871.67	2191.33
871.83	2154.46
872.00	2283.49
872.17	2154.46
872.33	2432.99
872.50	2293.72
872.67	2109.41
872.83	2176.99
873.00	2316.25
873.17	2328.54
873.33	2244.57
873.50	2289.63
873.67	2086.88
873.83	2170.85
874.00	2199.52
874.16	2299.87
874.33	2308.06
874.50	2127.84
874.66	2187.23
874.83	2326.49
875.00	2334.68
875.16	2320.35
875.33	2326.49
875.50	1998.82
875.66	2197.47
875.83	2213.85
875.99	2195.42
876.16	2220.00
876.33	2136.03
876.49	2213.85
876.66	2285.53
876.83	2244.57
876.99	2054.11
877.16	2297.82
877.32	2179.04
877.49	2166.75
877.66	2316.25
877.82	2389.98
877.99	2211.81
878.15	2430.94
878.32	2195.42
878.49	2195.42
878.65	2185.18
878.82	2342.88
878.98	2162.66
879.15	2344.92
879.32	2392.03
879.48	2265.05
879.65	2191.33
879.81	2127.84
879.98	2195.42
880.15	2240.48
880.31	2299.87
880.48	2162.66
880.64	2275.29
880.81	2316.25
880.97	2492.38
881.14	2322.40
881.31	2150.37
881.47	2285.53
881.64	2199.52
881.80	2150.37
881.97	2215.90
882.13	2297.82
882.30	2154.46
882.47	2148.32
882.63	2127.84
882.80	2086.88
882.96	2203.61
883.13	2432.99
883.29	2234.33
883.46	2166.75
883.62	2437.08
883.79	2293.72
883.95	2293.72
884.12	2152.42
884.29	2367.45
884.45	2254.81
884.62	2246.62
884.78	2136.03
884.95	2430.94
885.11	2193.37
885.28	2242.53
885.44	2232.29
885.61	2324.44
885.77	2349.02
885.94	2289.63
886.10	2279.39
886.27	2258.91
886.43	2349.02
886.60	2336.73
886.76	2195.42
886.93	2105.31
887.09	2244.57
887.26	2166.75
887.42	2217.95
887.59	2301.92
887.75	2535.39
887.92	2277.34
888.08	2242.53
888.25	2365.40
888.41	2308.06
888.58	2217.95
888.74	2158.56
888.91	2203.61
>>>>>End Processed Spectral Data<<<<<
