SpectraSuite Data File
++++++++++++++++++++++++++++++++++++
Date: Thu May 05 13:20:54 CEST 2016
User: root
Dark Spectrum Present: No
Reference Spectrum Present: No
Number of Sampled Component Spectra: 1
Spectrometers: USB4C02835
Integration Time (usec): 100000 (USB4C02835)
Spectra Averaged: 1 (USB4C02835)
Boxcar Smoothing: 0 (USB4C02835)
Correct for Electrical Dark: No (USB4C02835)
Strobe/Lamp Enabled: No (USB4C02835)
Correct for Detector Non-linearity: No (USB4C02835)
Correct for Stray Light: No (USB4C02835)
Number of Pixels in Processed Spectrum: 3648
>>>>>Begin Processed Spectral Data<<<<<
177.47	1767.40
177.69	1767.40
177.91	1767.40
178.13	1802.21
178.36	1818.60
178.58	2185.18
178.80	2273.25
179.02	2193.37
179.24	2146.27
179.46	2189.28
179.68	2228.19
179.90	2205.66
180.13	2260.96
180.35	2097.12
180.57	2211.81
180.79	2326.49
181.01	2209.76
181.23	2211.81
181.45	2260.96
181.67	2273.25
181.90	2371.55
182.12	2072.54
182.34	2027.49
182.56	2340.83
182.78	2256.86
183.00	2172.89
183.22	2187.23
183.44	2080.74
183.66	2478.04
183.89	2312.16
184.11	2209.76
184.33	2312.16
184.55	2359.26
184.77	2269.15
184.99	2232.29
185.21	2176.99
185.43	2469.85
185.65	2160.61
185.87	2164.70
186.10	2469.85
186.32	2471.90
186.54	2283.49
186.76	2154.46
186.98	2334.68
187.20	2320.35
187.42	2162.66
187.64	2185.18
187.86	2328.54
188.08	2324.44
188.30	2195.42
188.52	2232.29
188.75	2334.68
188.97	2250.72
189.19	2162.66
189.41	2179.04
189.63	2336.73
189.85	2220.00
190.07	2142.18
190.29	2054.11
190.51	2269.15
190.73	2105.31
190.95	2310.11
191.17	2201.57
191.39	2152.42
191.61	2174.94
191.84	2195.42
192.06	2252.77
192.28	2133.98
192.50	2580.44
192.72	2211.81
192.94	2195.42
193.16	2326.49
193.38	2303.96
193.60	2129.89
193.82	2162.66
194.04	2351.07
194.26	2238.43
194.48	2144.22
194.70	2215.90
194.92	2193.37
195.14	2316.25
195.36	2154.46
195.58	2226.14
195.80	2293.72
196.02	2148.32
196.24	2154.46
196.46	2201.57
196.69	2136.03
196.91	2510.81
197.13	2160.61
197.35	2170.85
197.57	2392.03
197.79	2252.77
198.01	2224.09
198.23	2199.52
198.45	2314.20
198.67	2123.74
198.89	2142.18
199.11	2199.52
199.33	2162.66
199.55	2107.36
199.77	2146.27
199.99	2269.15
200.21	2158.56
200.43	2252.77
200.65	2072.54
200.87	1996.77
201.09	2160.61
201.31	2242.53
201.53	2215.90
201.75	2197.47
201.97	2293.72
202.19	2244.57
202.41	2136.03
202.63	2371.55
202.85	2340.83
203.07	2234.33
203.29	2252.77
203.51	2103.26
203.73	2203.61
203.95	2521.05
204.17	2148.32
204.39	2207.71
204.61	2240.48
204.83	2154.46
205.05	2217.95
205.27	2340.83
205.49	2445.27
205.71	2330.59
205.93	2105.31
206.15	2133.98
206.37	2265.05
206.59	2248.67
206.81	2144.22
207.03	2017.25
207.25	2121.70
207.47	2316.25
207.69	2181.09
207.91	2318.30
208.13	2432.99
208.34	2193.37
208.56	2195.42
208.78	2252.77
209.00	2183.13
209.22	2150.37
209.44	2220.00
209.66	2125.79
209.88	2320.35
210.10	2250.72
210.32	2121.70
210.54	2297.82
210.76	2248.67
210.98	2396.12
211.20	2056.16
211.42	2236.38
211.64	2394.08
211.86	2281.44
212.08	2195.42
212.30	2203.61
212.52	2215.90
212.74	2277.34
212.96	2246.62
213.17	2322.40
213.39	2367.45
213.61	2500.57
213.83	2154.46
214.05	2187.23
214.27	2299.87
214.49	2189.28
214.71	2115.55
214.93	2267.10
215.15	2269.15
215.37	2318.30
215.59	2072.54
215.81	2230.24
216.03	2346.97
216.24	2275.29
216.46	2179.04
216.68	2281.44
216.90	2326.49
217.12	2314.20
217.34	2138.08
217.56	2228.19
217.78	2455.51
218.00	2316.25
218.22	2275.29
218.44	2230.24
218.66	2252.77
218.87	2445.27
219.09	2207.71
219.31	2244.57
219.53	2263.01
219.75	2176.99
219.97	2224.09
220.19	2279.39
220.41	2242.53
220.63	2336.73
220.85	2193.37
221.06	2109.41
221.28	2353.12
221.50	2215.90
221.72	2191.33
221.94	2121.70
222.16	2334.68
222.38	2336.73
222.60	2201.57
222.82	2203.61
223.03	2310.11
223.25	2121.70
223.47	2185.18
223.69	2359.26
223.91	2291.68
224.13	2277.34
224.35	2125.79
224.57	2242.53
224.78	2365.40
225.00	2140.13
225.22	2207.71
225.44	2191.33
225.66	2281.44
225.88	2246.62
226.10	2220.00
226.32	2172.89
226.53	2351.07
226.75	2199.52
226.97	2252.77
227.19	2189.28
227.41	2162.66
227.63	2179.04
227.85	2095.07
228.06	2195.42
228.28	2279.39
228.50	2336.73
228.72	2109.41
228.94	2133.98
229.16	2054.11
229.37	2133.98
229.59	2093.02
229.81	2328.54
230.03	2220.00
230.25	2154.46
230.47	2187.23
230.69	2076.64
230.90	2402.27
231.12	2150.37
231.34	2185.18
231.56	2269.15
231.78	2162.66
232.00	2226.14
232.21	2203.61
232.43	2220.00
232.65	2064.35
232.87	2285.53
233.09	2131.94
233.30	2111.46
233.52	2373.60
233.74	2152.42
233.96	2142.18
234.18	2265.05
234.40	2275.29
234.61	2492.38
234.83	2107.36
235.05	2150.37
235.27	2586.58
235.49	2351.07
235.70	2220.00
235.92	2224.09
236.14	2310.11
236.36	2416.60
236.58	2086.88
236.79	2265.05
237.01	2209.76
237.23	2248.67
237.45	2283.49
237.67	2107.36
237.88	2240.48
238.10	2486.23
238.32	2115.55
238.54	2095.07
238.76	2226.14
238.97	2152.42
239.19	2179.04
239.41	2195.42
239.63	2441.18
239.85	2244.57
240.06	2176.99
240.28	2158.56
240.50	2342.88
240.72	2224.09
240.93	2187.23
241.15	2260.96
241.37	2349.02
241.59	2383.84
241.81	2269.15
242.02	2156.51
242.24	2275.29
242.46	2281.44
242.68	2136.03
242.89	2168.80
243.11	2359.26
243.33	2279.39
243.55	2207.71
243.76	2234.33
243.98	2166.75
244.20	2199.52
244.42	2133.98
244.64	2258.91
244.85	2103.26
245.07	2189.28
245.29	2226.14
245.51	2170.85
245.72	2375.64
245.94	2375.64
246.16	2127.84
246.38	2115.55
246.59	2176.99
246.81	2144.22
247.03	2086.88
247.24	2039.78
247.46	2183.13
247.68	2273.25
247.90	2162.66
248.11	2127.84
248.33	2375.64
248.55	2289.63
248.77	2211.81
248.98	2265.05
249.20	2387.93
249.42	2269.15
249.64	2213.85
249.85	2195.42
250.07	2185.18
250.29	2308.06
250.50	2215.90
250.72	2125.79
250.94	2353.12
251.16	2447.32
251.37	2256.86
251.59	2260.96
251.81	2285.53
252.02	2428.89
252.24	2193.37
252.46	2295.77
252.68	2201.57
252.89	2228.19
253.11	2039.78
253.33	2349.02
253.54	2383.84
253.76	2103.26
253.98	2133.98
254.20	2230.24
254.41	2142.18
254.63	2226.14
254.85	2060.26
255.06	2174.94
255.28	2332.64
255.50	2283.49
255.71	2174.94
255.93	2045.92
256.15	2238.43
256.36	2273.25
256.58	2072.54
256.80	2150.37
257.02	2193.37
257.23	2179.04
257.45	2213.85
257.67	2238.43
257.88	2172.89
258.10	2332.64
258.32	2113.50
258.53	2209.76
258.75	2359.26
258.97	2244.57
259.18	2172.89
259.40	2176.99
259.62	2394.08
259.83	2367.45
260.05	2217.95
260.27	2641.88
260.48	2293.72
260.70	2258.91
260.92	2093.02
261.13	2117.60
261.35	2246.62
261.57	2332.64
261.78	2070.50
262.00	2197.47
262.22	2324.44
262.43	2127.84
262.65	2172.89
262.86	2179.04
263.08	2441.18
263.30	2283.49
263.51	2015.20
263.73	2101.22
263.95	2422.75
264.16	2136.03
264.38	2111.46
264.60	2236.38
264.81	2203.61
265.03	2383.84
265.25	2340.83
265.46	2224.09
265.68	2324.44
265.89	2353.12
266.11	2045.92
266.33	2158.56
266.54	2383.84
266.76	2428.89
266.98	2220.00
267.19	2263.01
267.41	2328.54
267.62	2252.77
267.84	1974.24
268.06	2242.53
268.27	2244.57
268.49	2408.41
268.70	2217.95
268.92	2097.12
269.14	2228.19
269.35	2121.70
269.57	2148.32
269.79	2242.53
270.00	2170.85
270.22	2392.03
270.43	2203.61
270.65	2047.97
270.87	2293.72
271.08	2437.08
271.30	2193.37
271.51	2148.32
271.73	2328.54
271.95	2416.60
272.16	2133.98
272.38	2224.09
272.59	2162.66
272.81	2283.49
273.02	2207.71
273.24	2256.86
273.46	2338.78
273.67	2168.80
273.89	2078.69
274.10	2148.32
274.32	2353.12
274.54	2297.82
274.75	2242.53
274.97	2201.57
275.18	2336.73
275.40	2281.44
275.61	2174.94
275.83	2217.95
276.05	2199.52
276.26	2250.72
276.48	2244.57
276.69	2244.57
276.91	2127.84
277.12	2412.51
277.34	2344.92
277.55	2318.30
277.77	2224.09
277.99	2260.96
278.20	2181.09
278.42	2142.18
278.63	2133.98
278.85	2201.57
279.06	2140.13
279.28	2260.96
279.49	2346.97
279.71	2295.77
279.93	2193.37
280.14	2226.14
280.36	2217.95
280.57	2334.68
280.79	2367.45
281.00	2123.74
281.22	2152.42
281.43	2355.16
281.65	2013.15
281.86	2158.56
282.08	2275.29
282.29	2385.88
282.51	2095.07
282.73	2195.42
282.94	2115.55
283.16	2312.16
283.37	2426.84
283.59	2191.33
283.80	2267.10
284.02	2215.90
284.23	2310.11
284.45	2197.47
284.66	2176.99
284.88	2187.23
285.09	2273.25
285.31	2265.05
285.52	2316.25
285.74	2084.83
285.95	2324.44
286.17	2203.61
286.38	2332.64
286.60	2172.89
286.81	2105.31
287.03	2179.04
287.24	2191.33
287.46	2332.64
287.67	2242.53
287.89	2482.14
288.10	2252.77
288.32	2232.29
288.53	2418.65
288.75	2244.57
288.96	2336.73
289.18	2211.81
289.39	2215.90
289.61	2326.49
289.82	2482.14
290.04	2492.38
290.25	2142.18
290.47	2232.29
290.68	2222.05
290.90	2373.60
291.11	2123.74
291.33	2336.73
291.54	2101.22
291.76	2215.90
291.97	2236.38
292.18	2301.92
292.40	2269.15
292.61	2136.03
292.83	2359.26
293.04	2318.30
293.26	2224.09
293.47	2197.47
293.69	2127.84
293.90	2185.18
294.12	2410.46
294.33	2344.92
294.55	2152.42
294.76	2310.11
294.97	2430.94
295.19	2465.75
295.40	2207.71
295.62	2277.34
295.83	2377.69
296.05	2267.10
296.26	2346.97
296.48	2201.57
296.69	2310.11
296.90	2236.38
297.12	2357.21
297.33	2369.50
297.55	2303.96
297.76	2277.34
297.98	2293.72
298.19	2148.32
298.41	2263.01
298.62	2195.42
298.83	2336.73
299.05	2275.29
299.26	2211.81
299.48	2195.42
299.69	2297.82
299.90	2195.42
300.12	2197.47
300.33	2377.69
300.55	2252.77
300.76	2242.53
300.98	2154.46
301.19	2346.97
301.40	2269.15
301.62	2260.96
301.83	2338.78
302.05	2394.08
302.26	2183.13
302.47	2283.49
302.69	2121.70
302.90	2301.92
303.12	2060.26
303.33	2254.81
303.54	2521.05
303.76	2179.04
303.97	2306.01
304.19	2299.87
304.40	2121.70
304.61	2254.81
304.83	2326.49
305.04	2312.16
305.26	2375.64
305.47	2246.62
305.68	2228.19
305.90	2183.13
306.11	2342.88
306.33	2256.86
306.54	2193.37
306.75	2127.84
306.97	2064.35
307.18	2174.94
307.39	2228.19
307.61	2258.91
307.82	2193.37
308.04	2234.33
308.25	2142.18
308.46	2228.19
308.68	2301.92
308.89	2222.05
309.10	2359.26
309.32	2215.90
309.53	2267.10
309.74	2326.49
309.96	2201.57
310.17	2326.49
310.39	2199.52
310.60	2340.83
310.81	2220.00
311.03	2109.41
311.24	2365.40
311.45	2234.33
311.67	2361.31
311.88	2283.49
312.09	2242.53
312.31	2133.98
312.52	2215.90
312.73	2156.51
312.95	2152.42
313.16	2199.52
313.37	2365.40
313.59	2314.20
313.80	2308.06
314.01	2342.88
314.23	2187.23
314.44	2138.08
314.65	2099.17
314.87	2133.98
315.08	2109.41
315.29	2162.66
315.51	2123.74
315.72	2082.78
315.93	2275.29
316.15	2322.40
316.36	2215.90
316.57	2254.81
316.79	2242.53
317.00	2187.23
317.21	2389.98
317.43	2226.14
317.64	2258.91
317.85	2189.28
318.07	2211.81
318.28	2254.81
318.49	2316.25
318.70	2533.34
318.92	2404.32
319.13	2422.75
319.34	2482.14
319.56	2263.01
319.77	2410.46
319.98	2303.96
320.20	2361.31
320.41	2357.21
320.62	2342.88
320.83	2172.89
321.05	2342.88
321.26	2242.53
321.47	2252.77
321.69	2428.89
321.90	2111.46
322.11	2125.79
322.32	2283.49
322.54	2445.27
322.75	2205.66
322.96	2562.01
323.18	1998.82
323.39	2097.12
323.60	2179.04
323.81	2299.87
324.03	2222.05
324.24	2254.81
324.45	2183.13
324.66	2222.05
324.88	2359.26
325.09	2400.22
325.30	2217.95
325.52	2193.37
325.73	2279.39
325.94	2187.23
326.15	2129.89
326.37	2105.31
326.58	2318.30
326.79	2379.74
327.00	2179.04
327.22	2271.20
327.43	2195.42
327.64	2183.13
327.85	2281.44
328.07	2256.86
328.28	2373.60
328.49	2228.19
328.70	2209.76
328.92	2238.43
329.13	2254.81
329.34	2209.76
329.55	2400.22
329.76	2320.35
329.98	2330.59
330.19	2373.60
330.40	2269.15
330.61	2242.53
330.83	2402.27
331.04	2164.70
331.25	2269.15
331.46	2279.39
331.68	2142.18
331.89	2379.74
332.10	2269.15
332.31	2117.60
332.52	2299.87
332.74	2334.68
332.95	2117.60
333.16	2168.80
333.37	2316.25
333.58	2250.72
333.80	2258.91
334.01	2121.70
334.22	2187.23
334.43	2172.89
334.64	2113.50
334.86	2078.69
335.07	2168.80
335.28	2271.20
335.49	2080.74
335.70	2299.87
335.92	2404.32
336.13	2469.85
336.34	2260.96
336.55	2275.29
336.76	2289.63
336.98	2138.08
337.19	2260.96
337.40	2322.40
337.61	2516.95
337.82	2162.66
338.04	2359.26
338.25	2095.07
338.46	2258.91
338.67	2242.53
338.88	2146.27
339.09	2142.18
339.31	2211.81
339.52	2133.98
339.73	2179.04
339.94	2289.63
340.15	2334.68
340.36	2181.09
340.58	2277.34
340.79	2123.74
341.00	2297.82
341.21	2133.98
341.42	2383.84
341.63	2256.86
341.85	2351.07
342.06	2308.06
342.27	2189.28
342.48	2293.72
342.69	2113.50
342.90	2256.86
343.12	2402.27
343.33	2136.03
343.54	2291.68
343.75	2346.97
343.96	2164.70
344.17	2187.23
344.38	2289.63
344.60	2197.47
344.81	2086.88
345.02	2211.81
345.23	2301.92
345.44	2498.52
345.65	2258.91
345.86	2260.96
346.07	2244.57
346.29	2166.75
346.50	2295.77
346.71	2246.62
346.92	2359.26
347.13	2461.66
347.34	2103.26
347.55	2217.95
347.76	2289.63
347.98	2074.59
348.19	2224.09
348.40	2338.78
348.61	2254.81
348.82	2422.75
349.03	2306.01
349.24	2176.99
349.45	2385.88
349.66	2070.50
349.88	2183.13
350.09	2107.36
350.30	2426.84
350.51	2414.56
350.72	2326.49
350.93	2195.42
351.14	2187.23
351.35	2312.16
351.56	2211.81
351.77	2215.90
351.99	2351.07
352.20	2478.04
352.41	2437.08
352.62	2021.35
352.83	2217.95
353.04	2222.05
353.25	2211.81
353.46	2375.64
353.67	2410.46
353.88	2050.02
354.09	2224.09
354.30	2275.29
354.52	2285.53
354.73	2187.23
354.94	2183.13
355.15	2246.62
355.36	2557.91
355.57	2203.61
355.78	2131.94
355.99	2267.10
356.20	2176.99
356.41	2375.64
356.62	2320.35
356.83	2252.77
357.04	2389.98
357.25	2150.37
357.46	2234.33
357.68	2170.85
357.89	2160.61
358.10	2211.81
358.31	2293.72
358.52	2265.05
358.73	2129.89
358.94	2144.22
359.15	2193.37
359.36	2291.68
359.57	2170.85
359.78	2222.05
359.99	2340.83
360.20	2176.99
360.41	2220.00
360.62	2340.83
360.83	2244.57
361.04	2242.53
361.25	2265.05
361.46	2420.70
361.67	2250.72
361.88	2371.55
362.09	2301.92
362.30	2271.20
362.51	2195.42
362.72	2299.87
362.93	2359.26
363.14	2320.35
363.35	2267.10
363.56	2152.42
363.78	2392.03
363.99	2346.97
364.20	2250.72
364.41	2277.34
364.62	2445.27
364.83	2273.25
365.04	2193.37
365.25	2170.85
365.46	2482.14
365.67	2174.94
365.88	2269.15
366.09	2193.37
366.30	2224.09
366.51	2324.44
366.72	2168.80
366.93	2252.77
367.14	2260.96
367.35	2363.36
367.56	2258.91
367.77	2328.54
367.98	2195.42
368.18	2314.20
368.39	2322.40
368.60	2203.61
368.81	2420.70
369.02	2254.81
369.23	2211.81
369.44	2109.41
369.65	2191.33
369.86	2222.05
370.07	2291.68
370.28	2131.94
370.49	2381.79
370.70	2277.34
370.91	2146.27
371.12	2056.16
371.33	2367.45
371.54	2201.57
371.75	2449.37
371.96	2007.01
372.17	2236.38
372.38	2211.81
372.59	2258.91
372.80	2242.53
373.01	2287.58
373.22	2244.57
373.43	2203.61
373.64	2162.66
373.85	2359.26
374.06	2414.56
374.26	2295.77
374.47	2279.39
374.68	2469.85
374.89	2185.18
375.10	2193.37
375.31	2267.10
375.52	2222.05
375.73	2318.30
375.94	2144.22
376.15	2301.92
376.36	2199.52
376.57	2160.61
376.78	2207.71
376.99	2258.91
377.20	2396.12
377.40	2267.10
377.61	2426.84
377.82	2160.61
378.03	2373.60
378.24	2293.72
378.45	2240.48
378.66	2228.19
378.87	2107.36
379.08	2136.03
379.29	2162.66
379.50	2373.60
379.71	2316.25
379.91	2322.40
380.12	2238.43
380.33	2318.30
380.54	2236.38
380.75	2220.00
380.96	2232.29
381.17	2367.45
381.38	2277.34
381.59	2394.08
381.80	2256.86
382.00	2500.57
382.21	2301.92
382.42	2432.99
382.63	2521.05
382.84	2310.11
383.05	2310.11
383.26	2389.98
383.47	2287.58
383.68	2291.68
383.88	2379.74
384.09	2306.01
384.30	2392.03
384.51	2258.91
384.72	2220.00
384.93	2093.02
385.14	2199.52
385.35	2357.21
385.55	2142.18
385.76	2373.60
385.97	2211.81
386.18	2103.26
386.39	2183.13
386.60	2179.04
386.81	2213.85
387.02	2183.13
387.22	2095.07
387.43	2318.30
387.64	2299.87
387.85	2457.56
388.06	2529.24
388.27	3942.34
388.48	8167.30
388.68	11581.26
388.89	14122.79
389.10	15060.76
389.31	14085.93
389.52	10944.34
389.73	9531.25
389.93	8613.76
390.14	7935.88
390.35	7055.25
390.56	6526.88
390.77	5177.26
390.98	4169.66
391.18	3254.22
391.39	2680.79
391.60	2299.87
391.81	2414.56
392.02	2267.10
392.23	2568.15
392.43	2289.63
392.64	2308.06
392.85	2273.25
393.06	2430.94
393.27	2320.35
393.47	2168.80
393.68	2246.62
393.89	2160.61
394.10	2414.56
394.31	2168.80
394.52	2203.61
394.72	2166.75
394.93	2486.23
395.14	2064.35
395.35	2222.05
395.56	2199.52
395.76	2314.20
395.97	2260.96
396.18	2430.94
396.39	2361.31
396.60	2727.89
396.80	2584.54
397.01	2379.74
397.22	2465.75
397.43	2373.60
397.64	2228.19
397.84	2383.84
398.05	2482.14
398.26	2193.37
398.47	2359.26
398.67	2308.06
398.88	2224.09
399.09	2334.68
399.30	2095.07
399.51	2299.87
399.71	2172.89
399.92	2215.90
400.13	2318.30
400.34	2236.38
400.54	2256.86
400.75	2404.32
400.96	2240.48
401.17	2303.96
401.37	2316.25
401.58	2252.77
401.79	2242.53
402.00	2420.70
402.21	2680.79
402.41	2570.20
402.62	2553.82
402.83	2707.41
403.04	2600.92
403.24	2865.11
403.45	2373.60
403.66	2506.71
403.87	2490.33
404.07	2504.67
404.28	2512.86
404.49	2478.04
404.70	2365.40
404.90	2336.73
405.11	2295.77
405.32	2291.68
405.52	2220.00
405.73	2275.29
405.94	2121.70
406.15	2269.15
406.35	2349.02
406.56	2396.12
406.77	2271.20
406.98	2303.96
407.18	2121.70
407.39	2410.46
407.60	2234.33
407.80	2303.96
408.01	2232.29
408.22	2322.40
408.43	2199.52
408.63	2310.11
408.84	2322.40
409.05	2396.12
409.25	2215.90
409.46	2142.18
409.67	2170.85
409.88	2220.00
410.08	2308.06
410.29	2232.29
410.50	2342.88
410.70	2291.68
410.91	2176.99
411.12	2293.72
411.32	2224.09
411.53	2185.18
411.74	2365.40
411.95	2273.25
412.15	2281.44
412.36	2396.12
412.57	2318.30
412.77	2402.27
412.98	2267.10
413.19	2211.81
413.39	2301.92
413.60	2224.09
413.81	2424.80
414.01	2168.80
414.22	2215.90
414.43	2385.88
414.63	2164.70
414.84	2408.41
415.05	2273.25
415.25	2068.45
415.46	2355.16
415.67	2228.19
415.87	2279.39
416.08	2195.42
416.29	2230.24
416.49	2338.78
416.70	2187.23
416.91	2263.01
417.11	2189.28
417.32	2340.83
417.53	2383.84
417.73	2342.88
417.94	2199.52
418.15	2258.91
418.35	2232.29
418.56	2183.13
418.77	2486.23
418.97	2371.55
419.18	2176.99
419.38	2052.06
419.59	2355.16
419.80	2373.60
420.00	2146.27
420.21	2230.24
420.42	2340.83
420.62	2269.15
420.83	2222.05
421.04	2209.76
421.24	2252.77
421.45	2340.83
421.65	2301.92
421.86	2185.18
422.07	2258.91
422.27	2301.92
422.48	2199.52
422.69	2111.46
422.89	2222.05
423.10	2232.29
423.30	2136.03
423.51	2269.15
423.72	2342.88
423.92	2351.07
424.13	2035.68
424.33	2283.49
424.54	2355.16
424.75	2170.85
424.95	2369.50
425.16	2244.57
425.36	2209.76
425.57	2344.92
425.78	2318.30
425.98	2330.59
426.19	2250.72
426.39	2162.66
426.60	2281.44
426.81	2318.30
427.01	2318.30
427.22	2187.23
427.42	2095.07
427.63	2189.28
427.83	2367.45
428.04	2453.47
428.25	2373.60
428.45	2338.78
428.66	2389.98
428.86	2299.87
429.07	2193.37
429.28	2328.54
429.48	2226.14
429.69	2246.62
429.89	2260.96
430.10	2109.41
430.30	2359.26
430.51	2379.74
430.71	2166.75
430.92	2211.81
431.13	2242.53
431.33	2252.77
431.54	2203.61
431.74	2508.76
431.95	2416.60
432.15	2242.53
432.36	2287.58
432.56	2346.97
432.77	2424.80
432.98	2492.38
433.18	2252.77
433.39	2162.66
433.59	2220.00
433.80	2535.39
434.00	2471.90
434.21	2150.37
434.41	2105.31
434.62	2502.62
434.82	2090.98
435.03	2150.37
435.23	2254.81
435.44	2142.18
435.64	2234.33
435.85	2207.71
436.06	2314.20
436.26	2353.12
436.47	2256.86
436.67	2187.23
436.88	2144.22
437.08	2383.84
437.29	2357.21
437.49	2224.09
437.70	2326.49
437.90	2174.94
438.11	2432.99
438.31	2291.68
438.52	2463.71
438.72	2498.52
438.93	2465.75
439.13	2301.92
439.34	2465.75
439.54	2254.81
439.75	2367.45
439.95	2250.72
440.16	2170.85
440.36	2334.68
440.57	2265.05
440.77	2299.87
440.98	2260.96
441.18	2346.97
441.39	2217.95
441.59	2176.99
441.80	2396.12
442.00	2338.78
442.21	2398.17
442.41	2115.55
442.62	2408.41
442.82	2203.61
443.02	2252.77
443.23	2271.20
443.43	2297.82
443.64	2400.22
443.84	2258.91
444.05	2371.55
444.25	2334.68
444.46	2224.09
444.66	2318.30
444.87	2338.78
445.07	2127.84
445.28	2246.62
445.48	2359.26
445.69	2265.05
445.89	2537.43
446.09	2297.82
446.30	2508.76
446.50	2779.09
446.71	4454.33
446.91	5511.08
447.12	6397.85
447.32	6905.75
447.53	6260.64
447.73	5175.22
447.93	4634.55
448.14	4255.68
448.34	4147.14
448.55	3606.47
448.75	3549.13
448.96	3366.86
449.16	3143.63
449.36	2863.06
449.57	2547.67
449.77	2355.16
449.98	2267.10
450.18	2383.84
450.39	2273.25
450.59	2338.78
450.79	2252.77
451.00	2213.85
451.20	2310.11
451.41	2263.01
451.61	2398.17
451.81	2375.64
452.02	2252.77
452.22	2275.29
452.43	2236.38
452.63	2215.90
452.84	2228.19
453.04	2193.37
453.24	2277.34
453.45	2207.71
453.65	2273.25
453.86	2228.19
454.06	2306.01
454.26	2291.68
454.47	2125.79
454.67	2355.16
454.87	2336.73
455.08	2238.43
455.28	2314.20
455.49	2263.01
455.69	2207.71
455.89	2410.46
456.10	2389.98
456.30	2191.33
456.51	2318.30
456.71	2316.25
456.91	2246.62
457.12	2256.86
457.32	2445.27
457.52	2174.94
457.73	2351.07
457.93	2342.88
458.14	2267.10
458.34	2093.02
458.54	2220.00
458.75	2244.57
458.95	2297.82
459.15	2385.88
459.36	2322.40
459.56	2303.96
459.76	2523.10
459.97	2252.77
460.17	2244.57
460.37	2338.78
460.58	2324.44
460.78	2377.69
460.99	2234.33
461.19	2179.04
461.39	2154.46
461.60	2187.23
461.80	2330.59
462.00	2162.66
462.21	2283.49
462.41	2156.51
462.61	2152.42
462.82	2160.61
463.02	2260.96
463.22	2277.34
463.43	2367.45
463.63	2342.88
463.83	2365.40
464.04	2306.01
464.24	2232.29
464.44	2121.70
464.64	2295.77
464.85	2275.29
465.05	2295.77
465.25	2234.33
465.46	2256.86
465.66	2377.69
465.86	2326.49
466.07	2170.85
466.27	2289.63
466.47	2068.45
466.68	2174.94
466.88	2357.21
467.08	2314.20
467.29	2389.98
467.49	2287.58
467.69	2314.20
467.89	2203.61
468.10	2275.29
468.30	2260.96
468.50	2291.68
468.71	2406.36
468.91	2146.27
469.11	2373.60
469.31	2244.57
469.52	2207.71
469.72	2420.70
469.92	2504.67
470.13	2187.23
470.33	2252.77
470.53	2369.50
470.73	2613.21
470.94	2992.08
471.14	3067.86
471.34	3575.75
471.54	3375.05
471.75	3110.86
471.95	2701.27
472.15	2758.61
472.36	2793.43
472.56	2652.12
472.76	2719.70
472.96	2662.36
473.17	2580.44
473.37	2463.71
473.57	2312.16
473.77	2361.31
473.98	2306.01
474.18	2129.89
474.38	2641.88
474.58	2209.76
474.79	2220.00
474.99	2310.11
475.19	2375.64
475.39	2160.61
475.60	2273.25
475.80	2273.25
476.00	2303.96
476.20	2211.81
476.41	2260.96
476.61	2357.21
476.81	2428.89
477.01	2166.75
477.21	2420.70
477.42	2353.12
477.62	2209.76
477.82	2289.63
478.02	2170.85
478.23	2389.98
478.43	2164.70
478.63	2211.81
478.83	2281.44
479.03	2260.96
479.24	2473.95
479.44	2490.33
479.64	2142.18
479.84	2062.30
480.04	2189.28
480.25	2295.77
480.45	2203.61
480.65	2168.80
480.85	2359.26
481.06	2279.39
481.26	2207.71
481.46	2338.78
481.66	2316.25
481.86	2164.70
482.06	2330.59
482.27	2228.19
482.47	2213.85
482.67	2306.01
482.87	2232.29
483.07	2367.45
483.28	2211.81
483.48	2197.47
483.68	2189.28
483.88	2220.00
484.08	2146.27
484.29	2211.81
484.49	2244.57
484.69	2111.46
484.89	2383.84
485.09	2314.20
485.29	2260.96
485.50	2369.50
485.70	2201.57
485.90	2441.18
486.10	2318.30
486.30	2349.02
486.50	2381.79
486.71	2256.86
486.91	2314.20
487.11	2334.68
487.31	2146.27
487.51	2336.73
487.71	2179.04
487.91	2193.37
488.12	2154.46
488.32	1976.29
488.52	2220.00
488.72	2095.07
488.92	2363.36
489.12	2387.93
489.32	2392.03
489.53	2367.45
489.73	2228.19
489.93	2424.80
490.13	2285.53
490.33	2086.88
490.53	2244.57
490.73	2392.03
490.94	2160.61
491.14	2371.55
491.34	2322.40
491.54	2594.78
491.74	3088.34
491.94	3770.31
492.14	4079.55
492.34	4231.10
492.54	3686.34
492.75	3133.39
492.95	3227.60
493.15	3039.19
493.35	2875.35
493.55	2826.20
493.75	2731.99
493.95	2795.48
494.15	2582.49
494.35	2461.66
494.56	2400.22
494.76	2236.38
494.96	2355.16
495.16	2242.53
495.36	2291.68
495.56	2269.15
495.76	2244.57
495.96	2234.33
496.16	2156.51
496.36	2521.05
496.56	2260.96
496.77	2297.82
496.97	2246.62
497.17	2488.28
497.37	2187.23
497.57	2228.19
497.77	2246.62
497.97	2199.52
498.17	2244.57
498.37	2185.18
498.57	2314.20
498.77	2254.81
498.97	2404.32
499.17	2367.45
499.38	2211.81
499.58	2244.57
499.78	2418.65
499.98	2371.55
500.18	2252.77
500.38	2234.33
500.58	2428.89
500.78	2914.26
500.98	5128.11
501.18	7163.79
501.38	8859.51
501.58	9627.50
501.78	9727.85
501.98	7624.59
502.18	6406.05
502.38	5656.49
502.58	5257.14
502.78	4657.08
502.98	4464.57
503.18	4300.73
503.38	3960.77
503.59	3377.10
503.79	3260.37
503.99	3012.56
504.19	2844.63
504.39	2801.62
504.59	2832.34
504.79	2791.38
504.99	2793.43
505.19	2564.06
505.39	2424.80
505.59	2592.73
505.79	2535.39
505.99	2406.36
506.19	2301.92
506.39	2422.75
506.59	2291.68
506.79	2263.01
506.99	2371.55
507.19	2187.23
507.39	2281.44
507.59	2189.28
507.79	2269.15
507.99	2179.04
508.19	2258.91
508.39	2265.05
508.59	2176.99
508.79	2459.61
508.99	2469.85
509.19	2217.95
509.39	2346.97
509.59	2181.09
509.79	2258.91
509.99	2238.43
510.19	2342.88
510.39	2398.17
510.59	2271.20
510.79	2236.38
510.99	2129.89
511.19	2281.44
511.39	2439.13
511.59	2369.50
511.79	2428.89
511.99	2256.86
512.19	2525.15
512.38	2308.06
512.58	2156.51
512.78	2283.49
512.98	2357.21
513.18	2439.13
513.38	2201.57
513.58	2351.07
513.78	2283.49
513.98	2250.72
514.18	2252.77
514.38	2154.46
514.58	2271.20
514.78	2129.89
514.98	2222.05
515.18	2279.39
515.38	2150.37
515.58	2482.14
515.78	2322.40
515.98	2187.23
516.18	2273.25
516.38	2308.06
516.57	2209.76
516.77	2191.33
516.97	2289.63
517.17	2295.77
517.37	2080.74
517.57	2369.50
517.77	2260.96
517.97	2211.81
518.17	2263.01
518.37	2150.37
518.57	2240.48
518.77	2275.29
518.97	2211.81
519.16	2258.91
519.36	2400.22
519.56	2260.96
519.76	2150.37
519.96	2209.76
520.16	2400.22
520.36	2123.74
520.56	2439.13
520.76	2146.27
520.96	2236.38
521.16	2383.84
521.35	2363.36
521.55	2449.37
521.75	2326.49
521.95	2289.63
522.15	2193.37
522.35	2136.03
522.55	2213.85
522.75	2334.68
522.95	2256.86
523.14	2105.31
523.34	2297.82
523.54	2263.01
523.74	2369.50
523.94	2224.09
524.14	2193.37
524.34	2332.64
524.54	2439.13
524.73	2228.19
524.93	2336.73
525.13	2236.38
525.33	2138.08
525.53	2430.94
525.73	2332.64
525.93	2363.36
526.13	2199.52
526.32	2238.43
526.52	2373.60
526.72	2334.68
526.92	2185.18
527.12	2252.77
527.32	2129.89
527.52	2322.40
527.71	2330.59
527.91	2203.61
528.11	2258.91
528.31	2285.53
528.51	2197.47
528.71	2424.80
528.90	2299.87
529.10	2414.56
529.30	2369.50
529.50	2099.17
529.70	2289.63
529.90	2269.15
530.09	2174.94
530.29	2166.75
530.49	2193.37
530.69	2523.10
530.89	2203.61
531.09	2277.34
531.28	2209.76
531.48	2338.78
531.68	2277.34
531.88	2336.73
532.08	2359.26
532.28	2308.06
532.47	2334.68
532.67	2271.20
532.87	2275.29
533.07	2158.56
533.27	2328.54
533.46	2265.05
533.66	2383.84
533.86	2332.64
534.06	2236.38
534.26	2203.61
534.45	2283.49
534.65	2422.75
534.85	2226.14
535.05	2174.94
535.25	2369.50
535.44	2129.89
535.64	2340.83
535.84	2240.48
536.04	2291.68
536.24	2256.86
536.43	2281.44
536.63	2297.82
536.83	2211.81
537.03	2263.01
537.22	2125.79
537.42	2170.85
537.62	2310.11
537.82	2172.89
538.02	2349.02
538.21	2389.98
538.41	2498.52
538.61	2291.68
538.81	2297.82
539.00	2334.68
539.20	2105.31
539.40	2228.19
539.60	2252.77
539.79	2330.59
539.99	2379.74
540.19	2201.57
540.39	2355.16
540.58	2289.63
540.78	2381.79
540.98	2271.20
541.18	2383.84
541.37	2293.72
541.57	2306.01
541.77	2338.78
541.97	2187.23
542.16	2078.69
542.36	2199.52
542.56	2203.61
542.76	2473.95
542.95	2314.20
543.15	2332.64
543.35	2353.12
543.54	2181.09
543.74	2109.41
543.94	2342.88
544.14	2263.01
544.33	2308.06
544.53	2234.33
544.73	2299.87
544.93	2213.85
545.12	2228.19
545.32	2252.77
545.52	2226.14
545.71	2244.57
545.91	2310.11
546.11	2191.33
546.30	2093.02
546.50	2176.99
546.70	2258.91
546.90	2303.96
547.09	2154.46
547.29	2275.29
547.49	2349.02
547.68	2187.23
547.88	2215.90
548.08	2381.79
548.27	2674.65
548.47	2150.37
548.67	2185.18
548.87	2400.22
549.06	2222.05
549.26	2285.53
549.46	2353.12
549.65	2291.68
549.85	2260.96
550.05	2246.62
550.24	2129.89
550.44	2285.53
550.64	2285.53
550.83	2269.15
551.03	2308.06
551.23	2385.88
551.42	2279.39
551.62	2154.46
551.82	2267.10
552.01	2232.29
552.21	2404.32
552.41	2281.44
552.60	2416.60
552.80	2301.92
553.00	2232.29
553.19	2230.24
553.39	2445.27
553.59	2099.17
553.78	2375.64
553.98	2297.82
554.17	2097.12
554.37	2318.30
554.57	2342.88
554.76	2191.33
554.96	2224.09
555.16	2234.33
555.35	2248.67
555.55	2297.82
555.75	2330.59
555.94	2349.02
556.14	2105.31
556.33	2285.53
556.53	2224.09
556.73	2195.42
556.92	2291.68
557.12	2299.87
557.32	2412.51
557.51	2439.13
557.71	2338.78
557.90	2389.98
558.10	2473.95
558.30	2234.33
558.49	2176.99
558.69	2191.33
558.88	2314.20
559.08	2297.82
559.28	2299.87
559.47	2250.72
559.67	2342.88
559.86	2492.38
560.06	2299.87
560.26	2236.38
560.45	2373.60
560.65	2297.82
560.84	2396.12
561.04	2246.62
561.24	2332.64
561.43	2195.42
561.63	2326.49
561.82	2252.77
562.02	2332.64
562.22	2164.70
562.41	2170.85
562.61	2176.99
562.80	2193.37
563.00	2541.53
563.19	2351.07
563.39	2310.11
563.59	2342.88
563.78	2107.36
563.98	2129.89
564.17	2203.61
564.37	2097.12
564.56	2289.63
564.76	2121.70
564.96	2285.53
565.15	2281.44
565.35	2455.51
565.54	2238.43
565.74	2324.44
565.93	2375.64
566.13	2228.19
566.32	2258.91
566.52	2389.98
566.71	2293.72
566.91	2330.59
567.11	2359.26
567.30	2148.32
567.50	2342.88
567.69	2269.15
567.89	2256.86
568.08	2146.27
568.28	2340.83
568.47	2160.61
568.67	2306.01
568.86	2256.86
569.06	2400.22
569.25	2283.49
569.45	2148.32
569.64	2246.62
569.84	2179.04
570.04	2269.15
570.23	2154.46
570.43	2283.49
570.62	2408.41
570.82	2498.52
571.01	2234.33
571.21	2160.61
571.40	2195.42
571.60	2301.92
571.79	2285.53
571.99	2271.20
572.18	2195.42
572.38	2293.72
572.57	2306.01
572.77	2330.59
572.96	2602.97
573.16	2316.25
573.35	2228.19
573.55	2451.42
573.74	2322.40
573.94	2248.67
574.13	2230.24
574.33	2330.59
574.52	2312.16
574.71	2299.87
574.91	2217.95
575.10	2119.65
575.30	2230.24
575.49	2172.89
575.69	2201.57
575.88	2314.20
576.08	2281.44
576.27	2523.10
576.47	2351.07
576.66	2475.99
576.86	2496.47
577.05	2357.21
577.25	2373.60
577.44	2516.95
577.64	2287.58
577.83	2416.60
578.02	2293.72
578.22	2420.70
578.41	2498.52
578.61	2344.92
578.80	2109.41
579.00	2314.20
579.19	2269.15
579.39	2357.21
579.58	2314.20
579.77	2306.01
579.97	2484.19
580.16	2465.75
580.36	2416.60
580.55	2312.16
580.75	2293.72
580.94	2312.16
581.13	2449.37
581.33	2367.45
581.52	2232.29
581.72	2455.51
581.91	2443.23
582.11	2338.78
582.30	2349.02
582.49	2324.44
582.69	2420.70
582.88	2412.51
583.08	2217.95
583.27	2355.16
583.47	2398.17
583.66	2209.76
583.85	2230.24
584.05	2287.58
584.24	2326.49
584.44	2344.92
584.63	2371.55
584.82	2506.71
585.02	2392.03
585.21	2478.04
585.41	2394.08
585.60	2408.41
585.79	2625.50
585.99	2580.44
586.18	2422.75
586.37	2985.94
586.57	4595.64
586.76	13983.53
586.96	33302.02
587.15	47090.99
587.34	56208.55
587.54	61432.92
587.73	56405.16
587.93	39556.52
588.12	29955.64
588.31	24178.32
588.51	21092.03
588.70	19236.57
588.89	17282.81
589.09	15275.80
589.28	13143.86
589.47	10655.58
589.67	8474.49
589.86	6291.36
590.06	4691.90
590.25	3878.85
590.44	3211.22
590.64	2828.24
590.83	2541.53
591.02	2572.25
591.22	2510.81
591.41	2420.70
591.60	2267.10
591.80	2570.20
591.99	2205.66
592.18	2252.77
592.38	2414.56
592.57	2222.05
592.76	2301.92
592.96	2316.25
593.15	2199.52
593.34	2416.60
593.54	2238.43
593.73	2361.31
593.92	2310.11
594.12	2379.74
594.31	2160.61
594.50	2480.09
594.70	2351.07
594.89	2631.64
595.08	2176.99
595.28	2299.87
595.47	2607.06
595.66	2453.47
595.86	2217.95
596.05	2236.38
596.24	2250.72
596.43	2478.04
596.63	2379.74
596.82	2328.54
597.01	2289.63
597.21	2480.09
597.40	2228.19
597.59	2371.55
597.79	2342.88
597.98	2334.68
598.17	2424.80
598.36	2314.20
598.56	2408.41
598.75	2283.49
598.94	2310.11
599.14	2291.68
599.33	2285.53
599.52	2299.87
599.71	2351.07
599.91	2387.93
600.10	2342.88
600.29	2346.97
600.48	2267.10
600.68	2295.77
600.87	2258.91
601.06	2193.37
601.26	2277.34
601.45	2281.44
601.64	2275.29
601.83	2471.90
602.03	2197.47
602.22	2174.94
602.41	2488.28
602.60	2527.19
602.80	2338.78
602.99	2342.88
603.18	2275.29
603.37	2373.60
603.57	2297.82
603.76	2275.29
603.95	2332.64
604.14	2224.09
604.34	2250.72
604.53	2226.14
604.72	2228.19
604.91	2289.63
605.10	2420.70
605.30	2162.66
605.49	2457.56
605.68	2359.26
605.87	2340.83
606.07	2207.71
606.26	2260.96
606.45	2387.93
606.64	2232.29
606.84	2244.57
607.03	2246.62
607.22	2396.12
607.41	2277.34
607.60	2258.91
607.80	2484.19
607.99	2365.40
608.18	2308.06
608.37	2267.10
608.56	2269.15
608.76	2414.56
608.95	2473.95
609.14	2375.64
609.33	2416.60
609.52	2482.14
609.72	2332.64
609.91	2375.64
610.10	2297.82
610.29	2478.04
610.48	2375.64
610.68	2338.78
610.87	2291.68
611.06	2340.83
611.25	2220.00
611.44	2449.37
611.63	2234.33
611.83	2396.12
612.02	2162.66
612.21	2385.88
612.40	2142.18
612.59	2072.54
612.79	2179.04
612.98	2265.05
613.17	2445.27
613.36	2371.55
613.55	2494.43
613.74	2361.31
613.93	2387.93
614.13	2535.39
614.32	2437.08
614.51	2473.95
614.70	2330.59
614.89	2285.53
615.08	2328.54
615.28	2754.52
615.47	2265.05
615.66	2353.12
615.85	2258.91
616.04	2504.67
616.23	2236.38
616.42	2332.64
616.62	2424.80
616.81	2283.49
617.00	2285.53
617.19	2396.12
617.38	2117.60
617.57	2226.14
617.76	2381.79
617.95	2355.16
618.15	2334.68
618.34	2361.31
618.53	2121.70
618.72	2439.13
618.91	2381.79
619.10	2428.89
619.29	2228.19
619.48	2283.49
619.68	2187.23
619.87	2322.40
620.06	2072.54
620.25	2369.50
620.44	2301.92
620.63	2195.42
620.82	2258.91
621.01	2357.21
621.20	2301.92
621.39	2357.21
621.59	2316.25
621.78	2314.20
621.97	2318.30
622.16	2326.49
622.35	2318.30
622.54	2383.84
622.73	2322.40
622.92	2121.70
623.11	2381.79
623.30	2306.01
623.49	2363.36
623.68	2162.66
623.88	2389.98
624.07	2308.06
624.26	2207.71
624.45	2265.05
624.64	2303.96
624.83	2220.00
625.02	2185.18
625.21	2275.29
625.40	2320.35
625.59	2449.37
625.78	2265.05
625.97	2406.36
626.16	2367.45
626.35	2400.22
626.54	2371.55
626.74	2480.09
626.93	2256.86
627.12	2207.71
627.31	2330.59
627.50	2295.77
627.69	2437.08
627.88	2246.62
628.07	2242.53
628.26	2154.46
628.45	2250.72
628.64	2111.46
628.83	2392.03
629.02	2144.22
629.21	2400.22
629.40	2291.68
629.59	2197.47
629.78	2224.09
629.97	2287.58
630.16	2215.90
630.35	2244.57
630.54	2242.53
630.73	2232.29
630.92	2308.06
631.11	2263.01
631.30	2322.40
631.49	2351.07
631.68	2265.05
631.87	2334.68
632.06	2187.23
632.25	2574.30
632.44	2277.34
632.63	2281.44
632.82	2240.48
633.01	2230.24
633.20	2381.79
633.39	2291.68
633.58	2144.22
633.77	2314.20
633.96	2355.16
634.15	2346.97
634.34	2310.11
634.53	2326.49
634.72	2267.10
634.91	2162.66
635.10	2287.58
635.29	2326.49
635.48	2293.72
635.67	2080.74
635.86	2158.56
636.05	2432.99
636.24	2179.04
636.43	2248.67
636.62	2291.68
636.81	2064.35
637.00	2293.72
637.19	2326.49
637.38	2250.72
637.57	2258.91
637.76	2355.16
637.95	2514.91
638.14	2326.49
638.33	2334.68
638.52	2301.92
638.71	2238.43
638.89	2179.04
639.08	2551.77
639.27	2475.99
639.46	2428.89
639.65	2820.05
639.84	2928.60
640.03	2934.74
640.22	2891.73
640.41	2918.36
640.60	2463.71
640.79	2572.25
640.98	2402.27
641.17	2473.95
641.36	2473.95
641.55	2447.32
641.74	2217.95
641.92	2248.67
642.11	2254.81
642.30	2252.77
642.49	2258.91
642.68	2306.01
642.87	2328.54
643.06	2349.02
643.25	2158.56
643.44	2271.20
643.63	2242.53
643.82	2383.84
644.00	2230.24
644.19	2158.56
644.38	2129.89
644.57	2301.92
644.76	2291.68
644.95	2242.53
645.14	2308.06
645.33	2248.67
645.52	2224.09
645.71	2121.70
645.89	2121.70
646.08	2314.20
646.27	2215.90
646.46	2475.99
646.65	2133.98
646.84	2232.29
647.03	2185.18
647.22	2310.11
647.40	2344.92
647.59	2189.28
647.78	2140.13
647.97	2103.26
648.16	2133.98
648.35	2371.55
648.54	2392.03
648.73	2273.25
648.91	2349.02
649.10	2258.91
649.29	2211.81
649.48	2156.51
649.67	2330.59
649.86	2258.91
650.05	2269.15
650.23	2453.47
650.42	2297.82
650.61	2539.48
650.80	2432.99
650.99	2551.77
651.18	2367.45
651.36	2357.21
651.55	2244.57
651.74	2314.20
651.93	2187.23
652.12	2248.67
652.31	2328.54
652.49	2277.34
652.68	2244.57
652.87	2445.27
653.06	2306.01
653.25	2428.89
653.44	2260.96
653.62	2349.02
653.81	2289.63
654.00	2252.77
654.19	2412.51
654.38	2502.62
654.56	2238.43
654.75	2232.29
654.94	2428.89
655.13	2291.68
655.32	2267.10
655.51	2324.44
655.69	2228.19
655.88	2367.45
656.07	2144.22
656.26	2267.10
656.45	2113.50
656.63	2199.52
656.82	2258.91
657.01	2359.26
657.20	2181.09
657.38	2389.98
657.57	2273.25
657.76	2129.89
657.95	2394.08
658.14	2242.53
658.32	2265.05
658.51	2109.41
658.70	2224.09
658.89	2326.49
659.08	2250.72
659.26	2435.03
659.45	2195.42
659.64	2258.91
659.83	2224.09
660.01	2645.98
660.20	2226.14
660.39	2392.03
660.58	2088.93
660.76	2424.80
660.95	2052.06
661.14	2281.44
661.33	2142.18
661.51	2203.61
661.70	2246.62
661.89	2344.92
662.08	2230.24
662.26	2133.98
662.45	2189.28
662.64	2488.28
662.83	2318.30
663.01	2131.94
663.20	2230.24
663.39	2498.52
663.58	2224.09
663.76	2275.29
663.95	2406.36
664.14	2228.19
664.32	2215.90
664.51	2191.33
664.70	2154.46
664.89	2310.11
665.07	2127.84
665.26	2314.20
665.45	2191.33
665.64	2342.88
665.82	2215.90
666.01	2326.49
666.20	2187.23
666.38	2455.51
666.57	2404.32
666.76	3446.73
666.95	8306.56
667.13	16295.69
667.32	21104.32
667.51	24964.74
667.69	26775.14
667.88	24379.02
668.07	17284.86
668.25	13803.31
668.44	11681.61
668.63	9949.03
668.81	8839.03
669.00	7559.05
669.19	6899.61
669.38	5961.64
669.56	5062.58
669.75	4261.82
669.94	3719.11
670.12	3041.23
670.31	2848.72
670.50	2592.73
670.68	2453.47
670.87	2416.60
671.06	2346.97
671.24	2359.26
671.43	2400.22
671.62	2314.20
671.80	2258.91
671.99	2322.40
672.18	2220.00
672.36	2465.75
672.55	2310.11
672.74	2281.44
672.92	2256.86
673.11	2396.12
673.29	2170.85
673.48	2379.74
673.67	2242.53
673.85	2334.68
674.04	2174.94
674.23	2297.82
674.41	2465.75
674.60	2176.99
674.79	2148.32
674.97	2240.48
675.16	2277.34
675.34	2232.29
675.53	2220.00
675.72	2291.68
675.90	2447.32
676.09	2254.81
676.28	2199.52
676.46	2076.64
676.65	2336.73
676.83	2179.04
677.02	2244.57
677.21	2283.49
677.39	2265.05
677.58	2199.52
677.77	2150.37
677.95	2215.90
678.14	2179.04
678.32	2209.76
678.51	2199.52
678.70	2514.91
678.88	2209.76
679.07	2273.25
679.25	2248.67
679.44	2179.04
679.63	2084.83
679.81	2260.96
680.00	2398.17
680.18	2389.98
680.37	2445.27
680.55	2299.87
680.74	2129.89
680.93	2142.18
681.11	2318.30
681.30	2316.25
681.48	2240.48
681.67	2267.10
681.85	2258.91
682.04	2127.84
682.23	2308.06
682.41	2299.87
682.60	2174.94
682.78	2209.76
682.97	2228.19
683.15	2279.39
683.34	2252.77
683.53	2359.26
683.71	2101.22
683.90	2412.51
684.08	2461.66
684.27	2154.46
684.45	2303.96
684.64	2246.62
684.82	2207.71
685.01	2355.16
685.19	2230.24
685.38	2385.88
685.57	2314.20
685.75	2195.42
685.94	2228.19
686.12	2158.56
686.31	2203.61
686.49	2424.80
686.68	2039.78
686.86	2260.96
687.05	2340.83
687.23	2439.13
687.42	2232.29
687.60	2193.37
687.79	2332.64
687.97	2441.18
688.16	2469.85
688.34	2412.51
688.53	2076.64
688.71	2369.50
688.90	2326.49
689.08	2285.53
689.27	2101.22
689.45	2353.12
689.64	2379.74
689.82	2301.92
690.01	2252.77
690.19	2295.77
690.38	2283.49
690.56	2322.40
690.75	2168.80
690.93	2228.19
691.12	2250.72
691.30	2318.30
691.49	2195.42
691.67	2291.68
691.86	2461.66
692.04	2164.70
692.23	2269.15
692.41	2273.25
692.60	2545.63
692.78	2426.84
692.97	2338.78
693.15	2293.72
693.34	2480.09
693.52	2322.40
693.71	2267.10
693.89	2217.95
694.08	2160.61
694.26	2365.40
694.44	2310.11
694.63	2306.01
694.81	2101.22
695.00	2199.52
695.18	2408.41
695.37	2531.29
695.55	2322.40
695.74	2209.76
695.92	2179.04
696.10	2344.92
696.29	2078.69
696.47	2201.57
696.66	2195.42
696.84	2158.56
697.03	2275.29
697.21	2449.37
697.40	3266.51
697.58	2342.88
697.76	2217.95
697.95	2164.70
698.13	2195.42
698.32	2199.52
698.50	2250.72
698.68	2301.92
698.87	2301.92
699.05	2392.03
699.24	2273.25
699.42	2162.66
699.61	2260.96
699.79	2267.10
699.97	2265.05
700.16	2103.26
700.34	2154.46
700.53	2277.34
700.71	2416.60
700.89	2392.03
701.08	2215.90
701.26	2234.33
701.45	2805.72
701.63	2152.42
701.81	2205.66
702.00	2226.14
702.18	2293.72
702.37	2267.10
702.55	2437.08
702.73	2471.90
702.92	2365.40
703.10	2516.95
703.28	2488.28
703.47	2299.87
703.65	2455.51
703.84	2465.75
704.02	2283.49
704.20	2416.60
704.39	2252.77
704.57	2299.87
704.75	2392.03
704.94	2357.21
705.12	2381.79
705.30	2586.58
705.49	4462.52
705.67	10553.18
705.86	18220.78
706.04	21825.20
706.22	24972.93
706.41	25919.09
706.59	21952.18
706.77	15476.50
706.96	12957.50
707.14	11511.63
707.32	9772.91
707.51	8927.10
707.69	7354.26
707.87	6012.84
708.06	4874.17
708.24	3932.10
708.42	3133.39
708.61	3053.52
708.79	2457.56
708.97	2455.51
709.16	2469.85
709.34	2351.07
709.52	2252.77
709.71	2273.25
709.89	2285.53
710.07	2191.33
710.26	2199.52
710.44	2228.19
710.62	2334.68
710.80	2236.38
710.99	2357.21
711.17	2367.45
711.35	2224.09
711.54	2213.85
711.72	2359.26
711.90	2322.40
712.09	2265.05
712.27	2140.13
712.45	2291.68
712.63	2105.31
712.82	2244.57
713.00	2252.77
713.18	2359.26
713.37	2377.69
713.55	2375.64
713.73	2320.35
713.91	2338.78
714.10	2197.47
714.28	2301.92
714.46	2301.92
714.65	2342.88
714.83	2279.39
715.01	2269.15
715.19	2269.15
715.38	2187.23
715.56	2326.49
715.74	2088.93
715.92	2187.23
716.11	2369.50
716.29	2074.59
716.47	2197.47
716.65	2281.44
716.84	2127.84
717.02	2289.63
717.20	2082.78
717.38	2205.66
717.57	2283.49
717.75	2256.86
717.93	2236.38
718.11	2295.77
718.30	2195.42
718.48	2271.20
718.66	2332.64
718.84	2346.97
719.03	2252.77
719.21	2181.09
719.39	2441.18
719.57	2365.40
719.75	2383.84
719.94	2193.37
720.12	2256.86
720.30	2215.90
720.48	2285.53
720.67	2217.95
720.85	2148.32
721.03	2299.87
721.21	2209.76
721.39	2373.60
721.58	2283.49
721.76	2312.16
721.94	2299.87
722.12	2340.83
722.30	2398.17
722.49	2152.42
722.67	2244.57
722.85	2250.72
723.03	2029.54
723.21	2115.55
723.40	2281.44
723.58	2447.32
723.76	2363.36
723.94	2369.50
724.12	2367.45
724.30	2394.08
724.49	2402.27
724.67	2238.43
724.85	2432.99
725.03	2131.94
725.21	2346.97
725.40	2273.25
725.58	2242.53
725.76	2357.21
725.94	2263.01
726.12	2232.29
726.30	2179.04
726.49	2170.85
726.67	2174.94
726.85	2295.77
727.03	2559.96
727.21	3579.85
727.39	5062.58
727.57	5830.57
727.76	6535.07
727.94	6741.91
728.12	6399.90
728.30	5052.34
728.48	4603.83
728.66	4153.28
728.84	3768.26
729.03	3348.43
729.21	2979.79
729.39	2674.65
729.57	2494.43
729.75	2455.51
729.93	2412.51
730.11	2256.86
730.30	2232.29
730.48	2211.81
730.66	2389.98
730.84	2365.40
731.02	2236.38
731.20	2199.52
731.38	2191.33
731.56	2185.18
731.74	2133.98
731.93	2263.01
732.11	2203.61
732.29	2265.05
732.47	2312.16
732.65	2316.25
732.83	2398.17
733.01	2285.53
733.19	2138.08
733.37	2297.82
733.56	2324.44
733.74	2191.33
733.92	2404.32
734.10	2158.56
734.28	2293.72
734.46	2045.92
734.64	2236.38
734.82	2310.11
735.00	2160.61
735.18	2142.18
735.36	2201.57
735.54	2209.76
735.73	2256.86
735.91	2283.49
736.09	2332.64
736.27	2277.34
736.45	2289.63
736.63	2054.11
736.81	2250.72
736.99	2396.12
737.17	2416.60
737.35	2125.79
737.53	2265.05
737.71	2258.91
737.89	2346.97
738.07	2185.18
738.25	2193.37
738.43	2168.80
738.61	2150.37
738.80	2174.94
738.98	2070.50
739.16	2179.04
739.34	2213.85
739.52	2377.69
739.70	2260.96
739.88	2475.99
740.06	2400.22
740.24	2043.87
740.42	2480.09
740.60	2068.45
740.78	2228.19
740.96	2060.26
741.14	2185.18
741.32	2248.67
741.50	2093.02
741.68	2449.37
741.86	2361.31
742.04	2201.57
742.22	2148.32
742.40	2195.42
742.58	2416.60
742.76	2209.76
742.94	2367.45
743.12	2021.35
743.30	2207.71
743.48	2342.88
743.66	2127.84
743.84	2250.72
744.02	2174.94
744.20	2293.72
744.38	2207.71
744.56	2131.94
744.74	2408.41
744.92	2330.59
745.10	2334.68
745.28	2283.49
745.46	2420.70
745.64	2228.19
745.82	2324.44
746.00	2248.67
746.18	2310.11
746.36	2260.96
746.54	2299.87
746.72	2230.24
746.90	2093.02
747.08	2410.46
747.26	2242.53
747.44	2346.97
747.62	2351.07
747.80	2244.57
747.98	2277.34
748.15	2197.47
748.33	2506.71
748.51	2220.00
748.69	2281.44
748.87	2181.09
749.05	2234.33
749.23	2281.44
749.41	2250.72
749.59	2213.85
749.77	2410.46
749.95	2209.76
750.13	2166.75
750.31	2244.57
750.49	2215.90
750.67	2330.59
750.85	2326.49
751.03	2269.15
751.20	2441.18
751.38	2353.12
751.56	2220.00
751.74	2287.58
751.92	2234.33
752.10	2129.89
752.28	2396.12
752.46	2236.38
752.64	2238.43
752.82	2281.44
753.00	2336.73
753.18	2195.42
753.35	2271.20
753.53	2240.48
753.71	2142.18
753.89	2342.88
754.07	2273.25
754.25	2379.74
754.43	2275.29
754.61	2170.85
754.79	2326.49
754.97	2226.14
755.14	2381.79
755.32	2185.18
755.50	2242.53
755.68	2297.82
755.86	2179.04
756.04	2174.94
756.22	2050.02
756.40	2338.78
756.57	2437.08
756.75	2258.91
756.93	2359.26
757.11	2283.49
757.29	2242.53
757.47	2191.33
757.65	2138.08
757.82	2033.63
758.00	2142.18
758.18	2187.23
758.36	2162.66
758.54	2516.95
758.72	2084.83
758.90	2269.15
759.07	2357.21
759.25	2148.32
759.43	2228.19
759.61	2172.89
759.79	3092.43
759.97	2447.32
760.15	2203.61
760.32	2289.63
760.50	2217.95
760.68	2367.45
760.86	2189.28
761.04	2342.88
761.22	2273.25
761.39	2248.67
761.57	2340.83
761.75	2293.72
761.93	2344.92
762.11	2228.19
762.28	2260.96
762.46	2187.23
762.64	2365.40
762.82	2115.55
763.00	2195.42
763.18	2367.45
763.35	2142.18
763.53	2310.11
763.71	2334.68
763.89	2260.96
764.07	2342.88
764.24	2269.15
764.42	2392.03
764.60	2215.90
764.78	2301.92
764.96	2367.45
765.13	2326.49
765.31	2236.38
765.49	2318.30
765.67	2121.70
765.84	2183.13
766.02	2195.42
766.20	2088.93
766.38	2297.82
766.56	2351.07
766.73	2377.69
766.91	2353.12
767.09	2220.00
767.27	2359.26
767.44	2105.31
767.62	2351.07
767.80	2252.77
767.98	2170.85
768.15	2150.37
768.33	2342.88
768.51	2346.97
768.69	2308.06
768.87	2203.61
769.04	2189.28
769.22	2478.04
769.40	2437.08
769.58	2482.14
769.75	2287.58
769.93	2342.88
770.11	2220.00
770.28	2140.13
770.46	2260.96
770.64	2314.20
770.82	2203.61
770.99	2189.28
771.17	2275.29
771.35	2250.72
771.53	2170.85
771.70	2279.39
771.88	2359.26
772.06	2246.62
772.23	2176.99
772.41	2324.44
772.59	2211.81
772.77	2207.71
772.94	2224.09
773.12	2250.72
773.30	2244.57
773.47	2226.14
773.65	2185.18
773.83	2383.84
774.01	2301.92
774.18	2093.02
774.36	2275.29
774.54	2113.50
774.71	2285.53
774.89	2160.61
775.07	2220.00
775.24	2176.99
775.42	2244.57
775.60	2396.12
775.78	2160.61
775.95	2187.23
776.13	2037.73
776.31	2109.41
776.48	2226.14
776.66	2363.36
776.84	2248.67
777.01	2156.51
777.19	2162.66
777.37	2236.38
777.54	2252.77
777.72	2531.29
777.90	2236.38
778.07	2127.84
778.25	2574.30
778.43	2293.72
778.60	2224.09
778.78	2312.16
778.96	2351.07
779.13	2146.27
779.31	2369.50
779.49	2217.95
779.66	2260.96
779.84	2234.33
780.01	2211.81
780.19	2164.70
780.37	2367.45
780.54	2322.40
780.72	2224.09
780.90	2260.96
781.07	2125.79
781.25	2121.70
781.43	2424.80
781.60	2162.66
781.78	2375.64
781.95	2285.53
782.13	2185.18
782.31	2197.47
782.48	2129.89
782.66	2236.38
782.83	2439.13
783.01	2281.44
783.19	2301.92
783.36	2168.80
783.54	2226.14
783.72	2291.68
783.89	2213.85
784.07	2293.72
784.24	2242.53
784.42	2471.90
784.60	2277.34
784.77	2324.44
784.95	2162.66
785.12	2136.03
785.30	2283.49
785.47	2170.85
785.65	2142.18
785.83	2189.28
786.00	2252.77
786.18	2310.11
786.35	2142.18
786.53	2185.18
786.71	2310.11
786.88	2418.65
787.06	2236.38
787.23	2248.67
787.41	2193.37
787.58	2185.18
787.76	2111.46
787.94	2246.62
788.11	2252.77
788.29	2160.61
788.46	2220.00
788.64	2088.93
788.81	2254.81
788.99	2150.37
789.16	2174.94
789.34	2260.96
789.52	2146.27
789.69	2244.57
789.87	2072.54
790.04	2224.09
790.22	2248.67
790.39	2451.42
790.57	2185.18
790.74	2252.77
790.92	2318.30
791.09	2156.51
791.27	2277.34
791.44	2418.65
791.62	2185.18
791.79	2324.44
791.97	2277.34
792.15	2568.15
792.32	2314.20
792.50	2277.34
792.67	2490.33
792.85	2357.21
793.02	2244.57
793.20	2299.87
793.37	2129.89
793.55	2295.77
793.72	2119.65
793.90	2316.25
794.07	2193.37
794.25	2150.37
794.42	2271.20
794.60	2230.24
794.77	2258.91
794.95	2303.96
795.12	2326.49
795.30	2183.13
795.47	2027.49
795.65	2543.58
795.82	2248.67
796.00	2191.33
796.17	2222.05
796.34	2183.13
796.52	2246.62
796.69	2301.92
796.87	2291.68
797.04	2269.15
797.22	2351.07
797.39	2254.81
797.57	2428.89
797.74	2232.29
797.92	2273.25
798.09	2181.09
798.27	2471.90
798.44	2254.81
798.62	2183.13
798.79	2301.92
798.96	2281.44
799.14	2232.29
799.31	2480.09
799.49	2191.33
799.66	2215.90
799.84	2281.44
800.01	2101.22
800.19	2312.16
800.36	2115.55
800.53	2324.44
800.71	2363.36
800.88	2385.88
801.06	2179.04
801.23	2179.04
801.41	2236.38
801.58	2215.90
801.75	2170.85
801.93	2326.49
802.10	2265.05
802.28	2228.19
802.45	2187.23
802.63	2383.84
802.80	2389.98
802.97	2279.39
803.15	2363.36
803.32	2209.76
803.50	2205.66
803.67	2213.85
803.84	2152.42
804.02	2193.37
804.19	2230.24
804.37	2011.11
804.54	2162.66
804.71	2260.96
804.89	2252.77
805.06	2170.85
805.24	2176.99
805.41	2154.46
805.58	2209.76
805.76	2494.43
805.93	2275.29
806.10	2387.93
806.28	2324.44
806.45	2226.14
806.63	2332.64
806.80	2285.53
806.97	2293.72
807.15	2326.49
807.32	2293.72
807.49	2334.68
807.67	2127.84
807.84	2228.19
808.01	2136.03
808.19	2441.18
808.36	2459.61
808.54	2220.00
808.71	2273.25
808.88	2260.96
809.06	2336.73
809.23	2447.32
809.40	2136.03
809.58	2336.73
809.75	2277.34
809.92	2244.57
810.10	2406.36
810.27	2248.67
810.44	2324.44
810.62	2308.06
810.79	2326.49
810.96	2185.18
811.14	2265.05
811.31	2303.96
811.48	2295.77
811.66	2205.66
811.83	2344.92
812.00	2338.78
812.18	2297.82
812.35	2404.32
812.52	2246.62
812.69	2172.89
812.87	2189.28
813.04	2195.42
813.21	2211.81
813.39	2158.56
813.56	2113.50
813.73	2256.86
813.91	2078.69
814.08	2306.01
814.25	2244.57
814.42	2113.50
814.60	2310.11
814.77	2314.20
814.94	2179.04
815.12	2199.52
815.29	2449.37
815.46	2211.81
815.63	2285.53
815.81	2242.53
815.98	2195.42
816.15	2301.92
816.33	2217.95
816.50	2224.09
816.67	2211.81
816.84	2158.56
817.02	2136.03
817.19	2209.76
817.36	2258.91
817.53	2383.84
817.71	2195.42
817.88	2303.96
818.05	2181.09
818.22	2207.71
818.40	2441.18
818.57	2168.80
818.74	2281.44
818.91	2271.20
819.09	2285.53
819.26	2334.68
819.43	2187.23
819.60	2209.76
819.78	2248.67
819.95	2371.55
820.12	2220.00
820.29	2445.27
820.47	2355.16
820.64	2154.46
820.81	2117.60
820.98	2125.79
821.15	2244.57
821.33	2351.07
821.50	2103.26
821.67	2297.82
821.84	2170.85
822.02	2328.54
822.19	2326.49
822.36	2250.72
822.53	2195.42
822.70	2004.96
822.88	2238.43
823.05	2396.12
823.22	2252.77
823.39	2373.60
823.56	2191.33
823.74	2461.66
823.91	2127.84
824.08	2168.80
824.25	2148.32
824.42	2428.89
824.60	2129.89
824.77	2263.01
824.94	2242.53
825.11	2228.19
825.28	2148.32
825.45	2209.76
825.63	2234.33
825.80	2195.42
825.97	2346.97
826.14	2230.24
826.31	2068.45
826.48	2297.82
826.66	2217.95
826.83	2224.09
827.00	2226.14
827.17	2164.70
827.34	2121.70
827.51	2187.23
827.69	2142.18
827.86	2150.37
828.03	2211.81
828.20	2301.92
828.37	2172.89
828.54	2273.25
828.71	2170.85
828.89	2308.06
829.06	2250.72
829.23	2435.03
829.40	2146.27
829.57	2203.61
829.74	2289.63
829.91	2170.85
830.09	2166.75
830.26	2281.44
830.43	2416.60
830.60	2201.57
830.77	2363.36
830.94	2383.84
831.11	2310.11
831.28	2222.05
831.46	2289.63
831.63	2193.37
831.80	2273.25
831.97	2105.31
832.14	2138.08
832.31	2314.20
832.48	2244.57
832.65	2338.78
832.82	2306.01
832.99	2252.77
833.17	2101.22
833.34	2400.22
833.51	2254.81
833.68	2088.93
833.85	2408.41
834.02	2068.45
834.19	2166.75
834.36	2187.23
834.53	2289.63
834.70	2308.06
834.87	2318.30
835.04	2129.89
835.22	2234.33
835.39	2146.27
835.56	2136.03
835.73	2201.57
835.90	2310.11
836.07	2093.02
836.24	2267.10
836.41	2125.79
836.58	2170.85
836.75	2465.75
836.92	2238.43
837.09	2088.93
837.26	2314.20
837.43	2287.58
837.60	2287.58
837.77	2187.23
837.94	2357.21
838.12	2369.50
838.29	2170.85
838.46	2068.45
838.63	2195.42
838.80	2367.45
838.97	2320.35
839.14	2222.05
839.31	2285.53
839.48	2310.11
839.65	2160.61
839.82	2338.78
839.99	2230.24
840.16	2228.19
840.33	2078.69
840.50	2158.56
840.67	2138.08
840.84	2086.88
841.01	2187.23
841.18	2154.46
841.35	2228.19
841.52	2248.67
841.69	2367.45
841.86	2236.38
842.03	2189.28
842.20	2224.09
842.37	2176.99
842.54	2277.34
842.71	2322.40
842.88	2084.83
843.05	2277.34
843.22	2201.57
843.39	2357.21
843.56	2181.09
843.73	2144.22
843.90	2197.47
844.07	2224.09
844.24	2334.68
844.41	2244.57
844.58	2267.10
844.75	2226.14
844.92	2326.49
845.09	2209.76
845.26	2119.65
845.43	2310.11
845.60	2133.98
845.77	2396.12
845.94	2230.24
846.10	2330.59
846.27	2043.87
846.44	2101.22
846.61	2166.75
846.78	2332.64
846.95	2303.96
847.12	2193.37
847.29	2127.84
847.46	2242.53
847.63	2275.29
847.80	2066.40
847.97	2129.89
848.14	2469.85
848.31	2226.14
848.48	2179.04
848.65	2240.48
848.82	2273.25
848.98	2510.81
849.15	2277.34
849.32	2306.01
849.49	2303.96
849.66	2193.37
849.83	2160.61
850.00	2144.22
850.17	2342.88
850.34	2193.37
850.51	2215.90
850.68	2207.71
850.85	2475.99
851.01	2330.59
851.18	2258.91
851.35	2234.33
851.52	2226.14
851.69	2475.99
851.86	2097.12
852.03	2209.76
852.20	2293.72
852.37	2228.19
852.53	2205.66
852.70	2211.81
852.87	2236.38
853.04	2289.63
853.21	2146.27
853.38	2308.06
853.55	2351.07
853.72	2365.40
853.89	2211.81
854.05	2220.00
854.22	2236.38
854.39	2209.76
854.56	2220.00
854.73	2291.68
854.90	2185.18
855.07	2265.05
855.23	2191.33
855.40	2170.85
855.57	2195.42
855.74	2099.17
855.91	2416.60
856.08	2045.92
856.25	2121.70
856.41	2039.78
856.58	2129.89
856.75	2217.95
856.92	2207.71
857.09	2310.11
857.26	2068.45
857.42	2224.09
857.59	2306.01
857.76	2269.15
857.93	2193.37
858.10	2226.14
858.27	2058.21
858.43	2269.15
858.60	2174.94
858.77	1970.15
858.94	2244.57
859.11	2375.64
859.27	2181.09
859.44	2187.23
859.61	2449.37
859.78	2281.44
859.95	2138.08
860.12	2215.90
860.28	2512.86
860.45	2326.49
860.62	2203.61
860.79	2273.25
860.95	2193.37
861.12	2203.61
861.29	2152.42
861.46	2133.98
861.63	2291.68
861.79	2244.57
861.96	2183.13
862.13	2164.70
862.30	2404.32
862.47	2146.27
862.63	2101.22
862.80	2320.35
862.97	2349.02
863.14	2269.15
863.30	2312.16
863.47	2166.75
863.64	2318.30
863.81	2281.44
863.97	2193.37
864.14	2246.62
864.31	2260.96
864.48	2312.16
864.65	2193.37
864.81	2312.16
864.98	2291.68
865.15	2346.97
865.32	2320.35
865.48	2293.72
865.65	2396.12
865.82	2131.94
865.98	2295.77
866.15	2318.30
866.32	2236.38
866.49	2285.53
866.65	2365.40
866.82	2127.84
866.99	2263.01
867.16	2242.53
867.32	2154.46
867.49	2174.94
867.66	2224.09
867.83	2242.53
867.99	2105.31
868.16	2174.94
868.33	2156.51
868.49	2265.05
868.66	2220.00
868.83	2254.81
868.99	2150.37
869.16	2232.29
869.33	2326.49
869.50	2342.88
869.66	2220.00
869.83	2213.85
870.00	2129.89
870.16	2340.83
870.33	2263.01
870.50	2244.57
870.66	2209.76
870.83	2293.72
871.00	2293.72
871.17	2328.54
871.33	2265.05
871.50	2228.19
871.67	2187.23
871.83	2070.50
872.00	2336.73
872.17	2207.71
872.33	2408.41
872.50	2400.22
872.67	2189.28
872.83	2174.94
873.00	2254.81
873.17	2203.61
873.33	2283.49
873.50	2285.53
873.67	2154.46
873.83	2168.80
874.00	2228.19
874.16	2285.53
874.33	2318.30
874.50	2170.85
874.66	2193.37
874.83	2303.96
875.00	2334.68
875.16	2265.05
875.33	2269.15
875.50	2052.06
875.66	2183.13
875.83	2236.38
875.99	2269.15
876.16	2234.33
876.33	2121.70
876.49	2246.62
876.66	2291.68
876.83	2152.42
876.99	2111.46
877.16	2224.09
877.32	2213.85
877.49	2166.75
877.66	2260.96
877.82	2373.60
877.99	2232.29
878.15	2285.53
878.32	2258.91
878.49	2351.07
878.65	2228.19
878.82	2367.45
878.98	2170.85
879.15	2385.88
879.32	2275.29
879.48	2224.09
879.65	2217.95
879.81	2220.00
879.98	2156.51
880.15	2240.48
880.31	2318.30
880.48	2150.37
880.64	2260.96
880.81	2293.72
880.97	2400.22
881.14	2260.96
881.31	2150.37
881.47	2432.99
881.64	2250.72
881.80	2097.12
881.97	2351.07
882.13	2289.63
882.30	2086.88
882.47	2162.66
882.63	2170.85
882.80	2242.53
882.96	2205.66
883.13	2439.13
883.29	2205.66
883.46	2260.96
883.62	2428.89
883.79	2244.57
883.95	2334.68
884.12	2189.28
884.29	2371.55
884.45	2342.88
884.62	2244.57
884.78	2125.79
884.95	2435.03
885.11	2244.57
885.28	2310.11
885.44	2138.08
885.61	2287.58
885.77	2324.44
885.94	2220.00
886.10	2220.00
886.27	2166.75
886.43	2369.50
886.60	2277.34
886.76	2166.75
886.93	2236.38
887.09	2322.40
887.26	2072.54
887.42	2260.96
887.59	2310.11
887.75	2463.71
887.92	2357.21
888.08	2346.97
888.25	2441.18
888.41	2310.11
888.58	2244.57
888.74	2140.13
888.91	2244.57
>>>>>End Processed Spectral Data<<<<<
