SpectraSuite Data File
++++++++++++++++++++++++++++++++++++
Date: Thu May 05 13:21:20 CEST 2016
User: root
Dark Spectrum Present: No
Reference Spectrum Present: No
Number of Sampled Component Spectra: 1
Spectrometers: USB4C02835
Integration Time (usec): 100000 (USB4C02835)
Spectra Averaged: 1 (USB4C02835)
Boxcar Smoothing: 0 (USB4C02835)
Correct for Electrical Dark: No (USB4C02835)
Strobe/Lamp Enabled: No (USB4C02835)
Correct for Detector Non-linearity: No (USB4C02835)
Correct for Stray Light: No (USB4C02835)
Number of Pixels in Processed Spectrum: 3648
>>>>>Begin Processed Spectral Data<<<<<
177.47	1722.34
177.69	1722.34
177.91	1722.34
178.13	1824.74
178.36	1794.02
178.58	2179.04
178.80	2312.16
179.02	2097.12
179.24	2074.59
179.46	2107.36
179.68	2176.99
179.90	2242.53
180.13	2258.91
180.35	2070.50
180.57	2213.85
180.79	2381.79
181.01	2228.19
181.23	2207.71
181.45	2328.54
181.67	2252.77
181.90	2355.16
182.12	2187.23
182.34	2068.45
182.56	2355.16
182.78	2293.72
183.00	2144.22
183.22	2220.00
183.44	2037.73
183.66	2467.80
183.89	2324.44
184.11	2203.61
184.33	2357.21
184.55	2330.59
184.77	2209.76
184.99	2203.61
185.21	2203.61
185.43	2414.56
185.65	2146.27
185.87	2119.65
186.10	2408.41
186.32	2531.29
186.54	2260.96
186.76	2250.72
186.98	2383.84
187.20	2236.38
187.42	2156.51
187.64	2207.71
187.86	2279.39
188.08	2351.07
188.30	2097.12
188.52	2220.00
188.75	2441.18
188.97	2318.30
189.19	2193.37
189.41	2150.37
189.63	2246.62
189.85	2224.09
190.07	2095.07
190.29	2027.49
190.51	2365.40
190.73	2144.22
190.95	2226.14
191.17	2211.81
191.39	2119.65
191.61	2271.20
191.84	2148.32
192.06	2252.77
192.28	2127.84
192.50	2588.63
192.72	2269.15
192.94	2267.10
193.16	2383.84
193.38	2267.10
193.60	2095.07
193.82	2138.08
194.04	2297.82
194.26	2232.29
194.48	2142.18
194.70	2150.37
194.92	2203.61
195.14	2318.30
195.36	2176.99
195.58	2297.82
195.80	2232.29
196.02	2107.36
196.24	2152.42
196.46	2295.77
196.69	2201.57
196.91	2457.56
197.13	2170.85
197.35	2150.37
197.57	2394.08
197.79	2316.25
198.01	2207.71
198.23	2228.19
198.45	2258.91
198.67	2144.22
198.89	2136.03
199.11	2191.33
199.33	2209.76
199.55	2072.54
199.77	2136.03
199.99	2322.40
200.21	2183.13
200.43	2322.40
200.65	2078.69
200.87	2105.31
201.09	2256.86
201.31	2246.62
201.53	2283.49
201.75	2269.15
201.97	2267.10
202.19	2252.77
202.41	2222.05
202.63	2432.99
202.85	2234.33
203.07	2312.16
203.29	2291.68
203.51	2056.16
203.73	2123.74
203.95	2537.43
204.17	2193.37
204.39	2162.66
204.61	2310.11
204.83	2166.75
205.05	2258.91
205.27	2213.85
205.49	2398.17
205.71	2289.63
205.93	2111.46
206.15	2099.17
206.37	2279.39
206.59	2244.57
206.81	2056.16
207.03	2144.22
207.25	2209.76
207.47	2359.26
207.69	2172.89
207.91	2295.77
208.13	2445.27
208.34	2164.70
208.56	2086.88
208.78	2176.99
209.00	2195.42
209.22	2224.09
209.44	2154.46
209.66	2138.08
209.88	2244.57
210.10	2232.29
210.32	2168.80
210.54	2260.96
210.76	2187.23
210.98	2318.30
211.20	1990.63
211.42	2228.19
211.64	2392.03
211.86	2199.52
212.08	2265.05
212.30	2179.04
212.52	2267.10
212.74	2283.49
212.96	2199.52
213.17	2234.33
213.39	2342.88
213.61	2453.47
213.83	2187.23
214.05	2252.77
214.27	2432.99
214.49	2156.51
214.71	2138.08
214.93	2291.68
215.15	2228.19
215.37	2281.44
215.59	2109.41
215.81	2222.05
216.03	2301.92
216.24	2285.53
216.46	2142.18
216.68	2215.90
216.90	2342.88
217.12	2355.16
217.34	2189.28
217.56	2250.72
217.78	2381.79
218.00	2324.44
218.22	2195.42
218.44	2232.29
218.66	2252.77
218.87	2478.04
219.09	2109.41
219.31	2211.81
219.53	2230.24
219.75	2160.61
219.97	2209.76
220.19	2193.37
220.41	2254.81
220.63	2467.80
220.85	2322.40
221.06	2127.84
221.28	2432.99
221.50	2408.41
221.72	2209.76
221.94	2160.61
222.16	2267.10
222.38	2396.12
222.60	2191.33
222.82	2138.08
223.03	2398.17
223.25	2170.85
223.47	2103.26
223.69	2383.84
223.91	2375.64
224.13	2209.76
224.35	2121.70
224.57	2236.38
224.78	2269.15
225.00	2185.18
225.22	2136.03
225.44	2263.01
225.66	2301.92
225.88	2205.66
226.10	2269.15
226.32	2242.53
226.53	2330.59
226.75	2283.49
226.97	2238.43
227.19	2160.61
227.41	2217.95
227.63	2232.29
227.85	2019.30
228.06	2211.81
228.28	2359.26
228.50	2359.26
228.72	2111.46
228.94	2191.33
229.16	2121.70
229.37	2117.60
229.59	2209.76
229.81	2351.07
230.03	2185.18
230.25	2170.85
230.47	2109.41
230.69	2095.07
230.90	2318.30
231.12	2197.47
231.34	2244.57
231.56	2228.19
231.78	2246.62
232.00	2273.25
232.21	2131.94
232.43	2121.70
232.65	2133.98
232.87	2244.57
233.09	2129.89
233.30	2076.64
233.52	2260.96
233.74	2258.91
233.96	2080.74
234.18	2211.81
234.40	2183.13
234.61	2521.05
234.83	2072.54
235.05	2136.03
235.27	2457.56
235.49	2447.32
235.70	2119.65
235.92	2211.81
236.14	2316.25
236.36	2475.99
236.58	2146.27
236.79	2246.62
237.01	2230.24
237.23	2289.63
237.45	2389.98
237.67	2086.88
237.88	2301.92
238.10	2402.27
238.32	2103.26
238.54	2154.46
238.76	2258.91
238.97	2154.46
239.19	2082.78
239.41	2242.53
239.63	2400.22
239.85	2195.42
240.06	2252.77
240.28	2142.18
240.50	2408.41
240.72	2248.67
240.93	2183.13
241.15	2248.67
241.37	2217.95
241.59	2379.74
241.81	2127.84
242.02	2146.27
242.24	2310.11
242.46	2322.40
242.68	2121.70
242.89	2238.43
243.11	2402.27
243.33	2297.82
243.55	2215.90
243.76	2166.75
243.98	2217.95
244.20	2234.33
244.42	2142.18
244.64	2263.01
244.85	2142.18
245.07	2080.74
245.29	2222.05
245.51	2203.61
245.72	2228.19
245.94	2346.97
246.16	2236.38
246.38	2234.33
246.59	2228.19
246.81	2105.31
247.03	2105.31
247.24	2099.17
247.46	2207.71
247.68	2295.77
247.90	2185.18
248.11	2181.09
248.33	2265.05
248.55	2240.48
248.77	2185.18
248.98	2232.29
249.20	2428.89
249.42	2279.39
249.64	2260.96
249.85	2093.02
250.07	2260.96
250.29	2349.02
250.50	2238.43
250.72	2041.82
250.94	2281.44
251.16	2424.80
251.37	2215.90
251.59	2187.23
251.81	2308.06
252.02	2369.50
252.24	2140.13
252.46	2277.34
252.68	2222.05
252.89	2254.81
253.11	2072.54
253.33	2240.48
253.54	2385.88
253.76	2129.89
253.98	2152.42
254.20	2217.95
254.41	2095.07
254.63	2191.33
254.85	2121.70
255.06	2191.33
255.28	2295.77
255.50	2189.28
255.71	2125.79
255.93	2011.11
256.15	2166.75
256.36	2244.57
256.58	2154.46
256.80	2215.90
257.02	2281.44
257.23	2201.57
257.45	2148.32
257.67	2193.37
257.88	2170.85
258.10	2250.72
258.32	2179.04
258.53	2191.33
258.75	2473.95
258.97	2217.95
259.18	2093.02
259.40	2170.85
259.62	2441.18
259.83	2449.37
260.05	2228.19
260.27	2635.74
260.48	2289.63
260.70	2131.94
260.92	2105.31
261.13	2213.85
261.35	2179.04
261.57	2236.38
261.78	2095.07
262.00	2105.31
262.22	2326.49
262.43	2156.51
262.65	2201.57
262.86	2172.89
263.08	2504.67
263.30	2234.33
263.51	2031.58
263.73	2160.61
263.95	2441.18
264.16	2131.94
264.38	2070.50
264.60	2140.13
264.81	2238.43
265.03	2328.54
265.25	2326.49
265.46	2156.51
265.68	2406.36
265.89	2265.05
266.11	2052.06
266.33	2236.38
266.54	2398.17
266.76	2285.53
266.98	2179.04
267.19	2291.68
267.41	2326.49
267.62	2306.01
267.84	2103.26
268.06	2285.53
268.27	2252.77
268.49	2367.45
268.70	2250.72
268.92	2209.76
269.14	2189.28
269.35	2144.22
269.57	2209.76
269.79	2340.83
270.00	2176.99
270.22	2410.46
270.43	2152.42
270.65	2027.49
270.87	2256.86
271.08	2306.01
271.30	2301.92
271.51	2133.98
271.73	2316.25
271.95	2369.50
272.16	2187.23
272.38	2240.48
272.59	2211.81
272.81	2420.70
273.02	2234.33
273.24	2201.57
273.46	2361.31
273.67	2220.00
273.89	2056.16
274.10	2127.84
274.32	2363.36
274.54	2242.53
274.75	2252.77
274.97	2263.01
275.18	2283.49
275.40	2303.96
275.61	2158.56
275.83	2299.87
276.05	2121.70
276.26	2242.53
276.48	2297.82
276.69	2146.27
276.91	2291.68
277.12	2357.21
277.34	2310.11
277.55	2277.34
277.77	2330.59
277.99	2166.75
278.20	2142.18
278.42	2045.92
278.63	2187.23
278.85	2248.67
279.06	2133.98
279.28	2236.38
279.49	2351.07
279.71	2373.60
279.93	2209.76
280.14	2183.13
280.36	2146.27
280.57	2422.75
280.79	2285.53
281.00	2168.80
281.22	2142.18
281.43	2349.02
281.65	2058.21
281.86	2101.22
282.08	2287.58
282.29	2422.75
282.51	2095.07
282.73	2136.03
282.94	2062.30
283.16	2318.30
283.37	2342.88
283.59	2189.28
283.80	2275.29
284.02	2263.01
284.23	2328.54
284.45	2170.85
284.66	2152.42
284.88	2082.78
285.09	2207.71
285.31	2234.33
285.52	2244.57
285.74	2082.78
285.95	2203.61
286.17	2185.18
286.38	2342.88
286.60	2226.14
286.81	2191.33
287.03	2123.74
287.24	2281.44
287.46	2330.59
287.67	2170.85
287.89	2432.99
288.10	2293.72
288.32	2252.77
288.53	2367.45
288.75	2230.24
288.96	2381.79
289.18	2242.53
289.39	2197.47
289.61	2293.72
289.82	2557.91
290.04	2447.32
290.25	2129.89
290.47	2281.44
290.68	2250.72
290.90	2334.68
291.11	2066.40
291.33	2355.16
291.54	2187.23
291.76	2131.94
291.97	2334.68
292.18	2254.81
292.40	2265.05
292.61	2109.41
292.83	2435.03
293.04	2265.05
293.26	2260.96
293.47	2256.86
293.69	2176.99
293.90	2220.00
294.12	2424.80
294.33	2230.24
294.55	2279.39
294.76	2363.36
294.97	2340.83
295.19	2441.18
295.40	2191.33
295.62	2191.33
295.83	2281.44
296.05	2152.42
296.26	2355.16
296.48	2136.03
296.69	2236.38
296.90	2232.29
297.12	2334.68
297.33	2318.30
297.55	2271.20
297.76	2308.06
297.98	2256.86
298.19	2256.86
298.41	2213.85
298.62	2146.27
298.83	2342.88
299.05	2197.47
299.26	2201.57
299.48	2131.94
299.69	2332.64
299.90	2203.61
300.12	2152.42
300.33	2258.91
300.55	2299.87
300.76	2222.05
300.98	2133.98
301.19	2234.33
301.40	2158.56
301.62	2166.75
301.83	2301.92
302.05	2252.77
302.26	2183.13
302.47	2263.01
302.69	2191.33
302.90	2287.58
303.12	2080.74
303.33	2369.50
303.54	2486.23
303.76	2254.81
303.97	2265.05
304.19	2314.20
304.40	2160.61
304.61	2301.92
304.83	2392.03
305.04	2275.29
305.26	2244.57
305.47	2283.49
305.68	2240.48
305.90	2152.42
306.11	2379.74
306.33	2217.95
306.54	2162.66
306.75	2230.24
306.97	2140.13
307.18	2156.51
307.39	2082.78
307.61	2336.73
307.82	2158.56
308.04	2340.83
308.25	2105.31
308.46	2338.78
308.68	2285.53
308.89	2217.95
309.10	2291.68
309.32	2283.49
309.53	2306.01
309.74	2385.88
309.96	2201.57
310.17	2377.69
310.39	2236.38
310.60	2383.84
310.81	2254.81
311.03	2103.26
311.24	2269.15
311.45	2353.12
311.67	2373.60
311.88	2318.30
312.09	2158.56
312.31	2195.42
312.52	2269.15
312.73	2185.18
312.95	2133.98
313.16	2265.05
313.37	2254.81
313.59	2224.09
313.80	2299.87
314.01	2471.90
314.23	2187.23
314.44	2170.85
314.65	2131.94
314.87	2154.46
315.08	2111.46
315.29	2250.72
315.51	2162.66
315.72	2027.49
315.93	2412.51
316.15	2273.25
316.36	2191.33
316.57	2195.42
316.79	2252.77
317.00	2215.90
317.21	2183.13
317.43	2195.42
317.64	2314.20
317.85	2148.32
318.07	2162.66
318.28	2271.20
318.49	2375.64
318.70	2406.36
318.92	2385.88
319.13	2357.21
319.34	2416.60
319.56	2375.64
319.77	2496.47
319.98	2416.60
320.20	2396.12
320.41	2244.57
320.62	2306.01
320.83	2138.08
321.05	2412.51
321.26	2285.53
321.47	2281.44
321.69	2412.51
321.90	2072.54
322.11	2187.23
322.32	2250.72
322.54	2371.55
322.75	2236.38
322.96	2551.77
323.18	2187.23
323.39	2168.80
323.60	2129.89
323.81	2297.82
324.03	2154.46
324.24	2248.67
324.45	2185.18
324.66	2222.05
324.88	2359.26
325.09	2392.03
325.30	2148.32
325.52	2267.10
325.73	2289.63
325.94	2162.66
326.15	2138.08
326.37	2123.74
326.58	2336.73
326.79	2349.02
327.00	2146.27
327.22	2301.92
327.43	2301.92
327.64	2082.78
327.85	2357.21
328.07	2242.53
328.28	2473.95
328.49	2222.05
328.70	2195.42
328.92	2275.29
329.13	2162.66
329.34	2297.82
329.55	2437.08
329.76	2295.77
329.98	2170.85
330.19	2402.27
330.40	2277.34
330.61	2252.77
330.83	2332.64
331.04	2150.37
331.25	2205.66
331.46	2197.47
331.68	2201.57
331.89	2383.84
332.10	2242.53
332.31	2103.26
332.52	2213.85
332.74	2357.21
332.95	2138.08
333.16	2273.25
333.37	2392.03
333.58	2201.57
333.80	2265.05
334.01	2090.98
334.22	2199.52
334.43	2138.08
334.64	2260.96
334.86	2138.08
335.07	2129.89
335.28	2422.75
335.49	2129.89
335.70	2195.42
335.92	2373.60
336.13	2459.61
336.34	2293.72
336.55	2314.20
336.76	2297.82
336.98	2080.74
337.19	2199.52
337.40	2365.40
337.61	2596.82
337.82	2299.87
338.04	2314.20
338.25	2072.54
338.46	2209.76
338.67	2273.25
338.88	2074.59
339.09	2185.18
339.31	2240.48
339.52	2113.50
339.73	2119.65
339.94	2291.68
340.15	2355.16
340.36	2224.09
340.58	2346.97
340.79	2166.75
341.00	2299.87
341.21	2162.66
341.42	2412.51
341.63	2242.53
341.85	2389.98
342.06	2273.25
342.27	2222.05
342.48	2310.11
342.69	2047.97
342.90	2326.49
343.12	2330.59
343.33	2164.70
343.54	2250.72
343.75	2392.03
343.96	2242.53
344.17	2187.23
344.38	2285.53
344.60	2179.04
344.81	2187.23
345.02	2267.10
345.23	2381.79
345.44	2553.82
345.65	2293.72
345.86	2297.82
346.07	2273.25
346.29	2265.05
346.50	2306.01
346.71	2340.83
346.92	2357.21
347.13	2406.36
347.34	2158.56
347.55	2187.23
347.76	2273.25
347.98	2170.85
348.19	2285.53
348.40	2301.92
348.61	2242.53
348.82	2400.22
349.03	2254.81
349.24	2158.56
349.45	2465.75
349.66	1990.63
349.88	2244.57
350.09	2174.94
350.30	2312.16
350.51	2377.69
350.72	2258.91
350.93	2306.01
351.14	2187.23
351.35	2269.15
351.56	2234.33
351.77	2191.33
351.99	2338.78
352.20	2375.64
352.41	2385.88
352.62	2031.58
352.83	2228.19
353.04	2240.48
353.25	2185.18
353.46	2267.10
353.67	2359.26
353.88	2154.46
354.09	2211.81
354.30	2230.24
354.52	2318.30
354.73	2211.81
354.94	2176.99
355.15	2326.49
355.36	2408.41
355.57	2252.77
355.78	2220.00
355.99	2170.85
356.20	2199.52
356.41	2396.12
356.62	2265.05
356.83	2250.72
357.04	2359.26
357.25	2148.32
357.46	2125.79
357.68	2138.08
357.89	2131.94
358.10	2252.77
358.31	2168.80
358.52	2211.81
358.73	2199.52
358.94	2207.71
359.15	2193.37
359.36	2279.39
359.57	2242.53
359.78	2211.81
359.99	2279.39
360.20	2168.80
360.41	2244.57
360.62	2289.63
360.83	2250.72
361.04	2209.76
361.25	2234.33
361.46	2359.26
361.67	2318.30
361.88	2359.26
362.09	2295.77
362.30	2283.49
362.51	2228.19
362.72	2269.15
362.93	2310.11
363.14	2244.57
363.35	2265.05
363.56	2076.64
363.78	2375.64
363.99	2344.92
364.20	2193.37
364.41	2299.87
364.62	2422.75
364.83	2275.29
365.04	2244.57
365.25	2260.96
365.46	2545.63
365.67	2107.36
365.88	2240.48
366.09	2207.71
366.30	2179.04
366.51	2269.15
366.72	2154.46
366.93	2260.96
367.14	2246.62
367.35	2412.51
367.56	2289.63
367.77	2451.42
367.98	2246.62
368.18	2359.26
368.39	2256.86
368.60	2123.74
368.81	2330.59
369.02	2379.74
369.23	2222.05
369.44	2086.88
369.65	2195.42
369.86	2306.01
370.07	2258.91
370.28	2187.23
370.49	2332.64
370.70	2275.29
370.91	2252.77
371.12	2064.35
371.33	2340.83
371.54	2199.52
371.75	2359.26
371.96	1943.52
372.17	2297.82
372.38	2230.24
372.59	2346.97
372.80	2158.56
373.01	2232.29
373.22	2252.77
373.43	2250.72
373.64	2160.61
373.85	2363.36
374.06	2430.94
374.26	2357.21
374.47	2326.49
374.68	2447.32
374.89	2289.63
375.10	2211.81
375.31	2365.40
375.52	2295.77
375.73	2242.53
375.94	2121.70
376.15	2416.60
376.36	2150.37
376.57	2187.23
376.78	2209.76
376.99	2236.38
377.20	2383.84
377.40	2170.85
377.61	2398.17
377.82	2176.99
378.03	2361.31
378.24	2340.83
378.45	2236.38
378.66	2248.67
378.87	2105.31
379.08	2068.45
379.29	2211.81
379.50	2340.83
379.71	2365.40
379.91	2318.30
380.12	2244.57
380.33	2152.42
380.54	2232.29
380.75	2293.72
380.96	2172.89
381.17	2299.87
381.38	2252.77
381.59	2256.86
381.80	2183.13
382.00	2484.19
382.21	2285.53
382.42	2482.14
382.63	2490.33
382.84	2349.02
383.05	2373.60
383.26	2453.47
383.47	2172.89
383.68	2322.40
383.88	2301.92
384.09	2248.67
384.30	2455.51
384.51	2285.53
384.72	2238.43
384.93	2193.37
385.14	2267.10
385.35	2349.02
385.55	2201.57
385.76	2326.49
385.97	2166.75
386.18	2119.65
386.39	2138.08
386.60	2260.96
386.81	2213.85
387.02	2150.37
387.22	2215.90
387.43	2320.35
387.64	2330.59
387.85	2541.53
388.06	2486.23
388.27	4067.27
388.48	8267.65
388.68	11841.36
388.89	14059.31
389.10	15130.39
389.31	13844.27
389.52	11081.56
389.73	9506.67
389.93	8615.80
390.14	8015.75
390.35	7161.75
390.56	6365.09
390.77	5250.99
390.98	4046.79
391.18	3295.18
391.39	2785.24
391.60	2383.84
391.81	2346.97
392.02	2242.53
392.23	2502.62
392.43	2277.34
392.64	2443.23
392.85	2275.29
393.06	2432.99
393.27	2222.05
393.47	2179.04
393.68	2240.48
393.89	2185.18
394.10	2369.50
394.31	2179.04
394.52	2199.52
394.72	2201.57
394.93	2478.04
395.14	2082.78
395.35	2299.87
395.56	2199.52
395.76	2273.25
395.97	2308.06
396.18	2355.16
396.39	2424.80
396.60	2779.09
396.80	2531.29
397.01	2398.17
397.22	2351.07
397.43	2430.94
397.64	2297.82
397.84	2299.87
398.05	2396.12
398.26	2234.33
398.47	2351.07
398.67	2365.40
398.88	2232.29
399.09	2320.35
399.30	2187.23
399.51	2367.45
399.71	2187.23
399.92	2199.52
400.13	2367.45
400.34	2252.77
400.54	2217.95
400.75	2398.17
400.96	2340.83
401.17	2396.12
401.37	2297.82
401.58	2217.95
401.79	2285.53
402.00	2375.64
402.21	2670.55
402.41	2570.20
402.62	2613.21
402.83	2645.98
403.04	2719.70
403.24	2801.62
403.45	2392.03
403.66	2557.91
403.87	2525.15
404.07	2512.86
404.28	2541.53
404.49	2430.94
404.70	2381.79
404.90	2369.50
405.11	2269.15
405.32	2303.96
405.52	2232.29
405.73	2168.80
405.94	2176.99
406.15	2269.15
406.35	2357.21
406.56	2320.35
406.77	2224.09
406.98	2211.81
407.18	2152.42
407.39	2426.84
407.60	2265.05
407.80	2355.16
408.01	2246.62
408.22	2285.53
408.43	2285.53
408.63	2273.25
408.84	2295.77
409.05	2432.99
409.25	2226.14
409.46	2162.66
409.67	2301.92
409.88	2248.67
410.08	2240.48
410.29	2201.57
410.50	2269.15
410.70	2297.82
410.91	2170.85
411.12	2287.58
411.32	2322.40
411.53	2170.85
411.74	2291.68
411.95	2357.21
412.15	2389.98
412.36	2373.60
412.57	2289.63
412.77	2410.46
412.98	2269.15
413.19	2322.40
413.39	2271.20
413.60	2301.92
413.81	2371.55
414.01	2162.66
414.22	2324.44
414.43	2260.96
414.63	2185.18
414.84	2349.02
415.05	2314.20
415.25	2015.20
415.46	2373.60
415.67	2269.15
415.87	2338.78
416.08	2306.01
416.29	2271.20
416.49	2346.97
416.70	2150.37
416.91	2248.67
417.11	2185.18
417.32	2318.30
417.53	2250.72
417.73	2322.40
417.94	2285.53
418.15	2258.91
418.35	2318.30
418.56	2279.39
418.77	2504.67
418.97	2240.48
419.18	2254.81
419.38	2039.78
419.59	2269.15
419.80	2379.74
420.00	2183.13
420.21	2230.24
420.42	2340.83
420.62	2244.57
420.83	2215.90
421.04	2281.44
421.24	2285.53
421.45	2285.53
421.65	2308.06
421.86	2199.52
422.07	2334.68
422.27	2267.10
422.48	2226.14
422.69	2209.76
422.89	2211.81
423.10	2203.61
423.30	2129.89
423.51	2226.14
423.72	2351.07
423.92	2267.10
424.13	2140.13
424.33	2287.58
424.54	2400.22
424.75	2283.49
424.95	2428.89
425.16	2240.48
425.36	2205.66
425.57	2357.21
425.78	2252.77
425.98	2271.20
426.19	2275.29
426.39	2174.94
426.60	2306.01
426.81	2369.50
427.01	2236.38
427.22	2113.50
427.42	2101.22
427.63	2209.76
427.83	2355.16
428.04	2439.13
428.25	2441.18
428.45	2396.12
428.66	2346.97
428.86	2267.10
429.07	2228.19
429.28	2357.21
429.48	2232.29
429.69	2154.46
429.89	2312.16
430.10	2183.13
430.30	2332.64
430.51	2301.92
430.71	2144.22
430.92	2267.10
431.13	2211.81
431.33	2340.83
431.54	2291.68
431.74	2420.70
431.95	2447.32
432.15	2133.98
432.36	2170.85
432.56	2340.83
432.77	2519.00
432.98	2445.27
433.18	2293.72
433.39	2148.32
433.59	2277.34
433.80	2424.80
434.00	2389.98
434.21	2197.47
434.41	2295.77
434.62	2490.33
434.82	2170.85
435.03	2148.32
435.23	2275.29
435.44	2127.84
435.64	2230.24
435.85	2250.72
436.06	2334.68
436.26	2389.98
436.47	2205.66
436.67	2185.18
436.88	2346.97
437.08	2451.42
437.29	2453.47
437.49	2332.64
437.70	2398.17
437.90	2240.48
438.11	2465.75
438.31	2326.49
438.52	2449.37
438.72	2430.94
438.93	2539.48
439.13	2389.98
439.34	2457.56
439.54	2248.67
439.75	2373.60
439.95	2297.82
440.16	2170.85
440.36	2326.49
440.57	2260.96
440.77	2271.20
440.98	2299.87
441.18	2355.16
441.39	2236.38
441.59	2160.61
441.80	2496.47
442.00	2209.76
442.21	2355.16
442.41	2138.08
442.62	2498.52
442.82	2195.42
443.02	2287.58
443.23	2222.05
443.43	2275.29
443.64	2469.85
443.84	2220.00
444.05	2357.21
444.25	2258.91
444.46	2242.53
444.66	2263.01
444.87	2371.55
445.07	2105.31
445.28	2203.61
445.48	2375.64
445.69	2320.35
445.89	2523.10
446.09	2291.68
446.30	2527.19
446.50	2914.26
446.71	4429.76
446.91	5533.61
447.12	6465.44
447.32	6774.68
447.53	6215.59
447.73	5179.31
447.93	4640.70
448.14	4145.09
448.34	4130.75
448.55	3674.06
448.75	3661.77
448.96	3315.66
449.16	3026.90
449.36	2901.97
449.57	2559.96
449.77	2293.72
449.98	2308.06
450.18	2312.16
450.39	2318.30
450.59	2332.64
450.79	2232.29
451.00	2228.19
451.20	2365.40
451.41	2269.15
451.61	2383.84
451.81	2308.06
452.02	2240.48
452.22	2250.72
452.43	2220.00
452.63	2263.01
452.84	2269.15
453.04	2168.80
453.24	2271.20
453.45	2203.61
453.65	2240.48
453.86	2318.30
454.06	2285.53
454.26	2318.30
454.47	2152.42
454.67	2365.40
454.87	2349.02
455.08	2353.12
455.28	2389.98
455.49	2269.15
455.69	2166.75
455.89	2402.27
456.10	2383.84
456.30	2228.19
456.51	2392.03
456.71	2279.39
456.91	2318.30
457.12	2199.52
457.32	2334.68
457.52	2220.00
457.73	2301.92
457.93	2301.92
458.14	2205.66
458.34	2107.36
458.54	2166.75
458.75	2232.29
458.95	2383.84
459.15	2301.92
459.36	2293.72
459.56	2293.72
459.76	2463.71
459.97	2242.53
460.17	2240.48
460.37	2338.78
460.58	2263.01
460.78	2291.68
460.99	2197.47
461.19	2211.81
461.39	2220.00
461.60	2238.43
461.80	2396.12
462.00	2142.18
462.21	2242.53
462.41	2179.04
462.61	2146.27
462.82	2152.42
463.02	2373.60
463.22	2250.72
463.43	2349.02
463.63	2269.15
463.83	2424.80
464.04	2359.26
464.24	2144.22
464.44	2201.57
464.64	2289.63
464.85	2293.72
465.05	2367.45
465.25	2291.68
465.46	2191.33
465.66	2308.06
465.86	2342.88
466.07	2293.72
466.27	2285.53
466.47	2093.02
466.68	2105.31
466.88	2383.84
467.08	2308.06
467.29	2340.83
467.49	2250.72
467.69	2281.44
467.89	2310.11
468.10	2267.10
468.30	2369.50
468.50	2316.25
468.71	2340.83
468.91	2140.13
469.11	2416.60
469.31	2303.96
469.52	2166.75
469.72	2441.18
469.92	2465.75
470.13	2238.43
470.33	2289.63
470.53	2367.45
470.73	2676.70
470.94	3055.57
471.14	3059.67
471.34	3633.10
471.54	3426.25
471.75	3114.96
471.95	2734.04
472.15	2734.04
472.36	2852.82
472.56	2707.41
472.76	2635.74
472.96	2688.98
473.17	2562.01
473.37	2506.71
473.57	2322.40
473.77	2340.83
473.98	2273.25
474.18	2228.19
474.38	2613.21
474.58	2228.19
474.79	2265.05
474.99	2355.16
475.19	2414.56
475.39	2244.57
475.60	2301.92
475.80	2256.86
476.00	2297.82
476.20	2172.89
476.41	2250.72
476.61	2310.11
476.81	2387.93
477.01	2248.67
477.21	2396.12
477.42	2396.12
477.62	2185.18
477.82	2324.44
478.02	2224.09
478.23	2369.50
478.43	2170.85
478.63	2222.05
478.83	2330.59
479.03	2215.90
479.24	2371.55
479.44	2469.85
479.64	2158.56
479.84	2140.13
480.04	2222.05
480.25	2340.83
480.45	2201.57
480.65	2263.01
480.85	2453.47
481.06	2197.47
481.26	2285.53
481.46	2310.11
481.66	2279.39
481.86	2189.28
482.06	2326.49
482.27	2220.00
482.47	2267.10
482.67	2301.92
482.87	2228.19
483.07	2369.50
483.28	2220.00
483.48	2144.22
483.68	2248.67
483.88	2105.31
484.08	2082.78
484.29	2162.66
484.49	2271.20
484.69	2195.42
484.89	2461.66
485.09	2326.49
485.29	2338.78
485.50	2367.45
485.70	2306.01
485.90	2512.86
486.10	2346.97
486.30	2213.85
486.50	2383.84
486.71	2228.19
486.91	2332.64
487.11	2365.40
487.31	2121.70
487.51	2308.06
487.71	2172.89
487.91	2193.37
488.12	2164.70
488.32	1964.00
488.52	2306.01
488.72	2119.65
488.92	2324.44
489.12	2375.64
489.32	2424.80
489.53	2340.83
489.73	2193.37
489.93	2516.95
490.13	2246.62
490.33	2084.83
490.53	2375.64
490.73	2369.50
490.94	2179.04
491.14	2232.29
491.34	2359.26
491.54	2633.69
491.74	3125.20
491.94	3731.40
492.14	4159.42
492.34	4177.86
492.54	3809.22
492.75	3188.69
492.95	3129.30
493.15	2926.55
493.35	2928.60
493.55	2818.00
493.75	2652.12
493.95	2832.34
494.15	2506.71
494.35	2297.82
494.56	2334.68
494.76	2277.34
494.96	2287.58
495.16	2299.87
495.36	2281.44
495.56	2252.77
495.76	2301.92
495.96	2301.92
496.16	2238.43
496.36	2475.99
496.56	2310.11
496.77	2250.72
496.97	2250.72
497.17	2459.61
497.37	2039.78
497.57	2324.44
497.77	2293.72
497.97	2142.18
498.17	2217.95
498.37	2285.53
498.57	2277.34
498.77	2236.38
498.97	2308.06
499.17	2357.21
499.38	2195.42
499.58	2420.70
499.78	2318.30
499.98	2377.69
500.18	2285.53
500.38	2162.66
500.58	2385.88
500.78	2838.48
500.98	5150.64
501.18	7063.44
501.38	8855.42
501.58	9703.28
501.78	9623.41
501.98	7679.88
502.18	6438.81
502.38	5525.42
502.58	5066.67
502.78	4609.98
502.98	4448.19
503.18	4292.54
503.38	3798.98
503.59	3463.12
503.79	3110.86
503.99	2963.41
504.19	2822.10
504.39	2805.72
504.59	2801.62
504.79	2883.54
504.99	2760.66
505.19	2529.24
505.39	2535.39
505.59	2660.31
505.79	2494.43
505.99	2414.56
506.19	2312.16
506.39	2447.32
506.59	2269.15
506.79	2351.07
506.99	2389.98
507.19	2306.01
507.39	2308.06
507.59	2146.27
507.79	2138.08
507.99	2158.56
508.19	2293.72
508.39	2230.24
508.59	2242.53
508.79	2441.18
508.99	2512.86
509.19	2211.81
509.39	2316.25
509.59	2193.37
509.79	2211.81
509.99	2172.89
510.19	2344.92
510.39	2340.83
510.59	2246.62
510.79	2240.48
510.99	2168.80
511.19	2226.14
511.39	2449.37
511.59	2306.01
511.79	2416.60
511.99	2215.90
512.19	2475.99
512.38	2211.81
512.58	2244.57
512.78	2234.33
512.98	2367.45
513.18	2508.76
513.38	2166.75
513.58	2328.54
513.78	2306.01
513.98	2340.83
514.18	2185.18
514.38	2254.81
514.58	2273.25
514.78	2240.48
514.98	2211.81
515.18	2207.71
515.38	2191.33
515.58	2447.32
515.78	2240.48
515.98	2271.20
516.18	2277.34
516.38	2164.70
516.57	2179.04
516.77	2197.47
516.97	2308.06
517.17	2209.76
517.37	2058.21
517.57	2351.07
517.77	2357.21
517.97	2191.33
518.17	2310.11
518.37	2101.22
518.57	2181.09
518.77	2269.15
518.97	2170.85
519.16	2306.01
519.36	2367.45
519.56	2258.91
519.76	2291.68
519.96	2232.29
520.16	2420.70
520.36	2168.80
520.56	2406.36
520.76	2291.68
520.96	2232.29
521.16	2359.26
521.35	2351.07
521.55	2361.31
521.75	2269.15
521.95	2205.66
522.15	2203.61
522.35	2097.12
522.55	2146.27
522.75	2373.60
522.95	2205.66
523.14	2136.03
523.34	2279.39
523.54	2199.52
523.74	2342.88
523.94	2297.82
524.14	2127.84
524.34	2359.26
524.54	2328.54
524.73	2160.61
524.93	2338.78
525.13	2316.25
525.33	2119.65
525.53	2486.23
525.73	2306.01
525.93	2283.49
526.13	2174.94
526.32	2168.80
526.52	2375.64
526.72	2338.78
526.92	2254.81
527.12	2217.95
527.32	2213.85
527.52	2342.88
527.71	2340.83
527.91	2187.23
528.11	2187.23
528.31	2267.10
528.51	2183.13
528.71	2387.93
528.90	2289.63
529.10	2461.66
529.30	2461.66
529.50	2084.83
529.70	2342.88
529.90	2260.96
530.09	2228.19
530.29	2162.66
530.49	2168.80
530.69	2553.82
530.89	2211.81
531.09	2359.26
531.28	2215.90
531.48	2432.99
531.68	2250.72
531.88	2252.77
532.08	2396.12
532.28	2189.28
532.47	2389.98
532.67	2301.92
532.87	2332.64
533.07	2215.90
533.27	2330.59
533.46	2252.77
533.66	2324.44
533.86	2283.49
534.06	2291.68
534.26	2295.77
534.45	2172.89
534.65	2463.71
534.85	2400.22
535.05	2207.71
535.25	2363.36
535.44	2138.08
535.64	2392.03
535.84	2234.33
536.04	2201.57
536.24	2240.48
536.43	2162.66
536.63	2263.01
536.83	2285.53
537.03	2324.44
537.22	2131.94
537.42	2080.74
537.62	2291.68
537.82	2158.56
538.02	2396.12
538.21	2371.55
538.41	2576.34
538.61	2277.34
538.81	2293.72
539.00	2361.31
539.20	2103.26
539.40	2250.72
539.60	2332.64
539.79	2346.97
539.99	2275.29
540.19	2211.81
540.39	2209.76
540.58	2263.01
540.78	2357.21
540.98	2281.44
541.18	2267.10
541.37	2269.15
541.57	2256.86
541.77	2287.58
541.97	2203.61
542.16	2082.78
542.36	2170.85
542.56	2199.52
542.76	2453.47
542.95	2267.10
543.15	2299.87
543.35	2316.25
543.54	2152.42
543.74	2160.61
543.94	2410.46
544.14	2195.42
544.33	2396.12
544.53	2291.68
544.73	2271.20
544.93	2248.67
545.12	2277.34
545.32	2222.05
545.52	2226.14
545.71	2187.23
545.91	2242.53
546.11	2277.34
546.30	2187.23
546.50	2359.26
546.70	2281.44
546.90	2301.92
547.09	2146.27
547.29	2211.81
547.49	2334.68
547.68	2199.52
547.88	2209.76
548.08	2324.44
548.27	2717.65
548.47	2187.23
548.67	2215.90
548.87	2306.01
549.06	2191.33
549.26	2236.38
549.46	2273.25
549.65	2250.72
549.85	2267.10
550.05	2183.13
550.24	2162.66
550.44	2277.34
550.64	2170.85
550.83	2312.16
551.03	2246.62
551.23	2379.74
551.42	2367.45
551.62	2256.86
551.82	2240.48
552.01	2279.39
552.21	2383.84
552.41	2228.19
552.60	2371.55
552.80	2342.88
553.00	2185.18
553.19	2267.10
553.39	2510.81
553.59	2140.13
553.78	2383.84
553.98	2224.09
554.17	2179.04
554.37	2308.06
554.57	2340.83
554.76	2176.99
554.96	2181.09
555.16	2299.87
555.35	2338.78
555.55	2293.72
555.75	2367.45
555.94	2322.40
556.14	2088.93
556.33	2285.53
556.53	2267.10
556.73	2224.09
556.92	2412.51
557.12	2387.93
557.32	2365.40
557.51	2418.65
557.71	2324.44
557.90	2389.98
558.10	2422.75
558.30	2289.63
558.49	2234.33
558.69	2269.15
558.88	2248.67
559.08	2330.59
559.28	2246.62
559.47	2314.20
559.67	2357.21
559.86	2478.04
560.06	2277.34
560.26	2273.25
560.45	2326.49
560.65	2256.86
560.84	2392.03
561.04	2254.81
561.24	2301.92
561.43	2228.19
561.63	2375.64
561.82	2271.20
562.02	2349.02
562.22	2152.42
562.41	2238.43
562.61	2211.81
562.80	2203.61
563.00	2510.81
563.19	2260.96
563.39	2314.20
563.59	2463.71
563.78	2201.57
563.98	2078.69
564.17	2222.05
564.37	2199.52
564.56	2273.25
564.76	2117.60
564.96	2359.26
565.15	2260.96
565.35	2580.44
565.54	2199.52
565.74	2254.81
565.93	2400.22
566.13	2289.63
566.32	2320.35
566.52	2320.35
566.71	2316.25
566.91	2414.56
567.11	2379.74
567.30	2209.76
567.50	2322.40
567.69	2289.63
567.89	2207.71
568.08	2228.19
568.28	2351.07
568.47	2164.70
568.67	2310.11
568.86	2230.24
569.06	2267.10
569.25	2267.10
569.45	2160.61
569.64	2179.04
569.84	2199.52
570.04	2271.20
570.23	2207.71
570.43	2181.09
570.62	2293.72
570.82	2412.51
571.01	2158.56
571.21	2244.57
571.40	2193.37
571.60	2326.49
571.79	2316.25
571.99	2265.05
572.18	2185.18
572.38	2338.78
572.57	2250.72
572.77	2322.40
572.96	2588.63
573.16	2238.43
573.35	2301.92
573.55	2365.40
573.74	2373.60
573.94	2299.87
574.13	2344.92
574.33	2400.22
574.52	2322.40
574.71	2250.72
574.91	2287.58
575.10	2129.89
575.30	2195.42
575.49	2222.05
575.69	2244.57
575.88	2306.01
576.08	2314.20
576.27	2361.31
576.47	2271.20
576.66	2426.84
576.86	2473.95
577.05	2316.25
577.25	2361.31
577.44	2496.47
577.64	2203.61
577.83	2367.45
578.02	2250.72
578.22	2449.37
578.41	2498.52
578.61	2320.35
578.80	2193.37
579.00	2306.01
579.19	2258.91
579.39	2340.83
579.58	2408.41
579.77	2240.48
579.97	2416.60
580.16	2469.85
580.36	2471.90
580.55	2381.79
580.75	2312.16
580.94	2301.92
581.13	2408.41
581.33	2428.89
581.52	2217.95
581.72	2519.00
581.91	2426.84
582.11	2215.90
582.30	2389.98
582.49	2344.92
582.69	2469.85
582.88	2357.21
583.08	2265.05
583.27	2367.45
583.47	2326.49
583.66	2301.92
583.85	2140.13
584.05	2277.34
584.24	2330.59
584.44	2373.60
584.63	2400.22
584.82	2475.99
585.02	2471.90
585.21	2457.56
585.41	2392.03
585.60	2387.93
585.79	2519.00
585.99	2488.28
586.18	2523.10
586.37	2934.74
586.57	4618.17
586.76	13989.67
586.96	33351.17
587.15	47260.97
587.34	56906.91
587.54	61754.45
587.73	56616.10
587.93	39998.88
588.12	30430.77
588.31	24397.45
588.51	21046.97
588.70	19562.20
588.89	17585.91
589.09	15331.09
589.28	13100.86
589.47	10551.14
589.67	8261.51
589.86	6541.21
590.06	4775.86
590.25	3815.37
590.44	3162.06
590.64	2869.20
590.83	2596.82
591.02	2514.91
591.22	2422.75
591.41	2383.84
591.60	2328.54
591.80	2611.16
591.99	2189.28
592.18	2258.91
592.38	2322.40
592.57	2287.58
592.76	2271.20
592.96	2291.68
593.15	2220.00
593.34	2430.94
593.54	2248.67
593.73	2392.03
593.92	2334.68
594.12	2432.99
594.31	2357.21
594.50	2459.61
594.70	2355.16
594.89	2645.98
595.08	2248.67
595.28	2365.40
595.47	2668.50
595.66	2334.68
595.86	2203.61
596.05	2232.29
596.24	2291.68
596.43	2439.13
596.63	2435.03
596.82	2303.96
597.01	2424.80
597.21	2447.32
597.40	2367.45
597.59	2373.60
597.79	2334.68
597.98	2359.26
598.17	2318.30
598.36	2287.58
598.56	2383.84
598.75	2273.25
598.94	2265.05
599.14	2258.91
599.33	2203.61
599.52	2338.78
599.71	2306.01
599.91	2254.81
600.10	2301.92
600.29	2330.59
600.48	2346.97
600.68	2334.68
600.87	2332.64
601.06	2199.52
601.26	2174.94
601.45	2340.83
601.64	2285.53
601.83	2389.98
602.03	2252.77
602.22	2209.76
602.41	2346.97
602.60	2551.77
602.80	2359.26
602.99	2344.92
603.18	2228.19
603.37	2322.40
603.57	2238.43
603.76	2297.82
603.95	2299.87
604.14	2201.57
604.34	2252.77
604.53	2189.28
604.72	2338.78
604.91	2320.35
605.10	2293.72
605.30	2217.95
605.49	2527.19
605.68	2340.83
605.87	2281.44
606.07	2217.95
606.26	2428.89
606.45	2263.01
606.64	2265.05
606.84	2265.05
607.03	2316.25
607.22	2430.94
607.41	2228.19
607.60	2209.76
607.80	2430.94
607.99	2287.58
608.18	2213.85
608.37	2281.44
608.56	2263.01
608.76	2385.88
608.95	2457.56
609.14	2346.97
609.33	2475.99
609.52	2473.95
609.72	2459.61
609.91	2400.22
610.10	2338.78
610.29	2482.14
610.48	2457.56
610.68	2400.22
610.87	2224.09
611.06	2426.84
611.25	2252.77
611.44	2310.11
611.63	2217.95
611.83	2369.50
612.02	2207.71
612.21	2426.84
612.40	2101.22
612.59	2148.32
612.79	2209.76
612.98	2150.37
613.17	2412.51
613.36	2275.29
613.55	2398.17
613.74	2338.78
613.93	2408.41
614.13	2422.75
614.32	2514.91
614.51	2473.95
614.70	2344.92
614.89	2375.64
615.08	2402.27
615.28	2740.18
615.47	2236.38
615.66	2379.74
615.85	2404.32
616.04	2422.75
616.23	2301.92
616.42	2322.40
616.62	2355.16
616.81	2293.72
617.00	2242.53
617.19	2375.64
617.38	2191.33
617.57	2285.53
617.76	2365.40
617.95	2389.98
618.15	2326.49
618.34	2367.45
618.53	2195.42
618.72	2408.41
618.91	2387.93
619.10	2420.70
619.29	2293.72
619.48	2289.63
619.68	2174.94
619.87	2277.34
620.06	2111.46
620.25	2355.16
620.44	2273.25
620.63	2209.76
620.82	2283.49
621.01	2383.84
621.20	2142.18
621.39	2289.63
621.59	2283.49
621.78	2275.29
621.97	2301.92
622.16	2289.63
622.35	2293.72
622.54	2353.12
622.73	2400.22
622.92	2144.22
623.11	2306.01
623.30	2312.16
623.49	2293.72
623.68	2201.57
623.88	2400.22
624.07	2281.44
624.26	2195.42
624.45	2263.01
624.64	2281.44
624.83	2367.45
625.02	2277.34
625.21	2277.34
625.40	2285.53
625.59	2389.98
625.78	2248.67
625.97	2328.54
626.16	2486.23
626.35	2392.03
626.54	2375.64
626.74	2496.47
626.93	2355.16
627.12	2285.53
627.31	2367.45
627.50	2338.78
627.69	2338.78
627.88	2185.18
628.07	2256.86
628.26	2080.74
628.45	2181.09
628.64	2211.81
628.83	2353.12
629.02	2189.28
629.21	2312.16
629.40	2338.78
629.59	2189.28
629.78	2201.57
629.97	2289.63
630.16	2273.25
630.35	2293.72
630.54	2269.15
630.73	2228.19
630.92	2252.77
631.11	2199.52
631.30	2207.71
631.49	2379.74
631.68	2289.63
631.87	2254.81
632.06	2125.79
632.25	2475.99
632.44	2308.06
632.63	2357.21
632.82	2248.67
633.01	2293.72
633.20	2389.98
633.39	2287.58
633.58	2193.37
633.77	2349.02
633.96	2396.12
634.15	2342.88
634.34	2336.73
634.53	2338.78
634.72	2107.36
634.91	2111.46
635.10	2330.59
635.29	2389.98
635.48	2308.06
635.67	2220.00
635.86	2117.60
636.05	2392.03
636.24	2281.44
636.43	2316.25
636.62	2293.72
636.81	2115.55
637.00	2324.44
637.19	2265.05
637.38	2258.91
637.57	2248.67
637.76	2281.44
637.95	2359.26
638.14	2236.38
638.33	2459.61
638.52	2373.60
638.71	2236.38
638.89	2199.52
639.08	2488.28
639.27	2369.50
639.46	2437.08
639.65	2809.81
639.84	2850.77
640.03	2953.17
640.22	2779.09
640.41	2863.06
640.60	2482.14
640.79	2500.57
640.98	2396.12
641.17	2471.90
641.36	2465.75
641.55	2455.51
641.74	2242.53
641.92	2224.09
642.11	2238.43
642.30	2320.35
642.49	2217.95
642.68	2242.53
642.87	2306.01
643.06	2226.14
643.25	2193.37
643.44	2203.61
643.63	2240.48
643.82	2359.26
644.00	2131.94
644.19	2260.96
644.38	2136.03
644.57	2244.57
644.76	2312.16
644.95	2246.62
645.14	2295.77
645.33	2310.11
645.52	2252.77
645.71	2252.77
645.89	2146.27
646.08	2269.15
646.27	2193.37
646.46	2523.10
646.65	2125.79
646.84	2342.88
647.03	2195.42
647.22	2363.36
647.40	2297.82
647.59	2217.95
647.78	2105.31
647.97	2252.77
648.16	2170.85
648.35	2439.13
648.54	2328.54
648.73	2248.67
648.91	2324.44
649.10	2269.15
649.29	2244.57
649.48	2230.24
649.67	2316.25
649.86	2328.54
650.05	2265.05
650.23	2553.82
650.42	2318.30
650.61	2539.48
650.80	2359.26
650.99	2498.52
651.18	2445.27
651.36	2447.32
651.55	2269.15
651.74	2359.26
651.93	2260.96
652.12	2306.01
652.31	2232.29
652.49	2273.25
652.68	2265.05
652.87	2478.04
653.06	2342.88
653.25	2414.56
653.44	2273.25
653.62	2445.27
653.81	2158.56
654.00	2275.29
654.19	2342.88
654.38	2572.25
654.56	2310.11
654.75	2258.91
654.94	2389.98
655.13	2332.64
655.32	2187.23
655.51	2269.15
655.69	2164.70
655.88	2277.34
656.07	2129.89
656.26	2303.96
656.45	2138.08
656.63	2244.57
656.82	2254.81
657.01	2232.29
657.20	2236.38
657.38	2394.08
657.57	2201.57
657.76	2056.16
657.95	2377.69
658.14	2236.38
658.32	2209.76
658.51	2209.76
658.70	2246.62
658.89	2256.86
659.08	2195.42
659.26	2383.84
659.45	2260.96
659.64	2277.34
659.83	2199.52
660.01	2521.05
660.20	2316.25
660.39	2406.36
660.58	2099.17
660.76	2289.63
660.95	2119.65
661.14	2248.67
661.33	2140.13
661.51	2187.23
661.70	2252.77
661.89	2289.63
662.08	2297.82
662.26	2199.52
662.45	2172.89
662.64	2447.32
662.83	2375.64
663.01	2105.31
663.20	2244.57
663.39	2449.37
663.58	2232.29
663.76	2252.77
663.95	2336.73
664.14	2246.62
664.32	2260.96
664.51	2127.84
664.70	2088.93
664.89	2312.16
665.07	2160.61
665.26	2392.03
665.45	2133.98
665.64	2389.98
665.82	2265.05
666.01	2277.34
666.20	2160.61
666.38	2398.17
666.57	2383.84
666.76	3416.01
666.95	8243.07
667.13	16307.98
667.32	21526.20
667.51	24925.83
667.69	26691.18
667.88	24446.60
668.07	17303.29
668.25	13991.72
668.44	11501.39
668.63	10082.15
668.81	8818.55
669.00	7786.38
669.19	6977.43
669.38	6098.85
669.56	5191.60
669.75	4304.83
669.94	3616.71
670.12	3129.30
670.31	2772.95
670.50	2564.06
670.68	2523.10
670.87	2453.47
671.06	2375.64
671.24	2402.27
671.43	2482.14
671.62	2330.59
671.80	2244.57
671.99	2377.69
672.18	2310.11
672.36	2346.97
672.55	2291.68
672.74	2254.81
672.92	2291.68
673.11	2285.53
673.29	2174.94
673.48	2359.26
673.67	2265.05
673.85	2381.79
674.04	2172.89
674.23	2330.59
674.41	2443.23
674.60	2252.77
674.79	2107.36
674.97	2162.66
675.16	2359.26
675.34	2396.12
675.53	2191.33
675.72	2287.58
675.90	2428.89
676.09	2240.48
676.28	2254.81
676.46	2142.18
676.65	2308.06
676.83	2224.09
677.02	2285.53
677.21	2285.53
677.39	2265.05
677.58	2095.07
677.77	2232.29
677.95	2211.81
678.14	2205.66
678.32	2306.01
678.51	2244.57
678.70	2449.37
678.88	2222.05
679.07	2312.16
679.25	2224.09
679.44	2273.25
679.63	2138.08
679.81	2285.53
680.00	2379.74
680.18	2334.68
680.37	2330.59
680.55	2260.96
680.74	2144.22
680.93	2039.78
681.11	2232.29
681.30	2310.11
681.48	2193.37
681.67	2320.35
681.85	2232.29
682.04	2205.66
682.23	2267.10
682.41	2226.14
682.60	2220.00
682.78	2230.24
682.97	2179.04
683.15	2166.75
683.34	2281.44
683.53	2404.32
683.71	2138.08
683.90	2406.36
684.08	2420.70
684.27	2240.48
684.45	2314.20
684.64	2406.36
684.82	2236.38
685.01	2314.20
685.19	2203.61
685.38	2398.17
685.57	2287.58
685.75	2195.42
685.94	2140.13
686.12	2131.94
686.31	2258.91
686.49	2424.80
686.68	2068.45
686.86	2289.63
687.05	2291.68
687.23	2422.75
687.42	2205.66
687.60	2166.75
687.79	2346.97
687.97	2336.73
688.16	2414.56
688.34	2406.36
688.53	2054.11
688.71	2277.34
688.90	2494.43
689.08	2342.88
689.27	2097.12
689.45	2289.63
689.64	2308.06
689.82	2252.77
690.01	2285.53
690.19	2334.68
690.38	2244.57
690.56	2385.88
690.75	2222.05
690.93	2179.04
691.12	2232.29
691.30	2267.10
691.49	2199.52
691.67	2269.15
691.86	2412.51
692.04	2310.11
692.23	2250.72
692.41	2265.05
692.60	2494.43
692.78	2389.98
692.97	2344.92
693.15	2355.16
693.34	2432.99
693.52	2367.45
693.71	2244.57
693.89	2224.09
694.08	2109.41
694.26	2351.07
694.44	2346.97
694.63	2359.26
694.81	2189.28
695.00	2129.89
695.18	2371.55
695.37	2494.43
695.55	2334.68
695.74	2203.61
695.92	2179.04
696.10	2418.65
696.29	2195.42
696.47	2166.75
696.66	2209.76
696.84	2183.13
697.03	2277.34
697.21	2410.46
697.40	3346.38
697.58	2467.80
697.76	2215.90
697.95	2213.85
698.13	2187.23
698.32	2172.89
698.50	2232.29
698.68	2263.01
698.87	2318.30
699.05	2486.23
699.24	2230.24
699.42	2119.65
699.61	2281.44
699.79	2193.37
699.97	2258.91
700.16	2187.23
700.34	2117.60
700.53	2367.45
700.71	2416.60
700.89	2279.39
701.08	2138.08
701.26	2256.86
701.45	2793.43
701.63	2174.94
701.81	2260.96
702.00	2232.29
702.18	2254.81
702.37	2285.53
702.55	2475.99
702.73	2465.75
702.92	2375.64
703.10	2478.04
703.28	2498.52
703.47	2306.01
703.65	2506.71
703.84	2406.36
704.02	2252.77
704.20	2408.41
704.39	2254.81
704.57	2250.72
704.75	2367.45
704.94	2394.08
705.12	2267.10
705.30	2613.21
705.49	4470.72
705.67	10501.98
705.86	18114.28
706.04	21970.61
706.22	25304.70
706.41	26242.67
706.59	22048.43
706.77	15628.05
706.96	13147.96
707.14	11630.41
707.32	9873.26
707.51	9011.06
707.69	7337.87
707.87	6006.69
708.06	4800.44
708.24	3977.16
708.42	3178.45
708.61	3067.86
708.79	2422.75
708.97	2394.08
709.16	2394.08
709.34	2346.97
709.52	2168.80
709.71	2334.68
709.89	2312.16
710.07	2209.76
710.26	2248.67
710.44	2240.48
710.62	2287.58
710.80	2211.81
710.99	2334.68
711.17	2365.40
711.35	2185.18
711.54	2150.37
711.72	2338.78
711.90	2244.57
712.09	2314.20
712.27	2222.05
712.45	2277.34
712.63	2215.90
712.82	2158.56
713.00	2265.05
713.18	2285.53
713.37	2367.45
713.55	2355.16
713.73	2346.97
713.91	2248.67
714.10	2205.66
714.28	2174.94
714.46	2281.44
714.65	2308.06
714.83	2195.42
715.01	2287.58
715.19	2310.11
715.38	2082.78
715.56	2328.54
715.74	2236.38
715.92	2248.67
716.11	2318.30
716.29	2185.18
716.47	2199.52
716.65	2250.72
716.84	2068.45
717.02	2338.78
717.20	2068.45
717.38	2226.14
717.57	2252.77
717.75	2199.52
717.93	2250.72
718.11	2340.83
718.30	2095.07
718.48	2314.20
718.66	2349.02
718.84	2332.64
719.03	2125.79
719.21	2121.70
719.39	2383.84
719.57	2330.59
719.75	2375.64
719.94	2162.66
720.12	2273.25
720.30	2265.05
720.48	2322.40
720.67	2205.66
720.85	2133.98
721.03	2142.18
721.21	2138.08
721.39	2400.22
721.58	2314.20
721.76	2209.76
721.94	2351.07
722.12	2230.24
722.30	2426.84
722.49	2281.44
722.67	2267.10
722.85	2275.29
723.03	2088.93
723.21	2172.89
723.40	2299.87
723.58	2318.30
723.76	2344.92
723.94	2367.45
724.12	2316.25
724.30	2496.47
724.49	2394.08
724.67	2234.33
724.85	2439.13
725.03	2230.24
725.21	2363.36
725.40	2414.56
725.58	2103.26
725.76	2340.83
725.94	2273.25
726.12	2179.04
726.30	2285.53
726.49	2252.77
726.67	2207.71
726.85	2379.74
727.03	2609.11
727.21	3522.51
727.39	4978.61
727.57	5877.67
727.76	6551.45
727.94	6772.63
728.12	6348.70
728.30	5236.66
728.48	4413.37
728.66	4085.70
728.84	3702.73
729.03	3194.83
729.21	2895.83
729.39	2662.36
729.57	2488.28
729.75	2353.12
729.93	2420.70
730.11	2248.67
730.30	2193.37
730.48	2267.10
730.66	2396.12
730.84	2310.11
731.02	2285.53
731.20	2146.27
731.38	2367.45
731.56	2142.18
731.74	2119.65
731.93	2299.87
732.11	2220.00
732.29	2220.00
732.47	2318.30
732.65	2258.91
732.83	2371.55
733.01	2260.96
733.19	2181.09
733.37	2312.16
733.56	2314.20
733.74	2199.52
733.92	2379.74
734.10	2252.77
734.28	2293.72
734.46	2074.59
734.64	2265.05
734.82	2238.43
735.00	2203.61
735.18	2242.53
735.36	2277.34
735.54	2236.38
735.73	2256.86
735.91	2215.90
736.09	2387.93
736.27	2250.72
736.45	2289.63
736.63	2090.98
736.81	2183.13
736.99	2322.40
737.17	2389.98
737.35	2226.14
737.53	2236.38
737.71	2260.96
737.89	2387.93
738.07	2154.46
738.25	2119.65
738.43	2105.31
738.61	2193.37
738.80	2117.60
738.98	2121.70
739.16	2228.19
739.34	2207.71
739.52	2351.07
739.70	2306.01
739.88	2328.54
740.06	2404.32
740.24	2070.50
740.42	2340.83
740.60	2080.74
740.78	2142.18
740.96	2015.20
741.14	2232.29
741.32	2236.38
741.50	2150.37
741.68	2459.61
741.86	2400.22
742.04	2101.22
742.22	2072.54
742.40	2217.95
742.58	2314.20
742.76	2199.52
742.94	2375.64
743.12	2113.50
743.30	2285.53
743.48	2295.77
743.66	2226.14
743.84	2275.29
744.02	2228.19
744.20	2220.00
744.38	2207.71
744.56	2144.22
744.74	2500.57
744.92	2387.93
745.10	2359.26
745.28	2297.82
745.46	2379.74
745.64	2220.00
745.82	2342.88
746.00	2299.87
746.18	2277.34
746.36	2146.27
746.54	2324.44
746.72	2275.29
746.90	2179.04
747.08	2363.36
747.26	2211.81
747.44	2277.34
747.62	2217.95
747.80	2355.16
747.98	2326.49
748.15	2232.29
748.33	2432.99
748.51	2299.87
748.69	2330.59
748.87	2187.23
749.05	2234.33
749.23	2260.96
749.41	2418.65
749.59	2199.52
749.77	2406.36
749.95	2256.86
750.13	2187.23
750.31	2273.25
750.49	2217.95
750.67	2414.56
750.85	2349.02
751.03	2260.96
751.20	2580.44
751.38	2269.15
751.56	2152.42
751.74	2281.44
751.92	2205.66
752.10	2076.64
752.28	2396.12
752.46	2150.37
752.64	2191.33
752.82	2170.85
753.00	2351.07
753.18	2207.71
753.35	2248.67
753.53	2207.71
753.71	2273.25
753.89	2310.11
754.07	2228.19
754.25	2306.01
754.43	2293.72
754.61	2125.79
754.79	2324.44
754.97	2211.81
755.14	2349.02
755.32	2236.38
755.50	2240.48
755.68	2281.44
755.86	2234.33
756.04	2301.92
756.22	2088.93
756.40	2408.41
756.57	2465.75
756.75	2228.19
756.93	2334.68
757.11	2312.16
757.29	2226.14
757.47	2215.90
757.65	2105.31
757.82	2105.31
758.00	2127.84
758.18	2138.08
758.36	2189.28
758.54	2342.88
758.72	2164.70
758.90	2295.77
759.07	2338.78
759.25	2191.33
759.43	2336.73
759.61	2162.66
759.79	3104.72
759.97	2359.26
760.15	2183.13
760.32	2207.71
760.50	2260.96
760.68	2475.99
760.86	2080.74
761.04	2367.45
761.22	2244.57
761.39	2338.78
761.57	2269.15
761.75	2279.39
761.93	2291.68
762.11	2213.85
762.28	2318.30
762.46	2111.46
762.64	2355.16
762.82	2119.65
763.00	2191.33
763.18	2408.41
763.35	2138.08
763.53	2301.92
763.71	2252.77
763.89	2168.80
764.07	2228.19
764.24	2308.06
764.42	2328.54
764.60	2172.89
764.78	2375.64
764.96	2463.71
765.13	2332.64
765.31	2224.09
765.49	2269.15
765.67	2207.71
765.84	2271.20
766.02	2189.28
766.20	2072.54
766.38	2334.68
766.56	2260.96
766.73	2310.11
766.91	2281.44
767.09	2320.35
767.27	2297.82
767.44	2144.22
767.62	2314.20
767.80	2277.34
767.98	2138.08
768.15	2152.42
768.33	2375.64
768.51	2271.20
768.69	2256.86
768.87	2293.72
769.04	2344.92
769.22	2449.37
769.40	2349.02
769.58	2531.29
769.75	2322.40
769.93	2375.64
770.11	2277.34
770.28	2277.34
770.46	2285.53
770.64	2281.44
770.82	2211.81
770.99	2211.81
771.17	2242.53
771.35	2236.38
771.53	2109.41
771.70	2166.75
771.88	2353.12
772.06	2291.68
772.23	2260.96
772.41	2224.09
772.59	2250.72
772.77	2199.52
772.94	2248.67
773.12	2226.14
773.30	2146.27
773.47	2256.86
773.65	2211.81
773.83	2271.20
774.01	2248.67
774.18	2084.83
774.36	2232.29
774.54	2144.22
774.71	2199.52
774.89	2117.60
775.07	2193.37
775.24	2197.47
775.42	2217.95
775.60	2475.99
775.78	2215.90
775.95	2150.37
776.13	2097.12
776.31	2025.44
776.48	2250.72
776.66	2330.59
776.84	2172.89
777.01	2080.74
777.19	2201.57
777.37	2211.81
777.54	2316.25
777.72	2471.90
777.90	2228.19
778.07	2160.61
778.25	2523.10
778.43	2326.49
778.60	2207.71
778.78	2277.34
778.96	2392.03
779.13	2152.42
779.31	2322.40
779.49	2260.96
779.66	2277.34
779.84	2275.29
780.01	2228.19
780.19	2078.69
780.37	2389.98
780.54	2379.74
780.72	2142.18
780.90	2179.04
781.07	2185.18
781.25	2123.74
781.43	2318.30
781.60	2226.14
781.78	2355.16
781.95	2361.31
782.13	2228.19
782.31	2205.66
782.48	2103.26
782.66	2220.00
782.83	2392.03
783.01	2398.17
783.19	2269.15
783.36	2260.96
783.54	2179.04
783.72	2332.64
783.89	2240.48
784.07	2254.81
784.24	2295.77
784.42	2404.32
784.60	2324.44
784.77	2209.76
784.95	2095.07
785.12	2187.23
785.30	2344.92
785.47	2154.46
785.65	2176.99
785.83	2256.86
786.00	2293.72
786.18	2318.30
786.35	2191.33
786.53	2133.98
786.71	2293.72
786.88	2346.97
787.06	2301.92
787.23	2256.86
787.41	2158.56
787.58	2121.70
787.76	2113.50
787.94	2258.91
788.11	2265.05
788.29	2207.71
788.46	2170.85
788.64	2111.46
788.81	2205.66
788.99	2109.41
789.16	2133.98
789.34	2244.57
789.52	2211.81
789.69	2244.57
789.87	2160.61
790.04	2205.66
790.22	2263.01
790.39	2455.51
790.57	2109.41
790.74	2199.52
790.92	2318.30
791.09	2088.93
791.27	2215.90
791.44	2324.44
791.62	2183.13
791.79	2359.26
791.97	2269.15
792.15	2539.48
792.32	2281.44
792.50	2363.36
792.67	2414.56
792.85	2402.27
793.02	2275.29
793.20	2228.19
793.37	2162.66
793.55	2203.61
793.72	2127.84
793.90	2318.30
794.07	2152.42
794.25	2203.61
794.42	2265.05
794.60	2150.37
794.77	2328.54
794.95	2342.88
795.12	2334.68
795.30	2203.61
795.47	2105.31
795.65	2482.14
795.82	2314.20
796.00	2203.61
796.17	2179.04
796.34	2160.61
796.52	2269.15
796.69	2357.21
796.87	2340.83
797.04	2277.34
797.22	2379.74
797.39	2283.49
797.57	2297.82
797.74	2310.11
797.92	2316.25
798.09	2240.48
798.27	2338.78
798.44	2220.00
798.62	2140.13
798.79	2242.53
798.96	2234.33
799.14	2203.61
799.31	2523.10
799.49	2185.18
799.66	2191.33
799.84	2252.77
800.01	2093.02
800.19	2240.48
800.36	2080.74
800.53	2283.49
800.71	2213.85
800.88	2432.99
801.06	2189.28
801.23	2166.75
801.41	2211.81
801.58	2224.09
801.75	2254.81
801.93	2238.43
802.10	2273.25
802.28	2244.57
802.45	2179.04
802.63	2330.59
802.80	2375.64
802.97	2185.18
803.15	2310.11
803.32	2176.99
803.50	2275.29
803.67	2189.28
803.84	2138.08
804.02	2310.11
804.19	2164.70
804.37	1984.48
804.54	2174.94
804.71	2232.29
804.89	2224.09
805.06	2113.50
805.24	2189.28
805.41	2111.46
805.58	2195.42
805.76	2453.47
805.93	2236.38
806.10	2418.65
806.28	2295.77
806.45	2293.72
806.63	2197.47
806.80	2244.57
806.97	2301.92
807.15	2301.92
807.32	2273.25
807.49	2215.90
807.67	2176.99
807.84	2281.44
808.01	2088.93
808.19	2506.71
808.36	2539.48
808.54	2242.53
808.71	2211.81
808.88	2281.44
809.06	2308.06
809.23	2408.41
809.40	2224.09
809.58	2271.20
809.75	2260.96
809.92	2099.17
810.10	2443.23
810.27	2220.00
810.44	2320.35
810.62	2310.11
810.79	2299.87
810.96	2168.80
811.14	2193.37
811.31	2301.92
811.48	2269.15
811.66	2205.66
811.83	2410.46
812.00	2275.29
812.18	2267.10
812.35	2494.43
812.52	2209.76
812.69	2242.53
812.87	2275.29
813.04	2158.56
813.21	2209.76
813.39	2207.71
813.56	2181.09
813.73	2283.49
813.91	2064.35
814.08	2193.37
814.25	2338.78
814.42	2179.04
814.60	2150.37
814.77	2248.67
814.94	2183.13
815.12	2281.44
815.29	2412.51
815.46	2236.38
815.63	2308.06
815.81	2195.42
815.98	2164.70
816.15	2279.39
816.33	2252.77
816.50	2195.42
816.67	2267.10
816.84	2256.86
817.02	2201.57
817.19	2179.04
817.36	2260.96
817.53	2396.12
817.71	2142.18
817.88	2310.11
818.05	2215.90
818.22	2232.29
818.40	2463.71
818.57	2211.81
818.74	2215.90
818.91	2224.09
819.09	2283.49
819.26	2346.97
819.43	2187.23
819.60	2144.22
819.78	2363.36
819.95	2295.77
820.12	2084.83
820.29	2498.52
820.47	2293.72
820.64	2189.28
820.81	2082.78
820.98	2174.94
821.15	2211.81
821.33	2377.69
821.50	2211.81
821.67	2349.02
821.84	2232.29
822.02	2308.06
822.19	2318.30
822.36	2205.66
822.53	2217.95
822.70	2125.79
822.88	2209.76
823.05	2406.36
823.22	2256.86
823.39	2351.07
823.56	2248.67
823.74	2521.05
823.91	2150.37
824.08	2191.33
824.25	2115.55
824.42	2363.36
824.60	2154.46
824.77	2234.33
824.94	2232.29
825.11	2359.26
825.28	2068.45
825.45	2199.52
825.63	2277.34
825.80	2191.33
825.97	2250.72
826.14	2197.47
826.31	2121.70
826.48	2318.30
826.66	2193.37
826.83	2242.53
827.00	2213.85
827.17	2187.23
827.34	2228.19
827.51	2181.09
827.69	2234.33
827.86	2093.02
828.03	2162.66
828.20	2199.52
828.37	2199.52
828.54	2246.62
828.71	2174.94
828.89	2340.83
829.06	2191.33
829.23	2375.64
829.40	2152.42
829.57	2127.84
829.74	2371.55
829.91	2183.13
830.09	2215.90
830.26	2256.86
830.43	2379.74
830.60	2271.20
830.77	2310.11
830.94	2359.26
831.11	2371.55
831.28	2226.14
831.46	2299.87
831.63	2222.05
831.80	2322.40
831.97	2179.04
832.14	2199.52
832.31	2289.63
832.48	2291.68
832.65	2306.01
832.82	2320.35
832.99	2353.12
833.17	2162.66
833.34	2488.28
833.51	2285.53
833.68	2072.54
833.85	2355.16
834.02	2113.50
834.19	2222.05
834.36	2109.41
834.53	2246.62
834.70	2385.88
834.87	2406.36
835.04	2121.70
835.22	2123.74
835.39	2224.09
835.56	2062.30
835.73	2242.53
835.90	2367.45
836.07	2197.47
836.24	2301.92
836.41	2109.41
836.58	2203.61
836.75	2351.07
836.92	2187.23
837.09	2179.04
837.26	2310.11
837.43	2265.05
837.60	2291.68
837.77	2189.28
837.94	2258.91
838.12	2439.13
838.29	2170.85
838.46	2123.74
838.63	2113.50
838.80	2420.70
838.97	2303.96
839.14	2215.90
839.31	2191.33
839.48	2389.98
839.65	2170.85
839.82	2318.30
839.99	2301.92
840.16	2260.96
840.33	2101.22
840.50	2240.48
840.67	2207.71
840.84	2025.44
841.01	2205.66
841.18	2101.22
841.35	2242.53
841.52	2363.36
841.69	2385.88
841.86	2176.99
842.03	2189.28
842.20	2351.07
842.37	2189.28
842.54	2105.31
842.71	2277.34
842.88	1976.29
843.05	2215.90
843.22	2342.88
843.39	2308.06
843.56	2152.42
843.73	2172.89
843.90	2220.00
844.07	2220.00
844.24	2256.86
844.41	2308.06
844.58	2250.72
844.75	2236.38
844.92	2303.96
845.09	2205.66
845.26	2201.57
845.43	2367.45
845.60	2222.05
845.77	2289.63
845.94	2232.29
846.10	2377.69
846.27	2138.08
846.44	2097.12
846.61	2133.98
846.78	2312.16
846.95	2412.51
847.12	2154.46
847.29	2207.71
847.46	2195.42
847.63	2334.68
847.80	2121.70
847.97	2224.09
848.14	2451.42
848.31	2316.25
848.48	2097.12
848.65	2281.44
848.82	2220.00
848.98	2551.77
849.15	2220.00
849.32	2334.68
849.49	2371.55
849.66	2226.14
849.83	2242.53
850.00	2136.03
850.17	2291.68
850.34	2138.08
850.51	2127.84
850.68	2205.66
850.85	2498.52
851.01	2250.72
851.18	2213.85
851.35	2172.89
851.52	2281.44
851.69	2389.98
851.86	2133.98
852.03	2166.75
852.20	2324.44
852.37	2213.85
852.53	2052.06
852.70	2275.29
852.87	2273.25
853.04	2260.96
853.21	2224.09
853.38	2275.29
853.55	2400.22
853.72	2387.93
853.89	2103.26
854.05	2144.22
854.22	2217.95
854.39	2113.50
854.56	2232.29
854.73	2293.72
854.90	2209.76
855.07	2226.14
855.23	2205.66
855.40	2217.95
855.57	2195.42
855.74	2105.31
855.91	2383.84
856.08	2142.18
856.25	2136.03
856.41	2193.37
856.58	2138.08
856.75	2242.53
856.92	2121.70
857.09	2379.74
857.26	2080.74
857.42	2238.43
857.59	2346.97
857.76	2187.23
857.93	2138.08
858.10	2269.15
858.27	2168.80
858.43	2211.81
858.60	2193.37
858.77	2121.70
858.94	2215.90
859.11	2414.56
859.27	2185.18
859.44	2185.18
859.61	2480.09
859.78	2324.44
859.95	2203.61
860.12	2211.81
860.28	2555.86
860.45	2383.84
860.62	2191.33
860.79	2244.57
860.95	2226.14
861.12	2146.27
861.29	2162.66
861.46	2154.46
861.63	2260.96
861.79	2228.19
861.96	2119.65
862.13	2172.89
862.30	2394.08
862.47	2168.80
862.63	2123.74
862.80	2271.20
862.97	2310.11
863.14	2344.92
863.30	2230.24
863.47	2193.37
863.64	2412.51
863.81	2228.19
863.97	2203.61
864.14	2324.44
864.31	2263.01
864.48	2289.63
864.65	2187.23
864.81	2342.88
864.98	2312.16
865.15	2291.68
865.32	2199.52
865.48	2291.68
865.65	2396.12
865.82	2242.53
865.98	2283.49
866.15	2287.58
866.32	2150.37
866.49	2209.76
866.65	2324.44
866.82	2113.50
866.99	2285.53
867.16	2195.42
867.32	2195.42
867.49	2246.62
867.66	2220.00
867.83	2236.38
867.99	2060.26
868.16	2203.61
868.33	2058.21
868.49	2269.15
868.66	2207.71
868.83	2267.10
868.99	2291.68
869.16	2303.96
869.33	2258.91
869.50	2275.29
869.66	2269.15
869.83	2222.05
870.00	2062.30
870.16	2246.62
870.33	2197.47
870.50	2236.38
870.66	2267.10
870.83	2328.54
871.00	2166.75
871.17	2297.82
871.33	2226.14
871.50	2224.09
871.67	2277.34
871.83	2133.98
872.00	2338.78
872.17	2234.33
872.33	2453.47
872.50	2340.83
872.67	2156.51
872.83	2168.80
873.00	2306.01
873.17	2246.62
873.33	2269.15
873.50	2252.77
873.67	2160.61
873.83	2097.12
874.00	2244.57
874.16	2267.10
874.33	2224.09
874.50	2121.70
874.66	2226.14
874.83	2220.00
875.00	2408.41
875.16	2310.11
875.33	2277.34
875.50	1998.82
875.66	2254.81
875.83	2260.96
875.99	2277.34
876.16	2217.95
876.33	2127.84
876.49	2256.86
876.66	2283.49
876.83	2129.89
876.99	2068.45
877.16	2131.94
877.32	2154.46
877.49	2209.76
877.66	2342.88
877.82	2381.79
877.99	2174.94
878.15	2363.36
878.32	2299.87
878.49	2277.34
878.65	2207.71
878.82	2312.16
878.98	2203.61
879.15	2367.45
879.32	2310.11
879.48	2215.90
879.65	2248.67
879.81	2195.42
879.98	2187.23
880.15	2146.27
880.31	2250.72
880.48	2183.13
880.64	2326.49
880.81	2224.09
880.97	2414.56
881.14	2279.39
881.31	2160.61
881.47	2385.88
881.64	2220.00
881.80	2072.54
881.97	2236.38
882.13	2260.96
882.30	2172.89
882.47	2232.29
882.63	2097.12
882.80	2195.42
882.96	2150.37
883.13	2381.79
883.29	2205.66
883.46	2224.09
883.62	2467.80
883.79	2238.43
883.95	2217.95
884.12	2244.57
884.29	2326.49
884.45	2283.49
884.62	2297.82
884.78	2154.46
884.95	2392.03
885.11	2199.52
885.28	2301.92
885.44	2138.08
885.61	2359.26
885.77	2359.26
885.94	2285.53
886.10	2191.33
886.27	2258.91
886.43	2402.27
886.60	2295.77
886.76	2146.27
886.93	2152.42
887.09	2271.20
887.26	2179.04
887.42	2271.20
887.59	2297.82
887.75	2426.84
887.92	2334.68
888.08	2332.64
888.25	2441.18
888.41	2355.16
888.58	2220.00
888.74	2097.12
888.91	2240.48
>>>>>End Processed Spectral Data<<<<<
