SpectraSuite Data File
++++++++++++++++++++++++++++++++++++
Date: Thu May 05 13:20:45 CEST 2016
User: root
Dark Spectrum Present: No
Reference Spectrum Present: No
Number of Sampled Component Spectra: 1
Spectrometers: USB4C02835
Integration Time (usec): 100000 (USB4C02835)
Spectra Averaged: 1 (USB4C02835)
Boxcar Smoothing: 0 (USB4C02835)
Correct for Electrical Dark: No (USB4C02835)
Strobe/Lamp Enabled: No (USB4C02835)
Correct for Detector Non-linearity: No (USB4C02835)
Correct for Stray Light: No (USB4C02835)
Number of Pixels in Processed Spectrum: 3648
>>>>>Begin Processed Spectral Data<<<<<
177.47	1800.16
177.69	1800.16
177.91	1800.16
178.13	1865.70
178.36	1816.55
178.58	2080.74
178.80	2328.54
179.02	2111.46
179.24	2146.27
179.46	2168.80
179.68	2267.10
179.90	2183.13
180.13	2201.57
180.35	2140.13
180.57	2125.79
180.79	2318.30
181.01	2242.53
181.23	2273.25
181.45	2275.29
181.67	2365.40
181.90	2293.72
182.12	2152.42
182.34	2150.37
182.56	2297.82
182.78	2242.53
183.00	2179.04
183.22	2187.23
183.44	2150.37
183.66	2568.15
183.89	2301.92
184.11	2176.99
184.33	2308.06
184.55	2357.21
184.77	2275.29
184.99	2252.77
185.21	2179.04
185.43	2478.04
185.65	2193.37
185.87	2152.42
186.10	2480.09
186.32	2457.56
186.54	2236.38
186.76	2285.53
186.98	2353.12
187.20	2217.95
187.42	2162.66
187.64	2201.57
187.86	2293.72
188.08	2312.16
188.30	2146.27
188.52	2220.00
188.75	2424.80
188.97	2328.54
189.19	2129.89
189.41	2127.84
189.63	2328.54
189.85	2224.09
190.07	2047.97
190.29	2054.11
190.51	2281.44
190.73	2080.74
190.95	2326.49
191.17	2215.90
191.39	2183.13
191.61	2244.57
191.84	2179.04
192.06	2220.00
192.28	2119.65
192.50	2500.57
192.72	2250.72
192.94	2211.81
193.16	2285.53
193.38	2271.20
193.60	2121.70
193.82	2189.28
194.04	2293.72
194.26	2295.77
194.48	2193.37
194.70	2150.37
194.92	2273.25
195.14	2346.97
195.36	2136.03
195.58	2265.05
195.80	2226.14
196.02	2211.81
196.24	2162.66
196.46	2258.91
196.69	2160.61
196.91	2582.49
197.13	2203.61
197.35	2158.56
197.57	2406.36
197.79	2267.10
198.01	2236.38
198.23	2201.57
198.45	2287.58
198.67	2217.95
198.89	2082.78
199.11	2248.67
199.33	2197.47
199.55	2088.93
199.77	2166.75
199.99	2318.30
200.21	2240.48
200.43	2232.29
200.65	2127.84
200.87	2023.39
201.09	2293.72
201.31	2215.90
201.53	2250.72
201.75	2277.34
201.97	2244.57
202.19	2269.15
202.41	2275.29
202.63	2439.13
202.85	2299.87
203.07	2248.67
203.29	2215.90
203.51	2074.59
203.73	2230.24
203.95	2578.39
204.17	2228.19
204.39	2230.24
204.61	2191.33
204.83	2234.33
205.05	2215.90
205.27	2217.95
205.49	2430.94
205.71	2238.43
205.93	2138.08
206.15	2138.08
206.37	2318.30
206.59	2226.14
206.81	2060.26
207.03	2043.87
207.25	2158.56
207.47	2289.63
207.69	2156.51
207.91	2342.88
208.13	2342.88
208.34	2197.47
208.56	2113.50
208.78	2285.53
209.00	2244.57
209.22	2222.05
209.44	2179.04
209.66	2113.50
209.88	2273.25
210.10	2240.48
210.32	2119.65
210.54	2279.39
210.76	2207.71
210.98	2387.93
211.20	2039.78
211.42	2289.63
211.64	2412.51
211.86	2295.77
212.08	2176.99
212.30	2193.37
212.52	2265.05
212.74	2275.29
212.96	2215.90
213.17	2203.61
213.39	2359.26
213.61	2392.03
213.83	2176.99
214.05	2158.56
214.27	2379.74
214.49	2148.32
214.71	2195.42
214.93	2263.01
215.15	2299.87
215.37	2250.72
215.59	2072.54
215.81	2199.52
216.03	2349.02
216.24	2244.57
216.46	2179.04
216.68	2297.82
216.90	2375.64
217.12	2406.36
217.34	2201.57
217.56	2244.57
217.78	2383.84
218.00	2322.40
218.22	2189.28
218.44	2265.05
218.66	2285.53
218.87	2392.03
219.09	2168.80
219.31	2154.46
219.53	2277.34
219.75	2148.32
219.97	2129.89
220.19	2152.42
220.41	2230.24
220.63	2346.97
220.85	2228.19
221.06	2222.05
221.28	2422.75
221.50	2269.15
221.72	2195.42
221.94	2138.08
222.16	2211.81
222.38	2283.49
222.60	2228.19
222.82	2248.67
223.03	2359.26
223.25	2195.42
223.47	2228.19
223.69	2322.40
223.91	2334.68
224.13	2275.29
224.35	2125.79
224.57	2271.20
224.78	2340.83
225.00	2158.56
225.22	2174.94
225.44	2105.31
225.66	2363.36
225.88	2244.57
226.10	2220.00
226.32	2230.24
226.53	2449.37
226.75	2152.42
226.97	2131.94
227.19	2150.37
227.41	2203.61
227.63	2199.52
227.85	2072.54
228.06	2256.86
228.28	2277.34
228.50	2226.14
228.72	2148.32
228.94	2097.12
229.16	2019.30
229.37	2095.07
229.59	2160.61
229.81	2361.31
230.03	2195.42
230.25	2185.18
230.47	2037.73
230.69	2095.07
230.90	2334.68
231.12	2176.99
231.34	2191.33
231.56	2287.58
231.78	2193.37
232.00	2289.63
232.21	2179.04
232.43	2162.66
232.65	2086.88
232.87	2342.88
233.09	2095.07
233.30	2129.89
233.52	2277.34
233.74	2193.37
233.96	2146.27
234.18	2306.01
234.40	2234.33
234.61	2484.19
234.83	2072.54
235.05	2090.98
235.27	2473.95
235.49	2445.27
235.70	2088.93
235.92	2334.68
236.14	2283.49
236.36	2469.85
236.58	2072.54
236.79	2226.14
237.01	2320.35
237.23	2297.82
237.45	2351.07
237.67	2129.89
237.88	2355.16
238.10	2422.75
238.32	2150.37
238.54	2148.32
238.76	2187.23
238.97	2179.04
239.19	2193.37
239.41	2228.19
239.63	2353.12
239.85	2205.66
240.06	2181.09
240.28	2244.57
240.50	2342.88
240.72	2252.77
240.93	2217.95
241.15	2248.67
241.37	2199.52
241.59	2400.22
241.81	2179.04
242.02	2201.57
242.24	2285.53
242.46	2269.15
242.68	2039.78
242.89	2172.89
243.11	2267.10
243.33	2242.53
243.55	2203.61
243.76	2201.57
243.98	2211.81
244.20	2211.81
244.42	2193.37
244.64	2189.28
244.85	2107.36
245.07	2158.56
245.29	2287.58
245.51	2129.89
245.72	2287.58
245.94	2355.16
246.16	2170.85
246.38	2285.53
246.59	2156.51
246.81	2164.70
247.03	2160.61
247.24	2095.07
247.46	2160.61
247.68	2220.00
247.90	2156.51
248.11	2193.37
248.33	2371.55
248.55	2267.10
248.77	2174.94
248.98	2207.71
249.20	2412.51
249.42	2260.96
249.64	2179.04
249.85	2207.71
250.07	2232.29
250.29	2301.92
250.50	2283.49
250.72	2056.16
250.94	2203.61
251.16	2400.22
251.37	2193.37
251.59	2199.52
251.81	2293.72
252.02	2412.51
252.24	2144.22
252.46	2332.64
252.68	2240.48
252.89	2228.19
253.11	2140.13
253.33	2293.72
253.54	2447.32
253.76	2172.89
253.98	2207.71
254.20	2236.38
254.41	2197.47
254.63	2260.96
254.85	2074.59
255.06	2293.72
255.28	2301.92
255.50	2310.11
255.71	2199.52
255.93	2015.20
256.15	2174.94
256.36	2260.96
256.58	2154.46
256.80	2215.90
257.02	2146.27
257.23	2193.37
257.45	2191.33
257.67	2201.57
257.88	2211.81
258.10	2326.49
258.32	2154.46
258.53	2187.23
258.75	2400.22
258.97	2220.00
259.18	2138.08
259.40	2123.74
259.62	2451.42
259.83	2355.16
260.05	2179.04
260.27	2701.27
260.48	2383.84
260.70	2232.29
260.92	2162.66
261.13	2156.51
261.35	2293.72
261.57	2277.34
261.78	2093.02
262.00	2056.16
262.22	2291.68
262.43	2166.75
262.65	2195.42
262.86	2220.00
263.08	2457.56
263.30	2211.81
263.51	2078.69
263.73	2211.81
263.95	2412.51
264.16	2271.20
264.38	2107.36
264.60	2193.37
264.81	2285.53
265.03	2318.30
265.25	2328.54
265.46	2136.03
265.68	2310.11
265.89	2351.07
266.11	2095.07
266.33	2209.76
266.54	2420.70
266.76	2287.58
266.98	2254.81
267.19	2287.58
267.41	2334.68
267.62	2199.52
267.84	2052.06
268.06	2271.20
268.27	2275.29
268.49	2361.31
268.70	2211.81
268.92	2215.90
269.14	2154.46
269.35	2154.46
269.57	2181.09
269.79	2258.91
270.00	2115.55
270.22	2369.50
270.43	2086.88
270.65	2084.83
270.87	2258.91
271.08	2301.92
271.30	2203.61
271.51	2203.61
271.73	2291.68
271.95	2314.20
272.16	2113.50
272.38	2228.19
272.59	2211.81
272.81	2383.84
273.02	2187.23
273.24	2179.04
273.46	2424.80
273.67	2181.09
273.89	2117.60
274.10	2138.08
274.32	2410.46
274.54	2271.20
274.75	2269.15
274.97	2179.04
275.18	2293.72
275.40	2263.01
275.61	2136.03
275.83	2301.92
276.05	2105.31
276.26	2215.90
276.48	2191.33
276.69	2224.09
276.91	2211.81
277.12	2416.60
277.34	2181.09
277.55	2291.68
277.77	2273.25
277.99	2318.30
278.20	2123.74
278.42	2170.85
278.63	2203.61
278.85	2105.31
279.06	2084.83
279.28	2267.10
279.49	2269.15
279.71	2322.40
279.93	2252.77
280.14	2203.61
280.36	2148.32
280.57	2346.97
280.79	2285.53
281.00	2133.98
281.22	2220.00
281.43	2402.27
281.65	2054.11
281.86	2156.51
282.08	2293.72
282.29	2471.90
282.51	2107.36
282.73	2125.79
282.94	2105.31
283.16	2310.11
283.37	2365.40
283.59	2242.53
283.80	2285.53
284.02	2234.33
284.23	2408.41
284.45	2215.90
284.66	2166.75
284.88	2105.31
285.09	2191.33
285.31	2275.29
285.52	2316.25
285.74	2064.35
285.95	2299.87
286.17	2295.77
286.38	2340.83
286.60	2144.22
286.81	2170.85
287.03	2236.38
287.24	2244.57
287.46	2244.57
287.67	2195.42
287.89	2351.07
288.10	2213.85
288.32	2267.10
288.53	2406.36
288.75	2232.29
288.96	2281.44
289.18	2193.37
289.39	2226.14
289.61	2248.67
289.82	2437.08
290.04	2475.99
290.25	2156.51
290.47	2260.96
290.68	2260.96
290.90	2342.88
291.11	2050.02
291.33	2342.88
291.54	2097.12
291.76	2252.77
291.97	2203.61
292.18	2285.53
292.40	2203.61
292.61	2138.08
292.83	2383.84
293.04	2250.72
293.26	2332.64
293.47	2220.00
293.69	2148.32
293.90	2191.33
294.12	2385.88
294.33	2293.72
294.55	2183.13
294.76	2371.55
294.97	2373.60
295.19	2535.39
295.40	2258.91
295.62	2258.91
295.83	2375.64
296.05	2240.48
296.26	2226.14
296.48	2119.65
296.69	2234.33
296.90	2154.46
297.12	2277.34
297.33	2330.59
297.55	2267.10
297.76	2328.54
297.98	2308.06
298.19	2314.20
298.41	2248.67
298.62	2138.08
298.83	2373.60
299.05	2271.20
299.26	2146.27
299.48	2211.81
299.69	2330.59
299.90	2197.47
300.12	2215.90
300.33	2299.87
300.55	2291.68
300.76	2248.67
300.98	2113.50
301.19	2375.64
301.40	2187.23
301.62	2220.00
301.83	2363.36
302.05	2203.61
302.26	2207.71
302.47	2217.95
302.69	2070.50
302.90	2195.42
303.12	2105.31
303.33	2263.01
303.54	2410.46
303.76	2176.99
303.97	2260.96
304.19	2363.36
304.40	2166.75
304.61	2340.83
304.83	2402.27
305.04	2398.17
305.26	2314.20
305.47	2195.42
305.68	2168.80
305.90	2041.82
306.11	2377.69
306.33	2215.90
306.54	2154.46
306.75	2275.29
306.97	2142.18
307.18	2121.70
307.39	2244.57
307.61	2244.57
307.82	2265.05
308.04	2246.62
308.25	2086.88
308.46	2287.58
308.68	2193.37
308.89	2172.89
309.10	2357.21
309.32	2340.83
309.53	2283.49
309.74	2283.49
309.96	2236.38
310.17	2334.68
310.39	2236.38
310.60	2326.49
310.81	2195.42
311.03	2156.51
311.24	2334.68
311.45	2230.24
311.67	2408.41
311.88	2318.30
312.09	2228.19
312.31	2152.42
312.52	2250.72
312.73	2244.57
312.95	2154.46
313.16	2240.48
313.37	2375.64
313.59	2291.68
313.80	2349.02
314.01	2400.22
314.23	2187.23
314.44	2129.89
314.65	2146.27
314.87	2248.67
315.08	2230.24
315.29	2220.00
315.51	2226.14
315.72	2125.79
315.93	2359.26
316.15	2263.01
316.36	2185.18
316.57	2293.72
316.79	2297.82
317.00	2211.81
317.21	2394.08
317.43	2201.57
317.64	2267.10
317.85	2138.08
318.07	2193.37
318.28	2183.13
318.49	2379.74
318.70	2562.01
318.92	2328.54
319.13	2336.73
319.34	2410.46
319.56	2412.51
319.77	2383.84
319.98	2414.56
320.20	2367.45
320.41	2289.63
320.62	2314.20
320.83	2150.37
321.05	2424.80
321.26	2340.83
321.47	2269.15
321.69	2363.36
321.90	2146.27
322.11	2211.81
322.32	2299.87
322.54	2416.60
322.75	2191.33
322.96	2514.91
323.18	2144.22
323.39	2021.35
323.60	2193.37
323.81	2256.86
324.03	2203.61
324.24	2271.20
324.45	2344.92
324.66	2248.67
324.88	2297.82
325.09	2342.88
325.30	2252.77
325.52	2224.09
325.73	2297.82
325.94	2162.66
326.15	2074.59
326.37	2093.02
326.58	2375.64
326.79	2412.51
327.00	2170.85
327.22	2283.49
327.43	2228.19
327.64	2146.27
327.85	2269.15
328.07	2195.42
328.28	2416.60
328.49	2115.55
328.70	2172.89
328.92	2236.38
329.13	2207.71
329.34	2414.56
329.55	2361.31
329.76	2291.68
329.98	2301.92
330.19	2367.45
330.40	2291.68
330.61	2265.05
330.83	2303.96
331.04	2224.09
331.25	2228.19
331.46	2129.89
331.68	2097.12
331.89	2379.74
332.10	2338.78
332.31	2070.50
332.52	2228.19
332.74	2359.26
332.95	2097.12
333.16	2199.52
333.37	2252.77
333.58	2230.24
333.80	2228.19
334.01	2107.36
334.22	2234.33
334.43	2172.89
334.64	2232.29
334.86	2131.94
335.07	2176.99
335.28	2379.74
335.49	2084.83
335.70	2346.97
335.92	2340.83
336.13	2512.86
336.34	2318.30
336.55	2211.81
336.76	2291.68
336.98	2105.31
337.19	2260.96
337.40	2392.03
337.61	2490.33
337.82	2179.04
338.04	2250.72
338.25	2086.88
338.46	2220.00
338.67	2217.95
338.88	2146.27
339.09	2199.52
339.31	2170.85
339.52	2133.98
339.73	2170.85
339.94	2215.90
340.15	2310.11
340.36	2158.56
340.58	2306.01
340.79	2119.65
341.00	2277.34
341.21	2166.75
341.42	2459.61
341.63	2211.81
341.85	2375.64
342.06	2301.92
342.27	2236.38
342.48	2377.69
342.69	2084.83
342.90	2267.10
343.12	2379.74
343.33	2179.04
343.54	2346.97
343.75	2412.51
343.96	2209.76
344.17	2201.57
344.38	2267.10
344.60	2187.23
344.81	2133.98
345.02	2201.57
345.23	2422.75
345.44	2514.91
345.65	2353.12
345.86	2301.92
346.07	2287.58
346.29	2256.86
346.50	2234.33
346.71	2215.90
346.92	2367.45
347.13	2441.18
347.34	2129.89
347.55	2162.66
347.76	2285.53
347.98	2179.04
348.19	2244.57
348.40	2316.25
348.61	2209.76
348.82	2400.22
349.03	2318.30
349.24	2195.42
349.45	2441.18
349.66	2068.45
349.88	2203.61
350.09	2189.28
350.30	2396.12
350.51	2394.08
350.72	2285.53
350.93	2265.05
351.14	2187.23
351.35	2291.68
351.56	2224.09
351.77	2213.85
351.99	2211.81
352.20	2432.99
352.41	2316.25
352.62	2082.78
352.83	2215.90
353.04	2201.57
353.25	2224.09
353.46	2336.73
353.67	2351.07
353.88	2095.07
354.09	2154.46
354.30	2211.81
354.52	2312.16
354.73	2226.14
354.94	2166.75
355.15	2277.34
355.36	2465.75
355.57	2142.18
355.78	2252.77
355.99	2121.70
356.20	2228.19
356.41	2389.98
356.62	2318.30
356.83	2232.29
357.04	2342.88
357.25	2142.18
357.46	2283.49
357.68	2047.97
357.89	2146.27
358.10	2242.53
358.31	2285.53
358.52	2228.19
358.73	2154.46
358.94	2148.32
359.15	2195.42
359.36	2392.03
359.57	2324.44
359.78	2254.81
359.99	2293.72
360.20	2269.15
360.41	2269.15
360.62	2299.87
360.83	2236.38
361.04	2256.86
361.25	2281.44
361.46	2392.03
361.67	2297.82
361.88	2281.44
362.09	2349.02
362.30	2281.44
362.51	2105.31
362.72	2263.01
362.93	2383.84
363.14	2244.57
363.35	2283.49
363.56	2174.94
363.78	2330.59
363.99	2295.77
364.20	2156.51
364.41	2228.19
364.62	2392.03
364.83	2301.92
365.04	2211.81
365.25	2205.66
365.46	2498.52
365.67	2111.46
365.88	2195.42
366.09	2211.81
366.30	2220.00
366.51	2158.56
366.72	2174.94
366.93	2207.71
367.14	2197.47
367.35	2385.88
367.56	2133.98
367.77	2367.45
367.98	2228.19
368.18	2349.02
368.39	2277.34
368.60	2148.32
368.81	2334.68
369.02	2258.91
369.23	2138.08
369.44	2074.59
369.65	2293.72
369.86	2271.20
370.07	2291.68
370.28	2109.41
370.49	2330.59
370.70	2340.83
370.91	2121.70
371.12	2119.65
371.33	2469.85
371.54	2244.57
371.75	2330.59
371.96	2160.61
372.17	2228.19
372.38	2201.57
372.59	2263.01
372.80	2119.65
373.01	2236.38
373.22	2242.53
373.43	2301.92
373.64	2119.65
373.85	2344.92
374.06	2426.84
374.26	2383.84
374.47	2289.63
374.68	2375.64
374.89	2349.02
375.10	2224.09
375.31	2275.29
375.52	2236.38
375.73	2244.57
375.94	2146.27
376.15	2301.92
376.36	2187.23
376.57	2248.67
376.78	2199.52
376.99	2263.01
377.20	2420.70
377.40	2187.23
377.61	2349.02
377.82	2138.08
378.03	2379.74
378.24	2199.52
378.45	2277.34
378.66	2242.53
378.87	2097.12
379.08	2176.99
379.29	2152.42
379.50	2310.11
379.71	2156.51
379.91	2359.26
380.12	2228.19
380.33	2236.38
380.54	2172.89
380.75	2306.01
380.96	2211.81
381.17	2254.81
381.38	2332.64
381.59	2269.15
381.80	2224.09
382.00	2439.13
382.21	2293.72
382.42	2394.08
382.63	2498.52
382.84	2318.30
383.05	2340.83
383.26	2424.80
383.47	2271.20
383.68	2293.72
383.88	2260.96
384.09	2334.68
384.30	2361.31
384.51	2267.10
384.72	2187.23
384.93	2101.22
385.14	2211.81
385.35	2291.68
385.55	2082.78
385.76	2342.88
385.97	2236.38
386.18	2158.56
386.39	2195.42
386.60	2207.71
386.81	2275.29
387.02	2168.80
387.22	2129.89
387.43	2279.39
387.64	2346.97
387.85	2392.03
388.06	2514.91
388.27	3946.44
388.48	8013.70
388.68	11611.98
388.89	13772.59
389.10	15134.49
389.31	13680.43
389.52	10884.95
389.73	9518.96
389.93	8578.94
390.14	7917.45
390.35	6973.33
390.56	6365.09
390.77	5246.90
390.98	3934.15
391.18	3254.22
391.39	2686.94
391.60	2357.21
391.81	2383.84
392.02	2275.29
392.23	2441.18
392.43	2297.82
392.64	2332.64
392.85	2220.00
393.06	2416.60
393.27	2260.96
393.47	2138.08
393.68	2263.01
393.89	2170.85
394.10	2359.26
394.31	2160.61
394.52	2158.56
394.72	2220.00
394.93	2447.32
395.14	2160.61
395.35	2271.20
395.56	2199.52
395.76	2238.43
395.97	2340.83
396.18	2308.06
396.39	2351.07
396.60	2717.65
396.80	2496.47
397.01	2402.27
397.22	2408.41
397.43	2342.88
397.64	2306.01
397.84	2392.03
398.05	2475.99
398.26	2334.68
398.47	2365.40
398.67	2316.25
398.88	2269.15
399.09	2330.59
399.30	2310.11
399.51	2299.87
399.71	2224.09
399.92	2240.48
400.13	2295.77
400.34	2265.05
400.54	2197.47
400.75	2504.67
400.96	2328.54
401.17	2412.51
401.37	2310.11
401.58	2320.35
401.79	2203.61
402.00	2322.40
402.21	2627.54
402.41	2568.15
402.62	2588.63
402.83	2729.94
403.04	2703.32
403.24	2758.61
403.45	2424.80
403.66	2500.57
403.87	2463.71
404.07	2535.39
404.28	2453.47
404.49	2559.96
404.70	2320.35
404.90	2377.69
405.11	2299.87
405.32	2285.53
405.52	2254.81
405.73	2154.46
405.94	2220.00
406.15	2275.29
406.35	2277.34
406.56	2359.26
406.77	2240.48
406.98	2273.25
407.18	2256.86
407.39	2400.22
407.60	2234.33
407.80	2260.96
408.01	2146.27
408.22	2267.10
408.43	2168.80
408.63	2287.58
408.84	2326.49
409.05	2371.55
409.25	2209.76
409.46	2185.18
409.67	2283.49
409.88	2195.42
410.08	2301.92
410.29	2260.96
410.50	2256.86
410.70	2361.31
410.91	2193.37
411.12	2267.10
411.32	2314.20
411.53	2209.76
411.74	2285.53
411.95	2297.82
412.15	2349.02
412.36	2408.41
412.57	2332.64
412.77	2400.22
412.98	2260.96
413.19	2236.38
413.39	2349.02
413.60	2318.30
413.81	2383.84
414.01	2187.23
414.22	2267.10
414.43	2283.49
414.63	2220.00
414.84	2412.51
415.05	2267.10
415.25	2162.66
415.46	2349.02
415.67	2213.85
415.87	2211.81
416.08	2289.63
416.29	2263.01
416.49	2314.20
416.70	2211.81
416.91	2195.42
417.11	2193.37
417.32	2369.50
417.53	2303.96
417.73	2285.53
417.94	2185.18
418.15	2342.88
418.35	2291.68
418.56	2320.35
418.77	2537.43
418.97	2252.77
419.18	2254.81
419.38	2068.45
419.59	2260.96
419.80	2432.99
420.00	2168.80
420.21	2228.19
420.42	2420.70
420.62	2252.77
420.83	2179.04
421.04	2129.89
421.24	2228.19
421.45	2283.49
421.65	2301.92
421.86	2238.43
422.07	2336.73
422.27	2340.83
422.48	2287.58
422.69	2097.12
422.89	2236.38
423.10	2265.05
423.30	2168.80
423.51	2248.67
423.72	2285.53
423.92	2318.30
424.13	2211.81
424.33	2252.77
424.54	2408.41
424.75	2318.30
424.95	2424.80
425.16	2209.76
425.36	2201.57
425.57	2269.15
425.78	2342.88
425.98	2326.49
426.19	2226.14
426.39	2248.67
426.60	2299.87
426.81	2363.36
427.01	2240.48
427.22	2150.37
427.42	2179.04
427.63	2119.65
427.83	2363.36
428.04	2439.13
428.25	2396.12
428.45	2342.88
428.66	2346.97
428.86	2265.05
429.07	2252.77
429.28	2310.11
429.48	2283.49
429.69	2185.18
429.89	2271.20
430.10	2209.76
430.30	2293.72
430.51	2414.56
430.71	2193.37
430.92	2217.95
431.13	2199.52
431.33	2269.15
431.54	2269.15
431.74	2449.37
431.95	2465.75
432.15	2131.94
432.36	2306.01
432.56	2367.45
432.77	2461.66
432.98	2420.70
433.18	2324.44
433.39	2162.66
433.59	2260.96
433.80	2349.02
434.00	2404.32
434.21	2232.29
434.41	2207.71
434.62	2527.19
434.82	2146.27
435.03	2191.33
435.23	2174.94
435.44	2127.84
435.64	2328.54
435.85	2215.90
436.06	2312.16
436.26	2402.27
436.47	2228.19
436.67	2146.27
436.88	2295.77
437.08	2432.99
437.29	2400.22
437.49	2289.63
437.70	2353.12
437.90	2240.48
438.11	2402.27
438.31	2285.53
438.52	2494.43
438.72	2385.88
438.93	2510.81
439.13	2306.01
439.34	2387.93
439.54	2295.77
439.75	2326.49
439.95	2316.25
440.16	2234.33
440.36	2258.91
440.57	2328.54
440.77	2252.77
440.98	2230.24
441.18	2303.96
441.39	2193.37
441.59	2148.32
441.80	2545.63
442.00	2242.53
442.21	2392.03
442.41	2146.27
442.62	2414.56
442.82	2242.53
443.02	2170.85
443.23	2285.53
443.43	2201.57
443.64	2441.18
443.84	2222.05
444.05	2357.21
444.25	2246.62
444.46	2252.77
444.66	2232.29
444.87	2439.13
445.07	2158.56
445.28	2293.72
445.48	2361.31
445.69	2318.30
445.89	2422.75
446.09	2291.68
446.30	2549.72
446.50	2899.92
446.71	4317.12
446.91	5500.84
447.12	6197.15
447.32	6715.29
447.53	6211.49
447.73	5111.73
447.93	4509.63
448.14	4198.34
448.34	4112.32
448.55	3518.41
448.75	3653.58
448.96	3465.16
449.16	3092.43
449.36	2977.75
449.57	2605.02
449.77	2453.47
449.98	2269.15
450.18	2275.29
450.39	2320.35
450.59	2369.50
450.79	2277.34
451.00	2162.66
451.20	2326.49
451.41	2279.39
451.61	2269.15
451.81	2269.15
452.02	2162.66
452.22	2222.05
452.43	2117.60
452.63	2150.37
452.84	2285.53
453.04	2248.67
453.24	2295.77
453.45	2201.57
453.65	2277.34
453.86	2234.33
454.06	2279.39
454.26	2269.15
454.47	2193.37
454.67	2359.26
454.87	2289.63
455.08	2295.77
455.28	2451.42
455.49	2310.11
455.69	2162.66
455.89	2564.06
456.10	2418.65
456.30	2217.95
456.51	2359.26
456.71	2191.33
456.91	2267.10
457.12	2199.52
457.32	2285.53
457.52	2183.13
457.73	2422.75
457.93	2416.60
458.14	2195.42
458.34	2097.12
458.54	2166.75
458.75	2119.65
458.95	2455.51
459.15	2318.30
459.36	2267.10
459.56	2283.49
459.76	2559.96
459.97	2263.01
460.17	2299.87
460.37	2328.54
460.58	2344.92
460.78	2367.45
460.99	2252.77
461.19	2252.77
461.39	2263.01
461.60	2220.00
461.80	2269.15
462.00	2189.28
462.21	2277.34
462.41	2154.46
462.61	2187.23
462.82	2097.12
463.02	2299.87
463.22	2312.16
463.43	2367.45
463.63	2285.53
463.83	2459.61
464.04	2359.26
464.24	2297.82
464.44	2166.75
464.64	2285.53
464.85	2279.39
465.05	2394.08
465.25	2246.62
465.46	2248.67
465.66	2375.64
465.86	2289.63
466.07	2291.68
466.27	2283.49
466.47	2131.94
466.68	2150.37
466.88	2385.88
467.08	2334.68
467.29	2379.74
467.49	2232.29
467.69	2318.30
467.89	2342.88
468.10	2220.00
468.30	2271.20
468.50	2381.79
468.71	2383.84
468.91	2113.50
469.11	2342.88
469.31	2228.19
469.52	2226.14
469.72	2435.03
469.92	2500.57
470.13	2265.05
470.33	2250.72
470.53	2310.11
470.73	2746.33
470.94	3067.86
471.14	3110.86
471.34	3485.64
471.54	3397.58
471.75	3006.42
471.95	2865.11
472.15	2707.41
472.36	2766.81
472.56	2703.32
472.76	2797.53
472.96	2543.58
473.17	2533.34
473.37	2482.14
473.57	2293.72
473.77	2330.59
473.98	2297.82
474.18	2158.56
474.38	2621.40
474.58	2240.48
474.79	2232.29
474.99	2318.30
475.19	2363.36
475.39	2117.60
475.60	2306.01
475.80	2271.20
476.00	2195.42
476.20	2191.33
476.41	2316.25
476.61	2346.97
476.81	2373.60
477.01	2195.42
477.21	2402.27
477.42	2400.22
477.62	2146.27
477.82	2342.88
478.02	2242.53
478.23	2312.16
478.43	2240.48
478.63	2183.13
478.83	2232.29
479.03	2258.91
479.24	2324.44
479.44	2439.13
479.64	2174.94
479.84	2043.87
480.04	2217.95
480.25	2371.55
480.45	2203.61
480.65	2220.00
480.85	2365.40
481.06	2244.57
481.26	2303.96
481.46	2267.10
481.66	2285.53
481.86	2138.08
482.06	2437.08
482.27	2209.76
482.47	2183.13
482.67	2400.22
482.87	2232.29
483.07	2289.63
483.28	2203.61
483.48	2252.77
483.68	2285.53
483.88	2138.08
484.08	2103.26
484.29	2146.27
484.49	2306.01
484.69	2150.37
484.89	2455.51
485.09	2351.07
485.29	2385.88
485.50	2326.49
485.70	2238.43
485.90	2367.45
486.10	2301.92
486.30	2301.92
486.50	2355.16
486.71	2351.07
486.91	2334.68
487.11	2449.37
487.31	2252.77
487.51	2285.53
487.71	2138.08
487.91	2222.05
488.12	2242.53
488.32	2056.16
488.52	2201.57
488.72	2064.35
488.92	2293.72
489.12	2414.56
489.32	2277.34
489.53	2289.63
489.73	2156.51
489.93	2394.08
490.13	2220.00
490.33	2144.22
490.53	2291.68
490.73	2416.60
490.94	2086.88
491.14	2342.88
491.34	2435.03
491.54	2674.65
491.74	3121.10
491.94	3784.65
492.14	4003.78
492.34	4181.95
492.54	3780.55
492.75	3209.17
492.95	3215.31
493.15	2922.45
493.35	2889.68
493.55	2795.48
493.75	2697.17
493.95	2785.24
494.15	2576.34
494.35	2447.32
494.56	2308.06
494.76	2269.15
494.96	2263.01
495.16	2310.11
495.36	2256.86
495.56	2211.81
495.76	2207.71
495.96	2297.82
496.16	2152.42
496.36	2420.70
496.56	2291.68
496.77	2234.33
496.97	2203.61
497.17	2387.93
497.37	2129.89
497.57	2306.01
497.77	2273.25
497.97	2174.94
498.17	2244.57
498.37	2242.53
498.57	2332.64
498.77	2195.42
498.97	2324.44
499.17	2441.18
499.38	2324.44
499.58	2377.69
499.78	2338.78
499.98	2367.45
500.18	2299.87
500.38	2174.94
500.58	2469.85
500.78	2977.75
500.98	5132.21
501.18	7225.23
501.38	8757.11
501.58	9615.21
501.78	9459.57
501.98	7540.62
502.18	6455.20
502.38	5461.93
502.58	5193.65
502.78	4644.79
502.98	4534.20
503.18	4171.71
503.38	3745.73
503.59	3383.24
503.79	3217.36
503.99	3045.33
504.19	2856.92
504.39	2777.05
504.59	2871.25
504.79	2756.57
504.99	2764.76
505.19	2555.86
505.39	2449.37
505.59	2627.54
505.79	2562.01
505.99	2512.86
506.19	2291.68
506.39	2357.21
506.59	2238.43
506.79	2301.92
506.99	2365.40
507.19	2273.25
507.39	2277.34
507.59	2064.35
507.79	2187.23
507.99	2220.00
508.19	2260.96
508.39	2236.38
508.59	2285.53
508.79	2385.88
508.99	2414.56
509.19	2215.90
509.39	2363.36
509.59	2160.61
509.79	2187.23
509.99	2263.01
510.19	2400.22
510.39	2289.63
510.59	2324.44
510.79	2183.13
510.99	2195.42
511.19	2322.40
511.39	2465.75
511.59	2461.66
511.79	2365.40
511.99	2232.29
512.19	2404.32
512.38	2260.96
512.58	2162.66
512.78	2263.01
512.98	2357.21
513.18	2424.80
513.38	2101.22
513.58	2371.55
513.78	2265.05
513.98	2299.87
514.18	2154.46
514.38	2203.61
514.58	2271.20
514.78	2152.42
514.98	2072.54
515.18	2320.35
515.38	2168.80
515.58	2426.84
515.78	2193.37
515.98	2263.01
516.18	2320.35
516.38	2258.91
516.57	2125.79
516.77	2183.13
516.97	2295.77
517.17	2181.09
517.37	2062.30
517.57	2351.07
517.77	2301.92
517.97	2207.71
518.17	2303.96
518.37	2232.29
518.57	2236.38
518.77	2281.44
518.97	2275.29
519.16	2252.77
519.36	2367.45
519.56	2228.19
519.76	2244.57
519.96	2260.96
520.16	2471.90
520.36	2205.66
520.56	2357.21
520.76	2160.61
520.96	2203.61
521.16	2406.36
521.35	2367.45
521.55	2398.17
521.75	2244.57
521.95	2308.06
522.15	2183.13
522.35	2162.66
522.55	2195.42
522.75	2361.31
522.95	2166.75
523.14	2103.26
523.34	2183.13
523.54	2187.23
523.74	2297.82
523.94	2314.20
524.14	2129.89
524.34	2310.11
524.54	2414.56
524.73	2209.76
524.93	2346.97
525.13	2252.77
525.33	2113.50
525.53	2533.34
525.73	2342.88
525.93	2310.11
526.13	2142.18
526.32	2246.62
526.52	2334.68
526.72	2340.83
526.92	2224.09
527.12	2154.46
527.32	2103.26
527.52	2211.81
527.71	2248.67
527.91	2279.39
528.11	2207.71
528.31	2267.10
528.51	2211.81
528.71	2226.14
528.90	2375.64
529.10	2408.41
529.30	2326.49
529.50	2047.97
529.70	2342.88
529.90	2244.57
530.09	2185.18
530.29	2179.04
530.49	2179.04
530.69	2574.30
530.89	2306.01
531.09	2330.59
531.28	2191.33
531.48	2432.99
531.68	2299.87
531.88	2242.53
532.08	2418.65
532.28	2220.00
532.47	2271.20
532.67	2367.45
532.87	2437.08
533.07	2238.43
533.27	2383.84
533.46	2346.97
533.66	2363.36
533.86	2326.49
534.06	2357.21
534.26	2312.16
534.45	2324.44
534.65	2330.59
534.85	2246.62
535.05	2285.53
535.25	2402.27
535.44	2109.41
535.64	2324.44
535.84	2236.38
536.04	2248.67
536.24	2138.08
536.43	2238.43
536.63	2295.77
536.83	2224.09
537.03	2240.48
537.22	2160.61
537.42	2170.85
537.62	2310.11
537.82	2187.23
538.02	2369.50
538.21	2353.12
538.41	2574.30
538.61	2330.59
538.81	2250.72
539.00	2330.59
539.20	2160.61
539.40	2187.23
539.60	2377.69
539.79	2435.03
539.99	2324.44
540.19	2166.75
540.39	2162.66
540.58	2242.53
540.78	2398.17
540.98	2295.77
541.18	2432.99
541.37	2328.54
541.57	2297.82
541.77	2349.02
541.97	2136.03
542.16	2185.18
542.36	2293.72
542.56	2295.77
542.76	2449.37
542.95	2336.73
543.15	2340.83
543.35	2369.50
543.54	2226.14
543.74	2179.04
543.94	2424.80
544.14	2234.33
544.33	2258.91
544.53	2252.77
544.73	2283.49
544.93	2289.63
545.12	2256.86
545.32	2211.81
545.52	2271.20
545.71	2199.52
545.91	2242.53
546.11	2285.53
546.30	2095.07
546.50	2301.92
546.70	2287.58
546.90	2314.20
547.09	2187.23
547.29	2271.20
547.49	2260.96
547.68	2185.18
547.88	2193.37
548.08	2314.20
548.27	2723.80
548.47	2232.29
548.67	2248.67
548.87	2308.06
549.06	2228.19
549.26	2344.92
549.46	2392.03
549.65	2238.43
549.85	2287.58
550.05	2306.01
550.24	2236.38
550.44	2306.01
550.64	2246.62
550.83	2236.38
551.03	2379.74
551.23	2361.31
551.42	2351.07
551.62	2234.33
551.82	2310.11
552.01	2258.91
552.21	2387.93
552.41	2297.82
552.60	2432.99
552.80	2359.26
553.00	2248.67
553.19	2187.23
553.39	2428.89
553.59	2176.99
553.78	2322.40
553.98	2248.67
554.17	2152.42
554.37	2258.91
554.57	2271.20
554.76	2168.80
554.96	2232.29
555.16	2318.30
555.35	2252.77
555.55	2344.92
555.75	2236.38
555.94	2342.88
556.14	2056.16
556.33	2371.55
556.53	2226.14
556.73	2258.91
556.92	2351.07
557.12	2375.64
557.32	2465.75
557.51	2432.99
557.71	2349.02
557.90	2361.31
558.10	2482.14
558.30	2172.89
558.49	2258.91
558.69	2240.48
558.88	2273.25
559.08	2289.63
559.28	2273.25
559.47	2269.15
559.67	2242.53
559.86	2531.29
560.06	2277.34
560.26	2291.68
560.45	2299.87
560.65	2222.05
560.84	2375.64
561.04	2193.37
561.24	2244.57
561.43	2185.18
561.63	2426.84
561.82	2293.72
562.02	2365.40
562.22	2207.71
562.41	2250.72
562.61	2222.05
562.80	2217.95
563.00	2488.28
563.19	2301.92
563.39	2267.10
563.59	2359.26
563.78	2117.60
563.98	2144.22
564.17	2152.42
564.37	2187.23
564.56	2328.54
564.76	2181.09
564.96	2377.69
565.15	2267.10
565.35	2426.84
565.54	2277.34
565.74	2314.20
565.93	2385.88
566.13	2250.72
566.32	2306.01
566.52	2287.58
566.71	2269.15
566.91	2310.11
567.11	2349.02
567.30	2195.42
567.50	2328.54
567.69	2285.53
567.89	2258.91
568.08	2176.99
568.28	2349.02
568.47	2146.27
568.67	2314.20
568.86	2199.52
569.06	2392.03
569.25	2260.96
569.45	2181.09
569.64	2248.67
569.84	2285.53
570.04	2312.16
570.23	2166.75
570.43	2293.72
570.62	2334.68
570.82	2310.11
571.01	2156.51
571.21	2242.53
571.40	2269.15
571.60	2303.96
571.79	2293.72
571.99	2236.38
572.18	2101.22
572.38	2277.34
572.57	2209.76
572.77	2277.34
572.96	2465.75
573.16	2269.15
573.35	2226.14
573.55	2408.41
573.74	2318.30
573.94	2236.38
574.13	2263.01
574.33	2389.98
574.52	2330.59
574.71	2287.58
574.91	2375.64
575.10	2187.23
575.30	2244.57
575.49	2170.85
575.69	2136.03
575.88	2252.77
576.08	2326.49
576.27	2377.69
576.47	2301.92
576.66	2430.94
576.86	2455.51
577.05	2326.49
577.25	2306.01
577.44	2502.62
577.64	2213.85
577.83	2416.60
578.02	2217.95
578.22	2428.89
578.41	2443.23
578.61	2332.64
578.80	2160.61
579.00	2222.05
579.19	2297.82
579.39	2379.74
579.58	2373.60
579.77	2256.86
579.97	2406.36
580.16	2414.56
580.36	2359.26
580.55	2428.89
580.75	2310.11
580.94	2338.78
581.13	2473.95
581.33	2398.17
581.52	2256.86
581.72	2549.72
581.91	2510.81
582.11	2277.34
582.30	2424.80
582.49	2387.93
582.69	2502.62
582.88	2453.47
583.08	2260.96
583.27	2459.61
583.47	2365.40
583.66	2195.42
583.85	2127.84
584.05	2291.68
584.24	2359.26
584.44	2322.40
584.63	2451.42
584.82	2424.80
585.02	2498.52
585.21	2490.33
585.41	2461.66
585.60	2412.51
585.79	2592.73
585.99	2584.54
586.18	2502.62
586.37	2924.50
586.57	4626.36
586.76	13719.34
586.96	32833.04
587.15	46220.61
587.34	55485.62
587.54	60654.69
587.73	55610.54
587.93	39169.45
588.12	29779.51
588.31	23846.55
588.51	20766.40
588.70	19185.37
588.89	17299.19
589.09	15220.50
589.28	12984.12
589.47	10329.95
589.67	8042.37
589.86	6340.51
590.06	4718.52
590.25	3782.60
590.44	3168.21
590.64	2867.16
590.83	2633.69
591.02	2627.54
591.22	2463.71
591.41	2392.03
591.60	2301.92
591.80	2619.35
591.99	2195.42
592.18	2224.09
592.38	2383.84
592.57	2252.77
592.76	2365.40
592.96	2351.07
593.15	2330.59
593.34	2400.22
593.54	2291.68
593.73	2338.78
593.92	2387.93
594.12	2461.66
594.31	2244.57
594.50	2430.94
594.70	2349.02
594.89	2598.87
595.08	2217.95
595.28	2418.65
595.47	2617.30
595.66	2408.41
595.86	2203.61
596.05	2185.18
596.24	2250.72
596.43	2465.75
596.63	2371.55
596.82	2291.68
597.01	2303.96
597.21	2566.10
597.40	2260.96
597.59	2306.01
597.79	2287.58
597.98	2365.40
598.17	2318.30
598.36	2271.20
598.56	2291.68
598.75	2250.72
598.94	2283.49
599.14	2242.53
599.33	2301.92
599.52	2410.46
599.71	2301.92
599.91	2379.74
600.10	2293.72
600.29	2242.53
600.48	2242.53
600.68	2322.40
600.87	2240.48
601.06	2136.03
601.26	2230.24
601.45	2295.77
601.64	2287.58
601.83	2447.32
602.03	2240.48
602.22	2129.89
602.41	2383.84
602.60	2547.67
602.80	2308.06
602.99	2281.44
603.18	2271.20
603.37	2289.63
603.57	2301.92
603.76	2318.30
603.95	2369.50
604.14	2224.09
604.34	2099.17
604.53	2273.25
604.72	2246.62
604.91	2404.32
605.10	2252.77
605.30	2187.23
605.49	2494.43
605.68	2334.68
605.87	2457.56
606.07	2084.83
606.26	2310.11
606.45	2408.41
606.64	2252.77
606.84	2260.96
607.03	2310.11
607.22	2502.62
607.41	2308.06
607.60	2297.82
607.80	2271.20
607.99	2316.25
608.18	2275.29
608.37	2265.05
608.56	2125.79
608.76	2357.21
608.95	2430.94
609.14	2316.25
609.33	2367.45
609.52	2461.66
609.72	2398.17
609.91	2424.80
610.10	2244.57
610.29	2494.43
610.48	2336.73
610.68	2314.20
610.87	2238.43
611.06	2414.56
611.25	2277.34
611.44	2449.37
611.63	2183.13
611.83	2394.08
612.02	2201.57
612.21	2387.93
612.40	2133.98
612.59	2152.42
612.79	2162.66
612.98	2332.64
613.17	2383.84
613.36	2236.38
613.55	2480.09
613.74	2269.15
613.93	2349.02
614.13	2471.90
614.32	2527.19
614.51	2441.18
614.70	2342.88
614.89	2279.39
615.08	2293.72
615.28	2815.96
615.47	2211.81
615.66	2324.44
615.85	2318.30
616.04	2527.19
616.23	2291.68
616.42	2297.82
616.62	2269.15
616.81	2326.49
617.00	2281.44
617.19	2283.49
617.38	2320.35
617.57	2361.31
617.76	2256.86
617.95	2314.20
618.15	2314.20
618.34	2404.32
618.53	2166.75
618.72	2387.93
618.91	2367.45
619.10	2342.88
619.29	2283.49
619.48	2287.58
619.68	2113.50
619.87	2195.42
620.06	2103.26
620.25	2330.59
620.44	2217.95
620.63	2195.42
620.82	2283.49
621.01	2340.83
621.20	2260.96
621.39	2375.64
621.59	2367.45
621.78	2187.23
621.97	2316.25
622.16	2326.49
622.35	2326.49
622.54	2389.98
622.73	2330.59
622.92	2148.32
623.11	2285.53
623.30	2299.87
623.49	2334.68
623.68	2215.90
623.88	2371.55
624.07	2269.15
624.26	2244.57
624.45	2267.10
624.64	2258.91
624.83	2199.52
625.02	2260.96
625.21	2209.76
625.40	2316.25
625.59	2318.30
625.78	2297.82
625.97	2365.40
626.16	2492.38
626.35	2404.32
626.54	2381.79
626.74	2422.75
626.93	2258.91
627.12	2283.49
627.31	2365.40
627.50	2367.45
627.69	2381.79
627.88	2174.94
628.07	2234.33
628.26	2138.08
628.45	2203.61
628.64	2127.84
628.83	2334.68
629.02	2185.18
629.21	2310.11
629.40	2334.68
629.59	2185.18
629.78	2238.43
629.97	2183.13
630.16	2359.26
630.35	2318.30
630.54	2293.72
630.73	2211.81
630.92	2248.67
631.11	2303.96
631.30	2349.02
631.49	2375.64
631.68	2299.87
631.87	2254.81
632.06	2093.02
632.25	2473.95
632.44	2228.19
632.63	2301.92
632.82	2299.87
633.01	2265.05
633.20	2373.60
633.39	2301.92
633.58	2211.81
633.77	2435.03
633.96	2383.84
634.15	2308.06
634.34	2308.06
634.53	2322.40
634.72	2215.90
634.91	2158.56
635.10	2277.34
635.29	2306.01
635.48	2326.49
635.67	2185.18
635.86	2162.66
636.05	2424.80
636.24	2289.63
636.43	2293.72
636.62	2306.01
636.81	2002.91
637.00	2248.67
637.19	2379.74
637.38	2246.62
637.57	2260.96
637.76	2365.40
637.95	2363.36
638.14	2373.60
638.33	2363.36
638.52	2287.58
638.71	2203.61
638.89	2150.37
639.08	2553.82
639.27	2379.74
639.46	2451.42
639.65	2826.20
639.84	2850.77
640.03	3065.81
640.22	2875.35
640.41	2936.79
640.60	2523.10
640.79	2494.43
640.98	2545.63
641.17	2398.17
641.36	2469.85
641.55	2516.95
641.74	2275.29
641.92	2277.34
642.11	2211.81
642.30	2209.76
642.49	2207.71
642.68	2244.57
642.87	2269.15
643.06	2265.05
643.25	2248.67
643.44	2166.75
643.63	2226.14
643.82	2377.69
644.00	2160.61
644.19	2199.52
644.38	2170.85
644.57	2334.68
644.76	2254.81
644.95	2336.73
645.14	2334.68
645.33	2244.57
645.52	2283.49
645.71	2111.46
645.89	2156.51
646.08	2238.43
646.27	2211.81
646.46	2424.80
646.65	2119.65
646.84	2209.76
647.03	2199.52
647.22	2383.84
647.40	2359.26
647.59	2203.61
647.78	2117.60
647.97	2263.01
648.16	2154.46
648.35	2430.94
648.54	2418.65
648.73	2236.38
648.91	2365.40
649.10	2301.92
649.29	2203.61
649.48	2220.00
649.67	2285.53
649.86	2277.34
650.05	2287.58
650.23	2426.84
650.42	2318.30
650.61	2539.48
650.80	2488.28
650.99	2545.63
651.18	2369.50
651.36	2422.75
651.55	2211.81
651.74	2396.12
651.93	2222.05
652.12	2234.33
652.31	2283.49
652.49	2260.96
652.68	2209.76
652.87	2426.84
653.06	2359.26
653.25	2424.80
653.44	2267.10
653.62	2363.36
653.81	2344.92
654.00	2258.91
654.19	2340.83
654.38	2559.96
654.56	2285.53
654.75	2232.29
654.94	2420.70
655.13	2318.30
655.32	2267.10
655.51	2267.10
655.69	2189.28
655.88	2287.58
656.07	2160.61
656.26	2344.92
656.45	2172.89
656.63	2273.25
656.82	2312.16
657.01	2351.07
657.20	2236.38
657.38	2412.51
657.57	2199.52
657.76	2154.46
657.95	2334.68
658.14	2166.75
658.32	2349.02
658.51	2205.66
658.70	2283.49
658.89	2285.53
659.08	2234.33
659.26	2432.99
659.45	2203.61
659.64	2394.08
659.83	2291.68
660.01	2605.02
660.20	2318.30
660.39	2486.23
660.58	2076.64
660.76	2334.68
660.95	2181.09
661.14	2273.25
661.33	2156.51
661.51	2115.55
661.70	2310.11
661.89	2306.01
662.08	2263.01
662.26	2082.78
662.45	2133.98
662.64	2451.42
662.83	2310.11
663.01	2164.70
663.20	2289.63
663.39	2428.89
663.58	2176.99
663.76	2322.40
663.95	2422.75
664.14	2166.75
664.32	2144.22
664.51	2197.47
664.70	2052.06
664.89	2314.20
665.07	2154.46
665.26	2314.20
665.45	2217.95
665.64	2349.02
665.82	2258.91
666.01	2322.40
666.20	2228.19
666.38	2355.16
666.57	2346.97
666.76	3409.87
666.95	7919.50
667.13	16391.94
667.32	21348.03
667.51	25022.08
667.69	26252.91
667.88	23946.90
668.07	16942.85
668.25	13715.25
668.44	11401.04
668.63	9867.11
668.81	8839.03
669.00	7591.82
669.19	6889.37
669.38	5930.92
669.56	4980.66
669.75	4288.45
669.94	3723.21
670.12	3094.48
670.31	2785.24
670.50	2678.74
670.68	2545.63
670.87	2394.08
671.06	2342.88
671.24	2351.07
671.43	2455.51
671.62	2381.79
671.80	2252.77
671.99	2293.72
672.18	2289.63
672.36	2381.79
672.55	2318.30
672.74	2279.39
672.92	2271.20
673.11	2344.92
673.29	2129.89
673.48	2299.87
673.67	2203.61
673.85	2435.03
674.04	2256.86
674.23	2267.10
674.41	2463.71
674.60	2174.94
674.79	2031.58
674.97	2123.74
675.16	2379.74
675.34	2437.08
675.53	2152.42
675.72	2353.12
675.90	2435.03
676.09	2316.25
676.28	2193.37
676.46	2023.39
676.65	2230.24
676.83	2176.99
677.02	2246.62
677.21	2185.18
677.39	2310.11
677.58	2179.04
677.77	2166.75
677.95	2170.85
678.14	2191.33
678.32	2287.58
678.51	2281.44
678.70	2449.37
678.88	2238.43
679.07	2334.68
679.25	2316.25
679.44	2260.96
679.63	2140.13
679.81	2201.57
680.00	2420.70
680.18	2256.86
680.37	2422.75
680.55	2281.44
680.74	2156.51
680.93	2117.60
681.11	2248.67
681.30	2277.34
681.48	2234.33
681.67	2293.72
681.85	2252.77
682.04	2172.89
682.23	2375.64
682.41	2232.29
682.60	2205.66
682.78	2281.44
682.97	2170.85
683.15	2295.77
683.34	2308.06
683.53	2408.41
683.71	2127.84
683.90	2451.42
684.08	2389.98
684.27	2220.00
684.45	2346.97
684.64	2310.11
684.82	2308.06
685.01	2244.57
685.19	2256.86
685.38	2353.12
685.57	2226.14
685.75	2191.33
685.94	2228.19
686.12	2138.08
686.31	2170.85
686.49	2424.80
686.68	2058.21
686.86	2314.20
687.05	2211.81
687.23	2445.27
687.42	2203.61
687.60	2170.85
687.79	2299.87
687.97	2361.31
688.16	2340.83
688.34	2355.16
688.53	2093.02
688.71	2303.96
688.90	2344.92
689.08	2146.27
689.27	2168.80
689.45	2342.88
689.64	2281.44
689.82	2332.64
690.01	2355.16
690.19	2277.34
690.38	2226.14
690.56	2449.37
690.75	2174.94
690.93	2168.80
691.12	2146.27
691.30	2240.48
691.49	2209.76
691.67	2236.38
691.86	2418.65
692.04	2303.96
692.23	2205.66
692.41	2220.00
692.60	2525.15
692.78	2437.08
692.97	2285.53
693.15	2359.26
693.34	2510.81
693.52	2400.22
693.71	2152.42
693.89	2174.94
694.08	2133.98
694.26	2301.92
694.44	2316.25
694.63	2263.01
694.81	2152.42
695.00	2129.89
695.18	2383.84
695.37	2488.28
695.55	2263.01
695.74	2193.37
695.92	2205.66
696.10	2330.59
696.29	2168.80
696.47	2260.96
696.66	2181.09
696.84	2181.09
697.03	2310.11
697.21	2439.13
697.40	3342.28
697.58	2424.80
697.76	2236.38
697.95	2176.99
698.13	2121.70
698.32	2265.05
698.50	2236.38
698.68	2265.05
698.87	2281.44
699.05	2471.90
699.24	2301.92
699.42	2101.22
699.61	2275.29
699.79	2240.48
699.97	2187.23
700.16	2195.42
700.34	2174.94
700.53	2211.81
700.71	2414.56
700.89	2297.82
701.08	2279.39
701.26	2324.44
701.45	2820.05
701.63	2246.62
701.81	2179.04
702.00	2156.51
702.18	2248.67
702.37	2205.66
702.55	2490.33
702.73	2471.90
702.92	2342.88
703.10	2484.19
703.28	2455.51
703.47	2320.35
703.65	2385.88
703.84	2445.27
704.02	2248.67
704.20	2457.56
704.39	2260.96
704.57	2217.95
704.75	2432.99
704.94	2293.72
705.12	2314.20
705.30	2486.23
705.49	4423.61
705.67	10497.89
705.86	17981.17
706.04	21706.42
706.22	24866.44
706.41	25595.51
706.59	21982.90
706.77	15607.57
706.96	12873.53
707.14	11378.51
707.32	9731.95
707.51	8830.84
707.69	7104.40
707.87	5930.92
708.06	4679.61
708.24	3835.85
708.42	3155.92
708.61	3049.43
708.79	2480.09
708.97	2363.36
709.16	2365.40
709.34	2365.40
709.52	2281.44
709.71	2277.34
709.89	2385.88
710.07	2174.94
710.26	2299.87
710.44	2224.09
710.62	2318.30
710.80	2232.29
710.99	2367.45
711.17	2342.88
711.35	2136.03
711.54	2174.94
711.72	2367.45
711.90	2303.96
712.09	2260.96
712.27	2220.00
712.45	2330.59
712.63	2176.99
712.82	2301.92
713.00	2291.68
713.18	2328.54
713.37	2340.83
713.55	2285.53
713.73	2342.88
713.91	2375.64
714.10	2265.05
714.28	2189.28
714.46	2310.11
714.65	2244.57
714.83	2281.44
715.01	2203.61
715.19	2234.33
715.38	2084.83
715.56	2271.20
715.74	2166.75
715.92	2164.70
716.11	2338.78
716.29	2111.46
716.47	2224.09
716.65	2215.90
716.84	2070.50
717.02	2295.77
717.20	2088.93
717.38	2131.94
717.57	2338.78
717.75	2244.57
717.93	2250.72
718.11	2314.20
718.30	2150.37
718.48	2357.21
718.66	2349.02
718.84	2445.27
719.03	2224.09
719.21	2150.37
719.39	2437.08
719.57	2297.82
719.75	2283.49
719.94	2199.52
720.12	2277.34
720.30	2179.04
720.48	2297.82
720.67	2275.29
720.85	2127.84
721.03	2203.61
721.21	2154.46
721.39	2340.83
721.58	2322.40
721.76	2306.01
721.94	2273.25
722.12	2283.49
722.30	2406.36
722.49	2211.81
722.67	2289.63
722.85	2246.62
723.03	2142.18
723.21	2201.57
723.40	2269.15
723.58	2437.08
723.76	2340.83
723.94	2355.16
724.12	2285.53
724.30	2389.98
724.49	2408.41
724.67	2215.90
724.85	2369.50
725.03	2078.69
725.21	2322.40
725.40	2408.41
725.58	2166.75
725.76	2351.07
725.94	2392.03
726.12	2232.29
726.30	2254.81
726.49	2183.13
726.67	2238.43
726.85	2344.92
727.03	2500.57
727.21	3692.49
727.39	5044.15
727.57	5875.62
727.76	6401.95
727.94	6770.58
728.12	6358.94
728.30	5078.96
728.48	4526.01
728.66	3995.59
728.84	3782.60
729.03	3301.33
729.21	2990.03
729.39	2779.09
729.57	2473.95
729.75	2486.23
729.93	2416.60
730.11	2232.29
730.30	2240.48
730.48	2226.14
730.66	2303.96
730.84	2306.01
731.02	2267.10
731.20	2189.28
731.38	2215.90
731.56	2162.66
731.74	2095.07
731.93	2338.78
732.11	2258.91
732.29	2240.48
732.47	2293.72
732.65	2310.11
732.83	2443.23
733.01	2326.49
733.19	2209.76
733.37	2265.05
733.56	2203.61
733.74	2160.61
733.92	2361.31
734.10	2250.72
734.28	2392.03
734.46	2162.66
734.64	2193.37
734.82	2174.94
735.00	2211.81
735.18	2220.00
735.36	2185.18
735.54	2211.81
735.73	2275.29
735.91	2342.88
736.09	2379.74
736.27	2234.33
736.45	2295.77
736.63	2131.94
736.81	2217.95
736.99	2406.36
737.17	2381.79
737.35	2156.51
737.53	2263.01
737.71	2207.71
737.89	2387.93
738.07	2252.77
738.25	2203.61
738.43	2103.26
738.61	2244.57
738.80	2117.60
738.98	2187.23
739.16	2246.62
739.34	2211.81
739.52	2392.03
739.70	2213.85
739.88	2340.83
740.06	2346.97
740.24	2105.31
740.42	2351.07
740.60	2099.17
740.78	2183.13
740.96	2060.26
741.14	2234.33
741.32	2181.09
741.50	2121.70
741.68	2547.67
741.86	2383.84
742.04	2146.27
742.22	2179.04
742.40	2273.25
742.58	2295.77
742.76	2226.14
742.94	2340.83
743.12	2070.50
743.30	2207.71
743.48	2256.86
743.66	2166.75
743.84	2312.16
744.02	2215.90
744.20	2252.77
744.38	2095.07
744.56	2140.13
744.74	2457.56
744.92	2318.30
745.10	2414.56
745.28	2328.54
745.46	2406.36
745.64	2193.37
745.82	2381.79
746.00	2203.61
746.18	2295.77
746.36	2162.66
746.54	2252.77
746.72	2271.20
746.90	2203.61
747.08	2353.12
747.26	2193.37
747.44	2326.49
747.62	2312.16
747.80	2217.95
747.98	2359.26
748.15	2240.48
748.33	2375.64
748.51	2271.20
748.69	2338.78
748.87	2211.81
749.05	2258.91
749.23	2293.72
749.41	2338.78
749.59	2226.14
749.77	2293.72
749.95	2193.37
750.13	2185.18
750.31	2351.07
750.49	2295.77
750.67	2322.40
750.85	2387.93
751.03	2281.44
751.20	2432.99
751.38	2234.33
751.56	2127.84
751.74	2285.53
751.92	2230.24
752.10	2095.07
752.28	2322.40
752.46	2111.46
752.64	2238.43
752.82	2271.20
753.00	2359.26
753.18	2203.61
753.35	2244.57
753.53	2322.40
753.71	2170.85
753.89	2316.25
754.07	2242.53
754.25	2355.16
754.43	2330.59
754.61	2172.89
754.79	2222.05
754.97	2285.53
755.14	2396.12
755.32	2109.41
755.50	2308.06
755.68	2303.96
755.86	2168.80
756.04	2154.46
756.22	2129.89
756.40	2312.16
756.57	2496.47
756.75	2203.61
756.93	2379.74
757.11	2424.80
757.29	2125.79
757.47	2133.98
757.65	2113.50
757.82	2017.25
758.00	2131.94
758.18	2230.24
758.36	2187.23
758.54	2322.40
758.72	2113.50
758.90	2420.70
759.07	2267.10
759.25	2191.33
759.43	2273.25
759.61	2144.22
759.79	3108.82
759.97	2371.55
760.15	2207.71
760.32	2197.47
760.50	2338.78
760.68	2373.60
760.86	2142.18
761.04	2363.36
761.22	2316.25
761.39	2306.01
761.57	2301.92
761.75	2172.89
761.93	2342.88
762.11	2252.77
762.28	2293.72
762.46	2133.98
762.64	2332.64
762.82	2047.97
763.00	2242.53
763.18	2408.41
763.35	2187.23
763.53	2236.38
763.71	2303.96
763.89	2252.77
764.07	2248.67
764.24	2222.05
764.42	2320.35
764.60	2263.01
764.78	2263.01
764.96	2310.11
765.13	2344.92
765.31	2209.76
765.49	2318.30
765.67	2064.35
765.84	2103.26
766.02	2213.85
766.20	2080.74
766.38	2252.77
766.56	2242.53
766.73	2240.48
766.91	2197.47
767.09	2285.53
767.27	2334.68
767.44	2172.89
767.62	2244.57
767.80	2330.59
767.98	2211.81
768.15	2220.00
768.33	2357.21
768.51	2396.12
768.69	2324.44
768.87	2260.96
769.04	2283.49
769.22	2492.38
769.40	2375.64
769.58	2475.99
769.75	2326.49
769.93	2361.31
770.11	2285.53
770.28	2183.13
770.46	2353.12
770.64	2275.29
770.82	2226.14
770.99	2220.00
771.17	2295.77
771.35	2213.85
771.53	2260.96
771.70	2252.77
771.88	2293.72
772.06	2301.92
772.23	2179.04
772.41	2340.83
772.59	2228.19
772.77	2111.46
772.94	2322.40
773.12	2289.63
773.30	2207.71
773.47	2285.53
773.65	2168.80
773.83	2441.18
774.01	2326.49
774.18	2062.30
774.36	2256.86
774.54	2129.89
774.71	2275.29
774.89	2115.55
775.07	2121.70
775.24	2121.70
775.42	2127.84
775.60	2416.60
775.78	2158.56
775.95	2068.45
776.13	2170.85
776.31	2152.42
776.48	2236.38
776.66	2334.68
776.84	2119.65
777.01	2158.56
777.19	2142.18
777.37	2144.22
777.54	2332.64
777.72	2500.57
777.90	2299.87
778.07	2170.85
778.25	2637.78
778.43	2367.45
778.60	2185.18
778.78	2291.68
778.96	2381.79
779.13	2123.74
779.31	2297.82
779.49	2193.37
779.66	2324.44
779.84	2281.44
780.01	2254.81
780.19	2160.61
780.37	2373.60
780.54	2234.33
780.72	2185.18
780.90	2187.23
781.07	2176.99
781.25	2203.61
781.43	2301.92
781.60	2226.14
781.78	2310.11
781.95	2271.20
782.13	2129.89
782.31	2263.01
782.48	2109.41
782.66	2318.30
782.83	2340.83
783.01	2277.34
783.19	2353.12
783.36	2187.23
783.54	2179.04
783.72	2394.08
783.89	2250.72
784.07	2217.95
784.24	2289.63
784.42	2447.32
784.60	2349.02
784.77	2244.57
784.95	1998.82
785.12	2240.48
785.30	2244.57
785.47	2152.42
785.65	2146.27
785.83	2195.42
786.00	2191.33
786.18	2220.00
786.35	2166.75
786.53	2152.42
786.71	2328.54
786.88	2301.92
787.06	2252.77
787.23	2170.85
787.41	2189.28
787.58	2293.72
787.76	2127.84
787.94	2203.61
788.11	2289.63
788.29	2146.27
788.46	2203.61
788.64	2179.04
788.81	2179.04
788.99	2103.26
789.16	2101.22
789.34	2281.44
789.52	2293.72
789.69	2228.19
789.87	2084.83
790.04	2222.05
790.22	2275.29
790.39	2447.32
790.57	2170.85
790.74	2179.04
790.92	2418.65
791.09	2045.92
791.27	2263.01
791.44	2371.55
791.62	2269.15
791.79	2277.34
791.97	2271.20
792.15	2449.37
792.32	2301.92
792.50	2322.40
792.67	2377.69
792.85	2455.51
793.02	2228.19
793.20	2215.90
793.37	2142.18
793.55	2226.14
793.72	2179.04
793.90	2365.40
794.07	2166.75
794.25	2166.75
794.42	2301.92
794.60	2220.00
794.77	2256.86
794.95	2291.68
795.12	2357.21
795.30	2246.62
795.47	2062.30
795.65	2461.66
795.82	2275.29
796.00	2158.56
796.17	2195.42
796.34	2146.27
796.52	2271.20
796.69	2330.59
796.87	2334.68
797.04	2254.81
797.22	2328.54
797.39	2314.20
797.57	2316.25
797.74	2314.20
797.92	2187.23
798.09	2179.04
798.27	2301.92
798.44	2226.14
798.62	2174.94
798.79	2310.11
798.96	2197.47
799.14	2201.57
799.31	2484.19
799.49	2267.10
799.66	2197.47
799.84	2271.20
800.01	2125.79
800.19	2211.81
800.36	2076.64
800.53	2269.15
800.71	2408.41
800.88	2410.46
801.06	2191.33
801.23	2230.24
801.41	2226.14
801.58	2176.99
801.75	2197.47
801.93	2326.49
802.10	2340.83
802.28	2226.14
802.45	2144.22
802.63	2263.01
802.80	2367.45
802.97	2207.71
803.15	2224.09
803.32	2154.46
803.50	2207.71
803.67	2199.52
803.84	2142.18
804.02	2199.52
804.19	2220.00
804.37	2072.54
804.54	2183.13
804.71	2187.23
804.89	2197.47
805.06	2162.66
805.24	2146.27
805.41	2144.22
805.58	2205.66
805.76	2480.09
805.93	2299.87
806.10	2430.94
806.28	2316.25
806.45	2285.53
806.63	2240.48
806.80	2308.06
806.97	2252.77
807.15	2267.10
807.32	2226.14
807.49	2215.90
807.67	2138.08
807.84	2318.30
808.01	2076.64
808.19	2402.27
808.36	2439.13
808.54	2252.77
808.71	2138.08
808.88	2263.01
809.06	2299.87
809.23	2373.60
809.40	2220.00
809.58	2281.44
809.75	2250.72
809.92	2107.36
810.10	2443.23
810.27	2187.23
810.44	2316.25
810.62	2299.87
810.79	2306.01
810.96	2183.13
811.14	2254.81
811.31	2340.83
811.48	2387.93
811.66	2269.15
811.83	2351.07
812.00	2287.58
812.18	2220.00
812.35	2504.67
812.52	2187.23
812.69	2191.33
812.87	2183.13
813.04	2144.22
813.21	2226.14
813.39	2267.10
813.56	2144.22
813.73	2291.68
813.91	2133.98
814.08	2283.49
814.25	2228.19
814.42	2129.89
814.60	2211.81
814.77	2273.25
814.94	2256.86
815.12	2226.14
815.29	2363.36
815.46	2242.53
815.63	2301.92
815.81	2250.72
815.98	2201.57
816.15	2195.42
816.33	2244.57
816.50	2072.54
816.67	2226.14
816.84	2310.11
817.02	2123.74
817.19	2207.71
817.36	2279.39
817.53	2291.68
817.71	2129.89
817.88	2334.68
818.05	2293.72
818.22	2301.92
818.40	2428.89
818.57	2248.67
818.74	2252.77
818.91	2232.29
819.09	2279.39
819.26	2324.44
819.43	2168.80
819.60	2166.75
819.78	2244.57
819.95	2297.82
820.12	2220.00
820.29	2387.93
820.47	2328.54
820.64	2082.78
820.81	2144.22
820.98	2140.13
821.15	2236.38
821.33	2328.54
821.50	2060.26
821.67	2291.68
821.84	2133.98
822.02	2248.67
822.19	2381.79
822.36	2277.34
822.53	2191.33
822.70	2105.31
822.88	2176.99
823.05	2385.88
823.22	2193.37
823.39	2279.39
823.56	2222.05
823.74	2396.12
823.91	2179.04
824.08	2162.66
824.25	2179.04
824.42	2437.08
824.60	2144.22
824.77	2306.01
824.94	2244.57
825.11	2248.67
825.28	2193.37
825.45	2244.57
825.63	2287.58
825.80	2217.95
825.97	2320.35
826.14	2236.38
826.31	2127.84
826.48	2252.77
826.66	2152.42
826.83	2211.81
827.00	2260.96
827.17	2256.86
827.34	2193.37
827.51	2230.24
827.69	2295.77
827.86	2113.50
828.03	2213.85
828.20	2252.77
828.37	2121.70
828.54	2291.68
828.71	2117.60
828.89	2326.49
829.06	2267.10
829.23	2398.17
829.40	2179.04
829.57	2174.94
829.74	2308.06
829.91	2213.85
830.09	2140.13
830.26	2250.72
830.43	2416.60
830.60	2215.90
830.77	2351.07
830.94	2363.36
831.11	2301.92
831.28	2183.13
831.46	2314.20
831.63	2117.60
831.80	2297.82
831.97	2211.81
832.14	2238.43
832.31	2201.57
832.48	2211.81
832.65	2334.68
832.82	2279.39
832.99	2236.38
833.17	2080.74
833.34	2414.56
833.51	2297.82
833.68	2115.55
833.85	2353.12
834.02	2205.66
834.19	2144.22
834.36	2195.42
834.53	2301.92
834.70	2340.83
834.87	2349.02
835.04	2207.71
835.22	2203.61
835.39	2220.00
835.56	2045.92
835.73	2234.33
835.90	2342.88
836.07	2148.32
836.24	2220.00
836.41	2164.70
836.58	2123.74
836.75	2396.12
836.92	2285.53
837.09	2185.18
837.26	2281.44
837.43	2283.49
837.60	2291.68
837.77	2209.76
837.94	2277.34
838.12	2367.45
838.29	2201.57
838.46	2064.35
838.63	2138.08
838.80	2437.08
838.97	2301.92
839.14	2183.13
839.31	2244.57
839.48	2260.96
839.65	2265.05
839.82	2240.48
839.99	2230.24
840.16	2254.81
840.33	2127.84
840.50	2215.90
840.67	2191.33
840.84	2025.44
841.01	2201.57
841.18	2113.50
841.35	2205.66
841.52	2392.03
841.69	2398.17
841.86	2232.29
842.03	2240.48
842.20	2351.07
842.37	2220.00
842.54	2203.61
842.71	2250.72
842.88	2125.79
843.05	2234.33
843.22	2232.29
843.39	2275.29
843.56	2238.43
843.73	2166.75
843.90	2146.27
844.07	2324.44
844.24	2324.44
844.41	2254.81
844.58	2224.09
844.75	2183.13
844.92	2332.64
845.09	2244.57
845.26	2052.06
845.43	2381.79
845.60	2238.43
845.77	2373.60
845.94	2195.42
846.10	2297.82
846.27	2103.26
846.44	2099.17
846.61	2121.70
846.78	2299.87
846.95	2353.12
847.12	2168.80
847.29	2209.76
847.46	2136.03
847.63	2326.49
847.80	2195.42
847.97	2195.42
848.14	2512.86
848.31	2220.00
848.48	2121.70
848.65	2226.14
848.82	2080.74
848.98	2412.51
849.15	2326.49
849.32	2301.92
849.49	2285.53
849.66	2291.68
849.83	2164.70
850.00	2078.69
850.17	2291.68
850.34	2271.20
850.51	2125.79
850.68	2181.09
850.85	2430.94
851.01	2254.81
851.18	2267.10
851.35	2117.60
851.52	2244.57
851.69	2437.08
851.86	2111.46
852.03	2215.90
852.20	2316.25
852.37	2314.20
852.53	2070.50
852.70	2164.70
852.87	2269.15
853.04	2355.16
853.21	2250.72
853.38	2330.59
853.55	2375.64
853.72	2387.93
853.89	2166.75
854.05	2168.80
854.22	2217.95
854.39	2254.81
854.56	2224.09
854.73	2310.11
854.90	2209.76
855.07	2263.01
855.23	2189.28
855.40	2140.13
855.57	2197.47
855.74	2041.82
855.91	2428.89
856.08	2060.26
856.25	2187.23
856.41	2109.41
856.58	2265.05
856.75	2183.13
856.92	2154.46
857.09	2299.87
857.26	2105.31
857.42	2203.61
857.59	2359.26
857.76	2191.33
857.93	2236.38
858.10	2189.28
858.27	2136.03
858.43	2342.88
858.60	2113.50
858.77	2119.65
858.94	2195.42
859.11	2314.20
859.27	2170.85
859.44	2166.75
859.61	2396.12
859.78	2263.01
859.95	2205.66
860.12	2162.66
860.28	2475.99
860.45	2494.43
860.62	2183.13
860.79	2189.28
860.95	2267.10
861.12	2172.89
861.29	2179.04
861.46	2160.61
861.63	2244.57
861.79	2334.68
861.96	2193.37
862.13	2252.77
862.30	2420.70
862.47	2158.56
862.63	2179.04
862.80	2277.34
862.97	2291.68
863.14	2334.68
863.30	2224.09
863.47	2166.75
863.64	2389.98
863.81	2291.68
863.97	2138.08
864.14	2236.38
864.31	2226.14
864.48	2289.63
864.65	2176.99
864.81	2260.96
864.98	2357.21
865.15	2283.49
865.32	2191.33
865.48	2299.87
865.65	2402.27
865.82	2248.67
865.98	2191.33
866.15	2242.53
866.32	2291.68
866.49	2193.37
866.65	2295.77
866.82	2150.37
866.99	2281.44
867.16	2228.19
867.32	2215.90
867.49	2174.94
867.66	2170.85
867.83	2129.89
867.99	2179.04
868.16	2150.37
868.33	2136.03
868.49	2250.72
868.66	2201.57
868.83	2260.96
868.99	2260.96
869.16	2279.39
869.33	2303.96
869.50	2301.92
869.66	2310.11
869.83	2213.85
870.00	2195.42
870.16	2299.87
870.33	2220.00
870.50	2293.72
870.66	2254.81
870.83	2379.74
871.00	2176.99
871.17	2301.92
871.33	2205.66
871.50	2187.23
871.67	2195.42
871.83	2123.74
872.00	2340.83
872.17	2220.00
872.33	2381.79
872.50	2359.26
872.67	2211.81
872.83	2228.19
873.00	2324.44
873.17	2176.99
873.33	2338.78
873.50	2293.72
873.67	2203.61
873.83	2162.66
874.00	2256.86
874.16	2277.34
874.33	2213.85
874.50	2125.79
874.66	2244.57
874.83	2211.81
875.00	2422.75
875.16	2359.26
875.33	2303.96
875.50	2002.91
875.66	2285.53
875.83	2281.44
875.99	2351.07
876.16	2162.66
876.33	2142.18
876.49	2150.37
876.66	2170.85
876.83	2146.27
876.99	2088.93
877.16	2232.29
877.32	2154.46
877.49	2176.99
877.66	2256.86
877.82	2334.68
877.99	2170.85
878.15	2275.29
878.32	2293.72
878.49	2297.82
878.65	2205.66
878.82	2310.11
878.98	2195.42
879.15	2301.92
879.32	2314.20
879.48	2191.33
879.65	2154.46
879.81	2176.99
879.98	2162.66
880.15	2179.04
880.31	2334.68
880.48	2205.66
880.64	2277.34
880.81	2320.35
880.97	2367.45
881.14	2322.40
881.31	2133.98
881.47	2437.08
881.64	2207.71
881.80	2144.22
881.97	2250.72
882.13	2234.33
882.30	2113.50
882.47	2183.13
882.63	2185.18
882.80	2209.76
882.96	2236.38
883.13	2351.07
883.29	2195.42
883.46	2164.70
883.62	2475.99
883.79	2176.99
883.95	2289.63
884.12	2258.91
884.29	2306.01
884.45	2287.58
884.62	2260.96
884.78	2158.56
884.95	2389.98
885.11	2142.18
885.28	2228.19
885.44	2209.76
885.61	2279.39
885.77	2357.21
885.94	2234.33
886.10	2187.23
886.27	2275.29
886.43	2338.78
886.60	2334.68
886.76	2183.13
886.93	2209.76
887.09	2277.34
887.26	2199.52
887.42	2248.67
887.59	2326.49
887.75	2527.19
887.92	2334.68
888.08	2299.87
888.25	2447.32
888.41	2361.31
888.58	2238.43
888.74	2123.74
888.91	2271.20
>>>>>End Processed Spectral Data<<<<<
