SpectraSuite Data File
++++++++++++++++++++++++++++++++++++
Date: Thu May 05 13:20:48 CEST 2016
User: root
Dark Spectrum Present: No
Reference Spectrum Present: No
Number of Sampled Component Spectra: 1
Spectrometers: USB4C02835
Integration Time (usec): 100000 (USB4C02835)
Spectra Averaged: 1 (USB4C02835)
Boxcar Smoothing: 0 (USB4C02835)
Correct for Electrical Dark: No (USB4C02835)
Strobe/Lamp Enabled: No (USB4C02835)
Correct for Detector Non-linearity: No (USB4C02835)
Correct for Stray Light: No (USB4C02835)
Number of Pixels in Processed Spectrum: 3648
>>>>>Begin Processed Spectral Data<<<<<
177.47	1865.70
177.69	1865.70
177.91	1865.70
178.13	1748.97
178.36	1777.64
178.58	2156.51
178.80	2248.67
179.02	2144.22
179.24	2195.42
179.46	2144.22
179.68	2234.33
179.90	2312.16
180.13	2310.11
180.35	2095.07
180.57	2119.65
180.79	2283.49
181.01	2226.14
181.23	2373.60
181.45	2275.29
181.67	2289.63
181.90	2375.64
182.12	2117.60
182.34	2050.02
182.56	2295.77
182.78	2310.11
183.00	2156.51
183.22	2187.23
183.44	2037.73
183.66	2506.71
183.89	2367.45
184.11	2158.56
184.33	2310.11
184.55	2299.87
184.77	2162.66
184.99	2127.84
185.21	2228.19
185.43	2414.56
185.65	2242.53
185.87	2181.09
186.10	2488.28
186.32	2441.18
186.54	2215.90
186.76	2234.33
186.98	2316.25
187.20	2254.81
187.42	2148.32
187.64	2226.14
187.86	2222.05
188.08	2371.55
188.30	2179.04
188.52	2144.22
188.75	2383.84
188.97	2281.44
189.19	2088.93
189.41	2125.79
189.63	2334.68
189.85	2189.28
190.07	2097.12
190.29	2129.89
190.51	2306.01
190.73	2162.66
190.95	2330.59
191.17	2181.09
191.39	2168.80
191.61	2269.15
191.84	2142.18
192.06	2248.67
192.28	2082.78
192.50	2564.06
192.72	2226.14
192.94	2187.23
193.16	2330.59
193.38	2260.96
193.60	2111.46
193.82	2220.00
194.04	2346.97
194.26	2299.87
194.48	2166.75
194.70	2146.27
194.92	2213.85
195.14	2359.26
195.36	2164.70
195.58	2217.95
195.80	2222.05
196.02	2115.55
196.24	2097.12
196.46	2189.28
196.69	2144.22
196.91	2459.61
197.13	2179.04
197.35	2160.61
197.57	2465.75
197.79	2328.54
198.01	2260.96
198.23	2254.81
198.45	2244.57
198.67	2070.50
198.89	2037.73
199.11	2246.62
199.33	2109.41
199.55	2084.83
199.77	2113.50
199.99	2344.92
200.21	2203.61
200.43	2258.91
200.65	2088.93
200.87	1949.67
201.09	2228.19
201.31	2213.85
201.53	2285.53
201.75	2144.22
201.97	2248.67
202.19	2310.11
202.41	2275.29
202.63	2308.06
202.85	2303.96
203.07	2289.63
203.29	2170.85
203.51	2088.93
203.73	2195.42
203.95	2588.63
204.17	2220.00
204.39	2199.52
204.61	2197.47
204.83	2183.13
205.05	2250.72
205.27	2203.61
205.49	2492.38
205.71	2203.61
205.93	2039.78
206.15	2099.17
206.37	2215.90
206.59	2217.95
206.81	2125.79
207.03	2070.50
207.25	2144.22
207.47	2353.12
207.69	2047.97
207.91	2342.88
208.13	2400.22
208.34	2217.95
208.56	2076.64
208.78	2217.95
209.00	2260.96
209.22	2269.15
209.44	2174.94
209.66	2211.81
209.88	2324.44
210.10	2230.24
210.32	2185.18
210.54	2195.42
210.76	2244.57
210.98	2359.26
211.20	2064.35
211.42	2256.86
211.64	2414.56
211.86	2285.53
212.08	2242.53
212.30	2148.32
212.52	2158.56
212.74	2369.50
212.96	2191.33
213.17	2228.19
213.39	2308.06
213.61	2398.17
213.83	2154.46
214.05	2201.57
214.27	2351.07
214.49	2121.70
214.71	2101.22
214.93	2334.68
215.15	2252.77
215.37	2349.02
215.59	2029.54
215.81	2215.90
216.03	2447.32
216.24	2232.29
216.46	2183.13
216.68	2260.96
216.90	2285.53
217.12	2310.11
217.34	2207.71
217.56	2228.19
217.78	2340.83
218.00	2295.77
218.22	2207.71
218.44	2252.77
218.66	2277.34
218.87	2465.75
219.09	2183.13
219.31	2170.85
219.53	2308.06
219.75	2213.85
219.97	2265.05
220.19	2242.53
220.41	2324.44
220.63	2416.60
220.85	2160.61
221.06	2215.90
221.28	2318.30
221.50	2260.96
221.72	2189.28
221.94	2093.02
222.16	2363.36
222.38	2326.49
222.60	2174.94
222.82	2121.70
223.03	2402.27
223.25	2213.85
223.47	2133.98
223.69	2336.73
223.91	2299.87
224.13	2330.59
224.35	2144.22
224.57	2281.44
224.78	2258.91
225.00	2129.89
225.22	2246.62
225.44	2133.98
225.66	2297.82
225.88	2224.09
226.10	2240.48
226.32	2181.09
226.53	2424.80
226.75	2248.67
226.97	2236.38
227.19	2228.19
227.41	2160.61
227.63	2156.51
227.85	2090.98
228.06	2150.37
228.28	2281.44
228.50	2422.75
228.72	2037.73
228.94	2168.80
229.16	2078.69
229.37	2113.50
229.59	2119.65
229.81	2267.10
230.03	2246.62
230.25	2162.66
230.47	2133.98
230.69	2129.89
230.90	2363.36
231.12	2146.27
231.34	2207.71
231.56	2232.29
231.78	2146.27
232.00	2275.29
232.21	2187.23
232.43	2168.80
232.65	2047.97
232.87	2373.60
233.09	2064.35
233.30	2107.36
233.52	2287.58
233.74	2191.33
233.96	2121.70
234.18	2236.38
234.40	2187.23
234.61	2453.47
234.83	2136.03
235.05	2115.55
235.27	2414.56
235.49	2400.22
235.70	2136.03
235.92	2228.19
236.14	2269.15
236.36	2490.33
236.58	2144.22
236.79	2164.70
237.01	2236.38
237.23	2273.25
237.45	2342.88
237.67	2093.02
237.88	2267.10
238.10	2459.61
238.32	2056.16
238.54	2168.80
238.76	2226.14
238.97	2168.80
239.19	2129.89
239.41	2176.99
239.63	2359.26
239.85	2191.33
240.06	2254.81
240.28	2207.71
240.50	2324.44
240.72	2250.72
240.93	2201.57
241.15	2338.78
241.37	2269.15
241.59	2359.26
241.81	2199.52
242.02	2142.18
242.24	2308.06
242.46	2344.92
242.68	2080.74
242.89	2164.70
243.11	2365.40
243.33	2258.91
243.55	2189.28
243.76	2250.72
243.98	2217.95
244.20	2234.33
244.42	2162.66
244.64	2195.42
244.85	2117.60
245.07	2150.37
245.29	2236.38
245.51	2191.33
245.72	2224.09
245.94	2441.18
246.16	2164.70
246.38	2260.96
246.59	2158.56
246.81	2160.61
247.03	2131.94
247.24	2031.58
247.46	2250.72
247.68	2244.57
247.90	2150.37
248.11	2154.46
248.33	2332.64
248.55	2297.82
248.77	2246.62
248.98	2291.68
249.20	2459.61
249.42	2230.24
249.64	2224.09
249.85	2260.96
250.07	2154.46
250.29	2375.64
250.50	2187.23
250.72	2111.46
250.94	2340.83
251.16	2512.86
251.37	2244.57
251.59	2252.77
251.81	2238.43
252.02	2285.53
252.24	2189.28
252.46	2334.68
252.68	2250.72
252.89	2250.72
253.11	2064.35
253.33	2273.25
253.54	2457.56
253.76	2187.23
253.98	2179.04
254.20	2205.66
254.41	2095.07
254.63	2211.81
254.85	2058.21
255.06	2248.67
255.28	2275.29
255.50	2193.37
255.71	2176.99
255.93	2099.17
256.15	2193.37
256.36	2285.53
256.58	2113.50
256.80	2152.42
257.02	2244.57
257.23	2267.10
257.45	2187.23
257.67	2267.10
257.88	2205.66
258.10	2195.42
258.32	2236.38
258.53	2240.48
258.75	2396.12
258.97	2240.48
259.18	2172.89
259.40	2176.99
259.62	2441.18
259.83	2437.08
260.05	2256.86
260.27	2557.91
260.48	2383.84
260.70	2138.08
260.92	2113.50
261.13	2230.24
261.35	2277.34
261.57	2318.30
261.78	2070.50
262.00	2154.46
262.22	2322.40
262.43	2179.04
262.65	2252.77
262.86	2232.29
263.08	2523.10
263.30	2260.96
263.51	1976.29
263.73	2072.54
263.95	2406.36
264.16	2164.70
264.38	2095.07
264.60	2156.51
264.81	2244.57
265.03	2351.07
265.25	2308.06
265.46	2201.57
265.68	2482.14
265.89	2328.54
266.11	2015.20
266.33	2156.51
266.54	2379.74
266.76	2308.06
266.98	2267.10
267.19	2328.54
267.41	2383.84
267.62	2246.62
267.84	2103.26
268.06	2154.46
268.27	2273.25
268.49	2357.21
268.70	2275.29
268.92	2187.23
269.14	2154.46
269.35	2066.40
269.57	2127.84
269.79	2263.01
270.00	2207.71
270.22	2428.89
270.43	2113.50
270.65	2066.40
270.87	2367.45
271.08	2367.45
271.30	2285.53
271.51	2164.70
271.73	2318.30
271.95	2330.59
272.16	2181.09
272.38	2260.96
272.59	2199.52
272.81	2250.72
273.02	2213.85
273.24	2189.28
273.46	2363.36
273.67	2138.08
273.89	2099.17
274.10	2224.09
274.32	2369.50
274.54	2265.05
274.75	2265.05
274.97	2154.46
275.18	2279.39
275.40	2318.30
275.61	2232.29
275.83	2234.33
276.05	2119.65
276.26	2179.04
276.48	2250.72
276.69	2203.61
276.91	2176.99
277.12	2377.69
277.34	2240.48
277.55	2383.84
277.77	2193.37
277.99	2232.29
278.20	2187.23
278.42	2078.69
278.63	2217.95
278.85	2146.27
279.06	2080.74
279.28	2308.06
279.49	2404.32
279.71	2346.97
279.93	2285.53
280.14	2201.57
280.36	2176.99
280.57	2314.20
280.79	2240.48
281.00	2144.22
281.22	2195.42
281.43	2344.92
281.65	2015.20
281.86	2166.75
282.08	2314.20
282.29	2496.47
282.51	2093.02
282.73	2090.98
282.94	2176.99
283.16	2334.68
283.37	2277.34
283.59	2269.15
283.80	2301.92
284.02	2236.38
284.23	2277.34
284.45	2203.61
284.66	2152.42
284.88	2179.04
285.09	2285.53
285.31	2316.25
285.52	2187.23
285.74	2097.12
285.95	2306.01
286.17	2203.61
286.38	2308.06
286.60	2215.90
286.81	2185.18
287.03	2244.57
287.24	2234.33
287.46	2271.20
287.67	2283.49
287.89	2326.49
288.10	2226.14
288.32	2224.09
288.53	2334.68
288.75	2209.76
288.96	2310.11
289.18	2199.52
289.39	2164.70
289.61	2211.81
289.82	2377.69
290.04	2392.03
290.25	2123.74
290.47	2230.24
290.68	2277.34
290.90	2271.20
291.11	2058.21
291.33	2306.01
291.54	2084.83
291.76	2217.95
291.97	2267.10
292.18	2306.01
292.40	2158.56
292.61	2133.98
292.83	2437.08
293.04	2195.42
293.26	2256.86
293.47	2318.30
293.69	2101.22
293.90	2248.67
294.12	2361.31
294.33	2238.43
294.55	2195.42
294.76	2269.15
294.97	2338.78
295.19	2389.98
295.40	2174.94
295.62	2201.57
295.83	2328.54
296.05	2174.94
296.26	2336.73
296.48	2146.27
296.69	2269.15
296.90	2144.22
297.12	2252.77
297.33	2301.92
297.55	2224.09
297.76	2291.68
297.98	2291.68
298.19	2387.93
298.41	2293.72
298.62	2117.60
298.83	2389.98
299.05	2244.57
299.26	2228.19
299.48	2181.09
299.69	2213.85
299.90	2205.66
300.12	2133.98
300.33	2318.30
300.55	2256.86
300.76	2271.20
300.98	2129.89
301.19	2334.68
301.40	2156.51
301.62	2201.57
301.83	2285.53
302.05	2275.29
302.26	2217.95
302.47	2181.09
302.69	2185.18
302.90	2293.72
303.12	2052.06
303.33	2213.85
303.54	2404.32
303.76	2228.19
303.97	2179.04
304.19	2375.64
304.40	2121.70
304.61	2277.34
304.83	2383.84
305.04	2232.29
305.26	2316.25
305.47	2174.94
305.68	2176.99
305.90	2095.07
306.11	2353.12
306.33	2213.85
306.54	2203.61
306.75	2164.70
306.97	2152.42
307.18	2220.00
307.39	2197.47
307.61	2277.34
307.82	2244.57
308.04	2318.30
308.25	2154.46
308.46	2301.92
308.68	2273.25
308.89	2189.28
309.10	2256.86
309.32	2326.49
309.53	2199.52
309.74	2355.16
309.96	2232.29
310.17	2301.92
310.39	2185.18
310.60	2322.40
310.81	2289.63
311.03	2168.80
311.24	2297.82
311.45	2226.14
311.67	2334.68
311.88	2207.71
312.09	2152.42
312.31	2265.05
312.52	2232.29
312.73	2242.53
312.95	2060.26
313.16	2158.56
313.37	2371.55
313.59	2277.34
313.80	2310.11
314.01	2449.37
314.23	2246.62
314.44	2146.27
314.65	2236.38
314.87	2138.08
315.08	2105.31
315.29	2187.23
315.51	2201.57
315.72	2107.36
315.93	2342.88
316.15	2277.34
316.36	2197.47
316.57	2318.30
316.79	2271.20
317.00	2217.95
317.21	2367.45
317.43	2152.42
317.64	2275.29
317.85	2131.94
318.07	2121.70
318.28	2263.01
318.49	2359.26
318.70	2512.86
318.92	2381.79
319.13	2437.08
319.34	2359.26
319.56	2416.60
319.77	2414.56
319.98	2363.36
320.20	2402.27
320.41	2310.11
320.62	2306.01
320.83	2150.37
321.05	2406.36
321.26	2248.67
321.47	2287.58
321.69	2398.17
321.90	2080.74
322.11	2191.33
322.32	2277.34
322.54	2412.51
322.75	2162.66
322.96	2584.54
323.18	2078.69
323.39	2082.78
323.60	2195.42
323.81	2269.15
324.03	2154.46
324.24	2181.09
324.45	2324.44
324.66	2242.53
324.88	2389.98
325.09	2418.65
325.30	2224.09
325.52	2281.44
325.73	2279.39
325.94	2226.14
326.15	2107.36
326.37	2142.18
326.58	2285.53
326.79	2441.18
327.00	2150.37
327.22	2230.24
327.43	2201.57
327.64	2101.22
327.85	2344.92
328.07	2152.42
328.28	2465.75
328.49	2217.95
328.70	2199.52
328.92	2230.24
329.13	2228.19
329.34	2324.44
329.55	2396.12
329.76	2428.89
329.98	2220.00
330.19	2402.27
330.40	2215.90
330.61	2236.38
330.83	2306.01
331.04	2179.04
331.25	2240.48
331.46	2222.05
331.68	2226.14
331.89	2351.07
332.10	2207.71
332.31	2121.70
332.52	2252.77
332.74	2392.03
332.95	2125.79
333.16	2152.42
333.37	2392.03
333.58	2207.71
333.80	2316.25
334.01	2133.98
334.22	2230.24
334.43	2170.85
334.64	2224.09
334.86	2062.30
335.07	2144.22
335.28	2387.93
335.49	2127.84
335.70	2207.71
335.92	2392.03
336.13	2527.19
336.34	2193.37
336.55	2248.67
336.76	2310.11
336.98	2142.18
337.19	2244.57
337.40	2349.02
337.61	2541.53
337.82	2205.66
338.04	2369.50
338.25	2113.50
338.46	2187.23
338.67	2265.05
338.88	2199.52
339.09	2121.70
339.31	2193.37
339.52	2170.85
339.73	2185.18
339.94	2148.32
340.15	2283.49
340.36	2246.62
340.58	2306.01
340.79	2166.75
341.00	2320.35
341.21	2131.94
341.42	2430.94
341.63	2234.33
341.85	2301.92
342.06	2252.77
342.27	2127.84
342.48	2308.06
342.69	2121.70
342.90	2232.29
343.12	2349.02
343.33	2187.23
343.54	2355.16
343.75	2367.45
343.96	2260.96
344.17	2138.08
344.38	2265.05
344.60	2158.56
344.81	2246.62
345.02	2248.67
345.23	2322.40
345.44	2459.61
345.65	2269.15
345.86	2187.23
346.07	2263.01
346.29	2183.13
346.50	2318.30
346.71	2308.06
346.92	2351.07
347.13	2461.66
347.34	2244.57
347.55	2113.50
347.76	2291.68
347.98	2090.98
348.19	2201.57
348.40	2363.36
348.61	2269.15
348.82	2394.08
349.03	2322.40
349.24	2146.27
349.45	2449.37
349.66	2054.11
349.88	2127.84
350.09	2133.98
350.30	2334.68
350.51	2379.74
350.72	2265.05
350.93	2213.85
351.14	2203.61
351.35	2275.29
351.56	2215.90
351.77	2205.66
351.99	2293.72
352.20	2346.97
352.41	2318.30
352.62	2064.35
352.83	2314.20
353.04	2162.66
353.25	2228.19
353.46	2308.06
353.67	2346.97
353.88	2129.89
354.09	2162.66
354.30	2275.29
354.52	2308.06
354.73	2232.29
354.94	2156.51
355.15	2199.52
355.36	2396.12
355.57	2179.04
355.78	2242.53
355.99	2115.55
356.20	2293.72
356.41	2320.35
356.62	2301.92
356.83	2297.82
357.04	2359.26
357.25	2129.89
357.46	2183.13
357.68	2146.27
357.89	2203.61
358.10	2217.95
358.31	2228.19
358.52	2260.96
358.73	2185.18
358.94	2144.22
359.15	2189.28
359.36	2269.15
359.57	2248.67
359.78	2213.85
359.99	2351.07
360.20	2185.18
360.41	2246.62
360.62	2318.30
360.83	2269.15
361.04	2252.77
361.25	2238.43
361.46	2377.69
361.67	2267.10
361.88	2226.14
362.09	2297.82
362.30	2326.49
362.51	2170.85
362.72	2306.01
362.93	2355.16
363.14	2277.34
363.35	2187.23
363.56	2123.74
363.78	2326.49
363.99	2301.92
364.20	2234.33
364.41	2248.67
364.62	2465.75
364.83	2244.57
365.04	2260.96
365.25	2199.52
365.46	2392.03
365.67	2111.46
365.88	2258.91
366.09	2226.14
366.30	2277.34
366.51	2226.14
366.72	2162.66
366.93	2228.19
367.14	2306.01
367.35	2367.45
367.56	2170.85
367.77	2353.12
367.98	2240.48
368.18	2375.64
368.39	2299.87
368.60	2090.98
368.81	2297.82
369.02	2332.64
369.23	2236.38
369.44	2035.68
369.65	2154.46
369.86	2277.34
370.07	2310.11
370.28	2187.23
370.49	2246.62
370.70	2314.20
370.91	2119.65
371.12	2156.51
371.33	2381.79
371.54	2228.19
371.75	2387.93
371.96	2017.25
372.17	2293.72
372.38	2260.96
372.59	2295.77
372.80	2211.81
373.01	2248.67
373.22	2260.96
373.43	2256.86
373.64	2174.94
373.85	2349.02
374.06	2369.50
374.26	2308.06
374.47	2226.14
374.68	2412.51
374.89	2246.62
375.10	2242.53
375.31	2295.77
375.52	2303.96
375.73	2289.63
375.94	2152.42
376.15	2418.65
376.36	2154.46
376.57	2154.46
376.78	2213.85
376.99	2238.43
377.20	2349.02
377.40	2265.05
377.61	2449.37
377.82	2215.90
378.03	2414.56
378.24	2332.64
378.45	2279.39
378.66	2258.91
378.87	2166.75
379.08	2031.58
379.29	2170.85
379.50	2314.20
379.71	2306.01
379.91	2344.92
380.12	2215.90
380.33	2209.76
380.54	2217.95
380.75	2256.86
380.96	2263.01
381.17	2277.34
381.38	2209.76
381.59	2273.25
381.80	2287.58
382.00	2410.46
382.21	2367.45
382.42	2492.38
382.63	2535.39
382.84	2351.07
383.05	2361.31
383.26	2385.88
383.47	2291.68
383.68	2324.44
383.88	2277.34
384.09	2240.48
384.30	2408.41
384.51	2318.30
384.72	2195.42
384.93	2187.23
385.14	2230.24
385.35	2336.73
385.55	2078.69
385.76	2453.47
385.97	2228.19
386.18	2215.90
386.39	2252.77
386.60	2189.28
386.81	2211.81
387.02	2142.18
387.22	2203.61
387.43	2285.53
387.64	2326.49
387.85	2424.80
388.06	2455.51
388.27	3989.44
388.48	8044.42
388.68	11550.54
388.89	13930.28
389.10	14929.69
389.31	13868.84
389.52	10776.41
389.73	9375.60
389.93	8482.69
390.14	7888.78
390.35	7061.40
390.56	6256.54
390.77	5259.18
390.98	4040.64
391.18	3286.99
391.39	2775.00
391.60	2363.36
391.81	2377.69
392.02	2176.99
392.23	2512.86
392.43	2293.72
392.64	2373.60
392.85	2283.49
393.06	2373.60
393.27	2299.87
393.47	2138.08
393.68	2256.86
393.89	2220.00
394.10	2387.93
394.31	2205.66
394.52	2082.78
394.72	2187.23
394.93	2521.05
395.14	2133.98
395.35	2293.72
395.56	2217.95
395.76	2303.96
395.97	2269.15
396.18	2379.74
396.39	2406.36
396.60	2734.04
396.80	2482.14
397.01	2367.45
397.22	2404.32
397.43	2453.47
397.64	2228.19
397.84	2359.26
398.05	2545.63
398.26	2273.25
398.47	2367.45
398.67	2326.49
398.88	2236.38
399.09	2322.40
399.30	2226.14
399.51	2285.53
399.71	2195.42
399.92	2217.95
400.13	2240.48
400.34	2260.96
400.54	2228.19
400.75	2387.93
400.96	2285.53
401.17	2414.56
401.37	2265.05
401.58	2269.15
401.79	2242.53
402.00	2318.30
402.21	2637.78
402.41	2557.91
402.62	2572.25
402.83	2682.84
403.04	2695.13
403.24	2844.63
403.45	2308.06
403.66	2506.71
403.87	2432.99
404.07	2449.37
404.28	2488.28
404.49	2471.90
404.70	2338.78
404.90	2422.75
405.11	2256.86
405.32	2265.05
405.52	2220.00
405.73	2211.81
405.94	2179.04
406.15	2162.66
406.35	2340.83
406.56	2306.01
406.77	2234.33
406.98	2277.34
407.18	2199.52
407.39	2465.75
407.60	2285.53
407.80	2258.91
408.01	2244.57
408.22	2269.15
408.43	2162.66
408.63	2314.20
408.84	2324.44
409.05	2314.20
409.25	2162.66
409.46	2195.42
409.67	2226.14
409.88	2183.13
410.08	2310.11
410.29	2240.48
410.50	2342.88
410.70	2326.49
410.91	2195.42
411.12	2224.09
411.32	2283.49
411.53	2166.75
411.74	2351.07
411.95	2371.55
412.15	2312.16
412.36	2385.88
412.57	2267.10
412.77	2326.49
412.98	2314.20
413.19	2254.81
413.39	2293.72
413.60	2265.05
413.81	2443.23
414.01	2129.89
414.22	2246.62
414.43	2269.15
414.63	2267.10
414.84	2359.26
415.05	2267.10
415.25	2109.41
415.46	2217.95
415.67	2254.81
415.87	2377.69
416.08	2291.68
416.29	2191.33
416.49	2314.20
416.70	2127.84
416.91	2240.48
417.11	2203.61
417.32	2359.26
417.53	2285.53
417.73	2277.34
417.94	2252.77
418.15	2217.95
418.35	2250.72
418.56	2285.53
418.77	2475.99
418.97	2174.94
419.18	2207.71
419.38	2041.82
419.59	2195.42
419.80	2432.99
420.00	2228.19
420.21	2301.92
420.42	2346.97
420.62	2306.01
420.83	2197.47
421.04	2220.00
421.24	2199.52
421.45	2299.87
421.65	2289.63
421.86	2187.23
422.07	2330.59
422.27	2244.57
422.48	2252.77
422.69	2115.55
422.89	2318.30
423.10	2232.29
423.30	2072.54
423.51	2267.10
423.72	2289.63
423.92	2342.88
424.13	2185.18
424.33	2287.58
424.54	2240.48
424.75	2303.96
424.95	2379.74
425.16	2254.81
425.36	2199.52
425.57	2365.40
425.78	2414.56
425.98	2312.16
426.19	2162.66
426.39	2144.22
426.60	2330.59
426.81	2344.92
427.01	2326.49
427.22	2150.37
427.42	2078.69
427.63	2230.24
427.83	2277.34
428.04	2435.03
428.25	2293.72
428.45	2340.83
428.66	2394.08
428.86	2279.39
429.07	2260.96
429.28	2236.38
429.48	2244.57
429.69	2138.08
429.89	2228.19
430.10	2174.94
430.30	2334.68
430.51	2328.54
430.71	2095.07
430.92	2230.24
431.13	2199.52
431.33	2351.07
431.54	2265.05
431.74	2424.80
431.95	2394.08
432.15	2138.08
432.36	2318.30
432.56	2314.20
432.77	2473.95
432.98	2392.03
433.18	2342.88
433.39	2291.68
433.59	2250.72
433.80	2494.43
434.00	2469.85
434.21	2226.14
434.41	2156.51
434.62	2555.86
434.82	2142.18
435.03	2150.37
435.23	2312.16
435.44	2099.17
435.64	2283.49
435.85	2252.77
436.06	2385.88
436.26	2367.45
436.47	2181.09
436.67	2176.99
436.88	2207.71
437.08	2293.72
437.29	2398.17
437.49	2213.85
437.70	2365.40
437.90	2322.40
438.11	2408.41
438.31	2310.11
438.52	2469.85
438.72	2412.51
438.93	2506.71
439.13	2353.12
439.34	2432.99
439.54	2207.71
439.75	2381.79
439.95	2322.40
440.16	2213.85
440.36	2314.20
440.57	2250.72
440.77	2351.07
440.98	2326.49
441.18	2301.92
441.39	2199.52
441.59	2080.74
441.80	2455.51
442.00	2172.89
442.21	2379.74
442.41	2125.79
442.62	2373.60
442.82	2254.81
443.02	2252.77
443.23	2334.68
443.43	2230.24
443.64	2398.17
443.84	2176.99
444.05	2353.12
444.25	2258.91
444.46	2187.23
444.66	2285.53
444.87	2383.84
445.07	2086.88
445.28	2230.24
445.48	2408.41
445.69	2373.60
445.89	2496.47
446.09	2349.02
446.30	2537.43
446.50	2822.10
446.71	4380.61
446.91	5625.77
447.12	6324.13
447.32	6641.56
447.53	6176.67
447.73	5099.44
447.93	4536.25
448.14	4345.79
448.34	4175.81
448.55	3508.17
448.75	3526.60
448.96	3356.62
449.16	3088.34
449.36	2951.12
449.57	2533.34
449.77	2365.40
449.98	2279.39
450.18	2373.60
450.39	2381.79
450.59	2383.84
450.79	2228.19
451.00	2230.24
451.20	2353.12
451.41	2205.66
451.61	2322.40
451.81	2293.72
452.02	2207.71
452.22	2209.76
452.43	2230.24
452.63	2185.18
452.84	2195.42
453.04	2211.81
453.24	2332.64
453.45	2215.90
453.65	2369.50
453.86	2248.67
454.06	2367.45
454.26	2277.34
454.47	2166.75
454.67	2375.64
454.87	2326.49
455.08	2316.25
455.28	2428.89
455.49	2275.29
455.69	2146.27
455.89	2545.63
456.10	2406.36
456.30	2203.61
456.51	2357.21
456.71	2232.29
456.91	2281.44
457.12	2244.57
457.32	2349.02
457.52	2193.37
457.73	2314.20
457.93	2383.84
458.14	2179.04
458.34	2113.50
458.54	2277.34
458.75	2187.23
458.95	2351.07
459.15	2351.07
459.36	2334.68
459.56	2346.97
459.76	2510.81
459.97	2234.33
460.17	2310.11
460.37	2299.87
460.58	2293.72
460.78	2375.64
460.99	2258.91
461.19	2244.57
461.39	2166.75
461.60	2215.90
461.80	2310.11
462.00	2197.47
462.21	2301.92
462.41	2150.37
462.61	2119.65
462.82	2047.97
463.02	2332.64
463.22	2252.77
463.43	2318.30
463.63	2230.24
463.83	2447.32
464.04	2240.48
464.24	2220.00
464.44	2289.63
464.64	2273.25
464.85	2322.40
465.05	2314.20
465.25	2287.58
465.46	2201.57
465.66	2367.45
465.86	2236.38
466.07	2310.11
466.27	2260.96
466.47	2125.79
466.68	2093.02
466.88	2441.18
467.08	2269.15
467.29	2392.03
467.49	2281.44
467.69	2242.53
467.89	2240.48
468.10	2205.66
468.30	2217.95
468.50	2449.37
468.71	2435.03
468.91	2097.12
469.11	2424.80
469.31	2334.68
469.52	2181.09
469.72	2475.99
469.92	2502.62
470.13	2236.38
470.33	2310.11
470.53	2435.03
470.73	2578.39
470.94	3143.63
471.14	3213.26
471.34	3502.03
471.54	3358.67
471.75	3055.57
471.95	2891.73
472.15	2703.32
472.36	2834.39
472.56	2631.64
472.76	2740.18
472.96	2584.54
473.17	2539.48
473.37	2445.27
473.57	2359.26
473.77	2320.35
473.98	2308.06
474.18	2121.70
474.38	2629.59
474.58	2295.77
474.79	2154.46
474.99	2316.25
475.19	2398.17
475.39	2203.61
475.60	2322.40
475.80	2287.58
476.00	2297.82
476.20	2232.29
476.41	2142.18
476.61	2418.65
476.81	2351.07
477.01	2148.32
477.21	2408.41
477.42	2406.36
477.62	2195.42
477.82	2355.16
478.02	2201.57
478.23	2277.34
478.43	2166.75
478.63	2238.43
478.83	2285.53
479.03	2195.42
479.24	2441.18
479.44	2490.33
479.64	2222.05
479.84	2103.26
480.04	2254.81
480.25	2473.95
480.45	2176.99
480.65	2203.61
480.85	2418.65
481.06	2248.67
481.26	2310.11
481.46	2291.68
481.66	2252.77
481.86	2215.90
482.06	2379.74
482.27	2179.04
482.47	2267.10
482.67	2299.87
482.87	2226.14
483.07	2318.30
483.28	2187.23
483.48	2127.84
483.68	2176.99
483.88	2154.46
484.08	2052.06
484.29	2101.22
484.49	2275.29
484.69	2131.94
484.89	2381.79
485.09	2342.88
485.29	2301.92
485.50	2344.92
485.70	2269.15
485.90	2410.46
486.10	2299.87
486.30	2254.81
486.50	2336.73
486.71	2324.44
486.91	2314.20
487.11	2312.16
487.31	2148.32
487.51	2289.63
487.71	2113.50
487.91	2162.66
488.12	2265.05
488.32	2017.25
488.52	2201.57
488.72	2119.65
488.92	2275.29
489.12	2320.35
489.32	2338.78
489.53	2244.57
489.73	2133.98
489.93	2387.93
490.13	2209.76
490.33	2068.45
490.53	2297.82
490.73	2428.89
490.94	2160.61
491.14	2375.64
491.34	2389.98
491.54	2566.10
491.74	3133.39
491.94	3721.16
492.14	4009.92
492.34	4089.79
492.54	3729.35
492.75	3227.60
492.95	3110.86
493.15	3014.61
493.35	2906.07
493.55	2879.44
493.75	2752.47
493.95	2777.05
494.15	2615.26
494.35	2453.47
494.56	2334.68
494.76	2252.77
494.96	2232.29
495.16	2248.67
495.36	2193.37
495.56	2289.63
495.76	2228.19
495.96	2260.96
496.16	2209.76
496.36	2523.10
496.56	2217.95
496.77	2369.50
496.97	2295.77
497.17	2396.12
497.37	2230.24
497.57	2277.34
497.77	2228.19
497.97	2166.75
498.17	2250.72
498.37	2248.67
498.57	2279.39
498.77	2260.96
498.97	2332.64
499.17	2379.74
499.38	2236.38
499.58	2340.83
499.78	2377.69
499.98	2381.79
500.18	2226.14
500.38	2203.61
500.58	2430.94
500.78	2916.31
500.98	5074.87
501.18	7176.08
501.38	8695.68
501.58	9645.93
501.78	9693.04
501.98	7606.16
502.18	6397.85
502.38	5523.37
502.58	5210.03
502.78	4624.31
502.98	4399.04
503.18	4167.62
503.38	3747.78
503.59	3362.76
503.79	3045.33
503.99	2965.46
504.19	2842.58
504.39	2834.39
504.59	2854.87
504.79	2818.00
504.99	2815.96
505.19	2521.05
505.39	2492.38
505.59	2621.40
505.79	2490.33
505.99	2416.60
506.19	2318.30
506.39	2506.71
506.59	2295.77
506.79	2277.34
506.99	2428.89
507.19	2228.19
507.39	2308.06
507.59	2207.71
507.79	2179.04
507.99	2131.94
508.19	2260.96
508.39	2154.46
508.59	2250.72
508.79	2410.46
508.99	2508.76
509.19	2203.61
509.39	2375.64
509.59	2183.13
509.79	2224.09
509.99	2275.29
510.19	2314.20
510.39	2344.92
510.59	2263.01
510.79	2203.61
510.99	2224.09
511.19	2318.30
511.39	2430.94
511.59	2365.40
511.79	2439.13
511.99	2293.72
512.19	2426.84
512.38	2191.33
512.58	2156.51
512.78	2271.20
512.98	2387.93
513.18	2377.69
513.38	2174.94
513.58	2320.35
513.78	2260.96
513.98	2258.91
514.18	2152.42
514.38	2191.33
514.58	2338.78
514.78	2217.95
514.98	2207.71
515.18	2277.34
515.38	2164.70
515.58	2496.47
515.78	2224.09
515.98	2211.81
516.18	2291.68
516.38	2303.96
516.57	2168.80
516.77	2154.46
516.97	2344.92
517.17	2242.53
517.37	2072.54
517.57	2353.12
517.77	2215.90
517.97	2215.90
518.17	2258.91
518.37	2195.42
518.57	2252.77
518.77	2215.90
518.97	2277.34
519.16	2224.09
519.36	2424.80
519.56	2234.33
519.76	2170.85
519.96	2316.25
520.16	2453.47
520.36	2209.76
520.56	2355.16
520.76	2211.81
520.96	2279.39
521.16	2379.74
521.35	2367.45
521.55	2322.40
521.75	2293.72
521.95	2236.38
522.15	2308.06
522.35	2136.03
522.55	2234.33
522.75	2355.16
522.95	2211.81
523.14	2164.70
523.34	2260.96
523.54	2265.05
523.74	2308.06
523.94	2293.72
524.14	2109.41
524.34	2338.78
524.54	2365.40
524.73	2258.91
524.93	2260.96
525.13	2285.53
525.33	2107.36
525.53	2482.14
525.73	2308.06
525.93	2308.06
526.13	2174.94
526.32	2207.71
526.52	2424.80
526.72	2338.78
526.92	2129.89
527.12	2150.37
527.32	2080.74
527.52	2277.34
527.71	2277.34
527.91	2256.86
528.11	2203.61
528.31	2269.15
528.51	2222.05
528.71	2291.68
528.90	2310.11
529.10	2461.66
529.30	2326.49
529.50	2043.87
529.70	2344.92
529.90	2117.60
530.09	2306.01
530.29	2168.80
530.49	2129.89
530.69	2562.01
530.89	2351.07
531.09	2346.97
531.28	2203.61
531.48	2387.93
531.68	2205.66
531.88	2256.86
532.08	2377.69
532.28	2195.42
532.47	2357.21
532.67	2437.08
532.87	2324.44
533.07	2203.61
533.27	2361.31
533.46	2320.35
533.66	2326.49
533.86	2217.95
534.06	2281.44
534.26	2353.12
534.45	2226.14
534.65	2361.31
534.85	2293.72
535.05	2226.14
535.25	2389.98
535.44	2133.98
535.64	2328.54
535.84	2232.29
536.04	2308.06
536.24	2168.80
536.43	2162.66
536.63	2369.50
536.83	2258.91
537.03	2273.25
537.22	2113.50
537.42	2064.35
537.62	2285.53
537.82	2193.37
538.02	2326.49
538.21	2342.88
538.41	2523.10
538.61	2340.83
538.81	2271.20
539.00	2326.49
539.20	2176.99
539.40	2197.47
539.60	2289.63
539.79	2373.60
539.99	2324.44
540.19	2162.66
540.39	2207.71
540.58	2334.68
540.78	2346.97
540.98	2232.29
541.18	2383.84
541.37	2332.64
541.57	2275.29
541.77	2250.72
541.97	2123.74
542.16	2115.55
542.36	2250.72
542.56	2256.86
542.76	2412.51
542.95	2340.83
543.15	2359.26
543.35	2334.68
543.54	2179.04
543.74	2187.23
543.94	2408.41
544.14	2285.53
544.33	2371.55
544.53	2207.71
544.73	2203.61
544.93	2277.34
545.12	2291.68
545.32	2322.40
545.52	2209.76
545.71	2097.12
545.91	2203.61
546.11	2152.42
546.30	2232.29
546.50	2201.57
546.70	2326.49
546.90	2230.24
547.09	2101.22
547.29	2301.92
547.49	2291.68
547.68	2183.13
547.88	2271.20
548.08	2363.36
548.27	2785.24
548.47	2199.52
548.67	2265.05
548.87	2318.30
549.06	2142.18
549.26	2283.49
549.46	2285.53
549.65	2230.24
549.85	2291.68
550.05	2263.01
550.24	2191.33
550.44	2336.73
550.64	2215.90
550.83	2234.33
551.03	2310.11
551.23	2392.03
551.42	2260.96
551.62	2248.67
551.82	2273.25
552.01	2189.28
552.21	2332.64
552.41	2273.25
552.60	2381.79
552.80	2324.44
553.00	2207.71
553.19	2301.92
553.39	2422.75
553.59	2148.32
553.78	2283.49
553.98	2332.64
554.17	2148.32
554.37	2410.46
554.57	2351.07
554.76	2127.84
554.96	2197.47
555.16	2320.35
555.35	2308.06
555.55	2293.72
555.75	2308.06
555.94	2404.32
556.14	2158.56
556.33	2336.73
556.53	2236.38
556.73	2240.48
556.92	2297.82
557.12	2344.92
557.32	2467.80
557.51	2412.51
557.71	2314.20
557.90	2332.64
558.10	2379.74
558.30	2289.63
558.49	2265.05
558.69	2166.75
558.88	2355.16
559.08	2306.01
559.28	2314.20
559.47	2236.38
559.67	2392.03
559.86	2510.81
560.06	2234.33
560.26	2252.77
560.45	2351.07
560.65	2224.09
560.84	2463.71
561.04	2174.94
561.24	2299.87
561.43	2156.51
561.63	2549.72
561.82	2289.63
562.02	2310.11
562.22	2215.90
562.41	2236.38
562.61	2299.87
562.80	2160.61
563.00	2508.76
563.19	2342.88
563.39	2334.68
563.59	2332.64
563.78	2209.76
563.98	2164.70
564.17	2228.19
564.37	2045.92
564.56	2224.09
564.76	2181.09
564.96	2349.02
565.15	2297.82
565.35	2514.91
565.54	2211.81
565.74	2248.67
565.93	2297.82
566.13	2222.05
566.32	2318.30
566.52	2295.77
566.71	2310.11
566.91	2355.16
567.11	2371.55
567.30	2195.42
567.50	2398.17
567.69	2334.68
567.89	2289.63
568.08	2138.08
568.28	2316.25
568.47	2189.28
568.67	2281.44
568.86	2209.76
569.06	2340.83
569.25	2279.39
569.45	2156.51
569.64	2238.43
569.84	2215.90
570.04	2275.29
570.23	2187.23
570.43	2301.92
570.62	2226.14
570.82	2396.12
571.01	2260.96
571.21	2195.42
571.40	2115.55
571.60	2367.45
571.79	2322.40
571.99	2287.58
572.18	2129.89
572.38	2314.20
572.57	2203.61
572.77	2332.64
572.96	2568.15
573.16	2269.15
573.35	2326.49
573.55	2392.03
573.74	2275.29
573.94	2269.15
574.13	2152.42
574.33	2281.44
574.52	2453.47
574.71	2281.44
574.91	2299.87
575.10	2205.66
575.30	2217.95
575.49	2146.27
575.69	2211.81
575.88	2324.44
576.08	2254.81
576.27	2410.46
576.47	2289.63
576.66	2439.13
576.86	2465.75
577.05	2320.35
577.25	2439.13
577.44	2463.71
577.64	2211.81
577.83	2306.01
578.02	2301.92
578.22	2510.81
578.41	2451.42
578.61	2275.29
578.80	2193.37
579.00	2316.25
579.19	2342.88
579.39	2297.82
579.58	2396.12
579.77	2297.82
579.97	2498.52
580.16	2385.88
580.36	2383.84
580.55	2342.88
580.75	2297.82
580.94	2279.39
581.13	2402.27
581.33	2416.60
581.52	2267.10
581.72	2572.25
581.91	2430.94
582.11	2228.19
582.30	2342.88
582.49	2293.72
582.69	2529.24
582.88	2314.20
583.08	2314.20
583.27	2478.04
583.47	2316.25
583.66	2211.81
583.85	2234.33
584.05	2414.56
584.24	2375.64
584.44	2416.60
584.63	2416.60
584.82	2523.10
585.02	2471.90
585.21	2392.03
585.41	2459.61
585.60	2328.54
585.79	2537.43
585.99	2516.95
586.18	2475.99
586.37	2924.50
586.57	4624.31
586.76	13883.18
586.96	32763.40
587.15	46232.89
587.34	55837.87
587.54	60591.20
587.73	55772.33
587.93	39556.52
588.12	29793.85
588.31	23766.68
588.51	20924.10
588.70	19160.80
588.89	17227.51
589.09	15177.50
589.28	12967.74
589.47	10430.30
589.67	8216.45
589.86	6352.80
590.06	4648.89
590.25	3846.09
590.44	3237.84
590.64	2834.39
590.83	2613.21
591.02	2551.77
591.22	2400.22
591.41	2357.21
591.60	2355.16
591.80	2519.00
591.99	2193.37
592.18	2230.24
592.38	2381.79
592.57	2275.29
592.76	2303.96
592.96	2381.79
593.15	2328.54
593.34	2404.32
593.54	2236.38
593.73	2373.60
593.92	2351.07
594.12	2383.84
594.31	2363.36
594.50	2428.89
594.70	2353.12
594.89	2545.63
595.08	2228.19
595.28	2361.31
595.47	2566.10
595.66	2373.60
595.86	2187.23
596.05	2277.34
596.24	2301.92
596.43	2533.34
596.63	2383.84
596.82	2365.40
597.01	2387.93
597.21	2428.89
597.40	2346.97
597.59	2355.16
597.79	2308.06
597.98	2381.79
598.17	2310.11
598.36	2267.10
598.56	2428.89
598.75	2228.19
598.94	2287.58
599.14	2359.26
599.33	2176.99
599.52	2346.97
599.71	2260.96
599.91	2375.64
600.10	2357.21
600.29	2265.05
600.48	2342.88
600.68	2336.73
600.87	2299.87
601.06	2256.86
601.26	2248.67
601.45	2385.88
601.64	2201.57
601.83	2396.12
602.03	2220.00
602.22	2107.36
602.41	2406.36
602.60	2535.39
602.80	2369.50
602.99	2250.72
603.18	2248.67
603.37	2240.48
603.57	2228.19
603.76	2297.82
603.95	2416.60
604.14	2244.57
604.34	2119.65
604.53	2252.77
604.72	2365.40
604.91	2334.68
605.10	2342.88
605.30	2166.75
605.49	2445.27
605.68	2312.16
605.87	2289.63
606.07	2187.23
606.26	2301.92
606.45	2369.50
606.64	2308.06
606.84	2260.96
607.03	2324.44
607.22	2359.26
607.41	2297.82
607.60	2254.81
607.80	2392.03
607.99	2205.66
608.18	2334.68
608.37	2324.44
608.56	2168.80
608.76	2451.42
608.95	2430.94
609.14	2463.71
609.33	2420.70
609.52	2457.56
609.72	2340.83
609.91	2363.36
610.10	2351.07
610.29	2432.99
610.48	2383.84
610.68	2359.26
610.87	2220.00
611.06	2351.07
611.25	2293.72
611.44	2346.97
611.63	2314.20
611.83	2443.23
612.02	2185.18
612.21	2396.12
612.40	2095.07
612.59	2172.89
612.79	2211.81
612.98	2222.05
613.17	2375.64
613.36	2367.45
613.55	2418.65
613.74	2324.44
613.93	2408.41
614.13	2502.62
614.32	2445.27
614.51	2447.32
614.70	2326.49
614.89	2320.35
615.08	2299.87
615.28	2832.34
615.47	2170.85
615.66	2371.55
615.85	2340.83
616.04	2422.75
616.23	2314.20
616.42	2316.25
616.62	2330.59
616.81	2297.82
617.00	2289.63
617.19	2394.08
617.38	2275.29
617.57	2299.87
617.76	2346.97
617.95	2332.64
618.15	2359.26
618.34	2361.31
618.53	2170.85
618.72	2430.94
618.91	2414.56
619.10	2408.41
619.29	2365.40
619.48	2289.63
619.68	2187.23
619.87	2252.77
620.06	2136.03
620.25	2328.54
620.44	2277.34
620.63	2166.75
620.82	2285.53
621.01	2306.01
621.20	2328.54
621.39	2277.34
621.59	2334.68
621.78	2330.59
621.97	2199.52
622.16	2299.87
622.35	2285.53
622.54	2332.64
622.73	2351.07
622.92	2105.31
623.11	2375.64
623.30	2238.43
623.49	2277.34
623.68	2170.85
623.88	2359.26
624.07	2269.15
624.26	2299.87
624.45	2236.38
624.64	2226.14
624.83	2299.87
625.02	2220.00
625.21	2273.25
625.40	2201.57
625.59	2355.16
625.78	2215.90
625.97	2324.44
626.16	2527.19
626.35	2404.32
626.54	2396.12
626.74	2473.95
626.93	2269.15
627.12	2269.15
627.31	2373.60
627.50	2283.49
627.69	2371.55
627.88	2224.09
628.07	2236.38
628.26	2146.27
628.45	2275.29
628.64	2215.90
628.83	2308.06
629.02	2226.14
629.21	2422.75
629.40	2336.73
629.59	2230.24
629.78	2195.42
629.97	2258.91
630.16	2332.64
630.35	2248.67
630.54	2330.59
630.73	2168.80
630.92	2258.91
631.11	2226.14
631.30	2312.16
631.49	2379.74
631.68	2242.53
631.87	2383.84
632.06	2144.22
632.25	2490.33
632.44	2355.16
632.63	2265.05
632.82	2230.24
633.01	2252.77
633.20	2369.50
633.39	2306.01
633.58	2131.94
633.77	2379.74
633.96	2369.50
634.15	2441.18
634.34	2279.39
634.53	2308.06
634.72	2197.47
634.91	2138.08
635.10	2267.10
635.29	2328.54
635.48	2324.44
635.67	2234.33
635.86	2144.22
636.05	2424.80
636.24	2318.30
636.43	2252.77
636.62	2277.34
636.81	2023.39
637.00	2326.49
637.19	2289.63
637.38	2273.25
637.57	2195.42
637.76	2297.82
637.95	2402.27
638.14	2295.77
638.33	2318.30
638.52	2301.92
638.71	2174.94
638.89	2209.76
639.08	2594.78
639.27	2435.03
639.46	2414.56
639.65	2746.33
639.84	2883.54
640.03	2994.13
640.22	2891.73
640.41	2875.35
640.60	2482.14
640.79	2574.30
640.98	2422.75
641.17	2447.32
641.36	2449.37
641.55	2406.36
641.74	2312.16
641.92	2285.53
642.11	2183.13
642.30	2242.53
642.49	2199.52
642.68	2281.44
642.87	2271.20
643.06	2342.88
643.25	2275.29
643.44	2168.80
643.63	2220.00
643.82	2396.12
644.00	2140.13
644.19	2224.09
644.38	2193.37
644.57	2338.78
644.76	2267.10
644.95	2193.37
645.14	2234.33
645.33	2254.81
645.52	2232.29
645.71	2156.51
645.89	2185.18
646.08	2232.29
646.27	2252.77
646.46	2353.12
646.65	2187.23
646.84	2275.29
647.03	2084.83
647.22	2281.44
647.40	2260.96
647.59	2154.46
647.78	2095.07
647.97	2121.70
648.16	2109.41
648.35	2414.56
648.54	2365.40
648.73	2195.42
648.91	2346.97
649.10	2254.81
649.29	2201.57
649.48	2246.62
649.67	2252.77
649.86	2242.53
650.05	2412.51
650.23	2473.95
650.42	2256.86
650.61	2465.75
650.80	2387.93
650.99	2555.86
651.18	2389.98
651.36	2494.43
651.55	2250.72
651.74	2277.34
651.93	2234.33
652.12	2281.44
652.31	2297.82
652.49	2220.00
652.68	2256.86
652.87	2473.95
653.06	2336.73
653.25	2414.56
653.44	2244.57
653.62	2441.18
653.81	2301.92
654.00	2195.42
654.19	2289.63
654.38	2420.70
654.56	2291.68
654.75	2179.04
654.94	2344.92
655.13	2234.33
655.32	2252.77
655.51	2379.74
655.69	2207.71
655.88	2312.16
656.07	2158.56
656.26	2310.11
656.45	2166.75
656.63	2324.44
656.82	2228.19
657.01	2330.59
657.20	2201.57
657.38	2379.74
657.57	2318.30
657.76	2097.12
657.95	2389.98
658.14	2185.18
658.32	2299.87
658.51	2095.07
658.70	2283.49
658.89	2322.40
659.08	2273.25
659.26	2496.47
659.45	2289.63
659.64	2404.32
659.83	2258.91
660.01	2611.16
660.20	2349.02
660.39	2424.80
660.58	2072.54
660.76	2316.25
660.95	2050.02
661.14	2252.77
661.33	2101.22
661.51	2250.72
661.70	2269.15
661.89	2291.68
662.08	2240.48
662.26	2193.37
662.45	2220.00
662.64	2473.95
662.83	2334.68
663.01	2133.98
663.20	2166.75
663.39	2392.03
663.58	2258.91
663.76	2197.47
663.95	2385.88
664.14	2158.56
664.32	2217.95
664.51	2191.33
664.70	2097.12
664.89	2320.35
665.07	2191.33
665.26	2351.07
665.45	2185.18
665.64	2340.83
665.82	2277.34
666.01	2351.07
666.20	2193.37
666.38	2408.41
666.57	2357.21
666.76	3473.36
666.95	8109.96
667.13	16123.66
667.32	21110.46
667.51	24348.30
667.69	26404.46
667.88	24428.17
668.07	17047.29
668.25	13965.10
668.44	11407.19
668.63	9834.35
668.81	8707.96
669.00	7538.57
669.19	6913.94
669.38	5898.15
669.56	5078.96
669.75	4276.16
669.94	3659.72
670.12	3030.99
670.31	2854.87
670.50	2564.06
670.68	2562.01
670.87	2385.88
671.06	2293.72
671.24	2377.69
671.43	2535.39
671.62	2232.29
671.80	2244.57
671.99	2326.49
672.18	2349.02
672.36	2301.92
672.55	2320.35
672.74	2295.77
672.92	2203.61
673.11	2369.50
673.29	2162.66
673.48	2318.30
673.67	2260.96
673.85	2351.07
674.04	2172.89
674.23	2310.11
674.41	2435.03
674.60	2154.46
674.79	2234.33
674.97	2174.94
675.16	2430.94
675.34	2342.88
675.53	2213.85
675.72	2297.82
675.90	2512.86
676.09	2179.04
676.28	2293.72
676.46	2146.27
676.65	2334.68
676.83	2199.52
677.02	2310.11
677.21	2250.72
677.39	2240.48
677.58	2127.84
677.77	2232.29
677.95	2158.56
678.14	2174.94
678.32	2228.19
678.51	2234.33
678.70	2414.56
678.88	2228.19
679.07	2369.50
679.25	2316.25
679.44	2234.33
679.63	2166.75
679.81	2267.10
680.00	2357.21
680.18	2322.40
680.37	2412.51
680.55	2265.05
680.74	2146.27
680.93	2084.83
681.11	2299.87
681.30	2265.05
681.48	2324.44
681.67	2207.71
681.85	2281.44
682.04	2199.52
682.23	2279.39
682.41	2269.15
682.60	2131.94
682.78	2250.72
682.97	2174.94
683.15	2213.85
683.34	2359.26
683.53	2389.98
683.71	2029.54
683.90	2375.64
684.08	2361.31
684.27	2275.29
684.45	2271.20
684.64	2353.12
684.82	2179.04
685.01	2248.67
685.19	2271.20
685.38	2385.88
685.57	2283.49
685.75	2203.61
685.94	2197.47
686.12	2234.33
686.31	2236.38
686.49	2412.51
686.68	2043.87
686.86	2260.96
687.05	2220.00
687.23	2383.84
687.42	2166.75
687.60	2150.37
687.79	2338.78
687.97	2363.36
688.16	2277.34
688.34	2404.32
688.53	2084.83
688.71	2308.06
688.90	2381.79
689.08	2258.91
689.27	2105.31
689.45	2326.49
689.64	2254.81
689.82	2240.48
690.01	2326.49
690.19	2314.20
690.38	2226.14
690.56	2363.36
690.75	2154.46
690.93	2166.75
691.12	2209.76
691.30	2252.77
691.49	2236.38
691.67	2205.66
691.86	2498.52
692.04	2269.15
692.23	2260.96
692.41	2291.68
692.60	2631.64
692.78	2404.32
692.97	2365.40
693.15	2381.79
693.34	2441.18
693.52	2385.88
693.71	2297.82
693.89	2232.29
694.08	2062.30
694.26	2428.89
694.44	2357.21
694.63	2340.83
694.81	2168.80
695.00	2224.09
695.18	2359.26
695.37	2521.05
695.55	2299.87
695.74	2199.52
695.92	2277.34
696.10	2398.17
696.29	2072.54
696.47	2193.37
696.66	2152.42
696.84	2150.37
697.03	2220.00
697.21	2516.95
697.40	3434.44
697.58	2396.12
697.76	2215.90
697.95	2195.42
698.13	2209.76
698.32	2222.05
698.50	2199.52
698.68	2275.29
698.87	2250.72
699.05	2340.83
699.24	2226.14
699.42	2072.54
699.61	2203.61
699.79	2306.01
699.97	2297.82
700.16	2107.36
700.34	2174.94
700.53	2310.11
700.71	2389.98
700.89	2383.84
701.08	2265.05
701.26	2222.05
701.45	2725.85
701.63	2238.43
701.81	2193.37
702.00	2303.96
702.18	2232.29
702.37	2230.24
702.55	2435.03
702.73	2447.32
702.92	2340.83
703.10	2572.25
703.28	2465.75
703.47	2314.20
703.65	2469.85
703.84	2422.75
704.02	2228.19
704.20	2488.28
704.39	2220.00
704.57	2287.58
704.75	2416.60
704.94	2424.80
705.12	2263.01
705.30	2555.86
705.49	4403.13
705.67	10422.11
705.86	18110.19
706.04	21722.80
706.22	24829.57
706.41	25978.48
706.59	21804.72
706.77	15519.51
706.96	13041.46
707.14	11396.95
707.32	9940.84
707.51	8773.50
707.69	7360.40
707.87	5863.33
708.06	4845.49
708.24	3938.24
708.42	3182.54
708.61	2930.64
708.79	2537.43
708.97	2383.84
709.16	2422.75
709.34	2299.87
709.52	2205.66
709.71	2242.53
709.89	2367.45
710.07	2187.23
710.26	2187.23
710.44	2238.43
710.62	2406.36
710.80	2273.25
710.99	2260.96
711.17	2293.72
711.35	2199.52
711.54	2187.23
711.72	2375.64
711.90	2310.11
712.09	2324.44
712.27	2170.85
712.45	2385.88
712.63	2232.29
712.82	2273.25
713.00	2301.92
713.18	2312.16
713.37	2340.83
713.55	2342.88
713.73	2346.97
713.91	2279.39
714.10	2205.66
714.28	2242.53
714.46	2299.87
714.65	2250.72
714.83	2248.67
715.01	2326.49
715.19	2318.30
715.38	2138.08
715.56	2338.78
715.74	2160.61
715.92	2187.23
716.11	2355.16
716.29	2125.79
716.47	2203.61
716.65	2250.72
716.84	2123.74
717.02	2303.96
717.20	2160.61
717.38	2168.80
717.57	2234.33
717.75	2224.09
717.93	2269.15
718.11	2258.91
718.30	2168.80
718.48	2355.16
718.66	2359.26
718.84	2330.59
719.03	2267.10
719.21	2125.79
719.39	2480.09
719.57	2297.82
719.75	2332.64
719.94	2129.89
720.12	2220.00
720.30	2260.96
720.48	2310.11
720.67	2162.66
720.85	2150.37
721.03	2154.46
721.21	2144.22
721.39	2336.73
721.58	2310.11
721.76	2207.71
721.94	2359.26
722.12	2297.82
722.30	2410.46
722.49	2242.53
722.67	2230.24
722.85	2263.01
723.03	2142.18
723.21	2258.91
723.40	2359.26
723.58	2342.88
723.76	2359.26
723.94	2404.32
724.12	2342.88
724.30	2457.56
724.49	2357.21
724.67	2236.38
724.85	2412.51
725.03	2119.65
725.21	2248.67
725.40	2424.80
725.58	2217.95
725.76	2346.97
725.94	2297.82
726.12	2113.50
726.30	2220.00
726.49	2156.51
726.67	2234.33
726.85	2412.51
727.03	2549.72
727.21	3559.37
727.39	5029.81
727.57	5957.54
727.76	6453.15
727.94	6715.29
728.12	6158.24
728.30	5191.60
728.48	4333.50
728.66	4102.08
728.84	3727.30
729.03	3268.56
729.21	3002.32
729.39	2686.94
729.57	2430.94
729.75	2410.46
729.93	2342.88
730.11	2244.57
730.30	2260.96
730.48	2306.01
730.66	2422.75
730.84	2310.11
731.02	2332.64
731.20	2291.68
731.38	2277.34
731.56	2238.43
731.74	2181.09
731.93	2297.82
732.11	2332.64
732.29	2185.18
732.47	2308.06
732.65	2310.11
732.83	2330.59
733.01	2211.81
733.19	2174.94
733.37	2277.34
733.56	2301.92
733.74	2191.33
733.92	2478.04
734.10	2213.85
734.28	2293.72
734.46	2045.92
734.64	2220.00
734.82	2236.38
735.00	2209.76
735.18	2254.81
735.36	2269.15
735.54	2293.72
735.73	2232.29
735.91	2326.49
736.09	2250.72
736.27	2240.48
736.45	2316.25
736.63	2113.50
736.81	2201.57
736.99	2375.64
737.17	2392.03
737.35	2213.85
737.53	2287.58
737.71	2197.47
737.89	2435.03
738.07	2162.66
738.25	2162.66
738.43	2148.32
738.61	2195.42
738.80	2133.98
738.98	2136.03
739.16	2187.23
739.34	2191.33
739.52	2402.27
739.70	2258.91
739.88	2361.31
740.06	2324.44
740.24	2072.54
740.42	2387.93
740.60	2064.35
740.78	2244.57
740.96	2103.26
741.14	2220.00
741.32	2330.59
741.50	2166.75
741.68	2461.66
741.86	2408.41
742.04	2172.89
742.22	2138.08
742.40	2273.25
742.58	2277.34
742.76	2144.22
742.94	2342.88
743.12	2160.61
743.30	2293.72
743.48	2346.97
743.66	2185.18
743.84	2320.35
744.02	2191.33
744.20	2269.15
744.38	2127.84
744.56	2238.43
744.74	2422.75
744.92	2330.59
745.10	2426.84
745.28	2252.77
745.46	2500.57
745.64	2185.18
745.82	2330.59
746.00	2281.44
746.18	2375.64
746.36	2207.71
746.54	2287.58
746.72	2252.77
746.90	2203.61
747.08	2402.27
747.26	2207.71
747.44	2351.07
747.62	2303.96
747.80	2365.40
747.98	2361.31
748.15	2220.00
748.33	2465.75
748.51	2234.33
748.69	2344.92
748.87	2113.50
749.05	2172.89
749.23	2260.96
749.41	2306.01
749.59	2215.90
749.77	2310.11
749.95	2199.52
750.13	2172.89
750.31	2256.86
750.49	2265.05
750.67	2310.11
750.85	2437.08
751.03	2285.53
751.20	2525.15
751.38	2211.81
751.56	2291.68
751.74	2232.29
751.92	2263.01
752.10	2113.50
752.28	2340.83
752.46	2103.26
752.64	2232.29
752.82	2213.85
753.00	2273.25
753.18	2232.29
753.35	2154.46
753.53	2283.49
753.71	2232.29
753.89	2275.29
754.07	2330.59
754.25	2406.36
754.43	2299.87
754.61	2043.87
754.79	2310.11
754.97	2217.95
755.14	2316.25
755.32	2189.28
755.50	2291.68
755.68	2285.53
755.86	2168.80
756.04	2179.04
756.22	2047.97
756.40	2351.07
756.57	2432.99
756.75	2191.33
756.93	2398.17
757.11	2328.54
757.29	2162.66
757.47	2187.23
757.65	2084.83
757.82	2074.59
758.00	2084.83
758.18	2133.98
758.36	2146.27
758.54	2400.22
758.72	2076.64
758.90	2322.40
759.07	2289.63
759.25	2072.54
759.43	2277.34
759.61	2140.13
759.79	3086.29
759.97	2291.68
760.15	2203.61
760.32	2269.15
760.50	2314.20
760.68	2410.46
760.86	2097.12
761.04	2412.51
761.22	2310.11
761.39	2316.25
761.57	2295.77
761.75	2297.82
761.93	2336.73
762.11	2289.63
762.28	2281.44
762.46	2201.57
762.64	2293.72
762.82	2086.88
763.00	2183.13
763.18	2453.47
763.35	2152.42
763.53	2314.20
763.71	2275.29
763.89	2236.38
764.07	2265.05
764.24	2224.09
764.42	2263.01
764.60	2187.23
764.78	2277.34
764.96	2297.82
765.13	2318.30
765.31	2199.52
765.49	2232.29
765.67	2136.03
765.84	2183.13
766.02	2183.13
766.20	2133.98
766.38	2306.01
766.56	2281.44
766.73	2285.53
766.91	2236.38
767.09	2314.20
767.27	2338.78
767.44	2166.75
767.62	2285.53
767.80	2279.39
767.98	2240.48
768.15	2269.15
768.33	2236.38
768.51	2371.55
768.69	2254.81
768.87	2220.00
769.04	2299.87
769.22	2486.23
769.40	2426.84
769.58	2430.94
769.75	2252.77
769.93	2424.80
770.11	2293.72
770.28	2213.85
770.46	2351.07
770.64	2283.49
770.82	2187.23
770.99	2150.37
771.17	2301.92
771.35	2164.70
771.53	2271.20
771.70	2183.13
771.88	2349.02
772.06	2195.42
772.23	2199.52
772.41	2318.30
772.59	2142.18
772.77	2166.75
772.94	2269.15
773.12	2295.77
773.30	2234.33
773.47	2342.88
773.65	2201.57
773.83	2369.50
774.01	2209.76
774.18	2123.74
774.36	2220.00
774.54	2181.09
774.71	2252.77
774.89	2093.02
775.07	2191.33
775.24	2172.89
775.42	2256.86
775.60	2414.56
775.78	2111.46
775.95	2088.93
776.13	2088.93
776.31	2058.21
776.48	2252.77
776.66	2361.31
776.84	2263.01
777.01	2197.47
777.19	2166.75
777.37	2228.19
777.54	2392.03
777.72	2539.48
777.90	2201.57
778.07	2074.59
778.25	2629.59
778.43	2389.98
778.60	2183.13
778.78	2260.96
778.96	2365.40
779.13	2080.74
779.31	2293.72
779.49	2215.90
779.66	2320.35
779.84	2183.13
780.01	2316.25
780.19	2131.94
780.37	2359.26
780.54	2342.88
780.72	2185.18
780.90	2256.86
781.07	2230.24
781.25	2154.46
781.43	2365.40
781.60	2191.33
781.78	2342.88
781.95	2275.29
782.13	2152.42
782.31	2152.42
782.48	2037.73
782.66	2217.95
782.83	2432.99
783.01	2289.63
783.19	2314.20
783.36	2254.81
783.54	2066.40
783.72	2359.26
783.89	2295.77
784.07	2293.72
784.24	2318.30
784.42	2418.65
784.60	2349.02
784.77	2275.29
784.95	2031.58
785.12	2211.81
785.30	2232.29
785.47	2203.61
785.65	2136.03
785.83	2162.66
786.00	2240.48
786.18	2316.25
786.35	2215.90
786.53	2152.42
786.71	2351.07
786.88	2250.72
787.06	2242.53
787.23	2226.14
787.41	2088.93
787.58	2234.33
787.76	2138.08
787.94	2271.20
788.11	2281.44
788.29	2230.24
788.46	2254.81
788.64	2107.36
788.81	2209.76
788.99	2195.42
789.16	2150.37
789.34	2244.57
789.52	2154.46
789.69	2209.76
789.87	2105.31
790.04	2201.57
790.22	2209.76
790.39	2463.71
790.57	2252.77
790.74	2109.41
790.92	2303.96
791.09	2076.64
791.27	2303.96
791.44	2324.44
791.62	2203.61
791.79	2314.20
791.97	2301.92
792.15	2478.04
792.32	2332.64
792.50	2330.59
792.67	2342.88
792.85	2365.40
793.02	2293.72
793.20	2281.44
793.37	2099.17
793.55	2179.04
793.72	2009.06
793.90	2234.33
794.07	2197.47
794.25	2185.18
794.42	2342.88
794.60	2256.86
794.77	2332.64
794.95	2293.72
795.12	2408.41
795.30	2191.33
795.47	2015.20
795.65	2480.09
795.82	2357.21
796.00	2095.07
796.17	2277.34
796.34	2152.42
796.52	2277.34
796.69	2336.73
796.87	2357.21
797.04	2207.71
797.22	2326.49
797.39	2328.54
797.57	2275.29
797.74	2215.90
797.92	2279.39
798.09	2176.99
798.27	2361.31
798.44	2242.53
798.62	2213.85
798.79	2273.25
798.96	2265.05
799.14	2254.81
799.31	2465.75
799.49	2269.15
799.66	2193.37
799.84	2215.90
800.01	2166.75
800.19	2228.19
800.36	2136.03
800.53	2312.16
800.71	2310.11
800.88	2394.08
801.06	2174.94
801.23	2213.85
801.41	2189.28
801.58	2191.33
801.75	2191.33
801.93	2203.61
802.10	2287.58
802.28	2258.91
802.45	2217.95
802.63	2312.16
802.80	2375.64
802.97	2209.76
803.15	2269.15
803.32	2199.52
803.50	2158.56
803.67	2133.98
803.84	2168.80
804.02	2312.16
804.19	2197.47
804.37	2017.25
804.54	2097.12
804.71	2263.01
804.89	2162.66
805.06	2185.18
805.24	2166.75
805.41	2191.33
805.58	2168.80
805.76	2461.66
805.93	2260.96
806.10	2365.40
806.28	2363.36
806.45	2306.01
806.63	2330.59
806.80	2293.72
806.97	2260.96
807.15	2267.10
807.32	2277.34
807.49	2260.96
807.67	2166.75
807.84	2279.39
808.01	2138.08
808.19	2439.13
808.36	2480.09
808.54	2244.57
808.71	2152.42
808.88	2244.57
809.06	2424.80
809.23	2400.22
809.40	2174.94
809.58	2281.44
809.75	2183.13
809.92	2133.98
810.10	2510.81
810.27	2197.47
810.44	2267.10
810.62	2332.64
810.79	2299.87
810.96	2160.61
811.14	2197.47
811.31	2275.29
811.48	2330.59
811.66	2287.58
811.83	2365.40
812.00	2357.21
812.18	2326.49
812.35	2445.27
812.52	2252.77
812.69	2246.62
812.87	2176.99
813.04	2129.89
813.21	2224.09
813.39	2220.00
813.56	2176.99
813.73	2310.11
813.91	2127.84
814.08	2258.91
814.25	2244.57
814.42	2070.50
814.60	2246.62
814.77	2297.82
814.94	2244.57
815.12	2260.96
815.29	2422.75
815.46	2138.08
815.63	2236.38
815.81	2187.23
815.98	2211.81
816.15	2195.42
816.33	2125.79
816.50	2269.15
816.67	2238.43
816.84	2197.47
817.02	2162.66
817.19	2215.90
817.36	2244.57
817.53	2326.49
817.71	2187.23
817.88	2314.20
818.05	2244.57
818.22	2176.99
818.40	2424.80
818.57	2209.76
818.74	2306.01
818.91	2146.27
819.09	2256.86
819.26	2273.25
819.43	2187.23
819.60	2201.57
819.78	2215.90
819.95	2349.02
820.12	2197.47
820.29	2408.41
820.47	2299.87
820.64	2084.83
820.81	2146.27
820.98	2176.99
821.15	2207.71
821.33	2351.07
821.50	2095.07
821.67	2342.88
821.84	2226.14
822.02	2275.29
822.19	2320.35
822.36	2185.18
822.53	2203.61
822.70	2150.37
822.88	2234.33
823.05	2355.16
823.22	2258.91
823.39	2244.57
823.56	2176.99
823.74	2441.18
823.91	2244.57
824.08	2162.66
824.25	2211.81
824.42	2469.85
824.60	2129.89
824.77	2246.62
824.94	2226.14
825.11	2301.92
825.28	2138.08
825.45	2236.38
825.63	2369.50
825.80	2160.61
825.97	2242.53
826.14	2306.01
826.31	2060.26
826.48	2336.73
826.66	2133.98
826.83	2162.66
827.00	2224.09
827.17	2158.56
827.34	2226.14
827.51	2121.70
827.69	2244.57
827.86	2109.41
828.03	2232.29
828.20	2217.95
828.37	2199.52
828.54	2265.05
828.71	2129.89
828.89	2392.03
829.06	2250.72
829.23	2449.37
829.40	2131.94
829.57	2160.61
829.74	2297.82
829.91	2236.38
830.09	2187.23
830.26	2187.23
830.43	2361.31
830.60	2203.61
830.77	2265.05
830.94	2285.53
831.11	2217.95
831.28	2258.91
831.46	2277.34
831.63	2207.71
831.80	2389.98
831.97	2215.90
832.14	2220.00
832.31	2228.19
832.48	2318.30
832.65	2322.40
832.82	2258.91
832.99	2236.38
833.17	2107.36
833.34	2367.45
833.51	2256.86
833.68	2072.54
833.85	2316.25
834.02	2187.23
834.19	2164.70
834.36	2185.18
834.53	2240.48
834.70	2326.49
834.87	2334.68
835.04	2195.42
835.22	2201.57
835.39	2297.82
835.56	2136.03
835.73	2193.37
835.90	2424.80
836.07	2105.31
836.24	2207.71
836.41	2211.81
836.58	2209.76
836.75	2269.15
836.92	2260.96
837.09	2189.28
837.26	2316.25
837.43	2318.30
837.60	2197.47
837.77	2185.18
837.94	2234.33
838.12	2349.02
838.29	2226.14
838.46	2078.69
838.63	2131.94
838.80	2334.68
838.97	2271.20
839.14	2187.23
839.31	2244.57
839.48	2312.16
839.65	2129.89
839.82	2318.30
839.99	2338.78
840.16	2324.44
840.33	2183.13
840.50	2252.77
840.67	2166.75
840.84	1968.10
841.01	2240.48
841.18	2127.84
841.35	2193.37
841.52	2359.26
841.69	2473.95
841.86	2256.86
842.03	2201.57
842.20	2248.67
842.37	2197.47
842.54	2236.38
842.71	2217.95
842.88	2107.36
843.05	2263.01
843.22	2226.14
843.39	2203.61
843.56	2224.09
843.73	2197.47
843.90	2244.57
844.07	2244.57
844.24	2379.74
844.41	2293.72
844.58	2236.38
844.75	2295.77
844.92	2310.11
845.09	2224.09
845.26	2154.46
845.43	2353.12
845.60	2183.13
845.77	2193.37
845.94	2211.81
846.10	2334.68
846.27	2150.37
846.44	2078.69
846.61	2144.22
846.78	2381.79
846.95	2326.49
847.12	2138.08
847.29	2203.61
847.46	2125.79
847.63	2346.97
847.80	2170.85
847.97	2125.79
848.14	2467.80
848.31	2291.68
848.48	2203.61
848.65	2244.57
848.82	2193.37
848.98	2445.27
849.15	2215.90
849.32	2314.20
849.49	2346.97
849.66	2205.66
849.83	2170.85
850.00	2148.32
850.17	2346.97
850.34	2240.48
850.51	2195.42
850.68	2176.99
850.85	2531.29
851.01	2275.29
851.18	2242.53
851.35	2136.03
851.52	2252.77
851.69	2387.93
851.86	2084.83
852.03	2201.57
852.20	2326.49
852.37	2187.23
852.53	2093.02
852.70	2127.84
852.87	2240.48
853.04	2351.07
853.21	2176.99
853.38	2306.01
853.55	2336.73
853.72	2381.79
853.89	2086.88
854.05	2232.29
854.22	2226.14
854.39	2267.10
854.56	2232.29
854.73	2387.93
854.90	2146.27
855.07	2281.44
855.23	2209.76
855.40	2154.46
855.57	2201.57
855.74	1976.29
855.91	2498.52
856.08	2086.88
856.25	2154.46
856.41	2283.49
856.58	2197.47
856.75	2238.43
856.92	2056.16
857.09	2308.06
857.26	2148.32
857.42	2273.25
857.59	2346.97
857.76	2256.86
857.93	2326.49
858.10	2215.90
858.27	2136.03
858.43	2252.77
858.60	2103.26
858.77	2127.84
858.94	2166.75
859.11	2336.73
859.27	2236.38
859.44	2119.65
859.61	2439.13
859.78	2383.84
859.95	2158.56
860.12	2242.53
860.28	2441.18
860.45	2496.47
860.62	2232.29
860.79	2250.72
860.95	2201.57
861.12	2174.94
861.29	2101.22
861.46	2174.94
861.63	2265.05
861.79	2258.91
861.96	2144.22
862.13	2154.46
862.30	2389.98
862.47	2232.29
862.63	2138.08
862.80	2297.82
862.97	2316.25
863.14	2363.36
863.30	2193.37
863.47	2238.43
863.64	2394.08
863.81	2256.86
863.97	2154.46
864.14	2185.18
864.31	2183.13
864.48	2254.81
864.65	2215.90
864.81	2314.20
864.98	2254.81
865.15	2361.31
865.32	2254.81
865.48	2357.21
865.65	2480.09
865.82	2174.94
865.98	2222.05
866.15	2285.53
866.32	2228.19
866.49	2162.66
866.65	2281.44
866.82	2181.09
866.99	2220.00
867.16	2156.51
867.32	2142.18
867.49	2138.08
867.66	2191.33
867.83	2193.37
867.99	2080.74
868.16	2191.33
868.33	2211.81
868.49	2314.20
868.66	2193.37
868.83	2330.59
868.99	2291.68
869.16	2236.38
869.33	2316.25
869.50	2283.49
869.66	2263.01
869.83	2203.61
870.00	2084.83
870.16	2314.20
870.33	2222.05
870.50	2328.54
870.66	2217.95
870.83	2293.72
871.00	2215.90
871.17	2281.44
871.33	2236.38
871.50	2220.00
871.67	2267.10
871.83	2101.22
872.00	2312.16
872.17	2131.94
872.33	2416.60
872.50	2293.72
872.67	2217.95
872.83	2072.54
873.00	2275.29
873.17	2277.34
873.33	2269.15
873.50	2269.15
873.67	2240.48
873.83	2107.36
874.00	2252.77
874.16	2297.82
874.33	2252.77
874.50	2111.46
874.66	2154.46
874.83	2195.42
875.00	2324.44
875.16	2365.40
875.33	2328.54
875.50	1964.00
875.66	2193.37
875.83	2179.04
875.99	2297.82
876.16	2170.85
876.33	2203.61
876.49	2301.92
876.66	2199.52
876.83	2191.33
876.99	2054.11
877.16	2224.09
877.32	2179.04
877.49	2133.98
877.66	2246.62
877.82	2463.71
877.99	2256.86
878.15	2263.01
878.32	2256.86
878.49	2252.77
878.65	2193.37
878.82	2293.72
878.98	2152.42
879.15	2287.58
879.32	2308.06
879.48	2244.57
879.65	2146.27
879.81	2154.46
879.98	2209.76
880.15	2138.08
880.31	2342.88
880.48	2152.42
880.64	2287.58
880.81	2285.53
880.97	2445.27
881.14	2369.50
881.31	2154.46
881.47	2381.79
881.64	2170.85
881.80	2088.93
881.97	2207.71
882.13	2289.63
882.30	2103.26
882.47	2299.87
882.63	2136.03
882.80	2154.46
882.96	2164.70
883.13	2400.22
883.29	2236.38
883.46	2213.85
883.62	2473.95
883.79	2287.58
883.95	2267.10
884.12	2263.01
884.29	2412.51
884.45	2203.61
884.62	2234.33
884.78	2144.22
884.95	2400.22
885.11	2176.99
885.28	2287.58
885.44	2160.61
885.61	2283.49
885.77	2404.32
885.94	2267.10
886.10	2273.25
886.27	2269.15
886.43	2426.84
886.60	2373.60
886.76	2226.14
886.93	2138.08
887.09	2281.44
887.26	2064.35
887.42	2181.09
887.59	2535.39
887.75	2424.80
887.92	2357.21
888.08	2314.20
888.25	2389.98
888.41	2301.92
888.58	2234.33
888.74	2117.60
888.91	2195.42
>>>>>End Processed Spectral Data<<<<<
