SpectraSuite Data File
++++++++++++++++++++++++++++++++++++
Date: Thu May 05 13:20:51 CEST 2016
User: root
Dark Spectrum Present: No
Reference Spectrum Present: No
Number of Sampled Component Spectra: 1
Spectrometers: USB4C02835
Integration Time (usec): 100000 (USB4C02835)
Spectra Averaged: 1 (USB4C02835)
Boxcar Smoothing: 0 (USB4C02835)
Correct for Electrical Dark: No (USB4C02835)
Strobe/Lamp Enabled: No (USB4C02835)
Correct for Detector Non-linearity: No (USB4C02835)
Correct for Stray Light: No (USB4C02835)
Number of Pixels in Processed Spectrum: 3648
>>>>>Begin Processed Spectral Data<<<<<
177.47	1783.78
177.69	1783.78
177.91	1783.78
178.13	1777.64
178.36	1775.59
178.58	2176.99
178.80	2275.29
179.02	2105.31
179.24	2129.89
179.46	2127.84
179.68	2205.66
179.90	2201.57
180.13	2211.81
180.35	2101.22
180.57	2185.18
180.79	2371.55
181.01	2263.01
181.23	2215.90
181.45	2314.20
181.67	2349.02
181.90	2394.08
182.12	2220.00
182.34	2154.46
182.56	2283.49
182.78	2316.25
183.00	2142.18
183.22	2205.66
183.44	2105.31
183.66	2465.75
183.89	2330.59
184.11	2232.29
184.33	2328.54
184.55	2340.83
184.77	2183.13
184.99	2176.99
185.21	2211.81
185.43	2494.43
185.65	2125.79
185.87	2174.94
186.10	2506.71
186.32	2402.27
186.54	2260.96
186.76	2228.19
186.98	2291.68
187.20	2158.56
187.42	2176.99
187.64	2205.66
187.86	2293.72
188.08	2379.74
188.30	2117.60
188.52	2176.99
188.75	2428.89
188.97	2359.26
189.19	2142.18
189.41	2103.26
189.63	2287.58
189.85	2123.74
190.07	2097.12
190.29	2002.91
190.51	2285.53
190.73	2121.70
190.95	2258.91
191.17	2224.09
191.39	2109.41
191.61	2166.75
191.84	2166.75
192.06	2269.15
192.28	2029.54
192.50	2617.30
192.72	2244.57
192.94	2236.38
193.16	2355.16
193.38	2279.39
193.60	2136.03
193.82	2164.70
194.04	2400.22
194.26	2267.10
194.48	2119.65
194.70	2220.00
194.92	2187.23
195.14	2258.91
195.36	2170.85
195.58	2228.19
195.80	2226.14
196.02	2193.37
196.24	2164.70
196.46	2209.76
196.69	2287.58
196.91	2564.06
197.13	2183.13
197.35	2105.31
197.57	2387.93
197.79	2324.44
198.01	2191.33
198.23	2217.95
198.45	2293.72
198.67	2166.75
198.89	2179.04
199.11	2181.09
199.33	2152.42
199.55	2031.58
199.77	2097.12
199.99	2242.53
200.21	2168.80
200.43	2293.72
200.65	2189.28
200.87	2013.15
201.09	2291.68
201.31	2179.04
201.53	2258.91
201.75	2199.52
201.97	2215.90
202.19	2222.05
202.41	2271.20
202.63	2330.59
202.85	2279.39
203.07	2326.49
203.29	2181.09
203.51	2097.12
203.73	2289.63
203.95	2551.77
204.17	2220.00
204.39	2244.57
204.61	2301.92
204.83	2236.38
205.05	2207.71
205.27	2232.29
205.49	2551.77
205.71	2256.86
205.93	2127.84
206.15	2115.55
206.37	2312.16
206.59	2215.90
206.81	2109.41
207.03	2136.03
207.25	2211.81
207.47	2367.45
207.69	2205.66
207.91	2295.77
208.13	2367.45
208.34	2113.50
208.56	2138.08
208.78	2230.24
209.00	2207.71
209.22	2176.99
209.44	2183.13
209.66	2103.26
209.88	2164.70
210.10	2168.80
210.32	2138.08
210.54	2328.54
210.76	2199.52
210.98	2357.21
211.20	2072.54
211.42	2234.33
211.64	2281.44
211.86	2220.00
212.08	2199.52
212.30	2168.80
212.52	2220.00
212.74	2363.36
212.96	2226.14
213.17	2228.19
213.39	2361.31
213.61	2408.41
213.83	2162.66
214.05	2252.77
214.27	2326.49
214.49	2115.55
214.71	2097.12
214.93	2267.10
215.15	2277.34
215.37	2232.29
215.59	2078.69
215.81	2185.18
216.03	2424.80
216.24	2238.43
216.46	2113.50
216.68	2181.09
216.90	2392.03
217.12	2320.35
217.34	2207.71
217.56	2203.61
217.78	2398.17
218.00	2359.26
218.22	2226.14
218.44	2285.53
218.66	2271.20
218.87	2416.60
219.09	2152.42
219.31	2224.09
219.53	2326.49
219.75	2174.94
219.97	2203.61
220.19	2240.48
220.41	2220.00
220.63	2486.23
220.85	2228.19
221.06	2273.25
221.28	2451.42
221.50	2338.78
221.72	2156.51
221.94	2080.74
222.16	2322.40
222.38	2430.94
222.60	2285.53
222.82	2199.52
223.03	2310.11
223.25	2193.37
223.47	2246.62
223.69	2426.84
223.91	2365.40
224.13	2291.68
224.35	2068.45
224.57	2289.63
224.78	2260.96
225.00	2183.13
225.22	2191.33
225.44	2074.59
225.66	2392.03
225.88	2189.28
226.10	2183.13
226.32	2211.81
226.53	2445.27
226.75	2236.38
226.97	2154.46
227.19	2228.19
227.41	2146.27
227.63	2158.56
227.85	2158.56
228.06	2195.42
228.28	2207.71
228.50	2297.82
228.72	2056.16
228.94	2183.13
229.16	2095.07
229.37	2154.46
229.59	2107.36
229.81	2324.44
230.03	2209.76
230.25	2115.55
230.47	2068.45
230.69	2133.98
230.90	2367.45
231.12	2211.81
231.34	2242.53
231.56	2197.47
231.78	2138.08
232.00	2254.81
232.21	2191.33
232.43	2162.66
232.65	2072.54
232.87	2193.37
233.09	2179.04
233.30	2107.36
233.52	2310.11
233.74	2150.37
233.96	2199.52
234.18	2230.24
234.40	2234.33
234.61	2432.99
234.83	2097.12
235.05	2095.07
235.27	2449.37
235.49	2387.93
235.70	2183.13
235.92	2289.63
236.14	2277.34
236.36	2428.89
236.58	2056.16
236.79	2314.20
237.01	2176.99
237.23	2209.76
237.45	2396.12
237.67	2111.46
237.88	2295.77
238.10	2375.64
238.32	2117.60
238.54	2166.75
238.76	2252.77
238.97	2148.32
239.19	2101.22
239.41	2334.68
239.63	2424.80
239.85	2150.37
240.06	2205.66
240.28	2226.14
240.50	2389.98
240.72	2308.06
240.93	2117.60
241.15	2322.40
241.37	2283.49
241.59	2408.41
241.81	2191.33
242.02	2217.95
242.24	2275.29
242.46	2310.11
242.68	2156.51
242.89	2187.23
243.11	2293.72
243.33	2220.00
243.55	2185.18
243.76	2293.72
243.98	2240.48
244.20	2222.05
244.42	2217.95
244.64	2152.42
244.85	2097.12
245.07	2263.01
245.29	2187.23
245.51	2152.42
245.72	2273.25
245.94	2465.75
246.16	2228.19
246.38	2238.43
246.59	2158.56
246.81	2121.70
247.03	2170.85
247.24	2025.44
247.46	2179.04
247.68	2258.91
247.90	2103.26
248.11	2195.42
248.33	2320.35
248.55	2242.53
248.77	2232.29
248.98	2252.77
249.20	2334.68
249.42	2285.53
249.64	2138.08
249.85	2174.94
250.07	2228.19
250.29	2297.82
250.50	2172.89
250.72	2099.17
250.94	2156.51
251.16	2443.23
251.37	2203.61
251.59	2195.42
251.81	2256.86
252.02	2406.36
252.24	2138.08
252.46	2310.11
252.68	2191.33
252.89	2176.99
253.11	2068.45
253.33	2265.05
253.54	2400.22
253.76	2121.70
253.98	2217.95
254.20	2217.95
254.41	2166.75
254.63	2228.19
254.85	2148.32
255.06	2072.54
255.28	2285.53
255.50	2174.94
255.71	2064.35
255.93	2086.88
256.15	2213.85
256.36	2271.20
256.58	2037.73
256.80	2201.57
257.02	2310.11
257.23	2193.37
257.45	2256.86
257.67	2246.62
257.88	2242.53
258.10	2330.59
258.32	2174.94
258.53	2220.00
258.75	2371.55
258.97	2195.42
259.18	2136.03
259.40	2166.75
259.62	2381.79
259.83	2410.46
260.05	2256.86
260.27	2660.31
260.48	2365.40
260.70	2150.37
260.92	2146.27
261.13	2199.52
261.35	2236.38
261.57	2283.49
261.78	2095.07
262.00	2127.84
262.22	2289.63
262.43	2170.85
262.65	2179.04
262.86	2131.94
263.08	2482.14
263.30	2281.44
263.51	2131.94
263.73	2136.03
263.95	2365.40
264.16	2172.89
264.38	2152.42
264.60	2197.47
264.81	2228.19
265.03	2330.59
265.25	2334.68
265.46	2144.22
265.68	2439.13
265.89	2344.92
266.11	2047.97
266.33	2195.42
266.54	2375.64
266.76	2334.68
266.98	2236.38
267.19	2242.53
267.41	2322.40
267.62	2236.38
267.84	2068.45
268.06	2248.67
268.27	2283.49
268.49	2383.84
268.70	2269.15
268.92	2224.09
269.14	2138.08
269.35	2103.26
269.57	2217.95
269.79	2256.86
270.00	2185.18
270.22	2381.79
270.43	2080.74
270.65	2023.39
270.87	2230.24
271.08	2330.59
271.30	2342.88
271.51	2201.57
271.73	2308.06
271.95	2404.32
272.16	2187.23
272.38	2207.71
272.59	2127.84
272.81	2320.35
273.02	2222.05
273.24	2260.96
273.46	2340.83
273.67	2136.03
273.89	2142.18
274.10	2095.07
274.32	2383.84
274.54	2244.57
274.75	2146.27
274.97	2240.48
275.18	2365.40
275.40	2287.58
275.61	2156.51
275.83	2240.48
276.05	2142.18
276.26	2285.53
276.48	2316.25
276.69	2121.70
276.91	2152.42
277.12	2367.45
277.34	2267.10
277.55	2301.92
277.77	2310.11
277.99	2203.61
278.20	2181.09
278.42	2115.55
278.63	2183.13
278.85	2211.81
279.06	2187.23
279.28	2230.24
279.49	2334.68
279.71	2314.20
279.93	2295.77
280.14	2303.96
280.36	2166.75
280.57	2306.01
280.79	2277.34
281.00	2107.36
281.22	2265.05
281.43	2400.22
281.65	2146.27
281.86	2113.50
282.08	2357.21
282.29	2412.51
282.51	2090.98
282.73	2127.84
282.94	2125.79
283.16	2351.07
283.37	2349.02
283.59	2263.01
283.80	2308.06
284.02	2246.62
284.23	2236.38
284.45	2203.61
284.66	2121.70
284.88	2220.00
285.09	2232.29
285.31	2322.40
285.52	2342.88
285.74	2013.15
285.95	2236.38
286.17	2351.07
286.38	2351.07
286.60	2199.52
286.81	2158.56
287.03	2197.47
287.24	2201.57
287.46	2367.45
287.67	2236.38
287.89	2371.55
288.10	2213.85
288.32	2250.72
288.53	2447.32
288.75	2236.38
288.96	2320.35
289.18	2181.09
289.39	2256.86
289.61	2342.88
289.82	2461.66
290.04	2457.56
290.25	2107.36
290.47	2267.10
290.68	2203.61
290.90	2398.17
291.11	2123.74
291.33	2299.87
291.54	2160.61
291.76	2179.04
291.97	2228.19
292.18	2195.42
292.40	2275.29
292.61	2150.37
292.83	2435.03
293.04	2285.53
293.26	2244.57
293.47	2228.19
293.69	2123.74
293.90	2228.19
294.12	2400.22
294.33	2195.42
294.55	2195.42
294.76	2314.20
294.97	2430.94
295.19	2471.90
295.40	2127.84
295.62	2238.43
295.83	2281.44
296.05	2248.67
296.26	2330.59
296.48	2129.89
296.69	2209.76
296.90	2252.77
297.12	2236.38
297.33	2420.70
297.55	2285.53
297.76	2220.00
297.98	2301.92
298.19	2224.09
298.41	2269.15
298.62	2185.18
298.83	2361.31
299.05	2211.81
299.26	2205.66
299.48	2193.37
299.69	2293.72
299.90	2150.37
300.12	2158.56
300.33	2385.88
300.55	2236.38
300.76	2299.87
300.98	2193.37
301.19	2318.30
301.40	2269.15
301.62	2148.32
301.83	2269.15
302.05	2230.24
302.26	2179.04
302.47	2252.77
302.69	2170.85
302.90	2297.82
303.12	2076.64
303.33	2283.49
303.54	2430.94
303.76	2138.08
303.97	2246.62
304.19	2392.03
304.40	2144.22
304.61	2291.68
304.83	2402.27
305.04	2340.83
305.26	2281.44
305.47	2220.00
305.68	2181.09
305.90	2093.02
306.11	2338.78
306.33	2252.77
306.54	2138.08
306.75	2252.77
306.97	1998.82
307.18	2119.65
307.39	2224.09
307.61	2211.81
307.82	2195.42
308.04	2310.11
308.25	2105.31
308.46	2246.62
308.68	2267.10
308.89	2293.72
309.10	2365.40
309.32	2293.72
309.53	2228.19
309.74	2310.11
309.96	2254.81
310.17	2291.68
310.39	2281.44
310.60	2355.16
310.81	2230.24
311.03	2097.12
311.24	2310.11
311.45	2289.63
311.67	2371.55
311.88	2293.72
312.09	2201.57
312.31	2187.23
312.52	2252.77
312.73	2240.48
312.95	2103.26
313.16	2185.18
313.37	2312.16
313.59	2301.92
313.80	2346.97
314.01	2396.12
314.23	2220.00
314.44	2158.56
314.65	2113.50
314.87	2146.27
315.08	2203.61
315.29	2158.56
315.51	2197.47
315.72	2031.58
315.93	2385.88
316.15	2269.15
316.36	2113.50
316.57	2299.87
316.79	2217.95
317.00	2207.71
317.21	2314.20
317.43	2101.22
317.64	2260.96
317.85	2187.23
318.07	2252.77
318.28	2275.29
318.49	2355.16
318.70	2449.37
318.92	2455.51
319.13	2461.66
319.34	2437.08
319.56	2334.68
319.77	2340.83
319.98	2392.03
320.20	2355.16
320.41	2293.72
320.62	2334.68
320.83	2152.42
321.05	2424.80
321.26	2285.53
321.47	2252.77
321.69	2408.41
321.90	2099.17
322.11	2195.42
322.32	2359.26
322.54	2336.73
322.75	2176.99
322.96	2566.10
323.18	2191.33
323.39	2123.74
323.60	2129.89
323.81	2322.40
324.03	2181.09
324.24	2281.44
324.45	2220.00
324.66	2224.09
324.88	2430.94
325.09	2346.97
325.30	2176.99
325.52	2240.48
325.73	2283.49
325.94	2133.98
326.15	2072.54
326.37	2215.90
326.58	2353.12
326.79	2373.60
327.00	2187.23
327.22	2207.71
327.43	2244.57
327.64	2195.42
327.85	2314.20
328.07	2211.81
328.28	2389.98
328.49	2115.55
328.70	2176.99
328.92	2244.57
329.13	2277.34
329.34	2312.16
329.55	2467.80
329.76	2285.53
329.98	2285.53
330.19	2373.60
330.40	2349.02
330.61	2250.72
330.83	2342.88
331.04	2136.03
331.25	2275.29
331.46	2207.71
331.68	2146.27
331.89	2334.68
332.10	2213.85
332.31	2097.12
332.52	2332.64
332.74	2394.08
332.95	2133.98
333.16	2234.33
333.37	2359.26
333.58	2121.70
333.80	2236.38
334.01	2129.89
334.22	2260.96
334.43	2299.87
334.64	2156.51
334.86	2080.74
335.07	2224.09
335.28	2404.32
335.49	2101.22
335.70	2375.64
335.92	2316.25
336.13	2564.06
336.34	2222.05
336.55	2220.00
336.76	2299.87
336.98	2064.35
337.19	2203.61
337.40	2355.16
337.61	2514.91
337.82	2312.16
338.04	2269.15
338.25	2113.50
338.46	2129.89
338.67	2242.53
338.88	2160.61
339.09	2166.75
339.31	2240.48
339.52	2154.46
339.73	2127.84
339.94	2230.24
340.15	2316.25
340.36	2189.28
340.58	2209.76
340.79	2136.03
341.00	2318.30
341.21	2168.80
341.42	2351.07
341.63	2176.99
341.85	2392.03
342.06	2265.05
342.27	2136.03
342.48	2301.92
342.69	2152.42
342.90	2287.58
343.12	2396.12
343.33	2176.99
343.54	2340.83
343.75	2383.84
343.96	2215.90
344.17	2199.52
344.38	2217.95
344.60	2189.28
344.81	2209.76
345.02	2203.61
345.23	2367.45
345.44	2582.49
345.65	2289.63
345.86	2297.82
346.07	2193.37
346.29	2172.89
346.50	2318.30
346.71	2232.29
346.92	2322.40
347.13	2521.05
347.34	2316.25
347.55	2252.77
347.76	2238.43
347.98	2119.65
348.19	2230.24
348.40	2406.36
348.61	2228.19
348.82	2435.03
349.03	2373.60
349.24	2179.04
349.45	2402.27
349.66	2080.74
349.88	2160.61
350.09	2176.99
350.30	2389.98
350.51	2357.21
350.72	2299.87
350.93	2285.53
351.14	2209.76
351.35	2281.44
351.56	2246.62
351.77	2246.62
351.99	2328.54
352.20	2363.36
352.41	2375.64
352.62	2025.44
352.83	2234.33
353.04	2281.44
353.25	2203.61
353.46	2238.43
353.67	2367.45
353.88	2068.45
354.09	2211.81
354.30	2228.19
354.52	2275.29
354.73	2281.44
354.94	2199.52
355.15	2316.25
355.36	2443.23
355.57	2213.85
355.78	2238.43
355.99	2195.42
356.20	2176.99
356.41	2340.83
356.62	2258.91
356.83	2244.57
357.04	2396.12
357.25	2097.12
357.46	2191.33
357.68	2105.31
357.89	2199.52
358.10	2265.05
358.31	2187.23
358.52	2174.94
358.73	2113.50
358.94	2176.99
359.15	2258.91
359.36	2295.77
359.57	2283.49
359.78	2271.20
359.99	2340.83
360.20	2113.50
360.41	2138.08
360.62	2312.16
360.83	2250.72
361.04	2269.15
361.25	2310.11
361.46	2387.93
361.67	2273.25
361.88	2361.31
362.09	2342.88
362.30	2244.57
362.51	2138.08
362.72	2299.87
362.93	2363.36
363.14	2381.79
363.35	2226.14
363.56	2162.66
363.78	2351.07
363.99	2260.96
364.20	2185.18
364.41	2334.68
364.62	2383.84
364.83	2232.29
365.04	2183.13
365.25	2242.53
365.46	2449.37
365.67	2191.33
365.88	2191.33
366.09	2291.68
366.30	2170.85
366.51	2295.77
366.72	2068.45
366.93	2211.81
367.14	2220.00
367.35	2330.59
367.56	2211.81
367.77	2322.40
367.98	2269.15
368.18	2242.53
368.39	2351.07
368.60	2195.42
368.81	2318.30
369.02	2287.58
369.23	2199.52
369.44	2074.59
369.65	2166.75
369.86	2271.20
370.07	2244.57
370.28	2101.22
370.49	2228.19
370.70	2365.40
370.91	2211.81
371.12	2197.47
371.33	2297.82
371.54	2260.96
371.75	2297.82
371.96	1978.34
372.17	2191.33
372.38	2275.29
372.59	2232.29
372.80	2263.01
373.01	2211.81
373.22	2236.38
373.43	2179.04
373.64	2144.22
373.85	2461.66
374.06	2445.27
374.26	2371.55
374.47	2217.95
374.68	2416.60
374.89	2281.44
375.10	2234.33
375.31	2310.11
375.52	2240.48
375.73	2250.72
375.94	2107.36
376.15	2432.99
376.36	2152.42
376.57	2199.52
376.78	2256.86
376.99	2193.37
377.20	2400.22
377.40	2285.53
377.61	2396.12
377.82	2191.33
378.03	2465.75
378.24	2306.01
378.45	2193.37
378.66	2310.11
378.87	2164.70
379.08	2113.50
379.29	2154.46
379.50	2308.06
379.71	2269.15
379.91	2297.82
380.12	2195.42
380.33	2179.04
380.54	2277.34
380.75	2285.53
380.96	2191.33
381.17	2342.88
381.38	2240.48
381.59	2324.44
381.80	2334.68
382.00	2457.56
382.21	2359.26
382.42	2387.93
382.63	2506.71
382.84	2318.30
383.05	2312.16
383.26	2478.04
383.47	2211.81
383.68	2244.57
383.88	2195.42
384.09	2334.68
384.30	2351.07
384.51	2324.44
384.72	2168.80
384.93	2164.70
385.14	2273.25
385.35	2314.20
385.55	2127.84
385.76	2379.74
385.97	2228.19
386.18	2158.56
386.39	2142.18
386.60	2220.00
386.81	2244.57
387.02	2146.27
387.22	2179.04
387.43	2250.72
387.64	2385.88
387.85	2461.66
388.06	2414.56
388.27	3823.56
388.48	7929.74
388.68	11718.48
388.89	13817.65
389.10	15071.00
389.31	13696.82
389.52	10911.58
389.73	9357.17
389.93	8591.23
390.14	7942.02
390.35	7200.66
390.56	6363.04
390.77	5250.99
390.98	4003.78
391.18	3205.07
391.39	2742.23
391.60	2381.79
391.81	2439.13
392.02	2207.71
392.23	2500.57
392.43	2254.81
392.64	2330.59
392.85	2314.20
393.06	2435.03
393.27	2308.06
393.47	2236.38
393.68	2250.72
393.89	2254.81
394.10	2367.45
394.31	2203.61
394.52	2195.42
394.72	2224.09
394.93	2410.46
395.14	2140.13
395.35	2318.30
395.56	2144.22
395.76	2213.85
395.97	2267.10
396.18	2322.40
396.39	2396.12
396.60	2713.56
396.80	2498.52
397.01	2408.41
397.22	2389.98
397.43	2400.22
397.64	2174.94
397.84	2340.83
398.05	2519.00
398.26	2326.49
398.47	2424.80
398.67	2379.74
398.88	2224.09
399.09	2326.49
399.30	2209.76
399.51	2273.25
399.71	2211.81
399.92	2287.58
400.13	2263.01
400.34	2199.52
400.54	2191.33
400.75	2430.94
400.96	2410.46
401.17	2363.36
401.37	2344.92
401.58	2179.04
401.79	2234.33
402.00	2363.36
402.21	2670.55
402.41	2453.47
402.62	2566.10
402.83	2652.12
403.04	2654.17
403.24	2768.85
403.45	2349.02
403.66	2475.99
403.87	2545.63
404.07	2557.91
404.28	2437.08
404.49	2457.56
404.70	2308.06
404.90	2338.78
405.11	2224.09
405.32	2334.68
405.52	2265.05
405.73	2090.98
405.94	2162.66
406.15	2314.20
406.35	2365.40
406.56	2371.55
406.77	2291.68
406.98	2263.01
407.18	2140.13
407.39	2439.13
407.60	2263.01
407.80	2252.77
408.01	2340.83
408.22	2273.25
408.43	2156.51
408.63	2297.82
408.84	2340.83
409.05	2439.13
409.25	2209.76
409.46	2174.94
409.67	2240.48
409.88	2226.14
410.08	2310.11
410.29	2236.38
410.50	2371.55
410.70	2238.43
410.91	2113.50
411.12	2299.87
411.32	2250.72
411.53	2258.91
411.74	2303.96
411.95	2400.22
412.15	2371.55
412.36	2373.60
412.57	2408.41
412.77	2285.53
412.98	2314.20
413.19	2176.99
413.39	2342.88
413.60	2213.85
413.81	2449.37
414.01	2121.70
414.22	2297.82
414.43	2310.11
414.63	2256.86
414.84	2328.54
415.05	2285.53
415.25	2107.36
415.46	2430.94
415.67	2267.10
415.87	2234.33
416.08	2246.62
416.29	2273.25
416.49	2334.68
416.70	2267.10
416.91	2199.52
417.11	2207.71
417.32	2334.68
417.53	2336.73
417.73	2406.36
417.94	2240.48
418.15	2242.53
418.35	2260.96
418.56	2211.81
418.77	2504.67
418.97	2265.05
419.18	2289.63
419.38	2017.25
419.59	2303.96
419.80	2404.32
420.00	2187.23
420.21	2269.15
420.42	2439.13
420.62	2398.17
420.83	2252.77
421.04	2205.66
421.24	2246.62
421.45	2273.25
421.65	2306.01
421.86	2197.47
422.07	2371.55
422.27	2234.33
422.48	2273.25
422.69	2080.74
422.89	2273.25
423.10	2269.15
423.30	2187.23
423.51	2332.64
423.72	2279.39
423.92	2334.68
424.13	2121.70
424.33	2332.64
424.54	2310.11
424.75	2338.78
424.95	2367.45
425.16	2256.86
425.36	2250.72
425.57	2342.88
425.78	2263.01
425.98	2334.68
426.19	2236.38
426.39	2174.94
426.60	2205.66
426.81	2324.44
427.01	2316.25
427.22	2127.84
427.42	2078.69
427.63	2166.75
427.83	2281.44
428.04	2414.56
428.25	2318.30
428.45	2353.12
428.66	2396.12
428.86	2303.96
429.07	2203.61
429.28	2277.34
429.48	2254.81
429.69	2154.46
429.89	2248.67
430.10	2123.74
430.30	2322.40
430.51	2387.93
430.71	2187.23
430.92	2199.52
431.13	2228.19
431.33	2342.88
431.54	2256.86
431.74	2418.65
431.95	2422.75
432.15	2148.32
432.36	2189.28
432.56	2332.64
432.77	2455.51
432.98	2492.38
433.18	2281.44
433.39	2246.62
433.59	2248.67
433.80	2394.08
434.00	2422.75
434.21	2232.29
434.41	2158.56
434.62	2494.43
434.82	2162.66
435.03	2222.05
435.23	2240.48
435.44	2117.60
435.64	2197.47
435.85	2342.88
436.06	2340.83
436.26	2326.49
436.47	2234.33
436.67	2123.74
436.88	2258.91
437.08	2324.44
437.29	2422.75
437.49	2291.68
437.70	2351.07
437.90	2228.19
438.11	2473.95
438.31	2340.83
438.52	2441.18
438.72	2457.56
438.93	2613.21
439.13	2265.05
439.34	2387.93
439.54	2301.92
439.75	2381.79
439.95	2359.26
440.16	2179.04
440.36	2326.49
440.57	2283.49
440.77	2279.39
440.98	2269.15
441.18	2349.02
441.39	2170.85
441.59	2117.60
441.80	2484.19
442.00	2293.72
442.21	2394.08
442.41	2152.42
442.62	2349.02
442.82	2154.46
443.02	2197.47
443.23	2377.69
443.43	2236.38
443.64	2404.32
443.84	2148.32
444.05	2324.44
444.25	2326.49
444.46	2191.33
444.66	2220.00
444.87	2410.46
445.07	2142.18
445.28	2211.81
445.48	2424.80
445.69	2310.11
445.89	2543.58
446.09	2312.16
446.30	2594.78
446.50	2899.92
446.71	4360.13
446.91	5533.61
447.12	6389.66
447.32	6692.76
447.53	6207.39
447.73	5148.59
447.93	4517.82
448.14	4214.72
448.34	4091.84
448.55	3592.14
448.75	3727.30
448.96	3465.16
449.16	3028.95
449.36	2869.20
449.57	2545.63
449.77	2400.22
449.98	2267.10
450.18	2342.88
450.39	2346.97
450.59	2353.12
450.79	2334.68
451.00	2215.90
451.20	2400.22
451.41	2260.96
451.61	2322.40
451.81	2301.92
452.02	2170.85
452.22	2277.34
452.43	2133.98
452.63	2213.85
452.84	2334.68
453.04	2162.66
453.24	2308.06
453.45	2228.19
453.65	2189.28
453.86	2301.92
454.06	2244.57
454.26	2285.53
454.47	2250.72
454.67	2420.70
454.87	2283.49
455.08	2240.48
455.28	2428.89
455.49	2332.64
455.69	2224.09
455.89	2553.82
456.10	2400.22
456.30	2250.72
456.51	2392.03
456.71	2217.95
456.91	2273.25
457.12	2213.85
457.32	2260.96
457.52	2123.74
457.73	2277.34
457.93	2275.29
458.14	2215.90
458.34	2099.17
458.54	2191.33
458.75	2209.76
458.95	2406.36
459.15	2308.06
459.36	2310.11
459.56	2328.54
459.76	2385.88
459.97	2312.16
460.17	2142.18
460.37	2349.02
460.58	2250.72
460.78	2371.55
460.99	2195.42
461.19	2271.20
461.39	2236.38
461.60	2240.48
461.80	2310.11
462.00	2174.94
462.21	2246.62
462.41	2181.09
462.61	2168.80
462.82	2084.83
463.02	2318.30
463.22	2275.29
463.43	2250.72
463.63	2269.15
463.83	2467.80
464.04	2269.15
464.24	2242.53
464.44	2123.74
464.64	2265.05
464.85	2252.77
465.05	2289.63
465.25	2209.76
465.46	2256.86
465.66	2340.83
465.86	2285.53
466.07	2250.72
466.27	2220.00
466.47	2146.27
466.68	2127.84
466.88	2416.60
467.08	2396.12
467.29	2357.21
467.49	2260.96
467.69	2230.24
467.89	2334.68
468.10	2222.05
468.30	2254.81
468.50	2385.88
468.71	2365.40
468.91	2176.99
469.11	2400.22
469.31	2256.86
469.52	2201.57
469.72	2424.80
469.92	2447.32
470.13	2283.49
470.33	2326.49
470.53	2322.40
470.73	2695.13
470.94	2977.75
471.14	3157.97
471.34	3612.62
471.54	3325.90
471.75	3008.47
471.95	2813.91
472.15	2727.89
472.36	2842.58
472.56	2719.70
472.76	2744.28
472.96	2680.79
473.17	2535.39
473.37	2557.91
473.57	2326.49
473.77	2332.64
473.98	2275.29
474.18	2144.22
474.38	2619.35
474.58	2234.33
474.79	2154.46
474.99	2269.15
475.19	2340.83
475.39	2211.81
475.60	2324.44
475.80	2281.44
476.00	2295.77
476.20	2107.36
476.41	2260.96
476.61	2418.65
476.81	2473.95
477.01	2187.23
477.21	2475.99
477.42	2430.94
477.62	2150.37
477.82	2355.16
478.02	2199.52
478.23	2275.29
478.43	2187.23
478.63	2189.28
478.83	2234.33
479.03	2273.25
479.24	2467.80
479.44	2408.41
479.64	2191.33
479.84	2097.12
480.04	2140.13
480.25	2295.77
480.45	2168.80
480.65	2242.53
480.85	2410.46
481.06	2131.94
481.26	2279.39
481.46	2314.20
481.66	2301.92
481.86	2152.42
482.06	2326.49
482.27	2252.77
482.47	2252.77
482.67	2404.32
482.87	2228.19
483.07	2371.55
483.28	2205.66
483.48	2185.18
483.68	2283.49
483.88	2162.66
484.08	2088.93
484.29	2181.09
484.49	2306.01
484.69	2166.75
484.89	2355.16
485.09	2400.22
485.29	2328.54
485.50	2342.88
485.70	2285.53
485.90	2437.08
486.10	2353.12
486.30	2258.91
486.50	2367.45
486.71	2213.85
486.91	2318.30
487.11	2349.02
487.31	2097.12
487.51	2377.69
487.71	2142.18
487.91	2123.74
488.12	2168.80
488.32	2043.87
488.52	2179.04
488.72	2119.65
488.92	2232.29
489.12	2432.99
489.32	2320.35
489.53	2256.86
489.73	2136.03
489.93	2394.08
490.13	2170.85
490.33	2066.40
490.53	2283.49
490.73	2332.64
490.94	2133.98
491.14	2357.21
491.34	2349.02
491.54	2545.63
491.74	3301.33
491.94	3815.37
492.14	4085.70
492.34	4130.75
492.54	3725.26
492.75	3342.28
492.95	3209.17
493.15	3051.47
493.35	2947.03
493.55	2865.11
493.75	2801.62
493.95	2668.50
494.15	2621.40
494.35	2398.17
494.56	2355.16
494.76	2236.38
494.96	2359.26
495.16	2281.44
495.36	2283.49
495.56	2299.87
495.76	2306.01
495.96	2162.66
496.16	2144.22
496.36	2478.04
496.56	2211.81
496.77	2324.44
496.97	2289.63
497.17	2439.13
497.37	2133.98
497.57	2332.64
497.77	2316.25
497.97	2207.71
498.17	2256.86
498.37	2248.67
498.57	2365.40
498.77	2254.81
498.97	2269.15
499.17	2490.33
499.38	2250.72
499.58	2396.12
499.78	2338.78
499.98	2342.88
500.18	2236.38
500.38	2232.29
500.58	2416.60
500.78	2873.30
500.98	5031.86
501.18	7077.78
501.38	8826.75
501.58	9539.44
501.78	9426.80
501.98	7464.85
502.18	6381.47
502.38	5441.45
502.58	5033.91
502.78	4485.05
502.98	4603.83
503.18	4181.95
503.38	3807.17
503.59	3442.64
503.79	3262.41
503.99	3088.34
504.19	2836.44
504.39	2832.34
504.59	2795.48
504.79	2764.76
504.99	2877.40
505.19	2525.15
505.39	2494.43
505.59	2635.74
505.79	2602.97
505.99	2467.80
506.19	2260.96
506.39	2455.51
506.59	2277.34
506.79	2299.87
506.99	2412.51
507.19	2281.44
507.39	2222.05
507.59	2203.61
507.79	2111.46
507.99	2181.09
508.19	2193.37
508.39	2252.77
508.59	2291.68
508.79	2346.97
508.99	2469.85
509.19	2193.37
509.39	2248.67
509.59	2228.19
509.79	2203.61
509.99	2240.48
510.19	2443.23
510.39	2308.06
510.59	2326.49
510.79	2263.01
510.99	2156.51
511.19	2312.16
511.39	2422.75
511.59	2330.59
511.79	2359.26
511.99	2293.72
512.19	2480.09
512.38	2281.44
512.58	2248.67
512.78	2228.19
512.98	2459.61
513.18	2443.23
513.38	2129.89
513.58	2301.92
513.78	2230.24
513.98	2236.38
514.18	2197.47
514.38	2174.94
514.58	2260.96
514.78	2179.04
514.98	2209.76
515.18	2168.80
515.38	2170.85
515.58	2389.98
515.78	2152.42
515.98	2318.30
516.18	2295.77
516.38	2285.53
516.57	2256.86
516.77	2187.23
516.97	2269.15
517.17	2211.81
517.37	2097.12
517.57	2306.01
517.77	2226.14
517.97	2189.28
518.17	2367.45
518.37	2258.91
518.57	2211.81
518.77	2271.20
518.97	2267.10
519.16	2283.49
519.36	2398.17
519.56	2289.63
519.76	2217.95
519.96	2332.64
520.16	2478.04
520.36	2187.23
520.56	2346.97
520.76	2269.15
520.96	2136.03
521.16	2363.36
521.35	2285.53
521.55	2387.93
521.75	2191.33
521.95	2224.09
522.15	2279.39
522.35	2160.61
522.55	2250.72
522.75	2297.82
522.95	2199.52
523.14	2168.80
523.34	2306.01
523.54	2213.85
523.74	2260.96
523.94	2316.25
524.14	2172.89
524.34	2299.87
524.54	2361.31
524.73	2277.34
524.93	2301.92
525.13	2320.35
525.33	2105.31
525.53	2498.52
525.73	2273.25
525.93	2281.44
526.13	2238.43
526.32	2256.86
526.52	2291.68
526.72	2367.45
526.92	2267.10
527.12	2269.15
527.32	2086.88
527.52	2451.42
527.71	2332.64
527.91	2154.46
528.11	2170.85
528.31	2242.53
528.51	2179.04
528.71	2308.06
528.90	2310.11
529.10	2349.02
529.30	2392.03
529.50	2072.54
529.70	2289.63
529.90	2273.25
530.09	2240.48
530.29	2136.03
530.49	2277.34
530.69	2627.54
530.89	2351.07
531.09	2326.49
531.28	2232.29
531.48	2267.10
531.68	2269.15
531.88	2267.10
532.08	2400.22
532.28	2222.05
532.47	2291.68
532.67	2385.88
532.87	2314.20
533.07	2136.03
533.27	2334.68
533.46	2263.01
533.66	2398.17
533.86	2299.87
534.06	2236.38
534.26	2322.40
534.45	2283.49
534.65	2400.22
534.85	2293.72
535.05	2183.13
535.25	2369.50
535.44	2101.22
535.64	2392.03
535.84	2209.76
536.04	2220.00
536.24	2197.47
536.43	2267.10
536.63	2285.53
536.83	2203.61
537.03	2244.57
537.22	2097.12
537.42	2093.02
537.62	2291.68
537.82	2291.68
538.02	2316.25
538.21	2357.21
538.41	2576.34
538.61	2357.21
538.81	2250.72
539.00	2322.40
539.20	2179.04
539.40	2189.28
539.60	2217.95
539.79	2422.75
539.99	2217.95
540.19	2154.46
540.39	2246.62
540.58	2265.05
540.78	2369.50
540.98	2260.96
541.18	2392.03
541.37	2326.49
541.57	2379.74
541.77	2371.55
541.97	2127.84
542.16	2125.79
542.36	2220.00
542.56	2308.06
542.76	2437.08
542.95	2326.49
543.15	2299.87
543.35	2326.49
543.54	2174.94
543.74	2224.09
543.94	2365.40
544.14	2170.85
544.33	2297.82
544.53	2291.68
544.73	2297.82
544.93	2242.53
545.12	2217.95
545.32	2164.70
545.52	2277.34
545.71	2133.98
545.91	2267.10
546.11	2191.33
546.30	2097.12
546.50	2269.15
546.70	2334.68
546.90	2279.39
547.09	2060.26
547.29	2256.86
547.49	2338.78
547.68	2267.10
547.88	2136.03
548.08	2326.49
548.27	2830.29
548.47	2271.20
548.67	2174.94
548.87	2203.61
549.06	2232.29
549.26	2260.96
549.46	2310.11
549.65	2265.05
549.85	2287.58
550.05	2275.29
550.24	2146.27
550.44	2269.15
550.64	2162.66
550.83	2267.10
551.03	2363.36
551.23	2328.54
551.42	2406.36
551.62	2150.37
551.82	2230.24
552.01	2201.57
552.21	2408.41
552.41	2289.63
552.60	2426.84
552.80	2351.07
553.00	2154.46
553.19	2269.15
553.39	2463.71
553.59	2162.66
553.78	2244.57
553.98	2314.20
554.17	2156.51
554.37	2275.29
554.57	2342.88
554.76	2207.71
554.96	2187.23
555.16	2332.64
555.35	2285.53
555.55	2349.02
555.75	2320.35
555.94	2412.51
556.14	2111.46
556.33	2316.25
556.53	2306.01
556.73	2301.92
556.92	2375.64
557.12	2344.92
557.32	2459.61
557.51	2418.65
557.71	2312.16
557.90	2412.51
558.10	2482.14
558.30	2244.57
558.49	2258.91
558.69	2187.23
558.88	2363.36
559.08	2279.39
559.28	2248.67
559.47	2367.45
559.67	2414.56
559.86	2357.21
560.06	2301.92
560.26	2256.86
560.45	2318.30
560.65	2295.77
560.84	2414.56
561.04	2238.43
561.24	2359.26
561.43	2238.43
561.63	2473.95
561.82	2263.01
562.02	2359.26
562.22	2199.52
562.41	2127.84
562.61	2258.91
562.80	2215.90
563.00	2516.95
563.19	2299.87
563.39	2342.88
563.59	2322.40
563.78	2207.71
563.98	2101.22
564.17	2217.95
564.37	2133.98
564.56	2277.34
564.76	2191.33
564.96	2289.63
565.15	2244.57
565.35	2435.03
565.54	2252.77
565.74	2318.30
565.93	2373.60
566.13	2193.37
566.32	2281.44
566.52	2297.82
566.71	2222.05
566.91	2326.49
567.11	2353.12
567.30	2156.51
567.50	2306.01
567.69	2346.97
567.89	2203.61
568.08	2179.04
568.28	2330.59
568.47	2140.13
568.67	2277.34
568.86	2240.48
569.06	2324.44
569.25	2254.81
569.45	2150.37
569.64	2232.29
569.84	2287.58
570.04	2285.53
570.23	2166.75
570.43	2215.90
570.62	2299.87
570.82	2482.14
571.01	2220.00
571.21	2138.08
571.40	2183.13
571.60	2332.64
571.79	2287.58
571.99	2318.30
572.18	2156.51
572.38	2258.91
572.57	2283.49
572.77	2269.15
572.96	2568.15
573.16	2260.96
573.35	2236.38
573.55	2387.93
573.74	2367.45
573.94	2283.49
574.13	2230.24
574.33	2338.78
574.52	2414.56
574.71	2201.57
574.91	2404.32
575.10	2187.23
575.30	2207.71
575.49	2170.85
575.69	2215.90
575.88	2279.39
576.08	2250.72
576.27	2385.88
576.47	2252.77
576.66	2400.22
576.86	2404.32
577.05	2353.12
577.25	2379.74
577.44	2480.09
577.64	2217.95
577.83	2373.60
578.02	2234.33
578.22	2447.32
578.41	2455.51
578.61	2211.81
578.80	2160.61
579.00	2301.92
579.19	2277.34
579.39	2422.75
579.58	2406.36
579.77	2351.07
579.97	2490.33
580.16	2430.94
580.36	2424.80
580.55	2371.55
580.75	2310.11
580.94	2316.25
581.13	2398.17
581.33	2492.38
581.52	2232.29
581.72	2500.57
581.91	2430.94
582.11	2351.07
582.30	2394.08
582.49	2265.05
582.69	2473.95
582.88	2355.16
583.08	2334.68
583.27	2400.22
583.47	2306.01
583.66	2248.67
583.85	2244.57
584.05	2267.10
584.24	2392.03
584.44	2289.63
584.63	2342.88
584.82	2514.91
585.02	2465.75
585.21	2338.78
585.41	2375.64
585.60	2392.03
585.79	2508.76
585.99	2512.86
586.18	2502.62
586.37	2891.73
586.57	4534.20
586.76	13477.68
586.96	32890.38
587.15	46277.95
587.34	55864.49
587.54	60499.04
587.73	55415.99
587.93	39257.51
588.12	29519.42
588.31	24221.33
588.51	21010.11
588.70	19144.41
588.89	17215.23
589.09	14970.65
589.28	12910.40
589.47	10448.74
589.67	8208.26
589.86	6289.31
590.06	4689.85
590.25	3758.02
590.44	3143.63
590.64	2750.42
590.83	2621.40
591.02	2574.30
591.22	2437.08
591.41	2381.79
591.60	2340.83
591.80	2582.49
591.99	2236.38
592.18	2224.09
592.38	2375.64
592.57	2189.28
592.76	2342.88
592.96	2279.39
593.15	2316.25
593.34	2416.60
593.54	2301.92
593.73	2424.80
593.92	2367.45
594.12	2377.69
594.31	2336.73
594.50	2432.99
594.70	2381.79
594.89	2617.30
595.08	2160.61
595.28	2355.16
595.47	2645.98
595.66	2394.08
595.86	2213.85
596.05	2230.24
596.24	2355.16
596.43	2498.52
596.63	2377.69
596.82	2310.11
597.01	2281.44
597.21	2502.62
597.40	2357.21
597.59	2228.19
597.79	2230.24
597.98	2252.77
598.17	2340.83
598.36	2234.33
598.56	2428.89
598.75	2248.67
598.94	2332.64
599.14	2256.86
599.33	2265.05
599.52	2392.03
599.71	2281.44
599.91	2383.84
600.10	2316.25
600.29	2316.25
600.48	2355.16
600.68	2336.73
600.87	2269.15
601.06	2174.94
601.26	2308.06
601.45	2346.97
601.64	2324.44
601.83	2439.13
602.03	2258.91
602.22	2203.61
602.41	2371.55
602.60	2537.43
602.80	2314.20
602.99	2373.60
603.18	2199.52
603.37	2310.11
603.57	2265.05
603.76	2355.16
603.95	2437.08
604.14	2252.77
604.34	2166.75
604.53	2224.09
604.72	2256.86
604.91	2289.63
605.10	2349.02
605.30	2076.64
605.49	2430.94
605.68	2353.12
605.87	2332.64
606.07	2148.32
606.26	2301.92
606.45	2392.03
606.64	2349.02
606.84	2197.47
607.03	2303.96
607.22	2435.03
607.41	2310.11
607.60	2285.53
607.80	2373.60
607.99	2242.53
608.18	2291.68
608.37	2240.48
608.56	2203.61
608.76	2453.47
608.95	2488.28
609.14	2342.88
609.33	2475.99
609.52	2496.47
609.72	2394.08
609.91	2471.90
610.10	2318.30
610.29	2420.70
610.48	2402.27
610.68	2381.79
610.87	2256.86
611.06	2295.77
611.25	2240.48
611.44	2389.98
611.63	2301.92
611.83	2455.51
612.02	2176.99
612.21	2371.55
612.40	2138.08
612.59	2201.57
612.79	2162.66
612.98	2293.72
613.17	2455.51
613.36	2297.82
613.55	2502.62
613.74	2248.67
613.93	2351.07
614.13	2455.51
614.32	2414.56
614.51	2478.04
614.70	2357.21
614.89	2236.38
615.08	2416.60
615.28	2781.14
615.47	2211.81
615.66	2443.23
615.85	2363.36
616.04	2412.51
616.23	2291.68
616.42	2344.92
616.62	2244.57
616.81	2320.35
617.00	2312.16
617.19	2299.87
617.38	2260.96
617.57	2250.72
617.76	2349.02
617.95	2353.12
618.15	2328.54
618.34	2430.94
618.53	2166.75
618.72	2385.88
618.91	2389.98
619.10	2387.93
619.29	2256.86
619.48	2265.05
619.68	2183.13
619.87	2308.06
620.06	2183.13
620.25	2320.35
620.44	2205.66
620.63	2207.71
620.82	2281.44
621.01	2285.53
621.20	2209.76
621.39	2357.21
621.59	2383.84
621.78	2258.91
621.97	2273.25
622.16	2410.46
622.35	2310.11
622.54	2359.26
622.73	2301.92
622.92	2072.54
623.11	2303.96
623.30	2228.19
623.49	2389.98
623.68	2176.99
623.88	2449.37
624.07	2310.11
624.26	2224.09
624.45	2285.53
624.64	2228.19
624.83	2277.34
625.02	2250.72
625.21	2254.81
625.40	2265.05
625.59	2389.98
625.78	2242.53
625.97	2385.88
626.16	2463.71
626.35	2443.23
626.54	2285.53
626.74	2426.84
626.93	2256.86
627.12	2265.05
627.31	2324.44
627.50	2279.39
627.69	2398.17
627.88	2213.85
628.07	2236.38
628.26	2162.66
628.45	2154.46
628.64	2166.75
628.83	2242.53
629.02	2158.56
629.21	2260.96
629.40	2226.14
629.59	2256.86
629.78	2168.80
629.97	2217.95
630.16	2346.97
630.35	2256.86
630.54	2260.96
630.73	2306.01
630.92	2273.25
631.11	2158.56
631.30	2232.29
631.49	2367.45
631.68	2281.44
631.87	2273.25
632.06	2136.03
632.25	2514.91
632.44	2265.05
632.63	2328.54
632.82	2207.71
633.01	2318.30
633.20	2367.45
633.39	2308.06
633.58	2230.24
633.77	2265.05
633.96	2367.45
634.15	2383.84
634.34	2334.68
634.53	2308.06
634.72	2299.87
634.91	2095.07
635.10	2297.82
635.29	2332.64
635.48	2209.76
635.67	2228.19
635.86	2060.26
636.05	2396.12
636.24	2236.38
636.43	2244.57
636.62	2295.77
636.81	2070.50
637.00	2203.61
637.19	2301.92
637.38	2285.53
637.57	2281.44
637.76	2316.25
637.95	2342.88
638.14	2322.40
638.33	2422.75
638.52	2373.60
638.71	2205.66
638.89	2146.27
639.08	2527.19
639.27	2486.23
639.46	2453.47
639.65	2875.35
639.84	2949.08
640.03	3088.34
640.22	2805.72
640.41	2955.22
640.60	2471.90
640.79	2488.28
640.98	2416.60
641.17	2551.77
641.36	2430.94
641.55	2449.37
641.74	2240.48
641.92	2265.05
642.11	2273.25
642.30	2195.42
642.49	2148.32
642.68	2260.96
642.87	2299.87
643.06	2349.02
643.25	2156.51
643.44	2154.46
643.63	2238.43
643.82	2392.03
644.00	2113.50
644.19	2217.95
644.38	2113.50
644.57	2297.82
644.76	2312.16
644.95	2195.42
645.14	2293.72
645.33	2252.77
645.52	2289.63
645.71	2162.66
645.89	2138.08
646.08	2232.29
646.27	2269.15
646.46	2437.08
646.65	2111.46
646.84	2308.06
647.03	2154.46
647.22	2363.36
647.40	2342.88
647.59	2269.15
647.78	2095.07
647.97	2158.56
648.16	2156.51
648.35	2398.17
648.54	2310.11
648.73	2215.90
648.91	2344.92
649.10	2258.91
649.29	2228.19
649.48	2176.99
649.67	2217.95
649.86	2275.29
650.05	2291.68
650.23	2498.52
650.42	2318.30
650.61	2574.30
650.80	2449.37
650.99	2551.77
651.18	2351.07
651.36	2447.32
651.55	2220.00
651.74	2406.36
651.93	2314.20
652.12	2256.86
652.31	2310.11
652.49	2248.67
652.68	2228.19
652.87	2463.71
653.06	2256.86
653.25	2428.89
653.44	2336.73
653.62	2396.12
653.81	2265.05
654.00	2308.06
654.19	2355.16
654.38	2543.58
654.56	2306.01
654.75	2172.89
654.94	2273.25
655.13	2250.72
655.32	2209.76
655.51	2318.30
655.69	2236.38
655.88	2334.68
656.07	2125.79
656.26	2246.62
656.45	2170.85
656.63	2277.34
656.82	2326.49
657.01	2381.79
657.20	2220.00
657.38	2410.46
657.57	2254.81
657.76	2119.65
657.95	2275.29
658.14	2234.33
658.32	2338.78
658.51	2086.88
658.70	2269.15
658.89	2279.39
659.08	2283.49
659.26	2387.93
659.45	2166.75
659.64	2361.31
659.83	2226.14
660.01	2613.21
660.20	2275.29
660.39	2441.18
660.58	2103.26
660.76	2318.30
660.95	2129.89
661.14	2308.06
661.33	2113.50
661.51	2209.76
661.70	2203.61
661.89	2338.78
662.08	2244.57
662.26	2152.42
662.45	2170.85
662.64	2396.12
662.83	2349.02
663.01	2209.76
663.20	2283.49
663.39	2463.71
663.58	2193.37
663.76	2185.18
663.95	2285.53
664.14	2125.79
664.32	2187.23
664.51	2215.90
664.70	2101.22
664.89	2306.01
665.07	2136.03
665.26	2383.84
665.45	2220.00
665.64	2342.88
665.82	2250.72
666.01	2320.35
666.20	2195.42
666.38	2332.64
666.57	2357.21
666.76	3477.45
666.95	8124.29
667.13	16205.58
667.32	21192.38
667.51	24602.25
667.69	26289.77
667.88	24284.81
668.07	17139.45
668.25	13872.94
668.44	11433.81
668.63	9906.02
668.81	8662.91
669.00	7546.76
669.19	6737.82
669.38	5959.59
669.56	5167.03
669.75	4423.61
669.94	3565.51
670.12	3088.34
670.31	2818.00
670.50	2619.35
670.68	2490.33
670.87	2306.01
671.06	2312.16
671.24	2293.72
671.43	2496.47
671.62	2457.56
671.80	2248.67
671.99	2334.68
672.18	2244.57
672.36	2312.16
672.55	2414.56
672.74	2326.49
672.92	2213.85
673.11	2394.08
673.29	2119.65
673.48	2285.53
673.67	2215.90
673.85	2414.56
674.04	2238.43
674.23	2285.53
674.41	2490.33
674.60	2070.50
674.79	2084.83
674.97	2138.08
675.16	2269.15
675.34	2252.77
675.53	2189.28
675.72	2314.20
675.90	2453.47
676.09	2217.95
676.28	2258.91
676.46	2140.13
676.65	2283.49
676.83	2236.38
677.02	2318.30
677.21	2283.49
677.39	2306.01
677.58	2119.65
677.77	2217.95
677.95	2199.52
678.14	2185.18
678.32	2154.46
678.51	2136.03
678.70	2451.42
678.88	2179.04
679.07	2275.29
679.25	2242.53
679.44	2205.66
679.63	2078.69
679.81	2217.95
680.00	2422.75
680.18	2330.59
680.37	2330.59
680.55	2310.11
680.74	2193.37
680.93	2064.35
681.11	2318.30
681.30	2299.87
681.48	2242.53
681.67	2215.90
681.85	2260.96
682.04	2199.52
682.23	2279.39
682.41	2363.36
682.60	2203.61
682.78	2230.24
682.97	2113.50
683.15	2244.57
683.34	2244.57
683.53	2424.80
683.71	2142.18
683.90	2387.93
684.08	2396.12
684.27	2310.11
684.45	2334.68
684.64	2297.82
684.82	2252.77
685.01	2318.30
685.19	2365.40
685.38	2432.99
685.57	2260.96
685.75	2148.32
685.94	2234.33
686.12	2191.33
686.31	2138.08
686.49	2410.46
686.68	2109.41
686.86	2293.72
687.05	2226.14
687.23	2406.36
687.42	2244.57
687.60	2097.12
687.79	2363.36
687.97	2402.27
688.16	2351.07
688.34	2357.21
688.53	2170.85
688.71	2277.34
688.90	2322.40
689.08	2207.71
689.27	2101.22
689.45	2248.67
689.64	2336.73
689.82	2318.30
690.01	2324.44
690.19	2285.53
690.38	2193.37
690.56	2379.74
690.75	2170.85
690.93	2220.00
691.12	2187.23
691.30	2224.09
691.49	2201.57
691.67	2269.15
691.86	2455.51
692.04	2283.49
692.23	2357.21
692.41	2242.53
692.60	2539.48
692.78	2383.84
692.97	2236.38
693.15	2353.12
693.34	2469.85
693.52	2402.27
693.71	2254.81
693.89	2285.53
694.08	2060.26
694.26	2357.21
694.44	2351.07
694.63	2365.40
694.81	2176.99
695.00	2277.34
695.18	2422.75
695.37	2547.67
695.55	2285.53
695.74	2256.86
695.92	2185.18
696.10	2342.88
696.29	2160.61
696.47	2236.38
696.66	2146.27
696.84	2162.66
697.03	2158.56
697.21	2375.64
697.40	3411.92
697.58	2336.73
697.76	2189.28
697.95	2217.95
698.13	2142.18
698.32	2248.67
698.50	2256.86
698.68	2273.25
698.87	2371.55
699.05	2394.08
699.24	2351.07
699.42	2146.27
699.61	2258.91
699.79	2260.96
699.97	2254.81
700.16	2117.60
700.34	2189.28
700.53	2293.72
700.71	2441.18
700.89	2301.92
701.08	2144.22
701.26	2209.76
701.45	2793.43
701.63	2160.61
701.81	2187.23
702.00	2277.34
702.18	2318.30
702.37	2187.23
702.55	2504.67
702.73	2398.17
702.92	2369.50
703.10	2562.01
703.28	2539.48
703.47	2265.05
703.65	2461.66
703.84	2439.13
704.02	2211.81
704.20	2494.43
704.39	2271.20
704.57	2306.01
704.75	2385.88
704.94	2359.26
705.12	2240.48
705.30	2582.49
705.49	4458.43
705.67	10233.70
705.86	18339.56
706.04	21948.08
706.22	24968.84
706.41	25497.21
706.59	22036.14
706.77	15453.97
706.96	13158.20
707.14	11269.97
707.32	9793.39
707.51	8777.59
707.69	7268.24
707.87	5881.77
708.06	4779.96
708.24	3899.33
708.42	3239.89
708.61	3043.28
708.79	2473.95
708.97	2412.51
709.16	2357.21
709.34	2353.12
709.52	2244.57
709.71	2244.57
709.89	2328.54
710.07	2211.81
710.26	2183.13
710.44	2240.48
710.62	2416.60
710.80	2252.77
710.99	2291.68
711.17	2357.21
711.35	2185.18
711.54	2228.19
711.72	2394.08
711.90	2310.11
712.09	2220.00
712.27	2203.61
712.45	2269.15
712.63	2224.09
712.82	2246.62
713.00	2176.99
713.18	2322.40
713.37	2285.53
713.55	2342.88
713.73	2361.31
713.91	2340.83
714.10	2260.96
714.28	2283.49
714.46	2306.01
714.65	2283.49
714.83	2242.53
715.01	2236.38
715.19	2269.15
715.38	2138.08
715.56	2226.14
715.74	2154.46
715.92	2191.33
716.11	2353.12
716.29	2045.92
716.47	2277.34
716.65	2283.49
716.84	2095.07
717.02	2328.54
717.20	2121.70
717.38	2199.52
717.57	2324.44
717.75	2314.20
717.93	2203.61
718.11	2258.91
718.30	2086.88
718.48	2230.24
718.66	2408.41
718.84	2355.16
719.03	2205.66
719.21	2072.54
719.39	2414.56
719.57	2355.16
719.75	2379.74
719.94	2267.10
720.12	2140.13
720.30	2346.97
720.48	2301.92
720.67	2220.00
720.85	2154.46
721.03	2240.48
721.21	2142.18
721.39	2361.31
721.58	2265.05
721.76	2254.81
721.94	2295.77
722.12	2310.11
722.30	2349.02
722.49	2238.43
722.67	2273.25
722.85	2279.39
723.03	2131.94
723.21	2136.03
723.40	2295.77
723.58	2289.63
723.76	2353.12
723.94	2398.17
724.12	2281.44
724.30	2461.66
724.49	2473.95
724.67	2293.72
724.85	2338.78
725.03	2187.23
725.21	2258.91
725.40	2287.58
725.58	2228.19
725.76	2383.84
725.94	2412.51
726.12	2113.50
726.30	2238.43
726.49	2250.72
726.67	2211.81
726.85	2330.59
727.03	2486.23
727.21	3626.95
727.39	4984.76
727.57	5801.90
727.76	6352.80
727.94	6778.78
728.12	6406.05
728.30	5203.89
728.48	4480.96
728.66	4202.43
728.84	3778.50
729.03	3260.37
729.21	2981.84
729.39	2615.26
729.57	2414.56
729.75	2301.92
729.93	2291.68
730.11	2238.43
730.30	2191.33
730.48	2256.86
730.66	2402.27
730.84	2365.40
731.02	2238.43
731.20	2166.75
731.38	2222.05
731.56	2121.70
731.74	2095.07
731.93	2281.44
732.11	2308.06
732.29	2203.61
732.47	2342.88
732.65	2248.67
732.83	2387.93
733.01	2168.80
733.19	2176.99
733.37	2256.86
733.56	2254.81
733.74	2150.37
733.92	2414.56
734.10	2183.13
734.28	2316.25
734.46	2093.02
734.64	2148.32
734.82	2222.05
735.00	2154.46
735.18	2215.90
735.36	2185.18
735.54	2263.01
735.73	2260.96
735.91	2275.29
736.09	2357.21
736.27	2291.68
736.45	2252.77
736.63	2084.83
736.81	2211.81
736.99	2357.21
737.17	2289.63
737.35	2217.95
737.53	2267.10
737.71	2201.57
737.89	2441.18
738.07	2187.23
738.25	2082.78
738.43	2131.94
738.61	2195.42
738.80	2117.60
738.98	2162.66
739.16	2138.08
739.34	2162.66
739.52	2504.67
739.70	2252.77
739.88	2322.40
740.06	2394.08
740.24	2166.75
740.42	2465.75
740.60	2097.12
740.78	2187.23
740.96	2107.36
741.14	2273.25
741.32	2250.72
741.50	2105.31
741.68	2478.04
741.86	2301.92
742.04	2166.75
742.22	2179.04
742.40	2260.96
742.58	2334.68
742.76	2129.89
742.94	2299.87
743.12	2107.36
743.30	2310.11
743.48	2287.58
743.66	2187.23
743.84	2248.67
744.02	2338.78
744.20	2267.10
744.38	2162.66
744.56	2209.76
744.74	2389.98
744.92	2297.82
745.10	2375.64
745.28	2283.49
745.46	2451.42
745.64	2201.57
745.82	2285.53
746.00	2252.77
746.18	2234.33
746.36	2174.94
746.54	2342.88
746.72	2195.42
746.90	2101.22
747.08	2359.26
747.26	2150.37
747.44	2267.10
747.62	2293.72
747.80	2369.50
747.98	2312.16
748.15	2238.43
748.33	2504.67
748.51	2322.40
748.69	2361.31
748.87	2209.76
749.05	2240.48
749.23	2220.00
749.41	2279.39
749.59	2154.46
749.77	2260.96
749.95	2230.24
750.13	2215.90
750.31	2283.49
750.49	2301.92
750.67	2363.36
750.85	2416.60
751.03	2320.35
751.20	2463.71
751.38	2267.10
751.56	2265.05
751.74	2207.71
751.92	2195.42
752.10	2138.08
752.28	2310.11
752.46	2236.38
752.64	2246.62
752.82	2285.53
753.00	2353.12
753.18	2150.37
753.35	2277.34
753.53	2328.54
753.71	2248.67
753.89	2322.40
754.07	2314.20
754.25	2303.96
754.43	2273.25
754.61	2138.08
754.79	2353.12
754.97	2220.00
755.14	2310.11
755.32	2103.26
755.50	2324.44
755.68	2265.05
755.86	2174.94
756.04	2256.86
756.22	2043.87
756.40	2287.58
756.57	2449.37
756.75	2201.57
756.93	2328.54
757.11	2338.78
757.29	2138.08
757.47	2154.46
757.65	2070.50
757.82	2050.02
758.00	2125.79
758.18	2195.42
758.36	2187.23
758.54	2420.70
758.72	2062.30
758.90	2355.16
759.07	2238.43
759.25	2236.38
759.43	2342.88
759.61	2109.41
759.79	3141.58
759.97	2328.54
760.15	2248.67
760.32	2277.34
760.50	2353.12
760.68	2379.74
760.86	2166.75
761.04	2418.65
761.22	2306.01
761.39	2211.81
761.57	2285.53
761.75	2256.86
761.93	2269.15
762.11	2211.81
762.28	2252.77
762.46	2193.37
762.64	2359.26
762.82	2105.31
763.00	2240.48
763.18	2334.68
763.35	2062.30
763.53	2332.64
763.71	2254.81
763.89	2289.63
764.07	2228.19
764.24	2322.40
764.42	2328.54
764.60	2236.38
764.78	2316.25
764.96	2281.44
765.13	2310.11
765.31	2154.46
765.49	2346.97
765.67	2076.64
765.84	2183.13
766.02	2176.99
766.20	2117.60
766.38	2277.34
766.56	2293.72
766.73	2283.49
766.91	2228.19
767.09	2193.37
767.27	2277.34
767.44	2189.28
767.62	2289.63
767.80	2346.97
767.98	2170.85
768.15	2236.38
768.33	2369.50
768.51	2332.64
768.69	2242.53
768.87	2236.38
769.04	2306.01
769.22	2504.67
769.40	2445.27
769.58	2453.47
769.75	2242.53
769.93	2367.45
770.11	2168.80
770.28	2146.27
770.46	2308.06
770.64	2240.48
770.82	2220.00
770.99	2234.33
771.17	2310.11
771.35	2162.66
771.53	2291.68
771.70	2267.10
771.88	2258.91
772.06	2236.38
772.23	2152.42
772.41	2211.81
772.59	2252.77
772.77	2254.81
772.94	2203.61
773.12	2193.37
773.30	2205.66
773.47	2303.96
773.65	2170.85
773.83	2361.31
774.01	2326.49
774.18	2095.07
774.36	2160.61
774.54	2181.09
774.71	2322.40
774.89	2099.17
775.07	2187.23
775.24	2209.76
775.42	2146.27
775.60	2367.45
775.78	2226.14
775.95	2156.51
776.13	2103.26
776.31	2052.06
776.48	2211.81
776.66	2406.36
776.84	2150.37
777.01	2195.42
777.19	2267.10
777.37	2154.46
777.54	2242.53
777.72	2363.36
777.90	2232.29
778.07	2146.27
778.25	2545.63
778.43	2295.77
778.60	2093.02
778.78	2338.78
778.96	2375.64
779.13	2105.31
779.31	2381.79
779.49	2291.68
779.66	2211.81
779.84	2256.86
780.01	2260.96
780.19	2150.37
780.37	2301.92
780.54	2285.53
780.72	2115.55
780.90	2254.81
781.07	2203.61
781.25	2160.61
781.43	2320.35
781.60	2228.19
781.78	2326.49
781.95	2246.62
782.13	2199.52
782.31	2187.23
782.48	2123.74
782.66	2220.00
782.83	2416.60
783.01	2248.67
783.19	2295.77
783.36	2181.09
783.54	2162.66
783.72	2332.64
783.89	2170.85
784.07	2342.88
784.24	2293.72
784.42	2408.41
784.60	2324.44
784.77	2318.30
784.95	2078.69
785.12	2125.79
785.30	2287.58
785.47	2138.08
785.65	2183.13
785.83	2256.86
786.00	2170.85
786.18	2271.20
786.35	2015.20
786.53	2154.46
786.71	2322.40
786.88	2316.25
787.06	2306.01
787.23	2164.70
787.41	2152.42
787.58	2244.57
787.76	2136.03
787.94	2291.68
788.11	2277.34
788.29	2170.85
788.46	2150.37
788.64	2117.60
788.81	2207.71
788.99	2174.94
789.16	2156.51
789.34	2240.48
789.52	2119.65
789.69	2238.43
789.87	2037.73
790.04	2193.37
790.22	2306.01
790.39	2488.28
790.57	2146.27
790.74	2193.37
790.92	2322.40
791.09	2115.55
791.27	2226.14
791.44	2338.78
791.62	2240.48
791.79	2277.34
791.97	2297.82
792.15	2498.52
792.32	2293.72
792.50	2338.78
792.67	2332.64
792.85	2355.16
793.02	2234.33
793.20	2195.42
793.37	2039.78
793.55	2240.48
793.72	2162.66
793.90	2308.06
794.07	2156.51
794.25	2152.42
794.42	2334.68
794.60	2185.18
794.77	2328.54
794.95	2265.05
795.12	2342.88
795.30	2244.57
795.47	2090.98
795.65	2521.05
795.82	2301.92
796.00	2107.36
796.17	2205.66
796.34	2191.33
796.52	2250.72
796.69	2363.36
796.87	2281.44
797.04	2306.01
797.22	2355.16
797.39	2353.12
797.57	2287.58
797.74	2248.67
797.92	2226.14
798.09	2199.52
798.27	2379.74
798.44	2285.53
798.62	2195.42
798.79	2320.35
798.96	2289.63
799.14	2246.62
799.31	2555.86
799.49	2203.61
799.66	2152.42
799.84	2289.63
800.01	2101.22
800.19	2236.38
800.36	2062.30
800.53	2189.28
800.71	2285.53
800.88	2441.18
801.06	2179.04
801.23	2195.42
801.41	2242.53
801.58	2201.57
801.75	2129.89
801.93	2220.00
802.10	2271.20
802.28	2252.77
802.45	2236.38
802.63	2334.68
802.80	2412.51
802.97	2203.61
803.15	2222.05
803.32	2201.57
803.50	2146.27
803.67	2125.79
803.84	2199.52
804.02	2232.29
804.19	2224.09
804.37	1986.53
804.54	2113.50
804.71	2203.61
804.89	2297.82
805.06	2199.52
805.24	2090.98
805.41	2086.88
805.58	2195.42
805.76	2519.00
805.93	2240.48
806.10	2340.83
806.28	2320.35
806.45	2226.14
806.63	2303.96
806.80	2340.83
806.97	2222.05
807.15	2248.67
807.32	2289.63
807.49	2279.39
807.67	2095.07
807.84	2252.77
808.01	2002.91
808.19	2449.37
808.36	2512.86
808.54	2205.66
808.71	2187.23
808.88	2246.62
809.06	2402.27
809.23	2439.13
809.40	2185.18
809.58	2330.59
809.75	2217.95
809.92	2150.37
810.10	2406.36
810.27	2293.72
810.44	2308.06
810.62	2320.35
810.79	2203.61
810.96	2193.37
811.14	2172.89
811.31	2260.96
811.48	2344.92
811.66	2273.25
811.83	2338.78
812.00	2287.58
812.18	2289.63
812.35	2426.84
812.52	2295.77
812.69	2242.53
812.87	2228.19
813.04	2064.35
813.21	2150.37
813.39	2217.95
813.56	2062.30
813.73	2308.06
813.91	2113.50
814.08	2275.29
814.25	2232.29
814.42	2103.26
814.60	2226.14
814.77	2258.91
814.94	2283.49
815.12	2250.72
815.29	2449.37
815.46	2117.60
815.63	2220.00
815.81	2203.61
815.98	2228.19
816.15	2199.52
816.33	2195.42
816.50	2205.66
816.67	2250.72
816.84	2211.81
817.02	2113.50
817.19	2209.76
817.36	2267.10
817.53	2363.36
817.71	2170.85
817.88	2283.49
818.05	2285.53
818.22	2125.79
818.40	2453.47
818.57	2158.56
818.74	2310.11
818.91	2281.44
819.09	2357.21
819.26	2314.20
819.43	2185.18
819.60	2199.52
819.78	2359.26
819.95	2269.15
820.12	2236.38
820.29	2392.03
820.47	2404.32
820.64	2191.33
820.81	2119.65
820.98	2142.18
821.15	2158.56
821.33	2375.64
821.50	2127.84
821.67	2252.77
821.84	2236.38
822.02	2316.25
822.19	2340.83
822.36	2195.42
822.53	2215.90
822.70	2056.16
822.88	2129.89
823.05	2404.32
823.22	2203.61
823.39	2310.11
823.56	2234.33
823.74	2412.51
823.91	2199.52
824.08	2170.85
824.25	2164.70
824.42	2392.03
824.60	2154.46
824.77	2234.33
824.94	2174.94
825.11	2308.06
825.28	2140.13
825.45	2254.81
825.63	2250.72
825.80	2101.22
825.97	2326.49
826.14	2246.62
826.31	2109.41
826.48	2326.49
826.66	2174.94
826.83	2224.09
827.00	2176.99
827.17	2136.03
827.34	2291.68
827.51	2187.23
827.69	2195.42
827.86	2076.64
828.03	2195.42
828.20	2269.15
828.37	2162.66
828.54	2365.40
828.71	2101.22
828.89	2385.88
829.06	2256.86
829.23	2394.08
829.40	2271.20
829.57	2281.44
829.74	2359.26
829.91	2217.95
830.09	2164.70
830.26	2291.68
830.43	2338.78
830.60	2195.42
830.77	2387.93
830.94	2432.99
831.11	2310.11
831.28	2248.67
831.46	2314.20
831.63	2209.76
831.80	2297.82
831.97	2240.48
832.14	2222.05
832.31	2277.34
832.48	2236.38
832.65	2316.25
832.82	2234.33
832.99	2293.72
833.17	2185.18
833.34	2375.64
833.51	2306.01
833.68	2052.06
833.85	2389.98
834.02	2050.02
834.19	2088.93
834.36	2189.28
834.53	2250.72
834.70	2297.82
834.87	2306.01
835.04	2179.04
835.22	2236.38
835.39	2179.04
835.56	2113.50
835.73	2232.29
835.90	2271.20
836.07	2220.00
836.24	2330.59
836.41	2148.32
836.58	2195.42
836.75	2289.63
836.92	2283.49
837.09	2195.42
837.26	2265.05
837.43	2301.92
837.60	2301.92
837.77	2236.38
837.94	2306.01
838.12	2361.31
838.29	2228.19
838.46	2111.46
838.63	2174.94
838.80	2387.93
838.97	2226.14
839.14	2174.94
839.31	2185.18
839.48	2340.83
839.65	2230.24
839.82	2301.92
839.99	2240.48
840.16	2211.81
840.33	2140.13
840.50	2269.15
840.67	2154.46
840.84	2041.82
841.01	2209.76
841.18	2197.47
841.35	2220.00
841.52	2328.54
841.69	2428.89
841.86	2269.15
842.03	2275.29
842.20	2310.11
842.37	2148.32
842.54	2183.13
842.71	2234.33
842.88	2234.33
843.05	2269.15
843.22	2133.98
843.39	2342.88
843.56	2258.91
843.73	2291.68
843.90	2211.81
844.07	2201.57
844.24	2287.58
844.41	2220.00
844.58	2273.25
844.75	2258.91
844.92	2263.01
845.09	2256.86
845.26	2154.46
845.43	2273.25
845.60	2191.33
845.77	2367.45
845.94	2217.95
846.10	2437.08
846.27	2025.44
846.44	2138.08
846.61	2162.66
846.78	2283.49
846.95	2346.97
847.12	2217.95
847.29	2154.46
847.46	2179.04
847.63	2322.40
847.80	2146.27
847.97	2154.46
848.14	2521.05
848.31	2217.95
848.48	2115.55
848.65	2275.29
848.82	2238.43
848.98	2467.80
849.15	2263.01
849.32	2351.07
849.49	2295.77
849.66	2207.71
849.83	2170.85
850.00	2101.22
850.17	2281.44
850.34	2191.33
850.51	2181.09
850.68	2170.85
850.85	2465.75
851.01	2260.96
851.18	2172.89
851.35	2189.28
851.52	2318.30
851.69	2349.02
851.86	2086.88
852.03	2279.39
852.20	2314.20
852.37	2207.71
852.53	2088.93
852.70	2207.71
852.87	2234.33
853.04	2367.45
853.21	2154.46
853.38	2277.34
853.55	2353.12
853.72	2359.26
853.89	2113.50
854.05	2105.31
854.22	2244.57
854.39	2211.81
854.56	2256.86
854.73	2308.06
854.90	2191.33
855.07	2228.19
855.23	2144.22
855.40	2187.23
855.57	2240.48
855.74	2023.39
855.91	2387.93
856.08	2146.27
856.25	2111.46
856.41	2215.90
856.58	2162.66
856.75	2289.63
856.92	2191.33
857.09	2326.49
857.26	2113.50
857.42	2250.72
857.59	2283.49
857.76	2197.47
857.93	2234.33
858.10	2220.00
858.27	2170.85
858.43	2217.95
858.60	2230.24
858.77	2041.82
858.94	2209.76
859.11	2367.45
859.27	2187.23
859.44	2133.98
859.61	2396.12
859.78	2295.77
859.95	2095.07
860.12	2154.46
860.28	2428.89
860.45	2428.89
860.62	2203.61
860.79	2176.99
860.95	2240.48
861.12	2179.04
861.29	2090.98
861.46	2119.65
861.63	2260.96
861.79	2267.10
861.96	2146.27
862.13	2109.41
862.30	2389.98
862.47	2193.37
862.63	2152.42
862.80	2287.58
862.97	2310.11
863.14	2263.01
863.30	2244.57
863.47	2201.57
863.64	2437.08
863.81	2326.49
863.97	2125.79
864.14	2267.10
864.31	2222.05
864.48	2244.57
864.65	2275.29
864.81	2351.07
864.98	2340.83
865.15	2275.29
865.32	2234.33
865.48	2281.44
865.65	2392.03
865.82	2246.62
865.98	2234.33
866.15	2271.20
866.32	2191.33
866.49	2150.37
866.65	2258.91
866.82	2105.31
866.99	2250.72
867.16	2211.81
867.32	2125.79
867.49	2185.18
867.66	2263.01
867.83	2170.85
867.99	2131.94
868.16	2166.75
868.33	2031.58
868.49	2242.53
868.66	2193.37
868.83	2256.86
868.99	2236.38
869.16	2291.68
869.33	2379.74
869.50	2297.82
869.66	2258.91
869.83	2230.24
870.00	2113.50
870.16	2207.71
870.33	2240.48
870.50	2277.34
870.66	2220.00
870.83	2326.49
871.00	2267.10
871.17	2326.49
871.33	2236.38
871.50	2199.52
871.67	2330.59
871.83	2105.31
872.00	2359.26
872.17	2238.43
872.33	2404.32
872.50	2359.26
872.67	2136.03
872.83	2154.46
873.00	2240.48
873.17	2291.68
873.33	2228.19
873.50	2281.44
873.67	2187.23
873.83	2113.50
874.00	2203.61
874.16	2318.30
874.33	2228.19
874.50	2176.99
874.66	2275.29
874.83	2211.81
875.00	2326.49
875.16	2322.40
875.33	2275.29
875.50	1931.23
875.66	2275.29
875.83	2256.86
875.99	2199.52
876.16	2207.71
876.33	2142.18
876.49	2258.91
876.66	2189.28
876.83	2179.04
876.99	2086.88
877.16	2193.37
877.32	2228.19
877.49	2138.08
877.66	2273.25
877.82	2392.03
877.99	2220.00
878.15	2250.72
878.32	2248.67
878.49	2283.49
878.65	2191.33
878.82	2402.27
878.98	2215.90
879.15	2330.59
879.32	2273.25
879.48	2213.85
879.65	2224.09
879.81	2209.76
879.98	2215.90
880.15	2138.08
880.31	2291.68
880.48	2138.08
880.64	2244.57
880.81	2244.57
880.97	2408.41
881.14	2353.12
881.31	2150.37
881.47	2379.74
881.64	2285.53
881.80	2054.11
881.97	2230.24
882.13	2240.48
882.30	2117.60
882.47	2174.94
882.63	2115.55
882.80	2162.66
882.96	2252.77
883.13	2357.21
883.29	2136.03
883.46	2316.25
883.62	2523.10
883.79	2297.82
883.95	2260.96
884.12	2136.03
884.29	2330.59
884.45	2314.20
884.62	2269.15
884.78	2129.89
884.95	2383.84
885.11	2193.37
885.28	2275.29
885.44	2215.90
885.61	2342.88
885.77	2408.41
885.94	2263.01
886.10	2240.48
886.27	2258.91
886.43	2414.56
886.60	2412.51
886.76	2244.57
886.93	2187.23
887.09	2314.20
887.26	2064.35
887.42	2244.57
887.59	2285.53
887.75	2428.89
887.92	2267.10
888.08	2275.29
888.25	2435.03
888.41	2293.72
888.58	2203.61
888.74	2097.12
888.91	2131.94
>>>>>End Processed Spectral Data<<<<<
