SpectraSuite Data File
++++++++++++++++++++++++++++++++++++
Date: Thu May 05 13:20:52 CEST 2016
User: root
Dark Spectrum Present: No
Reference Spectrum Present: No
Number of Sampled Component Spectra: 1
Spectrometers: USB4C02835
Integration Time (usec): 100000 (USB4C02835)
Spectra Averaged: 1 (USB4C02835)
Boxcar Smoothing: 0 (USB4C02835)
Correct for Electrical Dark: No (USB4C02835)
Strobe/Lamp Enabled: No (USB4C02835)
Correct for Detector Non-linearity: No (USB4C02835)
Correct for Stray Light: No (USB4C02835)
Number of Pixels in Processed Spectrum: 3648
>>>>>Begin Processed Spectral Data<<<<<
177.47	1804.26
177.69	1804.26
177.91	1804.26
178.13	1753.06
178.36	1785.83
178.58	2136.03
178.80	2297.82
179.02	2078.69
179.24	2160.61
179.46	2174.94
179.68	2191.33
179.90	2238.43
180.13	2238.43
180.35	2101.22
180.57	2187.23
180.79	2396.12
181.01	2246.62
181.23	2244.57
181.45	2285.53
181.67	2293.72
181.90	2328.54
182.12	2162.66
182.34	2027.49
182.56	2293.72
182.78	2289.63
183.00	2150.37
183.22	2297.82
183.44	2039.78
183.66	2514.91
183.89	2316.25
184.11	2150.37
184.33	2293.72
184.55	2363.36
184.77	2187.23
184.99	2160.61
185.21	2230.24
185.43	2490.33
185.65	2205.66
185.87	2195.42
186.10	2514.91
186.32	2432.99
186.54	2193.37
186.76	2244.57
186.98	2338.78
187.20	2220.00
187.42	2166.75
187.64	2176.99
187.86	2265.05
188.08	2379.74
188.30	2129.89
188.52	2224.09
188.75	2377.69
188.97	2392.03
189.19	2150.37
189.41	2138.08
189.63	2281.44
189.85	2322.40
190.07	2039.78
190.29	2109.41
190.51	2273.25
190.73	2123.74
190.95	2258.91
191.17	2162.66
191.39	2090.98
191.61	2217.95
191.84	2207.71
192.06	2236.38
192.28	2133.98
192.50	2617.30
192.72	2287.58
192.94	2222.05
193.16	2392.03
193.38	2260.96
193.60	2207.71
193.82	2168.80
194.04	2338.78
194.26	2310.11
194.48	2301.92
194.70	2170.85
194.92	2238.43
195.14	2279.39
195.36	2121.70
195.58	2250.72
195.80	2308.06
196.02	2154.46
196.24	2183.13
196.46	2187.23
196.69	2191.33
196.91	2478.04
197.13	2215.90
197.35	2121.70
197.57	2377.69
197.79	2332.64
198.01	2156.51
198.23	2217.95
198.45	2250.72
198.67	2103.26
198.89	2107.36
199.11	2254.81
199.33	2230.24
199.55	2039.78
199.77	2176.99
199.99	2301.92
200.21	2236.38
200.43	2301.92
200.65	2043.87
200.87	2064.35
201.09	2230.24
201.31	2203.61
201.53	2174.94
201.75	2297.82
201.97	2260.96
202.19	2240.48
202.41	2205.66
202.63	2336.73
202.85	2346.97
203.07	2273.25
203.29	2211.81
203.51	2162.66
203.73	2174.94
203.95	2547.67
204.17	2211.81
204.39	2248.67
204.61	2260.96
204.83	2181.09
205.05	2258.91
205.27	2267.10
205.49	2598.87
205.71	2334.68
205.93	2054.11
206.15	2125.79
206.37	2230.24
206.59	2181.09
206.81	2119.65
207.03	2109.41
207.25	2174.94
207.47	2310.11
207.69	2148.32
207.91	2398.17
208.13	2363.36
208.34	2260.96
208.56	2162.66
208.78	2213.85
209.00	2176.99
209.22	2191.33
209.44	2226.14
209.66	2181.09
209.88	2197.47
210.10	2244.57
210.32	2179.04
210.54	2244.57
210.76	2224.09
210.98	2392.03
211.20	2039.78
211.42	2250.72
211.64	2349.02
211.86	2332.64
212.08	2242.53
212.30	2207.71
212.52	2222.05
212.74	2326.49
212.96	2232.29
213.17	2299.87
213.39	2342.88
213.61	2467.80
213.83	2090.98
214.05	2152.42
214.27	2392.03
214.49	2146.27
214.71	2078.69
214.93	2283.49
215.15	2207.71
215.37	2193.37
215.59	2138.08
215.81	2220.00
216.03	2359.26
216.24	2258.91
216.46	2316.25
216.68	2228.19
216.90	2279.39
217.12	2385.88
217.34	2199.52
217.56	2240.48
217.78	2420.70
218.00	2299.87
218.22	2263.01
218.44	2127.84
218.66	2217.95
218.87	2398.17
219.09	2162.66
219.31	2215.90
219.53	2267.10
219.75	2174.94
219.97	2211.81
220.19	2226.14
220.41	2199.52
220.63	2416.60
220.85	2150.37
221.06	2179.04
221.28	2398.17
221.50	2355.16
221.72	2129.89
221.94	2160.61
222.16	2338.78
222.38	2318.30
222.60	2174.94
222.82	2228.19
223.03	2273.25
223.25	2185.18
223.47	2207.71
223.69	2379.74
223.91	2314.20
224.13	2306.01
224.35	2185.18
224.57	2275.29
224.78	2226.14
225.00	2179.04
225.22	2201.57
225.44	2119.65
225.66	2277.34
225.88	2176.99
226.10	2275.29
226.32	2181.09
226.53	2398.17
226.75	2224.09
226.97	2234.33
227.19	2254.81
227.41	2201.57
227.63	2154.46
227.85	2103.26
228.06	2209.76
228.28	2230.24
228.50	2332.64
228.72	2119.65
228.94	2101.22
229.16	2107.36
229.37	2136.03
229.59	2140.13
229.81	2363.36
230.03	2203.61
230.25	2111.46
230.47	2027.49
230.69	2131.94
230.90	2377.69
231.12	2121.70
231.34	2131.94
231.56	2310.11
231.78	2146.27
232.00	2277.34
232.21	2179.04
232.43	2181.09
232.65	1996.77
232.87	2260.96
233.09	2064.35
233.30	2088.93
233.52	2301.92
233.74	2256.86
233.96	2211.81
234.18	2183.13
234.40	2273.25
234.61	2463.71
234.83	2095.07
235.05	2119.65
235.27	2566.10
235.49	2467.80
235.70	2144.22
235.92	2285.53
236.14	2367.45
236.36	2514.91
236.58	2146.27
236.79	2279.39
237.01	2228.19
237.23	2189.28
237.45	2332.64
237.67	2199.52
237.88	2377.69
238.10	2478.04
238.32	2047.97
238.54	2150.37
238.76	2289.63
238.97	2166.75
239.19	2113.50
239.41	2191.33
239.63	2396.12
239.85	2187.23
240.06	2154.46
240.28	2113.50
240.50	2404.32
240.72	2248.67
240.93	2138.08
241.15	2330.59
241.37	2254.81
241.59	2402.27
241.81	2226.14
242.02	2160.61
242.24	2211.81
242.46	2435.03
242.68	2168.80
242.89	2220.00
243.11	2363.36
243.33	2244.57
243.55	2265.05
243.76	2224.09
243.98	2234.33
244.20	2265.05
244.42	2168.80
244.64	2277.34
244.85	2150.37
245.07	2195.42
245.29	2162.66
245.51	2168.80
245.72	2306.01
245.94	2416.60
246.16	2144.22
246.38	2228.19
246.59	2197.47
246.81	2158.56
247.03	2160.61
247.24	2090.98
247.46	2244.57
247.68	2228.19
247.90	2095.07
248.11	2179.04
248.33	2318.30
248.55	2162.66
248.77	2228.19
248.98	2244.57
249.20	2410.46
249.42	2293.72
249.64	2267.10
249.85	2240.48
250.07	2238.43
250.29	2279.39
250.50	2310.11
250.72	2113.50
250.94	2324.44
251.16	2519.00
251.37	2207.71
251.59	2322.40
251.81	2340.83
252.02	2394.08
252.24	2101.22
252.46	2267.10
252.68	2097.12
252.89	2197.47
253.11	1992.67
253.33	2213.85
253.54	2400.22
253.76	2113.50
253.98	2131.94
254.20	2078.69
254.41	2097.12
254.63	2287.58
254.85	2113.50
255.06	2222.05
255.28	2359.26
255.50	2275.29
255.71	2156.51
255.93	2125.79
256.15	2220.00
256.36	2254.81
256.58	2107.36
256.80	2203.61
257.02	2220.00
257.23	2205.66
257.45	2152.42
257.67	2217.95
257.88	2179.04
258.10	2324.44
258.32	2121.70
258.53	2271.20
258.75	2492.38
258.97	2166.75
259.18	2125.79
259.40	2174.94
259.62	2410.46
259.83	2414.56
260.05	2207.71
260.27	2697.17
260.48	2342.88
260.70	2162.66
260.92	2228.19
261.13	2289.63
261.35	2197.47
261.57	2310.11
261.78	2023.39
262.00	2123.74
262.22	2310.11
262.43	2162.66
262.65	2158.56
262.86	2162.66
263.08	2463.71
263.30	2273.25
263.51	2062.30
263.73	2174.94
263.95	2355.16
264.16	2115.55
264.38	2105.31
264.60	2170.85
264.81	2244.57
265.03	2373.60
265.25	2301.92
265.46	2199.52
265.68	2437.08
265.89	2250.72
266.11	2095.07
266.33	2211.81
266.54	2357.21
266.76	2336.73
266.98	2203.61
267.19	2289.63
267.41	2310.11
267.62	2254.81
267.84	2103.26
268.06	2234.33
268.27	2256.86
268.49	2396.12
268.70	2224.09
268.92	2176.99
269.14	2154.46
269.35	2105.31
269.57	2209.76
269.79	2285.53
270.00	2168.80
270.22	2396.12
270.43	2088.93
270.65	2056.16
270.87	2324.44
271.08	2324.44
271.30	2252.77
271.51	2230.24
271.73	2303.96
271.95	2275.29
272.16	2191.33
272.38	2230.24
272.59	2193.37
272.81	2320.35
273.02	2185.18
273.24	2267.10
273.46	2342.88
273.67	2103.26
273.89	2097.12
274.10	2146.27
274.32	2414.56
274.54	2318.30
274.75	2242.53
274.97	2166.75
275.18	2342.88
275.40	2291.68
275.61	2250.72
275.83	2203.61
276.05	2244.57
276.26	2265.05
276.48	2250.72
276.69	2158.56
276.91	2160.61
277.12	2363.36
277.34	2293.72
277.55	2279.39
277.77	2299.87
277.99	2209.76
278.20	2121.70
278.42	2052.06
278.63	2113.50
278.85	2191.33
279.06	2119.65
279.28	2166.75
279.49	2338.78
279.71	2340.83
279.93	2166.75
280.14	2252.77
280.36	2168.80
280.57	2336.73
280.79	2330.59
281.00	2138.08
281.22	2226.14
281.43	2414.56
281.65	2029.54
281.86	2150.37
282.08	2258.91
282.29	2412.51
282.51	2129.89
282.73	2107.36
282.94	2111.46
283.16	2379.74
283.37	2332.64
283.59	2271.20
283.80	2267.10
284.02	2314.20
284.23	2285.53
284.45	2160.61
284.66	2217.95
284.88	2256.86
285.09	2234.33
285.31	2330.59
285.52	2328.54
285.74	2127.84
285.95	2289.63
286.17	2236.38
286.38	2449.37
286.60	2127.84
286.81	2115.55
287.03	2125.79
287.24	2281.44
287.46	2289.63
287.67	2375.64
287.89	2355.16
288.10	2283.49
288.32	2273.25
288.53	2402.27
288.75	2215.90
288.96	2330.59
289.18	2183.13
289.39	2240.48
289.61	2254.81
289.82	2465.75
290.04	2473.95
290.25	2119.65
290.47	2213.85
290.68	2203.61
290.90	2357.21
291.11	2084.83
291.33	2289.63
291.54	2197.47
291.76	2203.61
291.97	2277.34
292.18	2203.61
292.40	2197.47
292.61	2146.27
292.83	2428.89
293.04	2293.72
293.26	2291.68
293.47	2314.20
293.69	2166.75
293.90	2201.57
294.12	2392.03
294.33	2269.15
294.55	2185.18
294.76	2389.98
294.97	2385.88
295.19	2453.47
295.40	2220.00
295.62	2314.20
295.83	2355.16
296.05	2160.61
296.26	2342.88
296.48	2224.09
296.69	2252.77
296.90	2273.25
297.12	2310.11
297.33	2295.77
297.55	2217.95
297.76	2242.53
297.98	2281.44
298.19	2228.19
298.41	2260.96
298.62	2154.46
298.83	2283.49
299.05	2260.96
299.26	2228.19
299.48	2162.66
299.69	2236.38
299.90	2226.14
300.12	2164.70
300.33	2316.25
300.55	2207.71
300.76	2301.92
300.98	2101.22
301.19	2291.68
301.40	2154.46
301.62	2236.38
301.83	2267.10
302.05	2291.68
302.26	2303.96
302.47	2322.40
302.69	2129.89
302.90	2279.39
303.12	2041.82
303.33	2351.07
303.54	2326.49
303.76	2236.38
303.97	2314.20
304.19	2430.94
304.40	2123.74
304.61	2308.06
304.83	2428.89
305.04	2369.50
305.26	2250.72
305.47	2236.38
305.68	2238.43
305.90	2129.89
306.11	2334.68
306.33	2267.10
306.54	2121.70
306.75	2170.85
306.97	2068.45
307.18	2203.61
307.39	2179.04
307.61	2289.63
307.82	2250.72
308.04	2340.83
308.25	2136.03
308.46	2238.43
308.68	2260.96
308.89	2226.14
309.10	2293.72
309.32	2281.44
309.53	2244.57
309.74	2316.25
309.96	2185.18
310.17	2312.16
310.39	2252.77
310.60	2342.88
310.81	2220.00
311.03	2095.07
311.24	2357.21
311.45	2234.33
311.67	2412.51
311.88	2277.34
312.09	2230.24
312.31	2263.01
312.52	2181.09
312.73	2258.91
312.95	2142.18
313.16	2164.70
313.37	2330.59
313.59	2271.20
313.80	2277.34
314.01	2463.71
314.23	2226.14
314.44	2154.46
314.65	2142.18
314.87	2168.80
315.08	2170.85
315.29	2150.37
315.51	2240.48
315.72	2078.69
315.93	2353.12
316.15	2320.35
316.36	2193.37
316.57	2318.30
316.79	2207.71
317.00	2191.33
317.21	2301.92
317.43	2160.61
317.64	2236.38
317.85	2142.18
318.07	2207.71
318.28	2295.77
318.49	2351.07
318.70	2463.71
318.92	2357.21
319.13	2332.64
319.34	2482.14
319.56	2318.30
319.77	2353.12
319.98	2400.22
320.20	2334.68
320.41	2379.74
320.62	2371.55
320.83	2172.89
321.05	2392.03
321.26	2344.92
321.47	2222.05
321.69	2367.45
321.90	2115.55
322.11	2203.61
322.32	2295.77
322.54	2428.89
322.75	2181.09
322.96	2475.99
323.18	2113.50
323.39	2031.58
323.60	2129.89
323.81	2281.44
324.03	2166.75
324.24	2226.14
324.45	2263.01
324.66	2283.49
324.88	2318.30
325.09	2482.14
325.30	2281.44
325.52	2234.33
325.73	2260.96
325.94	2078.69
326.15	2113.50
326.37	2240.48
326.58	2314.20
326.79	2428.89
327.00	2144.22
327.22	2211.81
327.43	2209.76
327.64	2170.85
327.85	2240.48
328.07	2250.72
328.28	2398.17
328.49	2250.72
328.70	2211.81
328.92	2224.09
329.13	2203.61
329.34	2338.78
329.55	2412.51
329.76	2344.92
329.98	2267.10
330.19	2379.74
330.40	2267.10
330.61	2232.29
330.83	2316.25
331.04	2170.85
331.25	2267.10
331.46	2228.19
331.68	2154.46
331.89	2377.69
332.10	2195.42
332.31	2105.31
332.52	2234.33
332.74	2363.36
332.95	2170.85
333.16	2244.57
333.37	2320.35
333.58	2166.75
333.80	2293.72
334.01	2113.50
334.22	2228.19
334.43	2168.80
334.64	2162.66
334.86	2074.59
335.07	2138.08
335.28	2355.16
335.49	2080.74
335.70	2308.06
335.92	2349.02
336.13	2580.44
336.34	2220.00
336.55	2234.33
336.76	2316.25
336.98	2060.26
337.19	2256.86
337.40	2332.64
337.61	2525.15
337.82	2258.91
338.04	2301.92
338.25	2060.26
338.46	2201.57
338.67	2201.57
338.88	2170.85
339.09	2166.75
339.31	2215.90
339.52	2129.89
339.73	2174.94
339.94	2248.67
340.15	2326.49
340.36	2156.51
340.58	2250.72
340.79	2183.13
341.00	2285.53
341.21	2136.03
341.42	2375.64
341.63	2189.28
341.85	2314.20
342.06	2273.25
342.27	2140.13
342.48	2267.10
342.69	2129.89
342.90	2314.20
343.12	2310.11
343.33	2148.32
343.54	2371.55
343.75	2371.55
343.96	2226.14
344.17	2156.51
344.38	2242.53
344.60	2170.85
344.81	2136.03
345.02	2195.42
345.23	2383.84
345.44	2465.75
345.65	2314.20
345.86	2213.85
346.07	2240.48
346.29	2199.52
346.50	2293.72
346.71	2338.78
346.92	2381.79
347.13	2502.62
347.34	2244.57
347.55	2211.81
347.76	2371.55
347.98	2154.46
348.19	2234.33
348.40	2363.36
348.61	2234.33
348.82	2379.74
349.03	2269.15
349.24	2140.13
349.45	2412.51
349.66	2086.88
349.88	2248.67
350.09	2260.96
350.30	2363.36
350.51	2400.22
350.72	2238.43
350.93	2215.90
351.14	2265.05
351.35	2273.25
351.56	2224.09
351.77	2220.00
351.99	2281.44
352.20	2353.12
352.41	2297.82
352.62	2054.11
352.83	2232.29
353.04	2267.10
353.25	2232.29
353.46	2330.59
353.67	2418.65
353.88	1990.63
354.09	2203.61
354.30	2299.87
354.52	2338.78
354.73	2197.47
354.94	2256.86
355.15	2260.96
355.36	2439.13
355.57	2203.61
355.78	2236.38
355.99	2244.57
356.20	2269.15
356.41	2367.45
356.62	2232.29
356.83	2136.03
357.04	2355.16
357.25	2123.74
357.46	2127.84
357.68	2084.83
357.89	2209.76
358.10	2203.61
358.31	2252.77
358.52	2211.81
358.73	2097.12
358.94	2142.18
359.15	2220.00
359.36	2351.07
359.57	2201.57
359.78	2185.18
359.99	2301.92
360.20	2183.13
360.41	2310.11
360.62	2373.60
360.83	2185.18
361.04	2279.39
361.25	2220.00
361.46	2414.56
361.67	2320.35
361.88	2275.29
362.09	2367.45
362.30	2220.00
362.51	2170.85
362.72	2217.95
362.93	2375.64
363.14	2295.77
363.35	2267.10
363.56	2195.42
363.78	2373.60
363.99	2285.53
364.20	2205.66
364.41	2258.91
364.62	2455.51
364.83	2213.85
365.04	2158.56
365.25	2254.81
365.46	2521.05
365.67	2174.94
365.88	2281.44
366.09	2138.08
366.30	2211.81
366.51	2269.15
366.72	2082.78
366.93	2138.08
367.14	2273.25
367.35	2396.12
367.56	2224.09
367.77	2293.72
367.98	2228.19
368.18	2265.05
368.39	2281.44
368.60	2084.83
368.81	2279.39
369.02	2254.81
369.23	2185.18
369.44	2033.63
369.65	2195.42
369.86	2244.57
370.07	2250.72
370.28	2201.57
370.49	2254.81
370.70	2301.92
370.91	2133.98
371.12	2119.65
371.33	2340.83
371.54	2234.33
371.75	2328.54
371.96	2070.50
372.17	2260.96
372.38	2232.29
372.59	2297.82
372.80	2209.76
373.01	2242.53
373.22	2269.15
373.43	2205.66
373.64	2111.46
373.85	2336.73
374.06	2410.46
374.26	2334.68
374.47	2344.92
374.68	2445.27
374.89	2269.15
375.10	2195.42
375.31	2308.06
375.52	2265.05
375.73	2275.29
375.94	2113.50
376.15	2367.45
376.36	2236.38
376.57	2133.98
376.78	2215.90
376.99	2265.05
377.20	2416.60
377.40	2213.85
377.61	2326.49
377.82	2158.56
378.03	2394.08
378.24	2394.08
378.45	2283.49
378.66	2256.86
378.87	2088.93
379.08	2088.93
379.29	2263.01
379.50	2346.97
379.71	2197.47
379.91	2373.60
380.12	2283.49
380.33	2230.24
380.54	2236.38
380.75	2279.39
380.96	2203.61
381.17	2275.29
381.38	2217.95
381.59	2291.68
381.80	2185.18
382.00	2396.12
382.21	2281.44
382.42	2408.41
382.63	2426.84
382.84	2242.53
383.05	2398.17
383.26	2379.74
383.47	2281.44
383.68	2285.53
383.88	2330.59
384.09	2295.77
384.30	2336.73
384.51	2322.40
384.72	2220.00
384.93	2101.22
385.14	2271.20
385.35	2281.44
385.55	2138.08
385.76	2389.98
385.97	2187.23
386.18	2105.31
386.39	2162.66
386.60	2246.62
386.81	2234.33
387.02	2101.22
387.22	2121.70
387.43	2301.92
387.64	2338.78
387.85	2508.76
388.06	2510.81
388.27	3944.39
388.48	8144.77
388.68	11751.24
388.89	13870.89
389.10	15013.66
389.31	13995.82
389.52	11007.83
389.73	9457.52
389.93	8599.42
390.14	7817.10
390.35	6920.09
390.56	6225.82
390.77	5185.46
390.98	3973.06
391.18	3229.65
391.39	2768.85
391.60	2451.42
391.81	2400.22
392.02	2269.15
392.23	2521.05
392.43	2301.92
392.64	2338.78
392.85	2195.42
393.06	2406.36
393.27	2232.29
393.47	2211.81
393.68	2234.33
393.89	2195.42
394.10	2363.36
394.31	2232.29
394.52	2154.46
394.72	2111.46
394.93	2404.32
395.14	2166.75
395.35	2308.06
395.56	2260.96
395.76	2260.96
395.97	2273.25
396.18	2375.64
396.39	2326.49
396.60	2740.18
396.80	2465.75
397.01	2432.99
397.22	2351.07
397.43	2443.23
397.64	2228.19
397.84	2330.59
398.05	2543.58
398.26	2213.85
398.47	2410.46
398.67	2359.26
398.88	2279.39
399.09	2351.07
399.30	2234.33
399.51	2246.62
399.71	2105.31
399.92	2224.09
400.13	2334.68
400.34	2248.67
400.54	2285.53
400.75	2351.07
400.96	2357.21
401.17	2361.31
401.37	2316.25
401.58	2220.00
401.79	2199.52
402.00	2398.17
402.21	2670.55
402.41	2553.82
402.62	2564.06
402.83	2711.51
403.04	2650.07
403.24	2815.96
403.45	2469.85
403.66	2465.75
403.87	2449.37
404.07	2514.91
404.28	2648.02
404.49	2494.43
404.70	2326.49
404.90	2373.60
405.11	2324.44
405.32	2342.88
405.52	2170.85
405.73	2193.37
405.94	2176.99
406.15	2203.61
406.35	2248.67
406.56	2310.11
406.77	2281.44
406.98	2346.97
407.18	2113.50
407.39	2365.40
407.60	2256.86
407.80	2252.77
408.01	2240.48
408.22	2306.01
408.43	2197.47
408.63	2306.01
408.84	2359.26
409.05	2396.12
409.25	2211.81
409.46	2162.66
409.67	2207.71
409.88	2185.18
410.08	2308.06
410.29	2238.43
410.50	2326.49
410.70	2381.79
410.91	2076.64
411.12	2258.91
411.32	2168.80
411.53	2166.75
411.74	2377.69
411.95	2340.83
412.15	2375.64
412.36	2396.12
412.57	2400.22
412.77	2359.26
412.98	2211.81
413.19	2256.86
413.39	2340.83
413.60	2310.11
413.81	2439.13
414.01	2158.56
414.22	2322.40
414.43	2375.64
414.63	2338.78
414.84	2412.51
415.05	2316.25
415.25	2121.70
415.46	2396.12
415.67	2195.42
415.87	2342.88
416.08	2271.20
416.29	2242.53
416.49	2291.68
416.70	2191.33
416.91	2244.57
417.11	2240.48
417.32	2349.02
417.53	2248.67
417.73	2213.85
417.94	2172.89
418.15	2181.09
418.35	2226.14
418.56	2215.90
418.77	2521.05
418.97	2324.44
419.18	2306.01
419.38	2019.30
419.59	2211.81
419.80	2398.17
420.00	2232.29
420.21	2220.00
420.42	2387.93
420.62	2310.11
420.83	2174.94
421.04	2240.48
421.24	2322.40
421.45	2349.02
421.65	2267.10
421.86	2250.72
422.07	2373.60
422.27	2293.72
422.48	2205.66
422.69	2123.74
422.89	2287.58
423.10	2263.01
423.30	2168.80
423.51	2234.33
423.72	2281.44
423.92	2351.07
424.13	2084.83
424.33	2236.38
424.54	2412.51
424.75	2267.10
424.95	2351.07
425.16	2312.16
425.36	2258.91
425.57	2342.88
425.78	2306.01
425.98	2338.78
426.19	2299.87
426.39	2152.42
426.60	2322.40
426.81	2332.64
427.01	2273.25
427.22	2207.71
427.42	2136.03
427.63	2154.46
427.83	2301.92
428.04	2441.18
428.25	2367.45
428.45	2301.92
428.66	2349.02
428.86	2254.81
429.07	2207.71
429.28	2179.04
429.48	2246.62
429.69	2133.98
429.89	2220.00
430.10	2154.46
430.30	2326.49
430.51	2353.12
430.71	2115.55
430.92	2230.24
431.13	2269.15
431.33	2297.82
431.54	2326.49
431.74	2396.12
431.95	2512.86
432.15	2113.50
432.36	2244.57
432.56	2330.59
432.77	2416.60
432.98	2435.03
433.18	2342.88
433.39	2162.66
433.59	2306.01
433.80	2414.56
434.00	2457.56
434.21	2199.52
434.41	2144.22
434.62	2449.37
434.82	2203.61
435.03	2166.75
435.23	2289.63
435.44	2037.73
435.64	2195.42
435.85	2211.81
436.06	2369.50
436.26	2375.64
436.47	2185.18
436.67	2183.13
436.88	2308.06
437.08	2375.64
437.29	2406.36
437.49	2324.44
437.70	2463.71
437.90	2236.38
438.11	2383.84
438.31	2277.34
438.52	2432.99
438.72	2412.51
438.93	2447.32
439.13	2314.20
439.34	2424.80
439.54	2324.44
439.75	2295.77
439.95	2332.64
440.16	2260.96
440.36	2330.59
440.57	2320.35
440.77	2310.11
440.98	2228.19
441.18	2346.97
441.39	2301.92
441.59	2195.42
441.80	2467.80
442.00	2310.11
442.21	2349.02
442.41	2148.32
442.62	2312.16
442.82	2203.61
443.02	2277.34
443.23	2310.11
443.43	2228.19
443.64	2412.51
443.84	2183.13
444.05	2435.03
444.25	2285.53
444.46	2269.15
444.66	2228.19
444.87	2342.88
445.07	2095.07
445.28	2236.38
445.48	2379.74
445.69	2318.30
445.89	2580.44
446.09	2203.61
446.30	2523.10
446.50	2846.68
446.71	4386.75
446.91	5629.87
447.12	6234.02
447.32	6719.39
447.53	6219.68
447.73	5191.60
447.93	4603.83
448.14	4126.66
448.34	4169.66
448.55	3704.78
448.75	3481.55
448.96	3407.82
449.16	3076.05
449.36	2877.40
449.57	2582.49
449.77	2389.98
449.98	2303.96
450.18	2334.68
450.39	2293.72
450.59	2310.11
450.79	2232.29
451.00	2195.42
451.20	2394.08
451.41	2211.81
451.61	2228.19
451.81	2244.57
452.02	2172.89
452.22	2256.86
452.43	2213.85
452.63	2211.81
452.84	2203.61
453.04	2211.81
453.24	2314.20
453.45	2144.22
453.65	2289.63
453.86	2301.92
454.06	2373.60
454.26	2314.20
454.47	2201.57
454.67	2416.60
454.87	2248.67
455.08	2250.72
455.28	2408.41
455.49	2314.20
455.69	2205.66
455.89	2453.47
456.10	2367.45
456.30	2222.05
456.51	2351.07
456.71	2316.25
456.91	2310.11
457.12	2158.56
457.32	2381.79
457.52	2174.94
457.73	2332.64
457.93	2338.78
458.14	2193.37
458.34	2168.80
458.54	2263.01
458.75	2154.46
458.95	2439.13
459.15	2277.34
459.36	2301.92
459.56	2322.40
459.76	2523.10
459.97	2185.18
460.17	2308.06
460.37	2316.25
460.58	2211.81
460.78	2418.65
460.99	2279.39
461.19	2260.96
461.39	2138.08
461.60	2226.14
461.80	2322.40
462.00	2133.98
462.21	2306.01
462.41	2207.71
462.61	2152.42
462.82	2074.59
463.02	2283.49
463.22	2314.20
463.43	2349.02
463.63	2293.72
463.83	2437.08
464.04	2322.40
464.24	2250.72
464.44	2201.57
464.64	2326.49
464.85	2340.83
465.05	2334.68
465.25	2195.42
465.46	2166.75
465.66	2394.08
465.86	2242.53
466.07	2238.43
466.27	2273.25
466.47	2117.60
466.68	2142.18
466.88	2389.98
467.08	2289.63
467.29	2361.31
467.49	2324.44
467.69	2297.82
467.89	2349.02
468.10	2242.53
468.30	2293.72
468.50	2422.75
468.71	2430.94
468.91	2146.27
469.11	2498.52
469.31	2277.34
469.52	2150.37
469.72	2441.18
469.92	2406.36
470.13	2152.42
470.33	2318.30
470.53	2299.87
470.73	2580.44
470.94	3071.95
471.14	3110.86
471.34	3561.42
471.54	3389.39
471.75	3024.85
471.95	2891.73
472.15	2736.09
472.36	2807.77
472.56	2777.05
472.76	2703.32
472.96	2617.30
473.17	2600.92
473.37	2498.52
473.57	2355.16
473.77	2387.93
473.98	2275.29
474.18	2185.18
474.38	2572.25
474.58	2260.96
474.79	2217.95
474.99	2303.96
475.19	2357.21
475.39	2179.04
475.60	2314.20
475.80	2277.34
476.00	2299.87
476.20	2220.00
476.41	2273.25
476.61	2369.50
476.81	2346.97
477.01	2138.08
477.21	2416.60
477.42	2346.97
477.62	2215.90
477.82	2299.87
478.02	2195.42
478.23	2281.44
478.43	2174.94
478.63	2240.48
478.83	2310.11
479.03	2236.38
479.24	2392.03
479.44	2471.90
479.64	2236.38
479.84	2056.16
480.04	2150.37
480.25	2355.16
480.45	2144.22
480.65	2236.38
480.85	2389.98
481.06	2185.18
481.26	2293.72
481.46	2353.12
481.66	2363.36
481.86	2211.81
482.06	2473.95
482.27	2234.33
482.47	2183.13
482.67	2338.78
482.87	2326.49
483.07	2365.40
483.28	2191.33
483.48	2146.27
483.68	2269.15
483.88	2203.61
484.08	2088.93
484.29	2150.37
484.49	2332.64
484.69	2150.37
484.89	2447.32
485.09	2377.69
485.29	2289.63
485.50	2236.38
485.70	2310.11
485.90	2461.66
486.10	2254.81
486.30	2314.20
486.50	2381.79
486.71	2236.38
486.91	2213.85
487.11	2351.07
487.31	2115.55
487.51	2260.96
487.71	2207.71
487.91	2197.47
488.12	2316.25
488.32	2029.54
488.52	2246.62
488.72	2088.93
488.92	2244.57
489.12	2295.77
489.32	2310.11
489.53	2283.49
489.73	2115.55
489.93	2408.41
490.13	2193.37
490.33	2097.12
490.53	2308.06
490.73	2392.03
490.94	2082.78
491.14	2316.25
491.34	2338.78
491.54	2584.54
491.74	3129.30
491.94	3712.97
492.14	3983.30
492.34	4161.47
492.54	3737.54
492.75	3248.08
492.95	3231.69
493.15	3069.91
493.35	3045.33
493.55	2930.64
493.75	2719.70
493.95	2871.25
494.15	2553.82
494.35	2408.41
494.56	2400.22
494.76	2314.20
494.96	2334.68
495.16	2312.16
495.36	2265.05
495.56	2226.14
495.76	2271.20
495.96	2199.52
496.16	2199.52
496.36	2504.67
496.56	2289.63
496.77	2285.53
496.97	2260.96
497.17	2336.73
497.37	2076.64
497.57	2361.31
497.77	2215.90
497.97	2185.18
498.17	2312.16
498.37	2226.14
498.57	2326.49
498.77	2215.90
498.97	2355.16
499.17	2490.33
499.38	2197.47
499.58	2455.51
499.78	2209.76
499.98	2453.47
500.18	2248.67
500.38	2267.10
500.58	2455.51
500.78	2858.96
500.98	5003.19
501.18	7141.27
501.38	8808.31
501.58	9647.98
501.78	9445.23
501.98	7597.96
502.18	6297.50
502.38	5476.27
502.58	5048.24
502.78	4685.75
502.98	4396.99
503.18	4196.29
503.38	3831.75
503.59	3424.20
503.79	3145.68
503.99	2985.94
504.19	2791.38
504.39	2832.34
504.59	2815.96
504.79	2852.82
504.99	2875.35
505.19	2555.86
505.39	2498.52
505.59	2715.61
505.79	2555.86
505.99	2473.95
506.19	2301.92
506.39	2416.60
506.59	2183.13
506.79	2271.20
506.99	2367.45
507.19	2277.34
507.39	2254.81
507.59	2170.85
507.79	2191.33
507.99	2242.53
508.19	2279.39
508.39	2269.15
508.59	2211.81
508.79	2357.21
508.99	2447.32
509.19	2242.53
509.39	2316.25
509.59	2209.76
509.79	2097.12
509.99	2328.54
510.19	2414.56
510.39	2342.88
510.59	2316.25
510.79	2295.77
510.99	2166.75
511.19	2248.67
511.39	2486.23
511.59	2412.51
511.79	2396.12
511.99	2277.34
512.19	2387.93
512.38	2260.96
512.58	2189.28
512.78	2181.09
512.98	2455.51
513.18	2428.89
513.38	2160.61
513.58	2283.49
513.78	2260.96
513.98	2273.25
514.18	2150.37
514.38	2209.76
514.58	2381.79
514.78	2238.43
514.98	2183.13
515.18	2160.61
515.38	2084.83
515.58	2400.22
515.78	2271.20
515.98	2205.66
516.18	2340.83
516.38	2265.05
516.57	2140.13
516.77	2179.04
516.97	2346.97
517.17	2201.57
517.37	2088.93
517.57	2332.64
517.77	2271.20
517.97	2220.00
518.17	2328.54
518.37	2158.56
518.57	2191.33
518.77	2224.09
518.97	2254.81
519.16	2297.82
519.36	2349.02
519.56	2209.76
519.76	2187.23
519.96	2365.40
520.16	2465.75
520.36	2183.13
520.56	2375.64
520.76	2125.79
520.96	2193.37
521.16	2367.45
521.35	2428.89
521.55	2338.78
521.75	2209.76
521.95	2230.24
522.15	2256.86
522.35	2170.85
522.55	2156.51
522.75	2342.88
522.95	2199.52
523.14	2244.57
523.34	2281.44
523.54	2271.20
523.74	2232.29
523.94	2277.34
524.14	2144.22
524.34	2267.10
524.54	2363.36
524.73	2226.14
524.93	2271.20
525.13	2269.15
525.33	2138.08
525.53	2490.33
525.73	2295.77
525.93	2269.15
526.13	2260.96
526.32	2222.05
526.52	2373.60
526.72	2365.40
526.92	2248.67
527.12	2189.28
527.32	2129.89
527.52	2322.40
527.71	2260.96
527.91	2195.42
528.11	2256.86
528.31	2269.15
528.51	2125.79
528.71	2357.21
528.90	2291.68
529.10	2351.07
529.30	2430.94
529.50	2088.93
529.70	2267.10
529.90	2260.96
530.09	2265.05
530.29	2166.75
530.49	2176.99
530.69	2457.56
530.89	2246.62
531.09	2373.60
531.28	2166.75
531.48	2428.89
531.68	2234.33
531.88	2228.19
532.08	2265.05
532.28	2232.29
532.47	2330.59
532.67	2357.21
532.87	2291.68
533.07	2205.66
533.27	2342.88
533.46	2346.97
533.66	2199.52
533.86	2277.34
534.06	2303.96
534.26	2275.29
534.45	2301.92
534.65	2441.18
534.85	2351.07
535.05	2164.70
535.25	2392.03
535.44	2125.79
535.64	2299.87
535.84	2213.85
536.04	2244.57
536.24	2273.25
536.43	2191.33
536.63	2250.72
536.83	2260.96
537.03	2193.37
537.22	2154.46
537.42	2084.83
537.62	2244.57
537.82	2168.80
538.02	2394.08
538.21	2363.36
538.41	2555.86
538.61	2371.55
538.81	2195.42
539.00	2404.32
539.20	2191.33
539.40	2230.24
539.60	2275.29
539.79	2291.68
539.99	2193.37
540.19	2129.89
540.39	2220.00
540.58	2308.06
540.78	2389.98
540.98	2346.97
541.18	2381.79
541.37	2260.96
541.57	2211.81
541.77	2308.06
541.97	2158.56
542.16	2154.46
542.36	2189.28
542.56	2205.66
542.76	2455.51
542.95	2332.64
543.15	2322.40
543.35	2314.20
543.54	2113.50
543.74	2185.18
543.94	2527.19
544.14	2185.18
544.33	2283.49
544.53	2340.83
544.73	2197.47
544.93	2207.71
545.12	2213.85
545.32	2213.85
545.52	2156.51
545.71	2205.66
545.91	2144.22
546.11	2193.37
546.30	2168.80
546.50	2289.63
546.70	2277.34
546.90	2211.81
547.09	2136.03
547.29	2269.15
547.49	2310.11
547.68	2265.05
547.88	2269.15
548.08	2338.78
548.27	2766.81
548.47	2185.18
548.67	2209.76
548.87	2365.40
549.06	2185.18
549.26	2269.15
549.46	2383.84
549.65	2220.00
549.85	2353.12
550.05	2326.49
550.24	2144.22
550.44	2226.14
550.64	2260.96
550.83	2275.29
551.03	2396.12
551.23	2367.45
551.42	2340.83
551.62	2230.24
551.82	2301.92
552.01	2234.33
552.21	2387.93
552.41	2240.48
552.60	2441.18
552.80	2236.38
553.00	2299.87
553.19	2244.57
553.39	2439.13
553.59	2203.61
553.78	2363.36
553.98	2260.96
554.17	2174.94
554.37	2324.44
554.57	2301.92
554.76	2146.27
554.96	2240.48
555.16	2273.25
555.35	2277.34
555.55	2254.81
555.75	2310.11
555.94	2254.81
556.14	2062.30
556.33	2256.86
556.53	2234.33
556.73	2318.30
556.92	2310.11
557.12	2365.40
557.32	2465.75
557.51	2424.80
557.71	2240.48
557.90	2424.80
558.10	2451.42
558.30	2230.24
558.49	2250.72
558.69	2263.01
558.88	2340.83
559.08	2293.72
559.28	2201.57
559.47	2273.25
559.67	2351.07
559.86	2410.46
560.06	2297.82
560.26	2295.77
560.45	2308.06
560.65	2295.77
560.84	2422.75
561.04	2256.86
561.24	2334.68
561.43	2222.05
561.63	2420.70
561.82	2324.44
562.02	2351.07
562.22	2127.84
562.41	2113.50
562.61	2260.96
562.80	2234.33
563.00	2484.19
563.19	2326.49
563.39	2293.72
563.59	2301.92
563.78	2254.81
563.98	2121.70
564.17	2183.13
564.37	2136.03
564.56	2314.20
564.76	2123.74
564.96	2387.93
565.15	2289.63
565.35	2496.47
565.54	2187.23
565.74	2361.31
565.93	2332.64
566.13	2334.68
566.32	2346.97
566.52	2312.16
566.71	2299.87
566.91	2363.36
567.11	2383.84
567.30	2170.85
567.50	2287.58
567.69	2338.78
567.89	2150.37
568.08	2211.81
568.28	2312.16
568.47	2109.41
568.67	2285.53
568.86	2242.53
569.06	2346.97
569.25	2291.68
569.45	2226.14
569.64	2220.00
569.84	2260.96
570.04	2289.63
570.23	2234.33
570.43	2279.39
570.62	2349.02
570.82	2416.60
571.01	2189.28
571.21	2195.42
571.40	2154.46
571.60	2373.60
571.79	2324.44
571.99	2252.77
572.18	2138.08
572.38	2334.68
572.57	2228.19
572.77	2400.22
572.96	2525.15
573.16	2326.49
573.35	2283.49
573.55	2367.45
573.74	2373.60
573.94	2179.04
574.13	2291.68
574.33	2303.96
574.52	2359.26
574.71	2299.87
574.91	2340.83
575.10	2222.05
575.30	2201.57
575.49	2195.42
575.69	2222.05
575.88	2277.34
576.08	2246.62
576.27	2523.10
576.47	2365.40
576.66	2461.66
576.86	2408.41
577.05	2326.49
577.25	2351.07
577.44	2514.91
577.64	2209.76
577.83	2353.12
578.02	2269.15
578.22	2379.74
578.41	2394.08
578.61	2275.29
578.80	2117.60
579.00	2320.35
579.19	2230.24
579.39	2330.59
579.58	2359.26
579.77	2289.63
579.97	2486.23
580.16	2408.41
580.36	2392.03
580.55	2260.96
580.75	2400.22
580.94	2332.64
581.13	2398.17
581.33	2314.20
581.52	2297.82
581.72	2547.67
581.91	2428.89
582.11	2322.40
582.30	2449.37
582.49	2320.35
582.69	2422.75
582.88	2291.68
583.08	2277.34
583.27	2353.12
583.47	2265.05
583.66	2168.80
583.85	2213.85
584.05	2351.07
584.24	2346.97
584.44	2293.72
584.63	2428.89
584.82	2473.95
585.02	2392.03
585.21	2443.23
585.41	2392.03
585.60	2416.60
585.79	2547.67
585.99	2578.39
586.18	2443.23
586.37	2932.69
586.57	4560.83
586.76	13588.27
586.96	32929.29
587.15	46828.85
587.34	56145.06
587.54	61303.90
587.73	55850.16
587.93	39450.02
588.12	29935.16
588.31	23887.51
588.51	20782.79
588.70	19271.39
588.89	17383.16
589.09	15089.43
589.28	13117.24
589.47	10534.75
589.67	8200.07
589.86	6197.15
590.06	4698.04
590.25	3747.78
590.44	3129.30
590.64	2826.20
590.83	2629.59
591.02	2531.29
591.22	2367.45
591.41	2420.70
591.60	2375.64
591.80	2488.28
591.99	2193.37
592.18	2291.68
592.38	2392.03
592.57	2295.77
592.76	2232.29
592.96	2340.83
593.15	2238.43
593.34	2424.80
593.54	2328.54
593.73	2301.92
593.92	2324.44
594.12	2344.92
594.31	2324.44
594.50	2406.36
594.70	2328.54
594.89	2562.01
595.08	2234.33
595.28	2400.22
595.47	2555.86
595.66	2457.56
595.86	2197.47
596.05	2203.61
596.24	2269.15
596.43	2400.22
596.63	2473.95
596.82	2336.73
597.01	2379.74
597.21	2609.11
597.40	2236.38
597.59	2285.53
597.79	2250.72
597.98	2428.89
598.17	2365.40
598.36	2260.96
598.56	2418.65
598.75	2220.00
598.94	2303.96
599.14	2281.44
599.33	2248.67
599.52	2359.26
599.71	2346.97
599.91	2316.25
600.10	2293.72
600.29	2295.77
600.48	2349.02
600.68	2361.31
600.87	2244.57
601.06	2211.81
601.26	2369.50
601.45	2281.44
601.64	2275.29
601.83	2389.98
602.03	2217.95
602.22	2150.37
602.41	2430.94
602.60	2478.04
602.80	2326.49
602.99	2260.96
603.18	2277.34
603.37	2334.68
603.57	2211.81
603.76	2365.40
603.95	2373.60
604.14	2211.81
604.34	2244.57
604.53	2303.96
604.72	2316.25
604.91	2324.44
605.10	2299.87
605.30	2146.27
605.49	2512.86
605.68	2355.16
605.87	2295.77
606.07	2152.42
606.26	2342.88
606.45	2312.16
606.64	2283.49
606.84	2248.67
607.03	2287.58
607.22	2443.23
607.41	2281.44
607.60	2289.63
607.80	2414.56
607.99	2291.68
608.18	2287.58
608.37	2244.57
608.56	2256.86
608.76	2332.64
608.95	2498.52
609.14	2359.26
609.33	2471.90
609.52	2502.62
609.72	2410.46
609.91	2418.65
610.10	2318.30
610.29	2463.71
610.48	2351.07
610.68	2353.12
610.87	2248.67
611.06	2371.55
611.25	2228.19
611.44	2363.36
611.63	2263.01
611.83	2463.71
612.02	2140.13
612.21	2322.40
612.40	2072.54
612.59	2158.56
612.79	2211.81
612.98	2293.72
613.17	2453.47
613.36	2263.01
613.55	2484.19
613.74	2322.40
613.93	2490.33
614.13	2473.95
614.32	2447.32
614.51	2480.09
614.70	2314.20
614.89	2283.49
615.08	2396.12
615.28	2785.24
615.47	2166.75
615.66	2363.36
615.85	2275.29
616.04	2396.12
616.23	2316.25
616.42	2439.13
616.62	2297.82
616.81	2320.35
617.00	2281.44
617.19	2312.16
617.38	2293.72
617.57	2174.94
617.76	2314.20
617.95	2449.37
618.15	2328.54
618.34	2449.37
618.53	2226.14
618.72	2422.75
618.91	2400.22
619.10	2371.55
619.29	2238.43
619.48	2301.92
619.68	2211.81
619.87	2340.83
620.06	2170.85
620.25	2310.11
620.44	2301.92
620.63	2244.57
620.82	2201.57
621.01	2332.64
621.20	2244.57
621.39	2275.29
621.59	2277.34
621.78	2303.96
621.97	2267.10
622.16	2404.32
622.35	2238.43
622.54	2408.41
622.73	2385.88
622.92	2172.89
623.11	2334.68
623.30	2172.89
623.49	2236.38
623.68	2215.90
623.88	2351.07
624.07	2248.67
624.26	2226.14
624.45	2224.09
624.64	2312.16
624.83	2289.63
625.02	2236.38
625.21	2265.05
625.40	2267.10
625.59	2455.51
625.78	2346.97
625.97	2430.94
626.16	2406.36
626.35	2449.37
626.54	2326.49
626.74	2514.91
626.93	2267.10
627.12	2277.34
627.31	2346.97
627.50	2338.78
627.69	2316.25
627.88	2203.61
628.07	2267.10
628.26	2111.46
628.45	2205.66
628.64	2215.90
628.83	2285.53
629.02	2172.89
629.21	2338.78
629.40	2322.40
629.59	2199.52
629.78	2185.18
629.97	2340.83
630.16	2295.77
630.35	2289.63
630.54	2320.35
630.73	2197.47
630.92	2301.92
631.11	2150.37
631.30	2316.25
631.49	2322.40
631.68	2236.38
631.87	2293.72
632.06	2191.33
632.25	2492.38
632.44	2213.85
632.63	2289.63
632.82	2301.92
633.01	2228.19
633.20	2314.20
633.39	2365.40
633.58	2160.61
633.77	2381.79
633.96	2392.03
634.15	2342.88
634.34	2310.11
634.53	2379.74
634.72	2248.67
634.91	2127.84
635.10	2246.62
635.29	2281.44
635.48	2322.40
635.67	2193.37
635.86	2084.83
636.05	2426.84
636.24	2240.48
636.43	2244.57
636.62	2355.16
636.81	2027.49
637.00	2291.68
637.19	2310.11
637.38	2244.57
637.57	2244.57
637.76	2248.67
637.95	2381.79
638.14	2355.16
638.33	2306.01
638.52	2375.64
638.71	2179.04
638.89	2193.37
639.08	2590.68
639.27	2473.95
639.46	2439.13
639.65	2809.81
639.84	2818.00
640.03	3014.61
640.22	2828.24
640.41	2887.64
640.60	2580.44
640.79	2473.95
640.98	2453.47
641.17	2519.00
641.36	2461.66
641.55	2482.14
641.74	2244.57
641.92	2326.49
642.11	2199.52
642.30	2250.72
642.49	2154.46
642.68	2277.34
642.87	2301.92
643.06	2291.68
643.25	2176.99
643.44	2162.66
643.63	2277.34
643.82	2392.03
644.00	2097.12
644.19	2197.47
644.38	2142.18
644.57	2291.68
644.76	2256.86
644.95	2217.95
645.14	2252.77
645.33	2242.53
645.52	2215.90
645.71	2230.24
645.89	2140.13
646.08	2244.57
646.27	2203.61
646.46	2439.13
646.65	2201.57
646.84	2285.53
647.03	2150.37
647.22	2346.97
647.40	2295.77
647.59	2176.99
647.78	2029.54
647.97	2140.13
648.16	2263.01
648.35	2441.18
648.54	2400.22
648.73	2191.33
648.91	2371.55
649.10	2308.06
649.29	2119.65
649.48	2269.15
649.67	2283.49
649.86	2310.11
650.05	2275.29
650.23	2400.22
650.42	2289.63
650.61	2463.71
650.80	2473.95
650.99	2588.63
651.18	2414.56
651.36	2383.84
651.55	2318.30
651.74	2371.55
651.93	2322.40
652.12	2271.20
652.31	2285.53
652.49	2215.90
652.68	2291.68
652.87	2377.69
653.06	2301.92
653.25	2490.33
653.44	2281.44
653.62	2387.93
653.81	2326.49
654.00	2279.39
654.19	2314.20
654.38	2527.19
654.56	2336.73
654.75	2217.95
654.94	2365.40
655.13	2369.50
655.32	2252.77
655.51	2363.36
655.69	2220.00
655.88	2375.64
656.07	2170.85
656.26	2256.86
656.45	2129.89
656.63	2197.47
656.82	2283.49
657.01	2334.68
657.20	2170.85
657.38	2361.31
657.57	2191.33
657.76	2097.12
657.95	2293.72
658.14	2146.27
658.32	2359.26
658.51	2160.61
658.70	2191.33
658.89	2310.11
659.08	2256.86
659.26	2457.56
659.45	2201.57
659.64	2385.88
659.83	2258.91
660.01	2654.17
660.20	2281.44
660.39	2422.75
660.58	2052.06
660.76	2404.32
660.95	2127.84
661.14	2314.20
661.33	2107.36
661.51	2250.72
661.70	2234.33
661.89	2365.40
662.08	2301.92
662.26	2062.30
662.45	2095.07
662.64	2373.60
662.83	2275.29
663.01	2138.08
663.20	2236.38
663.39	2367.45
663.58	2248.67
663.76	2209.76
663.95	2271.20
664.14	2232.29
664.32	2273.25
664.51	2125.79
664.70	2185.18
664.89	2371.55
665.07	2064.35
665.26	2293.72
665.45	2226.14
665.64	2310.11
665.82	2228.19
666.01	2271.20
666.20	2213.85
666.38	2439.13
666.57	2414.56
666.76	3399.63
666.95	8171.40
667.13	16248.58
667.32	21118.65
667.51	24792.71
667.69	26500.72
667.88	24151.70
668.07	17088.25
668.25	13842.22
668.44	11478.86
668.63	9830.25
668.81	8822.65
669.00	7608.20
669.19	6997.91
669.38	6031.27
669.56	5230.51
669.75	4386.75
669.94	3682.25
670.12	3117.01
670.31	2828.24
670.50	2592.73
670.68	2543.58
670.87	2377.69
671.06	2387.93
671.24	2322.40
671.43	2428.89
671.62	2295.77
671.80	2263.01
671.99	2369.50
672.18	2267.10
672.36	2375.64
672.55	2314.20
672.74	2201.57
672.92	2295.77
673.11	2275.29
673.29	2183.13
673.48	2363.36
673.67	2265.05
673.85	2346.97
674.04	2176.99
674.23	2217.95
674.41	2504.67
674.60	2136.03
674.79	2105.31
674.97	2209.76
675.16	2308.06
675.34	2234.33
675.53	2273.25
675.72	2285.53
675.90	2383.84
676.09	2269.15
676.28	2244.57
676.46	2195.42
676.65	2293.72
676.83	2242.53
677.02	2250.72
677.21	2299.87
677.39	2342.88
677.58	2195.42
677.77	2191.33
677.95	2154.46
678.14	2211.81
678.32	2193.37
678.51	2275.29
678.70	2439.13
678.88	2160.61
679.07	2256.86
679.25	2211.81
679.44	2254.81
679.63	2152.42
679.81	2330.59
680.00	2389.98
680.18	2322.40
680.37	2473.95
680.55	2285.53
680.74	2146.27
680.93	2105.31
681.11	2293.72
681.30	2209.76
681.48	2285.53
681.67	2246.62
681.85	2258.91
682.04	2174.94
682.23	2318.30
682.41	2252.77
682.60	2176.99
682.78	2199.52
682.97	2191.33
683.15	2252.77
683.34	2281.44
683.53	2410.46
683.71	2084.83
683.90	2369.50
684.08	2453.47
684.27	2187.23
684.45	2322.40
684.64	2441.18
684.82	2242.53
685.01	2312.16
685.19	2295.77
685.38	2371.55
685.57	2363.36
685.75	2197.47
685.94	2146.27
686.12	2179.04
686.31	2191.33
686.49	2459.61
686.68	2133.98
686.86	2381.79
687.05	2220.00
687.23	2379.74
687.42	2193.37
687.60	2166.75
687.79	2389.98
687.97	2375.64
688.16	2422.75
688.34	2408.41
688.53	2113.50
688.71	2322.40
688.90	2357.21
689.08	2238.43
689.27	2023.39
689.45	2232.29
689.64	2269.15
689.82	2246.62
690.01	2340.83
690.19	2385.88
690.38	2220.00
690.56	2379.74
690.75	2105.31
690.93	2156.51
691.12	2224.09
691.30	2258.91
691.49	2250.72
691.67	2295.77
691.86	2367.45
692.04	2240.48
692.23	2217.95
692.41	2308.06
692.60	2482.14
692.78	2387.93
692.97	2244.57
693.15	2428.89
693.34	2473.95
693.52	2308.06
693.71	2136.03
693.89	2232.29
694.08	2117.60
694.26	2314.20
694.44	2408.41
694.63	2322.40
694.81	2144.22
695.00	2217.95
695.18	2367.45
695.37	2482.14
695.55	2271.20
695.74	2338.78
695.92	2220.00
696.10	2398.17
696.29	2146.27
696.47	2146.27
696.66	2170.85
696.84	2080.74
697.03	2258.91
697.21	2443.23
697.40	3321.81
697.58	2392.03
697.76	2203.61
697.95	2209.76
698.13	2191.33
698.32	2310.11
698.50	2209.76
698.68	2201.57
698.87	2250.72
699.05	2469.85
699.24	2250.72
699.42	2199.52
699.61	2275.29
699.79	2277.34
699.97	2162.66
700.16	2127.84
700.34	2185.18
700.53	2332.64
700.71	2455.51
700.89	2334.68
701.08	2250.72
701.26	2281.44
701.45	2715.61
701.63	2164.70
701.81	2230.24
702.00	2246.62
702.18	2277.34
702.37	2263.01
702.55	2482.14
702.73	2465.75
702.92	2355.16
703.10	2506.71
703.28	2529.24
703.47	2322.40
703.65	2408.41
703.84	2344.92
704.02	2316.25
704.20	2387.93
704.39	2318.30
704.57	2254.81
704.75	2430.94
704.94	2281.44
705.12	2273.25
705.30	2576.34
705.49	4413.37
705.67	10372.96
705.86	18095.85
706.04	21866.16
706.22	24610.44
706.41	25855.61
706.59	21769.91
706.77	15669.01
706.96	12941.11
707.14	11425.62
707.32	9854.83
707.51	8783.74
707.69	7249.81
707.87	5969.83
708.06	4736.95
708.24	3921.86
708.42	3282.89
708.61	3014.61
708.79	2430.94
708.97	2424.80
709.16	2381.79
709.34	2322.40
709.52	2185.18
709.71	2269.15
709.89	2367.45
710.07	2181.09
710.26	2252.77
710.44	2211.81
710.62	2357.21
710.80	2265.05
710.99	2363.36
711.17	2369.50
711.35	2215.90
711.54	2248.67
711.72	2383.84
711.90	2299.87
712.09	2275.29
712.27	2179.04
712.45	2310.11
712.63	2273.25
712.82	2250.72
713.00	2310.11
713.18	2453.47
713.37	2303.96
713.55	2334.68
713.73	2281.44
713.91	2260.96
714.10	2267.10
714.28	2224.09
714.46	2256.86
714.65	2277.34
714.83	2396.12
715.01	2220.00
715.19	2293.72
715.38	2162.66
715.56	2314.20
715.74	2129.89
715.92	2170.85
716.11	2402.27
716.29	2064.35
716.47	2310.11
716.65	2269.15
716.84	2125.79
717.02	2297.82
717.20	2215.90
717.38	2189.28
717.57	2334.68
717.75	2312.16
717.93	2236.38
718.11	2342.88
718.30	2138.08
718.48	2340.83
718.66	2367.45
718.84	2381.79
719.03	2195.42
719.21	2193.37
719.39	2453.47
719.57	2256.86
719.75	2392.03
719.94	2244.57
720.12	2226.14
720.30	2252.77
720.48	2342.88
720.67	2191.33
720.85	2131.94
721.03	2228.19
721.21	2115.55
721.39	2336.73
721.58	2330.59
721.76	2283.49
721.94	2293.72
722.12	2320.35
722.30	2359.26
722.49	2172.89
722.67	2324.44
722.85	2285.53
723.03	2158.56
723.21	2154.46
723.40	2252.77
723.58	2349.02
723.76	2256.86
723.94	2402.27
724.12	2287.58
724.30	2408.41
724.49	2306.01
724.67	2199.52
724.85	2414.56
725.03	2185.18
725.21	2383.84
725.40	2369.50
725.58	2185.18
725.76	2291.68
725.94	2281.44
726.12	2140.13
726.30	2242.53
726.49	2248.67
726.67	2250.72
726.85	2324.44
727.03	2545.63
727.21	3555.27
727.39	5025.72
727.57	5814.18
727.76	6551.45
727.94	6690.71
728.12	6373.28
728.30	5332.91
728.48	4495.29
728.66	4046.79
728.84	3794.89
729.03	3219.41
729.21	3035.09
729.39	2705.37
729.57	2443.23
729.75	2310.11
729.93	2389.98
730.11	2293.72
730.30	2232.29
730.48	2256.86
730.66	2402.27
730.84	2324.44
731.02	2213.85
731.20	2234.33
731.38	2242.53
731.56	2232.29
731.74	2187.23
731.93	2346.97
732.11	2199.52
732.29	2273.25
732.47	2332.64
732.65	2265.05
732.83	2277.34
733.01	2291.68
733.19	2172.89
733.37	2277.34
733.56	2293.72
733.74	2183.13
733.92	2424.80
734.10	2189.28
734.28	2299.87
734.46	2047.97
734.64	2215.90
734.82	2168.80
735.00	2150.37
735.18	2207.71
735.36	2287.58
735.54	2224.09
735.73	2226.14
735.91	2371.55
736.09	2303.96
736.27	2301.92
736.45	2277.34
736.63	2068.45
736.81	2113.50
736.99	2281.44
737.17	2387.93
737.35	2136.03
737.53	2234.33
737.71	2254.81
737.89	2349.02
738.07	2152.42
738.25	2179.04
738.43	2113.50
738.61	2156.51
738.80	2095.07
738.98	2103.26
739.16	2263.01
739.34	2201.57
739.52	2371.55
739.70	2260.96
739.88	2301.92
740.06	2324.44
740.24	2105.31
740.42	2367.45
740.60	2050.02
740.78	2220.00
740.96	2078.69
741.14	2226.14
741.32	2254.81
741.50	2127.84
741.68	2482.14
741.86	2314.20
742.04	2129.89
742.22	2162.66
742.40	2213.85
742.58	2285.53
742.76	2154.46
742.94	2252.77
743.12	2066.40
743.30	2306.01
743.48	2342.88
743.66	2168.80
743.84	2273.25
744.02	2189.28
744.20	2285.53
744.38	2168.80
744.56	2220.00
744.74	2424.80
744.92	2281.44
745.10	2375.64
745.28	2389.98
745.46	2441.18
745.64	2187.23
745.82	2357.21
746.00	2285.53
746.18	2301.92
746.36	2162.66
746.54	2297.82
746.72	2191.33
746.90	2148.32
747.08	2355.16
747.26	2252.77
747.44	2330.59
747.62	2375.64
747.80	2213.85
747.98	2236.38
748.15	2275.29
748.33	2430.94
748.51	2258.91
748.69	2363.36
748.87	2232.29
749.05	2267.10
749.23	2211.81
749.41	2324.44
749.59	2203.61
749.77	2338.78
749.95	2215.90
750.13	2250.72
750.31	2297.82
750.49	2211.81
750.67	2367.45
750.85	2416.60
751.03	2291.68
751.20	2514.91
751.38	2324.44
751.56	2252.77
751.74	2314.20
751.92	2232.29
752.10	2222.05
752.28	2287.58
752.46	2248.67
752.64	2256.86
752.82	2285.53
753.00	2353.12
753.18	2236.38
753.35	2195.42
753.53	2222.05
753.71	2246.62
753.89	2344.92
754.07	2297.82
754.25	2408.41
754.43	2291.68
754.61	2181.09
754.79	2324.44
754.97	2230.24
755.14	2314.20
755.32	2176.99
755.50	2187.23
755.68	2297.82
755.86	2129.89
756.04	2185.18
756.22	2103.26
756.40	2285.53
756.57	2439.13
756.75	2205.66
756.93	2357.21
757.11	2328.54
757.29	2154.46
757.47	2222.05
757.65	2088.93
757.82	1982.43
758.00	2146.27
758.18	2179.04
758.36	2185.18
758.54	2412.51
758.72	2127.84
758.90	2326.49
759.07	2349.02
759.25	2215.90
759.43	2244.57
759.61	2088.93
759.79	3153.87
759.97	2318.30
760.15	2162.66
760.32	2195.42
760.50	2240.48
760.68	2389.98
760.86	2080.74
761.04	2363.36
761.22	2340.83
761.39	2152.42
761.57	2375.64
761.75	2222.05
761.93	2373.60
762.11	2252.77
762.28	2207.71
762.46	2146.27
762.64	2367.45
762.82	2154.46
763.00	2226.14
763.18	2342.88
763.35	2127.84
763.53	2326.49
763.71	2238.43
763.89	2277.34
764.07	2201.57
764.24	2236.38
764.42	2312.16
764.60	2224.09
764.78	2324.44
764.96	2363.36
765.13	2383.84
765.31	2162.66
765.49	2334.68
765.67	2152.42
765.84	2187.23
766.02	2230.24
766.20	2117.60
766.38	2306.01
766.56	2320.35
766.73	2375.64
766.91	2224.09
767.09	2285.53
767.27	2346.97
767.44	2152.42
767.62	2283.49
767.80	2248.67
767.98	2215.90
768.15	2193.37
768.33	2349.02
768.51	2330.59
768.69	2269.15
768.87	2209.76
769.04	2215.90
769.22	2547.67
769.40	2291.68
769.58	2441.18
769.75	2295.77
769.93	2351.07
770.11	2211.81
770.28	2146.27
770.46	2332.64
770.64	2277.34
770.82	2211.81
770.99	2187.23
771.17	2332.64
771.35	2269.15
771.53	2217.95
771.70	2267.10
771.88	2228.19
772.06	2260.96
772.23	2187.23
772.41	2271.20
772.59	2201.57
772.77	2162.66
772.94	2203.61
773.12	2283.49
773.30	2187.23
773.47	2273.25
773.65	2244.57
773.83	2363.36
774.01	2277.34
774.18	2004.96
774.36	2293.72
774.54	2138.08
774.71	2291.68
774.89	2121.70
775.07	2226.14
775.24	2207.71
775.42	2209.76
775.60	2420.70
775.78	2189.28
775.95	2230.24
776.13	2107.36
776.31	2105.31
776.48	2236.38
776.66	2375.64
776.84	2185.18
777.01	2193.37
777.19	2097.12
777.37	2203.61
777.54	2310.11
777.72	2404.32
777.90	2203.61
778.07	2185.18
778.25	2537.43
778.43	2369.50
778.60	2176.99
778.78	2316.25
778.96	2381.79
779.13	2215.90
779.31	2308.06
779.49	2197.47
779.66	2297.82
779.84	2195.42
780.01	2103.26
780.19	2179.04
780.37	2310.11
780.54	2355.16
780.72	2070.50
780.90	2258.91
781.07	2236.38
781.25	2183.13
781.43	2365.40
781.60	2183.13
781.78	2322.40
781.95	2330.59
782.13	2234.33
782.31	2205.66
782.48	2097.12
782.66	2176.99
782.83	2416.60
783.01	2273.25
783.19	2265.05
783.36	2248.67
783.54	2119.65
783.72	2285.53
783.89	2220.00
784.07	2301.92
784.24	2299.87
784.42	2338.78
784.60	2269.15
784.77	2205.66
784.95	2125.79
785.12	2232.29
785.30	2330.59
785.47	2166.75
785.65	2199.52
785.83	2129.89
786.00	2140.13
786.18	2226.14
786.35	2109.41
786.53	2127.84
786.71	2306.01
786.88	2299.87
787.06	2275.29
787.23	2236.38
787.41	2140.13
787.58	2326.49
787.76	2176.99
787.94	2316.25
788.11	2244.57
788.29	2148.32
788.46	2179.04
788.64	2154.46
788.81	2220.00
788.99	2136.03
789.16	2174.94
789.34	2209.76
789.52	2236.38
789.69	2215.90
789.87	2095.07
790.04	2181.09
790.22	2275.29
790.39	2506.71
790.57	2222.05
790.74	2187.23
790.92	2396.12
791.09	2105.31
791.27	2258.91
791.44	2232.29
791.62	2273.25
791.79	2379.74
791.97	2349.02
792.15	2521.05
792.32	2303.96
792.50	2285.53
792.67	2424.80
792.85	2432.99
793.02	2310.11
793.20	2183.13
793.37	2093.02
793.55	2283.49
793.72	2078.69
793.90	2275.29
794.07	2265.05
794.25	2197.47
794.42	2326.49
794.60	2265.05
794.77	2281.44
794.95	2281.44
795.12	2199.52
795.30	2273.25
795.47	2056.16
795.65	2498.52
795.82	2287.58
796.00	2199.52
796.17	2230.24
796.34	2189.28
796.52	2170.85
796.69	2258.91
796.87	2297.82
797.04	2316.25
797.22	2355.16
797.39	2312.16
797.57	2359.26
797.74	2289.63
797.92	2285.53
798.09	2209.76
798.27	2293.72
798.44	2179.04
798.62	2131.94
798.79	2242.53
798.96	2273.25
799.14	2297.82
799.31	2465.75
799.49	2285.53
799.66	2217.95
799.84	2275.29
800.01	2121.70
800.19	2258.91
800.36	2058.21
800.53	2234.33
800.71	2318.30
800.88	2410.46
801.06	2179.04
801.23	2193.37
801.41	2301.92
801.58	2207.71
801.75	2258.91
801.93	2314.20
802.10	2258.91
802.28	2250.72
802.45	2187.23
802.63	2324.44
802.80	2430.94
802.97	2191.33
803.15	2263.01
803.32	2248.67
803.50	2115.55
803.67	2176.99
803.84	2170.85
804.02	2230.24
804.19	2142.18
804.37	2125.79
804.54	2127.84
804.71	2193.37
804.89	2318.30
805.06	2148.32
805.24	2181.09
805.41	2158.56
805.58	2181.09
805.76	2527.19
805.93	2293.72
806.10	2392.03
806.28	2320.35
806.45	2230.24
806.63	2242.53
806.80	2293.72
806.97	2267.10
807.15	2269.15
807.32	2301.92
807.49	2199.52
807.67	2144.22
807.84	2252.77
808.01	2146.27
808.19	2342.88
808.36	2457.56
808.54	2179.04
808.71	2150.37
808.88	2283.49
809.06	2373.60
809.23	2398.17
809.40	2176.99
809.58	2234.33
809.75	2269.15
809.92	2187.23
810.10	2451.42
810.27	2156.51
810.44	2318.30
810.62	2310.11
810.79	2269.15
810.96	2162.66
811.14	2156.51
811.31	2306.01
811.48	2428.89
811.66	2213.85
811.83	2322.40
812.00	2316.25
812.18	2260.96
812.35	2402.27
812.52	2152.42
812.69	2207.71
812.87	2283.49
813.04	2138.08
813.21	2269.15
813.39	2185.18
813.56	2111.46
813.73	2330.59
813.91	2193.37
814.08	2297.82
814.25	2256.86
814.42	2074.59
814.60	2236.38
814.77	2297.82
814.94	2238.43
815.12	2250.72
815.29	2369.50
815.46	2174.94
815.63	2273.25
815.81	2215.90
815.98	2256.86
816.15	2193.37
816.33	2273.25
816.50	2125.79
816.67	2193.37
816.84	2291.68
817.02	2125.79
817.19	2226.14
817.36	2318.30
817.53	2226.14
817.71	2205.66
817.88	2260.96
818.05	2254.81
818.22	2174.94
818.40	2516.95
818.57	2172.89
818.74	2265.05
818.91	2236.38
819.09	2289.63
819.26	2234.33
819.43	2142.18
819.60	2195.42
819.78	2330.59
819.95	2326.49
820.12	2088.93
820.29	2383.84
820.47	2435.03
820.64	2160.61
820.81	2154.46
820.98	2148.32
821.15	2158.56
821.33	2306.01
821.50	2095.07
821.67	2332.64
821.84	2281.44
822.02	2324.44
822.19	2351.07
822.36	2197.47
822.53	2195.42
822.70	2131.94
822.88	2187.23
823.05	2418.65
823.22	2254.81
823.39	2314.20
823.56	2209.76
823.74	2432.99
823.91	2185.18
824.08	2158.56
824.25	2195.42
824.42	2480.09
824.60	2101.22
824.77	2256.86
824.94	2170.85
825.11	2308.06
825.28	2158.56
825.45	2318.30
825.63	2297.82
825.80	2244.57
825.97	2369.50
826.14	2334.68
826.31	2113.50
826.48	2332.64
826.66	2138.08
826.83	2203.61
827.00	2248.67
827.17	2179.04
827.34	2138.08
827.51	2138.08
827.69	2293.72
827.86	2168.80
828.03	2226.14
828.20	2236.38
828.37	2179.04
828.54	2265.05
828.71	2117.60
828.89	2375.64
829.06	2240.48
829.23	2408.41
829.40	2238.43
829.57	2226.14
829.74	2316.25
829.91	2191.33
830.09	2193.37
830.26	2301.92
830.43	2340.83
830.60	2187.23
830.77	2236.38
830.94	2260.96
831.11	2275.29
831.28	2166.75
831.46	2381.79
831.63	2230.24
831.80	2281.44
831.97	2150.37
832.14	2191.33
832.31	2318.30
832.48	2207.71
832.65	2353.12
832.82	2269.15
832.99	2310.11
833.17	2156.51
833.34	2371.55
833.51	2203.61
833.68	2029.54
833.85	2334.68
834.02	2072.54
834.19	2168.80
834.36	2154.46
834.53	2240.48
834.70	2387.93
834.87	2312.16
835.04	2240.48
835.22	2170.85
835.39	2215.90
835.56	2160.61
835.73	2207.71
835.90	2322.40
836.07	2148.32
836.24	2314.20
836.41	2142.18
836.58	2101.22
836.75	2398.17
836.92	2203.61
837.09	2170.85
837.26	2244.57
837.43	2258.91
837.60	2248.67
837.77	2170.85
837.94	2361.31
838.12	2398.17
838.29	2187.23
838.46	2144.22
838.63	2166.75
838.80	2416.60
838.97	2220.00
839.14	2187.23
839.31	2263.01
839.48	2299.87
839.65	2211.81
839.82	2322.40
839.99	2291.68
840.16	2312.16
840.33	2152.42
840.50	2217.95
840.67	2107.36
840.84	2056.16
841.01	2236.38
841.18	2179.04
841.35	2197.47
841.52	2301.92
841.69	2404.32
841.86	2164.70
842.03	2252.77
842.20	2351.07
842.37	2203.61
842.54	2168.80
842.71	2260.96
842.88	2080.74
843.05	2230.24
843.22	2183.13
843.39	2353.12
843.56	2168.80
843.73	2181.09
843.90	2277.34
844.07	2303.96
844.24	2346.97
844.41	2291.68
844.58	2154.46
844.75	2244.57
844.92	2306.01
845.09	2174.94
845.26	2133.98
845.43	2265.05
845.60	2213.85
845.77	2291.68
845.94	2203.61
846.10	2285.53
846.27	2136.03
846.44	2131.94
846.61	2062.30
846.78	2234.33
846.95	2383.84
847.12	2179.04
847.29	2189.28
847.46	2101.22
847.63	2310.11
847.80	2150.37
847.97	2236.38
848.14	2508.76
848.31	2256.86
848.48	2088.93
848.65	2260.96
848.82	2228.19
848.98	2437.08
849.15	2283.49
849.32	2275.29
849.49	2367.45
849.66	2199.52
849.83	2174.94
850.00	2047.97
850.17	2244.57
850.34	2238.43
850.51	2162.66
850.68	2234.33
850.85	2502.62
851.01	2322.40
851.18	2189.28
851.35	2211.81
851.52	2275.29
851.69	2457.56
851.86	2093.02
852.03	2183.13
852.20	2326.49
852.37	2256.86
852.53	2095.07
852.70	2228.19
852.87	2258.91
853.04	2326.49
853.21	2236.38
853.38	2404.32
853.55	2375.64
853.72	2414.56
853.89	2205.66
854.05	2170.85
854.22	2242.53
854.39	2217.95
854.56	2185.18
854.73	2263.01
854.90	2080.74
855.07	2314.20
855.23	2121.70
855.40	2166.75
855.57	2293.72
855.74	2019.30
855.91	2373.60
856.08	2039.78
856.25	2168.80
856.41	2195.42
856.58	2174.94
856.75	2179.04
856.92	2138.08
857.09	2291.68
857.26	2088.93
857.42	2138.08
857.59	2263.01
857.76	2176.99
857.93	2240.48
858.10	2252.77
858.27	2076.64
858.43	2160.61
858.60	2185.18
858.77	2072.54
858.94	2209.76
859.11	2379.74
859.27	2275.29
859.44	2156.51
859.61	2375.64
859.78	2260.96
859.95	2170.85
860.12	2181.09
860.28	2523.10
860.45	2480.09
860.62	2113.50
860.79	2252.77
860.95	2222.05
861.12	2185.18
861.29	2195.42
861.46	2107.36
861.63	2183.13
861.79	2277.34
861.96	2111.46
862.13	2211.81
862.30	2357.21
862.47	2152.42
862.63	2146.27
862.80	2256.86
862.97	2361.31
863.14	2228.19
863.30	2250.72
863.47	2138.08
863.64	2346.97
863.81	2267.10
863.97	2129.89
864.14	2213.85
864.31	2217.95
864.48	2236.38
864.65	2170.85
864.81	2260.96
864.98	2342.88
865.15	2363.36
865.32	2217.95
865.48	2328.54
865.65	2437.08
865.82	2131.94
865.98	2285.53
866.15	2232.29
866.32	2207.71
866.49	2254.81
866.65	2301.92
866.82	2142.18
866.99	2209.76
867.16	2228.19
867.32	2162.66
867.49	2156.51
867.66	2220.00
867.83	2189.28
867.99	2109.41
868.16	2150.37
868.33	2117.60
868.49	2232.29
868.66	2170.85
868.83	2271.20
868.99	2316.25
869.16	2248.67
869.33	2441.18
869.50	2269.15
869.66	2215.90
869.83	2240.48
870.00	2199.52
870.16	2349.02
870.33	2285.53
870.50	2310.11
870.66	2246.62
870.83	2351.07
871.00	2215.90
871.17	2234.33
871.33	2183.13
871.50	2146.27
871.67	2260.96
871.83	2121.70
872.00	2349.02
872.17	2164.70
872.33	2486.23
872.50	2353.12
872.67	2084.83
872.83	2154.46
873.00	2238.43
873.17	2193.37
873.33	2281.44
873.50	2299.87
873.67	2142.18
873.83	2144.22
874.00	2183.13
874.16	2285.53
874.33	2267.10
874.50	2201.57
874.66	2224.09
874.83	2269.15
875.00	2275.29
875.16	2308.06
875.33	2263.01
875.50	2064.35
875.66	2236.38
875.83	2301.92
875.99	2176.99
876.16	2179.04
876.33	2176.99
876.49	2308.06
876.66	2258.91
876.83	2148.32
876.99	2162.66
877.16	2246.62
877.32	2187.23
877.49	2174.94
877.66	2256.86
877.82	2387.93
877.99	2332.64
878.15	2275.29
878.32	2226.14
878.49	2222.05
878.65	2234.33
878.82	2318.30
878.98	2234.33
879.15	2324.44
879.32	2275.29
879.48	2215.90
879.65	2260.96
879.81	2168.80
879.98	2197.47
880.15	2162.66
880.31	2316.25
880.48	2117.60
880.64	2263.01
880.81	2281.44
880.97	2439.13
881.14	2375.64
881.31	2119.65
881.47	2396.12
881.64	2285.53
881.80	2082.78
881.97	2308.06
882.13	2297.82
882.30	2154.46
882.47	2183.13
882.63	2154.46
882.80	2142.18
882.96	2197.47
883.13	2392.03
883.29	2160.61
883.46	2275.29
883.62	2469.85
883.79	2252.77
883.95	2260.96
884.12	2220.00
884.29	2326.49
884.45	2297.82
884.62	2271.20
884.78	2144.22
884.95	2387.93
885.11	2238.43
885.28	2250.72
885.44	2230.24
885.61	2285.53
885.77	2314.20
885.94	2269.15
886.10	2189.28
886.27	2252.77
886.43	2371.55
886.60	2297.82
886.76	2234.33
886.93	2193.37
887.09	2195.42
887.26	2070.50
887.42	2277.34
887.59	2389.98
887.75	2396.12
887.92	2297.82
888.08	2289.63
888.25	2504.67
888.41	2361.31
888.58	2299.87
888.74	2121.70
888.91	2183.13
>>>>>End Processed Spectral Data<<<<<
