SpectraSuite Data File
++++++++++++++++++++++++++++++++++++
Date: Thu May 05 13:20:36 CEST 2016
User: root
Dark Spectrum Present: No
Reference Spectrum Present: No
Number of Sampled Component Spectra: 1
Spectrometers: USB4C02835
Integration Time (usec): 100000 (USB4C02835)
Spectra Averaged: 1 (USB4C02835)
Boxcar Smoothing: 0 (USB4C02835)
Correct for Electrical Dark: No (USB4C02835)
Strobe/Lamp Enabled: No (USB4C02835)
Correct for Detector Non-linearity: No (USB4C02835)
Correct for Stray Light: No (USB4C02835)
Number of Pixels in Processed Spectrum: 3648
>>>>>Begin Processed Spectral Data<<<<<
177.47	1802.21
177.69	1802.21
177.91	1802.21
178.13	1808.36
178.36	1751.01
178.58	2150.37
178.80	2336.73
179.02	2154.46
179.24	2154.46
179.46	2179.04
179.68	2252.77
179.90	2183.13
180.13	2203.61
180.35	2093.02
180.57	2127.84
180.79	2342.88
181.01	2256.86
181.23	2287.58
181.45	2310.11
181.67	2306.01
181.90	2365.40
182.12	2117.60
182.34	2021.35
182.56	2310.11
182.78	2336.73
183.00	2187.23
183.22	2252.77
183.44	2072.54
183.66	2506.71
183.89	2344.92
184.11	2181.09
184.33	2322.40
184.55	2402.27
184.77	2183.13
184.99	2248.67
185.21	2179.04
185.43	2521.05
185.65	2133.98
185.87	2162.66
186.10	2449.37
186.32	2480.09
186.54	2189.28
186.76	2263.01
186.98	2244.57
187.20	2275.29
187.42	2152.42
187.64	2195.42
187.86	2389.98
188.08	2387.93
188.30	2179.04
188.52	2176.99
188.75	2369.50
188.97	2389.98
189.19	2138.08
189.41	2248.67
189.63	2244.57
189.85	2215.90
190.07	2127.84
190.29	2004.96
190.51	2263.01
190.73	2144.22
190.95	2332.64
191.17	2164.70
191.39	2154.46
191.61	2258.91
191.84	2228.19
192.06	2256.86
192.28	2045.92
192.50	2596.82
192.72	2203.61
192.94	2209.76
193.16	2342.88
193.38	2320.35
193.60	2131.94
193.82	2273.25
194.04	2351.07
194.26	2236.38
194.48	2193.37
194.70	2195.42
194.92	2234.33
195.14	2357.21
195.36	2195.42
195.58	2240.48
195.80	2168.80
196.02	2224.09
196.24	2097.12
196.46	2213.85
196.69	2228.19
196.91	2564.06
197.13	2170.85
197.35	2109.41
197.57	2430.94
197.79	2303.96
198.01	2209.76
198.23	2181.09
198.45	2287.58
198.67	2121.70
198.89	2138.08
199.11	2306.01
199.33	2138.08
199.55	2097.12
199.77	2187.23
199.99	2289.63
200.21	2183.13
200.43	2289.63
200.65	2121.70
200.87	2068.45
201.09	2179.04
201.31	2199.52
201.53	2254.81
201.75	2260.96
201.97	2271.20
202.19	2256.86
202.41	2211.81
202.63	2289.63
202.85	2279.39
203.07	2318.30
203.29	2162.66
203.51	2123.74
203.73	2162.66
203.95	2490.33
204.17	2162.66
204.39	2240.48
204.61	2226.14
204.83	2236.38
205.05	2310.11
205.27	2291.68
205.49	2531.29
205.71	2232.29
205.93	2088.93
206.15	2136.03
206.37	2244.57
206.59	2203.61
206.81	2113.50
207.03	2107.36
207.25	2158.56
207.47	2293.72
207.69	2179.04
207.91	2398.17
208.13	2406.36
208.34	2205.66
208.56	2113.50
208.78	2148.32
209.00	2211.81
209.22	2166.75
209.44	2220.00
209.66	2121.70
209.88	2269.15
210.10	2236.38
210.32	2074.59
210.54	2293.72
210.76	2291.68
210.98	2332.64
211.20	1994.72
211.42	2240.48
211.64	2340.83
211.86	2306.01
212.08	2226.14
212.30	2183.13
212.52	2265.05
212.74	2273.25
212.96	2230.24
213.17	2269.15
213.39	2332.64
213.61	2363.36
213.83	2170.85
214.05	2207.71
214.27	2340.83
214.49	2160.61
214.71	2150.37
214.93	2265.05
215.15	2236.38
215.37	2289.63
215.59	2086.88
215.81	2279.39
216.03	2308.06
216.24	2265.05
216.46	2195.42
216.68	2174.94
216.90	2342.88
217.12	2338.78
217.34	2201.57
217.56	2209.76
217.78	2342.88
218.00	2283.49
218.22	2224.09
218.44	2273.25
218.66	2359.26
218.87	2400.22
219.09	2103.26
219.31	2220.00
219.53	2301.92
219.75	2136.03
219.97	2244.57
220.19	2201.57
220.41	2236.38
220.63	2432.99
220.85	2211.81
221.06	2127.84
221.28	2346.97
221.50	2449.37
221.72	2256.86
221.94	2152.42
222.16	2260.96
222.38	2361.31
222.60	2232.29
222.82	2179.04
223.03	2256.86
223.25	2185.18
223.47	2244.57
223.69	2404.32
223.91	2338.78
224.13	2260.96
224.35	2056.16
224.57	2260.96
224.78	2283.49
225.00	2127.84
225.22	2209.76
225.44	2168.80
225.66	2299.87
225.88	2289.63
226.10	2226.14
226.32	2303.96
226.53	2389.98
226.75	2273.25
226.97	2211.81
227.19	2203.61
227.41	2195.42
227.63	2236.38
227.85	2043.87
228.06	2166.75
228.28	2269.15
228.50	2361.31
228.72	2138.08
228.94	2172.89
229.16	2084.83
229.37	2203.61
229.59	2160.61
229.81	2291.68
230.03	2119.65
230.25	2119.65
230.47	2074.59
230.69	2129.89
230.90	2349.02
231.12	2140.13
231.34	2201.57
231.56	2256.86
231.78	2146.27
232.00	2260.96
232.21	2217.95
232.43	2138.08
232.65	2031.58
232.87	2334.68
233.09	2170.85
233.30	2119.65
233.52	2361.31
233.74	2240.48
233.96	2238.43
234.18	2252.77
234.40	2320.35
234.61	2504.67
234.83	2058.21
235.05	2095.07
235.27	2529.24
235.49	2475.99
235.70	2160.61
235.92	2301.92
236.14	2220.00
236.36	2537.43
236.58	2058.21
236.79	2195.42
237.01	2291.68
237.23	2187.23
237.45	2369.50
237.67	2129.89
237.88	2342.88
238.10	2430.94
238.32	2125.79
238.54	2117.60
238.76	2228.19
238.97	2154.46
239.19	2154.46
239.41	2228.19
239.63	2269.15
239.85	2156.51
240.06	2183.13
240.28	2138.08
240.50	2402.27
240.72	2310.11
240.93	2136.03
241.15	2209.76
241.37	2281.44
241.59	2451.42
241.81	2183.13
242.02	2203.61
242.24	2306.01
242.46	2340.83
242.68	2162.66
242.89	2170.85
243.11	2330.59
243.33	2236.38
243.55	2248.67
243.76	2217.95
243.98	2176.99
244.20	2289.63
244.42	2236.38
244.64	2252.77
244.85	2138.08
245.07	2099.17
245.29	2244.57
245.51	2230.24
245.72	2285.53
245.94	2318.30
246.16	2185.18
246.38	2242.53
246.59	2215.90
246.81	2133.98
247.03	2189.28
247.24	2023.39
247.46	2232.29
247.68	2267.10
247.90	2172.89
248.11	2172.89
248.33	2211.81
248.55	2230.24
248.77	2195.42
248.98	2220.00
249.20	2455.51
249.42	2293.72
249.64	2195.42
249.85	2166.75
250.07	2158.56
250.29	2293.72
250.50	2256.86
250.72	2056.16
250.94	2197.47
251.16	2496.47
251.37	2250.72
251.59	2265.05
251.81	2326.49
252.02	2402.27
252.24	2191.33
252.46	2269.15
252.68	2162.66
252.89	2236.38
253.11	2078.69
253.33	2314.20
253.54	2334.68
253.76	2115.55
253.98	2095.07
254.20	2213.85
254.41	2142.18
254.63	2158.56
254.85	2076.64
255.06	2234.33
255.28	2381.79
255.50	2215.90
255.71	2236.38
255.93	2121.70
256.15	2215.90
256.36	2314.20
256.58	2142.18
256.80	2166.75
257.02	2232.29
257.23	2201.57
257.45	2228.19
257.67	2228.19
257.88	2121.70
258.10	2308.06
258.32	2179.04
258.53	2201.57
258.75	2424.80
258.97	2240.48
259.18	2125.79
259.40	2213.85
259.62	2484.19
259.83	2310.11
260.05	2232.29
260.27	2691.03
260.48	2449.37
260.70	2209.76
260.92	2185.18
261.13	2138.08
261.35	2306.01
261.57	2316.25
261.78	2080.74
262.00	2088.93
262.22	2252.77
262.43	2150.37
262.65	2250.72
262.86	2215.90
263.08	2473.95
263.30	2236.38
263.51	2056.16
263.73	2113.50
263.95	2426.84
264.16	2199.52
264.38	2103.26
264.60	2160.61
264.81	2213.85
265.03	2316.25
265.25	2301.92
265.46	2162.66
265.68	2365.40
265.89	2369.50
266.11	2095.07
266.33	2238.43
266.54	2330.59
266.76	2379.74
266.98	2254.81
267.19	2291.68
267.41	2301.92
267.62	2291.68
267.84	2103.26
268.06	2220.00
268.27	2242.53
268.49	2336.73
268.70	2334.68
268.92	2154.46
269.14	2160.61
269.35	2115.55
269.57	2209.76
269.79	2263.01
270.00	2166.75
270.22	2387.93
270.43	2037.73
270.65	2015.20
270.87	2250.72
271.08	2340.83
271.30	2314.20
271.51	2189.28
271.73	2299.87
271.95	2342.88
272.16	2170.85
272.38	2226.14
272.59	2273.25
272.81	2252.77
273.02	2109.41
273.24	2211.81
273.46	2394.08
273.67	2176.99
273.89	2080.74
274.10	2150.37
274.32	2340.83
274.54	2328.54
274.75	2252.77
274.97	2168.80
275.18	2318.30
275.40	2256.86
275.61	2250.72
275.83	2215.90
276.05	2150.37
276.26	2265.05
276.48	2232.29
276.69	2211.81
276.91	2187.23
277.12	2412.51
277.34	2320.35
277.55	2265.05
277.77	2179.04
277.99	2172.89
278.20	2093.02
278.42	2138.08
278.63	2170.85
278.85	2203.61
279.06	2084.83
279.28	2301.92
279.49	2355.16
279.71	2275.29
279.93	2252.77
280.14	2215.90
280.36	2193.37
280.57	2383.84
280.79	2205.66
281.00	2205.66
281.22	2238.43
281.43	2400.22
281.65	2088.93
281.86	2189.28
282.08	2285.53
282.29	2404.32
282.51	2080.74
282.73	2111.46
282.94	2152.42
283.16	2353.12
283.37	2439.13
283.59	2228.19
283.80	2299.87
284.02	2248.67
284.23	2269.15
284.45	2217.95
284.66	2213.85
284.88	2176.99
285.09	2279.39
285.31	2240.48
285.52	2308.06
285.74	2097.12
285.95	2332.64
286.17	2256.86
286.38	2314.20
286.60	2244.57
286.81	2170.85
287.03	2297.82
287.24	2267.10
287.46	2303.96
287.67	2230.24
287.89	2469.85
288.10	2265.05
288.32	2349.02
288.53	2351.07
288.75	2263.01
288.96	2328.54
289.18	2217.95
289.39	2213.85
289.61	2295.77
289.82	2447.32
290.04	2482.14
290.25	2162.66
290.47	2244.57
290.68	2279.39
290.90	2375.64
291.11	2029.54
291.33	2316.25
291.54	2230.24
291.76	2093.02
291.97	2267.10
292.18	2260.96
292.40	2217.95
292.61	2148.32
292.83	2432.99
293.04	2271.20
293.26	2269.15
293.47	2238.43
293.69	2148.32
293.90	2242.53
294.12	2447.32
294.33	2277.34
294.55	2160.61
294.76	2316.25
294.97	2324.44
295.19	2445.27
295.40	2244.57
295.62	2234.33
295.83	2402.27
296.05	2117.60
296.26	2385.88
296.48	2187.23
296.69	2277.34
296.90	2285.53
297.12	2322.40
297.33	2349.02
297.55	2228.19
297.76	2301.92
297.98	2269.15
298.19	2203.61
298.41	2189.28
298.62	2138.08
298.83	2351.07
299.05	2193.37
299.26	2263.01
299.48	2103.26
299.69	2260.96
299.90	2265.05
300.12	2193.37
300.33	2318.30
300.55	2283.49
300.76	2252.77
300.98	2152.42
301.19	2420.70
301.40	2179.04
301.62	2244.57
301.83	2293.72
302.05	2240.48
302.26	2265.05
302.47	2242.53
302.69	2121.70
302.90	2285.53
303.12	1925.09
303.33	2285.53
303.54	2461.66
303.76	2181.09
303.97	2242.53
304.19	2439.13
304.40	2125.79
304.61	2355.16
304.83	2318.30
305.04	2314.20
305.26	2301.92
305.47	2299.87
305.68	2232.29
305.90	2082.78
306.11	2359.26
306.33	2283.49
306.54	2129.89
306.75	2154.46
306.97	2039.78
307.18	2138.08
307.39	2195.42
307.61	2287.58
307.82	2156.51
308.04	2254.81
308.25	2187.23
308.46	2281.44
308.68	2260.96
308.89	2240.48
309.10	2308.06
309.32	2273.25
309.53	2242.53
309.74	2306.01
309.96	2211.81
310.17	2379.74
310.39	2250.72
310.60	2338.78
310.81	2267.10
311.03	2224.09
311.24	2260.96
311.45	2279.39
311.67	2375.64
311.88	2291.68
312.09	2220.00
312.31	2293.72
312.52	2160.61
312.73	2193.37
312.95	2109.41
313.16	2176.99
313.37	2338.78
313.59	2310.11
313.80	2340.83
314.01	2379.74
314.23	2193.37
314.44	2207.71
314.65	2146.27
314.87	2166.75
315.08	2129.89
315.29	2285.53
315.51	2152.42
315.72	2125.79
315.93	2328.54
316.15	2226.14
316.36	2174.94
316.57	2183.13
316.79	2271.20
317.00	2113.50
317.21	2269.15
317.43	2176.99
317.64	2217.95
317.85	2119.65
318.07	2209.76
318.28	2332.64
318.49	2359.26
318.70	2457.56
318.92	2385.88
319.13	2387.93
319.34	2430.94
319.56	2279.39
319.77	2357.21
319.98	2387.93
320.20	2398.17
320.41	2295.77
320.62	2328.54
320.83	2123.74
321.05	2406.36
321.26	2293.72
321.47	2187.23
321.69	2400.22
321.90	2146.27
322.11	2232.29
322.32	2281.44
322.54	2342.88
322.75	2179.04
322.96	2498.52
323.18	2070.50
323.39	2103.26
323.60	2170.85
323.81	2299.87
324.03	2211.81
324.24	2201.57
324.45	2330.59
324.66	2215.90
324.88	2316.25
325.09	2428.89
325.30	2265.05
325.52	2299.87
325.73	2242.53
325.94	2193.37
326.15	2148.32
326.37	2088.93
326.58	2392.03
326.79	2394.08
327.00	2152.42
327.22	2220.00
327.43	2088.93
327.64	2154.46
327.85	2271.20
328.07	2234.33
328.28	2394.08
328.49	2166.75
328.70	2207.71
328.92	2252.77
329.13	2201.57
329.34	2252.77
329.55	2357.21
329.76	2301.92
329.98	2285.53
330.19	2426.84
330.40	2265.05
330.61	2174.94
330.83	2367.45
331.04	2148.32
331.25	2283.49
331.46	2273.25
331.68	2119.65
331.89	2369.50
332.10	2193.37
332.31	2101.22
332.52	2238.43
332.74	2410.46
332.95	2050.02
333.16	2158.56
333.37	2392.03
333.58	2179.04
333.80	2146.27
334.01	2138.08
334.22	2193.37
334.43	2199.52
334.64	2203.61
334.86	2047.97
335.07	2181.09
335.28	2424.80
335.49	2101.22
335.70	2269.15
335.92	2355.16
336.13	2453.47
336.34	2242.53
336.55	2213.85
336.76	2275.29
336.98	2060.26
337.19	2242.53
337.40	2289.63
337.61	2490.33
337.82	2228.19
338.04	2359.26
338.25	2105.31
338.46	2240.48
338.67	2195.42
338.88	2154.46
339.09	2138.08
339.31	2168.80
339.52	2199.52
339.73	2119.65
339.94	2207.71
340.15	2346.97
340.36	2170.85
340.58	2240.48
340.79	2133.98
341.00	2349.02
341.21	2113.50
341.42	2318.30
341.63	2252.77
341.85	2316.25
342.06	2283.49
342.27	2127.84
342.48	2336.73
342.69	2193.37
342.90	2183.13
343.12	2367.45
343.33	2150.37
343.54	2330.59
343.75	2392.03
343.96	2318.30
344.17	2138.08
344.38	2260.96
344.60	2125.79
344.81	2185.18
345.02	2176.99
345.23	2389.98
345.44	2502.62
345.65	2277.34
345.86	2176.99
346.07	2281.44
346.29	2201.57
346.50	2306.01
346.71	2285.53
346.92	2406.36
347.13	2432.99
347.34	2228.19
347.55	2220.00
347.76	2308.06
347.98	2080.74
348.19	2250.72
348.40	2451.42
348.61	2252.77
348.82	2453.47
349.03	2267.10
349.24	2205.66
349.45	2492.38
349.66	2033.63
349.88	2187.23
350.09	2144.22
350.30	2394.08
350.51	2371.55
350.72	2250.72
350.93	2240.48
351.14	2146.27
351.35	2279.39
351.56	2228.19
351.77	2228.19
351.99	2310.11
352.20	2449.37
352.41	2383.84
352.62	2144.22
352.83	2176.99
353.04	2199.52
353.25	2187.23
353.46	2277.34
353.67	2424.80
353.88	2099.17
354.09	2277.34
354.30	2252.77
354.52	2351.07
354.73	2291.68
354.94	2179.04
355.15	2244.57
355.36	2482.14
355.57	2154.46
355.78	2234.33
355.99	2154.46
356.20	2260.96
356.41	2463.71
356.62	2293.72
356.83	2246.62
357.04	2449.37
357.25	2105.31
357.46	2197.47
357.68	2127.84
357.89	2158.56
358.10	2297.82
358.31	2252.77
358.52	2179.04
358.73	2093.02
358.94	2174.94
359.15	2191.33
359.36	2244.57
359.57	2244.57
359.78	2240.48
359.99	2277.34
360.20	2176.99
360.41	2260.96
360.62	2340.83
360.83	2293.72
361.04	2238.43
361.25	2293.72
361.46	2416.60
361.67	2289.63
361.88	2265.05
362.09	2346.97
362.30	2275.29
362.51	2156.51
362.72	2336.73
362.93	2322.40
363.14	2349.02
363.35	2258.91
363.56	2197.47
363.78	2322.40
363.99	2314.20
364.20	2248.67
364.41	2258.91
364.62	2527.19
364.83	2277.34
365.04	2195.42
365.25	2240.48
365.46	2418.65
365.67	2248.67
365.88	2283.49
366.09	2228.19
366.30	2176.99
366.51	2195.42
366.72	2154.46
366.93	2203.61
367.14	2224.09
367.35	2392.03
367.56	2201.57
367.77	2338.78
367.98	2240.48
368.18	2338.78
368.39	2342.88
368.60	2133.98
368.81	2314.20
369.02	2365.40
369.23	2183.13
369.44	2138.08
369.65	2273.25
369.86	2281.44
370.07	2301.92
370.28	2172.89
370.49	2267.10
370.70	2285.53
370.91	2129.89
371.12	2088.93
371.33	2344.92
371.54	2203.61
371.75	2375.64
371.96	1984.48
372.17	2326.49
372.38	2269.15
372.59	2316.25
372.80	2246.62
373.01	2240.48
373.22	2269.15
373.43	2234.33
373.64	2095.07
373.85	2357.21
374.06	2414.56
374.26	2297.82
374.47	2271.20
374.68	2359.26
374.89	2207.71
375.10	2179.04
375.31	2383.84
375.52	2193.37
375.73	2224.09
375.94	2148.32
376.15	2373.60
376.36	2146.27
376.57	2162.66
376.78	2203.61
376.99	2269.15
377.20	2363.36
377.40	2277.34
377.61	2396.12
377.82	2140.13
378.03	2416.60
378.24	2293.72
378.45	2228.19
378.66	2269.15
378.87	2058.21
379.08	2052.06
379.29	2193.37
379.50	2351.07
379.71	2234.33
379.91	2312.16
380.12	2293.72
380.33	2283.49
380.54	2226.14
380.75	2207.71
380.96	2230.24
381.17	2328.54
381.38	2183.13
381.59	2271.20
381.80	2291.68
382.00	2402.27
382.21	2234.33
382.42	2480.09
382.63	2441.18
382.84	2326.49
383.05	2359.26
383.26	2428.89
383.47	2258.91
383.68	2222.05
383.88	2310.11
384.09	2244.57
384.30	2379.74
384.51	2283.49
384.72	2236.38
384.93	2146.27
385.14	2156.51
385.35	2310.11
385.55	2111.46
385.76	2373.60
385.97	2179.04
386.18	2103.26
386.39	2113.50
386.60	2291.68
386.81	2213.85
387.02	2117.60
387.22	2037.73
387.43	2363.36
387.64	2326.49
387.85	2346.97
388.06	2480.09
388.27	3985.35
388.48	8275.84
388.68	11845.45
388.89	13817.65
389.10	15075.10
389.31	13791.02
389.52	11081.56
389.73	9500.53
389.93	8613.76
390.14	7880.58
390.35	7040.92
390.56	6528.92
390.77	5220.27
390.98	3985.35
391.18	3252.17
391.39	2760.66
391.60	2404.32
391.81	2451.42
392.02	2277.34
392.23	2469.85
392.43	2267.10
392.64	2334.68
392.85	2277.34
393.06	2461.66
393.27	2394.08
393.47	2176.99
393.68	2168.80
393.89	2187.23
394.10	2338.78
394.31	2185.18
394.52	2146.27
394.72	2207.71
394.93	2379.74
395.14	2125.79
395.35	2314.20
395.56	2230.24
395.76	2226.14
395.97	2332.64
396.18	2398.17
396.39	2312.16
396.60	2643.93
396.80	2555.86
397.01	2441.18
397.22	2445.27
397.43	2414.56
397.64	2291.68
397.84	2295.77
398.05	2506.71
398.26	2260.96
398.47	2297.82
398.67	2269.15
398.88	2215.90
399.09	2289.63
399.30	2197.47
399.51	2238.43
399.71	2226.14
399.92	2291.68
400.13	2322.40
400.34	2207.71
400.54	2254.81
400.75	2465.75
400.96	2320.35
401.17	2422.75
401.37	2271.20
401.58	2277.34
401.79	2166.75
402.00	2349.02
402.21	2613.21
402.41	2510.81
402.62	2557.91
402.83	2615.26
403.04	2617.30
403.24	2832.34
403.45	2392.03
403.66	2469.85
403.87	2482.14
404.07	2514.91
404.28	2533.34
404.49	2398.17
404.70	2355.16
404.90	2418.65
405.11	2252.77
405.32	2308.06
405.52	2220.00
405.73	2197.47
405.94	2189.28
406.15	2166.75
406.35	2281.44
406.56	2379.74
406.77	2320.35
406.98	2258.91
407.18	2183.13
407.39	2396.12
407.60	2246.62
407.80	2353.12
408.01	2283.49
408.22	2275.29
408.43	2158.56
408.63	2252.77
408.84	2389.98
409.05	2449.37
409.25	2187.23
409.46	2217.95
409.67	2203.61
409.88	2193.37
410.08	2357.21
410.29	2252.77
410.50	2361.31
410.70	2220.00
410.91	2170.85
411.12	2201.57
411.32	2252.77
411.53	2158.56
411.74	2330.59
411.95	2328.54
412.15	2285.53
412.36	2404.32
412.57	2381.79
412.77	2377.69
412.98	2273.25
413.19	2226.14
413.39	2287.58
413.60	2252.77
413.81	2428.89
414.01	2211.81
414.22	2297.82
414.43	2344.92
414.63	2240.48
414.84	2308.06
415.05	2209.76
415.25	2123.74
415.46	2320.35
415.67	2228.19
415.87	2330.59
416.08	2217.95
416.29	2234.33
416.49	2285.53
416.70	2113.50
416.91	2224.09
417.11	2250.72
417.32	2377.69
417.53	2244.57
417.73	2310.11
417.94	2303.96
418.15	2297.82
418.35	2271.20
418.56	2209.76
418.77	2508.76
418.97	2240.48
419.18	2203.61
419.38	2054.11
419.59	2228.19
419.80	2392.03
420.00	2222.05
420.21	2168.80
420.42	2318.30
420.62	2306.01
420.83	2211.81
421.04	2226.14
421.24	2244.57
421.45	2375.64
421.65	2269.15
421.86	2209.76
422.07	2299.87
422.27	2265.05
422.48	2260.96
422.69	2158.56
422.89	2265.05
423.10	2299.87
423.30	2203.61
423.51	2260.96
423.72	2324.44
423.92	2267.10
424.13	2138.08
424.33	2281.44
424.54	2326.49
424.75	2267.10
424.95	2351.07
425.16	2242.53
425.36	2291.68
425.57	2342.88
425.78	2301.92
425.98	2240.48
426.19	2244.57
426.39	2109.41
426.60	2314.20
426.81	2353.12
427.01	2275.29
427.22	2203.61
427.42	2117.60
427.63	2164.70
427.83	2351.07
428.04	2443.23
428.25	2406.36
428.45	2328.54
428.66	2371.55
428.86	2314.20
429.07	2232.29
429.28	2244.57
429.48	2246.62
429.69	2185.18
429.89	2269.15
430.10	2105.31
430.30	2342.88
430.51	2346.97
430.71	2133.98
430.92	2232.29
431.13	2269.15
431.33	2318.30
431.54	2306.01
431.74	2465.75
431.95	2506.71
432.15	2138.08
432.36	2279.39
432.56	2322.40
432.77	2496.47
432.98	2453.47
433.18	2230.24
433.39	2187.23
433.59	2205.66
433.80	2377.69
434.00	2424.80
434.21	2203.61
434.41	2234.33
434.62	2461.66
434.82	2105.31
435.03	2209.76
435.23	2301.92
435.44	2064.35
435.64	2236.38
435.85	2299.87
436.06	2338.78
436.26	2400.22
436.47	2203.61
436.67	2267.10
436.88	2277.34
437.08	2412.51
437.29	2398.17
437.49	2205.66
437.70	2506.71
437.90	2252.77
438.11	2453.47
438.31	2334.68
438.52	2437.08
438.72	2449.37
438.93	2428.89
439.13	2297.82
439.34	2428.89
439.54	2293.72
439.75	2359.26
439.95	2437.08
440.16	2277.34
440.36	2248.67
440.57	2338.78
440.77	2228.19
440.98	2293.72
441.18	2369.50
441.39	2258.91
441.59	2162.66
441.80	2514.91
442.00	2267.10
442.21	2340.83
442.41	2113.50
442.62	2342.88
442.82	2285.53
443.02	2295.77
443.23	2301.92
443.43	2287.58
443.64	2451.42
443.84	2150.37
444.05	2310.11
444.25	2236.38
444.46	2303.96
444.66	2250.72
444.87	2398.17
445.07	2105.31
445.28	2252.77
445.48	2332.64
445.69	2441.18
445.89	2510.81
446.09	2275.29
446.30	2471.90
446.50	2830.29
446.71	4345.79
446.91	5660.59
447.12	6248.35
447.32	6811.54
447.53	6309.79
447.73	5236.66
447.93	4521.92
448.14	4190.14
448.34	4112.32
448.55	3465.16
448.75	3653.58
448.96	3436.49
449.16	3057.62
449.36	2977.75
449.57	2547.67
449.77	2377.69
449.98	2254.81
450.18	2306.01
450.39	2326.49
450.59	2367.45
450.79	2226.14
451.00	2220.00
451.20	2355.16
451.41	2213.85
451.61	2353.12
451.81	2275.29
452.02	2191.33
452.22	2172.89
452.43	2220.00
452.63	2207.71
452.84	2224.09
453.04	2164.70
453.24	2273.25
453.45	2185.18
453.65	2226.14
453.86	2322.40
454.06	2277.34
454.26	2228.19
454.47	2168.80
454.67	2383.84
454.87	2344.92
455.08	2277.34
455.28	2406.36
455.49	2297.82
455.69	2183.13
455.89	2482.14
456.10	2355.16
456.30	2230.24
456.51	2308.06
456.71	2314.20
456.91	2283.49
457.12	2279.39
457.32	2287.58
457.52	2136.03
457.73	2314.20
457.93	2336.73
458.14	2199.52
458.34	2107.36
458.54	2256.86
458.75	2222.05
458.95	2349.02
459.15	2344.92
459.36	2299.87
459.56	2215.90
459.76	2549.72
459.97	2293.72
460.17	2265.05
460.37	2301.92
460.58	2279.39
460.78	2310.11
460.99	2160.61
461.19	2209.76
461.39	2168.80
461.60	2189.28
461.80	2256.86
462.00	2152.42
462.21	2299.87
462.41	2256.86
462.61	2150.37
462.82	2037.73
463.02	2381.79
463.22	2187.23
463.43	2316.25
463.63	2238.43
463.83	2381.79
464.04	2281.44
464.24	2193.37
464.44	2156.51
464.64	2248.67
464.85	2332.64
465.05	2324.44
465.25	2295.77
465.46	2260.96
465.66	2328.54
465.86	2256.86
466.07	2256.86
466.27	2207.71
466.47	2136.03
466.68	2129.89
466.88	2428.89
467.08	2299.87
467.29	2437.08
467.49	2312.16
467.69	2252.77
467.89	2338.78
468.10	2220.00
468.30	2269.15
468.50	2334.68
468.71	2357.21
468.91	2176.99
469.11	2459.61
469.31	2318.30
469.52	2142.18
469.72	2455.51
469.92	2488.28
470.13	2207.71
470.33	2324.44
470.53	2310.11
470.73	2703.32
470.94	3004.37
471.14	3168.21
471.34	3588.04
471.54	3334.09
471.75	3018.71
471.95	2867.16
472.15	2840.53
472.36	2828.24
472.56	2727.89
472.76	2813.91
472.96	2709.46
473.17	2494.43
473.37	2457.56
473.57	2351.07
473.77	2301.92
473.98	2252.77
474.18	2211.81
474.38	2504.67
474.58	2258.91
474.79	2228.19
474.99	2277.34
475.19	2349.02
475.39	2183.13
475.60	2355.16
475.80	2211.81
476.00	2228.19
476.20	2226.14
476.41	2328.54
476.61	2420.70
476.81	2344.92
477.01	2211.81
477.21	2441.18
477.42	2414.56
477.62	2281.44
477.82	2314.20
478.02	2215.90
478.23	2328.54
478.43	2090.98
478.63	2232.29
478.83	2183.13
479.03	2191.33
479.24	2365.40
479.44	2428.89
479.64	2211.81
479.84	2129.89
480.04	2217.95
480.25	2381.79
480.45	2168.80
480.65	2306.01
480.85	2455.51
481.06	2258.91
481.26	2316.25
481.46	2312.16
481.66	2250.72
481.86	2244.57
482.06	2318.30
482.27	2250.72
482.47	2211.81
482.67	2271.20
482.87	2211.81
483.07	2408.41
483.28	2260.96
483.48	2086.88
483.68	2242.53
483.88	2158.56
484.08	2074.59
484.29	2172.89
484.49	2267.10
484.69	2205.66
484.89	2457.56
485.09	2404.32
485.29	2351.07
485.50	2252.77
485.70	2217.95
485.90	2406.36
486.10	2242.53
486.30	2267.10
486.50	2400.22
486.71	2273.25
486.91	2332.64
487.11	2406.36
487.31	2156.51
487.51	2301.92
487.71	2086.88
487.91	2129.89
488.12	2207.71
488.32	2088.93
488.52	2158.56
488.72	2117.60
488.92	2359.26
489.12	2387.93
489.32	2369.50
489.53	2287.58
489.73	2068.45
489.93	2369.50
490.13	2217.95
490.33	2168.80
490.53	2285.53
490.73	2338.78
490.94	2095.07
491.14	2346.97
491.34	2461.66
491.54	2475.99
491.74	3141.58
491.94	3616.71
492.14	3950.53
492.34	4138.94
492.54	3798.98
492.75	3241.93
492.95	3205.07
493.15	3012.56
493.35	2959.31
493.55	2889.68
493.75	2695.13
493.95	2781.14
494.15	2473.95
494.35	2441.18
494.56	2295.77
494.76	2332.64
494.96	2293.72
495.16	2283.49
495.36	2306.01
495.56	2254.81
495.76	2265.05
495.96	2201.57
496.16	2203.61
496.36	2447.32
496.56	2242.53
496.77	2324.44
496.97	2209.76
497.17	2449.37
497.37	2129.89
497.57	2301.92
497.77	2267.10
497.97	2121.70
498.17	2234.33
498.37	2197.47
498.57	2234.33
498.77	2228.19
498.97	2379.74
499.17	2400.22
499.38	2275.29
499.58	2336.73
499.78	2428.89
499.98	2406.36
500.18	2281.44
500.38	2191.33
500.58	2500.57
500.78	2914.26
500.98	5107.63
501.18	7083.92
501.38	8685.44
501.58	9762.67
501.78	9600.88
501.98	7634.83
502.18	6305.70
502.38	5527.47
502.58	5048.24
502.78	4579.26
502.98	4454.33
503.18	4403.13
503.38	3917.76
503.59	3332.05
503.79	3203.02
503.99	3014.61
504.19	2842.58
504.39	2850.77
504.59	2875.35
504.79	2824.15
504.99	2809.81
505.19	2486.23
505.39	2428.89
505.59	2600.92
505.79	2547.67
505.99	2402.27
506.19	2346.97
506.39	2475.99
506.59	2260.96
506.79	2263.01
506.99	2398.17
507.19	2230.24
507.39	2338.78
507.59	2144.22
507.79	2209.76
507.99	2207.71
508.19	2279.39
508.39	2256.86
508.59	2254.81
508.79	2349.02
508.99	2484.19
509.19	2185.18
509.39	2346.97
509.59	2195.42
509.79	2140.13
509.99	2269.15
510.19	2332.64
510.39	2336.73
510.59	2220.00
510.79	2215.90
510.99	2152.42
511.19	2320.35
511.39	2430.94
511.59	2342.88
511.79	2324.44
511.99	2203.61
512.19	2469.85
512.38	2240.48
512.58	2199.52
512.78	2228.19
512.98	2349.02
513.18	2365.40
513.38	2076.64
513.58	2269.15
513.78	2256.86
513.98	2236.38
514.18	2220.00
514.38	2324.44
514.58	2310.11
514.78	2205.66
514.98	2121.70
515.18	2277.34
515.38	2136.03
515.58	2398.17
515.78	2260.96
515.98	2213.85
516.18	2297.82
516.38	2209.76
516.57	2277.34
516.77	2224.09
516.97	2215.90
517.17	2203.61
517.37	2086.88
517.57	2330.59
517.77	2170.85
517.97	2127.84
518.17	2334.68
518.37	2228.19
518.57	2244.57
518.77	2189.28
518.97	2289.63
519.16	2369.50
519.36	2410.46
519.56	2215.90
519.76	2203.61
519.96	2209.76
520.16	2428.89
520.36	2183.13
520.56	2361.31
520.76	2285.53
520.96	2170.85
521.16	2408.41
521.35	2406.36
521.55	2394.08
521.75	2256.86
521.95	2256.86
522.15	2224.09
522.35	2068.45
522.55	2258.91
522.75	2312.16
522.95	2211.81
523.14	2166.75
523.34	2283.49
523.54	2211.81
523.74	2326.49
523.94	2287.58
524.14	2195.42
524.34	2295.77
524.54	2377.69
524.73	2281.44
524.93	2346.97
525.13	2244.57
525.33	2154.46
525.53	2389.98
525.73	2410.46
525.93	2287.58
526.13	2199.52
526.32	2314.20
526.52	2447.32
526.72	2371.55
526.92	2277.34
527.12	2256.86
527.32	2076.64
527.52	2301.92
527.71	2275.29
527.91	2256.86
528.11	2258.91
528.31	2303.96
528.51	2209.76
528.71	2373.60
528.90	2357.21
529.10	2457.56
529.30	2359.26
529.50	2021.35
529.70	2301.92
529.90	2234.33
530.09	2277.34
530.29	2142.18
530.49	2172.89
530.69	2482.14
530.89	2316.25
531.09	2312.16
531.28	2265.05
531.48	2437.08
531.68	2275.29
531.88	2283.49
532.08	2299.87
532.28	2301.92
532.47	2424.80
532.67	2408.41
532.87	2365.40
533.07	2222.05
533.27	2299.87
533.46	2342.88
533.66	2211.81
533.86	2310.11
534.06	2258.91
534.26	2281.44
534.45	2183.13
534.65	2367.45
534.85	2336.73
535.05	2185.18
535.25	2447.32
535.44	2084.83
535.64	2334.68
535.84	2179.04
536.04	2220.00
536.24	2283.49
536.43	2187.23
536.63	2295.77
536.83	2293.72
537.03	2187.23
537.22	2101.22
537.42	2123.74
537.62	2338.78
537.82	2183.13
538.02	2447.32
538.21	2385.88
538.41	2537.43
538.61	2330.59
538.81	2213.85
539.00	2349.02
539.20	2144.22
539.40	2336.73
539.60	2287.58
539.79	2324.44
539.99	2334.68
540.19	2252.77
540.39	2275.29
540.58	2299.87
540.78	2351.07
540.98	2256.86
541.18	2381.79
541.37	2334.68
541.57	2293.72
541.77	2324.44
541.97	2148.32
542.16	2125.79
542.36	2220.00
542.56	2160.61
542.76	2400.22
542.95	2344.92
543.15	2351.07
543.35	2363.36
543.54	2209.76
543.74	2215.90
543.94	2357.21
544.14	2191.33
544.33	2277.34
544.53	2217.95
544.73	2226.14
544.93	2181.09
545.12	2228.19
545.32	2283.49
545.52	2228.19
545.71	2213.85
545.91	2279.39
546.11	2195.42
546.30	2244.57
546.50	2277.34
546.70	2277.34
546.90	2359.26
547.09	2047.97
547.29	2254.81
547.49	2291.68
547.68	2308.06
547.88	2260.96
548.08	2359.26
548.27	2764.76
548.47	2191.33
548.67	2265.05
548.87	2330.59
549.06	2199.52
549.26	2211.81
549.46	2256.86
549.65	2133.98
549.85	2185.18
550.05	2289.63
550.24	2144.22
550.44	2179.04
550.64	2269.15
550.83	2166.75
551.03	2357.21
551.23	2355.16
551.42	2260.96
551.62	2197.47
551.82	2269.15
552.01	2308.06
552.21	2387.93
552.41	2271.20
552.60	2414.56
552.80	2273.25
553.00	2162.66
553.19	2244.57
553.39	2457.56
553.59	2133.98
553.78	2314.20
553.98	2275.29
554.17	2107.36
554.37	2338.78
554.57	2310.11
554.76	2138.08
554.96	2293.72
555.16	2213.85
555.35	2281.44
555.55	2318.30
555.75	2318.30
555.94	2336.73
556.14	2101.22
556.33	2260.96
556.53	2293.72
556.73	2324.44
556.92	2361.31
557.12	2355.16
557.32	2506.71
557.51	2291.68
557.71	2283.49
557.90	2326.49
558.10	2424.80
558.30	2201.57
558.49	2256.86
558.69	2269.15
558.88	2349.02
559.08	2283.49
559.28	2193.37
559.47	2299.87
559.67	2330.59
559.86	2508.76
560.06	2285.53
560.26	2297.82
560.45	2340.83
560.65	2334.68
560.84	2420.70
561.04	2176.99
561.24	2373.60
561.43	2197.47
561.63	2383.84
561.82	2383.84
562.02	2297.82
562.22	2207.71
562.41	2250.72
562.61	2254.81
562.80	2193.37
563.00	2523.10
563.19	2232.29
563.39	2320.35
563.59	2340.83
563.78	2138.08
563.98	2023.39
564.17	2176.99
564.37	2060.26
564.56	2236.38
564.76	2138.08
564.96	2381.79
565.15	2314.20
565.35	2490.33
565.54	2207.71
565.74	2297.82
565.93	2260.96
566.13	2248.67
566.32	2250.72
566.52	2318.30
566.71	2217.95
566.91	2349.02
567.11	2277.34
567.30	2162.66
567.50	2318.30
567.69	2318.30
567.89	2234.33
568.08	2133.98
568.28	2306.01
568.47	2203.61
568.67	2211.81
568.86	2238.43
569.06	2471.90
569.25	2260.96
569.45	2199.52
569.64	2217.95
569.84	2211.81
570.04	2232.29
570.23	2308.06
570.43	2275.29
570.62	2236.38
570.82	2492.38
571.01	2156.51
571.21	2211.81
571.40	2222.05
571.60	2355.16
571.79	2269.15
571.99	2176.99
572.18	2244.57
572.38	2316.25
572.57	2193.37
572.77	2297.82
572.96	2523.10
573.16	2306.01
573.35	2211.81
573.55	2381.79
573.74	2260.96
573.94	2260.96
574.13	2215.90
574.33	2351.07
574.52	2369.50
574.71	2293.72
574.91	2293.72
575.10	2207.71
575.30	2252.77
575.49	2205.66
575.69	2211.81
575.88	2392.03
576.08	2328.54
576.27	2394.08
576.47	2308.06
576.66	2521.05
576.86	2508.76
577.05	2322.40
577.25	2383.84
577.44	2424.80
577.64	2267.10
577.83	2359.26
578.02	2256.86
578.22	2437.08
578.41	2512.86
578.61	2220.00
578.80	2144.22
579.00	2334.68
579.19	2338.78
579.39	2314.20
579.58	2365.40
579.77	2281.44
579.97	2420.70
580.16	2428.89
580.36	2396.12
580.55	2349.02
580.75	2375.64
580.94	2318.30
581.13	2285.53
581.33	2488.28
581.52	2277.34
581.72	2482.14
581.91	2435.03
582.11	2314.20
582.30	2387.93
582.49	2308.06
582.69	2502.62
582.88	2342.88
583.08	2269.15
583.27	2447.32
583.47	2334.68
583.66	2195.42
583.85	2168.80
584.05	2279.39
584.24	2334.68
584.44	2340.83
584.63	2480.09
584.82	2471.90
585.02	2494.43
585.21	2490.33
585.41	2441.18
585.60	2432.99
585.79	2545.63
585.99	2525.15
586.18	2432.99
586.37	2959.31
586.57	4634.55
586.76	13676.34
586.96	33383.94
587.15	47054.13
587.34	55721.13
587.54	60976.22
587.73	56243.37
587.93	39386.54
588.12	29992.50
588.31	23881.36
588.51	20997.82
588.70	19263.19
588.89	17536.76
589.09	15079.19
589.28	12951.35
589.47	10483.55
589.67	8175.49
589.86	6338.46
590.06	4593.59
590.25	3811.27
590.44	3160.02
590.64	2768.85
590.83	2605.02
591.02	2557.91
591.22	2363.36
591.41	2392.03
591.60	2424.80
591.80	2529.24
591.99	2240.48
592.18	2289.63
592.38	2385.88
592.57	2256.86
592.76	2330.59
592.96	2324.44
593.15	2318.30
593.34	2400.22
593.54	2289.63
593.73	2338.78
593.92	2373.60
594.12	2389.98
594.31	2342.88
594.50	2435.03
594.70	2285.53
594.89	2506.71
595.08	2211.81
595.28	2299.87
595.47	2664.41
595.66	2330.59
595.86	2240.48
596.05	2293.72
596.24	2170.85
596.43	2379.74
596.63	2367.45
596.82	2334.68
597.01	2310.11
597.21	2471.90
597.40	2232.29
597.59	2263.01
597.79	2277.34
597.98	2402.27
598.17	2392.03
598.36	2365.40
598.56	2342.88
598.75	2187.23
598.94	2346.97
599.14	2260.96
599.33	2285.53
599.52	2445.27
599.71	2306.01
599.91	2332.64
600.10	2408.41
600.29	2271.20
600.48	2400.22
600.68	2414.56
600.87	2322.40
601.06	2260.96
601.26	2318.30
601.45	2285.53
601.64	2234.33
601.83	2373.60
602.03	2207.71
602.22	2129.89
602.41	2414.56
602.60	2541.53
602.80	2332.64
602.99	2355.16
603.18	2228.19
603.37	2267.10
603.57	2285.53
603.76	2365.40
603.95	2420.70
604.14	2224.09
604.34	2222.05
604.53	2209.76
604.72	2353.12
604.91	2293.72
605.10	2269.15
605.30	2215.90
605.49	2549.72
605.68	2367.45
605.87	2373.60
606.07	2158.56
606.26	2279.39
606.45	2297.82
606.64	2244.57
606.84	2246.62
607.03	2293.72
607.22	2396.12
607.41	2295.77
607.60	2193.37
607.80	2418.65
607.99	2303.96
608.18	2277.34
608.37	2340.83
608.56	2250.72
608.76	2389.98
608.95	2541.53
609.14	2326.49
609.33	2439.13
609.52	2418.65
609.72	2334.68
609.91	2455.51
610.10	2420.70
610.29	2455.51
610.48	2377.69
610.68	2316.25
610.87	2265.05
611.06	2392.03
611.25	2285.53
611.44	2377.69
611.63	2195.42
611.83	2389.98
612.02	2146.27
612.21	2367.45
612.40	2054.11
612.59	2154.46
612.79	2123.74
612.98	2209.76
613.17	2359.26
613.36	2242.53
613.55	2502.62
613.74	2277.34
613.93	2385.88
614.13	2445.27
614.32	2521.05
614.51	2385.88
614.70	2367.45
614.89	2332.64
615.08	2375.64
615.28	2748.37
615.47	2228.19
615.66	2346.97
615.85	2293.72
616.04	2334.68
616.23	2328.54
616.42	2379.74
616.62	2271.20
616.81	2293.72
617.00	2314.20
617.19	2224.09
617.38	2291.68
617.57	2320.35
617.76	2359.26
617.95	2330.59
618.15	2285.53
618.34	2416.60
618.53	2179.04
618.72	2412.51
618.91	2367.45
619.10	2359.26
619.29	2269.15
619.48	2287.58
619.68	2207.71
619.87	2326.49
620.06	2203.61
620.25	2320.35
620.44	2236.38
620.63	2275.29
620.82	2324.44
621.01	2258.91
621.20	2277.34
621.39	2252.77
621.59	2303.96
621.78	2365.40
621.97	2203.61
622.16	2301.92
622.35	2252.77
622.54	2306.01
622.73	2324.44
622.92	2162.66
623.11	2326.49
623.30	2295.77
623.49	2361.31
623.68	2256.86
623.88	2453.47
624.07	2269.15
624.26	2213.85
624.45	2242.53
624.64	2232.29
624.83	2267.10
625.02	2281.44
625.21	2283.49
625.40	2295.77
625.59	2408.41
625.78	2326.49
625.97	2387.93
626.16	2465.75
626.35	2383.84
626.54	2396.12
626.74	2387.93
626.93	2285.53
627.12	2187.23
627.31	2416.60
627.50	2346.97
627.69	2334.68
627.88	2217.95
628.07	2279.39
628.26	2103.26
628.45	2203.61
628.64	2158.56
628.83	2213.85
629.02	2211.81
629.21	2258.91
629.40	2373.60
629.59	2285.53
629.78	2236.38
629.97	2254.81
630.16	2312.16
630.35	2248.67
630.54	2260.96
630.73	2187.23
630.92	2306.01
631.11	2187.23
631.30	2250.72
631.49	2349.02
631.68	2295.77
631.87	2277.34
632.06	2168.80
632.25	2547.67
632.44	2267.10
632.63	2283.49
632.82	2215.90
633.01	2353.12
633.20	2394.08
633.39	2316.25
633.58	2170.85
633.77	2332.64
633.96	2473.95
634.15	2293.72
634.34	2371.55
634.53	2330.59
634.72	2291.68
634.91	2107.36
635.10	2277.34
635.29	2400.22
635.48	2285.53
635.67	2179.04
635.86	2127.84
636.05	2389.98
636.24	2291.68
636.43	2258.91
636.62	2275.29
636.81	2043.87
637.00	2217.95
637.19	2287.58
637.38	2189.28
637.57	2244.57
637.76	2363.36
637.95	2387.93
638.14	2318.30
638.33	2349.02
638.52	2381.79
638.71	2220.00
638.89	2336.73
639.08	2539.48
639.27	2435.03
639.46	2516.95
639.65	2826.20
639.84	2965.46
640.03	2934.74
640.22	2781.14
640.41	2883.54
640.60	2523.10
640.79	2498.52
640.98	2392.03
641.17	2576.34
641.36	2406.36
641.55	2375.64
641.74	2252.77
641.92	2226.14
642.11	2273.25
642.30	2283.49
642.49	2211.81
642.68	2230.24
642.87	2314.20
643.06	2349.02
643.25	2193.37
643.44	2187.23
643.63	2258.91
643.82	2277.34
644.00	2172.89
644.19	2263.01
644.38	2195.42
644.57	2351.07
644.76	2236.38
644.95	2195.42
645.14	2316.25
645.33	2211.81
645.52	2256.86
645.71	2150.37
645.89	2207.71
646.08	2281.44
646.27	2234.33
646.46	2439.13
646.65	2140.13
646.84	2244.57
647.03	2154.46
647.22	2242.53
647.40	2230.24
647.59	2267.10
647.78	2117.60
647.97	2140.13
648.16	2148.32
648.35	2428.89
648.54	2408.41
648.73	2138.08
648.91	2258.91
649.10	2279.39
649.29	2269.15
649.48	2201.57
649.67	2306.01
649.86	2326.49
650.05	2285.53
650.23	2488.28
650.42	2367.45
650.61	2453.47
650.80	2398.17
650.99	2523.10
651.18	2416.60
651.36	2416.60
651.55	2181.09
651.74	2351.07
651.93	2232.29
652.12	2269.15
652.31	2291.68
652.49	2252.77
652.68	2299.87
652.87	2387.93
653.06	2318.30
653.25	2498.52
653.44	2258.91
653.62	2437.08
653.81	2273.25
654.00	2265.05
654.19	2396.12
654.38	2633.69
654.56	2349.02
654.75	2172.89
654.94	2324.44
655.13	2289.63
655.32	2203.61
655.51	2381.79
655.69	2170.85
655.88	2291.68
656.07	2199.52
656.26	2324.44
656.45	2168.80
656.63	2195.42
656.82	2277.34
657.01	2330.59
657.20	2168.80
657.38	2416.60
657.57	2250.72
657.76	2189.28
657.95	2342.88
658.14	2277.34
658.32	2287.58
658.51	2115.55
658.70	2299.87
658.89	2258.91
659.08	2250.72
659.26	2430.94
659.45	2185.18
659.64	2367.45
659.83	2211.81
660.01	2629.59
660.20	2248.67
660.39	2441.18
660.58	2117.60
660.76	2289.63
660.95	2123.74
661.14	2256.86
661.33	2146.27
661.51	2187.23
661.70	2224.09
661.89	2271.20
662.08	2320.35
662.26	2072.54
662.45	2185.18
662.64	2473.95
662.83	2236.38
663.01	2121.70
663.20	2187.23
663.39	2447.32
663.58	2168.80
663.76	2252.77
663.95	2328.54
664.14	2113.50
664.32	2234.33
664.51	2113.50
664.70	2136.03
664.89	2275.29
665.07	2146.27
665.26	2371.55
665.45	2172.89
665.64	2279.39
665.82	2199.52
666.01	2291.68
666.20	2138.08
666.38	2326.49
666.57	2445.27
666.76	3342.28
666.95	8261.51
667.13	16195.34
667.32	21149.37
667.51	24663.69
667.69	26709.61
667.88	24356.49
668.07	17389.30
668.25	13946.67
668.44	11568.98
668.63	9938.79
668.81	8912.76
669.00	7720.84
669.19	6786.97
669.38	5914.53
669.56	5207.98
669.75	4186.05
669.94	3563.47
670.12	3092.43
670.31	2768.85
670.50	2580.44
670.68	2537.43
670.87	2412.51
671.06	2273.25
671.24	2367.45
671.43	2519.00
671.62	2363.36
671.80	2318.30
671.99	2293.72
672.18	2357.21
672.36	2326.49
672.55	2349.02
672.74	2236.38
672.92	2197.47
673.11	2279.39
673.29	2193.37
673.48	2316.25
673.67	2250.72
673.85	2355.16
674.04	2115.55
674.23	2299.87
674.41	2484.19
674.60	2185.18
674.79	2129.89
674.97	2150.37
675.16	2351.07
675.34	2349.02
675.53	2168.80
675.72	2285.53
675.90	2400.22
676.09	2199.52
676.28	2291.68
676.46	2154.46
676.65	2402.27
676.83	2193.37
677.02	2297.82
677.21	2168.80
677.39	2234.33
677.58	2136.03
677.77	2269.15
677.95	2121.70
678.14	2236.38
678.32	2357.21
678.51	2244.57
678.70	2441.18
678.88	2183.13
679.07	2342.88
679.25	2236.38
679.44	2232.29
679.63	2138.08
679.81	2260.96
680.00	2316.25
680.18	2281.44
680.37	2381.79
680.55	2250.72
680.74	2191.33
680.93	2058.21
681.11	2236.38
681.30	2279.39
681.48	2279.39
681.67	2230.24
681.85	2250.72
682.04	2220.00
682.23	2342.88
682.41	2283.49
682.60	2299.87
682.78	2260.96
682.97	2181.09
683.15	2322.40
683.34	2277.34
683.53	2392.03
683.71	2162.66
683.90	2355.16
684.08	2459.61
684.27	2308.06
684.45	2265.05
684.64	2365.40
684.82	2250.72
685.01	2301.92
685.19	2301.92
685.38	2310.11
685.57	2260.96
685.75	2224.09
685.94	2179.04
686.12	2136.03
686.31	2168.80
686.49	2422.75
686.68	2113.50
686.86	2254.81
687.05	2293.72
687.23	2375.64
687.42	2185.18
687.60	2105.31
687.79	2299.87
687.97	2344.92
688.16	2367.45
688.34	2369.50
688.53	2097.12
688.71	2281.44
688.90	2330.59
689.08	2283.49
689.27	2150.37
689.45	2365.40
689.64	2389.98
689.82	2279.39
690.01	2340.83
690.19	2295.77
690.38	2226.14
690.56	2373.60
690.75	2142.18
690.93	2142.18
691.12	2201.57
691.30	2254.81
691.49	2220.00
691.67	2183.13
691.86	2426.84
692.04	2242.53
692.23	2140.13
692.41	2271.20
692.60	2504.67
692.78	2396.12
692.97	2254.81
693.15	2389.98
693.34	2406.36
693.52	2379.74
693.71	2154.46
693.89	2254.81
694.08	2074.59
694.26	2252.77
694.44	2322.40
694.63	2285.53
694.81	2179.04
695.00	2113.50
695.18	2338.78
695.37	2486.23
695.55	2310.11
695.74	2228.19
695.92	2121.70
696.10	2441.18
696.29	2088.93
696.47	2121.70
696.66	2121.70
696.84	2107.36
697.03	2289.63
697.21	2428.89
697.40	3330.00
697.58	2320.35
697.76	2193.37
697.95	2170.85
698.13	2162.66
698.32	2228.19
698.50	2193.37
698.68	2236.38
698.87	2269.15
699.05	2457.56
699.24	2326.49
699.42	2158.56
699.61	2291.68
699.79	2215.90
699.97	2258.91
700.16	2105.31
700.34	2197.47
700.53	2222.05
700.71	2453.47
700.89	2344.92
701.08	2303.96
701.26	2285.53
701.45	2781.14
701.63	2170.85
701.81	2199.52
702.00	2209.76
702.18	2346.97
702.37	2234.33
702.55	2531.29
702.73	2422.75
702.92	2363.36
703.10	2627.54
703.28	2488.28
703.47	2133.98
703.65	2406.36
703.84	2418.65
704.02	2215.90
704.20	2457.56
704.39	2209.76
704.57	2224.09
704.75	2418.65
704.94	2447.32
705.12	2396.12
705.30	2645.98
705.49	4476.86
705.67	10588.00
705.86	18202.35
706.04	22005.42
706.22	25104.00
706.41	26162.80
706.59	22187.69
706.77	15568.66
706.96	13068.09
707.14	11505.49
707.32	9946.98
707.51	8806.27
707.69	7321.49
707.87	5980.07
708.06	4661.18
708.24	3954.63
708.42	3297.23
708.61	3074.00
708.79	2482.14
708.97	2463.71
709.16	2418.65
709.34	2367.45
709.52	2265.05
709.71	2199.52
709.89	2441.18
710.07	2176.99
710.26	2166.75
710.44	2256.86
710.62	2377.69
710.80	2267.10
710.99	2385.88
711.17	2346.97
711.35	2193.37
711.54	2185.18
711.72	2357.21
711.90	2359.26
712.09	2238.43
712.27	2193.37
712.45	2281.44
712.63	2244.57
712.82	2258.91
713.00	2310.11
713.18	2281.44
713.37	2308.06
713.55	2353.12
713.73	2285.53
713.91	2306.01
714.10	2160.61
714.28	2291.68
714.46	2244.57
714.65	2301.92
714.83	2308.06
715.01	2209.76
715.19	2340.83
715.38	2193.37
715.56	2285.53
715.74	2236.38
715.92	2195.42
716.11	2361.31
716.29	2064.35
716.47	2215.90
716.65	2203.61
716.84	2150.37
717.02	2324.44
717.20	2035.68
717.38	2111.46
717.57	2328.54
717.75	2254.81
717.93	2170.85
718.11	2289.63
718.30	2131.94
718.48	2258.91
718.66	2299.87
718.84	2332.64
719.03	2256.86
719.21	2164.70
719.39	2414.56
719.57	2377.69
719.75	2291.68
719.94	2117.60
720.12	2236.38
720.30	2226.14
720.48	2346.97
720.67	2174.94
720.85	2138.08
721.03	2203.61
721.21	2152.42
721.39	2369.50
721.58	2324.44
721.76	2244.57
721.94	2308.06
722.12	2332.64
722.30	2412.51
722.49	2217.95
722.67	2258.91
722.85	2244.57
723.03	2195.42
723.21	2207.71
723.40	2285.53
723.58	2373.60
723.76	2375.64
723.94	2467.80
724.12	2265.05
724.30	2338.78
724.49	2379.74
724.67	2215.90
724.85	2402.27
725.03	2220.00
725.21	2299.87
725.40	2334.68
725.58	2232.29
725.76	2326.49
725.94	2263.01
726.12	2176.99
726.30	2238.43
726.49	2217.95
726.67	2211.81
726.85	2359.26
727.03	2547.67
727.21	3606.47
727.39	5128.11
727.57	5887.91
727.76	6700.95
727.94	6895.51
728.12	6471.58
728.30	5156.79
728.48	4638.65
728.66	4136.90
728.84	3805.13
729.03	3334.09
729.21	2983.89
729.39	2777.05
729.57	2490.33
729.75	2488.28
729.93	2426.84
730.11	2207.71
730.30	2240.48
730.48	2242.53
730.66	2351.07
730.84	2359.26
731.02	2228.19
731.20	2176.99
731.38	2320.35
731.56	2189.28
731.74	2136.03
731.93	2254.81
732.11	2244.57
732.29	2258.91
732.47	2271.20
732.65	2283.49
732.83	2445.27
733.01	2265.05
733.19	2213.85
733.37	2254.81
733.56	2301.92
733.74	2265.05
733.92	2455.51
734.10	2172.89
734.28	2265.05
734.46	2131.94
734.64	2248.67
734.82	2172.89
735.00	2152.42
735.18	2197.47
735.36	2215.90
735.54	2324.44
735.73	2295.77
735.91	2195.42
736.09	2392.03
736.27	2236.38
736.45	2371.55
736.63	2041.82
736.81	2236.38
736.99	2398.17
737.17	2314.20
737.35	2232.29
737.53	2195.42
737.71	2187.23
737.89	2301.92
738.07	2238.43
738.25	2148.32
738.43	2154.46
738.61	2191.33
738.80	2121.70
738.98	2150.37
739.16	2191.33
739.34	2103.26
739.52	2351.07
739.70	2228.19
739.88	2301.92
740.06	2383.84
740.24	2060.26
740.42	2355.16
740.60	1992.67
740.78	2252.77
740.96	2115.55
741.14	2203.61
741.32	2336.73
741.50	2095.07
741.68	2488.28
741.86	2383.84
742.04	2117.60
742.22	2117.60
742.40	2244.57
742.58	2355.16
742.76	2213.85
742.94	2330.59
743.12	2121.70
743.30	2203.61
743.48	2316.25
743.66	2170.85
743.84	2238.43
744.02	2217.95
744.20	2275.29
744.38	2146.27
744.56	2185.18
744.74	2383.84
744.92	2252.77
745.10	2406.36
745.28	2346.97
745.46	2449.37
745.64	2166.75
745.82	2357.21
746.00	2279.39
746.18	2244.57
746.36	2207.71
746.54	2287.58
746.72	2240.48
746.90	2179.04
747.08	2392.03
747.26	2248.67
747.44	2328.54
747.62	2285.53
747.80	2293.72
747.98	2357.21
748.15	2226.14
748.33	2471.90
748.51	2312.16
748.69	2342.88
748.87	2150.37
749.05	2211.81
749.23	2314.20
749.41	2211.81
749.59	2232.29
749.77	2367.45
749.95	2211.81
750.13	2228.19
750.31	2275.29
750.49	2183.13
750.67	2297.82
750.85	2359.26
751.03	2312.16
751.20	2426.84
751.38	2209.76
751.56	2199.52
751.74	2242.53
751.92	2181.09
752.10	2164.70
752.28	2359.26
752.46	2226.14
752.64	2230.24
752.82	2267.10
753.00	2295.77
753.18	2187.23
753.35	2187.23
753.53	2230.24
753.71	2187.23
753.89	2301.92
754.07	2332.64
754.25	2359.26
754.43	2250.72
754.61	2154.46
754.79	2324.44
754.97	2203.61
755.14	2379.74
755.32	2129.89
755.50	2293.72
755.68	2301.92
755.86	2211.81
756.04	2207.71
756.22	2068.45
756.40	2338.78
756.57	2418.65
756.75	2209.76
756.93	2383.84
757.11	2277.34
757.29	2160.61
757.47	2181.09
757.65	2113.50
757.82	2086.88
758.00	2211.81
758.18	2277.34
758.36	2217.95
758.54	2367.45
758.72	2113.50
758.90	2260.96
759.07	2277.34
759.25	2117.60
759.43	2389.98
759.61	2131.94
759.79	3203.02
759.97	2353.12
760.15	2160.61
760.32	2195.42
760.50	2269.15
760.68	2398.17
760.86	2080.74
761.04	2445.27
761.22	2277.34
761.39	2328.54
761.57	2252.77
761.75	2258.91
761.93	2383.84
762.11	2232.29
762.28	2293.72
762.46	2101.22
762.64	2400.22
762.82	2041.82
763.00	2195.42
763.18	2379.74
763.35	2168.80
763.53	2402.27
763.71	2256.86
763.89	2189.28
764.07	2312.16
764.24	2275.29
764.42	2260.96
764.60	2215.90
764.78	2332.64
764.96	2316.25
765.13	2344.92
765.31	2170.85
765.49	2330.59
765.67	2232.29
765.84	2185.18
766.02	2224.09
766.20	2101.22
766.38	2258.91
766.56	2273.25
766.73	2392.03
766.91	2291.68
767.09	2201.57
767.27	2252.77
767.44	2211.81
767.62	2346.97
767.80	2236.38
767.98	2265.05
768.15	2187.23
768.33	2336.73
768.51	2236.38
768.69	2248.67
768.87	2267.10
769.04	2260.96
769.22	2498.52
769.40	2349.02
769.58	2494.43
769.75	2250.72
769.93	2389.98
770.11	2258.91
770.28	2220.00
770.46	2285.53
770.64	2267.10
770.82	2220.00
770.99	2168.80
771.17	2338.78
771.35	2213.85
771.53	2217.95
771.70	2183.13
771.88	2342.88
772.06	2234.33
772.23	2193.37
772.41	2340.83
772.59	2199.52
772.77	2105.31
772.94	2246.62
773.12	2340.83
773.30	2226.14
773.47	2336.73
773.65	2105.31
773.83	2408.41
774.01	2220.00
774.18	2185.18
774.36	2217.95
774.54	2144.22
774.71	2215.90
774.89	2160.61
775.07	2105.31
775.24	2211.81
775.42	2170.85
775.60	2351.07
775.78	2154.46
775.95	2150.37
776.13	2064.35
776.31	2031.58
776.48	2279.39
776.66	2320.35
776.84	2248.67
777.01	2215.90
777.19	2146.27
777.37	2176.99
777.54	2293.72
777.72	2375.64
777.90	2260.96
778.07	2209.76
778.25	2580.44
778.43	2392.03
778.60	2121.70
778.78	2408.41
778.96	2334.68
779.13	2117.60
779.31	2291.68
779.49	2168.80
779.66	2285.53
779.84	2285.53
780.01	2197.47
780.19	2156.51
780.37	2361.31
780.54	2310.11
780.72	2154.46
780.90	2244.57
781.07	2142.18
781.25	2144.22
781.43	2297.82
781.60	2187.23
781.78	2334.68
781.95	2301.92
782.13	2217.95
782.31	2144.22
782.48	2082.78
782.66	2310.11
782.83	2406.36
783.01	2355.16
783.19	2361.31
783.36	2140.13
783.54	2158.56
783.72	2310.11
783.89	2232.29
784.07	2322.40
784.24	2308.06
784.42	2408.41
784.60	2277.34
784.77	2271.20
784.95	2097.12
785.12	2121.70
785.30	2291.68
785.47	2256.86
785.65	2181.09
785.83	2176.99
786.00	2207.71
786.18	2273.25
786.35	2095.07
786.53	2131.94
786.71	2389.98
786.88	2322.40
787.06	2244.57
787.23	2220.00
787.41	2138.08
787.58	2203.61
787.76	2170.85
787.94	2217.95
788.11	2220.00
788.29	2179.04
788.46	2197.47
788.64	2090.98
788.81	2160.61
788.99	2191.33
789.16	2164.70
789.34	2248.67
789.52	2181.09
789.69	2314.20
789.87	2045.92
790.04	2201.57
790.22	2285.53
790.39	2455.51
790.57	2146.27
790.74	2179.04
790.92	2250.72
791.09	2088.93
791.27	2320.35
791.44	2332.64
791.62	2220.00
791.79	2322.40
791.97	2334.68
792.15	2492.38
792.32	2367.45
792.50	2289.63
792.67	2349.02
792.85	2377.69
793.02	2224.09
793.20	2205.66
793.37	2115.55
793.55	2164.70
793.72	2119.65
793.90	2297.82
794.07	2213.85
794.25	2203.61
794.42	2236.38
794.60	2207.71
794.77	2328.54
794.95	2281.44
795.12	2334.68
795.30	2203.61
795.47	2117.60
795.65	2506.71
795.82	2209.76
796.00	2199.52
796.17	2234.33
796.34	2136.03
796.52	2330.59
796.69	2375.64
796.87	2205.66
797.04	2322.40
797.22	2326.49
797.39	2166.75
797.57	2312.16
797.74	2269.15
797.92	2260.96
798.09	2228.19
798.27	2256.86
798.44	2242.53
798.62	2142.18
798.79	2236.38
798.96	2344.92
799.14	2338.78
799.31	2412.51
799.49	2205.66
799.66	2250.72
799.84	2295.77
800.01	2152.42
800.19	2328.54
800.36	2148.32
800.53	2310.11
800.71	2336.73
800.88	2410.46
801.06	2166.75
801.23	2191.33
801.41	2187.23
801.58	2248.67
801.75	2211.81
801.93	2310.11
802.10	2344.92
802.28	2236.38
802.45	2232.29
802.63	2224.09
802.80	2369.50
802.97	2215.90
803.15	2215.90
803.32	2228.19
803.50	2148.32
803.67	2254.81
803.84	2162.66
804.02	2279.39
804.19	2148.32
804.37	2000.87
804.54	2121.70
804.71	2179.04
804.89	2170.85
805.06	2201.57
805.24	2088.93
805.41	2138.08
805.58	2179.04
805.76	2465.75
805.93	2220.00
806.10	2320.35
806.28	2265.05
806.45	2234.33
806.63	2222.05
806.80	2228.19
806.97	2260.96
807.15	2293.72
807.32	2209.76
807.49	2197.47
807.67	2146.27
807.84	2263.01
808.01	2146.27
808.19	2414.56
808.36	2500.57
808.54	2203.61
808.71	2062.30
808.88	2330.59
809.06	2449.37
809.23	2404.32
809.40	2248.67
809.58	2252.77
809.75	2215.90
809.92	2209.76
810.10	2430.94
810.27	2244.57
810.44	2230.24
810.62	2326.49
810.79	2316.25
810.96	2146.27
811.14	2162.66
811.31	2369.50
811.48	2349.02
811.66	2162.66
811.83	2236.38
812.00	2269.15
812.18	2248.67
812.35	2432.99
812.52	2162.66
812.69	2246.62
812.87	2258.91
813.04	2136.03
813.21	2267.10
813.39	2183.13
813.56	2187.23
813.73	2318.30
813.91	2115.55
814.08	2244.57
814.25	2289.63
814.42	2117.60
814.60	2250.72
814.77	2234.33
814.94	2234.33
815.12	2238.43
815.29	2416.60
815.46	2248.67
815.63	2224.09
815.81	2269.15
815.98	2254.81
816.15	2166.75
816.33	2265.05
816.50	2238.43
816.67	2297.82
816.84	2211.81
817.02	2086.88
817.19	2324.44
817.36	2275.29
817.53	2312.16
817.71	2166.75
817.88	2316.25
818.05	2236.38
818.22	2158.56
818.40	2389.98
818.57	2148.32
818.74	2318.30
818.91	2160.61
819.09	2252.77
819.26	2297.82
819.43	2176.99
819.60	2213.85
819.78	2342.88
819.95	2277.34
820.12	2125.79
820.29	2404.32
820.47	2394.08
820.64	2142.18
820.81	2109.41
820.98	2183.13
821.15	2121.70
821.33	2367.45
821.50	2119.65
821.67	2322.40
821.84	2170.85
822.02	2199.52
822.19	2326.49
822.36	2201.57
822.53	2242.53
822.70	2213.85
822.88	2244.57
823.05	2365.40
823.22	2220.00
823.39	2283.49
823.56	2238.43
823.74	2336.73
823.91	2185.18
824.08	2215.90
824.25	2226.14
824.42	2465.75
824.60	2070.50
824.77	2289.63
824.94	2158.56
825.11	2275.29
825.28	2056.16
825.45	2289.63
825.63	2197.47
825.80	2105.31
825.97	2400.22
826.14	2195.42
826.31	2086.88
826.48	2357.21
826.66	2162.66
826.83	2170.85
827.00	2211.81
827.17	2121.70
827.34	2217.95
827.51	2226.14
827.69	2240.48
827.86	2076.64
828.03	2318.30
828.20	2240.48
828.37	2183.13
828.54	2285.53
828.71	2162.66
828.89	2400.22
829.06	2277.34
829.23	2344.92
829.40	2140.13
829.57	2150.37
829.74	2318.30
829.91	2258.91
830.09	2240.48
830.26	2303.96
830.43	2394.08
830.60	2316.25
830.77	2342.88
830.94	2426.84
831.11	2369.50
831.28	2166.75
831.46	2394.08
831.63	2215.90
831.80	2357.21
831.97	2187.23
832.14	2160.61
832.31	2228.19
832.48	2287.58
832.65	2359.26
832.82	2240.48
832.99	2228.19
833.17	2127.84
833.34	2373.60
833.51	2314.20
833.68	2107.36
833.85	2396.12
834.02	2224.09
834.19	2129.89
834.36	2224.09
834.53	2258.91
834.70	2353.12
834.87	2269.15
835.04	2146.27
835.22	2183.13
835.39	2244.57
835.56	2029.54
835.73	2187.23
835.90	2371.55
836.07	2117.60
836.24	2293.72
836.41	2129.89
836.58	2187.23
836.75	2297.82
836.92	2187.23
837.09	2152.42
837.26	2330.59
837.43	2289.63
837.60	2242.53
837.77	2252.77
837.94	2314.20
838.12	2349.02
838.29	2170.85
838.46	2084.83
838.63	2129.89
838.80	2375.64
838.97	2234.33
839.14	2209.76
839.31	2197.47
839.48	2330.59
839.65	2217.95
839.82	2287.58
839.99	2271.20
840.16	2260.96
840.33	2142.18
840.50	2154.46
840.67	2019.30
840.84	2047.97
841.01	2201.57
841.18	2203.61
841.35	2199.52
841.52	2275.29
841.69	2420.70
841.86	2211.81
842.03	2248.67
842.20	2344.92
842.37	2121.70
842.54	2187.23
842.71	2269.15
842.88	2084.83
843.05	2293.72
843.22	2224.09
843.39	2281.44
843.56	2152.42
843.73	2209.76
843.90	2240.48
844.07	2269.15
844.24	2340.83
844.41	2297.82
844.58	2160.61
844.75	2197.47
844.92	2338.78
845.09	2211.81
845.26	2111.46
845.43	2322.40
845.60	2217.95
845.77	2246.62
845.94	2199.52
846.10	2308.06
846.27	2146.27
846.44	2095.07
846.61	2115.55
846.78	2301.92
846.95	2232.29
847.12	2252.77
847.29	2222.05
847.46	2158.56
847.63	2256.86
847.80	2234.33
847.97	2222.05
848.14	2443.23
848.31	2176.99
848.48	2113.50
848.65	2240.48
848.82	2228.19
848.98	2541.53
849.15	2306.01
849.32	2340.83
849.49	2342.88
849.66	2205.66
849.83	2211.81
850.00	2068.45
850.17	2297.82
850.34	2211.81
850.51	2191.33
850.68	2203.61
850.85	2420.70
851.01	2322.40
851.18	2297.82
851.35	2136.03
851.52	2275.29
851.69	2387.93
851.86	2133.98
852.03	2242.53
852.20	2273.25
852.37	2217.95
852.53	2064.35
852.70	2158.56
852.87	2258.91
853.04	2293.72
853.21	2176.99
853.38	2316.25
853.55	2285.53
853.72	2437.08
853.89	2133.98
854.05	2115.55
854.22	2189.28
854.39	2258.91
854.56	2244.57
854.73	2306.01
854.90	2220.00
855.07	2123.74
855.23	2244.57
855.40	2189.28
855.57	2267.10
855.74	2047.97
855.91	2426.84
856.08	2074.59
856.25	2097.12
856.41	2269.15
856.58	2183.13
856.75	2287.58
856.92	2109.41
857.09	2353.12
857.26	2095.07
857.42	2189.28
857.59	2324.44
857.76	2203.61
857.93	2220.00
858.10	2215.90
858.27	2090.98
858.43	2336.73
858.60	2170.85
858.77	2050.02
858.94	2240.48
859.11	2373.60
859.27	2187.23
859.44	2095.07
859.61	2414.56
859.78	2260.96
859.95	2162.66
860.12	2170.85
860.28	2461.66
860.45	2498.52
860.62	2226.14
860.79	2254.81
860.95	2236.38
861.12	2191.33
861.29	2195.42
861.46	2193.37
861.63	2224.09
861.79	2316.25
861.96	2076.64
862.13	2152.42
862.30	2308.06
862.47	2191.33
862.63	2179.04
862.80	2340.83
862.97	2299.87
863.14	2269.15
863.30	2252.77
863.47	2150.37
863.64	2351.07
863.81	2275.29
863.97	2144.22
864.14	2217.95
864.31	2318.30
864.48	2295.77
864.65	2220.00
864.81	2363.36
864.98	2381.79
865.15	2340.83
865.32	2252.77
865.48	2308.06
865.65	2338.78
865.82	2250.72
865.98	2291.68
866.15	2336.73
866.32	2248.67
866.49	2281.44
866.65	2334.68
866.82	2160.61
866.99	2318.30
867.16	2269.15
867.32	2174.94
867.49	2240.48
867.66	2287.58
867.83	2183.13
867.99	2099.17
868.16	2185.18
868.33	2166.75
868.49	2170.85
868.66	2263.01
868.83	2371.55
868.99	2271.20
869.16	2230.24
869.33	2324.44
869.50	2240.48
869.66	2299.87
869.83	2211.81
870.00	2099.17
870.16	2246.62
870.33	2215.90
870.50	2365.40
870.66	2232.29
870.83	2342.88
871.00	2187.23
871.17	2228.19
871.33	2301.92
871.50	2154.46
871.67	2174.94
871.83	2209.76
872.00	2312.16
872.17	2195.42
872.33	2418.65
872.50	2320.35
872.67	2152.42
872.83	2172.89
873.00	2316.25
873.17	2269.15
873.33	2230.24
873.50	2234.33
873.67	2142.18
873.83	2275.29
874.00	2179.04
874.16	2312.16
874.33	2121.70
874.50	2093.02
874.66	2244.57
874.83	2265.05
875.00	2359.26
875.16	2375.64
875.33	2260.96
875.50	2007.01
875.66	2209.76
875.83	2279.39
875.99	2242.53
876.16	2246.62
876.33	2176.99
876.49	2277.34
876.66	2181.09
876.83	2224.09
876.99	2103.26
877.16	2240.48
877.32	2226.14
877.49	2168.80
877.66	2277.34
877.82	2430.94
877.99	2293.72
878.15	2328.54
878.32	2248.67
878.49	2293.72
878.65	2269.15
878.82	2293.72
878.98	2154.46
879.15	2355.16
879.32	2295.77
879.48	2240.48
879.65	2172.89
879.81	2230.24
879.98	2121.70
880.15	2129.89
880.31	2301.92
880.48	2176.99
880.64	2283.49
880.81	2330.59
880.97	2414.56
881.14	2349.02
881.31	2088.93
881.47	2387.93
881.64	2248.67
881.80	2086.88
881.97	2170.85
882.13	2291.68
882.30	2144.22
882.47	2193.37
882.63	2127.84
882.80	2154.46
882.96	2220.00
883.13	2389.98
883.29	2228.19
883.46	2232.29
883.62	2480.09
883.79	2310.11
883.95	2367.45
884.12	2070.50
884.29	2338.78
884.45	2248.67
884.62	2275.29
884.78	2189.28
884.95	2439.13
885.11	2211.81
885.28	2285.53
885.44	2203.61
885.61	2281.44
885.77	2379.74
885.94	2301.92
886.10	2209.76
886.27	2297.82
886.43	2359.26
886.60	2324.44
886.76	2172.89
886.93	2183.13
887.09	2283.49
887.26	2019.30
887.42	2283.49
887.59	2373.60
887.75	2426.84
887.92	2299.87
888.08	2295.77
888.25	2387.93
888.41	2367.45
888.58	2258.91
888.74	2088.93
888.91	2246.62
>>>>>End Processed Spectral Data<<<<<
