SpectraSuite Data File
++++++++++++++++++++++++++++++++++++
Date: Thu May 05 13:21:11 CEST 2016
User: root
Dark Spectrum Present: No
Reference Spectrum Present: No
Number of Sampled Component Spectra: 1
Spectrometers: USB4C02835
Integration Time (usec): 100000 (USB4C02835)
Spectra Averaged: 1 (USB4C02835)
Boxcar Smoothing: 0 (USB4C02835)
Correct for Electrical Dark: No (USB4C02835)
Strobe/Lamp Enabled: No (USB4C02835)
Correct for Detector Non-linearity: No (USB4C02835)
Correct for Stray Light: No (USB4C02835)
Number of Pixels in Processed Spectrum: 3648
>>>>>Begin Processed Spectral Data<<<<<
177.47	1796.07
177.69	1796.07
177.91	1796.07
178.13	1826.79
178.36	1751.01
178.58	2123.74
178.80	2375.64
179.02	2054.11
179.24	2154.46
179.46	2228.19
179.68	2301.92
179.90	2201.57
180.13	2217.95
180.35	2041.82
180.57	2138.08
180.79	2289.63
181.01	2295.77
181.23	2289.63
181.45	2258.91
181.67	2287.58
181.90	2359.26
182.12	2220.00
182.34	2133.98
182.56	2316.25
182.78	2342.88
183.00	2199.52
183.22	2258.91
183.44	2097.12
183.66	2410.46
183.89	2250.72
184.11	2211.81
184.33	2273.25
184.55	2455.51
184.77	2131.94
184.99	2179.04
185.21	2191.33
185.43	2531.29
185.65	2185.18
185.87	2105.31
186.10	2539.48
186.32	2516.95
186.54	2258.91
186.76	2260.96
186.98	2332.64
187.20	2297.82
187.42	2195.42
187.64	2240.48
187.86	2340.83
188.08	2375.64
188.30	2129.89
188.52	2205.66
188.75	2334.68
188.97	2346.97
189.19	2152.42
189.41	2158.56
189.63	2308.06
189.85	2160.61
190.07	1994.72
190.29	2074.59
190.51	2297.82
190.73	2103.26
190.95	2265.05
191.17	2187.23
191.39	2088.93
191.61	2248.67
191.84	2168.80
192.06	2269.15
192.28	2115.55
192.50	2592.73
192.72	2226.14
192.94	2127.84
193.16	2375.64
193.38	2242.53
193.60	2152.42
193.82	2283.49
194.04	2273.25
194.26	2328.54
194.48	2209.76
194.70	2119.65
194.92	2220.00
195.14	2322.40
195.36	2115.55
195.58	2217.95
195.80	2129.89
196.02	2193.37
196.24	2154.46
196.46	2242.53
196.69	2281.44
196.91	2586.58
197.13	2279.39
197.35	2068.45
197.57	2400.22
197.79	2318.30
198.01	2287.58
198.23	2220.00
198.45	2320.35
198.67	2158.56
198.89	2084.83
199.11	2195.42
199.33	2234.33
199.55	2027.49
199.77	2199.52
199.99	2281.44
200.21	2236.38
200.43	2318.30
200.65	2146.27
200.87	1994.72
201.09	2203.61
201.31	2207.71
201.53	2203.61
201.75	2195.42
201.97	2293.72
202.19	2215.90
202.41	2258.91
202.63	2367.45
202.85	2291.68
203.07	2260.96
203.29	2140.13
203.51	2144.22
203.73	2170.85
203.95	2588.63
204.17	2203.61
204.39	2185.18
204.61	2191.33
204.83	2162.66
205.05	2355.16
205.27	2234.33
205.49	2475.99
205.71	2213.85
205.93	2031.58
206.15	2119.65
206.37	2217.95
206.59	2220.00
206.81	2109.41
207.03	2131.94
207.25	2205.66
207.47	2277.34
207.69	2201.57
207.91	2398.17
208.13	2428.89
208.34	2140.13
208.56	2131.94
208.78	2275.29
209.00	2183.13
209.22	2236.38
209.44	2170.85
209.66	2138.08
209.88	2260.96
210.10	2267.10
210.32	2160.61
210.54	2256.86
210.76	2254.81
210.98	2379.74
211.20	2050.02
211.42	2201.57
211.64	2346.97
211.86	2273.25
212.08	2324.44
212.30	2174.94
212.52	2195.42
212.74	2316.25
212.96	2226.14
213.17	2263.01
213.39	2293.72
213.61	2461.66
213.83	2121.70
214.05	2207.71
214.27	2389.98
214.49	2222.05
214.71	2090.98
214.93	2285.53
215.15	2322.40
215.37	2209.76
215.59	2064.35
215.81	2201.57
216.03	2357.21
216.24	2220.00
216.46	2209.76
216.68	2285.53
216.90	2318.30
217.12	2396.12
217.34	2209.76
217.56	2326.49
217.78	2447.32
218.00	2310.11
218.22	2209.76
218.44	2242.53
218.66	2269.15
218.87	2412.51
219.09	2121.70
219.31	2281.44
219.53	2244.57
219.75	2213.85
219.97	2168.80
220.19	2146.27
220.41	2199.52
220.63	2408.41
220.85	2232.29
221.06	2168.80
221.28	2402.27
221.50	2340.83
221.72	2250.72
221.94	2121.70
222.16	2351.07
222.38	2357.21
222.60	2158.56
222.82	2179.04
223.03	2330.59
223.25	2113.50
223.47	2260.96
223.69	2316.25
223.91	2355.16
224.13	2242.53
224.35	2062.30
224.57	2254.81
224.78	2287.58
225.00	2181.09
225.22	2228.19
225.44	2164.70
225.66	2400.22
225.88	2160.61
226.10	2244.57
226.32	2246.62
226.53	2461.66
226.75	2193.37
226.97	2195.42
227.19	2260.96
227.41	2258.91
227.63	2283.49
227.85	2113.50
228.06	2195.42
228.28	2340.83
228.50	2349.02
228.72	2113.50
228.94	2203.61
229.16	2070.50
229.37	2146.27
229.59	2054.11
229.81	2242.53
230.03	2199.52
230.25	2172.89
230.47	2093.02
230.69	2172.89
230.90	2359.26
231.12	2205.66
231.34	2258.91
231.56	2260.96
231.78	2117.60
232.00	2275.29
232.21	2238.43
232.43	2166.75
232.65	2150.37
232.87	2281.44
233.09	2090.98
233.30	2133.98
233.52	2332.64
233.74	2248.67
233.96	2127.84
234.18	2252.77
234.40	2201.57
234.61	2480.09
234.83	2066.40
235.05	2078.69
235.27	2471.90
235.49	2293.72
235.70	2207.71
235.92	2236.38
236.14	2269.15
236.36	2486.23
236.58	2068.45
236.79	2220.00
237.01	2271.20
237.23	2228.19
237.45	2330.59
237.67	2191.33
237.88	2340.83
238.10	2406.36
238.32	2095.07
238.54	2215.90
238.76	2271.20
238.97	2152.42
239.19	2133.98
239.41	2217.95
239.63	2318.30
239.85	2197.47
240.06	2191.33
240.28	2144.22
240.50	2414.56
240.72	2291.68
240.93	2099.17
241.15	2248.67
241.37	2285.53
241.59	2379.74
241.81	2220.00
242.02	2174.94
242.24	2265.05
242.46	2295.77
242.68	2090.98
242.89	2187.23
243.11	2334.68
243.33	2201.57
243.55	2179.04
243.76	2263.01
243.98	2152.42
244.20	2287.58
244.42	2138.08
244.64	2181.09
244.85	2158.56
245.07	2150.37
245.29	2203.61
245.51	2183.13
245.72	2295.77
245.94	2346.97
246.16	2217.95
246.38	2199.52
246.59	2158.56
246.81	2201.57
247.03	2187.23
247.24	2056.16
247.46	2213.85
247.68	2256.86
247.90	2166.75
248.11	2150.37
248.33	2275.29
248.55	2244.57
248.77	2160.61
248.98	2148.32
249.20	2441.18
249.42	2285.53
249.64	2183.13
249.85	2140.13
250.07	2254.81
250.29	2320.35
250.50	2203.61
250.72	2154.46
250.94	2306.01
251.16	2457.56
251.37	2260.96
251.59	2211.81
251.81	2263.01
252.02	2260.96
252.24	2133.98
252.46	2328.54
252.68	2207.71
252.89	2279.39
253.11	2158.56
253.33	2375.64
253.54	2416.60
253.76	2146.27
253.98	2154.46
254.20	2230.24
254.41	2103.26
254.63	2267.10
254.85	2111.46
255.06	2209.76
255.28	2267.10
255.50	2215.90
255.71	2144.22
255.93	2109.41
256.15	2230.24
256.36	2297.82
256.58	2142.18
256.80	2144.22
257.02	2183.13
257.23	2265.05
257.45	2203.61
257.67	2211.81
257.88	2207.71
258.10	2312.16
258.32	2217.95
258.53	2213.85
258.75	2482.14
258.97	2138.08
259.18	2133.98
259.40	2197.47
259.62	2291.68
259.83	2367.45
260.05	2224.09
260.27	2699.22
260.48	2396.12
260.70	2127.84
260.92	2113.50
261.13	2129.89
261.35	2254.81
261.57	2269.15
261.78	2011.11
262.00	2101.22
262.22	2306.01
262.43	2131.94
262.65	2195.42
262.86	2269.15
263.08	2547.67
263.30	2330.59
263.51	2093.02
263.73	2127.84
263.95	2453.47
264.16	2228.19
264.38	2166.75
264.60	2181.09
264.81	2232.29
265.03	2361.31
265.25	2324.44
265.46	2160.61
265.68	2355.16
265.89	2408.41
266.11	2080.74
266.33	2222.05
266.54	2373.60
266.76	2289.63
266.98	2246.62
267.19	2248.67
267.41	2275.29
267.62	2213.85
267.84	2025.44
268.06	2199.52
268.27	2310.11
268.49	2361.31
268.70	2228.19
268.92	2148.32
269.14	2211.81
269.35	2146.27
269.57	2195.42
269.79	2254.81
270.00	2187.23
270.22	2398.17
270.43	2160.61
270.65	2058.21
270.87	2299.87
271.08	2383.84
271.30	2318.30
271.51	2236.38
271.73	2287.58
271.95	2379.74
272.16	2193.37
272.38	2306.01
272.59	2193.37
272.81	2340.83
273.02	2232.29
273.24	2232.29
273.46	2355.16
273.67	2154.46
273.89	2129.89
274.10	2131.94
274.32	2435.03
274.54	2232.29
274.75	2293.72
274.97	2234.33
275.18	2303.96
275.40	2263.01
275.61	2213.85
275.83	2267.10
276.05	2152.42
276.26	2242.53
276.48	2205.66
276.69	2125.79
276.91	2203.61
277.12	2381.79
277.34	2267.10
277.55	2293.72
277.77	2189.28
277.99	2187.23
278.20	2146.27
278.42	2162.66
278.63	2162.66
278.85	2193.37
279.06	2226.14
279.28	2310.11
279.49	2357.21
279.71	2289.63
279.93	2252.77
280.14	2181.09
280.36	2195.42
280.57	2387.93
280.79	2267.10
281.00	2146.27
281.22	2179.04
281.43	2357.21
281.65	2000.87
281.86	2179.04
282.08	2252.77
282.29	2437.08
282.51	2117.60
282.73	2039.78
282.94	2078.69
283.16	2263.01
283.37	2344.92
283.59	2306.01
283.80	2275.29
284.02	2260.96
284.23	2224.09
284.45	2172.89
284.66	2158.56
284.88	2101.22
285.09	2246.62
285.31	2314.20
285.52	2326.49
285.74	2127.84
285.95	2275.29
286.17	2312.16
286.38	2324.44
286.60	2144.22
286.81	2166.75
287.03	2254.81
287.24	2183.13
287.46	2346.97
287.67	2240.48
287.89	2412.51
288.10	2267.10
288.32	2205.66
288.53	2326.49
288.75	2301.92
288.96	2351.07
289.18	2127.84
289.39	2136.03
289.61	2328.54
289.82	2432.99
290.04	2408.41
290.25	2131.94
290.47	2185.18
290.68	2162.66
290.90	2398.17
291.11	2076.64
291.33	2373.60
291.54	2183.13
291.76	2199.52
291.97	2228.19
292.18	2191.33
292.40	2211.81
292.61	2181.09
292.83	2437.08
293.04	2265.05
293.26	2248.67
293.47	2297.82
293.69	2056.16
293.90	2260.96
294.12	2394.08
294.33	2217.95
294.55	2109.41
294.76	2330.59
294.97	2437.08
295.19	2441.18
295.40	2199.52
295.62	2254.81
295.83	2299.87
296.05	2240.48
296.26	2230.24
296.48	2258.91
296.69	2250.72
296.90	2232.29
297.12	2363.36
297.33	2322.40
297.55	2224.09
297.76	2277.34
297.98	2355.16
298.19	2260.96
298.41	2213.85
298.62	2203.61
298.83	2349.02
299.05	2277.34
299.26	2248.67
299.48	2174.94
299.69	2252.77
299.90	2228.19
300.12	2142.18
300.33	2299.87
300.55	2260.96
300.76	2265.05
300.98	2129.89
301.19	2256.86
301.40	2232.29
301.62	2211.81
301.83	2285.53
302.05	2277.34
302.26	2275.29
302.47	2242.53
302.69	2117.60
302.90	2301.92
303.12	2011.11
303.33	2289.63
303.54	2455.51
303.76	2236.38
303.97	2240.48
304.19	2355.16
304.40	2195.42
304.61	2289.63
304.83	2367.45
305.04	2308.06
305.26	2336.73
305.47	2291.68
305.68	2113.50
305.90	2035.68
306.11	2306.01
306.33	2267.10
306.54	2105.31
306.75	2168.80
306.97	2121.70
307.18	2209.76
307.39	2220.00
307.61	2308.06
307.82	2183.13
308.04	2277.34
308.25	2150.37
308.46	2299.87
308.68	2217.95
308.89	2293.72
309.10	2310.11
309.32	2244.57
309.53	2228.19
309.74	2314.20
309.96	2234.33
310.17	2400.22
310.39	2176.99
310.60	2367.45
310.81	2281.44
311.03	2172.89
311.24	2291.68
311.45	2260.96
311.67	2383.84
311.88	2213.85
312.09	2242.53
312.31	2150.37
312.52	2207.71
312.73	2144.22
312.95	2244.57
313.16	2084.83
313.37	2381.79
313.59	2353.12
313.80	2306.01
314.01	2363.36
314.23	2203.61
314.44	2205.66
314.65	2119.65
314.87	2119.65
315.08	2226.14
315.29	2207.71
315.51	2172.89
315.72	2078.69
315.93	2359.26
316.15	2254.81
316.36	2220.00
316.57	2320.35
316.79	2187.23
317.00	2205.66
317.21	2371.55
317.43	2195.42
317.64	2332.64
317.85	2109.41
318.07	2140.13
318.28	2158.56
318.49	2359.26
318.70	2486.23
318.92	2392.03
319.13	2408.41
319.34	2457.56
319.56	2306.01
319.77	2381.79
319.98	2322.40
320.20	2398.17
320.41	2369.50
320.62	2306.01
320.83	2193.37
321.05	2449.37
321.26	2275.29
321.47	2260.96
321.69	2349.02
321.90	2168.80
322.11	2201.57
322.32	2240.48
322.54	2414.56
322.75	2215.90
322.96	2471.90
323.18	2119.65
323.39	2062.30
323.60	2138.08
323.81	2248.67
324.03	2201.57
324.24	2238.43
324.45	2269.15
324.66	2211.81
324.88	2340.83
325.09	2326.49
325.30	2285.53
325.52	2213.85
325.73	2291.68
325.94	2185.18
326.15	2039.78
326.37	2195.42
326.58	2236.38
326.79	2322.40
327.00	2217.95
327.22	2236.38
327.43	2230.24
327.64	2146.27
327.85	2349.02
328.07	2334.68
328.28	2408.41
328.49	2205.66
328.70	2275.29
328.92	2267.10
329.13	2179.04
329.34	2328.54
329.55	2414.56
329.76	2334.68
329.98	2228.19
330.19	2412.51
330.40	2293.72
330.61	2330.59
330.83	2367.45
331.04	2234.33
331.25	2209.76
331.46	2195.42
331.68	2160.61
331.89	2408.41
332.10	2254.81
332.31	2101.22
332.52	2293.72
332.74	2322.40
332.95	2140.13
333.16	2154.46
333.37	2404.32
333.58	2207.71
333.80	2226.14
334.01	2062.30
334.22	2260.96
334.43	2275.29
334.64	2158.56
334.86	2123.74
335.07	2121.70
335.28	2414.56
335.49	2156.51
335.70	2275.29
335.92	2406.36
336.13	2553.82
336.34	2217.95
336.55	2201.57
336.76	2283.49
336.98	2088.93
337.19	2197.47
337.40	2344.92
337.61	2545.63
337.82	2195.42
338.04	2289.63
338.25	2093.02
338.46	2234.33
338.67	2246.62
338.88	2193.37
339.09	2109.41
339.31	2234.33
339.52	2146.27
339.73	2125.79
339.94	2285.53
340.15	2369.50
340.36	2226.14
340.58	2248.67
340.79	2209.76
341.00	2260.96
341.21	2144.22
341.42	2365.40
341.63	2185.18
341.85	2291.68
342.06	2267.10
342.27	2125.79
342.48	2359.26
342.69	2072.54
342.90	2246.62
343.12	2357.21
343.33	2228.19
343.54	2359.26
343.75	2428.89
343.96	2236.38
344.17	2133.98
344.38	2248.67
344.60	2148.32
344.81	2101.22
345.02	2187.23
345.23	2383.84
345.44	2480.09
345.65	2314.20
345.86	2207.71
346.07	2351.07
346.29	2191.33
346.50	2275.29
346.71	2217.95
346.92	2320.35
347.13	2478.04
347.34	2244.57
347.55	2211.81
347.76	2228.19
347.98	2183.13
348.19	2252.77
348.40	2361.31
348.61	2250.72
348.82	2357.21
349.03	2240.48
349.24	2191.33
349.45	2426.84
349.66	2056.16
349.88	2306.01
350.09	2168.80
350.30	2381.79
350.51	2367.45
350.72	2283.49
350.93	2232.29
351.14	2170.85
351.35	2281.44
351.56	2209.76
351.77	2328.54
351.99	2277.34
352.20	2375.64
352.41	2383.84
352.62	2105.31
352.83	2220.00
353.04	2256.86
353.25	2248.67
353.46	2283.49
353.67	2408.41
353.88	2129.89
354.09	2207.71
354.30	2254.81
354.52	2410.46
354.73	2316.25
354.94	2189.28
355.15	2166.75
355.36	2445.27
355.57	2238.43
355.78	2205.66
355.99	2154.46
356.20	2236.38
356.41	2330.59
356.62	2232.29
356.83	2244.57
357.04	2406.36
357.25	2129.89
357.46	2179.04
357.68	2101.22
357.89	2209.76
358.10	2263.01
358.31	2220.00
358.52	2195.42
358.73	2150.37
358.94	2125.79
359.15	2133.98
359.36	2301.92
359.57	2201.57
359.78	2215.90
359.99	2310.11
360.20	2068.45
360.41	2228.19
360.62	2330.59
360.83	2211.81
361.04	2269.15
361.25	2236.38
361.46	2326.49
361.67	2275.29
361.88	2279.39
362.09	2330.59
362.30	2291.68
362.51	2185.18
362.72	2195.42
362.93	2324.44
363.14	2287.58
363.35	2275.29
363.56	2185.18
363.78	2373.60
363.99	2314.20
364.20	2172.89
364.41	2273.25
364.62	2379.74
364.83	2240.48
365.04	2228.19
365.25	2166.75
365.46	2437.08
365.67	2136.03
365.88	2287.58
366.09	2201.57
366.30	2213.85
366.51	2258.91
366.72	2185.18
366.93	2207.71
367.14	2254.81
367.35	2396.12
367.56	2228.19
367.77	2346.97
367.98	2281.44
368.18	2346.97
368.39	2289.63
368.60	2115.55
368.81	2344.92
369.02	2285.53
369.23	2183.13
369.44	2115.55
369.65	2211.81
369.86	2353.12
370.07	2283.49
370.28	2217.95
370.49	2277.34
370.70	2328.54
370.91	2121.70
371.12	2195.42
371.33	2392.03
371.54	2269.15
371.75	2344.92
371.96	2045.92
372.17	2205.66
372.38	2269.15
372.59	2195.42
372.80	2162.66
373.01	2269.15
373.22	2287.58
373.43	2248.67
373.64	2078.69
373.85	2394.08
374.06	2422.75
374.26	2379.74
374.47	2283.49
374.68	2379.74
374.89	2314.20
375.10	2107.36
375.31	2318.30
375.52	2244.57
375.73	2267.10
375.94	2201.57
376.15	2365.40
376.36	2162.66
376.57	2176.99
376.78	2228.19
376.99	2254.81
377.20	2330.59
377.40	2250.72
377.61	2383.84
377.82	2152.42
378.03	2420.70
378.24	2326.49
378.45	2234.33
378.66	2260.96
378.87	2068.45
379.08	2111.46
379.29	2205.66
379.50	2260.96
379.71	2195.42
379.91	2316.25
380.12	2191.33
380.33	2211.81
380.54	2254.81
380.75	2260.96
380.96	2220.00
381.17	2224.09
381.38	2217.95
381.59	2269.15
381.80	2152.42
382.00	2402.27
382.21	2252.77
382.42	2441.18
382.63	2449.37
382.84	2281.44
383.05	2408.41
383.26	2445.27
383.47	2283.49
383.68	2334.68
383.88	2326.49
384.09	2316.25
384.30	2467.80
384.51	2330.59
384.72	2226.14
384.93	2105.31
385.14	2283.49
385.35	2349.02
385.55	2176.99
385.76	2385.88
385.97	2220.00
386.18	2203.61
386.39	2236.38
386.60	2224.09
386.81	2154.46
387.02	2168.80
387.22	2224.09
387.43	2306.01
387.64	2285.53
387.85	2457.56
388.06	2445.27
388.27	3925.96
388.48	7952.26
388.68	11505.49
388.89	13850.41
389.10	14903.07
389.31	13760.30
389.52	10790.75
389.73	9486.19
389.93	8482.69
390.14	7874.44
390.35	7143.32
390.56	6348.70
390.77	5164.98
390.98	4014.02
391.18	3209.17
391.39	2789.33
391.60	2389.98
391.81	2338.78
392.02	2232.29
392.23	2537.43
392.43	2295.77
392.64	2297.82
392.85	2297.82
393.06	2416.60
393.27	2226.14
393.47	2215.90
393.68	2234.33
393.89	2269.15
394.10	2373.60
394.31	2197.47
394.52	2133.98
394.72	2242.53
394.93	2389.98
395.14	2152.42
395.35	2344.92
395.56	2240.48
395.76	2230.24
395.97	2236.38
396.18	2375.64
396.39	2416.60
396.60	2746.33
396.80	2504.67
397.01	2430.94
397.22	2424.80
397.43	2396.12
397.64	2240.48
397.84	2332.64
398.05	2498.52
398.26	2277.34
398.47	2314.20
398.67	2310.11
398.88	2215.90
399.09	2351.07
399.30	2203.61
399.51	2289.63
399.71	2162.66
399.92	2154.46
400.13	2289.63
400.34	2170.85
400.54	2297.82
400.75	2459.61
400.96	2297.82
401.17	2443.23
401.37	2312.16
401.58	2191.33
401.79	2187.23
402.00	2281.44
402.21	2629.59
402.41	2576.34
402.62	2572.25
402.83	2654.17
403.04	2723.80
403.24	2781.14
403.45	2375.64
403.66	2547.67
403.87	2400.22
404.07	2480.09
404.28	2490.33
404.49	2519.00
404.70	2244.57
404.90	2312.16
405.11	2234.33
405.32	2224.09
405.52	2176.99
405.73	2154.46
405.94	2228.19
406.15	2201.57
406.35	2387.93
406.56	2283.49
406.77	2258.91
406.98	2267.10
407.18	2213.85
407.39	2453.47
407.60	2201.57
407.80	2322.40
408.01	2271.20
408.22	2293.72
408.43	2158.56
408.63	2238.43
408.84	2295.77
409.05	2392.03
409.25	2162.66
409.46	2109.41
409.67	2217.95
409.88	2207.71
410.08	2250.72
410.29	2260.96
410.50	2359.26
410.70	2242.53
410.91	2127.84
411.12	2287.58
411.32	2263.01
411.53	2170.85
411.74	2408.41
411.95	2252.77
412.15	2346.97
412.36	2392.03
412.57	2332.64
412.77	2332.64
412.98	2340.83
413.19	2265.05
413.39	2303.96
413.60	2267.10
413.81	2365.40
414.01	2152.42
414.22	2367.45
414.43	2392.03
414.63	2224.09
414.84	2351.07
415.05	2277.34
415.25	2133.98
415.46	2353.12
415.67	2211.81
415.87	2244.57
416.08	2340.83
416.29	2260.96
416.49	2248.67
416.70	2258.91
416.91	2168.80
417.11	2201.57
417.32	2322.40
417.53	2344.92
417.73	2293.72
417.94	2291.68
418.15	2324.44
418.35	2242.53
418.56	2236.38
418.77	2488.28
418.97	2269.15
419.18	2236.38
419.38	2072.54
419.59	2207.71
419.80	2357.21
420.00	2220.00
420.21	2234.33
420.42	2377.69
420.62	2308.06
420.83	2179.04
421.04	2258.91
421.24	2236.38
421.45	2238.43
421.65	2287.58
421.86	2232.29
422.07	2340.83
422.27	2256.86
422.48	2168.80
422.69	2119.65
422.89	2271.20
423.10	2240.48
423.30	2152.42
423.51	2277.34
423.72	2371.55
423.92	2242.53
424.13	2136.03
424.33	2299.87
424.54	2400.22
424.75	2250.72
424.95	2432.99
425.16	2310.11
425.36	2162.66
425.57	2326.49
425.78	2297.82
425.98	2297.82
426.19	2228.19
426.39	2152.42
426.60	2293.72
426.81	2398.17
427.01	2252.77
427.22	2170.85
427.42	2082.78
427.63	2125.79
427.83	2326.49
428.04	2406.36
428.25	2277.34
428.45	2359.26
428.66	2369.50
428.86	2289.63
429.07	2217.95
429.28	2328.54
429.48	2181.09
429.69	2123.74
429.89	2318.30
430.10	2066.40
430.30	2316.25
430.51	2389.98
430.71	2095.07
430.92	2269.15
431.13	2260.96
431.33	2392.03
431.54	2269.15
431.74	2324.44
431.95	2473.95
432.15	2236.38
432.36	2293.72
432.56	2340.83
432.77	2389.98
432.98	2443.23
433.18	2320.35
433.39	2154.46
433.59	2250.72
433.80	2439.13
434.00	2432.99
434.21	2310.11
434.41	2275.29
434.62	2480.09
434.82	2158.56
435.03	2097.12
435.23	2213.85
435.44	2097.12
435.64	2197.47
435.85	2283.49
436.06	2402.27
436.26	2275.29
436.47	2201.57
436.67	2152.42
436.88	2222.05
437.08	2363.36
437.29	2389.98
437.49	2297.82
437.70	2406.36
437.90	2220.00
438.11	2414.56
438.31	2336.73
438.52	2498.52
438.72	2451.42
438.93	2588.63
439.13	2301.92
439.34	2455.51
439.54	2260.96
439.75	2371.55
439.95	2271.20
440.16	2236.38
440.36	2338.78
440.57	2232.29
440.77	2310.11
440.98	2207.71
441.18	2314.20
441.39	2199.52
441.59	2064.35
441.80	2471.90
442.00	2193.37
442.21	2387.93
442.41	2123.74
442.62	2371.55
442.82	2201.57
443.02	2215.90
443.23	2242.53
443.43	2131.94
443.64	2371.55
443.84	2209.76
444.05	2334.68
444.25	2250.72
444.46	2281.44
444.66	2293.72
444.87	2437.08
445.07	2226.14
445.28	2293.72
445.48	2408.41
445.69	2326.49
445.89	2537.43
446.09	2375.64
446.30	2514.91
446.50	2901.97
446.71	4372.41
446.91	5463.98
447.12	6324.13
447.32	6606.75
447.53	6080.42
447.73	5044.15
447.93	4468.67
448.14	4153.28
448.34	4001.73
448.55	3581.90
448.75	3594.19
448.96	3385.29
449.16	2957.27
449.36	2922.45
449.57	2633.69
449.77	2426.84
449.98	2299.87
450.18	2297.82
450.39	2353.12
450.59	2379.74
450.79	2275.29
451.00	2224.09
451.20	2349.02
451.41	2297.82
451.61	2310.11
451.81	2240.48
452.02	2240.48
452.22	2260.96
452.43	2252.77
452.63	2242.53
452.84	2195.42
453.04	2242.53
453.24	2299.87
453.45	2158.56
453.65	2240.48
453.86	2260.96
454.06	2275.29
454.26	2222.05
454.47	2181.09
454.67	2367.45
454.87	2312.16
455.08	2308.06
455.28	2457.56
455.49	2308.06
455.69	2148.32
455.89	2527.19
456.10	2357.21
456.30	2252.77
456.51	2410.46
456.71	2318.30
456.91	2228.19
457.12	2248.67
457.32	2287.58
457.52	2170.85
457.73	2316.25
457.93	2359.26
458.14	2209.76
458.34	2119.65
458.54	2228.19
458.75	2199.52
458.95	2367.45
459.15	2342.88
459.36	2369.50
459.56	2244.57
459.76	2469.85
459.97	2332.64
460.17	2291.68
460.37	2359.26
460.58	2310.11
460.78	2379.74
460.99	2209.76
461.19	2301.92
461.39	2172.89
461.60	2238.43
461.80	2289.63
462.00	2217.95
462.21	2236.38
462.41	2195.42
462.61	2209.76
462.82	2105.31
463.02	2246.62
463.22	2187.23
463.43	2336.73
463.63	2318.30
463.83	2332.64
464.04	2314.20
464.24	2187.23
464.44	2191.33
464.64	2375.64
464.85	2379.74
465.05	2312.16
465.25	2224.09
465.46	2215.90
465.66	2336.73
465.86	2424.80
466.07	2308.06
466.27	2238.43
466.47	2111.46
466.68	2146.27
466.88	2422.75
467.08	2281.44
467.29	2346.97
467.49	2375.64
467.69	2238.43
467.89	2351.07
468.10	2213.85
468.30	2287.58
468.50	2353.12
468.71	2392.03
468.91	2164.70
469.11	2404.32
469.31	2258.91
469.52	2179.04
469.72	2459.61
469.92	2467.80
470.13	2193.37
470.33	2234.33
470.53	2367.45
470.73	2709.46
470.94	2914.26
471.14	3098.58
471.34	3504.07
471.54	3428.30
471.75	3076.05
471.95	2875.35
472.15	2719.70
472.36	2828.24
472.56	2645.98
472.76	2711.51
472.96	2619.35
473.17	2650.07
473.37	2541.53
473.57	2332.64
473.77	2306.01
473.98	2326.49
474.18	2156.51
474.38	2555.86
474.58	2201.57
474.79	2199.52
474.99	2359.26
475.19	2461.66
475.39	2072.54
475.60	2371.55
475.80	2299.87
476.00	2283.49
476.20	2220.00
476.41	2326.49
476.61	2357.21
476.81	2437.08
477.01	2156.51
477.21	2379.74
477.42	2430.94
477.62	2209.76
477.82	2359.26
478.02	2189.28
478.23	2287.58
478.43	2205.66
478.63	2203.61
478.83	2201.57
479.03	2273.25
479.24	2408.41
479.44	2428.89
479.64	2148.32
479.84	2033.63
480.04	2224.09
480.25	2340.83
480.45	2281.44
480.65	2248.67
480.85	2437.08
481.06	2291.68
481.26	2228.19
481.46	2310.11
481.66	2324.44
481.86	2162.66
482.06	2392.03
482.27	2217.95
482.47	2226.14
482.67	2205.66
482.87	2279.39
483.07	2322.40
483.28	2232.29
483.48	2217.95
483.68	2240.48
483.88	2195.42
484.08	2080.74
484.29	2129.89
484.49	2332.64
484.69	2097.12
484.89	2432.99
485.09	2369.50
485.29	2277.34
485.50	2371.55
485.70	2289.63
485.90	2355.16
486.10	2260.96
486.30	2293.72
486.50	2318.30
486.71	2310.11
486.91	2365.40
487.11	2367.45
487.31	2111.46
487.51	2260.96
487.71	2228.19
487.91	2123.74
488.12	2160.61
488.32	2041.82
488.52	2228.19
488.72	2056.16
488.92	2244.57
489.12	2392.03
489.32	2451.42
489.53	2244.57
489.73	2152.42
489.93	2357.21
490.13	2228.19
490.33	2133.98
490.53	2248.67
490.73	2406.36
490.94	2109.41
491.14	2265.05
491.34	2353.12
491.54	2574.30
491.74	3139.54
491.94	3719.11
492.14	4100.03
492.34	4071.36
492.54	3758.02
492.75	3246.03
492.95	3059.67
493.15	2930.64
493.35	3014.61
493.55	2838.48
493.75	2682.84
493.95	2750.42
494.15	2547.67
494.35	2396.12
494.56	2381.79
494.76	2242.53
494.96	2430.94
495.16	2254.81
495.36	2291.68
495.56	2234.33
495.76	2195.42
495.96	2232.29
496.16	2160.61
496.36	2473.95
496.56	2265.05
496.77	2236.38
496.97	2183.13
497.17	2351.07
497.37	2121.70
497.57	2281.44
497.77	2293.72
497.97	2191.33
498.17	2293.72
498.37	2179.04
498.57	2334.68
498.77	2209.76
498.97	2394.08
499.17	2576.34
499.38	2291.68
499.58	2332.64
499.78	2344.92
499.98	2338.78
500.18	2226.14
500.38	2222.05
500.58	2396.12
500.78	2893.78
500.98	5109.68
501.18	7110.55
501.38	8712.06
501.58	9592.69
501.78	9424.75
501.98	7487.37
502.18	6522.78
502.38	5570.48
502.58	5119.92
502.78	4642.75
502.98	4282.30
503.18	4243.39
503.38	3876.80
503.59	3305.42
503.79	3188.69
503.99	3006.42
504.19	2846.68
504.39	2781.14
504.59	2781.14
504.79	2881.49
504.99	2869.20
505.19	2605.02
505.39	2445.27
505.59	2615.26
505.79	2564.06
505.99	2453.47
506.19	2340.83
506.39	2504.67
506.59	2340.83
506.79	2293.72
506.99	2465.75
507.19	2299.87
507.39	2154.46
507.59	2224.09
507.79	2289.63
507.99	2215.90
508.19	2244.57
508.39	2236.38
508.59	2283.49
508.79	2326.49
508.99	2451.42
509.19	2168.80
509.39	2306.01
509.59	2199.52
509.79	2160.61
509.99	2271.20
510.19	2340.83
510.39	2430.94
510.59	2209.76
510.79	2203.61
510.99	2185.18
511.19	2285.53
511.39	2459.61
511.59	2451.42
511.79	2408.41
511.99	2301.92
512.19	2453.47
512.38	2277.34
512.58	2234.33
512.78	2287.58
512.98	2344.92
513.18	2451.42
513.38	2154.46
513.58	2306.01
513.78	2209.76
513.98	2195.42
514.18	2199.52
514.38	2244.57
514.58	2349.02
514.78	2187.23
514.98	2133.98
515.18	2191.33
515.38	2195.42
515.58	2394.08
515.78	2176.99
515.98	2201.57
516.18	2324.44
516.38	2209.76
516.57	2144.22
516.77	2224.09
516.97	2383.84
517.17	2146.27
517.37	2113.50
517.57	2340.83
517.77	2295.77
517.97	2215.90
518.17	2359.26
518.37	2127.84
518.57	2228.19
518.77	2176.99
518.97	2256.86
519.16	2289.63
519.36	2349.02
519.56	2246.62
519.76	2209.76
519.96	2244.57
520.16	2406.36
520.36	2170.85
520.56	2441.18
520.76	2197.47
520.96	2220.00
521.16	2375.64
521.35	2441.18
521.55	2349.02
521.75	2252.77
521.95	2254.81
522.15	2265.05
522.35	2187.23
522.55	2226.14
522.75	2285.53
522.95	2256.86
523.14	2162.66
523.34	2260.96
523.54	2179.04
523.74	2275.29
523.94	2277.34
524.14	2154.46
524.34	2359.26
524.54	2394.08
524.73	2277.34
524.93	2430.94
525.13	2330.59
525.33	2250.72
525.53	2457.56
525.73	2318.30
525.93	2287.58
526.13	2224.09
526.32	2211.81
526.52	2328.54
526.72	2228.19
526.92	2283.49
527.12	2224.09
527.32	2140.13
527.52	2287.58
527.71	2316.25
527.91	2242.53
528.11	2185.18
528.31	2322.40
528.51	2148.32
528.71	2312.16
528.90	2365.40
529.10	2404.32
529.30	2435.03
529.50	2113.50
529.70	2365.40
529.90	2234.33
530.09	2250.72
530.29	2174.94
530.49	2138.08
530.69	2514.91
530.89	2271.20
531.09	2314.20
531.28	2291.68
531.48	2367.45
531.68	2228.19
531.88	2260.96
532.08	2324.44
532.28	2228.19
532.47	2342.88
532.67	2328.54
532.87	2310.11
533.07	2201.57
533.27	2359.26
533.46	2308.06
533.66	2324.44
533.86	2297.82
534.06	2320.35
534.26	2330.59
534.45	2199.52
534.65	2326.49
534.85	2318.30
535.05	2191.33
535.25	2385.88
535.44	2166.75
535.64	2275.29
535.84	2244.57
536.04	2263.01
536.24	2209.76
536.43	2164.70
536.63	2217.95
536.83	2248.67
537.03	2244.57
537.22	2066.40
537.42	2133.98
537.62	2273.25
537.82	2187.23
538.02	2353.12
538.21	2336.73
538.41	2586.58
538.61	2291.68
538.81	2279.39
539.00	2381.79
539.20	2109.41
539.40	2234.33
539.60	2228.19
539.79	2334.68
539.99	2265.05
540.19	2179.04
540.39	2234.33
540.58	2306.01
540.78	2377.69
540.98	2314.20
541.18	2400.22
541.37	2351.07
541.57	2312.16
541.77	2299.87
541.97	2258.91
542.16	2187.23
542.36	2174.94
542.56	2314.20
542.76	2389.98
542.95	2351.07
543.15	2381.79
543.35	2385.88
543.54	2150.37
543.74	2181.09
543.94	2467.80
544.14	2248.67
544.33	2342.88
544.53	2281.44
544.73	2248.67
544.93	2176.99
545.12	2211.81
545.32	2267.10
545.52	2285.53
545.71	2166.75
545.91	2240.48
546.11	2238.43
546.30	2109.41
546.50	2283.49
546.70	2281.44
546.90	2211.81
547.09	2150.37
547.29	2254.81
547.49	2324.44
547.68	2242.53
547.88	2246.62
548.08	2338.78
548.27	2768.85
548.47	2256.86
548.67	2228.19
548.87	2314.20
549.06	2283.49
549.26	2273.25
549.46	2265.05
549.65	2224.09
549.85	2285.53
550.05	2359.26
550.24	2113.50
550.44	2301.92
550.64	2209.76
550.83	2250.72
551.03	2377.69
551.23	2365.40
551.42	2314.20
551.62	2267.10
551.82	2248.67
552.01	2283.49
552.21	2326.49
552.41	2295.77
552.60	2389.98
552.80	2189.28
553.00	2144.22
553.19	2328.54
553.39	2447.32
553.59	2142.18
553.78	2351.07
553.98	2248.67
554.17	2142.18
554.37	2369.50
554.57	2326.49
554.76	2084.83
554.96	2201.57
555.16	2195.42
555.35	2275.29
555.55	2303.96
555.75	2342.88
555.94	2398.17
556.14	2103.26
556.33	2289.63
556.53	2197.47
556.73	2301.92
556.92	2297.82
557.12	2357.21
557.32	2502.62
557.51	2389.98
557.71	2396.12
557.90	2346.97
558.10	2346.97
558.30	2297.82
558.49	2244.57
558.69	2211.81
558.88	2330.59
559.08	2308.06
559.28	2230.24
559.47	2310.11
559.67	2250.72
559.86	2559.96
560.06	2297.82
560.26	2209.76
560.45	2314.20
560.65	2285.53
560.84	2420.70
561.04	2211.81
561.24	2383.84
561.43	2117.60
561.63	2398.17
561.82	2334.68
562.02	2363.36
562.22	2232.29
562.41	2095.07
562.61	2183.13
562.80	2203.61
563.00	2539.48
563.19	2287.58
563.39	2324.44
563.59	2408.41
563.78	2154.46
563.98	2088.93
564.17	2195.42
564.37	2160.61
564.56	2277.34
564.76	2150.37
564.96	2301.92
565.15	2355.16
565.35	2562.01
565.54	2222.05
565.74	2363.36
565.93	2381.79
566.13	2242.53
566.32	2275.29
566.52	2330.59
566.71	2269.15
566.91	2351.07
567.11	2293.72
567.30	2195.42
567.50	2340.83
567.69	2308.06
567.89	2187.23
568.08	2166.75
568.28	2320.35
568.47	2142.18
568.67	2275.29
568.86	2234.33
569.06	2303.96
569.25	2228.19
569.45	2123.74
569.64	2191.33
569.84	2213.85
570.04	2381.79
570.23	2267.10
570.43	2234.33
570.62	2271.20
570.82	2389.98
571.01	2156.51
571.21	2203.61
571.40	2185.18
571.60	2310.11
571.79	2301.92
571.99	2295.77
572.18	2191.33
572.38	2334.68
572.57	2275.29
572.77	2410.46
572.96	2559.96
573.16	2349.02
573.35	2228.19
573.55	2414.56
573.74	2252.77
573.94	2263.01
574.13	2310.11
574.33	2365.40
574.52	2469.85
574.71	2277.34
574.91	2359.26
575.10	2224.09
575.30	2244.57
575.49	2226.14
575.69	2113.50
575.88	2308.06
576.08	2267.10
576.27	2346.97
576.47	2287.58
576.66	2457.56
576.86	2430.94
577.05	2320.35
577.25	2365.40
577.44	2461.66
577.64	2213.85
577.83	2422.75
578.02	2283.49
578.22	2353.12
578.41	2486.23
578.61	2213.85
578.80	2138.08
579.00	2320.35
579.19	2260.96
579.39	2336.73
579.58	2396.12
579.77	2330.59
579.97	2445.27
580.16	2385.88
580.36	2342.88
580.55	2480.09
580.75	2398.17
580.94	2332.64
581.13	2467.80
581.33	2353.12
581.52	2254.81
581.72	2486.23
581.91	2430.94
582.11	2303.96
582.30	2316.25
582.49	2379.74
582.69	2504.67
582.88	2396.12
583.08	2295.77
583.27	2445.27
583.47	2346.97
583.66	2201.57
583.85	2193.37
584.05	2289.63
584.24	2291.68
584.44	2404.32
584.63	2320.35
584.82	2435.03
585.02	2430.94
585.21	2392.03
585.41	2480.09
585.60	2443.23
585.79	2531.29
585.99	2480.09
586.18	2475.99
586.37	2959.31
586.57	4583.35
586.76	13489.97
586.96	32863.75
587.15	45962.56
587.34	55489.71
587.54	60818.53
587.73	55729.33
587.93	38811.06
588.12	29580.86
588.31	23764.63
588.51	20563.65
588.70	19144.41
588.89	17258.23
589.09	14921.50
589.28	12842.81
589.47	10239.84
589.67	8284.03
589.86	6346.66
590.06	4603.83
590.25	3862.47
590.44	3260.37
590.64	2754.52
590.83	2662.36
591.02	2537.43
591.22	2359.26
591.41	2392.03
591.60	2275.29
591.80	2549.72
591.99	2146.27
592.18	2234.33
592.38	2371.55
592.57	2281.44
592.76	2367.45
592.96	2267.10
593.15	2301.92
593.34	2361.31
593.54	2277.34
593.73	2385.88
593.92	2334.68
594.12	2287.58
594.31	2349.02
594.50	2465.75
594.70	2432.99
594.89	2572.25
595.08	2138.08
595.28	2258.91
595.47	2648.02
595.66	2447.32
595.86	2166.75
596.05	2275.29
596.24	2291.68
596.43	2447.32
596.63	2396.12
596.82	2299.87
597.01	2275.29
597.21	2498.52
597.40	2351.07
597.59	2250.72
597.79	2301.92
597.98	2334.68
598.17	2379.74
598.36	2297.82
598.56	2359.26
598.75	2308.06
598.94	2222.05
599.14	2365.40
599.33	2138.08
599.52	2383.84
599.71	2312.16
599.91	2379.74
600.10	2342.88
600.29	2310.11
600.48	2342.88
600.68	2301.92
600.87	2342.88
601.06	2269.15
601.26	2281.44
601.45	2322.40
601.64	2269.15
601.83	2449.37
602.03	2236.38
602.22	2129.89
602.41	2392.03
602.60	2512.86
602.80	2414.56
602.99	2295.77
603.18	2203.61
603.37	2301.92
603.57	2228.19
603.76	2334.68
603.95	2412.51
604.14	2248.67
604.34	2185.18
604.53	2285.53
604.72	2318.30
604.91	2392.03
605.10	2332.64
605.30	2127.84
605.49	2529.24
605.68	2316.25
605.87	2265.05
606.07	2209.76
606.26	2293.72
606.45	2332.64
606.64	2316.25
606.84	2295.77
607.03	2275.29
607.22	2392.03
607.41	2273.25
607.60	2289.63
607.80	2412.51
607.99	2316.25
608.18	2287.58
608.37	2316.25
608.56	2271.20
608.76	2437.08
608.95	2373.60
609.14	2322.40
609.33	2500.57
609.52	2422.75
609.72	2342.88
609.91	2414.56
610.10	2320.35
610.29	2432.99
610.48	2359.26
610.68	2314.20
610.87	2359.26
611.06	2416.60
611.25	2242.53
611.44	2381.79
611.63	2293.72
611.83	2379.74
612.02	2119.65
612.21	2349.02
612.40	2007.01
612.59	2242.53
612.79	2168.80
612.98	2254.81
613.17	2346.97
613.36	2306.01
613.55	2389.98
613.74	2326.49
613.93	2349.02
614.13	2502.62
614.32	2467.80
614.51	2445.27
614.70	2342.88
614.89	2310.11
615.08	2400.22
615.28	2789.33
615.47	2199.52
615.66	2346.97
615.85	2318.30
616.04	2441.18
616.23	2269.15
616.42	2373.60
616.62	2377.69
616.81	2326.49
617.00	2258.91
617.19	2289.63
617.38	2193.37
617.57	2236.38
617.76	2377.69
617.95	2351.07
618.15	2340.83
618.34	2480.09
618.53	2142.18
618.72	2369.50
618.91	2439.13
619.10	2383.84
619.29	2293.72
619.48	2242.53
619.68	2179.04
619.87	2265.05
620.06	2211.81
620.25	2346.97
620.44	2201.57
620.63	2299.87
620.82	2383.84
621.01	2322.40
621.20	2293.72
621.39	2314.20
621.59	2367.45
621.78	2220.00
621.97	2318.30
622.16	2293.72
622.35	2346.97
622.54	2387.93
622.73	2340.83
622.92	2164.70
623.11	2392.03
623.30	2269.15
623.49	2281.44
623.68	2246.62
623.88	2396.12
624.07	2189.28
624.26	2170.85
624.45	2324.44
624.64	2209.76
624.83	2252.77
625.02	2156.51
625.21	2248.67
625.40	2258.91
625.59	2383.84
625.78	2326.49
625.97	2344.92
626.16	2441.18
626.35	2439.13
626.54	2316.25
626.74	2424.80
626.93	2273.25
627.12	2287.58
627.31	2316.25
627.50	2293.72
627.69	2361.31
627.88	2172.89
628.07	2220.00
628.26	2072.54
628.45	2252.77
628.64	2179.04
628.83	2277.34
629.02	2224.09
629.21	2306.01
629.40	2295.77
629.59	2263.01
629.78	2181.09
629.97	2269.15
630.16	2250.72
630.35	2297.82
630.54	2301.92
630.73	2234.33
630.92	2181.09
631.11	2213.85
631.30	2281.44
631.49	2330.59
631.68	2250.72
631.87	2213.85
632.06	2121.70
632.25	2445.27
632.44	2228.19
632.63	2340.83
632.82	2330.59
633.01	2267.10
633.20	2318.30
633.39	2342.88
633.58	2207.71
633.77	2408.41
633.96	2303.96
634.15	2406.36
634.34	2310.11
634.53	2355.16
634.72	2291.68
634.91	2185.18
635.10	2279.39
635.29	2359.26
635.48	2316.25
635.67	2195.42
635.86	2154.46
636.05	2375.64
636.24	2238.43
636.43	2242.53
636.62	2375.64
636.81	2101.22
637.00	2209.76
637.19	2349.02
637.38	2283.49
637.57	2209.76
637.76	2301.92
637.95	2389.98
638.14	2306.01
638.33	2357.21
638.52	2265.05
638.71	2193.37
638.89	2213.85
639.08	2490.33
639.27	2432.99
639.46	2482.14
639.65	2893.78
639.84	2826.20
640.03	2949.08
640.22	2889.68
640.41	2899.92
640.60	2510.81
640.79	2510.81
640.98	2461.66
641.17	2492.38
641.36	2469.85
641.55	2394.08
641.74	2230.24
641.92	2260.96
642.11	2154.46
642.30	2267.10
642.49	2236.38
642.68	2289.63
642.87	2346.97
643.06	2281.44
643.25	2160.61
643.44	2191.33
643.63	2256.86
643.82	2265.05
644.00	2113.50
644.19	2211.81
644.38	2103.26
644.57	2269.15
644.76	2324.44
644.95	2252.77
645.14	2338.78
645.33	2236.38
645.52	2234.33
645.71	2222.05
645.89	2160.61
646.08	2254.81
646.27	2080.74
646.46	2510.81
646.65	2111.46
646.84	2263.01
647.03	2144.22
647.22	2355.16
647.40	2217.95
647.59	2252.77
647.78	2117.60
647.97	2152.42
648.16	2213.85
648.35	2449.37
648.54	2357.21
648.73	2201.57
648.91	2299.87
649.10	2240.48
649.29	2230.24
649.48	2242.53
649.67	2281.44
649.86	2275.29
650.05	2179.04
650.23	2482.14
650.42	2322.40
650.61	2545.63
650.80	2502.62
650.99	2535.39
651.18	2424.80
651.36	2488.28
651.55	2267.10
651.74	2349.02
651.93	2322.40
652.12	2334.68
652.31	2226.14
652.49	2244.57
652.68	2260.96
652.87	2346.97
653.06	2375.64
653.25	2457.56
653.44	2183.13
653.62	2465.75
653.81	2254.81
654.00	2215.90
654.19	2359.26
654.38	2572.25
654.56	2324.44
654.75	2289.63
654.94	2394.08
655.13	2254.81
655.32	2283.49
655.51	2351.07
655.69	2271.20
655.88	2314.20
656.07	2209.76
656.26	2369.50
656.45	2144.22
656.63	2308.06
656.82	2232.29
657.01	2379.74
657.20	2252.77
657.38	2408.41
657.57	2226.14
657.76	2109.41
657.95	2406.36
658.14	2162.66
658.32	2318.30
658.51	2224.09
658.70	2373.60
658.89	2297.82
659.08	2287.58
659.26	2416.60
659.45	2183.13
659.64	2447.32
659.83	2228.19
660.01	2650.07
660.20	2353.12
660.39	2443.23
660.58	2097.12
660.76	2250.72
660.95	2162.66
661.14	2267.10
661.33	2156.51
661.51	2240.48
661.70	2316.25
661.89	2402.27
662.08	2230.24
662.26	2144.22
662.45	2170.85
662.64	2432.99
662.83	2353.12
663.01	2127.84
663.20	2203.61
663.39	2398.17
663.58	2224.09
663.76	2240.48
663.95	2367.45
664.14	2162.66
664.32	2236.38
664.51	2119.65
664.70	2146.27
664.89	2275.29
665.07	2138.08
665.26	2375.64
665.45	2146.27
665.64	2279.39
665.82	2203.61
666.01	2334.68
666.20	2191.33
666.38	2342.88
666.57	2471.90
666.76	3438.54
666.95	8124.29
667.13	16105.23
667.32	21077.69
667.51	24694.41
667.69	26140.27
667.88	23764.63
668.07	16893.69
668.25	13838.12
668.44	11415.38
668.63	9922.41
668.81	8808.31
669.00	7634.83
669.19	6823.83
669.38	5961.64
669.56	5042.10
669.75	4235.20
669.94	3602.38
670.12	3106.77
670.31	2764.76
670.50	2531.29
670.68	2521.05
670.87	2424.80
671.06	2383.84
671.24	2408.41
671.43	2455.51
671.62	2248.67
671.80	2152.42
671.99	2379.74
672.18	2291.68
672.36	2363.36
672.55	2363.36
672.74	2260.96
672.92	2220.00
673.11	2256.86
673.29	2179.04
673.48	2336.73
673.67	2220.00
673.85	2430.94
674.04	2131.94
674.23	2230.24
674.41	2475.99
674.60	2203.61
674.79	2193.37
674.97	2211.81
675.16	2336.73
675.34	2310.11
675.53	2129.89
675.72	2330.59
675.90	2449.37
676.09	2217.95
676.28	2269.15
676.46	2166.75
676.65	2318.30
676.83	2170.85
677.02	2224.09
677.21	2238.43
677.39	2248.67
677.58	2191.33
677.77	2213.85
677.95	2199.52
678.14	2256.86
678.32	2301.92
678.51	2191.33
678.70	2449.37
678.88	2263.01
679.07	2301.92
679.25	2254.81
679.44	2248.67
679.63	2140.13
679.81	2318.30
680.00	2420.70
680.18	2222.05
680.37	2406.36
680.55	2265.05
680.74	2090.98
680.93	2078.69
681.11	2326.49
681.30	2211.81
681.48	2220.00
681.67	2119.65
681.85	2277.34
682.04	2226.14
682.23	2375.64
682.41	2250.72
682.60	2217.95
682.78	2326.49
682.97	2195.42
683.15	2291.68
683.34	2263.01
683.53	2451.42
683.71	2004.96
683.90	2379.74
684.08	2512.86
684.27	2244.57
684.45	2310.11
684.64	2355.16
684.82	2310.11
685.01	2301.92
685.19	2269.15
685.38	2420.70
685.57	2340.83
685.75	2166.75
685.94	2187.23
686.12	2211.81
686.31	2201.57
686.49	2381.79
686.68	2095.07
686.86	2338.78
687.05	2236.38
687.23	2412.51
687.42	2133.98
687.60	2037.73
687.79	2363.36
687.97	2473.95
688.16	2267.10
688.34	2310.11
688.53	2117.60
688.71	2297.82
688.90	2394.08
689.08	2215.90
689.27	2146.27
689.45	2338.78
689.64	2234.33
689.82	2301.92
690.01	2250.72
690.19	2252.77
690.38	2334.68
690.56	2312.16
690.75	2152.42
690.93	2179.04
691.12	2207.71
691.30	2242.53
691.49	2234.33
691.67	2258.91
691.86	2488.28
692.04	2265.05
692.23	2201.57
692.41	2326.49
692.60	2568.15
692.78	2412.51
692.97	2291.68
693.15	2322.40
693.34	2480.09
693.52	2310.11
693.71	2234.33
693.89	2183.13
694.08	2119.65
694.26	2283.49
694.44	2334.68
694.63	2322.40
694.81	2164.70
695.00	2211.81
695.18	2330.59
695.37	2502.62
695.55	2269.15
695.74	2250.72
695.92	2183.13
696.10	2428.89
696.29	2072.54
696.47	2220.00
696.66	2131.94
696.84	2146.27
697.03	2228.19
697.21	2447.32
697.40	3332.05
697.58	2490.33
697.76	2205.66
697.95	2252.77
698.13	2150.37
698.32	2185.18
698.50	2297.82
698.68	2340.83
698.87	2277.34
699.05	2451.42
699.24	2252.77
699.42	2117.60
699.61	2279.39
699.79	2174.94
699.97	2258.91
700.16	2113.50
700.34	2168.80
700.53	2228.19
700.71	2389.98
700.89	2359.26
701.08	2217.95
701.26	2246.62
701.45	2760.66
701.63	2211.81
701.81	2260.96
702.00	2179.04
702.18	2197.47
702.37	2213.85
702.55	2533.34
702.73	2435.03
702.92	2269.15
703.10	2432.99
703.28	2449.37
703.47	2291.68
703.65	2428.89
703.84	2359.26
704.02	2289.63
704.20	2486.23
704.39	2236.38
704.57	2234.33
704.75	2392.03
704.94	2363.36
705.12	2303.96
705.30	2588.63
705.49	4519.87
705.67	10362.72
705.86	17938.16
706.04	21620.41
706.22	24704.65
706.41	25839.22
706.59	21993.14
706.77	15423.25
706.96	12982.07
707.14	11442.00
707.32	9699.18
707.51	8714.11
707.69	7348.11
707.87	5836.71
708.06	4775.86
708.24	3870.66
708.42	3168.21
708.61	3002.32
708.79	2473.95
708.97	2416.60
709.16	2473.95
709.34	2357.21
709.52	2275.29
709.71	2308.06
709.89	2318.30
710.07	2269.15
710.26	2172.89
710.44	2299.87
710.62	2344.92
710.80	2289.63
710.99	2273.25
711.17	2328.54
711.35	2197.47
711.54	2181.09
711.72	2398.17
711.90	2291.68
712.09	2318.30
712.27	2197.47
712.45	2342.88
712.63	2195.42
712.82	2285.53
713.00	2299.87
713.18	2289.63
713.37	2336.73
713.55	2297.82
713.73	2338.78
713.91	2342.88
714.10	2199.52
714.28	2154.46
714.46	2293.72
714.65	2318.30
714.83	2275.29
715.01	2226.14
715.19	2281.44
715.38	2168.80
715.56	2271.20
715.74	2142.18
715.92	2224.09
716.11	2445.27
716.29	2078.69
716.47	2293.72
716.65	2228.19
716.84	2119.65
717.02	2349.02
717.20	2084.83
717.38	2215.90
717.57	2283.49
717.75	2281.44
717.93	2174.94
718.11	2254.81
718.30	2066.40
718.48	2306.01
718.66	2301.92
718.84	2441.18
719.03	2242.53
719.21	2158.56
719.39	2406.36
719.57	2318.30
719.75	2400.22
719.94	2187.23
720.12	2211.81
720.30	2285.53
720.48	2349.02
720.67	2228.19
720.85	2103.26
721.03	2242.53
721.21	2154.46
721.39	2381.79
721.58	2295.77
721.76	2213.85
721.94	2306.01
722.12	2297.82
722.30	2396.12
722.49	2201.57
722.67	2303.96
722.85	2324.44
723.03	2039.78
723.21	2191.33
723.40	2281.44
723.58	2361.31
723.76	2303.96
723.94	2494.43
724.12	2357.21
724.30	2404.32
724.49	2455.51
724.67	2260.96
724.85	2412.51
725.03	2062.30
725.21	2334.68
725.40	2387.93
725.58	2154.46
725.76	2365.40
725.94	2314.20
726.12	2136.03
726.30	2197.47
726.49	2195.42
726.67	2234.33
726.85	2275.29
727.03	2506.71
727.21	3655.62
727.39	5103.54
727.57	5900.20
727.76	6401.95
727.94	6543.26
728.12	6387.61
728.30	5124.02
728.48	4456.38
728.66	4159.42
728.84	3743.69
729.03	3215.31
729.21	3022.80
729.39	2703.32
729.57	2496.47
729.75	2443.23
729.93	2342.88
730.11	2322.40
730.30	2195.42
730.48	2224.09
730.66	2392.03
730.84	2332.64
731.02	2248.67
731.20	2230.24
731.38	2250.72
731.56	2160.61
731.74	2101.22
731.93	2252.77
732.11	2236.38
732.29	2203.61
732.47	2383.84
732.65	2303.96
732.83	2420.70
733.01	2256.86
733.19	2123.74
733.37	2322.40
733.56	2355.16
733.74	2224.09
733.92	2365.40
734.10	2232.29
734.28	2316.25
734.46	2138.08
734.64	2201.57
734.82	2263.01
735.00	2191.33
735.18	2146.27
735.36	2269.15
735.54	2238.43
735.73	2220.00
735.91	2213.85
736.09	2328.54
736.27	2181.09
736.45	2289.63
736.63	2068.45
736.81	2185.18
736.99	2408.41
737.17	2361.31
737.35	2252.77
737.53	2277.34
737.71	2211.81
737.89	2375.64
738.07	2238.43
738.25	2133.98
738.43	2072.54
738.61	2193.37
738.80	2158.56
738.98	2220.00
739.16	2220.00
739.34	2234.33
739.52	2398.17
739.70	2154.46
739.88	2428.89
740.06	2375.64
740.24	1986.53
740.42	2340.83
740.60	2154.46
740.78	2086.88
740.96	2146.27
741.14	2187.23
741.32	2269.15
741.50	2191.33
741.68	2457.56
741.86	2371.55
742.04	2234.33
742.22	2220.00
742.40	2269.15
742.58	2301.92
742.76	2179.04
742.94	2342.88
743.12	2125.79
743.30	2285.53
743.48	2279.39
743.66	2197.47
743.84	2293.72
744.02	2252.77
744.20	2209.76
744.38	2170.85
744.56	2191.33
744.74	2428.89
744.92	2281.44
745.10	2453.47
745.28	2281.44
745.46	2414.56
745.64	2183.13
745.82	2301.92
746.00	2224.09
746.18	2256.86
746.36	2203.61
746.54	2246.62
746.72	2232.29
746.90	2166.75
747.08	2340.83
747.26	2195.42
747.44	2326.49
747.62	2340.83
747.80	2236.38
747.98	2328.54
748.15	2285.53
748.33	2439.13
748.51	2256.86
748.69	2301.92
748.87	2215.90
749.05	2258.91
749.23	2271.20
749.41	2324.44
749.59	2176.99
749.77	2344.92
749.95	2220.00
750.13	2158.56
750.31	2265.05
750.49	2297.82
750.67	2330.59
750.85	2375.64
751.03	2199.52
751.20	2498.52
751.38	2246.62
751.56	2156.51
751.74	2222.05
751.92	2250.72
752.10	2172.89
752.28	2406.36
752.46	2242.53
752.64	2207.71
752.82	2287.58
753.00	2299.87
753.18	2252.77
753.35	2232.29
753.53	2207.71
753.71	2213.85
753.89	2310.11
754.07	2265.05
754.25	2365.40
754.43	2275.29
754.61	2111.46
754.79	2269.15
754.97	2138.08
755.14	2326.49
755.32	2119.65
755.50	2295.77
755.68	2248.67
755.86	2146.27
756.04	2176.99
756.22	2101.22
756.40	2324.44
756.57	2414.56
756.75	2144.22
756.93	2330.59
757.11	2318.30
757.29	2193.37
757.47	2138.08
757.65	2113.50
757.82	2070.50
758.00	2146.27
758.18	2203.61
758.36	2146.27
758.54	2383.84
758.72	2113.50
758.90	2330.59
759.07	2260.96
759.25	2179.04
759.43	2269.15
759.61	2138.08
759.79	3194.83
759.97	2365.40
760.15	2144.22
760.32	2236.38
760.50	2326.49
760.68	2406.36
760.86	2131.94
761.04	2351.07
761.22	2371.55
761.39	2252.77
761.57	2287.58
761.75	2267.10
761.93	2387.93
762.11	2203.61
762.28	2224.09
762.46	2093.02
762.64	2385.88
762.82	2121.70
763.00	2252.77
763.18	2430.94
763.35	2189.28
763.53	2275.29
763.71	2273.25
763.89	2260.96
764.07	2310.11
764.24	2318.30
764.42	2306.01
764.60	2258.91
764.78	2275.29
764.96	2320.35
765.13	2346.97
765.31	2236.38
765.49	2308.06
765.67	2142.18
765.84	2215.90
766.02	2191.33
766.20	2105.31
766.38	2277.34
766.56	2217.95
766.73	2351.07
766.91	2236.38
767.09	2252.77
767.27	2258.91
767.44	2123.74
767.62	2324.44
767.80	2189.28
767.98	2199.52
768.15	2191.33
768.33	2244.57
768.51	2285.53
768.69	2201.57
768.87	2314.20
769.04	2244.57
769.22	2510.81
769.40	2383.84
769.58	2424.80
769.75	2246.62
769.93	2342.88
770.11	2228.19
770.28	2136.03
770.46	2277.34
770.64	2291.68
770.82	2289.63
770.99	2181.09
771.17	2228.19
771.35	2199.52
771.53	2160.61
771.70	2226.14
771.88	2273.25
772.06	2246.62
772.23	2166.75
772.41	2338.78
772.59	2260.96
772.77	2097.12
772.94	2220.00
773.12	2226.14
773.30	2277.34
773.47	2277.34
773.65	2240.48
773.83	2277.34
774.01	2138.08
774.18	2158.56
774.36	2277.34
774.54	2142.18
774.71	2279.39
774.89	2101.22
775.07	2142.18
775.24	2203.61
775.42	2244.57
775.60	2449.37
775.78	2187.23
775.95	2140.13
776.13	2074.59
776.31	2019.30
776.48	2283.49
776.66	2408.41
776.84	2203.61
777.01	2168.80
777.19	2201.57
777.37	2205.66
777.54	2281.44
777.72	2451.42
777.90	2318.30
778.07	2172.89
778.25	2605.02
778.43	2306.01
778.60	2187.23
778.78	2232.29
778.96	2369.50
779.13	2152.42
779.31	2310.11
779.49	2168.80
779.66	2310.11
779.84	2269.15
780.01	2234.33
780.19	2136.03
780.37	2353.12
780.54	2310.11
780.72	2162.66
780.90	2199.52
781.07	2172.89
781.25	2265.05
781.43	2371.55
781.60	2271.20
781.78	2312.16
781.95	2269.15
782.13	2154.46
782.31	2269.15
782.48	2105.31
782.66	2285.53
782.83	2414.56
783.01	2242.53
783.19	2367.45
783.36	2238.43
783.54	2105.31
783.72	2394.08
783.89	2224.09
784.07	2265.05
784.24	2260.96
784.42	2392.03
784.60	2207.71
784.77	2328.54
784.95	2093.02
785.12	2244.57
785.30	2248.67
785.47	2211.81
785.65	2199.52
785.83	2285.53
786.00	2224.09
786.18	2217.95
786.35	2158.56
786.53	2209.76
786.71	2385.88
786.88	2269.15
787.06	2250.72
787.23	2271.20
787.41	2156.51
787.58	2242.53
787.76	2148.32
787.94	2232.29
788.11	2207.71
788.29	2164.70
788.46	2170.85
788.64	2076.64
788.81	2140.13
788.99	2234.33
789.16	2068.45
789.34	2215.90
789.52	2166.75
789.69	2236.38
789.87	2088.93
790.04	2187.23
790.22	2269.15
790.39	2555.86
790.57	2125.79
790.74	2209.76
790.92	2365.40
791.09	2119.65
791.27	2283.49
791.44	2338.78
791.62	2273.25
791.79	2205.66
791.97	2232.29
792.15	2510.81
792.32	2314.20
792.50	2392.03
792.67	2367.45
792.85	2424.80
793.02	2191.33
793.20	2230.24
793.37	2127.84
793.55	2232.29
793.72	2129.89
793.90	2322.40
794.07	2187.23
794.25	2273.25
794.42	2316.25
794.60	2195.42
794.77	2299.87
794.95	2283.49
795.12	2336.73
795.30	2179.04
795.47	2086.88
795.65	2469.85
795.82	2310.11
796.00	2174.94
796.17	2273.25
796.34	2158.56
796.52	2148.32
796.69	2310.11
796.87	2314.20
797.04	2252.77
797.22	2398.17
797.39	2256.86
797.57	2334.68
797.74	2240.48
797.92	2322.40
798.09	2230.24
798.27	2340.83
798.44	2172.89
798.62	2121.70
798.79	2240.48
798.96	2306.01
799.14	2244.57
799.31	2541.53
799.49	2183.13
799.66	2160.61
799.84	2252.77
800.01	2107.36
800.19	2375.64
800.36	2064.35
800.53	2234.33
800.71	2349.02
800.88	2381.79
801.06	2181.09
801.23	2215.90
801.41	2293.72
801.58	2240.48
801.75	2236.38
801.93	2234.33
802.10	2326.49
802.28	2224.09
802.45	2185.18
802.63	2359.26
802.80	2373.60
802.97	2277.34
803.15	2242.53
803.32	2195.42
803.50	2142.18
803.67	2158.56
803.84	2168.80
804.02	2146.27
804.19	2220.00
804.37	1984.48
804.54	2054.11
804.71	2269.15
804.89	2263.01
805.06	2150.37
805.24	2158.56
805.41	2127.84
805.58	2215.90
805.76	2574.30
805.93	2203.61
806.10	2357.21
806.28	2273.25
806.45	2201.57
806.63	2312.16
806.80	2314.20
806.97	2258.91
807.15	2295.77
807.32	2334.68
807.49	2291.68
807.67	2101.22
807.84	2277.34
808.01	2121.70
808.19	2371.55
808.36	2514.91
808.54	2121.70
808.71	2168.80
808.88	2254.81
809.06	2310.11
809.23	2471.90
809.40	2172.89
809.58	2297.82
809.75	2252.77
809.92	2183.13
810.10	2488.28
810.27	2154.46
810.44	2234.33
810.62	2342.88
810.79	2252.77
810.96	2158.56
811.14	2220.00
811.31	2340.83
811.48	2267.10
811.66	2240.48
811.83	2387.93
812.00	2240.48
812.18	2230.24
812.35	2435.03
812.52	2269.15
812.69	2189.28
812.87	2220.00
813.04	2164.70
813.21	2187.23
813.39	2189.28
813.56	2076.64
813.73	2396.12
813.91	2084.83
814.08	2267.10
814.25	2258.91
814.42	2066.40
814.60	2211.81
814.77	2232.29
814.94	2240.48
815.12	2254.81
815.29	2416.60
815.46	2308.06
815.63	2250.72
815.81	2211.81
815.98	2291.68
816.15	2222.05
816.33	2326.49
816.50	2170.85
816.67	2226.14
816.84	2240.48
817.02	2097.12
817.19	2211.81
817.36	2220.00
817.53	2289.63
817.71	2166.75
817.88	2308.06
818.05	2193.37
818.22	2228.19
818.40	2422.75
818.57	2197.47
818.74	2361.31
818.91	2250.72
819.09	2310.11
819.26	2322.40
819.43	2140.13
819.60	2195.42
819.78	2213.85
819.95	2332.64
820.12	2187.23
820.29	2381.79
820.47	2449.37
820.64	2281.44
820.81	2121.70
820.98	2185.18
821.15	2252.77
821.33	2316.25
821.50	2129.89
821.67	2279.39
821.84	2176.99
822.02	2260.96
822.19	2363.36
822.36	2256.86
822.53	2197.47
822.70	2140.13
822.88	2283.49
823.05	2373.60
823.22	2244.57
823.39	2281.44
823.56	2314.20
823.74	2475.99
823.91	2142.18
824.08	2095.07
824.25	2162.66
824.42	2463.71
824.60	2127.84
824.77	2269.15
824.94	2224.09
825.11	2265.05
825.28	2154.46
825.45	2232.29
825.63	2220.00
825.80	2203.61
825.97	2359.26
826.14	2191.33
826.31	2179.04
826.48	2338.78
826.66	2121.70
826.83	2201.57
827.00	2205.66
827.17	2217.95
827.34	2246.62
827.51	2148.32
827.69	2275.29
827.86	2084.83
828.03	2273.25
828.20	2236.38
828.37	2078.69
828.54	2252.77
828.71	2086.88
828.89	2414.56
829.06	2248.67
829.23	2363.36
829.40	2183.13
829.57	2115.55
829.74	2359.26
829.91	2224.09
830.09	2189.28
830.26	2230.24
830.43	2322.40
830.60	2220.00
830.77	2301.92
830.94	2330.59
831.11	2293.72
831.28	2160.61
831.46	2275.29
831.63	2224.09
831.80	2322.40
831.97	2199.52
832.14	2109.41
832.31	2301.92
832.48	2220.00
832.65	2293.72
832.82	2244.57
832.99	2279.39
833.17	2199.52
833.34	2344.92
833.51	2279.39
833.68	2080.74
833.85	2359.26
834.02	2166.75
834.19	2140.13
834.36	2150.37
834.53	2269.15
834.70	2361.31
834.87	2357.21
835.04	2138.08
835.22	2254.81
835.39	2248.67
835.56	2111.46
835.73	2179.04
835.90	2301.92
836.07	2193.37
836.24	2308.06
836.41	2211.81
836.58	2148.32
836.75	2336.73
836.92	2211.81
837.09	2183.13
837.26	2424.80
837.43	2269.15
837.60	2244.57
837.77	2234.33
837.94	2324.44
838.12	2240.48
838.29	2291.68
838.46	2070.50
838.63	2176.99
838.80	2355.16
838.97	2301.92
839.14	2207.71
839.31	2267.10
839.48	2346.97
839.65	2236.38
839.82	2254.81
839.99	2293.72
840.16	2293.72
840.33	2121.70
840.50	2224.09
840.67	2105.31
840.84	2015.20
841.01	2211.81
841.18	2107.36
841.35	2244.57
841.52	2291.68
841.69	2342.88
841.86	2207.71
842.03	2252.77
842.20	2377.69
842.37	2209.76
842.54	2191.33
842.71	2273.25
842.88	2119.65
843.05	2252.77
843.22	2179.04
843.39	2342.88
843.56	2185.18
843.73	2195.42
843.90	2211.81
844.07	2162.66
844.24	2320.35
844.41	2285.53
844.58	2209.76
844.75	2228.19
844.92	2367.45
845.09	2234.33
845.26	2078.69
845.43	2295.77
845.60	2168.80
845.77	2285.53
845.94	2238.43
846.10	2385.88
846.27	2150.37
846.44	2113.50
846.61	2129.89
846.78	2295.77
846.95	2301.92
847.12	2174.94
847.29	2146.27
847.46	2193.37
847.63	2277.34
847.80	2154.46
847.97	2156.51
848.14	2525.15
848.31	2242.53
848.48	2129.89
848.65	2265.05
848.82	2271.20
848.98	2461.66
849.15	2265.05
849.32	2250.72
849.49	2344.92
849.66	2236.38
849.83	2193.37
850.00	2117.60
850.17	2334.68
850.34	2172.89
850.51	2168.80
850.68	2170.85
850.85	2428.89
851.01	2326.49
851.18	2260.96
851.35	2179.04
851.52	2273.25
851.69	2369.50
851.86	2078.69
852.03	2201.57
852.20	2369.50
852.37	2236.38
852.53	2097.12
852.70	2088.93
852.87	2273.25
853.04	2332.64
853.21	2187.23
853.38	2279.39
853.55	2357.21
853.72	2379.74
853.89	2228.19
854.05	2117.60
854.22	2213.85
854.39	2187.23
854.56	2318.30
854.73	2326.49
854.90	2162.66
855.07	2228.19
855.23	2127.84
855.40	2160.61
855.57	2146.27
855.74	2013.15
855.91	2394.08
856.08	2160.61
856.25	2066.40
856.41	2131.94
856.58	2187.23
856.75	2179.04
856.92	2121.70
857.09	2377.69
857.26	2068.45
857.42	2281.44
857.59	2373.60
857.76	2181.09
857.93	2197.47
858.10	2193.37
858.27	2068.45
858.43	2256.86
858.60	2174.94
858.77	2123.74
858.94	2236.38
859.11	2297.82
859.27	2152.42
859.44	2211.81
859.61	2416.60
859.78	2320.35
859.95	2232.29
860.12	2115.55
860.28	2445.27
860.45	2430.94
860.62	2066.40
860.79	2291.68
860.95	2236.38
861.12	2240.48
861.29	2158.56
861.46	2129.89
861.63	2228.19
861.79	2267.10
861.96	2162.66
862.13	2170.85
862.30	2398.17
862.47	2260.96
862.63	2121.70
862.80	2295.77
862.97	2301.92
863.14	2267.10
863.30	2275.29
863.47	2111.46
863.64	2375.64
863.81	2295.77
863.97	2185.18
864.14	2246.62
864.31	2199.52
864.48	2230.24
864.65	2224.09
864.81	2252.77
864.98	2359.26
865.15	2299.87
865.32	2222.05
865.48	2318.30
865.65	2416.60
865.82	2209.76
865.98	2209.76
866.15	2207.71
866.32	2164.70
866.49	2199.52
866.65	2215.90
866.82	2133.98
866.99	2240.48
867.16	2162.66
867.32	2080.74
867.49	2203.61
867.66	2254.81
867.83	2193.37
867.99	2070.50
868.16	2195.42
868.33	2185.18
868.49	2193.37
868.66	2179.04
868.83	2281.44
868.99	2308.06
869.16	2287.58
869.33	2306.01
869.50	2152.42
869.66	2285.53
869.83	2250.72
870.00	2076.64
870.16	2308.06
870.33	2285.53
870.50	2303.96
870.66	2203.61
870.83	2254.81
871.00	2230.24
871.17	2353.12
871.33	2267.10
871.50	2189.28
871.67	2244.57
871.83	2191.33
872.00	2312.16
872.17	2189.28
872.33	2445.27
872.50	2334.68
872.67	2166.75
872.83	2205.66
873.00	2205.66
873.17	2222.05
873.33	2281.44
873.50	2336.73
873.67	2220.00
873.83	2146.27
874.00	2217.95
874.16	2297.82
874.33	2310.11
874.50	2129.89
874.66	2260.96
874.83	2193.37
875.00	2453.47
875.16	2381.79
875.33	2273.25
875.50	1984.48
875.66	2160.61
875.83	2306.01
875.99	2291.68
876.16	2213.85
876.33	2148.32
876.49	2281.44
876.66	2242.53
876.83	2201.57
876.99	2095.07
877.16	2179.04
877.32	2220.00
877.49	2193.37
877.66	2277.34
877.82	2389.98
877.99	2258.91
878.15	2359.26
878.32	2211.81
878.49	2220.00
878.65	2136.03
878.82	2332.64
878.98	2164.70
879.15	2351.07
879.32	2332.64
879.48	2275.29
879.65	2250.72
879.81	2215.90
879.98	2207.71
880.15	2332.64
880.31	2338.78
880.48	2185.18
880.64	2271.20
880.81	2291.68
880.97	2430.94
881.14	2389.98
881.31	2103.26
881.47	2383.84
881.64	2250.72
881.80	2117.60
881.97	2195.42
882.13	2236.38
882.30	2170.85
882.47	2213.85
882.63	2166.75
882.80	2279.39
882.96	2226.14
883.13	2371.55
883.29	2203.61
883.46	2228.19
883.62	2465.75
883.79	2236.38
883.95	2293.72
884.12	2222.05
884.29	2355.16
884.45	2195.42
884.62	2277.34
884.78	2129.89
884.95	2377.69
885.11	2097.12
885.28	2324.44
885.44	2242.53
885.61	2244.57
885.77	2353.12
885.94	2250.72
886.10	2203.61
886.27	2236.38
886.43	2420.70
886.60	2361.31
886.76	2170.85
886.93	2121.70
887.09	2299.87
887.26	2103.26
887.42	2220.00
887.59	2269.15
887.75	2437.08
887.92	2310.11
888.08	2179.04
888.25	2465.75
888.41	2375.64
888.58	2213.85
888.74	2162.66
888.91	2230.24
>>>>>End Processed Spectral Data<<<<<
