SpectraSuite Data File
++++++++++++++++++++++++++++++++++++
Date: Thu May 05 13:21:22 CEST 2016
User: root
Dark Spectrum Present: No
Reference Spectrum Present: No
Number of Sampled Component Spectra: 1
Spectrometers: USB4C02835
Integration Time (usec): 100000 (USB4C02835)
Spectra Averaged: 1 (USB4C02835)
Boxcar Smoothing: 0 (USB4C02835)
Correct for Electrical Dark: No (USB4C02835)
Strobe/Lamp Enabled: No (USB4C02835)
Correct for Detector Non-linearity: No (USB4C02835)
Correct for Stray Light: No (USB4C02835)
Number of Pixels in Processed Spectrum: 3648
>>>>>Begin Processed Spectral Data<<<<<
177.47	1783.78
177.69	1783.78
177.91	1783.78
178.13	1785.83
178.36	1804.26
178.58	2201.57
178.80	2207.71
179.02	2187.23
179.24	2168.80
179.46	2170.85
179.68	2201.57
179.90	2195.42
180.13	2187.23
180.35	2045.92
180.57	2060.26
180.79	2392.03
181.01	2322.40
181.23	2232.29
181.45	2230.24
181.67	2310.11
181.90	2367.45
182.12	2185.18
182.34	2127.84
182.56	2254.81
182.78	2291.68
183.00	2232.29
183.22	2217.95
183.44	2097.12
183.66	2457.56
183.89	2197.47
184.11	2154.46
184.33	2332.64
184.55	2314.20
184.77	2211.81
184.99	2185.18
185.21	2252.77
185.43	2471.90
185.65	2121.70
185.87	2211.81
186.10	2531.29
186.32	2486.23
186.54	2234.33
186.76	2279.39
186.98	2359.26
187.20	2232.29
187.42	2121.70
187.64	2217.95
187.86	2287.58
188.08	2342.88
188.30	2205.66
188.52	2172.89
188.75	2373.60
188.97	2375.64
189.19	2154.46
189.41	2250.72
189.63	2332.64
189.85	2236.38
190.07	2115.55
190.29	2043.87
190.51	2228.19
190.73	2160.61
190.95	2283.49
191.17	2220.00
191.39	2082.78
191.61	2254.81
191.84	2045.92
192.06	2226.14
192.28	2093.02
192.50	2516.95
192.72	2140.13
192.94	2156.51
193.16	2367.45
193.38	2250.72
193.60	2088.93
193.82	2226.14
194.04	2330.59
194.26	2263.01
194.48	2203.61
194.70	2189.28
194.92	2201.57
195.14	2318.30
195.36	2123.74
195.58	2213.85
195.80	2232.29
196.02	2138.08
196.24	2248.67
196.46	2250.72
196.69	2209.76
196.91	2473.95
197.13	2121.70
197.35	2183.13
197.57	2404.32
197.79	2301.92
198.01	2293.72
198.23	2240.48
198.45	2332.64
198.67	2117.60
198.89	2142.18
199.11	2281.44
199.33	2236.38
199.55	2045.92
199.77	2117.60
199.99	2215.90
200.21	2162.66
200.43	2355.16
200.65	2101.22
200.87	2109.41
201.09	2224.09
201.31	2220.00
201.53	2222.05
201.75	2220.00
201.97	2314.20
202.19	2244.57
202.41	2236.38
202.63	2301.92
202.85	2209.76
203.07	2279.39
203.29	2195.42
203.51	2172.89
203.73	2265.05
203.95	2512.86
204.17	2150.37
204.39	2332.64
204.61	2297.82
204.83	2201.57
205.05	2312.16
205.27	2234.33
205.49	2426.84
205.71	2209.76
205.93	2113.50
206.15	2187.23
206.37	2357.21
206.59	2234.33
206.81	2064.35
207.03	2088.93
207.25	2203.61
207.47	2344.92
207.69	2119.65
207.91	2375.64
208.13	2351.07
208.34	2203.61
208.56	2154.46
208.78	2181.09
209.00	2211.81
209.22	2232.29
209.44	2099.17
209.66	2154.46
209.88	2195.42
210.10	2220.00
210.32	2093.02
210.54	2215.90
210.76	2299.87
210.98	2346.97
211.20	2004.96
211.42	2240.48
211.64	2424.80
211.86	2312.16
212.08	2199.52
212.30	2220.00
212.52	2238.43
212.74	2281.44
212.96	2258.91
213.17	2232.29
213.39	2318.30
213.61	2475.99
213.83	2170.85
214.05	2224.09
214.27	2365.40
214.49	2002.91
214.71	2162.66
214.93	2285.53
215.15	2265.05
215.37	2269.15
215.59	2004.96
215.81	2220.00
216.03	2408.41
216.24	2299.87
216.46	2189.28
216.68	2179.04
216.90	2324.44
217.12	2359.26
217.34	2154.46
217.56	2308.06
217.78	2465.75
218.00	2338.78
218.22	2129.89
218.44	2170.85
218.66	2373.60
218.87	2461.66
219.09	2127.84
219.31	2267.10
219.53	2244.57
219.75	2203.61
219.97	2154.46
220.19	2174.94
220.41	2265.05
220.63	2408.41
220.85	2226.14
221.06	2271.20
221.28	2410.46
221.50	2412.51
221.72	2195.42
221.94	2176.99
222.16	2287.58
222.38	2412.51
222.60	2220.00
222.82	2242.53
223.03	2375.64
223.25	2129.89
223.47	2220.00
223.69	2336.73
223.91	2414.56
224.13	2334.68
224.35	2125.79
224.57	2240.48
224.78	2392.03
225.00	2222.05
225.22	2193.37
225.44	2086.88
225.66	2338.78
225.88	2217.95
226.10	2381.79
226.32	2322.40
226.53	2326.49
226.75	2224.09
226.97	2193.37
227.19	2158.56
227.41	2142.18
227.63	2308.06
227.85	2062.30
228.06	2211.81
228.28	2324.44
228.50	2322.40
228.72	2088.93
228.94	2187.23
229.16	2121.70
229.37	2181.09
229.59	2150.37
229.81	2369.50
230.03	2285.53
230.25	2090.98
230.47	2052.06
230.69	2054.11
230.90	2301.92
231.12	2224.09
231.34	2179.04
231.56	2250.72
231.78	2111.46
232.00	2314.20
232.21	2220.00
232.43	2136.03
232.65	2041.82
232.87	2314.20
233.09	2090.98
233.30	2179.04
233.52	2301.92
233.74	2209.76
233.96	2234.33
234.18	2256.86
234.40	2269.15
234.61	2461.66
234.83	2129.89
235.05	2082.78
235.27	2457.56
235.49	2357.21
235.70	2107.36
235.92	2303.96
236.14	2377.69
236.36	2496.47
236.58	2101.22
236.79	2220.00
237.01	2330.59
237.23	2287.58
237.45	2375.64
237.67	2125.79
237.88	2220.00
238.10	2357.21
238.32	2080.74
238.54	2183.13
238.76	2244.57
238.97	2144.22
239.19	2095.07
239.41	2207.71
239.63	2367.45
239.85	2205.66
240.06	2213.85
240.28	2117.60
240.50	2375.64
240.72	2207.71
240.93	2131.94
241.15	2293.72
241.37	2248.67
241.59	2314.20
241.81	2185.18
242.02	2174.94
242.24	2359.26
242.46	2349.02
242.68	2103.26
242.89	2125.79
243.11	2424.80
243.33	2238.43
243.55	2226.14
243.76	2217.95
243.98	2224.09
244.20	2281.44
244.42	2224.09
244.64	2158.56
244.85	2140.13
245.07	2215.90
245.29	2220.00
245.51	2170.85
245.72	2248.67
245.94	2410.46
246.16	2220.00
246.38	2328.54
246.59	2136.03
246.81	2166.75
247.03	2168.80
247.24	2041.82
247.46	2316.25
247.68	2271.20
247.90	2076.64
248.11	2131.94
248.33	2355.16
248.55	2326.49
248.77	2242.53
248.98	2199.52
249.20	2424.80
249.42	2279.39
249.64	2119.65
249.85	2172.89
250.07	2146.27
250.29	2244.57
250.50	2277.34
250.72	1986.53
250.94	2273.25
251.16	2443.23
251.37	2246.62
251.59	2252.77
251.81	2252.77
252.02	2449.37
252.24	2166.75
252.46	2291.68
252.68	2228.19
252.89	2191.33
253.11	2129.89
253.33	2285.53
253.54	2426.84
253.76	2111.46
253.98	2121.70
254.20	2158.56
254.41	2176.99
254.63	2252.77
254.85	2146.27
255.06	2295.77
255.28	2252.77
255.50	2158.56
255.71	2162.66
255.93	2013.15
256.15	2172.89
256.36	2293.72
256.58	2064.35
256.80	2209.76
257.02	2224.09
257.23	2187.23
257.45	2187.23
257.67	2273.25
257.88	2209.76
258.10	2334.68
258.32	2217.95
258.53	2220.00
258.75	2408.41
258.97	2224.09
259.18	2191.33
259.40	2101.22
259.62	2453.47
259.83	2394.08
260.05	2281.44
260.27	2752.47
260.48	2310.11
260.70	2166.75
260.92	2160.61
261.13	2144.22
261.35	2260.96
261.57	2279.39
261.78	2097.12
262.00	2103.26
262.22	2346.97
262.43	2066.40
262.65	2228.19
262.86	2199.52
263.08	2424.80
263.30	2263.01
263.51	2144.22
263.73	2109.41
263.95	2387.93
264.16	2168.80
264.38	2097.12
264.60	2119.65
264.81	2228.19
265.03	2340.83
265.25	2381.79
265.46	2230.24
265.68	2375.64
265.89	2336.73
266.11	2111.46
266.33	2260.96
266.54	2381.79
266.76	2332.64
266.98	2191.33
267.19	2285.53
267.41	2293.72
267.62	2248.67
267.84	2062.30
268.06	2232.29
268.27	2320.35
268.49	2377.69
268.70	2256.86
268.92	2144.22
269.14	2181.09
269.35	2070.50
269.57	2211.81
269.79	2187.23
270.00	2248.67
270.22	2412.51
270.43	2162.66
270.65	2050.02
270.87	2316.25
271.08	2344.92
271.30	2228.19
271.51	2217.95
271.73	2316.25
271.95	2432.99
272.16	2166.75
272.38	2201.57
272.59	2203.61
272.81	2340.83
273.02	2209.76
273.24	2238.43
273.46	2355.16
273.67	2097.12
273.89	2146.27
274.10	2162.66
274.32	2371.55
274.54	2324.44
274.75	2256.86
274.97	2230.24
275.18	2301.92
275.40	2287.58
275.61	2160.61
275.83	2228.19
276.05	2129.89
276.26	2176.99
276.48	2273.25
276.69	2133.98
276.91	2170.85
277.12	2375.64
277.34	2312.16
277.55	2336.73
277.77	2318.30
277.99	2230.24
278.20	2037.73
278.42	2136.03
278.63	2207.71
278.85	2226.14
279.06	2129.89
279.28	2181.09
279.49	2365.40
279.71	2326.49
279.93	2205.66
280.14	2314.20
280.36	2129.89
280.57	2379.74
280.79	2334.68
281.00	2070.50
281.22	2211.81
281.43	2334.68
281.65	2029.54
281.86	2138.08
282.08	2277.34
282.29	2420.70
282.51	2160.61
282.73	2234.33
282.94	2121.70
283.16	2338.78
283.37	2373.60
283.59	2301.92
283.80	2275.29
284.02	2269.15
284.23	2277.34
284.45	2203.61
284.66	2146.27
284.88	2170.85
285.09	2232.29
285.31	2338.78
285.52	2224.09
285.74	2152.42
285.95	2312.16
286.17	2246.62
286.38	2344.92
286.60	2207.71
286.81	2127.84
287.03	2179.04
287.24	2222.05
287.46	2224.09
287.67	2273.25
287.89	2439.13
288.10	2246.62
288.32	2306.01
288.53	2369.50
288.75	2265.05
288.96	2318.30
289.18	2129.89
289.39	2228.19
289.61	2246.62
289.82	2488.28
290.04	2394.08
290.25	2054.11
290.47	2277.34
290.68	2224.09
290.90	2344.92
291.11	2025.44
291.33	2308.06
291.54	2220.00
291.76	2129.89
291.97	2340.83
292.18	2295.77
292.40	2170.85
292.61	2258.91
292.83	2437.08
293.04	2351.07
293.26	2252.77
293.47	2193.37
293.69	2136.03
293.90	2158.56
294.12	2441.18
294.33	2201.57
294.55	2168.80
294.76	2322.40
294.97	2373.60
295.19	2533.34
295.40	2226.14
295.62	2240.48
295.83	2314.20
296.05	2179.04
296.26	2291.68
296.48	2224.09
296.69	2291.68
296.90	2250.72
297.12	2293.72
297.33	2306.01
297.55	2273.25
297.76	2263.01
297.98	2269.15
298.19	2295.77
298.41	2207.71
298.62	2170.85
298.83	2342.88
299.05	2228.19
299.26	2185.18
299.48	2150.37
299.69	2293.72
299.90	2293.72
300.12	2146.27
300.33	2301.92
300.55	2226.14
300.76	2250.72
300.98	2138.08
301.19	2230.24
301.40	2242.53
301.62	2211.81
301.83	2244.57
302.05	2353.12
302.26	2164.70
302.47	2260.96
302.69	2146.27
302.90	2260.96
303.12	2035.68
303.33	2256.86
303.54	2422.75
303.76	2238.43
303.97	2236.38
304.19	2408.41
304.40	2093.02
304.61	2275.29
304.83	2406.36
305.04	2344.92
305.26	2346.97
305.47	2236.38
305.68	2232.29
305.90	2101.22
306.11	2267.10
306.33	2195.42
306.54	2152.42
306.75	2109.41
306.97	2103.26
307.18	2240.48
307.39	2193.37
307.61	2342.88
307.82	2281.44
308.04	2277.34
308.25	2154.46
308.46	2258.91
308.68	2242.53
308.89	2252.77
309.10	2308.06
309.32	2355.16
309.53	2277.34
309.74	2240.48
309.96	2105.31
310.17	2342.88
310.39	2197.47
310.60	2410.46
310.81	2203.61
311.03	2017.25
311.24	2301.92
311.45	2281.44
311.67	2406.36
311.88	2240.48
312.09	2207.71
312.31	2146.27
312.52	2213.85
312.73	2226.14
312.95	2086.88
313.16	2101.22
313.37	2332.64
313.59	2285.53
313.80	2344.92
314.01	2385.88
314.23	2193.37
314.44	2099.17
314.65	2136.03
314.87	2172.89
315.08	2105.31
315.29	2127.84
315.51	2154.46
315.72	2176.99
315.93	2277.34
316.15	2283.49
316.36	2281.44
316.57	2213.85
316.79	2252.77
317.00	2246.62
317.21	2250.72
317.43	2244.57
317.64	2207.71
317.85	2127.84
318.07	2162.66
318.28	2232.29
318.49	2475.99
318.70	2506.71
318.92	2392.03
319.13	2365.40
319.34	2500.57
319.56	2273.25
319.77	2420.70
319.98	2373.60
320.20	2330.59
320.41	2320.35
320.62	2236.38
320.83	2154.46
321.05	2400.22
321.26	2279.39
321.47	2232.29
321.69	2330.59
321.90	2080.74
322.11	2133.98
322.32	2375.64
322.54	2363.36
322.75	2193.37
322.96	2605.02
323.18	2052.06
323.39	2076.64
323.60	2195.42
323.81	2291.68
324.03	2103.26
324.24	2209.76
324.45	2193.37
324.66	2250.72
324.88	2420.70
325.09	2400.22
325.30	2187.23
325.52	2226.14
325.73	2271.20
325.94	2236.38
326.15	2129.89
326.37	2170.85
326.58	2281.44
326.79	2467.80
327.00	2123.74
327.22	2260.96
327.43	2162.66
327.64	2209.76
327.85	2252.77
328.07	2144.22
328.28	2389.98
328.49	2238.43
328.70	2260.96
328.92	2199.52
329.13	2260.96
329.34	2289.63
329.55	2379.74
329.76	2330.59
329.98	2179.04
330.19	2371.55
330.40	2228.19
330.61	2248.67
330.83	2396.12
331.04	2117.60
331.25	2342.88
331.46	2297.82
331.68	2113.50
331.89	2381.79
332.10	2234.33
332.31	2080.74
332.52	2267.10
332.74	2310.11
332.95	2113.50
333.16	2127.84
333.37	2283.49
333.58	2265.05
333.80	2250.72
334.01	2127.84
334.22	2295.77
334.43	2207.71
334.64	2201.57
334.86	2215.90
335.07	2129.89
335.28	2361.31
335.49	2162.66
335.70	2246.62
335.92	2334.68
336.13	2473.95
336.34	2359.26
336.55	2260.96
336.76	2308.06
336.98	2090.98
337.19	2160.61
337.40	2369.50
337.61	2502.62
337.82	2236.38
338.04	2353.12
338.25	2058.21
338.46	2240.48
338.67	2297.82
338.88	2129.89
339.09	2086.88
339.31	2267.10
339.52	2131.94
339.73	2133.98
339.94	2240.48
340.15	2375.64
340.36	2191.33
340.58	2222.05
340.79	2111.46
341.00	2349.02
341.21	2129.89
341.42	2377.69
341.63	2205.66
341.85	2369.50
342.06	2310.11
342.27	2107.36
342.48	2344.92
342.69	2162.66
342.90	2203.61
343.12	2373.60
343.33	2203.61
343.54	2293.72
343.75	2389.98
343.96	2189.28
344.17	2138.08
344.38	2236.38
344.60	2140.13
344.81	2228.19
345.02	2236.38
345.23	2361.31
345.44	2480.09
345.65	2291.68
345.86	2285.53
346.07	2271.20
346.29	2121.70
346.50	2256.86
346.71	2301.92
346.92	2385.88
347.13	2484.19
347.34	2179.04
347.55	2201.57
347.76	2293.72
347.98	2086.88
348.19	2187.23
348.40	2342.88
348.61	2201.57
348.82	2357.21
349.03	2279.39
349.24	2129.89
349.45	2447.32
349.66	2084.83
349.88	2260.96
350.09	2113.50
350.30	2406.36
350.51	2389.98
350.72	2232.29
350.93	2250.72
351.14	2189.28
351.35	2322.40
351.56	2193.37
351.77	2205.66
351.99	2232.29
352.20	2437.08
352.41	2287.58
352.62	2074.59
352.83	2287.58
353.04	2242.53
353.25	2285.53
353.46	2224.09
353.67	2326.49
353.88	2144.22
354.09	2258.91
354.30	2273.25
354.52	2256.86
354.73	2207.71
354.94	2203.61
355.15	2281.44
355.36	2529.24
355.57	2189.28
355.78	2344.92
355.99	2162.66
356.20	2191.33
356.41	2369.50
356.62	2277.34
356.83	2318.30
357.04	2400.22
357.25	2166.75
357.46	2260.96
357.68	2078.69
357.89	2158.56
358.10	2267.10
358.31	2267.10
358.52	2195.42
358.73	2093.02
358.94	2197.47
359.15	2129.89
359.36	2299.87
359.57	2158.56
359.78	2310.11
359.99	2258.91
360.20	2185.18
360.41	2203.61
360.62	2338.78
360.83	2228.19
361.04	2275.29
361.25	2263.01
361.46	2414.56
361.67	2238.43
361.88	2275.29
362.09	2285.53
362.30	2297.82
362.51	2215.90
362.72	2277.34
362.93	2310.11
363.14	2340.83
363.35	2213.85
363.56	2136.03
363.78	2424.80
363.99	2365.40
364.20	2242.53
364.41	2258.91
364.62	2430.94
364.83	2252.77
365.04	2217.95
365.25	2207.71
365.46	2459.61
365.67	2215.90
365.88	2340.83
366.09	2090.98
366.30	2133.98
366.51	2263.01
366.72	2101.22
366.93	2222.05
367.14	2252.77
367.35	2387.93
367.56	2252.77
367.77	2392.03
367.98	2222.05
368.18	2289.63
368.39	2336.73
368.60	2109.41
368.81	2383.84
369.02	2310.11
369.23	2201.57
369.44	2150.37
369.65	2176.99
369.86	2379.74
370.07	2332.64
370.28	2213.85
370.49	2285.53
370.70	2289.63
370.91	2125.79
371.12	2099.17
371.33	2281.44
371.54	2211.81
371.75	2344.92
371.96	1984.48
372.17	2289.63
372.38	2215.90
372.59	2265.05
372.80	2121.70
373.01	2279.39
373.22	2285.53
373.43	2222.05
373.64	2176.99
373.85	2371.55
374.06	2471.90
374.26	2299.87
374.47	2252.77
374.68	2383.84
374.89	2220.00
375.10	2195.42
375.31	2271.20
375.52	2238.43
375.73	2351.07
375.94	2146.27
376.15	2322.40
376.36	2246.62
376.57	2224.09
376.78	2260.96
376.99	2260.96
377.20	2422.75
377.40	2232.29
377.61	2398.17
377.82	2021.35
378.03	2400.22
378.24	2263.01
378.45	2240.48
378.66	2252.77
378.87	2121.70
379.08	2138.08
379.29	2154.46
379.50	2375.64
379.71	2283.49
379.91	2361.31
380.12	2215.90
380.33	2256.86
380.54	2258.91
380.75	2271.20
380.96	2265.05
381.17	2375.64
381.38	2205.66
381.59	2283.49
381.80	2240.48
382.00	2461.66
382.21	2242.53
382.42	2480.09
382.63	2521.05
382.84	2297.82
383.05	2289.63
383.26	2375.64
383.47	2258.91
383.68	2295.77
383.88	2334.68
384.09	2318.30
384.30	2473.95
384.51	2326.49
384.72	2267.10
384.93	2107.36
385.14	2203.61
385.35	2279.39
385.55	2090.98
385.76	2340.83
385.97	2207.71
386.18	2129.89
386.39	2217.95
386.60	2263.01
386.81	2179.04
387.02	2166.75
387.22	2109.41
387.43	2396.12
387.64	2295.77
387.85	2410.46
388.06	2545.63
388.27	3860.42
388.48	8091.52
388.68	11628.37
388.89	13819.69
389.10	15017.75
389.31	13854.51
389.52	10952.54
389.73	9480.05
389.93	8720.25
390.14	7942.02
390.35	7106.45
390.56	6356.90
390.77	5228.46
390.98	3971.01
391.18	3315.66
391.39	2807.77
391.60	2340.83
391.81	2432.99
392.02	2230.24
392.23	2605.02
392.43	2258.91
392.64	2424.80
392.85	2240.48
393.06	2424.80
393.27	2232.29
393.47	2142.18
393.68	2176.99
393.89	2185.18
394.10	2355.16
394.31	2207.71
394.52	2181.09
394.72	2183.13
394.93	2416.60
395.14	2187.23
395.35	2324.44
395.56	2234.33
395.76	2236.38
395.97	2269.15
396.18	2377.69
396.39	2449.37
396.60	2758.61
396.80	2469.85
397.01	2396.12
397.22	2367.45
397.43	2381.79
397.64	2215.90
397.84	2355.16
398.05	2494.43
398.26	2326.49
398.47	2340.83
398.67	2383.84
398.88	2299.87
399.09	2289.63
399.30	2185.18
399.51	2293.72
399.71	2146.27
399.92	2293.72
400.13	2269.15
400.34	2265.05
400.54	2220.00
400.75	2473.95
400.96	2230.24
401.17	2412.51
401.37	2308.06
401.58	2203.61
401.79	2260.96
402.00	2445.27
402.21	2658.26
402.41	2529.24
402.62	2633.69
402.83	2619.35
403.04	2629.59
403.24	2871.25
403.45	2371.55
403.66	2486.23
403.87	2482.14
404.07	2455.51
404.28	2547.67
404.49	2496.47
404.70	2363.36
404.90	2301.92
405.11	2277.34
405.32	2349.02
405.52	2133.98
405.73	2281.44
405.94	2187.23
406.15	2230.24
406.35	2406.36
406.56	2281.44
406.77	2236.38
406.98	2242.53
407.18	2168.80
407.39	2402.27
407.60	2084.83
407.80	2295.77
408.01	2260.96
408.22	2291.68
408.43	2203.61
408.63	2242.53
408.84	2224.09
409.05	2369.50
409.25	2181.09
409.46	2209.76
409.67	2250.72
409.88	2242.53
410.08	2320.35
410.29	2211.81
410.50	2265.05
410.70	2326.49
410.91	2207.71
411.12	2299.87
411.32	2252.77
411.53	2119.65
411.74	2387.93
411.95	2297.82
412.15	2265.05
412.36	2328.54
412.57	2318.30
412.77	2420.70
412.98	2310.11
413.19	2199.52
413.39	2306.01
413.60	2256.86
413.81	2455.51
414.01	2150.37
414.22	2240.48
414.43	2342.88
414.63	2170.85
414.84	2389.98
415.05	2183.13
415.25	2025.44
415.46	2340.83
415.67	2199.52
415.87	2258.91
416.08	2193.37
416.29	2279.39
416.49	2267.10
416.70	2250.72
416.91	2242.53
417.11	2172.89
417.32	2318.30
417.53	2291.68
417.73	2244.57
417.94	2154.46
418.15	2385.88
418.35	2279.39
418.56	2242.53
418.77	2457.56
418.97	2248.67
419.18	2291.68
419.38	2015.20
419.59	2281.44
419.80	2424.80
420.00	2252.77
420.21	2289.63
420.42	2387.93
420.62	2277.34
420.83	2174.94
421.04	2162.66
421.24	2285.53
421.45	2275.29
421.65	2299.87
421.86	2213.85
422.07	2383.84
422.27	2195.42
422.48	2260.96
422.69	2252.77
422.89	2277.34
423.10	2310.11
423.30	2144.22
423.51	2306.01
423.72	2293.72
423.92	2332.64
424.13	2084.83
424.33	2187.23
424.54	2394.08
424.75	2326.49
424.95	2432.99
425.16	2236.38
425.36	2226.14
425.57	2310.11
425.78	2275.29
425.98	2318.30
426.19	2209.76
426.39	2138.08
426.60	2342.88
426.81	2385.88
427.01	2299.87
427.22	2170.85
427.42	2189.28
427.63	2097.12
427.83	2342.88
428.04	2424.80
428.25	2306.01
428.45	2396.12
428.66	2412.51
428.86	2215.90
429.07	2299.87
429.28	2246.62
429.48	2291.68
429.69	2224.09
429.89	2322.40
430.10	2095.07
430.30	2326.49
430.51	2394.08
430.71	2142.18
430.92	2355.16
431.13	2189.28
431.33	2385.88
431.54	2326.49
431.74	2387.93
431.95	2478.04
432.15	2215.90
432.36	2258.91
432.56	2371.55
432.77	2473.95
432.98	2416.60
433.18	2363.36
433.39	2185.18
433.59	2209.76
433.80	2463.71
434.00	2496.47
434.21	2195.42
434.41	2217.95
434.62	2531.29
434.82	2158.56
435.03	2185.18
435.23	2326.49
435.44	2127.84
435.64	2289.63
435.85	2273.25
436.06	2336.73
436.26	2387.93
436.47	2250.72
436.67	2164.70
436.88	2260.96
437.08	2355.16
437.29	2394.08
437.49	2263.01
437.70	2428.89
437.90	2281.44
438.11	2389.98
438.31	2330.59
438.52	2490.33
438.72	2465.75
438.93	2492.38
439.13	2346.97
439.34	2418.65
439.54	2256.86
439.75	2406.36
439.95	2326.49
440.16	2209.76
440.36	2287.58
440.57	2283.49
440.77	2355.16
440.98	2326.49
441.18	2324.44
441.39	2265.05
441.59	2154.46
441.80	2463.71
442.00	2265.05
442.21	2367.45
442.41	2080.74
442.62	2353.12
442.82	2215.90
443.02	2119.65
443.23	2267.10
443.43	2285.53
443.64	2414.56
443.84	2140.13
444.05	2414.56
444.25	2267.10
444.46	2185.18
444.66	2244.57
444.87	2439.13
445.07	2121.70
445.28	2310.11
445.48	2365.40
445.69	2359.26
445.89	2504.67
446.09	2293.72
446.30	2547.67
446.50	2750.42
446.71	4480.96
446.91	5527.47
447.12	6408.09
447.32	6625.18
447.53	6254.50
447.73	5005.24
447.93	4571.07
448.14	4116.42
448.34	4059.07
448.55	3661.77
448.75	3542.99
448.96	3315.66
449.16	3053.52
449.36	2916.31
449.57	2553.82
449.77	2314.20
449.98	2316.25
450.18	2283.49
450.39	2418.65
450.59	2248.67
450.79	2316.25
451.00	2168.80
451.20	2316.25
451.41	2306.01
451.61	2369.50
451.81	2211.81
452.02	2236.38
452.22	2246.62
452.43	2246.62
452.63	2209.76
452.84	2265.05
453.04	2236.38
453.24	2371.55
453.45	2144.22
453.65	2217.95
453.86	2289.63
454.06	2326.49
454.26	2306.01
454.47	2154.46
454.67	2439.13
454.87	2351.07
455.08	2297.82
455.28	2334.68
455.49	2176.99
455.69	2187.23
455.89	2486.23
456.10	2398.17
456.30	2258.91
456.51	2375.64
456.71	2267.10
456.91	2301.92
457.12	2308.06
457.32	2258.91
457.52	2133.98
457.73	2359.26
457.93	2285.53
458.14	2217.95
458.34	2090.98
458.54	2256.86
458.75	2248.67
458.95	2346.97
459.15	2361.31
459.36	2258.91
459.56	2299.87
459.76	2492.38
459.97	2299.87
460.17	2215.90
460.37	2334.68
460.58	2322.40
460.78	2408.41
460.99	2170.85
461.19	2193.37
461.39	2232.29
461.60	2269.15
461.80	2308.06
462.00	2166.75
462.21	2283.49
462.41	2121.70
462.61	2160.61
462.82	2035.68
463.02	2396.12
463.22	2342.88
463.43	2353.12
463.63	2199.52
463.83	2414.56
464.04	2316.25
464.24	2310.11
464.44	2123.74
464.64	2283.49
464.85	2363.36
465.05	2297.82
465.25	2271.20
465.46	2170.85
465.66	2351.07
465.86	2299.87
466.07	2275.29
466.27	2254.81
466.47	2138.08
466.68	2154.46
466.88	2398.17
467.08	2346.97
467.29	2320.35
467.49	2252.77
467.69	2250.72
467.89	2326.49
468.10	2226.14
468.30	2308.06
468.50	2396.12
468.71	2373.60
468.91	2133.98
469.11	2482.14
469.31	2314.20
469.52	2217.95
469.72	2418.65
469.92	2416.60
470.13	2275.29
470.33	2275.29
470.53	2273.25
470.73	2639.83
470.94	3035.09
471.14	3127.25
471.34	3520.46
471.54	3389.39
471.75	3076.05
471.95	2848.72
472.15	2723.80
472.36	2768.85
472.56	2719.70
472.76	2744.28
472.96	2629.59
473.17	2531.29
473.37	2465.75
473.57	2324.44
473.77	2428.89
473.98	2289.63
474.18	2154.46
474.38	2586.58
474.58	2267.10
474.79	2203.61
474.99	2293.72
475.19	2359.26
475.39	2164.70
475.60	2385.88
475.80	2183.13
476.00	2236.38
476.20	2191.33
476.41	2322.40
476.61	2379.74
476.81	2351.07
477.01	2254.81
477.21	2361.31
477.42	2342.88
477.62	2183.13
477.82	2351.07
478.02	2195.42
478.23	2263.01
478.43	2156.51
478.63	2179.04
478.83	2281.44
479.03	2285.53
479.24	2340.83
479.44	2465.75
479.64	2205.66
479.84	2150.37
480.04	2179.04
480.25	2330.59
480.45	2158.56
480.65	2211.81
480.85	2400.22
481.06	2185.18
481.26	2236.38
481.46	2334.68
481.66	2398.17
481.86	2187.23
482.06	2432.99
482.27	2211.81
482.47	2195.42
482.67	2271.20
482.87	2271.20
483.07	2392.03
483.28	2144.22
483.48	2080.74
483.68	2211.81
483.88	2187.23
484.08	2052.06
484.29	2189.28
484.49	2217.95
484.69	2129.89
484.89	2430.94
485.09	2349.02
485.29	2306.01
485.50	2234.33
485.70	2220.00
485.90	2441.18
486.10	2248.67
486.30	2215.90
486.50	2371.55
486.71	2217.95
486.91	2299.87
487.11	2293.72
487.31	2150.37
487.51	2330.59
487.71	2203.61
487.91	2183.13
488.12	2211.81
488.32	2021.35
488.52	2176.99
488.72	2084.83
488.92	2226.14
489.12	2402.27
489.32	2328.54
489.53	2285.53
489.73	2146.27
489.93	2519.00
490.13	2209.76
490.33	2107.36
490.53	2236.38
490.73	2404.32
490.94	2217.95
491.14	2312.16
491.34	2353.12
491.54	2547.67
491.74	3229.65
491.94	3841.99
492.14	4026.31
492.34	4020.16
492.54	3811.27
492.75	3180.50
492.95	3258.32
493.15	3037.14
493.35	3030.99
493.55	2801.62
493.75	2670.55
493.95	2707.41
494.15	2559.96
494.35	2473.95
494.56	2381.79
494.76	2244.57
494.96	2310.11
495.16	2359.26
495.36	2275.29
495.56	2310.11
495.76	2263.01
495.96	2269.15
496.16	2138.08
496.36	2480.09
496.56	2254.81
496.77	2258.91
496.97	2392.03
497.17	2459.61
497.37	2136.03
497.57	2361.31
497.77	2301.92
497.97	2191.33
498.17	2297.82
498.37	2236.38
498.57	2328.54
498.77	2256.86
498.97	2435.03
499.17	2430.94
499.38	2220.00
499.58	2318.30
499.78	2371.55
499.98	2392.03
500.18	2174.94
500.38	2201.57
500.58	2488.28
500.78	2852.82
500.98	5046.20
501.18	7012.24
501.38	8841.08
501.58	9582.45
501.78	9375.60
501.98	7438.22
502.18	6420.38
502.38	5572.52
502.58	5074.87
502.78	4507.58
502.98	4462.52
503.18	4241.34
503.38	3960.77
503.59	3305.42
503.79	3278.80
503.99	2940.88
504.19	2856.92
504.39	2826.20
504.59	2852.82
504.79	2805.72
504.99	2772.95
505.19	2609.11
505.39	2480.09
505.59	2631.64
505.79	2660.31
505.99	2428.89
506.19	2334.68
506.39	2379.74
506.59	2310.11
506.79	2291.68
506.99	2365.40
507.19	2297.82
507.39	2228.19
507.59	2152.42
507.79	2183.13
507.99	2197.47
508.19	2217.95
508.39	2316.25
508.59	2252.77
508.79	2373.60
508.99	2453.47
509.19	2191.33
509.39	2349.02
509.59	2181.09
509.79	2187.23
509.99	2308.06
510.19	2396.12
510.39	2369.50
510.59	2283.49
510.79	2179.04
510.99	2160.61
511.19	2293.72
511.39	2416.60
511.59	2303.96
511.79	2353.12
511.99	2258.91
512.19	2410.46
512.38	2355.16
512.58	2183.13
512.78	2203.61
512.98	2359.26
513.18	2453.47
513.38	2088.93
513.58	2346.97
513.78	2256.86
513.98	2289.63
514.18	2232.29
514.38	2152.42
514.58	2310.11
514.78	2195.42
514.98	2203.61
515.18	2258.91
515.38	2191.33
515.58	2420.70
515.78	2179.04
515.98	2281.44
516.18	2351.07
516.38	2308.06
516.57	2217.95
516.77	2187.23
516.97	2328.54
517.17	2260.96
517.37	2109.41
517.57	2297.82
517.77	2289.63
517.97	2170.85
518.17	2371.55
518.37	2172.89
518.57	2189.28
518.77	2207.71
518.97	2267.10
519.16	2275.29
519.36	2383.84
519.56	2267.10
519.76	2193.37
519.96	2189.28
520.16	2408.41
520.36	2205.66
520.56	2394.08
520.76	2181.09
520.96	2289.63
521.16	2365.40
521.35	2334.68
521.55	2387.93
521.75	2271.20
521.95	2232.29
522.15	2252.77
522.35	2154.46
522.55	2234.33
522.75	2351.07
522.95	2187.23
523.14	2129.89
523.34	2220.00
523.54	2232.29
523.74	2291.68
523.94	2287.58
524.14	2121.70
524.34	2279.39
524.54	2392.03
524.73	2265.05
524.93	2342.88
525.13	2250.72
525.33	2123.74
525.53	2473.95
525.73	2359.26
525.93	2267.10
526.13	2248.67
526.32	2232.29
526.52	2392.03
526.72	2314.20
526.92	2308.06
527.12	2193.37
527.32	2170.85
527.52	2310.11
527.71	2248.67
527.91	2168.80
528.11	2310.11
528.31	2156.51
528.51	2203.61
528.71	2375.64
528.90	2265.05
529.10	2396.12
529.30	2349.02
529.50	2007.01
529.70	2285.53
529.90	2248.67
530.09	2277.34
530.29	2144.22
530.49	2197.47
530.69	2557.91
530.89	2285.53
531.09	2310.11
531.28	2136.03
531.48	2521.05
531.68	2269.15
531.88	2265.05
532.08	2371.55
532.28	2267.10
532.47	2355.16
532.67	2389.98
532.87	2408.41
533.07	2133.98
533.27	2242.53
533.46	2396.12
533.66	2310.11
533.86	2244.57
534.06	2256.86
534.26	2310.11
534.45	2267.10
534.65	2385.88
534.85	2248.67
535.05	2164.70
535.25	2379.74
535.44	2115.55
535.64	2379.74
535.84	2197.47
536.04	2248.67
536.24	2230.24
536.43	2281.44
536.63	2324.44
536.83	2273.25
537.03	2250.72
537.22	2123.74
537.42	2082.78
537.62	2301.92
537.82	2248.67
538.02	2385.88
538.21	2363.36
538.41	2584.54
538.61	2299.87
538.81	2267.10
539.00	2281.44
539.20	2144.22
539.40	2252.77
539.60	2314.20
539.79	2367.45
539.99	2193.37
540.19	2209.76
540.39	2306.01
540.58	2244.57
540.78	2346.97
540.98	2293.72
541.18	2371.55
541.37	2312.16
541.57	2242.53
541.77	2351.07
541.97	2181.09
542.16	2144.22
542.36	2236.38
542.56	2193.37
542.76	2414.56
542.95	2328.54
543.15	2359.26
543.35	2457.56
543.54	2232.29
543.74	2176.99
543.94	2406.36
544.14	2213.85
544.33	2320.35
544.53	2293.72
544.73	2205.66
544.93	2254.81
545.12	2220.00
545.32	2248.67
545.52	2179.04
545.71	2117.60
545.91	2203.61
546.11	2183.13
546.30	2220.00
546.50	2289.63
546.70	2295.77
546.90	2285.53
547.09	2109.41
547.29	2283.49
547.49	2342.88
547.68	2240.48
547.88	2220.00
548.08	2234.33
548.27	2756.57
548.47	2228.19
548.67	2170.85
548.87	2297.82
549.06	2260.96
549.26	2252.77
549.46	2293.72
549.65	2230.24
549.85	2328.54
550.05	2316.25
550.24	2203.61
550.44	2263.01
550.64	2258.91
550.83	2248.67
551.03	2349.02
551.23	2387.93
551.42	2334.68
551.62	2289.63
551.82	2297.82
552.01	2250.72
552.21	2383.84
552.41	2226.14
552.60	2377.69
552.80	2277.34
553.00	2170.85
553.19	2383.84
553.39	2445.27
553.59	2228.19
553.78	2316.25
553.98	2314.20
554.17	2162.66
554.37	2328.54
554.57	2377.69
554.76	2176.99
554.96	2146.27
555.16	2248.67
555.35	2340.83
555.55	2260.96
555.75	2336.73
555.94	2387.93
556.14	2144.22
556.33	2256.86
556.53	2254.81
556.73	2342.88
556.92	2293.72
557.12	2349.02
557.32	2490.33
557.51	2371.55
557.71	2340.83
557.90	2453.47
558.10	2377.69
558.30	2238.43
558.49	2217.95
558.69	2187.23
558.88	2379.74
559.08	2299.87
559.28	2285.53
559.47	2267.10
559.67	2310.11
559.86	2439.13
560.06	2195.42
560.26	2269.15
560.45	2324.44
560.65	2281.44
560.84	2398.17
561.04	2197.47
561.24	2351.07
561.43	2238.43
561.63	2443.23
561.82	2316.25
562.02	2336.73
562.22	2252.77
562.41	2117.60
562.61	2226.14
562.80	2205.66
563.00	2506.71
563.19	2334.68
563.39	2353.12
563.59	2389.98
563.78	2176.99
563.98	2062.30
564.17	2205.66
564.37	2066.40
564.56	2242.53
564.76	2191.33
564.96	2361.31
565.15	2412.51
565.35	2504.67
565.54	2293.72
565.74	2265.05
565.93	2355.16
566.13	2207.71
566.32	2365.40
566.52	2301.92
566.71	2318.30
566.91	2389.98
567.11	2277.34
567.30	2242.53
567.50	2318.30
567.69	2301.92
567.89	2254.81
568.08	2224.09
568.28	2338.78
568.47	2183.13
568.67	2289.63
568.86	2162.66
569.06	2324.44
569.25	2246.62
569.45	2211.81
569.64	2293.72
569.84	2236.38
570.04	2332.64
570.23	2197.47
570.43	2279.39
570.62	2306.01
570.82	2441.18
571.01	2242.53
571.21	2199.52
571.40	2195.42
571.60	2318.30
571.79	2406.36
571.99	2351.07
572.18	2152.42
572.38	2269.15
572.57	2258.91
572.77	2342.88
572.96	2588.63
573.16	2232.29
573.35	2185.18
573.55	2410.46
573.74	2379.74
573.94	2281.44
574.13	2246.62
574.33	2355.16
574.52	2383.84
574.71	2318.30
574.91	2303.96
575.10	2103.26
575.30	2222.05
575.49	2176.99
575.69	2211.81
575.88	2273.25
576.08	2211.81
576.27	2422.75
576.47	2275.29
576.66	2449.37
576.86	2500.57
577.05	2320.35
577.25	2371.55
577.44	2437.08
577.64	2205.66
577.83	2359.26
578.02	2269.15
578.22	2443.23
578.41	2463.71
578.61	2269.15
578.80	2052.06
579.00	2381.79
579.19	2310.11
579.39	2373.60
579.58	2351.07
579.77	2277.34
579.97	2461.66
580.16	2408.41
580.36	2424.80
580.55	2375.64
580.75	2437.08
580.94	2277.34
581.13	2437.08
581.33	2539.48
581.52	2295.77
581.72	2457.56
581.91	2457.56
582.11	2328.54
582.30	2346.97
582.49	2344.92
582.69	2490.33
582.88	2316.25
583.08	2279.39
583.27	2461.66
583.47	2310.11
583.66	2293.72
583.85	2267.10
584.05	2230.24
584.24	2383.84
584.44	2287.58
584.63	2467.80
584.82	2420.70
585.02	2328.54
585.21	2404.32
585.41	2494.43
585.60	2424.80
585.79	2592.73
585.99	2588.63
586.18	2508.76
586.37	2944.98
586.57	4702.14
586.76	13909.80
586.96	32859.66
587.15	46753.08
587.34	56609.95
587.54	60832.86
587.73	56120.49
587.93	39523.75
588.12	29906.49
588.31	24049.30
588.51	21001.92
588.70	19535.57
588.89	17383.16
589.09	15140.63
589.28	12844.86
589.47	10311.52
589.67	8296.32
589.86	6426.53
590.06	4626.36
590.25	3870.66
590.44	3243.98
590.64	2832.34
590.83	2611.16
591.02	2504.67
591.22	2351.07
591.41	2416.60
591.60	2349.02
591.80	2553.82
591.99	2258.91
592.18	2246.62
592.38	2365.40
592.57	2244.57
592.76	2334.68
592.96	2349.02
593.15	2260.96
593.34	2441.18
593.54	2234.33
593.73	2416.60
593.92	2318.30
594.12	2490.33
594.31	2318.30
594.50	2437.08
594.70	2381.79
594.89	2576.34
595.08	2217.95
595.28	2459.61
595.47	2572.25
595.66	2428.89
595.86	2228.19
596.05	2215.90
596.24	2260.96
596.43	2478.04
596.63	2351.07
596.82	2346.97
597.01	2338.78
597.21	2441.18
597.40	2322.40
597.59	2269.15
597.79	2252.77
597.98	2258.91
598.17	2342.88
598.36	2295.77
598.56	2359.26
598.75	2273.25
598.94	2342.88
599.14	2310.11
599.33	2291.68
599.52	2312.16
599.71	2285.53
599.91	2349.02
600.10	2324.44
600.29	2293.72
600.48	2297.82
600.68	2308.06
600.87	2316.25
601.06	2103.26
601.26	2232.29
601.45	2301.92
601.64	2244.57
601.83	2414.56
602.03	2168.80
602.22	2215.90
602.41	2369.50
602.60	2516.95
602.80	2422.75
602.99	2379.74
603.18	2269.15
603.37	2301.92
603.57	2258.91
603.76	2306.01
603.95	2424.80
604.14	2160.61
604.34	2205.66
604.53	2240.48
604.72	2299.87
604.91	2387.93
605.10	2338.78
605.30	2107.36
605.49	2537.43
605.68	2367.45
605.87	2367.45
606.07	2150.37
606.26	2240.48
606.45	2297.82
606.64	2285.53
606.84	2242.53
607.03	2295.77
607.22	2437.08
607.41	2291.68
607.60	2213.85
607.80	2432.99
607.99	2277.34
608.18	2267.10
608.37	2230.24
608.56	2238.43
608.76	2410.46
608.95	2498.52
609.14	2381.79
609.33	2408.41
609.52	2471.90
609.72	2369.50
609.91	2371.55
610.10	2314.20
610.29	2508.76
610.48	2306.01
610.68	2324.44
610.87	2273.25
611.06	2242.53
611.25	2260.96
611.44	2392.03
611.63	2217.95
611.83	2408.41
612.02	2105.31
612.21	2373.60
612.40	2236.38
612.59	2162.66
612.79	2162.66
612.98	2189.28
613.17	2453.47
613.36	2295.77
613.55	2392.03
613.74	2363.36
613.93	2310.11
614.13	2519.00
614.32	2478.04
614.51	2379.74
614.70	2346.97
614.89	2265.05
615.08	2430.94
615.28	2826.20
615.47	2283.49
615.66	2338.78
615.85	2306.01
616.04	2394.08
616.23	2322.40
616.42	2332.64
616.62	2260.96
616.81	2314.20
617.00	2265.05
617.19	2351.07
617.38	2260.96
617.57	2322.40
617.76	2306.01
617.95	2381.79
618.15	2244.57
618.34	2369.50
618.53	2166.75
618.72	2432.99
618.91	2355.16
619.10	2527.19
619.29	2326.49
619.48	2236.38
619.68	2236.38
619.87	2232.29
620.06	2158.56
620.25	2332.64
620.44	2228.19
620.63	2265.05
620.82	2273.25
621.01	2334.68
621.20	2275.29
621.39	2340.83
621.59	2392.03
621.78	2277.34
621.97	2273.25
622.16	2250.72
622.35	2283.49
622.54	2334.68
622.73	2351.07
622.92	2121.70
623.11	2379.74
623.30	2236.38
623.49	2351.07
623.68	2265.05
623.88	2389.98
624.07	2310.11
624.26	2209.76
624.45	2297.82
624.64	2205.66
624.83	2254.81
625.02	2244.57
625.21	2238.43
625.40	2265.05
625.59	2396.12
625.78	2289.63
625.97	2389.98
626.16	2437.08
626.35	2340.83
626.54	2293.72
626.74	2527.19
626.93	2254.81
627.12	2289.63
627.31	2394.08
627.50	2334.68
627.69	2426.84
627.88	2234.33
628.07	2220.00
628.26	2070.50
628.45	2113.50
628.64	2308.06
628.83	2201.57
629.02	2203.61
629.21	2281.44
629.40	2351.07
629.59	2148.32
629.78	2220.00
629.97	2252.77
630.16	2279.39
630.35	2211.81
630.54	2277.34
630.73	2240.48
630.92	2279.39
631.11	2230.24
631.30	2252.77
631.49	2408.41
631.68	2211.81
631.87	2310.11
632.06	2136.03
632.25	2564.06
632.44	2299.87
632.63	2299.87
632.82	2248.67
633.01	2267.10
633.20	2359.26
633.39	2320.35
633.58	2244.57
633.77	2400.22
633.96	2301.92
634.15	2430.94
634.34	2394.08
634.53	2267.10
634.72	2254.81
634.91	2101.22
635.10	2273.25
635.29	2398.17
635.48	2351.07
635.67	2222.05
635.86	2084.83
636.05	2396.12
636.24	2275.29
636.43	2275.29
636.62	2318.30
636.81	2062.30
637.00	2283.49
637.19	2256.86
637.38	2222.05
637.57	2258.91
637.76	2295.77
637.95	2355.16
638.14	2351.07
638.33	2365.40
638.52	2338.78
638.71	2207.71
638.89	2228.19
639.08	2531.29
639.27	2502.62
639.46	2494.43
639.65	2826.20
639.84	2775.00
640.03	2940.88
640.22	2918.36
640.41	2940.88
640.60	2539.48
640.79	2531.29
640.98	2416.60
641.17	2441.18
641.36	2465.75
641.55	2453.47
641.74	2269.15
641.92	2269.15
642.11	2285.53
642.30	2187.23
642.49	2222.05
642.68	2127.84
642.87	2387.93
643.06	2303.96
643.25	2209.76
643.44	2176.99
643.63	2199.52
643.82	2330.59
644.00	2138.08
644.19	2289.63
644.38	2138.08
644.57	2267.10
644.76	2230.24
644.95	2308.06
645.14	2340.83
645.33	2215.90
645.52	2281.44
645.71	2148.32
645.89	2170.85
646.08	2248.67
646.27	2265.05
646.46	2502.62
646.65	2228.19
646.84	2301.92
647.03	2179.04
647.22	2308.06
647.40	2244.57
647.59	2234.33
647.78	2101.22
647.97	2148.32
648.16	2203.61
648.35	2478.04
648.54	2451.42
648.73	2252.77
648.91	2414.56
649.10	2355.16
649.29	2222.05
649.48	2287.58
649.67	2273.25
649.86	2277.34
650.05	2404.32
650.23	2478.04
650.42	2289.63
650.61	2486.23
650.80	2465.75
650.99	2555.86
651.18	2430.94
651.36	2506.71
651.55	2234.33
651.74	2326.49
651.93	2346.97
652.12	2189.28
652.31	2242.53
652.49	2260.96
652.68	2359.26
652.87	2377.69
653.06	2314.20
653.25	2398.17
653.44	2346.97
653.62	2473.95
653.81	2209.76
654.00	2318.30
654.19	2400.22
654.38	2572.25
654.56	2367.45
654.75	2228.19
654.94	2389.98
655.13	2224.09
655.32	2277.34
655.51	2355.16
655.69	2197.47
655.88	2271.20
656.07	2172.89
656.26	2283.49
656.45	2127.84
656.63	2211.81
656.82	2287.58
657.01	2428.89
657.20	2162.66
657.38	2420.70
657.57	2191.33
657.76	2117.60
657.95	2365.40
658.14	2252.77
658.32	2340.83
658.51	2193.37
658.70	2238.43
658.89	2279.39
659.08	2326.49
659.26	2447.32
659.45	2363.36
659.64	2310.11
659.83	2273.25
660.01	2697.17
660.20	2291.68
660.39	2482.14
660.58	2021.35
660.76	2320.35
660.95	2193.37
661.14	2330.59
661.33	2170.85
661.51	2207.71
661.70	2269.15
661.89	2308.06
662.08	2195.42
662.26	2097.12
662.45	2246.62
662.64	2387.93
662.83	2320.35
663.01	2209.76
663.20	2269.15
663.39	2441.18
663.58	2242.53
663.76	2228.19
663.95	2310.11
664.14	2193.37
664.32	2170.85
664.51	2166.75
664.70	2105.31
664.89	2289.63
665.07	2097.12
665.26	2330.59
665.45	2203.61
665.64	2318.30
665.82	2179.04
666.01	2418.65
666.20	2185.18
666.38	2359.26
666.57	2381.79
666.76	3364.81
666.95	7976.84
667.13	15941.39
667.32	21108.41
667.51	24518.28
667.69	26412.65
667.88	24333.96
668.07	17264.38
668.25	13854.51
668.44	11476.82
668.63	9787.24
668.81	8654.72
669.00	7776.14
669.19	6780.82
669.38	6039.46
669.56	5142.45
669.75	4384.70
669.94	3579.85
670.12	3063.76
670.31	2783.19
670.50	2619.35
670.68	2496.47
670.87	2449.37
671.06	2361.31
671.24	2375.64
671.43	2527.19
671.62	2367.45
671.80	2172.89
671.99	2346.97
672.18	2328.54
672.36	2392.03
672.55	2342.88
672.74	2320.35
672.92	2236.38
673.11	2334.68
673.29	2154.46
673.48	2330.59
673.67	2279.39
673.85	2359.26
674.04	2166.75
674.23	2283.49
674.41	2432.99
674.60	2185.18
674.79	2011.11
674.97	2160.61
675.16	2357.21
675.34	2324.44
675.53	2215.90
675.72	2285.53
675.90	2453.47
676.09	2189.28
676.28	2281.44
676.46	2131.94
676.65	2285.53
676.83	2170.85
677.02	2349.02
677.21	2263.01
677.39	2330.59
677.58	2250.72
677.77	2244.57
677.95	2275.29
678.14	2195.42
678.32	2187.23
678.51	2209.76
678.70	2447.32
678.88	2127.84
679.07	2340.83
679.25	2277.34
679.44	2207.71
679.63	2168.80
679.81	2265.05
680.00	2371.55
680.18	2357.21
680.37	2392.03
680.55	2232.29
680.74	2138.08
680.93	2111.46
681.11	2277.34
681.30	2271.20
681.48	2301.92
681.67	2220.00
681.85	2256.86
682.04	2215.90
682.23	2383.84
682.41	2265.05
682.60	2242.53
682.78	2273.25
682.97	2129.89
683.15	2265.05
683.34	2324.44
683.53	2338.78
683.71	2168.80
683.90	2404.32
684.08	2478.04
684.27	2242.53
684.45	2275.29
684.64	2328.54
684.82	2265.05
685.01	2314.20
685.19	2314.20
685.38	2404.32
685.57	2207.71
685.75	2138.08
685.94	2191.33
686.12	2138.08
686.31	2129.89
686.49	2432.99
686.68	2174.94
686.86	2351.07
687.05	2279.39
687.23	2396.12
687.42	2242.53
687.60	2109.41
687.79	2320.35
687.97	2500.57
688.16	2359.26
688.34	2402.27
688.53	2107.36
688.71	2316.25
688.90	2359.26
689.08	2220.00
689.27	2103.26
689.45	2299.87
689.64	2338.78
689.82	2265.05
690.01	2289.63
690.19	2267.10
690.38	2179.04
690.56	2324.44
690.75	2154.46
690.93	2189.28
691.12	2176.99
691.30	2310.11
691.49	2248.67
691.67	2375.64
691.86	2473.95
692.04	2191.33
692.23	2285.53
692.41	2351.07
692.60	2408.41
692.78	2365.40
692.97	2342.88
693.15	2379.74
693.34	2404.32
693.52	2424.80
693.71	2232.29
693.89	2322.40
694.08	2144.22
694.26	2283.49
694.44	2400.22
694.63	2336.73
694.81	2154.46
695.00	2146.27
695.18	2445.27
695.37	2478.04
695.55	2328.54
695.74	2181.09
695.92	2168.80
696.10	2379.74
696.29	2117.60
696.47	2220.00
696.66	2150.37
696.84	2170.85
697.03	2252.77
697.21	2463.71
697.40	3274.70
697.58	2394.08
697.76	2172.89
697.95	2236.38
698.13	2170.85
698.32	2289.63
698.50	2279.39
698.68	2389.98
698.87	2295.77
699.05	2414.56
699.24	2381.79
699.42	2191.33
699.61	2277.34
699.79	2283.49
699.97	2215.90
700.16	2105.31
700.34	2129.89
700.53	2279.39
700.71	2396.12
700.89	2293.72
701.08	2258.91
701.26	2279.39
701.45	2772.95
701.63	2193.37
701.81	2244.57
702.00	2271.20
702.18	2269.15
702.37	2226.14
702.55	2365.40
702.73	2400.22
702.92	2324.44
703.10	2600.92
703.28	2471.90
703.47	2254.81
703.65	2400.22
703.84	2463.71
704.02	2297.82
704.20	2510.81
704.39	2187.23
704.57	2318.30
704.75	2451.42
704.94	2389.98
705.12	2269.15
705.30	2609.11
705.49	4399.04
705.67	10239.84
705.86	18147.05
706.04	21616.31
706.22	24897.16
706.41	25474.68
706.59	21581.49
706.77	15417.11
706.96	12990.27
707.14	11132.76
707.32	9797.48
707.51	8736.63
707.69	7176.08
707.87	5834.66
708.06	4949.94
708.24	3964.87
708.42	3252.17
708.61	2998.23
708.79	2471.90
708.97	2453.47
709.16	2379.74
709.34	2250.72
709.52	2254.81
709.71	2318.30
709.89	2299.87
710.07	2193.37
710.26	2158.56
710.44	2236.38
710.62	2383.84
710.80	2220.00
710.99	2334.68
711.17	2301.92
711.35	2123.74
711.54	2170.85
711.72	2389.98
711.90	2334.68
712.09	2242.53
712.27	2222.05
712.45	2252.77
712.63	2236.38
712.82	2303.96
713.00	2222.05
713.18	2416.60
713.37	2365.40
713.55	2375.64
713.73	2271.20
713.91	2281.44
714.10	2197.47
714.28	2201.57
714.46	2289.63
714.65	2306.01
714.83	2273.25
715.01	2314.20
715.19	2260.96
715.38	2185.18
715.56	2281.44
715.74	2189.28
715.92	2181.09
716.11	2441.18
716.29	2080.74
716.47	2306.01
716.65	2252.77
716.84	2088.93
717.02	2367.45
717.20	2222.05
717.38	2195.42
717.57	2308.06
717.75	2273.25
717.93	2127.84
718.11	2318.30
718.30	2144.22
718.48	2299.87
718.66	2267.10
718.84	2334.68
719.03	2277.34
719.21	2168.80
719.39	2484.19
719.57	2293.72
719.75	2330.59
719.94	2224.09
720.12	2236.38
720.30	2273.25
720.48	2351.07
720.67	2185.18
720.85	2136.03
721.03	2252.77
721.21	2146.27
721.39	2375.64
721.58	2310.11
721.76	2271.20
721.94	2263.01
722.12	2263.01
722.30	2394.08
722.49	2236.38
722.67	2222.05
722.85	2224.09
723.03	2119.65
723.21	2201.57
723.40	2293.72
723.58	2418.65
723.76	2381.79
723.94	2375.64
724.12	2306.01
724.30	2469.85
724.49	2441.18
724.67	2176.99
724.85	2488.28
725.03	2078.69
725.21	2357.21
725.40	2359.26
725.58	2240.48
725.76	2344.92
725.94	2387.93
726.12	2187.23
726.30	2201.57
726.49	2244.57
726.67	2101.22
726.85	2322.40
727.03	2551.77
727.21	3608.52
727.39	5117.87
727.57	5871.53
727.76	6475.68
727.94	6707.10
728.12	6193.06
728.30	5136.31
728.48	4546.49
728.66	4016.07
728.84	3784.65
729.03	3153.87
729.21	3006.42
729.39	2688.98
729.57	2449.37
729.75	2359.26
729.93	2383.84
730.11	2238.43
730.30	2260.96
730.48	2310.11
730.66	2367.45
730.84	2336.73
731.02	2281.44
731.20	2164.70
731.38	2232.29
731.56	2152.42
731.74	2162.66
731.93	2279.39
732.11	2170.85
732.29	2199.52
732.47	2365.40
732.65	2336.73
732.83	2430.94
733.01	2312.16
733.19	2133.98
733.37	2260.96
733.56	2289.63
733.74	2185.18
733.92	2359.26
734.10	2228.19
734.28	2351.07
734.46	2117.60
734.64	2277.34
734.82	2297.82
735.00	2162.66
735.18	2222.05
735.36	2207.71
735.54	2236.38
735.73	2277.34
735.91	2320.35
736.09	2318.30
736.27	2185.18
736.45	2306.01
736.63	2125.79
736.81	2168.80
736.99	2377.69
737.17	2359.26
737.35	2138.08
737.53	2252.77
737.71	2301.92
737.89	2320.35
738.07	2248.67
738.25	2211.81
738.43	2158.56
738.61	2187.23
738.80	2099.17
738.98	2277.34
739.16	2176.99
739.34	2187.23
739.52	2414.56
739.70	2244.57
739.88	2367.45
740.06	2383.84
740.24	2099.17
740.42	2318.30
740.60	2088.93
740.78	2232.29
740.96	2131.94
741.14	2220.00
741.32	2316.25
741.50	2203.61
741.68	2531.29
741.86	2400.22
742.04	2076.64
742.22	2103.26
742.40	2260.96
742.58	2332.64
742.76	2170.85
742.94	2355.16
743.12	2070.50
743.30	2228.19
743.48	2283.49
743.66	2215.90
743.84	2236.38
744.02	2215.90
744.20	2265.05
744.38	2183.13
744.56	2193.37
744.74	2402.27
744.92	2355.16
745.10	2324.44
745.28	2385.88
745.46	2506.71
745.64	2248.67
745.82	2310.11
746.00	2246.62
746.18	2387.93
746.36	2183.13
746.54	2283.49
746.72	2242.53
746.90	2176.99
747.08	2412.51
747.26	2238.43
747.44	2265.05
747.62	2252.77
747.80	2263.01
747.98	2424.80
748.15	2205.66
748.33	2381.79
748.51	2275.29
748.69	2301.92
748.87	2117.60
749.05	2187.23
749.23	2314.20
749.41	2363.36
749.59	2191.33
749.77	2342.88
749.95	2226.14
750.13	2269.15
750.31	2252.77
750.49	2240.48
750.67	2353.12
750.85	2361.31
751.03	2232.29
751.20	2519.00
751.38	2215.90
751.56	2242.53
751.74	2285.53
751.92	2254.81
752.10	2158.56
752.28	2373.60
752.46	2109.41
752.64	2232.29
752.82	2279.39
753.00	2371.55
753.18	2181.09
753.35	2195.42
753.53	2250.72
753.71	2220.00
753.89	2326.49
754.07	2408.41
754.25	2279.39
754.43	2236.38
754.61	2099.17
754.79	2367.45
754.97	2224.09
755.14	2310.11
755.32	2117.60
755.50	2330.59
755.68	2320.35
755.86	2195.42
756.04	2148.32
756.22	2183.13
756.40	2361.31
756.57	2455.51
756.75	2199.52
756.93	2367.45
757.11	2453.47
757.29	2129.89
757.47	2217.95
757.65	2097.12
757.82	2093.02
758.00	2181.09
758.18	2224.09
758.36	2220.00
758.54	2351.07
758.72	2121.70
758.90	2281.44
759.07	2299.87
759.25	2084.83
759.43	2203.61
759.61	2101.22
759.79	3082.19
759.97	2361.31
760.15	2226.14
760.32	2185.18
760.50	2269.15
760.68	2338.78
760.86	2152.42
761.04	2269.15
761.22	2303.96
761.39	2244.57
761.57	2351.07
761.75	2265.05
761.93	2297.82
762.11	2269.15
762.28	2269.15
762.46	2176.99
762.64	2314.20
762.82	2113.50
763.00	2281.44
763.18	2365.40
763.35	2187.23
763.53	2299.87
763.71	2242.53
763.89	2269.15
764.07	2316.25
764.24	2318.30
764.42	2379.74
764.60	2269.15
764.78	2346.97
764.96	2371.55
765.13	2277.34
765.31	2152.42
765.49	2326.49
765.67	2140.13
765.84	2158.56
766.02	2250.72
766.20	2109.41
766.38	2267.10
766.56	2334.68
766.73	2258.91
766.91	2265.05
767.09	2318.30
767.27	2285.53
767.44	2154.46
767.62	2303.96
767.80	2234.33
767.98	2181.09
768.15	2183.13
768.33	2275.29
768.51	2357.21
768.69	2256.86
768.87	2258.91
769.04	2324.44
769.22	2553.82
769.40	2412.51
769.58	2496.47
769.75	2281.44
769.93	2342.88
770.11	2267.10
770.28	2154.46
770.46	2336.73
770.64	2220.00
770.82	2236.38
770.99	2183.13
771.17	2279.39
771.35	2185.18
771.53	2336.73
771.70	2215.90
771.88	2289.63
772.06	2209.76
772.23	2283.49
772.41	2281.44
772.59	2185.18
772.77	2099.17
772.94	2291.68
773.12	2349.02
773.30	2183.13
773.47	2303.96
773.65	2211.81
773.83	2375.64
774.01	2217.95
774.18	2062.30
774.36	2228.19
774.54	2187.23
774.71	2297.82
774.89	2179.04
775.07	2207.71
775.24	2191.33
775.42	2228.19
775.60	2459.61
775.78	2174.94
775.95	2170.85
776.13	2068.45
776.31	1984.48
776.48	2306.01
776.66	2367.45
776.84	2250.72
777.01	2142.18
777.19	2183.13
777.37	2240.48
777.54	2269.15
777.72	2494.43
777.90	2301.92
778.07	2148.32
778.25	2607.06
778.43	2394.08
778.60	2150.37
778.78	2306.01
778.96	2375.64
779.13	2195.42
779.31	2316.25
779.49	2248.67
779.66	2199.52
779.84	2254.81
780.01	2240.48
780.19	2105.31
780.37	2269.15
780.54	2287.58
780.72	2189.28
780.90	2254.81
781.07	2185.18
781.25	2183.13
781.43	2406.36
781.60	2228.19
781.78	2332.64
781.95	2332.64
782.13	2176.99
782.31	2164.70
782.48	2021.35
782.66	2285.53
782.83	2478.04
783.01	2258.91
783.19	2342.88
783.36	2203.61
783.54	2088.93
783.72	2328.54
783.89	2197.47
784.07	2230.24
784.24	2295.77
784.42	2338.78
784.60	2230.24
784.77	2324.44
784.95	2029.54
785.12	2158.56
785.30	2297.82
785.47	2125.79
785.65	2152.42
785.83	2215.90
786.00	2242.53
786.18	2236.38
786.35	2074.59
786.53	2267.10
786.71	2318.30
786.88	2254.81
787.06	2301.92
787.23	2205.66
787.41	2160.61
787.58	2252.77
787.76	2113.50
787.94	2234.33
788.11	2252.77
788.29	2187.23
788.46	2217.95
788.64	2136.03
788.81	2193.37
788.99	2174.94
789.16	2174.94
789.34	2240.48
789.52	2207.71
789.69	2191.33
789.87	2056.16
790.04	2199.52
790.22	2260.96
790.39	2471.90
790.57	2123.74
790.74	2170.85
790.92	2375.64
791.09	2086.88
791.27	2197.47
791.44	2316.25
791.62	2220.00
791.79	2271.20
791.97	2217.95
792.15	2562.01
792.32	2260.96
792.50	2387.93
792.67	2426.84
792.85	2392.03
793.02	2256.86
793.20	2234.33
793.37	2080.74
793.55	2224.09
793.72	2113.50
793.90	2275.29
794.07	2133.98
794.25	2146.27
794.42	2359.26
794.60	2228.19
794.77	2269.15
794.95	2283.49
795.12	2375.64
795.30	2260.96
795.47	2029.54
795.65	2457.56
795.82	2367.45
796.00	2222.05
796.17	2224.09
796.34	2158.56
796.52	2248.67
796.69	2422.75
796.87	2320.35
797.04	2260.96
797.22	2363.36
797.39	2269.15
797.57	2230.24
797.74	2271.20
797.92	2250.72
798.09	2183.13
798.27	2308.06
798.44	2232.29
798.62	2191.33
798.79	2254.81
798.96	2220.00
799.14	2183.13
799.31	2508.76
799.49	2170.85
799.66	2238.43
799.84	2256.86
800.01	2152.42
800.19	2359.26
800.36	2123.74
800.53	2193.37
800.71	2383.84
800.88	2432.99
801.06	2193.37
801.23	2160.61
801.41	2166.75
801.58	2314.20
801.75	2168.80
801.93	2215.90
802.10	2308.06
802.28	2252.77
802.45	2162.66
802.63	2310.11
802.80	2418.65
802.97	2242.53
803.15	2295.77
803.32	2228.19
803.50	2185.18
803.67	2205.66
803.84	2109.41
804.02	2236.38
804.19	2172.89
804.37	2023.39
804.54	2154.46
804.71	2291.68
804.89	2203.61
805.06	2189.28
805.24	2217.95
805.41	2086.88
805.58	2213.85
805.76	2508.76
805.93	2217.95
806.10	2371.55
806.28	2293.72
806.45	2293.72
806.63	2232.29
806.80	2246.62
806.97	2289.63
807.15	2191.33
807.32	2267.10
807.49	2248.67
807.67	2193.37
807.84	2252.77
808.01	2068.45
808.19	2451.42
808.36	2521.05
808.54	2193.37
808.71	2170.85
808.88	2303.96
809.06	2308.06
809.23	2412.51
809.40	2152.42
809.58	2344.92
809.75	2183.13
809.92	2179.04
810.10	2408.41
810.27	2263.01
810.44	2289.63
810.62	2291.68
810.79	2230.24
810.96	2142.18
811.14	2248.67
811.31	2293.72
811.48	2344.92
811.66	2201.57
811.83	2342.88
812.00	2256.86
812.18	2285.53
812.35	2478.04
812.52	2197.47
812.69	2265.05
812.87	2193.37
813.04	2160.61
813.21	2265.05
813.39	2254.81
813.56	2123.74
813.73	2301.92
813.91	2125.79
814.08	2324.44
814.25	2250.72
814.42	2103.26
814.60	2236.38
814.77	2236.38
814.94	2220.00
815.12	2269.15
815.29	2387.93
815.46	2209.76
815.63	2324.44
815.81	2299.87
815.98	2211.81
816.15	2285.53
816.33	2174.94
816.50	2199.52
816.67	2260.96
816.84	2228.19
817.02	2193.37
817.19	2232.29
817.36	2373.60
817.53	2377.69
817.71	2138.08
817.88	2277.34
818.05	2238.43
818.22	2240.48
818.40	2439.13
818.57	2154.46
818.74	2236.38
818.91	2254.81
819.09	2283.49
819.26	2308.06
819.43	2209.76
819.60	2207.71
819.78	2373.60
819.95	2336.73
820.12	2160.61
820.29	2285.53
820.47	2375.64
820.64	2201.57
820.81	2078.69
820.98	2179.04
821.15	2183.13
821.33	2293.72
821.50	2127.84
821.67	2306.01
821.84	2250.72
822.02	2174.94
822.19	2385.88
822.36	2203.61
822.53	2211.81
822.70	2039.78
822.88	2236.38
823.05	2338.78
823.22	2256.86
823.39	2297.82
823.56	2146.27
823.74	2441.18
823.91	2146.27
824.08	2148.32
824.25	2222.05
824.42	2404.32
824.60	2056.16
824.77	2328.54
824.94	2326.49
825.11	2275.29
825.28	2142.18
825.45	2308.06
825.63	2240.48
825.80	2199.52
825.97	2277.34
826.14	2332.64
826.31	2062.30
826.48	2248.67
826.66	2187.23
826.83	2144.22
827.00	2154.46
827.17	2179.04
827.34	2209.76
827.51	2215.90
827.69	2203.61
827.86	2099.17
828.03	2179.04
828.20	2211.81
828.37	2203.61
828.54	2334.68
828.71	2226.14
828.89	2437.08
829.06	2236.38
829.23	2398.17
829.40	2072.54
829.57	2236.38
829.74	2258.91
829.91	2195.42
830.09	2166.75
830.26	2287.58
830.43	2424.80
830.60	2310.11
830.77	2316.25
830.94	2346.97
831.11	2357.21
831.28	2252.77
831.46	2338.78
831.63	2234.33
831.80	2310.11
831.97	2234.33
832.14	2256.86
832.31	2273.25
832.48	2263.01
832.65	2424.80
832.82	2203.61
832.99	2246.62
833.17	2111.46
833.34	2408.41
833.51	2197.47
833.68	2062.30
833.85	2342.88
834.02	2144.22
834.19	2162.66
834.36	2220.00
834.53	2344.92
834.70	2308.06
834.87	2324.44
835.04	2201.57
835.22	2211.81
835.39	2154.46
835.56	2095.07
835.73	2258.91
835.90	2332.64
836.07	2207.71
836.24	2258.91
836.41	2115.55
836.58	2160.61
836.75	2258.91
836.92	2260.96
837.09	2203.61
837.26	2326.49
837.43	2291.68
837.60	2265.05
837.77	2097.12
837.94	2371.55
838.12	2310.11
838.29	2211.81
838.46	2101.22
838.63	2181.09
838.80	2469.85
838.97	2256.86
839.14	2285.53
839.31	2295.77
839.48	2367.45
839.65	2189.28
839.82	2293.72
839.99	2281.44
840.16	2242.53
840.33	2121.70
840.50	2260.96
840.67	2168.80
840.84	2056.16
841.01	2260.96
841.18	2162.66
841.35	2236.38
841.52	2293.72
841.69	2383.84
841.86	2303.96
842.03	2207.71
842.20	2332.64
842.37	2250.72
842.54	2179.04
842.71	2330.59
842.88	2136.03
843.05	2283.49
843.22	2158.56
843.39	2330.59
843.56	2226.14
843.73	2220.00
843.90	2220.00
844.07	2226.14
844.24	2285.53
844.41	2295.77
844.58	2220.00
844.75	2195.42
844.92	2291.68
845.09	2220.00
845.26	2117.60
845.43	2267.10
845.60	2195.42
845.77	2252.77
845.94	2281.44
846.10	2324.44
846.27	2129.89
846.44	2154.46
846.61	2111.46
846.78	2330.59
846.95	2318.30
847.12	2121.70
847.29	2205.66
847.46	2203.61
847.63	2340.83
847.80	2156.51
847.97	2138.08
848.14	2426.84
848.31	2217.95
848.48	2127.84
848.65	2320.35
848.82	2222.05
848.98	2514.91
849.15	2295.77
849.32	2267.10
849.49	2310.11
849.66	2181.09
849.83	2154.46
850.00	2133.98
850.17	2301.92
850.34	2220.00
850.51	2160.61
850.68	2189.28
850.85	2496.47
851.01	2285.53
851.18	2256.86
851.35	2158.56
851.52	2334.68
851.69	2418.65
851.86	2084.83
852.03	2215.90
852.20	2324.44
852.37	2281.44
852.53	2056.16
852.70	2193.37
852.87	2244.57
853.04	2240.48
853.21	2156.51
853.38	2342.88
853.55	2430.94
853.72	2375.64
853.89	2121.70
854.05	2179.04
854.22	2211.81
854.39	2187.23
854.56	2232.29
854.73	2375.64
854.90	2172.89
855.07	2179.04
855.23	2193.37
855.40	2191.33
855.57	2195.42
855.74	2047.97
855.91	2478.04
856.08	2090.98
856.25	2084.83
856.41	2097.12
856.58	2154.46
856.75	2201.57
856.92	2205.66
857.09	2297.82
857.26	2068.45
857.42	2228.19
857.59	2353.12
857.76	2133.98
857.93	2248.67
858.10	2217.95
858.27	2129.89
858.43	2224.09
858.60	2129.89
858.77	2062.30
858.94	2213.85
859.11	2371.55
859.27	2156.51
859.44	2133.98
859.61	2465.75
859.78	2269.15
859.95	2152.42
860.12	2238.43
860.28	2392.03
860.45	2404.32
860.62	2105.31
860.79	2193.37
860.95	2185.18
861.12	2125.79
861.29	2176.99
861.46	2183.13
861.63	2203.61
861.79	2211.81
861.96	2103.26
862.13	2111.46
862.30	2359.26
862.47	2166.75
862.63	2093.02
862.80	2351.07
862.97	2338.78
863.14	2183.13
863.30	2203.61
863.47	2127.84
863.64	2383.84
863.81	2203.61
863.97	2170.85
864.14	2234.33
864.31	2263.01
864.48	2310.11
864.65	2183.13
864.81	2398.17
864.98	2310.11
865.15	2293.72
865.32	2312.16
865.48	2275.29
865.65	2492.38
865.82	2232.29
865.98	2244.57
866.15	2277.34
866.32	2322.40
866.49	2277.34
866.65	2353.12
866.82	2131.94
866.99	2201.57
867.16	2195.42
867.32	2095.07
867.49	2207.71
867.66	2197.47
867.83	2203.61
867.99	2121.70
868.16	2138.08
868.33	2095.07
868.49	2222.05
868.66	2211.81
868.83	2291.68
868.99	2240.48
869.16	2244.57
869.33	2285.53
869.50	2226.14
869.66	2236.38
869.83	2217.95
870.00	2152.42
870.16	2287.58
870.33	2193.37
870.50	2355.16
870.66	2244.57
870.83	2359.26
871.00	2162.66
871.17	2334.68
871.33	2244.57
871.50	2234.33
871.67	2230.24
871.83	2207.71
872.00	2242.53
872.17	2176.99
872.33	2496.47
872.50	2277.34
872.67	2183.13
872.83	2271.20
873.00	2260.96
873.17	2162.66
873.33	2283.49
873.50	2217.95
873.67	2211.81
873.83	2140.13
874.00	2240.48
874.16	2295.77
874.33	2295.77
874.50	2119.65
874.66	2250.72
874.83	2275.29
875.00	2334.68
875.16	2289.63
875.33	2232.29
875.50	2039.78
875.66	2174.94
875.83	2299.87
875.99	2314.20
876.16	2193.37
876.33	2160.61
876.49	2199.52
876.66	2211.81
876.83	2224.09
876.99	2025.44
877.16	2277.34
877.32	2193.37
877.49	2125.79
877.66	2312.16
877.82	2299.87
877.99	2250.72
878.15	2306.01
878.32	2334.68
878.49	2326.49
878.65	2222.05
878.82	2422.75
878.98	2217.95
879.15	2336.73
879.32	2269.15
879.48	2242.53
879.65	2201.57
879.81	2265.05
879.98	2144.22
880.15	2179.04
880.31	2310.11
880.48	2187.23
880.64	2320.35
880.81	2291.68
880.97	2404.32
881.14	2408.41
881.31	2119.65
881.47	2367.45
881.64	2207.71
881.80	2050.02
881.97	2244.57
882.13	2260.96
882.30	2232.29
882.47	2181.09
882.63	2121.70
882.80	2160.61
882.96	2160.61
883.13	2365.40
883.29	2207.71
883.46	2263.01
883.62	2428.89
883.79	2195.42
883.95	2260.96
884.12	2226.14
884.29	2351.07
884.45	2228.19
884.62	2215.90
884.78	2197.47
884.95	2424.80
885.11	2150.37
885.28	2220.00
885.44	2258.91
885.61	2332.64
885.77	2326.49
885.94	2220.00
886.10	2240.48
886.27	2277.34
886.43	2398.17
886.60	2281.44
886.76	2113.50
886.93	2273.25
887.09	2236.38
887.26	2070.50
887.42	2234.33
887.59	2369.50
887.75	2469.85
887.92	2308.06
888.08	2289.63
888.25	2471.90
888.41	2342.88
888.58	2293.72
888.74	2144.22
888.91	2170.85
>>>>>End Processed Spectral Data<<<<<
