SpectraSuite Data File
++++++++++++++++++++++++++++++++++++
Date: Thu May 05 13:21:09 CEST 2016
User: root
Dark Spectrum Present: No
Reference Spectrum Present: No
Number of Sampled Component Spectra: 1
Spectrometers: USB4C02835
Integration Time (usec): 100000 (USB4C02835)
Spectra Averaged: 1 (USB4C02835)
Boxcar Smoothing: 0 (USB4C02835)
Correct for Electrical Dark: No (USB4C02835)
Strobe/Lamp Enabled: No (USB4C02835)
Correct for Detector Non-linearity: No (USB4C02835)
Correct for Stray Light: No (USB4C02835)
Number of Pixels in Processed Spectrum: 3648
>>>>>Begin Processed Spectral Data<<<<<
177.47	1814.50
177.69	1814.50
177.91	1814.50
178.13	1839.08
178.36	1826.79
178.58	2138.08
178.80	2256.86
179.02	2125.79
179.24	2195.42
179.46	2172.89
179.68	2217.95
179.90	2310.11
180.13	2226.14
180.35	2047.97
180.57	2142.18
180.79	2375.64
181.01	2187.23
181.23	2252.77
181.45	2297.82
181.67	2299.87
181.90	2312.16
182.12	2086.88
182.34	2088.93
182.56	2318.30
182.78	2260.96
183.00	2170.85
183.22	2244.57
183.44	2025.44
183.66	2562.01
183.89	2383.84
184.11	2187.23
184.33	2211.81
184.55	2318.30
184.77	2201.57
184.99	2295.77
185.21	2150.37
185.43	2531.29
185.65	2183.13
185.87	2164.70
186.10	2527.19
186.32	2490.33
186.54	2209.76
186.76	2293.72
186.98	2357.21
187.20	2199.52
187.42	2084.83
187.64	2166.75
187.86	2250.72
188.08	2430.94
188.30	2170.85
188.52	2158.56
188.75	2406.36
188.97	2420.70
189.19	2144.22
189.41	2158.56
189.63	2258.91
189.85	2273.25
190.07	2105.31
190.29	1994.72
190.51	2287.58
190.73	2136.03
190.95	2353.12
191.17	2303.96
191.39	2064.35
191.61	2168.80
191.84	2168.80
192.06	2181.09
192.28	2066.40
192.50	2535.39
192.72	2250.72
192.94	2199.52
193.16	2377.69
193.38	2322.40
193.60	2105.31
193.82	2215.90
194.04	2408.41
194.26	2301.92
194.48	2176.99
194.70	2125.79
194.92	2205.66
195.14	2324.44
195.36	2097.12
195.58	2113.50
195.80	2256.86
196.02	2154.46
196.24	2121.70
196.46	2191.33
196.69	2207.71
196.91	2484.19
197.13	2168.80
197.35	2129.89
197.57	2306.01
197.79	2346.97
198.01	2201.57
198.23	2273.25
198.45	2306.01
198.67	2154.46
198.89	2109.41
199.11	2267.10
199.33	2140.13
199.55	2031.58
199.77	2179.04
199.99	2291.68
200.21	2133.98
200.43	2220.00
200.65	2082.78
200.87	2011.11
201.09	2217.95
201.31	2158.56
201.53	2226.14
201.75	2244.57
201.97	2230.24
202.19	2226.14
202.41	2301.92
202.63	2351.07
202.85	2306.01
203.07	2240.48
203.29	2152.42
203.51	2129.89
203.73	2162.66
203.95	2547.67
204.17	2226.14
204.39	2195.42
204.61	2273.25
204.83	2164.70
205.05	2211.81
205.27	2199.52
205.49	2394.08
205.71	2191.33
205.93	2113.50
206.15	2088.93
206.37	2215.90
206.59	2220.00
206.81	2131.94
207.03	2142.18
207.25	2095.07
207.47	2346.97
207.69	2201.57
207.91	2385.88
208.13	2447.32
208.34	2250.72
208.56	2138.08
208.78	2181.09
209.00	2199.52
209.22	2209.76
209.44	2172.89
209.66	2111.46
209.88	2195.42
210.10	2242.53
210.32	2154.46
210.54	2230.24
210.76	2273.25
210.98	2351.07
211.20	2125.79
211.42	2320.35
211.64	2381.79
211.86	2279.39
212.08	2226.14
212.30	2152.42
212.52	2258.91
212.74	2275.29
212.96	2228.19
213.17	2238.43
213.39	2263.01
213.61	2484.19
213.83	2197.47
214.05	2220.00
214.27	2342.88
214.49	2187.23
214.71	2080.74
214.93	2297.82
215.15	2265.05
215.37	2254.81
215.59	2105.31
215.81	2174.94
216.03	2447.32
216.24	2238.43
216.46	2205.66
216.68	2191.33
216.90	2301.92
217.12	2324.44
217.34	2138.08
217.56	2187.23
217.78	2400.22
218.00	2297.82
218.22	2220.00
218.44	2248.67
218.66	2326.49
218.87	2498.52
219.09	2150.37
219.31	2179.04
219.53	2297.82
219.75	2201.57
219.97	2158.56
220.19	2209.76
220.41	2260.96
220.63	2369.50
220.85	2224.09
221.06	2138.08
221.28	2277.34
221.50	2322.40
221.72	2250.72
221.94	2133.98
222.16	2324.44
222.38	2316.25
222.60	2129.89
222.82	2172.89
223.03	2312.16
223.25	2224.09
223.47	2236.38
223.69	2369.50
223.91	2291.68
224.13	2228.19
224.35	2174.94
224.57	2291.68
224.78	2293.72
225.00	2179.04
225.22	2285.53
225.44	2152.42
225.66	2338.78
225.88	2203.61
226.10	2267.10
226.32	2158.56
226.53	2318.30
226.75	2195.42
226.97	2248.67
227.19	2201.57
227.41	2203.61
227.63	2199.52
227.85	2007.01
228.06	2172.89
228.28	2326.49
228.50	2357.21
228.72	2082.78
228.94	2209.76
229.16	2084.83
229.37	2123.74
229.59	2179.04
229.81	2232.29
230.03	2240.48
230.25	2160.61
230.47	2117.60
230.69	2080.74
230.90	2330.59
231.12	2220.00
231.34	2263.01
231.56	2281.44
231.78	2099.17
232.00	2312.16
232.21	2195.42
232.43	2129.89
232.65	2000.87
232.87	2265.05
233.09	2136.03
233.30	2080.74
233.52	2342.88
233.74	2187.23
233.96	2158.56
234.18	2217.95
234.40	2277.34
234.61	2430.94
234.83	2107.36
235.05	2174.94
235.27	2488.28
235.49	2451.42
235.70	2095.07
235.92	2256.86
236.14	2338.78
236.36	2551.77
236.58	2088.93
236.79	2228.19
237.01	2240.48
237.23	2314.20
237.45	2365.40
237.67	2133.98
237.88	2248.67
238.10	2342.88
238.32	2105.31
238.54	2187.23
238.76	2293.72
238.97	2160.61
239.19	2127.84
239.41	2230.24
239.63	2277.34
239.85	2199.52
240.06	2142.18
240.28	2138.08
240.50	2295.77
240.72	2250.72
240.93	2217.95
241.15	2269.15
241.37	2183.13
241.59	2441.18
241.81	2123.74
242.02	2191.33
242.24	2242.53
242.46	2281.44
242.68	2146.27
242.89	2217.95
243.11	2306.01
243.33	2293.72
243.55	2220.00
243.76	2211.81
243.98	2164.70
244.20	2295.77
244.42	2207.71
244.64	2168.80
244.85	2185.18
245.07	2158.56
245.29	2154.46
245.51	2181.09
245.72	2285.53
245.94	2349.02
246.16	2187.23
246.38	2248.67
246.59	2285.53
246.81	2174.94
247.03	2207.71
247.24	2058.21
247.46	2213.85
247.68	2232.29
247.90	2105.31
248.11	2160.61
248.33	2269.15
248.55	2248.67
248.77	2265.05
248.98	2303.96
249.20	2289.63
249.42	2252.77
249.64	2232.29
249.85	2121.70
250.07	2185.18
250.29	2355.16
250.50	2236.38
250.72	2113.50
250.94	2355.16
251.16	2482.14
251.37	2215.90
251.59	2250.72
251.81	2340.83
252.02	2365.40
252.24	2154.46
252.46	2293.72
252.68	2144.22
252.89	2176.99
253.11	2021.35
253.33	2303.96
253.54	2359.26
253.76	2150.37
253.98	2185.18
254.20	2199.52
254.41	2195.42
254.63	2215.90
254.85	2070.50
255.06	2117.60
255.28	2236.38
255.50	2254.81
255.71	2176.99
255.93	2031.58
256.15	2162.66
256.36	2308.06
256.58	2113.50
256.80	2211.81
257.02	2215.90
257.23	2226.14
257.45	2185.18
257.67	2244.57
257.88	2168.80
258.10	2299.87
258.32	2236.38
258.53	2248.67
258.75	2449.37
258.97	2136.03
259.18	2195.42
259.40	2185.18
259.62	2424.80
259.83	2412.51
260.05	2248.67
260.27	2652.12
260.48	2385.88
260.70	2129.89
260.92	2076.64
261.13	2179.04
261.35	2236.38
261.57	2334.68
261.78	2056.16
262.00	2111.46
262.22	2351.07
262.43	2232.29
262.65	2189.28
262.86	2248.67
263.08	2504.67
263.30	2236.38
263.51	2045.92
263.73	2129.89
263.95	2404.32
264.16	2179.04
264.38	2119.65
264.60	2158.56
264.81	2244.57
265.03	2332.64
265.25	2299.87
265.46	2185.18
265.68	2308.06
265.89	2320.35
266.11	2066.40
266.33	2279.39
266.54	2336.73
266.76	2263.01
266.98	2281.44
267.19	2258.91
267.41	2326.49
267.62	2269.15
267.84	2072.54
268.06	2265.05
268.27	2187.23
268.49	2334.68
268.70	2256.86
268.92	2195.42
269.14	2195.42
269.35	2125.79
269.57	2187.23
269.79	2281.44
270.00	2260.96
270.22	2471.90
270.43	2035.68
270.65	2056.16
270.87	2299.87
271.08	2324.44
271.30	2174.94
271.51	2164.70
271.73	2332.64
271.95	2314.20
272.16	2211.81
272.38	2209.76
272.59	2162.66
272.81	2291.68
273.02	2246.62
273.24	2162.66
273.46	2363.36
273.67	2146.27
273.89	2164.70
274.10	2158.56
274.32	2414.56
274.54	2293.72
274.75	2226.14
274.97	2166.75
275.18	2334.68
275.40	2285.53
275.61	2199.52
275.83	2191.33
276.05	2084.83
276.26	2248.67
276.48	2215.90
276.69	2275.29
276.91	2252.77
277.12	2365.40
277.34	2283.49
277.55	2260.96
277.77	2299.87
277.99	2260.96
278.20	2220.00
278.42	2080.74
278.63	2146.27
278.85	2164.70
279.06	2144.22
279.28	2359.26
279.49	2322.40
279.71	2293.72
279.93	2285.53
280.14	2234.33
280.36	2211.81
280.57	2269.15
280.79	2310.11
281.00	2168.80
281.22	2121.70
281.43	2375.64
281.65	2029.54
281.86	2148.32
282.08	2252.77
282.29	2394.08
282.51	2043.87
282.73	2064.35
282.94	2129.89
283.16	2328.54
283.37	2373.60
283.59	2183.13
283.80	2283.49
284.02	2232.29
284.23	2256.86
284.45	2228.19
284.66	2127.84
284.88	2187.23
285.09	2260.96
285.31	2258.91
285.52	2316.25
285.74	2170.85
285.95	2346.97
286.17	2295.77
286.38	2375.64
286.60	2205.66
286.81	2156.51
287.03	2265.05
287.24	2242.53
287.46	2277.34
287.67	2269.15
287.89	2385.88
288.10	2260.96
288.32	2273.25
288.53	2377.69
288.75	2291.68
288.96	2449.37
289.18	2203.61
289.39	2181.09
289.61	2215.90
289.82	2529.24
290.04	2432.99
290.25	2138.08
290.47	2310.11
290.68	2211.81
290.90	2394.08
291.11	2086.88
291.33	2269.15
291.54	2185.18
291.76	2203.61
291.97	2289.63
292.18	2238.43
292.40	2211.81
292.61	2179.04
292.83	2392.03
293.04	2234.33
293.26	2281.44
293.47	2238.43
293.69	2191.33
293.90	2170.85
294.12	2375.64
294.33	2203.61
294.55	2201.57
294.76	2373.60
294.97	2414.56
295.19	2490.33
295.40	2250.72
295.62	2273.25
295.83	2332.64
296.05	2199.52
296.26	2342.88
296.48	2160.61
296.69	2260.96
296.90	2215.90
297.12	2281.44
297.33	2365.40
297.55	2258.91
297.76	2336.73
297.98	2299.87
298.19	2201.57
298.41	2283.49
298.62	2232.29
298.83	2308.06
299.05	2236.38
299.26	2176.99
299.48	2179.04
299.69	2271.20
299.90	2250.72
300.12	2166.75
300.33	2308.06
300.55	2299.87
300.76	2250.72
300.98	2176.99
301.19	2301.92
301.40	2226.14
301.62	2226.14
301.83	2301.92
302.05	2250.72
302.26	2244.57
302.47	2287.58
302.69	2220.00
302.90	2301.92
303.12	2037.73
303.33	2252.77
303.54	2424.80
303.76	2226.14
303.97	2228.19
304.19	2369.50
304.40	2187.23
304.61	2263.01
304.83	2398.17
305.04	2301.92
305.26	2336.73
305.47	2246.62
305.68	2236.38
305.90	2201.57
306.11	2375.64
306.33	2297.82
306.54	2244.57
306.75	2226.14
306.97	2129.89
307.18	2158.56
307.39	2154.46
307.61	2328.54
307.82	2133.98
308.04	2224.09
308.25	2179.04
308.46	2267.10
308.68	2220.00
308.89	2176.99
309.10	2359.26
309.32	2258.91
309.53	2213.85
309.74	2326.49
309.96	2138.08
310.17	2383.84
310.39	2174.94
310.60	2324.44
310.81	2244.57
311.03	2093.02
311.24	2273.25
311.45	2256.86
311.67	2484.19
311.88	2267.10
312.09	2228.19
312.31	2195.42
312.52	2260.96
312.73	2195.42
312.95	2056.16
313.16	2172.89
313.37	2303.96
313.59	2303.96
313.80	2334.68
314.01	2369.50
314.23	2191.33
314.44	2156.51
314.65	2097.12
314.87	2170.85
315.08	2246.62
315.29	2179.04
315.51	2166.75
315.72	2166.75
315.93	2359.26
316.15	2252.77
316.36	2111.46
316.57	2308.06
316.79	2244.57
317.00	2148.32
317.21	2301.92
317.43	2193.37
317.64	2228.19
317.85	2172.89
318.07	2131.94
318.28	2207.71
318.49	2387.93
318.70	2525.15
318.92	2398.17
319.13	2318.30
319.34	2363.36
319.56	2293.72
319.77	2387.93
319.98	2336.73
320.20	2392.03
320.41	2392.03
320.62	2334.68
320.83	2203.61
321.05	2406.36
321.26	2279.39
321.47	2213.85
321.69	2377.69
321.90	2152.42
322.11	2187.23
322.32	2265.05
322.54	2387.93
322.75	2242.53
322.96	2514.91
323.18	2097.12
323.39	2080.74
323.60	2097.12
323.81	2316.25
324.03	2146.27
324.24	2277.34
324.45	2279.39
324.66	2191.33
324.88	2441.18
325.09	2353.12
325.30	2236.38
325.52	2265.05
325.73	2299.87
325.94	2193.37
326.15	2107.36
326.37	2158.56
326.58	2383.84
326.79	2416.60
327.00	2136.03
327.22	2232.29
327.43	2248.67
327.64	2136.03
327.85	2322.40
328.07	2168.80
328.28	2426.84
328.49	2318.30
328.70	2142.18
328.92	2265.05
329.13	2195.42
329.34	2205.66
329.55	2398.17
329.76	2340.83
329.98	2170.85
330.19	2416.60
330.40	2252.77
330.61	2301.92
330.83	2301.92
331.04	2138.08
331.25	2201.57
331.46	2203.61
331.68	2072.54
331.89	2365.40
332.10	2205.66
332.31	2080.74
332.52	2275.29
332.74	2406.36
332.95	2068.45
333.16	2211.81
333.37	2269.15
333.58	2185.18
333.80	2162.66
334.01	2088.93
334.22	2254.81
334.43	2263.01
334.64	2209.76
334.86	2138.08
335.07	2193.37
335.28	2408.41
335.49	2093.02
335.70	2277.34
335.92	2426.84
336.13	2496.47
336.34	2289.63
336.55	2351.07
336.76	2303.96
336.98	2041.82
337.19	2254.81
337.40	2244.57
337.61	2588.63
337.82	2269.15
338.04	2254.81
338.25	2097.12
338.46	2217.95
338.67	2193.37
338.88	2205.66
339.09	2185.18
339.31	2220.00
339.52	2133.98
339.73	2121.70
339.94	2246.62
340.15	2408.41
340.36	2183.13
340.58	2234.33
340.79	2183.13
341.00	2203.61
341.21	2146.27
341.42	2404.32
341.63	2230.24
341.85	2238.43
342.06	2244.57
342.27	2203.61
342.48	2295.77
342.69	2109.41
342.90	2389.98
343.12	2244.57
343.33	2195.42
343.54	2301.92
343.75	2394.08
343.96	2250.72
344.17	2142.18
344.38	2277.34
344.60	2244.57
344.81	2043.87
345.02	2195.42
345.23	2336.73
345.44	2510.81
345.65	2240.48
345.86	2240.48
346.07	2287.58
346.29	2168.80
346.50	2359.26
346.71	2322.40
346.92	2367.45
347.13	2486.23
347.34	2205.66
347.55	2164.70
347.76	2293.72
347.98	2050.02
348.19	2189.28
348.40	2320.35
348.61	2201.57
348.82	2430.94
349.03	2328.54
349.24	2138.08
349.45	2486.23
349.66	2127.84
349.88	2248.67
350.09	2154.46
350.30	2361.31
350.51	2398.17
350.72	2279.39
350.93	2279.39
351.14	2211.81
351.35	2248.67
351.56	2322.40
351.77	2303.96
351.99	2277.34
352.20	2439.13
352.41	2375.64
352.62	2103.26
352.83	2162.66
353.04	2220.00
353.25	2136.03
353.46	2258.91
353.67	2373.60
353.88	2052.06
354.09	2203.61
354.30	2299.87
354.52	2379.74
354.73	2160.61
354.94	2144.22
355.15	2234.33
355.36	2422.75
355.57	2189.28
355.78	2176.99
355.99	2107.36
356.20	2195.42
356.41	2408.41
356.62	2252.77
356.83	2332.64
357.04	2396.12
357.25	2004.96
357.46	2164.70
357.68	2090.98
357.89	2224.09
358.10	2222.05
358.31	2263.01
358.52	2260.96
358.73	2133.98
358.94	2113.50
359.15	2150.37
359.36	2326.49
359.57	2260.96
359.78	2129.89
359.99	2287.58
360.20	2187.23
360.41	2146.27
360.62	2322.40
360.83	2277.34
361.04	2215.90
361.25	2297.82
361.46	2435.03
361.67	2308.06
361.88	2275.29
362.09	2283.49
362.30	2363.36
362.51	2187.23
362.72	2232.29
362.93	2330.59
363.14	2271.20
363.35	2308.06
363.56	2170.85
363.78	2357.21
363.99	2351.07
364.20	2191.33
364.41	2265.05
364.62	2422.75
364.83	2232.29
365.04	2242.53
365.25	2314.20
365.46	2441.18
365.67	2146.27
365.88	2256.86
366.09	2248.67
366.30	2224.09
366.51	2324.44
366.72	2179.04
366.93	2199.52
367.14	2252.77
367.35	2357.21
367.56	2275.29
367.77	2320.35
367.98	2230.24
368.18	2310.11
368.39	2334.68
368.60	2086.88
368.81	2328.54
369.02	2277.34
369.23	2234.33
369.44	2064.35
369.65	2222.05
369.86	2256.86
370.07	2293.72
370.28	2152.42
370.49	2389.98
370.70	2281.44
370.91	2072.54
371.12	2142.18
371.33	2418.65
371.54	2234.33
371.75	2412.51
371.96	2060.26
372.17	2275.29
372.38	2220.00
372.59	2236.38
372.80	2275.29
373.01	2166.75
373.22	2256.86
373.43	2228.19
373.64	2119.65
373.85	2375.64
374.06	2457.56
374.26	2234.33
374.47	2330.59
374.68	2400.22
374.89	2271.20
375.10	2256.86
375.31	2306.01
375.52	2254.81
375.73	2254.81
375.94	2174.94
376.15	2326.49
376.36	2156.51
376.57	2207.71
376.78	2181.09
376.99	2224.09
377.20	2459.61
377.40	2199.52
377.61	2426.84
377.82	2154.46
378.03	2377.69
378.24	2412.51
378.45	2299.87
378.66	2267.10
378.87	2047.97
379.08	2193.37
379.29	2228.19
379.50	2285.53
379.71	2254.81
379.91	2297.82
380.12	2199.52
380.33	2195.42
380.54	2236.38
380.75	2265.05
380.96	2152.42
381.17	2250.72
381.38	2318.30
381.59	2275.29
381.80	2293.72
382.00	2392.03
382.21	2318.30
382.42	2449.37
382.63	2506.71
382.84	2295.77
383.05	2396.12
383.26	2373.60
383.47	2281.44
383.68	2220.00
383.88	2303.96
384.09	2244.57
384.30	2379.74
384.51	2342.88
384.72	2166.75
384.93	2093.02
385.14	2293.72
385.35	2285.53
385.55	2154.46
385.76	2396.12
385.97	2209.76
386.18	2203.61
386.39	2162.66
386.60	2207.71
386.81	2176.99
387.02	2238.43
387.22	2211.81
387.43	2351.07
387.64	2387.93
387.85	2422.75
388.06	2469.85
388.27	3971.01
388.48	8175.49
388.68	11485.01
388.89	13760.30
389.10	14810.91
389.31	13825.84
389.52	10958.68
389.73	9400.18
389.93	8517.50
390.14	7724.94
390.35	7237.52
390.56	6223.78
390.77	5138.35
390.98	4118.47
391.18	3239.89
391.39	2701.27
391.60	2432.99
391.81	2422.75
392.02	2174.94
392.23	2473.95
392.43	2291.68
392.64	2340.83
392.85	2277.34
393.06	2377.69
393.27	2252.77
393.47	2211.81
393.68	2195.42
393.89	2248.67
394.10	2394.08
394.31	2162.66
394.52	2185.18
394.72	2187.23
394.93	2430.94
395.14	2197.47
395.35	2246.62
395.56	2140.13
395.76	2265.05
395.97	2277.34
396.18	2346.97
396.39	2451.42
396.60	2775.00
396.80	2469.85
397.01	2422.75
397.22	2398.17
397.43	2426.84
397.64	2254.81
397.84	2314.20
398.05	2533.34
398.26	2277.34
398.47	2316.25
398.67	2381.79
398.88	2152.42
399.09	2353.12
399.30	2220.00
399.51	2277.34
399.71	2226.14
399.92	2252.77
400.13	2281.44
400.34	2213.85
400.54	2179.04
400.75	2392.03
400.96	2275.29
401.17	2412.51
401.37	2330.59
401.58	2242.53
401.79	2248.67
402.00	2367.45
402.21	2670.55
402.41	2590.68
402.62	2574.30
402.83	2701.27
403.04	2721.75
403.24	2856.92
403.45	2314.20
403.66	2490.33
403.87	2504.67
404.07	2478.04
404.28	2445.27
404.49	2375.64
404.70	2328.54
404.90	2346.97
405.11	2269.15
405.32	2330.59
405.52	2179.04
405.73	2176.99
405.94	2140.13
406.15	2273.25
406.35	2363.36
406.56	2310.11
406.77	2269.15
406.98	2238.43
407.18	2201.57
407.39	2353.12
407.60	2236.38
407.80	2236.38
408.01	2191.33
408.22	2246.62
408.43	2185.18
408.63	2322.40
408.84	2371.55
409.05	2308.06
409.25	2160.61
409.46	2203.61
409.67	2228.19
409.88	2181.09
410.08	2275.29
410.29	2226.14
410.50	2359.26
410.70	2275.29
410.91	2101.22
411.12	2203.61
411.32	2211.81
411.53	2217.95
411.74	2365.40
411.95	2328.54
412.15	2377.69
412.36	2420.70
412.57	2289.63
412.77	2506.71
412.98	2420.70
413.19	2232.29
413.39	2306.01
413.60	2250.72
413.81	2385.88
414.01	2238.43
414.22	2306.01
414.43	2306.01
414.63	2277.34
414.84	2342.88
415.05	2234.33
415.25	2076.64
415.46	2338.78
415.67	2191.33
415.87	2250.72
416.08	2248.67
416.29	2254.81
416.49	2293.72
416.70	2185.18
416.91	2170.85
417.11	2140.13
417.32	2297.82
417.53	2238.43
417.73	2293.72
417.94	2232.29
418.15	2228.19
418.35	2297.82
418.56	2146.27
418.77	2455.51
418.97	2303.96
419.18	2295.77
419.38	2064.35
419.59	2222.05
419.80	2359.26
420.00	2146.27
420.21	2301.92
420.42	2379.74
420.62	2252.77
420.83	2240.48
421.04	2312.16
421.24	2285.53
421.45	2312.16
421.65	2332.64
421.86	2187.23
422.07	2357.21
422.27	2342.88
422.48	2201.57
422.69	2211.81
422.89	2269.15
423.10	2191.33
423.30	2189.28
423.51	2232.29
423.72	2275.29
423.92	2342.88
424.13	2131.94
424.33	2248.67
424.54	2375.64
424.75	2320.35
424.95	2473.95
425.16	2256.86
425.36	2213.85
425.57	2324.44
425.78	2281.44
425.98	2263.01
426.19	2240.48
426.39	2142.18
426.60	2160.61
426.81	2379.74
427.01	2252.77
427.22	2203.61
427.42	2154.46
427.63	2174.94
427.83	2351.07
428.04	2428.89
428.25	2291.68
428.45	2324.44
428.66	2369.50
428.86	2252.77
429.07	2179.04
429.28	2260.96
429.48	2318.30
429.69	2154.46
429.89	2301.92
430.10	2191.33
430.30	2328.54
430.51	2332.64
430.71	2154.46
430.92	2252.77
431.13	2199.52
431.33	2291.68
431.54	2269.15
431.74	2449.37
431.95	2420.70
432.15	2140.13
432.36	2230.24
432.56	2312.16
432.77	2389.98
432.98	2457.56
433.18	2275.29
433.39	2199.52
433.59	2211.81
433.80	2412.51
434.00	2498.52
434.21	2240.48
434.41	2115.55
434.62	2514.91
434.82	2222.05
435.03	2181.09
435.23	2293.72
435.44	2131.94
435.64	2256.86
435.85	2281.44
436.06	2306.01
436.26	2400.22
436.47	2205.66
436.67	2111.46
436.88	2240.48
437.08	2377.69
437.29	2342.88
437.49	2293.72
437.70	2365.40
437.90	2193.37
438.11	2463.71
438.31	2228.19
438.52	2389.98
438.72	2461.66
438.93	2543.58
439.13	2410.46
439.34	2396.12
439.54	2318.30
439.75	2367.45
439.95	2277.34
440.16	2183.13
440.36	2289.63
440.57	2228.19
440.77	2287.58
440.98	2250.72
441.18	2369.50
441.39	2240.48
441.59	2152.42
441.80	2465.75
442.00	2303.96
442.21	2371.55
442.41	2232.29
442.62	2396.12
442.82	2209.76
443.02	2283.49
443.23	2322.40
443.43	2260.96
443.64	2357.21
443.84	2217.95
444.05	2326.49
444.25	2306.01
444.46	2236.38
444.66	2244.57
444.87	2322.40
445.07	2160.61
445.28	2256.86
445.48	2353.12
445.69	2334.68
445.89	2564.06
446.09	2248.67
446.30	2562.01
446.50	2781.14
446.71	4403.13
446.91	5582.76
447.12	6274.98
447.32	6668.19
447.53	6186.91
447.73	5044.15
447.93	4528.06
448.14	4194.24
448.34	3989.44
448.55	3618.76
448.75	3608.52
448.96	3456.97
449.16	3071.95
449.36	2832.34
449.57	2502.62
449.77	2291.68
449.98	2244.57
450.18	2285.53
450.39	2351.07
450.59	2301.92
450.79	2299.87
451.00	2203.61
451.20	2400.22
451.41	2297.82
451.61	2267.10
451.81	2211.81
452.02	2215.90
452.22	2256.86
452.43	2236.38
452.63	2217.95
452.84	2256.86
453.04	2295.77
453.24	2351.07
453.45	2224.09
453.65	2224.09
453.86	2250.72
454.06	2277.34
454.26	2254.81
454.47	2189.28
454.67	2447.32
454.87	2371.55
455.08	2291.68
455.28	2449.37
455.49	2220.00
455.69	2273.25
455.89	2478.04
456.10	2322.40
456.30	2279.39
456.51	2375.64
456.71	2334.68
456.91	2291.68
457.12	2252.77
457.32	2351.07
457.52	2076.64
457.73	2310.11
457.93	2451.42
458.14	2303.96
458.34	2170.85
458.54	2269.15
458.75	2119.65
458.95	2349.02
459.15	2357.21
459.36	2312.16
459.56	2351.07
459.76	2459.61
459.97	2256.86
460.17	2244.57
460.37	2330.59
460.58	2316.25
460.78	2256.86
460.99	2220.00
461.19	2193.37
461.39	2252.77
461.60	2260.96
461.80	2316.25
462.00	2107.36
462.21	2355.16
462.41	2150.37
462.61	2209.76
462.82	2084.83
463.02	2359.26
463.22	2291.68
463.43	2236.38
463.63	2238.43
463.83	2412.51
464.04	2310.11
464.24	2195.42
464.44	2209.76
464.64	2373.60
464.85	2303.96
465.05	2322.40
465.25	2244.57
465.46	2209.76
465.66	2383.84
465.86	2346.97
466.07	2258.91
466.27	2275.29
466.47	2142.18
466.68	2115.55
466.88	2447.32
467.08	2301.92
467.29	2265.05
467.49	2252.77
467.69	2260.96
467.89	2381.79
468.10	2250.72
468.30	2265.05
468.50	2275.29
468.71	2404.32
468.91	2152.42
469.11	2482.14
469.31	2222.05
469.52	2144.22
469.72	2439.13
469.92	2510.81
470.13	2275.29
470.33	2381.79
470.53	2342.88
470.73	2791.38
470.94	2973.65
471.14	3108.82
471.34	3495.88
471.54	3446.73
471.75	3162.06
471.95	2856.92
472.15	2772.95
472.36	2824.15
472.56	2777.05
472.76	2629.59
472.96	2658.26
473.17	2473.95
473.37	2523.10
473.57	2322.40
473.77	2422.75
473.98	2299.87
474.18	2115.55
474.38	2611.16
474.58	2187.23
474.79	2146.27
474.99	2287.58
475.19	2349.02
475.39	2179.04
475.60	2381.79
475.80	2269.15
476.00	2260.96
476.20	2256.86
476.41	2240.48
476.61	2385.88
476.81	2394.08
477.01	2183.13
477.21	2441.18
477.42	2340.83
477.62	2215.90
477.82	2389.98
478.02	2142.18
478.23	2402.27
478.43	2199.52
478.63	2195.42
478.83	2269.15
479.03	2236.38
479.24	2469.85
479.44	2441.18
479.64	2160.61
479.84	2093.02
480.04	2211.81
480.25	2355.16
480.45	2176.99
480.65	2140.13
480.85	2365.40
481.06	2203.61
481.26	2295.77
481.46	2297.82
481.66	2324.44
481.86	2181.09
482.06	2336.73
482.27	2248.67
482.47	2281.44
482.67	2306.01
482.87	2228.19
483.07	2340.83
483.28	2220.00
483.48	2121.70
483.68	2273.25
483.88	2199.52
484.08	2136.03
484.29	2131.94
484.49	2283.49
484.69	2189.28
484.89	2449.37
485.09	2375.64
485.29	2375.64
485.50	2260.96
485.70	2283.49
485.90	2355.16
486.10	2346.97
486.30	2269.15
486.50	2398.17
486.71	2263.01
486.91	2289.63
487.11	2367.45
487.31	2217.95
487.51	2373.60
487.71	2156.51
487.91	2213.85
488.12	2164.70
488.32	2060.26
488.52	2236.38
488.72	2095.07
488.92	2258.91
489.12	2357.21
489.32	2344.92
489.53	2357.21
489.73	2123.74
489.93	2502.62
490.13	2224.09
490.33	2152.42
490.53	2267.10
490.73	2451.42
490.94	2097.12
491.14	2308.06
491.34	2351.07
491.54	2592.73
491.74	3176.40
491.94	3755.97
492.14	4034.50
492.34	4186.05
492.54	3727.30
492.75	3278.80
492.95	3117.01
493.15	3035.09
493.35	2916.31
493.55	2916.31
493.75	2754.52
493.95	2813.91
494.15	2498.52
494.35	2457.56
494.56	2371.55
494.76	2256.86
494.96	2351.07
495.16	2308.06
495.36	2260.96
495.56	2340.83
495.76	2301.92
495.96	2193.37
496.16	2226.14
496.36	2465.75
496.56	2256.86
496.77	2349.02
496.97	2199.52
497.17	2441.18
497.37	2183.13
497.57	2396.12
497.77	2258.91
497.97	2170.85
498.17	2250.72
498.37	2260.96
498.57	2269.15
498.77	2240.48
498.97	2392.03
499.17	2529.24
499.38	2310.11
499.58	2281.44
499.78	2361.31
499.98	2361.31
500.18	2306.01
500.38	2224.09
500.58	2447.32
500.78	2809.81
500.98	5095.35
501.18	7049.11
501.38	8769.40
501.58	9510.77
501.78	9523.05
501.98	7591.82
502.18	6260.64
502.38	5625.77
502.58	5111.73
502.78	4685.75
502.98	4509.63
503.18	4278.21
503.38	3870.66
503.59	3360.72
503.79	3219.41
503.99	2994.13
504.19	2815.96
504.39	2854.87
504.59	2824.15
504.79	2787.29
504.99	2711.51
505.19	2578.39
505.39	2484.19
505.59	2621.40
505.79	2615.26
505.99	2441.18
506.19	2357.21
506.39	2430.94
506.59	2220.00
506.79	2228.19
506.99	2385.88
507.19	2260.96
507.39	2320.35
507.59	2193.37
507.79	2213.85
507.99	2211.81
508.19	2301.92
508.39	2201.57
508.59	2322.40
508.79	2412.51
508.99	2519.00
509.19	2203.61
509.39	2314.20
509.59	2160.61
509.79	2193.37
509.99	2334.68
510.19	2363.36
510.39	2406.36
510.59	2273.25
510.79	2199.52
510.99	2150.37
511.19	2277.34
511.39	2392.03
511.59	2432.99
511.79	2426.84
511.99	2209.76
512.19	2404.32
512.38	2277.34
512.58	2154.46
512.78	2236.38
512.98	2414.56
513.18	2359.26
513.38	2113.50
513.58	2336.73
513.78	2201.57
513.98	2197.47
514.18	2293.72
514.38	2222.05
514.58	2269.15
514.78	2236.38
514.98	2224.09
515.18	2220.00
515.38	2240.48
515.58	2404.32
515.78	2129.89
515.98	2217.95
516.18	2318.30
516.38	2303.96
516.57	2207.71
516.77	2193.37
516.97	2355.16
517.17	2330.59
517.37	2039.78
517.57	2359.26
517.77	2201.57
517.97	2195.42
518.17	2310.11
518.37	2205.66
518.57	2191.33
518.77	2193.37
518.97	2236.38
519.16	2183.13
519.36	2408.41
519.56	2295.77
519.76	2195.42
519.96	2228.19
520.16	2465.75
520.36	2162.66
520.56	2342.88
520.76	2240.48
520.96	2199.52
521.16	2461.66
521.35	2375.64
521.55	2410.46
521.75	2338.78
521.95	2275.29
522.15	2256.86
522.35	2136.03
522.55	2121.70
522.75	2349.02
522.95	2191.33
523.14	2164.70
523.34	2258.91
523.54	2174.94
523.74	2328.54
523.94	2260.96
524.14	2162.66
524.34	2312.16
524.54	2398.17
524.73	2224.09
524.93	2340.83
525.13	2293.72
525.33	2136.03
525.53	2486.23
525.73	2359.26
525.93	2308.06
526.13	2193.37
526.32	2236.38
526.52	2430.94
526.72	2416.60
526.92	2162.66
527.12	2150.37
527.32	2197.47
527.52	2344.92
527.71	2326.49
527.91	2211.81
528.11	2185.18
528.31	2215.90
528.51	2152.42
528.71	2349.02
528.90	2293.72
529.10	2392.03
529.30	2373.60
529.50	2080.74
529.70	2291.68
529.90	2238.43
530.09	2252.77
530.29	2095.07
530.49	2179.04
530.69	2525.15
530.89	2310.11
531.09	2318.30
531.28	2144.22
531.48	2418.65
531.68	2291.68
531.88	2252.77
532.08	2437.08
532.28	2287.58
532.47	2299.87
532.67	2312.16
532.87	2316.25
533.07	2195.42
533.27	2365.40
533.46	2273.25
533.66	2361.31
533.86	2269.15
534.06	2275.29
534.26	2310.11
534.45	2217.95
534.65	2396.12
534.85	2269.15
535.05	2256.86
535.25	2379.74
535.44	2111.46
535.64	2293.72
535.84	2308.06
536.04	2240.48
536.24	2236.38
536.43	2136.03
536.63	2277.34
536.83	2254.81
537.03	2291.68
537.22	2064.35
537.42	2113.50
537.62	2263.01
537.82	2160.61
538.02	2447.32
538.21	2301.92
538.41	2572.25
538.61	2318.30
538.81	2252.77
539.00	2375.64
539.20	2045.92
539.40	2203.61
539.60	2226.14
539.79	2355.16
539.99	2263.01
540.19	2222.05
540.39	2187.23
540.58	2336.73
540.78	2422.75
540.98	2250.72
541.18	2301.92
541.37	2295.77
541.57	2289.63
541.77	2224.09
541.97	2117.60
542.16	2082.78
542.36	2215.90
542.56	2152.42
542.76	2375.64
542.95	2301.92
543.15	2363.36
543.35	2322.40
543.54	2181.09
543.74	2189.28
543.94	2447.32
544.14	2187.23
544.33	2385.88
544.53	2236.38
544.73	2185.18
544.93	2205.66
545.12	2154.46
545.32	2240.48
545.52	2301.92
545.71	2146.27
545.91	2162.66
546.11	2217.95
546.30	2113.50
546.50	2248.67
546.70	2324.44
546.90	2256.86
547.09	2144.22
547.29	2269.15
547.49	2234.33
547.68	2254.81
547.88	2242.53
548.08	2301.92
548.27	2818.00
548.47	2170.85
548.67	2226.14
548.87	2267.10
549.06	2170.85
549.26	2209.76
549.46	2273.25
549.65	2240.48
549.85	2228.19
550.05	2242.53
550.24	2117.60
550.44	2342.88
550.64	2283.49
550.83	2236.38
551.03	2293.72
551.23	2361.31
551.42	2326.49
551.62	2265.05
551.82	2236.38
552.01	2267.10
552.21	2422.75
552.41	2260.96
552.60	2357.21
552.80	2281.44
553.00	2150.37
553.19	2295.77
553.39	2383.84
553.59	2150.37
553.78	2344.92
553.98	2222.05
554.17	2154.46
554.37	2258.91
554.57	2342.88
554.76	2220.00
554.96	2170.85
555.16	2330.59
555.35	2275.29
555.55	2320.35
555.75	2351.07
555.94	2301.92
556.14	2191.33
556.33	2310.11
556.53	2299.87
556.73	2238.43
556.92	2334.68
557.12	2359.26
557.32	2478.04
557.51	2418.65
557.71	2291.68
557.90	2338.78
558.10	2473.95
558.30	2160.61
558.49	2316.25
558.69	2213.85
558.88	2349.02
559.08	2324.44
559.28	2299.87
559.47	2209.76
559.67	2263.01
559.86	2572.25
560.06	2222.05
560.26	2281.44
560.45	2308.06
560.65	2236.38
560.84	2398.17
561.04	2201.57
561.24	2336.73
561.43	2230.24
561.63	2396.12
561.82	2201.57
562.02	2322.40
562.22	2152.42
562.41	2170.85
562.61	2265.05
562.80	2185.18
563.00	2525.15
563.19	2314.20
563.39	2379.74
563.59	2387.93
563.78	2258.91
563.98	2136.03
564.17	2226.14
564.37	2160.61
564.56	2293.72
564.76	2080.74
564.96	2263.01
565.15	2275.29
565.35	2490.33
565.54	2172.89
565.74	2410.46
565.93	2310.11
566.13	2250.72
566.32	2306.01
566.52	2244.57
566.71	2283.49
566.91	2365.40
567.11	2332.64
567.30	2191.33
567.50	2324.44
567.69	2404.32
567.89	2213.85
568.08	2187.23
568.28	2303.96
568.47	2179.04
568.67	2340.83
568.86	2242.53
569.06	2351.07
569.25	2293.72
569.45	2166.75
569.64	2158.56
569.84	2230.24
570.04	2336.73
570.23	2160.61
570.43	2289.63
570.62	2346.97
570.82	2478.04
571.01	2146.27
571.21	2224.09
571.40	2152.42
571.60	2381.79
571.79	2324.44
571.99	2199.52
572.18	2199.52
572.38	2287.58
572.57	2258.91
572.77	2346.97
572.96	2568.15
573.16	2256.86
573.35	2224.09
573.55	2432.99
573.74	2357.21
573.94	2250.72
574.13	2203.61
574.33	2344.92
574.52	2445.27
574.71	2248.67
574.91	2277.34
575.10	2115.55
575.30	2209.76
575.49	2162.66
575.69	2222.05
575.88	2324.44
576.08	2265.05
576.27	2420.70
576.47	2342.88
576.66	2523.10
576.86	2502.62
577.05	2318.30
577.25	2346.97
577.44	2457.56
577.64	2289.63
577.83	2357.21
578.02	2283.49
578.22	2396.12
578.41	2521.05
578.61	2224.09
578.80	2115.55
579.00	2281.44
579.19	2336.73
579.39	2267.10
579.58	2330.59
579.77	2244.57
579.97	2420.70
580.16	2365.40
580.36	2371.55
580.55	2338.78
580.75	2314.20
580.94	2314.20
581.13	2455.51
581.33	2402.27
581.52	2324.44
581.72	2551.77
581.91	2430.94
582.11	2187.23
582.30	2432.99
582.49	2342.88
582.69	2439.13
582.88	2324.44
583.08	2324.44
583.27	2465.75
583.47	2310.11
583.66	2273.25
583.85	2146.27
584.05	2291.68
584.24	2375.64
584.44	2361.31
584.63	2441.18
584.82	2392.03
585.02	2473.95
585.21	2426.84
585.41	2445.27
585.60	2422.75
585.79	2543.58
585.99	2545.63
586.18	2400.22
586.37	2981.84
586.57	4661.18
586.76	13623.09
586.96	32968.20
587.15	46765.37
587.34	56468.64
587.54	61006.94
587.73	55731.37
587.93	39378.34
588.12	29636.16
588.31	23764.63
588.51	20786.88
588.70	19314.39
588.89	17493.75
589.09	15195.93
589.28	12769.09
589.47	10532.70
589.67	8173.44
589.86	6453.15
590.06	4607.93
590.25	3938.24
590.44	3174.35
590.64	2854.87
590.83	2664.41
591.02	2519.00
591.22	2373.60
591.41	2375.64
591.60	2394.08
591.80	2541.53
591.99	2207.71
592.18	2238.43
592.38	2408.41
592.57	2293.72
592.76	2230.24
592.96	2295.77
593.15	2226.14
593.34	2435.03
593.54	2283.49
593.73	2461.66
593.92	2359.26
594.12	2367.45
594.31	2330.59
594.50	2392.03
594.70	2293.72
594.89	2467.80
595.08	2209.76
595.28	2387.93
595.47	2703.32
595.66	2392.03
595.86	2187.23
596.05	2265.05
596.24	2205.66
596.43	2490.33
596.63	2441.18
596.82	2308.06
597.01	2322.40
597.21	2496.47
597.40	2367.45
597.59	2301.92
597.79	2371.55
597.98	2322.40
598.17	2361.31
598.36	2314.20
598.56	2449.37
598.75	2236.38
598.94	2271.20
599.14	2326.49
599.33	2226.14
599.52	2342.88
599.71	2281.44
599.91	2346.97
600.10	2416.60
600.29	2277.34
600.48	2373.60
600.68	2375.64
600.87	2277.34
601.06	2136.03
601.26	2365.40
601.45	2283.49
601.64	2232.29
601.83	2455.51
602.03	2191.33
602.22	2201.57
602.41	2373.60
602.60	2555.86
602.80	2293.72
602.99	2322.40
603.18	2217.95
603.37	2287.58
603.57	2293.72
603.76	2316.25
603.95	2428.89
604.14	2289.63
604.34	2146.27
604.53	2170.85
604.72	2256.86
604.91	2297.82
605.10	2240.48
605.30	2146.27
605.49	2490.33
605.68	2320.35
605.87	2389.98
606.07	2220.00
606.26	2375.64
606.45	2330.59
606.64	2256.86
606.84	2308.06
607.03	2281.44
607.22	2363.36
607.41	2326.49
607.60	2258.91
607.80	2353.12
607.99	2283.49
608.18	2201.57
608.37	2293.72
608.56	2226.14
608.76	2422.75
608.95	2355.16
609.14	2293.72
609.33	2381.79
609.52	2514.91
609.72	2332.64
609.91	2392.03
610.10	2306.01
610.29	2412.51
610.48	2334.68
610.68	2293.72
610.87	2306.01
611.06	2338.78
611.25	2211.81
611.44	2379.74
611.63	2232.29
611.83	2359.26
612.02	2203.61
612.21	2398.17
612.40	2125.79
612.59	2160.61
612.79	2191.33
612.98	2326.49
613.17	2383.84
613.36	2322.40
613.55	2480.09
613.74	2322.40
613.93	2371.55
614.13	2469.85
614.32	2516.95
614.51	2439.13
614.70	2338.78
614.89	2271.20
615.08	2418.65
615.28	2852.82
615.47	2226.14
615.66	2355.16
615.85	2344.92
616.04	2418.65
616.23	2316.25
616.42	2299.87
616.62	2299.87
616.81	2248.67
617.00	2318.30
617.19	2326.49
617.38	2236.38
617.57	2289.63
617.76	2373.60
617.95	2353.12
618.15	2351.07
618.34	2392.03
618.53	2203.61
618.72	2396.12
618.91	2461.66
619.10	2373.60
619.29	2289.63
619.48	2236.38
619.68	2158.56
619.87	2258.91
620.06	2123.74
620.25	2379.74
620.44	2222.05
620.63	2195.42
620.82	2248.67
621.01	2252.77
621.20	2365.40
621.39	2363.36
621.59	2332.64
621.78	2314.20
621.97	2209.76
622.16	2308.06
622.35	2281.44
622.54	2349.02
622.73	2361.31
622.92	2093.02
623.11	2463.71
623.30	2228.19
623.49	2318.30
623.68	2209.76
623.88	2365.40
624.07	2265.05
624.26	2195.42
624.45	2263.01
624.64	2238.43
624.83	2318.30
625.02	2260.96
625.21	2285.53
625.40	2322.40
625.59	2351.07
625.78	2322.40
625.97	2314.20
626.16	2385.88
626.35	2408.41
626.54	2306.01
626.74	2414.56
626.93	2277.34
627.12	2144.22
627.31	2439.13
627.50	2340.83
627.69	2428.89
627.88	2234.33
628.07	2203.61
628.26	2127.84
628.45	2197.47
628.64	2172.89
628.83	2260.96
629.02	2152.42
629.21	2316.25
629.40	2275.29
629.59	2093.02
629.78	2334.68
629.97	2291.68
630.16	2283.49
630.35	2254.81
630.54	2211.81
630.73	2240.48
630.92	2320.35
631.11	2154.46
631.30	2267.10
631.49	2355.16
631.68	2265.05
631.87	2211.81
632.06	2127.84
632.25	2506.71
632.44	2359.26
632.63	2338.78
632.82	2242.53
633.01	2248.67
633.20	2289.63
633.39	2334.68
633.58	2166.75
633.77	2373.60
633.96	2363.36
634.15	2351.07
634.34	2392.03
634.53	2318.30
634.72	2244.57
634.91	2166.75
635.10	2232.29
635.29	2267.10
635.48	2310.11
635.67	2170.85
635.86	2080.74
636.05	2412.51
636.24	2211.81
636.43	2283.49
636.62	2355.16
636.81	2072.54
637.00	2240.48
637.19	2324.44
637.38	2287.58
637.57	2281.44
637.76	2285.53
637.95	2422.75
638.14	2234.33
638.33	2371.55
638.52	2363.36
638.71	2226.14
638.89	2217.95
639.08	2568.15
639.27	2412.51
639.46	2402.27
639.65	2863.06
639.84	2926.55
640.03	2983.89
640.22	2830.29
640.41	2891.73
640.60	2490.33
640.79	2584.54
640.98	2396.12
641.17	2504.67
641.36	2486.23
641.55	2449.37
641.74	2271.20
641.92	2263.01
642.11	2226.14
642.30	2220.00
642.49	2236.38
642.68	2164.70
642.87	2328.54
643.06	2344.92
643.25	2191.33
643.44	2195.42
643.63	2291.68
643.82	2355.16
644.00	2179.04
644.19	2236.38
644.38	2179.04
644.57	2373.60
644.76	2344.92
644.95	2240.48
645.14	2269.15
645.33	2260.96
645.52	2236.38
645.71	2170.85
645.89	2119.65
646.08	2273.25
646.27	2260.96
646.46	2432.99
646.65	2103.26
646.84	2248.67
647.03	2240.48
647.22	2344.92
647.40	2291.68
647.59	2152.42
647.78	2017.25
647.97	2160.61
648.16	2103.26
648.35	2377.69
648.54	2330.59
648.73	2238.43
648.91	2326.49
649.10	2244.57
649.29	2154.46
649.48	2199.52
649.67	2326.49
649.86	2252.77
650.05	2226.14
650.23	2457.56
650.42	2334.68
650.61	2521.05
650.80	2463.71
650.99	2531.29
651.18	2422.75
651.36	2406.36
651.55	2283.49
651.74	2308.06
651.93	2269.15
652.12	2263.01
652.31	2283.49
652.49	2238.43
652.68	2265.05
652.87	2377.69
653.06	2295.77
653.25	2426.84
653.44	2258.91
653.62	2471.90
653.81	2297.82
654.00	2275.29
654.19	2308.06
654.38	2490.33
654.56	2326.49
654.75	2230.24
654.94	2373.60
655.13	2217.95
655.32	2201.57
655.51	2344.92
655.69	2172.89
655.88	2389.98
656.07	2127.84
656.26	2260.96
656.45	2129.89
656.63	2287.58
656.82	2248.67
657.01	2279.39
657.20	2234.33
657.38	2449.37
657.57	2238.43
657.76	2152.42
657.95	2373.60
658.14	2246.62
658.32	2211.81
658.51	2197.47
658.70	2281.44
658.89	2316.25
659.08	2258.91
659.26	2471.90
659.45	2217.95
659.64	2258.91
659.83	2267.10
660.01	2625.50
660.20	2332.64
660.39	2496.47
660.58	2052.06
660.76	2301.92
660.95	2187.23
661.14	2226.14
661.33	2129.89
661.51	2236.38
661.70	2242.53
661.89	2336.73
662.08	2297.82
662.26	2162.66
662.45	2166.75
662.64	2365.40
662.83	2324.44
663.01	2199.52
663.20	2191.33
663.39	2387.93
663.58	2248.67
663.76	2236.38
663.95	2279.39
664.14	2195.42
664.32	2183.13
664.51	2170.85
664.70	2050.02
664.89	2277.34
665.07	2088.93
665.26	2275.29
665.45	2113.50
665.64	2344.92
665.82	2254.81
666.01	2267.10
666.20	2226.14
666.38	2365.40
666.57	2424.80
666.76	3471.31
666.95	8054.66
667.13	16105.23
667.32	21305.02
667.51	24866.44
667.69	26420.84
667.88	23848.60
668.07	17043.20
668.25	13920.04
668.44	11362.13
668.63	9799.53
668.81	8734.59
669.00	7700.36
669.19	6823.83
669.38	5947.30
669.56	5038.00
669.75	4177.86
669.94	3669.96
670.12	3147.73
670.31	2840.53
670.50	2611.16
670.68	2570.20
670.87	2426.84
671.06	2260.96
671.24	2332.64
671.43	2404.32
671.62	2283.49
671.80	2195.42
671.99	2308.06
672.18	2273.25
672.36	2342.88
672.55	2285.53
672.74	2211.81
672.92	2273.25
673.11	2275.29
673.29	2164.70
673.48	2334.68
673.67	2199.52
673.85	2367.45
674.04	2203.61
674.23	2197.47
674.41	2428.89
674.60	2179.04
674.79	2156.51
674.97	2174.94
675.16	2281.44
675.34	2367.45
675.53	2240.48
675.72	2330.59
675.90	2453.47
676.09	2234.33
676.28	2273.25
676.46	2150.37
676.65	2318.30
676.83	2185.18
677.02	2283.49
677.21	2252.77
677.39	2250.72
677.58	2142.18
677.77	2226.14
677.95	2162.66
678.14	2271.20
678.32	2220.00
678.51	2129.89
678.70	2430.94
678.88	2205.66
679.07	2244.57
679.25	2287.58
679.44	2185.18
679.63	2144.22
679.81	2254.81
680.00	2320.35
680.18	2287.58
680.37	2404.32
680.55	2279.39
680.74	2097.12
680.93	2072.54
681.11	2236.38
681.30	2291.68
681.48	2291.68
681.67	2168.80
681.85	2287.58
682.04	2242.53
682.23	2351.07
682.41	2250.72
682.60	2203.61
682.78	2285.53
682.97	2228.19
683.15	2271.20
683.34	2273.25
683.53	2424.80
683.71	2093.02
683.90	2394.08
684.08	2475.99
684.27	2193.37
684.45	2273.25
684.64	2361.31
684.82	2240.48
685.01	2314.20
685.19	2193.37
685.38	2392.03
685.57	2181.09
685.75	2209.76
685.94	2211.81
686.12	2142.18
686.31	2154.46
686.49	2430.94
686.68	2105.31
686.86	2271.20
687.05	2201.57
687.23	2387.93
687.42	2176.99
687.60	2146.27
687.79	2443.23
687.97	2392.03
688.16	2326.49
688.34	2334.68
688.53	2129.89
688.71	2267.10
688.90	2349.02
689.08	2152.42
689.27	2050.02
689.45	2316.25
689.64	2277.34
689.82	2260.96
690.01	2306.01
690.19	2306.01
690.38	2136.03
690.56	2318.30
690.75	2158.56
690.93	2179.04
691.12	2170.85
691.30	2314.20
691.49	2322.40
691.67	2258.91
691.86	2449.37
692.04	2226.14
692.23	2174.94
692.41	2248.67
692.60	2514.91
692.78	2389.98
692.97	2342.88
693.15	2416.60
693.34	2422.75
693.52	2465.75
693.71	2250.72
693.89	2162.66
694.08	2113.50
694.26	2316.25
694.44	2320.35
694.63	2359.26
694.81	2211.81
695.00	2252.77
695.18	2359.26
695.37	2537.43
695.55	2285.53
695.74	2211.81
695.92	2158.56
696.10	2357.21
696.29	2123.74
696.47	2195.42
696.66	2146.27
696.84	2183.13
697.03	2277.34
697.21	2496.47
697.40	3330.00
697.58	2383.84
697.76	2203.61
697.95	2183.13
698.13	2168.80
698.32	2265.05
698.50	2160.61
698.68	2271.20
698.87	2322.40
699.05	2426.84
699.24	2336.73
699.42	2156.51
699.61	2336.73
699.79	2297.82
699.97	2146.27
700.16	2140.13
700.34	2125.79
700.53	2299.87
700.71	2465.75
700.89	2269.15
701.08	2252.77
701.26	2209.76
701.45	2807.77
701.63	2170.85
701.81	2220.00
702.00	2226.14
702.18	2295.77
702.37	2244.57
702.55	2484.19
702.73	2496.47
702.92	2342.88
703.10	2494.43
703.28	2504.67
703.47	2310.11
703.65	2383.84
703.84	2371.55
704.02	2267.10
704.20	2420.70
704.39	2248.67
704.57	2220.00
704.75	2332.64
704.94	2330.59
705.12	2297.82
705.30	2580.44
705.49	4407.23
705.67	10248.04
705.86	18149.10
706.04	21724.85
706.22	24594.06
706.41	25407.10
706.59	21589.69
706.77	15441.68
706.96	12808.00
707.14	11259.73
707.32	9975.66
707.51	8763.26
707.69	7077.78
707.87	5978.02
708.06	4906.93
708.24	3854.28
708.42	3162.06
708.61	2953.17
708.79	2490.33
708.97	2418.65
709.16	2432.99
709.34	2285.53
709.52	2236.38
709.71	2308.06
709.89	2281.44
710.07	2250.72
710.26	2203.61
710.44	2232.29
710.62	2363.36
710.80	2283.49
710.99	2320.35
711.17	2293.72
711.35	2293.72
711.54	2220.00
711.72	2404.32
711.90	2273.25
712.09	2297.82
712.27	2240.48
712.45	2293.72
712.63	2250.72
712.82	2293.72
713.00	2273.25
713.18	2328.54
713.37	2308.06
713.55	2412.51
713.73	2346.97
713.91	2269.15
714.10	2242.53
714.28	2215.90
714.46	2338.78
714.65	2238.43
714.83	2285.53
715.01	2199.52
715.19	2310.11
715.38	2201.57
715.56	2336.73
715.74	2162.66
715.92	2127.84
716.11	2287.58
716.29	2166.75
716.47	2252.77
716.65	2224.09
716.84	2056.16
717.02	2363.36
717.20	2113.50
717.38	2136.03
717.57	2250.72
717.75	2217.95
717.93	2267.10
718.11	2324.44
718.30	2152.42
718.48	2338.78
718.66	2279.39
718.84	2256.86
719.03	2324.44
719.21	2170.85
719.39	2424.80
719.57	2297.82
719.75	2303.96
719.94	2136.03
720.12	2285.53
720.30	2375.64
720.48	2334.68
720.67	2125.79
720.85	2107.36
721.03	2232.29
721.21	2166.75
721.39	2328.54
721.58	2328.54
721.76	2226.14
721.94	2279.39
722.12	2346.97
722.30	2418.65
722.49	2236.38
722.67	2238.43
722.85	2256.86
723.03	2142.18
723.21	2213.85
723.40	2277.34
723.58	2443.23
723.76	2340.83
723.94	2363.36
724.12	2295.77
724.30	2469.85
724.49	2496.47
724.67	2158.56
724.85	2451.42
725.03	2138.08
725.21	2449.37
725.40	2381.79
725.58	2215.90
725.76	2426.84
725.94	2293.72
726.12	2181.09
726.30	2215.90
726.49	2226.14
726.67	2252.77
726.85	2308.06
727.03	2576.34
727.21	3522.51
727.39	5109.68
727.57	5769.13
727.76	6352.80
727.94	6504.35
728.12	6107.04
728.30	5124.02
728.48	4511.68
728.66	4175.81
728.84	3747.78
729.03	3254.22
729.21	2971.60
729.39	2680.79
729.57	2473.95
729.75	2387.93
729.93	2377.69
730.11	2187.23
730.30	2236.38
730.48	2228.19
730.66	2346.97
730.84	2373.60
731.02	2232.29
731.20	2265.05
731.38	2269.15
731.56	2138.08
731.74	2133.98
731.93	2191.33
732.11	2277.34
732.29	2207.71
732.47	2285.53
732.65	2363.36
732.83	2453.47
733.01	2195.42
733.19	2181.09
733.37	2277.34
733.56	2281.44
733.74	2220.00
733.92	2328.54
734.10	2220.00
734.28	2228.19
734.46	2084.83
734.64	2250.72
734.82	2156.51
735.00	2228.19
735.18	2248.67
735.36	2316.25
735.54	2297.82
735.73	2263.01
735.91	2330.59
736.09	2373.60
736.27	2303.96
736.45	2381.79
736.63	2080.74
736.81	2256.86
736.99	2326.49
737.17	2392.03
737.35	2220.00
737.53	2242.53
737.71	2222.05
737.89	2367.45
738.07	2154.46
738.25	2187.23
738.43	2101.22
738.61	2244.57
738.80	2125.79
738.98	2179.04
739.16	2154.46
739.34	2146.27
739.52	2432.99
739.70	2187.23
739.88	2295.77
740.06	2332.64
740.24	2080.74
740.42	2324.44
740.60	2060.26
740.78	2170.85
740.96	2070.50
741.14	2238.43
741.32	2312.16
741.50	2068.45
741.68	2482.14
741.86	2387.93
742.04	2164.70
742.22	2166.75
742.40	2170.85
742.58	2295.77
742.76	2158.56
742.94	2314.20
743.12	2080.74
743.30	2217.95
743.48	2287.58
743.66	2285.53
743.84	2260.96
744.02	2256.86
744.20	2209.76
744.38	2195.42
744.56	2158.56
744.74	2408.41
744.92	2248.67
745.10	2430.94
745.28	2326.49
745.46	2414.56
745.64	2193.37
745.82	2355.16
746.00	2277.34
746.18	2410.46
746.36	2119.65
746.54	2242.53
746.72	2211.81
746.90	2172.89
747.08	2334.68
747.26	2179.04
747.44	2342.88
747.62	2279.39
747.80	2211.81
747.98	2340.83
748.15	2293.72
748.33	2371.55
748.51	2310.11
748.69	2297.82
748.87	2170.85
749.05	2191.33
749.23	2265.05
749.41	2277.34
749.59	2234.33
749.77	2248.67
749.95	2246.62
750.13	2275.29
750.31	2236.38
750.49	2207.71
750.67	2328.54
750.85	2402.27
751.03	2299.87
751.20	2437.08
751.38	2236.38
751.56	2256.86
751.74	2240.48
751.92	2191.33
752.10	2138.08
752.28	2322.40
752.46	2179.04
752.64	2166.75
752.82	2242.53
753.00	2291.68
753.18	2185.18
753.35	2209.76
753.53	2291.68
753.71	2197.47
753.89	2334.68
754.07	2224.09
754.25	2316.25
754.43	2332.64
754.61	2136.03
754.79	2299.87
754.97	2240.48
755.14	2346.97
755.32	2176.99
755.50	2355.16
755.68	2281.44
755.86	2121.70
756.04	2234.33
756.22	2080.74
756.40	2275.29
756.57	2420.70
756.75	2228.19
756.93	2351.07
757.11	2367.45
757.29	2138.08
757.47	2166.75
757.65	2103.26
757.82	2068.45
758.00	2154.46
758.18	2260.96
758.36	2220.00
758.54	2400.22
758.72	2154.46
758.90	2308.06
759.07	2369.50
759.25	2185.18
759.43	2326.49
759.61	2121.70
759.79	3084.24
759.97	2392.03
760.15	2113.50
760.32	2138.08
760.50	2234.33
760.68	2428.89
760.86	2125.79
761.04	2377.69
761.22	2363.36
761.39	2285.53
761.57	2301.92
761.75	2232.29
761.93	2271.20
762.11	2260.96
762.28	2205.66
762.46	2195.42
762.64	2371.55
762.82	2050.02
763.00	2222.05
763.18	2312.16
763.35	2144.22
763.53	2367.45
763.71	2260.96
763.89	2303.96
764.07	2273.25
764.24	2183.13
764.42	2312.16
764.60	2176.99
764.78	2252.77
764.96	2303.96
765.13	2297.82
765.31	2263.01
765.49	2346.97
765.67	2045.92
765.84	2160.61
766.02	2244.57
766.20	2187.23
766.38	2258.91
766.56	2230.24
766.73	2338.78
766.91	2299.87
767.09	2215.90
767.27	2332.64
767.44	2119.65
767.62	2316.25
767.80	2281.44
767.98	2174.94
768.15	2189.28
768.33	2332.64
768.51	2336.73
768.69	2240.48
768.87	2211.81
769.04	2240.48
769.22	2463.71
769.40	2385.88
769.58	2424.80
769.75	2260.96
769.93	2439.13
770.11	2222.05
770.28	2160.61
770.46	2322.40
770.64	2308.06
770.82	2260.96
770.99	2140.13
771.17	2340.83
771.35	2183.13
771.53	2203.61
771.70	2195.42
771.88	2369.50
772.06	2254.81
772.23	2170.85
772.41	2189.28
772.59	2240.48
772.77	2156.51
772.94	2236.38
773.12	2279.39
773.30	2187.23
773.47	2293.72
773.65	2179.04
773.83	2379.74
774.01	2205.66
774.18	2158.56
774.36	2271.20
774.54	2084.83
774.71	2226.14
774.89	2086.88
775.07	2207.71
775.24	2242.53
775.42	2174.94
775.60	2473.95
775.78	2252.77
775.95	2181.09
776.13	2086.88
776.31	1998.82
776.48	2273.25
776.66	2404.32
776.84	2263.01
777.01	2191.33
777.19	2101.22
777.37	2195.42
777.54	2287.58
777.72	2457.56
777.90	2273.25
778.07	2168.80
778.25	2545.63
778.43	2320.35
778.60	2152.42
778.78	2250.72
778.96	2310.11
779.13	2095.07
779.31	2285.53
779.49	2252.77
779.66	2293.72
779.84	2209.76
780.01	2232.29
780.19	2078.69
780.37	2373.60
780.54	2359.26
780.72	2160.61
780.90	2291.68
781.07	2217.95
781.25	2140.13
781.43	2324.44
781.60	2217.95
781.78	2342.88
781.95	2349.02
782.13	2152.42
782.31	2191.33
782.48	2101.22
782.66	2179.04
782.83	2437.08
783.01	2269.15
783.19	2359.26
783.36	2215.90
783.54	2181.09
783.72	2357.21
783.89	2185.18
784.07	2293.72
784.24	2193.37
784.42	2379.74
784.60	2252.77
784.77	2289.63
784.95	2105.31
785.12	2265.05
785.30	2322.40
785.47	2121.70
785.65	2156.51
785.83	2308.06
786.00	2226.14
786.18	2299.87
786.35	2123.74
786.53	2136.03
786.71	2281.44
786.88	2314.20
787.06	2301.92
787.23	2228.19
787.41	2199.52
787.58	2207.71
787.76	2203.61
787.94	2316.25
788.11	2314.20
788.29	2142.18
788.46	2189.28
788.64	2256.86
788.81	2222.05
788.99	2129.89
789.16	2185.18
789.34	2236.38
789.52	2142.18
789.69	2209.76
789.87	2086.88
790.04	2213.85
790.22	2220.00
790.39	2408.41
790.57	2170.85
790.74	2144.22
790.92	2326.49
791.09	2050.02
791.27	2318.30
791.44	2269.15
791.62	2170.85
791.79	2355.16
791.97	2260.96
792.15	2562.01
792.32	2267.10
792.50	2346.97
792.67	2508.76
792.85	2410.46
793.02	2285.53
793.20	2170.85
793.37	2154.46
793.55	2133.98
793.72	2105.31
793.90	2295.77
794.07	2207.71
794.25	2160.61
794.42	2211.81
794.60	2273.25
794.77	2283.49
794.95	2326.49
795.12	2330.59
795.30	2275.29
795.47	2062.30
795.65	2490.33
795.82	2310.11
796.00	2156.51
796.17	2187.23
796.34	2195.42
796.52	2224.09
796.69	2318.30
796.87	2314.20
797.04	2320.35
797.22	2342.88
797.39	2244.57
797.57	2310.11
797.74	2203.61
797.92	2318.30
798.09	2168.80
798.27	2416.60
798.44	2185.18
798.62	2179.04
798.79	2269.15
798.96	2267.10
799.14	2193.37
799.31	2572.25
799.49	2279.39
799.66	2162.66
799.84	2281.44
800.01	2072.54
800.19	2308.06
800.36	2138.08
800.53	2267.10
800.71	2308.06
800.88	2387.93
801.06	2154.46
801.23	2191.33
801.41	2195.42
801.58	2230.24
801.75	2211.81
801.93	2324.44
802.10	2334.68
802.28	2271.20
802.45	2228.19
802.63	2254.81
802.80	2408.41
802.97	2230.24
803.15	2244.57
803.32	2162.66
803.50	2176.99
803.67	2226.14
803.84	2099.17
804.02	2367.45
804.19	2154.46
804.37	2015.20
804.54	2179.04
804.71	2168.80
804.89	2250.72
805.06	2228.19
805.24	2189.28
805.41	2088.93
805.58	2189.28
805.76	2437.08
805.93	2297.82
806.10	2330.59
806.28	2297.82
806.45	2285.53
806.63	2269.15
806.80	2291.68
806.97	2275.29
807.15	2281.44
807.32	2211.81
807.49	2275.29
807.67	2105.31
807.84	2324.44
808.01	2045.92
808.19	2400.22
808.36	2465.75
808.54	2244.57
808.71	2240.48
808.88	2273.25
809.06	2359.26
809.23	2408.41
809.40	2228.19
809.58	2238.43
809.75	2226.14
809.92	2185.18
810.10	2473.95
810.27	2234.33
810.44	2283.49
810.62	2365.40
810.79	2281.44
810.96	2273.25
811.14	2217.95
811.31	2269.15
811.48	2234.33
811.66	2234.33
811.83	2293.72
812.00	2314.20
812.18	2242.53
812.35	2408.41
812.52	2195.42
812.69	2142.18
812.87	2154.46
813.04	2162.66
813.21	2203.61
813.39	2215.90
813.56	2136.03
813.73	2318.30
813.91	2068.45
814.08	2222.05
814.25	2277.34
814.42	2023.39
814.60	2211.81
814.77	2326.49
814.94	2176.99
815.12	2258.91
815.29	2353.12
815.46	2117.60
815.63	2269.15
815.81	2228.19
815.98	2168.80
816.15	2291.68
816.33	2187.23
816.50	2250.72
816.67	2232.29
816.84	2226.14
817.02	2183.13
817.19	2209.76
817.36	2293.72
817.53	2371.55
817.71	2113.50
817.88	2334.68
818.05	2258.91
818.22	2250.72
818.40	2371.55
818.57	2162.66
818.74	2258.91
818.91	2312.16
819.09	2353.12
819.26	2314.20
819.43	2236.38
819.60	2220.00
819.78	2357.21
819.95	2303.96
820.12	2183.13
820.29	2334.68
820.47	2371.55
820.64	2242.53
820.81	2203.61
820.98	2240.48
821.15	2215.90
821.33	2320.35
821.50	2109.41
821.67	2285.53
821.84	2217.95
822.02	2248.67
822.19	2338.78
822.36	2217.95
822.53	2133.98
822.70	2142.18
822.88	2168.80
823.05	2324.44
823.22	2224.09
823.39	2312.16
823.56	2187.23
823.74	2414.56
823.91	2197.47
824.08	2113.50
824.25	2150.37
824.42	2406.36
824.60	2183.13
824.77	2168.80
824.94	2217.95
825.11	2252.77
825.28	2125.79
825.45	2269.15
825.63	2303.96
825.80	2168.80
825.97	2312.16
826.14	2240.48
826.31	2142.18
826.48	2215.90
826.66	2062.30
826.83	2213.85
827.00	2187.23
827.17	2181.09
827.34	2174.94
827.51	2234.33
827.69	2193.37
827.86	2074.59
828.03	2281.44
828.20	2248.67
828.37	2242.53
828.54	2244.57
828.71	2195.42
828.89	2342.88
829.06	2260.96
829.23	2377.69
829.40	2144.22
829.57	2191.33
829.74	2252.77
829.91	2222.05
830.09	2191.33
830.26	2277.34
830.43	2414.56
830.60	2213.85
830.77	2314.20
830.94	2248.67
831.11	2342.88
831.28	2238.43
831.46	2269.15
831.63	2170.85
831.80	2353.12
831.97	2176.99
832.14	2176.99
832.31	2285.53
832.48	2232.29
832.65	2416.60
832.82	2189.28
832.99	2242.53
833.17	2121.70
833.34	2346.97
833.51	2306.01
833.68	1982.43
833.85	2357.21
834.02	2146.27
834.19	2156.51
834.36	2183.13
834.53	2271.20
834.70	2324.44
834.87	2312.16
835.04	2187.23
835.22	2199.52
835.39	2172.89
835.56	2074.59
835.73	2185.18
835.90	2385.88
836.07	2193.37
836.24	2289.63
836.41	2097.12
836.58	2176.99
836.75	2353.12
836.92	2213.85
837.09	2138.08
837.26	2250.72
837.43	2301.92
837.60	2281.44
837.77	2150.37
837.94	2381.79
838.12	2387.93
838.29	2248.67
838.46	2045.92
838.63	2144.22
838.80	2402.27
838.97	2314.20
839.14	2252.77
839.31	2236.38
839.48	2334.68
839.65	2148.32
839.82	2260.96
839.99	2318.30
840.16	2242.53
840.33	2174.94
840.50	2213.85
840.67	2150.37
840.84	2125.79
841.01	2164.70
841.18	2152.42
841.35	2275.29
841.52	2211.81
841.69	2398.17
841.86	2260.96
842.03	2285.53
842.20	2402.27
842.37	2242.53
842.54	2207.71
842.71	2232.29
842.88	2123.74
843.05	2242.53
843.22	2211.81
843.39	2324.44
843.56	2193.37
843.73	2232.29
843.90	2236.38
844.07	2256.86
844.24	2365.40
844.41	2308.06
844.58	2275.29
844.75	2207.71
844.92	2269.15
845.09	2179.04
845.26	2117.60
845.43	2332.64
845.60	2209.76
845.77	2238.43
845.94	2240.48
846.10	2334.68
846.27	2138.08
846.44	2136.03
846.61	2158.56
846.78	2281.44
846.95	2301.92
847.12	2203.61
847.29	2191.33
847.46	2201.57
847.63	2351.07
847.80	2117.60
847.97	2269.15
848.14	2531.29
848.31	2244.57
848.48	2146.27
848.65	2299.87
848.82	2201.57
848.98	2467.80
849.15	2281.44
849.32	2289.63
849.49	2365.40
849.66	2211.81
849.83	2222.05
850.00	2140.13
850.17	2291.68
850.34	2236.38
850.51	2158.56
850.68	2215.90
850.85	2408.41
851.01	2265.05
851.18	2324.44
851.35	2258.91
851.52	2289.63
851.69	2373.60
851.86	2088.93
852.03	2170.85
852.20	2295.77
852.37	2299.87
852.53	2017.25
852.70	2138.08
852.87	2275.29
853.04	2353.12
853.21	2191.33
853.38	2301.92
853.55	2392.03
853.72	2342.88
853.89	2150.37
854.05	2095.07
854.22	2187.23
854.39	2209.76
854.56	2207.71
854.73	2310.11
854.90	2142.18
855.07	2265.05
855.23	2164.70
855.40	2142.18
855.57	2201.57
855.74	2017.25
855.91	2416.60
856.08	2183.13
856.25	2148.32
856.41	2299.87
856.58	2191.33
856.75	2217.95
856.92	2138.08
857.09	2334.68
857.26	2088.93
857.42	2226.14
857.59	2328.54
857.76	2220.00
857.93	2203.61
858.10	2250.72
858.27	2095.07
858.43	2232.29
858.60	2129.89
858.77	2093.02
858.94	2179.04
859.11	2367.45
859.27	2160.61
859.44	2146.27
859.61	2506.71
859.78	2291.68
859.95	2162.66
860.12	2160.61
860.28	2523.10
860.45	2432.99
860.62	2105.31
860.79	2240.48
860.95	2256.86
861.12	2150.37
861.29	2111.46
861.46	2123.74
861.63	2211.81
861.79	2269.15
861.96	2185.18
862.13	2144.22
862.30	2478.04
862.47	2179.04
862.63	2148.32
862.80	2250.72
862.97	2316.25
863.14	2285.53
863.30	2226.14
863.47	2086.88
863.64	2318.30
863.81	2248.67
863.97	2136.03
864.14	2248.67
864.31	2250.72
864.48	2306.01
864.65	2224.09
864.81	2297.82
864.98	2334.68
865.15	2342.88
865.32	2260.96
865.48	2291.68
865.65	2435.03
865.82	2170.85
865.98	2267.10
866.15	2303.96
866.32	2246.62
866.49	2258.91
866.65	2340.83
866.82	2209.76
866.99	2205.66
867.16	2197.47
867.32	2170.85
867.49	2172.89
867.66	2152.42
867.83	2215.90
867.99	2162.66
868.16	2220.00
868.33	2162.66
868.49	2236.38
868.66	2142.18
868.83	2254.81
868.99	2277.34
869.16	2209.76
869.33	2295.77
869.50	2346.97
869.66	2226.14
869.83	2260.96
870.00	2109.41
870.16	2340.83
870.33	2289.63
870.50	2392.03
870.66	2185.18
870.83	2312.16
871.00	2226.14
871.17	2283.49
871.33	2238.43
871.50	2187.23
871.67	2209.76
871.83	2097.12
872.00	2310.11
872.17	2232.29
872.33	2498.52
872.50	2371.55
872.67	2250.72
872.83	2234.33
873.00	2318.30
873.17	2187.23
873.33	2195.42
873.50	2291.68
873.67	2176.99
873.83	2166.75
874.00	2215.90
874.16	2308.06
874.33	2220.00
874.50	2125.79
874.66	2283.49
874.83	2191.33
875.00	2351.07
875.16	2346.97
875.33	2283.49
875.50	2101.22
875.66	2203.61
875.83	2332.64
875.99	2310.11
876.16	2285.53
876.33	2179.04
876.49	2211.81
876.66	2285.53
876.83	2238.43
876.99	2111.46
877.16	2195.42
877.32	2164.70
877.49	2144.22
877.66	2299.87
877.82	2355.16
877.99	2277.34
878.15	2338.78
878.32	2250.72
878.49	2281.44
878.65	2195.42
878.82	2328.54
878.98	2258.91
879.15	2314.20
879.32	2256.86
879.48	2211.81
879.65	2162.66
879.81	2154.46
879.98	2158.56
880.15	2183.13
880.31	2308.06
880.48	2191.33
880.64	2365.40
880.81	2269.15
880.97	2494.43
881.14	2283.49
881.31	2150.37
881.47	2400.22
881.64	2275.29
881.80	2068.45
881.97	2271.20
882.13	2222.05
882.30	2142.18
882.47	2105.31
882.63	2146.27
882.80	2125.79
882.96	2240.48
883.13	2336.73
883.29	2174.94
883.46	2205.66
883.62	2498.52
883.79	2215.90
883.95	2289.63
884.12	2086.88
884.29	2236.38
884.45	2213.85
884.62	2228.19
884.78	2142.18
884.95	2404.32
885.11	2115.55
885.28	2281.44
885.44	2189.28
885.61	2267.10
885.77	2394.08
885.94	2289.63
886.10	2203.61
886.27	2314.20
886.43	2349.02
886.60	2365.40
886.76	2152.42
886.93	2193.37
887.09	2346.97
887.26	2097.12
887.42	2220.00
887.59	2326.49
887.75	2437.08
887.92	2371.55
888.08	2283.49
888.25	2293.72
888.41	2340.83
888.58	2224.09
888.74	2093.02
888.91	2228.19
>>>>>End Processed Spectral Data<<<<<
