SpectraSuite Data File
++++++++++++++++++++++++++++++++++++
Date: Thu May 05 13:21:21 CEST 2016
User: root
Dark Spectrum Present: No
Reference Spectrum Present: No
Number of Sampled Component Spectra: 1
Spectrometers: USB4C02835
Integration Time (usec): 100000 (USB4C02835)
Spectra Averaged: 1 (USB4C02835)
Boxcar Smoothing: 0 (USB4C02835)
Correct for Electrical Dark: No (USB4C02835)
Strobe/Lamp Enabled: No (USB4C02835)
Correct for Detector Non-linearity: No (USB4C02835)
Correct for Stray Light: No (USB4C02835)
Number of Pixels in Processed Spectrum: 3648
>>>>>Begin Processed Spectral Data<<<<<
177.47	1800.16
177.69	1800.16
177.91	1800.16
178.13	1783.78
178.36	1802.21
178.58	2217.95
178.80	2265.05
179.02	2068.45
179.24	2115.55
179.46	2107.36
179.68	2256.86
179.90	2222.05
180.13	2250.72
180.35	2084.83
180.57	2097.12
180.79	2375.64
181.01	2316.25
181.23	2183.13
181.45	2244.57
181.67	2263.01
181.90	2310.11
182.12	2203.61
182.34	2062.30
182.56	2301.92
182.78	2254.81
183.00	2203.61
183.22	2152.42
183.44	2193.37
183.66	2580.44
183.89	2277.34
184.11	2189.28
184.33	2301.92
184.55	2342.88
184.77	2191.33
184.99	2189.28
185.21	2265.05
185.43	2572.25
185.65	2154.46
185.87	2209.76
186.10	2453.47
186.32	2508.76
186.54	2306.01
186.76	2242.53
186.98	2310.11
187.20	2277.34
187.42	2174.94
187.64	2252.77
187.86	2322.40
188.08	2400.22
188.30	2224.09
188.52	2174.94
188.75	2299.87
188.97	2330.59
189.19	2080.74
189.41	2170.85
189.63	2326.49
189.85	2183.13
190.07	1994.72
190.29	2050.02
190.51	2359.26
190.73	2179.04
190.95	2301.92
191.17	2228.19
191.39	2146.27
191.61	2258.91
191.84	2197.47
192.06	2189.28
192.28	2060.26
192.50	2633.69
192.72	2215.90
192.94	2179.04
193.16	2363.36
193.38	2303.96
193.60	2138.08
193.82	2248.67
194.04	2424.80
194.26	2277.34
194.48	2179.04
194.70	2156.51
194.92	2265.05
195.14	2324.44
195.36	2103.26
195.58	2181.09
195.80	2308.06
196.02	2181.09
196.24	2201.57
196.46	2211.81
196.69	2166.75
196.91	2545.63
197.13	2164.70
197.35	2158.56
197.57	2408.41
197.79	2389.98
198.01	2351.07
198.23	2226.14
198.45	2342.88
198.67	2144.22
198.89	2144.22
199.11	2224.09
199.33	2209.76
199.55	2158.56
199.77	2267.10
199.99	2326.49
200.21	2176.99
200.43	2279.39
200.65	2117.60
200.87	2056.16
201.09	2301.92
201.31	2179.04
201.53	2279.39
201.75	2299.87
201.97	2295.77
202.19	2295.77
202.41	2240.48
202.63	2353.12
202.85	2271.20
203.07	2240.48
203.29	2183.13
203.51	2144.22
203.73	2101.22
203.95	2439.13
204.17	2152.42
204.39	2285.53
204.61	2291.68
204.83	2236.38
205.05	2234.33
205.27	2191.33
205.49	2471.90
205.71	2230.24
205.93	2090.98
206.15	2162.66
206.37	2217.95
206.59	2275.29
206.81	2074.59
207.03	2123.74
207.25	2129.89
207.47	2299.87
207.69	2220.00
207.91	2277.34
208.13	2430.94
208.34	2224.09
208.56	2127.84
208.78	2250.72
209.00	2273.25
209.22	2189.28
209.44	2133.98
209.66	2111.46
209.88	2228.19
210.10	2144.22
210.32	2236.38
210.54	2226.14
210.76	2142.18
210.98	2310.11
211.20	2078.69
211.42	2275.29
211.64	2461.66
211.86	2328.54
212.08	2181.09
212.30	2252.77
212.52	2269.15
212.74	2228.19
212.96	2217.95
213.17	2260.96
213.39	2342.88
213.61	2443.23
213.83	2187.23
214.05	2152.42
214.27	2379.74
214.49	2117.60
214.71	2176.99
214.93	2224.09
215.15	2224.09
215.37	2359.26
215.59	2121.70
215.81	2258.91
216.03	2408.41
216.24	2299.87
216.46	2201.57
216.68	2293.72
216.90	2346.97
217.12	2383.84
217.34	2158.56
217.56	2248.67
217.78	2428.89
218.00	2269.15
218.22	2220.00
218.44	2252.77
218.66	2281.44
218.87	2430.94
219.09	2168.80
219.31	2234.33
219.53	2295.77
219.75	2174.94
219.97	2187.23
220.19	2217.95
220.41	2236.38
220.63	2404.32
220.85	2168.80
221.06	2113.50
221.28	2410.46
221.50	2326.49
221.72	2148.32
221.94	2109.41
222.16	2242.53
222.38	2359.26
222.60	2220.00
222.82	2209.76
223.03	2324.44
223.25	2179.04
223.47	2226.14
223.69	2324.44
223.91	2267.10
224.13	2150.37
224.35	2084.83
224.57	2220.00
224.78	2240.48
225.00	2150.37
225.22	2162.66
225.44	2166.75
225.66	2369.50
225.88	2228.19
226.10	2269.15
226.32	2197.47
226.53	2486.23
226.75	2136.03
226.97	2154.46
227.19	2226.14
227.41	2166.75
227.63	2195.42
227.85	2062.30
228.06	2174.94
228.28	2230.24
228.50	2338.78
228.72	2070.50
228.94	2211.81
229.16	2084.83
229.37	2138.08
229.59	2125.79
229.81	2277.34
230.03	2250.72
230.25	2088.93
230.47	2088.93
230.69	2113.50
230.90	2387.93
231.12	2183.13
231.34	2254.81
231.56	2314.20
231.78	2176.99
232.00	2265.05
232.21	2166.75
232.43	2068.45
232.65	1955.81
232.87	2308.06
233.09	2031.58
233.30	2158.56
233.52	2254.81
233.74	2213.85
233.96	2201.57
234.18	2203.61
234.40	2197.47
234.61	2398.17
234.83	2097.12
235.05	2101.22
235.27	2566.10
235.49	2447.32
235.70	2125.79
235.92	2346.97
236.14	2258.91
236.36	2506.71
236.58	2109.41
236.79	2222.05
237.01	2154.46
237.23	2205.66
237.45	2342.88
237.67	2154.46
237.88	2353.12
238.10	2449.37
238.32	2113.50
238.54	2185.18
238.76	2179.04
238.97	2203.61
239.19	2117.60
239.41	2299.87
239.63	2299.87
239.85	2193.37
240.06	2183.13
240.28	2154.46
240.50	2383.84
240.72	2269.15
240.93	2125.79
241.15	2252.77
241.37	2232.29
241.59	2461.66
241.81	2174.94
242.02	2238.43
242.24	2232.29
242.46	2269.15
242.68	2093.02
242.89	2176.99
243.11	2340.83
243.33	2254.81
243.55	2133.98
243.76	2250.72
243.98	2244.57
244.20	2273.25
244.42	2080.74
244.64	2248.67
244.85	2111.46
245.07	2193.37
245.29	2203.61
245.51	2140.13
245.72	2260.96
245.94	2316.25
246.16	2197.47
246.38	2174.94
246.59	2211.81
246.81	2191.33
247.03	2154.46
247.24	2039.78
247.46	2209.76
247.68	2170.85
247.90	2142.18
248.11	2185.18
248.33	2424.80
248.55	2230.24
248.77	2222.05
248.98	2211.81
249.20	2332.64
249.42	2293.72
249.64	2207.71
249.85	2136.03
250.07	2236.38
250.29	2351.07
250.50	2236.38
250.72	2072.54
250.94	2316.25
251.16	2490.33
251.37	2220.00
251.59	2275.29
251.81	2373.60
252.02	2377.69
252.24	2117.60
252.46	2260.96
252.68	2123.74
252.89	2226.14
253.11	2039.78
253.33	2336.73
253.54	2355.16
253.76	2105.31
253.98	2146.27
254.20	2146.27
254.41	2197.47
254.63	2185.18
254.85	2136.03
255.06	2154.46
255.28	2301.92
255.50	2281.44
255.71	2193.37
255.93	2043.87
256.15	2166.75
256.36	2250.72
256.58	2111.46
256.80	2189.28
257.02	2168.80
257.23	2258.91
257.45	2203.61
257.67	2242.53
257.88	2209.76
258.10	2320.35
258.32	2144.22
258.53	2205.66
258.75	2426.84
258.97	2088.93
259.18	2144.22
259.40	2220.00
259.62	2404.32
259.83	2494.43
260.05	2217.95
260.27	2707.41
260.48	2332.64
260.70	2127.84
260.92	2176.99
261.13	2205.66
261.35	2289.63
261.57	2293.72
261.78	2113.50
262.00	2201.57
262.22	2334.68
262.43	2191.33
262.65	2179.04
262.86	2275.29
263.08	2508.76
263.30	2244.57
263.51	1982.43
263.73	2195.42
263.95	2432.99
264.16	2203.61
264.38	2176.99
264.60	2195.42
264.81	2283.49
265.03	2328.54
265.25	2379.74
265.46	2123.74
265.68	2439.13
265.89	2365.40
266.11	2035.68
266.33	2232.29
266.54	2291.68
266.76	2293.72
266.98	2211.81
267.19	2199.52
267.41	2396.12
267.62	2252.77
267.84	2088.93
268.06	2179.04
268.27	2324.44
268.49	2363.36
268.70	2242.53
268.92	2217.95
269.14	2121.70
269.35	2093.02
269.57	2217.95
269.79	2240.48
270.00	2224.09
270.22	2422.75
270.43	2224.09
270.65	2037.73
270.87	2275.29
271.08	2281.44
271.30	2197.47
271.51	2158.56
271.73	2293.72
271.95	2408.41
272.16	2203.61
272.38	2254.81
272.59	2195.42
272.81	2297.82
273.02	2191.33
273.24	2150.37
273.46	2371.55
273.67	2172.89
273.89	2113.50
274.10	2105.31
274.32	2316.25
274.54	2330.59
274.75	2260.96
274.97	2267.10
275.18	2346.97
275.40	2344.92
275.61	2215.90
275.83	2240.48
276.05	2121.70
276.26	2273.25
276.48	2258.91
276.69	2123.74
276.91	2220.00
277.12	2375.64
277.34	2359.26
277.55	2310.11
277.77	2293.72
277.99	2226.14
278.20	2195.42
278.42	2095.07
278.63	2222.05
278.85	2090.98
279.06	2144.22
279.28	2383.84
279.49	2281.44
279.71	2359.26
279.93	2263.01
280.14	2277.34
280.36	2179.04
280.57	2291.68
280.79	2269.15
281.00	2168.80
281.22	2160.61
281.43	2392.03
281.65	2062.30
281.86	2129.89
282.08	2297.82
282.29	2473.95
282.51	2052.06
282.73	2154.46
282.94	2129.89
283.16	2439.13
283.37	2344.92
283.59	2226.14
283.80	2269.15
284.02	2316.25
284.23	2291.68
284.45	2166.75
284.66	2220.00
284.88	2168.80
285.09	2234.33
285.31	2252.77
285.52	2236.38
285.74	2080.74
285.95	2303.96
286.17	2306.01
286.38	2359.26
286.60	2191.33
286.81	2166.75
287.03	2211.81
287.24	2303.96
287.46	2326.49
287.67	2228.19
287.89	2367.45
288.10	2275.29
288.32	2222.05
288.53	2306.01
288.75	2211.81
288.96	2359.26
289.18	2164.70
289.39	2179.04
289.61	2213.85
289.82	2494.43
290.04	2435.03
290.25	2174.94
290.47	2230.24
290.68	2275.29
290.90	2357.21
291.11	2080.74
291.33	2297.82
291.54	2148.32
291.76	2195.42
291.97	2295.77
292.18	2398.17
292.40	2226.14
292.61	2168.80
292.83	2469.85
293.04	2220.00
293.26	2332.64
293.47	2189.28
293.69	2164.70
293.90	2211.81
294.12	2346.97
294.33	2217.95
294.55	2236.38
294.76	2316.25
294.97	2435.03
295.19	2439.13
295.40	2179.04
295.62	2322.40
295.83	2359.26
296.05	2238.43
296.26	2396.12
296.48	2232.29
296.69	2256.86
296.90	2203.61
297.12	2351.07
297.33	2299.87
297.55	2203.61
297.76	2301.92
297.98	2275.29
298.19	2195.42
298.41	2258.91
298.62	2226.14
298.83	2394.08
299.05	2207.71
299.26	2158.56
299.48	2136.03
299.69	2248.67
299.90	2312.16
300.12	2166.75
300.33	2293.72
300.55	2267.10
300.76	2238.43
300.98	2193.37
301.19	2363.36
301.40	2140.13
301.62	2269.15
301.83	2258.91
302.05	2187.23
302.26	2170.85
302.47	2269.15
302.69	2107.36
302.90	2295.77
303.12	2103.26
303.33	2303.96
303.54	2482.14
303.76	2187.23
303.97	2238.43
304.19	2361.31
304.40	2209.76
304.61	2359.26
304.83	2359.26
305.04	2316.25
305.26	2295.77
305.47	2248.67
305.68	2238.43
305.90	2121.70
306.11	2396.12
306.33	2240.48
306.54	2154.46
306.75	2199.52
306.97	2080.74
307.18	2166.75
307.39	2168.80
307.61	2310.11
307.82	2234.33
308.04	2320.35
308.25	2195.42
308.46	2201.57
308.68	2277.34
308.89	2285.53
309.10	2346.97
309.32	2277.34
309.53	2265.05
309.74	2297.82
309.96	2258.91
310.17	2289.63
310.39	2179.04
310.60	2293.72
310.81	2203.61
311.03	2101.22
311.24	2359.26
311.45	2220.00
311.67	2379.74
311.88	2301.92
312.09	2187.23
312.31	2273.25
312.52	2201.57
312.73	2256.86
312.95	2111.46
313.16	2215.90
313.37	2351.07
313.59	2236.38
313.80	2308.06
314.01	2414.56
314.23	2121.70
314.44	2220.00
314.65	2105.31
314.87	2256.86
315.08	2226.14
315.29	2154.46
315.51	2142.18
315.72	2166.75
315.93	2342.88
316.15	2242.53
316.36	2230.24
316.57	2289.63
316.79	2213.85
317.00	2170.85
317.21	2334.68
317.43	2242.53
317.64	2332.64
317.85	2154.46
318.07	2191.33
318.28	2213.85
318.49	2353.12
318.70	2580.44
318.92	2379.74
319.13	2428.89
319.34	2349.02
319.56	2297.82
319.77	2392.03
319.98	2361.31
320.20	2328.54
320.41	2324.44
320.62	2367.45
320.83	2162.66
321.05	2480.09
321.26	2244.57
321.47	2303.96
321.69	2383.84
321.90	2078.69
322.11	2195.42
322.32	2281.44
322.54	2336.73
322.75	2205.66
322.96	2551.77
323.18	2088.93
323.39	2113.50
323.60	2211.81
323.81	2310.11
324.03	2207.71
324.24	2248.67
324.45	2308.06
324.66	2166.75
324.88	2340.83
325.09	2394.08
325.30	2265.05
325.52	2217.95
325.73	2324.44
325.94	2240.48
326.15	2103.26
326.37	2170.85
326.58	2318.30
326.79	2449.37
327.00	2170.85
327.22	2281.44
327.43	2172.89
327.64	2021.35
327.85	2316.25
328.07	2160.61
328.28	2469.85
328.49	2236.38
328.70	2258.91
328.92	2199.52
329.13	2220.00
329.34	2351.07
329.55	2334.68
329.76	2269.15
329.98	2224.09
330.19	2447.32
330.40	2322.40
330.61	2205.66
330.83	2310.11
331.04	2150.37
331.25	2269.15
331.46	2105.31
331.68	2119.65
331.89	2365.40
332.10	2244.57
332.31	2117.60
332.52	2314.20
332.74	2310.11
332.95	2035.68
333.16	2179.04
333.37	2316.25
333.58	2215.90
333.80	2211.81
334.01	2113.50
334.22	2230.24
334.43	2138.08
334.64	2260.96
334.86	2121.70
335.07	2174.94
335.28	2371.55
335.49	2138.08
335.70	2303.96
335.92	2387.93
336.13	2480.09
336.34	2252.77
336.55	2248.67
336.76	2291.68
336.98	2123.74
337.19	2217.95
337.40	2314.20
337.61	2519.00
337.82	2224.09
338.04	2285.53
338.25	2058.21
338.46	2187.23
338.67	2277.34
338.88	2152.42
339.09	2109.41
339.31	2215.90
339.52	2152.42
339.73	2111.46
339.94	2197.47
340.15	2324.44
340.36	2185.18
340.58	2318.30
340.79	2129.89
341.00	2332.64
341.21	2099.17
341.42	2351.07
341.63	2203.61
341.85	2392.03
342.06	2258.91
342.27	2185.18
342.48	2310.11
342.69	2136.03
342.90	2371.55
343.12	2367.45
343.33	2160.61
343.54	2332.64
343.75	2334.68
343.96	2242.53
344.17	2234.33
344.38	2277.34
344.60	2129.89
344.81	2140.13
345.02	2244.57
345.23	2371.55
345.44	2498.52
345.65	2277.34
345.86	2271.20
346.07	2252.77
346.29	2207.71
346.50	2336.73
346.71	2217.95
346.92	2367.45
347.13	2463.71
347.34	2314.20
347.55	2142.18
347.76	2209.76
347.98	2121.70
348.19	2240.48
348.40	2330.59
348.61	2179.04
348.82	2478.04
349.03	2240.48
349.24	2164.70
349.45	2498.52
349.66	2119.65
349.88	2244.57
350.09	2150.37
350.30	2432.99
350.51	2375.64
350.72	2263.01
350.93	2238.43
351.14	2113.50
351.35	2392.03
351.56	2201.57
351.77	2238.43
351.99	2330.59
352.20	2465.75
352.41	2334.68
352.62	2062.30
352.83	2215.90
353.04	2209.76
353.25	2185.18
353.46	2269.15
353.67	2389.98
353.88	2088.93
354.09	2279.39
354.30	2285.53
354.52	2375.64
354.73	2211.81
354.94	2160.61
355.15	2213.85
355.36	2371.55
355.57	2254.81
355.78	2273.25
355.99	2144.22
356.20	2209.76
356.41	2351.07
356.62	2258.91
356.83	2252.77
357.04	2400.22
357.25	2172.89
357.46	2183.13
357.68	2191.33
357.89	2199.52
358.10	2293.72
358.31	2312.16
358.52	2293.72
358.73	2166.75
358.94	2111.46
359.15	2136.03
359.36	2383.84
359.57	2281.44
359.78	2248.67
359.99	2355.16
360.20	2093.02
360.41	2293.72
360.62	2279.39
360.83	2191.33
361.04	2279.39
361.25	2224.09
361.46	2461.66
361.67	2314.20
361.88	2240.48
362.09	2400.22
362.30	2185.18
362.51	2097.12
362.72	2267.10
362.93	2293.72
363.14	2293.72
363.35	2226.14
363.56	2176.99
363.78	2375.64
363.99	2330.59
364.20	2207.71
364.41	2256.86
364.62	2453.47
364.83	2195.42
365.04	2308.06
365.25	2148.32
365.46	2508.76
365.67	2125.79
365.88	2209.76
366.09	2158.56
366.30	2195.42
366.51	2209.76
366.72	2146.27
366.93	2220.00
367.14	2230.24
367.35	2437.08
367.56	2172.89
367.77	2322.40
367.98	2191.33
368.18	2318.30
368.39	2306.01
368.60	2156.51
368.81	2338.78
369.02	2326.49
369.23	2203.61
369.44	2019.30
369.65	2193.37
369.86	2285.53
370.07	2306.01
370.28	2103.26
370.49	2344.92
370.70	2363.36
370.91	2074.59
371.12	2193.37
371.33	2400.22
371.54	2232.29
371.75	2359.26
371.96	2023.39
372.17	2215.90
372.38	2222.05
372.59	2220.00
372.80	2127.84
373.01	2174.94
373.22	2322.40
373.43	2320.35
373.64	2136.03
373.85	2475.99
374.06	2361.31
374.26	2330.59
374.47	2285.53
374.68	2408.41
374.89	2269.15
375.10	2207.71
375.31	2355.16
375.52	2299.87
375.73	2275.29
375.94	2152.42
376.15	2398.17
376.36	2166.75
376.57	2193.37
376.78	2260.96
376.99	2242.53
377.20	2334.68
377.40	2275.29
377.61	2334.68
377.82	2146.27
378.03	2367.45
378.24	2369.50
378.45	2283.49
378.66	2215.90
378.87	2113.50
379.08	2068.45
379.29	2254.81
379.50	2365.40
379.71	2283.49
379.91	2273.25
380.12	2187.23
380.33	2222.05
380.54	2220.00
380.75	2234.33
380.96	2179.04
381.17	2285.53
381.38	2277.34
381.59	2314.20
381.80	2258.91
382.00	2461.66
382.21	2248.67
382.42	2482.14
382.63	2494.43
382.84	2312.16
383.05	2400.22
383.26	2443.23
383.47	2244.57
383.68	2293.72
383.88	2314.20
384.09	2303.96
384.30	2422.75
384.51	2267.10
384.72	2205.66
384.93	2080.74
385.14	2224.09
385.35	2346.97
385.55	2201.57
385.76	2412.51
385.97	2260.96
386.18	2080.74
386.39	2185.18
386.60	2226.14
386.81	2187.23
387.02	2174.94
387.22	2162.66
387.43	2346.97
387.64	2285.53
387.85	2469.85
388.06	2439.13
388.27	3874.76
388.48	8083.33
388.68	11599.70
388.89	14061.35
389.10	14999.32
389.31	13952.81
389.52	11016.02
389.73	9478.00
389.93	8396.67
390.14	7876.49
390.35	6942.61
390.56	6348.70
390.77	5337.01
390.98	3989.44
391.18	3203.02
391.39	2805.72
391.60	2437.08
391.81	2418.65
392.02	2209.76
392.23	2449.37
392.43	2308.06
392.64	2359.26
392.85	2275.29
393.06	2400.22
393.27	2303.96
393.47	2207.71
393.68	2240.48
393.89	2168.80
394.10	2418.65
394.31	2338.78
394.52	2105.31
394.72	2228.19
394.93	2349.02
395.14	2176.99
395.35	2285.53
395.56	2211.81
395.76	2242.53
395.97	2293.72
396.18	2324.44
396.39	2465.75
396.60	2768.85
396.80	2447.32
397.01	2373.60
397.22	2432.99
397.43	2435.03
397.64	2228.19
397.84	2355.16
398.05	2504.67
398.26	2301.92
398.47	2351.07
398.67	2492.38
398.88	2326.49
399.09	2316.25
399.30	2191.33
399.51	2340.83
399.71	2197.47
399.92	2256.86
400.13	2330.59
400.34	2176.99
400.54	2256.86
400.75	2447.32
400.96	2306.01
401.17	2463.71
401.37	2324.44
401.58	2308.06
401.79	2244.57
402.00	2435.03
402.21	2629.59
402.41	2609.11
402.62	2553.82
402.83	2731.99
403.04	2703.32
403.24	2820.05
403.45	2344.92
403.66	2469.85
403.87	2416.60
404.07	2443.23
404.28	2527.19
404.49	2465.75
404.70	2330.59
404.90	2338.78
405.11	2351.07
405.32	2377.69
405.52	2162.66
405.73	2236.38
405.94	2238.43
406.15	2283.49
406.35	2318.30
406.56	2318.30
406.77	2295.77
406.98	2271.20
407.18	2170.85
407.39	2396.12
407.60	2176.99
407.80	2275.29
408.01	2138.08
408.22	2238.43
408.43	2131.94
408.63	2252.77
408.84	2326.49
409.05	2416.60
409.25	2129.89
409.46	2172.89
409.67	2228.19
409.88	2191.33
410.08	2250.72
410.29	2289.63
410.50	2277.34
410.70	2287.58
410.91	2121.70
411.12	2289.63
411.32	2201.57
411.53	2205.66
411.74	2400.22
411.95	2400.22
412.15	2213.85
412.36	2439.13
412.57	2301.92
412.77	2426.84
412.98	2228.19
413.19	2240.48
413.39	2349.02
413.60	2346.97
413.81	2383.84
414.01	2138.08
414.22	2346.97
414.43	2351.07
414.63	2263.01
414.84	2420.70
415.05	2146.27
415.25	2138.08
415.46	2252.77
415.67	2234.33
415.87	2326.49
416.08	2232.29
416.29	2195.42
416.49	2289.63
416.70	2138.08
416.91	2199.52
417.11	2205.66
417.32	2328.54
417.53	2334.68
417.73	2297.82
417.94	2285.53
418.15	2334.68
418.35	2342.88
418.56	2179.04
418.77	2555.86
418.97	2265.05
419.18	2199.52
419.38	2056.16
419.59	2203.61
419.80	2334.68
420.00	2258.91
420.21	2248.67
420.42	2351.07
420.62	2357.21
420.83	2179.04
421.04	2232.29
421.24	2217.95
421.45	2269.15
421.65	2273.25
421.86	2242.53
422.07	2310.11
422.27	2346.97
422.48	2293.72
422.69	2201.57
422.89	2166.75
423.10	2283.49
423.30	2121.70
423.51	2252.77
423.72	2299.87
423.92	2246.62
424.13	2099.17
424.33	2258.91
424.54	2281.44
424.75	2250.72
424.95	2418.65
425.16	2342.88
425.36	2220.00
425.57	2310.11
425.78	2363.36
425.98	2320.35
426.19	2217.95
426.39	2183.13
426.60	2318.30
426.81	2336.73
427.01	2351.07
427.22	2162.66
427.42	2144.22
427.63	2101.22
427.83	2396.12
428.04	2377.69
428.25	2363.36
428.45	2351.07
428.66	2340.83
428.86	2222.05
429.07	2226.14
429.28	2297.82
429.48	2240.48
429.69	2162.66
429.89	2275.29
430.10	2146.27
430.30	2334.68
430.51	2396.12
430.71	2217.95
430.92	2209.76
431.13	2195.42
431.33	2408.41
431.54	2258.91
431.74	2439.13
431.95	2437.08
432.15	2152.42
432.36	2244.57
432.56	2322.40
432.77	2535.39
432.98	2363.36
433.18	2248.67
433.39	2246.62
433.59	2168.80
433.80	2457.56
434.00	2389.98
434.21	2314.20
434.41	2230.24
434.62	2475.99
434.82	2154.46
435.03	2183.13
435.23	2273.25
435.44	2144.22
435.64	2205.66
435.85	2248.67
436.06	2338.78
436.26	2318.30
436.47	2187.23
436.67	2285.53
436.88	2250.72
437.08	2375.64
437.29	2408.41
437.49	2285.53
437.70	2381.79
437.90	2303.96
438.11	2490.33
438.31	2342.88
438.52	2387.93
438.72	2404.32
438.93	2580.44
439.13	2424.80
439.34	2455.51
439.54	2242.53
439.75	2332.64
439.95	2367.45
440.16	2193.37
440.36	2357.21
440.57	2338.78
440.77	2269.15
440.98	2232.29
441.18	2258.91
441.39	2170.85
441.59	2179.04
441.80	2439.13
442.00	2226.14
442.21	2379.74
442.41	2103.26
442.62	2389.98
442.82	2248.67
443.02	2256.86
443.23	2299.87
443.43	2211.81
443.64	2439.13
443.84	2226.14
444.05	2346.97
444.25	2281.44
444.46	2207.71
444.66	2230.24
444.87	2381.79
445.07	2209.76
445.28	2211.81
445.48	2392.03
445.69	2340.83
445.89	2486.23
446.09	2340.83
446.30	2551.77
446.50	2813.91
446.71	4321.21
446.91	5554.09
447.12	6455.20
447.32	6756.25
447.53	6145.95
447.73	5160.88
447.93	4558.78
448.14	4276.16
448.34	4081.60
448.55	3594.19
448.75	3573.71
448.96	3309.52
449.16	3108.82
449.36	2873.30
449.57	2580.44
449.77	2406.36
449.98	2275.29
450.18	2344.92
450.39	2324.44
450.59	2316.25
450.79	2242.53
451.00	2183.13
451.20	2392.03
451.41	2297.82
451.61	2389.98
451.81	2260.96
452.02	2193.37
452.22	2299.87
452.43	2197.47
452.63	2193.37
452.84	2250.72
453.04	2170.85
453.24	2338.78
453.45	2263.01
453.65	2240.48
453.86	2332.64
454.06	2324.44
454.26	2330.59
454.47	2283.49
454.67	2326.49
454.87	2287.58
455.08	2263.01
455.28	2424.80
455.49	2340.83
455.69	2195.42
455.89	2451.42
456.10	2308.06
456.30	2170.85
456.51	2349.02
456.71	2236.38
456.91	2332.64
457.12	2293.72
457.32	2285.53
457.52	2160.61
457.73	2326.49
457.93	2277.34
458.14	2244.57
458.34	2115.55
458.54	2283.49
458.75	2236.38
458.95	2326.49
459.15	2220.00
459.36	2275.29
459.56	2273.25
459.76	2545.63
459.97	2301.92
460.17	2215.90
460.37	2334.68
460.58	2293.72
460.78	2443.23
460.99	2281.44
461.19	2244.57
461.39	2183.13
461.60	2301.92
461.80	2349.02
462.00	2125.79
462.21	2240.48
462.41	2199.52
462.61	2152.42
462.82	2086.88
463.02	2344.92
463.22	2303.96
463.43	2373.60
463.63	2207.71
463.83	2420.70
464.04	2269.15
464.24	2269.15
464.44	2156.51
464.64	2250.72
464.85	2406.36
465.05	2351.07
465.25	2242.53
465.46	2244.57
465.66	2326.49
465.86	2412.51
466.07	2228.19
466.27	2301.92
466.47	2127.84
466.68	2162.66
466.88	2318.30
467.08	2265.05
467.29	2387.93
467.49	2334.68
467.69	2271.20
467.89	2293.72
468.10	2232.29
468.30	2248.67
468.50	2406.36
468.71	2322.40
468.91	2176.99
469.11	2383.84
469.31	2265.05
469.52	2127.84
469.72	2400.22
469.92	2412.51
470.13	2244.57
470.33	2277.34
470.53	2349.02
470.73	2662.36
470.94	3010.51
471.14	3047.38
471.34	3407.82
471.54	3317.71
471.75	3059.67
471.95	2838.48
472.15	2775.00
472.36	2826.20
472.56	2668.50
472.76	2725.85
472.96	2525.15
473.17	2473.95
473.37	2418.65
473.57	2363.36
473.77	2363.36
473.98	2318.30
474.18	2107.36
474.38	2586.58
474.58	2275.29
474.79	2234.33
474.99	2316.25
475.19	2410.46
475.39	2193.37
475.60	2322.40
475.80	2236.38
476.00	2240.48
476.20	2250.72
476.41	2301.92
476.61	2367.45
476.81	2402.27
477.01	2105.31
477.21	2551.77
477.42	2359.26
477.62	2211.81
477.82	2367.45
478.02	2285.53
478.23	2342.88
478.43	2201.57
478.63	2297.82
478.83	2172.89
479.03	2295.77
479.24	2381.79
479.44	2416.60
479.64	2199.52
479.84	2144.22
480.04	2148.32
480.25	2308.06
480.45	2168.80
480.65	2267.10
480.85	2465.75
481.06	2244.57
481.26	2289.63
481.46	2295.77
481.66	2324.44
481.86	2217.95
482.06	2383.84
482.27	2252.77
482.47	2252.77
482.67	2238.43
482.87	2160.61
483.07	2344.92
483.28	2279.39
483.48	2189.28
483.68	2256.86
483.88	2195.42
484.08	2068.45
484.29	2187.23
484.49	2306.01
484.69	2115.55
484.89	2424.80
485.09	2402.27
485.29	2263.01
485.50	2346.97
485.70	2234.33
485.90	2328.54
486.10	2353.12
486.30	2238.43
486.50	2359.26
486.71	2291.68
486.91	2293.72
487.11	2389.98
487.31	2176.99
487.51	2435.03
487.71	2183.13
487.91	2228.19
488.12	2154.46
488.32	2064.35
488.52	2256.86
488.72	2056.16
488.92	2248.67
489.12	2400.22
489.32	2334.68
489.53	2318.30
489.73	2125.79
489.93	2398.17
490.13	2183.13
490.33	2152.42
490.53	2289.63
490.73	2398.17
490.94	2136.03
491.14	2277.34
491.34	2377.69
491.54	2459.61
491.74	3246.03
491.94	3837.89
492.14	4091.84
492.34	4112.32
492.54	3827.65
492.75	3213.26
492.95	3180.50
493.15	3026.90
493.35	2916.31
493.55	2932.69
493.75	2717.65
493.95	2787.29
494.15	2553.82
494.35	2426.84
494.56	2295.77
494.76	2203.61
494.96	2277.34
495.16	2308.06
495.36	2244.57
495.56	2277.34
495.76	2250.72
495.96	2269.15
496.16	2222.05
496.36	2471.90
496.56	2265.05
496.77	2320.35
496.97	2160.61
497.17	2392.03
497.37	2103.26
497.57	2252.77
497.77	2281.44
497.97	2154.46
498.17	2330.59
498.37	2254.81
498.57	2310.11
498.77	2170.85
498.97	2338.78
499.17	2457.56
499.38	2267.10
499.58	2299.87
499.78	2316.25
499.98	2320.35
500.18	2289.63
500.38	2166.75
500.58	2416.60
500.78	2914.26
500.98	5173.17
501.18	7167.89
501.38	8812.41
501.58	9844.59
501.78	9596.78
501.98	7591.82
502.18	6375.33
502.38	5531.56
502.58	5136.31
502.78	4569.02
502.98	4476.86
503.18	4302.78
503.38	3876.80
503.59	3383.24
503.79	3155.92
503.99	2949.08
504.19	2828.24
504.39	2836.44
504.59	2801.62
504.79	2779.09
504.99	2752.47
505.19	2562.01
505.39	2512.86
505.59	2617.30
505.79	2582.49
505.99	2422.75
506.19	2371.55
506.39	2580.44
506.59	2271.20
506.79	2246.62
506.99	2459.61
507.19	2283.49
507.39	2314.20
507.59	2191.33
507.79	2238.43
507.99	2140.13
508.19	2289.63
508.39	2285.53
508.59	2275.29
508.79	2441.18
508.99	2475.99
509.19	2201.57
509.39	2383.84
509.59	2277.34
509.79	2265.05
509.99	2322.40
510.19	2375.64
510.39	2328.54
510.59	2281.44
510.79	2226.14
510.99	2138.08
511.19	2267.10
511.39	2445.27
511.59	2428.89
511.79	2420.70
511.99	2260.96
512.19	2324.44
512.38	2301.92
512.58	2201.57
512.78	2215.90
512.98	2351.07
513.18	2359.26
513.38	2144.22
513.58	2303.96
513.78	2306.01
513.98	2258.91
514.18	2244.57
514.38	2209.76
514.58	2303.96
514.78	2226.14
514.98	2224.09
515.18	2215.90
515.38	2146.27
515.58	2410.46
515.78	2215.90
515.98	2256.86
516.18	2357.21
516.38	2179.04
516.57	2207.71
516.77	2222.05
516.97	2297.82
517.17	2236.38
517.37	2095.07
517.57	2279.39
517.77	2256.86
517.97	2242.53
518.17	2256.86
518.37	2174.94
518.57	2224.09
518.77	2234.33
518.97	2312.16
519.16	2322.40
519.36	2340.83
519.56	2258.91
519.76	2234.33
519.96	2271.20
520.16	2478.04
520.36	2211.81
520.56	2308.06
520.76	2158.56
520.96	2244.57
521.16	2287.58
521.35	2312.16
521.55	2463.71
521.75	2355.16
521.95	2203.61
522.15	2197.47
522.35	2088.93
522.55	2193.37
522.75	2334.68
522.95	2236.38
523.14	2176.99
523.34	2363.36
523.54	2277.34
523.74	2252.77
523.94	2318.30
524.14	2136.03
524.34	2357.21
524.54	2367.45
524.73	2211.81
524.93	2281.44
525.13	2334.68
525.33	2144.22
525.53	2578.39
525.73	2326.49
525.93	2293.72
526.13	2209.76
526.32	2162.66
526.52	2316.25
526.72	2394.08
526.92	2234.33
527.12	2181.09
527.32	2164.70
527.52	2342.88
527.71	2285.53
527.91	2217.95
528.11	2277.34
528.31	2232.29
528.51	2187.23
528.71	2281.44
528.90	2320.35
529.10	2400.22
529.30	2398.17
529.50	2039.78
529.70	2349.02
529.90	2236.38
530.09	2273.25
530.29	2176.99
530.49	2236.38
530.69	2496.47
530.89	2187.23
531.09	2232.29
531.28	2195.42
531.48	2457.56
531.68	2293.72
531.88	2287.58
532.08	2316.25
532.28	2277.34
532.47	2299.87
532.67	2371.55
532.87	2351.07
533.07	2140.13
533.27	2355.16
533.46	2387.93
533.66	2359.26
533.86	2252.77
534.06	2211.81
534.26	2349.02
534.45	2269.15
534.65	2424.80
534.85	2310.11
535.05	2240.48
535.25	2342.88
535.44	2195.42
535.64	2316.25
535.84	2277.34
536.04	2242.53
536.24	2320.35
536.43	2207.71
536.63	2353.12
536.83	2260.96
537.03	2258.91
537.22	2109.41
537.42	2115.55
537.62	2269.15
537.82	2293.72
538.02	2437.08
538.21	2416.60
538.41	2609.11
538.61	2293.72
538.81	2252.77
539.00	2303.96
539.20	2150.37
539.40	2269.15
539.60	2340.83
539.79	2422.75
539.99	2224.09
540.19	2217.95
540.39	2228.19
540.58	2312.16
540.78	2367.45
540.98	2320.35
541.18	2297.82
541.37	2346.97
541.57	2277.34
541.77	2342.88
541.97	2193.37
542.16	2154.46
542.36	2244.57
542.56	2199.52
542.76	2463.71
542.95	2357.21
543.15	2357.21
543.35	2318.30
543.54	2224.09
543.74	2170.85
543.94	2342.88
544.14	2209.76
544.33	2346.97
544.53	2168.80
544.73	2283.49
544.93	2179.04
545.12	2267.10
545.32	2211.81
545.52	2230.24
545.71	2191.33
545.91	2193.37
546.11	2220.00
546.30	2213.85
546.50	2269.15
546.70	2320.35
546.90	2308.06
547.09	2086.88
547.29	2232.29
547.49	2314.20
547.68	2228.19
547.88	2146.27
548.08	2322.40
548.27	2748.37
548.47	2201.57
548.67	2312.16
548.87	2318.30
549.06	2293.72
549.26	2250.72
549.46	2310.11
549.65	2215.90
549.85	2217.95
550.05	2297.82
550.24	2148.32
550.44	2211.81
550.64	2293.72
550.83	2232.29
551.03	2416.60
551.23	2488.28
551.42	2353.12
551.62	2197.47
551.82	2316.25
552.01	2260.96
552.21	2424.80
552.41	2238.43
552.60	2426.84
552.80	2283.49
553.00	2189.28
553.19	2250.72
553.39	2435.03
553.59	2185.18
553.78	2244.57
553.98	2271.20
554.17	2162.66
554.37	2291.68
554.57	2371.55
554.76	2090.98
554.96	2226.14
555.16	2301.92
555.35	2293.72
555.55	2260.96
555.75	2334.68
555.94	2367.45
556.14	2185.18
556.33	2326.49
556.53	2256.86
556.73	2308.06
556.92	2330.59
557.12	2332.64
557.32	2455.51
557.51	2488.28
557.71	2326.49
557.90	2400.22
558.10	2412.51
558.30	2236.38
558.49	2150.37
558.69	2220.00
558.88	2338.78
559.08	2398.17
559.28	2283.49
559.47	2306.01
559.67	2349.02
559.86	2432.99
560.06	2291.68
560.26	2236.38
560.45	2326.49
560.65	2217.95
560.84	2381.79
561.04	2203.61
561.24	2359.26
561.43	2166.75
561.63	2408.41
561.82	2310.11
562.02	2355.16
562.22	2176.99
562.41	2176.99
562.61	2136.03
562.80	2250.72
563.00	2506.71
563.19	2320.35
563.39	2281.44
563.59	2387.93
563.78	2205.66
563.98	2007.01
564.17	2203.61
564.37	2082.78
564.56	2285.53
564.76	2176.99
564.96	2439.13
565.15	2269.15
565.35	2432.99
565.54	2230.24
565.74	2330.59
565.93	2275.29
566.13	2250.72
566.32	2303.96
566.52	2275.29
566.71	2402.27
566.91	2420.70
567.11	2387.93
567.30	2187.23
567.50	2389.98
567.69	2367.45
567.89	2236.38
568.08	2258.91
568.28	2299.87
568.47	2269.15
568.67	2320.35
568.86	2189.28
569.06	2416.60
569.25	2344.92
569.45	2101.22
569.64	2283.49
569.84	2240.48
570.04	2322.40
570.23	2205.66
570.43	2246.62
570.62	2334.68
570.82	2422.75
571.01	2133.98
571.21	2238.43
571.40	2166.75
571.60	2265.05
571.79	2295.77
571.99	2267.10
572.18	2203.61
572.38	2285.53
572.57	2306.01
572.77	2172.89
572.96	2598.87
573.16	2267.10
573.35	2232.29
573.55	2383.84
573.74	2271.20
573.94	2242.53
574.13	2187.23
574.33	2332.64
574.52	2334.68
574.71	2293.72
574.91	2349.02
575.10	2070.50
575.30	2217.95
575.49	2185.18
575.69	2193.37
575.88	2269.15
576.08	2320.35
576.27	2441.18
576.47	2297.82
576.66	2359.26
576.86	2482.14
577.05	2285.53
577.25	2447.32
577.44	2500.57
577.64	2207.71
577.83	2379.74
578.02	2203.61
578.22	2326.49
578.41	2416.60
578.61	2308.06
578.80	2183.13
579.00	2277.34
579.19	2334.68
579.39	2281.44
579.58	2394.08
579.77	2359.26
579.97	2414.56
580.16	2334.68
580.36	2316.25
580.55	2449.37
580.75	2301.92
580.94	2326.49
581.13	2349.02
581.33	2400.22
581.52	2236.38
581.72	2521.05
581.91	2473.95
582.11	2285.53
582.30	2408.41
582.49	2312.16
582.69	2514.91
582.88	2314.20
583.08	2260.96
583.27	2400.22
583.47	2293.72
583.66	2281.44
583.85	2207.71
584.05	2291.68
584.24	2406.36
584.44	2183.13
584.63	2420.70
584.82	2414.56
585.02	2467.80
585.21	2498.52
585.41	2502.62
585.60	2422.75
585.79	2504.67
585.99	2482.14
586.18	2447.32
586.37	2957.27
586.57	4695.99
586.76	13815.60
586.96	33052.17
587.15	46818.61
587.34	55940.27
587.54	61215.83
587.73	55930.03
587.93	39536.04
588.12	29572.67
588.31	24034.96
588.51	21112.51
588.70	19125.98
588.89	17350.39
589.09	15238.94
589.28	13143.86
589.47	10547.04
589.67	8421.25
589.86	6383.52
590.06	4765.62
590.25	3856.33
590.44	3192.78
590.64	2791.38
590.83	2572.25
591.02	2564.06
591.22	2396.12
591.41	2398.17
591.60	2283.49
591.80	2641.88
591.99	2160.61
592.18	2322.40
592.38	2392.03
592.57	2320.35
592.76	2318.30
592.96	2392.03
593.15	2328.54
593.34	2521.05
593.54	2316.25
593.73	2367.45
593.92	2389.98
594.12	2385.88
594.31	2357.21
594.50	2457.56
594.70	2506.71
594.89	2586.58
595.08	2201.57
595.28	2412.51
595.47	2555.86
595.66	2369.50
595.86	2154.46
596.05	2306.01
596.24	2301.92
596.43	2498.52
596.63	2363.36
596.82	2316.25
597.01	2318.30
597.21	2416.60
597.40	2293.72
597.59	2400.22
597.79	2295.77
597.98	2355.16
598.17	2375.64
598.36	2314.20
598.56	2357.21
598.75	2193.37
598.94	2312.16
599.14	2322.40
599.33	2183.13
599.52	2326.49
599.71	2340.83
599.91	2332.64
600.10	2410.46
600.29	2291.68
600.48	2310.11
600.68	2297.82
600.87	2277.34
601.06	2236.38
601.26	2277.34
601.45	2306.01
601.64	2297.82
601.83	2414.56
602.03	2183.13
602.22	2187.23
602.41	2439.13
602.60	2516.95
602.80	2404.32
602.99	2385.88
603.18	2252.77
603.37	2340.83
603.57	2322.40
603.76	2342.88
603.95	2471.90
604.14	2168.80
604.34	2164.70
604.53	2258.91
604.72	2306.01
604.91	2383.84
605.10	2310.11
605.30	2086.88
605.49	2537.43
605.68	2357.21
605.87	2377.69
606.07	2220.00
606.26	2351.07
606.45	2367.45
606.64	2293.72
606.84	2185.18
607.03	2303.96
607.22	2301.92
607.41	2209.76
607.60	2252.77
607.80	2451.42
607.99	2244.57
608.18	2342.88
608.37	2238.43
608.56	2244.57
608.76	2412.51
608.95	2422.75
609.14	2310.11
609.33	2447.32
609.52	2537.43
609.72	2322.40
609.91	2406.36
610.10	2310.11
610.29	2447.32
610.48	2314.20
610.68	2285.53
610.87	2351.07
611.06	2383.84
611.25	2324.44
611.44	2344.92
611.63	2281.44
611.83	2404.32
612.02	2195.42
612.21	2322.40
612.40	2142.18
612.59	2148.32
612.79	2146.27
612.98	2250.72
613.17	2424.80
613.36	2269.15
613.55	2389.98
613.74	2301.92
613.93	2422.75
614.13	2398.17
614.32	2475.99
614.51	2508.76
614.70	2373.60
614.89	2244.57
615.08	2408.41
615.28	2746.33
615.47	2201.57
615.66	2389.98
615.85	2260.96
616.04	2435.03
616.23	2277.34
616.42	2244.57
616.62	2267.10
616.81	2293.72
617.00	2236.38
617.19	2299.87
617.38	2275.29
617.57	2320.35
617.76	2357.21
617.95	2389.98
618.15	2408.41
618.34	2383.84
618.53	2088.93
618.72	2342.88
618.91	2287.58
619.10	2406.36
619.29	2258.91
619.48	2334.68
619.68	2217.95
619.87	2289.63
620.06	2131.94
620.25	2342.88
620.44	2181.09
620.63	2267.10
620.82	2285.53
621.01	2242.53
621.20	2277.34
621.39	2289.63
621.59	2308.06
621.78	2318.30
621.97	2236.38
622.16	2381.79
622.35	2340.83
622.54	2381.79
622.73	2383.84
622.92	2064.35
623.11	2351.07
623.30	2240.48
623.49	2308.06
623.68	2226.14
623.88	2338.78
624.07	2351.07
624.26	2211.81
624.45	2209.76
624.64	2281.44
624.83	2353.12
625.02	2250.72
625.21	2340.83
625.40	2283.49
625.59	2385.88
625.78	2258.91
625.97	2351.07
626.16	2404.32
626.35	2389.98
626.54	2295.77
626.74	2441.18
626.93	2324.44
627.12	2260.96
627.31	2385.88
627.50	2406.36
627.69	2420.70
627.88	2189.28
628.07	2250.72
628.26	2148.32
628.45	2217.95
628.64	2209.76
628.83	2281.44
629.02	2181.09
629.21	2326.49
629.40	2234.33
629.59	2207.71
629.78	2236.38
629.97	2230.24
630.16	2308.06
630.35	2226.14
630.54	2367.45
630.73	2273.25
630.92	2203.61
631.11	2160.61
631.30	2314.20
631.49	2426.84
631.68	2283.49
631.87	2244.57
632.06	2164.70
632.25	2496.47
632.44	2306.01
632.63	2375.64
632.82	2316.25
633.01	2224.09
633.20	2346.97
633.39	2220.00
633.58	2228.19
633.77	2381.79
633.96	2379.74
634.15	2351.07
634.34	2306.01
634.53	2303.96
634.72	2258.91
634.91	2109.41
635.10	2301.92
635.29	2322.40
635.48	2260.96
635.67	2158.56
635.86	2121.70
636.05	2375.64
636.24	2263.01
636.43	2336.73
636.62	2277.34
636.81	2064.35
637.00	2314.20
637.19	2351.07
637.38	2314.20
637.57	2279.39
637.76	2287.58
637.95	2340.83
638.14	2226.14
638.33	2359.26
638.52	2324.44
638.71	2213.85
638.89	2179.04
639.08	2539.48
639.27	2365.40
639.46	2482.14
639.65	2852.82
639.84	2834.39
640.03	2938.84
640.22	2828.24
640.41	2895.83
640.60	2504.67
640.79	2490.33
640.98	2473.95
641.17	2529.24
641.36	2516.95
641.55	2396.12
641.74	2277.34
641.92	2244.57
642.11	2203.61
642.30	2310.11
642.49	2277.34
642.68	2217.95
642.87	2258.91
643.06	2349.02
643.25	2201.57
643.44	2185.18
643.63	2340.83
643.82	2295.77
644.00	2220.00
644.19	2220.00
644.38	2217.95
644.57	2457.56
644.76	2203.61
644.95	2250.72
645.14	2308.06
645.33	2136.03
645.52	2252.77
645.71	2138.08
645.89	2207.71
646.08	2314.20
646.27	2209.76
646.46	2406.36
646.65	2138.08
646.84	2230.24
647.03	2195.42
647.22	2293.72
647.40	2392.03
647.59	2301.92
647.78	2039.78
647.97	2105.31
648.16	2176.99
648.35	2457.56
648.54	2326.49
648.73	2232.29
648.91	2344.92
649.10	2289.63
649.29	2244.57
649.48	2267.10
649.67	2324.44
649.86	2293.72
650.05	2316.25
650.23	2404.32
650.42	2355.16
650.61	2510.81
650.80	2435.03
650.99	2580.44
651.18	2342.88
651.36	2445.27
651.55	2285.53
651.74	2447.32
651.93	2205.66
652.12	2299.87
652.31	2291.68
652.49	2308.06
652.68	2226.14
652.87	2426.84
653.06	2220.00
653.25	2435.03
653.44	2260.96
653.62	2459.61
653.81	2260.96
654.00	2152.42
654.19	2402.27
654.38	2594.78
654.56	2349.02
654.75	2248.67
654.94	2308.06
655.13	2209.76
655.32	2291.68
655.51	2293.72
655.69	2220.00
655.88	2195.42
656.07	2150.37
656.26	2324.44
656.45	2244.57
656.63	2252.77
656.82	2303.96
657.01	2437.08
657.20	2185.18
657.38	2404.32
657.57	2246.62
657.76	2230.24
657.95	2449.37
658.14	2166.75
658.32	2252.77
658.51	2224.09
658.70	2277.34
658.89	2285.53
659.08	2250.72
659.26	2506.71
659.45	2183.13
659.64	2365.40
659.83	2279.39
660.01	2629.59
660.20	2277.34
660.39	2457.56
660.58	2072.54
660.76	2359.26
660.95	2127.84
661.14	2277.34
661.33	2154.46
661.51	2281.44
661.70	2230.24
661.89	2330.59
662.08	2234.33
662.26	2111.46
662.45	2172.89
662.64	2430.94
662.83	2318.30
663.01	2084.83
663.20	2205.66
663.39	2344.92
663.58	2162.66
663.76	2244.57
663.95	2279.39
664.14	2211.81
664.32	2207.71
664.51	2193.37
664.70	2136.03
664.89	2258.91
665.07	2195.42
665.26	2260.96
665.45	2121.70
665.64	2328.54
665.82	2244.57
666.01	2310.11
666.20	2187.23
666.38	2373.60
666.57	2451.42
666.76	3385.29
666.95	7966.60
667.13	16002.83
667.32	21198.52
667.51	24260.24
667.69	26459.76
667.88	24069.78
668.07	17413.88
668.25	13854.51
668.44	11542.35
668.63	9731.95
668.81	8763.26
669.00	7602.06
669.19	6805.40
669.38	5955.49
669.56	5218.22
669.75	4298.69
669.94	3721.16
670.12	3059.67
670.31	2830.29
670.50	2650.07
670.68	2541.53
670.87	2457.56
671.06	2342.88
671.24	2283.49
671.43	2441.18
671.62	2375.64
671.80	2306.01
671.99	2363.36
672.18	2299.87
672.36	2344.92
672.55	2252.77
672.74	2162.66
672.92	2275.29
673.11	2369.50
673.29	2187.23
673.48	2316.25
673.67	2254.81
673.85	2392.03
674.04	2174.94
674.23	2220.00
674.41	2457.56
674.60	2183.13
674.79	2078.69
674.97	2230.24
675.16	2334.68
675.34	2301.92
675.53	2201.57
675.72	2306.01
675.90	2484.19
676.09	2226.14
676.28	2328.54
676.46	2133.98
676.65	2322.40
676.83	2152.42
677.02	2226.14
677.21	2250.72
677.39	2281.44
677.58	2174.94
677.77	2234.33
677.95	2148.32
678.14	2308.06
678.32	2217.95
678.51	2187.23
678.70	2580.44
678.88	2215.90
679.07	2328.54
679.25	2197.47
679.44	2152.42
679.63	2183.13
679.81	2217.95
680.00	2322.40
680.18	2301.92
680.37	2443.23
680.55	2293.72
680.74	2105.31
680.93	2142.18
681.11	2293.72
681.30	2142.18
681.48	2285.53
681.67	2256.86
681.85	2277.34
682.04	2199.52
682.23	2453.47
682.41	2318.30
682.60	2301.92
682.78	2260.96
682.97	2146.27
683.15	2271.20
683.34	2291.68
683.53	2424.80
683.71	2117.60
683.90	2303.96
684.08	2529.24
684.27	2213.85
684.45	2310.11
684.64	2334.68
684.82	2215.90
685.01	2258.91
685.19	2269.15
685.38	2410.46
685.57	2238.43
685.75	2195.42
685.94	2166.75
686.12	2158.56
686.31	2191.33
686.49	2383.84
686.68	2156.51
686.86	2299.87
687.05	2230.24
687.23	2437.08
687.42	2217.95
687.60	2129.89
687.79	2392.03
687.97	2467.80
688.16	2340.83
688.34	2387.93
688.53	2043.87
688.71	2334.68
688.90	2342.88
689.08	2220.00
689.27	2152.42
689.45	2318.30
689.64	2293.72
689.82	2306.01
690.01	2258.91
690.19	2240.48
690.38	2220.00
690.56	2375.64
690.75	2115.55
690.93	2203.61
691.12	2252.77
691.30	2244.57
691.49	2176.99
691.67	2271.20
691.86	2465.75
692.04	2213.85
692.23	2265.05
692.41	2258.91
692.60	2478.04
692.78	2375.64
692.97	2269.15
693.15	2445.27
693.34	2402.27
693.52	2375.64
693.71	2240.48
693.89	2232.29
694.08	2084.83
694.26	2275.29
694.44	2371.55
694.63	2349.02
694.81	2217.95
695.00	2246.62
695.18	2351.07
695.37	2523.10
695.55	2267.10
695.74	2303.96
695.92	2183.13
696.10	2424.80
696.29	2129.89
696.47	2199.52
696.66	2217.95
696.84	2121.70
697.03	2275.29
697.21	2514.91
697.40	3325.90
697.58	2383.84
697.76	2234.33
697.95	2189.28
698.13	2166.75
698.32	2197.47
698.50	2248.67
698.68	2400.22
698.87	2285.53
699.05	2437.08
699.24	2240.48
699.42	2150.37
699.61	2293.72
699.79	2289.63
699.97	2238.43
700.16	2058.21
700.34	2084.83
700.53	2226.14
700.71	2488.28
700.89	2334.68
701.08	2252.77
701.26	2289.63
701.45	2785.24
701.63	2215.90
701.81	2224.09
702.00	2291.68
702.18	2275.29
702.37	2232.29
702.55	2449.37
702.73	2488.28
702.92	2361.31
703.10	2531.29
703.28	2484.19
703.47	2330.59
703.65	2482.14
703.84	2377.69
704.02	2293.72
704.20	2510.81
704.39	2258.91
704.57	2285.53
704.75	2414.56
704.94	2389.98
705.12	2346.97
705.30	2480.09
705.49	4505.53
705.67	10282.85
705.86	18069.23
706.04	21642.93
706.22	24882.82
706.41	25591.42
706.59	21679.80
706.77	15644.43
706.96	12898.11
707.14	11366.23
707.32	9672.56
707.51	8744.83
707.69	7329.68
707.87	5836.71
708.06	4833.21
708.24	3950.53
708.42	3170.26
708.61	2996.18
708.79	2453.47
708.97	2439.13
709.16	2457.56
709.34	2355.16
709.52	2154.46
709.71	2265.05
709.89	2338.78
710.07	2236.38
710.26	2201.57
710.44	2260.96
710.62	2342.88
710.80	2238.43
710.99	2328.54
711.17	2308.06
711.35	2220.00
711.54	2195.42
711.72	2326.49
711.90	2260.96
712.09	2330.59
712.27	2203.61
712.45	2269.15
712.63	2193.37
712.82	2373.60
713.00	2244.57
713.18	2203.61
713.37	2346.97
713.55	2332.64
713.73	2289.63
713.91	2359.26
714.10	2256.86
714.28	2191.33
714.46	2293.72
714.65	2381.79
714.83	2246.62
715.01	2250.72
715.19	2328.54
715.38	2263.01
715.56	2318.30
715.74	2250.72
715.92	2220.00
716.11	2424.80
716.29	2082.78
716.47	2172.89
716.65	2271.20
716.84	2113.50
717.02	2303.96
717.20	2127.84
717.38	2209.76
717.57	2314.20
717.75	2248.67
717.93	2166.75
718.11	2310.11
718.30	2207.71
718.48	2306.01
718.66	2365.40
718.84	2398.17
719.03	2240.48
719.21	2121.70
719.39	2365.40
719.57	2318.30
719.75	2400.22
719.94	2136.03
720.12	2271.20
720.30	2220.00
720.48	2308.06
720.67	2203.61
720.85	2154.46
721.03	2168.80
721.21	2207.71
721.39	2361.31
721.58	2254.81
721.76	2230.24
721.94	2211.81
722.12	2308.06
722.30	2404.32
722.49	2269.15
722.67	2306.01
722.85	2328.54
723.03	2148.32
723.21	2170.85
723.40	2285.53
723.58	2338.78
723.76	2365.40
723.94	2373.60
724.12	2301.92
724.30	2430.94
724.49	2379.74
724.67	2228.19
724.85	2404.32
725.03	2052.06
725.21	2324.44
725.40	2342.88
725.58	2174.94
725.76	2367.45
725.94	2316.25
726.12	2138.08
726.30	2301.92
726.49	2326.49
726.67	2287.58
726.85	2252.77
727.03	2580.44
727.21	3600.33
727.39	4962.23
727.57	5996.45
727.76	6397.85
727.94	6557.60
728.12	6436.77
728.30	5029.81
728.48	4415.42
728.66	4022.21
728.84	3815.37
729.03	3297.23
729.21	2965.46
729.39	2680.79
729.57	2461.66
729.75	2430.94
729.93	2359.26
730.11	2273.25
730.30	2185.18
730.48	2306.01
730.66	2357.21
730.84	2394.08
731.02	2179.04
731.20	2203.61
731.38	2232.29
731.56	2138.08
731.74	2113.50
731.93	2324.44
732.11	2244.57
732.29	2234.33
732.47	2291.68
732.65	2244.57
732.83	2416.60
733.01	2265.05
733.19	2222.05
733.37	2297.82
733.56	2392.03
733.74	2226.14
733.92	2447.32
734.10	2152.42
734.28	2357.21
734.46	2027.49
734.64	2197.47
734.82	2291.68
735.00	2174.94
735.18	2209.76
735.36	2158.56
735.54	2238.43
735.73	2263.01
735.91	2250.72
736.09	2375.64
736.27	2244.57
736.45	2334.68
736.63	2099.17
736.81	2201.57
736.99	2340.83
737.17	2430.94
737.35	2215.90
737.53	2285.53
737.71	2293.72
737.89	2408.41
738.07	2121.70
738.25	2193.37
738.43	2154.46
738.61	2185.18
738.80	2152.42
738.98	2123.74
739.16	2232.29
739.34	2168.80
739.52	2328.54
739.70	2181.09
739.88	2346.97
740.06	2336.73
740.24	2033.63
740.42	2396.12
740.60	2033.63
740.78	2207.71
740.96	2109.41
741.14	2217.95
741.32	2308.06
741.50	2138.08
741.68	2432.99
741.86	2306.01
742.04	2150.37
742.22	2150.37
742.40	2248.67
742.58	2346.97
742.76	2174.94
742.94	2357.21
743.12	2152.42
743.30	2197.47
743.48	2408.41
743.66	2277.34
743.84	2301.92
744.02	2291.68
744.20	2267.10
744.38	2107.36
744.56	2191.33
744.74	2475.99
744.92	2334.68
745.10	2377.69
745.28	2260.96
745.46	2455.51
745.64	2297.82
745.82	2342.88
746.00	2199.52
746.18	2265.05
746.36	2119.65
746.54	2301.92
746.72	2226.14
746.90	2191.33
747.08	2330.59
747.26	2144.22
747.44	2312.16
747.62	2301.92
747.80	2287.58
747.98	2379.74
748.15	2269.15
748.33	2465.75
748.51	2287.58
748.69	2338.78
748.87	2138.08
749.05	2215.90
749.23	2297.82
749.41	2287.58
749.59	2215.90
749.77	2361.31
749.95	2238.43
750.13	2209.76
750.31	2283.49
750.49	2277.34
750.67	2322.40
750.85	2428.89
751.03	2230.24
751.20	2482.14
751.38	2306.01
751.56	2185.18
751.74	2260.96
751.92	2187.23
752.10	2168.80
752.28	2334.68
752.46	2179.04
752.64	2174.94
752.82	2308.06
753.00	2283.49
753.18	2138.08
753.35	2299.87
753.53	2220.00
753.71	2179.04
753.89	2265.05
754.07	2338.78
754.25	2371.55
754.43	2260.96
754.61	2123.74
754.79	2287.58
754.97	2342.88
755.14	2332.64
755.32	2160.61
755.50	2234.33
755.68	2322.40
755.86	2170.85
756.04	2215.90
756.22	2019.30
756.40	2283.49
756.57	2473.95
756.75	2242.53
756.93	2318.30
757.11	2277.34
757.29	2183.13
757.47	2213.85
757.65	2111.46
757.82	2007.01
758.00	2162.66
758.18	2213.85
758.36	2125.79
758.54	2375.64
758.72	2035.68
758.90	2326.49
759.07	2252.77
759.25	2162.66
759.43	2275.29
759.61	2156.51
759.79	3123.15
759.97	2432.99
760.15	2205.66
760.32	2238.43
760.50	2293.72
760.68	2400.22
760.86	2183.13
761.04	2322.40
761.22	2318.30
761.39	2283.49
761.57	2342.88
761.75	2265.05
761.93	2283.49
762.11	2269.15
762.28	2285.53
762.46	2129.89
762.64	2383.84
762.82	2129.89
763.00	2244.57
763.18	2297.82
763.35	2189.28
763.53	2318.30
763.71	2226.14
763.89	2334.68
764.07	2277.34
764.24	2306.01
764.42	2277.34
764.60	2234.33
764.78	2252.77
764.96	2334.68
765.13	2312.16
765.31	2236.38
765.49	2308.06
765.67	2199.52
765.84	2203.61
766.02	2179.04
766.20	2129.89
766.38	2314.20
766.56	2301.92
766.73	2283.49
766.91	2328.54
767.09	2260.96
767.27	2359.26
767.44	2154.46
767.62	2334.68
767.80	2215.90
767.98	2220.00
768.15	2207.71
768.33	2320.35
768.51	2349.02
768.69	2383.84
768.87	2267.10
769.04	2168.80
769.22	2547.67
769.40	2383.84
769.58	2402.27
769.75	2301.92
769.93	2285.53
770.11	2258.91
770.28	2191.33
770.46	2283.49
770.64	2291.68
770.82	2244.57
770.99	2170.85
771.17	2342.88
771.35	2213.85
771.53	2252.77
771.70	2275.29
771.88	2254.81
772.06	2205.66
772.23	2176.99
772.41	2303.96
772.59	2203.61
772.77	2152.42
772.94	2197.47
773.12	2263.01
773.30	2158.56
773.47	2297.82
773.65	2152.42
773.83	2488.28
774.01	2269.15
774.18	2017.25
774.36	2267.10
774.54	2158.56
774.71	2224.09
774.89	2121.70
775.07	2148.32
775.24	2179.04
775.42	2211.81
775.60	2469.85
775.78	2121.70
775.95	2113.50
776.13	2039.78
776.31	2127.84
776.48	2195.42
776.66	2324.44
776.84	2201.57
777.01	2146.27
777.19	2185.18
777.37	2152.42
777.54	2365.40
777.72	2385.88
777.90	2279.39
778.07	2156.51
778.25	2555.86
778.43	2275.29
778.60	2127.84
778.78	2258.91
778.96	2375.64
779.13	2113.50
779.31	2293.72
779.49	2207.71
779.66	2344.92
779.84	2195.42
780.01	2228.19
780.19	2109.41
780.37	2367.45
780.54	2291.68
780.72	2136.03
780.90	2224.09
781.07	2248.67
781.25	2174.94
781.43	2301.92
781.60	2217.95
781.78	2324.44
781.95	2338.78
782.13	2217.95
782.31	2211.81
782.48	2127.84
782.66	2246.62
782.83	2359.26
783.01	2324.44
783.19	2316.25
783.36	2174.94
783.54	2162.66
783.72	2334.68
783.89	2273.25
784.07	2228.19
784.24	2252.77
784.42	2344.92
784.60	2226.14
784.77	2310.11
784.95	2084.83
785.12	2265.05
785.30	2293.72
785.47	2168.80
785.65	2107.36
785.83	2164.70
786.00	2236.38
786.18	2254.81
786.35	2082.78
786.53	2209.76
786.71	2353.12
786.88	2236.38
787.06	2244.57
787.23	2144.22
787.41	2244.57
787.58	2220.00
787.76	2129.89
787.94	2244.57
788.11	2209.76
788.29	2058.21
788.46	2203.61
788.64	2101.22
788.81	2197.47
788.99	2166.75
789.16	2129.89
789.34	2271.20
789.52	2146.27
789.69	2199.52
789.87	2093.02
790.04	2222.05
790.22	2209.76
790.39	2506.71
790.57	2125.79
790.74	2162.66
790.92	2394.08
791.09	2131.94
791.27	2281.44
791.44	2269.15
791.62	2230.24
791.79	2324.44
791.97	2318.30
792.15	2594.78
792.32	2363.36
792.50	2324.44
792.67	2396.12
792.85	2402.27
793.02	2318.30
793.20	2129.89
793.37	2080.74
793.55	2230.24
793.72	2142.18
793.90	2303.96
794.07	2187.23
794.25	2224.09
794.42	2242.53
794.60	2246.62
794.77	2334.68
794.95	2375.64
795.12	2334.68
795.30	2242.53
795.47	2101.22
795.65	2535.39
795.82	2326.49
796.00	2158.56
796.17	2293.72
796.34	2181.09
796.52	2222.05
796.69	2400.22
796.87	2342.88
797.04	2279.39
797.22	2291.68
797.39	2363.36
797.57	2340.83
797.74	2252.77
797.92	2330.59
798.09	2093.02
798.27	2316.25
798.44	2226.14
798.62	2176.99
798.79	2240.48
798.96	2238.43
799.14	2256.86
799.31	2570.20
799.49	2228.19
799.66	2170.85
799.84	2220.00
800.01	2150.37
800.19	2246.62
800.36	2154.46
800.53	2281.44
800.71	2330.59
800.88	2416.60
801.06	2226.14
801.23	2099.17
801.41	2197.47
801.58	2220.00
801.75	2244.57
801.93	2248.67
802.10	2310.11
802.28	2211.81
802.45	2211.81
802.63	2308.06
802.80	2340.83
802.97	2242.53
803.15	2224.09
803.32	2230.24
803.50	2170.85
803.67	2228.19
803.84	2097.12
804.02	2269.15
804.19	2187.23
804.37	2007.01
804.54	2119.65
804.71	2230.24
804.89	2201.57
805.06	2162.66
805.24	2168.80
805.41	2113.50
805.58	2119.65
805.76	2555.86
805.93	2230.24
806.10	2301.92
806.28	2334.68
806.45	2195.42
806.63	2303.96
806.80	2254.81
806.97	2297.82
807.15	2342.88
807.32	2203.61
807.49	2168.80
807.67	2131.94
807.84	2240.48
808.01	2084.83
808.19	2449.37
808.36	2408.41
808.54	2148.32
808.71	2150.37
808.88	2267.10
809.06	2346.97
809.23	2332.64
809.40	2164.70
809.58	2381.79
809.75	2176.99
809.92	2117.60
810.10	2461.66
810.27	2183.13
810.44	2328.54
810.62	2373.60
810.79	2250.72
810.96	2242.53
811.14	2197.47
811.31	2234.33
811.48	2320.35
811.66	2232.29
811.83	2375.64
812.00	2299.87
812.18	2318.30
812.35	2449.37
812.52	2222.05
812.69	2242.53
812.87	2174.94
813.04	2205.66
813.21	2222.05
813.39	2166.75
813.56	2136.03
813.73	2267.10
813.91	2154.46
814.08	2226.14
814.25	2240.48
814.42	2174.94
814.60	2220.00
814.77	2285.53
814.94	2260.96
815.12	2230.24
815.29	2416.60
815.46	2154.46
815.63	2267.10
815.81	2250.72
815.98	2240.48
816.15	2189.28
816.33	2234.33
816.50	2203.61
816.67	2205.66
816.84	2211.81
817.02	2154.46
817.19	2220.00
817.36	2240.48
817.53	2267.10
817.71	2154.46
817.88	2363.36
818.05	2303.96
818.22	2213.85
818.40	2379.74
818.57	2213.85
818.74	2332.64
818.91	2193.37
819.09	2269.15
819.26	2338.78
819.43	2174.94
819.60	2191.33
819.78	2318.30
819.95	2344.92
820.12	2203.61
820.29	2359.26
820.47	2394.08
820.64	2197.47
820.81	2146.27
820.98	2144.22
821.15	2174.94
821.33	2336.73
821.50	2097.12
821.67	2248.67
821.84	2203.61
822.02	2338.78
822.19	2349.02
822.36	2203.61
822.53	2246.62
822.70	2133.98
822.88	2195.42
823.05	2414.56
823.22	2277.34
823.39	2285.53
823.56	2281.44
823.74	2463.71
823.91	2140.13
824.08	2205.66
824.25	2121.70
824.42	2424.80
824.60	2189.28
824.77	2228.19
824.94	2287.58
825.11	2332.64
825.28	2023.39
825.45	2267.10
825.63	2238.43
825.80	2191.33
825.97	2310.11
826.14	2265.05
826.31	2084.83
826.48	2291.68
826.66	2209.76
826.83	2162.66
827.00	2236.38
827.17	2113.50
827.34	2205.66
827.51	2191.33
827.69	2260.96
827.86	2105.31
828.03	2170.85
828.20	2209.76
828.37	2176.99
828.54	2326.49
828.71	2121.70
828.89	2387.93
829.06	2228.19
829.23	2428.89
829.40	2174.94
829.57	2187.23
829.74	2318.30
829.91	2250.72
830.09	2142.18
830.26	2269.15
830.43	2328.54
830.60	2148.32
830.77	2228.19
830.94	2322.40
831.11	2369.50
831.28	2193.37
831.46	2295.77
831.63	2162.66
831.80	2310.11
831.97	2154.46
832.14	2205.66
832.31	2314.20
832.48	2267.10
832.65	2330.59
832.82	2306.01
832.99	2242.53
833.17	2119.65
833.34	2447.32
833.51	2277.34
833.68	2107.36
833.85	2310.11
834.02	2070.50
834.19	2181.09
834.36	2086.88
834.53	2246.62
834.70	2349.02
834.87	2330.59
835.04	2160.61
835.22	2133.98
835.39	2193.37
835.56	2105.31
835.73	2179.04
835.90	2418.65
836.07	2191.33
836.24	2312.16
836.41	2103.26
836.58	2119.65
836.75	2308.06
836.92	2258.91
837.09	2111.46
837.26	2283.49
837.43	2260.96
837.60	2293.72
837.77	2220.00
837.94	2367.45
838.12	2371.55
838.29	2195.42
838.46	2133.98
838.63	2197.47
838.80	2379.74
838.97	2250.72
839.14	2183.13
839.31	2220.00
839.48	2314.20
839.65	2201.57
839.82	2248.67
839.99	2222.05
840.16	2299.87
840.33	2105.31
840.50	2209.76
840.67	2183.13
840.84	1980.39
841.01	2187.23
841.18	2170.85
841.35	2254.81
841.52	2238.43
841.69	2432.99
841.86	2187.23
842.03	2211.81
842.20	2377.69
842.37	2185.18
842.54	2265.05
842.71	2234.33
842.88	2117.60
843.05	2217.95
843.22	2164.70
843.39	2334.68
843.56	2187.23
843.73	2170.85
843.90	2267.10
844.07	2310.11
844.24	2422.75
844.41	2277.34
844.58	2258.91
844.75	2289.63
844.92	2297.82
845.09	2211.81
845.26	2158.56
845.43	2367.45
845.60	2256.86
845.77	2236.38
845.94	2242.53
846.10	2346.97
846.27	2117.60
846.44	2123.74
846.61	2181.09
846.78	2389.98
846.95	2252.77
847.12	2166.75
847.29	2185.18
847.46	2238.43
847.63	2361.31
847.80	2181.09
847.97	2146.27
848.14	2467.80
848.31	2179.04
848.48	2074.59
848.65	2246.62
848.82	2164.70
848.98	2562.01
849.15	2295.77
849.32	2250.72
849.49	2318.30
849.66	2226.14
849.83	2209.76
850.00	2179.04
850.17	2318.30
850.34	2228.19
850.51	2201.57
850.68	2136.03
850.85	2480.09
851.01	2285.53
851.18	2265.05
851.35	2291.68
851.52	2328.54
851.69	2373.60
851.86	2080.74
852.03	2220.00
852.20	2273.25
852.37	2250.72
852.53	2015.20
852.70	2256.86
852.87	2295.77
853.04	2269.15
853.21	2133.98
853.38	2402.27
853.55	2295.77
853.72	2371.55
853.89	2195.42
854.05	2203.61
854.22	2158.56
854.39	2232.29
854.56	2306.01
854.73	2166.75
854.90	2119.65
855.07	2185.18
855.23	2217.95
855.40	2156.51
855.57	2199.52
855.74	2019.30
855.91	2408.41
856.08	2146.27
856.25	2154.46
856.41	2211.81
856.58	2179.04
856.75	2152.42
856.92	2156.51
857.09	2412.51
857.26	2070.50
857.42	2226.14
857.59	2367.45
857.76	2195.42
857.93	2201.57
858.10	2215.90
858.27	2181.09
858.43	2242.53
858.60	2185.18
858.77	2068.45
858.94	2152.42
859.11	2328.54
859.27	2236.38
859.44	2195.42
859.61	2408.41
859.78	2277.34
859.95	2179.04
860.12	2189.28
860.28	2383.84
860.45	2457.56
860.62	2195.42
860.79	2217.95
860.95	2166.75
861.12	2150.37
861.29	2111.46
861.46	2140.13
861.63	2299.87
861.79	2340.83
861.96	2090.98
862.13	2164.70
862.30	2412.51
862.47	2166.75
862.63	2158.56
862.80	2258.91
862.97	2357.21
863.14	2295.77
863.30	2263.01
863.47	2209.76
863.64	2375.64
863.81	2312.16
863.97	2185.18
864.14	2209.76
864.31	2222.05
864.48	2215.90
864.65	2215.90
864.81	2293.72
864.98	2318.30
865.15	2381.79
865.32	2215.90
865.48	2332.64
865.65	2408.41
865.82	2234.33
865.98	2240.48
866.15	2283.49
866.32	2172.89
866.49	2127.84
866.65	2260.96
866.82	2125.79
866.99	2244.57
867.16	2138.08
867.32	2191.33
867.49	2086.88
867.66	2166.75
867.83	2191.33
867.99	2111.46
868.16	2127.84
868.33	2187.23
868.49	2357.21
868.66	2144.22
868.83	2275.29
868.99	2228.19
869.16	2277.34
869.33	2176.99
869.50	2242.53
869.66	2277.34
869.83	2273.25
870.00	2086.88
870.16	2346.97
870.33	2189.28
870.50	2387.93
870.66	2185.18
870.83	2283.49
871.00	2265.05
871.17	2215.90
871.33	2297.82
871.50	2211.81
871.67	2238.43
871.83	2232.29
872.00	2301.92
872.17	2183.13
872.33	2338.78
872.50	2234.33
872.67	2199.52
872.83	2189.28
873.00	2285.53
873.17	2244.57
873.33	2195.42
873.50	2234.33
873.67	2211.81
873.83	2187.23
874.00	2150.37
874.16	2275.29
874.33	2242.53
874.50	2035.68
874.66	2250.72
874.83	2265.05
875.00	2351.07
875.16	2320.35
875.33	2285.53
875.50	2013.15
875.66	2170.85
875.83	2326.49
875.99	2285.53
876.16	2183.13
876.33	2146.27
876.49	2191.33
876.66	2283.49
876.83	2238.43
876.99	2086.88
877.16	2342.88
877.32	2179.04
877.49	2224.09
877.66	2250.72
877.82	2502.62
877.99	2269.15
878.15	2389.98
878.32	2267.10
878.49	2263.01
878.65	2183.13
878.82	2330.59
878.98	2176.99
879.15	2371.55
879.32	2244.57
879.48	2213.85
879.65	2230.24
879.81	2093.02
879.98	2234.33
880.15	2250.72
880.31	2267.10
880.48	2158.56
880.64	2342.88
880.81	2283.49
880.97	2365.40
881.14	2344.92
881.31	2150.37
881.47	2453.47
881.64	2187.23
881.80	2113.50
881.97	2275.29
882.13	2217.95
882.30	2152.42
882.47	2228.19
882.63	2185.18
882.80	2201.57
882.96	2185.18
883.13	2357.21
883.29	2226.14
883.46	2176.99
883.62	2516.95
883.79	2246.62
883.95	2342.88
884.12	2220.00
884.29	2375.64
884.45	2269.15
884.62	2273.25
884.78	2207.71
884.95	2418.65
885.11	2197.47
885.28	2185.18
885.44	2150.37
885.61	2363.36
885.77	2408.41
885.94	2293.72
886.10	2179.04
886.27	2299.87
886.43	2439.13
886.60	2316.25
886.76	2148.32
886.93	2162.66
887.09	2297.82
887.26	2111.46
887.42	2260.96
887.59	2340.83
887.75	2410.46
887.92	2312.16
888.08	2308.06
888.25	2482.14
888.41	2351.07
888.58	2240.48
888.74	2201.57
888.91	2250.72
>>>>>End Processed Spectral Data<<<<<
