SpectraSuite Data File
++++++++++++++++++++++++++++++++++++
Date: Thu May 05 13:20:44 CEST 2016
User: root
Dark Spectrum Present: No
Reference Spectrum Present: No
Number of Sampled Component Spectra: 1
Spectrometers: USB4C02835
Integration Time (usec): 100000 (USB4C02835)
Spectra Averaged: 1 (USB4C02835)
Boxcar Smoothing: 0 (USB4C02835)
Correct for Electrical Dark: No (USB4C02835)
Strobe/Lamp Enabled: No (USB4C02835)
Correct for Detector Non-linearity: No (USB4C02835)
Correct for Stray Light: No (USB4C02835)
Number of Pixels in Processed Spectrum: 3648
>>>>>Begin Processed Spectral Data<<<<<
177.47	1841.12
177.69	1841.12
177.91	1841.12
178.13	1781.73
178.36	1724.39
178.58	2217.95
178.80	2332.64
179.02	2084.83
179.24	2140.13
179.46	2154.46
179.68	2197.47
179.90	2267.10
180.13	2234.33
180.35	2129.89
180.57	2131.94
180.79	2244.57
181.01	2263.01
181.23	2322.40
181.45	2308.06
181.67	2322.40
181.90	2308.06
182.12	2277.34
182.34	2099.17
182.56	2357.21
182.78	2332.64
183.00	2244.57
183.22	2195.42
183.44	2088.93
183.66	2549.72
183.89	2303.96
184.11	2230.24
184.33	2265.05
184.55	2316.25
184.77	2232.29
184.99	2154.46
185.21	2179.04
185.43	2596.82
185.65	2109.41
185.87	2201.57
186.10	2543.58
186.32	2531.29
186.54	2230.24
186.76	2236.38
186.98	2363.36
187.20	2152.42
187.42	2146.27
187.64	2238.43
187.86	2256.86
188.08	2246.62
188.30	2111.46
188.52	2138.08
188.75	2269.15
188.97	2389.98
189.19	2129.89
189.41	2129.89
189.63	2344.92
189.85	2179.04
190.07	2119.65
190.29	2021.35
190.51	2275.29
190.73	2064.35
190.95	2359.26
191.17	2258.91
191.39	2099.17
191.61	2238.43
191.84	2138.08
192.06	2197.47
192.28	2207.71
192.50	2549.72
192.72	2240.48
192.94	2205.66
193.16	2383.84
193.38	2289.63
193.60	2158.56
193.82	2189.28
194.04	2363.36
194.26	2279.39
194.48	2183.13
194.70	2131.94
194.92	2193.37
195.14	2322.40
195.36	2148.32
195.58	2269.15
195.80	2277.34
196.02	2133.98
196.24	2123.74
196.46	2277.34
196.69	2150.37
196.91	2420.70
197.13	2181.09
197.35	2129.89
197.57	2404.32
197.79	2254.81
198.01	2326.49
198.23	2240.48
198.45	2281.44
198.67	2224.09
198.89	2084.83
199.11	2275.29
199.33	2293.72
199.55	2072.54
199.77	2111.46
199.99	2271.20
200.21	2250.72
200.43	2326.49
200.65	2095.07
200.87	2043.87
201.09	2211.81
201.31	2285.53
201.53	2228.19
201.75	2187.23
201.97	2330.59
202.19	2230.24
202.41	2238.43
202.63	2361.31
202.85	2338.78
203.07	2260.96
203.29	2146.27
203.51	2181.09
203.73	2220.00
203.95	2572.25
204.17	2156.51
204.39	2293.72
204.61	2269.15
204.83	2232.29
205.05	2236.38
205.27	2187.23
205.49	2461.66
205.71	2301.92
205.93	2127.84
206.15	2146.27
206.37	2260.96
206.59	2187.23
206.81	2121.70
207.03	2144.22
207.25	2187.23
207.47	2318.30
207.69	2195.42
207.91	2332.64
208.13	2441.18
208.34	2228.19
208.56	2113.50
208.78	2248.67
209.00	2174.94
209.22	2150.37
209.44	2146.27
209.66	2107.36
209.88	2324.44
210.10	2250.72
210.32	2146.27
210.54	2275.29
210.76	2234.33
210.98	2480.09
211.20	2097.12
211.42	2314.20
211.64	2394.08
211.86	2310.11
212.08	2269.15
212.30	2203.61
212.52	2220.00
212.74	2260.96
212.96	2295.77
213.17	2238.43
213.39	2289.63
213.61	2404.32
213.83	2199.52
214.05	2238.43
214.27	2301.92
214.49	2170.85
214.71	2107.36
214.93	2256.86
215.15	2322.40
215.37	2322.40
215.59	2039.78
215.81	2285.53
216.03	2428.89
216.24	2185.18
216.46	2127.84
216.68	2242.53
216.90	2324.44
217.12	2396.12
217.34	2240.48
217.56	2230.24
217.78	2373.60
218.00	2344.92
218.22	2258.91
218.44	2201.57
218.66	2283.49
218.87	2424.80
219.09	2146.27
219.31	2291.68
219.53	2203.61
219.75	2211.81
219.97	2203.61
220.19	2250.72
220.41	2211.81
220.63	2453.47
220.85	2199.52
221.06	2095.07
221.28	2351.07
221.50	2308.06
221.72	2207.71
221.94	2170.85
222.16	2273.25
222.38	2316.25
222.60	2248.67
222.82	2232.29
223.03	2316.25
223.25	2090.98
223.47	2179.04
223.69	2318.30
223.91	2316.25
224.13	2406.36
224.35	2129.89
224.57	2351.07
224.78	2260.96
225.00	2195.42
225.22	2267.10
225.44	2244.57
225.66	2277.34
225.88	2252.77
226.10	2275.29
226.32	2179.04
226.53	2428.89
226.75	2330.59
226.97	2228.19
227.19	2236.38
227.41	2179.04
227.63	2217.95
227.85	2088.93
228.06	2213.85
228.28	2220.00
228.50	2367.45
228.72	2103.26
228.94	2234.33
229.16	2121.70
229.37	2146.27
229.59	2095.07
229.81	2351.07
230.03	2179.04
230.25	2199.52
230.47	2113.50
230.69	2056.16
230.90	2322.40
231.12	2232.29
231.34	2275.29
231.56	2281.44
231.78	2162.66
232.00	2238.43
232.21	2113.50
232.43	2152.42
232.65	1984.48
232.87	2338.78
233.09	2064.35
233.30	2127.84
233.52	2308.06
233.74	2228.19
233.96	2140.13
234.18	2209.76
234.40	2285.53
234.61	2496.47
234.83	2109.41
235.05	2097.12
235.27	2586.58
235.49	2355.16
235.70	2129.89
235.92	2326.49
236.14	2318.30
236.36	2486.23
236.58	2129.89
236.79	2207.71
237.01	2236.38
237.23	2273.25
237.45	2365.40
237.67	2119.65
237.88	2291.68
238.10	2562.01
238.32	2127.84
238.54	2168.80
238.76	2287.58
238.97	2181.09
239.19	2105.31
239.41	2244.57
239.63	2326.49
239.85	2195.42
240.06	2185.18
240.28	2277.34
240.50	2389.98
240.72	2217.95
240.93	2113.50
241.15	2244.57
241.37	2250.72
241.59	2400.22
241.81	2117.60
242.02	2252.77
242.24	2269.15
242.46	2310.11
242.68	2105.31
242.89	2187.23
243.11	2340.83
243.33	2211.81
243.55	2185.18
243.76	2224.09
243.98	2183.13
244.20	2242.53
244.42	2158.56
244.64	2181.09
244.85	2209.76
245.07	2191.33
245.29	2187.23
245.51	2191.33
245.72	2306.01
245.94	2289.63
246.16	2160.61
246.38	2224.09
246.59	2195.42
246.81	2099.17
247.03	2154.46
247.24	2093.02
247.46	2211.81
247.68	2297.82
247.90	2064.35
248.11	2179.04
248.33	2340.83
248.55	2236.38
248.77	2224.09
248.98	2269.15
249.20	2463.71
249.42	2224.09
249.64	2252.77
249.85	2150.37
250.07	2236.38
250.29	2303.96
250.50	2263.01
250.72	2029.54
250.94	2344.92
251.16	2459.61
251.37	2199.52
251.59	2203.61
251.81	2260.96
252.02	2363.36
252.24	2097.12
252.46	2420.70
252.68	2158.56
252.89	2176.99
253.11	2056.16
253.33	2287.58
253.54	2314.20
253.76	2101.22
253.98	2129.89
254.20	2203.61
254.41	2105.31
254.63	2246.62
254.85	2021.35
255.06	2203.61
255.28	2291.68
255.50	2232.29
255.71	2146.27
255.93	2047.97
256.15	2199.52
256.36	2318.30
256.58	2136.03
256.80	2191.33
257.02	2256.86
257.23	2172.89
257.45	2133.98
257.67	2293.72
257.88	2183.13
258.10	2332.64
258.32	2222.05
258.53	2213.85
258.75	2447.32
258.97	2154.46
259.18	2107.36
259.40	2207.71
259.62	2441.18
259.83	2375.64
260.05	2267.10
260.27	2623.45
260.48	2283.49
260.70	2146.27
260.92	2168.80
261.13	2240.48
261.35	2228.19
261.57	2295.77
261.78	2138.08
262.00	2121.70
262.22	2310.11
262.43	2168.80
262.65	2220.00
262.86	2236.38
263.08	2516.95
263.30	2285.53
263.51	2082.78
263.73	2109.41
263.95	2365.40
264.16	2172.89
264.38	2164.70
264.60	2181.09
264.81	2168.80
265.03	2340.83
265.25	2277.34
265.46	2181.09
265.68	2414.56
265.89	2242.53
266.11	2047.97
266.33	2170.85
266.54	2316.25
266.76	2283.49
266.98	2308.06
267.19	2316.25
267.41	2359.26
267.62	2203.61
267.84	2043.87
268.06	2281.44
268.27	2248.67
268.49	2340.83
268.70	2150.37
268.92	2158.56
269.14	2187.23
269.35	2156.51
269.57	2248.67
269.79	2209.76
270.00	2211.81
270.22	2435.03
270.43	2105.31
270.65	2031.58
270.87	2275.29
271.08	2308.06
271.30	2281.44
271.51	2228.19
271.73	2285.53
271.95	2377.69
272.16	2189.28
272.38	2244.57
272.59	2156.51
272.81	2293.72
273.02	2203.61
273.24	2201.57
273.46	2269.15
273.67	2105.31
273.89	2144.22
274.10	2154.46
274.32	2400.22
274.54	2312.16
274.75	2260.96
274.97	2174.94
275.18	2332.64
275.40	2351.07
275.61	2187.23
275.83	2209.76
276.05	2105.31
276.26	2244.57
276.48	2277.34
276.69	2088.93
276.91	2170.85
277.12	2379.74
277.34	2361.31
277.55	2279.39
277.77	2289.63
277.99	2154.46
278.20	2170.85
278.42	2088.93
278.63	2217.95
278.85	2121.70
279.06	2109.41
279.28	2273.25
279.49	2324.44
279.71	2351.07
279.93	2299.87
280.14	2193.37
280.36	2183.13
280.57	2326.49
280.79	2281.44
281.00	2224.09
281.22	2158.56
281.43	2285.53
281.65	2007.01
281.86	2156.51
282.08	2312.16
282.29	2428.89
282.51	2086.88
282.73	2148.32
282.94	2111.46
283.16	2324.44
283.37	2379.74
283.59	2228.19
283.80	2306.01
284.02	2234.33
284.23	2195.42
284.45	2140.13
284.66	2242.53
284.88	2248.67
285.09	2211.81
285.31	2306.01
285.52	2250.72
285.74	2133.98
285.95	2312.16
286.17	2230.24
286.38	2359.26
286.60	2162.66
286.81	2174.94
287.03	2222.05
287.24	2275.29
287.46	2289.63
287.67	2277.34
287.89	2306.01
288.10	2299.87
288.32	2287.58
288.53	2353.12
288.75	2230.24
288.96	2328.54
289.18	2201.57
289.39	2142.18
289.61	2254.81
289.82	2486.23
290.04	2455.51
290.25	2179.04
290.47	2277.34
290.68	2269.15
290.90	2353.12
291.11	2060.26
291.33	2269.15
291.54	2174.94
291.76	2260.96
291.97	2301.92
292.18	2240.48
292.40	2248.67
292.61	2168.80
292.83	2426.84
293.04	2199.52
293.26	2269.15
293.47	2228.19
293.69	2154.46
293.90	2314.20
294.12	2459.61
294.33	2187.23
294.55	2176.99
294.76	2267.10
294.97	2328.54
295.19	2496.47
295.40	2232.29
295.62	2289.63
295.83	2357.21
296.05	2109.41
296.26	2326.49
296.48	2242.53
296.69	2209.76
296.90	2183.13
297.12	2295.77
297.33	2396.12
297.55	2224.09
297.76	2277.34
297.98	2314.20
298.19	2154.46
298.41	2220.00
298.62	2146.27
298.83	2375.64
299.05	2267.10
299.26	2252.77
299.48	2060.26
299.69	2232.29
299.90	2246.62
300.12	2148.32
300.33	2297.82
300.55	2170.85
300.76	2228.19
300.98	2068.45
301.19	2230.24
301.40	2236.38
301.62	2187.23
301.83	2244.57
302.05	2293.72
302.26	2207.71
302.47	2226.14
302.69	2201.57
302.90	2299.87
303.12	2095.07
303.33	2267.10
303.54	2389.98
303.76	2240.48
303.97	2240.48
304.19	2365.40
304.40	2148.32
304.61	2324.44
304.83	2349.02
305.04	2322.40
305.26	2334.68
305.47	2248.67
305.68	2164.70
305.90	2078.69
306.11	2351.07
306.33	2236.38
306.54	2107.36
306.75	2152.42
306.97	2162.66
307.18	2230.24
307.39	2197.47
307.61	2228.19
307.82	2105.31
308.04	2246.62
308.25	2170.85
308.46	2293.72
308.68	2252.77
308.89	2127.84
309.10	2363.36
309.32	2250.72
309.53	2238.43
309.74	2314.20
309.96	2174.94
310.17	2299.87
310.39	2236.38
310.60	2244.57
310.81	2289.63
311.03	2084.83
311.24	2346.97
311.45	2289.63
311.67	2394.08
311.88	2246.62
312.09	2240.48
312.31	2301.92
312.52	2189.28
312.73	2152.42
312.95	2125.79
313.16	2193.37
313.37	2351.07
313.59	2252.77
313.80	2301.92
314.01	2398.17
314.23	2234.33
314.44	2150.37
314.65	2183.13
314.87	2156.51
315.08	2250.72
315.29	2263.01
315.51	2158.56
315.72	2148.32
315.93	2322.40
316.15	2301.92
316.36	2244.57
316.57	2213.85
316.79	2228.19
317.00	2220.00
317.21	2275.29
317.43	2174.94
317.64	2273.25
317.85	2113.50
318.07	2211.81
318.28	2211.81
318.49	2394.08
318.70	2473.95
318.92	2367.45
319.13	2453.47
319.34	2490.33
319.56	2277.34
319.77	2299.87
319.98	2414.56
320.20	2385.88
320.41	2342.88
320.62	2277.34
320.83	2195.42
321.05	2428.89
321.26	2310.11
321.47	2197.47
321.69	2330.59
321.90	2115.55
322.11	2236.38
322.32	2322.40
322.54	2318.30
322.75	2115.55
322.96	2590.68
323.18	2121.70
323.39	2066.40
323.60	2144.22
323.81	2297.82
324.03	2209.76
324.24	2220.00
324.45	2279.39
324.66	2246.62
324.88	2314.20
325.09	2394.08
325.30	2209.76
325.52	2277.34
325.73	2330.59
325.94	2162.66
326.15	2097.12
326.37	2236.38
326.58	2252.77
326.79	2428.89
327.00	2142.18
327.22	2160.61
327.43	2232.29
327.64	2138.08
327.85	2236.38
328.07	2295.77
328.28	2445.27
328.49	2181.09
328.70	2181.09
328.92	2234.33
329.13	2168.80
329.34	2301.92
329.55	2402.27
329.76	2351.07
329.98	2203.61
330.19	2426.84
330.40	2232.29
330.61	2316.25
330.83	2383.84
331.04	2088.93
331.25	2236.38
331.46	2160.61
331.68	2174.94
331.89	2310.11
332.10	2195.42
332.31	2152.42
332.52	2248.67
332.74	2322.40
332.95	2146.27
333.16	2220.00
333.37	2273.25
333.58	2258.91
333.80	2240.48
334.01	2209.76
334.22	2308.06
334.43	2228.19
334.64	2166.75
334.86	2185.18
335.07	2162.66
335.28	2400.22
335.49	2062.30
335.70	2222.05
335.92	2375.64
336.13	2400.22
336.34	2306.01
336.55	2236.38
336.76	2301.92
336.98	2115.55
337.19	2246.62
337.40	2291.68
337.61	2490.33
337.82	2146.27
338.04	2277.34
338.25	2086.88
338.46	2183.13
338.67	2215.90
338.88	2097.12
339.09	2205.66
339.31	2277.34
339.52	2136.03
339.73	2138.08
339.94	2215.90
340.15	2326.49
340.36	2273.25
340.58	2250.72
340.79	2123.74
341.00	2250.72
341.21	2158.56
341.42	2365.40
341.63	2129.89
341.85	2355.16
342.06	2351.07
342.27	2193.37
342.48	2215.90
342.69	2150.37
342.90	2238.43
343.12	2414.56
343.33	2136.03
343.54	2389.98
343.75	2324.44
343.96	2299.87
344.17	2158.56
344.38	2232.29
344.60	2152.42
344.81	2183.13
345.02	2228.19
345.23	2365.40
345.44	2527.19
345.65	2314.20
345.86	2236.38
346.07	2201.57
346.29	2211.81
346.50	2314.20
346.71	2308.06
346.92	2338.78
347.13	2426.84
347.34	2162.66
347.55	2203.61
347.76	2279.39
347.98	2185.18
348.19	2166.75
348.40	2344.92
348.61	2209.76
348.82	2443.23
349.03	2301.92
349.24	2154.46
349.45	2349.02
349.66	2000.87
349.88	2199.52
350.09	2193.37
350.30	2396.12
350.51	2414.56
350.72	2226.14
350.93	2203.61
351.14	2252.77
351.35	2285.53
351.56	2195.42
351.77	2185.18
351.99	2324.44
352.20	2371.55
352.41	2244.57
352.62	2072.54
352.83	2324.44
353.04	2244.57
353.25	2162.66
353.46	2267.10
353.67	2308.06
353.88	2090.98
354.09	2222.05
354.30	2185.18
354.52	2363.36
354.73	2217.95
354.94	2183.13
355.15	2240.48
355.36	2519.00
355.57	2220.00
355.78	2258.91
355.99	2220.00
356.20	2168.80
356.41	2414.56
356.62	2187.23
356.83	2308.06
357.04	2449.37
357.25	2045.92
357.46	2117.60
357.68	2119.65
357.89	2050.02
358.10	2256.86
358.31	2189.28
358.52	2133.98
358.73	2056.16
358.94	2144.22
359.15	2191.33
359.36	2244.57
359.57	2293.72
359.78	2174.94
359.99	2289.63
360.20	2179.04
360.41	2283.49
360.62	2283.49
360.83	2236.38
361.04	2232.29
361.25	2201.57
361.46	2469.85
361.67	2285.53
361.88	2295.77
362.09	2367.45
362.30	2338.78
362.51	2115.55
362.72	2252.77
362.93	2328.54
363.14	2334.68
363.35	2258.91
363.56	2148.32
363.78	2267.10
363.99	2420.70
364.20	2140.13
364.41	2197.47
364.62	2457.56
364.83	2215.90
365.04	2193.37
365.25	2187.23
365.46	2523.10
365.67	2211.81
365.88	2263.01
366.09	2273.25
366.30	2254.81
366.51	2269.15
366.72	2154.46
366.93	2181.09
367.14	2197.47
367.35	2379.74
367.56	2234.33
367.77	2322.40
367.98	2269.15
368.18	2316.25
368.39	2306.01
368.60	2136.03
368.81	2291.68
369.02	2273.25
369.23	2129.89
369.44	2111.46
369.65	2232.29
369.86	2320.35
370.07	2299.87
370.28	2138.08
370.49	2326.49
370.70	2326.49
370.91	2185.18
371.12	2197.47
371.33	2394.08
371.54	2226.14
371.75	2379.74
371.96	1994.72
372.17	2258.91
372.38	2271.20
372.59	2162.66
372.80	2211.81
373.01	2273.25
373.22	2277.34
373.43	2199.52
373.64	2146.27
373.85	2291.68
374.06	2385.88
374.26	2318.30
374.47	2312.16
374.68	2389.98
374.89	2306.01
375.10	2265.05
375.31	2314.20
375.52	2287.58
375.73	2322.40
375.94	2136.03
376.15	2363.36
376.36	2215.90
376.57	2213.85
376.78	2234.33
376.99	2215.90
377.20	2375.64
377.40	2220.00
377.61	2396.12
377.82	2138.08
378.03	2416.60
378.24	2342.88
378.45	2283.49
378.66	2312.16
378.87	2052.06
379.08	2195.42
379.29	2248.67
379.50	2318.30
379.71	2232.29
379.91	2342.88
380.12	2248.67
380.33	2275.29
380.54	2265.05
380.75	2228.19
380.96	2195.42
381.17	2310.11
381.38	2174.94
381.59	2297.82
381.80	2170.85
382.00	2430.94
382.21	2330.59
382.42	2521.05
382.63	2473.95
382.84	2369.50
383.05	2338.78
383.26	2453.47
383.47	2260.96
383.68	2287.58
383.88	2306.01
384.09	2316.25
384.30	2478.04
384.51	2271.20
384.72	2183.13
384.93	2101.22
385.14	2244.57
385.35	2301.92
385.55	2097.12
385.76	2367.45
385.97	2303.96
386.18	2113.50
386.39	2234.33
386.60	2150.37
386.81	2213.85
387.02	2119.65
387.22	2209.76
387.43	2359.26
387.64	2265.05
387.85	2471.90
388.06	2480.09
388.27	3997.64
388.48	8281.99
388.68	11876.17
388.89	13997.87
389.10	15193.88
389.31	14071.59
389.52	11138.90
389.73	9426.80
389.93	8597.37
390.14	7976.84
390.35	7157.65
390.56	6430.62
390.77	5271.47
390.98	3952.58
391.18	3207.12
391.39	2719.70
391.60	2392.03
391.81	2400.22
392.02	2222.05
392.23	2471.90
392.43	2256.86
392.64	2408.41
392.85	2246.62
393.06	2392.03
393.27	2234.33
393.47	2203.61
393.68	2273.25
393.89	2236.38
394.10	2381.79
394.31	2170.85
394.52	2125.79
394.72	2187.23
394.93	2375.64
395.14	2140.13
395.35	2246.62
395.56	2279.39
395.76	2293.72
395.97	2250.72
396.18	2330.59
396.39	2432.99
396.60	2717.65
396.80	2566.10
397.01	2441.18
397.22	2443.23
397.43	2373.60
397.64	2217.95
397.84	2336.73
398.05	2549.72
398.26	2283.49
398.47	2306.01
398.67	2340.83
398.88	2306.01
399.09	2338.78
399.30	2197.47
399.51	2353.12
399.71	2154.46
399.92	2244.57
400.13	2273.25
400.34	2187.23
400.54	2281.44
400.75	2435.03
400.96	2326.49
401.17	2424.80
401.37	2301.92
401.58	2283.49
401.79	2269.15
402.00	2408.41
402.21	2641.88
402.41	2572.25
402.62	2621.40
402.83	2770.90
403.04	2686.94
403.24	2785.24
403.45	2371.55
403.66	2541.53
403.87	2463.71
404.07	2488.28
404.28	2484.19
404.49	2441.18
404.70	2314.20
404.90	2389.98
405.11	2252.77
405.32	2340.83
405.52	2152.42
405.73	2191.33
405.94	2131.94
406.15	2260.96
406.35	2260.96
406.56	2383.84
406.77	2271.20
406.98	2226.14
407.18	2191.33
407.39	2289.63
407.60	2260.96
407.80	2357.21
408.01	2244.57
408.22	2330.59
408.43	2193.37
408.63	2308.06
408.84	2324.44
409.05	2246.62
409.25	2230.24
409.46	2164.70
409.67	2168.80
409.88	2211.81
410.08	2209.76
410.29	2166.75
410.50	2404.32
410.70	2283.49
410.91	2193.37
411.12	2273.25
411.32	2306.01
411.53	2228.19
411.74	2357.21
411.95	2322.40
412.15	2310.11
412.36	2353.12
412.57	2363.36
412.77	2355.16
412.98	2260.96
413.19	2250.72
413.39	2256.86
413.60	2277.34
413.81	2441.18
414.01	2197.47
414.22	2310.11
414.43	2299.87
414.63	2215.90
414.84	2392.03
415.05	2260.96
415.25	2113.50
415.46	2260.96
415.67	2242.53
415.87	2365.40
416.08	2246.62
416.29	2224.09
416.49	2320.35
416.70	2125.79
416.91	2240.48
417.11	2176.99
417.32	2332.64
417.53	2359.26
417.73	2269.15
417.94	2308.06
418.15	2369.50
418.35	2285.53
418.56	2275.29
418.77	2447.32
418.97	2220.00
419.18	2228.19
419.38	2047.97
419.59	2248.67
419.80	2471.90
420.00	2211.81
420.21	2316.25
420.42	2379.74
420.62	2244.57
420.83	2211.81
421.04	2256.86
421.24	2326.49
421.45	2246.62
421.65	2252.77
421.86	2211.81
422.07	2373.60
422.27	2256.86
422.48	2310.11
422.69	2179.04
422.89	2207.71
423.10	2242.53
423.30	2154.46
423.51	2277.34
423.72	2367.45
423.92	2273.25
424.13	2172.89
424.33	2283.49
424.54	2367.45
424.75	2230.24
424.95	2404.32
425.16	2258.91
425.36	2267.10
425.57	2359.26
425.78	2287.58
425.98	2260.96
426.19	2224.09
426.39	2179.04
426.60	2220.00
426.81	2342.88
427.01	2244.57
427.22	2105.31
427.42	2080.74
427.63	2152.42
427.83	2328.54
428.04	2473.95
428.25	2320.35
428.45	2357.21
428.66	2404.32
428.86	2203.61
429.07	2164.70
429.28	2217.95
429.48	2254.81
429.69	2191.33
429.89	2361.31
430.10	2109.41
430.30	2332.64
430.51	2363.36
430.71	2129.89
430.92	2197.47
431.13	2170.85
431.33	2310.11
431.54	2256.86
431.74	2406.36
431.95	2473.95
432.15	2146.27
432.36	2269.15
432.56	2254.81
432.77	2531.29
432.98	2441.18
433.18	2265.05
433.39	2197.47
433.59	2240.48
433.80	2359.26
434.00	2412.51
434.21	2197.47
434.41	2154.46
434.62	2445.27
434.82	2144.22
435.03	2207.71
435.23	2297.82
435.44	2056.16
435.64	2217.95
435.85	2322.40
436.06	2301.92
436.26	2435.03
436.47	2301.92
436.67	2185.18
436.88	2326.49
437.08	2363.36
437.29	2375.64
437.49	2273.25
437.70	2365.40
437.90	2244.57
438.11	2406.36
438.31	2310.11
438.52	2422.75
438.72	2414.56
438.93	2527.19
439.13	2330.59
439.34	2355.16
439.54	2256.86
439.75	2324.44
439.95	2314.20
440.16	2164.70
440.36	2346.97
440.57	2258.91
440.77	2211.81
440.98	2273.25
441.18	2330.59
441.39	2195.42
441.59	2146.27
441.80	2484.19
442.00	2252.77
442.21	2363.36
442.41	2115.55
442.62	2373.60
442.82	2234.33
443.02	2293.72
443.23	2260.96
443.43	2195.42
443.64	2478.04
443.84	2187.23
444.05	2369.50
444.25	2281.44
444.46	2201.57
444.66	2193.37
444.87	2369.50
445.07	2121.70
445.28	2176.99
445.48	2365.40
445.69	2424.80
445.89	2543.58
446.09	2289.63
446.30	2572.25
446.50	2826.20
446.71	4466.62
446.91	5539.76
447.12	6234.02
447.32	6789.02
447.53	6340.51
447.73	5119.92
447.93	4585.40
448.14	4272.06
448.34	4067.27
448.55	3616.71
448.75	3495.88
448.96	3364.81
449.16	2979.79
449.36	2879.44
449.57	2523.10
449.77	2465.75
449.98	2244.57
450.18	2326.49
450.39	2355.16
450.59	2324.44
450.79	2267.10
451.00	2185.18
451.20	2308.06
451.41	2183.13
451.61	2322.40
451.81	2256.86
452.02	2162.66
452.22	2158.56
452.43	2179.04
452.63	2244.57
452.84	2193.37
453.04	2183.13
453.24	2285.53
453.45	2172.89
453.65	2252.77
453.86	2211.81
454.06	2273.25
454.26	2263.01
454.47	2154.46
454.67	2322.40
454.87	2326.49
455.08	2232.29
455.28	2441.18
455.49	2330.59
455.69	2193.37
455.89	2457.56
456.10	2381.79
456.30	2234.33
456.51	2389.98
456.71	2342.88
456.91	2240.48
457.12	2334.68
457.32	2344.92
457.52	2246.62
457.73	2377.69
457.93	2334.68
458.14	2224.09
458.34	2140.13
458.54	2310.11
458.75	2150.37
458.95	2435.03
459.15	2273.25
459.36	2392.03
459.56	2340.83
459.76	2594.78
459.97	2293.72
460.17	2267.10
460.37	2369.50
460.58	2240.48
460.78	2363.36
460.99	2179.04
461.19	2291.68
461.39	2240.48
461.60	2308.06
461.80	2242.53
462.00	2181.09
462.21	2279.39
462.41	2125.79
462.61	2187.23
462.82	2117.60
463.02	2340.83
463.22	2269.15
463.43	2316.25
463.63	2236.38
463.83	2381.79
464.04	2322.40
464.24	2260.96
464.44	2230.24
464.64	2301.92
464.85	2369.50
465.05	2285.53
465.25	2207.71
465.46	2287.58
465.66	2404.32
465.86	2238.43
466.07	2289.63
466.27	2152.42
466.47	2133.98
466.68	2138.08
466.88	2392.03
467.08	2338.78
467.29	2342.88
467.49	2303.96
467.69	2330.59
467.89	2351.07
468.10	2289.63
468.30	2324.44
468.50	2396.12
468.71	2342.88
468.91	2150.37
469.11	2451.42
469.31	2281.44
469.52	2179.04
469.72	2346.97
469.92	2453.47
470.13	2232.29
470.33	2297.82
470.53	2346.97
470.73	2695.13
470.94	3037.14
471.14	3135.44
471.34	3618.76
471.54	3473.36
471.75	3102.67
471.95	2838.48
472.15	2703.32
472.36	2824.15
472.56	2727.89
472.76	2684.89
472.96	2590.68
473.17	2473.95
473.37	2498.52
473.57	2303.96
473.77	2381.79
473.98	2273.25
474.18	2217.95
474.38	2519.00
474.58	2238.43
474.79	2220.00
474.99	2263.01
475.19	2297.82
475.39	2203.61
475.60	2283.49
475.80	2244.57
476.00	2291.68
476.20	2246.62
476.41	2310.11
476.61	2326.49
476.81	2379.74
477.01	2267.10
477.21	2408.41
477.42	2342.88
477.62	2220.00
477.82	2320.35
478.02	2308.06
478.23	2334.68
478.43	2179.04
478.63	2205.66
478.83	2258.91
479.03	2201.57
479.24	2375.64
479.44	2482.14
479.64	2156.51
479.84	2156.51
480.04	2193.37
480.25	2349.02
480.45	2183.13
480.65	2250.72
480.85	2400.22
481.06	2179.04
481.26	2285.53
481.46	2289.63
481.66	2316.25
481.86	2127.84
482.06	2461.66
482.27	2258.91
482.47	2277.34
482.67	2260.96
482.87	2215.90
483.07	2340.83
483.28	2199.52
483.48	2103.26
483.68	2232.29
483.88	2217.95
484.08	2080.74
484.29	2158.56
484.49	2340.83
484.69	2168.80
484.89	2385.88
485.09	2332.64
485.29	2392.03
485.50	2226.14
485.70	2248.67
485.90	2353.12
486.10	2258.91
486.30	2344.92
486.50	2408.41
486.71	2377.69
486.91	2320.35
487.11	2426.84
487.31	2144.22
487.51	2316.25
487.71	2166.75
487.91	2185.18
488.12	2211.81
488.32	2027.49
488.52	2275.29
488.72	2056.16
488.92	2228.19
489.12	2330.59
489.32	2322.40
489.53	2293.72
489.73	2121.70
489.93	2428.89
490.13	2203.61
490.33	2146.27
490.53	2277.34
490.73	2441.18
490.94	2121.70
491.14	2271.20
491.34	2310.11
491.54	2543.58
491.74	3231.69
491.94	3794.89
492.14	4134.85
492.34	4143.04
492.54	3782.60
492.75	3219.41
492.95	3186.64
493.15	3008.47
493.35	3026.90
493.55	2795.48
493.75	2725.85
493.95	2725.85
494.15	2514.91
494.35	2394.08
494.56	2379.74
494.76	2230.24
494.96	2328.54
495.16	2195.42
495.36	2224.09
495.56	2285.53
495.76	2256.86
495.96	2254.81
496.16	2133.98
496.36	2443.23
496.56	2224.09
496.77	2355.16
496.97	2232.29
497.17	2387.93
497.37	2074.59
497.57	2369.50
497.77	2281.44
497.97	2203.61
498.17	2324.44
498.37	2185.18
498.57	2367.45
498.77	2287.58
498.97	2381.79
499.17	2406.36
499.38	2230.24
499.58	2273.25
499.78	2342.88
499.98	2349.02
500.18	2308.06
500.38	2213.85
500.58	2469.85
500.78	2856.92
500.98	5156.79
501.18	7169.94
501.38	8812.41
501.58	9979.75
501.78	9594.73
501.98	7630.73
502.18	6485.92
502.38	5560.24
502.58	5107.63
502.78	4573.11
502.98	4384.70
503.18	4376.51
503.38	3848.13
503.59	3442.64
503.79	3241.93
503.99	3039.19
504.19	2873.30
504.39	2799.57
504.59	2899.92
504.79	2772.95
504.99	2895.83
505.19	2490.33
505.39	2516.95
505.59	2678.74
505.79	2516.95
505.99	2463.71
506.19	2332.64
506.39	2547.67
506.59	2363.36
506.79	2301.92
506.99	2422.75
507.19	2346.97
507.39	2349.02
507.59	2129.89
507.79	2162.66
507.99	2242.53
508.19	2187.23
508.39	2230.24
508.59	2211.81
508.79	2426.84
508.99	2480.09
509.19	2228.19
509.39	2299.87
509.59	2138.08
509.79	2236.38
509.99	2250.72
510.19	2351.07
510.39	2252.77
510.59	2301.92
510.79	2220.00
510.99	2158.56
511.19	2174.94
511.39	2422.75
511.59	2394.08
511.79	2426.84
511.99	2297.82
512.19	2400.22
512.38	2248.67
512.58	2281.44
512.78	2283.49
512.98	2340.83
513.18	2371.55
513.38	2105.31
513.58	2340.83
513.78	2310.11
513.98	2220.00
514.18	2269.15
514.38	2285.53
514.58	2301.92
514.78	2183.13
514.98	2199.52
515.18	2197.47
515.38	2203.61
515.58	2486.23
515.78	2183.13
515.98	2260.96
516.18	2338.78
516.38	2267.10
516.57	2160.61
516.77	2222.05
516.97	2324.44
517.17	2252.77
517.37	2123.74
517.57	2308.06
517.77	2258.91
517.97	2179.04
518.17	2293.72
518.37	2160.61
518.57	2217.95
518.77	2252.77
518.97	2234.33
519.16	2328.54
519.36	2295.77
519.56	2213.85
519.76	2236.38
519.96	2289.63
520.16	2430.94
520.36	2209.76
520.56	2344.92
520.76	2217.95
520.96	2170.85
521.16	2318.30
521.35	2392.03
521.55	2437.08
521.75	2269.15
521.95	2209.76
522.15	2246.62
522.35	2078.69
522.55	2203.61
522.75	2363.36
522.95	2224.09
523.14	2168.80
523.34	2228.19
523.54	2297.82
523.74	2209.76
523.94	2297.82
524.14	2189.28
524.34	2326.49
524.54	2385.88
524.73	2248.67
524.93	2334.68
525.13	2240.48
525.33	2168.80
525.53	2469.85
525.73	2351.07
525.93	2226.14
526.13	2273.25
526.32	2295.77
526.52	2306.01
526.72	2396.12
526.92	2273.25
527.12	2230.24
527.32	2170.85
527.52	2385.88
527.71	2260.96
527.91	2220.00
528.11	2195.42
528.31	2238.43
528.51	2150.37
528.71	2330.59
528.90	2328.54
529.10	2420.70
529.30	2387.93
529.50	2084.83
529.70	2254.81
529.90	2260.96
530.09	2340.83
530.29	2146.27
530.49	2111.46
530.69	2527.19
530.89	2271.20
531.09	2224.09
531.28	2217.95
531.48	2398.17
531.68	2293.72
531.88	2256.86
532.08	2334.68
532.28	2281.44
532.47	2349.02
532.67	2340.83
532.87	2265.05
533.07	2220.00
533.27	2361.31
533.46	2234.33
533.66	2351.07
533.86	2220.00
534.06	2344.92
534.26	2301.92
534.45	2234.33
534.65	2371.55
534.85	2285.53
535.05	2244.57
535.25	2471.90
535.44	2133.98
535.64	2246.62
535.84	2234.33
536.04	2185.18
536.24	2242.53
536.43	2150.37
536.63	2271.20
536.83	2250.72
537.03	2291.68
537.22	2084.83
537.42	2142.18
537.62	2303.96
537.82	2176.99
538.02	2437.08
538.21	2422.75
538.41	2531.29
538.61	2320.35
538.81	2207.71
539.00	2344.92
539.20	2203.61
539.40	2263.01
539.60	2281.44
539.79	2267.10
539.99	2209.76
540.19	2226.14
540.39	2215.90
540.58	2295.77
540.78	2387.93
540.98	2396.12
541.18	2400.22
541.37	2291.68
541.57	2269.15
541.77	2250.72
541.97	2228.19
542.16	2058.21
542.36	2154.46
542.56	2248.67
542.76	2398.17
542.95	2279.39
543.15	2269.15
543.35	2387.93
543.54	2187.23
543.74	2185.18
543.94	2400.22
544.14	2303.96
544.33	2310.11
544.53	2193.37
544.73	2277.34
544.93	2250.72
545.12	2281.44
545.32	2301.92
545.52	2207.71
545.71	2193.37
545.91	2277.34
546.11	2154.46
546.30	2105.31
546.50	2250.72
546.70	2242.53
546.90	2365.40
547.09	2150.37
547.29	2277.34
547.49	2310.11
547.68	2242.53
547.88	2168.80
548.08	2420.70
548.27	2789.33
548.47	2275.29
548.67	2260.96
548.87	2338.78
549.06	2174.94
549.26	2224.09
549.46	2207.71
549.65	2275.29
549.85	2342.88
550.05	2301.92
550.24	2209.76
550.44	2263.01
550.64	2250.72
550.83	2269.15
551.03	2377.69
551.23	2408.41
551.42	2334.68
551.62	2150.37
551.82	2220.00
552.01	2189.28
552.21	2301.92
552.41	2150.37
552.60	2400.22
552.80	2250.72
553.00	2185.18
553.19	2242.53
553.39	2398.17
553.59	2086.88
553.78	2265.05
553.98	2285.53
554.17	2228.19
554.37	2340.83
554.57	2273.25
554.76	2129.89
554.96	2209.76
555.16	2248.67
555.35	2211.81
555.55	2260.96
555.75	2283.49
555.94	2365.40
556.14	2140.13
556.33	2256.86
556.53	2285.53
556.73	2211.81
556.92	2260.96
557.12	2342.88
557.32	2553.82
557.51	2398.17
557.71	2283.49
557.90	2416.60
558.10	2375.64
558.30	2232.29
558.49	2189.28
558.69	2254.81
558.88	2273.25
559.08	2222.05
559.28	2240.48
559.47	2316.25
559.67	2365.40
559.86	2510.81
560.06	2199.52
560.26	2291.68
560.45	2365.40
560.65	2277.34
560.84	2363.36
561.04	2258.91
561.24	2263.01
561.43	2148.32
561.63	2439.13
561.82	2308.06
562.02	2355.16
562.22	2240.48
562.41	2258.91
562.61	2269.15
562.80	2191.33
563.00	2578.39
563.19	2283.49
563.39	2359.26
563.59	2349.02
563.78	2179.04
563.98	2074.59
564.17	2148.32
564.37	2131.94
564.56	2371.55
564.76	2103.26
564.96	2363.36
565.15	2353.12
565.35	2486.23
565.54	2314.20
565.74	2314.20
565.93	2373.60
566.13	2285.53
566.32	2322.40
566.52	2228.19
566.71	2215.90
566.91	2402.27
567.11	2306.01
567.30	2189.28
567.50	2281.44
567.69	2351.07
567.89	2267.10
568.08	2176.99
568.28	2242.53
568.47	2170.85
568.67	2363.36
568.86	2301.92
569.06	2330.59
569.25	2267.10
569.45	2162.66
569.64	2183.13
569.84	2275.29
570.04	2252.77
570.23	2127.84
570.43	2273.25
570.62	2363.36
570.82	2430.94
571.01	2170.85
571.21	2187.23
571.40	2211.81
571.60	2332.64
571.79	2326.49
571.99	2252.77
572.18	2152.42
572.38	2293.72
572.57	2213.85
572.77	2328.54
572.96	2519.00
573.16	2283.49
573.35	2185.18
573.55	2365.40
573.74	2275.29
573.94	2263.01
574.13	2211.81
574.33	2400.22
574.52	2332.64
574.71	2314.20
574.91	2349.02
575.10	2213.85
575.30	2258.91
575.49	2213.85
575.69	2222.05
575.88	2297.82
576.08	2340.83
576.27	2428.89
576.47	2326.49
576.66	2402.27
576.86	2488.28
577.05	2355.16
577.25	2291.68
577.44	2482.14
577.64	2234.33
577.83	2346.97
578.02	2205.66
578.22	2336.73
578.41	2416.60
578.61	2267.10
578.80	2162.66
579.00	2314.20
579.19	2291.68
579.39	2281.44
579.58	2396.12
579.77	2244.57
579.97	2418.65
580.16	2457.56
580.36	2475.99
580.55	2418.65
580.75	2310.11
580.94	2322.40
581.13	2465.75
581.33	2422.75
581.52	2281.44
581.72	2502.62
581.91	2467.80
582.11	2330.59
582.30	2404.32
582.49	2322.40
582.69	2355.16
582.88	2318.30
583.08	2291.68
583.27	2490.33
583.47	2283.49
583.66	2240.48
583.85	2129.89
584.05	2306.01
584.24	2439.13
584.44	2283.49
584.63	2443.23
584.82	2394.08
585.02	2441.18
585.21	2494.43
585.41	2473.95
585.60	2375.64
585.79	2521.05
585.99	2564.06
586.18	2426.84
586.37	2912.21
586.57	4718.52
586.76	13963.05
586.96	33277.44
587.15	47086.90
587.34	56943.77
587.54	61830.22
587.73	56587.42
587.93	39759.27
588.12	30406.19
588.31	24309.39
588.51	21425.85
588.70	19406.55
588.89	17444.60
589.09	15226.65
589.28	13137.72
589.47	10577.76
589.67	8443.78
589.86	6254.50
590.06	4706.23
590.25	3848.13
590.44	3274.70
590.64	2797.53
590.83	2586.58
591.02	2654.17
591.22	2416.60
591.41	2381.79
591.60	2256.86
591.80	2535.39
591.99	2199.52
592.18	2340.83
592.38	2439.13
592.57	2246.62
592.76	2293.72
592.96	2320.35
593.15	2322.40
593.34	2461.66
593.54	2265.05
593.73	2326.49
593.92	2310.11
594.12	2406.36
594.31	2318.30
594.50	2412.51
594.70	2367.45
594.89	2572.25
595.08	2195.42
595.28	2359.26
595.47	2660.31
595.66	2377.69
595.86	2179.04
596.05	2220.00
596.24	2246.62
596.43	2447.32
596.63	2443.23
596.82	2293.72
597.01	2346.97
597.21	2547.67
597.40	2367.45
597.59	2285.53
597.79	2324.44
597.98	2373.60
598.17	2236.38
598.36	2351.07
598.56	2469.85
598.75	2215.90
598.94	2295.77
599.14	2260.96
599.33	2240.48
599.52	2306.01
599.71	2275.29
599.91	2387.93
600.10	2412.51
600.29	2367.45
600.48	2359.26
600.68	2228.19
600.87	2303.96
601.06	2181.09
601.26	2277.34
601.45	2281.44
601.64	2342.88
601.83	2439.13
602.03	2234.33
602.22	2150.37
602.41	2414.56
602.60	2512.86
602.80	2420.70
602.99	2365.40
603.18	2207.71
603.37	2316.25
603.57	2283.49
603.76	2338.78
603.95	2404.32
604.14	2183.13
604.34	2150.37
604.53	2207.71
604.72	2342.88
604.91	2340.83
605.10	2316.25
605.30	2146.27
605.49	2478.04
605.68	2355.16
605.87	2357.21
606.07	2168.80
606.26	2252.77
606.45	2299.87
606.64	2355.16
606.84	2242.53
607.03	2265.05
607.22	2408.41
607.41	2244.57
607.60	2260.96
607.80	2373.60
607.99	2295.77
608.18	2275.29
608.37	2252.77
608.56	2224.09
608.76	2385.88
608.95	2441.18
609.14	2326.49
609.33	2457.56
609.52	2492.38
609.72	2392.03
609.91	2383.84
610.10	2318.30
610.29	2392.03
610.48	2357.21
610.68	2371.55
610.87	2242.53
611.06	2291.68
611.25	2277.34
611.44	2404.32
611.63	2308.06
611.83	2334.68
612.02	2074.59
612.21	2412.51
612.40	2035.68
612.59	2176.99
612.79	2115.55
612.98	2248.67
613.17	2385.88
613.36	2312.16
613.55	2441.18
613.74	2326.49
613.93	2349.02
614.13	2473.95
614.32	2588.63
614.51	2430.94
614.70	2408.41
614.89	2275.29
615.08	2402.27
615.28	2824.15
615.47	2211.81
615.66	2265.05
615.85	2295.77
616.04	2541.53
616.23	2377.69
616.42	2281.44
616.62	2326.49
616.81	2373.60
617.00	2326.49
617.19	2408.41
617.38	2226.14
617.57	2340.83
617.76	2308.06
617.95	2334.68
618.15	2342.88
618.34	2430.94
618.53	2123.74
618.72	2424.80
618.91	2402.27
619.10	2375.64
619.29	2326.49
619.48	2224.09
619.68	2187.23
619.87	2187.23
620.06	2099.17
620.25	2346.97
620.44	2244.57
620.63	2232.29
620.82	2260.96
621.01	2314.20
621.20	2258.91
621.39	2320.35
621.59	2310.11
621.78	2252.77
621.97	2209.76
622.16	2324.44
622.35	2412.51
622.54	2383.84
622.73	2398.17
622.92	2164.70
623.11	2408.41
623.30	2209.76
623.49	2285.53
623.68	2156.51
623.88	2340.83
624.07	2213.85
624.26	2273.25
624.45	2252.77
624.64	2275.29
624.83	2357.21
625.02	2232.29
625.21	2334.68
625.40	2322.40
625.59	2449.37
625.78	2281.44
625.97	2392.03
626.16	2449.37
626.35	2453.47
626.54	2301.92
626.74	2475.99
626.93	2349.02
627.12	2330.59
627.31	2367.45
627.50	2379.74
627.69	2379.74
627.88	2187.23
628.07	2260.96
628.26	2152.42
628.45	2263.01
628.64	2168.80
628.83	2238.43
629.02	2111.46
629.21	2330.59
629.40	2299.87
629.59	2195.42
629.78	2197.47
629.97	2342.88
630.16	2234.33
630.35	2271.20
630.54	2295.77
630.73	2224.09
630.92	2324.44
631.11	2226.14
631.30	2312.16
631.49	2451.42
631.68	2265.05
631.87	2340.83
632.06	2117.60
632.25	2535.39
632.44	2248.67
632.63	2301.92
632.82	2277.34
633.01	2301.92
633.20	2373.60
633.39	2269.15
633.58	2226.14
633.77	2365.40
633.96	2314.20
634.15	2328.54
634.34	2271.20
634.53	2263.01
634.72	2220.00
634.91	2105.31
635.10	2353.12
635.29	2322.40
635.48	2330.59
635.67	2162.66
635.86	2172.89
636.05	2361.31
636.24	2324.44
636.43	2310.11
636.62	2301.92
636.81	2056.16
637.00	2248.67
637.19	2271.20
637.38	2283.49
637.57	2228.19
637.76	2346.97
637.95	2428.89
638.14	2293.72
638.33	2297.82
638.52	2355.16
638.71	2220.00
638.89	2156.51
639.08	2553.82
639.27	2357.21
639.46	2463.71
639.65	2854.87
639.84	2871.25
640.03	3096.53
640.22	2889.68
640.41	2947.03
640.60	2594.78
640.79	2600.92
640.98	2422.75
641.17	2465.75
641.36	2486.23
641.55	2432.99
641.74	2226.14
641.92	2283.49
642.11	2242.53
642.30	2342.88
642.49	2279.39
642.68	2248.67
642.87	2242.53
643.06	2303.96
643.25	2183.13
643.44	2232.29
643.63	2230.24
643.82	2365.40
644.00	2187.23
644.19	2250.72
644.38	2125.79
644.57	2381.79
644.76	2273.25
644.95	2205.66
645.14	2293.72
645.33	2211.81
645.52	2277.34
645.71	2101.22
645.89	2170.85
646.08	2283.49
646.27	2289.63
646.46	2437.08
646.65	2119.65
646.84	2248.67
647.03	2152.42
647.22	2351.07
647.40	2308.06
647.59	2181.09
647.78	2142.18
647.97	2129.89
648.16	2086.88
648.35	2432.99
648.54	2351.07
648.73	2217.95
648.91	2310.11
649.10	2279.39
649.29	2142.18
649.48	2322.40
649.67	2293.72
649.86	2275.29
650.05	2267.10
650.23	2432.99
650.42	2310.11
650.61	2555.86
650.80	2459.61
650.99	2469.85
651.18	2406.36
651.36	2443.23
651.55	2256.86
651.74	2357.21
651.93	2232.29
652.12	2271.20
652.31	2318.30
652.49	2172.89
652.68	2328.54
652.87	2473.95
653.06	2349.02
653.25	2500.57
653.44	2256.86
653.62	2492.38
653.81	2232.29
654.00	2279.39
654.19	2281.44
654.38	2535.39
654.56	2297.82
654.75	2195.42
654.94	2383.84
655.13	2250.72
655.32	2250.72
655.51	2291.68
655.69	2285.53
655.88	2322.40
656.07	2234.33
656.26	2306.01
656.45	2115.55
656.63	2246.62
656.82	2256.86
657.01	2320.35
657.20	2158.56
657.38	2408.41
657.57	2129.89
657.76	2105.31
657.95	2365.40
658.14	2267.10
658.32	2367.45
658.51	2111.46
658.70	2211.81
658.89	2334.68
659.08	2236.38
659.26	2443.23
659.45	2226.14
659.64	2349.02
659.83	2256.86
660.01	2617.30
660.20	2301.92
660.39	2416.60
660.58	2031.58
660.76	2260.96
660.95	2103.26
661.14	2267.10
661.33	2088.93
661.51	2195.42
661.70	2250.72
661.89	2308.06
662.08	2217.95
662.26	2133.98
662.45	2187.23
662.64	2379.74
662.83	2353.12
663.01	2070.50
663.20	2260.96
663.39	2379.74
663.58	2289.63
663.76	2195.42
663.95	2349.02
664.14	2220.00
664.32	2168.80
664.51	2142.18
664.70	2158.56
664.89	2293.72
665.07	2115.55
665.26	2340.83
665.45	2187.23
665.64	2326.49
665.82	2250.72
666.01	2314.20
666.20	2146.27
666.38	2346.97
666.57	2416.60
666.76	3424.20
666.95	8224.64
667.13	16588.55
667.32	21741.24
667.51	25101.95
667.69	26891.88
667.88	24641.16
668.07	17405.69
668.25	14212.90
668.44	11546.45
668.63	10024.81
668.81	8951.67
669.00	7712.65
669.19	6870.94
669.38	6016.93
669.56	5300.14
669.75	4276.16
669.94	3657.67
670.12	3092.43
670.31	2684.89
670.50	2674.65
670.68	2533.34
670.87	2381.79
671.06	2340.83
671.24	2371.55
671.43	2527.19
671.62	2359.26
671.80	2289.63
671.99	2326.49
672.18	2326.49
672.36	2269.15
672.55	2342.88
672.74	2238.43
672.92	2310.11
673.11	2314.20
673.29	2179.04
673.48	2369.50
673.67	2287.58
673.85	2408.41
674.04	2195.42
674.23	2328.54
674.41	2496.47
674.60	2234.33
674.79	2111.46
674.97	2166.75
675.16	2318.30
675.34	2332.64
675.53	2168.80
675.72	2363.36
675.90	2455.51
676.09	2138.08
676.28	2318.30
676.46	2138.08
676.65	2355.16
676.83	2144.22
677.02	2283.49
677.21	2301.92
677.39	2293.72
677.58	2183.13
677.77	2146.27
677.95	2136.03
678.14	2226.14
678.32	2263.01
678.51	2152.42
678.70	2414.56
678.88	2228.19
679.07	2267.10
679.25	2269.15
679.44	2324.44
679.63	2101.22
679.81	2295.77
680.00	2297.82
680.18	2295.77
680.37	2416.60
680.55	2299.87
680.74	2168.80
680.93	2050.02
681.11	2211.81
681.30	2260.96
681.48	2271.20
681.67	2185.18
681.85	2211.81
682.04	2199.52
682.23	2285.53
682.41	2193.37
682.60	2291.68
682.78	2314.20
682.97	2146.27
683.15	2275.29
683.34	2217.95
683.53	2424.80
683.71	2047.97
683.90	2365.40
684.08	2414.56
684.27	2215.90
684.45	2226.14
684.64	2373.60
684.82	2234.33
685.01	2389.98
685.19	2258.91
685.38	2365.40
685.57	2228.19
685.75	2168.80
685.94	2217.95
686.12	2170.85
686.31	2203.61
686.49	2463.71
686.68	2090.98
686.86	2314.20
687.05	2228.19
687.23	2375.64
687.42	2195.42
687.60	2129.89
687.79	2383.84
687.97	2387.93
688.16	2367.45
688.34	2441.18
688.53	2107.36
688.71	2306.01
688.90	2359.26
689.08	2166.75
689.27	2133.98
689.45	2340.83
689.64	2322.40
689.82	2258.91
690.01	2293.72
690.19	2314.20
690.38	2265.05
690.56	2359.26
690.75	2138.08
690.93	2168.80
691.12	2271.20
691.30	2301.92
691.49	2291.68
691.67	2299.87
691.86	2455.51
692.04	2236.38
692.23	2318.30
692.41	2207.71
692.60	2576.34
692.78	2387.93
692.97	2318.30
693.15	2373.60
693.34	2432.99
693.52	2373.60
693.71	2236.38
693.89	2179.04
694.08	2133.98
694.26	2248.67
694.44	2283.49
694.63	2316.25
694.81	2154.46
695.00	2263.01
695.18	2394.08
695.37	2564.06
695.55	2258.91
695.74	2203.61
695.92	2224.09
696.10	2461.66
696.29	2146.27
696.47	2154.46
696.66	2203.61
696.84	2168.80
697.03	2201.57
697.21	2400.22
697.40	3317.71
697.58	2322.40
697.76	2211.81
697.95	2199.52
698.13	2162.66
698.32	2187.23
698.50	2228.19
698.68	2301.92
698.87	2234.33
699.05	2435.03
699.24	2285.53
699.42	2158.56
699.61	2269.15
699.79	2242.53
699.97	2301.92
700.16	2176.99
700.34	2150.37
700.53	2342.88
700.71	2400.22
700.89	2320.35
701.08	2250.72
701.26	2222.05
701.45	2807.77
701.63	2113.50
701.81	2164.70
702.00	2211.81
702.18	2293.72
702.37	2312.16
702.55	2535.39
702.73	2527.19
702.92	2426.84
703.10	2572.25
703.28	2467.80
703.47	2260.96
703.65	2498.52
703.84	2467.80
704.02	2291.68
704.20	2465.75
704.39	2226.14
704.57	2236.38
704.75	2351.07
704.94	2420.70
705.12	2285.53
705.30	2523.10
705.49	4538.30
705.67	10532.70
705.86	18495.21
706.04	21927.60
706.22	25165.44
706.41	26185.33
706.59	21997.23
706.77	15996.68
706.96	13258.55
707.14	11620.17
707.32	9938.79
707.51	8806.27
707.69	7331.73
707.87	6068.13
708.06	4798.39
708.24	3882.95
708.42	3114.96
708.61	3108.82
708.79	2590.68
708.97	2480.09
709.16	2439.13
709.34	2308.06
709.52	2246.62
709.71	2260.96
709.89	2404.32
710.07	2068.45
710.26	2146.27
710.44	2359.26
710.62	2277.34
710.80	2254.81
710.99	2396.12
711.17	2414.56
711.35	2140.13
711.54	2179.04
711.72	2400.22
711.90	2332.64
712.09	2334.68
712.27	2185.18
712.45	2285.53
712.63	2199.52
712.82	2306.01
713.00	2220.00
713.18	2351.07
713.37	2293.72
713.55	2308.06
713.73	2332.64
713.91	2326.49
714.10	2285.53
714.28	2283.49
714.46	2269.15
714.65	2269.15
714.83	2273.25
715.01	2312.16
715.19	2318.30
715.38	2193.37
715.56	2334.68
715.74	2215.90
715.92	2199.52
716.11	2455.51
716.29	2060.26
716.47	2281.44
716.65	2226.14
716.84	2117.60
717.02	2279.39
717.20	2146.27
717.38	2291.68
717.57	2277.34
717.75	2285.53
717.93	2236.38
718.11	2346.97
718.30	2220.00
718.48	2244.57
718.66	2392.03
718.84	2351.07
719.03	2263.01
719.21	2160.61
719.39	2392.03
719.57	2332.64
719.75	2312.16
719.94	2224.09
720.12	2228.19
720.30	2281.44
720.48	2375.64
720.67	2172.89
720.85	2150.37
721.03	2226.14
721.21	2174.94
721.39	2287.58
721.58	2308.06
721.76	2271.20
721.94	2310.11
722.12	2316.25
722.30	2496.47
722.49	2260.96
722.67	2277.34
722.85	2312.16
723.03	2103.26
723.21	2146.27
723.40	2273.25
723.58	2412.51
723.76	2349.02
723.94	2377.69
724.12	2369.50
724.30	2443.23
724.49	2441.18
724.67	2230.24
724.85	2408.41
725.03	2146.27
725.21	2361.31
725.40	2428.89
725.58	2203.61
725.76	2326.49
725.94	2267.10
726.12	2113.50
726.30	2318.30
726.49	2248.67
726.67	2252.77
726.85	2359.26
727.03	2596.82
727.21	3626.95
727.39	4923.32
727.57	5894.05
727.76	6520.73
727.94	6727.58
728.12	6299.55
728.30	5306.29
728.48	4585.40
728.66	4093.89
728.84	3821.51
729.03	3274.70
729.21	2934.74
729.39	2760.66
729.57	2496.47
729.75	2437.08
729.93	2363.36
730.11	2211.81
730.30	2273.25
730.48	2275.29
730.66	2396.12
730.84	2277.34
731.02	2228.19
731.20	2265.05
731.38	2279.39
731.56	2088.93
731.74	2111.46
731.93	2250.72
732.11	2211.81
732.29	2234.33
732.47	2359.26
732.65	2336.73
732.83	2316.25
733.01	2250.72
733.19	2121.70
733.37	2277.34
733.56	2301.92
733.74	2207.71
733.92	2428.89
734.10	2138.08
734.28	2344.92
734.46	2121.70
734.64	2297.82
734.82	2181.09
735.00	2236.38
735.18	2232.29
735.36	2252.77
735.54	2187.23
735.73	2263.01
735.91	2285.53
736.09	2351.07
736.27	2234.33
736.45	2289.63
736.63	2097.12
736.81	2144.22
736.99	2310.11
737.17	2365.40
737.35	2211.81
737.53	2258.91
737.71	2185.18
737.89	2314.20
738.07	2090.98
738.25	2129.89
738.43	2133.98
738.61	2146.27
738.80	2121.70
738.98	2138.08
739.16	2228.19
739.34	2133.98
739.52	2324.44
739.70	2232.29
739.88	2224.09
740.06	2351.07
740.24	2043.87
740.42	2428.89
740.60	2088.93
740.78	2295.77
740.96	2107.36
741.14	2193.37
741.32	2267.10
741.50	2068.45
741.68	2426.84
741.86	2379.74
742.04	2058.21
742.22	2150.37
742.40	2314.20
742.58	2297.82
742.76	2115.55
742.94	2389.98
743.12	2011.11
743.30	2299.87
743.48	2293.72
743.66	2236.38
743.84	2324.44
744.02	2269.15
744.20	2187.23
744.38	2138.08
744.56	2203.61
744.74	2344.92
744.92	2340.83
745.10	2328.54
745.28	2318.30
745.46	2412.51
745.64	2203.61
745.82	2353.12
746.00	2211.81
746.18	2299.87
746.36	2230.24
746.54	2289.63
746.72	2318.30
746.90	2156.51
747.08	2400.22
747.26	2250.72
747.44	2357.21
747.62	2244.57
747.80	2318.30
747.98	2369.50
748.15	2220.00
748.33	2424.80
748.51	2275.29
748.69	2367.45
748.87	2209.76
749.05	2185.18
749.23	2234.33
749.41	2332.64
749.59	2238.43
749.77	2408.41
749.95	2213.85
750.13	2301.92
750.31	2293.72
750.49	2230.24
750.67	2398.17
750.85	2424.80
751.03	2277.34
751.20	2457.56
751.38	2252.77
751.56	2222.05
751.74	2217.95
751.92	2285.53
752.10	2164.70
752.28	2351.07
752.46	2236.38
752.64	2203.61
752.82	2201.57
753.00	2338.78
753.18	2183.13
753.35	2201.57
753.53	2203.61
753.71	2269.15
753.89	2240.48
754.07	2238.43
754.25	2222.05
754.43	2318.30
754.61	2082.78
754.79	2379.74
754.97	2232.29
755.14	2428.89
755.32	2172.89
755.50	2236.38
755.68	2277.34
755.86	2226.14
756.04	2213.85
756.22	2054.11
756.40	2310.11
756.57	2461.66
756.75	2215.90
756.93	2396.12
757.11	2416.60
757.29	2193.37
757.47	2162.66
757.65	2129.89
757.82	2035.68
758.00	2154.46
758.18	2150.37
758.36	2217.95
758.54	2488.28
758.72	2115.55
758.90	2322.40
759.07	2318.30
759.25	2170.85
759.43	2246.62
759.61	2179.04
759.79	3127.25
759.97	2297.82
760.15	2170.85
760.32	2160.61
760.50	2244.57
760.68	2310.11
760.86	2136.03
761.04	2422.75
761.22	2287.58
761.39	2269.15
761.57	2322.40
761.75	2236.38
761.93	2310.11
762.11	2197.47
762.28	2220.00
762.46	2152.42
762.64	2310.11
762.82	2131.94
763.00	2258.91
763.18	2346.97
763.35	2138.08
763.53	2318.30
763.71	2338.78
763.89	2267.10
764.07	2285.53
764.24	2277.34
764.42	2291.68
764.60	2185.18
764.78	2291.68
764.96	2342.88
765.13	2301.92
765.31	2168.80
765.49	2326.49
765.67	2101.22
765.84	2193.37
766.02	2129.89
766.20	2111.46
766.38	2281.44
766.56	2346.97
766.73	2330.59
766.91	2185.18
767.09	2256.86
767.27	2301.92
767.44	2123.74
767.62	2369.50
767.80	2172.89
767.98	2197.47
768.15	2224.09
768.33	2299.87
768.51	2334.68
768.69	2318.30
768.87	2267.10
769.04	2222.05
769.22	2529.24
769.40	2373.60
769.58	2416.60
769.75	2303.96
769.93	2373.60
770.11	2267.10
770.28	2176.99
770.46	2314.20
770.64	2226.14
770.82	2236.38
770.99	2234.33
771.17	2346.97
771.35	2246.62
771.53	2201.57
771.70	2191.33
771.88	2314.20
772.06	2211.81
772.23	2129.89
772.41	2269.15
772.59	2211.81
772.77	2197.47
772.94	2258.91
773.12	2359.26
773.30	2170.85
773.47	2238.43
773.65	2203.61
773.83	2342.88
774.01	2269.15
774.18	1966.05
774.36	2256.86
774.54	2127.84
774.71	2342.88
774.89	2117.60
775.07	2158.56
775.24	2236.38
775.42	2224.09
775.60	2455.51
775.78	2174.94
775.95	2045.92
776.13	2129.89
776.31	2002.91
776.48	2353.12
776.66	2330.59
776.84	2260.96
777.01	2160.61
777.19	2199.52
777.37	2193.37
777.54	2340.83
777.72	2523.10
777.90	2271.20
778.07	2138.08
778.25	2533.34
778.43	2363.36
778.60	2215.90
778.78	2299.87
778.96	2306.01
779.13	2189.28
779.31	2318.30
779.49	2260.96
779.66	2232.29
779.84	2248.67
780.01	2246.62
780.19	2150.37
780.37	2396.12
780.54	2338.78
780.72	2195.42
780.90	2232.29
781.07	2240.48
781.25	2179.04
781.43	2299.87
781.60	2215.90
781.78	2373.60
781.95	2174.94
782.13	2183.13
782.31	2179.04
782.48	2062.30
782.66	2207.71
782.83	2449.37
783.01	2277.34
783.19	2308.06
783.36	2189.28
783.54	2138.08
783.72	2355.16
783.89	2240.48
784.07	2295.77
784.24	2336.73
784.42	2340.83
784.60	2201.57
784.77	2299.87
784.95	2111.46
785.12	2162.66
785.30	2248.67
785.47	2129.89
785.65	2191.33
785.83	2199.52
786.00	2211.81
786.18	2215.90
786.35	2127.84
786.53	2060.26
786.71	2308.06
786.88	2306.01
787.06	2230.24
787.23	2181.09
787.41	2179.04
787.58	2289.63
787.76	2160.61
787.94	2267.10
788.11	2267.10
788.29	2133.98
788.46	2199.52
788.64	2103.26
788.81	2226.14
788.99	2193.37
789.16	2121.70
789.34	2269.15
789.52	2162.66
789.69	2293.72
789.87	2142.18
790.04	2203.61
790.22	2256.86
790.39	2424.80
790.57	2176.99
790.74	2166.75
790.92	2351.07
791.09	2064.35
791.27	2207.71
791.44	2314.20
791.62	2224.09
791.79	2375.64
791.97	2318.30
792.15	2523.10
792.32	2287.58
792.50	2410.46
792.67	2359.26
792.85	2375.64
793.02	2226.14
793.20	2209.76
793.37	2174.94
793.55	2127.84
793.72	2138.08
793.90	2207.71
794.07	2152.42
794.25	2170.85
794.42	2279.39
794.60	2248.67
794.77	2299.87
794.95	2289.63
795.12	2389.98
795.30	2236.38
795.47	2076.64
795.65	2510.81
795.82	2297.82
796.00	2111.46
796.17	2293.72
796.34	2113.50
796.52	2289.63
796.69	2277.34
796.87	2310.11
797.04	2346.97
797.22	2320.35
797.39	2285.53
797.57	2324.44
797.74	2273.25
797.92	2271.20
798.09	2195.42
798.27	2373.60
798.44	2211.81
798.62	2174.94
798.79	2316.25
798.96	2310.11
799.14	2191.33
799.31	2469.85
799.49	2207.71
799.66	2195.42
799.84	2242.53
800.01	2144.22
800.19	2316.25
800.36	2080.74
800.53	2246.62
800.71	2293.72
800.88	2359.26
801.06	2154.46
801.23	2226.14
801.41	2138.08
801.58	2193.37
801.75	2154.46
801.93	2269.15
802.10	2340.83
802.28	2168.80
802.45	2191.33
802.63	2332.64
802.80	2439.13
802.97	2142.18
803.15	2252.77
803.32	2275.29
803.50	2279.39
803.67	2170.85
803.84	2162.66
804.02	2287.58
804.19	2195.42
804.37	2045.92
804.54	2097.12
804.71	2191.33
804.89	2271.20
805.06	2146.27
805.24	2131.94
805.41	2195.42
805.58	2164.70
805.76	2447.32
805.93	2246.62
806.10	2314.20
806.28	2351.07
806.45	2277.34
806.63	2314.20
806.80	2260.96
806.97	2324.44
807.15	2326.49
807.32	2334.68
807.49	2256.86
807.67	2201.57
807.84	2242.53
808.01	2088.93
808.19	2400.22
808.36	2480.09
808.54	2213.85
808.71	2179.04
808.88	2187.23
809.06	2389.98
809.23	2357.21
809.40	2254.81
809.58	2293.72
809.75	2293.72
809.92	2142.18
810.10	2406.36
810.27	2193.37
810.44	2240.48
810.62	2256.86
810.79	2334.68
810.96	2160.61
811.14	2183.13
811.31	2258.91
811.48	2377.69
811.66	2258.91
811.83	2400.22
812.00	2289.63
812.18	2209.76
812.35	2451.42
812.52	2246.62
812.69	2148.32
812.87	2207.71
813.04	2101.22
813.21	2277.34
813.39	2138.08
813.56	2195.42
813.73	2381.79
813.91	2088.93
814.08	2224.09
814.25	2258.91
814.42	2113.50
814.60	2199.52
814.77	2283.49
814.94	2228.19
815.12	2217.95
815.29	2449.37
815.46	2146.27
815.63	2248.67
815.81	2273.25
815.98	2281.44
816.15	2232.29
816.33	2197.47
816.50	2213.85
816.67	2250.72
816.84	2254.81
817.02	2187.23
817.19	2308.06
817.36	2209.76
817.53	2308.06
817.71	2136.03
817.88	2316.25
818.05	2281.44
818.22	2160.61
818.40	2377.69
818.57	2162.66
818.74	2260.96
818.91	2316.25
819.09	2310.11
819.26	2265.05
819.43	2160.61
819.60	2220.00
819.78	2338.78
819.95	2217.95
820.12	2158.56
820.29	2420.70
820.47	2416.60
820.64	2195.42
820.81	2107.36
820.98	2115.55
821.15	2119.65
821.33	2375.64
821.50	2095.07
821.67	2338.78
821.84	2228.19
822.02	2316.25
822.19	2396.12
822.36	2154.46
822.53	2228.19
822.70	2203.61
822.88	2289.63
823.05	2406.36
823.22	2172.89
823.39	2297.82
823.56	2234.33
823.74	2424.80
823.91	2156.51
824.08	2107.36
824.25	2142.18
824.42	2441.18
824.60	2113.50
824.77	2277.34
824.94	2168.80
825.11	2312.16
825.28	2039.78
825.45	2203.61
825.63	2228.19
825.80	2121.70
825.97	2297.82
826.14	2211.81
826.31	2166.75
826.48	2273.25
826.66	2129.89
826.83	2213.85
827.00	2283.49
827.17	2205.66
827.34	2201.57
827.51	2207.71
827.69	2201.57
827.86	2150.37
828.03	2162.66
828.20	2256.86
828.37	2224.09
828.54	2179.04
828.71	2127.84
828.89	2334.68
829.06	2265.05
829.23	2416.60
829.40	2121.70
829.57	2258.91
829.74	2281.44
829.91	2113.50
830.09	2136.03
830.26	2236.38
830.43	2383.84
830.60	2256.86
830.77	2326.49
830.94	2361.31
831.11	2330.59
831.28	2228.19
831.46	2258.91
831.63	2209.76
831.80	2269.15
831.97	2146.27
832.14	2201.57
832.31	2416.60
832.48	2275.29
832.65	2379.74
832.82	2191.33
832.99	2326.49
833.17	2176.99
833.34	2318.30
833.51	2250.72
833.68	2033.63
833.85	2310.11
834.02	2220.00
834.19	2152.42
834.36	2138.08
834.53	2340.83
834.70	2301.92
834.87	2324.44
835.04	2187.23
835.22	2160.61
835.39	2213.85
835.56	2084.83
835.73	2138.08
835.90	2357.21
836.07	2209.76
836.24	2244.57
836.41	2195.42
836.58	2162.66
836.75	2340.83
836.92	2213.85
837.09	2117.60
837.26	2277.34
837.43	2279.39
837.60	2211.81
837.77	2138.08
837.94	2310.11
838.12	2295.77
838.29	2152.42
838.46	2043.87
838.63	2150.37
838.80	2463.71
838.97	2236.38
839.14	2201.57
839.31	2213.85
839.48	2226.14
839.65	2207.71
839.82	2230.24
839.99	2226.14
840.16	2176.99
840.33	2236.38
840.50	2265.05
840.67	2142.18
840.84	2080.74
841.01	2205.66
841.18	2146.27
841.35	2297.82
841.52	2279.39
841.69	2334.68
841.86	2293.72
842.03	2275.29
842.20	2342.88
842.37	2232.29
842.54	2156.51
842.71	2224.09
842.88	2103.26
843.05	2254.81
843.22	2146.27
843.39	2316.25
843.56	2228.19
843.73	2217.95
843.90	2195.42
844.07	2326.49
844.24	2275.29
844.41	2322.40
844.58	2150.37
844.75	2224.09
844.92	2316.25
845.09	2215.90
845.26	2240.48
845.43	2342.88
845.60	2226.14
845.77	2281.44
845.94	2260.96
846.10	2299.87
846.27	2187.23
846.44	2121.70
846.61	2099.17
846.78	2285.53
846.95	2301.92
847.12	2211.81
847.29	2209.76
847.46	2076.64
847.63	2349.02
847.80	2166.75
847.97	2144.22
848.14	2484.19
848.31	2277.34
848.48	2103.26
848.65	2269.15
848.82	2138.08
848.98	2453.47
849.15	2293.72
849.32	2277.34
849.49	2336.73
849.66	2293.72
849.83	2240.48
850.00	2123.74
850.17	2242.53
850.34	2211.81
850.51	2179.04
850.68	2197.47
850.85	2445.27
851.01	2230.24
851.18	2203.61
851.35	2217.95
851.52	2248.67
851.69	2383.84
851.86	2117.60
852.03	2195.42
852.20	2275.29
852.37	2189.28
852.53	2050.02
852.70	2189.28
852.87	2236.38
853.04	2342.88
853.21	2144.22
853.38	2308.06
853.55	2334.68
853.72	2381.79
853.89	2119.65
854.05	2105.31
854.22	2215.90
854.39	2236.38
854.56	2170.85
854.73	2318.30
854.90	2117.60
855.07	2166.75
855.23	2179.04
855.40	2193.37
855.57	2224.09
855.74	2064.35
855.91	2404.32
856.08	2097.12
856.25	2041.82
856.41	2195.42
856.58	2179.04
856.75	2115.55
856.92	2146.27
857.09	2303.96
857.26	2103.26
857.42	2154.46
857.59	2308.06
857.76	2254.81
857.93	2263.01
858.10	2322.40
858.27	2170.85
858.43	2250.72
858.60	2142.18
858.77	2150.37
858.94	2133.98
859.11	2371.55
859.27	2187.23
859.44	2195.42
859.61	2455.51
859.78	2209.76
859.95	2195.42
860.12	2205.66
860.28	2480.09
860.45	2410.46
860.62	2146.27
860.79	2230.24
860.95	2211.81
861.12	2164.70
861.29	2121.70
861.46	2168.80
861.63	2207.71
861.79	2322.40
861.96	2097.12
862.13	2148.32
862.30	2389.98
862.47	2105.31
862.63	2197.47
862.80	2250.72
862.97	2359.26
863.14	2260.96
863.30	2232.29
863.47	2172.89
863.64	2398.17
863.81	2306.01
863.97	2154.46
864.14	2289.63
864.31	2217.95
864.48	2285.53
864.65	2129.89
864.81	2230.24
864.98	2381.79
865.15	2385.88
865.32	2314.20
865.48	2346.97
865.65	2437.08
865.82	2260.96
865.98	2273.25
866.15	2263.01
866.32	2224.09
866.49	2199.52
866.65	2297.82
866.82	2154.46
866.99	2185.18
867.16	2191.33
867.32	2183.13
867.49	2201.57
867.66	2213.85
867.83	2174.94
867.99	2068.45
868.16	2144.22
868.33	2150.37
868.49	2244.57
868.66	2224.09
868.83	2310.11
868.99	2254.81
869.16	2248.67
869.33	2365.40
869.50	2224.09
869.66	2248.67
869.83	2267.10
870.00	2152.42
870.16	2346.97
870.33	2207.71
870.50	2375.64
870.66	2279.39
870.83	2273.25
871.00	2267.10
871.17	2254.81
871.33	2265.05
871.50	2199.52
871.67	2228.19
871.83	2068.45
872.00	2349.02
872.17	2234.33
872.33	2416.60
872.50	2344.92
872.67	2123.74
872.83	2150.37
873.00	2318.30
873.17	2277.34
873.33	2263.01
873.50	2314.20
873.67	2203.61
873.83	2168.80
874.00	2252.77
874.16	2277.34
874.33	2236.38
874.50	2158.56
874.66	2217.95
874.83	2176.99
875.00	2326.49
875.16	2269.15
875.33	2365.40
875.50	2062.30
875.66	2113.50
875.83	2275.29
875.99	2297.82
876.16	2195.42
876.33	2105.31
876.49	2267.10
876.66	2248.67
876.83	2199.52
876.99	2080.74
877.16	2267.10
877.32	2203.61
877.49	2209.76
877.66	2201.57
877.82	2381.79
877.99	2283.49
878.15	2291.68
878.32	2338.78
878.49	2289.63
878.65	2164.70
878.82	2318.30
878.98	2113.50
879.15	2404.32
879.32	2316.25
879.48	2324.44
879.65	2187.23
879.81	2170.85
879.98	2152.42
880.15	2164.70
880.31	2314.20
880.48	2160.61
880.64	2318.30
880.81	2195.42
880.97	2297.82
881.14	2365.40
881.31	2152.42
881.47	2328.54
881.64	2244.57
881.80	2097.12
881.97	2279.39
882.13	2283.49
882.30	2140.13
882.47	2156.51
882.63	2191.33
882.80	2144.22
882.96	2273.25
883.13	2244.57
883.29	2203.61
883.46	2250.72
883.62	2424.80
883.79	2258.91
883.95	2326.49
884.12	2220.00
884.29	2275.29
884.45	2310.11
884.62	2260.96
884.78	2209.76
884.95	2392.03
885.11	2230.24
885.28	2285.53
885.44	2138.08
885.61	2381.79
885.77	2244.57
885.94	2267.10
886.10	2146.27
886.27	2248.67
886.43	2432.99
886.60	2320.35
886.76	2119.65
886.93	2183.13
887.09	2285.53
887.26	2086.88
887.42	2269.15
887.59	2287.58
887.75	2435.03
887.92	2308.06
888.08	2367.45
888.25	2400.22
888.41	2283.49
888.58	2174.94
888.74	2105.31
888.91	2166.75
>>>>>End Processed Spectral Data<<<<<
